onset	duration	sample	value	key	prompt_text
3.348	7.3005	6696	prompt	n/a	the quick brown fox jumps over a lazy dog\n
4.4655	0.042	8931	keystroke_t	t	n/a
4.523	0.075	9046	keystroke_h	h	n/a
5.468	0.134	10936	keystroke_e	e	n/a
5.587	0.1365	11174	keystroke_Key.space	Key.space	n/a
5.813	0.121	11626	keystroke_q	q	n/a
5.918	0.0755	11836	keystroke_u	u	n/a
6.0085	0.105	12017	keystroke_i	i	n/a
6.1745	0.135	12349	keystroke_c	c	n/a
6.2645	0.0745	12529	keystroke_k	k	n/a
6.3695	0.0745	12739	keystroke_Key.space	Key.space	n/a
6.5045	0.0595	13009	keystroke_b	b	n/a
6.6545	0.0445	13309	keystroke_r	r	n/a
6.669	0.0755	13338	keystroke_o	o	n/a
6.8345	0.1205	13669	keystroke_w	w	n/a
6.8805	0.089	13761	keystroke_n	n	n/a
7.0145	0.09	14029	keystroke_Key.space	Key.space	n/a
7.24	0.0905	14480	keystroke_f	f	n/a
7.345	0.075	14690	keystroke_o	o	n/a
7.4645	0.105	14929	keystroke_x	x	n/a
7.5545	0.09	15109	keystroke_Key.space	Key.space	n/a
8.035	0.1045	16070	keystroke_j	j	n/a
8.23	0.045	16460	keystroke_u	u	n/a
8.3945	0.06	16789	keystroke_m	m	n/a
8.5595	0.06	17119	keystroke_p	p	n/a
8.62	0.1045	17240	keystroke_s	s	n/a
8.7095	0.075	17419	keystroke_Key.space	Key.space	n/a
8.8295	0.105	17659	keystroke_o	o	n/a
8.9045	0.061	17809	keystroke_v	v	n/a
9.0395	0.105	18079	keystroke_e	e	n/a
9.1155	0.075	18231	keystroke_r	r	n/a
9.1745	0.0895	18349	keystroke_Key.space	Key.space	n/a
9.3245	0.135	18649	keystroke_a	a	n/a
9.4445	0.06	18889	keystroke_Key.space	Key.space	n/a
9.5345	0.105	19069	keystroke_l	l	n/a
9.655	0.1055	19310	keystroke_a	a	n/a
9.745	0.0895	19490	keystroke_z	z	n/a
9.8195	0.0905	19639	keystroke_y	y	n/a
10.045	0.0895	20090	keystroke_Key.space	Key.space	n/a
10.15	0.09	20300	keystroke_d	d	n/a
10.254	0.0755	20508	keystroke_o	o	n/a
10.3895	0.09	20779	keystroke_g	g	n/a
10.509	0.1355	21018	keystroke_Key.enter	Key.enter	n/a
10.655	5.0925	21310	prompt	n/a	jelsoft interesting ones quotes\n
11.365	0.15	22730	keystroke_j	j	n/a
11.469	0.136	22938	keystroke_e	e	n/a
12.3545	0.1655	24709	keystroke_l	l	n/a
12.595	0.1195	25190	keystroke_s	s	n/a
12.7005	0.074	25401	keystroke_o	o	n/a
12.8195	0.0905	25639	keystroke_f	f	n/a
13.015	0.0905	26030	keystroke_t	t	n/a
13.0755	0.104	26151	keystroke_Key.space	Key.space	n/a
13.225	0.0595	26450	keystroke_i	i	n/a
13.33	0.105	26660	keystroke_n	n	n/a
13.3895	0.076	26779	keystroke_t	t	n/a
13.5255	0.074	27051	keystroke_e	e	n/a
13.6155	0.134	27231	keystroke_r	r	n/a
13.69	0.0745	27380	keystroke_e	e	n/a
13.87	0.03	27740	keystroke_s	s	n/a
14.0045	0.075	28009	keystroke_t	t	n/a
14.0645	0.075	28129	keystroke_i	i	n/a
14.1845	0.105	28369	keystroke_n	n	n/a
14.2595	0.09	28519	keystroke_g	g	n/a
14.3345	0.09	28669	keystroke_Key.space	Key.space	n/a
14.44	0.06	28880	keystroke_o	o	n/a
14.59	0.075	29180	keystroke_n	n	n/a
14.68	0.105	29360	keystroke_e	e	n/a
14.7245	0.09	29449	keystroke_s	s	n/a
14.8	0.075	29600	keystroke_Key.space	Key.space	n/a
14.9345	0.076	29869	keystroke_q	q	n/a
15.0105	0.0595	30021	keystroke_u	u	n/a
15.1755	0.104	30351	keystroke_o	o	n/a
15.25	0.0755	30500	keystroke_t	t	n/a
15.3095	0.105	30619	keystroke_e	e	n/a
15.52	0.0905	31040	keystroke_s	s	n/a
15.6545	0.0905	31309	keystroke_Key.enter	Key.enter	n/a
15.7525	5.3055	31505	prompt	n/a	coal attorneys shops buses\n
16.3755	0.0755	32751	keystroke_c	c	n/a
16.48	0.0895	32960	keystroke_o	o	n/a
16.6	0.075	33200	keystroke_a	a	n/a
16.7055	0.0895	33411	keystroke_l	l	n/a
16.84	0.105	33680	keystroke_Key.space	Key.space	n/a
16.9895	0.106	33979	keystroke_a	a	n/a
17.2295	0.0605	34459	keystroke_t	t	n/a
17.38	0.0605	34760	keystroke_t	t	n/a
17.5005	0.104	35001	keystroke_o	o	n/a
17.56	0.1045	35120	keystroke_r	r	n/a
17.7695	0.1055	35539	keystroke_n	n	n/a
17.965	0.12	35930	keystroke_e	e	n/a
18.0995	0.076	36199	keystroke_y	y	n/a
18.205	0.105	36410	keystroke_s	s	n/a
18.294	0.0905	36588	keystroke_Key.space	Key.space	n/a
19.2545	0.1355	38509	keystroke_s	s	n/a
19.3755	0.06	38751	keystroke_h	h	n/a
19.54	0.075	39080	keystroke_o	o	n/a
19.735	0.105	39470	keystroke_p	p	n/a
19.8995	0.0905	39799	keystroke_s	s	n/a
20.005	0.105	40010	keystroke_Key.space	Key.space	n/a
20.2155	0.0595	40431	keystroke_b	b	n/a
20.3345	0.1055	40669	keystroke_u	u	n/a
20.4255	0.104	40851	keystroke_s	s	n/a
20.7255	0.0895	41451	keystroke_e	e	n/a
20.7695	0.106	41539	keystroke_s	s	n/a
20.9495	0.105	41899	keystroke_Key.enter	Key.enter	n/a
20.965	0.0745	41930	keystroke_Key.space	Key.space	n/a
21.063	6.372	42126	prompt	n/a	volt yarn language suffered\n
22.3145	0.076	44629	keystroke_v	v	n/a
22.42	0.075	44840	keystroke_o	o	n/a
22.615	0.0745	45230	keystroke_l	l	n/a
22.7055	0.089	45411	keystroke_t	t	n/a
23.47	0.12	46940	keystroke_Key.space	Key.space	n/a
23.8605	0.074	47721	keystroke_y	y	n/a
23.9195	0.09	47839	keystroke_a	a	n/a
24.115	0.06	48230	keystroke_r	r	n/a
24.2195	0.105	48439	keystroke_n	n	n/a
24.3545	0.1205	48709	keystroke_Key.space	Key.space	n/a
24.955	0.135	49910	keystroke_l	l	n/a
25.105	0.075	50210	keystroke_a	a	n/a
25.2095	0.1055	50419	keystroke_n	n	n/a
25.42	0.075	50840	keystroke_g	g	n/a
25.5255	0.0895	51051	keystroke_u	u	n/a
25.66	0.06	51320	keystroke_a	a	n/a
25.84	0.1345	51680	keystroke_g	g	n/a
25.915	0.1055	51830	keystroke_e	e	n/a
26.1545	0.09	52309	keystroke_s	s	n/a
26.2595	0.0905	52519	keystroke_Key.space	Key.space	n/a
26.3955	0.089	52791	keystroke_s	s	n/a
26.5	0.0755	53000	keystroke_u	u	n/a
26.605	0.0605	53210	keystroke_f	f	n/a
26.74	0.09	53480	keystroke_f	f	n/a
26.83	0.1055	53660	keystroke_e	e	n/a
26.9645	0.12	53929	keystroke_r	r	n/a
27.04	0.0895	54080	keystroke_e	e	n/a
27.205	0.105	54410	keystroke_d	d	n/a
27.3245	0.105	54649	keystroke_Key.enter	Key.enter	n/a
27.44	6.5795	54880	prompt	n/a	ready recommended o'er titanium\n
28.09	0.09	56180	keystroke_r	r	n/a
28.15	0.075	56300	keystroke_e	e	n/a
28.3455	0.059	56691	keystroke_a	a	n/a
28.4795	0.105	56959	keystroke_d	d	n/a
28.5405	0.059	57081	keystroke_y	y	n/a
28.645	0.1045	57290	keystroke_Key.space	Key.space	n/a
28.7505	0.104	57501	keystroke_r	r	n/a
28.8245	0.075	57649	keystroke_e	e	n/a
29.0045	0.09	58009	keystroke_c	c	n/a
29.0795	0.075	58159	keystroke_o	o	n/a
29.3045	0.0455	58609	keystroke_m	m	n/a
29.4245	0.0895	58849	keystroke_m	m	n/a
29.529	0.061	59058	keystroke_e	e	n/a
29.605	0.09	59210	keystroke_n	n	n/a
29.725	0.1055	59450	keystroke_d	d	n/a
29.9045	0.1355	59809	keystroke_e	e	n/a
29.9945	0.106	59989	keystroke_d	d	n/a
30.0845	0.105	60169	keystroke_Key.space	Key.space	n/a
30.4005	0.1045	60801	keystroke_o	o	n/a
30.64	0.1195	61280	keystroke_'	'	n/a
31.225	0.1355	62450	keystroke_e	e	n/a
31.3005	0.1045	62601	keystroke_r	r	n/a
31.8395	0.105	63679	keystroke_Key.space	Key.space	n/a
32.3355	0.0895	64671	keystroke_t	t	n/a
32.4395	0.091	64879	keystroke_i	i	n/a
32.5445	0.1205	65089	keystroke_t	t	n/a
32.83	0.09	65660	keystroke_a	a	n/a
33.3255	0.06	66651	keystroke_n	n	n/a
33.43	0.0755	66860	keystroke_i	i	n/a
33.5655	0.075	67131	keystroke_u	u	n/a
33.76	0.059	67520	keystroke_m	m	n/a
33.895	0.1195	67790	keystroke_Key.enter	Key.enter	n/a
34.0305	4.6515	68061	prompt	n/a	focal ain't jordan sterling\n
35.0055	0.105	70011	keystroke_f	f	n/a
35.17	0.1195	70340	keystroke_o	o	n/a
35.26	0.075	70520	keystroke_c	c	n/a
35.4555	0.0895	70911	keystroke_a	a	n/a
35.515	0.1355	71030	keystroke_l	l	n/a
35.6645	0.075	71329	keystroke_Key.space	Key.space	n/a
35.7545	0.09	71509	keystroke_a	a	n/a
35.8295	0.0755	71659	keystroke_i	i	n/a
35.9505	0.06	71901	keystroke_n	n	n/a
36.0695	0.12	72139	keystroke_'	'	n/a
36.2195	0.121	72439	keystroke_t	t	n/a
36.3545	0.105	72709	keystroke_Key.space	Key.space	n/a
36.5655	0.09	73131	keystroke_j	j	n/a
36.7	0.105	73400	keystroke_o	o	n/a
36.79	0.075	73580	keystroke_r	r	n/a
37.0155	0.0895	74031	keystroke_d	d	n/a
37.1945	0.09	74389	keystroke_a	a	n/a
37.3	0.0745	74600	keystroke_n	n	n/a
37.4195	0.09	74839	keystroke_Key.space	Key.space	n/a
37.525	0.0905	75050	keystroke_s	s	n/a
37.7795	0.076	75559	keystroke_t	t	n/a
37.915	0.105	75830	keystroke_e	e	n/a
37.99	0.0895	75980	keystroke_r	r	n/a
38.0655	0.0585	76131	keystroke_l	l	n/a
38.199	0.06	76398	keystroke_i	i	n/a
38.319	0.1065	76638	keystroke_n	n	n/a
38.3945	0.0905	76789	keystroke_g	g	n/a
38.469	0.076	76938	keystroke_Key.space	Key.space	n/a
38.5895	0.0895	77179	keystroke_Key.enter	Key.enter	n/a
38.6895	8.518	77379	prompt	n/a	priority distant substitute salem\n
39.3705	0.1345	78741	keystroke_p	p	n/a
40.3155	0.104	80631	keystroke_r	r	n/a
40.4505	0.074	80901	keystroke_i	i	n/a
40.6445	0.1055	81289	keystroke_o	o	n/a
40.7645	0.1355	81529	keystroke_r	r	n/a
41.2605	0.12	82521	keystroke_i	i	n/a
41.365	0.135	82730	keystroke_t	t	n/a
41.4705	0.104	82941	keystroke_y	y	n/a
41.6195	0.1055	83239	keystroke_Key.space	Key.space	n/a
41.9205	0.075	83841	keystroke_i	i	n/a
42.31	0.045	84620	keystroke_Key.backspace	Key.backspace	n/a
42.445	0.105	84890	keystroke_d	d	n/a
42.565	0.075	85130	keystroke_i	i	n/a
42.67	0.0895	85340	keystroke_s	s	n/a
42.8655	0.059	85731	keystroke_t	t	n/a
43.045	0.09	86090	keystroke_a	a	n/a
43.165	0.09	86330	keystroke_n	n	n/a
43.6	0.09	87200	keystroke_t	t	n/a
43.735	0.09	87470	keystroke_Key.space	Key.space	n/a
43.855	0.12	87710	keystroke_s	s	n/a
43.96	0.075	87920	keystroke_u	u	n/a
44.095	0.105	88190	keystroke_b	b	n/a
44.185	0.105	88370	keystroke_s	s	n/a
44.395	0.12	88790	keystroke_t	t	n/a
44.545	0.12	89090	keystroke_i	i	n/a
45.13	0.09	90260	keystroke_t	t	n/a
45.235	0.1055	90470	keystroke_u	u	n/a
45.76	0.0605	91520	keystroke_t	t	n/a
45.91	0.12	91820	keystroke_e	e	n/a
46.045	0.09	92090	keystroke_Key.space	Key.space	n/a
46.2995	0.1205	92599	keystroke_s	s	n/a
46.4055	0.105	92811	keystroke_a	a	n/a
46.5245	0.1355	93049	keystroke_l	l	n/a
46.7495	0.105	93499	keystroke_e	e	n/a
46.8705	0.0895	93741	keystroke_m	m	n/a
46.9295	0.136	93859	keystroke_Key.space	Key.space	n/a
47.0805	0.12	94161	keystroke_Key.enter	Key.enter	n/a
47.22	5.772	94440	prompt	n/a	governor authority arena station\n
47.9345	0.0755	95869	keystroke_g	g	n/a
48.0395	0.1055	96079	keystroke_o	o	n/a
48.1145	0.0755	96229	keystroke_v	v	n/a
48.2495	0.1355	96499	keystroke_e	e	n/a
48.3395	0.0905	96679	keystroke_r	r	n/a
48.535	0.075	97070	keystroke_n	n	n/a
48.715	0.0905	97430	keystroke_o	o	n/a
48.7905	0.105	97581	keystroke_r	r	n/a
48.8795	0.105	97759	keystroke_Key.space	Key.space	n/a
49.0305	0.09	98061	keystroke_a	a	n/a
49.1215	0.1035	98243	keystroke_u	u	n/a
49.2555	0.059	98511	keystroke_t	t	n/a
49.3305	0.045	98661	keystroke_h	h	n/a
49.4955	0.075	98991	keystroke_o	o	n/a
49.5555	0.105	99111	keystroke_r	r	n/a
49.7055	0.0895	99411	keystroke_i	i	n/a
49.8405	0.0745	99681	keystroke_t	t	n/a
50.0055	0.075	100011	keystroke_y	y	n/a
50.11	0.105	100220	keystroke_Key.space	Key.space	n/a
50.2745	0.09	100549	keystroke_a	a	n/a
50.4855	0.1355	100971	keystroke_r	r	n/a
50.545	0.12	101090	keystroke_e	e	n/a
50.74	0.0895	101480	keystroke_n	n	n/a
50.845	0.1045	101690	keystroke_a	a	n/a
50.9645	0.0905	101929	keystroke_Key.space	Key.space	n/a
51.1005	0.135	102201	keystroke_s	s	n/a
51.3555	0.09	102711	keystroke_t	t	n/a
51.5355	0.074	103071	keystroke_a	a	n/a
51.805	0.06	103610	keystroke_i	i	n/a
52.24	0.06	104480	keystroke_Key.backspace	Key.backspace	n/a
52.33	0.0755	104660	keystroke_t	t	n/a
52.45	0.075	104900	keystroke_i	i	n/a
52.6	0.06	105200	keystroke_o	o	n/a
52.735	0.075	105470	keystroke_n	n	n/a
52.8845	0.105	105769	keystroke_Key.enter	Key.enter	n/a
52.996	6.176	105992	prompt	n/a	defining geography synthetic radius\n
53.6205	0.135	107241	keystroke_d	d	n/a
53.74	0.0905	107480	keystroke_e	e	n/a
53.9055	0.105	107811	keystroke_f	f	n/a
54.0555	0.09	108111	keystroke_i	i	n/a
54.2045	0.0755	108409	keystroke_n	n	n/a
54.3555	0.06	108711	keystroke_i	i	n/a
54.475	0.0755	108950	keystroke_n	n	n/a
54.5795	0.0905	109159	keystroke_g	g	n/a
54.685	0.09	109370	keystroke_Key.space	Key.space	n/a
54.9405	0.1345	109881	keystroke_g	g	n/a
55.03	0.105	110060	keystroke_e	e	n/a
55.12	0.09	110240	keystroke_o	o	n/a
55.645	0.135	111290	keystroke_g	g	n/a
55.72	0.09	111440	keystroke_r	r	n/a
55.946	0.074	111892	keystroke_a	a	n/a
55.99	0.075	111980	keystroke_p	p	n/a
56.185	0.06	112370	keystroke_h	h	n/a
56.3505	0.0445	112701	keystroke_y	y	n/a
56.515	0.0745	113030	keystroke_Key.space	Key.space	n/a
56.6045	0.091	113209	keystroke_s	s	n/a
56.71	0.0595	113420	keystroke_y	y	n/a
56.8905	0.09	113781	keystroke_n	n	n/a
57.0845	0.091	114169	keystroke_t	t	n/a
57.2045	0.09	114409	keystroke_h	h	n/a
57.2795	0.12	114559	keystroke_e	e	n/a
57.5955	0.074	115191	keystroke_t	t	n/a
57.6845	0.09	115369	keystroke_i	i	n/a
57.8195	0.1055	115639	keystroke_c	c	n/a
57.9095	0.0905	115819	keystroke_Key.space	Key.space	n/a
58.0895	0.076	116179	keystroke_r	r	n/a
58.2695	0.0755	116539	keystroke_a	a	n/a
58.405	0.1045	116810	keystroke_d	d	n/a
58.4805	0.075	116961	keystroke_i	i	n/a
58.6445	0.0905	117289	keystroke_u	u	n/a
58.7805	0.09	117561	keystroke_s	s	n/a
58.9295	0.076	117859	keystroke_Key.space	Key.space	n/a
59.0495	0.12	118099	keystroke_Key.enter	Key.enter	n/a
59.1765	4.8405	118353	prompt	n/a	parents spell cruz band\n
59.83	0.12	119660	keystroke_p	p	n/a
59.8745	0.091	119749	keystroke_a	a	n/a
60.0545	0.106	120109	keystroke_r	r	n/a
60.13	0.1055	120260	keystroke_e	e	n/a
60.2205	0.09	120441	keystroke_n	n	n/a
60.2955	0.06	120591	keystroke_t	t	n/a
60.4605	0.0745	120921	keystroke_s	s	n/a
60.505	0.0905	121010	keystroke_Key.space	Key.space	n/a
60.745	0.12	121490	keystroke_e	e	n/a
60.9545	0.0905	121909	keystroke_p	p	n/a
61.48	0.045	122960	keystroke_Key.backspace	Key.backspace	n/a
61.585	0.075	123170	keystroke_Key.backspace	Key.backspace	n/a
61.675	0.09	123350	keystroke_s	s	n/a
61.7955	0.0745	123591	keystroke_p	p	n/a
61.8855	0.1195	123771	keystroke_e	e	n/a
62.0205	0.0895	124041	keystroke_l	l	n/a
62.215	0.0605	124430	keystroke_l	l	n/a
62.335	0.105	124670	keystroke_Key.space	Key.space	n/a
62.6505	0.075	125301	keystroke_c	c	n/a
62.83	0.075	125660	keystroke_r	r	n/a
62.92	0.1055	125840	keystroke_u	u	n/a
63.1	0.105	126200	keystroke_z	z	n/a
63.175	0.0755	126350	keystroke_Key.space	Key.space	n/a
63.385	0.0905	126770	keystroke_b	b	n/a
63.46	0.0755	126920	keystroke_a	a	n/a
63.58	0.105	127160	keystroke_n	n	n/a
63.686	0.089	127372	keystroke_d	d	n/a
63.745	0.0895	127490	keystroke_Key.space	Key.space	n/a
63.9105	0.1045	127821	keystroke_Key.enter	Key.enter	n/a
64.0205	9.341	128041	prompt	n/a	flesh secure accommodate aggregate\n
64.69	0.1505	129380	keystroke_f	f	n/a
64.826	0.0595	129652	keystroke_e	e	n/a
65.0355	0.074	130071	keystroke_l	l	n/a
65.3345	0.0305	130669	keystroke_Key.backspace	Key.backspace	n/a
65.4395	0.06	130879	keystroke_Key.backspace	Key.backspace	n/a
65.68	0.0595	131360	keystroke_l	l	n/a
66.295	0.0755	132590	keystroke_e	e	n/a
66.3255	0.134	132651	keystroke_s	s	n/a
66.445	0.0605	132890	keystroke_h	h	n/a
66.5645	0.106	133129	keystroke_Key.space	Key.space	n/a
66.6395	0.061	133279	keystroke_s	s	n/a
66.805	0.06	133610	keystroke_e	e	n/a
66.925	0.09	133850	keystroke_c	c	n/a
67.09	0.075	134180	keystroke_u	u	n/a
67.1805	0.1195	134361	keystroke_r	r	n/a
67.255	0.09	134510	keystroke_e	e	n/a
67.33	0.09	134660	keystroke_Key.space	Key.space	n/a
67.465	0.0605	134930	keystroke_a	a	n/a
67.66	0.09	135320	keystroke_c	c	n/a
68.5145	0.046	137029	keystroke_o	o	n/a
68.845	0.06	137690	keystroke_Key.backspace	Key.backspace	n/a
68.98	0.12	137960	keystroke_c	c	n/a
69.115	0.0755	138230	keystroke_o	o	n/a
69.685	0.0745	139370	keystroke_m	m	n/a
69.88	0.015	139760	keystroke_m	m	n/a
70.3155	0.0895	140631	keystroke_o	o	n/a
70.6155	0.0895	141231	keystroke_d	d	n/a
70.795	0.06	141590	keystroke_a	a	n/a
70.96	0.1205	141920	keystroke_t	t	n/a
71.035	0.12	142070	keystroke_e	e	n/a
71.11	0.105	142220	keystroke_Key.space	Key.space	n/a
71.275	0.09	142550	keystroke_a	a	n/a
71.546	0.0595	143092	keystroke_g	g	n/a
71.6955	0.06	143391	keystroke_g	g	n/a
71.861	0.1345	143722	keystroke_r	r	n/a
71.9195	0.121	143839	keystroke_e	e	n/a
72.505	0.06	145010	keystroke_g	g	n/a
72.745	0.075	145490	keystroke_a	a	n/a
72.955	0.105	145910	keystroke_t	t	n/a
73.015	0.12	146030	keystroke_e	e	n/a
73.15	0.09	146300	keystroke_Key.space	Key.space	n/a
73.241	0.119	146482	keystroke_Key.enter	Key.enter	n/a
73.3655	8.502	146731	prompt	n/a	tattoo behavior cardiovascular continually\n
74.0655	0.059	148131	keystroke_t	t	n/a
74.2455	0.0745	148491	keystroke_a	a	n/a
74.44	0.06	148880	keystroke_t	t	n/a
74.5905	0.0745	149181	keystroke_t	t	n/a
74.7555	0.0445	149511	keystroke_o	o	n/a
74.905	0.075	149810	keystroke_o	o	n/a
74.995	0.09	149990	keystroke_Key.space	Key.space	n/a
75.16	0.106	150320	keystroke_b	b	n/a
75.266	0.1195	150532	keystroke_e	e	n/a
75.386	0.089	150772	keystroke_h	h	n/a
75.52	0.09	151040	keystroke_a	a	n/a
75.761	0.0895	151522	keystroke_v	v	n/a
75.8655	0.0755	151731	keystroke_i	i	n/a
76.0605	0.09	152121	keystroke_o	o	n/a
76.165	0.09	152330	keystroke_r	r	n/a
76.27	0.09	152540	keystroke_Key.space	Key.space	n/a
76.4655	0.0595	152931	keystroke_c	c	n/a
76.6155	0.0745	153231	keystroke_a	a	n/a
76.795	0.045	153590	keystroke_r	r	n/a
76.96	0.12	153920	keystroke_d	d	n/a
77.0655	0.0595	154131	keystroke_i	i	n/a
77.2305	0.0895	154461	keystroke_o	o	n/a
77.5605	0.104	155121	keystroke_v	v	n/a
77.845	0.12	155690	keystroke_a	a	n/a
77.9355	0.1045	155871	keystroke_s	s	n/a
78.2055	0.06	156411	keystroke_c	c	n/a
78.295	0.0905	156590	keystroke_u	u	n/a
78.49	0.0905	156980	keystroke_l	l	n/a
78.5655	0.0745	157131	keystroke_a	a	n/a
78.745	0.09	157490	keystroke_r	r	n/a
78.82	0.1055	157640	keystroke_Key.space	Key.space	n/a
78.97	0.1045	157940	keystroke_c	c	n/a
79.0595	0.06	158119	keystroke_o	o	n/a
79.21	0.075	158420	keystroke_n	n	n/a
79.2995	0.0905	158599	keystroke_t	t	n/a
79.3745	0.09	158749	keystroke_i	i	n/a
80.395	0.0455	160790	keystroke_n	n	n/a
80.545	0.075	161090	keystroke_u	u	n/a
80.635	0.0605	161270	keystroke_s	s	n/a
80.8155	0.0595	161631	keystroke_a	a	n/a
81.025	0.03	162050	keystroke_Key.backspace	Key.backspace	n/a
81.13	0.0755	162260	keystroke_Key.backspace	Key.backspace	n/a
81.22	0.12	162440	keystroke_a	a	n/a
81.37	0.0755	162740	keystroke_l	l	n/a
81.52	0.0905	163040	keystroke_l	l	n/a
81.595	0.0905	163190	keystroke_y	y	n/a
81.7455	0.1195	163491	keystroke_Key.enter	Key.enter	n/a
81.8715	6.596	163743	prompt	n/a	bulletin keno cakes corresponding\n
82.54	0.0605	165080	keystroke_b	b	n/a
82.645	0.09	165290	keystroke_u	u	n/a
82.87	0.045	165740	keystroke_l	l	n/a
83.0055	0.104	166011	keystroke_l	l	n/a
83.0505	0.0745	166101	keystroke_e	e	n/a
83.1845	0.105	166369	keystroke_t	t	n/a
83.3045	0.046	166609	keystroke_i	i	n/a
83.4255	0.09	166851	keystroke_n	n	n/a
83.53	0.0595	167060	keystroke_Key.space	Key.space	n/a
83.6655	0.105	167331	keystroke_k	k	n/a
83.7705	0.089	167541	keystroke_e	e	n/a
83.9205	0.09	167841	keystroke_n	n	n/a
84.64	0.0905	169280	keystroke_o	o	n/a
85.0305	0.12	170061	keystroke_Key.space	Key.space	n/a
85.27	0.0595	170540	keystroke_c	c	n/a
85.4355	0.0745	170871	keystroke_a	a	n/a
85.5405	0.074	171081	keystroke_k	k	n/a
85.6005	0.12	171201	keystroke_e	e	n/a
85.6755	0.12	171351	keystroke_s	s	n/a
85.7805	0.089	171561	keystroke_Key.space	Key.space	n/a
85.9155	0.075	171831	keystroke_c	c	n/a
86.0045	0.076	172009	keystroke_o	o	n/a
86.2295	0.046	172459	keystroke_r	r	n/a
86.3655	0.09	172731	keystroke_r	r	n/a
86.4105	0.135	172821	keystroke_e	e	n/a
86.95	0.0745	173900	keystroke_s	s	n/a
87.07	0.09	174140	keystroke_p	p	n/a
87.265	0.075	174530	keystroke_o	o	n/a
87.4455	0.09	174891	keystroke_n	n	n/a
87.7605	0.135	175521	keystroke_d	d	n/a
87.91	0.0755	175820	keystroke_i	i	n/a
88.045	0.105	176090	keystroke_n	n	n/a
88.1355	0.1045	176271	keystroke_g	g	n/a
88.21	0.09	176420	keystroke_Key.space	Key.space	n/a
88.33	0.1355	176660	keystroke_Key.enter	Key.enter	n/a
88.472	5.5	176944	prompt	n/a	evaluating parental core espn\n
89.2155	0.12	178431	keystroke_e	e	n/a
89.4405	0.09	178881	keystroke_v	v	n/a
89.6805	0.075	179361	keystroke_a	a	n/a
90.07	0.135	180140	keystroke_l	l	n/a
90.3405	0.12	180681	keystroke_u	u	n/a
90.625	0.075	181250	keystroke_a	a	n/a
90.85	0.09	181700	keystroke_t	t	n/a
90.9255	0.0595	181851	keystroke_i	i	n/a
91.0605	0.0895	182121	keystroke_n	n	n/a
91.135	0.0755	182270	keystroke_g	g	n/a
91.225	0.06	182450	keystroke_Key.space	Key.space	n/a
91.3605	0.09	182721	keystroke_p	p	n/a
91.42	0.06	182840	keystroke_a	a	n/a
91.57	0.1205	183140	keystroke_r	r	n/a
91.6305	0.105	183261	keystroke_e	e	n/a
91.7495	0.091	183499	keystroke_n	n	n/a
91.8705	0.089	183741	keystroke_t	t	n/a
92.1255	0.09	184251	keystroke_a	a	n/a
92.2305	0.105	184461	keystroke_l	l	n/a
92.3505	0.0895	184701	keystroke_Key.space	Key.space	n/a
92.4705	0.075	184941	keystroke_c	c	n/a
92.5605	0.075	185121	keystroke_o	o	n/a
92.68	0.1205	185360	keystroke_r	r	n/a
92.7405	0.135	185481	keystroke_e	e	n/a
92.8445	0.106	185689	keystroke_Key.space	Key.space	n/a
93.1295	0.121	186259	keystroke_e	e	n/a
93.2205	0.104	186441	keystroke_s	s	n/a
93.4455	0.06	186891	keystroke_p	p	n/a
93.6405	0.06	187281	keystroke_n	n	n/a
93.7455	0.134	187491	keystroke_Key.space	Key.space	n/a
93.8805	0.09	187761	keystroke_Key.enter	Key.enter	n/a
93.9765	5.186	187953	prompt	n/a	panic guests generator tsunami\n
94.6455	0.105	189291	keystroke_p	p	n/a
94.8105	0.09	189621	keystroke_a	a	n/a
94.9155	0.075	189831	keystroke_n	n	n/a
95.0655	0.06	190131	keystroke_i	i	n/a
95.1405	0.104	190281	keystroke_c	c	n/a
95.2305	0.1045	190461	keystroke_Key.space	Key.space	n/a
95.47	0.09	190940	keystroke_g	g	n/a
95.5745	0.076	191149	keystroke_u	u	n/a
95.6655	0.12	191331	keystroke_e	e	n/a
95.7255	0.105	191451	keystroke_s	s	n/a
95.8905	0.075	191781	keystroke_t	t	n/a
96.0705	0.0895	192141	keystroke_s	s	n/a
96.1455	0.104	192291	keystroke_Key.space	Key.space	n/a
96.2945	0.091	192589	keystroke_g	g	n/a
96.4755	0.134	192951	keystroke_e	e	n/a
96.7	0.09	193400	keystroke_n	n	n/a
96.775	0.105	193550	keystroke_e	e	n/a
96.835	0.105	193670	keystroke_r	r	n/a
97.076	0.075	194152	keystroke_a	a	n/a
97.27	0.06	194540	keystroke_t	t	n/a
97.3755	0.0905	194751	keystroke_o	o	n/a
97.466	0.089	194932	keystroke_r	r	n/a
97.57	0.105	195140	keystroke_Key.space	Key.space	n/a
97.7955	0.075	195591	keystroke_t	t	n/a
97.975	0.105	195950	keystroke_s	s	n/a
98.125	0.09	196250	keystroke_u	u	n/a
98.4855	0.075	196971	keystroke_n	n	n/a
98.5905	0.1045	197181	keystroke_a	a	n/a
98.68	0.075	197360	keystroke_m	m	n/a
98.8	0.12	197600	keystroke_i	i	n/a
98.935	0.12	197870	keystroke_Key.space	Key.space	n/a
99.04	0.1205	198080	keystroke_Key.enter	Key.enter	n/a
99.167	6.445	198334	prompt	n/a	launched repository asked fence\n
99.91	0.151	199820	keystroke_l	l	n/a
100.001	0.045	200002	keystroke_e	e	n/a
100.165	0.136	200330	keystroke_a	a	n/a
100.525	0.045	201050	keystroke_Key.backspace	Key.backspace	n/a
100.645	0.075	201290	keystroke_Key.backspace	Key.backspace	n/a
100.7355	0.105	201471	keystroke_a	a	n/a
100.855	0.061	201710	keystroke_u	u	n/a
101.021	0.06	202042	keystroke_n	n	n/a
101.096	0.0745	202192	keystroke_c	c	n/a
101.185	0.09	202370	keystroke_h	h	n/a
101.306	0.1645	202612	keystroke_e	e	n/a
101.395	0.12	202790	keystroke_d	d	n/a
101.5	0.105	203000	keystroke_Key.space	Key.space	n/a
101.74	0.151	203480	keystroke_r	r	n/a
101.83	0.151	203660	keystroke_e	e	n/a
102.19	0.0595	204380	keystroke_p	p	n/a
102.3545	0.0905	204709	keystroke_o	o	n/a
102.5055	0.12	205011	keystroke_s	s	n/a
102.6395	0.09	205279	keystroke_i	i	n/a
102.7755	0.15	205551	keystroke_t	t	n/a
102.9705	0.1055	205941	keystroke_o	o	n/a
103.63	0.106	207260	keystroke_r	r	n/a
103.7365	0.074	207473	keystroke_y	y	n/a
103.8855	0.119	207771	keystroke_Key.space	Key.space	n/a
104.0955	0.135	208191	keystroke_a	a	n/a
104.2305	0.089	208461	keystroke_s	s	n/a
104.38	0.0905	208760	keystroke_k	k	n/a
104.4395	0.1365	208879	keystroke_e	e	n/a
104.5295	0.106	209059	keystroke_d	d	n/a
104.62	0.1055	209240	keystroke_Key.space	Key.space	n/a
104.7555	0.0895	209511	keystroke_f	f	n/a
104.905	0.1205	209810	keystroke_e	e	n/a
105.0405	0.09	210081	keystroke_n	n	n/a
105.145	0.1355	210290	keystroke_c	c	n/a
105.236	0.119	210472	keystroke_e	e	n/a
105.385	0.1055	210770	keystroke_Key.space	Key.space	n/a
105.505	0.1055	211010	keystroke_Key.enter	Key.enter	n/a
105.6185	5.214	211237	prompt	n/a	throw curtis scripting bring\n
106.27	0.075	212540	keystroke_t	t	n/a
106.3605	0.06	212721	keystroke_h	h	n/a
106.4355	0.06	212871	keystroke_r	r	n/a
106.5105	0.105	213021	keystroke_o	o	n/a
106.6005	0.09	213201	keystroke_w	w	n/a
106.7205	0.089	213441	keystroke_Key.space	Key.space	n/a
106.8255	0.09	213651	keystroke_c	c	n/a
106.9455	0.075	213891	keystroke_u	u	n/a
107.0805	0.075	214161	keystroke_r	r	n/a
107.3055	0.105	214611	keystroke_t	t	n/a
108.2055	0.0755	216411	keystroke_i	i	n/a
108.326	0.0895	216652	keystroke_s	s	n/a
108.4005	0.105	216801	keystroke_Key.space	Key.space	n/a
108.9105	0.0595	217821	keystroke_s	s	n/a
109.06	0.0605	218120	keystroke_c	c	n/a
109.2405	0.09	218481	keystroke_r	r	n/a
109.3305	0.044	218661	keystroke_i	i	n/a
109.4955	0.074	218991	keystroke_p	p	n/a
109.5545	0.09	219109	keystroke_t	t	n/a
109.6595	0.075	219319	keystroke_i	i	n/a
109.84	0.09	219680	keystroke_n	n	n/a
109.885	0.09	219770	keystroke_g	g	n/a
109.99	0.06	219980	keystroke_Key.space	Key.space	n/a
110.095	0.075	220190	keystroke_b	b	n/a
110.185	0.09	220370	keystroke_r	r	n/a
110.26	0.0605	220520	keystroke_i	i	n/a
110.41	0.09	220820	keystroke_n	n	n/a
110.485	0.1055	220970	keystroke_g	g	n/a
110.575	0.0905	221150	keystroke_Key.space	Key.space	n/a
110.695	0.1355	221390	keystroke_Key.enter	Key.enter	n/a
110.8365	4.391	221673	prompt	n/a	rolled shan't resorts grad\n
111.4905	0.1355	222981	keystroke_r	r	n/a
111.626	0.0595	223252	keystroke_o	o	n/a
111.807	0.043	223614	keystroke_l	l	n/a
111.9405	0.06	223881	keystroke_l	l	n/a
112.045	0.06	224090	keystroke_e	e	n/a
112.0605	0.0895	224121	keystroke_d	d	n/a
112.135	0.075	224270	keystroke_Key.space	Key.space	n/a
112.255	0.0755	224510	keystroke_s	s	n/a
112.346	0.059	224692	keystroke_h	h	n/a
112.436	0.0895	224872	keystroke_a	a	n/a
112.481	0.074	224962	keystroke_i	i	n/a
112.601	0.059	225202	keystroke_n	n	n/a
112.72	0.12	225440	keystroke_'	'	n/a
112.825	0.1205	225650	keystroke_t	t	n/a
112.93	0.09	225860	keystroke_Key.space	Key.space	n/a
113.066	0.1195	226132	keystroke_r	r	n/a
113.1255	0.1045	226251	keystroke_e	e	n/a
113.3355	0.0745	226671	keystroke_s	s	n/a
113.4255	0.1045	226851	keystroke_o	o	n/a
113.59	0.075	227180	keystroke_r	r	n/a
113.7705	0.0445	227541	keystroke_t	t	n/a
113.95	0.0905	227900	keystroke_s	s	n/a
114.0255	0.104	228051	keystroke_Key.space	Key.space	n/a
114.5205	0.1055	229041	keystroke_g	g	n/a
114.5805	0.105	229161	keystroke_r	r	n/a
114.8355	0.06	229671	keystroke_a	a	n/a
114.9405	0.12	229881	keystroke_d	d	n/a
115.0905	0.135	230181	keystroke_Key.enter	Key.enter	n/a
115.231	5.6975	230462	prompt	n/a	stores preview collecting mailman\n
115.8705	0.0295	231741	keystroke_s	s	n/a
115.99	0.075	231980	keystroke_t	t	n/a
116.1105	0.1055	232221	keystroke_o	o	n/a
116.171	0.104	232342	keystroke_r	r	n/a
116.23	0.09	232460	keystroke_e	e	n/a
116.425	0.105	232850	keystroke_s	s	n/a
116.515	0.0905	233030	keystroke_Key.space	Key.space	n/a
116.6795	0.0905	233359	keystroke_p	p	n/a
116.7095	0.12	233419	keystroke_r	r	n/a
116.8	0.0755	233600	keystroke_e	e	n/a
116.9655	0.06	233931	keystroke_v	v	n/a
117.0555	0.09	234111	keystroke_i	i	n/a
117.2205	0.1045	234441	keystroke_e	e	n/a
117.2505	0.1645	234501	keystroke_w	w	n/a
117.37	0.09	234740	keystroke_Key.space	Key.space	n/a
117.535	0.075	235070	keystroke_c	c	n/a
117.61	0.075	235220	keystroke_o	o	n/a
117.836	0.014	235672	keystroke_l	l	n/a
117.926	0.1045	235852	keystroke_l	l	n/a
117.97	0.09	235940	keystroke_e	e	n/a
118.0455	0.0895	236091	keystroke_c	c	n/a
118.27	0.075	236540	keystroke_t	t	n/a
118.315	0.06	236630	keystroke_i	i	n/a
118.45	0.0905	236900	keystroke_n	n	n/a
118.525	0.09	237050	keystroke_g	g	n/a
118.63	0.06	237260	keystroke_Key.space	Key.space	n/a
118.81	0.0755	237620	keystroke_a	a	n/a
118.87	0.12	237740	keystroke_m	m	n/a
119.38	0.0305	238760	keystroke_Key.backspace	Key.backspace	n/a
119.5155	0.0445	239031	keystroke_Key.backspace	Key.backspace	n/a
119.7105	0.075	239421	keystroke_m	m	n/a
119.815	0.091	239630	keystroke_a	a	n/a
119.891	0.089	239782	keystroke_i	i	n/a
120.085	0.091	240170	keystroke_l	l	n/a
120.31	0.105	240620	keystroke_m	m	n/a
120.4	0.06	240800	keystroke_a	a	n/a
120.581	0.074	241162	keystroke_n	n	n/a
120.745	0.03	241490	keystroke_Key.space	Key.space	n/a
120.79	0.135	241580	keystroke_Key.enter	Key.enter	n/a
120.9375	5.6745	241875	prompt	n/a	wants southampton bruce iraq\n
121.496	0.1345	242992	keystroke_w	w	n/a
121.5855	0.0905	243171	keystroke_a	a	n/a
121.75	0.075	243500	keystroke_n	n	n/a
121.826	0.0895	243652	keystroke_t	t	n/a
122.0505	0.075	244101	keystroke_s	s	n/a
122.0955	0.09	244191	keystroke_Key.space	Key.space	n/a
122.2605	0.09	244521	keystroke_s	s	n/a
122.3055	0.06	244611	keystroke_o	o	n/a
122.516	0.0735	245032	keystroke_u	u	n/a
123.4455	0.105	246891	keystroke_t	t	n/a
123.4905	0.12	246981	keystroke_h	h	n/a
123.7305	0.0745	247461	keystroke_h	h	n/a
123.82	0.0755	247640	keystroke_a	a	n/a
123.955	0.0455	247910	keystroke_m	m	n/a
124.091	0.09	248182	keystroke_p	p	n/a
124.211	0.119	248422	keystroke_t	t	n/a
124.315	0.06	248630	keystroke_i	i	n/a
124.481	0.059	248962	keystroke_o	o	n/a
124.6005	0.105	249201	keystroke_n	n	n/a
124.6905	0.105	249381	keystroke_Key.space	Key.space	n/a
124.8405	0.0895	249681	keystroke_b	b	n/a
124.9455	0.0595	249891	keystroke_r	r	n/a
124.975	0.091	249950	keystroke_u	u	n/a
125.141	0.1195	250282	keystroke_c	c	n/a
125.2465	0.1195	250493	keystroke_e	e	n/a
125.3355	0.075	250671	keystroke_Key.space	Key.space	n/a
125.5005	0.12	251001	keystroke_i	i	n/a
125.6055	0.09	251211	keystroke_r	r	n/a
125.8155	0.075	251631	keystroke_a	a	n/a
126.0255	0.105	252051	keystroke_g	g	n/a
126.3255	0.165	252651	keystroke_Key.space	Key.space	n/a
126.5205	0.09	253041	keystroke_Key.enter	Key.enter	n/a
126.6165	5.861	253233	prompt	n/a	silly clinical beam wrestling\n
127.331	0.1195	254662	keystroke_s	s	n/a
127.4355	0.075	254871	keystroke_i	i	n/a
127.6145	0.046	255229	keystroke_l	l	n/a
127.7505	0.075	255501	keystroke_l	l	n/a
127.946	0.0595	255892	keystroke_y	y	n/a
128.0505	0.09	256101	keystroke_Key.space	Key.space	n/a
128.1255	0.12	256251	keystroke_c	c	n/a
128.2605	0.06	256521	keystroke_l	l	n/a
128.3655	0.075	256731	keystroke_i	i	n/a
128.5005	0.09	257001	keystroke_n	n	n/a
128.651	0.1035	257302	keystroke_i	i	n/a
128.8155	0.0745	257631	keystroke_c	c	n/a
128.98	0.105	257960	keystroke_a	a	n/a
129.0695	0.091	258139	keystroke_l	l	n/a
129.1895	0.061	258379	keystroke_Key.space	Key.space	n/a
129.385	0.1055	258770	keystroke_b	b	n/a
129.94	0.106	259880	keystroke_e	e	n/a
130	0.135	260000	keystroke_a	a	n/a
130.12	0.076	260240	keystroke_m	m	n/a
130.36	0.105	260720	keystroke_Key.space	Key.space	n/a
130.5705	0.0895	261141	keystroke_w	w	n/a
130.7955	0.1645	261591	keystroke_r	r	n/a
130.8855	0.135	261771	keystroke_e	e	n/a
131.11	0.045	262220	keystroke_s	s	n/a
131.65	0.1055	263300	keystroke_t	t	n/a
131.771	0.0745	263542	keystroke_l	l	n/a
131.9205	0.075	263841	keystroke_i	i	n/a
132.0705	0.0905	264141	keystroke_n	n	n/a
132.1455	0.1055	264291	keystroke_g	g	n/a
132.251	0.0435	264502	keystroke_Key.space	Key.space	n/a
132.3405	0.135	264681	keystroke_Key.enter	Key.enter	n/a
132.482	4.8885	264964	prompt	n/a	perry belongs glow riders\n
133.1505	0.06	266301	keystroke_p	p	n/a
133.1955	0.075	266391	keystroke_e	e	n/a
133.3905	0.0755	266781	keystroke_r	r	n/a
133.5705	0.1045	267141	keystroke_r	r	n/a
133.646	0.075	267292	keystroke_y	y	n/a
133.7805	0.0895	267561	keystroke_Key.space	Key.space	n/a
133.9745	0.075	267949	keystroke_b	b	n/a
134.066	0.1195	268132	keystroke_e	e	n/a
134.2	0.076	268400	keystroke_l	l	n/a
134.35	0.075	268700	keystroke_o	o	n/a
134.486	0.104	268972	keystroke_n	n	n/a
134.5755	0.0745	269151	keystroke_g	g	n/a
134.8005	0.09	269601	keystroke_s	s	n/a
134.8605	0.12	269721	keystroke_Key.space	Key.space	n/a
135.2655	0.105	270531	keystroke_g	g	n/a
135.3555	0.0755	270711	keystroke_l	l	n/a
135.5355	0.06	271071	keystroke_o	o	n/a
135.6255	0.105	271251	keystroke_w	w	n/a
135.7155	0.105	271431	keystroke_Key.space	Key.space	n/a
136.2405	0.1055	272481	keystroke_r	r	n/a
136.451	0.0895	272902	keystroke_i	i	n/a
136.526	0.1795	273052	keystroke_d	d	n/a
136.631	0.1345	273262	keystroke_e	e	n/a
136.886	0.1045	273772	keystroke_r	r	n/a
137.141	0.089	274282	keystroke_s	s	n/a
137.29	0.0755	274580	keystroke_Key.enter	Key.enter	n/a
137.3745	4.793	274749	prompt	n/a	routes lines alloy lovely\n
138.0105	0.105	276021	keystroke_r	r	n/a
138.116	0.0595	276232	keystroke_o	o	n/a
138.2655	0.075	276531	keystroke_u	u	n/a
138.325	0.091	276650	keystroke_t	t	n/a
138.46	0.12	276920	keystroke_e	e	n/a
138.7	0.0605	277400	keystroke_s	s	n/a
138.761	0.0595	277522	keystroke_Key.space	Key.space	n/a
139.0305	0.06	278061	keystroke_i	i	n/a
139.4355	0.045	278871	keystroke_Key.backspace	Key.backspace	n/a
139.631	0.1195	279262	keystroke_l	l	n/a
139.8105	0.075	279621	keystroke_i	i	n/a
139.9605	0.105	279921	keystroke_n	n	n/a
140.0805	0.135	280161	keystroke_e	e	n/a
140.156	0.105	280312	keystroke_s	s	n/a
140.2755	0.075	280551	keystroke_Key.space	Key.space	n/a
140.4405	0.075	280881	keystroke_a	a	n/a
140.5305	0.075	281061	keystroke_l	l	n/a
140.7105	0.045	281421	keystroke_l	l	n/a
140.816	0.0895	281632	keystroke_o	o	n/a
141.0265	0.059	282053	keystroke_y	y	n/a
141.1755	0.075	282351	keystroke_Key.space	Key.space	n/a
141.3405	0.06	282681	keystroke_l	l	n/a
141.491	0.074	282982	keystroke_o	o	n/a
141.55	0.1055	283100	keystroke_v	v	n/a
141.6105	0.12	283221	keystroke_e	e	n/a
141.701	0.1195	283402	keystroke_l	l	n/a
141.8805	0.12	283761	keystroke_y	y	n/a
142.0305	0.135	284061	keystroke_Key.enter	Key.enter	n/a
142.1705	6.8365	284341	prompt	n/a	jimmy initiatives donna reviewer\n
142.24	0.0445	284480	keystroke_Key.space	Key.space	n/a
142.87	0.106	285740	keystroke_j	j	n/a
143.0205	0.0755	286041	keystroke_i	i	n/a
143.2005	0.0595	286401	keystroke_m	m	n/a
143.3355	0.0895	286671	keystroke_m	m	n/a
143.89	0.075	287780	keystroke_y	y	n/a
144.1305	0.12	288261	keystroke_Key.space	Key.space	n/a
144.476	0.074	288952	keystroke_i	i	n/a
144.61	0.0905	289220	keystroke_n	n	n/a
144.746	0.105	289492	keystroke_i	i	n/a
144.836	0.1045	289672	keystroke_t	t	n/a
144.971	0.119	289942	keystroke_i	i	n/a
145.405	0.091	290810	keystroke_a	a	n/a
145.616	0.0745	291232	keystroke_t	t	n/a
145.691	0.0895	291382	keystroke_i	i	n/a
145.811	0.0895	291622	keystroke_v	v	n/a
145.8555	0.105	291711	keystroke_e	e	n/a
146.0655	0.09	292131	keystroke_s	s	n/a
146.171	0.0745	292342	keystroke_Key.space	Key.space	n/a
146.246	0.0895	292492	keystroke_d	d	n/a
146.351	0.0745	292702	keystroke_o	o	n/a
146.5455	0.06	293091	keystroke_n	n	n/a
146.7105	0.0445	293421	keystroke_n	n	n/a
146.77	0.076	293540	keystroke_a	a	n/a
146.86	0.075	293720	keystroke_Key.space	Key.space	n/a
146.9955	0.12	293991	keystroke_r	r	n/a
147.0855	0.075	294171	keystroke_e	e	n/a
147.2655	0.0745	294531	keystroke_v	v	n/a
147.3855	0.09	294771	keystroke_i	i	n/a
148.0005	0.135	296001	keystroke_e	e	n/a
148.0755	0.12	296151	keystroke_r	r	n/a
148.3315	0.104	296663	keystroke_w	w	n/a
148.406	0.0745	296812	keystroke_e	e	n/a
148.5855	0.09	297171	keystroke_r	r	n/a
148.7655	0.105	297531	keystroke_Key.space	Key.space	n/a
148.8855	0.12	297771	keystroke_Key.enter	Key.enter	n/a
149.011	6.956	298022	prompt	n/a	canadian look michigan paperback\n
149.621	0.06	299242	keystroke_c	c	n/a
149.786	0.105	299572	keystroke_a	a	n/a
149.9065	0.1045	299813	keystroke_n	n	n/a
150.041	0.1045	300082	keystroke_d	d	n/a
150.6555	0.105	301311	keystroke_Key.backspace	Key.backspace	n/a
150.745	0.076	301490	keystroke_a	a	n/a
151.0155	0.1055	302031	keystroke_d	d	n/a
151.105	0.106	302210	keystroke_i	i	n/a
151.3305	0.0895	302661	keystroke_a	a	n/a
151.451	0.089	302902	keystroke_n	n	n/a
151.585	0.045	303170	keystroke_Key.space	Key.space	n/a
151.7055	0.0905	303411	keystroke_l	l	n/a
151.9	0.061	303800	keystroke_o	o	n/a
152.0355	0.1045	304071	keystroke_o	o	n/a
152.155	0.1055	304310	keystroke_k	k	n/a
152.3205	0.105	304641	keystroke_Key.space	Key.space	n/a
152.591	0.0595	305182	keystroke_m	m	n/a
152.741	0.0745	305482	keystroke_i	i	n/a
152.8305	0.09	305661	keystroke_c	c	n/a
152.935	0.0305	305870	keystroke_h	h	n/a
153.0555	0.105	306111	keystroke_i	i	n/a
153.1755	0.09	306351	keystroke_g	g	n/a
153.415	0.075	306830	keystroke_a	a	n/a
153.52	0.075	307040	keystroke_n	n	n/a
154.135	0.12	308270	keystroke_Key.space	Key.space	n/a
154.42	0.0905	308840	keystroke_p	p	n/a
154.525	0.105	309050	keystroke_a	a	n/a
154.8405	0.0905	309681	keystroke_p	p	n/a
154.9155	0.15	309831	keystroke_e	e	n/a
155.0055	0.075	310011	keystroke_r	r	n/a
155.261	0.075	310522	keystroke_b	b	n/a
155.351	0.045	310702	keystroke_a	a	n/a
155.501	0.12	311002	keystroke_c	c	n/a
155.636	0.059	311272	keystroke_k	k	n/a
155.7255	0.1205	311451	keystroke_Key.space	Key.space	n/a
155.831	0.134	311662	keystroke_Key.enter	Key.enter	n/a
155.9715	5.0985	311943	prompt	n/a	trial disclosure fraud texture\n
156.626	0.135	313252	keystroke_t	t	n/a
156.7	0.1215	313400	keystroke_r	r	n/a
156.806	0.135	313612	keystroke_i	i	n/a
156.956	0.09	313912	keystroke_a	a	n/a
157.09	0.121	314180	keystroke_l	l	n/a
157.241	0.0895	314482	keystroke_Key.space	Key.space	n/a
157.3755	0.09	314751	keystroke_d	d	n/a
157.4355	0.105	314871	keystroke_i	i	n/a
157.5555	0.06	315111	keystroke_s	s	n/a
157.675	0.1205	315350	keystroke_c	c	n/a
157.8105	0.0895	315621	keystroke_l	l	n/a
157.9755	0.09	315951	keystroke_o	o	n/a
158.05	0.106	316100	keystroke_s	s	n/a
158.1855	0.0745	316371	keystroke_u	u	n/a
158.335	0.1655	316670	keystroke_r	r	n/a
158.41	0.1655	316820	keystroke_e	e	n/a
158.7405	0.1055	317481	keystroke_Key.space	Key.space	n/a
158.891	0.075	317782	keystroke_f	f	n/a
159.056	0.06	318112	keystroke_r	r	n/a
159.236	0.075	318472	keystroke_a	a	n/a
159.4005	0.09	318801	keystroke_u	u	n/a
159.535	0.1205	319070	keystroke_d	d	n/a
159.625	0.1055	319250	keystroke_Key.space	Key.space	n/a
159.7905	0.1195	319581	keystroke_t	t	n/a
159.8955	0.075	319791	keystroke_e	e	n/a
160.09	0.1205	320180	keystroke_x	x	n/a
160.376	0.105	320752	keystroke_t	t	n/a
160.496	0.09	320992	keystroke_u	u	n/a
160.6005	0.1195	321201	keystroke_r	r	n/a
160.69	0.106	321380	keystroke_e	e	n/a
160.765	0.091	321530	keystroke_Key.space	Key.space	n/a
160.975	0.091	321950	keystroke_Key.enter	Key.enter	n/a
161.0815	13.231	322163	prompt	n/a	listing kazakhstan organisation brazil\n
162.0415	0.149	324083	keystroke_l	l	n/a
162.3105	0.0905	324621	keystroke_i	i	n/a
162.416	0.074	324832	keystroke_s	s	n/a
162.58	0.1355	325160	keystroke_t	t	n/a
162.701	0.0585	325402	keystroke_n	n	n/a
162.806	0.1045	325612	keystroke_i	i	n/a
163.5705	0.06	327141	keystroke_Key.backspace	Key.backspace	n/a
163.7355	0.045	327471	keystroke_Key.backspace	Key.backspace	n/a
163.9455	0.075	327891	keystroke_i	i	n/a
164.111	0.1195	328222	keystroke_n	n	n/a
164.2155	0.105	328431	keystroke_g	g	n/a
164.3355	0.1195	328671	keystroke_Key.space	Key.space	n/a
164.5605	0.12	329121	keystroke_k	k	n/a
164.6505	0.105	329301	keystroke_a	a	n/a
164.876	0.1045	329752	keystroke_y	y	n/a
165.6255	0.12	331251	keystroke_a	a	n/a
165.7755	0.12	331551	keystroke_k	k	n/a
166.3305	0.165	332661	keystroke_h	h	n/a
166.5105	0.075	333021	keystroke_s	s	n/a
166.69	0.061	333380	keystroke_t	t	n/a
166.9	0.0905	333800	keystroke_a	a	n/a
166.9755	0.0745	333951	keystroke_n	n	n/a
167.095	0.09	334190	keystroke_Key.space	Key.space	n/a
167.245	0.1205	334490	keystroke_o	o	n/a
167.3505	0.0895	334701	keystroke_r	r	n/a
167.576	0.09	335152	keystroke_g	g	n/a
167.8005	0.076	335601	keystroke_n	n	n/a
167.9665	0.134	335933	keystroke_i	i	n/a
169.7355	0.06	339471	keystroke_Key.backspace	Key.backspace	n/a
169.9305	0.075	339861	keystroke_Key.backspace	Key.backspace	n/a
170.6055	0.105	341211	keystroke_a	a	n/a
170.725	0.09	341450	keystroke_n	n	n/a
170.995	0.165	341990	keystroke_i	i	n/a
171.6405	0.15	343281	keystroke_s	s	n/a
171.8965	0.074	343793	keystroke_a	a	n/a
172.1055	0.105	344211	keystroke_t	t	n/a
172.1655	0.075	344331	keystroke_i	i	n/a
172.33	0.0765	344660	keystroke_o	o	n/a
172.4815	0.1195	344963	keystroke_n	n	n/a
172.585	0.12	345170	keystroke_Key.space	Key.space	n/a
173.1705	0.12	346341	keystroke_b	b	n/a
173.2755	0.09	346551	keystroke_r	r	n/a
173.5005	0.165	347001	keystroke_a	a	n/a
173.6805	0.135	347361	keystroke_z	z	n/a
173.7705	0.075	347541	keystroke_i	i	n/a
173.9505	0.105	347901	keystroke_l	l	n/a
174.0695	0.121	348139	keystroke_Key.space	Key.space	n/a
174.1755	0.1345	348351	keystroke_Key.enter	Key.enter	n/a
174.3195	4.778	348639	prompt	n/a	dallas scientists stable while\n
174.986	0.09	349972	keystroke_d	d	n/a
175.136	0.12	350272	keystroke_a	a	n/a
175.2405	0.0755	350481	keystroke_l	l	n/a
175.391	0.1045	350782	keystroke_l	l	n/a
175.4805	0.1205	350961	keystroke_a	a	n/a
175.5405	0.12	351081	keystroke_s	s	n/a
175.6305	0.09	351261	keystroke_Key.space	Key.space	n/a
175.7505	0.09	351501	keystroke_s	s	n/a
175.9005	0.09	351801	keystroke_c	c	n/a
176.0505	0.105	352101	keystroke_i	i	n/a
176.1855	0.105	352371	keystroke_e	e	n/a
176.3505	0.09	352701	keystroke_n	n	n/a
176.5905	0.12	353181	keystroke_t	t	n/a
176.6955	0.09	353391	keystroke_i	i	n/a
176.8455	0.09	353691	keystroke_s	s	n/a
177.041	0.0595	354082	keystroke_t	t	n/a
177.191	0.105	354382	keystroke_s	s	n/a
177.3105	0.075	354621	keystroke_Key.space	Key.space	n/a
177.4305	0.105	354861	keystroke_s	s	n/a
177.611	0.075	355222	keystroke_t	t	n/a
177.7905	0.09	355581	keystroke_a	a	n/a
177.8955	0.075	355791	keystroke_b	b	n/a
178.0455	0.1055	356091	keystroke_l	l	n/a
178.1355	0.075	356271	keystroke_e	e	n/a
178.2255	0.075	356451	keystroke_Key.space	Key.space	n/a
178.3155	0.105	356631	keystroke_w	w	n/a
178.3755	0.06	356751	keystroke_h	h	n/a
178.4955	0.075	356991	keystroke_i	i	n/a
178.6455	0.1045	357291	keystroke_l	l	n/a
178.751	0.104	357502	keystroke_e	e	n/a
178.8705	0.1195	357741	keystroke_Key.space	Key.space	n/a
179.02	0.075	358040	keystroke_Key.enter	Key.enter	n/a
179.101	6.671	358202	prompt	n/a	incidents laid shade specials\n
179.696	0.0895	359392	keystroke_i	i	n/a
179.8305	0.075	359661	keystroke_n	n	n/a
179.906	0.0895	359812	keystroke_c	c	n/a
180.0105	0.105	360021	keystroke_i	i	n/a
180.1305	0.09	360261	keystroke_d	d	n/a
180.67	0.1205	361340	keystroke_e	e	n/a
180.7755	0.075	361551	keystroke_n	n	n/a
180.9105	0.105	361821	keystroke_t	t	n/a
181.2105	0.105	362421	keystroke_s	s	n/a
181.2705	0.105	362541	keystroke_Key.space	Key.space	n/a
181.4505	0.09	362901	keystroke_l	l	n/a
181.5255	0.075	363051	keystroke_a	a	n/a
181.6305	0.09	363261	keystroke_i	i	n/a
181.7055	0.105	363411	keystroke_d	d	n/a
181.825	0.09	363650	keystroke_Key.space	Key.space	n/a
181.946	0.105	363892	keystroke_s	s	n/a
182.005	0.09	364010	keystroke_h	h	n/a
182.1405	0.0905	364281	keystroke_a	a	n/a
182.305	0.1505	364610	keystroke_d	d	n/a
182.3805	0.135	364761	keystroke_e	e	n/a
182.47	0.0905	364940	keystroke_Key.space	Key.space	n/a
182.636	0.09	365272	keystroke_s	s	n/a
182.771	0.105	365542	keystroke_p	p	n/a
182.906	0.12	365812	keystroke_e	e	n/a
183.821	0.105	367642	keystroke_c	c	n/a
183.91	0.075	367820	keystroke_i	i	n/a
184.0615	0.1035	368123	keystroke_a	a	n/a
184.15	0.076	368300	keystroke_l	l	n/a
184.316	0.09	368632	keystroke_i	i	n/a
184.3905	0.0895	368781	keystroke_s	s	n/a
184.5555	0.105	369111	keystroke_t	t	n/a
184.765	0.105	369530	keystroke_s	s	n/a
184.9005	0.1045	369801	keystroke_Key.space	Key.space	n/a
185.3355	0.045	370671	keystroke_Key.backspace	Key.backspace	n/a
185.4555	0.06	370911	keystroke_Key.backspace	Key.backspace	n/a
185.5755	0.15	371151	keystroke_Key.space	Key.space	n/a
185.6355	0.135	371271	keystroke_Key.enter	Key.enter	n/a
185.774	7.0485	371548	prompt	n/a	the preferred adolescent warner\n
186.4605	0.09	372921	keystroke_t	t	n/a
186.5355	0.075	373071	keystroke_h	h	n/a
186.6255	0.1055	373251	keystroke_e	e	n/a
187.18	0.135	374360	keystroke_Key.space	Key.space	n/a
187.3305	0.105	374661	keystroke_p	p	n/a
187.5105	0.105	375021	keystroke_r	r	n/a
187.5705	0.1205	375141	keystroke_e	e	n/a
187.7805	0.105	375561	keystroke_f	f	n/a
187.961	0.1195	375922	keystroke_e	e	n/a
188.3805	0.0605	376761	keystroke_r	r	n/a
188.531	0.0895	377062	keystroke_r	r	n/a
188.6355	0.165	377271	keystroke_e	e	n/a
188.7555	0.12	377511	keystroke_d	d	n/a
188.8605	0.105	377721	keystroke_Key.space	Key.space	n/a
189.0105	0.075	378021	keystroke_a	a	n/a
189.251	0.1045	378502	keystroke_d	d	n/a
189.34	0.106	378680	keystroke_o	o	n/a
189.6255	0.1045	379251	keystroke_l	l	n/a
189.79	0.105	379580	keystroke_e	e	n/a
190.015	0.076	380030	keystroke_s	s	n/a
190.135	0.106	380270	keystroke_c	c	n/a
190.361	0.089	380722	keystroke_n	n	n/a
190.376	0.059	380752	keystroke_e	e	n/a
191.14	0.045	382280	keystroke_Key.backspace	Key.backspace	n/a
191.26	0.075	382520	keystroke_Key.backspace	Key.backspace	n/a
191.396	0.105	382792	keystroke_e	e	n/a
191.516	0.089	383032	keystroke_n	n	n/a
191.65	0.09	383300	keystroke_t	t	n/a
191.77	0.105	383540	keystroke_Key.space	Key.space	n/a
191.996	0.119	383992	keystroke_w	w	n/a
192.07	0.106	384140	keystroke_a	a	n/a
192.295	0.0605	384590	keystroke_r	r	n/a
192.371	0.075	384742	keystroke_n	n	n/a
192.447	0.133	384894	keystroke_e	e	n/a
192.551	0.105	385102	keystroke_r	r	n/a
192.64	0.0905	385280	keystroke_Key.space	Key.space	n/a
192.7005	0.12	385401	keystroke_Key.enter	Key.enter	n/a
192.826	8.471	385652	prompt	n/a	blanket administration hungarian failure\n
193.5855	0.045	387171	keystroke_b	b	n/a
193.7355	0.1055	387471	keystroke_l	l	n/a
193.825	0.121	387650	keystroke_a	a	n/a
193.946	0.0745	387892	keystroke_n	n	n/a
194.095	0.09	388190	keystroke_k	k	n/a
194.2	0.0905	388400	keystroke_e	e	n/a
194.35	0.091	388700	keystroke_t	t	n/a
194.455	0.0755	388910	keystroke_Key.space	Key.space	n/a
194.545	0.061	389090	keystroke_a	a	n/a
194.696	0.105	389392	keystroke_d	d	n/a
194.756	0.075	389512	keystroke_m	m	n/a
194.921	0.045	389842	keystroke_i	i	n/a
195.0255	0.0605	390051	keystroke_n	n	n/a
195.145	0.105	390290	keystroke_i	i	n/a
195.205	0.09	390410	keystroke_s	s	n/a
195.371	0.104	390742	keystroke_t	t	n/a
195.43	0.0605	390860	keystroke_r	r	n/a
195.611	0.059	391222	keystroke_a	a	n/a
195.776	0.075	391552	keystroke_t	t	n/a
195.865	0.046	391730	keystroke_i	i	n/a
196.1365	0.149	392273	keystroke_n	n	n/a
196.2705	0.12	392541	keystroke_Key.space	Key.space	n/a
196.8855	0.045	393771	keystroke_Key.backspace	Key.backspace	n/a
196.9905	0.09	393981	keystroke_Key.backspace	Key.backspace	n/a
197.2305	0.0905	394461	keystroke_n	n	n/a
197.456	0.089	394912	keystroke_Key.space	Key.space	n/a
197.83	0.06	395660	keystroke_Key.backspace	Key.backspace	n/a
197.95	0.06	395900	keystroke_Key.backspace	Key.backspace	n/a
198.16	0.06	396320	keystroke_o	o	n/a
198.356	0.15	396712	keystroke_n	n	n/a
198.49	0.045	396980	keystroke_Key.space	Key.space	n/a
198.626	0.06	397252	keystroke_h	h	n/a
198.745	0.045	397490	keystroke_u	u	n/a
198.85	0.0755	397700	keystroke_n	n	n/a
198.9255	0.09	397851	keystroke_g	g	n/a
199.106	0.09	398212	keystroke_a	a	n/a
199.2855	0.09	398571	keystroke_r	r	n/a
199.3905	0.0755	398781	keystroke_i	i	n/a
199.511	0.12	399022	keystroke_a	a	n/a
199.616	0.105	399232	keystroke_n	n	n/a
199.736	0.074	399472	keystroke_Key.space	Key.space	n/a
199.825	0.076	399650	keystroke_f	f	n/a
199.991	0.09	399982	keystroke_a	a	n/a
200.096	0.03	400192	keystroke_i	i	n/a
200.215	0.091	400430	keystroke_l	l	n/a
200.47	0.06	400940	keystroke_u	u	n/a
201.0255	0.1055	402051	keystroke_r	r	n/a
201.071	0.135	402142	keystroke_e	e	n/a
201.1905	0.105	402381	keystroke_Key.enter	Key.enter	n/a
201.3015	5.5455	402603	prompt	n/a	principles mounted streams designers\n
201.9255	0.0755	403851	keystroke_p	p	n/a
201.9855	0.09	403971	keystroke_r	r	n/a
202.1055	0.0755	404211	keystroke_i	i	n/a
202.2255	0.1355	404451	keystroke_n	n	n/a
202.346	0.09	404692	keystroke_c	c	n/a
202.42	0.091	404840	keystroke_i	i	n/a
202.63	0.076	405260	keystroke_p	p	n/a
202.7505	0.075	405501	keystroke_a	a	n/a
202.8405	0.1055	405681	keystroke_l	l	n/a
202.946	0.119	405892	keystroke_s	s	n/a
203.05	0.091	406100	keystroke_Key.space	Key.space	n/a
203.441	0.075	406882	keystroke_m	m	n/a
203.576	0.09	407152	keystroke_o	o	n/a
203.725	0.061	407450	keystroke_u	u	n/a
203.906	0.074	407812	keystroke_n	n	n/a
203.966	0.09	407932	keystroke_t	t	n/a
204.131	0.15	408262	keystroke_e	e	n/a
204.221	0.1045	408442	keystroke_d	d	n/a
204.3105	0.09	408621	keystroke_Key.space	Key.space	n/a
204.4305	0.09	408861	keystroke_s	s	n/a
204.6405	0.0755	409281	keystroke_t	t	n/a
204.836	0.09	409672	keystroke_r	r	n/a
204.88	0.091	409760	keystroke_e	e	n/a
205.076	0.075	410152	keystroke_a	a	n/a
205.196	0.105	410392	keystroke_m	m	n/a
205.286	0.06	410572	keystroke_s	s	n/a
205.39	0.09	410780	keystroke_Key.space	Key.space	n/a
205.5255	0.105	411051	keystroke_d	d	n/a
205.6155	0.09	411231	keystroke_e	e	n/a
205.8105	0.0755	411621	keystroke_s	s	n/a
205.9005	0.075	411801	keystroke_i	i	n/a
205.99	0.0905	411980	keystroke_g	g	n/a
206.096	0.1045	412192	keystroke_n	n	n/a
206.2455	0.135	412491	keystroke_e	e	n/a
206.3505	0.1055	412701	keystroke_r	r	n/a
206.5305	0.09	413061	keystroke_s	s	n/a
206.6355	0.1055	413271	keystroke_Key.space	Key.space	n/a
206.7105	0.1355	413421	keystroke_Key.enter	Key.enter	n/a
206.8515	4.706	413703	prompt	n/a	plastic and cookie offshore\n
207.5355	0.135	415071	keystroke_p	p	n/a
207.6555	0.076	415311	keystroke_l	l	n/a
207.7155	0.135	415431	keystroke_a	a	n/a
208.0305	0.12	416061	keystroke_s	s	n/a
208.2255	0.09	416451	keystroke_t	t	n/a
208.3005	0.105	416601	keystroke_i	i	n/a
208.4505	0.09	416901	keystroke_c	c	n/a
208.5555	0.09	417111	keystroke_Key.space	Key.space	n/a
208.6905	0.075	417381	keystroke_a	a	n/a
208.7815	0.0895	417563	keystroke_n	n	n/a
208.8555	0.09	417711	keystroke_d	d	n/a
208.9465	0.044	417893	keystroke_Key.space	Key.space	n/a
209.1105	0.0755	418221	keystroke_l	l	n/a
209.44	0.045	418880	keystroke_Key.backspace	Key.backspace	n/a
209.501	0.09	419002	keystroke_c	c	n/a
209.68	0.045	419360	keystroke_o	o	n/a
209.816	0.1195	419632	keystroke_o	o	n/a
209.905	0.09	419810	keystroke_k	k	n/a
210.055	0.0905	420110	keystroke_i	i	n/a
210.1605	0.12	420321	keystroke_e	e	n/a
210.2805	0.06	420561	keystroke_Key.space	Key.space	n/a
210.4455	0.09	420891	keystroke_o	o	n/a
210.5205	0.075	421041	keystroke_f	f	n/a
210.6855	0.0755	421371	keystroke_f	f	n/a
210.8655	0.075	421731	keystroke_s	s	n/a
210.9405	0.06	421881	keystroke_h	h	n/a
211.1055	0.135	422211	keystroke_o	o	n/a
211.2255	0.075	422451	keystroke_r	r	n/a
211.2855	0.075	422571	keystroke_e	e	n/a
211.3455	0.09	422691	keystroke_Key.space	Key.space	n/a
211.4355	0.12	422871	keystroke_Key.enter	Key.enter	n/a
211.5625	4.632	423125	prompt	n/a	settled tires remember plants\n
212.1405	0.075	424281	keystroke_s	s	n/a
212.291	0.1345	424582	keystroke_e	e	n/a
212.545	0.0605	425090	keystroke_t	t	n/a
212.6805	0.0895	425361	keystroke_t	t	n/a
212.786	0.1045	425572	keystroke_l	l	n/a
212.876	0.135	425752	keystroke_e	e	n/a
212.951	0.119	425902	keystroke_d	d	n/a
213.055	0.09	426110	keystroke_Key.space	Key.space	n/a
213.236	0.089	426472	keystroke_t	t	n/a
213.34	0.076	426680	keystroke_i	i	n/a
213.43	0.106	426860	keystroke_r	r	n/a
213.475	0.135	426950	keystroke_e	e	n/a
213.79	0.091	427580	keystroke_s	s	n/a
213.91	0.12	427820	keystroke_Key.space	Key.space	n/a
214.1655	0.0905	428331	keystroke_r	r	n/a
214.211	0.134	428422	keystroke_e	e	n/a
214.361	0.06	428722	keystroke_m	m	n/a
214.465	0.1205	428930	keystroke_e	e	n/a
214.541	0.09	429082	keystroke_m	m	n/a
214.7955	0.09	429591	keystroke_b	b	n/a
214.9155	0.1505	429831	keystroke_e	e	n/a
215.0205	0.135	430041	keystroke_r	r	n/a
215.1255	0.12	430251	keystroke_Key.space	Key.space	n/a
215.366	0.105	430732	keystroke_p	p	n/a
215.4405	0.09	430881	keystroke_l	l	n/a
215.516	0.0895	431032	keystroke_a	a	n/a
215.651	0.1045	431302	keystroke_n	n	n/a
215.7705	0.06	431541	keystroke_t	t	n/a
215.936	0.1195	431872	keystroke_s	s	n/a
216.0405	0.09	432081	keystroke_Key.space	Key.space	n/a
216.0705	0.12	432141	keystroke_Key.enter	Key.enter	n/a
216.199	8.423	432398	prompt	n/a	impression campaign brandon integer\n
216.88	0.046	433760	keystroke_i	i	n/a
217.0005	0.0745	434001	keystroke_m	m	n/a
217.18	0.09	434360	keystroke_p	p	n/a
217.255	0.12	434510	keystroke_r	r	n/a
217.331	0.089	434662	keystroke_e	e	n/a
217.54	0.061	435080	keystroke_s	s	n/a
217.69	0.075	435380	keystroke_s	s	n/a
217.75	0.06	435500	keystroke_i	i	n/a
217.915	0.031	435830	keystroke_o	o	n/a
218.02	0.076	436040	keystroke_n	n	n/a
218.1105	0.09	436221	keystroke_Key.space	Key.space	n/a
218.1855	0.0755	436371	keystroke_c	c	n/a
218.276	0.06	436552	keystroke_o	o	n/a
218.366	0.09	436732	keystroke_m	m	n/a
218.516	0.074	437032	keystroke_a	a	n/a
218.53	0.076	437060	keystroke_p	p	n/a
218.8455	0.105	437691	keystroke_i	i	n/a
219.491	0.1045	438982	keystroke_g	g	n/a
219.641	0.105	439282	keystroke_n	n	n/a
219.866	0.09	439732	keystroke_Key.space	Key.space	n/a
220.076	0.09	440152	keystroke_b	b	n/a
220.136	0.06	440272	keystroke_r	r	n/a
220.286	0.09	440572	keystroke_a	a	n/a
220.361	0.075	440722	keystroke_n	n	n/a
220.4505	0.1205	440901	keystroke_d	d	n/a
220.556	0.06	441112	keystroke_o	o	n/a
220.706	0.105	441412	keystroke_n	n	n/a
220.855	0.076	441710	keystroke_Key.space	Key.space	n/a
221.066	0.105	442132	keystroke_t	t	n/a
221.186	0.075	442372	keystroke_e	e	n/a
221.9955	0.0595	443991	keystroke_Key.backspace	Key.backspace	n/a
222.6405	0.0295	445281	keystroke_Key.backspace	Key.backspace	n/a
222.8655	0.06	445731	keystroke_i	i	n/a
223.0305	0.0905	446061	keystroke_n	n	n/a
223.3155	0.1355	446631	keystroke_t	t	n/a
223.661	0.1195	447322	keystroke_e	e	n/a
223.961	0.059	447922	keystroke_g	g	n/a
224.14	0.165	448280	keystroke_e	e	n/a
224.246	0.105	448492	keystroke_r	r	n/a
224.395	0.12	448790	keystroke_Key.space	Key.space	n/a
224.486	0.1345	448972	keystroke_Key.enter	Key.enter	n/a
224.625	4.8275	449250	prompt	n/a	curious settled revision declared\n
225.31	0.015	450620	keystroke_c	c	n/a
225.3855	0.03	450771	keystroke_u	u	n/a
225.4605	0.09	450921	keystroke_r	r	n/a
225.5515	0.0585	451103	keystroke_i	i	n/a
225.731	0.044	451462	keystroke_o	o	n/a
225.8805	0.0905	451761	keystroke_u	u	n/a
225.971	0.06	451942	keystroke_s	s	n/a
226.0155	0.0905	452031	keystroke_Key.space	Key.space	n/a
226.1505	0.075	452301	keystroke_s	s	n/a
226.3	0.075	452600	keystroke_e	e	n/a
226.481	0.06	452962	keystroke_t	t	n/a
226.646	0.074	453292	keystroke_t	t	n/a
226.78	0.1055	453560	keystroke_l	l	n/a
226.856	0.1795	453712	keystroke_e	e	n/a
226.961	0.105	453922	keystroke_d	d	n/a
227.095	0.09	454190	keystroke_Key.space	Key.space	n/a
227.291	0.134	454582	keystroke_r	r	n/a
227.38	0.075	454760	keystroke_e	e	n/a
227.5755	0.06	455151	keystroke_v	v	n/a
227.681	0.0595	455362	keystroke_i	i	n/a
227.7555	0.0745	455511	keystroke_s	s	n/a
227.861	0.074	455722	keystroke_i	i	n/a
228.011	0.06	456022	keystroke_o	o	n/a
228.146	0.105	456292	keystroke_n	n	n/a
228.295	0.045	456590	keystroke_Key.space	Key.space	n/a
228.311	0.105	456622	keystroke_d	d	n/a
228.4	0.09	456800	keystroke_e	e	n/a
228.565	0.09	457130	keystroke_c	c	n/a
228.686	0.105	457372	keystroke_l	l	n/a
228.775	0.076	457550	keystroke_a	a	n/a
228.955	0.106	457910	keystroke_r	r	n/a
229.031	0.165	458062	keystroke_e	e	n/a
229.166	0.135	458332	keystroke_d	d	n/a
229.271	0.074	458542	keystroke_Key.space	Key.space	n/a
229.3155	0.1355	458631	keystroke_Key.enter	Key.enter	n/a
229.4565	7.541	458913	prompt	n/a	tourism running accommodation federation\n
230.321	0.1345	460642	keystroke_t	t	n/a
230.4405	0.06	460881	keystroke_o	o	n/a
230.5765	0.1045	461153	keystroke_u	u	n/a
230.6355	0.0755	461271	keystroke_r	r	n/a
230.831	0.0745	461662	keystroke_i	i	n/a
230.9355	0.0755	461871	keystroke_s	s	n/a
231.176	0.089	462352	keystroke_m	m	n/a
231.385	0.09	462770	keystroke_Key.space	Key.space	n/a
231.6105	0.1205	463221	keystroke_r	r	n/a
231.6855	0.105	463371	keystroke_u	u	n/a
231.9705	0.045	463941	keystroke_n	n	n/a
232.1205	0.0455	464241	keystroke_n	n	n/a
232.2405	0.06	464481	keystroke_i	i	n/a
232.376	0.0745	464752	keystroke_n	n	n/a
232.466	0.059	464932	keystroke_g	g	n/a
232.54	0.076	465080	keystroke_Key.space	Key.space	n/a
232.66	0.0755	465320	keystroke_a	a	n/a
232.8555	0.075	465711	keystroke_c	c	n/a
233.0365	0.045	466073	keystroke_c	c	n/a
233.0965	0.074	466193	keystroke_o	o	n/a
233.3505	0.0615	466701	keystroke_m	m	n/a
233.561	0.105	467122	keystroke_o	o	n/a
233.891	0.0745	467782	keystroke_o	o	n/a
234.326	0.075	468652	keystroke_d	d	n/a
234.476	0.075	468952	keystroke_a	a	n/a
234.656	0.09	469312	keystroke_t	t	n/a
234.701	0.06	469402	keystroke_i	i	n/a
234.866	0.03	469732	keystroke_o	o	n/a
234.986	0.12	469972	keystroke_n	n	n/a
235.091	0.105	470182	keystroke_Key.space	Key.space	n/a
235.181	0.1205	470362	keystroke_f	f	n/a
235.4805	0.1505	470961	keystroke_e	e	n/a
235.7055	0.151	471411	keystroke_d	d	n/a
235.8115	0.15	471623	keystroke_e	e	n/a
235.9315	0.0895	471863	keystroke_r	r	n/a
236.1405	0.06	472281	keystroke_a	a	n/a
236.306	0.0745	472612	keystroke_t	t	n/a
236.3505	0.075	472701	keystroke_i	i	n/a
236.5005	0.075	473001	keystroke_o	o	n/a
236.6355	0.105	473271	keystroke_n	n	n/a
236.756	0.104	473512	keystroke_Key.space	Key.space	n/a
236.876	0.119	473752	keystroke_Key.enter	Key.enter	n/a
237.0015	5.066	474003	prompt	n/a	different bedford dont hours\n
237.6405	0.09	475281	keystroke_d	d	n/a
237.776	0.09	475552	keystroke_i	i	n/a
237.8805	0.0755	475761	keystroke_f	f	n/a
238.0305	0.105	476061	keystroke_f	f	n/a
238.151	0.1195	476302	keystroke_e	e	n/a
238.256	0.12	476512	keystroke_r	r	n/a
238.3765	0.0445	476753	keystroke_e	e	n/a
238.436	0.104	476872	keystroke_n	n	n/a
238.556	0.075	477112	keystroke_t	t	n/a
238.6605	0.0905	477321	keystroke_Key.space	Key.space	n/a
238.886	0.09	477772	keystroke_b	b	n/a
238.946	0.15	477892	keystroke_e	e	n/a
239.051	0.09	478102	keystroke_d	d	n/a
239.561	0.075	479122	keystroke_f	f	n/a
239.651	0.075	479302	keystroke_o	o	n/a
239.741	0.09	479482	keystroke_r	r	n/a
239.8755	0.09	479751	keystroke_m	m	n/a
240.2655	0.045	480531	keystroke_Key.backspace	Key.backspace	n/a
240.3405	0.1355	480681	keystroke_d	d	n/a
240.476	0.104	480952	keystroke_Key.space	Key.space	n/a
240.641	0.119	481282	keystroke_d	d	n/a
240.731	0.075	481462	keystroke_o	o	n/a
240.8965	0.075	481793	keystroke_n	n	n/a
241.045	0.121	482090	keystroke_t	t	n/a
241.18	0.075	482360	keystroke_Key.space	Key.space	n/a
241.361	0.105	482722	keystroke_h	h	n/a
241.526	0.059	483052	keystroke_o	o	n/a
241.616	0.075	483232	keystroke_u	u	n/a
241.706	0.105	483412	keystroke_r	r	n/a
241.7505	0.1205	483501	keystroke_s	s	n/a
241.855	0.105	483710	keystroke_Key.space	Key.space	n/a
241.945	0.12	483890	keystroke_Key.enter	Key.enter	n/a
242.074	6.038	484148	prompt	n/a	tremendous nickel sean engineering\n
242.771	0.12	485542	keystroke_t	t	n/a
242.876	0.06	485752	keystroke_e	e	n/a
243.071	0.075	486142	keystroke_r	r	n/a
243.431	0.045	486862	keystroke_Key.backspace	Key.backspace	n/a
243.5505	0.061	487101	keystroke_Key.backspace	Key.backspace	n/a
243.5805	0.1205	487161	keystroke_r	r	n/a
243.6405	0.1505	487281	keystroke_e	e	n/a
243.821	0.12	487642	keystroke_m	m	n/a
244	0.106	488000	keystroke_e	e	n/a
244.2105	0.0895	488421	keystroke_n	n	n/a
244.421	0.135	488842	keystroke_d	d	n/a
244.631	0.0745	489262	keystroke_o	o	n/a
244.8255	0.075	489651	keystroke_u	u	n/a
244.991	0.0595	489982	keystroke_s	s	n/a
245.0505	0.0605	490101	keystroke_Key.space	Key.space	n/a
245.201	0.059	490402	keystroke_n	n	n/a
245.291	0.089	490582	keystroke_i	i	n/a
245.3955	0.0755	490791	keystroke_c	c	n/a
245.501	0.089	491002	keystroke_k	k	n/a
245.621	0.1355	491242	keystroke_e	e	n/a
245.741	0.09	491482	keystroke_l	l	n/a
245.89	0.061	491780	keystroke_Key.space	Key.space	n/a
245.965	0.09	491930	keystroke_s	s	n/a
246.16	0.106	492320	keystroke_e	e	n/a
246.235	0.136	492470	keystroke_a	a	n/a
246.356	0.1045	492712	keystroke_n	n	n/a
246.445	0.1055	492890	keystroke_Key.space	Key.space	n/a
246.5815	0.135	493163	keystroke_e	e	n/a
246.7005	0.076	493401	keystroke_n	n	n/a
246.8065	0.12	493613	keystroke_g	g	n/a
246.8805	0.091	493761	keystroke_i	i	n/a
247.031	0.0895	494062	keystroke_n	n	n/a
247.1805	0.105	494361	keystroke_e	e	n/a
247.3605	0.12	494721	keystroke_e	e	n/a
247.4805	0.0895	494961	keystroke_r	r	n/a
247.586	0.06	495172	keystroke_i	i	n/a
247.706	0.105	495412	keystroke_n	n	n/a
247.78	0.121	495560	keystroke_g	g	n/a
247.87	0.0605	495740	keystroke_Key.space	Key.space	n/a
247.991	0.1195	495982	keystroke_Key.enter	Key.enter	n/a
248.116	5.4715	496232	prompt	n/a	forbidden thorough school instructions\n
248.7555	0.0895	497511	keystroke_f	f	n/a
248.89	0.0905	497780	keystroke_o	o	n/a
248.9955	0.1055	497991	keystroke_r	r	n/a
249.131	0.059	498262	keystroke_b	b	n/a
249.281	0.0895	498562	keystroke_i	i	n/a
249.4305	0.06	498861	keystroke_d	d	n/a
249.6105	0.09	499221	keystroke_d	d	n/a
249.671	0.1195	499342	keystroke_e	e	n/a
249.731	0.09	499462	keystroke_n	n	n/a
249.8355	0.075	499671	keystroke_Key.space	Key.space	n/a
249.941	0.0745	499882	keystroke_t	t	n/a
250.0305	0.075	500061	keystroke_h	h	n/a
250.151	0.06	500302	keystroke_r	r	n/a
250.226	0.0895	500452	keystroke_o	o	n/a
250.4055	0.09	500811	keystroke_u	u	n/a
250.4655	0.075	500931	keystroke_g	g	n/a
250.6605	0.1055	501321	keystroke_h	h	n/a
250.78	0.105	501560	keystroke_Key.space	Key.space	n/a
250.96	0.076	501920	keystroke_s	s	n/a
251.171	0.075	502342	keystroke_c	c	n/a
251.26	0.061	502520	keystroke_h	h	n/a
251.485	0.076	502970	keystroke_o	o	n/a
251.636	0.06	503272	keystroke_o	o	n/a
251.8155	0.075	503631	keystroke_l	l	n/a
251.9055	0.075	503811	keystroke_Key.space	Key.space	n/a
252.056	0.045	504112	keystroke_i	i	n/a
252.146	0.135	504292	keystroke_n	n	n/a
252.221	0.075	504442	keystroke_s	s	n/a
252.371	0.1195	504742	keystroke_t	t	n/a
252.446	0.0895	504892	keystroke_r	r	n/a
252.5205	0.0755	505041	keystroke_u	u	n/a
252.686	0.029	505372	keystroke_c	c	n/a
252.8665	0.104	505733	keystroke_t	t	n/a
252.94	0.061	505880	keystroke_i	i	n/a
253.075	0.061	506150	keystroke_o	o	n/a
253.196	0.075	506392	keystroke_n	n	n/a
253.255	0.151	506510	keystroke_s	s	n/a
253.36	0.135	506720	keystroke_Key.space	Key.space	n/a
253.465	0.12	506930	keystroke_Key.enter	Key.enter	n/a
253.5905	5.4275	507181	prompt	n/a	face immediately sierra welcome\n
254.186	0.075	508372	keystroke_f	f	n/a
254.366	0.0755	508732	keystroke_a	a	n/a
254.501	0.165	509002	keystroke_c	c	n/a
254.591	0.15	509182	keystroke_e	e	n/a
254.666	0.089	509332	keystroke_Key.space	Key.space	n/a
254.816	0.06	509632	keystroke_i	i	n/a
255.026	0.03	510052	keystroke_m	m	n/a
255.13	0.076	510260	keystroke_m	m	n/a
255.16	0.12	510320	keystroke_e	e	n/a
255.25	0.106	510500	keystroke_d	d	n/a
255.37	0.076	510740	keystroke_i	i	n/a
255.476	0.09	510952	keystroke_a	a	n/a
255.641	0.104	511282	keystroke_t	t	n/a
255.701	0.104	511402	keystroke_e	e	n/a
255.7755	0.0755	511551	keystroke_l	l	n/a
255.866	0.108	511732	keystroke_y	y	n/a
255.986	0.0895	511972	keystroke_Key.space	Key.space	n/a
256.1505	0.166	512301	keystroke_s	s	n/a
256.3755	0.1205	512751	keystroke_l	l	n/a
256.93	0.045	513860	keystroke_Key.backspace	Key.backspace	n/a
257.126	0.1045	514252	keystroke_i	i	n/a
257.246	0.1195	514492	keystroke_e	e	n/a
257.501	0.045	515002	keystroke_r	r	n/a
257.6365	0.074	515273	keystroke_r	r	n/a
257.831	0.09	515662	keystroke_a	a	n/a
257.936	0.075	515872	keystroke_Key.space	Key.space	n/a
258.041	0.15	516082	keystroke_w	w	n/a
258.146	0.09	516292	keystroke_e	e	n/a
258.191	0.09	516382	keystroke_l	l	n/a
258.386	0.03	516772	keystroke_c	c	n/a
258.431	0.06	516862	keystroke_o	o	n/a
258.551	0.09	517102	keystroke_m	m	n/a
258.596	0.165	517192	keystroke_e	e	n/a
258.776	0.105	517552	keystroke_Key.space	Key.space	n/a
258.8955	0.1205	517791	keystroke_Key.enter	Key.enter	n/a
259.021	6.5665	518042	prompt	n/a	north games perspectives disputes\n
259.6155	0.061	519231	keystroke_n	n	n/a
259.7665	0.09	519533	keystroke_o	o	n/a
259.826	0.0455	519652	keystroke_r	r	n/a
259.9615	0.0895	519923	keystroke_t	t	n/a
260.096	0.03	520192	keystroke_h	h	n/a
260.171	0.09	520342	keystroke_Key.space	Key.space	n/a
260.3065	0.0745	520613	keystroke_g	g	n/a
260.5165	0.0755	521033	keystroke_a	a	n/a
260.593	0.103	521186	keystroke_m	m	n/a
260.6815	0.1345	521363	keystroke_e	e	n/a
260.756	0.135	521512	keystroke_s	s	n/a
260.861	0.075	521722	keystroke_Key.space	Key.space	n/a
261.176	0.075	522352	keystroke_p	p	n/a
261.206	0.12	522412	keystroke_e	e	n/a
261.296	0.075	522592	keystroke_r	r	n/a
261.476	0.09	522952	keystroke_s	s	n/a
261.581	0.12	523162	keystroke_p	p	n/a
262.001	0.105	524002	keystroke_e	e	n/a
262.1815	0.0745	524363	keystroke_c	c	n/a
262.391	0.0905	524782	keystroke_t	t	n/a
262.466	0.1205	524932	keystroke_i	i	n/a
262.601	0.09	525202	keystroke_v	v	n/a
262.7065	0.1195	525413	keystroke_e	e	n/a
262.945	0.0605	525890	keystroke_s	s	n/a
263.035	0.105	526070	keystroke_Key.space	Key.space	n/a
263.9065	0.1035	527813	keystroke_d	d	n/a
263.996	0.15	527992	keystroke_i	i	n/a
264.1	0.0755	528200	keystroke_s	s	n/a
264.611	0.075	529222	keystroke_p	p	n/a
264.806	0.075	529612	keystroke_u	u	n/a
264.896	0.105	529792	keystroke_t	t	n/a
265.061	0.09	530122	keystroke_e	e	n/a
265.256	0.09	530512	keystroke_s	s	n/a
265.316	0.075	530632	keystroke_Key.space	Key.space	n/a
265.466	0.12	530932	keystroke_Key.enter	Key.enter	n/a
265.5915	9.581	531183	prompt	n/a	sells police fiscal argument\n
266.231	0.0595	532462	keystroke_s	s	n/a
266.3805	0.1205	532761	keystroke_e	e	n/a
266.501	0.059	533002	keystroke_l	l	n/a
266.65	0.106	533300	keystroke_l	l	n/a
266.7705	0.09	533541	keystroke_s	s	n/a
266.8305	0.09	533661	keystroke_Key.space	Key.space	n/a
267.821	0.0895	535642	keystroke_[	[	n/a
268.016	0.104	536032	keystroke_o	o	n/a
268.2405	0.06	536481	keystroke_l	l	n/a
268.3765	0.1045	536753	keystroke_i	i	n/a
268.4955	0.1355	536991	keystroke_c	c	n/a
268.5855	0.1345	537171	keystroke_e	e	n/a
268.69	0.09	537380	keystroke_Key.space	Key.space	n/a
269.321	0.119	538642	keystroke_f	f	n/a
269.426	0.045	538852	keystroke_i	i	n/a
269.696	0.0445	539392	keystroke_Key.backspace	Key.backspace	n/a
269.846	0.0445	539692	keystroke_Key.backspace	Key.backspace	n/a
269.9655	0.0605	539931	keystroke_Key.backspace	Key.backspace	n/a
270.085	0.061	540170	keystroke_Key.backspace	Key.backspace	n/a
270.235	0.045	540470	keystroke_Key.backspace	Key.backspace	n/a
270.3555	0.0595	540711	keystroke_Key.backspace	Key.backspace	n/a
270.551	0.059	541102	keystroke_Key.backspace	Key.backspace	n/a
270.7755	0.06	541551	keystroke_Key.backspace	Key.backspace	n/a
271.031	0.06	542062	keystroke_Key.backspace	Key.backspace	n/a
271.451	0.105	542902	keystroke_p	p	n/a
271.691	0.075	543382	keystroke_o	o	n/a
271.886	0.075	543772	keystroke_l	l	n/a
272.051	0.09	544102	keystroke_i	i	n/a
272.6205	0.136	545241	keystroke_c	c	n/a
272.6815	0.1345	545363	keystroke_e	e	n/a
272.7705	0.1055	545541	keystroke_Key.space	Key.space	n/a
273.1315	0.089	546263	keystroke_f	f	n/a
273.251	0.0905	546502	keystroke_i	i	n/a
273.3115	0.0895	546623	keystroke_s	s	n/a
273.4905	0.06	546981	keystroke_c	c	n/a
273.671	0.0895	547342	keystroke_a	a	n/a
273.776	0.09	547552	keystroke_l	l	n/a
273.88	0.091	547760	keystroke_Key.space	Key.space	n/a
273.986	0.075	547972	keystroke_a	a	n/a
274.166	0.06	548332	keystroke_r	r	n/a
274.346	0.074	548692	keystroke_g	g	n/a
274.391	0.09	548782	keystroke_u	u	n/a
274.5715	0.09	549143	keystroke_m	m	n/a
274.6305	0.0755	549261	keystroke_e	e	n/a
274.751	0.075	549502	keystroke_n	n	n/a
274.781	0.12	549562	keystroke_t	t	n/a
274.96	0.121	549920	keystroke_Key.space	Key.space	n/a
275.066	0.105	550132	keystroke_Key.enter	Key.enter	n/a
275.177	4.2555	550354	prompt	n/a	grave severe foto sets\n
275.8615	0.1345	551723	keystroke_g	g	n/a
275.9355	0.09	551871	keystroke_r	r	n/a
276.146	0.0755	552292	keystroke_a	a	n/a
276.341	0.135	552682	keystroke_v	v	n/a
276.416	0.134	552832	keystroke_e	e	n/a
276.536	0.09	553072	keystroke_Key.space	Key.space	n/a
276.641	0.1045	553282	keystroke_s	s	n/a
276.8355	0.09	553671	keystroke_e	e	n/a
277.0005	0.09	554001	keystroke_v	v	n/a
277.1655	0.135	554331	keystroke_e	e	n/a
277.2855	0.165	554571	keystroke_r	r	n/a
277.4065	0.1045	554813	keystroke_e	e	n/a
277.586	0.12	555172	keystroke_Key.space	Key.space	n/a
277.781	0.09	555562	keystroke_f	f	n/a
277.886	0.074	555772	keystroke_o	o	n/a
277.99	0.1055	555980	keystroke_t	t	n/a
278.141	0.0745	556282	keystroke_o	o	n/a
278.515	0.091	557030	keystroke_Key.space	Key.space	n/a
278.621	0.03	557242	keystroke_s	s	n/a
278.756	0.075	557512	keystroke_e	e	n/a
278.876	0.105	557752	keystroke_t	t	n/a
279.0865	0.1045	558173	keystroke_s	s	n/a
279.206	0.134	558412	keystroke_Key.space	Key.space	n/a
279.2805	0.15	558561	keystroke_Key.enter	Key.enter	n/a
279.437	6.194	558874	prompt	n/a	absolute convenience contest knee\n
280.1665	0.1195	560333	keystroke_a	a	n/a
280.331	0.105	560662	keystroke_b	b	n/a
280.481	0.075	560962	keystroke_s	s	n/a
280.646	0.045	561292	keystroke_o	o	n/a
280.811	0.044	561622	keystroke_l	l	n/a
280.976	0.075	561952	keystroke_u	u	n/a
281.051	0.135	562102	keystroke_t	t	n/a
281.126	0.15	562252	keystroke_e	e	n/a
281.246	0.09	562492	keystroke_Key.space	Key.space	n/a
281.381	0.09	562762	keystroke_c	c	n/a
281.441	0.06	562882	keystroke_o	o	n/a
281.681	0.0305	563362	keystroke_n	n	n/a
281.696	0.0605	563392	keystroke_v	v	n/a
281.786	0.09	563572	keystroke_e	e	n/a
282.1905	0.0605	564381	keystroke_Key.backspace	Key.backspace	n/a
282.911	0.135	565822	keystroke_e	e	n/a
283.001	0.075	566002	keystroke_n	n	n/a
283.166	0.1195	566332	keystroke_i	i	n/a
283.2705	0.1205	566541	keystroke_e	e	n/a
283.406	0.075	566812	keystroke_n	n	n/a
283.511	0.15	567022	keystroke_c	c	n/a
283.616	0.135	567232	keystroke_e	e	n/a
283.706	0.089	567412	keystroke_Key.space	Key.space	n/a
283.871	0.1055	567742	keystroke_c	c	n/a
283.946	0.06	567892	keystroke_o	o	n/a
284.096	0.105	568192	keystroke_n	n	n/a
284.186	0.135	568372	keystroke_t	t	n/a
284.2615	0.1195	568523	keystroke_e	e	n/a
284.501	0.0605	569002	keystroke_s	s	n/a
284.666	0.106	569332	keystroke_t	t	n/a
284.756	0.076	569512	keystroke_Key.space	Key.space	n/a
284.951	0.045	569902	keystroke_k	k	n/a
285.0715	0.06	570143	keystroke_n	n	n/a
285.1615	0.075	570323	keystroke_e	e	n/a
285.326	0.135	570652	keystroke_e	e	n/a
285.491	0.135	570982	keystroke_Key.enter	Key.enter	n/a
285.6335	8.4845	571267	prompt	n/a	patterns stephen walls characterized\n
286.286	0.09	572572	keystroke_p	p	n/a
286.361	0.0895	572722	keystroke_a	a	n/a
286.571	0.045	573142	keystroke_t	t	n/a
286.706	0.06	573412	keystroke_t	t	n/a
286.796	0.135	573592	keystroke_e	e	n/a
286.886	0.075	573772	keystroke_r	r	n/a
286.9755	0.075	573951	keystroke_n	n	n/a
287.0805	0.12	574161	keystroke_s	s	n/a
287.186	0.0895	574372	keystroke_Key.space	Key.space	n/a
287.3055	0.06	574611	keystroke_s	s	n/a
287.456	0.1195	574912	keystroke_t	t	n/a
287.516	0.119	575032	keystroke_e	e	n/a
287.546	0.0745	575092	keystroke_p	p	n/a
287.741	0.075	575482	keystroke_h	h	n/a
287.845	0.106	575690	keystroke_e	e	n/a
287.966	0.06	575932	keystroke_n	n	n/a
288.071	0.074	576142	keystroke_Key.space	Key.space	n/a
288.146	0.149	576292	keystroke_w	w	n/a
288.235	0.121	576470	keystroke_a	a	n/a
288.386	0.06	576772	keystroke_l	l	n/a
288.551	0.06	577102	keystroke_l	l	n/a
288.626	0.0895	577252	keystroke_s	s	n/a
288.7305	0.075	577461	keystroke_Key.space	Key.space	n/a
288.8955	0.0905	577791	keystroke_c	c	n/a
289.016	0.0595	578032	keystroke_h	h	n/a
289.091	0.09	578182	keystroke_a	a	n/a
289.2555	0.09	578511	keystroke_r	r	n/a
289.3755	0.076	578751	keystroke_a	a	n/a
289.975	0.106	579950	keystroke_c	c	n/a
290.2455	0.1055	580491	keystroke_t	t	n/a
290.741	0.075	581482	keystroke_Key.backspace	Key.backspace	n/a
290.831	0.1045	581662	keystroke_c	c	n/a
292.496	0.075	584992	keystroke_Key.backspace	Key.backspace	n/a
292.811	0.105	585622	keystroke_t	t	n/a
292.9905	0.15	585981	keystroke_e	e	n/a
293.0655	0.1055	586131	keystroke_r	r	n/a
293.201	0.12	586402	keystroke_i	i	n/a
293.4705	0.09	586941	keystroke_z	z	n/a
293.696	0.1645	587392	keystroke_e	e	n/a
293.771	0.1345	587542	keystroke_d	d	n/a
293.8905	0.12	587781	keystroke_Key.space	Key.space	n/a
293.9805	0.135	587961	keystroke_Key.enter	Key.enter	n/a
294.122	4.616	588244	prompt	n/a	wells negotiations no dryer\n
294.911	0.135	589822	keystroke_w	w	n/a
294.986	0.135	589972	keystroke_e	e	n/a
295.136	0.075	590272	keystroke_l	l	n/a
295.316	0.105	590632	keystroke_l	l	n/a
295.391	0.105	590782	keystroke_s	s	n/a
295.451	0.075	590902	keystroke_Key.space	Key.space	n/a
295.601	0.1195	591202	keystroke_n	n	n/a
295.676	0.0745	591352	keystroke_e	e	n/a
295.8105	0.105	591621	keystroke_g	g	n/a
295.946	0.1055	591892	keystroke_o	o	n/a
296.0665	0.075	592133	keystroke_t	t	n/a
296.201	0.12	592402	keystroke_i	i	n/a
296.3065	0.0745	592613	keystroke_a	a	n/a
296.546	0.1205	593092	keystroke_t	t	n/a
296.636	0.0455	593272	keystroke_i	i	n/a
296.7865	0.0445	593573	keystroke_o	o	n/a
296.9365	0.1045	593873	keystroke_n	n	n/a
296.9965	0.09	593993	keystroke_s	s	n/a
297.101	0.0895	594202	keystroke_Key.space	Key.space	n/a
297.5215	0.059	595043	keystroke_n	n	n/a
297.7015	0.059	595403	keystroke_o	o	n/a
297.7905	0.09	595581	keystroke_Key.space	Key.space	n/a
297.8655	0.076	595731	keystroke_d	d	n/a
298.0615	0.0895	596123	keystroke_r	r	n/a
298.1355	0.061	596271	keystroke_y	y	n/a
298.2715	0.149	596543	keystroke_e	e	n/a
298.3755	0.1205	596751	keystroke_r	r	n/a
298.4805	0.135	596961	keystroke_Key.space	Key.space	n/a
298.5705	0.165	597141	keystroke_Key.enter	Key.enter	n/a
298.7425	5.4405	597485	prompt	n/a	profits daren't death villa\n
299.3655	0.09	598731	keystroke_p	p	n/a
299.4705	0.106	598941	keystroke_r	r	n/a
299.5605	0.0755	599121	keystroke_o	o	n/a
299.681	0.0895	599362	keystroke_f	f	n/a
299.756	0.09	599512	keystroke_i	i	n/a
299.8905	0.075	599781	keystroke_t	t	n/a
300.086	0.0905	600172	keystroke_s	s	n/a
300.1155	0.12	600231	keystroke_Key.space	Key.space	n/a
300.3855	0.0755	600771	keystroke_d	d	n/a
300.5515	0.0745	601103	keystroke_a	a	n/a
300.701	0.165	601402	keystroke_r	r	n/a
300.776	0.15	601552	keystroke_e	e	n/a
300.836	0.06	601672	keystroke_n	n	n/a
300.9865	0.105	601973	keystroke_'	'	n/a
301.1355	0.105	602271	keystroke_t	t	n/a
301.2255	0.1055	602451	keystroke_Key.space	Key.space	n/a
302.6065	0.09	605213	keystroke_d	d	n/a
302.8005	0.0905	605601	keystroke_e	e	n/a
302.8605	0.0755	605721	keystroke_a	a	n/a
303.0555	0.121	606111	keystroke_t	t	n/a
303.1615	0.09	606323	keystroke_h	h	n/a
303.281	0.105	606562	keystroke_Key.space	Key.space	n/a
303.401	0.105	606802	keystroke_v	v	n/a
303.476	0.0605	606952	keystroke_i	i	n/a
303.656	0.0595	607312	keystroke_l	l	n/a
303.806	0.0595	607612	keystroke_l	l	n/a
303.8355	0.1355	607671	keystroke_a	a	n/a
303.956	0.1055	607912	keystroke_Key.space	Key.space	n/a
304.076	0.105	608152	keystroke_Key.enter	Key.enter	n/a
304.19	3.908	608380	prompt	n/a	many informed belief share\n
304.811	0.09	609622	keystroke_m	m	n/a
304.8855	0.136	609771	keystroke_a	a	n/a
304.9915	0.06	609983	keystroke_n	n	n/a
305.1555	0.0605	610311	keystroke_y	y	n/a
305.276	0.06	610552	keystroke_Key.space	Key.space	n/a
305.4115	0.0445	610823	keystroke_i	i	n/a
305.516	0.075	611032	keystroke_n	n	n/a
305.576	0.06	611152	keystroke_f	f	n/a
305.666	0.09	611332	keystroke_o	o	n/a
305.757	0.074	611514	keystroke_r	r	n/a
305.861	0.075	611722	keystroke_m	m	n/a
305.951	0.18	611902	keystroke_e	e	n/a
306.086	0.105	612172	keystroke_d	d	n/a
306.146	0.06	612292	keystroke_Key.space	Key.space	n/a
306.3115	0.0885	612623	keystroke_b	b	n/a
306.386	0.12	612772	keystroke_e	e	n/a
306.521	0.0755	613042	keystroke_l	l	n/a
306.671	0.0895	613342	keystroke_i	i	n/a
306.7305	0.0905	613461	keystroke_e	e	n/a
306.8655	0.12	613731	keystroke_f	f	n/a
307.001	0.1045	614002	keystroke_Key.space	Key.space	n/a
307.3455	0.075	614691	keystroke_s	s	n/a
307.4515	0.074	614903	keystroke_h	h	n/a
307.5415	0.059	615083	keystroke_a	a	n/a
307.6755	0.15	615351	keystroke_r	r	n/a
307.751	0.1345	615502	keystroke_e	e	n/a
307.8705	0.1055	615741	keystroke_Key.space	Key.space	n/a
307.9455	0.15	615891	keystroke_Key.enter	Key.enter	n/a
308.102	6.3555	616204	prompt	n/a	payroll prayer deals convenience\n
308.787	0.12	617574	keystroke_p	p	n/a
309.056	0.12	618112	keystroke_a	a	n/a
309.192	0.074	618384	keystroke_y	y	n/a
309.521	0.12	619042	keystroke_r	r	n/a
309.626	0.075	619252	keystroke_o	o	n/a
309.851	0.045	619702	keystroke_l	l	n/a
309.986	0.105	619972	keystroke_l	l	n/a
310.106	0.045	620212	keystroke_Key.space	Key.space	n/a
310.211	0.09	620422	keystroke_p	p	n/a
310.256	0.0905	620512	keystroke_r	r	n/a
310.436	0.09	620872	keystroke_a	a	n/a
310.541	0.0605	621082	keystroke_y	y	n/a
310.646	0.1505	621292	keystroke_e	e	n/a
310.7355	0.1055	621471	keystroke_r	r	n/a
310.8415	0.1195	621683	keystroke_Key.space	Key.space	n/a
310.976	0.1045	621952	keystroke_d	d	n/a
311.2005	0.1055	622401	keystroke_e	e	n/a
311.276	0.0905	622552	keystroke_a	a	n/a
311.441	0.09	622882	keystroke_l	l	n/a
311.5615	0.104	623123	keystroke_s	s	n/a
311.681	0.0895	623362	keystroke_Key.space	Key.space	n/a
311.9505	0.0755	623901	keystroke_c	c	n/a
312.401	0.0745	624802	keystroke_o	o	n/a
312.5805	0.091	625161	keystroke_n	n	n/a
312.8515	0.074	625703	keystroke_v	v	n/a
313.421	0.1195	626842	keystroke_e	e	n/a
313.496	0.0895	626992	keystroke_n	n	n/a
313.6605	0.106	627321	keystroke_i	i	n/a
313.8115	0.0895	627623	keystroke_e	e	n/a
313.9305	0.075	627861	keystroke_n	n	n/a
314.021	0.1045	628042	keystroke_c	c	n/a
314.1115	0.1195	628223	keystroke_e	e	n/a
314.1405	0.105	628281	keystroke_Key.space	Key.space	n/a
314.3355	0.12	628671	keystroke_Key.enter	Key.enter	n/a
314.461	6.897	628922	prompt	n/a	supplemental exhibitions eyed fairy\n
315.191	0.09	630382	keystroke_s	s	n/a
315.296	0.09	630592	keystroke_u	u	n/a
315.6105	0.046	631221	keystroke_m	m	n/a
316.061	0.0445	632122	keystroke_Key.backspace	Key.backspace	n/a
316.2865	0.044	632573	keystroke_p	p	n/a
316.4365	0.075	632873	keystroke_p	p	n/a
316.4965	0.12	632993	keystroke_l	l	n/a
316.721	0.135	633442	keystroke_e	e	n/a
316.856	0.09	633712	keystroke_m	m	n/a
316.976	0.075	633952	keystroke_e	e	n/a
317.036	0.075	634072	keystroke_n	n	n/a
317.126	0.075	634252	keystroke_t	t	n/a
317.7255	0.091	635451	keystroke_a	a	n/a
317.8165	0.105	635633	keystroke_l	l	n/a
317.9805	0.09	635961	keystroke_Key.space	Key.space	n/a
318.176	0.0745	636352	keystroke_e	e	n/a
318.3715	0.12	636743	keystroke_x	x	n/a
318.5355	0.061	637071	keystroke_h	h	n/a
318.6865	0.059	637373	keystroke_i	i	n/a
318.8505	0.045	637701	keystroke_b	b	n/a
318.9715	0.0895	637943	keystroke_i	i	n/a
319.0755	0.12	638151	keystroke_t	t	n/a
319.1655	0.075	638331	keystroke_i	i	n/a
319.3305	0.0455	638661	keystroke_o	o	n/a
319.4365	0.089	638873	keystroke_n	n	n/a
319.5115	0.104	639023	keystroke_s	s	n/a
319.631	0.0145	639262	keystroke_Key.space	Key.space	n/a
319.676	0.105	639352	keystroke_e	e	n/a
319.7955	0.06	639591	keystroke_y	y	n/a
319.901	0.1195	639802	keystroke_e	e	n/a
319.9755	0.15	639951	keystroke_d	d	n/a
320.141	0.075	640282	keystroke_Key.space	Key.space	n/a
320.366	0.075	640732	keystroke_f	f	n/a
320.561	0.0605	641122	keystroke_a	a	n/a
320.636	0.105	641272	keystroke_i	i	n/a
320.846	0.105	641692	keystroke_r	r	n/a
320.996	0.075	641992	keystroke_y	y	n/a
321.206	0.1495	642412	keystroke_Key.enter	Key.enter	n/a
321.3635	10.149	642727	prompt	n/a	terrace funky political petroleum\n
322.0305	0.0905	644061	keystroke_t	t	n/a
322.1955	0.106	644391	keystroke_e	e	n/a
322.3465	0.104	644693	keystroke_r	r	n/a
322.4655	0.0905	644931	keystroke_r	r	n/a
323.096	0.09	646192	keystroke_r	r	n/a
323.5165	0.0895	647033	keystroke_a	a	n/a
323.846	0.1355	647692	keystroke_c	c	n/a
323.921	0.12	647842	keystroke_e	e	n/a
323.966	0.12	647932	keystroke_Key.space	Key.space	n/a
324.131	0.135	648262	keystroke_f	f	n/a
324.2065	0.1205	648413	keystroke_l	l	n/a
324.776	0.015	649552	keystroke_Key.backspace	Key.backspace	n/a
324.926	0.045	649852	keystroke_Key.backspace	Key.backspace	n/a
326.141	0.09	652282	keystroke_f	f	n/a
326.201	0.06	652402	keystroke_u	u	n/a
326.336	0.06	652672	keystroke_n	n	n/a
326.456	0.09	652912	keystroke_k	k	n/a
326.516	0.105	653032	keystroke_y	y	n/a
326.98	0.076	653960	keystroke_Key.space	Key.space	n/a
327.131	0.105	654262	keystroke_p	p	n/a
327.311	0.075	654622	keystroke_o	o	n/a
327.506	0.06	655012	keystroke_l	l	n/a
327.6855	0.076	655371	keystroke_i	i	n/a
327.7915	0.1045	655583	keystroke_t	t	n/a
327.8805	0.121	655761	keystroke_i	i	n/a
328.0315	0.074	656063	keystroke_c	c	n/a
328.2115	0.0895	656423	keystroke_a	a	n/a
328.286	0.105	656572	keystroke_l	l	n/a
328.4355	0.0155	656871	keystroke_Key.space	Key.space	n/a
328.5865	0.135	657173	keystroke_p	p	n/a
328.706	0.105	657412	keystroke_e	e	n/a
328.931	0.15	657862	keystroke_t	t	n/a
328.991	0.135	657982	keystroke_r	r	n/a
329.0665	0.1045	658133	keystroke_o	o	n/a
329.306	0.1205	658612	keystroke_l	l	n/a
329.831	0.1055	659662	keystroke_e	e	n/a
329.921	0.0755	659842	keystroke_i	i	n/a
330.851	0.0745	661702	keystroke_Key.backspace	Key.backspace	n/a
331.0605	0.061	662121	keystroke_u	u	n/a
331.241	0.09	662482	keystroke_m	m	n/a
331.421	0.09	662842	keystroke_Key.enter	Key.enter	n/a
331.517	8.006	663034	prompt	n/a	rewards provinces rebound consistency\n
332.171	0.135	664342	keystroke_r	r	n/a
332.261	0.0905	664522	keystroke_e	e	n/a
332.501	0.165	665002	keystroke_w	w	n/a
332.6215	0.1195	665243	keystroke_a	a	n/a
332.8765	0.0895	665753	keystroke_r	r	n/a
333.086	0.119	666172	keystroke_d	d	n/a
333.1615	0.12	666323	keystroke_s	s	n/a
333.2505	0.06	666501	keystroke_Key.space	Key.space	n/a
333.4015	0.105	666803	keystroke_p	p	n/a
333.4615	0.1045	666923	keystroke_r	r	n/a
333.5965	0.105	667193	keystroke_o	o	n/a
334.2865	0.09	668573	keystroke_v	v	n/a
334.3615	0.06	668723	keystroke_i	i	n/a
334.496	0.1045	668992	keystroke_n	n	n/a
334.5715	0.1495	669143	keystroke_c	c	n/a
334.6765	0.1185	669353	keystroke_e	e	n/a
334.9165	0.0745	669833	keystroke_s	s	n/a
335.006	0.09	670012	keystroke_Key.space	Key.space	n/a
335.1415	0.149	670283	keystroke_r	r	n/a
335.202	0.119	670404	keystroke_e	e	n/a
335.6065	0.075	671213	keystroke_b	b	n/a
335.9205	0.045	671841	keystroke_u	u	n/a
336.266	0.0595	672532	keystroke_Key.backspace	Key.backspace	n/a
336.4915	0.0895	672983	keystroke_o	o	n/a
336.641	0.075	673282	keystroke_u	u	n/a
336.8365	0.0745	673673	keystroke_n	n	n/a
336.9405	0.121	673881	keystroke_d	d	n/a
337.0305	0.105	674061	keystroke_Key.space	Key.space	n/a
337.2405	0.09	674481	keystroke_c	c	n/a
337.3455	0.06	674691	keystroke_o	o	n/a
337.4955	0.105	674991	keystroke_n	n	n/a
337.8565	0.1195	675713	keystroke_s	s	n/a
337.946	0.075	675892	keystroke_i	i	n/a
338.486	0.135	676972	keystroke_s	s	n/a
338.726	0.135	677452	keystroke_t	t	n/a
338.816	0.12	677632	keystroke_e	e	n/a
338.966	0.075	677932	keystroke_n	n	n/a
339.056	0.105	678112	keystroke_c	c	n/a
339.131	0.09	678262	keystroke_y	y	n/a
339.251	0.09	678502	keystroke_Key.space	Key.space	n/a
339.401	0.12	678802	keystroke_Key.enter	Key.enter	n/a
339.526	3.942	679052	prompt	n/a	morrison adopted site thus\n
340.271	0.045	680542	keystroke_m	m	n/a
340.391	0.105	680782	keystroke_o	o	n/a
340.5405	0.045	681081	keystroke_r	r	n/a
340.691	0.075	681382	keystroke_r	r	n/a
340.751	0.0905	681502	keystroke_i	i	n/a
340.871	0.15	681742	keystroke_s	s	n/a
341.006	0.045	682012	keystroke_o	o	n/a
341.141	0.0895	682282	keystroke_n	n	n/a
341.246	0.09	682492	keystroke_Key.space	Key.space	n/a
341.336	0.0745	682672	keystroke_a	a	n/a
341.516	0.105	683032	keystroke_d	d	n/a
341.576	0.075	683152	keystroke_o	o	n/a
341.7565	0.075	683513	keystroke_p	p	n/a
341.816	0.0745	683632	keystroke_t	t	n/a
341.936	0.1495	683872	keystroke_e	e	n/a
342.0405	0.09	684081	keystroke_d	d	n/a
342.101	0.0895	684202	keystroke_Key.space	Key.space	n/a
342.2365	0.105	684473	keystroke_s	s	n/a
342.3565	0.0895	684713	keystroke_i	i	n/a
342.5065	0.12	685013	keystroke_t	t	n/a
342.581	0.1355	685162	keystroke_e	e	n/a
342.6555	0.0905	685311	keystroke_Key.space	Key.space	n/a
342.851	0.105	685702	keystroke_t	t	n/a
342.911	0.075	685822	keystroke_h	h	n/a
343.016	0.12	686032	keystroke_u	u	n/a
343.106	0.105	686212	keystroke_s	s	n/a
343.241	0.1045	686482	keystroke_Key.space	Key.space	n/a
343.3605	0.105	686721	keystroke_Key.enter	Key.enter	n/a
343.472	4.525	686944	prompt	n/a	moment hearts columbia houses\n
344.1565	0.075	688313	keystroke_m	m	n/a
344.2915	0.0745	688583	keystroke_o	o	n/a
344.4255	0.091	688851	keystroke_m	m	n/a
344.5175	0.0735	689035	keystroke_e	e	n/a
344.5915	0.09	689183	keystroke_n	n	n/a
344.6955	0.0905	689391	keystroke_t	t	n/a
344.771	0.09	689542	keystroke_Key.space	Key.space	n/a
344.921	0.1055	689842	keystroke_h	h	n/a
344.982	0.1345	689964	keystroke_e	e	n/a
345.0565	0.1045	690113	keystroke_a	a	n/a
345.251	0.0605	690502	keystroke_r	r	n/a
345.4155	0.061	690831	keystroke_t	t	n/a
345.596	0.105	691192	keystroke_s	s	n/a
345.686	0.09	691372	keystroke_Key.space	Key.space	n/a
345.8205	0.0905	691641	keystroke_c	c	n/a
345.8965	0.074	691793	keystroke_o	o	n/a
346.0765	0.075	692153	keystroke_l	l	n/a
346.2565	0.059	692513	keystroke_u	u	n/a
346.3905	0.105	692781	keystroke_m	m	n/a
346.6015	0.0895	693203	keystroke_b	b	n/a
346.736	0.09	693472	keystroke_i	i	n/a
346.857	0.1195	693714	keystroke_a	a	n/a
346.931	0.09	693862	keystroke_Key.space	Key.space	n/a
347.051	0.076	694102	keystroke_h	h	n/a
347.201	0.0605	694402	keystroke_o	o	n/a
347.276	0.0905	694552	keystroke_u	u	n/a
347.321	0.105	694642	keystroke_s	s	n/a
347.4715	0.165	694943	keystroke_e	e	n/a
347.5765	0.1345	695153	keystroke_s	s	n/a
347.726	0.12	695452	keystroke_Key.space	Key.space	n/a
347.861	0.135	695722	keystroke_Key.enter	Key.enter	n/a
348	7.9205	696000	prompt	n/a	pleasant autos egypt genius\n
348.626	0.1355	697252	keystroke_p	p	n/a
348.7315	0.1195	697463	keystroke_l	l	n/a
348.866	0.0755	697732	keystroke_e	e	n/a
349.001	0.1205	698002	keystroke_a	a	n/a
349.091	0.1205	698182	keystroke_s	s	n/a
349.511	0.105	699022	keystroke_a	a	n/a
349.6455	0.0905	699291	keystroke_n	n	n/a
349.767	0.104	699534	keystroke_t	t	n/a
349.856	0.105	699712	keystroke_Key.space	Key.space	n/a
350.0365	0.089	700073	keystroke_a	a	n/a
350.1405	0.0755	700281	keystroke_u	u	n/a
350.261	0.12	700522	keystroke_t	t	n/a
350.396	0.0755	700792	keystroke_o	o	n/a
350.546	0.1055	701092	keystroke_s	s	n/a
350.681	0.12	701362	keystroke_Key.space	Key.space	n/a
350.891	0.1055	701782	keystroke_e	e	n/a
351.6415	0.1045	703283	keystroke_g	g	n/a
351.7465	0.044	703493	keystroke_y	y	n/a
352.226	0.1055	704452	keystroke_[	[	n/a
352.3465	0.134	704693	keystroke_t	t	n/a
352.511	0.0895	705022	keystroke_Key.space	Key.space	n/a
352.7215	0.134	705443	keystroke_g	g	n/a
352.8255	0.106	705651	keystroke_e	e	n/a
352.8865	0.075	705773	keystroke_n	n	n/a
353.2005	0.045	706401	keystroke_Key.backspace	Key.backspace	n/a
353.366	0.03	706732	keystroke_Key.backspace	Key.backspace	n/a
353.516	0.045	707032	keystroke_Key.backspace	Key.backspace	n/a
353.636	0.045	707272	keystroke_Key.backspace	Key.backspace	n/a
353.756	0.06	707512	keystroke_Key.backspace	Key.backspace	n/a
353.891	0.075	707782	keystroke_Key.backspace	Key.backspace	n/a
354.6565	0.12	709313	keystroke_p	p	n/a
354.8205	0.1055	709641	keystroke_t	t	n/a
354.9405	0.09	709881	keystroke_Key.space	Key.space	n/a
355.0755	0.1205	710151	keystroke_g	g	n/a
355.1805	0.105	710361	keystroke_e	e	n/a
355.256	0.0755	710512	keystroke_n	n	n/a
355.406	0.0445	710812	keystroke_i	i	n/a
355.511	0.0755	711022	keystroke_u	u	n/a
355.601	0.1195	711202	keystroke_s	s	n/a
355.7055	0.135	711411	keystroke_Key.space	Key.space	n/a
355.7955	0.12	711591	keystroke_Key.enter	Key.enter	n/a
355.924	4.914	711848	prompt	n/a	printable proceed gathering broke\n
356.5765	0.089	713153	keystroke_p	p	n/a
356.6365	0.15	713273	keystroke_r	r	n/a
356.771	0.045	713542	keystroke_i	i	n/a
356.906	0.0905	713812	keystroke_n	n	n/a
356.966	0.0745	713932	keystroke_t	t	n/a
357.191	0.0755	714382	keystroke_a	a	n/a
357.2515	0.044	714503	keystroke_b	b	n/a
357.401	0.09	714802	keystroke_l	l	n/a
357.4755	0.1055	714951	keystroke_e	e	n/a
357.566	0.0595	715132	keystroke_Key.space	Key.space	n/a
357.7165	0.0745	715433	keystroke_p	p	n/a
357.776	0.06	715552	keystroke_r	r	n/a
357.8665	0.1195	715733	keystroke_o	o	n/a
357.971	0.12	715942	keystroke_c	c	n/a
358.451	0.06	716902	keystroke_e	e	n/a
358.601	0.1345	717202	keystroke_e	e	n/a
358.6905	0.15	717381	keystroke_d	d	n/a
358.8255	0.09	717651	keystroke_Key.space	Key.space	n/a
359.0055	0.06	718011	keystroke_g	g	n/a
359.1855	0.06	718371	keystroke_a	a	n/a
359.3505	0.075	718701	keystroke_t	t	n/a
359.441	0.09	718882	keystroke_h	h	n/a
359.5165	0.105	719033	keystroke_e	e	n/a
359.606	0.105	719212	keystroke_r	r	n/a
359.696	0.06	719392	keystroke_i	i	n/a
359.831	0.0905	719662	keystroke_n	n	n/a
359.922	0.059	719844	keystroke_g	g	n/a
359.996	0.045	719992	keystroke_Key.space	Key.space	n/a
360.1015	0.0745	720203	keystroke_b	b	n/a
360.206	0.0905	720412	keystroke_r	r	n/a
360.281	0.105	720562	keystroke_o	o	n/a
360.401	0.1055	720802	keystroke_k	k	n/a
360.476	0.1205	720952	keystroke_e	e	n/a
360.6255	0.09	721251	keystroke_Key.space	Key.space	n/a
360.7005	0.1355	721401	keystroke_Key.enter	Key.enter	n/a
360.843	8.9195	721686	prompt	n/a	what're living macromedia fantasy\n
361.497	0.134	722994	keystroke_w	w	n/a
361.707	0.119	723414	keystroke_h	h	n/a
361.781	0.075	723562	keystroke_a	a	n/a
361.977	0.105	723954	keystroke_t	t	n/a
362.111	0.12	724222	keystroke_'	'	n/a
362.231	0.045	724462	keystroke_e	e	n/a
362.321	0.15	724642	keystroke_r	r	n/a
362.411	0.1055	724822	keystroke_e	e	n/a
362.831	0.06	725662	keystroke_Key.backspace	Key.backspace	n/a
362.981	0.075	725962	keystroke_Key.backspace	Key.backspace	n/a
363.0715	0.0895	726143	keystroke_r	r	n/a
363.116	0.135	726232	keystroke_e	e	n/a
363.236	0.09	726472	keystroke_Key.space	Key.space	n/a
363.701	0.06	727402	keystroke_Key.backspace	Key.backspace	n/a
363.851	0.06	727702	keystroke_Key.backspace	Key.backspace	n/a
364.016	0.045	728032	keystroke_Key.backspace	Key.backspace	n/a
364.1665	0.1345	728333	keystroke_r	r	n/a
364.226	0.1345	728452	keystroke_e	e	n/a
364.571	0.045	729142	keystroke_Key.backspace	Key.backspace	n/a
364.7205	0.06	729441	keystroke_Key.backspace	Key.backspace	n/a
364.8705	0.045	729741	keystroke_Key.backspace	Key.backspace	n/a
364.9465	0.104	729893	keystroke_r	r	n/a
365.021	0.1355	730042	keystroke_e	e	n/a
365.0955	0.075	730191	keystroke_Key.space	Key.space	n/a
365.2165	0.105	730433	keystroke_e	e	n/a
365.2615	0.06	730523	keystroke_l	l	n/a
365.4115	0.075	730823	keystroke_i	i	n/a
365.5015	0.105	731003	keystroke_v	v	n/a
365.6065	0.059	731213	keystroke_i	i	n/a
365.7415	0.089	731483	keystroke_n	n	n/a
365.8015	0.12	731603	keystroke_g	g	n/a
365.9055	0.09	731811	keystroke_Key.space	Key.space	n/a
366.1755	0.135	732351	keystroke_n	n	n/a
366.581	0.06	733162	keystroke_Key.backspace	Key.backspace	n/a
366.821	0.105	733642	keystroke_m	m	n/a
366.8815	0.104	733763	keystroke_a	a	n/a
367.181	0.1045	734362	keystroke_c	c	n/a
367.4065	0.15	734813	keystroke_r	r	n/a
367.4965	0.075	734993	keystroke_o	o	n/a
367.676	0.0905	735352	keystroke_m	m	n/a
367.7365	0.135	735473	keystroke_e	e	n/a
367.856	0.0905	735712	keystroke_d	d	n/a
367.9605	0.0605	735921	keystroke_i	i	n/a
368.1265	0.105	736253	keystroke_a	a	n/a
368.2165	0.089	736433	keystroke_Key.space	Key.space	n/a
368.651	0.075	737302	keystroke_f	f	n/a
368.846	0.105	737692	keystroke_a	a	n/a
368.936	0.09	737872	keystroke_n	n	n/a
369.071	0.0755	738142	keystroke_t	t	n/a
369.281	0.165	738562	keystroke_a	a	n/a
369.371	0.105	738742	keystroke_s	s	n/a
369.431	0.03	738862	keystroke_y	y	n/a
369.656	0.105	739312	keystroke_Key.enter	Key.enter	n/a
369.766	6.5365	739532	prompt	n/a	suffer munich homepage athens\n
370.586	0.1045	741172	keystroke_s	s	n/a
370.7055	0.075	741411	keystroke_u	u	n/a
370.8105	0.075	741621	keystroke_f	f	n/a
370.9605	0.105	741921	keystroke_f	f	n/a
371.1415	0.1945	742283	keystroke_e	e	n/a
371.2315	0.119	742463	keystroke_r	r	n/a
371.3205	0.075	742641	keystroke_Key.space	Key.space	n/a
371.471	0.0905	742942	keystroke_m	m	n/a
371.636	0.0745	743272	keystroke_i	i	n/a
372.206	0.06	744412	keystroke_Key.backspace	Key.backspace	n/a
372.4315	0.06	744863	keystroke_u	u	n/a
372.5665	0.059	745133	keystroke_n	n	n/a
372.6865	0.09	745373	keystroke_i	i	n/a
372.7915	0.105	745583	keystroke_c	c	n/a
372.9415	0.045	745883	keystroke_h	h	n/a
373.0155	0.106	746031	keystroke_Key.space	Key.space	n/a
373.226	0.06	746452	keystroke_h	h	n/a
373.3615	0.09	746723	keystroke_o	o	n/a
373.5115	0.12	747023	keystroke_m	m	n/a
373.6465	0.06	747293	keystroke_a	a	n/a
374.0515	0.0745	748103	keystroke_Key.backspace	Key.backspace	n/a
374.3665	0.12	748733	keystroke_e	e	n/a
374.5765	0.1345	749153	keystroke_p	p	n/a
374.741	0.105	749482	keystroke_a	a	n/a
374.966	0.135	749932	keystroke_g	g	n/a
375.041	0.15	750082	keystroke_e	e	n/a
375.116	0.12	750232	keystroke_Key.space	Key.space	n/a
375.371	0.0605	750742	keystroke_a	a	n/a
375.5365	0.0745	751073	keystroke_t	t	n/a
375.626	0.0755	751252	keystroke_h	h	n/a
375.716	0.09	751432	keystroke_e	e	n/a
375.821	0.0755	751642	keystroke_n	n	n/a
375.941	0.12	751882	keystroke_s	s	n/a
376.106	0.105	752212	keystroke_Key.space	Key.space	n/a
376.1515	0.1495	752303	keystroke_Key.enter	Key.enter	n/a
376.307	5.6375	752614	prompt	n/a	dock ukraine extract burton\n
376.9765	0.1045	753953	keystroke_d	d	n/a
377.11	0.076	754220	keystroke_o	o	n/a
377.201	0.0905	754402	keystroke_c	c	n/a
377.3065	0.135	754613	keystroke_k	k	n/a
377.4555	0.09	754911	keystroke_Key.space	Key.space	n/a
377.6515	0.09	755303	keystroke_u	u	n/a
377.8915	0.075	755783	keystroke_k	k	n/a
377.9805	0.09	755961	keystroke_r	r	n/a
378.1905	0.105	756381	keystroke_a	a	n/a
378.2815	0.06	756563	keystroke_i	i	n/a
378.431	0.105	756862	keystroke_n	n	n/a
378.5215	0.149	757043	keystroke_e	e	n/a
378.6705	0.075	757341	keystroke_Key.space	Key.space	n/a
378.821	0.09	757642	keystroke_e	e	n/a
379.016	0.075	758032	keystroke_x	x	n/a
379.211	0.135	758422	keystroke_t	t	n/a
379.272	0.104	758544	keystroke_r	r	n/a
379.511	0.06	759022	keystroke_a	a	n/a
379.691	0.075	759382	keystroke_c	c	n/a
379.886	0.12	759772	keystroke_t	t	n/a
379.991	0.0745	759982	keystroke_Key.space	Key.space	n/a
380.141	0.075	760282	keystroke_b	b	n/a
380.262	0.1195	760524	keystroke_u	u	n/a
381.116	0.0755	762232	keystroke_r	r	n/a
381.3115	0.0745	762623	keystroke_t	t	n/a
381.386	0.075	762772	keystroke_o	o	n/a
381.5515	0.1045	763103	keystroke_n	n	n/a
381.671	0.075	763342	keystroke_Key.space	Key.space	n/a
381.7905	0.15	763581	keystroke_Key.enter	Key.enter	n/a
381.9535	8.4045	763907	prompt	n/a	prime occupational biography ordering\n
382.6615	0.1045	765323	keystroke_p	p	n/a
382.7505	0.1355	765501	keystroke_r	r	n/a
382.856	0.075	765712	keystroke_i	i	n/a
382.991	0.135	765982	keystroke_m	m	n/a
383.066	0.12	766132	keystroke_e	e	n/a
383.141	0.105	766282	keystroke_Key.space	Key.space	n/a
383.3665	0.1045	766733	keystroke_o	o	n/a
383.516	0.09	767032	keystroke_c	c	n/a
383.726	0.0755	767452	keystroke_c	c	n/a
383.876	0.09	767752	keystroke_u	u	n/a
384.206	0.09	768412	keystroke_p	p	n/a
384.431	0.105	768862	keystroke_l	l	n/a
384.461	0.105	768922	keystroke_a	a	n/a
384.7615	0.134	769523	keystroke_t	t	n/a
385.2565	0.0745	770513	keystroke_Key.backspace	Key.backspace	n/a
385.4355	0.091	770871	keystroke_Key.backspace	Key.backspace	n/a
385.6305	0.0605	771261	keystroke_Key.backspace	Key.backspace	n/a
385.8565	0.105	771713	keystroke_a	a	n/a
386.457	0.104	772914	keystroke_t	t	n/a
386.547	0.0745	773094	keystroke_i	i	n/a
386.7265	0.03	773453	keystroke_o	o	n/a
386.861	0.06	773722	keystroke_n	n	n/a
386.966	0.1055	773932	keystroke_a	a	n/a
387.0565	0.09	774113	keystroke_l	l	n/a
387.1755	0.076	774351	keystroke_Key.space	Key.space	n/a
387.3405	0.061	774681	keystroke_b	b	n/a
387.4765	0.0755	774953	keystroke_i	i	n/a
387.687	0.1045	775374	keystroke_o	o	n/a
387.9865	0.134	775973	keystroke_g	g	n/a
388.0615	0.12	776123	keystroke_r	r	n/a
388.241	0.09	776482	keystroke_p	p	n/a
388.3915	0.09	776783	keystroke_a	a	n/a
388.5265	0.06	777053	keystroke_h	h	n/a
388.6915	0.045	777383	keystroke_y	y	n/a
388.8255	0.105	777651	keystroke_Key.space	Key.space	n/a
389.0515	0.075	778103	keystroke_o	o	n/a
389.1875	0.104	778375	keystroke_r	r	n/a
389.4265	0.1045	778853	keystroke_d	d	n/a
389.5005	0.151	779001	keystroke_e	e	n/a
389.6655	0.076	779331	keystroke_r	r	n/a
389.846	0.0605	779692	keystroke_i	i	n/a
389.966	0.1055	779932	keystroke_n	n	n/a
390.041	0.12	780082	keystroke_g	g	n/a
390.101	0.09	780202	keystroke_Key.space	Key.space	n/a
390.236	0.12	780472	keystroke_Key.enter	Key.enter	n/a
390.3625	5.7705	780725	prompt	n/a	fujitsu type finished garage\n
391.061	0.12	782122	keystroke_f	f	n/a
391.196	0.12	782392	keystroke_u	u	n/a
391.496	0.1055	782992	keystroke_j	j	n/a
391.646	0.135	783292	keystroke_i	i	n/a
392.156	0.105	784312	keystroke_t	t	n/a
392.411	0.1355	784822	keystroke_s	s	n/a
392.531	0.075	785062	keystroke_u	u	n/a
392.666	0.12	785332	keystroke_Key.space	Key.space	n/a
392.906	0.0905	785812	keystroke_t	t	n/a
393.0865	0.0745	786173	keystroke_y	y	n/a
393.1755	0.09	786351	keystroke_p	p	n/a
393.2805	0.136	786561	keystroke_e	e	n/a
393.4305	0.075	786861	keystroke_Key.space	Key.space	n/a
393.7305	0.0155	787461	keystroke_f	f	n/a
393.821	0.09	787642	keystroke_i	i	n/a
394.331	0.045	788662	keystroke_n	n	n/a
394.4515	0.0895	788903	keystroke_i	i	n/a
394.541	0.0905	789082	keystroke_s	s	n/a
394.6615	0.075	789323	keystroke_h	h	n/a
394.7205	0.1505	789441	keystroke_e	e	n/a
394.811	0.12	789622	keystroke_d	d	n/a
394.901	0.09	789802	keystroke_Key.space	Key.space	n/a
395.051	0.0755	790102	keystroke_g	g	n/a
395.2455	0.075	790491	keystroke_a	a	n/a
395.382	0.074	790764	keystroke_r	r	n/a
395.5315	0.074	791063	keystroke_a	a	n/a
395.6805	0.151	791361	keystroke_g	g	n/a
395.771	0.1345	791542	keystroke_e	e	n/a
395.951	0.0895	791902	keystroke_Key.space	Key.space	n/a
396.0105	0.12	792021	keystroke_Key.enter	Key.enter	n/a
396.137	5.786	792274	prompt	n/a	trade responded restaurant savage\n
396.821	0.12	793642	keystroke_t	t	n/a
397.031	0.0605	794062	keystroke_r	r	n/a
397.2255	0.0755	794451	keystroke_a	a	n/a
397.3765	0.164	794753	keystroke_d	d	n/a
397.4505	0.15	794901	keystroke_e	e	n/a
397.5855	0.0905	795171	keystroke_Key.space	Key.space	n/a
397.691	0.105	795382	keystroke_r	r	n/a
397.736	0.105	795472	keystroke_e	e	n/a
397.9615	0.075	795923	keystroke_s	s	n/a
398.0515	0.075	796103	keystroke_p	p	n/a
398.2165	0.06	796433	keystroke_o	o	n/a
398.3515	0.105	796703	keystroke_n	n	n/a
398.9215	0.105	797843	keystroke_d	d	n/a
399.0715	0.15	798143	keystroke_e	e	n/a
399.1765	0.1205	798353	keystroke_d	d	n/a
399.3105	0.061	798621	keystroke_Key.space	Key.space	n/a
399.432	0.105	798864	keystroke_r	r	n/a
399.492	0.1045	798984	keystroke_e	e	n/a
399.716	0.0595	799432	keystroke_s	s	n/a
399.867	0.0445	799734	keystroke_t	t	n/a
400.032	0.075	800064	keystroke_a	a	n/a
400.1365	0.1195	800273	keystroke_u	u	n/a
400.226	0.06	800452	keystroke_r	r	n/a
400.391	0.06	800782	keystroke_a	a	n/a
400.467	0.089	800934	keystroke_n	n	n/a
400.571	0.105	801142	keystroke_t	t	n/a
400.6605	0.091	801321	keystroke_Key.space	Key.space	n/a
400.796	0.135	801592	keystroke_s	s	n/a
400.886	0.09	801772	keystroke_a	a	n/a
401.1565	0.045	802313	keystroke_v	v	n/a
401.336	0.06	802672	keystroke_a	a	n/a
401.501	0.1345	803002	keystroke_g	g	n/a
401.5755	0.1055	803151	keystroke_e	e	n/a
401.726	0.0895	803452	keystroke_Key.space	Key.space	n/a
401.786	0.135	803572	keystroke_Key.enter	Key.enter	n/a
401.927	8.0085	803854	prompt	n/a	limited lover pointer constantly\n
402.627	0.059	805254	keystroke_l	l	n/a
402.746	0.06	805492	keystroke_i	i	n/a
402.8665	0.0895	805733	keystroke_m	m	n/a
403.001	0.09	806002	keystroke_i	i	n/a
403.0165	0.1045	806033	keystroke_t	t	n/a
403.151	0.135	806302	keystroke_e	e	n/a
403.226	0.105	806452	keystroke_d	d	n/a
403.301	0.06	806602	keystroke_Key.space	Key.space	n/a
403.601	0.105	807202	keystroke_l	l	n/a
403.796	0.075	807592	keystroke_o	o	n/a
404.216	0.075	808432	keystroke_v	v	n/a
404.366	0.1355	808732	keystroke_e	e	n/a
404.441	0.135	808882	keystroke_r	r	n/a
404.546	0.09	809092	keystroke_Key.space	Key.space	n/a
404.756	0.075	809512	keystroke_p	p	n/a
404.9205	0.0905	809841	keystroke_o	o	n/a
405.116	0.0605	810232	keystroke_i	i	n/a
405.251	0.105	810502	keystroke_n	n	n/a
405.341	0.06	810682	keystroke_t	t	n/a
405.461	0.12	810922	keystroke_e	e	n/a
405.536	0.09	811072	keystroke_r	r	n/a
405.611	0.075	811222	keystroke_Key.space	Key.space	n/a
405.746	0.075	811492	keystroke_c	c	n/a
405.836	0.0455	811672	keystroke_o	o	n/a
405.972	0.0895	811944	keystroke_n	n	n/a
406.0455	0.076	812091	keystroke_s	s	n/a
406.2115	0.03	812423	keystroke_t	t	n/a
406.3465	0.075	812693	keystroke_a	a	n/a
406.4665	0.09	812933	keystroke_n	n	n/a
406.5865	0.0895	813173	keystroke_t	t	n/a
407.036	0.045	814072	keystroke_Key.backspace	Key.backspace	n/a
407.216	0.03	814432	keystroke_Key.backspace	Key.backspace	n/a
409.1965	0.075	818393	keystroke_n	n	n/a
409.286	0.12	818572	keystroke_t	t	n/a
409.4215	0.1045	818843	keystroke_l	l	n/a
409.541	0.15	819082	keystroke_y	y	n/a
409.646	0.09	819292	keystroke_Key.space	Key.space	n/a
409.811	0.12	819622	keystroke_Key.enter	Key.enter	n/a
409.94	4.688	819880	prompt	n/a	simulations heath means turkey\n
410.5615	0.105	821123	keystroke_s	s	n/a
410.6515	0.09	821303	keystroke_i	i	n/a
410.7565	0.105	821513	keystroke_m	m	n/a
410.967	0.0745	821934	keystroke_u	u	n/a
411.1615	0.075	822323	keystroke_l	l	n/a
411.2365	0.09	822473	keystroke_a	a	n/a
411.4765	0.09	822953	keystroke_t	t	n/a
411.5365	0.045	823073	keystroke_i	i	n/a
411.6865	0.045	823373	keystroke_o	o	n/a
411.8215	0.09	823643	keystroke_n	n	n/a
