onset	duration	sample	value	key	prompt_text
1.8025	9.974	3605	prompt	n/a	the quick brown fox jumps over a lazy dog\n
4.9515	0	9903	keystroke	t	n/a
4.9785	0.075	9957	keystroke	h	n/a
5.0685	0.0755	10137	keystroke	e	n/a
5.1735	0.0595	10347	keystroke	Key.space	n/a
5.338	0.075	10676	keystroke	q	n/a
5.474	0.09	10948	keystroke	u	n/a
5.549	0.0745	11098	keystroke	i	n/a
5.594	0.074	11188	keystroke	c	n/a
5.699	0.09	11398	keystroke	k	n/a
5.833	0.06	11666	keystroke	Key.space	n/a
5.9985	0.03	11997	keystroke	b	n/a
6.164	0.0745	12328	keystroke	r	n/a
6.1795	0.044	12359	keystroke	t	n/a
6.284	0.03	12568	keystroke	o	n/a
6.3595	0.059	12719	keystroke	w	n/a
6.494	0.059	12988	keystroke	n	n/a
6.5385	0.045	13077	keystroke	Key.space	n/a
6.9135	0.015	13827	keystroke	Key.backspace	n/a
6.973	0.0755	13946	keystroke	Key.backspace	n/a
7.154	0.089	14308	keystroke	Key.backspace	n/a
7.2885	0.09	14577	keystroke	Key.backspace	n/a
7.438	0.075	14876	keystroke	Key.backspace	n/a
7.7385	0.0905	15477	keystroke	o	n/a
7.8895	0.074	15779	keystroke	w	n/a
8.024	0.089	16048	keystroke	n	n/a
8.068	0.06	16136	keystroke	Key.space	n/a
8.204	0.06	16408	keystroke	f	n/a
8.294	0.074	16588	keystroke	o	n/a
8.413	0.1055	16826	keystroke	x	n/a
8.578	0.06	17156	keystroke	Key.space	n/a
8.8785	0.046	17757	keystroke	j	n/a
9.014	0.09	18028	keystroke	u	n/a
9.224	0.06	18448	keystroke	m	n/a
9.269	0.09	18538	keystroke	p	n/a
9.4345	0.0885	18869	keystroke	s	n/a
9.568	0.045	19136	keystroke	Key.space	n/a
9.644	0.0895	19288	keystroke	o	n/a
9.793	0.121	19586	keystroke	v	n/a
9.853	0.1055	19706	keystroke	e	n/a
9.929	0.075	19858	keystroke	r	n/a
10.033	0.0605	20066	keystroke	Key.space	n/a
10.259	0.1195	20518	keystroke	a	n/a
10.363	0.075	20726	keystroke	Key.space	n/a
10.4835	0.0745	20967	keystroke	l	n/a
10.619	0.075	21238	keystroke	a	n/a
10.8135	0.075	21627	keystroke	z	n/a
10.948	0.045	21896	keystroke	y	n/a
10.994	0.044	21988	keystroke	Key.space	n/a
11.099	0.0595	22198	keystroke	d	n/a
11.218	0.076	22436	keystroke	o	n/a
11.444	0.074	22888	keystroke	g	n/a
11.6835	0.09	23367	keystroke	Key.enter	n/a
11.782	4.373	23564	prompt	n/a	team bench aviation federal\n
12.523	0.015	25046	keystroke	t	n/a
12.554	0.135	25108	keystroke	e	n/a
12.659	0.074	25318	keystroke	a	n/a
12.749	0.0595	25498	keystroke	m	n/a
12.8385	0.075	25677	keystroke	Key.space	n/a
12.974	0.075	25948	keystroke	b	n/a
13.019	0.12	26038	keystroke	e	n/a
13.199	0.06	26398	keystroke	n	n/a
13.408	0.075	26816	keystroke	c	n/a
13.5735	0.045	27147	keystroke	h	n/a
13.6325	0.061	27265	keystroke	Key.space	n/a
13.9485	0.105	27897	keystroke	a	n/a
14.084	0.0895	28168	keystroke	v	n/a
14.2185	0.0755	28437	keystroke	i	n/a
14.489	0.135	28978	keystroke	a	n/a
14.594	0.045	29188	keystroke	t	n/a
14.698	0.1055	29396	keystroke	i	n/a
14.728	0.1055	29456	keystroke	o	n/a
14.7585	0.06	29517	keystroke	n	n/a
14.8485	0.074	29697	keystroke	Key.space	n/a
15.103	0.075	30206	keystroke	f	n/a
15.238	0.0605	30476	keystroke	e	n/a
15.3875	0.076	30775	keystroke	d	n/a
15.5235	0.089	31047	keystroke	e	n/a
15.5975	0.091	31195	keystroke	r	n/a
15.703	0.0755	31406	keystroke	a	n/a
15.853	0.076	31706	keystroke	l	n/a
16.063	0.0895	32126	keystroke	Key.enter	n/a
16.162	7.8975	32324	prompt	n/a	interracial battery advance candidates\n
16.9185	0.075	33837	keystroke	i	n/a
16.9635	0.045	33927	keystroke	n	n/a
17.0685	0.089	34137	keystroke	t	n/a
17.143	0.1205	34286	keystroke	e	n/a
17.2335	0.134	34467	keystroke	r	n/a
17.788	0.0755	35576	keystroke	r	n/a
17.998	0.075	35996	keystroke	a	n/a
18.3585	0.075	36717	keystroke	c	n/a
18.4785	0.06	36957	keystroke	i	n/a
18.6725	0.076	37345	keystroke	a	n/a
18.7635	0.12	37527	keystroke	l	n/a
18.8675	0.06	37735	keystroke	Key.space	n/a
19.0635	0.029	38127	keystroke	b	n/a
19.603	0.075	39206	keystroke	a	n/a
19.6795	0.0585	39359	keystroke	t	n/a
19.798	0.105	39596	keystroke	t	n/a
19.918	0.12	39836	keystroke	e	n/a
19.993	0.0895	39986	keystroke	r	n/a
20.2035	0.0605	40407	keystroke	y	n/a
20.593	0.074	41186	keystroke	Key.space	n/a
20.8325	0.15	41665	keystroke	a	n/a
21.0425	0.075	42085	keystroke	d	n/a
21.1935	0.059	42387	keystroke	v	n/a
21.5535	0.0735	43107	keystroke	a	n/a
21.7485	0.06	43497	keystroke	n	n/a
21.8375	0.075	43675	keystroke	c	n/a
21.8825	0.1055	43765	keystroke	e	n/a
22.0175	0.045	44035	keystroke	Key.space	n/a
22.318	0.09	44636	keystroke	c	n/a
22.393	0.15	44786	keystroke	a	n/a
22.6625	0.046	45325	keystroke	n	n/a
22.783	0.09	45566	keystroke	d	n/a
22.9175	0.076	45835	keystroke	i	n/a
23.053	0.06	46106	keystroke	d	n/a
23.3835	0.12	46767	keystroke	a	n/a
23.4875	0.09	46975	keystroke	t	n/a
23.5625	0.121	47125	keystroke	e	n/a
23.7875	0.061	47575	keystroke	s	n/a
23.9675	0.09	47935	keystroke	Key.enter	n/a
24.0705	8.0595	48141	prompt	n/a	often mixing hawaiian mortality\n
24.808	0.075	49616	keystroke	o	n/a
24.9135	0.06	49827	keystroke	f	n/a
25.0785	0.075	50157	keystroke	t	n/a
25.1685	0.0895	50337	keystroke	e	n/a
25.273	0.045	50546	keystroke	n	n/a
25.333	0.09	50666	keystroke	Key.space	n/a
25.602	0.076	51204	keystroke	m	n/a
25.692	0.091	51384	keystroke	i	n/a
25.828	0.03	51656	keystroke	s	n/a
26.308	0.09	52616	keystroke	x	n/a
26.488	0.0905	52976	keystroke	i	n/a
26.518	0.075	53036	keystroke	n	n/a
26.818	0.06	53636	keystroke	Key.backspace	n/a
26.953	0.045	53906	keystroke	Key.backspace	n/a
27.073	0.06	54146	keystroke	Key.backspace	n/a
27.207	0.046	54414	keystroke	Key.backspace	n/a
27.268	0.09	54536	keystroke	x	n/a
27.403	0.09	54806	keystroke	i	n/a
27.448	0.06	54896	keystroke	n	n/a
27.5525	0.0605	55105	keystroke	g	n/a
27.628	0.059	55256	keystroke	Key.space	n/a
27.748	0.0755	55496	keystroke	h	n/a
27.9285	0.089	55857	keystroke	a	n/a
28.348	0.24	56696	keystroke	w	n/a
28.4685	0.1645	56937	keystroke	a	n/a
28.948	0.06	57896	keystroke	i	n/a
29.578	0.045	59156	keystroke	i	n/a
29.728	0.06	59456	keystroke	a	n/a
29.879	0.0745	59758	keystroke	n	n/a
29.983	0.09	59966	keystroke	Key.space	n/a
30.2085	0.089	60417	keystroke	m	n/a
30.2685	0.135	60537	keystroke	o	n/a
30.6725	0.091	61345	keystroke	r	n/a
30.8525	0.0605	61705	keystroke	t	n/a
31.123	0.0755	62246	keystroke	a	n/a
31.453	0.165	62906	keystroke	l	n/a
31.587	0.091	63174	keystroke	i	n/a
31.7235	0.06	63447	keystroke	t	n/a
31.8285	0.044	63657	keystroke	y	n/a
32.0675	0.06	64135	keystroke	Key.enter	n/a
32.1345	7.735	64269	prompt	n/a	therefore barn beer syndicate\n
32.7125	0.061	65425	keystroke	t	n/a
32.8025	0.135	65605	keystroke	e	n/a
32.8475	0.06	65695	keystroke	h	n/a
33.0275	0.105	66055	keystroke	r	n/a
33.2675	0.046	66535	keystroke	e	n/a
33.508	0.0445	67016	keystroke	Key.backspace	n/a
33.6275	0.0595	67255	keystroke	Key.backspace	n/a
33.747	0.0605	67494	keystroke	Key.backspace	n/a
33.8825	0.075	67765	keystroke	Key.backspace	n/a
34.0785	0.044	68157	keystroke	h	n/a
34.138	0.0905	68276	keystroke	e	n/a
34.1975	0.105	68395	keystroke	r	n/a
34.2875	0.061	68575	keystroke	f	n/a
34.453	0.0445	68906	keystroke	o	n/a
34.5585	0.029	69117	keystroke	r	n/a
34.6475	0.075	69295	keystroke	e	n/a
34.9625	0.06	69925	keystroke	Key.backspace	n/a
35.0825	0.075	70165	keystroke	Key.backspace	n/a
35.2025	0.075	70405	keystroke	Key.backspace	n/a
35.3225	0.0745	70645	keystroke	Key.backspace	n/a
35.428	0.1355	70856	keystroke	e	n/a
35.5785	0.0585	71157	keystroke	f	n/a
35.683	0.075	71366	keystroke	o	n/a
35.7735	0.0895	71547	keystroke	r	n/a
35.8485	0.0595	71697	keystroke	e	n/a
35.938	0.06	71876	keystroke	Key.space	n/a
36.568	0.06	73136	keystroke	b	n/a
36.658	0.1355	73316	keystroke	a	n/a
36.823	0.06	73646	keystroke	r	n/a
36.943	0.075	73886	keystroke	n	n/a
37.003	0.09	74006	keystroke	Key.space	n/a
37.168	0.045	74336	keystroke	b	n/a
37.198	0.075	74396	keystroke	e	n/a
37.363	0.135	74726	keystroke	e	n/a
37.468	0.0605	74936	keystroke	r	n/a
37.618	0.075	75236	keystroke	Key.space	n/a
37.8135	0.105	75627	keystroke	s	n/a
37.978	0.06	75956	keystroke	y	n/a
38.158	0.0455	76316	keystroke	n	n/a
38.2935	0.074	76587	keystroke	d	n/a
38.5785	0.06	77157	keystroke	i	n/a
38.7435	0.075	77487	keystroke	c	n/a
38.8035	0.089	77607	keystroke	a	n/a
38.9375	0.075	77875	keystroke	t	n/a
39.433	0.0455	78866	keystroke	e	n/a
39.792	0.075	79584	keystroke	Key.enter	n/a
39.874	8.696	79748	prompt	n/a	trial mercury owen counsel\n
40.6335	0.03	81267	keystroke	t	n/a
40.7835	0.045	81567	keystroke	i	n/a
40.858	0.075	81716	keystroke	r	n/a
41.098	0.0745	82196	keystroke	Key.backspace	n/a
41.203	0.075	82406	keystroke	Key.backspace	n/a
41.323	0.06	82646	keystroke	r	n/a
41.398	0.045	82796	keystroke	i	n/a
41.593	0.015	83186	keystroke	a	n/a
41.6235	0.0745	83247	keystroke	l	n/a
41.653	0.09	83306	keystroke	Key.space	n/a
41.863	0.03	83726	keystroke	m	n/a
42.508	0.1045	85016	keystroke	e	n/a
42.5975	0.03	85195	keystroke	r	n/a
42.7175	0.105	85435	keystroke	c	n/a
42.8675	0.06	85735	keystroke	y	n/a
43.318	0.045	86636	keystroke	Key.backspace	n/a
43.469	0.044	86938	keystroke	r	n/a
43.543	0.0605	87086	keystroke	u	n/a
43.933	0.06	87866	keystroke	Key.backspace	n/a
44.053	0.0745	88106	keystroke	Key.backspace	n/a
44.233	0.045	88466	keystroke	u	n/a
44.353	0.045	88706	keystroke	r	n/a
44.473	0.0155	88946	keystroke	y	n/a
44.503	0.03	89006	keystroke	Key.space	n/a
44.6525	0.03	89305	keystroke	Key.space	n/a
45.2975	0.045	90595	keystroke	Key.backspace	n/a
45.5825	0.09	91165	keystroke	o	n/a
45.7325	0.075	91465	keystroke	w	n/a
45.8675	0.09	91735	keystroke	n	n/a
45.9425	0.0445	91885	keystroke	Key.space	n/a
46.1075	0.06	92215	keystroke	c	n/a
46.2125	0.0905	92425	keystroke	o	n/a
46.2725	0.0455	92545	keystroke	u	n/a
46.528	0.075	93056	keystroke	Key.backspace	n/a
46.6475	0.06	93295	keystroke	Key.backspace	n/a
46.7675	0.06	93535	keystroke	Key.backspace	n/a
46.9025	0.075	93805	keystroke	Key.backspace	n/a
47.0225	0.09	94045	keystroke	Key.backspace	n/a
47.1575	0.045	94315	keystroke	e	n/a
47.2635	0.0595	94527	keystroke	n	n/a
47.3075	0.0605	94615	keystroke	Key.space	n/a
47.4275	0.0905	94855	keystroke	c	n/a
47.608	0.06	95216	keystroke	o	n/a
47.637	0.06	95274	keystroke	u	n/a
47.7885	0.0735	95577	keystroke	n	n/a
47.9825	0.121	95965	keystroke	s	n/a
48.1325	0.105	96265	keystroke	e	n/a
48.253	0.09	96506	keystroke	l	n/a
48.5075	0.06	97015	keystroke	Key.enter	n/a
48.5755	8.2885	97151	prompt	n/a	explaining authorities attorney bookmarks\n
49.437	0.0765	98874	keystroke	e	n/a
49.618	0.21	99236	keystroke	x	n/a
49.7535	0.105	99507	keystroke	p	n/a
50.308	0.0755	100616	keystroke	l	n/a
50.488	0.12	100976	keystroke	a	n/a
50.638	0.0905	101276	keystroke	i	n/a
50.713	0.09	101426	keystroke	n	n/a
50.818	0.105	101636	keystroke	i	n/a
50.907	0.061	101814	keystroke	n	n/a
50.998	0.0755	101996	keystroke	g	n/a
51.088	0.074	102176	keystroke	Key.space	n/a
51.883	0.105	103766	keystroke	a	n/a
52.047	0.0615	104094	keystroke	u	n/a
52.243	0.03	104486	keystroke	t	n/a
52.273	0.09	104546	keystroke	h	n/a
52.348	0.09	104696	keystroke	o	n/a
52.573	0.045	105146	keystroke	r	n/a
52.603	0.1045	105206	keystroke	i	n/a
52.7675	0.045	105535	keystroke	t	n/a
53.203	0.0605	106406	keystroke	i	n/a
53.368	0.105	106736	keystroke	e	n/a
53.563	0.12	107126	keystroke	s	n/a
53.667	0.046	107334	keystroke	Key.space	n/a
53.832	0.091	107664	keystroke	a	n/a
53.998	0.09	107996	keystroke	t	n/a
54.148	0.105	108296	keystroke	t	n/a
54.238	0.09	108476	keystroke	o	n/a
54.358	0.075	108716	keystroke	r	n/a
54.493	0.045	108986	keystroke	n	n/a
54.523	0.09	109046	keystroke	e	n/a
54.673	0.075	109346	keystroke	y	n/a
54.733	0.059	109466	keystroke	Key.space	n/a
54.868	0.03	109736	keystroke	b	n/a
55.003	0.09	110006	keystroke	o	n/a
55.168	0.12	110336	keystroke	o	n/a
55.243	0.105	110486	keystroke	k	n/a
55.4685	0.0895	110937	keystroke	m	n/a
55.6485	0.0745	111297	keystroke	a	n/a
55.678	0.06	111356	keystroke	r	n/a
55.708	0.075	111416	keystroke	k	n/a
55.873	0.075	111746	keystroke	e	n/a
56.038	0.0455	112076	keystroke	s	n/a
56.2775	0.06	112555	keystroke	Key.backspace	n/a
56.3825	0.0895	112765	keystroke	Key.backspace	n/a
56.457	0.0755	112914	keystroke	s	n/a
56.607	0.0755	113214	keystroke	Key.space	n/a
56.833	0.03	113666	keystroke	Key.enter	n/a
56.8765	3.678	113753	prompt	n/a	rest cups who'd scout\n
57.5985	0.105	115197	keystroke	r	n/a
57.672	0.1215	115344	keystroke	e	n/a
57.807	0.1365	115614	keystroke	s	n/a
57.9285	0.06	115857	keystroke	t	n/a
58.078	0.06	116156	keystroke	Key.space	n/a
58.2585	0.06	116517	keystroke	c	n/a
58.3635	0.075	116727	keystroke	u	n/a
58.4685	0.105	116937	keystroke	p	n/a
58.6625	0.076	117325	keystroke	s	n/a
58.7675	0.045	117535	keystroke	Key.space	n/a
58.9325	0.09	117865	keystroke	w	n/a
59.0835	0.06	118167	keystroke	h	n/a
59.1285	0.074	118257	keystroke	o	n/a
59.293	0.0595	118586	keystroke	'	n/a
59.428	0.06	118856	keystroke	d	n/a
59.5175	0.06	119035	keystroke	Key.space	n/a
59.5935	0.15	119187	keystroke	s	n/a
59.6835	0.09	119367	keystroke	c	n/a
59.8625	0.06	119725	keystroke	o	n/a
60.057	0.061	120114	keystroke	u	n/a
60.222	0.046	120444	keystroke	t	n/a
60.493	0.059	120986	keystroke	Key.enter	n/a
60.558	6.7315	121116	prompt	n/a	facial opponents adapters browser\n
61.243	0.045	122486	keystroke	f	n/a
61.3025	0.0605	122605	keystroke	a	n/a
61.393	0.09	122786	keystroke	c	n/a
61.5425	0.06	123085	keystroke	i	n/a
61.6475	0.06	123295	keystroke	a	n/a
61.7675	0.106	123535	keystroke	l	n/a
61.828	0.075	123656	keystroke	Key.space	n/a
62.083	0.061	124166	keystroke	o	n/a
62.2475	0.076	124495	keystroke	p	n/a
62.443	0.075	124886	keystroke	p	n/a
62.488	0.149	124976	keystroke	o	n/a
62.728	0.0755	125456	keystroke	n	n/a
62.893	0.06	125786	keystroke	e	n/a
63.043	0.045	126086	keystroke	n	n/a
63.118	0.074	126236	keystroke	t	n/a
63.2235	0.104	126447	keystroke	s	n/a
63.358	0.059	126716	keystroke	Key.space	n/a
63.703	0.06	127406	keystroke	a	n/a
63.793	0.0905	127586	keystroke	d	n/a
64.7975	0.106	129595	keystroke	a	n/a
65.0235	0.075	130047	keystroke	p	n/a
65.1885	0.06	130377	keystroke	t	n/a
65.2775	0.1355	130555	keystroke	e	n/a
65.368	0.1945	130736	keystroke	r	n/a
65.5175	0.165	131035	keystroke	s	n/a
65.7125	0.0605	131425	keystroke	Key.space	n/a
66.028	0.1045	132056	keystroke	b	n/a
66.2675	0.06	132535	keystroke	r	n/a
66.4035	0.074	132807	keystroke	o	n/a
66.4925	0.075	132985	keystroke	w	n/a
66.763	0.0895	133526	keystroke	s	n/a
66.9725	0.075	133945	keystroke	e	n/a
67.003	0.09	134006	keystroke	r	n/a
67.2275	0.0605	134455	keystroke	Key.enter	n/a
67.2935	5.171	134587	prompt	n/a	feelings monster movers cuba\n
67.843	0.0745	135686	keystroke	f	n/a
67.978	0.0745	135956	keystroke	e	n/a
68.1135	0.0895	136227	keystroke	e	n/a
68.233	0.105	136466	keystroke	l	n/a
68.278	0.105	136556	keystroke	i	n/a
68.323	0.105	136646	keystroke	n	n/a
68.443	0.06	136886	keystroke	g	n/a
68.519	0.0445	137038	keystroke	s	n/a
69.073	0.059	138146	keystroke	Key.space	n/a
69.3585	0.0595	138717	keystroke	m	n/a
69.4335	0.1645	138867	keystroke	o	n/a
69.5675	0.075	139135	keystroke	n	n/a
70.108	0.06	140216	keystroke	s	n/a
70.348	0.045	140696	keystroke	t	n/a
70.423	0.1345	140846	keystroke	e	n/a
70.528	0.059	141056	keystroke	r	n/a
70.632	0.061	141264	keystroke	Key.space	n/a
70.8425	0.0755	141685	keystroke	m	n/a
70.933	0.09	141866	keystroke	o	n/a
71.068	0.06	142136	keystroke	v	n/a
71.188	0.1055	142376	keystroke	e	n/a
71.278	0.15	142556	keystroke	r	n/a
71.413	0.1205	142826	keystroke	s	n/a
71.593	0.06	143186	keystroke	Key.space	n/a
71.8335	0.089	143667	keystroke	c	n/a
71.9835	0.0745	143967	keystroke	u	n/a
72.118	0.075	144236	keystroke	b	n/a
72.2075	0.0905	144415	keystroke	a	n/a
72.418	0.045	144836	keystroke	Key.enter	n/a
72.469	6.9255	144938	prompt	n/a	reset properties debug circumstances\n
73.1385	0.075	146277	keystroke	r	n/a
73.183	0.09	146366	keystroke	e	n/a
73.288	0.1355	146576	keystroke	s	n/a
73.454	0.104	146908	keystroke	e	n/a
73.663	0.075	147326	keystroke	t	n/a
73.7975	0.0905	147595	keystroke	Key.space	n/a
73.873	0.105	147746	keystroke	p	n/a
74.1135	0.075	148227	keystroke	r	n/a
74.2935	0.119	148587	keystroke	o	n/a
74.3675	0.12	148735	keystroke	p	n/a
74.5475	0.121	149095	keystroke	e	n/a
74.6375	0.12	149275	keystroke	r	n/a
74.728	0.0605	149456	keystroke	t	n/a
74.8635	0.06	149727	keystroke	i	n/a
74.9245	0.0885	149849	keystroke	e	n/a
75.073	0.09	150146	keystroke	s	n/a
75.222	0.09	150444	keystroke	Key.space	n/a
75.703	0.12	151406	keystroke	d	n/a
75.779	0.089	151558	keystroke	e	n/a
75.9575	0.076	151915	keystroke	b	n/a
75.987	0.0605	151974	keystroke	u	n/a
76.363	0.0605	152726	keystroke	g	n/a
76.5125	0.045	153025	keystroke	Key.space	n/a
77.0375	0.045	154075	keystroke	c	n/a
77.098	0.0145	154196	keystroke	i	n/a
77.668	0.075	155336	keystroke	r	n/a
77.863	0.1205	155726	keystroke	c	n/a
78.073	0.0455	156146	keystroke	u	n/a
78.2525	0.09	156505	keystroke	m	n/a
78.5225	0.1205	157045	keystroke	s	n/a
78.6135	0.075	157227	keystroke	t	n/a
78.7035	0.09	157407	keystroke	a	n/a
78.8385	0.06	157677	keystroke	n	n/a
78.9135	0.089	157827	keystroke	c	n/a
78.9885	0.09	157977	keystroke	e	n/a
79.1235	0.105	158247	keystroke	s	n/a
79.3325	0.06	158665	keystroke	Key.enter	n/a
79.4065	5.928	158813	prompt	n/a	proposals cologne tony trademarks\n
80.1585	0.075	160317	keystroke	p	n/a
80.3525	0.03	160705	keystroke	r	n/a
80.3985	0.105	160797	keystroke	o	n/a
80.4735	0.1345	160947	keystroke	p	n/a
80.5935	0.0895	161187	keystroke	o	n/a
80.728	0.1205	161456	keystroke	s	n/a
80.863	0.075	161726	keystroke	a	n/a
81.013	0.06	162026	keystroke	l	n/a
81.118	0.0755	162236	keystroke	s	n/a
81.2375	0.0755	162475	keystroke	Key.space	n/a
81.493	0.045	162986	keystroke	c	n/a
81.553	0.06	163106	keystroke	o	n/a
81.718	0.09	163436	keystroke	l	n/a
81.928	0.1055	163856	keystroke	o	n/a
82.198	0.03	164396	keystroke	g	n/a
82.318	0.0605	164636	keystroke	n	n/a
82.543	0.075	165086	keystroke	e	n/a
82.663	0.06	165326	keystroke	Key.space	n/a
82.9175	0.0605	165835	keystroke	t	n/a
83.0075	0.105	166015	keystroke	o	n/a
83.0975	0.06	166195	keystroke	n	n/a
83.308	0.0605	166616	keystroke	e	n/a
83.638	0.0595	167276	keystroke	Key.backspace	n/a
83.8185	0.059	167637	keystroke	y	n/a
83.8625	0.0605	167725	keystroke	Key.space	n/a
84.028	0.075	168056	keystroke	t	n/a
84.148	0.104	168296	keystroke	r	n/a
84.237	0.076	168474	keystroke	a	n/a
84.358	0.149	168716	keystroke	d	n/a
84.478	0.09	168956	keystroke	e	n/a
84.628	0.074	169256	keystroke	m	n/a
84.763	0.09	169526	keystroke	a	n/a
84.823	0.059	169646	keystroke	r	n/a
84.913	0.074	169826	keystroke	k	n/a
85.048	0.104	170096	keystroke	s	n/a
85.2575	0.075	170515	keystroke	Key.enter	n/a
85.3415	5.663	170683	prompt	n/a	terrorist climate charles villas\n
85.903	0.135	171806	keystroke	t	n/a
86.098	0.06	172196	keystroke	e	n/a
86.143	0.03	172286	keystroke	r	n/a
86.218	0.075	172436	keystroke	r	n/a
86.353	0.06	172706	keystroke	o	n/a
86.5335	0.0445	173067	keystroke	r	n/a
86.6085	0.0595	173217	keystroke	i	n/a
86.743	0.135	173486	keystroke	s	n/a
86.863	0.0295	173726	keystroke	t	n/a
87.0125	0.06	174025	keystroke	Key.space	n/a
87.2535	0.0745	174507	keystroke	c	n/a
87.388	0.0905	174776	keystroke	l	n/a
87.4635	0.09	174927	keystroke	i	n/a
87.628	0.06	175256	keystroke	m	n/a
87.958	0.1205	175916	keystroke	a	n/a
88.093	0.045	176186	keystroke	t	n/a
88.2875	0.045	176575	keystroke	e	n/a
88.6775	0.075	177355	keystroke	Key.space	n/a
88.7975	0.06	177595	keystroke	c	n/a
88.9925	0.045	177985	keystroke	h	n/a
89.1125	0.0905	178225	keystroke	a	n/a
89.1875	0.0605	178375	keystroke	r	n/a
89.3225	0.06	178645	keystroke	l	n/a
89.4425	0.091	178885	keystroke	e	n/a
89.668	0.06	179336	keystroke	s	n/a
89.803	0.06	179606	keystroke	Key.space	n/a
89.983	0.075	179966	keystroke	v	n/a
90.117	0.076	180234	keystroke	i	n/a
90.328	0.06	180656	keystroke	l	n/a
90.4335	0.09	180867	keystroke	l	n/a
90.553	0.0905	181106	keystroke	a	n/a
90.7035	0.09	181407	keystroke	s	n/a
90.9275	0.075	181855	keystroke	Key.enter	n/a
91.01	5.514	182020	prompt	n/a	omissions shortly delays lending\n
91.828	0.1055	183656	keystroke	o	n/a
91.9035	0.09	183807	keystroke	m	n/a
92.068	0.0755	184136	keystroke	i	n/a
92.203	0.075	184406	keystroke	s	n/a
92.3085	0.104	184617	keystroke	s	n/a
92.4275	0.09	184855	keystroke	i	n/a
92.4435	0.165	184887	keystroke	o	n/a
92.488	0.0595	184976	keystroke	n	n/a
92.5935	0.03	185187	keystroke	s	n/a
93.223	0.0445	186446	keystroke	Key.space	n/a
93.4185	0.06	186837	keystroke	s	n/a
93.5085	0.075	187017	keystroke	h	n/a
93.5535	0.0895	187107	keystroke	o	n/a
93.6885	0.045	187377	keystroke	r	n/a
93.808	0.0755	187616	keystroke	t	n/a
93.928	0.0445	187856	keystroke	l	n/a
93.9735	0.06	187947	keystroke	y	n/a
94.048	0.045	188096	keystroke	Key.space	n/a
94.213	0.105	188426	keystroke	d	n/a
94.288	0.09	188576	keystroke	e	n/a
94.453	0.06	188906	keystroke	l	n/a
94.588	0.075	189176	keystroke	a	n/a
95.038	0.045	190076	keystroke	y	n/a
95.188	0.09	190376	keystroke	s	n/a
95.3375	0.0445	190675	keystroke	Key.space	n/a
95.563	0.0605	191126	keystroke	l	n/a
95.712	0.061	191424	keystroke	e	n/a
95.863	0.045	191726	keystroke	n	n/a
95.952	0.0605	191904	keystroke	d	n/a
96.0425	0.091	192085	keystroke	i	n/a
96.0875	0.09	192175	keystroke	n	n/a
96.1925	0.06	192385	keystroke	g	n/a
96.478	0.044	192956	keystroke	Key.enter	n/a
96.538	7.7435	193076	prompt	n/a	assault wisconsin sent chorus\n
97.4825	0.0455	194965	keystroke	a	n/a
97.5425	0.075	195085	keystroke	s	n/a
97.708	0.0595	195416	keystroke	s	n/a
97.992	0.046	195984	keystroke	u	n/a
98.263	0.06	196526	keystroke	Key.backspace	n/a
98.3685	0.104	196737	keystroke	a	n/a
98.5325	0.0455	197065	keystroke	u	n/a
98.5925	0.0605	197185	keystroke	l	n/a
98.7125	0.06	197425	keystroke	t	n/a
98.8625	0.0605	197725	keystroke	Key.space	n/a
99.0285	0.045	198057	keystroke	w	n/a
99.1035	0.0595	198207	keystroke	i	n/a
99.2085	0.164	198417	keystroke	s	n/a
99.4025	0.0455	198805	keystroke	c	n/a
99.598	0.09	199196	keystroke	o	n/a
99.6575	0.075	199315	keystroke	n	n/a
100.0325	0.0455	200065	keystroke	s	n/a
100.1385	0.0745	200277	keystroke	i	n/a
100.198	0.0595	200396	keystroke	n	n/a
100.378	0.0595	200756	keystroke	Key.space	n/a
100.663	0.06	201326	keystroke	s	n/a
100.7975	0.075	201595	keystroke	e	n/a
100.918	0.075	201836	keystroke	n	n/a
101.0385	0.074	202077	keystroke	t	n/a
101.173	0.0595	202346	keystroke	Key.space	n/a
102.208	0.045	204416	keystroke	c	n/a
102.583	0.06	205166	keystroke	h	n/a
102.6585	0.0745	205317	keystroke	o	n/a
102.853	0.045	205706	keystroke	u	n/a
102.973	0.045	205946	keystroke	r	n/a
103.258	0.06	206516	keystroke	s	n/a
103.4975	0.0455	206995	keystroke	Key.backspace	n/a
103.6175	0.0755	207235	keystroke	Key.backspace	n/a
103.7525	0.09	207505	keystroke	Key.backspace	n/a
103.9035	0.0445	207807	keystroke	r	n/a
103.963	0.06	207926	keystroke	u	n/a
104.038	0.09	208076	keystroke	s	n/a
104.2175	0.0605	208435	keystroke	Key.enter	n/a
104.2955	7.874	208591	prompt	n/a	beauty flood portfolio ipaq\n
104.938	0.0605	209876	keystroke	b	n/a
104.983	0.15	209966	keystroke	e	n/a
105.118	0.12	210236	keystroke	a	n/a
105.208	0.06	210416	keystroke	u	n/a
105.342	0.061	210684	keystroke	t	n/a
106.138	0.03	212276	keystroke	y	n/a
106.198	0.06	212396	keystroke	Key.space	n/a
106.438	0.0455	212876	keystroke	f	n/a
106.543	0.06	213086	keystroke	l	n/a
106.7085	0.2095	213417	keystroke	o	n/a
106.9035	0.06	213807	keystroke	d	n/a
107.368	0.0445	214736	keystroke	Key.backspace	n/a
107.5475	0.061	215095	keystroke	o	n/a
107.6825	0.061	215365	keystroke	d	n/a
107.7875	0.06	215575	keystroke	Key.space	n/a
107.8485	0.1045	215697	keystroke	p	n/a
107.9825	0.1205	215965	keystroke	o	n/a
108.3275	0.0605	216655	keystroke	t	n/a
108.823	0.045	217646	keystroke	Key.backspace	n/a
108.913	0.03	217826	keystroke	r	n/a
108.9735	0.1195	217947	keystroke	t	n/a
109.213	0.105	218426	keystroke	f	n/a
109.3485	0.0745	218697	keystroke	o	n/a
109.648	0.18	219296	keystroke	l	n/a
109.783	0.1495	219566	keystroke	i	n/a
110.0675	0.105	220135	keystroke	o	n/a
110.3225	0.075	220645	keystroke	Key.space	n/a
110.848	0.075	221696	keystroke	i	n/a
111.2235	0.0445	222447	keystroke	p	n/a
111.628	0.09	223256	keystroke	a	n/a
111.793	0.09	223586	keystroke	q	n/a
112.1075	0.06	224215	keystroke	Key.enter	n/a
112.175	6.3845	224350	prompt	n/a	webmasters detail methods bottles\n
112.843	0.075	225686	keystroke	w	n/a
112.978	0.105	225956	keystroke	e	n/a
113.113	0.075	226226	keystroke	b	n/a
113.428	0.0755	226856	keystroke	m	n/a
113.5925	0.0615	227185	keystroke	a	n/a
113.639	0.1195	227278	keystroke	s	n/a
113.713	0.076	227426	keystroke	t	n/a
113.818	0.1195	227636	keystroke	e	n/a
113.909	0.1495	227818	keystroke	r	n/a
114.028	0.1205	228056	keystroke	s	n/a
114.178	0.045	228356	keystroke	Key.space	n/a
114.778	0.119	229556	keystroke	d	n/a
114.868	0.105	229736	keystroke	e	n/a
115.108	0.075	230216	keystroke	t	n/a
115.198	0.075	230396	keystroke	a	n/a
115.363	0.1055	230726	keystroke	i	n/a
115.438	0.1205	230876	keystroke	l	n/a
115.5735	0.089	231147	keystroke	Key.space	n/a
115.8125	0.045	231625	keystroke	m	n/a
115.9175	0.09	231835	keystroke	e	n/a
116.023	0.03	232046	keystroke	t	n/a
116.1125	0.061	232225	keystroke	h	n/a
116.1575	0.0755	232315	keystroke	o	n/a
116.2335	0.105	232467	keystroke	d	n/a
116.3085	0.0895	232617	keystroke	s	n/a
116.413	0.045	232826	keystroke	Key.space	n/a
116.653	0.045	233306	keystroke	b	n/a
116.743	0.06	233486	keystroke	o	n/a
116.9685	0.0605	233937	keystroke	t	n/a
117.163	0.06	234326	keystroke	l	n/a
117.283	0.105	234566	keystroke	e	n/a
117.733	0.045	235466	keystroke	Key.backspace	n/a
117.838	0.0745	235676	keystroke	Key.backspace	n/a
118.0025	0.045	236005	keystroke	t	n/a
118.093	0.045	236186	keystroke	l	n/a
118.168	0.105	236336	keystroke	e	n/a
118.348	0.06	236696	keystroke	s	n/a
118.498	0.06	236996	keystroke	Key.enter	n/a
118.566	7.284	237132	prompt	n/a	seems particles trackbacks fell\n
119.143	0.0605	238286	keystroke	s	n/a
119.383	0.045	238766	keystroke	e	n/a
119.503	0.0455	239006	keystroke	e	n/a
119.6535	0.0455	239307	keystroke	m	n/a
119.7425	0.076	239485	keystroke	s	n/a
119.893	0.0445	239786	keystroke	Key.space	n/a
120.088	0.06	240176	keystroke	p	n/a
120.1935	0.074	240387	keystroke	a	n/a
120.2525	0.045	240505	keystroke	r	n/a
120.493	0.06	240986	keystroke	i	n/a
120.793	0.0605	241586	keystroke	Key.backspace	n/a
120.8825	0.061	241765	keystroke	t	n/a
120.9735	0.0745	241947	keystroke	i	n/a
121.093	0.0755	242186	keystroke	c	n/a
121.153	0.09	242306	keystroke	l	n/a
121.303	0.075	242606	keystroke	e	n/a
121.453	0.075	242906	keystroke	s	n/a
121.573	0.045	243146	keystroke	Key.space	n/a
121.813	0.075	243626	keystroke	t	n/a
121.978	0.09	243956	keystroke	r	n/a
122.0835	0.1345	244167	keystroke	a	n/a
122.203	0.0745	244406	keystroke	c	n/a
122.533	0.075	245066	keystroke	k	n/a
122.5925	0.061	245185	keystroke	b	n/a
123.4035	0.105	246807	keystroke	a	n/a
123.4485	0.09	246897	keystroke	c	n/a
123.5825	0.0755	247165	keystroke	k	n/a
123.673	0.075	247346	keystroke	s	n/a
123.883	0.045	247766	keystroke	Key.space	n/a
124.4675	0.105	248935	keystroke	f	n/a
124.5285	0.1205	249057	keystroke	e	n/a
124.7075	0.076	249415	keystroke	e	n/a
124.7985	0.0745	249597	keystroke	l	n/a
125.098	0.06	250196	keystroke	Key.backspace	n/a
125.218	0.074	250436	keystroke	Key.backspace	n/a
125.443	0.06	250886	keystroke	l	n/a
125.579	0.0895	251158	keystroke	l	n/a
125.758	0.089	251516	keystroke	Key.enter	n/a
125.856	5.1985	251712	prompt	n/a	custody jackson mode phrases\n
126.583	0.045	253166	keystroke	c	n/a
126.643	0.06	253286	keystroke	u	n/a
126.733	0.15	253466	keystroke	s	n/a
126.823	0.075	253646	keystroke	t	n/a
126.928	0.075	253856	keystroke	o	n/a
127.078	0.075	254156	keystroke	d	n/a
127.198	0.0605	254396	keystroke	y	n/a
127.273	0.06	254546	keystroke	Key.space	n/a
127.618	0.06	255236	keystroke	j	n/a
127.739	0.1195	255478	keystroke	a	n/a
127.8285	0.075	255657	keystroke	c	n/a
127.9485	0.06	255897	keystroke	k	n/a
128.0535	0.075	256107	keystroke	s	n/a
128.1885	0.09	256377	keystroke	o	n/a
128.2475	0.076	256495	keystroke	n	n/a
128.3375	0.046	256675	keystroke	Key.space	n/a
128.5935	0.09	257187	keystroke	m	n/a
128.6985	0.044	257397	keystroke	o	n/a
128.7885	0.12	257577	keystroke	d	n/a
128.8785	0.075	257757	keystroke	e	n/a
128.9985	0.059	257997	keystroke	Key.space	n/a
129.1485	0.045	258297	keystroke	p	n/a
129.2685	0.06	258537	keystroke	h	n/a
129.4485	0.0595	258897	keystroke	r	n/a
129.584	0.0145	259168	keystroke	q	n/a
129.6585	0.06	259317	keystroke	s	n/a
130.108	0.0595	260216	keystroke	Key.backspace	n/a
130.2275	0.075	260455	keystroke	Key.backspace	n/a
130.3175	0.075	260635	keystroke	a	n/a
130.378	0.0605	260756	keystroke	s	n/a
130.5125	0.09	261025	keystroke	e	n/a
130.7085	0.044	261417	keystroke	s	n/a
130.9925	0.06	261985	keystroke	Key.enter	n/a
131.0585	6.8695	262117	prompt	n/a	circular select norway widespread\n
131.923	0.0455	263846	keystroke	c	n/a
132.013	0.0745	264026	keystroke	i	n/a
132.118	0.0595	264236	keystroke	r	n/a
132.298	0.1045	264596	keystroke	c	n/a
132.4185	0.06	264837	keystroke	u	n/a
132.5235	0.045	265047	keystroke	l	n/a
132.673	0.12	265346	keystroke	a	n/a
132.7475	0.0605	265495	keystroke	r	n/a
132.838	0.0595	265676	keystroke	Key.space	n/a
133.183	0.06	266366	keystroke	s	n/a
133.3485	0.0895	266697	keystroke	e	n/a
133.543	0.06	267086	keystroke	l	n/a
133.6175	0.136	267235	keystroke	e	n/a
133.738	0.0445	267476	keystroke	c	n/a
133.9035	0.0895	267807	keystroke	t	n/a
134.0975	0.045	268195	keystroke	Key.space	n/a
134.2925	0.09	268585	keystroke	n	n/a
134.368	0.06	268736	keystroke	o	n/a
134.4885	0.105	268977	keystroke	r	n/a
134.608	0.015	269216	keystroke	r	n/a
134.6835	0.194	269367	keystroke	w	n/a
134.8635	0.089	269727	keystroke	a	n/a
135.1025	0.06	270205	keystroke	Key.backspace	n/a
135.2225	0.06	270445	keystroke	Key.backspace	n/a
135.3275	0.0605	270655	keystroke	Key.backspace	n/a
135.4025	0.136	270805	keystroke	w	n/a
135.4785	0.09	270957	keystroke	a	n/a
135.5835	0.06	271167	keystroke	y	n/a
135.688	0.0745	271376	keystroke	Key.space	n/a
136.2585	0.074	272517	keystroke	w	n/a
136.4085	0.045	272817	keystroke	i	n/a
136.4685	0.1655	272937	keystroke	d	n/a
136.6635	0.089	273327	keystroke	e	n/a
136.8585	0.089	273717	keystroke	s	n/a
137.0385	0.075	274077	keystroke	p	n/a
137.1875	0.106	274375	keystroke	r	n/a
137.2485	0.104	274497	keystroke	e	n/a
137.3675	0.12	274735	keystroke	a	n/a
137.4735	0.074	274947	keystroke	d	n/a
137.833	0.0895	275666	keystroke	Key.enter	n/a
137.932	5.633	275864	prompt	n/a	sucking soul grace deeper\n
138.5985	0.06	277197	keystroke	s	n/a
138.673	0.045	277346	keystroke	u	n/a
138.778	0.075	277556	keystroke	c	n/a
138.898	0.105	277796	keystroke	k	n/a
139.063	0.0755	278126	keystroke	i	n/a
139.078	0.0755	278156	keystroke	n	n/a
139.2135	0.0595	278427	keystroke	g	n/a
139.288	0.06	278576	keystroke	Key.space	n/a
139.4535	0.0595	278907	keystroke	s	n/a
139.528	0.09	279056	keystroke	o	n/a
139.589	0.059	279178	keystroke	u	n/a
139.828	0.075	279656	keystroke	l	n/a
140.113	0.03	280226	keystroke	Key.space	n/a
140.3235	0.0745	280647	keystroke	g	n/a
140.458	0.075	280916	keystroke	r	n/a
140.518	0.09	281036	keystroke	a	n/a
140.653	0.09	281306	keystroke	c	n/a
140.744	0.074	281488	keystroke	e	n/a
140.893	0.045	281786	keystroke	Key.space	n/a
141.508	0.135	283016	keystroke	d	n/a
141.628	0.135	283256	keystroke	e	n/a
141.838	0.0595	283676	keystroke	e	n/a
141.943	0.09	283886	keystroke	p	n/a
142.213	0.09	284426	keystroke	e	n/a
142.258	0.1045	284516	keystroke	r	n/a
143.518	0.045	287036	keystroke	Key.enter	n/a
143.569	4.3155	287138	prompt	n/a	shopper printer outer eastern\n
144.133	0.06	288266	keystroke	s	n/a
144.253	0.0455	288506	keystroke	h	n/a
144.3275	0.0455	288655	keystroke	o	n/a
144.463	0.075	288926	keystroke	p	n/a
144.6285	0.0745	289257	keystroke	p	n/a
144.763	0.075	289526	keystroke	e	n/a
144.8235	0.0595	289647	keystroke	r	n/a
144.9425	0.0605	289885	keystroke	Key.space	n/a
145.138	0.105	290276	keystroke	p	n/a
145.303	0.06	290606	keystroke	r	n/a
145.408	0.09	290816	keystroke	i	n/a
145.4525	0.09	290905	keystroke	n	n/a
145.5435	0.0295	291087	keystroke	t	n/a
145.603	0.12	291206	keystroke	e	n/a
145.678	0.1055	291356	keystroke	r	n/a
146.0525	0.09	292105	keystroke	Key.space	n/a
146.2185	0.105	292437	keystroke	o	n/a
146.293	0.0745	292586	keystroke	u	n/a
146.3825	0.06	292765	keystroke	t	n/a
146.638	0.09	293276	keystroke	e	n/a
146.698	0.09	293396	keystroke	r	n/a
146.803	0.0745	293606	keystroke	Key.space	n/a
146.9985	0.1345	293997	keystroke	e	n/a
147.1035	0.15	294207	keystroke	a	n/a
147.223	0.135	294446	keystroke	s	n/a
147.3435	0.0595	294687	keystroke	t	n/a
147.418	0.15	294836	keystroke	e	n/a
147.523	0.075	295046	keystroke	r	n/a
147.598	0.045	295196	keystroke	n	n/a
147.823	0.06	295646	keystroke	Key.enter	n/a
147.889	6.791	295778	prompt	n/a	blacks differently assure amber\n
148.619	0.089	297238	keystroke	b	n/a
148.828	0.06	297656	keystroke	l	n/a
148.948	0.105	297896	keystroke	a	n/a
149.023	0.06	298046	keystroke	c	n/a
149.0975	0.0905	298195	keystroke	k	n/a
149.233	0.09	298466	keystroke	s	n/a
149.368	0.0595	298736	keystroke	Key.space	n/a
149.5325	0.045	299065	keystroke	d	n/a
149.608	0.06	299216	keystroke	i	n/a
149.713	0.06	299426	keystroke	f	n/a
149.893	0.165	299786	keystroke	f	n/a
149.968	0.2555	299936	keystroke	e	n/a
150.0585	0.0145	300117	keystroke	r	n/a
150.283	0.045	300566	keystroke	n	n/a
150.4175	0.0605	300835	keystroke	t	n/a
150.568	0.06	301136	keystroke	l	n/a
150.643	0.046	301286	keystroke	y	n/a
150.7025	0.0455	301405	keystroke	Key.space	n/a
151.1835	0.0145	302367	keystroke	Key.backspace	n/a
151.258	0.045	302516	keystroke	Key.backspace	n/a
151.4085	0.015	302817	keystroke	Key.backspace	n/a
151.468	0.0455	302936	keystroke	Key.backspace	n/a
151.5885	0.075	303177	keystroke	Key.backspace	n/a
151.813	0.0455	303626	keystroke	e	n/a
151.9635	0.03	303927	keystroke	n	n/a
152.159	0.044	304318	keystroke	t	n/a
152.174	0.06	304348	keystroke	l	n/a
152.218	0.06	304436	keystroke	y	n/a
152.893	0.0455	305786	keystroke	Key.space	n/a
153.058	0.06	306116	keystroke	a	n/a
153.0735	0.0895	306147	keystroke	s	n/a
153.2385	0.0745	306477	keystroke	s	n/a
153.448	0.06	306896	keystroke	u	n/a
153.718	0.075	307436	keystroke	r	n/a
153.7775	0.06	307555	keystroke	e	n/a
153.8975	0.0455	307795	keystroke	Key.space	n/a
154.0335	0.0595	308067	keystroke	a	n/a
154.138	0.06	308276	keystroke	m	n/a
154.228	0.075	308456	keystroke	b	n/a
154.2875	0.1055	308575	keystroke	e	n/a
154.378	0.0905	308756	keystroke	r	n/a
154.603	0.0745	309206	keystroke	Key.enter	n/a
154.683	8.098	309366	prompt	n/a	nomination disappointed plans meditation\n
155.4125	0.06	310825	keystroke	n	n/a
155.4575	0.0905	310915	keystroke	o	n/a
155.608	0.0755	311216	keystroke	m	n/a
155.894	0.06	311788	keystroke	i	n/a
155.909	0.0895	311818	keystroke	n	n/a
156.134	0.074	312268	keystroke	a	n/a
156.193	0.045	312386	keystroke	t	n/a
156.298	0.09	312596	keystroke	i	n/a
156.328	0.075	312656	keystroke	o	n/a
156.358	0.0605	312716	keystroke	n	n/a
156.9575	0.061	313915	keystroke	Key.space	n/a
157.1235	0.09	314247	keystroke	d	n/a
157.2285	0.06	314457	keystroke	i	n/a
157.3325	0.0905	314665	keystroke	s	n/a
157.5725	0.0905	315145	keystroke	a	n/a
157.753	0.076	315506	keystroke	p	n/a
157.903	0.121	315806	keystroke	p	n/a
158.038	0.12	316076	keystroke	o	n/a
158.113	0.12	316226	keystroke	i	n/a
158.188	0.06	316376	keystroke	n	n/a
158.278	0.0745	316556	keystroke	t	n/a
158.368	0.165	316736	keystroke	e	n/a
158.488	0.075	316976	keystroke	d	n/a
158.593	0.06	317186	keystroke	Key.space	n/a
159.283	0.0605	318566	keystroke	p	n/a
159.4475	0.1065	318895	keystroke	l	n/a
159.733	0.045	319466	keystroke	n	n/a
160.033	0.045	320066	keystroke	Key.backspace	n/a
160.153	0.09	320306	keystroke	a	n/a
160.2585	0.059	320517	keystroke	n	n/a
160.348	0.12	320696	keystroke	s	n/a
160.483	0.0755	320966	keystroke	Key.space	n/a
160.693	0.045	321386	keystroke	m	n/a
160.8275	0.0915	321655	keystroke	e	n/a
160.8885	0.09	321777	keystroke	d	n/a
160.9935	0.0445	321987	keystroke	i	n/a
161.099	0.059	322198	keystroke	c	n/a
161.174	0.1195	322348	keystroke	a	n/a
161.263	0.0755	322526	keystroke	t	n/a
161.4885	0.0595	322977	keystroke	Key.backspace	n/a
161.6075	0.06	323215	keystroke	Key.backspace	n/a
161.758	0.0445	323516	keystroke	Key.backspace	n/a
161.894	0.0745	323788	keystroke	t	n/a
162.013	0.1195	324026	keystroke	a	n/a
162.088	0.0755	324176	keystroke	t	n/a
162.2235	0.135	324447	keystroke	i	n/a
162.2535	0.1195	324507	keystroke	o	n/a
162.2825	0.1055	324565	keystroke	n	n/a
162.733	0.045	325466	keystroke	Key.enter	n/a
162.7855	5.784	325571	prompt	n/a	perry frozen witch fares\n
163.453	0.0745	326906	keystroke	p	n/a
163.6335	0.09	327267	keystroke	e	n/a
163.7075	0.0605	327415	keystroke	r	n/a
163.843	0.09	327686	keystroke	r	n/a
163.964	0.059	327928	keystroke	y	n/a
164.039	0.044	328078	keystroke	Key.space	n/a
164.219	0.0595	328438	keystroke	f	n/a
164.368	0.0595	328736	keystroke	r	n/a
164.548	0.075	329096	keystroke	o	n/a
164.759	0.119	329518	keystroke	e	n/a
165.059	0.059	330118	keystroke	n	n/a
165.148	0.0905	330296	keystroke	Key.space	n/a
165.448	0.045	330896	keystroke	Key.backspace	n/a
165.5525	0.076	331105	keystroke	Key.backspace	n/a
165.6725	0.09	331345	keystroke	Key.backspace	n/a
165.748	0.0755	331496	keystroke	z	n/a
165.7935	0.0755	331587	keystroke	e	n/a
165.9135	0.045	331827	keystroke	n	n/a
165.9275	0.06	331855	keystroke	Key.space	n/a
166.1375	0.0605	332275	keystroke	w	n/a
166.2735	0.059	332547	keystroke	i	n/a
166.423	0.045	332846	keystroke	t	n/a
166.5875	0.06	333175	keystroke	c	n/a
166.709	0.0595	333418	keystroke	h	n/a
166.7535	0.0595	333507	keystroke	Key.space	n/a
166.978	0.0745	333956	keystroke	f	n/a
167.0825	0.1205	334165	keystroke	a	n/a
167.2635	0.075	334527	keystroke	i	n/a
167.5485	0.0595	335097	keystroke	Key.backspace	n/a
167.653	0.075	335306	keystroke	r	n/a
167.7135	0.105	335427	keystroke	e	n/a
167.9235	0.075	335847	keystroke	s	n/a
168.5075	0.0605	337015	keystroke	Key.enter	n/a
168.579	5.091	337158	prompt	n/a	penalties these sucking memories\n
169.259	0.0295	338518	keystroke	p	n/a
169.3775	0.061	338755	keystroke	e	n/a
169.543	0.046	339086	keystroke	n	n/a
169.708	0.0445	339416	keystroke	a	n/a
169.9935	0.0755	339987	keystroke	l	n/a
170.2025	0.076	340405	keystroke	t	n/a
170.3385	0.06	340677	keystroke	i	n/a
170.4425	0.0605	340885	keystroke	e	n/a
170.593	0.06	341186	keystroke	s	n/a
170.683	0.06	341366	keystroke	Key.space	n/a
171.104	0.059	342208	keystroke	t	n/a
171.178	0.0755	342356	keystroke	h	n/a
171.2685	0.076	342537	keystroke	e	n/a
171.4185	0.074	342837	keystroke	s	n/a
171.5685	0.09	343137	keystroke	e	n/a
171.6735	0.0435	343347	keystroke	Key.space	n/a
171.7785	0.0745	343557	keystroke	s	n/a
171.913	0.0605	343826	keystroke	u	n/a
172.003	0.0755	344006	keystroke	c	n/a
172.123	0.075	344246	keystroke	k	n/a
172.288	0.105	344576	keystroke	i	n/a
172.348	0.0745	344696	keystroke	n	n/a
172.453	0.0605	344906	keystroke	g	n/a
172.528	0.0755	345056	keystroke	Key.space	n/a
172.693	0.1045	345386	keystroke	m	n/a
172.813	0.09	345626	keystroke	e	n/a
172.948	0.075	345896	keystroke	m	n/a
172.978	0.0755	345956	keystroke	o	n/a
173.113	0.0605	346226	keystroke	r	n/a
173.2025	0.076	346405	keystroke	i	n/a
173.3235	0.075	346647	keystroke	e	n/a
173.4885	0.0445	346977	keystroke	s	n/a
173.593	0.075	347186	keystroke	Key.enter	n/a
173.6825	5.042	347365	prompt	n/a	repeat silence tall quest\n
174.4185	0.0745	348837	keystroke	r	n/a
174.448	0.1055	348896	keystroke	e	n/a
174.598	0.0745	349196	keystroke	p	n/a
174.688	0.1345	349376	keystroke	e	n/a
174.7935	0.104	349587	keystroke	a	n/a
174.8835	0.0745	349767	keystroke	t	n/a
175.183	0.0755	350366	keystroke	Key.space	n/a
175.3185	0.089	350637	keystroke	s	n/a
175.4235	0.074	350847	keystroke	i	n/a
175.6025	0.091	351205	keystroke	l	n/a
175.7235	0.105	351447	keystroke	e	n/a
175.8585	0.075	351717	keystroke	n	n/a
175.9635	0.06	351927	keystroke	c	n/a
176.8035	0.105	353607	keystroke	e	n/a
176.9235	0.015	353847	keystroke	Key.space	n/a
176.9535	0.075	353907	keystroke	t	n/a
177.6735	0.015	355347	keystroke	a	n/a
177.7635	0.06	355527	keystroke	l	n/a
177.8985	0.12	355797	keystroke	l	n/a
177.9875	0.061	355975	keystroke	Key.space	n/a
178.1535	0.0905	356307	keystroke	q	n/a
178.2585	0.06	356517	keystroke	u	n/a
178.3485	0.105	356697	keystroke	e	n/a
178.528	0.1195	357056	keystroke	s	n/a
178.6625	0.0605	357325	keystroke	Key.enter	n/a
178.729	8.501	357458	prompt	n/a	subtle beverages chain namespace\n
179.414	0.1195	358828	keystroke	s	n/a
179.5485	0.06	359097	keystroke	u	n/a
179.6535	0.06	359307	keystroke	b	n/a
180.0435	0.0595	360087	keystroke	l	n/a
180.208	0.046	360416	keystroke	e	n/a
180.5385	0.0595	361077	keystroke	Key.backspace	n/a
180.6585	0.0895	361317	keystroke	Key.backspace	n/a
180.778	0.061	361556	keystroke	t	n/a
180.869	0.0885	361738	keystroke	l	n/a
180.9875	0.061	361975	keystroke	e	n/a
181.1385	0.045	362277	keystroke	Key.space	n/a
181.8285	0.165	363657	keystroke	b	n/a
182.308	0.0895	364616	keystroke	e	n/a
182.6085	0.1345	365217	keystroke	v	n/a
182.6985	0.2545	365397	keystroke	e	n/a
182.8935	0.1945	365787	keystroke	r	n/a
183.103	0.12	366206	keystroke	a	n/a
183.283	0.075	366566	keystroke	g	n/a
183.343	0.09	366686	keystroke	e	n/a
183.523	0.0905	367046	keystroke	s	n/a
183.6585	0.059	367317	keystroke	Key.space	n/a
184.0785	0.1205	368157	keystroke	c	n/a
184.364	0.0445	368728	keystroke	h	n/a
184.483	0.1055	368966	keystroke	a	n/a
184.6175	0.0905	369235	keystroke	i	n/a
184.663	0.0895	369326	keystroke	n	n/a
184.768	0.0745	369536	keystroke	Key.space	n/a
185.053	0.15	370106	keystroke	s	n/a
185.458	0.045	370916	keystroke	Key.backspace	n/a
185.729	0.044	371458	keystroke	n	n/a
185.848	0.09	371696	keystroke	a	n/a
185.983	0.061	371966	keystroke	m	n/a
186.088	0.0605	372176	keystroke	e	n/a
186.313	0.076	372626	keystroke	s	n/a
186.4785	0.0455	372957	keystroke	p	n/a
186.718	0.105	373436	keystroke	a	n/a
186.854	0.104	373708	keystroke	c	n/a
186.959	0.0595	373918	keystroke	e	n/a
187.138	0.0905	374276	keystroke	Key.enter	n/a
187.2345	6.505	374469	prompt	n/a	currencies regulated nikon emotions\n
187.9185	0.045	375837	keystroke	c	n/a
188.0085	0.045	376017	keystroke	u	n/a
188.114	0.1045	376228	keystroke	r	n/a
188.3235	0.1055	376647	keystroke	r	n/a
188.399	0.089	376798	keystroke	e	n/a
188.6085	0.045	377217	keystroke	n	n/a
188.7125	0.0615	377425	keystroke	c	n/a
188.953	0.075	377906	keystroke	i	n/a
189.043	0.0755	378086	keystroke	e	n/a
189.1935	0.09	378387	keystroke	s	n/a
189.3125	0.061	378625	keystroke	Key.space	n/a
189.6435	0.0895	379287	keystroke	r	n/a
189.7175	0.046	379435	keystroke	e	n/a
189.8535	0.075	379707	keystroke	g	n/a
190.0185	0.0445	380037	keystroke	u	n/a
190.078	0.06	380156	keystroke	l	n/a
190.1985	0.1045	380397	keystroke	a	n/a
190.2885	0.075	380577	keystroke	t	n/a
190.438	0.15	380876	keystroke	e	n/a
190.558	0.091	381116	keystroke	d	n/a
190.693	0.03	381386	keystroke	Key.space	n/a
191.3535	0.075	382707	keystroke	n	n/a
191.413	0.105	382826	keystroke	i	n/a
191.7735	0.0295	383547	keystroke	k	n/a
191.908	0.061	383816	keystroke	o	n/a
191.998	0.0605	383996	keystroke	n	n/a
192.193	0.0755	384386	keystroke	Key.space	n/a
192.478	0.06	384956	keystroke	e	n/a
192.568	0.0755	385136	keystroke	m	n/a
192.6435	0.09	385287	keystroke	o	n/a
192.7775	0.046	385555	keystroke	t	n/a
192.884	0.0745	385768	keystroke	i	n/a
192.899	0.09	385798	keystroke	o	n/a
192.9285	0.0455	385857	keystroke	n	n/a
192.9595	0.104	385919	keystroke	s	n/a
193.6785	0.06	387357	keystroke	Key.enter	n/a
193.7455	8.2445	387491	prompt	n/a	uncertainty significant javascript favor\n
194.4285	0.06	388857	keystroke	u	n/a
194.6085	0.06	389217	keystroke	n	n/a
194.698	0.0905	389396	keystroke	c	n/a
194.8035	0.1055	389607	keystroke	e	n/a
194.894	0.06	389788	keystroke	r	n/a
194.984	0.06	389968	keystroke	t	n/a
195.074	0.074	390148	keystroke	a	n/a
195.208	0.106	390416	keystroke	i	n/a
195.253	0.0455	390506	keystroke	n	n/a
195.583	0.03	391166	keystroke	t	n/a
195.838	0.015	391676	keystroke	y	n/a
196.078	0.0455	392156	keystroke	Key.space	n/a
196.3935	0.06	392787	keystroke	s	n/a
196.4835	0.0605	392967	keystroke	i	n/a
196.6485	0.045	393297	keystroke	g	n/a
196.7385	0.06	393477	keystroke	n	n/a
196.8285	0.105	393657	keystroke	i	n/a
196.9645	0.059	393929	keystroke	f	n/a
197.0385	0.09	394077	keystroke	i	n/a
197.1435	0.0755	394287	keystroke	c	n/a
197.234	0.09	394468	keystroke	a	n/a
197.339	0.045	394678	keystroke	t	n/a
197.654	0.045	395308	keystroke	e	n/a
197.908	0.045	395816	keystroke	Key.backspace	n/a
197.998	0.075	395996	keystroke	Key.backspace	n/a
198.2085	0.0445	396417	keystroke	n	n/a
198.3135	0.075	396627	keystroke	t	n/a
198.418	0.075	396836	keystroke	Key.space	n/a
199.1835	0.0445	398367	keystroke	j	n/a
199.258	0.106	398516	keystroke	a	n/a
199.348	0.061	398696	keystroke	v	n/a
199.723	0.1355	399446	keystroke	a	n/a
199.9485	0.165	399897	keystroke	s	n/a
200.0385	0.09	400077	keystroke	c	n/a
200.2335	0.09	400467	keystroke	r	n/a
200.413	0.1055	400826	keystroke	i	n/a
200.5035	0.09	401007	keystroke	p	n/a
200.5785	0.075	401157	keystroke	t	n/a
200.848	0.045	401696	keystroke	Key.space	n/a
201.013	0.06	402026	keystroke	f	n/a
201.118	0.105	402236	keystroke	a	n/a
201.253	0.06	402506	keystroke	v	n/a
201.5375	0.0605	403075	keystroke	o	n/a
201.673	0.0295	403346	keystroke	r	n/a
201.943	0.0455	403886	keystroke	Key.enter	n/a
201.9945	9.28	403989	prompt	n/a	watched liked hardware balanced\n
202.7085	0.12	405417	keystroke	w	n/a
202.9335	0.1505	405867	keystroke	a	n/a
203.0685	0.045	406137	keystroke	t	n/a
203.2485	0.0755	406497	keystroke	c	n/a
203.3985	0.059	406797	keystroke	h	n/a
203.533	0.0145	407066	keystroke	e	n/a
203.5625	0.0905	407125	keystroke	d	n/a
203.788	0.0305	407576	keystroke	Key.space	n/a
204.0135	0.0895	408027	keystroke	l	n/a
204.0735	0.09	408147	keystroke	i	n/a
204.3885	0.09	408777	keystroke	e	n/a
204.7025	0.06	409405	keystroke	Key.backspace	n/a
204.8985	0.029	409797	keystroke	i	n/a
204.9575	0.0755	409915	keystroke	e	n/a
205.0185	0.0745	410037	keystroke	d	n/a
205.1075	0.061	410215	keystroke	Key.space	n/a
205.663	0.06	411326	keystroke	Key.backspace	n/a
205.769	0.074	411538	keystroke	Key.backspace	n/a
205.9035	0.089	411807	keystroke	Key.backspace	n/a
206.0525	0.106	412105	keystroke	Key.backspace	n/a
206.2785	0.044	412557	keystroke	k	n/a
206.3685	0.09	412737	keystroke	e	n/a
206.4135	0.089	412827	keystroke	d	n/a
206.563	0.0295	413126	keystroke	Key.space	n/a
207.013	0.03	414026	keystroke	h	n/a
207.0895	0.0885	414179	keystroke	a	n/a
207.133	0.06	414266	keystroke	r	n/a
207.299	0.015	414598	keystroke	e	n/a
207.315	0.103	414630	keystroke	d	n/a
207.493	0.136	414986	keystroke	w	n/a
207.614	0.104	415228	keystroke	a	n/a
207.703	0.061	415406	keystroke	r	n/a
207.914	0.0445	415828	keystroke	Key.backspace	n/a
208.0185	0.075	416037	keystroke	Key.backspace	n/a
208.1385	0.0595	416277	keystroke	Key.backspace	n/a
208.258	0.0755	416516	keystroke	Key.backspace	n/a
208.393	0.09	416786	keystroke	Key.backspace	n/a
208.528	0.21	417056	keystroke	d	n/a
208.6335	0.1795	417267	keystroke	w	n/a
208.739	0.059	417478	keystroke	e	n/a
208.739	0.104	417478	keystroke	a	n/a
208.828	0.075	417656	keystroke	r	n/a
208.963	0.0455	417926	keystroke	e	n/a
209.3835	0.045	418767	keystroke	Key.backspace	n/a
209.4875	0.061	418975	keystroke	Key.backspace	n/a
209.638	0.045	419276	keystroke	Key.backspace	n/a
209.728	0.135	419456	keystroke	Key.backspace	n/a
209.819	0.074	419638	keystroke	a	n/a
209.878	0.0605	419756	keystroke	r	n/a
209.894	0.105	419788	keystroke	e	n/a
210.0285	0.075	420057	keystroke	Key.space	n/a
210.178	0.106	420356	keystroke	b	n/a
210.2985	0.0745	420597	keystroke	a	n/a
210.358	0.075	420716	keystroke	l	n/a
210.493	0.09	420986	keystroke	a	n/a
210.6435	0.0595	421287	keystroke	n	n/a
210.7485	0.105	421497	keystroke	c	n/a
210.809	0.0745	421618	keystroke	e	n/a
210.913	0.09	421826	keystroke	d	n/a
211.213	0.06	422426	keystroke	Key.enter	n/a
211.279	8.2765	422558	prompt	n/a	comparisons mode ukraine mixture\n
212.023	0.031	424046	keystroke	c	n/a
212.0385	0.12	424077	keystroke	o	n/a
212.1125	0.091	424225	keystroke	m	n/a
212.1435	0.12	424287	keystroke	p	n/a
212.3235	0.1355	424647	keystroke	a	n/a
212.6535	0.045	425307	keystroke	i	n/a
212.7885	0.015	425577	keystroke	r	n/a
212.968	0.045	425936	keystroke	Key.backspace	n/a
213.283	0.075	426566	keystroke	Key.backspace	n/a
213.509	0.0445	427018	keystroke	r	n/a
213.5235	0.0455	427047	keystroke	i	n/a
214.108	0.0905	428216	keystroke	o	n/a
214.1385	0.0755	428277	keystroke	n	n/a
214.273	0.075	428546	keystroke	s	n/a
214.468	0.045	428936	keystroke	Key.backspace	n/a
214.5735	0.0895	429147	keystroke	Key.backspace	n/a
214.708	0.09	429416	keystroke	Key.backspace	n/a
214.9485	0.045	429897	keystroke	s	n/a
215.009	0.0895	430018	keystroke	o	n/a
215.0535	0.06	430107	keystroke	n	n/a
215.2335	0.0605	430467	keystroke	s	n/a
215.3985	0.045	430797	keystroke	Key.space	n/a
216.134	0.075	432268	keystroke	m	n/a
216.224	0.09	432448	keystroke	o	n/a
216.315	0.1335	432630	keystroke	d	n/a
216.403	0.09	432806	keystroke	e	n/a
216.538	0.06	433076	keystroke	Key.space	n/a
216.8385	0.046	433677	keystroke	u	n/a
217.1985	0.045	434397	keystroke	k	n/a
217.7685	0.06	435537	keystroke	r	n/a
217.8425	0.075	435685	keystroke	a	n/a
217.993	0.105	435986	keystroke	i	n/a
218.053	0.06	436106	keystroke	n	n/a
218.1735	0.09	436347	keystroke	e	n/a
218.3235	0.059	436647	keystroke	Key.space	n/a
218.5625	0.06	437125	keystroke	m	n/a
218.7135	0.0605	437427	keystroke	i	n/a
218.8335	0.104	437667	keystroke	x	n/a
219.104	0.045	438208	keystroke	t	n/a
219.164	0.059	438328	keystroke	u	n/a
219.2535	0.0895	438507	keystroke	r	n/a
219.298	0.0905	438596	keystroke	e	n/a
219.493	0.06	438986	keystroke	Key.enter	n/a
219.5605	9.1595	439121	prompt	n/a	advised grow households comparative\n
220.258	0.0755	440516	keystroke	a	n/a
220.3185	0.1195	440637	keystroke	d	n/a
220.4685	0.0745	440937	keystroke	v	n/a
220.5585	0.06	441117	keystroke	i	n/a
220.9785	0.09	441957	keystroke	s	n/a
221.1885	0.09	442377	keystroke	e	n/a
221.2335	0.105	442467	keystroke	d	n/a
221.3985	0.06	442797	keystroke	Key.space	n/a
221.5635	0.06	443127	keystroke	g	n/a
221.684	0.1195	443368	keystroke	r	n/a
221.8935	0.06	443787	keystroke	o	n/a
221.9685	0.06	443937	keystroke	w	n/a
222.1185	0.06	444237	keystroke	n	n/a
222.1935	0.075	444387	keystroke	Key.space	n/a
222.5375	0.06	445075	keystroke	Key.backspace	n/a
222.6575	0.106	445315	keystroke	Key.backspace	n/a
222.7785	0.029	445557	keystroke	Key.space	n/a
222.9435	0.075	445887	keystroke	h	n/a
223.0335	0.075	446067	keystroke	o	n/a
223.153	0.016	446306	keystroke	u	n/a
223.199	0.0895	446398	keystroke	s	n/a
223.363	0.0755	446726	keystroke	e	n/a
223.7535	0.09	447507	keystroke	h	n/a
223.8595	0.074	447719	keystroke	o	n/a
223.948	0.0755	447896	keystroke	u	n/a
224.2335	0.1045	448467	keystroke	l	n/a
224.4575	0.136	448915	keystroke	d	n/a
224.5035	0.12	449007	keystroke	s	n/a
224.8335	0.059	449667	keystroke	Key.backspace	n/a
224.9525	0.075	449905	keystroke	Key.backspace	n/a
225.0885	0.075	450177	keystroke	Key.backspace	n/a
225.2225	0.075	450445	keystroke	Key.backspace	n/a
225.419	0.0745	450838	keystroke	l	n/a
225.479	0.1495	450958	keystroke	d	n/a
225.5985	0.089	451197	keystroke	s	n/a
225.6725	0.061	451345	keystroke	Key.space	n/a
226.183	0.1345	452366	keystroke	c	n/a
226.3025	0.09	452605	keystroke	o	n/a
226.3625	0.06	452725	keystroke	m	n/a
226.3785	0.104	452757	keystroke	p	n/a
226.528	0.1045	453056	keystroke	a	n/a
226.723	0.075	453446	keystroke	r	n/a
227.9525	0.1055	455905	keystroke	a	n/a
228.013	0.0455	456026	keystroke	t	n/a
228.103	0.045	456206	keystroke	i	n/a
228.253	0.105	456506	keystroke	v	n/a
228.328	0.09	456656	keystroke	e	n/a
228.6435	0.075	457287	keystroke	Key.enter	n/a
228.7245	4.975	457449	prompt	n/a	floppy removed subscriber matt\n
229.4525	0.076	458905	keystroke	f	n/a
229.5575	0.061	459115	keystroke	l	n/a
229.769	0.1035	459538	keystroke	o	n/a
229.9935	0.09	459987	keystroke	p	n/a
230.173	0.105	460346	keystroke	p	n/a
230.3235	0.03	460647	keystroke	y	n/a
230.3385	0.045	460677	keystroke	Key.space	n/a
230.518	0.0605	461036	keystroke	r	n/a
230.5635	0.075	461127	keystroke	e	n/a
230.6535	0.075	461307	keystroke	m	n/a
230.7135	0.06	461427	keystroke	o	n/a
230.8185	0.105	461637	keystroke	v	n/a
230.8935	0.135	461787	keystroke	e	n/a
230.9835	0.105	461967	keystroke	d	n/a
231.0585	0.075	462117	keystroke	Key.space	n/a
231.493	0.0755	462986	keystroke	s	n/a
231.6125	0.045	463225	keystroke	u	n/a
231.703	0.0445	463406	keystroke	b	n/a
231.8375	0.136	463675	keystroke	s	n/a
231.9585	0.0595	463917	keystroke	c	n/a
232.1375	0.046	464275	keystroke	r	n/a
232.3025	0.061	464605	keystroke	i	n/a
232.3785	0.059	464757	keystroke	b	n/a
232.4535	0.1205	464907	keystroke	e	n/a
232.544	0.0745	465088	keystroke	r	n/a
232.738	0.0605	465476	keystroke	Key.space	n/a
233.068	0.0445	466136	keystroke	m	n/a
233.173	0.0745	466346	keystroke	a	n/a
233.278	0.045	466556	keystroke	t	n/a
233.383	0.0755	466766	keystroke	t	n/a
233.6085	0.0895	467217	keystroke	Key.enter	n/a
233.703	5.037	467406	prompt	n/a	samples reasons lean treaty\n
234.3135	0.12	468627	keystroke	s	n/a
234.4185	0.09	468837	keystroke	a	n/a
234.538	0.0755	469076	keystroke	m	n/a
234.5835	0.105	469167	keystroke	p	n/a
234.7635	0.09	469527	keystroke	l	n/a
234.8835	0.09	469767	keystroke	e	n/a
235.063	0.076	470126	keystroke	s	n/a
235.2135	0.045	470427	keystroke	Key.space	n/a
235.5885	0.075	471177	keystroke	r	n/a
235.6335	0.1055	471267	keystroke	e	n/a
235.7235	0.09	471447	keystroke	w	n/a
236.098	0.045	472196	keystroke	Key.backspace	n/a
236.1725	0.076	472345	keystroke	a	n/a
236.218	0.0895	472436	keystroke	s	n/a
236.3225	0.1055	472645	keystroke	o	n/a
236.413	0.0445	472826	keystroke	n	n/a
236.4735	0.119	472947	keystroke	s	n/a
236.6975	0.045	473395	keystroke	Key.space	n/a
237.3735	0.0445	474747	keystroke	l	n/a
237.4335	0.0745	474867	keystroke	e	n/a
237.493	0.0755	474986	keystroke	a	n/a
237.583	0.06	475166	keystroke	n	n/a
237.658	0.075	475316	keystroke	Key.space	n/a
237.793	0.075	475586	keystroke	t	n/a
237.958	0.1355	475916	keystroke	r	n/a
238.049	0.1645	476098	keystroke	e	n/a
238.109	0.1195	476218	keystroke	a	n/a
238.199	0.0595	476398	keystroke	t	n/a
238.4225	0.031	476845	keystroke	y	n/a
238.6785	0.059	477357	keystroke	Key.enter	n/a
238.745	4.825	477490	prompt	n/a	usually they'd mattress daniel\n
239.398	0.0455	478796	keystroke	u	n/a
239.4885	0.09	478977	keystroke	s	n/a
239.6075	0.046	479215	keystroke	u	n/a
239.7285	0.0445	479457	keystroke	a	n/a
239.8185	0.059	479637	keystroke	l	n/a
239.953	0.0905	479906	keystroke	l	n/a
240.0125	0.0605	480025	keystroke	y	n/a
240.1185	0.0295	480237	keystroke	Key.space	n/a
240.1935	0.0595	480387	keystroke	t	n/a
240.3435	0.03	480687	keystroke	h	n/a
240.3585	0.075	480717	keystroke	e	n/a
240.4185	0.075	480837	keystroke	y	n/a
240.5535	0.0895	481107	keystroke	'	n/a
240.7035	0.06	481407	keystroke	d	n/a
240.794	0.0595	481588	keystroke	Key.space	n/a
240.9435	0.0595	481887	keystroke	m	n/a
241.018	0.09	482036	keystroke	a	n/a
241.093	0.045	482186	keystroke	t	n/a
241.2135	0.1045	482427	keystroke	t	n/a
241.393	0.09	482786	keystroke	r	n/a
241.4535	0.0745	482907	keystroke	e	n/a
241.618	0.075	483236	keystroke	s	n/a
241.7985	0.06	483597	keystroke	s	n/a
241.948	0.06	483896	keystroke	Key.space	n/a
242.128	0.105	484256	keystroke	d	n/a
242.2485	0.0595	484497	keystroke	a	n/a
242.4285	0.075	484857	keystroke	n	n/a
242.4885	0.075	484977	keystroke	i	n/a
242.849	0.0595	485698	keystroke	e	n/a
243.0435	0.045	486087	keystroke	l	n/a
243.5075	0.06	487015	keystroke	Key.enter	n/a
243.5745	8.08	487149	prompt	n/a	grave phoenix protocol lightweight\n
244.2285	0.075	488457	keystroke	g	n/a
244.3775	0.091	488755	keystroke	r	n/a
244.4385	0.09	488877	keystroke	a	n/a
244.7235	0.06	489447	keystroke	p	n/a
245.0685	0.044	490137	keystroke	Key.backspace	n/a
245.1285	0.06	490257	keystroke	v	n/a
245.1735	0.06	490347	keystroke	e	n/a
245.2635	0.06	490527	keystroke	Key.space	n/a
245.5485	0.09	491097	keystroke	p	n/a
245.6835	0.075	491367	keystroke	h	n/a
245.8635	0.061	491727	keystroke	e	n/a
246.2535	0.059	492507	keystroke	Key.backspace	n/a
246.4775	0.0615	492955	keystroke	o	n/a
246.599	0.105	493198	keystroke	e	n/a
246.7925	0.061	493585	keystroke	n	n/a
246.8235	0.074	493647	keystroke	i	n/a
247.318	0.0905	494636	keystroke	x	n/a
247.528	0.06	495056	keystroke	Key.space	n/a
247.7835	0.0745	495567	keystroke	p	n/a
247.978	0.0605	495956	keystroke	r	n/a
248.0985	0.075	496197	keystroke	o	n/a
248.2035	0.075	496407	keystroke	p	n/a
248.5325	0.045	497065	keystroke	Key.backspace	n/a
248.6835	0.045	497367	keystroke	t	n/a
248.7885	0.059	497577	keystroke	o	n/a
248.9375	0.061	497875	keystroke	c	n/a
249.043	0.045	498086	keystroke	l	n/a
249.5385	0.0445	499077	keystroke	Key.backspace	n/a
249.7185	0.044	499437	keystroke	o	n/a
249.868	0.1195	499736	keystroke	l	n/a
249.9585	0.06	499917	keystroke	Key.space	n/a
250.199	0.1045	500398	keystroke	l	n/a
250.273	0.1055	500546	keystroke	i	n/a
250.393	0.06	500786	keystroke	g	n/a
250.483	0.061	500966	keystroke	h	n/a
250.513	0.076	501026	keystroke	t	n/a
250.753	0.075	501506	keystroke	w	n/a
250.994	0.074	501988	keystroke	e	n/a
251.143	0.06	502286	keystroke	i	n/a
251.2185	0.075	502437	keystroke	g	n/a
251.353	0.0605	502706	keystroke	h	n/a
251.3835	0.0605	502767	keystroke	t	n/a
251.5935	0.0595	503187	keystroke	Key.enter	n/a
251.662	4.973	503324	prompt	n/a	baskets specs meters serving\n
252.3435	0.0445	504687	keystroke	b	n/a
252.403	0.061	504806	keystroke	a	n/a
252.539	0.105	505078	keystroke	s	n/a
252.704	0.0595	505408	keystroke	k	n/a
252.7485	0.1345	505497	keystroke	e	n/a
252.898	0.045	505796	keystroke	t	n/a
253.033	0.06	506066	keystroke	s	n/a
253.2135	0.045	506427	keystroke	Key.space	n/a
253.9035	0.045	507807	keystroke	s	n/a
253.9935	0.0755	507987	keystroke	p	n/a
254.0695	0.1335	508139	keystroke	e	n/a
254.1885	0.0755	508377	keystroke	c	n/a
254.3985	0.149	508797	keystroke	s	n/a
254.639	0.045	509278	keystroke	Key.space	n/a
254.8635	0.0445	509727	keystroke	m	n/a
254.983	0.0745	509966	keystroke	e	n/a
255.0725	0.0765	510145	keystroke	t	n/a
255.179	0.12	510358	keystroke	e	n/a
255.268	0.18	510536	keystroke	r	n/a
255.404	0.104	510808	keystroke	s	n/a
255.553	0.045	511106	keystroke	Key.space	n/a
255.613	0.09	511226	keystroke	s	n/a
255.7635	0.1195	511527	keystroke	e	n/a
255.8385	0.119	511677	keystroke	r	n/a
255.9435	0.0755	511887	keystroke	v	n/a
256.049	0.06	512098	keystroke	i	n/a
256.2885	0.045	512577	keystroke	n	n/a
256.409	0.06	512818	keystroke	g	n/a
256.5735	0.059	513147	keystroke	Key.enter	n/a
256.645	5.48	513290	prompt	n/a	ranging ottawa shares saint\n
257.278	0.061	514556	keystroke	r	n/a
257.3695	0.089	514739	keystroke	a	n/a
257.503	0.0605	515006	keystroke	n	n/a
257.6235	0.06	515247	keystroke	g	n/a
257.7285	0.075	515457	keystroke	i	n/a
257.7585	0.09	515517	keystroke	n	n/a
257.8635	0.045	515727	keystroke	g	n/a
257.9685	0.06	515937	keystroke	Key.space	n/a
258.194	0.075	516388	keystroke	o	n/a
258.494	0.149	516988	keystroke	t	n/a
258.868	0.091	517736	keystroke	t	n/a
259.199	0.179	518398	keystroke	a	n/a
259.319	0.18	518638	keystroke	w	n/a
259.483	0.0755	518966	keystroke	a	n/a
259.649	0.059	519298	keystroke	Key.space	n/a
260.429	0.075	520858	keystroke	s	n/a
260.5185	0.0605	521037	keystroke	h	n/a
260.6235	0.091	521247	keystroke	a	n/a
260.684	0.0895	521368	keystroke	r	n/a
260.7585	0.075	521517	keystroke	e	n/a
260.894	0.0745	521788	keystroke	s	n/a
261.0885	0.015	522177	keystroke	Key.space	n/a
261.314	0.09	522628	keystroke	s	n/a
261.479	0.12	522958	keystroke	a	n/a
261.674	0.105	523348	keystroke	i	n/a
261.718	0.075	523436	keystroke	n	n/a
261.853	0.06	523706	keystroke	t	n/a
262.048	0.075	524096	keystroke	Key.enter	n/a
262.1295	8.216	524259	prompt	n/a	versions macedonia removed escorts\n
262.9635	0.12	525927	keystroke	v	n/a
263.0235	0.136	526047	keystroke	e	n/a
263.0985	0.105	526197	keystroke	r	n/a
263.2335	0.106	526467	keystroke	s	n/a
263.3405	0.119	526681	keystroke	i	n/a
263.3695	0.12	526739	keystroke	o	n/a
263.4295	0.0745	526859	keystroke	n	n/a
263.4745	0.119	526949	keystroke	s	n/a
263.6835	0.045	527367	keystroke	Key.space	n/a
263.939	0.059	527878	keystroke	m	n/a
264.044	0.1045	528088	keystroke	a	n/a
264.344	0.1205	528688	keystroke	c	n/a
264.4795	0.12	528959	keystroke	e	n/a
264.6295	0.15	529259	keystroke	d	n/a
264.974	0.0895	529948	keystroke	o	n/a
265.079	0.0755	530158	keystroke	n	n/a
265.1845	0.089	530369	keystroke	i	n/a
265.3485	0.09	530697	keystroke	a	n/a
265.5135	0.076	531027	keystroke	Key.space	n/a
266.054	0.075	532108	keystroke	r	n/a
266.114	0.06	532228	keystroke	e	n/a
266.249	0.06	532498	keystroke	m	n/a
266.294	0.06	532588	keystroke	o	n/a
266.414	0.165	532828	keystroke	v	n/a
267.209	0.09	534418	keystroke	e	n/a
267.254	0.09	534508	keystroke	d	n/a
267.358	0.045	534716	keystroke	Key.space	n/a
267.539	0.12	535078	keystroke	s	n/a
267.643	0.082	535286	keystroke	c	n/a
268.033	0.061	536066	keystroke	Key.backspace	n/a
268.1535	0.075	536307	keystroke	Key.backspace	n/a
268.2585	0.09	536517	keystroke	e	n/a
268.424	0.15	536848	keystroke	s	n/a
268.5285	0.091	537057	keystroke	c	n/a
268.7535	0.061	537507	keystroke	o	n/a
269.459	0.0595	538918	keystroke	t	n/a
269.774	0.075	539548	keystroke	Key.backspace	n/a
269.864	0.12	539728	keystroke	r	n/a
270.014	0.105	540028	keystroke	t	n/a
270.134	0.0755	540268	keystroke	s	n/a
270.2835	0.06	540567	keystroke	Key.enter	n/a
270.3615	6.764	540723	prompt	n/a	exceed skills recorders rights\n
270.989	0.0755	541978	keystroke	e	n/a
271.1835	0.1055	542367	keystroke	x	n/a
271.2435	0.121	542487	keystroke	c	n/a
271.394	0.075	542788	keystroke	e	n/a
271.589	0.06	543178	keystroke	e	n/a
271.844	0.045	543688	keystroke	n	n/a
272.1895	0.0595	544379	keystroke	Key.backspace	n/a
272.264	0.0455	544528	keystroke	d	n/a
272.369	0.0595	544738	keystroke	Key.space	n/a
272.834	0.075	545668	keystroke	s	n/a
272.9545	0.0595	545909	keystroke	k	n/a
273.164	0.045	546328	keystroke	i	n/a
273.329	0.0605	546658	keystroke	l	n/a
273.449	0.0895	546898	keystroke	l	n/a
273.5985	0.045	547197	keystroke	s	n/a
273.7335	0.06	547467	keystroke	Key.space	n/a
273.9285	0.106	547857	keystroke	r	n/a
273.9885	0.077	547977	keystroke	e	n/a
274.484	0.0305	548968	keystroke	c	n/a
274.4995	0.0595	548999	keystroke	o	n/a
274.6635	0.06	549327	keystroke	r	n/a
274.829	0.0605	549658	keystroke	d	n/a
274.934	0.075	549868	keystroke	s	n/a
275.444	0.059	550888	keystroke	Key.backspace	n/a
275.579	0.09	551158	keystroke	e	n/a
275.639	0.165	551278	keystroke	r	n/a
275.7735	0.1045	551547	keystroke	s	n/a
275.909	0.0595	551818	keystroke	Key.space	n/a
276.4495	0.0745	552899	keystroke	r	n/a
276.539	0.105	553078	keystroke	i	n/a
276.599	0.09	553198	keystroke	g	n/a
276.69	0.0745	553380	keystroke	h	n/a
276.749	0.09	553498	keystroke	t	n/a
276.869	0.09	553738	keystroke	s	n/a
277.049	0.075	554098	keystroke	Key.enter	n/a
277.1295	8.801	554259	prompt	n/a	everything perfect tradition existed\n
277.7235	0.15	555447	keystroke	e	n/a
277.9195	0.029	555839	keystroke	v	n/a
277.979	0.09	555958	keystroke	e	n/a
278.039	0.075	556078	keystroke	r	n/a
278.144	0.0455	556288	keystroke	y	n/a
278.264	0.0595	556528	keystroke	t	n/a
278.384	0.135	556768	keystroke	h	n/a
278.4595	0.0745	556919	keystroke	i	n/a
278.5495	0.0895	557099	keystroke	n	n/a
278.639	0.075	557278	keystroke	g	n/a
278.788	0.061	557576	keystroke	Key.space	n/a
278.969	0.06	557938	keystroke	p	n/a
279.044	0.105	558088	keystroke	e	n/a
279.089	0.105	558178	keystroke	r	n/a
279.224	0.06	558448	keystroke	f	n/a
279.314	0.149	558628	keystroke	e	n/a
279.433	0.076	558866	keystroke	c	n/a
280.229	0.0605	560458	keystroke	Key.space	n/a
280.709	0.045	561418	keystroke	Key.backspace	n/a
280.829	0.06	561658	keystroke	Key.backspace	n/a
280.904	0.06	561808	keystroke	t	n/a
281.293	0.046	562586	keystroke	Key.backspace	n/a
281.3995	0.0595	562799	keystroke	c	n/a
281.5495	0.0755	563099	keystroke	t	n/a
281.6835	0.045	563367	keystroke	Key.space	n/a
281.8035	0.09	563607	keystroke	t	n/a
281.9535	0.105	563907	keystroke	r	n/a
282.0295	0.0895	564059	keystroke	a	n/a
282.2095	0.075	564419	keystroke	d	n/a
282.3735	0.0605	564747	keystroke	i	n/a
282.4485	0.0755	564897	keystroke	t	n/a
282.585	0.0895	565170	keystroke	i	n/a
282.615	0.0895	565230	keystroke	o	n/a
282.63	0.0745	565260	keystroke	n	n/a
283.1685	0.045	566337	keystroke	Key.space	n/a
284.355	0.0585	568710	keystroke	e	n/a
284.8645	0.104	569729	keystroke	x	n/a
285.1645	0.0745	570329	keystroke	i	n/a
285.2695	0.12	570539	keystroke	s	n/a
285.4935	0.06	570987	keystroke	t	n/a
285.5685	0.166	571137	keystroke	e	n/a
285.704	0.0895	571408	keystroke	d	n/a
285.8685	0.0605	571737	keystroke	Key.enter	n/a
285.9355	5.71	571871	prompt	n/a	tabs solaris understanding excited\n
286.6345	0.12	573269	keystroke	t	n/a
286.8145	0.12	573629	keystroke	a	n/a
286.949	0.0905	573898	keystroke	b	n/a
287.1585	0.091	574317	keystroke	s	n/a
287.3545	0.0445	574709	keystroke	Key.space	n/a
287.52	0.0745	575040	keystroke	s	n/a
287.639	0.075	575278	keystroke	o	n/a
287.804	0.075	575608	keystroke	l	n/a
287.909	0.105	575818	keystroke	a	n/a
287.9845	0.06	575969	keystroke	r	n/a
288.134	0.0605	576268	keystroke	i	n/a
288.239	0.075	576478	keystroke	s	n/a
288.404	0.015	576808	keystroke	Key.space	n/a
289.109	0.06	578218	keystroke	u	n/a
289.274	0.06	578548	keystroke	n	n/a
289.3495	0.1345	578699	keystroke	d	n/a
289.469	0.136	578938	keystroke	e	n/a
289.5895	0.1805	579179	keystroke	r	n/a
289.7395	0.1655	579479	keystroke	s	n/a
289.86	0.0895	579720	keystroke	t	n/a
290.0095	0.045	580019	keystroke	a	n/a
290.1145	0.059	580229	keystroke	n	n/a
290.204	0.0595	580408	keystroke	d	n/a
290.31	0.1185	580620	keystroke	i	n/a
290.3695	0.089	580739	keystroke	n	n/a
290.474	0.045	580948	keystroke	g	n/a
290.534	0.09	581068	keystroke	Key.space	n/a
290.6845	0.0895	581369	keystroke	e	n/a
290.864	0.0905	581728	keystroke	x	n/a
290.909	0.075	581818	keystroke	c	n/a
291.134	0.06	582268	keystroke	i	n/a
291.254	0.091	582508	keystroke	t	n/a
291.3455	0.1485	582691	keystroke	e	n/a
291.4645	0.0895	582929	keystroke	d	n/a
291.584	0.06	583168	keystroke	Key.enter	n/a
291.6495	5.4115	583299	prompt	n/a	membrane atlas knights cotton\n
292.3345	0.059	584669	keystroke	m	n/a
292.4395	0.075	584879	keystroke	e	n/a
292.5445	0.075	585089	keystroke	m	n/a
292.634	0.075	585268	keystroke	b	n/a
292.8135	0.0905	585627	keystroke	r	n/a
292.8885	0.061	585777	keystroke	a	n/a
293.0385	0.0605	586077	keystroke	n	n/a
293.1445	0.075	586289	keystroke	e	n/a
293.2645	0.0745	586529	keystroke	Key.space	n/a
293.7445	0.09	587489	keystroke	a	n/a
294.059	0.0905	588118	keystroke	t	n/a
294.2545	0.12	588509	keystroke	l	n/a
294.4045	0.09	588809	keystroke	a	n/a
294.4495	0.105	588899	keystroke	s	n/a
294.689	0.0595	589378	keystroke	Key.space	n/a
294.9445	0.12	589889	keystroke	k	n/a
295.0795	0.075	590159	keystroke	n	n/a
295.2735	0.0755	590547	keystroke	i	n/a
295.334	0.0905	590668	keystroke	g	n/a
295.4995	0.0755	590999	keystroke	h	n/a
295.5595	0.045	591119	keystroke	t	n/a
295.7095	0.09	591419	keystroke	s	n/a
295.7685	0.046	591537	keystroke	Key.space	n/a
296.2345	0.045	592469	keystroke	c	n/a
296.3095	0.075	592619	keystroke	o	n/a
296.4895	0.03	592979	keystroke	t	n/a
296.5645	0.1045	593129	keystroke	t	n/a
296.714	0.0895	593428	keystroke	o	n/a
296.7895	0.0445	593579	keystroke	n	n/a
296.969	0.09	593938	keystroke	Key.enter	n/a
297.066	5.89	594132	prompt	n/a	gaps inclusive trades isolation\n
297.7195	0.045	595439	keystroke	g	n/a
297.795	0.1035	595590	keystroke	a	n/a
297.9145	0.0595	595829	keystroke	p	n/a
298.1385	0.076	596277	keystroke	s	n/a
298.2735	0.06	596547	keystroke	Key.space	n/a
298.4695	0.075	596939	keystroke	i	n/a
298.5145	0.044	597029	keystroke	n	n/a
298.619	0.0605	597238	keystroke	c	n/a
298.7235	0.0905	597447	keystroke	l	n/a
298.7685	0.06	597537	keystroke	u	n/a
298.8595	0.119	597719	keystroke	d	n/a
299.504	0.15	599008	keystroke	Key.backspace	n/a
299.669	0.016	599338	keystroke	s	n/a
299.699	0.06	599398	keystroke	i	n/a
299.774	0.076	599548	keystroke	v	n/a
299.819	0.09	599638	keystroke	e	n/a
299.954	0.09	599908	keystroke	Key.space	n/a
300.194	0.105	600388	keystroke	t	n/a
300.314	0.12	600628	keystroke	r	n/a
300.39	0.1195	600780	keystroke	a	n/a
300.524	0.2105	601048	keystroke	d	n/a
300.629	0.1205	601258	keystroke	e	n/a
300.824	0.135	601648	keystroke	s	n/a
301.0345	0.0595	602069	keystroke	Key.space	n/a
301.2295	0.045	602459	keystroke	i	n/a
301.394	0.0755	602788	keystroke	s	n/a
301.5295	0.0595	603059	keystroke	o	n/a
301.679	0.075	603358	keystroke	l	n/a
301.799	0.09	603598	keystroke	a	n/a
301.874	0.0605	603748	keystroke	t	n/a
302.4295	0.09	604859	keystroke	i	n/a
302.4885	0.061	604977	keystroke	o	n/a
302.504	0.0305	605008	keystroke	n	n/a
302.8785	0.075	605757	keystroke	Key.enter	n/a
302.9625	7.658	605925	prompt	n/a	resulted assault dennis calculate\n
303.8685	0.03	607737	keystroke	Key.backspace	n/a
304.6945	0.0745	609389	keystroke	Key.backspace	n/a
304.799	0.075	609598	keystroke	Key.backspace	n/a
305.0095	0.1055	610019	keystroke	r	n/a
305.0695	0.1345	610139	keystroke	e	n/a
305.2795	0.1045	610559	keystroke	s	n/a
305.445	0.045	610890	keystroke	u	n/a
305.5345	0.0445	611069	keystroke	l	n/a
305.639	0.06	611278	keystroke	t	n/a
305.714	0.1505	611428	keystroke	e	n/a
305.835	0.089	611670	keystroke	d	n/a
305.909	0.06	611818	keystroke	Key.space	n/a
306.614	0.015	613228	keystroke	a	n/a
306.644	0.075	613288	keystroke	s	n/a
306.824	0.09	613648	keystroke	s	n/a
307.064	0.09	614128	keystroke	a	n/a
307.319	0.045	614638	keystroke	u	n/a
307.469	0.06	614938	keystroke	l	n/a
307.649	0.0755	615298	keystroke	t	n/a
307.7685	0.03	615537	keystroke	Key.space	n/a
307.9945	0.105	615989	keystroke	d	n/a
308.07	0.089	616140	keystroke	e	n/a
308.504	0.06	617008	keystroke	n	n/a
308.639	0.0905	617278	keystroke	n	n/a
308.714	0.105	617428	keystroke	i	n/a
308.8045	0.1045	617609	keystroke	s	n/a
308.939	0.075	617878	keystroke	Key.space	n/a
309.0745	0.089	618149	keystroke	c	n/a
309.1785	0.075	618357	keystroke	a	n/a
309.2995	0.089	618599	keystroke	l	n/a
309.494	0.09	618988	keystroke	c	n/a
309.5695	0.045	619139	keystroke	u	n/a
310.0195	0.015	620039	keystroke	l	n/a
310.1235	0.106	620247	keystroke	a	n/a
310.2145	0.075	620429	keystroke	t	n/a
310.3195	0.0745	620639	keystroke	e	n/a
310.559	0.06	621118	keystroke	Key.enter	n/a
310.6295	6.471	621259	prompt	n/a	how's verde tunisia goat\n
311.369	0.076	622738	keystroke	h	n/a
311.429	0.075	622858	keystroke	o	n/a
311.489	0.075	622978	keystroke	w	n/a
311.669	0.09	623338	keystroke	'	n/a
311.864	0.06	623728	keystroke	s	n/a
312.374	0.015	624748	keystroke	Key.space	n/a
312.434	0.15	624868	keystroke	v	n/a
312.524	0.12	625048	keystroke	e	n/a
312.629	0.075	625258	keystroke	r	n/a
312.869	0.0305	625738	keystroke	d	n/a
313.3045	0.075	626609	keystroke	e	n/a
313.499	0.0745	626998	keystroke	Key.space	n/a
313.83	0.0145	627660	keystroke	u	n/a
313.8745	0.06	627749	keystroke	t	n/a
314.234	0.075	628468	keystroke	Key.backspace	n/a
314.354	0.09	628708	keystroke	Key.backspace	n/a
314.459	0.06	628918	keystroke	t	n/a
314.549	0.0755	629098	keystroke	u	n/a
314.7145	0.0895	629429	keystroke	n	n/a
314.759	0.105	629518	keystroke	i	n/a
314.9095	0.0895	629819	keystroke	i	n/a
315.269	0.06	630538	keystroke	Key.backspace	n/a
315.374	0.105	630748	keystroke	s	n/a
315.464	0.09	630928	keystroke	i	n/a
315.6	0.059	631200	keystroke	a	n/a
315.719	0.045	631438	keystroke	Key.space	n/a
316.289	0.045	632578	keystroke	g	n/a
316.349	0.09	632698	keystroke	o	n/a
316.484	0.06	632968	keystroke	a	n/a
316.6795	0.0595	633359	keystroke	t	n/a
316.814	0.075	633628	keystroke	Key.space	n/a
317.039	0.06	634078	keystroke	Key.enter	n/a
317.105	10.076	634210	prompt	n/a	agreement angry clearly debate\n
317.7595	0.015	635519	keystroke	a	n/a
317.7895	0.075	635579	keystroke	g	n/a
317.984	0.1345	635968	keystroke	r	n/a
318.103	0.0605	636206	keystroke	e	n/a
318.224	0.105	636448	keystroke	e	n/a
318.374	0.06	636748	keystroke	m	n/a
318.479	0.075	636958	keystroke	e	n/a
318.5695	0.075	637139	keystroke	n	n/a
318.6885	0.061	637377	keystroke	t	n/a
319.0935	0.0595	638187	keystroke	Key.space	n/a
319.3195	0.1045	638639	keystroke	a	n/a
319.454	0.046	638908	keystroke	n	n/a
319.514	0.09	639028	keystroke	g	n/a
319.694	0.12	639388	keystroke	r	n/a
319.769	0.0905	639538	keystroke	e	n/a
319.9495	0.0295	639899	keystroke	y	n/a
319.994	0.06	639988	keystroke	Key.space	n/a
320.159	0.076	640318	keystroke	c	n/a
320.249	0.061	640498	keystroke	l	n/a
320.3545	0.1045	640709	keystroke	e	n/a
320.414	0.105	640828	keystroke	a	n/a
320.489	0.06	640978	keystroke	r	n/a
320.624	0.06	641248	keystroke	l	n/a
320.714	0.061	641428	keystroke	y	n/a
320.79	0.044	641580	keystroke	Key.space	n/a
321.119	0.075	642238	keystroke	d	n/a
321.164	0.09	642328	keystroke	e	n/a
321.36	0.0745	642720	keystroke	b	n/a
321.7345	0.0295	643469	keystroke	Key.backspace	n/a
321.8385	0.0605	643677	keystroke	Key.backspace	n/a
321.9585	0.06	643917	keystroke	Key.backspace	n/a
322.079	0.075	644158	keystroke	Key.backspace	n/a
322.229	0.06	644458	keystroke	Key.backspace	n/a
322.349	0.06	644698	keystroke	Key.backspace	n/a
322.469	0.0755	644938	keystroke	Key.backspace	n/a
322.604	0.0745	645208	keystroke	Key.backspace	n/a
322.739	0.0745	645478	keystroke	Key.backspace	n/a
322.889	0.06	645778	keystroke	Key.backspace	n/a
323.0385	0.046	646077	keystroke	Key.backspace	n/a
323.174	0.06	646348	keystroke	Key.backspace	n/a
323.309	0.105	646618	keystroke	Key.backspace	n/a
323.519	0.045	647038	keystroke	Key.backspace	n/a
323.7895	0.0445	647579	keystroke	y	n/a
323.849	0.045	647698	keystroke	Key.space	n/a
324.059	0.0595	648118	keystroke	b	n/a
324.134	0.0755	648268	keystroke	e	n/a
324.374	0.045	648748	keystroke	Key.backspace	n/a
324.4935	0.0605	648987	keystroke	Key.backspace	n/a
324.9145	0.0595	649829	keystroke	c	n/a
325.02	0.044	650040	keystroke	l	n/a
325.109	0.0905	650218	keystroke	e	n/a
325.169	0.105	650338	keystroke	a	n/a
325.259	0.0605	650518	keystroke	r	n/a
325.89	0.059	651780	keystroke	l	n/a
325.979	0.06	651958	keystroke	y	n/a
326.0685	0.061	652137	keystroke	Key.space	n/a
326.2345	0.105	652469	keystroke	d	n/a
326.3405	0.1495	652681	keystroke	e	n/a
326.5045	0.075	653009	keystroke	b	n/a
326.6395	0.135	653279	keystroke	a	n/a
326.73	0.0595	653460	keystroke	t	n/a
327.074	0.1055	654148	keystroke	Key.enter	n/a
327.1855	5.59	654371	prompt	n/a	proposal flashing messaging admit\n
327.8845	0.0595	655769	keystroke	p	n/a
328.0195	0.0595	656039	keystroke	r	n/a
328.094	0.1205	656188	keystroke	o	n/a
328.1845	0.164	656369	keystroke	p	n/a
328.3045	0.09	656609	keystroke	o	n/a
328.4535	0.0905	656907	keystroke	s	n/a
328.6335	0.075	657267	keystroke	a	n/a
328.724	0.09	657448	keystroke	l	n/a
328.889	0.0745	657778	keystroke	Key.space	n/a
329.234	0.0295	658468	keystroke	f	n/a
329.5335	0.076	659067	keystroke	l	n/a
329.685	0.134	659370	keystroke	a	n/a
329.729	0.1055	659458	keystroke	s	n/a
329.909	0.075	659818	keystroke	h	n/a
329.969	0.075	659938	keystroke	i	n/a
330.0595	0.0895	660119	keystroke	n	n/a
330.179	0.06	660358	keystroke	g	n/a
330.269	0.06	660538	keystroke	Key.space	n/a
330.554	0.06	661108	keystroke	m	n/a
330.734	0.09	661468	keystroke	e	n/a
330.974	0.0755	661948	keystroke	s	n/a
331.17	0.135	662340	keystroke	s	n/a
331.3195	0.1345	662639	keystroke	a	n/a
331.469	0.075	662938	keystroke	g	n/a
331.649	0.105	663298	keystroke	i	n/a
331.709	0.06	663418	keystroke	n	n/a
331.8005	0.0585	663601	keystroke	g	n/a
331.889	0.09	663778	keystroke	Key.space	n/a
332.054	0.12	664108	keystroke	a	n/a
332.158	0.0765	664316	keystroke	d	n/a
332.3095	0.0895	664619	keystroke	m	n/a
332.384	0.0745	664768	keystroke	i	n/a
332.5195	0.075	665039	keystroke	t	n/a
332.7135	0.06	665427	keystroke	Key.enter	n/a
332.7875	5.4035	665575	prompt	n/a	china ensure manchester has\n
333.4035	0.076	666807	keystroke	c	n/a
333.4935	0.0755	666987	keystroke	h	n/a
333.554	0.09	667108	keystroke	i	n/a
333.69	0.059	667380	keystroke	n	n/a
333.8845	0.1045	667769	keystroke	a	n/a
334.0045	0.0745	668009	keystroke	Key.space	n/a
334.6345	0.0745	669269	keystroke	e	n/a
334.694	0.061	669388	keystroke	n	n/a
334.859	0.09	669718	keystroke	s	n/a
334.964	0.0605	669928	keystroke	u	n/a
335.099	0.075	670198	keystroke	r	n/a
335.159	0.075	670318	keystroke	e	n/a
335.249	0.03	670498	keystroke	Key.space	n/a
335.7295	0.1645	671459	keystroke	a	n/a
336.1485	0.045	672297	keystroke	Key.backspace	n/a
336.3885	0.091	672777	keystroke	m	n/a
336.5245	0.135	673049	keystroke	a	n/a
336.6735	0.06	673347	keystroke	n	n/a
336.8695	0.09	673739	keystroke	c	n/a
337.005	0.0585	674010	keystroke	h	n/a
337.1545	0.09	674309	keystroke	e	n/a
337.3495	0.09	674699	keystroke	s	n/a
337.3935	0.0755	674787	keystroke	t	n/a
337.5135	0.1065	675027	keystroke	e	n/a
337.559	0.0905	675118	keystroke	r	n/a
337.679	0.06	675358	keystroke	Key.space	n/a
337.754	0.075	675508	keystroke	h	n/a
337.874	0.0755	675748	keystroke	a	n/a
337.904	0.12	675808	keystroke	s	n/a
338.129	0.06	676258	keystroke	Key.enter	n/a
338.196	5.0945	676392	prompt	n/a	nasty conspiracy faculty idle\n
338.8645	0.0595	677729	keystroke	n	n/a
338.984	0.091	677968	keystroke	a	n/a
339.164	0.12	678328	keystroke	s	n/a
339.254	0.075	678508	keystroke	t	n/a
339.374	0.075	678748	keystroke	y	n/a
339.434	0.09	678868	keystroke	Key.space	n/a
339.614	0.09	679228	keystroke	c	n/a
339.689	0.105	679378	keystroke	o	n/a
339.779	0.0605	679558	keystroke	n	n/a
339.885	0.2085	679770	keystroke	s	n/a
340.244	0.1055	680488	keystroke	p	n/a
340.409	0.075	680818	keystroke	i	n/a
340.5895	0.0595	681179	keystroke	r	n/a
340.679	0.075	681358	keystroke	a	n/a
340.979	0.076	681958	keystroke	c	n/a
341.1585	0.045	682317	keystroke	y	n/a
341.2185	0.09	682437	keystroke	Key.space	n/a
341.6095	0.0445	683219	keystroke	f	n/a
341.669	0.105	683338	keystroke	a	n/a
341.759	0.0905	683518	keystroke	c	n/a
341.939	0.0605	683878	keystroke	u	n/a
342.0295	0.09	684059	keystroke	l	n/a
342.164	0.06	684328	keystroke	t	n/a
342.299	0.0605	684598	keystroke	y	n/a
342.374	0.06	684748	keystroke	Key.space	n/a
342.749	0.0455	685498	keystroke	i	n/a
342.8395	0.1195	685679	keystroke	d	n/a
342.914	0.09	685828	keystroke	e	n/a
342.989	0.075	685978	keystroke	l	n/a
343.214	0.0745	686428	keystroke	Key.enter	n/a
343.3	9.4105	686600	prompt	n/a	chairman mixer kilometers cheap\n
343.9335	0.0755	687867	keystroke	c	n/a
344.039	0.0605	688078	keystroke	h	n/a
344.175	0.1045	688350	keystroke	a	n/a
344.309	0.09	688618	keystroke	r	n/a
344.5195	0.09	689039	keystroke	i	n/a
344.5945	0.045	689189	keystroke	m	n/a
344.8935	0.0455	689787	keystroke	Key.backspace	n/a
344.9985	0.165	689997	keystroke	Key.backspace	n/a
345.4335	0.061	690867	keystroke	Key.backspace	n/a
345.615	0.0595	691230	keystroke	i	n/a
345.87	0.029	691740	keystroke	m	n/a
346.034	0.0605	692068	keystroke	a	n/a
346.2585	0.0605	692517	keystroke	Key.backspace	n/a
346.3795	0.075	692759	keystroke	Key.backspace	n/a
346.5445	0.044	693089	keystroke	r	n/a
346.6645	0.0595	693329	keystroke	m	n/a
346.7845	0.06	693569	keystroke	a	n/a
346.8745	0.075	693749	keystroke	n	n/a
347.084	0.06	694168	keystroke	Key.space	n/a
347.714	0.09	695428	keystroke	m	n/a
347.789	0.075	695578	keystroke	i	n/a
348.2395	0.089	696479	keystroke	x	n/a
348.434	0.0895	696868	keystroke	e	n/a
348.4945	0.075	696989	keystroke	r	n/a
348.7045	0.014	697409	keystroke	Key.space	n/a
348.8385	0.06	697677	keystroke	c	n/a
349.1835	0.045	698367	keystroke	Key.backspace	n/a
349.3495	0.09	698699	keystroke	k	n/a
349.5295	0.104	699059	keystroke	i	n/a
349.6485	0.1205	699297	keystroke	l	n/a
349.859	0.165	699718	keystroke	o	n/a
350.009	0.045	700018	keystroke	m	n/a
350.6095	0.0905	701219	keystroke	e	n/a
350.789	0.1055	701578	keystroke	t	n/a
350.879	0.1205	701758	keystroke	e	n/a
350.969	0.2105	701938	keystroke	r	n/a
351.1345	0.09	702269	keystroke	s	n/a
351.3895	0.0595	702779	keystroke	Key.space	n/a
351.96	0.0745	703920	keystroke	c	n/a
352.0495	0.06	704099	keystroke	h	n/a
352.1395	0.119	704279	keystroke	e	n/a
352.2295	0.075	704459	keystroke	a	n/a
352.349	0.0595	704698	keystroke	p	n/a
352.649	0.06	705298	keystroke	Key.enter	n/a
352.7145	7.766	705429	prompt	n/a	accommodation joyce resolutions assumes\n
353.399	0.09	706798	keystroke	a	n/a
353.5795	0.1045	707159	keystroke	c	n/a
353.8035	0.0755	707607	keystroke	c	n/a
353.9095	0.1195	707819	keystroke	o	n/a
353.984	0.105	707968	keystroke	m	n/a
354.179	0.0905	708358	keystroke	m	n/a
354.374	0.09	708748	keystroke	o	n/a
354.539	0.075	709078	keystroke	d	n/a
354.72	0.104	709440	keystroke	a	n/a
354.794	0.0595	709588	keystroke	t	n/a
354.9295	0.12	709859	keystroke	i	n/a
354.9445	0.12	709889	keystroke	o	n/a
354.9895	0.09	709979	keystroke	n	n/a
355.0795	0.045	710159	keystroke	Key.space	n/a
355.484	0.09	710968	keystroke	j	n/a
355.6045	0.0595	711209	keystroke	o	n/a
355.7085	0.0605	711417	keystroke	y	n/a
355.919	0.09	711838	keystroke	c	n/a
356.024	0.0745	712048	keystroke	e	n/a
356.1585	0.0455	712317	keystroke	Key.space	n/a
356.4135	0.0905	712827	keystroke	r	n/a
356.4885	0.0905	712977	keystroke	e	n/a
356.594	0.0605	713188	keystroke	s	n/a
356.7145	0.119	713429	keystroke	l	n/a
356.819	0.0455	713638	keystroke	u	n/a
357.2385	0.0455	714477	keystroke	Key.backspace	n/a
357.344	0.0595	714688	keystroke	Key.backspace	n/a
357.539	0.0605	715078	keystroke	o	n/a
357.689	0.12	715378	keystroke	l	n/a
357.7935	0.076	715587	keystroke	u	n/a
357.9145	0.059	715829	keystroke	t	n/a
358.0785	0.0905	716157	keystroke	i	n/a
358.1085	0.09	716217	keystroke	o	n/a
358.1235	0.0605	716247	keystroke	n	n/a
358.2735	0.091	716547	keystroke	s	n/a
358.9785	0.061	717957	keystroke	Key.space	n/a
359.1445	0.074	718289	keystroke	a	n/a
359.2045	0.21	718409	keystroke	s	n/a
359.519	0.075	719038	keystroke	s	n/a
359.7295	0.06	719459	keystroke	u	n/a
359.894	0.075	719788	keystroke	m	n/a
360.044	0.075	720088	keystroke	e	n/a
360.269	0.0905	720538	keystroke	s	n/a
360.4035	0.075	720807	keystroke	Key.enter	n/a
360.4885	8.527	720977	prompt	n/a	teacher understood classified recognized\n
361.2895	0.045	722579	keystroke	t	n/a
361.3945	0.164	722789	keystroke	e	n/a
361.484	0.1805	722968	keystroke	a	n/a
361.62	0.1035	723240	keystroke	c	n/a
361.7685	0.0755	723537	keystroke	h	n/a
361.8285	0.045	723657	keystroke	Key.space	n/a
362.2045	0.0445	724409	keystroke	Key.backspace	n/a
362.309	0.0595	724618	keystroke	e	n/a
362.3535	0.076	724707	keystroke	r	n/a
362.4595	0.0445	724919	keystroke	Key.space	n/a
362.5785	0.091	725157	keystroke	u	n/a
362.8485	0.0455	725697	keystroke	n	n/a
363.0295	0.045	726059	keystroke	d	n/a
363.1645	0.0145	726329	keystroke	d	n/a
363.539	0.0145	727078	keystroke	Key.backspace	n/a
363.6585	0.045	727317	keystroke	Key.backspace	n/a
364.214	0.06	728428	keystroke	d	n/a
364.364	0.105	728728	keystroke	e	n/a
364.484	0.135	728968	keystroke	r	n/a
364.679	0.165	729358	keystroke	s	n/a
364.829	0.06	729658	keystroke	t	n/a
364.9645	0.06	729929	keystroke	o	n/a
365.1295	0.0585	730259	keystroke	o	n/a
365.174	0.06	730348	keystroke	d	n/a
365.2935	0.0595	730587	keystroke	Key.space	n/a
365.504	0.12	731008	keystroke	c	n/a
365.639	0.075	731278	keystroke	l	n/a
365.7595	0.1345	731519	keystroke	a	n/a
366.1195	0.059	732239	keystroke	s	n/a
366.2535	0.106	732507	keystroke	s	n/a
366.3605	0.059	732721	keystroke	i	n/a
366.4645	0.06	732929	keystroke	f	n/a
366.5395	0.09	733079	keystroke	i	n/a
366.6585	0.105	733317	keystroke	e	n/a
366.7485	0.075	733497	keystroke	d	n/a
366.8385	0.045	733677	keystroke	Key.space	n/a
367.724	0.0755	735448	keystroke	r	n/a
367.784	0.09	735568	keystroke	e	n/a
367.9345	0.075	735869	keystroke	c	n/a
368.0245	0.0745	736049	keystroke	o	n/a
368.189	0.06	736378	keystroke	g	n/a
368.294	0.075	736588	keystroke	n	n/a
368.339	0.09	736678	keystroke	i	n/a
368.444	0.105	736888	keystroke	z	n/a
368.474	0.12	736948	keystroke	e	n/a
368.714	0.06	737428	keystroke	d	n/a
368.954	0.059	737908	keystroke	Key.enter	n/a
369.0195	5.7415	738039	prompt	n/a	howdy affects processed swim\n
369.6595	0.0745	739319	keystroke	h	n/a
369.719	0.105	739438	keystroke	o	n/a
369.7795	0.0595	739559	keystroke	w	n/a
369.974	0.09	739948	keystroke	d	n/a
370.1985	0.0455	740397	keystroke	y	n/a
370.2285	0.06	740457	keystroke	Key.space	n/a
370.4545	0.075	740909	keystroke	a	n/a
370.5595	0.045	741119	keystroke	f	n/a
370.8135	0.1355	741627	keystroke	e	n/a
370.919	0.0905	741838	keystroke	c	n/a
371.264	0.059	742528	keystroke	Key.backspace	n/a
371.3685	0.045	742737	keystroke	Key.backspace	n/a
371.429	0.0605	742858	keystroke	f	n/a
371.5345	0.12	743069	keystroke	e	n/a
371.6395	0.075	743279	keystroke	c	n/a
371.8045	0.075	743609	keystroke	t	n/a
371.9235	0.06	743847	keystroke	s	n/a
372.044	0.06	744088	keystroke	Key.space	n/a
372.389	0.06	744778	keystroke	p	n/a
372.884	0.015	745768	keystroke	r	n/a
372.914	0.075	745828	keystroke	o	n/a
373.0185	0.1055	746037	keystroke	c	n/a
373.1085	0.075	746217	keystroke	e	n/a
373.304	0.075	746608	keystroke	s	n/a
373.439	0.105	746878	keystroke	s	n/a
373.62	0.089	747240	keystroke	e	n/a
373.68	0.074	747360	keystroke	d	n/a
373.814	0.06	747628	keystroke	Key.space	n/a
373.979	0.0905	747958	keystroke	s	n/a
374.174	0.075	748348	keystroke	w	n/a
374.3845	0.0745	748769	keystroke	i	n/a
374.503	0.031	749006	keystroke	m	n/a
374.699	0.06	749398	keystroke	Key.enter	n/a
374.765	4.8855	749530	prompt	n/a	todd sale till cameroon\n
375.4195	0.045	750839	keystroke	t	n/a
375.5095	0.059	751019	keystroke	o	n/a
375.6135	0.061	751227	keystroke	d	n/a
375.7195	0.075	751439	keystroke	d	n/a
375.839	0.0595	751678	keystroke	Key.space	n/a
375.9295	0.1495	751859	keystroke	s	n/a
376.034	0.09	752068	keystroke	a	n/a
376.139	0.09	752278	keystroke	l	n/a
376.244	0.06	752488	keystroke	e	n/a
376.3935	0.0605	752787	keystroke	Key.space	n/a
376.634	0.0595	753268	keystroke	t	n/a
376.8135	0.06	753627	keystroke	i	n/a
377.068	0.06	754136	keystroke	l	n/a
377.2195	0.104	754439	keystroke	l	n/a
377.474	0.0595	754948	keystroke	Key.space	n/a
377.939	0.1205	755878	keystroke	c	n/a
378.0445	0.075	756089	keystroke	a	n/a
378.2235	0.0605	756447	keystroke	m	n/a
378.359	0.09	756718	keystroke	e	n/a
378.419	0.09	756838	keystroke	r	n/a
378.809	0.285	757618	keystroke	o	n/a
379.259	0.105	758518	keystroke	o	n/a
379.334	0.0755	758668	keystroke	n	n/a
379.589	0.0595	759178	keystroke	Key.enter	n/a
379.6585	4.492	759317	prompt	n/a	incidents tide bigger clearly\n
380.3235	0.121	760647	keystroke	i	n/a
380.3845	0.0755	760769	keystroke	n	n/a
380.5345	0.09	761069	keystroke	c	n/a
380.6395	0.075	761279	keystroke	i	n/a
380.7445	0.149	761489	keystroke	d	n/a
380.834	0.1055	761668	keystroke	e	n/a
381.0135	0.0605	762027	keystroke	n	n/a
381.178	0.046	762356	keystroke	t	n/a
381.449	0.0595	762898	keystroke	s	n/a
381.5985	0.0605	763197	keystroke	Key.space	n/a
381.839	0.045	763678	keystroke	t	n/a
381.929	0.06	763858	keystroke	i	n/a
382.034	0.1355	764068	keystroke	d	n/a
382.1235	0.091	764247	keystroke	e	n/a
382.2585	0.06	764517	keystroke	Key.space	n/a
382.3785	0.045	764757	keystroke	b	n/a
382.4845	0.059	764969	keystroke	i	n/a
382.619	0.0605	765238	keystroke	g	n/a
382.7235	0.135	765447	keystroke	g	n/a
382.8295	0.104	765659	keystroke	e	n/a
382.8895	0.089	765779	keystroke	r	n/a
383.0085	0.045	766017	keystroke	Key.space	n/a
383.1745	0.0595	766349	keystroke	c	n/a
383.264	0.0745	766528	keystroke	l	n/a
383.354	0.12	766708	keystroke	e	n/a
383.4285	0.1055	766857	keystroke	a	n/a
383.504	0.0755	767008	keystroke	r	n/a
383.715	0.059	767430	keystroke	l	n/a
383.804	0.03	767608	keystroke	y	n/a
384.074	0.075	768148	keystroke	Key.enter	n/a
384.156	7.299	768312	prompt	n/a	exotic attended carefully identifier\n
384.779	0.0455	769558	keystroke	e	n/a
384.944	0.12	769888	keystroke	x	n/a
385.109	0.0445	770218	keystroke	o	n/a
385.2745	0.044	770549	keystroke	t	n/a
385.363	0.061	770726	keystroke	i	n/a
385.484	0.045	770968	keystroke	c	n/a
385.604	0.075	771208	keystroke	Key.space	n/a
386.174	0.09	772348	keystroke	a	n/a
386.3395	0.1195	772679	keystroke	t	n/a
386.534	0.1055	773068	keystroke	t	n/a
386.654	0.1045	773308	keystroke	e	n/a
386.8185	0.0605	773637	keystroke	n	n/a
386.9085	0.06	773817	keystroke	d	n/a
387.3135	0.1205	774627	keystroke	e	n/a
387.389	0.075	774778	keystroke	d	n/a
387.524	0.0445	775048	keystroke	Key.space	n/a
387.794	0.09	775588	keystroke	c	n/a
387.9145	0.1045	775829	keystroke	a	n/a
388.02	0.089	776040	keystroke	r	n/a
388.064	0.1195	776128	keystroke	e	n/a
388.229	0.06	776458	keystroke	f	n/a
388.3645	0.06	776729	keystroke	u	n/a
388.5285	0.061	777057	keystroke	l	n/a
388.6645	0.134	777329	keystroke	l	n/a
388.7685	0.045	777537	keystroke	y	n/a
388.829	0.045	777658	keystroke	Key.space	n/a
389.5795	0.0445	779159	keystroke	i	n/a
389.6085	0.226	779217	keystroke	d	n/a
389.7585	0.091	779517	keystroke	e	n/a
389.9245	0.059	779849	keystroke	n	n/a
390.073	0.076	780146	keystroke	t	n/a
390.254	0.059	780508	keystroke	i	n/a
390.374	0.0905	780748	keystroke	f	n/a
390.389	0.12	780778	keystroke	i	n/a
390.569	0.134	781138	keystroke	e	n/a
390.674	0.09	781348	keystroke	d	n/a
391.0935	0.045	782187	keystroke	Key.backspace	n/a
391.1695	0.104	782339	keystroke	r	n/a
391.3935	0.06	782787	keystroke	Key.enter	n/a
391.466	8.029	782932	prompt	n/a	headphones paragraph alphabetical intend\n
392.1435	0.0455	784287	keystroke	h	n/a
392.219	0.06	784438	keystroke	d	n/a
392.264	0.1945	784528	keystroke	e	n/a
392.3985	0.1205	784797	keystroke	a	n/a
392.5335	0.046	785067	keystroke	d	n/a
392.699	0.0745	785398	keystroke	Key.backspace	n/a
392.8185	0.06	785637	keystroke	Key.backspace	n/a
392.9395	0.0595	785879	keystroke	Key.backspace	n/a
393.0445	0.075	786089	keystroke	Key.backspace	n/a
393.1495	0.1195	786299	keystroke	e	n/a
393.209	0.1495	786418	keystroke	a	n/a
393.3285	0.18	786657	keystroke	d	n/a
393.7335	0.09	787467	keystroke	p	n/a
393.8535	0.12	787707	keystroke	h	n/a
393.9895	0.1045	787979	keystroke	o	n/a
394.0795	0.074	788159	keystroke	n	n/a
394.199	0.09	788398	keystroke	e	n/a
394.3635	0.09	788727	keystroke	s	n/a
394.4685	0.045	788937	keystroke	Key.space	n/a
394.7835	0.076	789567	keystroke	p	n/a
394.9185	0.091	789837	keystroke	a	n/a
394.9785	0.076	789957	keystroke	r	n/a
395.0995	0.119	790199	keystroke	a	n/a
395.2935	0.076	790587	keystroke	g	n/a
395.4295	0.12	790859	keystroke	r	n/a
395.5345	0.075	791069	keystroke	a	n/a
395.6245	0.089	791249	keystroke	p	n/a
395.6985	0.061	791397	keystroke	h	n/a
395.9535	0.046	791907	keystroke	Key.space	n/a
396.239	0.0755	792478	keystroke	a	n/a
396.3435	0.09	792687	keystroke	l	n/a
396.5985	0.09	793197	keystroke	p	n/a
396.7035	0.06	793407	keystroke	h	n/a
396.9145	0.06	793829	keystroke	a	n/a
397.3185	0.06	794637	keystroke	b	n/a
397.3935	0.075	794787	keystroke	e	n/a
397.529	0.0595	795058	keystroke	t	n/a
397.754	0.0455	795508	keystroke	i	n/a
397.8445	0.0895	795689	keystroke	c	n/a
397.949	0.0595	795898	keystroke	a	n/a
398.0535	0.0905	796107	keystroke	l	n/a
398.474	0.045	796948	keystroke	Key.space	n/a
398.684	0.075	797368	keystroke	i	n/a
398.744	0.06	797488	keystroke	n	n/a
398.923	0.016	797846	keystroke	t	n/a
398.969	0.075	797938	keystroke	e	n/a
399.119	0.06	798238	keystroke	n	n/a
399.2685	0.0595	798537	keystroke	d	n/a
399.419	0.0745	798838	keystroke	Key.enter	n/a
399.5055	6.9795	799011	prompt	n/a	threshold lingerie photographers grows\n
400.1085	0.075	800217	keystroke	t	n/a
400.2895	0.045	800579	keystroke	h	n/a
400.3485	0.1055	800697	keystroke	r	n/a
400.4245	0.074	800849	keystroke	e	n/a
400.6045	0.089	801209	keystroke	s	n/a
400.7685	0.0605	801537	keystroke	h	n/a
400.8445	0.074	801689	keystroke	o	n/a
401.0095	0.0745	802019	keystroke	l	n/a
401.1145	0.0595	802229	keystroke	d	n/a
401.219	0.045	802438	keystroke	Key.space	n/a
401.924	0.0895	803848	keystroke	l	n/a
401.9845	0.1345	803969	keystroke	i	n/a
402.164	0.09	804328	keystroke	n	n/a
402.373	0.136	804746	keystroke	g	n/a
402.479	0.135	804958	keystroke	e	n/a
402.569	0.105	805138	keystroke	r	n/a
402.899	0.045	805798	keystroke	i	n/a
403.064	0.06	806128	keystroke	e	n/a
403.259	0.03	806518	keystroke	Key.space	n/a
403.5885	0.0755	807177	keystroke	p	n/a
403.7395	0.075	807479	keystroke	h	n/a
403.8285	0.1055	807657	keystroke	o	n/a
404.054	0.0595	808108	keystroke	t	n/a
404.3235	0.0455	808647	keystroke	o	n/a
404.4135	0.0455	808827	keystroke	g	n/a
404.534	0.105	809068	keystroke	r	n/a
404.624	0.075	809248	keystroke	a	n/a
404.834	0.075	809668	keystroke	p	n/a
404.894	0.06	809788	keystroke	h	n/a
405.029	0.09	810058	keystroke	e	n/a
405.089	0.1655	810178	keystroke	r	n/a
405.209	0.1195	810418	keystroke	s	n/a
405.3435	0.06	810687	keystroke	Key.space	n/a
405.5995	0.12	811199	keystroke	g	n/a
405.869	0.06	811738	keystroke	r	n/a
406.018	0.0615	812036	keystroke	o	n/a
406.0935	0.0455	812187	keystroke	w	n/a
406.2285	0.061	812457	keystroke	s	n/a
406.4385	0.045	812877	keystroke	Key.enter	n/a
406.4895	6.7155	812979	prompt	n/a	minimal fight proved acquisitions\n
407.0695	0.149	814139	keystroke	m	n/a
407.2195	0.014	814439	keystroke	i	n/a
407.249	0.09	814498	keystroke	n	n/a
407.3235	0.09	814647	keystroke	i	n/a
407.5345	0.06	815069	keystroke	m	n/a
407.729	0.0445	815458	keystroke	a	n/a
407.8345	0.0745	815669	keystroke	l	n/a
408.044	0.0595	816088	keystroke	Key.space	n/a
408.2695	0.0445	816539	keystroke	f	n/a
408.344	0.0755	816688	keystroke	i	n/a
408.449	0.075	816898	keystroke	g	n/a
408.509	0.075	817018	keystroke	h	n/a
408.6295	0.03	817259	keystroke	t	n/a
408.6885	0.0455	817377	keystroke	Key.space	n/a
408.764	0.0755	817528	keystroke	p	n/a
409.0185	0.06	818037	keystroke	r	n/a
409.0935	0.06	818187	keystroke	o	n/a
409.1985	0.1055	818397	keystroke	v	n/a
409.319	0.045	818638	keystroke	i	n/a
409.3345	0.0455	818669	keystroke	d	n/a
409.768	0.061	819536	keystroke	Key.backspace	n/a
409.873	0.0755	819746	keystroke	Key.backspace	n/a
409.919	0.0745	819838	keystroke	e	n/a
409.979	0.0755	819958	keystroke	d	n/a
410.084	0.045	820168	keystroke	Key.space	n/a
410.504	0.12	821008	keystroke	a	n/a
410.7745	0.044	821549	keystroke	c	n/a
411.1485	0.075	822297	keystroke	q	n/a
411.284	0.045	822568	keystroke	u	n/a
411.929	0.09	823858	keystroke	i	n/a
412.1545	0.075	824309	keystroke	s	n/a
412.3035	0.0455	824607	keystroke	i	n/a
412.4545	0.06	824909	keystroke	t	n/a
412.5295	0.1045	825059	keystroke	i	n/a
412.5605	0.0885	825121	keystroke	o	n/a
412.604	0.06	825208	keystroke	n	n/a
412.709	0.0905	825418	keystroke	s	n/a
413.144	0.059	826288	keystroke	Key.enter	n/a
413.212	7.4035	826424	prompt	n/a	antique boulevard candles represented\n
413.804	0.09	827608	keystroke	a	n/a
413.9695	0.029	827939	keystroke	n	n/a
414.1195	0.045	828239	keystroke	t	n/a
414.269	0.0595	828538	keystroke	i	n/a
414.284	0.06	828568	keystroke	q	n/a
414.4485	0.0605	828897	keystroke	u	n/a
414.6285	0.0605	829257	keystroke	e	n/a
414.7785	0.045	829557	keystroke	Key.space	n/a
415.2885	0.0605	830577	keystroke	b	n/a
415.409	0.15	830818	keystroke	o	n/a
415.484	0.09	830968	keystroke	u	n/a
415.604	0.06	831208	keystroke	l	n/a
415.739	0.12	831478	keystroke	e	n/a
415.873	0.061	831746	keystroke	v	n/a
415.949	0.09	831898	keystroke	e	n/a
416.4135	0.09	832827	keystroke	a	n/a
416.6685	0.045	833337	keystroke	Key.backspace	n/a
416.774	0.0745	833548	keystroke	Key.backspace	n/a
416.864	0.1195	833728	keystroke	a	n/a
416.9385	0.06	833877	keystroke	r	n/a
417.0295	0.075	834059	keystroke	d	n/a
417.2685	0.03	834537	keystroke	Key.space	n/a
417.5235	0.0605	835047	keystroke	c	n/a
417.7335	0.09	835467	keystroke	a	n/a
417.8835	0.0455	835767	keystroke	n	n/a
417.945	0.148	835890	keystroke	d	n/a
418.064	0.074	836128	keystroke	e	n/a
418.168	0.0615	836336	keystroke	l	n/a
418.4535	0.0605	836907	keystroke	Key.backspace	n/a
418.5735	0.075	837147	keystroke	Key.backspace	n/a
418.754	0.0605	837508	keystroke	l	n/a
418.8295	0.09	837659	keystroke	e	n/a
418.9935	0.09	837987	keystroke	s	n/a
419.144	0.0595	838288	keystroke	Key.space	n/a
419.264	0.1045	838528	keystroke	r	n/a
419.3385	0.061	838677	keystroke	e	n/a
419.4735	0.06	838947	keystroke	p	n/a
419.5495	0.12	839099	keystroke	r	n/a
419.6395	0.059	839279	keystroke	e	n/a
419.7735	0.091	839547	keystroke	s	n/a
419.9535	0.045	839907	keystroke	e	n/a
420.0735	0.076	840147	keystroke	n	n/a
420.1945	0.0595	840389	keystroke	t	n/a
420.284	0.15	840568	keystroke	e	n/a
420.3895	0.0735	840779	keystroke	d	n/a
420.5235	0.0895	841047	keystroke	Key.enter	n/a
420.6245	5.661	841249	prompt	n/a	memorabilia ease kids counseling\n
421.229	0.0445	842458	keystroke	m	n/a
421.3335	0.09	842667	keystroke	e	n/a
421.4985	0.09	842997	keystroke	m	n/a
421.574	0.0605	843148	keystroke	o	n/a
421.7685	0.0755	843537	keystroke	r	n/a
421.859	0.0895	843718	keystroke	a	n/a
422.774	0.045	845548	keystroke	b	n/a
422.924	0.0755	845848	keystroke	i	n/a
422.984	0.1805	845968	keystroke	l	n/a
423.1045	0.0745	846209	keystroke	i	n/a
423.2245	0.044	846449	keystroke	a	n/a
423.359	0.0445	846718	keystroke	Key.space	n/a
424.0495	0.075	848099	keystroke	e	n/a
424.0785	0.195	848157	keystroke	a	n/a
424.2285	0.105	848457	keystroke	s	n/a
424.379	0.0905	848758	keystroke	e	n/a
424.4985	0.0755	848997	keystroke	Key.space	n/a
424.7545	0.059	849509	keystroke	k	n/a
424.8885	0.075	849777	keystroke	i	n/a
424.9935	0.1055	849987	keystroke	d	n/a
425.0535	0.105	850107	keystroke	s	n/a
425.144	0.045	850288	keystroke	Key.space	n/a
425.2635	0.075	850527	keystroke	c	n/a
425.3535	0.1055	850707	keystroke	o	n/a
425.4135	0.06	850827	keystroke	u	n/a
425.5645	0.06	851129	keystroke	n	n/a
425.6385	0.105	851277	keystroke	s	n/a
425.7895	0.1045	851579	keystroke	e	n/a
425.9095	0.0595	851819	keystroke	l	n/a
425.9545	0.075	851909	keystroke	i	n/a
425.9845	0.045	851969	keystroke	n	n/a
426.0745	0.06	852149	keystroke	g	n/a
426.2235	0.06	852447	keystroke	Key.enter	n/a
426.2945	8.226	852589	prompt	n/a	possibilities solely kenneth idaho\n
426.9135	0.0155	853827	keystroke	p	n/a
427.0635	0.075	854127	keystroke	o	n/a
427.2595	0.06	854519	keystroke	s	n/a
427.4085	0.091	854817	keystroke	s	n/a
427.529	0.0595	855058	keystroke	i	n/a
427.6335	0.0455	855267	keystroke	b	n/a
427.6935	0.091	855387	keystroke	i	n/a
427.7535	0.1655	855507	keystroke	l	n/a
427.8745	0.2245	855749	keystroke	i	n/a
428.114	0.06	856228	keystroke	t	n/a
428.159	0.09	856318	keystroke	i	n/a
428.354	0.105	856708	keystroke	e	n/a
428.519	0.0755	857038	keystroke	s	n/a
428.6985	0.045	857397	keystroke	Key.space	n/a
428.9985	0.045	857997	keystroke	Key.backspace	n/a
429.1185	0.0605	858237	keystroke	Key.backspace	n/a
429.239	0.0595	858478	keystroke	Key.backspace	n/a
429.3735	0.045	858747	keystroke	Key.backspace	n/a
430.364	0.014	860728	keystroke	i	n/a
430.498	0.105	860996	keystroke	e	n/a
430.679	0.075	861358	keystroke	s	n/a
430.783	0.061	861566	keystroke	Key.space	n/a
430.994	0.06	861988	keystroke	s	n/a
431.084	0.0595	862168	keystroke	o	n/a
431.234	0.0905	862468	keystroke	l	n/a
431.339	0.074	862678	keystroke	e	n/a
432.1035	0.09	864207	keystroke	l	n/a
432.2085	0.061	864417	keystroke	y	n/a
432.3435	0.075	864687	keystroke	Key.space	n/a
432.5535	0.076	865107	keystroke	k	n/a
432.6735	0.075	865347	keystroke	e	n/a
432.8235	0.046	865647	keystroke	n	n/a
432.959	0.0605	865918	keystroke	n	n/a
433.0495	0.0595	866099	keystroke	e	n/a
433.169	0.075	866338	keystroke	t	n/a
433.274	0.0445	866548	keystroke	h	n/a
433.349	0.0595	866698	keystroke	Key.space	n/a
433.5295	0.06	867059	keystroke	i	n/a
433.6495	0.1345	867299	keystroke	d	n/a
433.769	0.105	867538	keystroke	a	n/a
434.2035	0.06	868407	keystroke	h	n/a
434.2795	0.06	868559	keystroke	o	n/a
434.4735	0.045	868947	keystroke	Key.enter	n/a
434.5275	6.533	869055	prompt	n/a	bold joins defeat somewhat\n
435.2695	0.044	870539	keystroke	b	n/a
435.3735	0.06	870747	keystroke	o	n/a
435.509	0.1055	871018	keystroke	l	n/a
435.6745	0.059	871349	keystroke	d	n/a
435.7635	0.075	871527	keystroke	Key.space	n/a
435.9295	0.1345	871859	keystroke	j	n/a
436.0195	0.164	872039	keystroke	o	n/a
436.124	0.1505	872248	keystroke	i	n/a
436.2435	0.091	872487	keystroke	n	n/a
436.4835	0.1055	872967	keystroke	s	n/a
436.6185	0.075	873237	keystroke	Key.space	n/a
436.7395	0.1485	873479	keystroke	d	n/a
436.844	0.105	873688	keystroke	e	n/a
437.399	0.0905	874798	keystroke	f	n/a
437.474	0.135	874948	keystroke	e	n/a
437.549	0.135	875098	keystroke	a	n/a
437.639	0.075	875278	keystroke	t	n/a
438.059	0.0595	876118	keystroke	Key.space	n/a
438.2395	0.0595	876479	keystroke	s	n/a
438.3135	0.135	876627	keystroke	o	n/a
438.389	0.09	876778	keystroke	m	n/a
438.4635	0.0455	876927	keystroke	e	n/a
438.584	0.0445	877168	keystroke	w	n/a
438.6885	0.06	877377	keystroke	h	n/a
438.7635	0.045	877527	keystroke	e	n/a
438.7785	0.1345	877557	keystroke	a	n/a
438.899	0.0745	877798	keystroke	t	n/a
439.5285	0.075	879057	keystroke	Key.backspace	n/a
439.6185	0.015	879237	keystroke	Key.backspace	n/a
439.678	0.075	879356	keystroke	Key.backspace	n/a
439.829	0.075	879658	keystroke	Key.backspace	n/a
440.7145	0.0445	881429	keystroke	h	n/a
440.744	0.105	881488	keystroke	a	n/a
440.819	0.06	881638	keystroke	t	n/a
440.998	0.0605	881996	keystroke	Key.enter	n/a
441.0665	6.984	882133	prompt	n/a	feeding occupied senior hats\n
441.8235	0.075	883647	keystroke	f	n/a
441.9295	0.269	883859	keystroke	e	n/a
442.169	0.0745	884338	keystroke	d	n/a
442.3635	0.0905	884727	keystroke	i	n/a
442.4245	0.015	884849	keystroke	n	n/a
442.6485	0.045	885297	keystroke	Key.backspace	n/a
442.7685	0.0605	885537	keystroke	Key.backspace	n/a
442.889	0.1045	885778	keystroke	e	n/a
442.919	0.0295	885838	keystroke	Key.backspace	n/a
442.9345	0.075	885869	keystroke	d	n/a
443.2785	0.075	886557	keystroke	Key.backspace	n/a
443.669	0.045	887338	keystroke	Key.backspace	n/a
443.7745	0.059	887549	keystroke	e	n/a
443.819	0.0745	887638	keystroke	d	n/a
443.9385	0.0905	887877	keystroke	i	n/a
443.999	0.0605	887998	keystroke	n	n/a
444.119	0.0455	888238	keystroke	g	n/a
444.209	0.06	888418	keystroke	Key.space	n/a
444.509	0.075	889018	keystroke	o	n/a
444.629	0.105	889258	keystroke	c	n/a
444.794	0.12	889588	keystroke	c	n/a
444.944	0.06	889888	keystroke	u	n/a
