onset	duration	sample	value	key	prompt_text
1.1455	13.433	2291	prompt	n/a	the quick brown fox jumps over a lazy dog\n
3.674	0.113	7348	keystroke	t	n/a
3.897	0.093	7794	keystroke	h	n/a
4.012	0.07	8024	keystroke	e	n/a
4.127	0.092	8254	keystroke	Key.space	n/a
4.337	0.163	8674	keystroke	q	n/a
4.603	0.094	9206	keystroke	u	n/a
4.784	0.093	9568	keystroke	i	n/a
4.979	0.113	9958	keystroke	c	n/a
5.169	0.116	10338	keystroke	k	n/a
5.286	0.114	10572	keystroke	Key.space	n/a
5.502	0.091	11004	keystroke	b	n/a
5.672	0.113	11344	keystroke	r	n/a
5.807	0.1355	11614	keystroke	o	n/a
5.9445	0.112	11889	keystroke	w	n/a
6.0575	0.137	12115	keystroke	n	n/a
6.1955	0.09	12391	keystroke	Key.space	n/a
6.821	0.091	13642	keystroke	f	n/a
6.996	0.07	13992	keystroke	o	n/a
7.305	0.137	14610	keystroke	x	n/a
7.443	0.113	14886	keystroke	Key.space	n/a
7.686	0.094	15372	keystroke	j	n/a
7.843	0.092	15686	keystroke	u	n/a
8.068	0.094	16136	keystroke	m	n/a
8.257	0.093	16514	keystroke	p	n/a
8.372	0.138	16744	keystroke	s	n/a
8.439	0.096	16878	keystroke	Key.space	n/a
8.565	0.117	17130	keystroke	o	n/a
8.82	0.117	17640	keystroke	b	n/a
8.938	0.134	17876	keystroke	e	n/a
9.16	0.069	18320	keystroke	r	n/a
9.37	0.094	18740	keystroke	Key.backspace	n/a
9.557	0.068	19114	keystroke	Key.backspace	n/a
9.719	0.048	19438	keystroke	Key.backspace	n/a
10.185	0.092	20370	keystroke	v	n/a
10.299	0.093	20598	keystroke	e	n/a
10.488	0.069	20976	keystroke	r	n/a
10.558	0.091	21116	keystroke	Key.space	n/a
10.718	0.092	21436	keystroke	t	n/a
10.914	0.092	21828	keystroke	h	n/a
11.007	0.068	22014	keystroke	e	n/a
11.077	0.113	22154	keystroke	Key.space	n/a
11.292	0.093	22584	keystroke	l	n/a
11.453	0.16	22906	keystroke	a	n/a
11.763	0.159	23526	keystroke	z	n/a
11.899	0.091	23798	keystroke	y	n/a
12.012	0.1135	24024	keystroke	Key.space	n/a
12.1975	0.093	24395	keystroke	d	n/a
12.3505	0.182	24701	keystroke	o	n/a
12.9375	0.159	25875	keystroke	g	n/a
14.4185	0.1575	28837	keystroke	Key.enter	n/a
14.5825	6.7055	29165	prompt	n/a	consist mime plasma choices\n
15.592	0.137	31184	keystroke	c	n/a
15.763	0.138	31526	keystroke	o	n/a
16.052	0.139	32104	keystroke	n	n/a
16.2175	0.159	32435	keystroke	s	n/a
16.3775	0.135	32755	keystroke	i	n/a
16.5345	0.137	33069	keystroke	s	n/a
16.7205	0.16	33441	keystroke	t	n/a
16.9375	0.115	33875	keystroke	Key.space	n/a
17.4775	0.137	34955	keystroke	m	n/a
17.6865	0.09	35373	keystroke	i	n/a
17.8445	0.157	35689	keystroke	m	n/a
17.9775	0.137	35955	keystroke	e	n/a
18.1155	0.09	36231	keystroke	Key.space	n/a
18.4905	0.137	36981	keystroke	p	n/a
18.6855	0.116	37371	keystroke	l	n/a
18.8025	0.16	37605	keystroke	a	n/a
18.9855	0.136	37971	keystroke	s	n/a
19.1445	0.095	38289	keystroke	m	n/a
19.2405	0.113	38481	keystroke	a	n/a
19.3545	0.09	38709	keystroke	Key.space	n/a
19.8785	0.139	39757	keystroke	c	n/a
20.0955	0.113	40191	keystroke	h	n/a
20.3435	0.203	40687	keystroke	o	n/a
20.5235	0.069	41047	keystroke	i	n/a
20.5685	0.115	41137	keystroke	c	n/a
20.8155	0.092	41631	keystroke	e	n/a
21.0335	0.136	42067	keystroke	s	n/a
21.1915	0.094	42383	keystroke	Key.enter	n/a
21.2905	8.972	42581	prompt	n/a	lobby thai relationship hero\n
22.154	0.14	44308	keystroke	l	n/a
22.387	0.092	44774	keystroke	o	n/a
22.676	0.092	45352	keystroke	b	n/a
22.8335	0.1135	45667	keystroke	b	n/a
23.034	0.095	46068	keystroke	y	n/a
23.163	0.116	46326	keystroke	Key.space	n/a
23.688	0.09	47376	keystroke	t	n/a
23.893	0.091	47786	keystroke	h	n/a
23.985	0.1575	47970	keystroke	a	n/a
24.1435	0.182	48287	keystroke	i	n/a
24.3015	0.137	48603	keystroke	Key.space	n/a
24.8885	0.135	49777	keystroke	r	n/a
25.1215	0.114	50243	keystroke	e	n/a
25.5255	0.138	51051	keystroke	l	n/a
25.6845	0.159	51369	keystroke	a	n/a
25.8815	0.046	51763	keystroke	s	n/a
26.3715	0.157	52743	keystroke	Key.backspace	n/a
27.1355	0.093	54271	keystroke	t	n/a
27.4095	0.114	54819	keystroke	i	n/a
27.561	0.1125	55122	keystroke	o	n/a
27.7805	0.093	55561	keystroke	n	n/a
27.9205	0.139	55841	keystroke	s	n/a
28.0345	0.094	56069	keystroke	h	n/a
28.2565	0.159	56513	keystroke	i	n/a
28.49	0.158	56980	keystroke	p	n/a
28.671	0.094	57342	keystroke	Key.space	n/a
29.445	0.115	58890	keystroke	h	n/a
29.583	0.115	59166	keystroke	e	n/a
29.803	0.114	59606	keystroke	r	n/a
29.954	0.117	59908	keystroke	o	n/a
30.195	0.066	60390	keystroke	Key.enter	n/a
30.2685	8.8665	60537	prompt	n/a	striking tion tons melissa\n
30.9215	0.159	61843	keystroke	s	n/a
31.2115	0.094	62423	keystroke	t	n/a
31.3835	0.069	62767	keystroke	r	n/a
31.7495	0.16	63499	keystroke	o	n/a
32.1855	0.114	64371	keystroke	Key.backspace	n/a
32.3975	0.137	64795	keystroke	i	n/a
32.623	0.094	65246	keystroke	k	n/a
32.814	0.092	65628	keystroke	i	n/a
33.874	0.1145	67748	keystroke	n	n/a
34.0865	0.094	68173	keystroke	g	n/a
34.2185	0.093	68437	keystroke	Key.space	n/a
35.0375	0.091	70075	keystroke	t	n/a
35.3675	0.115	70735	keystroke	i	n/a
35.5265	0.115	71053	keystroke	o	n/a
35.7645	0.183	71529	keystroke	n	n/a
35.9485	0.111	71897	keystroke	Key.space	n/a
36.3805	0.094	72761	keystroke	t	n/a
36.661	0.139	73322	keystroke	o	n/a
36.873	0.116	73746	keystroke	n	n/a
37.103	0.16	74206	keystroke	s	n/a
37.299	0.1195	74598	keystroke	Key.space	n/a
37.5345	0.091	75069	keystroke	m	n/a
37.6555	0.158	75311	keystroke	e	n/a
37.9465	0.16	75893	keystroke	l	n/a
38.4225	0.093	76845	keystroke	i	n/a
38.5675	0.112	77135	keystroke	s	n/a
38.7275	0.1355	77455	keystroke	s	n/a
38.906	0.136	77812	keystroke	a	n/a
39.018	0.116	78036	keystroke	Key.enter	n/a
39.1385	9.238	78277	prompt	n/a	newcastle nitrogen frog adoption\n
39.94	0.114	79880	keystroke	n	n/a
40.109	0.137	80218	keystroke	e	n/a
40.343	0.114	80686	keystroke	w	n/a
40.545	0.114	81090	keystroke	c	n/a
40.683	0.186	81366	keystroke	a	n/a
40.846	0.137	81692	keystroke	s	n/a
41.006	0.093	82012	keystroke	t	n/a
41.263	0.161	82526	keystroke	l	n/a
41.449	0.115	82898	keystroke	e	n/a
41.565	0.113	83130	keystroke	Key.space	n/a
41.84	0.135	83680	keystroke	n	n/a
42.229	0.116	84458	keystroke	i	n/a
42.529	0.115	85058	keystroke	t	n/a
42.72	0.092	85440	keystroke	r	n/a
43.081	0.116	86162	keystroke	o	n/a
43.37	0.114	86740	keystroke	g	n/a
43.486	0.135	86972	keystroke	e	n/a
43.653	0.135	87306	keystroke	n	n/a
43.81	0.1145	87620	keystroke	Key.space	n/a
44.339	0.161	88678	keystroke	f	n/a
44.628	0.135	89256	keystroke	r	n/a
44.786	0.115	89572	keystroke	o	n/a
45.015	0.116	90030	keystroke	g	n/a
45.17	0.115	90340	keystroke	Key.space	n/a
45.733	0.182	91466	keystroke	a	n/a
45.972	0.16	91944	keystroke	d	n/a
46.183	0.1385	92366	keystroke	o	n/a
46.3435	0.094	92687	keystroke	p	n/a
46.6915	0.068	93383	keystroke	t	n/a
47.652	0.115	95304	keystroke	i	n/a
47.833	0.092	95666	keystroke	o	n/a
48.05	0.0905	96100	keystroke	n	n/a
48.304	0.07	96608	keystroke	Key.enter	n/a
48.3805	7.542	96761	prompt	n/a	stake express attachment estates\n
49.03	0.16	98060	keystroke	s	n/a
49.286	0.091	98572	keystroke	t	n/a
49.433	0.205	98866	keystroke	a	n/a
49.748	0.115	99496	keystroke	k	n/a
49.884	0.141	99768	keystroke	e	n/a
50.046	0.117	100092	keystroke	Key.space	n/a
50.725	0.092	101450	keystroke	e	n/a
51.006	0.1615	102012	keystroke	x	n/a
51.2285	0.116	102457	keystroke	p	n/a
51.4895	0.115	102979	keystroke	r	n/a
51.6915	0.135	103383	keystroke	e	n/a
52.0065	0.14	104013	keystroke	s	n/a
52.2065	0.135	104413	keystroke	s	n/a
52.3425	0.112	104685	keystroke	Key.space	n/a
52.5415	0.161	105083	keystroke	a	n/a
52.7855	0.0695	105571	keystroke	t	n/a
52.9345	0.095	105869	keystroke	t	n/a
53.0305	0.113	106061	keystroke	a	n/a
53.2735	0.115	106547	keystroke	c	n/a
53.3895	0.09	106779	keystroke	h	n/a
53.6535	0.09	107307	keystroke	m	n/a
53.7755	0.093	107551	keystroke	e	n/a
53.8915	0.093	107783	keystroke	n	n/a
54.1365	0.157	108273	keystroke	t	n/a
54.3165	0.114	108633	keystroke	Key.space	n/a
54.7535	0.115	109507	keystroke	e	n/a
54.9965	0.138	109993	keystroke	s	n/a
55.1355	0.066	110271	keystroke	t	n/a
55.2245	0.136	110449	keystroke	a	n/a
55.3145	0.095	110629	keystroke	t	n/a
55.4105	0.109	110821	keystroke	e	n/a
55.6245	0.16	111249	keystroke	s	n/a
55.8065	0.114	111613	keystroke	Key.enter	n/a
55.9265	9.3605	111853	prompt	n/a	impose vanilla relations plasma\n
56.8115	0.116	113623	keystroke	i	n/a
57.0485	0.092	114097	keystroke	m	n/a
57.2515	0.095	114503	keystroke	p	n/a
57.3475	0.088	114695	keystroke	o	n/a
57.4575	0.091	114915	keystroke	s	n/a
57.6545	0.094	115309	keystroke	e	n/a
57.8025	0.092	115605	keystroke	Key.space	n/a
58.4	0.069	116800	keystroke	c	n/a
59.1765	0.137	118353	keystroke	Key.backspace	n/a
59.7675	0.1145	119535	keystroke	v	n/a
59.92	0.159	119840	keystroke	a	n/a
60.126	0.115	120252	keystroke	n	n/a
60.758	0.091	121516	keystroke	i	n/a
60.979	0.092	121958	keystroke	l	n/a
61.125	0.1155	122250	keystroke	l	n/a
61.2625	0.139	122525	keystroke	a	n/a
61.4245	0.09	122849	keystroke	Key.space	n/a
61.9645	0.114	123929	keystroke	r	n/a
62.1085	0.114	124217	keystroke	e	n/a
62.3475	0.1375	124695	keystroke	l	n/a
62.622	0.138	125244	keystroke	a	n/a
62.923	0.115	125846	keystroke	t	n/a
63.238	0.114	126476	keystroke	i	n/a
63.395	0.093	126790	keystroke	o	n/a
63.589	0.116	127178	keystroke	n	n/a
63.728	0.136	127456	keystroke	s	n/a
63.84	0.116	127680	keystroke	Key.space	n/a
64.073	0.138	128146	keystroke	p	n/a
64.361	0.116	128722	keystroke	l	n/a
64.549	0.184	129098	keystroke	a	n/a
64.782	0.159	129564	keystroke	s	n/a
64.942	0.115	129884	keystroke	m	n/a
65.033	0.117	130066	keystroke	a	n/a
65.215	0.069	130430	keystroke	Key.enter	n/a
65.293	10.237	130586	prompt	n/a	myspace authorized shown scoring\n
66.164	0.114	132328	keystroke	m	n/a
66.419	0.068	132838	keystroke	y	n/a
66.509	0.135	133018	keystroke	s	n/a
66.716	0.139	133432	keystroke	p	n/a
66.83	0.137	133660	keystroke	a	n/a
67.105	0.137	134210	keystroke	c	n/a
67.385	0.137	134770	keystroke	e	n/a
67.544	0.114	135088	keystroke	Key.space	n/a
67.768	0.14	135536	keystroke	a	n/a
67.984	0.1635	135968	keystroke	u	n/a
68.2845	0.091	136569	keystroke	t	n/a
68.5005	0.068	137001	keystroke	h	n/a
68.7125	0.1345	137425	keystroke	o	n/a
68.936	0.116	137872	keystroke	r	n/a
69.71	0.0935	139420	keystroke	i	n/a
69.8895	0.205	139779	keystroke	z	n/a
70.1585	0.142	140317	keystroke	a	n/a
70.2765	0.114	140553	keystroke	t	n/a
70.6005	0.167	141201	keystroke	i	n/a
71.0405	0.138	142081	keystroke	Key.backspace	n/a
71.3235	0.113	142647	keystroke	Key.backspace	n/a
71.5325	0.184	143065	keystroke	e	n/a
71.9855	0.092	143971	keystroke	Key.backspace	n/a
72.1575	0.093	144315	keystroke	Key.backspace	n/a
72.2265	0.116	144453	keystroke	e	n/a
72.4535	0.116	144907	keystroke	d	n/a
72.5925	0.116	145185	keystroke	Key.space	n/a
72.989	0.163	145978	keystroke	s	n/a
73.182	0.092	146364	keystroke	h	n/a
73.366	0.136	146732	keystroke	o	n/a
73.503	0.114	147006	keystroke	w	n/a
73.64	0.121	147280	keystroke	n	n/a
73.784	0.094	147568	keystroke	Key.space	n/a
73.992	0.14	147984	keystroke	s	n/a
74.253	0.136	148506	keystroke	c	n/a
74.39	0.113	148780	keystroke	o	n/a
74.574	0.138	149148	keystroke	r	n/a
74.746	0.117	149492	keystroke	i	n/a
74.984	0.119	149968	keystroke	n	n/a
75.226	0.071	150452	keystroke	g	n/a
75.458	0.071	150916	keystroke	Key.enter	n/a
75.5335	11.186	151067	prompt	n/a	clean compatible need flower\n
76.173	0.1615	152346	keystroke	c	n/a
76.3845	0.069	152769	keystroke	k	n/a
76.4995	0.113	152999	keystroke	e	n/a
76.8385	0.091	153677	keystroke	Key.backspace	n/a
77.0185	0.092	154037	keystroke	Key.backspace	n/a
77.2095	0.117	154419	keystroke	l	n/a
77.3495	0.136	154699	keystroke	e	n/a
77.5695	0.162	155139	keystroke	a	n/a
77.7065	0.164	155413	keystroke	n	n/a
77.9015	0.095	155803	keystroke	Key.space	n/a
78.2905	0.161	156581	keystroke	c	n/a
78.5625	0.186	157125	keystroke	p	n/a
79.1045	0.135	158209	keystroke	Key.backspace	n/a
79.2775	0.135	158555	keystroke	o	n/a
79.5685	0.092	159137	keystroke	m	n/a
79.7685	0.096	159537	keystroke	p	n/a
79.9755	0.161	159951	keystroke	a	n/a
80.59	0.068	161180	keystroke	t	n/a
80.873	0.138	161746	keystroke	i	n/a
81.14	0.112	162280	keystroke	b	n/a
81.359	0.116	162718	keystroke	l	n/a
81.496	0.1375	162992	keystroke	e	n/a
81.6345	0.11	163269	keystroke	Key.space	n/a
81.9075	0.091	163815	keystroke	n	n/a
82.0285	0.07	164057	keystroke	e	n/a
82.2395	0.092	164479	keystroke	e	n/a
82.4005	0.095	164801	keystroke	e	n/a
82.5985	0.093	165197	keystroke	d	n/a
82.6925	0.089	165385	keystroke	Key.space	n/a
83.0355	0.094	166071	keystroke	Key.backspace	n/a
83.2075	0.093	166415	keystroke	Key.backspace	n/a
83.4025	0.047	166805	keystroke	Key.backspace	n/a
83.5185	0.069	167037	keystroke	Key.backspace	n/a
84.0325	0.134	168065	keystroke	e	n/a
84.2615	0.116	168523	keystroke	d	n/a
84.3535	0.116	168707	keystroke	Key.space	n/a
85.2245	0.161	170449	keystroke	f	n/a
85.6225	0.113	171245	keystroke	l	n/a
85.8285	0.094	171657	keystroke	o	n/a
85.9235	0.137	171847	keystroke	w	n/a
86.1545	0.116	172309	keystroke	e	n/a
86.4125	0.069	172825	keystroke	r	n/a
86.6255	0.092	173251	keystroke	Key.enter	n/a
86.722	10.099	173444	prompt	n/a	iceland rely championship armenia\n
87.5755	0.091	175151	keystroke	i	n/a
87.7155	0.115	175431	keystroke	c	n/a
87.9525	0.094	175905	keystroke	e	n/a
88.0815	0.112	176163	keystroke	l	n/a
88.3705	0.158	176741	keystroke	a	n/a
88.5505	0.069	177101	keystroke	n	n/a
88.6875	0.09	177375	keystroke	d	n/a
88.8155	0.094	177631	keystroke	Key.space	n/a
89.2115	0.11	178423	keystroke	r	n/a
89.4195	0.117	178839	keystroke	e	n/a
89.5375	0.112	179075	keystroke	l	n/a
89.8165	0.116	179633	keystroke	y	n/a
89.9795	0.092	179959	keystroke	Key.space	n/a
90.4755	0.161	180951	keystroke	c	n/a
90.9305	0.113	181861	keystroke	h	n/a
91.1085	0.135	182217	keystroke	a	n/a
91.2195	0.094	182439	keystroke	m	n/a
91.4545	0.116	182909	keystroke	p	n/a
93.3265	0.115	186653	keystroke	i	n/a
93.4865	0.094	186973	keystroke	o	n/a
93.7015	0.113	187403	keystroke	n	n/a
93.8435	0.1405	187687	keystroke	s	n/a
93.985	0.113	187970	keystroke	h	n/a
94.679	0.115	189358	keystroke	i	n/a
94.868	0.137	189736	keystroke	p	n/a
95.006	0.136	190012	keystroke	Key.space	n/a
95.179	0.183	190358	keystroke	a	n/a
95.614	0.185	191228	keystroke	r	n/a
95.899	0.115	191798	keystroke	m	n/a
96.036	0.113	192072	keystroke	e	n/a
96.268	0.093	192536	keystroke	n	n/a
96.435	0.093	192870	keystroke	i	n/a
96.551	0.136	193102	keystroke	a	n/a
96.724	0.096	193448	keystroke	Key.enter	n/a
96.824	6.1635	193648	prompt	n/a	ties nato choose tray\n
97.674	0.07	195348	keystroke	t	n/a
97.894	0.1145	195788	keystroke	i	n/a
98.0095	0.115	196019	keystroke	e	n/a
98.2445	0.16	196489	keystroke	s	n/a
98.3585	0.134	196717	keystroke	Key.space	n/a
98.7905	0.205	197581	keystroke	n	n/a
99.0345	0.138	198069	keystroke	a	n/a
99.1475	0.071	198295	keystroke	t	n/a
99.509	0.138	199018	keystroke	o	n/a
99.669	0.137	199338	keystroke	Key.space	n/a
100.068	0.16	200136	keystroke	c	n/a
100.268	0.091	200536	keystroke	h	n/a
100.484	0.0925	200968	keystroke	o	n/a
100.6345	0.094	201269	keystroke	o	n/a
100.6795	0.119	201359	keystroke	s	n/a
100.8925	0.118	201785	keystroke	e	n/a
101.0345	0.115	202069	keystroke	Key.space	n/a
101.3385	0.115	202677	keystroke	t	n/a
101.5475	0.069	203095	keystroke	r	n/a
101.6625	0.159	203325	keystroke	a	n/a
101.8435	0.137	203687	keystroke	u	n/a
102.259	0.116	204518	keystroke	Key.backspace	n/a
102.538	0.092	205076	keystroke	y	n/a
102.894	0.092	205788	keystroke	Key.enter	n/a
102.99	7.1195	205980	prompt	n/a	attempts gore than pmid\n
103.61	0.161	207220	keystroke	a	n/a
103.846	0.092	207692	keystroke	t	n/a
104.002	0.093	208004	keystroke	t	n/a
104.117	0.116	208234	keystroke	e	n/a
104.353	0.095	208706	keystroke	m	n/a
104.585	0.093	209170	keystroke	p	n/a
104.837	0.07	209674	keystroke	t	n/a
104.951	0.133	209902	keystroke	s	n/a
105.085	0.068	210170	keystroke	Key.space	n/a
105.567	0.161	211134	keystroke	g	n/a
105.873	0.138	211746	keystroke	o	n/a
106.049	0.116	212098	keystroke	r	n/a
106.258	0.137	212516	keystroke	e	n/a
106.396	0.115	212792	keystroke	Key.space	n/a
106.754	0.116	213508	keystroke	t	n/a
106.992	0.094	213984	keystroke	h	n/a
107.134	0.14	214268	keystroke	a	n/a
107.468	0.138	214936	keystroke	n	n/a
107.637	0.113	215274	keystroke	Key.space	n/a
107.9	0.184	215800	keystroke	m	n/a
108.721	0.1375	217442	keystroke	Key.backspace	n/a
108.9405	0.115	217881	keystroke	p	n/a
109.2185	0.115	218437	keystroke	m	n/a
109.4305	0.095	218861	keystroke	i	n/a
109.5605	0.159	219121	keystroke	d	n/a
109.993	0.115	219986	keystroke	Key.enter	n/a
110.1125	5.9565	220225	prompt	n/a	tion pray eval downloads\n
110.9575	0.07	221915	keystroke	t	n/a
111.2935	0.116	222587	keystroke	i	n/a
111.4315	0.114	222863	keystroke	o	n/a
111.6495	0.138	223299	keystroke	n	n/a
111.8105	0.093	223621	keystroke	Key.space	n/a
112.0795	0.12	224159	keystroke	p	n/a
112.3185	0.116	224637	keystroke	r	n/a
112.5665	0.206	225133	keystroke	a	n/a
112.6815	0.115	225363	keystroke	y	n/a
112.7975	0.112	225595	keystroke	Key.space	n/a
113.2745	0.159	226549	keystroke	e	n/a
113.5195	0.094	227039	keystroke	v	n/a
113.6555	0.115	227311	keystroke	a	n/a
113.8145	0.181	227629	keystroke	l	n/a
113.9965	0.112	227993	keystroke	Key.space	n/a
114.2835	0.1175	228567	keystroke	d	n/a
114.501	0.092	229002	keystroke	o	n/a
114.594	0.133	229188	keystroke	w	n/a
114.768	0.117	229536	keystroke	n	n/a
114.999	0.093	229998	keystroke	l	n/a
115.174	0.091	230348	keystroke	o	n/a
115.303	0.183	230606	keystroke	a	n/a
115.583	0.115	231166	keystroke	d	n/a
115.805	0.141	231610	keystroke	s	n/a
115.999	0.068	231998	keystroke	Key.enter	n/a
116.0715	7.83	232143	prompt	n/a	complaints attorney banner truth\n
116.898	0.1385	233796	keystroke	c	n/a
117.0915	0.117	234183	keystroke	o	n/a
117.3155	0.115	234631	keystroke	m	n/a
117.5305	0.092	235061	keystroke	p	n/a
117.6455	0.093	235291	keystroke	l	n/a
117.7605	0.137	235521	keystroke	a	n/a
117.8985	0.113	235797	keystroke	i	n/a
118.1415	0.094	236283	keystroke	n	n/a
118.3785	0.092	236757	keystroke	t	n/a
118.4925	0.143	236985	keystroke	s	n/a
118.6105	0.093	237221	keystroke	Key.space	n/a
119.0655	0.185	238131	keystroke	a	n/a
119.3145	0.07	238629	keystroke	t	n/a
119.4535	0.094	238907	keystroke	t	n/a
119.6855	0.114	239371	keystroke	o	n/a
119.8885	0.113	239777	keystroke	r	n/a
120.0515	0.112	240103	keystroke	n	n/a
120.2435	0.115	240487	keystroke	e	n/a
120.3805	0.139	240761	keystroke	y	n/a
120.5825	0.089	241165	keystroke	Key.space	n/a
121.3855	0.093	242771	keystroke	b	n/a
121.5015	0.16	243003	keystroke	a	n/a
121.6375	0.07	243275	keystroke	n	n/a
121.7625	0.093	243525	keystroke	n	n/a
121.8925	0.091	243785	keystroke	e	n/a
122.0715	0.115	244143	keystroke	r	n/a
122.2175	0.116	244435	keystroke	Key.space	n/a
122.5375	0.09	245075	keystroke	t	n/a
122.7425	0.069	245485	keystroke	r	n/a
123.134	0.141	246268	keystroke	u	n/a
123.355	0.092	246710	keystroke	t	n/a
123.554	0.091	247108	keystroke	h	n/a
123.831	0.069	247662	keystroke	Key.enter	n/a
123.9045	10.78	247809	prompt	n/a	director stripes user photographs\n
124.6	0.138	249200	keystroke	d	n/a
124.8595	0.091	249719	keystroke	i	n/a
124.9725	0.092	249945	keystroke	r	n/a
125.1875	0.092	250375	keystroke	e	n/a
125.4145	0.116	250829	keystroke	c	n/a
125.5315	0.067	251063	keystroke	t	n/a
125.7875	0.09	251575	keystroke	o	n/a
125.9655	0.159	251931	keystroke	r	n/a
126.1565	0.095	252313	keystroke	Key.space	n/a
126.4765	0.139	252953	keystroke	s	n/a
126.659	0.091	253318	keystroke	t	n/a
126.824	0.0905	253648	keystroke	r	n/a
127.2185	0.095	254437	keystroke	i	n/a
127.3875	0.118	254775	keystroke	p	n/a
127.5065	0.112	255013	keystroke	e	n/a
127.7385	0.137	255477	keystroke	s	n/a
127.8765	0.09	255753	keystroke	Key.space	n/a
128.1105	0.095	256221	keystroke	u	n/a
128.1795	0.145	256359	keystroke	s	n/a
128.4045	0.118	256809	keystroke	e	n/a
128.6125	0.115	257225	keystroke	r	n/a
128.7495	0.115	257499	keystroke	Key.space	n/a
128.9875	0.091	257975	keystroke	p	n/a
129.2835	0.0965	258567	keystroke	h	n/a
129.6395	0.094	259279	keystroke	o	n/a
129.909	0.067	259818	keystroke	t	n/a
130.2355	0.1165	260471	keystroke	o	n/a
130.4555	0.0905	260911	keystroke	p	n/a
130.922	0.116	261844	keystroke	Key.backspace	n/a
132.382	0.091	264764	keystroke	g	n/a
132.573	0.07	265146	keystroke	r	n/a
132.677	0.1365	265354	keystroke	a	n/a
132.8895	0.092	265779	keystroke	h	n/a
133.1335	0.115	266267	keystroke	p	n/a
134.2655	0.09	268531	keystroke	h	n/a
134.4515	0.115	268903	keystroke	s	n/a
134.6135	0.069	269227	keystroke	Key.enter	n/a
134.688	10.903	269376	prompt	n/a	burning situation boxed draw\n
136.634	0.116	273268	keystroke	b	n/a
136.839	0.0925	273678	keystroke	u	n/a
137.0155	0.16	274031	keystroke	r	n/a
137.2275	0.163	274455	keystroke	n	n/a
137.5025	0.16	275005	keystroke	i	n/a
137.7185	0.136	275437	keystroke	n	n/a
137.9565	0.137	275913	keystroke	g	n/a
138.1625	0.071	276325	keystroke	Key.space	n/a
138.8395	0.1615	277679	keystroke	s	n/a
139.166	0.205	278332	keystroke	i	n/a
139.681	0.113	279362	keystroke	t	n/a
140.034	0.068	280068	keystroke	u	n/a
140.664	0.16	281328	keystroke	Key.backspace	n/a
141.494	0.093	282988	keystroke	u	n/a
141.632	0.134	283264	keystroke	a	n/a
141.767	0.09	283534	keystroke	t	n/a
142.05	0.1605	284100	keystroke	i	n/a
142.2675	0.115	284535	keystroke	o	n/a
142.4685	0.162	284937	keystroke	n	n/a
142.6325	0.09	285265	keystroke	Key.space	n/a
143.1175	0.095	286235	keystroke	b	n/a
143.4235	0.119	286847	keystroke	o	n/a
143.6485	0.2475	287297	keystroke	x	n/a
144.082	0.136	288164	keystroke	e	n/a
144.347	0.091	288694	keystroke	d	n/a
144.461	0.116	288922	keystroke	Key.space	n/a
144.7285	0.137	289457	keystroke	d	n/a
145.0185	0.093	290037	keystroke	r	n/a
145.1345	0.14	290269	keystroke	a	n/a
145.3155	0.114	290631	keystroke	w	n/a
145.4955	0.094	290991	keystroke	Key.enter	n/a
145.594	9.733	291188	prompt	n/a	bureau typically centres laden\n
146.4595	0.119	292919	keystroke	b	n/a
146.8265	0.1145	293653	keystroke	u	n/a
147.082	0.158	294164	keystroke	r	n/a
147.385	0.162	294770	keystroke	e	n/a
147.983	0.137	295966	keystroke	a	n/a
148.276	0.16	296552	keystroke	u	n/a
148.459	0.095	296918	keystroke	Key.space	n/a
149.472	0.115	298944	keystroke	t	n/a
149.9725	0.046	299945	keystroke	y	n/a
150.3175	0.14	300635	keystroke	p	n/a
150.5185	0.096	301037	keystroke	i	n/a
150.6355	0.116	301271	keystroke	c	n/a
150.858	0.138	301716	keystroke	a	n/a
150.997	0.067	301994	keystroke	l	n/a
151.134	0.114	302268	keystroke	l	n/a
151.834	0.091	303668	keystroke	y	n/a
151.947	0.114	303894	keystroke	Key.space	n/a
152.038	0.114	304076	keystroke	c	n/a
152.294	0.116	304588	keystroke	e	n/a
152.386	0.115	304772	keystroke	n	n/a
152.616	0.094	305232	keystroke	t	n/a
153.35	0.138	306700	keystroke	r	n/a
153.616	0.115	307232	keystroke	e	n/a
153.862	0.161	307724	keystroke	s	n/a
153.999	0.091	307998	keystroke	Key.space	n/a
154.462	0.14	308924	keystroke	l	n/a
154.578	0.138	309156	keystroke	a	n/a
154.759	0.093	309518	keystroke	d	n/a
154.948	0.116	309896	keystroke	e	n/a
155.017	0.094	310034	keystroke	n	n/a
155.2555	0.07	310511	keystroke	Key.enter	n/a
155.33	7.72	310660	prompt	n/a	thermal cruise tactics laboratories\n
156.3765	0.094	312753	keystroke	t	n/a
156.5685	0.092	313137	keystroke	h	n/a
156.6815	0.047	313363	keystroke	e	n/a
156.906	0.135	313812	keystroke	r	n/a
157.103	0.137	314206	keystroke	m	n/a
157.304	0.163	314608	keystroke	a	n/a
157.419	0.16	314838	keystroke	l	n/a
157.601	0.091	315202	keystroke	Key.space	n/a
157.956	0.1585	315912	keystroke	c	n/a
158.255	0.114	316510	keystroke	r	n/a
158.391	0.091	316782	keystroke	u	n/a
158.5415	0.116	317083	keystroke	i	n/a
158.6335	0.139	317267	keystroke	s	n/a
158.8575	0.114	317715	keystroke	e	n/a
159.0175	0.092	318035	keystroke	Key.space	n/a
159.5775	0.114	319155	keystroke	t	n/a
159.6925	0.113	319385	keystroke	a	n/a
159.9425	0.115	319885	keystroke	c	n/a
160.0325	0.072	320065	keystroke	t	n/a
160.2295	0.093	320459	keystroke	i	n/a
160.3235	0.114	320647	keystroke	c	n/a
160.5465	0.1405	321093	keystroke	s	n/a
160.688	0.091	321376	keystroke	Key.space	n/a
161.037	0.136	322074	keystroke	l	n/a
161.149	0.161	322298	keystroke	a	n/a
161.369	0.07	322738	keystroke	b	n/a
161.562	0.095	323124	keystroke	o	n/a
161.584	0.187	323168	keystroke	r	n/a
161.887	0.163	323774	keystroke	a	n/a
162.025	0.07	324050	keystroke	t	n/a
162.258	0.092	324516	keystroke	o	n/a
162.4105	0.115	324821	keystroke	r	n/a
162.5655	0.095	325131	keystroke	i	n/a
162.6615	0.087	325323	keystroke	e	n/a
162.8415	0.1165	325683	keystroke	s	n/a
162.959	0.089	325918	keystroke	Key.enter	n/a
163.0545	8.943	326109	prompt	n/a	inkjet foot receptors nevada\n
164.245	0.047	328490	keystroke	i	n/a
164.47	0.07	328940	keystroke	n	n/a
164.661	0.09	329322	keystroke	k	n/a
164.883	0.09	329766	keystroke	j	n/a
165.033	0.113	330066	keystroke	e	n/a
165.336	0.114	330672	keystroke	c	n/a
165.472	0.069	330944	keystroke	t	n/a
165.831	0.113	331662	keystroke	Key.backspace	n/a
166.049	0.068	332098	keystroke	Key.backspace	n/a
166.349	0.113	332698	keystroke	t	n/a
166.516	0.136	333032	keystroke	Key.space	n/a
167.016	0.157	334032	keystroke	f	n/a
167.247	0.115	334494	keystroke	o	n/a
167.419	0.113	334838	keystroke	o	n/a
167.656	0.116	335312	keystroke	t	n/a
167.821	0.09	335642	keystroke	Key.space	n/a
168.409	0.137	336818	keystroke	r	n/a
168.629	0.096	337258	keystroke	e	n/a
168.853	0.069	337706	keystroke	c	n/a
169.038	0.116	338076	keystroke	e	n/a
169.13	0.095	338260	keystroke	p	n/a
169.41	0.117	338820	keystroke	t	n/a
169.986	0.095	339972	keystroke	o	n/a
170.145	0.136	340290	keystroke	r	n/a
170.484	0.134	340968	keystroke	s	n/a
170.595	0.1145	341190	keystroke	Key.space	n/a
171.017	0.095	342034	keystroke	n	n/a
171.134	0.115	342268	keystroke	e	n/a
171.314	0.071	342628	keystroke	v	n/a
171.429	0.136	342858	keystroke	a	n/a
171.629	0.09	343258	keystroke	d	n/a
171.814	0.115	343628	keystroke	a	n/a
171.952	0.044	343904	keystroke	Key.enter	n/a
172.001	7.181	344002	prompt	n/a	plan paintball class heath\n
172.8085	0.111	345617	keystroke	p	n/a
173.0335	0.092	346067	keystroke	l	n/a
173.1485	0.137	346297	keystroke	a	n/a
173.3075	0.204	346615	keystroke	n	n/a
173.5335	0.093	347067	keystroke	Key.space	n/a
174.5335	0.117	349067	keystroke	p	n/a
174.6725	0.117	349345	keystroke	a	n/a
174.7905	0.067	349581	keystroke	i	n/a
174.9755	0.115	349951	keystroke	n	n/a
175.2125	0.069	350425	keystroke	t	n/a
175.5485	0.092	351097	keystroke	b	n/a
175.7125	0.116	351425	keystroke	a	n/a
175.8945	0.114	351789	keystroke	l	n/a
176.0795	0.141	352159	keystroke	l	n/a
176.1955	0.116	352391	keystroke	Key.space	n/a
176.4245	0.159	352849	keystroke	c	n/a
176.6055	0.092	353211	keystroke	l	n/a
176.7285	0.186	353457	keystroke	a	n/a
176.9745	0.114	353949	keystroke	s	n/a
177.1825	0.091	354365	keystroke	s	n/a
177.2955	0.116	354591	keystroke	Key.space	n/a
177.5555	0.091	355111	keystroke	h	n/a
177.6475	0.113	355295	keystroke	e	n/a
177.8495	0.135	355699	keystroke	a	n/a
178.3165	0.138	356633	keystroke	l	n/a
178.6255	0.072	357251	keystroke	t	n/a
178.8325	0.093	357665	keystroke	h	n/a
179.1125	0.069	358225	keystroke	Key.enter	n/a
179.193	12.167	358386	prompt	n/a	broadcasting virginia gmbh principles\n
179.9835	0.092	359967	keystroke	b	n/a
180.3405	0.093	360681	keystroke	r	n/a
180.5335	0.092	361067	keystroke	o	n/a
180.6745	0.138	361349	keystroke	a	n/a
180.8845	0.114	361769	keystroke	d	n/a
181.1665	0.071	362333	keystroke	v	n/a
181.1895	0.024	362379	keystroke	c	n/a
181.725	0.116	363450	keystroke	Key.backspace	n/a
181.922	0.091	363844	keystroke	Key.backspace	n/a
182.442	0.116	364884	keystroke	c	n/a
182.589	0.159	365178	keystroke	a	n/a
182.749	0.091	365498	keystroke	s	n/a
182.883	0.092	365766	keystroke	t	n/a
183.09	0.138	366180	keystroke	i	n/a
183.34	0.116	366680	keystroke	n	n/a
183.587	0.093	367174	keystroke	g	n/a
183.774	0.091	367548	keystroke	Key.space	n/a
184.405	0.138	368810	keystroke	v	n/a
184.662	0.091	369324	keystroke	i	n/a
184.883	0.092	369766	keystroke	r	n/a
185.082	0.092	370164	keystroke	g	n/a
185.279	0.091	370558	keystroke	i	n/a
185.451	0.091	370902	keystroke	n	n/a
185.606	0.091	371212	keystroke	i	n/a
185.727	0.114	371454	keystroke	a	n/a
185.862	0.069	371724	keystroke	Key.space	n/a
187.0915	0.114	374183	keystroke	g	n/a
187.4715	0.092	374943	keystroke	m	n/a
188.66	0.139	377320	keystroke	b	n/a
188.909	0.14	377818	keystroke	h	n/a
189.072	0.07	378144	keystroke	Key.space	n/a
189.689	0.1825	379378	keystroke	p	n/a
189.9085	0.117	379817	keystroke	r	n/a
190.0485	0.091	380097	keystroke	i	n/a
190.2425	0.094	380485	keystroke	n	n/a
190.3585	0.117	380717	keystroke	c	n/a
190.5185	0.113	381037	keystroke	i	n/a
190.6835	0.115	381367	keystroke	p	n/a
190.8285	0.118	381657	keystroke	l	n/a
190.9195	0.096	381839	keystroke	e	n/a
191.1295	0.116	382259	keystroke	s	n/a
191.2675	0.091	382535	keystroke	Key.enter	n/a
191.364	12.04	382728	prompt	n/a	uncertainty validation testament teeth\n
192.4415	0.092	384883	keystroke	u	n/a
192.6685	0.093	385337	keystroke	n	n/a
192.9385	0.028	385877	keystroke	v	n/a
192.9405	0.095	385881	keystroke	c	n/a
193.0745	0.07	386149	keystroke	e	n/a
193.2605	0.094	386521	keystroke	r	n/a
193.3765	0.0715	386753	keystroke	t	n/a
193.574	0.158	387148	keystroke	a	n/a
193.733	0.11	387466	keystroke	i	n/a
193.961	0.115	387922	keystroke	n	n/a
194.403	0.115	388806	keystroke	t	n/a
194.677	0.092	389354	keystroke	y	n/a
194.861	0.091	389722	keystroke	Key.space	n/a
195.451	0.115	390902	keystroke	Key.backspace	n/a
195.884	0.118	391768	keystroke	Key.space	n/a
196.647	0.158	393294	keystroke	c	n/a
197.118	0.116	394236	keystroke	Key.backspace	n/a
197.286	0.114	394572	keystroke	v	n/a
197.525	0.138	395050	keystroke	a	n/a
197.617	0.1375	395234	keystroke	l	n/a
197.776	0.07	395552	keystroke	i	n/a
197.892	0.092	395784	keystroke	d	n/a
198.093	0.113	396186	keystroke	a	n/a
198.228	0.048	396456	keystroke	t	n/a
198.472	0.114	396944	keystroke	i	n/a
198.617	0.092	397234	keystroke	o	n/a
198.815	0.137	397630	keystroke	n	n/a
198.953	0.114	397906	keystroke	Key.space	n/a
199.327	0.115	398654	keystroke	t	n/a
199.464	0.116	398928	keystroke	e	n/a
199.689	0.135	399378	keystroke	s	n/a
199.859	0.068	399718	keystroke	t	n/a
199.928	0.136	399856	keystroke	a	n/a
200.27	0.091	400540	keystroke	m	n/a
200.408	0.092	400816	keystroke	e	n/a
200.523	0.094	401046	keystroke	n	n/a
200.772	0.138	401544	keystroke	t	n/a
201.01	0.094	402020	keystroke	Key.space	n/a
202.287	0.094	404574	keystroke	t	n/a
202.495	0.116	404990	keystroke	e	n/a
202.684	0.116	405368	keystroke	e	n/a
202.776	0.114	405552	keystroke	t	n/a
202.99	0.092	405980	keystroke	h	n/a
203.287	0.1155	406574	keystroke	Key.enter	n/a
203.4075	12.3845	406815	prompt	n/a	volleyball czech propecia outline\n
204.381	0.092	408762	keystroke	v	n/a
204.66	0.136	409320	keystroke	o	n/a
204.914	0.092	409828	keystroke	l	n/a
205.071	0.095	410142	keystroke	l	n/a
205.213	0.116	410426	keystroke	e	n/a
205.383	0.067	410766	keystroke	y	n/a
205.604	0.111	411208	keystroke	b	n/a
205.79	0.163	411580	keystroke	a	n/a
205.954	0.067	411908	keystroke	l	n/a
206.103	0.139	412206	keystroke	l	n/a
206.265	0.07	412530	keystroke	Key.space	n/a
207.031	0.093	414062	keystroke	c	n/a
207.541	0.117	415082	keystroke	z	n/a
207.874	0.091	415748	keystroke	e	n/a
208.133	0.135	416266	keystroke	c	n/a
208.291	0.072	416582	keystroke	h	n/a
208.4205	0.092	416841	keystroke	Key.space	n/a
208.9585	0.1375	417917	keystroke	p	n/a
209.191	0.137	418382	keystroke	r	n/a
209.363	0.115	418726	keystroke	o	n/a
209.538	0.096	419076	keystroke	p	n/a
210.644	0.16	421288	keystroke	e	n/a
211.3	0.183	422600	keystroke	c	n/a
212.485	0.094	424970	keystroke	i	n/a
212.581	0.158	425162	keystroke	a	n/a
212.714	0.094	425428	keystroke	Key.space	n/a
213.6355	0.119	427271	keystroke	o	n/a
213.9285	0.139	427857	keystroke	u	n/a
214.199	0.112	428398	keystroke	t	n/a
215.0755	0.1605	430151	keystroke	l	n/a
215.237	0.09	430474	keystroke	i	n/a
215.441	0.094	430882	keystroke	n	n/a
215.574	0.116	431148	keystroke	e	n/a
215.721	0.07	431442	keystroke	Key.enter	n/a
215.7955	8.009	431591	prompt	n/a	compatibility coins impressed counties\n
216.4695	0.1605	432939	keystroke	c	n/a
216.721	0.113	433442	keystroke	o	n/a
216.9445	0.092	433889	keystroke	m	n/a
217.1145	0.094	434229	keystroke	p	n/a
217.2305	0.137	434461	keystroke	a	n/a
217.4285	0.069	434857	keystroke	t	n/a
217.6295	0.069	435259	keystroke	i	n/a
217.8515	0.114	435703	keystroke	b	n/a
218.0565	0.093	436113	keystroke	i	n/a
218.2515	0.093	436503	keystroke	l	n/a
218.4125	0.091	436825	keystroke	i	n/a
218.6615	0.092	437323	keystroke	t	n/a
218.8505	0.07	437701	keystroke	y	n/a
218.9715	0.113	437943	keystroke	Key.space	n/a
219.3275	0.183	438655	keystroke	c	n/a
219.6095	0.136	439219	keystroke	o	n/a
219.7685	0.071	439537	keystroke	i	n/a
219.9535	0.069	439907	keystroke	n	n/a
220.0585	0.139	440117	keystroke	s	n/a
220.1725	0.095	440345	keystroke	Key.space	n/a
220.4725	0.115	440945	keystroke	i	n/a
220.6995	0.07	441399	keystroke	m	n/a
220.8655	0.094	441731	keystroke	p	n/a
220.9885	0.092	441977	keystroke	r	n/a
221.1665	0.116	442333	keystroke	e	n/a
221.417	0.115	442834	keystroke	s	n/a
221.601	0.117	443202	keystroke	s	n/a
221.831	0.069	443662	keystroke	e	n/a
221.988	0.092	443976	keystroke	d	n/a
222.11	0.093	444220	keystroke	Key.space	n/a
222.265	0.134	444530	keystroke	c	n/a
222.434	0.139	444868	keystroke	o	n/a
222.634	0.092	445268	keystroke	u	n/a
222.83	0.093	445660	keystroke	n	n/a
223.042	0.09	446084	keystroke	t	n/a
223.222	0.115	446444	keystroke	i	n/a
223.359	0.091	446718	keystroke	e	n/a
223.575	0.115	447150	keystroke	s	n/a
223.691	0.112	447382	keystroke	Key.enter	n/a
223.8075	6.2135	447615	prompt	n/a	designing steel machinery cast\n
224.408	0.118	448816	keystroke	d	n/a
224.645	0.093	449290	keystroke	e	n/a
224.841	0.116	449682	keystroke	s	n/a
224.91	0.116	449820	keystroke	i	n/a
225.11	0.091	450220	keystroke	g	n/a
225.313	0.091	450626	keystroke	n	n/a
225.467	0.09	450934	keystroke	i	n/a
225.615	0.114	451230	keystroke	n	n/a
225.814	0.093	451628	keystroke	g	n/a
225.962	0.092	451924	keystroke	Key.space	n/a
226.2965	0.1395	452593	keystroke	s	n/a
226.51	0.135	453020	keystroke	t	n/a
226.699	0.07	453398	keystroke	e	n/a
226.847	0.091	453694	keystroke	e	n/a
226.968	0.159	453936	keystroke	l	n/a
227.15	0.093	454300	keystroke	Key.space	n/a
227.355	0.072	454710	keystroke	m	n/a
227.457	0.071	454914	keystroke	a	n/a
227.682	0.115	455364	keystroke	c	n/a
227.798	0.066	455596	keystroke	h	n/a
227.896	0.116	455792	keystroke	i	n/a
228.055	0.093	456110	keystroke	n	n/a
228.123	0.094	456246	keystroke	e	n/a
228.333	0.068	456666	keystroke	r	n/a
228.449	0.137	456898	keystroke	y	n/a
228.632	0.092	457264	keystroke	Key.space	n/a
229.1895	0.115	458379	keystroke	c	n/a
229.4385	0.16	458877	keystroke	a	n/a
229.5745	0.114	459149	keystroke	s	n/a
229.7275	0.068	459455	keystroke	t	n/a
229.9275	0.092	459855	keystroke	Key.enter	n/a
230.0265	8.3505	460053	prompt	n/a	postcard banking yamaha trio\n
230.7865	0.136	461573	keystroke	p	n/a
230.9445	0.092	461889	keystroke	o	n/a
231.0595	0.116	462119	keystroke	s	n/a
231.2415	0.095	462483	keystroke	t	n/a
231.4165	0.114	462833	keystroke	c	n/a
231.6315	0.142	463263	keystroke	a	n/a
231.7955	0.092	463591	keystroke	r	n/a
232.0175	0.114	464035	keystroke	d	n/a
232.4335	0.092	464867	keystroke	Key.space	n/a
233.166	0.091	466332	keystroke	b	n/a
233.294	0.1415	466588	keystroke	a	n/a
233.388	0.092	466776	keystroke	n	n/a
233.5865	0.1135	467173	keystroke	k	n/a
233.782	0.092	467564	keystroke	i	n/a
233.966	0.116	467932	keystroke	n	n/a
234.179	0.1165	468358	keystroke	g	n/a
234.327	0.14	468654	keystroke	Key.space	n/a
235.2195	0.068	470439	keystroke	y	n/a
235.3545	0.138	470709	keystroke	a	n/a
235.5735	0.116	471147	keystroke	m	n/a
235.7105	0.117	471421	keystroke	a	n/a
235.8025	0.093	471605	keystroke	h	n/a
236.0075	0.1135	472015	keystroke	a	n/a
236.152	0.07	472304	keystroke	Key.space	n/a
237.319	0.095	474638	keystroke	t	n/a
237.523	0.069	475046	keystroke	r	n/a
237.8895	0.115	475779	keystroke	i	n/a
238.0265	0.114	476053	keystroke	o	n/a
238.2845	0.091	476569	keystroke	Key.enter	n/a
238.3805	6.598	476761	prompt	n/a	buyers shoot paintings control\n
239.1335	0.115	478267	keystroke	b	n/a
239.3215	0.095	478643	keystroke	u	n/a
239.4625	0.093	478925	keystroke	y	n/a
239.5565	0.115	479113	keystroke	e	n/a
239.7955	0.072	479591	keystroke	r	n/a
240.0425	0.117	480085	keystroke	s	n/a
240.1115	0.139	480223	keystroke	Key.space	n/a
240.3665	0.139	480733	keystroke	s	n/a
240.5275	0.068	481055	keystroke	h	n/a
240.744	0.092	481488	keystroke	o	n/a
240.906	0.093	481812	keystroke	o	n/a
241.161	0.069	482322	keystroke	t	n/a
241.325	0.068	482650	keystroke	Key.space	n/a
241.7605	0.116	483521	keystroke	p	n/a
241.9425	0.138	483885	keystroke	a	n/a
242.0575	0.045	484115	keystroke	i	n/a
242.2295	0.092	484459	keystroke	n	n/a
242.4625	0.047	484925	keystroke	t	n/a
242.6495	0.093	485299	keystroke	i	n/a
242.8135	0.092	485627	keystroke	n	n/a
243.0175	0.091	486035	keystroke	g	n/a
243.1715	0.092	486343	keystroke	Key.space	n/a
243.4135	0.141	486827	keystroke	c	n/a
243.5555	0.09	487111	keystroke	o	n/a
243.7475	0.0925	487495	keystroke	n	n/a
243.965	0.115	487930	keystroke	t	n/a
244.139	0.09	488278	keystroke	r	n/a
244.45	0.137	488900	keystroke	o	n/a
244.69	0.094	489380	keystroke	l	n/a
244.906	0.071	489812	keystroke	Key.enter	n/a
244.9815	9.718	489963	prompt	n/a	enabling standing y'all diamond\n
245.5975	0.139	491195	keystroke	e	n/a
245.8555	0.091	491711	keystroke	n	n/a
245.9955	0.135	491991	keystroke	a	n/a
246.2185	0.092	492437	keystroke	b	n/a
246.4765	0.162	492953	keystroke	l	n/a
246.6605	0.09	493321	keystroke	i	n/a
246.8645	0.118	493729	keystroke	n	n/a
247.0615	0.114	494123	keystroke	g	n/a
247.2195	0.09	494439	keystroke	Key.space	n/a
247.7605	0.158	495521	keystroke	s	n/a
247.9545	0.091	495909	keystroke	t	n/a
248.0465	0.136	496093	keystroke	a	n/a
248.2045	0.093	496409	keystroke	n	n/a
248.2995	0.088	496599	keystroke	d	n/a
248.4095	0.092	496819	keystroke	i	n/a
248.5525	0.117	497105	keystroke	n	n/a
248.7675	0.138	497535	keystroke	g	n/a
248.9365	0.091	497873	keystroke	Key.space	n/a
249.514	0.094	499028	keystroke	y	n/a
251.566	0.092	503132	keystroke	'	n/a
251.745	0.092	503490	keystroke	a	n/a
252.155	0.116	504310	keystroke	l	n/a
252.34	0.116	504680	keystroke	l	n/a
252.487	0.094	504974	keystroke	Key.space	n/a
252.764	0.1375	505528	keystroke	d	n/a
252.9555	0.116	505911	keystroke	i	n/a
253.0725	0.112	506145	keystroke	a	n/a
253.2075	0.091	506415	keystroke	m	n/a
253.3315	0.112	506663	keystroke	o	n/a
253.5085	0.118	507017	keystroke	n	n/a
253.8385	0.07	507677	keystroke	d	n/a
253.8615	0.049	507723	keystroke	f	n/a
254.3015	0.112	508603	keystroke	Key.backspace	n/a
254.5835	0.115	509167	keystroke	Key.enter	n/a
254.705	10.7685	509410	prompt	n/a	york persian discharge european\n
255.8045	0.07	511609	keystroke	y	n/a
256.0165	0.09	512033	keystroke	o	n/a
256.2685	0.115	512537	keystroke	r	n/a
256.4365	0.117	512873	keystroke	k	n/a
256.5995	0.114	513199	keystroke	Key.space	n/a
256.8325	0.1155	513665	keystroke	p	n/a
256.949	0.112	513898	keystroke	e	n/a
257.6355	0.1165	515271	keystroke	r	n/a
257.8995	0.1805	515799	keystroke	s	n/a
258.321	0.115	516642	keystroke	i	n/a
258.505	0.163	517010	keystroke	a	n/a
258.622	0.206	517244	keystroke	n	n/a
258.85	0.091	517700	keystroke	Key.space	n/a
259.213	0.16	518426	keystroke	d	n/a
259.415	0.093	518830	keystroke	i	n/a
259.632	0.114	519264	keystroke	s	n/a
259.897	0.14	519794	keystroke	c	n/a
260.038	0.09	520076	keystroke	h	n/a
260.16	0.1565	520320	keystroke	a	n/a
260.3835	0.115	520767	keystroke	r	n/a
260.5485	0.116	521097	keystroke	g	n/a
260.7105	0.093	521421	keystroke	e	n/a
260.8245	0.07	521649	keystroke	Key.space	n/a
261.467	0.1845	522934	keystroke	w	n/a
261.7925	0.113	523585	keystroke	u	n/a
262.785	0.093	525570	keystroke	Key.backspace	n/a
262.952	0.116	525904	keystroke	Key.backspace	n/a
263.3835	0.136	526767	keystroke	e	n/a
263.6295	0.074	527259	keystroke	u	n/a
263.7515	0.138	527503	keystroke	r	n/a
264.1895	0.1165	528379	keystroke	o	n/a
264.66	0.139	529320	keystroke	p	n/a
264.753	0.161	529506	keystroke	e	n/a
264.992	0.137	529984	keystroke	a	n/a
265.106	0.139	530212	keystroke	n	n/a
265.401	0.071	530802	keystroke	Key.enter	n/a
265.4765	6.628	530953	prompt	n/a	declare lean denied argentina\n
266.378	0.093	532756	keystroke	d	n/a
266.574	0.07	533148	keystroke	e	n/a
266.787	0.115	533574	keystroke	c	n/a
266.925	0.069	533850	keystroke	l	n/a
267.038	0.138	534076	keystroke	a	n/a
267.266	0.092	534532	keystroke	r	n/a
267.443	0.093	534886	keystroke	e	n/a
267.575	0.143	535150	keystroke	Key.space	n/a
267.766	0.094	535532	keystroke	l	n/a
267.861	0.09	535722	keystroke	e	n/a
268.08	0.14	536160	keystroke	a	n/a
268.242	0.095	536484	keystroke	n	n/a
268.368	0.09	536736	keystroke	Key.space	n/a
269.03	0.115	538060	keystroke	d	n/a
269.25	0.094	538500	keystroke	e	n/a
269.366	0.092	538732	keystroke	n	n/a
269.522	0.093	539044	keystroke	i	n/a
269.569	0.139	539138	keystroke	e	n/a
269.818	0.093	539636	keystroke	d	n/a
269.936	0.115	539872	keystroke	Key.space	n/a
270.209	0.139	540418	keystroke	a	n/a
270.448	0.115	540896	keystroke	r	n/a
270.616	0.115	541232	keystroke	g	n/a
270.706	0.115	541412	keystroke	e	n/a
270.874	0.093	541748	keystroke	n	n/a
271.1675	0.07	542335	keystroke	t	n/a
271.3745	0.115	542749	keystroke	i	n/a
271.738	0.093	543476	keystroke	n	n/a
271.865	0.136	543730	keystroke	a	n/a
272.035	0.068	544070	keystroke	Key.enter	n/a
272.107	8.627	544214	prompt	n/a	crucial discrimination picture compound\n
273.06	0.138	546120	keystroke	c	n/a
273.311	0.114	546622	keystroke	r	n/a
273.462	0.089	546924	keystroke	u	n/a
273.692	0.14	547384	keystroke	c	n/a
273.833	0.181	547666	keystroke	i	n/a
274.044	0.161	548088	keystroke	a	n/a
274.157	0.139	548314	keystroke	l	n/a
274.327	0.09	548654	keystroke	Key.space	n/a
274.802	0.115	549604	keystroke	d	n/a
275.033	0.07	550066	keystroke	i	n/a
275.166	0.1145	550332	keystroke	s	n/a
275.4235	0.046	550847	keystroke	c	n/a
275.6415	0.071	551283	keystroke	r	n/a
275.7425	0.071	551485	keystroke	i	n/a
275.9375	0.113	551875	keystroke	m	n/a
276.1685	0.069	552337	keystroke	i	n/a
276.3725	0.092	552745	keystroke	n	n/a
276.4875	0.115	552975	keystroke	a	n/a
276.6245	0.095	553249	keystroke	t	n/a
276.9315	0.096	553863	keystroke	i	n/a
277.0965	0.071	554193	keystroke	o	n/a
277.2815	0.116	554563	keystroke	n	n/a
277.3985	0.113	554797	keystroke	Key.space	n/a
277.6295	0.114	555259	keystroke	p	n/a
277.9365	0.092	555873	keystroke	i	n/a
278.0665	0.139	556133	keystroke	c	n/a
278.2805	0.115	556561	keystroke	t	n/a
278.5725	0.093	557145	keystroke	u	n/a
278.7275	0.116	557455	keystroke	r	n/a
278.9295	0.117	557859	keystroke	e	n/a
279.0475	0.089	558095	keystroke	Key.space	n/a
279.2225	0.16	558445	keystroke	c	n/a
279.4135	0.092	558827	keystroke	o	n/a
279.6305	0.0925	559261	keystroke	m	n/a
279.828	0.092	559656	keystroke	p	n/a
279.942	0.094	559884	keystroke	o	n/a
280.125	0.091	560250	keystroke	u	n/a
280.325	0.068	560650	keystroke	n	n/a
280.466	0.116	560932	keystroke	d	n/a
280.64	0.093	561280	keystroke	Key.enter	n/a
280.737	10.816	561474	prompt	n/a	unsigned crawford residence feeds\n
281.488	0.0925	562976	keystroke	u	n/a
281.6945	0.093	563389	keystroke	n	n/a
281.7645	0.162	563529	keystroke	s	n/a
281.9495	0.0695	563899	keystroke	i	n/a
282.126	0.091	564252	keystroke	g	n/a
282.325	0.092	564650	keystroke	n	n/a
282.393	0.113	564786	keystroke	e	n/a
282.605	0.115	565210	keystroke	d	n/a
282.721	0.0895	565442	keystroke	Key.space	n/a
283.0475	0.137	566095	keystroke	c	n/a
283.413	0.135	566826	keystroke	r	n/a
283.744	0.163	567488	keystroke	a	n/a
283.908	0.091	567816	keystroke	w	n/a
284.142	0.094	568284	keystroke	f	n/a
284.143	0.095	568286	keystroke	d	n/a
284.258	0.116	568516	keystroke	o	n/a
284.397	0.161	568794	keystroke	r	n/a
285.047	0.092	570094	keystroke	Key.backspace	n/a
285.227	0.069	570454	keystroke	Key.backspace	n/a
285.381	0.0945	570762	keystroke	Key.backspace	n/a
286.4015	0.069	572803	keystroke	o	n/a
286.5645	0.1135	573129	keystroke	r	n/a
286.821	0.1395	573642	keystroke	d	n/a
286.9825	0.138	573965	keystroke	Key.space	n/a
287.748	0.114	575496	keystroke	r	n/a
287.951	0.095	575902	keystroke	e	n/a
288.159	0.116	576318	keystroke	s	n/a
288.276	0.069	576552	keystroke	i	n/a
288.376	0.07	576752	keystroke	d	n/a
288.532	0.116	577064	keystroke	e	n/a
288.649	0.09	577298	keystroke	n	n/a
288.854	0.094	577708	keystroke	c	n/a
289.079	0.1165	578158	keystroke	e	n/a
289.2185	0.092	578437	keystroke	Key.space	n/a
289.551	0.137	579102	keystroke	f	n/a
289.745	0.092	579490	keystroke	o	n/a
289.909	0.1145	579818	keystroke	o	n/a
290.277	0.094	580554	keystroke	Key.backspace	n/a
290.44	0.115	580880	keystroke	Key.backspace	n/a
290.531	0.116	581062	keystroke	e	n/a
290.739	0.092	581478	keystroke	e	n/a
290.96	0.091	581920	keystroke	d	n/a
291.185	0.162	582370	keystroke	s	n/a
291.395	0.157	582790	keystroke	Key.enter	n/a
291.5575	8.6385	583115	prompt	n/a	beta guaranteed corn respected\n
292.346	0.139	584692	keystroke	b	n/a
292.46	0.138	584920	keystroke	e	n/a
292.636	0.112	585272	keystroke	t	n/a
292.77	0.115	585540	keystroke	a	n/a
292.916	0.114	585832	keystroke	Key.space	n/a
293.589	0.114	587178	keystroke	g	n/a
293.769	0.139	587538	keystroke	u	n/a
294.8015	0.1855	589603	keystroke	a	n/a
295.357	0.16	590714	keystroke	r	n/a
295.592	0.157	591184	keystroke	a	n/a
295.75	0.093	591500	keystroke	n	n/a
295.968	0.094	591936	keystroke	t	n/a
296.083	0.273	592166	keystroke	e	n/a
296.9135	0.139	593827	keystroke	e	n/a
297.1455	0.16	594291	keystroke	d	n/a
297.3065	0.112	594613	keystroke	Key.space	n/a
297.5665	0.092	595133	keystroke	c	n/a
297.7425	0.181	595485	keystroke	o	n/a
298.0035	0.115	596007	keystroke	r	n/a
298.1875	0.139	596375	keystroke	n	n/a
298.3485	0.091	596697	keystroke	Key.space	n/a
298.6555	0.069	597311	keystroke	r	n/a
298.8445	0.071	597689	keystroke	e	n/a
299.0415	0.117	598083	keystroke	s	n/a
299.1105	0.118	598221	keystroke	p	n/a
299.2805	0.093	598561	keystroke	e	n/a
299.5045	0.118	599009	keystroke	c	n/a
299.6235	0.088	599247	keystroke	t	n/a
299.7505	0.095	599501	keystroke	e	n/a
299.9465	0.092	599893	keystroke	d	n/a
300.0785	0.116	600157	keystroke	Key.enter	n/a
300.1985	8.122	600397	prompt	n/a	michel hyundai revolution comparable\n
301.0775	0.137	602155	keystroke	m	n/a
301.2955	0.071	602591	keystroke	i	n/a
301.3895	0.138	602779	keystroke	c	n/a
301.6005	0.0915	603201	keystroke	h	n/a
301.767	0.16	603534	keystroke	e	n/a
302.009	0.139	604018	keystroke	l	n/a
302.188	0.114	604376	keystroke	Key.space	n/a
302.851	0.114	605702	keystroke	h	n/a
303.058	0.071	606116	keystroke	y	n/a
303.241	0.092	606482	keystroke	u	n/a
303.441	0.09	606882	keystroke	n	n/a
303.562	0.113	607124	keystroke	d	n/a
303.765	0.139	607530	keystroke	a	n/a
303.857	0.113	607714	keystroke	i	n/a
304.012	0.093	608024	keystroke	Key.space	n/a
304.427	0.09	608854	keystroke	r	n/a
304.6205	0.069	609241	keystroke	e	n/a
304.854	0.14	609708	keystroke	v	n/a
304.995	0.092	609990	keystroke	o	n/a
305.161	0.093	610322	keystroke	l	n/a
305.377	0.069	610754	keystroke	u	n/a
305.599	0.089	611198	keystroke	t	n/a
305.861	0.093	611722	keystroke	i	n/a
305.977	0.117	611954	keystroke	o	n/a
306.205	0.091	612410	keystroke	n	n/a
306.332	0.114	612664	keystroke	Key.space	n/a
306.577	0.159	613154	keystroke	c	n/a
306.88	0.091	613760	keystroke	o	n/a
307.081	0.075	614162	keystroke	m	n/a
307.25	0.07	614500	keystroke	p	n/a
307.321	0.09	614642	keystroke	a	n/a
307.456	0.134	614912	keystroke	r	n/a
307.667	0.139	615334	keystroke	a	n/a
307.781	0.072	615562	keystroke	b	n/a
307.9605	0.094	615921	keystroke	l	n/a
308.1235	0.067	616247	keystroke	e	n/a
308.2475	0.071	616495	keystroke	Key.enter	n/a
308.323	9.4555	616646	prompt	n/a	width garage determined moldova\n
308.9715	0.135	617943	keystroke	w	n/a
309.2485	0.07	618497	keystroke	i	n/a
309.3495	0.161	618699	keystroke	d	n/a
309.6015	0.114	619203	keystroke	t	n/a
309.8115	0.114	619623	keystroke	h	n/a
309.9465	0.114	619893	keystroke	Key.space	n/a
310.4205	0.092	620841	keystroke	g	n/a
310.544	0.138	621088	keystroke	a	n/a
310.704	0.114	621408	keystroke	r	n/a
310.795	0.117	621590	keystroke	a	n/a
310.948	0.113	621896	keystroke	g	n/a
311.122	0.121	622244	keystroke	e	n/a
311.29	0.093	622580	keystroke	Key.space	n/a
311.789	0.138	623578	keystroke	d	n/a
312.0405	0.136	624081	keystroke	e	n/a
312.4585	0.093	624917	keystroke	t	n/a
312.5525	0.115	625105	keystroke	e	n/a
312.7525	0.069	625505	keystroke	r	n/a
312.9315	0.094	625863	keystroke	e	n/a
313.0485	0.114	626097	keystroke	m	n/a
313.2015	0.093	626403	keystroke	i	n/a
313.3565	0.0925	626713	keystroke	n	n/a
313.38	0.118	626760	keystroke	e	n/a
313.616	0.137	627232	keystroke	d	n/a
313.754	0.092	627508	keystroke	Key.space	n/a
314.109	0.117	628218	keystroke	m	n/a
314.3625	0.071	628725	keystroke	o	n/a
314.3645	0.071	628729	keystroke	i	n/a
314.5965	0.047	629193	keystroke	l	n/a
315.0365	0.09	630073	keystroke	Key.backspace	n/a
315.2025	0.094	630405	keystroke	Key.backspace	n/a
315.9885	0.09	631977	keystroke	l	n/a
316.1165	0.184	632233	keystroke	d	n/a
317.106	0.14	634212	keystroke	o	n/a
317.417	0.069	634834	keystroke	v	n/a
317.537	0.114	635074	keystroke	a	n/a
317.706	0.071	635412	keystroke	Key.enter	n/a
317.7815	9.2035	635563	prompt	n/a	submit scottish matters sculpture\n
318.508	0.163	637016	keystroke	s	n/a
318.7745	0.093	637549	keystroke	u	n/a
319.0435	0.091	638087	keystroke	b	n/a
319.2515	0.092	638503	keystroke	m	n/a
319.4435	0.068	638887	keystroke	i	n/a
319.7075	0.094	639415	keystroke	t	n/a
319.8775	0.092	639755	keystroke	Key.space	n/a
320.0915	0.1365	640183	keystroke	s	n/a
320.382	0.093	640764	keystroke	c	n/a
320.549	0.092	641098	keystroke	o	n/a
320.82	0.047	641640	keystroke	t	n/a
320.954	0.094	641908	keystroke	t	n/a
321.165	0.091	642330	keystroke	i	n/a
321.302	0.116	642604	keystroke	s	n/a
321.394	0.117	642788	keystroke	h	n/a
321.564	0.094	643128	keystroke	Key.space	n/a
322.003	0.1375	644006	keystroke	m	n/a
322.1415	0.133	644283	keystroke	a	n/a
322.3335	0.069	644667	keystroke	t	n/a
322.4605	0.114	644921	keystroke	t	n/a
322.5495	0.113	645099	keystroke	e	n/a
322.7555	0.094	645511	keystroke	r	n/a
323.0025	0.115	646005	keystroke	s	n/a
323.1185	0.068	646237	keystroke	Key.space	n/a
323.4785	0.14	646957	keystroke	s	n/a
323.7445	0.092	647489	keystroke	c	n/a
323.9095	0.091	647819	keystroke	u	n/a
324.1135	0.09	648227	keystroke	l	n/a
324.5885	0.092	649177	keystroke	p	n/a
326.171	0.07	652342	keystroke	t	n/a
326.3845	0.0915	652769	keystroke	u	n/a
326.542	0.1145	653084	keystroke	r	n/a
326.754	0.1155	653508	keystroke	e	n/a
326.8705	0.113	653741	keystroke	Key.enter	n/a
326.9885	10.381	653977	prompt	n/a	species advisory distributors discipline\n
327.5735	0.136	655147	keystroke	s	n/a
327.8165	0.135	655633	keystroke	p	n/a
327.9525	0.092	655905	keystroke	e	n/a
328.1785	0.116	656357	keystroke	c	n/a
328.2955	0.1405	656591	keystroke	i	n/a
328.4605	0.1145	656921	keystroke	e	n/a
328.675	0.115	657350	keystroke	s	n/a
328.8355	0.0905	657671	keystroke	Key.space	n/a
329.8465	0.161	659693	keystroke	a	n/a
330.0905	0.115	660181	keystroke	d	n/a
330.3005	0.094	660601	keystroke	v	n/a
330.5615	0.113	661123	keystroke	i	n/a
330.6975	0.137	661395	keystroke	s	n/a
330.836	0.0675	661672	keystroke	o	n/a
331.0365	0.137	662073	keystroke	r	n/a
331.2555	0.118	662511	keystroke	y	n/a
331.4055	0.092	662811	keystroke	Key.space	n/a
332.1545	0.136	664309	keystroke	d	n/a
332.4205	0.092	664841	keystroke	i	n/a
332.5435	0.115	665087	keystroke	s	n/a
332.7515	0.069	665503	keystroke	t	n/a
332.9115	0.07	665823	keystroke	r	n/a
333.2505	0.114	666501	keystroke	i	n/a
333.4815	0.091	666963	keystroke	b	n/a
333.6695	0.095	667339	keystroke	u	n/a
333.8105	0.092	667621	keystroke	t	n/a
334.0285	0.094	668057	keystroke	o	n/a
334.1805	0.114	668361	keystroke	r	n/a
334.4655	0.138	668931	keystroke	s	n/a
334.6035	0.091	669207	keystroke	Key.space	n/a
334.9855	0.093	669971	keystroke	d	n/a
335.1625	0.094	670325	keystroke	i	n/a
335.2795	0.114	670559	keystroke	s	n/a
335.5205	0.116	671041	keystroke	c	n/a
335.6595	0.092	671319	keystroke	i	n/a
335.8005	0.136	671601	keystroke	p	n/a
335.9845	0.116	671969	keystroke	l	n/a
336.2105	0.116	672421	keystroke	i	n/a
336.4355	0.092	672871	keystroke	n	n/a
336.5495	0.116	673099	keystroke	e	n/a
337.233	0.1345	674466	keystroke	Key.enter	n/a
337.372	12.5675	674744	prompt	n/a	convertible enhancement showcase handled\n
338.072	0.116	676144	keystroke	c	n/a
338.247	0.113	676494	keystroke	o	n/a
338.673	0.114	677346	keystroke	n	n/a
338.9125	0.0925	677825	keystroke	v	n/a
339.0275	0.1155	678055	keystroke	e	n/a
339.244	0.0935	678488	keystroke	r	n/a
339.4465	0.071	678893	keystroke	t	n/a
339.6405	0.115	679281	keystroke	i	n/a
339.8535	0.114	679707	keystroke	b	n/a
340.0785	0.139	680157	keystroke	l	n/a
340.1935	0.116	680387	keystroke	e	n/a
340.3315	0.093	680663	keystroke	Key.space	n/a
340.668	0.115	681336	keystroke	e	n/a
340.9385	0.092	681877	keystroke	n	n/a
341.1505	0.069	682301	keystroke	g	n/a
341.2425	0.139	682485	keystroke	a	n/a
341.6615	0.089	683323	keystroke	Key.backspace	n/a
341.8755	0.092	683751	keystroke	Key.backspace	n/a
342.5235	0.092	685047	keystroke	h	n/a
342.7605	0.14	685521	keystroke	a	n/a
342.8075	0.116	685615	keystroke	n	n/a
343.0485	0.093	686097	keystroke	c	n/a
343.2555	0.113	686511	keystroke	e	n/a
343.3455	0.071	686691	keystroke	m	n/a
343.4995	0.094	686999	keystroke	n	n/a
343.6175	0.092	687235	keystroke	e	n/a
343.7545	0.092	687509	keystroke	t	n/a
343.9345	0.139	687869	keystroke	s	n/a
344.7885	0.139	689577	keystroke	Key.backspace	n/a
344.9685	0.116	689937	keystroke	Key.space	n/a
345.35	0.1375	690700	keystroke	s	n/a
345.5865	0.095	691173	keystroke	h	n/a
345.7585	0.113	691517	keystroke	o	n/a
345.8725	0.089	691745	keystroke	w	n/a
346.136	0.115	692272	keystroke	c	n/a
346.404	0.188	692808	keystroke	a	n/a
346.569	0.134	693138	keystroke	s	n/a
346.804	0.0915	693608	keystroke	e	n/a
348.855	0.091	697710	keystroke	h	n/a
348.947	0.156	697894	keystroke	a	n/a
349.079	0.071	698158	keystroke	n	n/a
349.182	0.092	698364	keystroke	d	n/a
349.314	0.137	698628	keystroke	l	n/a
349.452	0.091	698904	keystroke	e	n/a
349.65	0.093	699300	keystroke	d	n/a
349.798	0.14	699596	keystroke	Key.enter	n/a
349.9445	7.4485	699889	prompt	n/a	thereby living rendering capacity\n
350.7845	0.116	701569	keystroke	t	n/a
350.9825	0.094	701965	keystroke	h	n/a
351.0295	0.094	702059	keystroke	e	n/a
351.2455	0.047	702491	keystroke	r	n/a
351.3905	0.094	702781	keystroke	e	n/a
351.5465	0.093	703093	keystroke	b	n/a
351.7695	0.069	703539	keystroke	y	n/a
351.8945	0.091	703789	keystroke	Key.space	n/a
352.3875	0.139	704775	keystroke	l	n/a
352.5655	0.072	705131	keystroke	i	n/a
352.7075	0.137	705415	keystroke	v	n/a
352.8455	0.09	705691	keystroke	i	n/a
353.0555	0.116	706111	keystroke	n	n/a
353.2675	0.113	706535	keystroke	g	n/a
353.4035	0.117	706807	keystroke	Key.space	n/a
353.8185	0.093	707637	keystroke	r	n/a
354.0005	0.115	708001	keystroke	e	n/a
354.1165	0.067	708233	keystroke	n	n/a
354.2205	0.09	708441	keystroke	d	n/a
354.4225	0.069	708845	keystroke	e	n/a
354.6015	0.071	709203	keystroke	r	n/a
354.6485	0.139	709297	keystroke	i	n/a
354.8385	0.115	709677	keystroke	n	n/a
355.0405	0.115	710081	keystroke	g	n/a
355.1875	0.092	710375	keystroke	Key.space	n/a
355.4265	0.112	710853	keystroke	c	n/a
355.66	0.117	711320	keystroke	a	n/a
355.73	0.115	711460	keystroke	p	n/a
355.868	0.136	711736	keystroke	a	n/a
356.359	0.183	712718	keystroke	c	n/a
356.625	0.138	713250	keystroke	i	n/a
356.9	0.092	713800	keystroke	t	n/a
357.092	0.07	714184	keystroke	y	n/a
357.322	0.0685	714644	keystroke	Key.enter	n/a
357.4085	8.089	714817	prompt	n/a	shoulder worn taught firewall\n
358.0065	0.139	716013	keystroke	s	n/a
358.1955	0.092	716391	keystroke	h	n/a
358.3755	0.137	716751	keystroke	o	n/a
358.5485	0.09	717097	keystroke	u	n/a
358.7215	0.114	717443	keystroke	l	n/a
358.7665	0.116	717533	keystroke	d	n/a
358.9855	0.092	717971	keystroke	e	n/a
359.1675	0.092	718335	keystroke	r	n/a
359.2965	0.07	718593	keystroke	Key.space	n/a
359.4225	0.116	718845	keystroke	w	n/a
359.5405	0.088	719081	keystroke	o	n/a
359.9075	0.138	719815	keystroke	r	n/a
360.0775	0.134	720155	keystroke	n	n/a
360.2345	0.114	720469	keystroke	Key.space	n/a
360.6005	0.091	721201	keystroke	t	n/a
360.7135	0.16	721427	keystroke	a	n/a
360.9435	0.071	721887	keystroke	i	n/a
360.9665	0.142	721933	keystroke	u	n/a
361.2985	0.138	722597	keystroke	g	n/a
361.7155	0.092	723431	keystroke	Key.backspace	n/a
361.8905	0.072	723781	keystroke	Key.backspace	n/a
362.0435	0.091	724087	keystroke	Key.backspace	n/a
362.691	0.092	725382	keystroke	u	n/a
362.911	0.092	725822	keystroke	g	n/a
363.084	0.114	726168	keystroke	h	n/a
363.495	0.116	726990	keystroke	t	n/a
363.668	0.095	727336	keystroke	Key.space	n/a
363.966	0.138	727932	keystroke	f	n/a
364.24	0.069	728480	keystroke	i	n/a
364.346	0.114	728692	keystroke	r	n/a
364.565	0.115	729130	keystroke	e	n/a
364.783	0.114	729566	keystroke	w	n/a
364.977	0.138	729954	keystroke	a	n/a
365.091	0.091	730182	keystroke	l	n/a
365.237	0.117	730474	keystroke	l	n/a
365.404	0.092	730808	keystroke	Key.enter	n/a
365.5005	6.9645	731001	prompt	n/a	blood guys powers fares\n
366.406	0.092	732812	keystroke	n	n/a
366.8735	0.1175	733747	keystroke	Key.backspace	n/a
367.45	0.071	734900	keystroke	b	n/a
367.709	0.096	735418	keystroke	l	n/a
367.925	0.068	735850	keystroke	o	n/a
368.073	0.093	736146	keystroke	o	n/a
368.197	0.137	736394	keystroke	d	n/a
368.335	0.09	736670	keystroke	Key.space	n/a
369.015	0.115	738030	keystroke	g	n/a
369.2755	0.092	738551	keystroke	u	n/a
369.4595	0.069	738919	keystroke	y	n/a
369.5515	0.135	739103	keystroke	s	n/a
369.6875	0.114	739375	keystroke	Key.space	n/a
369.9355	0.114	739871	keystroke	p	n/a
370.1185	0.068	740237	keystroke	o	n/a
370.2175	0.137	740435	keystroke	w	n/a
370.4535	0.093	740907	keystroke	e	n/a
370.6575	0.115	741315	keystroke	r	n/a
370.9115	0.136	741823	keystroke	s	n/a
371.0485	0.089	742097	keystroke	Key.space	n/a
371.522	0.116	743044	keystroke	f	n/a
371.659	0.115	743318	keystroke	a	n/a
371.838	0.093	743676	keystroke	r	n/a
372.008	0.115	744016	keystroke	e	n/a
372.233	0.139	744466	keystroke	s	n/a
372.373	0.09	744746	keystroke	Key.enter	n/a
372.468	13.17	744936	prompt	n/a	answered rainbow cigarette qualified\n
373.331	0.1595	746662	keystroke	a	n/a
373.7755	0.097	747551	keystroke	n	n/a
373.9225	0.137	747845	keystroke	s	n/a
374.1675	0.071	748335	keystroke	w	n/a
374.4015	0.051	748803	keystroke	r	n/a
374.6285	0.1175	749257	keystroke	e	n/a
374.861	0.16	749722	keystroke	d	n/a
375.097	0.091	750194	keystroke	Key.space	n/a
375.754	0.092	751508	keystroke	Key.backspace	n/a
375.935	0.068	751870	keystroke	Key.backspace	n/a
376.0985	0.093	752197	keystroke	Key.backspace	n/a
376.2735	0.07	752547	keystroke	Key.backspace	n/a
376.3665	0.093	752733	keystroke	e	n/a
376.5565	0.092	753113	keystroke	r	n/a
376.7455	0.0925	753491	keystroke	e	n/a
376.9535	0.115	753907	keystroke	d	n/a
377.0695	0.112	754139	keystroke	Key.space	n/a
377.4145	0.1165	754829	keystroke	r	n/a
377.632	0.161	755264	keystroke	a	n/a
377.745	0.092	755490	keystroke	i	n/a
377.937	0.113	755874	keystroke	n	n/a
378.181	0.069	756362	keystroke	b	n/a
378.385	0.092	756770	keystroke	o	n/a
378.513	0.113	757026	keystroke	w	n/a
378.627	0.092	757254	keystroke	Key.space	n/a
379.125	0.137	758250	keystroke	c	n/a
379.312	0.07	758624	keystroke	i	n/a
379.581	0.093	759162	keystroke	g	n/a
379.881	0.159	759762	keystroke	a	n/a
380.777	0.115	761554	keystroke	r	n/a
380.916	0.114	761832	keystroke	e	n/a
381.063	0.069	762126	keystroke	t	n/a
381.211	0.093	762422	keystroke	t	n/a
381.305	0.089	762610	keystroke	e	n/a
381.416	0.092	762832	keystroke	Key.space	n/a
382.0235	0.1615	764047	keystroke	q	n/a
382.287	0.093	764574	keystroke	u	n/a
383.5465	0.138	767093	keystroke	a	n/a
383.7425	0.207	767485	keystroke	l	n/a
384.6965	0.0915	769393	keystroke	i	n/a
384.845	0.118	769690	keystroke	f	n/a
384.964	0.09	769928	keystroke	i	n/a
385.088	0.1145	770176	keystroke	e	n/a
385.3095	0.094	770619	keystroke	d	n/a
385.4985	0.138	770997	keystroke	Key.enter	n/a
385.6405	8.202	771281	prompt	n/a	viewer mating promo accused\n
386.9435	0.095	773887	keystroke	v	n/a
387.2885	0.093	774577	keystroke	i	n/a
387.4405	0.117	774881	keystroke	e	n/a
387.6625	0.116	775325	keystroke	w	n/a
387.8915	0.114	775783	keystroke	e	n/a
388.1095	0.091	776219	keystroke	r	n/a
388.2515	0.0915	776503	keystroke	Key.space	n/a
388.529	0.1165	777058	keystroke	m	n/a
388.6875	0.117	777375	keystroke	a	n/a
388.8355	0.07	777671	keystroke	t	n/a
389.0125	0.114	778025	keystroke	i	n/a
389.2195	0.092	778439	keystroke	n	n/a
389.4135	0.093	778827	keystroke	g	n/a
389.5475	0.115	779095	keystroke	Key.space	n/a
390.2145	0.137	780429	keystroke	p	n/a
390.4305	0.1155	780861	keystroke	r	n/a
390.601	0.023	781202	keystroke	o	n/a
390.783	0.1115	781566	keystroke	m	n/a
390.9585	0.14	781917	keystroke	o	n/a
391.0735	0.116	782147	keystroke	Key.space	n/a
391.2825	0.16	782565	keystroke	a	n/a
391.5785	0.116	783157	keystroke	c	n/a
391.777	0.119	783554	keystroke	c	n/a
391.871	0.07	783742	keystroke	u	n/a
392.021	0.138	784042	keystroke	d	n/a
392.514	0.141	785028	keystroke	Key.backspace	n/a
393.2065	0.137	786413	keystroke	s	n/a
393.4415	0.093	786883	keystroke	e	n/a
393.6345	0.093	787269	keystroke	d	n/a
393.7485	0.092	787497	keystroke	Key.enter	n/a
393.8455	8.27	787691	prompt	n/a	present minimal superb construction\n
394.5985	0.091	789197	keystroke	p	n/a
394.7475	0.113	789495	keystroke	r	n/a
394.9605	0.094	789921	keystroke	e	n/a
395.1845	0.113	790369	keystroke	s	n/a
395.4025	0.09	790805	keystroke	e	n/a
395.4935	0.114	790987	keystroke	n	n/a
395.7375	0.113	791475	keystroke	t	n/a
395.8815	0.115	791763	keystroke	Key.space	n/a
396.2965	0.112	792593	keystroke	m	n/a
396.4985	0.093	792997	keystroke	i	n/a
396.6675	0.114	793335	keystroke	n	n/a
396.8325	0.07	793665	keystroke	i	n/a
397.0155	0.094	794031	keystroke	m	n/a
397.1745	0.137	794349	keystroke	a	n/a
397.2425	0.162	794485	keystroke	l	n/a
397.4265	0.094	794853	keystroke	Key.space	n/a
397.6625	0.156	795325	keystroke	s	n/a
398.0465	0.095	796093	keystroke	u	n/a
398.232	0.092	796464	keystroke	p	n/a
398.347	0.0705	796694	keystroke	e	n/a
398.5315	0.0935	797063	keystroke	r	n/a
398.669	0.23	797338	keystroke	b	n/a
399.049	0.092	798098	keystroke	Key.space	n/a
399.524	0.158	799048	keystroke	c	n/a
399.705	0.113	799410	keystroke	o	n/a
399.961	0.094	799922	keystroke	n	n/a
400.337	0.138	800674	keystroke	s	n/a
400.497	0.094	800994	keystroke	t	n/a
400.67	0.069	801340	keystroke	r	n/a
400.901	0.093	801802	keystroke	u	n/a
401.032	0.118	802064	keystroke	c	n/a
401.151	0.067	802302	keystroke	t	n/a
401.409	0.135	802818	keystroke	i	n/a
401.566	0.092	803132	keystroke	o	n/a
401.776	0.071	803552	keystroke	n	n/a
402.0205	0.094	804041	keystroke	Key.enter	n/a
402.119	8.8695	804238	prompt	n/a	hurricane evaluating personal commands\n
403.0295	0.091	806059	keystroke	h	n/a
403.2325	0.091	806465	keystroke	u	n/a
403.4335	0.047	806867	keystroke	r	n/a
403.5965	0.07	807193	keystroke	r	n/a
403.7065	0.069	807413	keystroke	i	n/a
403.8355	0.113	807671	keystroke	c	n/a
404.0785	0.139	808157	keystroke	a	n/a
404.1935	0.069	808387	keystroke	n	n/a
404.2845	0.114	808569	keystroke	e	n/a
404.3995	0.09	808799	keystroke	Key.space	n/a
404.673	0.118	809346	keystroke	e	n/a
405.137	0.096	810274	keystroke	v	n/a
405.392	0.143	810784	keystroke	a	n/a
405.486	0.118	810972	keystroke	l	n/a
405.657	0.09	811314	keystroke	u	n/a
405.863	0.137	811726	keystroke	a	n/a
406.062	0.094	812124	keystroke	t	n/a
406.267	0.135	812534	keystroke	i	n/a
406.491	0.0925	812982	keystroke	n	n/a
406.7245	0.091	813449	keystroke	g	n/a
406.8525	0.114	813705	keystroke	Key.space	n/a
407.0305	0.093	814061	keystroke	p	n/a
407.0985	0.097	814197	keystroke	e	n/a
407.3185	0.092	814637	keystroke	r	n/a
407.5905	0.136	815181	keystroke	s	n/a
408.0385	0.114	816077	keystroke	o	n/a
408.2705	0.092	816541	keystroke	n	n/a
408.4255	0.159	816851	keystroke	a	n/a
408.6615	0.184	817323	keystroke	l	n/a
408.9075	0.114	817815	keystroke	Key.space	n/a
409.665	0.16	819330	keystroke	c	n/a
409.887	0.115	819774	keystroke	o	n/a
410.141	0.069	820282	keystroke	m	n/a
410.27	0.116	820540	keystroke	m	n/a
410.387	0.138	820774	keystroke	a	n/a
410.499	0.073	820998	keystroke	n	n/a
410.594	0.091	821188	keystroke	d	n/a
410.778	0.0945	821556	keystroke	s	n/a
410.8945	0.093	821789	keystroke	Key.enter	n/a
410.9915	10.5825	821983	prompt	n/a	gabriel volunteers motorcycle rather\n
412.149	0.093	824298	keystroke	g	n/a
412.265	0.138	824530	keystroke	a	n/a
412.379	0.093	824758	keystroke	b	n/a
412.57	0.138	825140	keystroke	r	n/a
412.79	0.159	825580	keystroke	i	n/a
412.95	0.089	825900	keystroke	e	n/a
413.112	0.143	826224	keystroke	l	n/a
413.278	0.115	826556	keystroke	Key.space	n/a
413.694	0.093	827388	keystroke	v	n/a
414.041	0.091	828082	keystroke	o	n/a
414.2395	0.094	828479	keystroke	l	n/a
414.3745	0.092	828749	keystroke	u	n/a
414.5615	0.114	829123	keystroke	n	n/a
414.7635	0.091	829527	keystroke	t	n/a
414.8945	0.1145	829789	keystroke	e	n/a
415.092	0.114	830184	keystroke	e	n/a
415.3085	0.113	830617	keystroke	r	n/a
415.607	0.14	831214	keystroke	s	n/a
415.723	0.093	831446	keystroke	Key.space	n/a
415.918	0.115	831836	keystroke	m	n/a
416.157	0.16	832314	keystroke	o	n/a
417.645	0.205	835290	keystroke	t	n/a
418.189	0.117	836378	keystroke	o	n/a
418.328	0.1155	836656	keystroke	r	n/a
418.9115	0.229	837823	keystroke	c	n/a
419.2245	0.095	838449	keystroke	y	n/a
419.3735	0.115	838747	keystroke	c	n/a
419.5455	0.094	839091	keystroke	l	n/a
419.6405	0.135	839281	keystroke	e	n/a
419.9535	0.118	839907	keystroke	Key.space	n/a
420.5115	0.092	841023	keystroke	r	n/a
420.6265	0.159	841253	keystroke	a	n/a
420.7395	0.094	841479	keystroke	t	n/a
420.936	0.093	841872	keystroke	h	n/a
420.982	0.141	841964	keystroke	e	n/a
421.272	0.096	842544	keystroke	r	n/a
421.459	0.114	842918	keystroke	Key.enter	n/a
421.5765	6.53	843153	prompt	n/a	where double location libraries\n
422.235	0.165	844470	keystroke	w	n/a
422.433	0.092	844866	keystroke	h	n/a
422.527	0.111	845054	keystroke	e	n/a
422.742	0.094	845484	keystroke	r	n/a
422.919	0.116	845838	keystroke	e	n/a
423.374	0.115	846748	keystroke	Key.space	n/a
423.566	0.115	847132	keystroke	d	n/a
423.682	0.115	847364	keystroke	o	n/a
423.832	0.091	847664	keystroke	u	n/a
424.064	0.092	848128	keystroke	b	n/a
424.251	0.1375	848502	keystroke	l	n/a
424.4595	0.093	848919	keystroke	e	n/a
424.5055	0.117	849011	keystroke	Key.space	n/a
424.7795	0.16	849559	keystroke	l	n/a
425.0245	0.116	850049	keystroke	o	n/a
425.1415	0.134	850283	keystroke	c	n/a
425.3665	0.164	850733	keystroke	a	n/a
425.5055	0.094	851011	keystroke	t	n/a
425.7515	0.135	851503	keystroke	i	n/a
425.9085	0.092	851817	keystroke	o	n/a
426.0915	0.116	852183	keystroke	n	n/a
426.2285	0.117	852457	keystroke	Key.space	n/a
426.4575	0.137	852915	keystroke	l	n/a
426.6505	0.116	853301	keystroke	i	n/a
426.9095	0.114	853819	keystroke	b	n/a
427.0785	0.115	854157	keystroke	r	n/a
427.2935	0.116	854587	keystroke	a	n/a
427.4975	0.07	854995	keystroke	r	n/a
427.5685	0.09	855137	keystroke	i	n/a
427.6795	0.116	855359	keystroke	e	n/a
427.874	0.115	855748	keystroke	s	n/a
428.013	0.092	856026	keystroke	Key.enter	n/a
428.109	9.2315	856218	prompt	n/a	quarterly kansas married clark\n
428.773	0.162	857546	keystroke	w	n/a
429.4935	0.093	858987	keystroke	u	n/a
430.6275	0.094	861255	keystroke	Key.backspace	n/a
430.8035	0.093	861607	keystroke	Key.backspace	n/a
431.1345	0.158	862269	keystroke	q	n/a
431.3775	0.095	862755	keystroke	u	n/a
431.5215	0.138	863043	keystroke	a	n/a
431.7495	0.0925	863499	keystroke	r	n/a
431.94	0.094	863880	keystroke	t	n/a
432.056	0.114	864112	keystroke	e	n/a
432.308	0.071	864616	keystroke	r	n/a
432.452	0.137	864904	keystroke	l	n/a
432.76	0.113	865520	keystroke	y	n/a
432.912	0.09	865824	keystroke	Key.space	n/a
433.21	0.1145	866420	keystroke	j	n/a
433.376	0.164	866752	keystroke	a	n/a
433.445	0.098	866890	keystroke	n	n/a
433.754	0.116	867508	keystroke	s	n/a
433.936	0.186	867872	keystroke	a	n/a
434.098	0.14	868196	keystroke	s	n/a
434.239	0.112	868478	keystroke	Key.space	n/a
434.518	0.115	869036	keystroke	m	n/a
434.656	0.138	869312	keystroke	a	n/a
434.915	0.092	869830	keystroke	r	n/a
435.071	0.091	870142	keystroke	r	n/a
435.199	0.116	870398	keystroke	i	n/a
435.269	0.093	870538	keystroke	e	n/a
435.463	0.139	870926	keystroke	d	n/a
435.603	0.09	871206	keystroke	Key.space	n/a
435.726	0.046	871452	keystroke	c	n/a
436.131	0.07	872262	keystroke	Key.backspace	n/a
436.421	0.115	872842	keystroke	c	n/a
436.595	0.091	873190	keystroke	l	n/a
436.717	0.137	873434	keystroke	a	n/a
436.938	0.113	873876	keystroke	r	n/a
437.053	0.089	874106	keystroke	k	n/a
437.27	0.069	874540	keystroke	Key.enter	n/a
437.343	11.3785	874686	prompt	n/a	drive bibliographic fighters upgrades\n
438.1345	0.113	876269	keystroke	d	n/a
438.3935	0.07	876787	keystroke	r	n/a
438.4855	0.07	876971	keystroke	i	n/a
438.6745	0.1165	877349	keystroke	v	n/a
438.792	0.135	877584	keystroke	e	n/a
438.903	0.117	877806	keystroke	Key.space	n/a
439.171	0.114	878342	keystroke	b	n/a
439.809	0.092	879618	keystroke	i	n/a
440.125	0.1165	880250	keystroke	b	n/a
440.4355	0.138	880871	keystroke	l	n/a
440.6095	0.091	881219	keystroke	i	n/a
440.7665	0.0935	881533	keystroke	o	n/a
441.023	0.095	882046	keystroke	h	n/a
441.047	0.072	882094	keystroke	g	n/a
442.066	0.071	884132	keystroke	Key.backspace	n/a
442.217	0.067	884434	keystroke	Key.backspace	n/a
442.779	0.0695	885558	keystroke	g	n/a
442.88	0.139	885760	keystroke	r	n/a
443.133	0.139	886266	keystroke	a	n/a
443.223	0.072	886446	keystroke	p	n/a
443.623	0.138	887246	keystroke	h	n/a
443.881	0.137	887762	keystroke	i	n/a
444.04	0.137	888080	keystroke	c	n/a
444.225	0.0905	888450	keystroke	Key.space	n/a
444.9855	0.137	889971	keystroke	f	n/a
445.1985	0.092	890397	keystroke	i	n/a
445.4455	0.091	890891	keystroke	g	n/a
445.6135	0.092	891227	keystroke	h	n/a
445.8375	0.024	891675	keystroke	t	n/a
446.2925	0.115	892585	keystroke	e	n/a
446.5185	0.071	893037	keystroke	r	n/a
446.8335	0.139	893667	keystroke	s	n/a
446.9955	0.114	893991	keystroke	Key.space	n/a
447.2135	0.115	894427	keystroke	u	n/a
447.4095	0.093	894819	keystroke	p	n/a
447.6815	0.07	895363	keystroke	g	n/a
447.7875	0.092	895575	keystroke	r	n/a
447.9625	0.161	895925	keystroke	a	n/a
448.1565	0.094	896313	keystroke	d	n/a
448.3345	0.092	896669	keystroke	e	n/a
448.5315	0.118	897063	keystroke	s	n/a
448.6505	0.069	897301	keystroke	Key.enter	n/a
448.7255	6.3605	897451	prompt	n/a	clean sunrise became feelings\n
449.6125	0.118	899225	keystroke	c	n/a
449.8445	0.139	899689	keystroke	l	n/a
449.9595	0.139	899919	keystroke	e	n/a
450.1745	0.137	900349	keystroke	a	n/a
450.2645	0.137	900529	keystroke	n	n/a
450.4465	0.116	900893	keystroke	Key.space	n/a
450.5855	0.163	901171	keystroke	s	n/a
450.8295	0.1165	901659	keystroke	u	n/a
451.057	0.092	902114	keystroke	n	n/a
451.207	0.114	902414	keystroke	r	n/a
451.369	0.094	902738	keystroke	i	n/a
451.484	0.14	902968	keystroke	s	n/a
451.706	0.116	903412	keystroke	e	n/a
451.868	0.092	903736	keystroke	Key.space	n/a
452.221	0.113	904442	keystroke	b	n/a
452.356	0.114	904712	keystroke	e	n/a
452.6	0.098	905200	keystroke	c	n/a
452.819	0.14	905638	keystroke	a	n/a
452.934	0.117	905868	keystroke	m	n/a
453.108	0.138	906216	keystroke	e	n/a
453.283	0.092	906566	keystroke	Key.space	n/a
453.505	0.114	907010	keystroke	f	n/a
453.7805	0.049	907561	keystroke	e	n/a
453.91	0.0935	907820	keystroke	e	n/a
454.025	0.163	908050	keystroke	l	n/a
454.163	0.092	908326	keystroke	i	n/a
454.37	0.116	908740	keystroke	n	n/a
454.585	0.115	909170	keystroke	g	n/a
454.745	0.135	909490	keystroke	s	n/a
454.967	0.117	909934	keystroke	Key.enter	n/a
455.0885	6.129	910177	prompt	n/a	reel final explained sealed\n
455.875	0.093	911750	keystroke	r	n/a
456.082	0.09	912164	keystroke	e	n/a
456.237	0.094	912474	keystroke	e	n/a
456.36	0.115	912720	keystroke	l	n/a
456.506	0.115	913012	keystroke	Key.space	n/a
456.82	0.14	913640	keystroke	f	n/a
457.014	0.11	914028	keystroke	i	n/a
457.234	0.094	914468	keystroke	n	n/a
457.365	0.113	914730	keystroke	a	n/a
457.478	0.114	914956	keystroke	l	n/a
457.634	0.092	915268	keystroke	Key.space	n/a
457.772	0.096	915544	keystroke	e	n/a
458.013	0.161	916026	keystroke	x	n/a
458.197	0.138	916394	keystroke	p	n/a
458.368	0.137	916736	keystroke	l	n/a
458.481	0.159	916962	keystroke	a	n/a
458.595	0.069	917190	keystroke	i	n/a
458.794	0.092	917588	keystroke	n	n/a
458.887	0.09	917774	keystroke	e	n/a
459.193	0.115	918386	keystroke	Key.space	n/a
459.572	0.092	919144	keystroke	Key.backspace	n/a
459.74	0.157	919480	keystroke	d	n/a
459.919	0.116	919838	keystroke	Key.space	n/a
460.141	0.114	920282	keystroke	s	n/a
460.357	0.112	920714	keystroke	e	n/a
460.547	0.137	921094	keystroke	a	n/a
460.615	0.116	921230	keystroke	l	n/a
460.732	0.1135	921464	keystroke	e	n/a
460.9355	0.118	921871	keystroke	d	n/a
461.0765	0.139	922153	keystroke	Key.enter	n/a
461.22	10.529	922440	prompt	n/a	television cloudy easter victims\n
462.9755	0.093	925951	keystroke	t	n/a
463.117	0.115	926234	keystroke	e	n/a
463.3285	0.114	926657	keystroke	l	n/a
463.465	0.1165	926930	keystroke	e	n/a
463.695	0.07	927390	keystroke	v	n/a
464.015	0.092	928030	keystroke	i	n/a
464.17	0.091	928340	keystroke	o	n/a
464.403	0.07	928806	keystroke	n	n/a
464.56	0.116	929120	keystroke	Key.space	n/a
465.107	0.118	930214	keystroke	Key.backspace	n/a
465.313	0.092	930626	keystroke	Key.backspace	n/a
465.486	0.069	930972	keystroke	Key.backspace	n/a
465.631	0.069	931262	keystroke	Key.backspace	n/a
466.297	0.093	932594	keystroke	i	n/a
466.365	0.115	932730	keystroke	s	n/a
466.5145	0.115	933029	keystroke	i	n/a
466.6525	0.114	933305	keystroke	o	n/a
466.8385	0.113	933677	keystroke	n	n/a
466.9885	0.091	933977	keystroke	Key.space	n/a
467.2655	0.16	934531	keystroke	c	n/a
467.4475	0.137	934895	keystroke	l	n/a
467.6065	0.091	935213	keystroke	o	n/a
467.8165	0.092	935633	keystroke	u	n/a
467.9095	0.135	935819	keystroke	d	n/a
468.0455	0.114	936091	keystroke	y	n/a
468.1975	0.092	936395	keystroke	Key.space	n/a
468.5295	0.139	937059	keystroke	e	n/a
468.7445	0.142	937489	keystroke	a	n/a
468.8135	0.141	937627	keystroke	s	n/a
468.9755	0.07	937951	keystroke	t	n/a
469.0925	0.092	938185	keystroke	e	n/a
469.283	0.093	938566	keystroke	r	n/a
469.455	0.116	938910	keystroke	Key.space	n/a
470.3845	0.113	940769	keystroke	v	n/a
470.5375	0.09	941075	keystroke	i	n/a
470.6495	0.137	941299	keystroke	c	n/a
470.8535	0.07	941707	keystroke	t	n/a
471.1035	0.115	942207	keystroke	i	n/a
471.3085	0.115	942617	keystroke	m	n/a
471.4635	0.1345	942927	keystroke	s	n/a
471.654	0.093	943308	keystroke	Key.enter	n/a
471.7515	9.8065	943503	prompt	n/a	mauritius same arbor assess\n
472.509	0.181	945018	keystroke	m	n/a
472.793	0.184	945586	keystroke	a	n/a
473.321	0.093	946642	keystroke	u	n/a
473.569	0.136	947138	keystroke	r	n/a
473.838	0.116	947676	keystroke	i	n/a
476.4495	0.117	952899	keystroke	t	n/a
476.7495	0.092	953499	keystroke	i	n/a
477.391	0.162	954782	keystroke	u	n/a
477.554	0.136	955108	keystroke	s	n/a
477.692	0.067	955384	keystroke	Key.space	n/a
478.175	0.1375	956350	keystroke	s	n/a
478.3465	0.139	956693	keystroke	a	n/a
478.4605	0.117	956921	keystroke	m	n/a
478.6135	0.119	957227	keystroke	e	n/a
478.7335	0.089	957467	keystroke	Key.space	n/a
478.9105	0.139	957821	keystroke	a	n/a
479.1775	0.069	958355	keystroke	r	n/a
479.3265	0.069	958653	keystroke	b	n/a
479.5045	0.136	959009	keystroke	o	n/a
479.6625	0.1155	959325	keystroke	r	n/a
479.8	0.092	959600	keystroke	Key.space	n/a
480.011	0.16	960022	keystroke	a	n/a
480.251	0.09	960502	keystroke	s	n/a
480.404	0.117	960808	keystroke	s	n/a
480.647	0.114	961294	keystroke	e	n/a
481.17	0.116	962340	keystroke	s	n/a
481.3575	0.0685	962715	keystroke	s	n/a
481.51	0.047	963020	keystroke	Key.enter	n/a
481.561	17.24	963122	prompt	n/a	patient autos fellowship halloween\n
483.7555	0.115	967511	keystroke	p	n/a
484.1325	0.16	968265	keystroke	a	n/a
484.4605	0.071	968921	keystroke	t	n/a
484.6545	0.117	969309	keystroke	i	n/a
484.6565	0.093	969313	keystroke	u	n/a
484.7935	0.138	969587	keystroke	e	n/a
484.9075	0.117	969815	keystroke	n	n/a
485.1425	0.069	970285	keystroke	t	n/a
485.2845	0.071	970569	keystroke	Key.space	n/a
485.8045	0.07	971609	keystroke	Key.backspace	n/a
485.9655	0.072	971931	keystroke	Key.backspace	n/a
486.1095	0.092	972219	keystroke	Key.backspace	n/a
486.2725	0.068	972545	keystroke	Key.backspace	n/a
486.4075	0.0915	972815	keystroke	Key.backspace	n/a
488.0175	0.139	976035	keystroke	e	n/a
488.2575	0.16	976515	keystroke	m	n/a
489.235	0.137	978470	keystroke	Key.backspace	n/a
489.9815	0.095	979963	keystroke	n	n/a
490.1935	0.094	980387	keystroke	t	n/a
490.3335	0.091	980667	keystroke	Key.space	n/a
490.8095	0.137	981619	keystroke	a	n/a
491.0655	0.093	982131	keystroke	u	n/a
491.3095	0.068	982619	keystroke	t	n/a
491.5215	0.136	983043	keystroke	o	n/a
491.6795	0.137	983359	keystroke	s	n/a
491.7705	0.113	983541	keystroke	Key.space	n/a
492.2695	0.091	984539	keystroke	f	n/a
492.4315	0.115	984863	keystroke	e	n/a
492.6095	0.116	985219	keystroke	l	n/a
492.7915	0.09	985583	keystroke	l	n/a
492.9785	0.07	985957	keystroke	o	n/a
493.0905	0.159	986181	keystroke	w	n/a
493.3875	0.161	986775	keystroke	s	n/a
493.4795	0.138	986959	keystroke	h	n/a
493.8225	0.093	987645	keystroke	i	n/a
494.555	0.116	989110	keystroke	p	n/a
494.694	0.115	989388	keystroke	Key.space	n/a
496.8005	0.068	993601	keystroke	h	n/a
496.8915	0.138	993783	keystroke	a	n/a
497.0715	0.095	994143	keystroke	l	n/a
497.2455	0.091	994491	keystroke	l	n/a
497.446	0.137	994892	keystroke	o	n/a
497.968	0.138	995936	keystroke	w	n/a
498.218	0.093	996436	keystroke	e	n/a
498.383	0.093	996766	keystroke	e	n/a
498.452	0.138	996904	keystroke	n	n/a
498.707	0.092	997414	keystroke	Key.enter	n/a
498.804	11.724	997608	prompt	n/a	tribute lead there're designs\n
499.7675	0.091	999535	keystroke	t	n/a
499.9375	0.07	999875	keystroke	r	n/a
500.3065	0.135	1000613	keystroke	i	n/a
500.5385	0.115	1001077	keystroke	b	n/a
500.7295	0.093	1001459	keystroke	u	n/a
500.8845	0.069	1001769	keystroke	t	n/a
501.0095	0.116	1002019	keystroke	e	n/a
501.1265	0.091	1002253	keystroke	Key.space	n/a
501.4715	0.137	1002943	keystroke	l	n/a
501.6395	0.112	1003279	keystroke	e	n/a
501.8185	0.159	1003637	keystroke	a	n/a
501.9785	0.136	1003957	keystroke	d	n/a
502.1155	0.112	1004231	keystroke	Key.space	n/a
502.5405	0.114	1005081	keystroke	t	n/a
502.7515	0.093	1005503	keystroke	h	n/a
502.8205	0.094	1005641	keystroke	e	n/a
503.2365	0.14	1006473	keystroke	r	n/a
503.5425	0.14	1007085	keystroke	e	n/a
503.5885	0.096	1007177	keystroke	r	n/a
504.2215	0.139	1008443	keystroke	Key.backspace	n/a
505.096	0.0895	1010192	keystroke	'	n/a
505.2555	0.1165	1010511	keystroke	r	n/a
505.4735	0.117	1010947	keystroke	e	n/a
505.6125	0.093	1011225	keystroke	Key.space	n/a
506.0305	0.116	1012061	keystroke	s	n/a
506.3715	0.116	1012743	keystroke	Key.backspace	n/a
506.4885	0.067	1012977	keystroke	d	n/a
506.6605	0.091	1013321	keystroke	e	n/a
506.8765	0.116	1013753	keystroke	s	n/a
507.5665	0.114	1015133	keystroke	i	n/a
507.8075	0.114	1015615	keystroke	h	n/a
508.0355	0.069	1016071	keystroke	n	n/a
508.1465	0.115	1016293	keystroke	s	n/a
508.588	0.138	1017176	keystroke	Key.backspace	n/a
508.796	0.091	1017592	keystroke	Key.backspace	n/a
508.952	0.071	1017904	keystroke	Key.backspace	n/a
509.858	0.07	1019716	keystroke	g	n/a
510.071	0.091	1020142	keystroke	n	n/a
510.214	0.115	1020428	keystroke	s	n/a
510.433	0.094	1020866	keystroke	Key.enter	n/a
510.531	7.3625	1021062	prompt	n/a	designing honor singer focus\n
511.3215	0.1145	1022643	keystroke	d	n/a
511.5285	0.092	1023057	keystroke	e	n/a
511.7075	0.118	1023415	keystroke	s	n/a
511.8265	0.067	1023653	keystroke	i	n/a
512.0405	0.092	1024081	keystroke	g	n/a
512.2435	0.096	1024487	keystroke	n	n/a
512.3925	0.094	1024785	keystroke	i	n/a
512.5435	0.116	1025087	keystroke	n	n/a
512.7345	0.092	1025469	keystroke	g	n/a
512.9115	0.092	1025823	keystroke	Key.space	n/a
513.498	0.07	1026996	keystroke	h	n/a
513.691	0.069	1027382	keystroke	o	n/a
513.874	0.116	1027748	keystroke	n	n/a
514.083	0.134	1028166	keystroke	o	n/a
514.289	0.115	1028578	keystroke	r	n/a
514.4855	0.113	1028971	keystroke	Key.space	n/a
514.9335	0.139	1029867	keystroke	s	n/a
515.1695	0.119	1030339	keystroke	i	n/a
515.7355	0.09	1031471	keystroke	n	n/a
515.921	0.096	1031842	keystroke	g	n/a
516.018	0.1095	1032036	keystroke	e	n/a
516.2305	0.094	1032461	keystroke	r	n/a
516.4515	0.0455	1032903	keystroke	Key.space	n/a
516.7555	0.1135	1033511	keystroke	f	n/a
516.971	0.159	1033942	keystroke	o	n/a
517.153	0.136	1034306	keystroke	c	n/a
517.292	0.067	1034584	keystroke	u	n/a
517.477	0.139	1034954	keystroke	s	n/a
517.777	0.115	1035554	keystroke	Key.enter	n/a
517.8955	8.9515	1035791	prompt	n/a	surrounding designs went teachers\n
518.8195	0.16	1037639	keystroke	s	n/a
519.6665	0.16	1039333	keystroke	u	n/a
519.9755	0.045	1039951	keystroke	r	n/a
520.1635	0.09	1040327	keystroke	r	n/a
520.2305	0.142	1040461	keystroke	o	n/a
520.4125	0.136	1040825	keystroke	u	n/a
520.6545	0.118	1041309	keystroke	n	n/a
520.8035	0.1375	1041607	keystroke	d	n/a
520.942	0.111	1041884	keystroke	i	n/a
521.108	0.115	1042216	keystroke	n	n/a
521.334	0.143	1042668	keystroke	g	n/a
521.532	0.089	1043064	keystroke	Key.space	n/a
521.908	0.116	1043816	keystroke	d	n/a
522.124	0.068	1044248	keystroke	e	n/a
522.303	0.116	1044606	keystroke	s	n/a
522.396	0.114	1044792	keystroke	i	n/a
522.605	0.092	1045210	keystroke	g	n/a
522.807	0.094	1045614	keystroke	n	n/a
522.924	0.116	1045848	keystroke	s	n/a
523.062	0.092	1046124	keystroke	Key.space	n/a
523.3605	0.142	1046721	keystroke	w	n/a
523.5945	0.091	1047189	keystroke	e	n/a
523.7075	0.116	1047415	keystroke	n	n/a
524.0625	0.164	1048125	keystroke	t	n/a
524.3105	0.093	1048621	keystroke	Key.space	n/a
524.5695	0.114	1049139	keystroke	t	n/a
524.6855	0.135	1049371	keystroke	e	n/a
524.9245	0.14	1049849	keystroke	a	n/a
525.1625	0.118	1050325	keystroke	c	n/a
525.3005	0.118	1050601	keystroke	h	n/a
525.4405	0.113	1050881	keystroke	e	n/a
525.6695	0.115	1051339	keystroke	r	n/a
525.9625	0.16	1051925	keystroke	s	n/a
526.7305	0.115	1053461	keystroke	Key.enter	n/a
526.8505	7.0605	1053701	prompt	n/a	up places agencies wrapping\n
527.7935	0.07	1055587	keystroke	u	n/a
528.2355	0.161	1056471	keystroke	p	n/a
528.4445	0.093	1056889	keystroke	Key.space	n/a
528.5595	0.116	1057119	keystroke	p	n/a
528.7365	0.115	1057473	keystroke	l	n/a
528.8525	0.134	1057705	keystroke	a	n/a
529.0485	0.159	1058097	keystroke	c	n/a
529.3315	0.116	1058663	keystroke	e	n/a
529.5525	0.139	1059105	keystroke	s	n/a
529.6675	0.093	1059335	keystroke	Key.space	n/a
529.8325	0.163	1059665	keystroke	a	n/a
530.111	0.046	1060222	keystroke	g	n/a
530.294	0.094	1060588	keystroke	n	n/a
530.363	0.12	1060726	keystroke	e	n/a
531.0085	0.138	1062017	keystroke	n	n/a
531.1475	0.134	1062295	keystroke	c	n/a
531.2575	0.091	1062515	keystroke	i	n/a
531.4255	0.1385	1062851	keystroke	e	n/a
531.667	0.1375	1063334	keystroke	s	n/a
531.8395	0.0915	1063679	keystroke	Key.space	n/a
532.1265	0.118	1064253	keystroke	w	n/a
532.3885	0.162	1064777	keystroke	r	n/a
532.6515	0.137	1065303	keystroke	a	n/a
532.7895	0.091	1065579	keystroke	p	n/a
532.9255	0.117	1065851	keystroke	p	n/a
533.0885	0.114	1066177	keystroke	i	n/a
533.3215	0.115	1066643	keystroke	n	n/a
533.5475	0.115	1067095	keystroke	g	n/a
533.8145	0.094	1067629	keystroke	Key.enter	n/a
533.914	14.814	1067828	prompt	n/a	lives collins considerations conservation\n
534.6515	0.158	1069303	keystroke	l	n/a
534.8495	0.092	1069699	keystroke	i	n/a
535.1045	0.114	1070209	keystroke	v	n/a
535.2785	0.091	1070557	keystroke	e	n/a
535.4725	0.1145	1070945	keystroke	s	n/a
535.617	0.136	1071234	keystroke	Key.space	n/a
535.896	0.163	1071792	keystroke	c	n/a
536.126	0.162	1072252	keystroke	l	n/a
536.424	0.117	1072848	keystroke	o	n/a
536.782	0.092	1073564	keystroke	l	n/a
536.9325	0.093	1073865	keystroke	l	n/a
537.0905	0.092	1074181	keystroke	i	n/a
537.3105	0.118	1074621	keystroke	n	n/a
537.4515	0.141	1074903	keystroke	s	n/a
537.6155	0.094	1075231	keystroke	Key.space	n/a
538.446	0.1395	1076892	keystroke	c	n/a
538.6275	0.092	1077255	keystroke	p	n/a
538.945	0.14	1077890	keystroke	o	n/a
539.18	0.089	1078360	keystroke	n	n/a
539.292	0.139	1078584	keystroke	s	n/a
539.559	0.0915	1079118	keystroke	i	n/a
539.721	0.113	1079442	keystroke	d	n/a
539.923	0.113	1079846	keystroke	e	n/a
540.13	0.1155	1080260	keystroke	r	n/a
541.014	0.161	1082028	keystroke	a	n/a
541.263	0.134	1082526	keystroke	t	n/a
541.623	0.118	1083246	keystroke	i	n/a
541.764	0.112	1083528	keystroke	o	n/a
541.948	0.1165	1083896	keystroke	n	n/a
542.0875	0.134	1084175	keystroke	s	n/a
542.2435	0.091	1084487	keystroke	Key.space	n/a
542.5275	0.142	1085055	keystroke	c	n/a
542.6925	0.114	1085385	keystroke	o	n/a
542.9145	0.165	1085829	keystroke	n	n/a
543.1025	0.133	1086205	keystroke	e	n/a
543.3575	0.092	1086715	keystroke	r	n/a
544.2425	0.091	1088485	keystroke	Key.backspace	n/a
544.429	0.091	1088858	keystroke	Key.backspace	n/a
544.543	0.139	1089086	keystroke	s	n/a
544.79	0.1365	1089580	keystroke	e	n/a
545.0495	0.092	1090099	keystroke	r	n/a
546.2845	0.114	1092569	keystroke	v	n/a
546.4345	0.137	1092869	keystroke	a	n/a
547.0695	0.183	1094139	keystroke	t	n/a
548.025	0.113	1096050	keystroke	i	n/a
548.16	0.113	1096320	keystroke	o	n/a
548.395	0.071	1096790	keystroke	n	n/a
548.635	0.091	1097270	keystroke	Key.enter	n/a
548.732	13.6715	1097464	prompt	n/a	insurance arrest emotional charity\n
549.784	0.093	1099568	keystroke	i	n/a
550.01	0.116	1100020	keystroke	n	n/a
550.102	0.14	1100204	keystroke	s	n/a
550.243	0.066	1100486	keystroke	u	n/a
550.465	0.139	1100930	keystroke	r	n/a
550.705	0.159	1101410	keystroke	a	n/a
550.865	0.09	1101730	keystroke	n	n/a
550.977	0.113	1101954	keystroke	c	n/a
551.206	0.115	1102412	keystroke	e	n/a
551.353	0.114	1102706	keystroke	Key.space	n/a
552.2155	0.185	1104431	keystroke	a	n/a
552.5275	0.116	1105055	keystroke	r	n/a
552.7175	0.115	1105435	keystroke	r	n/a
552.9275	0.091	1105855	keystroke	e	n/a
553.1265	0.164	1106253	keystroke	s	n/a
553.4745	0.138	1106949	keystroke	t	n/a
553.4975	0.046	1106995	keystroke	g	n/a
554.457	0.137	1108914	keystroke	Key.backspace	n/a
556.5595	0.141	1113119	keystroke	Key.space	n/a
556.8115	0.115	1113623	keystroke	e	n/a
557.0145	0.159	1114029	keystroke	m	n/a
557.2185	0.137	1114437	keystroke	o	n/a
557.6595	0.139	1115319	keystroke	t	n/a
558.0065	0.116	1116013	keystroke	i	n/a
558.1445	0.113	1116289	keystroke	o	n/a
558.3465	0.137	1116693	keystroke	n	n/a
558.5565	0.184	1117113	keystroke	a	n/a
558.7165	0.161	1117433	keystroke	l	n/a
558.9205	0.091	1117841	keystroke	Key.space	n/a
559.3865	0.16	1118773	keystroke	c	n/a
559.6065	0.092	1119213	keystroke	h	n/a
559.7225	0.139	1119445	keystroke	a	n/a
559.9805	0.136	1119961	keystroke	r	n/a
560.2615	0.134	1120523	keystroke	i	n/a
560.5955	0.115	1121191	keystroke	t	n/a
560.816	0.094	1121632	keystroke	y	n/a
561.122	0.159	1122244	keystroke	Key.shift_r	n/a
562.2375	0.165	1124475	keystroke	Key.enter	n/a
562.4085	13.644	1124817	prompt	n/a	doctrine participant counts vendors\n
563.352	0.1385	1126704	keystroke	d	n/a
563.5575	0.139	1127115	keystroke	o	n/a
563.7395	0.114	1127479	keystroke	c	n/a
564.0475	0.16	1128095	keystroke	t	n/a
564.3705	0.115	1128741	keystroke	r	n/a
564.5775	0.115	1129155	keystroke	i	n/a
564.78	0.114	1129560	keystroke	n	n/a
564.916	0.118	1129832	keystroke	e	n/a
565.057	0.092	1130114	keystroke	Key.space	n/a
565.52	0.1365	1131040	keystroke	p	n/a
565.6335	0.158	1131267	keystroke	a	n/a
565.887	0.158	1131774	keystroke	r	n/a
566.2465	0.183	1132493	keystroke	t	n/a
566.5115	0.163	1133023	keystroke	i	n/a
567.1025	0.208	1134205	keystroke	c	n/a
568.1735	0.1395	1136347	keystroke	i	n/a
568.366	0.139	1136732	keystroke	p	n/a
568.655	0.163	1137310	keystroke	l	n/a
568.819	0.1575	1137638	keystroke	a	n/a
568.9995	0.092	1137999	keystroke	n	n/a
569.2955	0.159	1138591	keystroke	t	n/a
569.5685	0.0935	1139137	keystroke	Key.space	n/a
569.881	0.094	1139762	keystroke	Key.backspace	n/a
570.075	0.072	1140150	keystroke	Key.backspace	n/a
570.228	0.07	1140456	keystroke	Key.backspace	n/a
570.402	0.048	1140804	keystroke	Key.backspace	n/a
570.524	0.067	1141048	keystroke	Key.backspace	n/a
570.641	0.135	1141282	keystroke	a	n/a
570.797	0.14	1141594	keystroke	n	n/a
571.092	0.138	1142184	keystroke	y	n/a
571.742	0.116	1143484	keystroke	Key.backspace	n/a
572.23	0.112	1144460	keystroke	t	n/a
572.421	0.091	1144842	keystroke	Key.space	n/a
572.63	0.182	1145260	keystroke	c	n/a
572.885	0.135	1145770	keystroke	o	n/a
573.082	0.069	1146164	keystroke	u	n/a
573.242	0.114	1146484	keystroke	n	n/a
573.506	0.092	1147012	keystroke	t	n/a
573.676	0.1385	1147352	keystroke	s	n/a
574.3545	0.091	1148709	keystroke	Key.space	n/a
574.591	0.1335	1149182	keystroke	v	n/a
574.748	0.1395	1149496	keystroke	e	n/a
574.9105	0.092	1149821	keystroke	n	n/a
575.0255	0.1145	1150051	keystroke	d	n/a
575.253	0.067	1150506	keystroke	e	n/a
575.422	0.138	1150844	keystroke	r	n/a
575.73	0.1835	1151460	keystroke	s	n/a
575.9355	0.116	1151871	keystroke	Key.enter	n/a
576.0565	9.561	1152113	prompt	n/a	university librarian sperm sponsor\n
576.9305	0.112	1153861	keystroke	u	n/a
577.1355	0.113	1154271	keystroke	n	n/a
577.3295	0.095	1154659	keystroke	i	n/a
577.5295	0.092	1155059	keystroke	v	n/a
577.6805	0.116	1155361	keystroke	e	n/a
577.9045	0.091	1155809	keystroke	r	n/a
578.1195	0.136	1156239	keystroke	s	n/a
578.1635	0.116	1156327	keystroke	i	n/a
578.4845	0.141	1156969	keystroke	t	n/a
578.5075	0.025	1157015	keystroke	g	n/a
578.7845	0.069	1157569	keystroke	y	n/a
579.179	0.114	1158358	keystroke	Key.backspace	n/a
579.3685	0.0905	1158737	keystroke	Key.backspace	n/a
580.1405	0.1155	1160281	keystroke	y	n/a
580.306	0.1355	1160612	keystroke	Key.space	n/a
580.7575	0.184	1161515	keystroke	l	n/a
580.9645	0.093	1161929	keystroke	i	n/a
581.1985	0.07	1162397	keystroke	b	n/a
581.3585	0.14	1162717	keystroke	r	n/a
581.5865	0.182	1163173	keystroke	a	n/a
581.7895	0.1385	1163579	keystroke	r	n/a
581.929	0.138	1163858	keystroke	i	n/a
582.089	0.162	1164178	keystroke	a	n/a
582.202	0.117	1164404	keystroke	n	n/a
582.389	0.09	1164778	keystroke	Key.space	n/a
583.123	0.165	1166246	keystroke	s	n/a
583.289	0.116	1166578	keystroke	p	n/a
583.428	0.116	1166856	keystroke	e	n/a
583.616	0.116	1167232	keystroke	r	n/a
583.733	0.137	1167466	keystroke	m	n/a
583.891	0.139	1167782	keystroke	Key.space	n/a
584.127	0.16	1168254	keystroke	s	n/a
584.288	0.158	1168576	keystroke	p	n/a
584.581	0.159	1169162	keystroke	o	n/a
584.873	0.115	1169746	keystroke	n	n/a
584.989	0.137	1169978	keystroke	s	n/a
585.077	0.119	1170154	keystroke	o	n/a
585.248	0.1395	1170496	keystroke	r	n/a
585.4985	0.117	1170997	keystroke	Key.enter	n/a
585.6205	9.9315	1171241	prompt	n/a	paradise contamination regions drawn\n
586.4515	0.136	1172903	keystroke	p	n/a
586.6125	0.116	1173225	keystroke	a	n/a
586.8175	0.1145	1173635	keystroke	r	n/a
586.984	0.204	1173968	keystroke	a	n/a
587.223	0.183	1174446	keystroke	d	n/a
587.467	0.091	1174934	keystroke	i	n/a
587.579	0.135	1175158	keystroke	s	n/a
587.806	0.093	1175612	keystroke	e	n/a
587.971	0.092	1175942	keystroke	Key.space	n/a
588.825	0.158	1177650	keystroke	c	n/a
588.984	0.114	1177968	keystroke	o	n/a
589.218	0.136	1178436	keystroke	n	n/a
589.623	0.136	1179246	keystroke	t	n/a
589.808	0.1625	1179616	keystroke	a	n/a
589.972	0.138	1179944	keystroke	m	n/a
590.203	0.162	1180406	keystroke	a	n/a
590.65	0.114	1181300	keystroke	Key.backspace	n/a
591.182	0.113	1182364	keystroke	i	n/a
591.4125	0.1145	1182825	keystroke	n	n/a
591.481	0.16	1182962	keystroke	a	n/a
591.773	0.134	1183546	keystroke	t	n/a
592.105	0.136	1184210	keystroke	i	n/a
592.263	0.117	1184526	keystroke	o	n/a
592.467	0.162	1184934	keystroke	n	n/a
592.668	0.093	1185336	keystroke	Key.space	n/a
592.866	0.115	1185732	keystroke	r	n/a
593.0725	0.1375	1186145	keystroke	e	n/a
593.2315	0.1395	1186463	keystroke	g	n/a
593.5175	0.161	1187035	keystroke	i	n/a
593.7415	0.0915	1187483	keystroke	o	n/a
593.9265	0.136	1187853	keystroke	n	n/a
594.085	0.1415	1188170	keystroke	s	n/a
594.2005	0.071	1188401	keystroke	Key.space	n/a
594.3355	0.162	1188671	keystroke	d	n/a
594.6205	0.114	1189241	keystroke	r	n/a
594.8585	0.202	1189717	keystroke	a	n/a
595.0365	0.141	1190073	keystroke	w	n/a
595.1785	0.114	1190357	keystroke	n	n/a
595.4575	0.0925	1190915	keystroke	Key.enter	n/a
595.5555	10.328	1191111	prompt	n/a	midlands julia juvenile variety\n
596.171	0.16	1192342	keystroke	m	n/a
596.461	0.135	1192922	keystroke	i	n/a
596.756	0.136	1193512	keystroke	d	n/a
597.025	0.118	1194050	keystroke	l	n/a
597.179	0.16	1194358	keystroke	a	n/a
597.34	0.089	1194680	keystroke	n	n/a
597.452	0.114	1194904	keystroke	d	n/a
597.651	0.136	1195302	keystroke	s	n/a
597.809	0.138	1195618	keystroke	Key.space	n/a
598.2675	0.158	1196535	keystroke	l	n/a
598.6255	0.114	1197251	keystroke	u	n/a
599.5735	0.0925	1199147	keystroke	Key.backspace	n/a
599.762	0.068	1199524	keystroke	Key.backspace	n/a
600.211	0.114	1200422	keystroke	j	n/a
600.413	0.115	1200826	keystroke	u	n/a
600.649	0.159	1201298	keystroke	l	n/a
600.809	0.092	1201618	keystroke	i	n/a
600.923	0.162	1201846	keystroke	a	n/a
601.06	0.119	1202120	keystroke	Key.space	n/a
601.931	0.115	1203862	keystroke	j	n/a
602.13	0.072	1204260	keystroke	u	n/a
602.3965	0.092	1204793	keystroke	v	n/a
602.5405	0.139	1205081	keystroke	e	n/a
602.7005	0.116	1205401	keystroke	n	n/a
602.9015	0.16	1205803	keystroke	i	n/a
603.7375	0.16	1207475	keystroke	l	n/a
603.9345	0.137	1207869	keystroke	e	n/a
604.1065	0.117	1208213	keystroke	Key.space	n/a
604.4795	0.115	1208959	keystroke	v	n/a
604.5955	0.112	1209191	keystroke	a	n/a
604.8055	0.093	1209611	keystroke	r	n/a
604.8995	0.134	1209799	keystroke	i	n/a
605.011	0.1385	1210022	keystroke	e	n/a
605.2785	0.139	1210557	keystroke	t	n/a
605.5055	0.0915	1211011	keystroke	y	n/a
605.767	0.115	1211534	keystroke	Key.enter	n/a
605.886	8.685	1211772	prompt	n/a	rebecca deferred vault soup\n
606.758	0.1585	1213516	keystroke	r	n/a
606.9885	0.136	1213977	keystroke	e	n/a
607.1255	0.114	1214251	keystroke	b	n/a
607.262	0.139	1214524	keystroke	e	n/a
607.748	0.0925	1215496	keystroke	c	n/a
607.9015	0.112	1215803	keystroke	c	n/a
608.0555	0.186	1216111	keystroke	a	n/a
608.2945	0.093	1216589	keystroke	Key.space	n/a
608.5205	0.136	1217041	keystroke	d	n/a
608.7395	0.138	1217479	keystroke	e	n/a
608.9575	0.138	1217915	keystroke	f	n/a
609.1495	0.116	1218299	keystroke	r	n/a
609.674	0.137	1219348	keystroke	r	n/a
610.075	0.0925	1220150	keystroke	Key.backspace	n/a
610.248	0.0925	1220496	keystroke	Key.backspace	n/a
610.3625	0.164	1220725	keystroke	e	n/a
610.7055	0.114	1221411	keystroke	r	n/a
610.9155	0.07	1221831	keystroke	r	n/a
611.1175	0.094	1222235	keystroke	e	n/a
611.3325	0.138	1222665	keystroke	d	n/a
611.4925	0.114	1222985	keystroke	Key.space	n/a
611.8485	0.092	1223697	keystroke	v	n/a
611.9745	0.14	1223949	keystroke	a	n/a
612.1595	0.092	1224319	keystroke	u	n/a
612.3745	0.137	1224749	keystroke	l	n/a
612.7255	0.1595	1225451	keystroke	t	n/a
612.955	0.137	1225910	keystroke	Key.space	n/a
613.23	0.16	1226460	keystroke	s	n/a
613.538	0.116	1227076	keystroke	o	n/a
613.772	0.116	1227544	keystroke	u	n/a
613.981	0.139	1227962	keystroke	p	n/a
614.407	0.163	1228814	keystroke	Key.enter	n/a
614.574	19.643	1229148	prompt	n/a	learn physical appointed anthropology\n
615.3445	0.138	1230689	keystroke	l	n/a
615.5065	0.136	1231013	keystroke	e	n/a
615.6745	0.139	1231349	keystroke	a	n/a
615.8505	0.1585	1231701	keystroke	r	n/a
616.032	0.137	1232064	keystroke	n	n/a
616.17	0.115	1232340	keystroke	Key.space	n/a
616.506	0.139	1233012	keystroke	p	n/a
617.7615	0.094	1235523	keystroke	h	n/a
617.9525	0.181	1235905	keystroke	s	n/a
618.2245	0.161	1236449	keystroke	y	n/a
619.3305	0.116	1238661	keystroke	i	n/a
619.4475	0.136	1238895	keystroke	c	n/a
619.6855	0.141	1239371	keystroke	a	n/a
619.7795	0.139	1239559	keystroke	l	n/a
619.9415	0.116	1239883	keystroke	Key.space	n/a
620.1145	0.158	1240229	keystroke	a	n/a
620.3745	0.136	1240749	keystroke	p	n/a
620.5335	0.206	1241067	keystroke	p	n/a
621.579	0.136	1243158	keystroke	o	n/a
621.812	0.091	1243624	keystroke	i	n/a
622.049	0.114	1244098	keystroke	n	n/a
622.299	0.137	1244598	keystroke	t	n/a
622.459	0.116	1244918	keystroke	e	n/a
622.648	0.14	1245296	keystroke	d	n/a
622.7885	0.1355	1245577	keystroke	Key.space	n/a
622.99	0.16	1245980	keystroke	a	n/a
623.194	0.139	1246388	keystroke	n	n/a
623.51	0.116	1247020	keystroke	t	n/a
623.736	0.092	1247472	keystroke	h	n/a
623.906	0.184	1247812	keystroke	r	n/a
624.112	0.1175	1248224	keystroke	o	n/a
624.3125	0.096	1248625	keystroke	p	n/a
624.5155	0.114	1249031	keystroke	l	n/a
624.7365	0.093	1249473	keystroke	o	n/a
626.533	0.117	1253066	keystroke	l	n/a
626.736	0.094	1253472	keystroke	o	n/a
627.3925	0.094	1254785	keystroke	g	n/a
627.5775	0.09	1255155	keystroke	y	n/a
627.6995	0.115	1255399	keystroke	Key.space	n/a
628.358	0.096	1256716	keystroke	Key.backspace	n/a
628.551	0.07	1257102	keystroke	Key.backspace	n/a
628.727	0.071	1257454	keystroke	Key.backspace	n/a
629.0165	0.1115	1258033	keystroke	Key.backspace	n/a
629.213	0.117	1258426	keystroke	Key.backspace	n/a
632.235	0.14	1264470	keystroke	Key.backspace	n/a
632.48	0.091	1264960	keystroke	Key.backspace	n/a
632.987	0.158	1265974	keystroke	o	n/a
633.23	0.095	1266460	keystroke	l	n/a
633.379	0.095	1266758	keystroke	o	n/a
633.654	0.0955	1267308	keystroke	g	n/a
633.8515	0.115	1267703	keystroke	y	n/a
634.1225	0.093	1268245	keystroke	Key.enter	n/a
634.22	13.7285	1268440	prompt	n/a	overview million monitored issue\n
635.3635	0.093	1270727	keystroke	o	n/a
635.6475	0.117	1271295	keystroke	v	n/a
635.7965	0.112	1271593	keystroke	e	n/a
636.0435	0.183	1272087	keystroke	r	n/a
637.0595	0.091	1274119	keystroke	v	n/a
637.2805	0.115	1274561	keystroke	i	n/a
637.6105	0.137	1275221	keystroke	e	n/a
637.8325	0.115	1275665	keystroke	w	n/a
637.9845	0.113	1275969	keystroke	Key.space	n/a
638.9035	0.092	1277807	keystroke	m	n/a
639.1285	0.113	1278257	keystroke	i	n/a
639.3785	0.068	1278757	keystroke	l	n/a
639.5075	0.137	1279015	keystroke	l	n/a
639.6745	0.092	1279349	keystroke	i	n/a
639.8435	0.114	1279687	keystroke	o	n/a
640.0595	0.138	1280119	keystroke	m	n/a
640.3095	0.097	1280619	keystroke	o	n/a
640.5125	0.094	1281025	keystroke	n	n/a
640.7125	0.091	1281425	keystroke	i	n/a
641.3305	0.161	1282661	keystroke	t	n/a
641.5505	0.116	1283101	keystroke	o	n/a
641.7195	0.092	1283439	keystroke	r	n/a
641.919	0.094	1283838	keystroke	e	n/a
642.116	0.114	1284232	keystroke	d	n/a
642.252	0.137	1284504	keystroke	Key.space	n/a
642.754	0.0915	1285508	keystroke	i	n/a
642.8815	0.164	1285763	keystroke	s	n/a
643.0685	0.159	1286137	keystroke	s	n/a
643.438	0.115	1286876	keystroke	u	n/a
643.653	0.137	1287306	keystroke	e	n/a
643.903	0.16	1287806	keystroke	s	n/a
647.463	0.116	1294926	keystroke	n	n/a
647.58	0.139	1295160	keystroke	Key.space	n/a
647.854	0.093	1295708	keystroke	Key.enter	n/a
647.9515	8.1025	1295903	prompt	n/a	finances close ethnic underwear\n
649.116	0.161	1298232	keystroke	f	n/a
649.301	0.091	1298602	keystroke	i	n/a
649.509	0.093	1299018	keystroke	n	n/a
649.625	0.142	1299250	keystroke	a	n/a
649.744	0.068	1299488	keystroke	n	n/a
649.874	0.09	1299748	keystroke	c	n/a
650.136	0.069	1300272	keystroke	e	n/a
650.292	0.136	1300584	keystroke	s	n/a
650.429	0.116	1300858	keystroke	Key.space	n/a
650.684	0.1595	1301368	keystroke	c	n/a
650.8745	0.115	1301749	keystroke	l	n/a
651.2485	0.09	1302497	keystroke	o	n/a
651.3975	0.139	1302795	keystroke	s	n/a
651.6545	0.116	1303309	keystroke	e	n/a
651.8505	0.116	1303701	keystroke	Key.space	n/a
652.0455	0.183	1304091	keystroke	e	n/a
652.3645	0.115	1304729	keystroke	t	n/a
652.5925	0.07	1305185	keystroke	h	n/a
652.7675	0.092	1305535	keystroke	n	n/a
652.9335	0.116	1305867	keystroke	i	n/a
653.0715	0.136	1306143	keystroke	c	n/a
653.2085	0.115	1306417	keystroke	Key.space	n/a
653.788	0.114	1307576	keystroke	u	n/a
653.988	0.138	1307976	keystroke	n	n/a
654.08	0.1375	1308160	keystroke	d	n/a
654.3315	0.093	1308663	keystroke	e	n/a
654.5445	0.069	1309089	keystroke	r	n/a
654.7655	0.136	1309531	keystroke	w	n/a
654.9985	0.14	1309997	keystroke	e	n/a
655.523	0.159	1311046	keystroke	a	n/a
655.779	0.114	1311558	keystroke	r	n/a
655.914	0.1385	1311828	keystroke	Key.enter	n/a
656.057	6.158	1312114	prompt	n/a	factors beds peak shirt\n
656.7205	0.138	1313441	keystroke	f	n/a
657.0115	0.115	1314023	keystroke	a	n/a
657.2225	0.14	1314445	keystroke	c	n/a
657.5015	0.114	1315003	keystroke	t	n/a
657.7525	0.136	1315505	keystroke	o	n/a
657.9545	0.117	1315909	keystroke	r	n/a
658.2585	0.16	1316517	keystroke	s	n/a
658.4405	0.091	1316881	keystroke	Key.space	n/a
658.6435	0.117	1317287	keystroke	b	n/a
658.7615	0.0905	1317523	keystroke	e	n/a
658.948	0.115	1317896	keystroke	d	n/a
659.188	0.136	1318376	keystroke	s	n/a
659.347	0.137	1318694	keystroke	Key.space	n/a
659.603	0.1385	1319206	keystroke	p	n/a
659.7175	0.137	1319435	keystroke	e	n/a
659.9055	0.163	1319811	keystroke	a	n/a
660.0205	0.141	1320041	keystroke	k	n/a
660.1985	0.116	1320397	keystroke	Key.space	n/a
660.7905	0.1845	1321581	keystroke	s	n/a
661.045	0.115	1322090	keystroke	h	n/a
661.241	0.138	1322482	keystroke	i	n/a
661.482	0.117	1322964	keystroke	r	n/a
661.772	0.115	1323544	keystroke	t	n/a
662.1	0.114	1324200	keystroke	Key.enter	n/a
662.2175	12.4765	1324435	prompt	n/a	tagged subtle announcements judgment\n
663.2315	0.114	1326463	keystroke	t	n/a
663.3685	0.185	1326737	keystroke	a	n/a
663.5545	0.044	1327109	keystroke	g	n/a
663.6615	0.116	1327323	keystroke	g	n/a
663.8005	0.093	1327601	keystroke	e	n/a
663.9935	0.1145	1327987	keystroke	d	n/a
664.13	0.092	1328260	keystroke	Key.space	n/a
