onset	duration	sample	value	key	prompt_text
6.658	15.7815	13316	prompt	n/a	the quick brown fox jumps over a lazy dog\n
14.742	0.105	29484	keystroke_t	t	n/a
14.847	0.06	29694	keystroke_h	h	n/a
14.952	0.09	29904	keystroke_e	e	n/a
15.372	0.075	30744	keystroke_Key.space	Key.space	n/a
15.762	0.06	31524	keystroke_q	q	n/a
15.972	0.105	31944	keystroke_u	u	n/a
16.032	0.09	32064	keystroke_i	i	n/a
16.227	0.105	32454	keystroke_c	c	n/a
16.347	0.075	32694	keystroke_k	k	n/a
16.572	0.105	33144	keystroke_Key.space	Key.space	n/a
16.977	0.075	33954	keystroke_f	f	n/a
17.202	0.075	34404	keystroke_o	o	n/a
17.382	0.075	34764	keystroke_x	x	n/a
17.487	0.09	34974	keystroke_Key.space	Key.space	n/a
17.817	0.06	35634	keystroke_j	j	n/a
17.952	0.06	35904	keystroke_u	u	n/a
18.147	0.06	36294	keystroke_m	m	n/a
18.312	0.075	36624	keystroke_p	p	n/a
18.507	0.0745	37014	keystroke_s	s	n/a
18.5965	0.045	37193	keystroke_Key.space	Key.space	n/a
18.7615	0.075	37523	keystroke_o	o	n/a
18.8665	0.09	37733	keystroke_v	v	n/a
18.9865	0.12	37973	keystroke_e	e	n/a
19.0615	0.105	38123	keystroke_r	r	n/a
19.2115	0.075	38423	keystroke_Key.space	Key.space	n/a
19.362	0.0895	38724	keystroke_a	a	n/a
19.496	0.09	38992	keystroke_Key.space	Key.space	n/a
19.902	0.0595	39804	keystroke_l	l	n/a
20.427	0.09	40854	keystroke_a	a	n/a
20.982	0.075	41964	keystroke_z	z	n/a
21.2065	0.075	42413	keystroke_y	y	n/a
21.5065	0.12	43013	keystroke_Key.space	Key.space	n/a
21.9115	0.09	43823	keystroke_d	d	n/a
22.0165	0.09	44033	keystroke_o	o	n/a
22.1515	0.075	44303	keystroke_g	g	n/a
22.3615	0.075	44723	keystroke_Key.enter	Key.enter	n/a
22.443	10.1055	44886	prompt	n/a	furniture google transcript unlikely\n
23.411	0.091	46822	keystroke_f	f	n/a
23.532	0.075	47064	keystroke_u	u	n/a
23.622	0.06	47244	keystroke_r	r	n/a
23.772	0.12	47544	keystroke_n	n	n/a
23.831	0.09	47662	keystroke_i	i	n/a
23.952	0.105	47904	keystroke_t	t	n/a
24.116	0.075	48232	keystroke_u	u	n/a
24.222	0.1345	48444	keystroke_r	r	n/a
24.3265	0.0905	48653	keystroke_e	e	n/a
24.581	0.075	49162	keystroke_Key.space	Key.space	n/a
24.941	0.075	49882	keystroke_g	g	n/a
25.046	0.06	50092	keystroke_i	i	n/a
25.061	0.03	50122	keystroke_o	o	n/a
25.197	0.0595	50394	keystroke_o	o	n/a
25.211	0.0305	50422	keystroke_i	i	n/a
25.2865	0.105	50573	keystroke_g	g	n/a
25.4065	0.06	50813	keystroke_l	l	n/a
25.7365	0.06	51473	keystroke_Key.backspace	Key.backspace	n/a
25.857	0.0595	51714	keystroke_Key.backspace	Key.backspace	n/a
25.9765	0.045	51953	keystroke_Key.backspace	Key.backspace	n/a
26.0815	0.06	52163	keystroke_Key.backspace	Key.backspace	n/a
26.2165	0.045	52433	keystroke_Key.backspace	Key.backspace	n/a
26.3965	0.09	52793	keystroke_Key.backspace	Key.backspace	n/a
26.9965	0.045	53993	keystroke_o	o	n/a
27.3265	0.015	54653	keystroke_o	o	n/a
27.5215	0.075	55043	keystroke_g	g	n/a
27.657	0.075	55314	keystroke_l	l	n/a
27.791	0.045	55582	keystroke_e	e	n/a
28.0465	0.075	56093	keystroke_Key.space	Key.space	n/a
28.3615	0.105	56723	keystroke_t	t	n/a
28.5415	0.15	57083	keystroke_r	r	n/a
28.6925	0.0895	57385	keystroke_a	a	n/a
29.0215	0.0455	58043	keystroke_n	n	n/a
29.142	0.0745	58284	keystroke_s	s	n/a
29.307	0.0895	58614	keystroke_c	c	n/a
29.5015	0.06	59003	keystroke_r	r	n/a
29.6215	0.06	59243	keystroke_i	i	n/a
29.802	0.075	59604	keystroke_p	p	n/a
29.952	0.075	59904	keystroke_t	t	n/a
30.207	0.075	60414	keystroke_Key.space	Key.space	n/a
30.6415	0.075	61283	keystroke_u	u	n/a
30.8215	0.09	61643	keystroke_n	n	n/a
31.0615	0.1505	62123	keystroke_l	l	n/a
31.167	0.105	62334	keystroke_i	i	n/a
31.407	0.045	62814	keystroke_e	e	n/a
31.647	0.06	63294	keystroke_k	k	n/a
31.857	0.075	63714	keystroke_l	l	n/a
32.082	0.105	64164	keystroke_y	y	n/a
32.487	0.059	64974	keystroke_Key.enter	Key.enter	n/a
32.5515	7.077	65103	prompt	n/a	seemed ctrl permanent platform\n
33.5815	0.195	67163	keystroke_s	s	n/a
33.7315	0.105	67463	keystroke_e	e	n/a
33.9115	0.0905	67823	keystroke_e	e	n/a
34.017	0.06	68034	keystroke_m	m	n/a
34.137	0.075	68274	keystroke_e	e	n/a
34.947	0.06	69894	keystroke_d	d	n/a
35.1715	0.075	70343	keystroke_Key.space	Key.space	n/a
35.4415	0.09	70883	keystroke_c	c	n/a
35.7265	0.06	71453	keystroke_t	t	n/a
35.9065	0.06	71813	keystroke_r	r	n/a
36.057	0.06	72114	keystroke_l	l	n/a
36.072	0.03	72144	keystroke_k	k	n/a
36.522	0.06	73044	keystroke_Key.space	Key.space	n/a
36.8065	0.075	73613	keystroke_p	p	n/a
36.8665	0.105	73733	keystroke_e	e	n/a
36.9265	0.075	73853	keystroke_r	r	n/a
37.0765	0.0895	74153	keystroke_m	m	n/a
37.211	0.076	74422	keystroke_a	a	n/a
37.317	0.075	74634	keystroke_n	n	n/a
37.482	0.105	74964	keystroke_e	e	n/a
37.767	0.06	75534	keystroke_n	n	n/a
37.872	0.045	75744	keystroke_t	t	n/a
38.306	0.091	76612	keystroke_Key.space	Key.space	n/a
38.577	0.105	77154	keystroke_p	p	n/a
38.637	0.09	77274	keystroke_l	l	n/a
38.697	0.0895	77394	keystroke_a	a	n/a
38.892	0.0595	77784	keystroke_t	t	n/a
39.0865	0.06	78173	keystroke_f	f	n/a
39.1765	0.0605	78353	keystroke_o	o	n/a
39.2815	0.076	78563	keystroke_r	r	n/a
39.4025	0.075	78805	keystroke_m	m	n/a
39.5515	0.075	79103	keystroke_Key.enter	Key.enter	n/a
39.6315	7.842	79263	prompt	n/a	roughly slovakia reporting orbit\n
40.422	0.075	80844	keystroke_r	r	n/a
40.512	0.12	81024	keystroke_o	o	n/a
40.587	0.06	81174	keystroke_u	u	n/a
40.707	0.06	81414	keystroke_g	g	n/a
40.782	0.06	81564	keystroke_h	h	n/a
40.962	0.075	81924	keystroke_l	l	n/a
41.2465	0.075	82493	keystroke_y	y	n/a
41.667	0.105	83334	keystroke_Key.space	Key.space	n/a
41.892	0.075	83784	keystroke_s	s	n/a
41.997	0.0605	83994	keystroke_l	l	n/a
42.1325	0.0745	84265	keystroke_o	o	n/a
42.402	0.0895	84804	keystroke_v	v	n/a
42.5065	0.09	85013	keystroke_a	a	n/a
42.8065	0.061	85613	keystroke_k	k	n/a
42.9275	0.09	85855	keystroke_i	i	n/a
43.0325	0.09	86065	keystroke_a	a	n/a
43.392	0.09	86784	keystroke_Key.space	Key.space	n/a
43.752	0.105	87504	keystroke_r	r	n/a
43.842	0.12	87684	keystroke_e	e	n/a
43.977	0.09	87954	keystroke_p	p	n/a
44.007	0.075	88014	keystroke_o	o	n/a
44.052	0.075	88104	keystroke_r	r	n/a
44.247	0.06	88494	keystroke_t	t	n/a
45.0415	0.09	90083	keystroke_i	i	n/a
45.1015	0.075	90203	keystroke_n	n	n/a
45.4165	0.075	90833	keystroke_g	g	n/a
46.107	0.0895	92214	keystroke_Key.space	Key.space	n/a
46.4365	0.075	92873	keystroke_o	o	n/a
46.7365	0.09	93473	keystroke_b	b	n/a
46.8715	0.09	93743	keystroke_i	i	n/a
47.0065	0.075	94013	keystroke_t	t	n/a
47.3965	0.075	94793	keystroke_Key.enter	Key.enter	n/a
47.4765	5.847	94953	prompt	n/a	wanted urls basics lovers\n
48.2665	0.0905	96533	keystroke_w	w	n/a
48.432	0.105	96864	keystroke_a	a	n/a
48.567	0.075	97134	keystroke_n	n	n/a
48.627	0.12	97254	keystroke_t	t	n/a
48.732	0.0905	97464	keystroke_e	e	n/a
48.9275	0.09	97855	keystroke_d	d	n/a
49.1215	0.0905	98243	keystroke_Key.space	Key.space	n/a
49.752	0.075	99504	keystroke_u	u	n/a
49.872	0.06	99744	keystroke_r	r	n/a
50.022	0.1045	100044	keystroke_l	l	n/a
50.2015	0.075	100403	keystroke_s	s	n/a
50.3815	0.075	100763	keystroke_Key.space	Key.space	n/a
50.6215	0.075	101243	keystroke_b	b	n/a
50.7265	0.15	101453	keystroke_a	a	n/a
50.8165	0.12	101633	keystroke_s	s	n/a
50.9665	0.06	101933	keystroke_i	i	n/a
51.0865	0.075	102173	keystroke_c	c	n/a
51.2965	0.075	102593	keystroke_s	s	n/a
51.4765	0.075	102953	keystroke_Key.space	Key.space	n/a
51.762	0.06	103524	keystroke_b	b	n/a
52.122	0.06	104244	keystroke_Key.backspace	Key.backspace	n/a
52.347	0.09	104694	keystroke_l	l	n/a
52.512	0.09	105024	keystroke_o	o	n/a
52.632	0.09	105264	keystroke_v	v	n/a
52.752	0.12	105504	keystroke_e	e	n/a
52.842	0.075	105684	keystroke_r	r	n/a
53.037	0.09	106074	keystroke_s	s	n/a
53.247	0.075	106494	keystroke_Key.enter	Key.enter	n/a
53.328	12.1605	106656	prompt	n/a	turkish english atmosphere fields\n
54.3725	0.074	108745	keystroke_t	t	n/a
54.4925	0.0745	108985	keystroke_u	u	n/a
54.568	0.059	109136	keystroke_r	r	n/a
54.702	0.075	109404	keystroke_k	k	n/a
54.867	0.06	109734	keystroke_i	i	n/a
55.032	0.075	110064	keystroke_s	s	n/a
55.152	0.0755	110304	keystroke_h	h	n/a
55.4975	0.075	110995	keystroke_Key.space	Key.space	n/a
55.7225	0.074	111445	keystroke_e	e	n/a
55.8115	0.075	111623	keystroke_n	n	n/a
56.0665	0.075	112133	keystroke_g	g	n/a
56.1865	0.045	112373	keystroke_o	o	n/a
56.2015	0.06	112403	keystroke_i	i	n/a
56.3665	0.06	112733	keystroke_s	s	n/a
56.4715	0.0755	112943	keystroke_h	h	n/a
56.847	0.045	113694	keystroke_=	=	n/a
56.862	0.045	113724	keystroke_Key.backspace	Key.backspace	n/a
56.952	0.045	113904	keystroke_Key.backspace	Key.backspace	n/a
57.072	0.045	114144	keystroke_Key.backspace	Key.backspace	n/a
57.2065	0.045	114413	keystroke_Key.backspace	Key.backspace	n/a
57.6715	0.075	115343	keystroke_Key.backspace	Key.backspace	n/a
58.272	0.0755	116544	keystroke_l	l	n/a
58.4375	0.06	116875	keystroke_o	o	n/a
58.6025	0.06	117205	keystroke_s	s	n/a
58.7375	0.075	117475	keystroke_h	h	n/a
59.3825	0.0445	118765	keystroke_Key.backspace	Key.backspace	n/a
59.502	0.045	119004	keystroke_Key.backspace	Key.backspace	n/a
59.652	0.03	119304	keystroke_Key.backspace	Key.backspace	n/a
59.772	0.0295	119544	keystroke_Key.backspace	Key.backspace	n/a
60.432	0.075	120864	keystroke_l	l	n/a
60.642	0.105	121284	keystroke_i	i	n/a
60.852	0.075	121704	keystroke_s	s	n/a
61.002	0.075	122004	keystroke_h	h	n/a
61.827	0.075	123654	keystroke_Key.space	Key.space	n/a
62.067	0.15	124134	keystroke_a	a	n/a
62.172	0.09	124344	keystroke_t	t	n/a
62.322	0.075	124644	keystroke_m	m	n/a
62.487	0.0755	124974	keystroke_o	o	n/a
62.652	0.06	125304	keystroke_s	s	n/a
62.847	0.075	125694	keystroke_p	p	n/a
63.117	0.06	126234	keystroke_h	h	n/a
63.207	0.1045	126414	keystroke_e	e	n/a
63.6865	0.09	127373	keystroke_r	r	n/a
63.9115	0.075	127823	keystroke_e	e	n/a
64.2115	0.09	128423	keystroke_Key.space	Key.space	n/a
64.5115	0.09	129023	keystroke_f	f	n/a
64.692	0.075	129384	keystroke_i	i	n/a
64.827	0.0895	129654	keystroke_e	e	n/a
64.9615	0.06	129923	keystroke_l	l	n/a
65.0815	0.1505	130163	keystroke_d	d	n/a
65.217	0.09	130434	keystroke_s	s	n/a
65.412	0.075	130824	keystroke_Key.enter	Key.enter	n/a
65.4925	14.5165	130985	prompt	n/a	namespace azerbaijan smooth instructional\n
66.4025	0.06	132805	keystroke_n	n	n/a
66.5225	0.075	133045	keystroke_a	a	n/a
66.6725	0.075	133345	keystroke_m	m	n/a
66.7775	0.075	133555	keystroke_e	e	n/a
66.9875	0.06	133975	keystroke_s	s	n/a
67.1375	0.06	134275	keystroke_p	p	n/a
67.3175	0.09	134635	keystroke_a	a	n/a
67.5575	0.09	135115	keystroke_c	c	n/a
67.6025	0.09	135205	keystroke_e	e	n/a
67.8565	0.061	135713	keystroke_Key.space	Key.space	n/a
68.262	0.105	136524	keystroke_a	a	n/a
69.2515	0.075	138503	keystroke_z	z	n/a
69.5515	0.075	139103	keystroke_e	e	n/a
69.8815	0.075	139763	keystroke_r	r	n/a
70.8415	0.075	141683	keystroke_b	b	n/a
70.9915	0.09	141983	keystroke_a	a	n/a
72.1315	0.075	144263	keystroke_i	i	n/a
72.3415	0.075	144683	keystroke_j	j	n/a
72.4615	0.075	144923	keystroke_a	a	n/a
72.6865	0.075	145373	keystroke_n	n	n/a
73.122	0.0745	146244	keystroke_Key.space	Key.space	n/a
73.4215	0.045	146843	keystroke_s	s	n/a
73.5265	0.045	147053	keystroke_m	m	n/a
73.6465	0.09	147293	keystroke_o	o	n/a
73.9615	0.045	147923	keystroke_h	h	n/a
74.652	0.09	149304	keystroke_Key.backspace	Key.backspace	n/a
74.907	0.075	149814	keystroke_o	o	n/a
75.057	0.06	150114	keystroke_t	t	n/a
75.2065	0.075	150413	keystroke_h	h	n/a
75.4915	0.09	150983	keystroke_Key.space	Key.space	n/a
75.8665	0.09	151733	keystroke_i	i	n/a
75.9265	0.09	151853	keystroke_n	n	n/a
76.0765	0.09	152153	keystroke_s	s	n/a
76.2565	0.075	152513	keystroke_t	t	n/a
76.3915	0.075	152783	keystroke_u	u	n/a
76.4815	0.06	152963	keystroke_r	r	n/a
76.9015	0.075	153803	keystroke_c	c	n/a
77.172	0.06	154344	keystroke_=	=	n/a
77.307	0.0305	154614	keystroke_Key.backspace	Key.backspace	n/a
77.412	0.0455	154824	keystroke_Key.backspace	Key.backspace	n/a
77.637	0.075	155274	keystroke_Key.backspace	Key.backspace	n/a
77.8775	0.09	155755	keystroke_Key.backspace	Key.backspace	n/a
78.177	0.0455	156354	keystroke_r	r	n/a
78.792	0.09	157584	keystroke_c	c	n/a
78.9265	0.0755	157853	keystroke_u	u	n/a
79.0765	0.075	158153	keystroke_t	t	n/a
79.2275	0.1345	158455	keystroke_i	i	n/a
79.3175	0.0745	158635	keystroke_o	o	n/a
79.4825	0.09	158965	keystroke_n	n	n/a
79.6625	0.0595	159325	keystroke_a	a	n/a
79.752	0.0605	159504	keystroke_l	l	n/a
79.947	0.0605	159894	keystroke_Key.enter	Key.enter	n/a
80.014	8.9945	160028	prompt	n/a	experienced cruise hostel today\n
80.7865	0.0755	161573	keystroke_e	e	n/a
81.0565	0.09	162113	keystroke_x	x	n/a
81.2975	0.075	162595	keystroke_p	p	n/a
81.4175	0.075	162835	keystroke_e	e	n/a
81.6425	0.075	163285	keystroke_r	r	n/a
81.7325	0.0895	163465	keystroke_i	i	n/a
81.867	0.075	163734	keystroke_e	e	n/a
82.002	0.06	164004	keystroke_n	n	n/a
82.302	0.15	164604	keystroke_c	c	n/a
82.407	0.105	164814	keystroke_e	e	n/a
82.992	0.075	165984	keystroke_d	d	n/a
83.307	0.075	166614	keystroke_Key.space	Key.space	n/a
83.562	0.0905	167124	keystroke_c	c	n/a
83.8465	0.06	167693	keystroke_r	r	n/a
84.0425	0.089	168085	keystroke_u	u	n/a
84.1015	0.075	168203	keystroke_i	i	n/a
84.2375	0.105	168475	keystroke_s	s	n/a
84.4165	0.061	168833	keystroke_e	e	n/a
84.9715	0.09	169943	keystroke_Key.space	Key.space	n/a
85.4675	0.075	170935	keystroke_h	h	n/a
85.6025	0.0895	171205	keystroke_o	o	n/a
85.692	0.09	171384	keystroke_s	s	n/a
85.767	0.0605	171534	keystroke_t	t	n/a
85.947	0.09	171894	keystroke_e	e	n/a
86.082	0.09	172164	keystroke_l	l	n/a
86.637	0.075	173274	keystroke_Key.space	Key.space	n/a
86.877	0.075	173754	keystroke_t	t	n/a
86.997	0.09	173994	keystroke_o	o	n/a
87.222	0.075	174444	keystroke_a	a	n/a
88.1665	0.09	176333	keystroke_Key.backspace	Key.backspace	n/a
88.3315	0.105	176663	keystroke_d	d	n/a
88.3765	0.076	176753	keystroke_a	a	n/a
88.6015	0.075	177203	keystroke_y	y	n/a
88.9315	0.075	177863	keystroke_Key.enter	Key.enter	n/a
89.011	7.2575	178022	prompt	n/a	necessity huntington suggest analog\n
89.8915	0.075	179783	keystroke_n	n	n/a
89.9965	0.09	179993	keystroke_e	e	n/a
90.2365	0.045	180473	keystroke_c	c	n/a
90.2965	0.0755	180593	keystroke_e	e	n/a
90.522	0.075	181044	keystroke_s	s	n/a
90.657	0.06	181314	keystroke_s	s	n/a
90.762	0.06	181524	keystroke_i	i	n/a
90.972	0.06	181944	keystroke_t	t	n/a
91.062	0.075	182124	keystroke_y	y	n/a
91.317	0.09	182634	keystroke_Key.space	Key.space	n/a
91.722	0.06	183444	keystroke_h	h	n/a
91.857	0.09	183714	keystroke_u	u	n/a
92.082	0.06	184164	keystroke_n	n	n/a
92.202	0.075	184404	keystroke_t	t	n/a
92.307	0.09	184614	keystroke_i	i	n/a
92.367	0.075	184734	keystroke_n	n	n/a
92.517	0.06	185034	keystroke_g	g	n/a
92.772	0.045	185544	keystroke_t	t	n/a
92.892	0.105	185784	keystroke_o	o	n/a
92.952	0.075	185904	keystroke_n	n	n/a
93.446	0.09	186892	keystroke_Key.space	Key.space	n/a
93.687	0.075	187374	keystroke_s	s	n/a
93.821	0.076	187642	keystroke_u	u	n/a
93.987	0.075	187974	keystroke_g	g	n/a
94.166	0.12	188332	keystroke_g	g	n/a
94.3015	0.0755	188603	keystroke_e	e	n/a
94.542	0.089	189084	keystroke_s	s	n/a
94.602	0.0745	189204	keystroke_t	t	n/a
94.902	0.09	189804	keystroke_Key.space	Key.space	n/a
95.2015	0.045	190403	keystroke_a	a	n/a
95.3065	0.06	190613	keystroke_n	n	n/a
95.3965	0.09	190793	keystroke_a	a	n/a
95.5015	0.075	191003	keystroke_l	l	n/a
95.6965	0.075	191393	keystroke_o	o	n/a
95.8615	0.06	191723	keystroke_g	g	n/a
96.1915	0.075	192383	keystroke_Key.enter	Key.enter	n/a
96.273	10.3905	192546	prompt	n/a	input copying tender wyoming\n
97.077	0.075	194154	keystroke_i	i	n/a
97.2865	0.075	194573	keystroke_n	n	n/a
97.6165	0.075	195233	keystroke_u	u	n/a
97.7965	0.015	195593	keystroke_t	t	n/a
98.0365	0.075	196073	keystroke_Key.backspace	Key.backspace	n/a
98.1865	0.09	196373	keystroke_Key.backspace	Key.backspace	n/a
98.8165	0.045	197633	keystroke_p	p	n/a
99.0115	0.075	198023	keystroke_u	u	n/a
99.1615	0.06	198323	keystroke_t	t	n/a
99.5065	0.075	199013	keystroke_Key.space	Key.space	n/a
99.9415	0.09	199883	keystroke_c	c	n/a
100.0615	0.06	200123	keystroke_o	o	n/a
100.2265	0.075	200453	keystroke_p	p	n/a
100.4515	0.09	200903	keystroke_h	h	n/a
100.4665	0.045	200933	keystroke_y	y	n/a
100.5115	0.165	201023	keystroke_i	i	n/a
100.6615	0.045	201323	keystroke_n	n	n/a
100.7965	0.06	201593	keystroke_g	g	n/a
101.127	0.06	202254	keystroke_Key.backspace	Key.backspace	n/a
101.247	0.06	202494	keystroke_Key.backspace	Key.backspace	n/a
101.367	0.06	202734	keystroke_Key.backspace	Key.backspace	n/a
101.487	0.045	202974	keystroke_Key.backspace	Key.backspace	n/a
101.607	0.075	203214	keystroke_Key.backspace	Key.backspace	n/a
102.252	0.075	204504	keystroke_y	y	n/a
102.447	0.12	204894	keystroke_i	i	n/a
102.537	0.09	205074	keystroke_n	n	n/a
102.672	0.06	205344	keystroke_g	g	n/a
103.212	0.075	206424	keystroke_Key.space	Key.space	n/a
103.587	0.105	207174	keystroke_t	t	n/a
103.677	0.105	207354	keystroke_e	e	n/a
103.767	0.075	207534	keystroke_n	n	n/a
103.887	0.135	207774	keystroke_d	d	n/a
103.992	0.15	207984	keystroke_e	e	n/a
104.112	0.105	208224	keystroke_r	r	n/a
104.4715	0.105	208943	keystroke_Key.space	Key.space	n/a
104.862	0.09	209724	keystroke_w	w	n/a
105.072	0.0895	210144	keystroke_y	y	n/a
105.3415	0.075	210683	keystroke_o	o	n/a
105.9115	0.0755	211823	keystroke_m	m	n/a
106.047	0.09	212094	keystroke_i	i	n/a
106.092	0.105	212184	keystroke_n	n	n/a
106.332	0.06	212664	keystroke_g	g	n/a
106.587	0.075	213174	keystroke_Key.enter	Key.enter	n/a
106.6665	6.9415	213333	prompt	n/a	countries dispatched fold ensures\n
107.532	0.075	215064	keystroke_c	c	n/a
107.622	0.12	215244	keystroke_o	o	n/a
107.682	0.075	215364	keystroke_u	u	n/a
107.877	0.075	215754	keystroke_n	n	n/a
108.012	0.12	216024	keystroke_t	t	n/a
108.087	0.09	216174	keystroke_r	r	n/a
108.222	0.075	216444	keystroke_i	i	n/a
108.5215	0.12	217043	keystroke_e	e	n/a
108.8365	0.075	217673	keystroke_s	s	n/a
109.1365	0.0755	218273	keystroke_Key.space	Key.space	n/a
109.482	0.06	218964	keystroke_d	d	n/a
109.527	0.075	219054	keystroke_i	i	n/a
109.617	0.1045	219234	keystroke_s	s	n/a
109.7965	0.075	219593	keystroke_p	p	n/a
109.8865	0.1655	219773	keystroke_a	a	n/a
110.0215	0.0755	220043	keystroke_t	t	n/a
110.232	0.09	220464	keystroke_c	c	n/a
110.352	0.075	220704	keystroke_h	h	n/a
110.487	0.09	220974	keystroke_e	e	n/a
110.742	0.075	221484	keystroke_d	d	n/a
110.937	0.09	221874	keystroke_Key.space	Key.space	n/a
111.267	0.075	222534	keystroke_f	f	n/a
111.357	0.06	222714	keystroke_o	o	n/a
111.507	0.075	223014	keystroke_l	l	n/a
111.642	0.075	223284	keystroke_d	d	n/a
111.8965	0.075	223793	keystroke_Key.space	Key.space	n/a
112.1665	0.075	224333	keystroke_e	e	n/a
112.2865	0.105	224573	keystroke_n	n	n/a
112.6315	0.09	225263	keystroke_s	s	n/a
112.7515	0.075	225503	keystroke_u	u	n/a
112.9165	0.21	225833	keystroke_r	r	n/a
113.0965	0.0895	226193	keystroke_e	e	n/a
113.336	0.076	226672	keystroke_s	s	n/a
113.531	0.075	227062	keystroke_Key.enter	Key.enter	n/a
113.611	7.107	227222	prompt	n/a	read terrace thinks gzip\n
114.432	0.135	228864	keystroke_r	r	n/a
114.537	0.119	229074	keystroke_e	e	n/a
114.642	0.12	229284	keystroke_a	a	n/a
114.8215	0.105	229643	keystroke_d	d	n/a
115.107	0.075	230214	keystroke_Key.space	Key.space	n/a
115.407	0.12	230814	keystroke_t	t	n/a
115.617	0.105	231234	keystroke_e	e	n/a
115.9165	0.09	231833	keystroke_r	r	n/a
116.0815	0.12	232163	keystroke_r	r	n/a
116.2465	0.105	232493	keystroke_a	a	n/a
116.5165	0.12	233033	keystroke_c	c	n/a
116.5915	0.105	233183	keystroke_e	e	n/a
116.8315	0.09	233663	keystroke_Key.space	Key.space	n/a
117.1165	0.075	234233	keystroke_t	t	n/a
117.2065	0.1355	234413	keystroke_h	h	n/a
117.282	0.105	234564	keystroke_i	i	n/a
117.402	0.15	234804	keystroke_n	n	n/a
117.537	0.03	235074	keystroke_k	k	n/a
117.807	0.0595	235614	keystroke_s	s	n/a
118.197	0.09	236394	keystroke_Key.space	Key.space	n/a
118.767	0.105	237534	keystroke_f	f	n/a
119.127	0.075	238254	keystroke_Key.backspace	Key.backspace	n/a
119.247	0.045	238494	keystroke_g	g	n/a
119.667	0.09	239334	keystroke_z	z	n/a
119.802	0.0895	239604	keystroke_i	i	n/a
119.9965	0.075	239993	keystroke_p	p	n/a
120.6265	0.09	241253	keystroke_Key.enter	Key.enter	n/a
120.7215	8.2465	241443	prompt	n/a	hadn't sheet combinations buried\n
121.647	0.09	243294	keystroke_h	h	n/a
121.737	0.135	243474	keystroke_a	a	n/a
121.857	0.104	243714	keystroke_d	d	n/a
122.037	0.075	244074	keystroke_n	n	n/a
122.727	0.075	245454	keystroke_'	'	n/a
122.982	0.075	245964	keystroke_t	t	n/a
123.3415	0.09	246683	keystroke_Key.space	Key.space	n/a
123.7615	0.105	247523	keystroke_s	s	n/a
124.0165	0.075	248033	keystroke_h	h	n/a
124.1515	0.075	248303	keystroke_e	e	n/a
124.4065	0.045	248813	keystroke_e	e	n/a
124.4665	0.075	248933	keystroke_t	t	n/a
124.646	0.076	249292	keystroke_Key.space	Key.space	n/a
124.977	0.09	249954	keystroke_c	c	n/a
125.082	0.06	250164	keystroke_o	o	n/a
125.5015	0.075	251003	keystroke_m	m	n/a
125.8465	0.075	251693	keystroke_b	b	n/a
125.9365	0.045	251873	keystroke_i	i	n/a
126.1165	0.075	252233	keystroke_n	n	n/a
126.2365	0.09	252473	keystroke_a	a	n/a
126.3115	0.105	252623	keystroke_t	t	n/a
126.4015	0.075	252803	keystroke_i	i	n/a
126.4315	0.09	252863	keystroke_o	o	n/a
126.6115	0.075	253223	keystroke_n	n	n/a
126.7615	0.06	253523	keystroke_s	s	n/a
127.1065	0.0905	254213	keystroke_Key.space	Key.space	n/a
127.7965	0.105	255593	keystroke_b	b	n/a
127.8715	0.09	255743	keystroke_u	u	n/a
128.0815	0.075	256163	keystroke_r	r	n/a
128.3065	0.075	256613	keystroke_i	i	n/a
128.4565	0.06	256913	keystroke_e	e	n/a
128.6665	0.09	257333	keystroke_d	d	n/a
128.8915	0.075	257783	keystroke_Key.enter	Key.enter	n/a
128.9715	9.3115	257943	prompt	n/a	community mathematical doom decent\n
129.7615	0.09	259523	keystroke_c	c	n/a
129.8515	0.06	259703	keystroke_o	o	n/a
130.0465	0.045	260093	keystroke_m	m	n/a
130.1815	0.075	260363	keystroke_m	m	n/a
130.4065	0.06	260813	keystroke_u	u	n/a
130.6165	0.12	261233	keystroke_n	n	n/a
130.7065	0.075	261413	keystroke_i	i	n/a
130.871	0.06	261742	keystroke_t	t	n/a
130.992	0.09	261984	keystroke_y	y	n/a
131.366	0.06	262732	keystroke_Key.space	Key.space	n/a
131.652	0.075	263304	keystroke_m	m	n/a
131.742	0.135	263484	keystroke_a	a	n/a
131.892	0.09	263784	keystroke_t	t	n/a
131.997	0.075	263994	keystroke_h	h	n/a
132.102	0.09	264204	keystroke_e	e	n/a
132.252	0.06	264504	keystroke_m	m	n/a
132.417	0.09	264834	keystroke_a	a	n/a
132.567	0.105	265134	keystroke_t	t	n/a
132.732	0.06	265464	keystroke_u	u	n/a
132.747	0.03	265494	keystroke_i	i	n/a
132.9115	0.135	265823	keystroke_c	c	n/a
133.0315	0.105	266063	keystroke_a	a	n/a
133.316	0.06	266632	keystroke_Key.backspace	Key.backspace	n/a
133.421	0.075	266842	keystroke_Key.backspace	Key.backspace	n/a
133.526	0.075	267052	keystroke_Key.backspace	Key.backspace	n/a
133.676	0.06	267352	keystroke_Key.backspace	Key.backspace	n/a
134.156	0.06	268312	keystroke_i	i	n/a
134.232	0.1205	268464	keystroke_c	c	n/a
134.3215	0.09	268643	keystroke_a	a	n/a
134.457	0.075	268914	keystroke_l	l	n/a
134.8465	0.075	269693	keystroke_Key.space	Key.space	n/a
135.0715	0.075	270143	keystroke_d	d	n/a
135.1765	0.09	270353	keystroke_o	o	n/a
135.3115	0.09	270623	keystroke_o	o	n/a
135.5365	0.075	271073	keystroke_m	m	n/a
135.8215	0.075	271643	keystroke_Key.space	Key.space	n/a
136.0615	0.105	272123	keystroke_d	d	n/a
136.1515	0.105	272303	keystroke_e	e	n/a
136.4215	0.09	272843	keystroke_e	e	n/a
136.5565	0.0755	273113	keystroke_n	n	n/a
136.6915	0.06	273383	keystroke_t	t	n/a
137.1265	0.045	274253	keystroke_Key.backspace	Key.backspace	n/a
137.2315	0.06	274463	keystroke_Key.backspace	Key.backspace	n/a
137.3365	0.06	274673	keystroke_Key.backspace	Key.backspace	n/a
137.5165	0.12	275033	keystroke_c	c	n/a
137.6215	0.06	275243	keystroke_e	e	n/a
137.8315	0.075	275663	keystroke_n	n	n/a
138.0415	0.06	276083	keystroke_t	t	n/a
138.2065	0.075	276413	keystroke_Key.enter	Key.enter	n/a
138.2865	7.5415	276573	prompt	n/a	illness latin reload speeches\n
139.0915	0.0905	278183	keystroke_i	i	n/a
139.302	0.06	278604	keystroke_l	l	n/a
139.407	0.075	278814	keystroke_l	l	n/a
139.6615	0.0745	279323	keystroke_n	n	n/a
139.751	0.09	279502	keystroke_e	e	n/a
140.006	0.09	280012	keystroke_s	s	n/a
140.201	0.09	280402	keystroke_s	s	n/a
140.396	0.06	280792	keystroke_Key.space	Key.space	n/a
140.591	0.076	281182	keystroke_l	l	n/a
140.681	0.135	281362	keystroke_a	a	n/a
140.801	0.091	281602	keystroke_t	t	n/a
140.982	0.059	281964	keystroke_i	i	n/a
141.026	0.06	282052	keystroke_n	n	n/a
141.882	0.075	283764	keystroke_Key.space	Key.space	n/a
142.1815	0.105	284363	keystroke_r	r	n/a
142.2715	0.075	284543	keystroke_e	e	n/a
142.362	0.075	284724	keystroke_l	l	n/a
142.512	0.09	285024	keystroke_a	a	n/a
142.647	0.12	285294	keystroke_d	d	n/a
143.291	0.046	286582	keystroke_Key.backspace	Key.backspace	n/a
143.397	0.06	286794	keystroke_Key.backspace	Key.backspace	n/a
143.771	0.06	287542	keystroke_o	o	n/a
143.891	0.1055	287782	keystroke_a	a	n/a
143.9515	0.09	287903	keystroke_d	d	n/a
144.1465	0.075	288293	keystroke_Key.space	Key.space	n/a
144.3715	0.075	288743	keystroke_s	s	n/a
144.4915	0.075	288983	keystroke_p	p	n/a
144.5965	0.09	289193	keystroke_e	e	n/a
144.761	0.09	289522	keystroke_e	e	n/a
144.9865	0.105	289973	keystroke_c	c	n/a
145.1215	0.0895	290243	keystroke_h	h	n/a
145.256	0.09	290512	keystroke_e	e	n/a
145.4665	0.075	290933	keystroke_s	s	n/a
145.752	0.0745	291504	keystroke_Key.enter	Key.enter	n/a
145.8315	9.0715	291663	prompt	n/a	northwest bite auto practitioners\n
146.6665	0.06	293333	keystroke_n	n	n/a
146.8015	0.075	293603	keystroke_o	o	n/a
146.9215	0.075	293843	keystroke_r	r	n/a
147.1165	0.06	294233	keystroke_t	t	n/a
147.3265	0.075	294653	keystroke_h	h	n/a
147.5065	0.105	295013	keystroke_w	w	n/a
148.1215	0.09	296243	keystroke_e	e	n/a
148.3465	0.105	296693	keystroke_s	s	n/a
148.4065	0.09	296813	keystroke_t	t	n/a
148.7215	0.09	297443	keystroke_Key.space	Key.space	n/a
149.1865	0.105	298373	keystroke_b	b	n/a
149.2615	0.075	298523	keystroke_i	i	n/a
149.3665	0.18	298733	keystroke_t	t	n/a
149.4865	0.105	298973	keystroke_e	e	n/a
149.8015	0.09	299603	keystroke_Key.space	Key.space	n/a
150.2965	0.09	300593	keystroke_a	a	n/a
150.4165	0.045	300833	keystroke_u	u	n/a
150.687	0.075	301374	keystroke_t	t	n/a
150.822	0.075	301644	keystroke_o	o	n/a
151.362	0.075	302724	keystroke_Key.space	Key.space	n/a
151.662	0.09	303324	keystroke_p	p	n/a
151.767	0.105	303534	keystroke_r	r	n/a
151.857	0.06	303714	keystroke_a	a	n/a
151.977	0.105	303954	keystroke_c	c	n/a
152.187	0.075	304374	keystroke_t	t	n/a
152.307	0.075	304614	keystroke_i	i	n/a
153.927	0.105	307854	keystroke_t	t	n/a
154.047	0.09	308094	keystroke_i	i	n/a
154.092	0.075	308184	keystroke_o	o	n/a
154.287	0.09	308574	keystroke_n	n	n/a
154.407	0.12	308814	keystroke_e	e	n/a
154.482	0.09	308964	keystroke_r	r	n/a
154.6765	0.075	309353	keystroke_s	s	n/a
154.8265	0.075	309653	keystroke_Key.enter	Key.enter	n/a
154.906	10.2875	309812	prompt	n/a	beside arizona clinton verified\n
155.7715	0.06	311543	keystroke_b	b	n/a
156.0565	0.075	312113	keystroke_e	e	n/a
156.4615	0.075	312923	keystroke_s	s	n/a
156.6565	0.06	313313	keystroke_i	i	n/a
156.7915	0.135	313583	keystroke_d	d	n/a
156.8965	0.105	313793	keystroke_e	e	n/a
157.2265	0.09	314453	keystroke_Key.space	Key.space	n/a
157.6765	0.12	315353	keystroke_a	a	n/a
157.7665	0.09	315533	keystroke_r	r	n/a
157.8865	0.06	315773	keystroke_i	i	n/a
158.892	0.09	317784	keystroke_z	z	n/a
159.072	0.075	318144	keystroke_o	o	n/a
159.342	0.06	318684	keystroke_n	n	n/a
159.447	0.09	318894	keystroke_a	a	n/a
159.882	0.09	319764	keystroke_Key.space	Key.space	n/a
160.572	0.09	321144	keystroke_c	c	n/a
160.692	0.09	321384	keystroke_l	l	n/a
160.737	0.075	321474	keystroke_i	i	n/a
160.946	0.061	321892	keystroke_n	n	n/a
161.051	0.076	322102	keystroke_t	t	n/a
161.157	0.105	322314	keystroke_o	o	n/a
161.247	0.075	322494	keystroke_n	n	n/a
161.846	0.09	323692	keystroke_Key.space	Key.space	n/a
162.356	0.106	324712	keystroke_v	v	n/a
162.476	0.166	324952	keystroke_e	e	n/a
162.597	0.105	325194	keystroke_r	r	n/a
162.821	0.046	325642	keystroke_i	i	n/a
162.852	0.029	325704	keystroke_r	r	n/a
163.586	0.06	327172	keystroke_Key.backspace	Key.backspace	n/a
163.676	0.105	327352	keystroke_Key.backspace	Key.backspace	n/a
164.217	0.075	328434	keystroke_i	i	n/a
164.4415	0.105	328883	keystroke_f	f	n/a
164.5615	0.0895	329123	keystroke_i	i	n/a
164.711	0.075	329422	keystroke_e	e	n/a
164.891	0.09	329782	keystroke_d	d	n/a
165.101	0.09	330202	keystroke_Key.enter	Key.enter	n/a
165.196	8.322	330392	prompt	n/a	televisions cohen schema madison\n
165.9865	0.105	331973	keystroke_t	t	n/a
166.0465	0.09	332093	keystroke_e	e	n/a
166.1515	0.09	332303	keystroke_l	l	n/a
166.2715	0.09	332543	keystroke_e	e	n/a
166.6915	0.105	333383	keystroke_c	c	n/a
166.8565	0.0595	333713	keystroke_i	i	n/a
167.171	0.06	334342	keystroke_Key.backspace	Key.backspace	n/a
167.291	0.075	334582	keystroke_Key.backspace	Key.backspace	n/a
167.411	0.075	334822	keystroke_v	v	n/a
167.651	0.015	335302	keystroke_i	i	n/a
167.786	0.075	335572	keystroke_s	s	n/a
167.891	0.105	335782	keystroke_i	i	n/a
167.951	0.075	335902	keystroke_o	o	n/a
168.116	0.075	336232	keystroke_n	n	n/a
168.236	0.0755	336472	keystroke_s	s	n/a
168.4765	0.09	336953	keystroke_Key.space	Key.space	n/a
168.7765	0.075	337553	keystroke_c	c	n/a
168.8365	0.075	337673	keystroke_o	o	n/a
169.0615	0.075	338123	keystroke_h	h	n/a
169.166	0.06	338332	keystroke_e	e	n/a
169.301	0.06	338602	keystroke_n	n	n/a
169.706	0.075	339412	keystroke_Key.space	Key.space	n/a
170.081	0.105	340162	keystroke_s	s	n/a
170.246	0.091	340492	keystroke_c	c	n/a
170.397	0.089	340794	keystroke_h	h	n/a
170.531	0.061	341062	keystroke_e	e	n/a
170.682	0.074	341364	keystroke_m	m	n/a
170.831	0.09	341662	keystroke_a	a	n/a
171.416	0.075	342832	keystroke_Key.space	Key.space	n/a
171.777	0.0745	343554	keystroke_m	m	n/a
171.8365	0.21	343673	keystroke_a	a	n/a
172.2865	0.075	344573	keystroke_d	d	n/a
172.376	0.06	344752	keystroke_i	i	n/a
172.886	0.075	345772	keystroke_s	s	n/a
173.021	0.105	346042	keystroke_o	o	n/a
173.111	0.06	346222	keystroke_n	n	n/a
173.441	0.075	346882	keystroke_Key.enter	Key.enter	n/a
173.522	7.691	347044	prompt	n/a	ourselves at proteins dictionaries\n
174.4165	0.18	348833	keystroke_o	o	n/a
174.5215	0.09	349043	keystroke_u	u	n/a
174.6415	0.09	349283	keystroke_r	r	n/a
174.8665	0.165	349733	keystroke_s	s	n/a
175.0165	0.09	350033	keystroke_e	e	n/a
175.617	0.09	351234	keystroke_l	l	n/a
175.767	0.15	351534	keystroke_v	v	n/a
175.901	0.075	351802	keystroke_e	e	n/a
176.112	0.074	352224	keystroke_s	s	n/a
176.5315	0.075	353063	keystroke_Key.space	Key.space	n/a
176.8315	0.15	353663	keystroke_a	a	n/a
176.9515	0.075	353903	keystroke_t	t	n/a
177.0565	0.09	354113	keystroke_Key.space	Key.space	n/a
177.297	0.06	354594	keystroke_p	p	n/a
177.417	0.045	354834	keystroke_r	r	n/a
177.507	0.09	355014	keystroke_o	o	n/a
177.807	0.12	355614	keystroke_t	t	n/a
177.942	0.105	355884	keystroke_e	e	n/a
178.152	0.075	356304	keystroke_i	i	n/a
178.212	0.09	356424	keystroke_n	n	n/a
178.587	0.09	357174	keystroke_Key.space	Key.space	n/a
178.887	0.105	357774	keystroke_d	d	n/a
179.007	0.09	358014	keystroke_i	i	n/a
179.1865	0.075	358373	keystroke_c	c	n/a
179.3965	0.09	358793	keystroke_t	t	n/a
179.5615	0.105	359123	keystroke_i	i	n/a
179.6215	0.075	359243	keystroke_o	o	n/a
179.801	0.076	359602	keystroke_n	n	n/a
179.906	0.09	359812	keystroke_a	a	n/a
180.476	0.0755	360952	keystroke_r	r	n/a
180.5665	0.09	361133	keystroke_i	i	n/a
180.7765	0.105	361553	keystroke_e	e	n/a
180.9865	0.09	361973	keystroke_s	s	n/a
181.1365	0.075	362273	keystroke_Key.enter	Key.enter	n/a
181.2175	5.7105	362435	prompt	n/a	trains elect offices pepper\n
182.0065	0.075	364013	keystroke_t	t	n/a
182.3365	0.09	364673	keystroke_r	r	n/a
182.4565	0.0905	364913	keystroke_a	a	n/a
182.6965	0.0895	365393	keystroke_i	i	n/a
182.7415	0.075	365483	keystroke_n	n	n/a
182.9365	0.0745	365873	keystroke_s	s	n/a
183.206	0.075	366412	keystroke_Key.space	Key.space	n/a
183.446	0.075	366892	keystroke_e	e	n/a
183.5815	0.0745	367163	keystroke_l	l	n/a
183.6415	0.105	367283	keystroke_e	e	n/a
183.851	0.0905	367702	keystroke_c	c	n/a
184.076	0.06	368152	keystroke_t	t	n/a
184.3915	0.09	368783	keystroke_Key.space	Key.space	n/a
184.7665	0.075	369533	keystroke_o	o	n/a
184.8865	0.075	369773	keystroke_f	f	n/a
185.0365	0.105	370073	keystroke_f	f	n/a
185.1565	0.0895	370313	keystroke_i	i	n/a
185.261	0.135	370522	keystroke_c	c	n/a
185.336	0.105	370672	keystroke_e	e	n/a
185.591	0.076	371182	keystroke_s	s	n/a
185.816	0.09	371632	keystroke_Key.space	Key.space	n/a
186.101	0.045	372202	keystroke_p	p	n/a
186.176	0.105	372352	keystroke_e	e	n/a
186.356	0.06	372712	keystroke_p	p	n/a
186.491	0.0905	372982	keystroke_p	p	n/a
186.5965	0.105	373193	keystroke_e	e	n/a
186.6565	0.09	373313	keystroke_r	r	n/a
186.8515	0.075	373703	keystroke_Key.enter	Key.enter	n/a
186.9305	6.6875	373861	prompt	n/a	jonathan poker analyst song\n
187.872	0.075	375744	keystroke_j	j	n/a
187.962	0.105	375924	keystroke_o	o	n/a
188.202	0.075	376404	keystroke_n	n	n/a
188.292	0.15	376584	keystroke_a	a	n/a
188.427	0.105	376854	keystroke_t	t	n/a
188.547	0.06	377094	keystroke_h	h	n/a
188.817	0.09	377634	keystroke_a	a	n/a
188.967	0.03	377934	keystroke_n	n	n/a
189.3565	0.075	378713	keystroke_Key.space	Key.space	n/a
189.6565	0.06	379313	keystroke_p	p	n/a
189.8665	0.06	379733	keystroke_o	o	n/a
190.0765	0.06	380153	keystroke_k	k	n/a
190.1815	0.105	380363	keystroke_e	e	n/a
190.2415	0.075	380483	keystroke_r	r	n/a
190.4965	0.09	380993	keystroke_Key.space	Key.space	n/a
190.9165	0.075	381833	keystroke_a	a	n/a
191.0815	0.045	382163	keystroke_n	n	n/a
191.1115	0.0905	382223	keystroke_a	a	n/a
191.307	0.075	382614	keystroke_l	l	n/a
191.5165	0.045	383033	keystroke_y	y	n/a
191.6065	0.135	383213	keystroke_s	s	n/a
191.7115	0.075	383423	keystroke_t	t	n/a
192.0715	0.075	384143	keystroke_Key.space	Key.space	n/a
192.4315	0.075	384863	keystroke_s	s	n/a
192.5515	0.105	385103	keystroke_o	o	n/a
192.6115	0.075	385223	keystroke_n	n	n/a
192.821	0.075	385642	keystroke_g	g	n/a
193.527	0.09	387054	keystroke_Key.enter	Key.enter	n/a
193.621	11.127	387242	prompt	n/a	highlight economics randy isn't\n
194.487	0.09	388974	keystroke_h	h	n/a
194.667	0.0895	389334	keystroke_i	i	n/a
194.9215	0.075	389843	keystroke_g	g	n/a
195.0115	0.09	390023	keystroke_h	h	n/a
195.672	0.09	391344	keystroke_l	l	n/a
195.732	0.09	391464	keystroke_i	i	n/a
195.972	0.12	391944	keystroke_g	g	n/a
196.167	0.075	392334	keystroke_h	h	n/a
196.347	0.06	392694	keystroke_t	t	n/a
197.142	0.0745	394284	keystroke_Key.space	Key.space	n/a
197.3065	0.075	394613	keystroke_e	e	n/a
197.5615	0.09	395123	keystroke_c	c	n/a
197.6525	0.059	395305	keystroke_o	o	n/a
197.8615	0.12	395723	keystroke_n	n	n/a
197.9965	0.06	395993	keystroke_n	n	n/a
198.0415	0.045	396083	keystroke_o	o	n/a
198.5815	0.075	397163	keystroke_Key.backspace	Key.backspace	n/a
198.7015	0.09	397403	keystroke_Key.backspace	Key.backspace	n/a
198.9415	0.075	397883	keystroke_o	o	n/a
199.152	0.119	398304	keystroke_m	m	n/a
199.212	0.105	398424	keystroke_i	i	n/a
199.526	0.076	399052	keystroke_c	c	n/a
199.7815	0.045	399563	keystroke_s	s	n/a
199.9465	0.105	399893	keystroke_Key.space	Key.space	n/a
200.2765	0.135	400553	keystroke_r	r	n/a
200.3965	0.09	400793	keystroke_a	a	n/a
200.4715	0.09	400943	keystroke_n	n	n/a
200.6215	0.09	401243	keystroke_d	d	n/a
200.7715	0.075	401543	keystroke_y	y	n/a
201.1465	0.0895	402293	keystroke_Key.space	Key.space	n/a
201.521	0.075	403042	keystroke_i	i	n/a
201.656	0.0755	403312	keystroke_s	s	n/a
202.1065	0.075	404213	keystroke_n	n	n/a
202.737	0.06	405474	keystroke_;	;	n/a
203.2765	0.09	406553	keystroke_Key.backspace	Key.backspace	n/a
203.8615	0.075	407723	keystroke_'	'	n/a
204.012	0.06	408024	keystroke_t	t	n/a
204.731	0.015	409462	keystroke_Key.enter	Key.enter	n/a
204.751	6.567	409502	prompt	n/a	cheese jamaica recruiting homes\n
205.541	0.106	411082	keystroke_c	c	n/a
205.692	0.09	411384	keystroke_h	h	n/a
205.827	0.06	411654	keystroke_e	e	n/a
205.991	0.061	411982	keystroke_e	e	n/a
206.232	0.12	412464	keystroke_s	s	n/a
206.307	0.09	412614	keystroke_e	e	n/a
206.501	0.075	413002	keystroke_Key.space	Key.space	n/a
206.861	0.06	413722	keystroke_j	j	n/a
206.936	0.09	413872	keystroke_a	a	n/a
207.072	0.0895	414144	keystroke_m	m	n/a
207.1615	0.075	414323	keystroke_a	a	n/a
207.3415	0.09	414683	keystroke_i	i	n/a
208.0165	0.15	416033	keystroke_c	c	n/a
208.1515	0.12	416303	keystroke_a	a	n/a
208.4815	0.09	416963	keystroke_Key.space	Key.space	n/a
208.842	0.12	417684	keystroke_r	r	n/a
208.917	0.074	417834	keystroke_e	e	n/a
209.127	0.0745	418254	keystroke_c	c	n/a
209.3065	0.075	418613	keystroke_r	r	n/a
209.3965	0.105	418793	keystroke_u	u	n/a
209.4715	0.075	418943	keystroke_i	i	n/a
209.5765	0.105	419153	keystroke_t	t	n/a
209.6665	0.105	419333	keystroke_i	i	n/a
209.7415	0.0745	419483	keystroke_n	n	n/a
209.891	0.06	419782	keystroke_g	g	n/a
210.191	0.105	420382	keystroke_Key.space	Key.space	n/a
210.521	0.075	421042	keystroke_h	h	n/a
210.686	0.136	421372	keystroke_o	o	n/a
210.791	0.075	421582	keystroke_m	m	n/a
210.911	0.06	421822	keystroke_e	e	n/a
211.091	0.075	422182	keystroke_s	s	n/a
211.226	0.09	422452	keystroke_Key.enter	Key.enter	n/a
211.3205	7.9925	422641	prompt	n/a	formation centers stan definition\n
212.126	0.06	424252	keystroke_f	f	n/a
212.201	0.06	424402	keystroke_o	o	n/a
212.276	0.09	424552	keystroke_r	r	n/a
212.411	0.075	424822	keystroke_m	m	n/a
212.531	0.106	425062	keystroke_a	a	n/a
212.591	0.091	425182	keystroke_t	t	n/a
212.6515	0.105	425303	keystroke_i	i	n/a
212.6965	0.09	425393	keystroke_o	o	n/a
212.8765	0.09	425753	keystroke_n	n	n/a
213.237	0.0895	426474	keystroke_Key.space	Key.space	n/a
213.4015	0.135	426803	keystroke_c	c	n/a
213.4915	0.09	426983	keystroke_e	e	n/a
213.5965	0.09	427193	keystroke_n	n	n/a
213.6715	0.105	427343	keystroke_t	t	n/a
213.7915	0.105	427583	keystroke_e	e	n/a
213.8515	0.1055	427703	keystroke_r	r	n/a
214.077	0.09	428154	keystroke_s	s	n/a
214.332	0.074	428664	keystroke_Key.space	Key.space	n/a
214.662	0.09	429324	keystroke_s	s	n/a
214.737	0.09	429474	keystroke_t	t	n/a
214.857	0.105	429714	keystroke_a	a	n/a
214.992	0.09	429984	keystroke_n	n	n/a
215.546	0.09	431092	keystroke_Key.space	Key.space	n/a
215.877	0.119	431754	keystroke_d	d	n/a
215.981	0.106	431962	keystroke_e	e	n/a
216.116	0.105	432232	keystroke_f	f	n/a
216.296	0.075	432592	keystroke_i	i	n/a
216.537	0.1045	433074	keystroke_n	n	n/a
216.5965	0.105	433193	keystroke_i	i	n/a
216.7915	0.075	433583	keystroke_t	t	n/a
216.9115	0.09	433823	keystroke_u	u	n/a
217.0615	0.135	434123	keystroke_o	o	n/a
217.1065	0.075	434213	keystroke_i	i	n/a
217.6465	0.06	435293	keystroke_Key.backspace	Key.backspace	n/a
217.7665	0.0895	435533	keystroke_Key.backspace	Key.backspace	n/a
218.396	0.075	436792	keystroke_Key.backspace	Key.backspace	n/a
218.8015	0.075	437603	keystroke_i	i	n/a
218.8315	0.075	437663	keystroke_o	o	n/a
219.041	0.075	438082	keystroke_n	n	n/a
219.251	0.06	438502	keystroke_Key.enter	Key.enter	n/a
219.316	9.027	438632	prompt	n/a	rehab chambers death peas\n
220.136	0.12	440272	keystroke_r	r	n/a
220.211	0.105	440422	keystroke_e	e	n/a
220.331	0.06	440662	keystroke_h	h	n/a
220.616	0.075	441232	keystroke_b	b	n/a
220.751	0.075	441502	keystroke_a	a	n/a
221.157	0.06	442314	keystroke_Key.backspace	Key.backspace	n/a
221.277	0.0745	442554	keystroke_Key.backspace	Key.backspace	n/a
221.367	0.105	442734	keystroke_a	a	n/a
222.1465	0.06	444293	keystroke_b	b	n/a
222.6115	0.075	445223	keystroke_Key.space	Key.space	n/a
223.182	0.09	446364	keystroke_c	c	n/a
223.257	0.075	446514	keystroke_h	h	n/a
223.377	0.09	446754	keystroke_a	a	n/a
223.512	0.105	447024	keystroke_m	m	n/a
223.797	0.075	447594	keystroke_b	b	n/a
223.902	0.105	447804	keystroke_e	e	n/a
223.977	0.075	447954	keystroke_r	r	n/a
224.1565	0.09	448313	keystroke_s	s	n/a
224.307	0.0895	448614	keystroke_Key.space	Key.space	n/a
224.5165	0.105	449033	keystroke_d	d	n/a
224.6065	0.075	449213	keystroke_e	e	n/a
224.7715	0.12	449543	keystroke_a	a	n/a
224.8615	0.09	449723	keystroke_t	t	n/a
225.0115	0.075	450023	keystroke_h	h	n/a
225.3115	0.075	450623	keystroke_Key.space	Key.space	n/a
225.536	0.045	451072	keystroke_o	o	n/a
225.551	0.075	451102	keystroke_p	p	n/a
225.566	0.105	451132	keystroke_e	e	n/a
225.776	0.165	451552	keystroke_a	a	n/a
226.211	0.09	452422	keystroke_s	s	n/a
226.511	0.06	453022	keystroke_Key.backspace	Key.backspace	n/a
226.631	0.06	453262	keystroke_Key.backspace	Key.backspace	n/a
226.751	0.045	453502	keystroke_Key.backspace	Key.backspace	n/a
226.856	0.06	453712	keystroke_Key.backspace	Key.backspace	n/a
227.021	0.045	454042	keystroke_Key.backspace	Key.backspace	n/a
227.6365	0.09	455273	keystroke_p	p	n/a
227.7415	0.105	455483	keystroke_e	e	n/a
227.9965	0.12	455993	keystroke_a	a	n/a
228.0715	0.09	456143	keystroke_s	s	n/a
228.2665	0.075	456533	keystroke_Key.enter	Key.enter	n/a
228.346	11.067	456692	prompt	n/a	result adam substantial received\n
229.7965	0.15	459593	keystroke_r	r	n/a
229.9915	0.015	459983	keystroke_e	e	n/a
230.1115	0.135	460223	keystroke_s	s	n/a
230.2315	0.06	460463	keystroke_u	u	n/a
230.4265	0.075	460853	keystroke_l	l	n/a
230.5465	0.075	461093	keystroke_t	t	n/a
231.2815	0.075	462563	keystroke_Key.space	Key.space	n/a
231.4315	0.105	462863	keystroke_a	a	n/a
231.5815	0.075	463163	keystroke_m	m	n/a
231.9715	0.105	463943	keystroke_d	d	n/a
232.0465	0.075	464093	keystroke_a	a	n/a
232.3165	0.075	464633	keystroke_Key.backspace	Key.backspace	n/a
232.4365	0.06	464873	keystroke_Key.backspace	Key.backspace	n/a
232.5565	0.075	465113	keystroke_Key.backspace	Key.backspace	n/a
232.6615	0.105	465323	keystroke_d	d	n/a
232.7365	0.075	465473	keystroke_a	a	n/a
232.9165	0.06	465833	keystroke_m	m	n/a
233.411	0.075	466822	keystroke_Key.space	Key.space	n/a
233.817	0.075	467634	keystroke_s	s	n/a
233.997	0.015	467994	keystroke_u	u	n/a
235.1215	0.0905	470243	keystroke_b	b	n/a
235.451	0.1655	470902	keystroke_s	s	n/a
235.5565	0.09	471113	keystroke_t	t	n/a
235.6315	0.1195	471263	keystroke_a	a	n/a
235.841	0.091	471682	keystroke_n	n	n/a
236.006	0.091	472012	keystroke_t	t	n/a
236.157	0.075	472314	keystroke_o	o	n/a
236.6965	0.075	473393	keystroke_Key.backspace	Key.backspace	n/a
237.0115	0.045	474023	keystroke_i	i	n/a
237.0715	0.09	474143	keystroke_a	a	n/a
237.2365	0.06	474473	keystroke_l	l	n/a
237.9565	0.09	475913	keystroke_Key.space	Key.space	n/a
238.1215	0.105	476243	keystroke_r	r	n/a
238.1965	0.105	476393	keystroke_e	e	n/a
238.3915	0.135	476783	keystroke_c	c	n/a
238.4665	0.09	476933	keystroke_e	e	n/a
238.5565	0.06	477113	keystroke_i	i	n/a
238.6765	0.105	477353	keystroke_v	v	n/a
238.7665	0.09	477533	keystroke_e	e	n/a
238.9915	0.09	477983	keystroke_d	d	n/a
239.321	0.09	478642	keystroke_Key.enter	Key.enter	n/a
239.4155	9.8975	478831	prompt	n/a	networks similar assume reduces\n
240.386	0.061	480772	keystroke_n	n	n/a
240.462	0.164	480924	keystroke_e	e	n/a
240.581	0.09	481162	keystroke_t	t	n/a
241.031	0.105	482062	keystroke_w	w	n/a
241.166	0.075	482332	keystroke_o	o	n/a
241.256	0.09	482512	keystroke_r	r	n/a
241.406	0.075	482812	keystroke_k	k	n/a
241.601	0.06	483202	keystroke_s	s	n/a
241.811	0.09	483622	keystroke_Key.space	Key.space	n/a
242.1865	0.105	484373	keystroke_s	s	n/a
242.3065	0.075	484613	keystroke_i	i	n/a
242.4865	0.12	484973	keystroke_m	m	n/a
242.5615	0.105	485123	keystroke_i	i	n/a
242.7715	0.075	485543	keystroke_l	l	n/a
242.9065	0.165	485813	keystroke_a	a	n/a
243.0565	0.075	486113	keystroke_r	r	n/a
243.3715	0.09	486743	keystroke_Key.space	Key.space	n/a
243.7165	0.18	487433	keystroke_a	a	n/a
243.8665	0.12	487733	keystroke_s	s	n/a
244.0615	0.09	488123	keystroke_s	s	n/a
244.1215	0.06	488243	keystroke_u	u	n/a
244.3015	0.09	488603	keystroke_m	m	n/a
244.4665	0.06	488933	keystroke_e	e	n/a
244.7665	0.09	489533	keystroke_Key.space	Key.space	n/a
245.0065	0.09	490013	keystroke_r	r	n/a
245.067	0.0745	490134	keystroke_e	e	n/a
245.382	0.1195	490764	keystroke_c	c	n/a
245.517	0.0595	491034	keystroke_u	u	n/a
245.5915	0.1795	491183	keystroke_d	d	n/a
245.696	0.12	491392	keystroke_e	e	n/a
247.1665	0.075	494333	keystroke_Key.backspace	Key.backspace	n/a
247.3765	0.045	494753	keystroke_Key.backspace	Key.backspace	n/a
247.4965	0.045	494993	keystroke_Key.backspace	Key.backspace	n/a
247.8865	0.105	495773	keystroke_Key.backspace	Key.backspace	n/a
248.426	0.091	496852	keystroke_d	d	n/a
248.532	0.075	497064	keystroke_u	u	n/a
248.772	0.119	497544	keystroke_c	c	n/a
248.831	0.106	497662	keystroke_e	e	n/a
249.057	0.074	498114	keystroke_s	s	n/a
249.236	0.075	498472	keystroke_Key.enter	Key.enter	n/a
249.316	6.6715	498632	prompt	n/a	notion tells breed defining\n
250.1065	0.09	500213	keystroke_n	n	n/a
250.2415	0.09	500483	keystroke_o	o	n/a
250.4515	0.075	500903	keystroke_t	t	n/a
250.5265	0.09	501053	keystroke_i	i	n/a
250.5565	0.105	501113	keystroke_o	o	n/a
250.7515	0.075	501503	keystroke_n	n	n/a
251.426	0.075	502852	keystroke_Key.space	Key.space	n/a
251.621	0.12	503242	keystroke_t	t	n/a
251.696	0.06	503392	keystroke_e	e	n/a
251.786	0.06	503572	keystroke_l	l	n/a
251.936	0.075	503872	keystroke_l	l	n/a
252.056	0.09	504112	keystroke_s	s	n/a
252.236	0.09	504472	keystroke_Key.space	Key.space	n/a
252.626	0.075	505252	keystroke_b	b	n/a
252.746	0.1045	505492	keystroke_r	r	n/a
252.9865	0.09	505973	keystroke_e	e	n/a
253.1365	0.06	506273	keystroke_e	e	n/a
253.3305	0.09	506661	keystroke_d	d	n/a
253.4805	0.0905	506961	keystroke_Key.space	Key.space	n/a
253.8265	0.09	507653	keystroke_d	d	n/a
253.8715	0.1195	507743	keystroke_e	e	n/a
254.1105	0.0755	508221	keystroke_f	f	n/a
254.231	0.075	508462	keystroke_i	i	n/a
255.116	0.075	510232	keystroke_n	n	n/a
255.236	0.105	510472	keystroke_i	i	n/a
255.326	0.075	510652	keystroke_n	n	n/a
255.596	0.075	511192	keystroke_g	g	n/a
255.896	0.09	511792	keystroke_Key.enter	Key.enter	n/a
255.991	10.1515	511982	prompt	n/a	laptop she'd ping molecular\n
256.7065	0.075	513413	keystroke_l	l	n/a
256.7965	0.075	513593	keystroke_a	a	n/a
256.9315	0.06	513863	keystroke_o	o	n/a
257.156	0.045	514312	keystroke_t	t	n/a
257.216	0.136	514432	keystroke_o	o	n/a
257.651	0.06	515302	keystroke_Key.backspace	Key.backspace	n/a
257.771	0.045	515542	keystroke_Key.backspace	Key.backspace	n/a
257.861	0.09	515722	keystroke_Key.backspace	Key.backspace	n/a
258.521	0.09	517042	keystroke_p	p	n/a
258.731	0.06	517462	keystroke_t	t	n/a
258.807	0.104	517614	keystroke_o	o	n/a
258.896	0.06	517792	keystroke_p	p	n/a
259.721	0.105	519442	keystroke_Key.space	Key.space	n/a
259.976	0.105	519952	keystroke_s	s	n/a
260.096	0.075	520192	keystroke_h	h	n/a
260.456	0.075	520912	keystroke_e	e	n/a
260.936	0.075	521872	keystroke_'	'	n/a
261.146	0.0605	522292	keystroke_d	d	n/a
261.536	0.09	523072	keystroke_Key.space	Key.space	n/a
262.076	0.075	524152	keystroke_i	i	n/a
262.406	0.09	524812	keystroke_Key.backspace	Key.backspace	n/a
263.096	0.075	526192	keystroke_p	p	n/a
263.366	0.105	526732	keystroke_i	i	n/a
263.441	0.075	526882	keystroke_n	n	n/a
263.666	0.06	527332	keystroke_g	g	n/a
264.041	0.09	528082	keystroke_Key.space	Key.space	n/a
264.4765	0.09	528953	keystroke_m	m	n/a
264.6715	0.09	529343	keystroke_o	o	n/a
264.9115	0.09	529823	keystroke_l	l	n/a
265.1965	0.075	530393	keystroke_e	e	n/a
265.4215	0.105	530843	keystroke_c	c	n/a
265.5115	0.075	531023	keystroke_u	u	n/a
265.722	0.074	531444	keystroke_l	l	n/a
265.811	0.105	531622	keystroke_a	a	n/a
265.871	0.12	531742	keystroke_r	r	n/a
266.066	0.075	532132	keystroke_Key.enter	Key.enter	n/a
266.147	14.366	532294	prompt	n/a	across photograph would've cashiers\n
266.8765	0.12	533753	keystroke_a	a	n/a
267.0865	0.1195	534173	keystroke_c	c	n/a
267.371	0.075	534742	keystroke_r	r	n/a
267.506	0.075	535012	keystroke_o	o	n/a
267.746	0.0755	535492	keystroke_s	s	n/a
267.8965	0.09	535793	keystroke_s	s	n/a
268.1965	0.09	536393	keystroke_Key.space	Key.space	n/a
268.5715	0.09	537143	keystroke_p	p	n/a
268.8415	0.09	537683	keystroke_h	h	n/a
269.456	0.015	538912	keystroke_t	t	n/a
269.546	0.075	539092	keystroke_o	o	n/a
269.8915	0.06	539783	keystroke_Key.backspace	Key.backspace	n/a
270.0115	0.075	540023	keystroke_Key.backspace	Key.backspace	n/a
270.2965	0.075	540593	keystroke_o	o	n/a
270.4465	0.0745	540893	keystroke_t	t	n/a
270.566	0.075	541132	keystroke_o	o	n/a
270.911	0.09	541822	keystroke_g	g	n/a
271.2115	0.09	542423	keystroke_a	a	n/a
272.1415	0.06	544283	keystroke_Key.backspace	Key.backspace	n/a
272.247	0.12	544494	keystroke_r	r	n/a
272.337	0.09	544674	keystroke_a	a	n/a
272.577	0.045	545154	keystroke_p	p	n/a
272.8165	0.06	545633	keystroke_h	h	n/a
273.4315	0.075	546863	keystroke_Key.space	Key.space	n/a
274.1515	0.09	548303	keystroke_w	w	n/a
274.2715	0.1205	548543	keystroke_o	o	n/a
274.346	0.09	548692	keystroke_u	u	n/a
274.541	0.0905	549082	keystroke_l	l	n/a
275.3065	0.075	550613	keystroke_d	d	n/a
275.966	0.09	551932	keystroke_'	'	n/a
276.311	0.09	552622	keystroke_v	v	n/a
276.941	0.061	553882	keystroke_e	e	n/a
277.196	0.09	554392	keystroke_Key.space	Key.space	n/a
277.5415	0.12	555083	keystroke_c	c	n/a
277.6165	0.12	555233	keystroke_a	a	n/a
277.7665	0.105	555533	keystroke_h	h	n/a
277.9465	0.075	555893	keystroke_s	s	n/a
278.0815	0.0895	556163	keystroke_i	i	n/a
278.561	0.075	557122	keystroke_Key.backspace	Key.backspace	n/a
278.696	0.06	557392	keystroke_Key.backspace	Key.backspace	n/a
278.801	0.06	557602	keystroke_Key.backspace	Key.backspace	n/a
279.056	0.09	558112	keystroke_s	s	n/a
279.1615	0.075	558323	keystroke_h	h	n/a
279.3865	0.075	558773	keystroke_i	i	n/a
279.5365	0.105	559073	keystroke_e	e	n/a
279.8815	0.105	559763	keystroke_r	r	n/a
280.151	0.075	560302	keystroke_s	s	n/a
280.421	0.09	560842	keystroke_Key.enter	Key.enter	n/a
280.516	7.302	561032	prompt	n/a	cornwall benchmark strap acre\n
281.3365	0.075	562673	keystroke_c	c	n/a
281.4415	0.06	562883	keystroke_o	o	n/a
281.5315	0.075	563063	keystroke_r	r	n/a
281.6815	0.105	563363	keystroke_n	n	n/a
281.9365	0.09	563873	keystroke_w	w	n/a
282.1315	0.075	564263	keystroke_a	a	n/a
282.416	0.06	564832	keystroke_l	l	n/a
282.536	0.09	565072	keystroke_l	l	n/a
282.8515	0.09	565703	keystroke_Key.space	Key.space	n/a
283.166	0.06	566332	keystroke_b	b	n/a
283.241	0.09	566482	keystroke_e	e	n/a
283.361	0.06	566722	keystroke_n	n	n/a
283.766	0.075	567532	keystroke_c	c	n/a
283.886	0.075	567772	keystroke_h	h	n/a
284.201	0.075	568402	keystroke_m	m	n/a
284.336	0.135	568672	keystroke_a	a	n/a
284.456	0.06	568912	keystroke_r	r	n/a
284.561	0.075	569122	keystroke_k	k	n/a
285.026	0.09	570052	keystroke_Key.space	Key.space	n/a
285.356	0.165	570712	keystroke_s	s	n/a
285.506	0.09	571012	keystroke_t	t	n/a
285.716	0.09	571432	keystroke_r	r	n/a
285.851	0.105	571702	keystroke_a	a	n/a
286.241	0.075	572482	keystroke_p	p	n/a
286.751	0.06	573502	keystroke_Key.space	Key.space	n/a
287.0365	0.1195	574073	keystroke_a	a	n/a
287.246	0.09	574492	keystroke_c	c	n/a
287.441	0.135	574882	keystroke_r	r	n/a
287.531	0.105	575062	keystroke_e	e	n/a
287.756	0.06	575512	keystroke_Key.enter	Key.enter	n/a
287.821	8.682	575642	prompt	n/a	confidence chest jersey colleagues\n
288.596	0.105	577192	keystroke_c	c	n/a
288.671	0.09	577342	keystroke_o	o	n/a
288.791	0.105	577582	keystroke_n	n	n/a
289.016	0.075	578032	keystroke_f	f	n/a
289.076	0.09	578152	keystroke_i	i	n/a
289.301	0.135	578602	keystroke_d	d	n/a
289.391	0.105	578782	keystroke_e	e	n/a
289.511	0.075	579022	keystroke_n	n	n/a
289.6615	0.12	579323	keystroke_c	c	n/a
289.721	0.1205	579442	keystroke_e	e	n/a
290.006	0.0755	580012	keystroke_Key.space	Key.space	n/a
290.261	0.09	580522	keystroke_s	s	n/a
290.366	0.075	580732	keystroke_h	h	n/a
290.681	0.09	581362	keystroke_Key.backspace	Key.backspace	n/a
291.041	0.09	582082	keystroke_Key.backspace	Key.backspace	n/a
291.236	0.12	582472	keystroke_c	c	n/a
291.371	0.075	582742	keystroke_h	h	n/a
291.506	0.09	583012	keystroke_e	e	n/a
291.731	0.1505	583462	keystroke_s	s	n/a
291.8515	0.075	583703	keystroke_t	t	n/a
292.541	0.091	585082	keystroke_Key.space	Key.space	n/a
293.037	0.075	586074	keystroke_j	j	n/a
293.112	0.12	586224	keystroke_e	e	n/a
293.187	0.06	586374	keystroke_r	r	n/a
293.336	0.136	586672	keystroke_s	s	n/a
293.412	0.075	586824	keystroke_e	e	n/a
293.577	0.105	587154	keystroke_y	y	n/a
294.0865	0.075	588173	keystroke_Key.space	Key.space	n/a
294.5065	0.105	589013	keystroke_c	c	n/a
294.5965	0.075	589193	keystroke_o	o	n/a
294.7915	0.075	589583	keystroke_l	l	n/a
294.9265	0.075	589853	keystroke_l	l	n/a
295.301	0.09	590602	keystroke_e	e	n/a
295.616	0.09	591232	keystroke_a	a	n/a
295.8565	0.09	591713	keystroke_g	g	n/a
295.9765	0.0745	591953	keystroke_u	u	n/a
296.081	0.075	592162	keystroke_e	e	n/a
296.276	0.09	592552	keystroke_s	s	n/a
296.4115	0.09	592823	keystroke_Key.enter	Key.enter	n/a
296.506	8.5765	593012	prompt	n/a	owns exotic destination bryant\n
297.3715	0.075	594743	keystroke_o	o	n/a
297.491	0.09	594982	keystroke_w	w	n/a
297.6265	0.0745	595253	keystroke_n	n	n/a
297.9115	0.09	595823	keystroke_s	s	n/a
298.1065	0.09	596213	keystroke_Key.space	Key.space	n/a
298.5115	0.09	597023	keystroke_e	e	n/a
298.7365	0.105	597473	keystroke_x	x	n/a
298.8865	0.075	597773	keystroke_o	o	n/a
299.201	0.061	598402	keystroke_i	i	n/a
299.561	0.075	599122	keystroke_Key.backspace	Key.backspace	n/a
299.681	0.09	599362	keystroke_t	t	n/a
299.831	0.0755	599662	keystroke_i	i	n/a
299.9665	0.09	599933	keystroke_c	c	n/a
300.4015	0.09	600803	keystroke_Key.space	Key.space	n/a
300.6865	0.18	601373	keystroke_d	d	n/a
300.8065	0.105	601613	keystroke_e	e	n/a
301.0165	0.105	602033	keystroke_s	s	n/a
301.3015	0.075	602603	keystroke_t	t	n/a
301.4215	0.03	602843	keystroke_u	u	n/a
302.0515	0.09	604103	keystroke_Key.backspace	Key.backspace	n/a
302.321	0.06	604642	keystroke_i	i	n/a
302.6965	0.075	605393	keystroke_n	n	n/a
302.7715	0.12	605543	keystroke_a	a	n/a
302.8615	0.105	605723	keystroke_t	t	n/a
302.9665	0.09	605933	keystroke_i	i	n/a
303.0265	0.075	606053	keystroke_o	o	n/a
303.1915	0.0895	606383	keystroke_n	n	n/a
303.626	0.075	607252	keystroke_Key.space	Key.space	n/a
304.046	0.09	608092	keystroke_b	b	n/a
304.151	0.075	608302	keystroke_r	r	n/a
304.301	0.09	608602	keystroke_y	y	n/a
304.541	0.0755	609082	keystroke_a	a	n/a
304.7065	0.06	609413	keystroke_n	n	n/a
304.8265	0.075	609653	keystroke_t	t	n/a
305.0065	0.075	610013	keystroke_Key.enter	Key.enter	n/a
305.086	8.7415	610172	prompt	n/a	community trials morrison ones\n
305.816	0.09	611632	keystroke_c	c	n/a
305.891	0.0605	611782	keystroke_o	o	n/a
306.0865	0.045	612173	keystroke_m	m	n/a
306.1915	0.075	612383	keystroke_m	m	n/a
306.4765	0.045	612953	keystroke_u	u	n/a
306.6865	0.15	613373	keystroke_n	n	n/a
306.8065	0.075	613613	keystroke_i	i	n/a
307.7065	0.075	615413	keystroke_t	t	n/a
307.9015	0.075	615803	keystroke_y	y	n/a
308.321	0.09	616642	keystroke_Key.space	Key.space	n/a
308.666	0.105	617332	keystroke_t	t	n/a
308.8165	0.075	617633	keystroke_i	i	n/a
308.8765	0.135	617753	keystroke_r	r	n/a
309.1315	0.09	618263	keystroke_a	a	n/a
309.2965	0.105	618593	keystroke_l	l	n/a
309.4915	0.045	618983	keystroke_s	s	n/a
309.7015	0.06	619403	keystroke_Key.backspace	Key.backspace	n/a
309.8065	0.06	619613	keystroke_Key.backspace	Key.backspace	n/a
309.9115	0.06	619823	keystroke_Key.backspace	Key.backspace	n/a
310.031	0.075	620062	keystroke_Key.backspace	Key.backspace	n/a
310.136	0.09	620272	keystroke_Key.backspace	Key.backspace	n/a
310.286	0.09	620572	keystroke_r	r	n/a
310.4515	0.06	620903	keystroke_i	i	n/a
310.7515	0.075	621503	keystroke_a	a	n/a
310.9315	0.06	621863	keystroke_l	l	n/a
311.0515	0.075	622103	keystroke_s	s	n/a
311.322	0.09	622644	keystroke_Key.space	Key.space	n/a
311.667	0.09	623334	keystroke_m	m	n/a
311.787	0.09	623574	keystroke_o	o	n/a
311.967	0.045	623934	keystroke_r	r	n/a
312.087	0.09	624174	keystroke_r	r	n/a
312.177	0.06	624354	keystroke_i	i	n/a
312.387	0.0745	624774	keystroke_s	s	n/a
312.4765	0.1205	624953	keystroke_o	o	n/a
312.5515	0.075	625103	keystroke_n	n	n/a
312.897	0.0745	625794	keystroke_Key.space	Key.space	n/a
313.151	0.09	626302	keystroke_o	o	n/a
313.271	0.09	626542	keystroke_n	n	n/a
313.391	0.091	626782	keystroke_e	e	n/a
313.586	0.091	627172	keystroke_s	s	n/a
313.737	0.089	627474	keystroke_Key.enter	Key.enter	n/a
313.8305	7.6775	627661	prompt	n/a	endorsement thesis magical prices\n
314.6515	0.105	629303	keystroke_e	e	n/a
314.8165	0.075	629633	keystroke_n	n	n/a
314.9515	0.105	629903	keystroke_d	d	n/a
315.1015	0.0595	630203	keystroke_o	o	n/a
315.1765	0.09	630353	keystroke_r	r	n/a
315.4165	0.1195	630833	keystroke_s	s	n/a
315.4765	0.0895	630953	keystroke_e	e	n/a
315.641	0.105	631282	keystroke_m	m	n/a
315.791	0.09	631582	keystroke_e	e	n/a
315.971	0.06	631942	keystroke_n	n	n/a
316.077	0.074	632154	keystroke_t	t	n/a
316.511	0.09	633022	keystroke_Key.space	Key.space	n/a
316.8565	0.09	633713	keystroke_t	t	n/a
316.9615	0.075	633923	keystroke_h	h	n/a
317.0515	0.09	634103	keystroke_e	e	n/a
317.3215	0.09	634643	keystroke_s	s	n/a
317.4715	0.075	634943	keystroke_i	i	n/a
317.6065	0.075	635213	keystroke_s	s	n/a
318.1315	0.09	636263	keystroke_Key.space	Key.space	n/a
318.4915	0.075	636983	keystroke_m	m	n/a
318.6265	0.075	637253	keystroke_a	a	n/a
318.8365	0.09	637673	keystroke_g	g	n/a
318.9415	0.06	637883	keystroke_i	i	n/a
319.1065	0.0595	638213	keystroke_a	a	n/a
319.6015	0.105	639203	keystroke_Key.backspace	Key.backspace	n/a
319.7365	0.1045	639473	keystroke_c	c	n/a
319.781	0.1055	639562	keystroke_a	a	n/a
319.9465	0.075	639893	keystroke_l	l	n/a
320.2315	0.09	640463	keystroke_Key.space	Key.space	n/a
320.5465	0.075	641093	keystroke_p	p	n/a
320.6515	0.09	641303	keystroke_r	r	n/a
320.7565	0.075	641513	keystroke_i	i	n/a
320.9515	0.15	641903	keystroke_c	c	n/a
321.0565	0.09	642113	keystroke_e	e	n/a
321.2665	0.075	642533	keystroke_s	s	n/a
321.4465	0.06	642893	keystroke_Key.enter	Key.enter	n/a
321.5105	12.042	643021	prompt	n/a	kilometers altered disability worried\n
322.436	0.06	644872	keystroke_j	j	n/a
322.796	0.075	645592	keystroke_Key.backspace	Key.backspace	n/a
323.096	0.06	646192	keystroke_k	k	n/a
323.2165	0.09	646433	keystroke_i	i	n/a
323.4265	0.06	646853	keystroke_l	l	n/a
323.5615	0.075	647123	keystroke_o	o	n/a
323.8015	0.075	647603	keystroke_m	m	n/a
323.9365	0.12	647873	keystroke_e	e	n/a
324.0865	0.105	648173	keystroke_t	t	n/a
324.2515	0.135	648503	keystroke_e	e	n/a
324.3415	0.075	648683	keystroke_r	r	n/a
324.8365	0.075	649673	keystroke_s	s	n/a
325.0465	0.075	650093	keystroke_Key.space	Key.space	n/a
325.451	0.135	650902	keystroke_a	a	n/a
325.556	0.045	651112	keystroke_l	l	n/a
325.691	0.1205	651382	keystroke_t	t	n/a
325.7815	0.21	651563	keystroke_e	e	n/a
325.9465	0.12	651893	keystroke_r	r	n/a
326.0815	0.03	652163	keystroke_r	r	n/a
326.0965	0.105	652193	keystroke_e	e	n/a
326.6515	0.09	653303	keystroke_Key.backspace	Key.backspace	n/a
326.8915	0.12	653783	keystroke_e	e	n/a
327.2215	0.045	654443	keystroke_Key.backspace	Key.backspace	n/a
327.3405	0.06	654681	keystroke_Key.backspace	Key.backspace	n/a
327.4605	0.076	654921	keystroke_e	e	n/a
327.6555	0.09	655311	keystroke_d	d	n/a
327.8365	0.09	655673	keystroke_Key.space	Key.space	n/a
328.316	0.1205	656632	keystroke_d	d	n/a
328.4515	0.075	656903	keystroke_i	i	n/a
328.616	0.09	657232	keystroke_s	s	n/a
328.8265	0.075	657653	keystroke_a	a	n/a
328.9915	0.075	657983	keystroke_b	b	n/a
329.696	0.075	659392	keystroke_i	i	n/a
329.9365	0.09	659873	keystroke_l	l	n/a
329.9965	0.09	659993	keystroke_i	i	n/a
330.2065	0.045	660413	keystroke_t	t	n/a
330.3115	0.075	660623	keystroke_y	y	n/a
330.8065	0.075	661613	keystroke_Key.space	Key.space	n/a
331.106	0.0905	662212	keystroke_w	w	n/a
331.2415	0.075	662483	keystroke_o	o	n/a
331.2565	0.045	662513	keystroke_i	i	n/a
331.3615	0.075	662723	keystroke_r	r	n/a
331.5265	0.075	663053	keystroke_r	r	n/a
332.201	0.06	664402	keystroke_Key.backspace	Key.backspace	n/a
332.321	0.075	664642	keystroke_Key.backspace	Key.backspace	n/a
332.441	0.075	664882	keystroke_Key.backspace	Key.backspace	n/a
332.6215	0.075	665243	keystroke_r	r	n/a
332.7865	0.075	665573	keystroke_r	r	n/a
332.9515	0.075	665903	keystroke_i	i	n/a
333.0565	0.06	666113	keystroke_e	e	n/a
333.281	0.09	666562	keystroke_d	d	n/a
333.461	0.09	666922	keystroke_Key.enter	Key.enter	n/a
333.555	9.538	667110	prompt	n/a	peaceful recreational provide yours\n
334.286	0.045	668572	keystroke_p	p	n/a
334.391	0.12	668782	keystroke_e	e	n/a
334.526	0.15	669052	keystroke_a	a	n/a
334.692	0.104	669384	keystroke_c	c	n/a
334.9165	0.075	669833	keystroke_f	f	n/a
335.0365	0.06	670073	keystroke_u	u	n/a
335.2465	0.075	670493	keystroke_l	l	n/a
335.6365	0.0445	671273	keystroke_Key.backspace	Key.backspace	n/a
335.726	0.045	671452	keystroke_Key.backspace	Key.backspace	n/a
335.831	0.06	671662	keystroke_Key.backspace	Key.backspace	n/a
335.981	0.075	671962	keystroke_e	e	n/a
336.296	0.09	672592	keystroke_f	f	n/a
336.431	0.0755	672862	keystroke_u	u	n/a
336.6415	0.075	673283	keystroke_l	l	n/a
337.0465	0.09	674093	keystroke_Key.space	Key.space	n/a
337.3765	0.12	674753	keystroke_r	r	n/a
337.4515	0.09	674903	keystroke_e	e	n/a
337.6765	0.045	675353	keystroke_c	c	n/a
337.8415	0.09	675683	keystroke_r	r	n/a
337.9015	0.045	675803	keystroke_e	e	n/a
338.0365	0.12	676073	keystroke_a	a	n/a
338.1115	0.0895	676223	keystroke_t	t	n/a
338.276	0.12	676552	keystroke_i	i	n/a
338.351	0.09	676702	keystroke_o	o	n/a
338.501	0.09	677002	keystroke_n	n	n/a
338.636	0.0905	677272	keystroke_a	a	n/a
338.7865	0.06	677573	keystroke_l	l	n/a
339.1015	0.0745	678203	keystroke_Key.space	Key.space	n/a
339.371	0.03	678742	keystroke_p	p	n/a
339.476	0.09	678952	keystroke_r	r	n/a
339.536	0.075	679072	keystroke_o	o	n/a
339.911	0.06	679822	keystroke_v	v	n/a
340.001	0.0755	680002	keystroke_i	i	n/a
340.4965	0.165	680993	keystroke_d	d	n/a
340.6465	0.06	681293	keystroke_e	e	n/a
340.9015	0.075	681803	keystroke_Key.space	Key.space	n/a
341.396	0.0905	682792	keystroke_t	t	n/a
341.5015	0.075	683003	keystroke_o	o	n/a
341.8005	0.076	683601	keystroke_Key.backspace	Key.backspace	n/a
341.9515	0.06	683903	keystroke_Key.backspace	Key.backspace	n/a
342.2515	0.075	684503	keystroke_y	y	n/a
342.4015	0.135	684803	keystroke_o	o	n/a
342.4615	0.09	684923	keystroke_u	u	n/a
342.6415	0.09	685283	keystroke_r	r	n/a
342.8815	0.075	685763	keystroke_s	s	n/a
343.0015	0.09	686003	keystroke_Key.enter	Key.enter	n/a
343.096	7.137	686192	prompt	n/a	fortune alias alternatively whom\n
344.051	0.0755	688102	keystroke_f	f	n/a
344.1115	0.075	688223	keystroke_o	o	n/a
344.2165	0.075	688433	keystroke_r	r	n/a
344.3965	0.09	688793	keystroke_t	t	n/a
344.5015	0.06	689003	keystroke_u	u	n/a
344.6815	0.06	689363	keystroke_n	n	n/a
344.8015	0.075	689603	keystroke_e	e	n/a
345.0865	0.0745	690173	keystroke_Key.space	Key.space	n/a
345.281	0.075	690562	keystroke_a	a	n/a
345.416	0.061	690832	keystroke_l	l	n/a
345.596	0.075	691192	keystroke_i	i	n/a
345.717	0.09	691434	keystroke_a	a	n/a
345.912	0.074	691824	keystroke_s	s	n/a
346.331	0.09	692662	keystroke_Key.space	Key.space	n/a
346.796	0.09	693592	keystroke_a	a	n/a
346.916	0.09	693832	keystroke_l	l	n/a
347.066	0.12	694132	keystroke_t	t	n/a
347.156	0.18	694312	keystroke_e	e	n/a
347.291	0.105	694582	keystroke_r	r	n/a
347.456	0.09	694912	keystroke_n	n	n/a
347.561	0.12	695122	keystroke_a	a	n/a
347.636	0.1055	695272	keystroke_t	t	n/a
347.7855	0.076	695571	keystroke_i	i	n/a
348.1165	0.1195	696233	keystroke_v	v	n/a
348.221	0.105	696442	keystroke_e	e	n/a
348.401	0.075	696802	keystroke_l	l	n/a
348.656	0.06	697312	keystroke_y	y	n/a
348.971	0.075	697942	keystroke_Key.space	Key.space	n/a
349.3465	0.12	698693	keystroke_w	w	n/a
349.571	0.075	699142	keystroke_h	h	n/a
349.751	0.135	699502	keystroke_o	o	n/a
349.856	0.0755	699712	keystroke_m	m	n/a
350.1565	0.075	700313	keystroke_Key.enter	Key.enter	n/a
350.2355	11.022	700471	prompt	n/a	spatial satellite liberia charms\n
351.1315	0.045	702263	keystroke_w	w	n/a
351.536	0.09	703072	keystroke_Key.backspace	Key.backspace	n/a
351.7465	0.09	703493	keystroke_s	s	n/a
351.8815	0.06	703763	keystroke_p	p	n/a
351.9715	0.075	703943	keystroke_a	a	n/a
352.331	0.075	704662	keystroke_t	t	n/a
352.436	0.075	704872	keystroke_i	i	n/a
352.5565	0.0745	705113	keystroke_a	a	n/a
352.856	0.075	705712	keystroke_l	l	n/a
353.8015	0.075	707603	keystroke_Key.space	Key.space	n/a
354.0565	0.12	708113	keystroke_a	a	n/a
354.5815	0.015	709163	keystroke_Key.backspace	Key.backspace	n/a
354.6115	0.09	709223	keystroke_s	s	n/a
354.7465	0.15	709493	keystroke_a	a	n/a
354.8515	0.105	709703	keystroke_t	t	n/a
355.0615	0.075	710123	keystroke_e	e	n/a
355.1965	0.105	710393	keystroke_l	l	n/a
355.4365	0.09	710873	keystroke_k	k	n/a
355.4515	0.06	710903	keystroke_l	l	n/a
355.6765	0.075	711353	keystroke_i	i	n/a
355.841	0.03	711682	keystroke_t	t	n/a
356.051	0.045	712102	keystroke_Key.backspace	Key.backspace	n/a
356.156	0.045	712312	keystroke_Key.backspace	Key.backspace	n/a
356.261	0.06	712522	keystroke_Key.backspace	Key.backspace	n/a
356.6365	0.09	713273	keystroke_Key.backspace	Key.backspace	n/a
357.1165	0.0595	714233	keystroke_l	l	n/a
357.296	0.075	714592	keystroke_i	i	n/a
357.401	0.1505	714802	keystroke_t	t	n/a
357.491	0.1205	714982	keystroke_e	e	n/a
357.986	0.075	715972	keystroke_Key.space	Key.space	n/a
358.286	0.06	716572	keystroke_l	l	n/a
358.466	0.06	716932	keystroke_i	i	n/a
358.481	0.015	716962	keystroke_l	l	n/a
358.691	0.09	717382	keystroke_b	b	n/a
358.811	0.105	717622	keystroke_e	e	n/a
359.066	0.0905	718132	keystroke_r	r	n/a
359.2165	0.06	718433	keystroke_i	i	n/a
359.3515	0.09	718703	keystroke_a	a	n/a
359.8615	0.075	719723	keystroke_Key.space	Key.space	n/a
360.2965	0.03	720593	keystroke_c	c	n/a
360.3115	0.06	720623	keystroke_h	h	n/a
360.3865	0.135	720773	keystroke_a	a	n/a
360.5515	0.03	721103	keystroke_r	r	n/a
360.6865	0.06	721373	keystroke_m	m	n/a
361.016	0.075	722032	keystroke_s	s	n/a
361.196	0.06	722392	keystroke_Key.enter	Key.enter	n/a
361.262	7.361	722524	prompt	n/a	lancaster perform server command\n
362.1115	0.06	724223	keystroke_l	l	n/a
362.1565	0.09	724313	keystroke_a	a	n/a
362.3215	0.075	724643	keystroke_n	n	n/a
362.5765	0.09	725153	keystroke_d	d	n/a
362.6675	0.074	725335	keystroke_a	a	n/a
363.1615	0.045	726323	keystroke_Key.backspace	Key.backspace	n/a
363.2665	0.075	726533	keystroke_Key.backspace	Key.backspace	n/a
363.6415	0.09	727283	keystroke_c	c	n/a
363.7015	0.195	727403	keystroke_a	a	n/a
363.8215	0.15	727643	keystroke_s	s	n/a
363.9265	0.12	727853	keystroke_t	t	n/a
364.0915	0.105	728183	keystroke_e	e	n/a
364.1665	0.075	728333	keystroke_r	r	n/a
364.7215	0.075	729443	keystroke_Key.space	Key.space	n/a
365.0215	0.06	730043	keystroke_p	p	n/a
365.0965	0.1345	730193	keystroke_e	e	n/a
365.171	0.075	730342	keystroke_r	r	n/a
365.351	0.09	730702	keystroke_f	f	n/a
365.426	0.075	730852	keystroke_o	o	n/a
365.561	0.06	731122	keystroke_r	r	n/a
365.6815	0.075	731363	keystroke_m	m	n/a
366.296	0.12	732592	keystroke_Key.space	Key.space	n/a
366.611	0.105	733222	keystroke_s	s	n/a
366.671	0.075	733342	keystroke_e	e	n/a
366.806	0.105	733612	keystroke_r	r	n/a
367.0315	0.075	734063	keystroke_v	v	n/a
367.1215	0.15	734243	keystroke_e	e	n/a
367.2265	0.09	734453	keystroke_r	r	n/a
367.4215	0.075	734843	keystroke_Key.space	Key.space	n/a
367.6615	0.09	735323	keystroke_c	c	n/a
367.7215	0.0595	735443	keystroke_o	o	n/a
367.901	0.06	735802	keystroke_m	m	n/a
368.0365	0.075	736073	keystroke_m	m	n/a
368.1415	0.09	736283	keystroke_a	a	n/a
368.2465	0.075	736493	keystroke_n	n	n/a
368.396	0.075	736792	keystroke_d	d	n/a
368.546	0.0755	737092	keystroke_Key.enter	Key.enter	n/a
368.627	9.011	737254	prompt	n/a	individuals sustained communicate expired\n
369.461	0.09	738922	keystroke_i	i	n/a
369.506	0.075	739012	keystroke_n	n	n/a
369.776	0.076	739552	keystroke_d	d	n/a
369.866	0.075	739732	keystroke_i	i	n/a
370.0615	0.06	740123	keystroke_v	v	n/a
370.1365	0.075	740273	keystroke_i	i	n/a
370.3915	0.075	740783	keystroke_d	d	n/a
370.5115	0.06	741023	keystroke_u	u	n/a
370.6315	0.06	741263	keystroke_a	a	n/a
370.7515	0.06	741503	keystroke_l	l	n/a
370.9315	0.09	741863	keystroke_s	s	n/a
371.0815	0.09	742163	keystroke_Key.space	Key.space	n/a
371.3365	0.09	742673	keystroke_s	s	n/a
371.4415	0.06	742883	keystroke_u	u	n/a
371.5465	0.12	743093	keystroke_s	s	n/a
371.7115	0.135	743423	keystroke_t	t	n/a
371.8165	0.105	743633	keystroke_a	a	n/a
371.9815	0.09	743963	keystroke_i	i	n/a
372.0265	0.075	744053	keystroke_n	n	n/a
372.3115	0.09	744623	keystroke_e	e	n/a
372.506	0.09	745012	keystroke_d	d	n/a
372.851	0.075	745702	keystroke_Key.space	Key.space	n/a
373.1205	0.0905	746241	keystroke_c	c	n/a
373.196	0.045	746392	keystroke_o	o	n/a
373.391	0.015	746782	keystroke_m	m	n/a
373.916	0.075	747832	keystroke_m	m	n/a
374.816	0.076	749632	keystroke_u	u	n/a
375.011	0.12	750022	keystroke_n	n	n/a
375.086	0.0905	750172	keystroke_i	i	n/a
375.2515	0.105	750503	keystroke_c	c	n/a
375.3265	0.12	750653	keystroke_a	a	n/a
375.461	0.135	750922	keystroke_t	t	n/a
375.581	0.105	751162	keystroke_e	e	n/a
376.046	0.105	752092	keystroke_Key.space	Key.space	n/a
376.256	0.075	752512	keystroke_e	e	n/a
376.466	0.09	752932	keystroke_x	x	n/a
376.6315	0.03	753263	keystroke_p	p	n/a
376.8415	0.075	753683	keystroke_i	i	n/a
377.0965	0.135	754193	keystroke_r	r	n/a
377.1715	0.12	754343	keystroke_e	e	n/a
377.3965	0.075	754793	keystroke_d	d	n/a
377.5615	0.075	755123	keystroke_Key.enter	Key.enter	n/a
377.6405	8.8325	755281	prompt	n/a	beautifully why're classical amazon\n
378.5965	0.09	757193	keystroke_b	b	n/a
378.7015	0.105	757403	keystroke_e	e	n/a
378.7765	0.165	757553	keystroke_a	a	n/a
379.211	0.075	758422	keystroke_u	u	n/a
379.377	0.044	758754	keystroke_t	t	n/a
379.6315	0.06	759263	keystroke_i	i	n/a
379.916	0.075	759832	keystroke_f	f	n/a
380.0215	0.075	760043	keystroke_u	u	n/a
380.3215	0.105	760643	keystroke_l	l	n/a
380.7715	0.075	761543	keystroke_Key.space	Key.space	n/a
381.0715	0.075	762143	keystroke_w	w	n/a
381.1615	0.06	762323	keystroke_h	h	n/a
381.3115	0.06	762623	keystroke_y	y	n/a
381.971	0.09	763942	keystroke_'	'	n/a
382.166	0.105	764332	keystroke_r	r	n/a
382.241	0.09	764482	keystroke_e	e	n/a
382.571	0.09	765142	keystroke_Key.space	Key.space	n/a
382.856	0.15	765712	keystroke_c	c	n/a
383.096	0.075	766192	keystroke_l	l	n/a
383.246	0.09	766492	keystroke_a	a	n/a
383.471	0.075	766942	keystroke_s	s	n/a
383.621	0.0755	767242	keystroke_s	s	n/a
383.726	0.0755	767452	keystroke_i	i	n/a
383.8465	0.135	767693	keystroke_c	c	n/a
383.9215	0.09	767843	keystroke_a	a	n/a
384.1015	0.045	768203	keystroke_l	l	n/a
384.4315	0.09	768863	keystroke_Key.space	Key.space	n/a
384.6865	0.075	769373	keystroke_a	a	n/a
384.8365	0.075	769673	keystroke_m	m	n/a
385.0165	0.045	770033	keystroke_a	a	n/a
385.916	0.075	771832	keystroke_z	z	n/a
386.066	0.105	772132	keystroke_o	o	n/a
386.141	0.06	772282	keystroke_n	n	n/a
386.411	0.06	772822	keystroke_Key.enter	Key.enter	n/a
386.4755	7.917	772951	prompt	n/a	neon congressional presenting private\n
387.2965	0.075	774593	keystroke_n	n	n/a
387.4315	0.12	774863	keystroke_e	e	n/a
387.731	0.1205	775462	keystroke_o	o	n/a
387.8065	0.075	775613	keystroke_n	n	n/a
388.1665	0.075	776333	keystroke_Key.space	Key.space	n/a
388.4365	0.105	776873	keystroke_c	c	n/a
388.5865	0.135	777173	keystroke_o	o	n/a
388.6765	0.075	777353	keystroke_n	n	n/a
388.7965	0.09	777593	keystroke_g	g	n/a
388.9765	0.135	777953	keystroke_r	r	n/a
389.0515	0.09	778103	keystroke_e	e	n/a
389.2465	0.075	778493	keystroke_s	s	n/a
389.4265	0.045	778853	keystroke_s	s	n/a
389.4865	0.135	778973	keystroke_o	o	n/a
389.696	0.09	779392	keystroke_n	n	n/a
389.9965	0.06	779993	keystroke_Key.backspace	Key.backspace	n/a
390.1015	0.075	780203	keystroke_Key.backspace	Key.backspace	n/a
390.3265	0.105	780653	keystroke_i	i	n/a
390.3865	0.075	780773	keystroke_o	o	n/a
390.5365	0.06	781073	keystroke_n	n	n/a
390.6415	0.09	781283	keystroke_a	a	n/a
390.7765	0.075	781553	keystroke_l	l	n/a
391.4055	0.075	782811	keystroke_Key.space	Key.space	n/a
391.6605	0.076	783321	keystroke_p	p	n/a
391.7505	0.105	783501	keystroke_r	r	n/a
391.8255	0.076	783651	keystroke_e	e	n/a
391.9905	0.121	783981	keystroke_s	s	n/a
392.0655	0.075	784131	keystroke_e	e	n/a
392.171	0.06	784342	keystroke_n	n	n/a
392.306	0.105	784612	keystroke_t	t	n/a
392.426	0.105	784852	keystroke_i	i	n/a
392.486	0.06	784972	keystroke_n	n	n/a
392.606	0.09	785212	keystroke_g	g	n/a
392.996	0.0905	785992	keystroke_Key.space	Key.space	n/a
393.2965	0.06	786593	keystroke_p	p	n/a
393.3865	0.09	786773	keystroke_r	r	n/a
393.4915	0.09	786983	keystroke_i	i	n/a
393.7615	0.075	787523	keystroke_v	v	n/a
393.8515	0.105	787703	keystroke_a	a	n/a
393.9715	0.15	787943	keystroke_t	t	n/a
394.0765	0.09	788153	keystroke_e	e	n/a
394.3165	0.075	788633	keystroke_Key.enter	Key.enter	n/a
394.396	6.3865	788792	prompt	n/a	alert ancient keeps forwarding\n
395.0665	0.0745	790133	keystroke_a	a	n/a
395.186	0.0905	790372	keystroke_l	l	n/a
395.2915	0.1795	790583	keystroke_e	e	n/a
395.396	0.105	790792	keystroke_r	r	n/a
395.666	0.105	791332	keystroke_t	t	n/a
396.1455	0.075	792291	keystroke_Key.space	Key.space	n/a
396.4755	0.075	792951	keystroke_a	a	n/a
396.5805	0.075	793161	keystroke_n	n	n/a
396.9555	0.09	793911	keystroke_c	c	n/a
397.0755	0.03	794151	keystroke_i	i	n/a
397.2705	0.09	794541	keystroke_e	e	n/a
397.4055	0.075	794811	keystroke_n	n	n/a
397.4955	0.045	794991	keystroke_t	t	n/a
397.8405	0.075	795681	keystroke_Key.space	Key.space	n/a
398.3055	0.075	796611	keystroke_k	k	n/a
398.4405	0.075	796881	keystroke_e	e	n/a
398.5755	0.0755	797151	keystroke_e	e	n/a
398.681	0.075	797362	keystroke_p	p	n/a
398.8305	0.0755	797661	keystroke_s	s	n/a
399.056	0.09	798112	keystroke_Key.space	Key.space	n/a
399.491	0.06	798982	keystroke_f	f	n/a
399.566	0.075	799132	keystroke_o	o	n/a
399.6555	0.105	799311	keystroke_r	r	n/a
399.8205	0.135	799641	keystroke_w	w	n/a
399.9855	0.1655	799971	keystroke_a	a	n/a
400.0455	0.1205	800091	keystroke_r	r	n/a
400.256	0.09	800512	keystroke_d	d	n/a
400.361	0.106	800722	keystroke_i	i	n/a
400.421	0.06	800842	keystroke_n	n	n/a
400.541	0.075	801082	keystroke_g	g	n/a
400.721	0.06	801442	keystroke_Key.enter	Key.enter	n/a
400.786	12.297	801572	prompt	n/a	textbook suzuki afford dependence\n
401.6215	0.15	803243	keystroke_t	t	n/a
401.7115	0.105	803423	keystroke_e	e	n/a
402.2065	0.165	804413	keystroke_x	x	n/a
402.3565	0.09	804713	keystroke_t	t	n/a
403.106	0.075	806212	keystroke_b	b	n/a
403.316	0.06	806632	keystroke_o	o	n/a
403.436	0.1505	806872	keystroke_o	o	n/a
403.5565	0.09	807113	keystroke_k	k	n/a
403.9465	0.075	807893	keystroke_Key.space	Key.space	n/a
404.186	0.075	808372	keystroke_s	s	n/a
404.306	0.09	808612	keystroke_u	u	n/a
404.9515	0.075	809903	keystroke_z	z	n/a
405.0405	0.046	810081	keystroke_i	i	n/a
405.2215	0.075	810443	keystroke_k	k	n/a
405.581	0.075	811162	keystroke_u	u	n/a
406.436	0.075	812872	keystroke_Key.backspace	Key.backspace	n/a
406.571	0.045	813142	keystroke_Key.backspace	Key.backspace	n/a
406.661	0.075	813322	keystroke_Key.backspace	Key.backspace	n/a
407.456	0.075	814912	keystroke_u	u	n/a
407.726	0.06	815452	keystroke_k	k	n/a
407.876	0.075	815752	keystroke_i	i	n/a
408.491	0.075	816982	keystroke_Key.space	Key.space	n/a
408.7165	0.135	817433	keystroke_a	a	n/a
408.9865	0.06	817973	keystroke_f	f	n/a
409.1365	0.09	818273	keystroke_f	f	n/a
409.2715	0.075	818543	keystroke_o	o	n/a
409.3615	0.06	818723	keystroke_r	r	n/a
409.541	0.075	819082	keystroke_d	d	n/a
409.766	0.075	819532	keystroke_Key.space	Key.space	n/a
410.156	0.135	820312	keystroke_d	d	n/a
410.261	0.09	820522	keystroke_e	e	n/a
410.366	0.075	820732	keystroke_p	p	n/a
410.456	0.09	820912	keystroke_e	e	n/a
411.536	0.075	823072	keystroke_n	n	n/a
411.9855	0.135	823971	keystroke_d	d	n/a
412.1065	0.104	824213	keystroke_e	e	n/a
412.271	0.09	824542	keystroke_n	n	n/a
412.406	0.105	824812	keystroke_c	c	n/a
412.451	0.075	824902	keystroke_e	e	n/a
413.0065	0.075	826013	keystroke_Key.enter	Key.enter	n/a
413.0865	11.651	826173	prompt	n/a	tours occasion recruitment settle\n
413.9355	0.09	827871	keystroke_t	t	n/a
414.0115	0.12	828023	keystroke_o	o	n/a
414.0715	0.075	828143	keystroke_u	u	n/a
414.1465	0.12	828293	keystroke_r	r	n/a
414.4165	0.075	828833	keystroke_s	s	n/a
414.6715	0.074	829343	keystroke_Key.space	Key.space	n/a
414.9865	0.029	829973	keystroke_o	o	n/a
415.1215	0.06	830243	keystroke_o	o	n/a
415.3915	0.06	830783	keystroke_Key.backspace	Key.backspace	n/a
415.496	0.0905	830992	keystroke_Key.backspace	Key.backspace	n/a
415.721	0.0605	831442	keystroke_c	c	n/a
415.9165	0.06	831833	keystroke_o	o	n/a
416.0515	0.06	832103	keystroke_o	o	n/a
416.3665	0.059	832733	keystroke_Key.backspace	Key.backspace	n/a
416.486	0.06	832972	keystroke_Key.backspace	Key.backspace	n/a
416.591	0.075	833182	keystroke_Key.backspace	Key.backspace	n/a
416.891	0.06	833782	keystroke_o	o	n/a
417.026	0.105	834052	keystroke_c	c	n/a
417.206	0.105	834412	keystroke_c	c	n/a
417.431	0.135	834862	keystroke_a	a	n/a
417.626	0.075	835252	keystroke_t	t	n/a
417.716	0.12	835432	keystroke_i	i	n/a
417.761	0.09	835522	keystroke_o	o	n/a
417.9265	0.089	835853	keystroke_n	n	n/a
418.4505	0.06	836901	keystroke_Key.backspace	Key.backspace	n/a
418.5705	0.075	837141	keystroke_Key.backspace	Key.backspace	n/a
418.7055	0.06	837411	keystroke_Key.backspace	Key.backspace	n/a
418.8265	0.074	837653	keystroke_Key.backspace	Key.backspace	n/a
419.5615	0.045	839123	keystroke_s	s	n/a
419.6215	0.075	839243	keystroke_i	i	n/a
419.6505	0.076	839301	keystroke_o	o	n/a
419.8615	0.0595	839723	keystroke_n	n	n/a
419.981	0.045	839962	keystroke_s	s	n/a
420.4605	0.075	840921	keystroke_Key.backspace	Key.backspace	n/a
420.8055	0.06	841611	keystroke_Key.space	Key.space	n/a
421.0305	0.105	842061	keystroke_r	r	n/a
421.0905	0.0755	842181	keystroke_e	e	n/a
421.316	0.09	842632	keystroke_c	c	n/a
421.766	0.06	843532	keystroke_r	r	n/a
421.976	0.105	843952	keystroke_u	u	n/a
422.036	0.09	844072	keystroke_i	i	n/a
422.141	0.075	844282	keystroke_t	t	n/a
422.441	0.075	844882	keystroke_m	m	n/a
422.531	0.045	845062	keystroke_e	e	n/a
422.651	0.06	845302	keystroke_n	n	n/a
422.696	0.03	845392	keystroke_t	t	n/a
423.446	0.09	846892	keystroke_Key.space	Key.space	n/a
423.791	0.12	847582	keystroke_s	s	n/a
423.896	0.06	847792	keystroke_e	e	n/a
424.121	0.075	848242	keystroke_t	t	n/a
424.286	0.06	848572	keystroke_t	t	n/a
424.406	0.06	848812	keystroke_l	l	n/a
424.5415	0.06	849083	keystroke_e	e	n/a
424.6765	0.06	849353	keystroke_Key.enter	Key.enter	n/a
424.74	8.1425	849480	prompt	n/a	portuguese narrative stroke layout\n
425.5615	0.045	851123	keystroke_p	p	n/a
425.6665	0.06	851333	keystroke_r	r	n/a
425.7715	0.075	851543	keystroke_o	o	n/a
425.9965	0.075	851993	keystroke_t	t	n/a
426.1015	0.075	852203	keystroke_u	u	n/a
426.3115	0.105	852623	keystroke_g	g	n/a
427.1815	0.09	854363	keystroke_u	u	n/a
427.3465	0.09	854693	keystroke_e	e	n/a
427.6165	0.15	855233	keystroke_s	s	n/a
427.7365	0.105	855473	keystroke_e	e	n/a
428.291	0.075	856582	keystroke_Key.space	Key.space	n/a
428.621	0.075	857242	keystroke_n	n	n/a
428.711	0.09	857422	keystroke_a	a	n/a
428.861	0.135	857722	keystroke_r	r	n/a
429.1915	0.09	858383	keystroke_r	r	n/a
429.4015	0.09	858803	keystroke_a	a	n/a
429.5815	0.09	859163	keystroke_t	t	n/a
429.7315	0.075	859463	keystroke_i	i	n/a
429.8815	0.12	859763	keystroke_v	v	n/a
429.9565	0.105	859913	keystroke_e	e	n/a
430.2405	0.09	860481	keystroke_Key.space	Key.space	n/a
430.6755	0.075	861351	keystroke_s	s	n/a
430.7805	0.106	861561	keystroke_t	t	n/a
430.976	0.075	861952	keystroke_r	r	n/a
431.1105	0.075	862221	keystroke_o	o	n/a
431.3205	0.075	862641	keystroke_k	k	n/a
431.4705	0.06	862941	keystroke_e	e	n/a
431.8005	0.0605	863601	keystroke_Key.space	Key.space	n/a
432.0405	0.0605	864081	keystroke_l	l	n/a
432.131	0.1045	864262	keystroke_a	a	n/a
432.2655	0.075	864531	keystroke_y	y	n/a
432.461	0.1045	864922	keystroke_o	o	n/a
432.506	0.0895	865012	keystroke_u	u	n/a
432.641	0.075	865282	keystroke_t	t	n/a
432.7905	0.09	865581	keystroke_Key.enter	Key.enter	n/a
432.886	8.0965	865772	prompt	n/a	arnold registered throw doubt\n
433.6755	0.195	867351	keystroke_a	a	n/a
433.8405	0.105	867681	keystroke_r	r	n/a
434.0355	0.076	868071	keystroke_n	n	n/a
434.1865	0.0745	868373	keystroke_o	o	n/a
434.336	0.09	868672	keystroke_l	l	n/a
434.486	0.075	868972	keystroke_d	d	n/a
434.741	0.09	869482	keystroke_Key.space	Key.space	n/a
434.966	0.105	869932	keystroke_r	r	n/a
435.041	0.075	870082	keystroke_e	e	n/a
435.386	0.09	870772	keystroke_g	g	n/a
435.491	0.09	870982	keystroke_i	i	n/a
435.641	0.105	871282	keystroke_s	s	n/a
435.731	0.12	871462	keystroke_t	t	n/a
435.866	0.135	871732	keystroke_e	e	n/a
436.106	0.165	872212	keystroke_r	r	n/a
436.376	0.09	872752	keystroke_e	e	n/a
436.601	0.09	873202	keystroke_d	d	n/a
437.1705	0.091	874341	keystroke_Key.space	Key.space	n/a
438.086	0.075	876172	keystroke_t	t	n/a
438.162	0.074	876324	keystroke_h	h	n/a
438.296	0.075	876592	keystroke_r	r	n/a
438.431	0.075	876862	keystroke_o	o	n/a
438.461	0.03	876922	keystroke_i	i	n/a
439.046	0.06	878092	keystroke_Key.backspace	Key.backspace	n/a
439.241	0.075	878482	keystroke_w	w	n/a
439.601	0.0755	879202	keystroke_Key.space	Key.space	n/a
440.066	0.045	880132	keystroke_d	d	n/a
440.126	0.09	880252	keystroke_o	o	n/a
440.171	0.06	880342	keystroke_u	u	n/a
440.366	0.06	880732	keystroke_b	b	n/a
440.516	0.06	881032	keystroke_t	t	n/a
440.906	0.075	881812	keystroke_Key.enter	Key.enter	n/a
440.9855	11.292	881971	prompt	n/a	webster legislature commodity so're\n
441.9115	0.105	883823	keystroke_w	w	n/a
441.9565	0.09	883913	keystroke_e	e	n/a
442.0915	0.105	884183	keystroke_b	b	n/a
442.2115	0.119	884423	keystroke_s	s	n/a
442.3155	0.135	884631	keystroke_t	t	n/a
442.4655	0.12	884931	keystroke_e	e	n/a
442.5405	0.105	885081	keystroke_r	r	n/a
442.9155	0.09	885831	keystroke_Key.space	Key.space	n/a
443.5155	0.075	887031	keystroke_l	l	n/a
443.651	0.075	887302	keystroke_e	e	n/a
443.861	0.105	887722	keystroke_g	g	n/a
443.951	0.09	887902	keystroke_i	i	n/a
445.151	0.12	890302	keystroke_s	s	n/a
445.406	0.06	890812	keystroke_l	l	n/a
445.721	0.135	891442	keystroke_a	a	n/a
446.036	0.075	892072	keystroke_t	t	n/a
446.261	0.075	892522	keystroke_u	u	n/a
446.441	0.105	892882	keystroke_r	r	n/a
446.516	0.12	893032	keystroke_e	e	n/a
446.741	0.09	893482	keystroke_Key.space	Key.space	n/a
447.071	0.0905	894142	keystroke_c	c	n/a
447.131	0.0745	894262	keystroke_o	o	n/a
447.3415	0.045	894683	keystroke_m	m	n/a
447.4765	0.075	894953	keystroke_m	m	n/a
447.7315	0.09	895463	keystroke_o	o	n/a
448.4805	0.076	896961	keystroke_d	d	n/a
448.6015	0.074	897203	keystroke_i	i	n/a
448.7365	0.074	897473	keystroke_t	t	n/a
448.8705	0.075	897741	keystroke_y	y	n/a
449.2605	0.075	898521	keystroke_Key.space	Key.space	n/a
449.6805	0.075	899361	keystroke_s	s	n/a
450.116	0.0595	900232	keystroke_o	o	n/a
450.5955	0.076	901191	keystroke_'	'	n/a
450.761	0.105	901522	keystroke_r	r	n/a
450.867	0.0745	901734	keystroke_e	e	n/a
452.201	0.0755	904402	keystroke_Key.enter	Key.enter	n/a
452.2805	10.617	904561	prompt	n/a	pair episode sufficient alternative\n
453.206	0.09	906412	keystroke_p	p	n/a
453.341	0.105	906682	keystroke_a	a	n/a
453.461	0.105	906922	keystroke_i	i	n/a
453.626	0.06	907252	keystroke_r	r	n/a
454.0755	0.06	908151	keystroke_Key.space	Key.space	n/a
454.4055	0.105	908811	keystroke_e	e	n/a
454.6755	0.165	909351	keystroke_p	p	n/a
454.7955	0.09	909591	keystroke_i	i	n/a
455.0505	0.075	910101	keystroke_d	d	n/a
455.3655	0.075	910731	keystroke_Key.backspace	Key.backspace	n/a
455.5155	0.09	911031	keystroke_s	s	n/a
455.6505	0.075	911301	keystroke_o	o	n/a
456.071	0.12	912142	keystroke_d	d	n/a
456.161	0.105	912322	keystroke_e	e	n/a
456.491	0.0905	912982	keystroke_Key.space	Key.space	n/a
457.061	0.09	914122	keystroke_s	s	n/a
457.166	0.09	914332	keystroke_i	i	n/a
457.5715	0.075	915143	keystroke_Key.backspace	Key.backspace	n/a
457.8115	0.075	915623	keystroke_u	u	n/a
457.9465	0.0745	915893	keystroke_f	f	n/a
458.096	0.105	916192	keystroke_f	f	n/a
458.2155	0.09	916431	keystroke_i	i	n/a
458.4105	0.0905	916821	keystroke_c	c	n/a
458.5015	0.0745	917003	keystroke_i	i	n/a
458.741	0.0745	917482	keystroke_e	e	n/a
458.906	0.0595	917812	keystroke_n	n	n/a
458.951	0.045	917902	keystroke_t	t	n/a
459.731	0.015	919462	keystroke_Key.space	Key.space	n/a
459.776	0.105	919552	keystroke_a	a	n/a
459.911	0.075	919822	keystroke_l	l	n/a
460.151	0.12	920302	keystroke_t	t	n/a
460.256	0.165	920512	keystroke_e	e	n/a
460.376	0.09	920752	keystroke_r	r	n/a
460.991	0.075	921982	keystroke_n	n	n/a
461.096	0.15	922192	keystroke_a	a	n/a
461.216	0.075	922432	keystroke_t	t	n/a
461.366	0.06	922732	keystroke_i	i	n/a
461.381	0.03	922762	keystroke_u	u	n/a
461.546	0.12	923092	keystroke_v	v	n/a
461.621	0.105	923242	keystroke_e	e	n/a
462.116	0.075	924232	keystroke_Key.backspace	Key.backspace	n/a
462.251	0.06	924502	keystroke_Key.backspace	Key.backspace	n/a
462.386	0.03	924772	keystroke_Key.backspace	Key.backspace	n/a
462.476	0.15	924952	keystroke_v	v	n/a
462.596	0.09	925192	keystroke_e	e	n/a
462.821	0.075	925642	keystroke_Key.enter	Key.enter	n/a
462.902	10.5255	925804	prompt	n/a	planets jefferson rational flavor\n
463.8265	0.119	927653	keystroke_p	p	n/a
463.8865	0.104	927773	keystroke_l	l	n/a
464.0055	0.0905	928011	keystroke_a	a	n/a
464.381	0.075	928762	keystroke_n	n	n/a
464.471	0.165	928942	keystroke_e	e	n/a
464.591	0.075	929182	keystroke_t	t	n/a
464.861	0.075	929722	keystroke_s	s	n/a
465.071	0.105	930142	keystroke_Key.space	Key.space	n/a
465.9555	0.076	931911	keystroke_j	j	n/a
466.0455	0.165	932091	keystroke_e	e	n/a
466.2405	0.09	932481	keystroke_f	f	n/a
466.4205	0.076	932841	keystroke_f	f	n/a
466.4805	0.15	932961	keystroke_e	e	n/a
466.5855	0.091	933171	keystroke_r	r	n/a
466.7955	0.09	933591	keystroke_s	s	n/a
466.9305	0.12	933861	keystroke_o	o	n/a
467.0055	0.075	934011	keystroke_n	n	n/a
467.471	0.09	934942	keystroke_Key.space	Key.space	n/a
467.876	0.135	935752	keystroke_r	r	n/a
467.996	0.15	935992	keystroke_a	a	n/a
468.1905	0.12	936381	keystroke_t	t	n/a
468.4005	0.105	936801	keystroke_i	i	n/a
468.4605	0.09	936921	keystroke_o	o	n/a
468.6105	0.09	937221	keystroke_n	n	n/a
468.7305	0.06	937461	keystroke_a	a	n/a
468.8505	0.06	937701	keystroke_l	l	n/a
469.3455	0.09	938691	keystroke_Key.space	Key.space	n/a
469.8115	0.045	939623	keystroke_f	f	n/a
469.9015	0.06	939803	keystroke_l	l	n/a
470.0065	0.075	940013	keystroke_a	a	n/a
470.2915	0.075	940583	keystroke_v	v	n/a
470.3965	0.06	940793	keystroke_i	i	n/a
470.5315	0.06	941063	keystroke_r	r	n/a
471.5065	0.075	943013	keystroke_Key.backspace	Key.backspace	n/a
471.6855	0.0755	943371	keystroke_Key.backspace	Key.backspace	n/a
473.111	0.0605	946222	keystroke_o	o	n/a
473.2315	0.075	946463	keystroke_r	r	n/a
473.3515	0.075	946703	keystroke_Key.enter	Key.enter	n/a
473.4305	6.747	946861	prompt	n/a	really cooked resulting fisher\n
474.161	0.15	948322	keystroke_r	r	n/a
474.251	0.105	948502	keystroke_e	e	n/a
474.461	0.12	948922	keystroke_a	a	n/a
474.701	0.075	949402	keystroke_l	l	n/a
474.851	0.075	949702	keystroke_l	l	n/a
474.986	0.09	949972	keystroke_y	y	n/a
475.2115	0.104	950423	keystroke_Key.space	Key.space	n/a
475.5415	0.12	951083	keystroke_c	c	n/a
475.6465	0.06	951293	keystroke_o	o	n/a
475.8105	0.21	951621	keystroke_o	o	n/a
475.9755	0.09	951951	keystroke_k	k	n/a
476.1555	0.075	952311	keystroke_e	e	n/a
476.846	0.06	953692	keystroke_d	d	n/a
477.116	0.0905	954232	keystroke_Key.space	Key.space	n/a
477.3415	0.12	954683	keystroke_r	r	n/a
477.4465	0.03	954893	keystroke_e	e	n/a
477.5955	0.106	955191	keystroke_s	s	n/a
477.7165	0.059	955433	keystroke_u	u	n/a
477.8805	0.075	955761	keystroke_l	l	n/a
478.0155	0.076	956031	keystroke_t	t	n/a
478.1655	0.075	956331	keystroke_i	i	n/a
478.2105	0.06	956421	keystroke_n	n	n/a
478.7205	0.061	957441	keystroke_g	g	n/a
478.9905	0.09	957981	keystroke_Key.space	Key.space	n/a
479.426	0.09	958852	keystroke_f	f	n/a
479.531	0.06	959062	keystroke_i	i	n/a
479.636	0.075	959272	keystroke_s	s	n/a
479.756	0.075	959512	keystroke_h	h	n/a
479.876	0.09	959752	keystroke_e	e	n/a
479.936	0.09	959872	keystroke_r	r	n/a
480.116	0.06	960232	keystroke_Key.enter	Key.enter	n/a
480.18	7.8125	960360	prompt	n/a	surgeon fruits committees places\n
480.9255	0.1055	961851	keystroke_s	s	n/a
481.0905	0.0755	962181	keystroke_u	u	n/a
481.167	0.089	962334	keystroke_r	r	n/a
481.436	0.1195	962872	keystroke_g	g	n/a
481.601	0.105	963202	keystroke_e	e	n/a
481.8115	0.135	963623	keystroke_o	o	n/a
481.9315	0.06	963863	keystroke_n	n	n/a
482.3515	0.105	964703	keystroke_Key.space	Key.space	n/a
482.6815	0.075	965363	keystroke_f	f	n/a
482.8465	0.09	965693	keystroke_r	r	n/a
483.0115	0.105	966023	keystroke_u	u	n/a
483.0715	0.09	966143	keystroke_i	i	n/a
483.1465	0.105	966293	keystroke_t	t	n/a
483.3865	0.075	966773	keystroke_s	s	n/a
483.5815	0.075	967163	keystroke_Key.space	Key.space	n/a
483.7915	0.075	967583	keystroke_c	c	n/a
483.8515	0.06	967703	keystroke_o	o	n/a
484.0615	0.06	968123	keystroke_m	m	n/a
484.1965	0.135	968393	keystroke_m	m	n/a
484.3615	0.045	968723	keystroke_i	i	n/a
485.0365	0.06	970073	keystroke_t	t	n/a
485.1715	0.12	970343	keystroke_t	t	n/a
485.4115	0.09	970823	keystroke_e	e	n/a
485.5465	0.075	971093	keystroke_e	e	n/a
485.6815	0.09	971363	keystroke_e	e	n/a
486.326	0.075	972652	keystroke_Key.backspace	Key.backspace	n/a
486.506	0.0755	973012	keystroke_s	s	n/a
486.8815	0.075	973763	keystroke_Key.space	Key.space	n/a
487.0915	0.105	974183	keystroke_p	p	n/a
487.1505	0.106	974301	keystroke_l	l	n/a
487.2115	0.12	974423	keystroke_a	a	n/a
487.3615	0.12	974723	keystroke_c	c	n/a
487.4365	0.09	974873	keystroke_e	e	n/a
487.6465	0.09	975293	keystroke_s	s	n/a
487.901	0.09	975802	keystroke_Key.enter	Key.enter	n/a
487.9955	7.077	975991	prompt	n/a	wide convergence thought ones\n
488.756	0.105	977512	keystroke_w	w	n/a
488.876	0.06	977752	keystroke_i	i	n/a
489.236	0.15	978472	keystroke_d	d	n/a
489.326	0.12	978652	keystroke_e	e	n/a
489.956	0.12	979912	keystroke_Key.space	Key.space	n/a
490.3305	0.121	980661	keystroke_c	c	n/a
490.4365	0.075	980873	keystroke_o	o	n/a
490.4815	0.089	980963	keystroke_n	n	n/a
490.6315	0.0895	981263	keystroke_v	v	n/a
490.736	0.135	981472	keystroke_e	e	n/a
490.841	0.09	981682	keystroke_r	r	n/a
491.576	0.105	983152	keystroke_g	g	n/a
491.801	0.075	983602	keystroke_e	e	n/a
491.921	0.09	983842	keystroke_n	n	n/a
492.116	0.165	984232	keystroke_c	c	n/a
492.236	0.105	984472	keystroke_e	e	n/a
492.536	0.105	985072	keystroke_Key.space	Key.space	n/a
493.001	0.075	986002	keystroke_t	t	n/a
493.091	0.06	986182	keystroke_h	h	n/a
493.2265	0.104	986453	keystroke_o	o	n/a
493.2855	0.06	986571	keystroke_u	u	n/a
493.4055	0.076	986811	keystroke_g	g	n/a
493.5105	0.076	987021	keystroke_h	h	n/a
493.6155	0.075	987231	keystroke_t	t	n/a
494.006	0.075	988012	keystroke_Key.space	Key.space	n/a
494.261	0.075	988522	keystroke_o	o	n/a
494.411	0.105	988822	keystroke_n	n	n/a
494.531	0.09	989062	keystroke_e	e	n/a
494.801	0.075	989602	keystroke_s	s	n/a
494.996	0.075	989992	keystroke_Key.enter	Key.enter	n/a
495.0755	9.672	990151	prompt	n/a	preventing climbing silk crash\n
495.851	0.075	991702	keystroke_p	p	n/a
495.911	0.105	991822	keystroke_r	r	n/a
495.986	0.09	991972	keystroke_e	e	n/a
496.226	0.12	992452	keystroke_e	e	n/a
496.376	0.075	992752	keystroke_n	n	n/a
496.9455	0.045	993891	keystroke_Key.backspace	Key.backspace	n/a
497.0505	0.09	994101	keystroke_Key.backspace	Key.backspace	n/a
497.2315	0.059	994463	keystroke_v	v	n/a
497.3055	0.09	994611	keystroke_e	e	n/a
497.4405	0.046	994881	keystroke_n	n	n/a
497.6355	0.09	995271	keystroke_t	t	n/a
497.7405	0.075	995481	keystroke_i	i	n/a
497.7715	0.074	995543	keystroke_n	n	n/a
497.9355	0.06	995871	keystroke_g	g	n/a
498.266	0.09	996532	keystroke_Key.space	Key.space	n/a
498.656	0.09	997312	keystroke_c	c	n/a
498.776	0.15	997552	keystroke_l	l	n/a
498.851	0.09	997702	keystroke_i	i	n/a
499.211	0.075	998422	keystroke_m	m	n/a
499.736	0.045	999472	keystroke_b	b	n/a
499.886	0.105	999772	keystroke_i	i	n/a
499.946	0.075	999892	keystroke_n	n	n/a
500.096	0.075	1000192	keystroke_g	g	n/a
500.591	0.09	1001182	keystroke_Key.space	Key.space	n/a
500.846	0.075	1001692	keystroke_s	s	n/a
501.101	0.0755	1002202	keystroke_i	i	n/a
501.4465	0.075	1002893	keystroke_l	l	n/a
501.6865	0.075	1003373	keystroke_k	k	n/a
501.9415	0.105	1003883	keystroke_Key.space	Key.space	n/a
502.1665	0.105	1004333	keystroke_c	c	n/a
502.2415	0.135	1004483	keystroke_a	a	n/a
502.6615	0.075	1005323	keystroke_h	h	n/a
503.1415	0.075	1006283	keystroke_Key.backspace	Key.backspace	n/a
503.2615	0.075	1006523	keystroke_s	s	n/a
503.5765	0.0295	1007153	keystroke_Key.backspace	Key.backspace	n/a
503.666	0.0745	1007332	keystroke_Key.backspace	Key.backspace	n/a
503.8755	0.076	1007751	keystroke_r	r	n/a
503.9515	0.09	1007903	keystroke_a	a	n/a
504.1465	0.09	1008293	keystroke_s	s	n/a
504.2815	0.06	1008563	keystroke_h	h	n/a
504.6855	0.061	1009371	keystroke_Key.enter	Key.enter	n/a
504.7505	6.642	1009501	prompt	n/a	kidney missions latino running\n
505.721	0.03	1011442	keystroke_k	k	n/a
505.8265	0.075	1011653	keystroke_i	i	n/a
506.2615	0.1045	1012523	keystroke_d	d	n/a
506.411	0.075	1012822	keystroke_n	n	n/a
506.561	0.075	1013122	keystroke_e	e	n/a
506.696	0.075	1013392	keystroke_y	y	n/a
507.176	0.075	1014352	keystroke_Key.space	Key.space	n/a
507.671	0.105	1015342	keystroke_m	m	n/a
507.746	0.06	1015492	keystroke_i	i	n/a
507.866	0.075	1015732	keystroke_s	s	n/a
508.016	0.105	1016032	keystroke_s	s	n/a
508.136	0.09	1016272	keystroke_i	i	n/a
508.181	0.075	1016362	keystroke_o	o	n/a
508.361	0.075	1016722	keystroke_n	n	n/a
508.496	0.06	1016992	keystroke_s	s	n/a
508.646	0.075	1017292	keystroke_Key.space	Key.space	n/a
508.886	0.09	1017772	keystroke_l	l	n/a
508.961	0.165	1017922	keystroke_a	a	n/a
509.111	0.0905	1018222	keystroke_t	t	n/a
509.2165	0.06	1018433	keystroke_i	i	n/a
509.4265	0.1495	1018853	keystroke_n	n	n/a
509.561	0.06	1019122	keystroke_o	o	n/a
509.891	0.09	1019782	keystroke_Key.space	Key.space	n/a
510.236	0.06	1020472	keystroke_r	r	n/a
510.326	0.075	1020652	keystroke_u	u	n/a
510.551	0.045	1021102	keystroke_n	n	n/a
510.626	0.105	1021252	keystroke_n	n	n/a
510.701	0.135	1021402	keystroke_i	i	n/a
510.806	0.075	1021612	keystroke_n	n	n/a
511.0005	0.06	1022001	keystroke_g	g	n/a
511.3005	0.09	1022601	keystroke_Key.enter	Key.enter	n/a
511.3955	8.697	1022791	prompt	n/a	fisher fifty marsh except\n
512.366	0.0895	1024732	keystroke_f	f	n/a
512.4705	0.075	1024941	keystroke_i	i	n/a
512.6355	0.06	1025271	keystroke_s	s	n/a
512.7105	0.075	1025421	keystroke_h	h	n/a
512.8455	0.105	1025691	keystroke_e	e	n/a
512.8905	0.09	1025781	keystroke_r	r	n/a
513.2805	0.09	1026561	keystroke_Key.space	Key.space	n/a
513.761	0.09	1027522	keystroke_f	f	n/a
513.896	0.06	1027792	keystroke_i	i	n/a
514.061	0.135	1028122	keystroke_f	f	n/a
515.276	0.075	1030552	keystroke_t	t	n/a
515.411	0.03	1030822	keystroke_h	h	n/a
516.506	0.105	1033012	keystroke_Key.backspace	Key.backspace	n/a
516.8215	0.0745	1033643	keystroke_y	y	n/a
517.076	0.0905	1034152	keystroke_Key.space	Key.space	n/a
517.3165	0.09	1034633	keystroke_m	m	n/a
517.3915	0.12	1034783	keystroke_a	a	n/a
517.451	0.105	1034902	keystroke_r	r	n/a
517.916	0.0905	1035832	keystroke_s	s	n/a
518.021	0.075	1036042	keystroke_h	h	n/a
518.336	0.09	1036672	keystroke_Key.space	Key.space	n/a
518.576	0.075	1037152	keystroke_e	e	n/a
519.0705	0.075	1038141	keystroke_x	x	n/a
519.2805	0.12	1038561	keystroke_c	c	n/a
519.3705	0.0905	1038741	keystroke_e	e	n/a
519.551	0.015	1039102	keystroke_p	p	n/a
519.686	0.06	1039372	keystroke_t	t	n/a
520.001	0.09	1040002	keystroke_Key.enter	Key.enter	n/a
520.095	7.7525	1040190	prompt	n/a	motion panasonic dispatched carry\n
520.931	0.105	1041862	keystroke_m	m	n/a
521.051	0.09	1042102	keystroke_o	o	n/a
521.231	0.075	1042462	keystroke_t	t	n/a
521.3215	0.09	1042643	keystroke_i	i	n/a
521.3655	0.091	1042731	keystroke_o	o	n/a
521.5455	0.061	1043091	keystroke_n	n	n/a
521.831	0.075	1043662	keystroke_Key.space	Key.space	n/a
522.2505	0.06	1044501	keystroke_p	p	n/a
522.4155	0.075	1044831	keystroke_a	a	n/a
522.5355	0.09	1045071	keystroke_n	n	n/a
522.6555	0.045	1045311	keystroke_a	a	n/a
522.8955	0.075	1045791	keystroke_s	s	n/a
522.9855	0.06	1045971	keystroke_o	o	n/a
523.226	0.255	1046452	keystroke_n	n	n/a
523.406	0.075	1046812	keystroke_i	i	n/a
524.0965	0.09	1048193	keystroke_c	c	n/a
524.4565	0.09	1048913	keystroke_Key.space	Key.space	n/a
524.8465	0.09	1049693	keystroke_d	d	n/a
524.9815	0.075	1049963	keystroke_i	i	n/a
525.1015	0.075	1050203	keystroke_s	s	n/a
525.5365	0.09	1051073	keystroke_p	p	n/a
525.6565	0.12	1051313	keystroke_a	a	n/a
525.8215	0.09	1051643	keystroke_t	t	n/a
526.0905	0.091	1052181	keystroke_c	c	n/a
526.2415	0.075	1052483	keystroke_h	h	n/a
526.3615	0.09	1052723	keystroke_e	e	n/a
526.5705	0.091	1053141	keystroke_d	d	n/a
526.7365	0.09	1053473	keystroke_Key.space	Key.space	n/a
527.0515	0.1195	1054103	keystroke_c	c	n/a
527.156	0.15	1054312	keystroke_a	a	n/a
527.276	0.075	1054552	keystroke_r	r	n/a
527.441	0.105	1054882	keystroke_r	r	n/a
527.576	0.09	1055152	keystroke_y	y	n/a
527.771	0.075	1055542	keystroke_Key.enter	Key.enter	n/a
527.85	8.0975	1055700	prompt	n/a	investors ciao prevention relation\n
528.6265	0.089	1057253	keystroke_i	i	n/a
528.6715	0.09	1057343	keystroke_n	n	n/a
528.8815	0.105	1057763	keystroke_v	v	n/a
529.0005	0.106	1058001	keystroke_e	e	n/a
529.2115	0.15	1058423	keystroke_s	s	n/a
529.331	0.09	1058662	keystroke_t	t	n/a
529.511	0.0755	1059022	keystroke_o	o	n/a
529.616	0.09	1059232	keystroke_r	r	n/a
529.901	0.06	1059802	keystroke_s	s	n/a
530.2905	0.09	1060581	keystroke_Key.space	Key.space	n/a
530.8015	0.105	1061603	keystroke_c	c	n/a
530.9815	0.089	1061963	keystroke_i	i	n/a
531.2215	0.075	1062443	keystroke_a	a	n/a
531.5805	0.06	1063161	keystroke_o	o	n/a
532.061	0.09	1064122	keystroke_Key.space	Key.space	n/a
532.3905	0.061	1064781	keystroke_p	p	n/a
532.4805	0.106	1064961	keystroke_r	r	n/a
532.5415	0.074	1065083	keystroke_e	e	n/a
532.8115	0.105	1065623	keystroke_e	e	n/a
532.9455	0.076	1065891	keystroke_n	n	n/a
533.351	0.06	1066702	keystroke_Key.backspace	Key.backspace	n/a
533.471	0.09	1066942	keystroke_Key.backspace	Key.backspace	n/a
533.6215	0.09	1067243	keystroke_v	v	n/a
533.6815	0.0745	1067363	keystroke_e	e	n/a
533.816	0.09	1067632	keystroke_n	n	n/a
533.936	0.0905	1067872	keystroke_t	t	n/a
534.0705	0.121	1068141	keystroke_i	i	n/a
534.1305	0.09	1068261	keystroke_o	o	n/a
534.3115	0.089	1068623	keystroke_n	n	n/a
534.5805	0.09	1069161	keystroke_Key.space	Key.space	n/a
534.851	0.165	1069702	keystroke_r	r	n/a
534.956	0.105	1069912	keystroke_e	e	n/a
535.151	0.09	1070302	keystroke_l	l	n/a
535.271	0.1195	1070542	keystroke_a	a	n/a
535.3605	0.105	1070721	keystroke_t	t	n/a
535.4355	0.09	1070871	keystroke_i	i	n/a
535.4805	0.09	1070961	keystroke_o	o	n/a
535.6605	0.0755	1071321	keystroke_n	n	n/a
535.8705	0.075	1071741	keystroke_Key.enter	Key.enter	n/a
535.95	7.9325	1071900	prompt	n/a	sofa embassy finest volume\n
536.816	0.075	1073632	keystroke_s	s	n/a
536.921	0.06	1073842	keystroke_o	o	n/a
537.101	0.06	1074202	keystroke_f	f	n/a
537.341	0.06	1074682	keystroke_a	a	n/a
537.7755	0.0755	1075551	keystroke_Key.space	Key.space	n/a
538.241	0.045	1076482	keystroke_e	e	n/a
538.316	0.09	1076632	keystroke_m	m	n/a
538.541	0.075	1077082	keystroke_b	b	n/a
538.631	0.075	1077262	keystroke_a	a	n/a
538.781	0.105	1077562	keystroke_s	s	n/a
538.961	0.075	1077922	keystroke_s	s	n/a
539.111	0.0745	1078222	keystroke_y	y	n/a
539.3955	0.075	1078791	keystroke_Key.space	Key.space	n/a
539.936	0.09	1079872	keystroke_f	f	n/a
540.041	0.06	1080082	keystroke_i	i	n/a
540.161	0.09	1080322	keystroke_n	n	n/a
540.266	0.09	1080532	keystroke_e	e	n/a
540.521	0.12	1081042	keystroke_s	s	n/a
540.596	0.075	1081192	keystroke_t	t	n/a
540.926	0.075	1081852	keystroke_Key.space	Key.space	n/a
541.256	0.09	1082512	keystroke_c	c	n/a
541.331	0.06	1082662	keystroke_o	o	n/a
541.781	0.06	1083562	keystroke_Key.backspace	Key.backspace	n/a
541.901	0.075	1083802	keystroke_Key.backspace	Key.backspace	n/a
542.036	0.06	1084072	keystroke_v	v	n/a
542.1555	0.09	1084311	keystroke_o	o	n/a
542.3505	0.135	1084701	keystroke_l	l	n/a
542.5005	0.075	1085001	keystroke_u	u	n/a
542.5155	0.015	1085031	keystroke_o	o	n/a
542.7555	0.075	1085511	keystroke_m	m	n/a
543.1305	0.0605	1086261	keystroke_Key.backspace	Key.backspace	n/a
543.236	0.075	1086472	keystroke_Key.backspace	Key.backspace	n/a
543.521	0.06	1087042	keystroke_m	m	n/a
543.641	0.06	1087282	keystroke_e	e	n/a
543.791	0.09	1087582	keystroke_Key.enter	Key.enter	n/a
543.8865	8.846	1087773	prompt	n/a	throws oasis institution transparency\n
544.781	0.075	1089562	keystroke_t	t	n/a
544.871	0.06	1089742	keystroke_h	h	n/a
544.961	0.105	1089922	keystroke_r	r	n/a
545.051	0.075	1090102	keystroke_o	o	n/a
545.201	0.09	1090402	keystroke_w	w	n/a
545.426	0.09	1090852	keystroke_s	s	n/a
545.756	0.0895	1091512	keystroke_Key.space	Key.space	n/a
546.191	0.075	1092382	keystroke_o	o	n/a
546.296	0.105	1092592	keystroke_a	a	n/a
546.491	0.105	1092982	keystroke_s	s	n/a
546.746	0.075	1093492	keystroke_i	i	n/a
546.881	0.075	1093762	keystroke_s	s	n/a
547.376	0.09	1094752	keystroke_Key.space	Key.space	n/a
547.736	0.09	1095472	keystroke_i	i	n/a
547.766	0.09	1095532	keystroke_n	n	n/a
547.871	0.15	1095742	keystroke_s	s	n/a
547.961	0.075	1095922	keystroke_t	t	n/a
548.7105	0.075	1097421	keystroke_i	i	n/a
548.9805	0.076	1097961	keystroke_t	t	n/a
549.0705	0.076	1098141	keystroke_u	u	n/a
549.356	0.075	1098712	keystroke_t	t	n/a
549.446	0.09	1098892	keystroke_i	i	n/a
549.491	0.09	1098982	keystroke_o	o	n/a
549.671	0.075	1099342	keystroke_n	n	n/a
550.0905	0.075	1100181	keystroke_Key.space	Key.space	n/a
