onset	duration	sample	value	key	prompt_text
5.4075	8.4565	10815	prompt	n/a	the quick brown fox jumps over a lazy dog\n
6.9025	0.028	13805	keystroke_t	t	n/a
6.9605	0.0745	13921	keystroke_h	h	n/a
7.066	0.12	14132	keystroke_e	e	n/a
7.171	0.1045	14342	keystroke_Key.space	Key.space	n/a
7.336	0.105	14672	keystroke_q	q	n/a
7.4255	0.0745	14851	keystroke_u	u	n/a
7.6205	0.0755	15241	keystroke_i	i	n/a
7.711	0.12	15422	keystroke_c	c	n/a
7.8455	0.1195	15691	keystroke_k	k	n/a
7.9345	0.091	15869	keystroke_Key.space	Key.space	n/a
8.1455	0.075	16291	keystroke_b	b	n/a
8.266	0.09	16532	keystroke_r	r	n/a
8.3705	0.09	16741	keystroke_o	o	n/a
8.6105	0.06	17221	keystroke_n	n	n/a
8.9555	0.075	17911	keystroke_Key.backspace	Key.backspace	n/a
9.0905	0.12	18181	keystroke_w	w	n/a
9.2405	0.09	18481	keystroke_n	n	n/a
9.3455	0.09	18691	keystroke_Key.space	Key.space	n/a
9.7655	0.09	19531	keystroke_f	f	n/a
9.9005	0.105	19801	keystroke_o	o	n/a
10.1105	0.1045	20221	keystroke_x	x	n/a
10.3355	0.075	20671	keystroke_Key.space	Key.space	n/a
10.651	0.0445	21302	keystroke_j	j	n/a
10.876	0.074	21752	keystroke_u	u	n/a
11.2955	0.0745	22591	keystroke_m	m	n/a
11.49	0.075	22980	keystroke_p	p	n/a
11.61	0.09	23220	keystroke_s	s	n/a
11.67	0.1055	23340	keystroke_Key.space	Key.space	n/a
11.79	0.0905	23580	keystroke_o	o	n/a
11.895	0.09	23790	keystroke_v	v	n/a
12.1205	0.12	24241	keystroke_e	e	n/a
12.21	0.1055	24420	keystroke_r	r	n/a
12.255	0.12	24510	keystroke_Key.space	Key.space	n/a
12.391	0.1195	24782	keystroke_a	a	n/a
12.465	0.135	24930	keystroke_Key.space	Key.space	n/a
12.645	0.09	25290	keystroke_l	l	n/a
12.705	0.1055	25410	keystroke_a	a	n/a
12.9605	0.12	25921	keystroke_z	z	n/a
13.0955	0.075	26191	keystroke_y	y	n/a
13.186	0.1495	26372	keystroke_Key.space	Key.space	n/a
13.3205	0.105	26641	keystroke_s	s	n/a
13.4555	0.0905	26911	keystroke_o	o	n/a
13.5755	0.105	27151	keystroke_g	g	n/a
13.7705	0.09	27541	keystroke_Key.enter	Key.enter	n/a
13.87	12.518	27740	prompt	n/a	transferred publicly provided attached\n
14.821	0.1045	29642	keystroke_t	t	n/a
14.9105	0.1345	29821	keystroke_r	r	n/a
15.061	0.1495	30122	keystroke_a	a	n/a
15.241	0.09	30482	keystroke_n	n	n/a
15.4205	0.0905	30841	keystroke_f	f	n/a
15.631	0.1045	31262	keystroke_e	e	n/a
15.781	0.09	31562	keystroke_r	r	n/a
15.9155	0.1205	31831	keystroke_r	r	n/a
16.0505	0.1205	32101	keystroke_e	e	n/a
16.246	0.1495	32492	keystroke_d	d	n/a
16.3505	0.105	32701	keystroke_Key.space	Key.space	n/a
16.801	0.0895	33602	keystroke_p	p	n/a
17.1905	0.09	34381	keystroke_Key.backspace	Key.backspace	n/a
17.3855	0.045	34771	keystroke_Key.backspace	Key.backspace	n/a
17.7	0.045	35400	keystroke_Key.backspace	Key.backspace	n/a
17.82	0.0755	35640	keystroke_Key.backspace	Key.backspace	n/a
17.9705	0.06	35941	keystroke_Key.backspace	Key.backspace	n/a
18.1055	0.075	36211	keystroke_Key.backspace	Key.backspace	n/a
18.2405	0.105	36481	keystroke_Key.backspace	Key.backspace	n/a
18.4205	0.075	36841	keystroke_Key.backspace	Key.backspace	n/a
18.585	0.1055	37170	keystroke_s	s	n/a
18.8255	0.09	37651	keystroke_f	f	n/a
19.0055	0.1195	38011	keystroke_e	e	n/a
19.275	0.1055	38550	keystroke_r	r	n/a
19.441	0.1345	38882	keystroke_r	r	n/a
19.65	0.09	39300	keystroke_e	e	n/a
19.8905	0.12	39781	keystroke_d	d	n/a
20.025	0.0755	40050	keystroke_Key.space	Key.space	n/a
20.2645	0.061	40529	keystroke_o	o	n/a
20.895	0.1055	41790	keystroke_Key.backspace	Key.backspace	n/a
21.2855	0.1045	42571	keystroke_p	p	n/a
21.57	0.076	43140	keystroke_u	u	n/a
21.6905	0.09	43381	keystroke_b	b	n/a
21.9455	0.0745	43891	keystroke_l	l	n/a
22.14	0.075	44280	keystroke_i	i	n/a
22.4105	0.09	44821	keystroke_c	c	n/a
22.635	0.105	45270	keystroke_l	l	n/a
22.8755	0.0895	45751	keystroke_y	y	n/a
22.935	0.135	45870	keystroke_Key.space	Key.space	n/a
23.2205	0.09	46441	keystroke_p	p	n/a
23.3705	0.1195	46741	keystroke_r	r	n/a
23.535	0.0905	47070	keystroke_o	o	n/a
23.85	0.121	47700	keystroke_v	v	n/a
24.1655	0.09	48331	keystroke_i	i	n/a
24.3445	0.091	48689	keystroke_d	d	n/a
24.57	0.06	49140	keystroke_e	e	n/a
24.7505	0.105	49501	keystroke_d	d	n/a
24.81	0.15	49620	keystroke_Key.space	Key.space	n/a
25.0055	0.09	50011	keystroke_a	a	n/a
25.215	0.0455	50430	keystroke_t	t	n/a
25.35	0.061	50700	keystroke_t	t	n/a
25.426	0.1195	50852	keystroke_a	a	n/a
25.68	0.1055	51360	keystroke_c	c	n/a
25.845	0.075	51690	keystroke_h	h	n/a
25.9505	0.1055	51901	keystroke_e	e	n/a
26.1605	0.1055	52321	keystroke_d	d	n/a
26.3105	0.0745	52621	keystroke_Key.enter	Key.enter	n/a
26.393	6.8495	52786	prompt	n/a	virtual collective ascii invalid\n
27.0755	0.075	54151	keystroke_v	v	n/a
27.2555	0.0745	54511	keystroke_i	i	n/a
27.3755	0.0745	54751	keystroke_r	r	n/a
27.5555	0.09	55111	keystroke_t	t	n/a
27.736	0.0895	55472	keystroke_u	u	n/a
27.885	0.106	55770	keystroke_a	a	n/a
28.0505	0.1195	56101	keystroke_l	l	n/a
28.1855	0.09	56371	keystroke_Key.space	Key.space	n/a
28.5295	0.076	57059	keystroke_c	c	n/a
28.6205	0.06	57241	keystroke_o	o	n/a
28.785	0.075	57570	keystroke_l	l	n/a
28.9055	0.09	57811	keystroke_l	l	n/a
28.981	0.075	57962	keystroke_e	e	n/a
29.175	0.0905	58350	keystroke_c	c	n/a
29.4155	0.0745	58831	keystroke_t	t	n/a
29.58	0.0905	59160	keystroke_i	i	n/a
29.6855	0.0895	59371	keystroke_v	v	n/a
29.895	0.1055	59790	keystroke_e	e	n/a
29.9705	0.149	59941	keystroke_Key.space	Key.space	n/a
30.3	0.09	60600	keystroke_a	a	n/a
30.5555	0.0905	61111	keystroke_s	s	n/a
30.8105	0.1055	61621	keystroke_c	c	n/a
31.036	0.044	62072	keystroke_i	i	n/a
31.1705	0.06	62341	keystroke_i	i	n/a
31.2755	0.12	62551	keystroke_Key.space	Key.space	n/a
31.7855	0.09	63571	keystroke_i	i	n/a
31.8455	0.105	63691	keystroke_n	n	n/a
32.0405	0.1055	64081	keystroke_v	v	n/a
32.3405	0.105	64681	keystroke_a	a	n/a
32.4755	0.09	64951	keystroke_l	l	n/a
32.791	0.0895	65582	keystroke_i	i	n/a
32.9255	0.09	65851	keystroke_d	d	n/a
33.135	0.106	66270	keystroke_Key.enter	Key.enter	n/a
33.2465	9.026	66493	prompt	n/a	camping circulation police inspector\n
33.9755	0.06	67951	keystroke_c	c	n/a
34.0955	0.1205	68191	keystroke_a	a	n/a
34.2605	0.0895	68521	keystroke_m	m	n/a
34.531	0.059	69062	keystroke_p	p	n/a
34.951	0.119	69902	keystroke_i	i	n/a
35.04	0.106	70080	keystroke_n	n	n/a
35.176	0.089	70352	keystroke_g	g	n/a
35.235	0.0905	70470	keystroke_Key.space	Key.space	n/a
35.445	0.091	70890	keystroke_c	c	n/a
35.5955	0.0745	71191	keystroke_i	i	n/a
35.7155	0.0905	71431	keystroke_r	r	n/a
36.045	0.0905	72090	keystroke_c	c	n/a
36.1505	0.0895	72301	keystroke_u	u	n/a
36.3905	0.09	72781	keystroke_l	l	n/a
36.4655	0.105	72931	keystroke_a	a	n/a
36.7055	0.075	73411	keystroke_t	t	n/a
36.7955	0.06	73591	keystroke_i	i	n/a
36.9905	0.105	73981	keystroke_o	o	n/a
37.066	0.1035	74132	keystroke_n	n	n/a
37.1555	0.105	74311	keystroke_Key.space	Key.space	n/a
37.3055	0.105	74611	keystroke_p	p	n/a
37.4405	0.105	74881	keystroke_r	r	n/a
37.5605	0.0755	75121	keystroke_o	o	n/a
38.191	0.075	76382	keystroke_Key.backspace	Key.backspace	n/a
38.341	0.06	76682	keystroke_Key.backspace	Key.backspace	n/a
38.581	0.09	77162	keystroke_o	o	n/a
38.776	0.089	77552	keystroke_l	l	n/a
39	0.076	78000	keystroke_i	i	n/a
39.105	0.106	78210	keystroke_c	c	n/a
39.346	0.105	78692	keystroke_e	e	n/a
39.405	0.135	78810	keystroke_Key.space	Key.space	n/a
39.6905	0.15	79381	keystroke_i	i	n/a
39.8255	0.1055	79651	keystroke_n	n	n/a
39.9005	0.0905	79801	keystroke_s	s	n/a
40.291	0.104	80582	keystroke_p	p	n/a
40.426	0.0895	80852	keystroke_e	e	n/a
40.666	0.1045	81332	keystroke_c	c	n/a
41.041	0.0745	82082	keystroke_t	t	n/a
41.295	0.091	82590	keystroke_o	o	n/a
41.401	0.1045	82802	keystroke_r	r	n/a
42.195	0.075	84390	keystroke_Key.enter	Key.enter	n/a
42.277	6.0705	84554	prompt	n/a	moment loose trek publicity\n
43.14	0.061	86280	keystroke_m	m	n/a
43.2905	0.0905	86581	keystroke_o	o	n/a
43.4855	0.0745	86971	keystroke_m	m	n/a
43.59	0.105	87180	keystroke_e	e	n/a
43.711	0.075	87422	keystroke_n	n	n/a
43.816	0.105	87632	keystroke_t	t	n/a
43.89	0.1055	87780	keystroke_Key.space	Key.space	n/a
44.086	0.0745	88172	keystroke_l	l	n/a
44.2655	0.075	88531	keystroke_o	o	n/a
44.4155	0.09	88831	keystroke_o	o	n/a
44.5205	0.09	89041	keystroke_s	s	n/a
44.671	0.1195	89342	keystroke_e	e	n/a
44.76	0.1505	89520	keystroke_Key.space	Key.space	n/a
44.94	0.121	89880	keystroke_t	t	n/a
45.076	0.1045	90152	keystroke_r	r	n/a
45.3305	0.1055	90661	keystroke_e	e	n/a
45.4805	0.1045	90961	keystroke_k	k	n/a
45.66	0.09	91320	keystroke_Key.space	Key.space	n/a
45.9455	0.075	91891	keystroke_p	p	n/a
46.215	0.0755	92430	keystroke_u	u	n/a
46.4405	0.06	92881	keystroke_b	b	n/a
47.026	0.105	94052	keystroke_l	l	n/a
47.311	0.09	94622	keystroke_i	i	n/a
47.52	0.121	95040	keystroke_c	c	n/a
47.626	0.075	95252	keystroke_i	i	n/a
47.926	0.06	95852	keystroke_t	t	n/a
48.091	0.09	96182	keystroke_y	y	n/a
48.271	0.074	96542	keystroke_Key.enter	Key.enter	n/a
48.3525	6.7755	96705	prompt	n/a	arabic ensure evolution doll\n
49.0355	0.0895	98071	keystroke_a	a	n/a
49.23	0.1205	98460	keystroke_r	r	n/a
49.365	0.105	98730	keystroke_a	a	n/a
49.546	0.06	99092	keystroke_b	b	n/a
49.7405	0.075	99481	keystroke_i	i	n/a
49.831	0.1495	99662	keystroke_c	c	n/a
49.9955	0.06	99991	keystroke_Key.space	Key.space	n/a
50.296	0.09	100592	keystroke_e	e	n/a
50.401	0.0745	100802	keystroke_n	n	n/a
50.581	0.105	101162	keystroke_s	s	n/a
50.716	0.09	101432	keystroke_u	u	n/a
50.836	0.12	101672	keystroke_r	r	n/a
50.941	0.135	101882	keystroke_e	e	n/a
51.061	0.105	102122	keystroke_Key.space	Key.space	n/a
51.751	0.09	103502	keystroke_e	e	n/a
51.991	0.09	103982	keystroke_v	v	n/a
52.321	0.06	104642	keystroke_i	i	n/a
52.726	0.075	105452	keystroke_Key.backspace	Key.backspace	n/a
52.966	0.09	105932	keystroke_o	o	n/a
53.131	0.105	106262	keystroke_l	l	n/a
53.416	0.075	106832	keystroke_u	u	n/a
53.626	0.074	107252	keystroke_t	t	n/a
53.716	0.0895	107432	keystroke_i	i	n/a
53.9255	0.1505	107851	keystroke_o	o	n/a
54.0605	0.075	108121	keystroke_n	n	n/a
54.1205	0.12	108241	keystroke_Key.space	Key.space	n/a
54.4055	0.106	108811	keystroke_d	d	n/a
54.5115	0.0745	109023	keystroke_o	o	n/a
54.7055	0.0605	109411	keystroke_l	l	n/a
54.8415	0.074	109683	keystroke_l	l	n/a
55.036	0.0895	110072	keystroke_Key.enter	Key.enter	n/a
55.1345	5.277	110269	prompt	n/a	modeling fotos record by\n
55.771	0.075	111542	keystroke_m	m	n/a
56.026	0.015	112052	keystroke_o	o	n/a
56.086	0.09	112172	keystroke_d	d	n/a
56.311	0.089	112622	keystroke_e	e	n/a
56.416	0.075	112832	keystroke_l	l	n/a
57.091	0.135	114182	keystroke_i	i	n/a
57.196	0.105	114392	keystroke_n	n	n/a
57.2555	0.1055	114511	keystroke_g	g	n/a
57.3155	0.1195	114631	keystroke_Key.space	Key.space	n/a
57.511	0.105	115022	keystroke_f	f	n/a
57.661	0.075	115322	keystroke_o	o	n/a
57.9305	0.09	115861	keystroke_t	t	n/a
58.0655	0.09	116131	keystroke_o	o	n/a
58.2305	0.135	116461	keystroke_s	s	n/a
58.3505	0.105	116701	keystroke_Key.space	Key.space	n/a
58.6505	0.121	117301	keystroke_r	r	n/a
58.756	0.0895	117512	keystroke_e	e	n/a
59.0105	0.09	118021	keystroke_c	c	n/a
59.176	0.09	118352	keystroke_o	o	n/a
59.2955	0.09	118591	keystroke_r	r	n/a
59.506	0.12	119012	keystroke_d	d	n/a
59.611	0.09	119222	keystroke_Key.space	Key.space	n/a
59.911	0.075	119822	keystroke_b	b	n/a
60.091	0.075	120182	keystroke_y	y	n/a
60.316	0.09	120632	keystroke_Key.enter	Key.enter	n/a
60.418	8.0155	120836	prompt	n/a	explanation nano pictures storage\n
61.051	0.0745	122102	keystroke_e	e	n/a
61.26	0.1205	122520	keystroke_x	x	n/a
61.471	0.1645	122942	keystroke_p	p	n/a
61.9055	0.1505	123811	keystroke_l	l	n/a
62.131	0.105	124262	keystroke_a	a	n/a
62.2955	0.061	124591	keystroke_n	n	n/a
62.3705	0.0755	124741	keystroke_a	a	n/a
62.701	0.09	125402	keystroke_t	t	n/a
62.8655	0.0755	125731	keystroke_i	i	n/a
63.075	0.106	126150	keystroke_o	o	n/a
63.151	0.09	126302	keystroke_n	n	n/a
63.226	0.1045	126452	keystroke_Key.space	Key.space	n/a
63.391	0.09	126782	keystroke_n	n	n/a
63.4355	0.105	126871	keystroke_a	a	n/a
63.7805	0.09	127561	keystroke_n	n	n/a
63.9905	0.091	127981	keystroke_o	o	n/a
64.096	0.1045	128192	keystroke_Key.space	Key.space	n/a
64.5155	0.09	129031	keystroke_p	p	n/a
64.77	0.075	129540	keystroke_i	i	n/a
64.861	0.104	129722	keystroke_c	c	n/a
65.2205	0.075	130441	keystroke_t	t	n/a
65.3705	0.09	130741	keystroke_u	u	n/a
65.4755	0.121	130951	keystroke_r	r	n/a
65.581	0.195	131162	keystroke_e	e	n/a
65.7455	0.1505	131491	keystroke_s	s	n/a
65.881	0.104	131762	keystroke_Key.space	Key.space	n/a
66.2105	0.09	132421	keystroke_t	t	n/a
66.6005	0.09	133201	keystroke_Key.backspace	Key.backspace	n/a
66.6755	0.09	133351	keystroke_s	s	n/a
66.855	0.09	133710	keystroke_t	t	n/a
67.006	0.075	134012	keystroke_o	o	n/a
67.1565	0.1195	134313	keystroke_r	r	n/a
67.6355	0.105	135271	keystroke_a	a	n/a
67.7855	0.12	135571	keystroke_g	g	n/a
67.9215	0.1195	135843	keystroke_e	e	n/a
68.3405	0.09	136681	keystroke_Key.enter	Key.enter	n/a
68.437	11.0205	136874	prompt	n/a	practitioners earth wordpress legacy\n
69.151	0.09	138302	keystroke_p	p	n/a
69.256	0.12	138512	keystroke_r	r	n/a
69.436	0.105	138872	keystroke_a	a	n/a
69.676	0.09	139352	keystroke_c	c	n/a
69.946	0.0605	139892	keystroke_t	t	n/a
70.0805	0.0905	140161	keystroke_i	i	n/a
70.4105	0.1055	140821	keystroke_v	v	n/a
70.951	0.09	141902	keystroke_Key.backspace	Key.backspace	n/a
71.161	0.075	142322	keystroke_t	t	n/a
71.326	0.089	142652	keystroke_i	i	n/a
72.406	0.1055	144812	keystroke_o	o	n/a
72.6015	0.1045	145203	keystroke_n	n	n/a
73.021	0.12	146042	keystroke_r	r	n/a
73.321	0.135	146642	keystroke_s	s	n/a
73.861	0.075	147722	keystroke_Key.backspace	Key.backspace	n/a
73.996	0.075	147992	keystroke_Key.backspace	Key.backspace	n/a
74.056	0.165	148112	keystroke_e	e	n/a
74.191	0.135	148382	keystroke_r	r	n/a
74.3415	0.12	148683	keystroke_s	s	n/a
74.431	0.135	148862	keystroke_Key.space	Key.space	n/a
74.701	0.165	149402	keystroke_e	e	n/a
74.851	0.1345	149702	keystroke_a	a	n/a
75.0005	0.09	150001	keystroke_r	r	n/a
75.2405	0.09	150481	keystroke_t	t	n/a
75.3915	0.0885	150783	keystroke_h	h	n/a
75.496	0.1045	150992	keystroke_Key.space	Key.space	n/a
75.8405	0.105	151681	keystroke_w	w	n/a
75.961	0.1045	151922	keystroke_o	o	n/a
76.0805	0.075	152161	keystroke_r	r	n/a
76.276	0.0755	152552	keystroke_d	d	n/a
76.411	0.105	152822	keystroke_p	p	n/a
76.531	0.105	153062	keystroke_r	r	n/a
76.62	0.1065	153240	keystroke_e	e	n/a
76.8015	0.089	153603	keystroke_s	s	n/a
76.996	0.12	153992	keystroke_s	s	n/a
77.131	0.119	154262	keystroke_Key.space	Key.space	n/a
77.356	0.0905	154712	keystroke_l	l	n/a
77.416	0.1045	154832	keystroke_e	e	n/a
78.0905	0.195	156181	keystroke_g	g	n/a
78.301	0.015	156602	keystroke_a	a	n/a
78.406	0.0755	156812	keystroke_c	c	n/a
78.556	0.075	157112	keystroke_y	y	n/a
79.3805	0.0755	158761	keystroke_Key.enter	Key.enter	n/a
79.462	7.391	158924	prompt	n/a	discussion corp provinces timber\n
80.221	0.105	160442	keystroke_d	d	n/a
80.34	0.091	160680	keystroke_i	i	n/a
80.446	0.09	160892	keystroke_s	s	n/a
80.611	0.104	161222	keystroke_c	c	n/a
80.776	0.0445	161552	keystroke_u	u	n/a
80.8805	0.09	161761	keystroke_s	s	n/a
81.031	0.105	162062	keystroke_s	s	n/a
81.151	0.0745	162302	keystroke_i	i	n/a
81.3605	0.1355	162721	keystroke_o	o	n/a
81.4505	0.09	162901	keystroke_n	n	n/a
81.5415	0.089	163083	keystroke_Key.space	Key.space	n/a
81.7055	0.12	163411	keystroke_c	c	n/a
81.8705	0.0905	163741	keystroke_o	o	n/a
82.066	0.09	164132	keystroke_r	r	n/a
82.1855	0.0755	164371	keystroke_p	p	n/a
82.321	0.09	164642	keystroke_Key.space	Key.space	n/a
83.4165	0.089	166833	keystroke_c	c	n/a
83.7905	0.0755	167581	keystroke_Key.backspace	Key.backspace	n/a
84.0755	0.016	168151	keystroke_p	p	n/a
84.1505	0.105	168301	keystroke_r	r	n/a
84.4655	0.09	168931	keystroke_o	o	n/a
84.676	0.0895	169352	keystroke_v	v	n/a
84.871	0.0895	169742	keystroke_i	i	n/a
85.051	0.0895	170102	keystroke_n	n	n/a
85.1565	0.105	170313	keystroke_c	c	n/a
85.426	0.135	170852	keystroke_e	e	n/a
85.515	0.151	171030	keystroke_s	s	n/a
85.6355	0.105	171271	keystroke_Key.space	Key.space	n/a
85.8005	0.091	171601	keystroke_t	t	n/a
85.921	0.119	171842	keystroke_i	i	n/a
85.9955	0.12	171991	keystroke_m	m	n/a
86.461	0.075	172922	keystroke_b	b	n/a
86.5205	0.1505	173041	keystroke_e	e	n/a
86.641	0.1045	173282	keystroke_r	r	n/a
86.746	0.1045	173492	keystroke_Key.enter	Key.enter	n/a
86.858	9.4595	173716	prompt	n/a	geology mightn't split assignment\n
87.796	0.075	175592	keystroke_g	g	n/a
87.916	0.12	175832	keystroke_e	e	n/a
88.0515	0.0595	176103	keystroke_o	o	n/a
88.816	0.104	177632	keystroke_l	l	n/a
89.056	0.074	178112	keystroke_o	o	n/a
89.2805	0.105	178561	keystroke_g	g	n/a
89.5355	0.0755	179071	keystroke_y	y	n/a
89.6855	0.105	179371	keystroke_Key.space	Key.space	n/a
90.031	0.0895	180062	keystroke_m	m	n/a
90.2105	0.0755	180421	keystroke_i	i	n/a
90.301	0.075	180602	keystroke_g	g	n/a
90.466	0.0755	180932	keystroke_h	h	n/a
90.5415	0.0895	181083	keystroke_t	t	n/a
91.336	0.0895	182672	keystroke_n	n	n/a
91.591	0.1045	183182	keystroke_'	'	n/a
91.996	0.1195	183992	keystroke_t	t	n/a
92.1455	0.121	184291	keystroke_Key.space	Key.space	n/a
92.6405	0.1055	185281	keystroke_s	s	n/a
92.7605	0.12	185521	keystroke_p	p	n/a
92.8505	0.105	185701	keystroke_l	l	n/a
93.076	0.1045	186152	keystroke_i	i	n/a
93.166	0.1045	186332	keystroke_t	t	n/a
93.256	0.0745	186512	keystroke_Key.space	Key.space	n/a
93.6005	0.105	187201	keystroke_a	a	n/a
93.8705	0.0455	187741	keystroke_s	s	n/a
94.006	0.1045	188012	keystroke_s	s	n/a
94.1255	0.105	188251	keystroke_i	i	n/a
94.591	0.09	189182	keystroke_g	g	n/a
94.786	0.075	189572	keystroke_n	n	n/a
95.1165	0.0735	190233	keystroke_e	e	n/a
95.49	0.075	190980	keystroke_Key.backspace	Key.backspace	n/a
95.745	0.076	191490	keystroke_m	m	n/a
95.8355	0.105	191671	keystroke_e	e	n/a
95.9715	0.0445	191943	keystroke_n	n	n/a
96.0765	0.0745	192153	keystroke_t	t	n/a
96.226	0.09	192452	keystroke_Key.enter	Key.enter	n/a
96.3225	8.0805	192645	prompt	n/a	altered millennium trips ranging\n
97.066	0.105	194132	keystroke_a	a	n/a
97.366	0.12	194732	keystroke_l	l	n/a
97.471	0.09	194942	keystroke_t	t	n/a
97.6505	0.15	195301	keystroke_e	e	n/a
97.786	0.119	195572	keystroke_r	r	n/a
97.921	0.074	195842	keystroke_e	e	n/a
98.1455	0.1055	196291	keystroke_d	d	n/a
98.2655	0.1045	196531	keystroke_Key.space	Key.space	n/a
98.566	0.105	197132	keystroke_m	m	n/a
98.7905	0.076	197581	keystroke_i	i	n/a
99.0005	0.0755	198001	keystroke_l	l	n/a
99.1355	0.09	198271	keystroke_l	l	n/a
99.3005	0.09	198601	keystroke_e	e	n/a
99.3915	0.089	198783	keystroke_n	n	n/a
99.796	0.0895	199592	keystroke_n	n	n/a
100.276	0.105	200552	keystroke_i	i	n/a
100.516	0.0605	201032	keystroke_u	u	n/a
100.7705	0.075	201541	keystroke_m	m	n/a
100.8605	0.135	201721	keystroke_Key.space	Key.space	n/a
101.0855	0.1205	202171	keystroke_t	t	n/a
101.206	0.1195	202412	keystroke_r	r	n/a
101.341	0.0895	202682	keystroke_i	i	n/a
101.5805	0.105	203161	keystroke_p	p	n/a
101.6555	0.12	203311	keystroke_s	s	n/a
101.7305	0.135	203461	keystroke_Key.space	Key.space	n/a
101.9405	0.18	203881	keystroke_r	r	n/a
102.1055	0.105	204211	keystroke_a	a	n/a
102.2255	0.075	204451	keystroke_n	n	n/a
102.331	0.09	204662	keystroke_g	g	n/a
102.841	0.09	205682	keystroke_i	i	n/a
103.036	0.06	206072	keystroke_g	g	n/a
103.71	0.091	207420	keystroke_Key.backspace	Key.backspace	n/a
103.981	0.075	207962	keystroke_n	n	n/a
104.071	0.075	208142	keystroke_g	g	n/a
104.296	0.105	208592	keystroke_Key.enter	Key.enter	n/a
104.407	15.7005	208814	prompt	n/a	excluding receiver controversial conditions\n
105.1505	0.0755	210301	keystroke_e	e	n/a
105.39	0.12	210780	keystroke_x	x	n/a
105.6005	0.12	211201	keystroke_p	p	n/a
105.676	0.1195	211352	keystroke_l	l	n/a
106.08	0.06	212160	keystroke_Key.backspace	Key.backspace	n/a
106.2155	0.0605	212431	keystroke_Key.backspace	Key.backspace	n/a
106.306	0.1045	212612	keystroke_c	c	n/a
106.486	0.0295	212972	keystroke_l	l	n/a
106.785	0.106	213570	keystroke_u	u	n/a
107.026	0.09	214052	keystroke_d	d	n/a
107.386	0.18	214772	keystroke_i	i	n/a
108.301	0.089	216602	keystroke_g	g	n/a
108.691	0.0595	217382	keystroke_Key.backspace	Key.backspace	n/a
108.9455	0.0605	217891	keystroke_n	n	n/a
108.9905	0.135	217981	keystroke_g	g	n/a
109.066	0.1195	218132	keystroke_Key.space	Key.space	n/a
109.3055	0.09	218611	keystroke_r	r	n/a
109.3805	0.12	218761	keystroke_e	e	n/a
109.6505	0.1055	219301	keystroke_c	c	n/a
109.891	0.089	219782	keystroke_e	e	n/a
110.055	0.105	220110	keystroke_i	i	n/a
110.236	0.0895	220472	keystroke_v	v	n/a
110.5055	0.1205	221011	keystroke_e	e	n/a
111.796	0.105	223592	keystroke_Key.space	Key.space	n/a
112.516	0.0595	225032	keystroke_r	r	n/a
112.621	0.0895	225242	keystroke_Key.backspace	Key.backspace	n/a
112.7855	0.09	225571	keystroke_Key.backspace	Key.backspace	n/a
112.936	0.1195	225872	keystroke_r	r	n/a
113.0405	0.105	226081	keystroke_Key.space	Key.space	n/a
113.8505	0.0455	227701	keystroke_c	c	n/a
113.971	0.165	227942	keystroke_o	o	n/a
114.0905	0.12	228181	keystroke_n	n	n/a
114.286	0.12	228572	keystroke_t	t	n/a
114.421	0.1345	228842	keystroke_r	r	n/a
114.5405	0.09	229081	keystroke_o	o	n/a
114.781	0.0895	229562	keystroke_v	v	n/a
115.021	0.105	230042	keystroke_e	e	n/a
115.081	0.12	230162	keystroke_r	r	n/a
115.306	0.09	230612	keystroke_i	i	n/a
115.426	0.09	230852	keystroke_s	s	n/a
116.116	0.1345	232232	keystroke_a	a	n/a
116.461	0.075	232922	keystroke_Key.backspace	Key.backspace	n/a
116.6105	0.06	233221	keystroke_Key.backspace	Key.backspace	n/a
116.7305	0.075	233461	keystroke_Key.backspace	Key.backspace	n/a
116.8805	0.12	233761	keystroke_s	s	n/a
117.0605	0.09	234121	keystroke_i	i	n/a
117.2105	0.106	234421	keystroke_a	a	n/a
117.3455	0.09	234691	keystroke_l	l	n/a
117.4805	0.105	234961	keystroke_Key.space	Key.space	n/a
117.766	0.09	235532	keystroke_c	c	n/a
117.871	0.09	235742	keystroke_o	o	n/a
117.931	0.09	235862	keystroke_n	n	n/a
118.096	0.135	236192	keystroke_s	s	n/a
118.606	0.09	237212	keystroke_Key.backspace	Key.backspace	n/a
118.7115	0.1045	237423	keystroke_d	d	n/a
118.876	0.105	237752	keystroke_i	i	n/a
119.071	0.09	238142	keystroke_t	t	n/a
119.1755	0.0905	238351	keystroke_i	i	n/a
119.371	0.15	238742	keystroke_o	o	n/a
119.5055	0.09	239011	keystroke_n	n	n/a
119.6105	0.1055	239221	keystroke_s	s	n/a
120.016	0.09	240032	keystroke_Key.enter	Key.enter	n/a
120.112	10.7205	240224	prompt	n/a	replication stamps frost municipal\n
120.856	0.135	241712	keystroke_r	r	n/a
121.005	0.1055	242010	keystroke_e	e	n/a
121.291	0.1645	242582	keystroke_p	p	n/a
121.4405	0.135	242881	keystroke_l	l	n/a
121.666	0.105	243332	keystroke_e	e	n/a
122.0705	0.075	244141	keystroke_Key.backspace	Key.backspace	n/a
122.3255	0.075	244651	keystroke_i	i	n/a
122.3705	0.135	244741	keystroke_c	c	n/a
122.4905	0.1055	244981	keystroke_a	a	n/a
122.716	0.0745	245432	keystroke_t	t	n/a
122.8205	0.0755	245641	keystroke_i	i	n/a
123.0005	0.135	246001	keystroke_o	o	n/a
123.0915	0.1045	246183	keystroke_n	n	n/a
123.1805	0.1655	246361	keystroke_Key.space	Key.space	n/a
123.346	0.105	246692	keystroke_s	s	n/a
123.556	0.075	247112	keystroke_t	t	n/a
123.646	0.105	247292	keystroke_a	a	n/a
123.766	0.09	247532	keystroke_m	m	n/a
123.961	0.105	247922	keystroke_p	p	n/a
124.066	0.105	248132	keystroke_s	s	n/a
124.141	0.105	248282	keystroke_Key.space	Key.space	n/a
124.441	0.09	248882	keystroke_f	f	n/a
124.711	0.09	249422	keystroke_r	r	n/a
125.596	0.09	251192	keystroke_o	o	n/a
125.731	0.105	251462	keystroke_s	s	n/a
125.971	0.0895	251942	keystroke_t	t	n/a
126.031	0.1055	252062	keystroke_Key.space	Key.space	n/a
126.346	0.0895	252692	keystroke_m	m	n/a
126.706	0.0745	253412	keystroke_n	n	n/a
127.126	0.075	254252	keystroke_Key.backspace	Key.backspace	n/a
127.4705	0.0905	254941	keystroke_u	u	n/a
127.5455	0.091	255091	keystroke_n	n	n/a
127.7265	0.089	255453	keystroke_i	i	n/a
127.951	0.1045	255902	keystroke_c	c	n/a
129.2105	0.075	258421	keystroke_i	i	n/a
129.6905	0.09	259381	keystroke_p	p	n/a
129.8405	0.105	259681	keystroke_a	a	n/a
129.9755	0.1055	259951	keystroke_l	l	n/a
130.171	0.12	260342	keystroke_Key.space	Key.space	n/a
130.531	0.075	261062	keystroke_Key.backspace	Key.backspace	n/a
130.726	0.104	261452	keystroke_Key.enter	Key.enter	n/a
130.8385	6.999	261677	prompt	n/a	forecasts tampa kept textbooks\n
131.641	0.09	263282	keystroke_f	f	n/a
131.791	0.105	263582	keystroke_o	o	n/a
131.866	0.135	263732	keystroke_r	r	n/a
131.986	0.105	263972	keystroke_e	e	n/a
132.286	0.09	264572	keystroke_c	c	n/a
132.421	0.12	264842	keystroke_a	a	n/a
132.6755	0.09	265351	keystroke_s	s	n/a
133.066	0.015	266132	keystroke_t	t	n/a
133.1405	0.1505	266281	keystroke_s	s	n/a
133.261	0.1345	266522	keystroke_Key.space	Key.space	n/a
133.606	0.104	267212	keystroke_t	t	n/a
133.726	0.1505	267452	keystroke_a	a	n/a
133.831	0.075	267662	keystroke_m	m	n/a
134.026	0.105	268052	keystroke_p	p	n/a
134.2055	0.1205	268411	keystroke_a	a	n/a
134.296	0.1345	268592	keystroke_Key.space	Key.space	n/a
134.821	0.09	269642	keystroke_k	k	n/a
134.9255	0.105	269851	keystroke_e	e	n/a
135.0905	0.1055	270181	keystroke_p	p	n/a
135.3005	0.105	270601	keystroke_t	t	n/a
135.376	0.1195	270752	keystroke_Key.space	Key.space	n/a
135.9005	0.105	271801	keystroke_t	t	n/a
136.0205	0.1055	272041	keystroke_e	e	n/a
136.2455	0.1045	272491	keystroke_x	x	n/a
136.501	0.06	273002	keystroke_t	t	n/a
136.966	0.06	273932	keystroke_b	b	n/a
137.1755	0.075	274351	keystroke_o	o	n/a
137.3105	0.18	274621	keystroke_o	o	n/a
137.4605	0.105	274921	keystroke_k	k	n/a
137.5805	0.12	275161	keystroke_s	s	n/a
137.7455	0.09	275491	keystroke_Key.enter	Key.enter	n/a
137.8425	10.345	275685	prompt	n/a	overview tournaments distributors commissioner\n
138.616	0.075	277232	keystroke_o	o	n/a
138.706	0.075	277412	keystroke_v	v	n/a
138.916	0.1195	277832	keystroke_e	e	n/a
138.9905	0.091	277981	keystroke_r	r	n/a
139.636	0.1195	279272	keystroke_v	v	n/a
139.9805	0.09	279961	keystroke_i	i	n/a
140.1305	0.12	280261	keystroke_e	e	n/a
140.2355	0.135	280471	keystroke_w	w	n/a
140.3555	0.1055	280711	keystroke_Key.space	Key.space	n/a
140.7615	0.0445	281523	keystroke_t	t	n/a
140.926	0.09	281852	keystroke_o	o	n/a
141.136	0.0895	282272	keystroke_u	u	n/a
141.2405	0.0755	282481	keystroke_r	r	n/a
141.3755	0.105	282751	keystroke_n	n	n/a
141.496	0.09	282992	keystroke_a	a	n/a
141.7205	0.0905	283441	keystroke_m	m	n/a
141.8705	0.06	283741	keystroke_e	e	n/a
141.9755	0.105	283951	keystroke_n	n	n/a
142.216	0.1195	284432	keystroke_t	t	n/a
142.5	0.121	285000	keystroke_s	s	n/a
142.6355	0.09	285271	keystroke_Key.space	Key.space	n/a
143.086	0.134	286172	keystroke_d	d	n/a
143.2355	0.1045	286471	keystroke_i	i	n/a
143.535	0.136	287070	keystroke_s	s	n/a
143.866	0.12	287732	keystroke_t	t	n/a
144	0.135	288000	keystroke_r	r	n/a
144.315	0.09	288630	keystroke_i	i	n/a
144.586	0.089	289172	keystroke_b	b	n/a
144.78	0.076	289560	keystroke_u	u	n/a
145.125	0.09	290250	keystroke_t	t	n/a
145.366	0.105	290732	keystroke_o	o	n/a
145.4715	0.1195	290943	keystroke_r	r	n/a
145.636	0.135	291272	keystroke_s	s	n/a
145.741	0.1045	291482	keystroke_Key.space	Key.space	n/a
146.01	0.091	292020	keystroke_c	c	n/a
146.131	0.09	292262	keystroke_o	o	n/a
146.326	0.09	292652	keystroke_m	m	n/a
146.476	0.09	292952	keystroke_m	m	n/a
146.701	0.105	293402	keystroke_i	i	n/a
146.881	0.09	293762	keystroke_s	s	n/a
147.046	0.09	294092	keystroke_s	s	n/a
147.166	0.09	294332	keystroke_i	i	n/a
147.406	0.15	294812	keystroke_o	o	n/a
147.571	0.09	295142	keystroke_n	n	n/a
147.751	0.1505	295502	keystroke_e	e	n/a
147.8855	0.12	295771	keystroke_r	r	n/a
148.096	0.09	296192	keystroke_Key.enter	Key.enter	n/a
148.19	8.0225	296380	prompt	n/a	screening mcdonald southeast base\n
148.8155	0.1205	297631	keystroke_s	s	n/a
148.981	0.105	297962	keystroke_c	c	n/a
149.236	0.119	298472	keystroke_r	r	n/a
149.34	0.09	298680	keystroke_e	e	n/a
149.505	0.091	299010	keystroke_e	e	n/a
149.701	0.075	299402	keystroke_n	n	n/a
149.985	0.106	299970	keystroke_i	i	n/a
150.0605	0.12	300121	keystroke_n	n	n/a
150.135	0.12	300270	keystroke_g	g	n/a
150.226	0.105	300452	keystroke_Key.space	Key.space	n/a
150.4815	0.0895	300963	keystroke_m	m	n/a
150.601	0.1055	301202	keystroke_c	c	n/a
150.886	0.075	301772	keystroke_d	d	n/a
151.066	0.1045	302132	keystroke_o	o	n/a
151.1555	0.1055	302311	keystroke_n	n	n/a
151.3055	0.075	302611	keystroke_a	a	n/a
151.4265	0.104	302853	keystroke_l	l	n/a
151.591	0.12	303182	keystroke_d	d	n/a
151.741	0.12	303482	keystroke_Key.space	Key.space	n/a
152.595	0.121	305190	keystroke_s	s	n/a
152.701	0.06	305402	keystroke_o	o	n/a
152.911	0.06	305822	keystroke_u	u	n/a
153.016	0.105	306032	keystroke_t	t	n/a
153.1365	0.089	306273	keystroke_h	h	n/a
153.271	0.15	306542	keystroke_e	e	n/a
153.4355	0.1205	306871	keystroke_a	a	n/a
153.646	0.1045	307292	keystroke_t	t	n/a
153.8105	0.12	307621	keystroke_Key.space	Key.space	n/a
154.425	0.0755	308850	keystroke_Key.backspace	Key.backspace	n/a
154.575	0.061	309150	keystroke_Key.backspace	Key.backspace	n/a
154.68	0.105	309360	keystroke_s	s	n/a
154.935	0.106	309870	keystroke_t	t	n/a
155.011	0.104	310022	keystroke_Key.space	Key.space	n/a
155.37	0.061	310740	keystroke_b	b	n/a
155.46	0.091	310920	keystroke_a	a	n/a
155.6705	0.1045	311341	keystroke_s	s	n/a
155.821	0.1495	311642	keystroke_e	e	n/a
156.1055	0.105	312211	keystroke_Key.enter	Key.enter	n/a
156.217	5.545	312434	prompt	n/a	slides camera prepared buddy\n
156.8855	0.105	313771	keystroke_s	s	n/a
157.0955	0.09	314191	keystroke_l	l	n/a
157.336	0.0895	314672	keystroke_i	i	n/a
157.3955	0.105	314791	keystroke_d	d	n/a
157.6355	0.12	315271	keystroke_e	e	n/a
157.7405	0.105	315481	keystroke_s	s	n/a
157.816	0.1195	315632	keystroke_Key.space	Key.space	n/a
158.0705	0.105	316141	keystroke_c	c	n/a
158.191	0.1045	316382	keystroke_a	a	n/a
158.3255	0.09	316651	keystroke_m	m	n/a
158.4605	0.165	316921	keystroke_e	e	n/a
158.5955	0.165	317191	keystroke_r	r	n/a
158.7455	0.1505	317491	keystroke_a	a	n/a
158.8505	0.12	317701	keystroke_Key.space	Key.space	n/a
159.3755	0.105	318751	keystroke_p	p	n/a
159.5105	0.12	319021	keystroke_r	r	n/a
159.6005	0.105	319201	keystroke_e	e	n/a
159.7355	0.09	319471	keystroke_p	p	n/a
159.9005	0.09	319801	keystroke_a	a	n/a
160.1255	0.075	320251	keystroke_r	r	n/a
160.2455	0.0745	320491	keystroke_e	e	n/a
160.4405	0.135	320881	keystroke_d	d	n/a
160.5605	0.0895	321121	keystroke_Key.space	Key.space	n/a
160.981	0.074	321962	keystroke_b	b	n/a
161.145	0.0755	322290	keystroke_u	u	n/a
161.205	0.09	322410	keystroke_d	d	n/a
161.3405	0.105	322681	keystroke_d	d	n/a
161.4605	0.0455	322921	keystroke_y	y	n/a
161.656	0.105	323312	keystroke_Key.enter	Key.enter	n/a
161.767	6.6255	323534	prompt	n/a	maternity driver reservations flat\n
162.391	0.09	324782	keystroke_m	m	n/a
162.5855	0.12	325171	keystroke_a	a	n/a
162.8105	0.075	325621	keystroke_t	t	n/a
162.931	0.135	325862	keystroke_e	e	n/a
163.035	0.091	326070	keystroke_r	r	n/a
163.216	0.09	326432	keystroke_n	n	n/a
163.4405	0.075	326881	keystroke_i	i	n/a
163.6205	0.0755	327241	keystroke_t	t	n/a
163.801	0.09	327602	keystroke_y	y	n/a
163.8755	0.0905	327751	keystroke_Key.space	Key.space	n/a
164.1905	0.09	328381	keystroke_d	d	n/a
164.3705	0.09	328741	keystroke_r	r	n/a
164.5055	0.09	329011	keystroke_i	i	n/a
164.6105	0.0905	329221	keystroke_v	v	n/a
164.8055	0.15	329611	keystroke_e	e	n/a
164.9105	0.105	329821	keystroke_r	r	n/a
164.9855	0.0895	329971	keystroke_Key.space	Key.space	n/a
165.151	0.119	330302	keystroke_r	r	n/a
165.2555	0.1505	330511	keystroke_e	e	n/a
165.42	0.1055	330840	keystroke_s	s	n/a
165.886	0.149	331772	keystroke_e	e	n/a
166.0505	0.105	332101	keystroke_r	r	n/a
166.666	0.1195	333332	keystroke_v	v	n/a
166.8305	0.105	333661	keystroke_a	a	n/a
167.026	0.0745	334052	keystroke_t	t	n/a
167.146	0.0745	334292	keystroke_i	i	n/a
167.3405	0.135	334681	keystroke_o	o	n/a
167.4455	0.0905	334891	keystroke_n	n	n/a
167.506	0.12	335012	keystroke_s	s	n/a
167.5805	0.12	335161	keystroke_Key.space	Key.space	n/a
167.7455	0.09	335491	keystroke_f	f	n/a
167.8355	0.105	335671	keystroke_l	l	n/a
167.9255	0.105	335851	keystroke_a	a	n/a
168.1355	0.0905	336271	keystroke_t	t	n/a
168.2705	0.12	336541	keystroke_Key.enter	Key.enter	n/a
168.3965	6.6855	336793	prompt	n/a	physics carrier enabling fast\n
169.305	0.106	338610	keystroke_p	p	n/a
169.62	0.03	339240	keystroke_h	h	n/a
169.8	0.105	339600	keystroke_y	y	n/a
170.311	0.0895	340622	keystroke_s	s	n/a
170.491	0.09	340982	keystroke_i	i	n/a
170.73	0.121	341460	keystroke_c	c	n/a
170.9705	0.1205	341941	keystroke_s	s	n/a
171.0755	0.105	342151	keystroke_Key.space	Key.space	n/a
171.3905	0.09	342781	keystroke_c	c	n/a
171.526	0.1195	343052	keystroke_a	a	n/a
171.735	0.061	343470	keystroke_r	r	n/a
171.856	0.09	343712	keystroke_r	r	n/a
172.006	0.105	344012	keystroke_i	i	n/a
172.126	0.1495	344252	keystroke_e	e	n/a
172.261	0.1345	344522	keystroke_r	r	n/a
172.3655	0.12	344731	keystroke_Key.space	Key.space	n/a
172.5455	0.105	345091	keystroke_e	e	n/a
172.6655	0.09	345331	keystroke_n	n	n/a
173.07	0.1355	346140	keystroke_a	a	n/a
173.2355	0.045	346471	keystroke_b	b	n/a
173.4155	0.1055	346831	keystroke_l	l	n/a
173.746	0.135	347492	keystroke_i	i	n/a
173.836	0.12	347672	keystroke_n	n	n/a
173.956	0.105	347912	keystroke_g	g	n/a
174.031	0.1495	348062	keystroke_Key.space	Key.space	n/a
174.2855	0.135	348571	keystroke_f	f	n/a
174.4215	0.104	348843	keystroke_a	a	n/a
174.6305	0.09	349261	keystroke_s	s	n/a
174.8555	0.09	349711	keystroke_t	t	n/a
174.9755	0.105	349951	keystroke_Key.enter	Key.enter	n/a
175.087	7.36	350174	prompt	n/a	oriental skill agreed subdivision\n
175.831	0.089	351662	keystroke_o	o	n/a
175.98	0.091	351960	keystroke_r	r	n/a
176.13	0.0755	352260	keystroke_i	i	n/a
176.2805	0.105	352561	keystroke_e	e	n/a
176.445	0.0755	352890	keystroke_n	n	n/a
176.6105	0.06	353221	keystroke_t	t	n/a
176.7155	0.12	353431	keystroke_a	a	n/a
176.881	0.0595	353762	keystroke_l	l	n/a
176.9255	0.105	353851	keystroke_Key.space	Key.space	n/a
177.076	0.1345	354152	keystroke_s	s	n/a
177.2255	0.03	354451	keystroke_k	k	n/a
177.3305	0.075	354661	keystroke_i	i	n/a
177.5555	0.06	355111	keystroke_l	l	n/a
177.6605	0.0895	355321	keystroke_l	l	n/a
177.72	0.1355	355440	keystroke_Key.space	Key.space	n/a
177.87	0.106	355740	keystroke_a	a	n/a
178.05	0.105	356100	keystroke_g	g	n/a
178.23	0.09	356460	keystroke_r	r	n/a
178.441	0.074	356882	keystroke_e	e	n/a
178.575	0.0905	357150	keystroke_e	e	n/a
178.786	0.12	357572	keystroke_d	d	n/a
178.86	0.1655	357720	keystroke_Key.space	Key.space	n/a
179.0405	0.075	358081	keystroke_s	s	n/a
179.2055	0.1055	358411	keystroke_u	u	n/a
179.2955	0.09	358591	keystroke_b	b	n/a
179.8355	0.105	359671	keystroke_d	d	n/a
179.9705	0.09	359941	keystroke_i	i	n/a
180.8255	0.105	361651	keystroke_v	v	n/a
181.0955	0.0755	362191	keystroke_i	i	n/a
181.4405	0.105	362881	keystroke_s	s	n/a
181.606	0.075	363212	keystroke_i	i	n/a
181.8155	0.15	363631	keystroke_o	o	n/a
181.9205	0.12	363841	keystroke_n	n	n/a
182.3555	0.09	364711	keystroke_Key.enter	Key.enter	n/a
182.4505	9.146	364901	prompt	n/a	represents winston chelsea crop\n
183.0455	0.075	366091	keystroke_r	r	n/a
183.5105	0.075	367021	keystroke_e	e	n/a
183.63	0.0905	367260	keystroke_p	p	n/a
183.8855	0.15	367771	keystroke_r	r	n/a
183.991	0.1345	367982	keystroke_e	e	n/a
184.2155	0.12	368431	keystroke_s	s	n/a
184.4705	0.06	368941	keystroke_e	e	n/a
184.621	0.089	369242	keystroke_n	n	n/a
184.83	0.076	369660	keystroke_t	t	n/a
184.966	0.12	369932	keystroke_s	s	n/a
185.04	0.12	370080	keystroke_Key.space	Key.space	n/a
185.491	0.104	370982	keystroke_w	w	n/a
185.6855	0.09	371371	keystroke_i	i	n/a
185.76	0.076	371520	keystroke_n	n	n/a
185.8655	0.105	371731	keystroke_s	s	n/a
186.1805	0.105	372361	keystroke_t	t	n/a
186.3755	0.12	372751	keystroke_o	o	n/a
186.45	0.1055	372900	keystroke_n	n	n/a
186.5855	0.105	373171	keystroke_Key.space	Key.space	n/a
187.081	0.1045	374162	keystroke_c	c	n/a
187.275	0.061	374550	keystroke_h	h	n/a
187.44	0.106	374880	keystroke_e	e	n/a
187.8605	0.09	375721	keystroke_l	l	n/a
188.115	0.105	376230	keystroke_s	s	n/a
188.3855	0.105	376771	keystroke_e	e	n/a
188.55	0.15	377100	keystroke_a	a	n/a
188.6705	0.1355	377341	keystroke_Key.space	Key.space	n/a
189.135	0.105	378270	keystroke_c	c	n/a
189.406	0.09	378812	keystroke_r	r	n/a
189.54	0.075	379080	keystroke_i	i	n/a
190.56	0.0905	381120	keystroke_Key.backspace	Key.backspace	n/a
190.861	0.0595	381722	keystroke_i	i	n/a
191.0555	0.105	382111	keystroke_p	p	n/a
191.46	0.1355	382920	keystroke_Key.enter	Key.enter	n/a
191.5995	4.4825	383199	prompt	n/a	read print bugs saver\n
192.585	0.1505	385170	keystroke_r	r	n/a
192.7055	0.1055	385411	keystroke_e	e	n/a
192.7955	0.15	385591	keystroke_a	a	n/a
192.9605	0.1055	385921	keystroke_d	d	n/a
193.05	0.12	386100	keystroke_Key.space	Key.space	n/a
193.336	0.119	386672	keystroke_p	p	n/a
193.471	0.09	386942	keystroke_r	r	n/a
193.681	0.09	387362	keystroke_i	i	n/a
193.755	0.106	387510	keystroke_n	n	n/a
193.846	0.09	387692	keystroke_t	t	n/a
193.89	0.12	387780	keystroke_Key.space	Key.space	n/a
194.1755	0.0905	388351	keystroke_b	b	n/a
194.371	0.0595	388742	keystroke_u	u	n/a
194.4455	0.075	388891	keystroke_g	g	n/a
194.5055	0.12	389011	keystroke_s	s	n/a
194.6105	0.15	389221	keystroke_Key.space	Key.space	n/a
194.7905	0.12	389581	keystroke_s	s	n/a
195.3455	0.105	390691	keystroke_a	a	n/a
195.5255	0.09	391051	keystroke_v	v	n/a
195.7205	0.12	391441	keystroke_e	e	n/a
195.8255	0.0905	391651	keystroke_r	r	n/a
195.961	0.119	391922	keystroke_Key.enter	Key.enter	n/a
196.0865	9.371	392173	prompt	n/a	engineer duncan represented rounds\n
196.785	0.091	393570	keystroke_e	e	n/a
196.891	0.075	393782	keystroke_n	n	n/a
197.116	0.089	394232	keystroke_g	g	n/a
197.326	0.105	394652	keystroke_i	i	n/a
197.401	0.105	394802	keystroke_n	n	n/a
197.821	0.075	395642	keystroke_e	e	n/a
197.971	0.135	395942	keystroke_e	e	n/a
198.136	0.1345	396272	keystroke_r	r	n/a
198.256	0.1195	396512	keystroke_Key.space	Key.space	n/a
198.8855	0.105	397771	keystroke_d	d	n/a
199.0505	0.15	398101	keystroke_u	u	n/a
199.1705	0.12	398341	keystroke_n	n	n/a
199.4855	0.105	398971	keystroke_c	c	n/a
199.6655	0.1055	399331	keystroke_a	a	n/a
199.786	0.089	399572	keystroke_n	n	n/a
199.935	0.1055	399870	keystroke_Key.space	Key.space	n/a
200.3105	0.1205	400621	keystroke_r	r	n/a
200.4155	0.1355	400831	keystroke_e	e	n/a
200.655	0.1205	401310	keystroke_p	p	n/a
201.091	0.134	402182	keystroke_r	r	n/a
201.196	0.18	402392	keystroke_e	e	n/a
201.421	0.1045	402842	keystroke_s	s	n/a
201.6605	0.12	403321	keystroke_e	e	n/a
201.841	0.0895	403682	keystroke_n	n	n/a
201.9905	0.09	403981	keystroke_t	t	n/a
202.1405	0.15	404281	keystroke_a	a	n/a
202.6355	0.105	405271	keystroke_Key.backspace	Key.backspace	n/a
202.7855	0.045	405571	keystroke_e	e	n/a
202.9355	0.12	405871	keystroke_d	d	n/a
203.0705	0.12	406141	keystroke_Key.space	Key.space	n/a
203.4755	0.015	406951	keystroke_c	c	n/a
203.8205	0.105	407641	keystroke_r	r	n/a
204.2255	0.0895	408451	keystroke_Key.backspace	Key.backspace	n/a
204.376	0.075	408752	keystroke_Key.backspace	Key.backspace	n/a
204.4955	0.09	408991	keystroke_r	r	n/a
204.646	0.0895	409292	keystroke_o	o	n/a
204.9155	0.1055	409831	keystroke_u	u	n/a
204.9905	0.09	409981	keystroke_n	n	n/a
205.0655	0.18	410131	keystroke_d	d	n/a
205.2305	0.12	410461	keystroke_s	s	n/a
205.3665	0.089	410733	keystroke_Key.enter	Key.enter	n/a
205.4615	6.266	410923	prompt	n/a	revolutionary stocks skip clan\n
206.1455	0.135	412291	keystroke_r	r	n/a
206.265	0.136	412530	keystroke_e	e	n/a
206.5505	0.0895	413101	keystroke_v	v	n/a
206.7155	0.0745	413431	keystroke_o	o	n/a
206.8805	0.09	413761	keystroke_l	l	n/a
207.1355	0.0755	414271	keystroke_u	u	n/a
207.375	0.0755	414750	keystroke_t	t	n/a
207.495	0.075	414990	keystroke_i	i	n/a
207.6905	0.135	415381	keystroke_o	o	n/a
207.81	0.075	415620	keystroke_n	n	n/a
207.9	0.09	415800	keystroke_a	a	n/a
208.095	0.105	416190	keystroke_r	r	n/a
208.275	0.0755	416550	keystroke_y	y	n/a
208.381	0.12	416762	keystroke_Key.space	Key.space	n/a
208.8005	0.0895	417601	keystroke_s	s	n/a
208.98	0.091	417960	keystroke_t	t	n/a
209.085	0.075	418170	keystroke_o	o	n/a
209.2205	0.105	418441	keystroke_c	c	n/a
209.3405	0.105	418681	keystroke_k	k	n/a
209.4605	0.105	418921	keystroke_s	s	n/a
209.5355	0.12	419071	keystroke_Key.space	Key.space	n/a
209.805	0.105	419610	keystroke_s	s	n/a
209.97	0.09	419940	keystroke_k	k	n/a
210.196	0.0745	420392	keystroke_i	i	n/a
210.4355	0.0905	420871	keystroke_p	p	n/a
210.526	0.1345	421052	keystroke_Key.space	Key.space	n/a
211.0655	0.09	422131	keystroke_c	c	n/a
211.1705	0.075	422341	keystroke_l	l	n/a
211.2605	0.09	422521	keystroke_a	a	n/a
211.4105	0.075	422821	keystroke_n	n	n/a
211.6355	0.09	423271	keystroke_Key.enter	Key.enter	n/a
211.7315	13.931	423463	prompt	n/a	legislature nitrogen routers interactive\n
212.491	0.044	424982	keystroke_l	l	n/a
212.715	0.1205	425430	keystroke_l	l	n/a
212.985	0.0755	425970	keystroke_i	i	n/a
213.1055	0.06	426211	keystroke_s	s	n/a
213.6005	0.105	427201	keystroke_i	i	n/a
214.1555	0.075	428311	keystroke_Key.backspace	Key.backspace	n/a
214.3055	0.075	428611	keystroke_Key.backspace	Key.backspace	n/a
214.4555	0.09	428911	keystroke_Key.backspace	Key.backspace	n/a
214.7405	0.135	429481	keystroke_e	e	n/a
214.9055	0.075	429811	keystroke_Key.backspace	Key.backspace	n/a
215.0705	0.075	430141	keystroke_Key.backspace	Key.backspace	n/a
215.1755	0.12	430351	keystroke_e	e	n/a
215.626	0.119	431252	keystroke_g	g	n/a
215.835	0.09	431670	keystroke_i	i	n/a
216.211	0.09	432422	keystroke_s	s	n/a
216.511	0.105	433022	keystroke_l	l	n/a
216.631	0.09	433262	keystroke_a	a	n/a
217.156	0.0895	434312	keystroke_t	t	n/a
217.3655	0.09	434731	keystroke_u	u	n/a
217.5005	0.1355	435001	keystroke_r	r	n/a
217.6205	0.12	435241	keystroke_e	e	n/a
217.6955	0.105	435391	keystroke_Key.space	Key.space	n/a
218.0705	0.075	436141	keystroke_n	n	n/a
218.866	0.09	437732	keystroke_i	i	n/a
219.0005	0.0905	438001	keystroke_t	t	n/a
219.256	0.2695	438512	keystroke_r	r	n/a
219.571	0.104	439142	keystroke_o	o	n/a
219.931	0.074	439862	keystroke_g	g	n/a
220.6055	0.075	441211	keystroke_e	e	n/a
220.7105	0.09	441421	keystroke_n	n	n/a
220.8455	0.105	441691	keystroke_Key.space	Key.space	n/a
221.7005	0.045	443401	keystroke_o	o	n/a
221.7905	0.1205	443581	keystroke_r	r	n/a
222.046	0.0745	444092	keystroke_Key.backspace	Key.backspace	n/a
222.1805	0.075	444361	keystroke_Key.backspace	Key.backspace	n/a
222.301	0.1045	444602	keystroke_r	r	n/a
222.421	0.0595	444842	keystroke_o	o	n/a
222.6305	0.0755	445261	keystroke_u	u	n/a
222.751	0.0745	445502	keystroke_t	t	n/a
222.9155	0.105	445831	keystroke_e	e	n/a
222.9905	0.1505	445981	keystroke_r	r	n/a
223.1855	0.1205	446371	keystroke_s	s	n/a
223.2755	0.105	446551	keystroke_Key.space	Key.space	n/a
223.6055	0.075	447211	keystroke_i	i	n/a
223.6505	0.12	447301	keystroke_n	n	n/a
223.7555	0.09	447511	keystroke_t	t	n/a
223.8755	0.135	447751	keystroke_e	e	n/a
223.9805	0.1345	447961	keystroke_r	r	n/a
224.445	0.121	448890	keystroke_a	a	n/a
224.7305	0.09	449461	keystroke_c	c	n/a
225.0155	0.075	450031	keystroke_t	t	n/a
225.1505	0.09	450301	keystroke_i	i	n/a
225.2555	0.09	450511	keystroke_v	v	n/a
225.436	0.1045	450872	keystroke_e	e	n/a
225.57	0.09	451140	keystroke_Key.enter	Key.enter	n/a
225.6675	7.3445	451335	prompt	n/a	paid california platinum airplane\n
226.275	0.09	452550	keystroke_p	p	n/a
226.351	0.105	452702	keystroke_a	a	n/a
226.501	0.0745	453002	keystroke_i	i	n/a
226.561	0.1045	453122	keystroke_d	d	n/a
226.635	0.1205	453270	keystroke_Key.space	Key.space	n/a
226.8305	0.12	453661	keystroke_c	c	n/a
226.9655	0.09	453931	keystroke_a	a	n/a
227.0105	0.075	454021	keystroke_l	l	n/a
227.2205	0.075	454441	keystroke_i	i	n/a
227.6405	0.1055	455281	keystroke_f	f	n/a
227.8205	0.06	455641	keystroke_o	o	n/a
227.9255	0.09	455851	keystroke_r	r	n/a
228.2705	0.0755	456541	keystroke_n	n	n/a
228.4805	0.0605	456961	keystroke_i	i	n/a
228.586	0.12	457172	keystroke_a	a	n/a
228.72	0.09	457440	keystroke_Key.space	Key.space	n/a
229.02	0.105	458040	keystroke_p	p	n/a
229.275	0.09	458550	keystroke_l	l	n/a
229.426	0.134	458852	keystroke_a	a	n/a
230.401	0.09	460802	keystroke_t	t	n/a
230.551	0.105	461102	keystroke_i	i	n/a
230.641	0.1045	461282	keystroke_n	n	n/a
230.9555	0.09	461911	keystroke_u	u	n/a
231.2405	0.0905	462481	keystroke_m	m	n/a
231.361	0.1045	462722	keystroke_Key.space	Key.space	n/a
231.781	0.105	463562	keystroke_a	a	n/a
231.856	0.09	463712	keystroke_i	i	n/a
232.006	0.09	464012	keystroke_r	r	n/a
232.141	0.1345	464282	keystroke_p	p	n/a
232.2455	0.09	464491	keystroke_l	l	n/a
232.3505	0.0895	464701	keystroke_a	a	n/a
232.65	0.0605	465300	keystroke_n	n	n/a
232.741	0.1045	465482	keystroke_e	e	n/a
232.905	0.105	465810	keystroke_Key.enter	Key.enter	n/a
233.0165	8.3055	466033	prompt	n/a	candidates animation alabama refine\n
233.6705	0.09	467341	keystroke_c	c	n/a
233.805	0.136	467610	keystroke_a	a	n/a
233.9255	0.0605	467851	keystroke_n	n	n/a
234.0455	0.1055	468091	keystroke_d	d	n/a
234.21	0.0755	468420	keystroke_i	i	n/a
234.3005	0.1355	468601	keystroke_d	d	n/a
234.556	0.1045	469112	keystroke_a	a	n/a
234.7805	0.12	469561	keystroke_t	t	n/a
234.886	0.12	469772	keystroke_e	e	n/a
234.9905	0.1195	469981	keystroke_s	s	n/a
235.0655	0.1195	470131	keystroke_Key.space	Key.space	n/a
235.335	0.121	470670	keystroke_a	a	n/a
235.425	0.075	470850	keystroke_n	n	n/a
235.6055	0.0755	471211	keystroke_i	i	n/a
235.786	0.089	471572	keystroke_m	m	n/a
235.876	0.105	471752	keystroke_a	a	n/a
236.131	0.075	472262	keystroke_t	t	n/a
236.2355	0.0595	472471	keystroke_i	i	n/a
236.43	0.1505	472860	keystroke_o	o	n/a
236.5355	0.09	473071	keystroke_n	n	n/a
236.5955	0.135	473191	keystroke_Key.space	Key.space	n/a
236.7455	0.12	473491	keystroke_a	a	n/a
236.9705	0.0905	473941	keystroke_l	l	n/a
237.1355	0.1205	474271	keystroke_a	a	n/a
237.6305	0.09	475261	keystroke_b	b	n/a
237.751	0.1045	475502	keystroke_a	a	n/a
237.946	0.06	475892	keystroke_m	m	n/a
238.5305	0.105	477061	keystroke_a	a	n/a
238.6955	0.105	477391	keystroke_Key.space	Key.space	n/a
239.0705	0.12	478141	keystroke_r	r	n/a
239.176	0.1195	478352	keystroke_e	e	n/a
239.7155	0.045	479431	keystroke_t	t	n/a
240.1655	0.075	480331	keystroke_f	f	n/a
240.435	0.06	480870	keystroke_Key.backspace	Key.backspace	n/a
240.555	0.0755	481110	keystroke_Key.backspace	Key.backspace	n/a
240.6605	0.105	481321	keystroke_f	f	n/a
240.8705	0.1355	481741	keystroke_i	i	n/a
240.9605	0.075	481921	keystroke_n	n	n/a
241.0655	0.09	482131	keystroke_e	e	n/a
241.2305	0.09	482461	keystroke_Key.enter	Key.enter	n/a
241.3265	7.0755	482653	prompt	n/a	summer unknown glory bones\n
241.95	0.1055	483900	keystroke_s	s	n/a
242.07	0.076	484140	keystroke_u	u	n/a
242.28	0.0605	484560	keystroke_m	m	n/a
242.386	0.0895	484772	keystroke_m	m	n/a
242.46	0.135	484920	keystroke_e	e	n/a
242.565	0.136	485130	keystroke_r	r	n/a
242.625	0.12	485250	keystroke_Key.space	Key.space	n/a
242.791	0.105	485582	keystroke_u	u	n/a
242.836	0.119	485672	keystroke_n	n	n/a
243.09	0.135	486180	keystroke_k	k	n/a
243.211	0.089	486422	keystroke_n	n	n/a
243.3755	0.09	486751	keystroke_o	o	n/a
243.4805	0.12	486961	keystroke_w	w	n/a
243.6155	0.09	487231	keystroke_n	n	n/a
243.6905	0.09	487381	keystroke_Key.space	Key.space	n/a
243.9905	0.105	487981	keystroke_f	f	n/a
244.111	0.0745	488222	keystroke_l	l	n/a
244.3055	0.09	488611	keystroke_o	o	n/a
244.4405	0.105	488881	keystroke_r	r	n/a
244.635	0.061	489270	keystroke_y	y	n/a
244.74	0.1205	489480	keystroke_Key.space	Key.space	n/a
245.2355	0.09	490471	keystroke_Key.backspace	Key.backspace	n/a
245.386	0.074	490772	keystroke_Key.backspace	Key.backspace	n/a
245.5205	0.0755	491041	keystroke_Key.backspace	Key.backspace	n/a
245.655	0.06	491310	keystroke_Key.backspace	Key.backspace	n/a
245.79	0.0755	491580	keystroke_Key.backspace	Key.backspace	n/a
245.9855	0.0605	491971	keystroke_g	g	n/a
246.225	0.061	492450	keystroke_Key.backspace	Key.backspace	n/a
246.3605	0.09	492721	keystroke_Key.backspace	Key.backspace	n/a
246.495	0.091	492990	keystroke_g	g	n/a
246.676	0.0895	493352	keystroke_l	l	n/a
246.916	0.0745	493832	keystroke_o	o	n/a
247.0505	0.105	494101	keystroke_r	r	n/a
247.2305	0.075	494461	keystroke_y	y	n/a
247.3205	0.1055	494641	keystroke_Key.space	Key.space	n/a
247.6205	0.075	495241	keystroke_b	b	n/a
247.8305	0.12	495661	keystroke_o	o	n/a
247.9655	0.105	495931	keystroke_n	n	n/a
248.0555	0.165	496111	keystroke_e	e	n/a
248.2055	0.12	496411	keystroke_s	s	n/a
248.3105	0.09	496621	keystroke_Key.enter	Key.enter	n/a
248.406	8.9365	496812	prompt	n/a	mobiles bahrain monthly active\n
249.316	0.075	498632	keystroke_m	m	n/a
249.465	0.09	498930	keystroke_o	o	n/a
249.6	0.121	499200	keystroke_d	d	n/a
249.885	0.0605	499770	keystroke_l	l	n/a
250.2155	0.06	500431	keystroke_Key.backspace	Key.backspace	n/a
250.351	0.0595	500702	keystroke_Key.backspace	Key.backspace	n/a
250.606	0.074	501212	keystroke_b	b	n/a
250.77	0.1055	501540	keystroke_i	i	n/a
250.996	0.104	501992	keystroke_l	l	n/a
251.13	0.15	502260	keystroke_e	e	n/a
251.266	0.135	502532	keystroke_s	s	n/a
251.3405	0.135	502681	keystroke_Key.space	Key.space	n/a
251.581	0.0745	503162	keystroke_b	b	n/a
251.7905	0.075	503581	keystroke_a	a	n/a
251.9855	0.075	503971	keystroke_h	h	n/a
252.3155	0.12	504631	keystroke_r	r	n/a
252.5555	0.105	505111	keystroke_i	i	n/a
252.796	0.1045	505592	keystroke_a	a	n/a
253.036	0.165	506072	keystroke_n	n	n/a
253.5605	0.0455	507121	keystroke_Key.backspace	Key.backspace	n/a
253.6505	0.0755	507301	keystroke_Key.backspace	Key.backspace	n/a
253.786	0.0745	507572	keystroke_Key.backspace	Key.backspace	n/a
253.9355	0.12	507871	keystroke_a	a	n/a
254.1155	0.135	508231	keystroke_i	i	n/a
254.206	0.1195	508412	keystroke_n	n	n/a
254.3855	0.1055	508771	keystroke_Key.space	Key.space	n/a
254.7905	0.075	509581	keystroke_m	m	n/a
254.956	0.12	509912	keystroke_o	o	n/a
255.1355	0.075	510271	keystroke_n	n	n/a
255.2855	0.075	510571	keystroke_t	t	n/a
255.421	0.06	510842	keystroke_h	h	n/a
255.6905	0.09	511381	keystroke_l	l	n/a
255.796	0.1045	511592	keystroke_y	y	n/a
255.8705	0.105	511741	keystroke_Key.space	Key.space	n/a
256.171	0.1045	512342	keystroke_a	a	n/a
256.3355	0.105	512671	keystroke_c	c	n/a
256.5755	0.0745	513151	keystroke_t	t	n/a
256.771	0.089	513542	keystroke_i	i	n/a
256.861	0.1045	513722	keystroke_v	v	n/a
257.1005	0.105	514201	keystroke_e	e	n/a
257.2355	0.105	514471	keystroke_Key.enter	Key.enter	n/a
257.3475	5.32	514695	prompt	n/a	reuters when's laws south\n
257.9255	0.1345	515851	keystroke_r	r	n/a
258.0755	0.105	516151	keystroke_e	e	n/a
258.406	0.0745	516812	keystroke_u	u	n/a
258.7355	0.0905	517471	keystroke_t	t	n/a
259.0055	0.151	518011	keystroke_e	e	n/a
259.126	0.1345	518252	keystroke_r	r	n/a
259.3205	0.1205	518641	keystroke_s	s	n/a
259.4255	0.09	518851	keystroke_Key.space	Key.space	n/a
259.711	0.09	519422	keystroke_w	w	n/a
259.8455	0.075	519691	keystroke_h	h	n/a
259.936	0.1045	519872	keystroke_e	e	n/a
260.0555	0.09	520111	keystroke_n	n	n/a
260.2955	0.105	520591	keystroke_'	'	n/a
260.4455	0.135	520891	keystroke_s	s	n/a
260.566	0.1195	521132	keystroke_Key.space	Key.space	n/a
260.8805	0.1205	521761	keystroke_l	l	n/a
260.9855	0.105	521971	keystroke_a	a	n/a
261.1955	0.105	522391	keystroke_w	w	n/a
261.5105	0.1055	523021	keystroke_s	s	n/a
261.6005	0.135	523201	keystroke_Key.space	Key.space	n/a
261.7655	0.1195	523531	keystroke_s	s	n/a
261.901	0.059	523802	keystroke_o	o	n/a
262.096	0.074	524192	keystroke_u	u	n/a
262.231	0.089	524462	keystroke_t	t	n/a
262.335	0.076	524670	keystroke_h	h	n/a
262.56	0.106	525120	keystroke_Key.enter	Key.enter	n/a
262.673	7.4045	525346	prompt	n/a	aerospace watt alignment leeds\n
263.341	0.105	526682	keystroke_a	a	n/a
263.656	0.165	527312	keystroke_e	e	n/a
263.8055	0.106	527611	keystroke_r	r	n/a
264.721	0.105	529442	keystroke_o	o	n/a
265.156	0.104	530312	keystroke_s	s	n/a
265.276	0.089	530552	keystroke_p	p	n/a
265.576	0.1045	531152	keystroke_a	a	n/a
265.815	0.0905	531630	keystroke_c	c	n/a
266.071	0.09	532142	keystroke_e	e	n/a
266.1305	0.12	532261	keystroke_Key.space	Key.space	n/a
266.3255	0.1355	532651	keystroke_a	a	n/a
266.76	0.09	533520	keystroke_Key.backspace	Key.backspace	n/a
266.821	0.149	533642	keystroke_w	w	n/a
266.956	0.105	533912	keystroke_a	a	n/a
267.226	0.014	534452	keystroke_t	t	n/a
267.301	0.09	534602	keystroke_t	t	n/a
267.495	0.105	534990	keystroke_Key.space	Key.space	n/a
267.841	0.075	535682	keystroke_a	a	n/a
267.961	0.104	535922	keystroke_l	l	n/a
268.186	0.09	536372	keystroke_i	i	n/a
268.321	0.0895	536642	keystroke_g	g	n/a
268.44	0.061	536880	keystroke_n	n	n/a
268.651	0.075	537302	keystroke_m	m	n/a
268.741	0.104	537482	keystroke_e	e	n/a
268.876	0.0745	537752	keystroke_n	n	n/a
268.996	0.105	537992	keystroke_t	t	n/a
269.07	0.1055	538140	keystroke_Key.space	Key.space	n/a
269.2955	0.105	538591	keystroke_l	l	n/a
269.3855	0.0605	538771	keystroke_e	e	n/a
269.5055	0.09	539011	keystroke_e	e	n/a
269.7	0.135	539400	keystroke_d	d	n/a
269.851	0.12	539702	keystroke_s	s	n/a
269.986	0.09	539972	keystroke_Key.enter	Key.enter	n/a
270.0835	7.764	540167	prompt	n/a	involves rapidly independence tattoo\n
270.7955	0.105	541591	keystroke_i	i	n/a
270.871	0.1195	541742	keystroke_n	n	n/a
271.0505	0.1055	542101	keystroke_v	v	n/a
271.471	0.105	542942	keystroke_o	o	n/a
271.71	0.1055	543420	keystroke_l	l	n/a
271.8305	0.105	543661	keystroke_v	v	n/a
272.085	0.136	544170	keystroke_e	e	n/a
272.2065	0.134	544413	keystroke_s	s	n/a
272.295	0.1355	544590	keystroke_Key.space	Key.space	n/a
272.596	0.12	545192	keystroke_r	r	n/a
272.761	0.135	545522	keystroke_a	a	n/a
272.911	0.075	545822	keystroke_p	p	n/a
273.151	0.075	546302	keystroke_i	i	n/a
273.346	0.119	546692	keystroke_d	d	n/a
273.556	0.1045	547112	keystroke_l	l	n/a
273.841	0.09	547682	keystroke_y	y	n/a
273.916	0.119	547832	keystroke_Key.space	Key.space	n/a
274.201	0.09	548402	keystroke_i	i	n/a
274.276	0.09	548552	keystroke_n	n	n/a
274.6055	0.1205	549211	keystroke_d	d	n/a
274.86	0.09	549720	keystroke_e	e	n/a
274.966	0.104	549932	keystroke_p	p	n/a
275.176	0.12	550352	keystroke_e	e	n/a
275.401	0.075	550802	keystroke_n	n	n/a
275.5355	0.09	551071	keystroke_d	d	n/a
275.956	0.1045	551912	keystroke_e	e	n/a
276.1055	0.06	552211	keystroke_n	n	n/a
276.271	0.0895	552542	keystroke_c	c	n/a
276.5255	0.12	553051	keystroke_e	e	n/a
276.6005	0.135	553201	keystroke_Key.space	Key.space	n/a
276.7955	0.075	553591	keystroke_t	t	n/a
276.9155	0.15	553831	keystroke_a	a	n/a
277.0665	0.059	554133	keystroke_t	t	n/a
277.1855	0.105	554371	keystroke_t	t	n/a
277.395	0.075	554790	keystroke_o	o	n/a
277.531	0.09	555062	keystroke_o	o	n/a
277.726	0.1195	555452	keystroke_Key.enter	Key.enter	n/a
277.8535	6.6835	555707	prompt	n/a	vary working bike hughes\n
278.5355	0.045	557071	keystroke_v	v	n/a
278.6405	0.0905	557281	keystroke_a	a	n/a
278.805	0.105	557610	keystroke_r	r	n/a
278.94	0.06	557880	keystroke_y	y	n/a
279.015	0.106	558030	keystroke_Key.space	Key.space	n/a
279.211	0.09	558422	keystroke_w	w	n/a
279.316	0.074	558632	keystroke_o	o	n/a
279.421	0.09	558842	keystroke_r	r	n/a
279.526	0.09	559052	keystroke_k	k	n/a
279.781	0.09	559562	keystroke_i	i	n/a
279.8405	0.105	559681	keystroke_n	n	n/a
279.9155	0.105	559831	keystroke_g	g	n/a
280.006	0.1045	560012	keystroke_Key.space	Key.space	n/a
280.2455	0.06	560491	keystroke_b	b	n/a
280.4855	0.1945	560971	keystroke_o	o	n/a
280.711	0.119	561422	keystroke_k	k	n/a
280.8605	0.1495	561721	keystroke_e	e	n/a
280.95	0.121	561900	keystroke_Key.space	Key.space	n/a
281.2805	0.0595	562561	keystroke_Key.backspace	Key.backspace	n/a
281.416	0.075	562832	keystroke_Key.backspace	Key.backspace	n/a
281.55	0.075	563100	keystroke_Key.backspace	Key.backspace	n/a
281.656	0.0445	563312	keystroke_Key.backspace	Key.backspace	n/a
282.091	0.089	564182	keystroke_i	i	n/a
282.24	0.105	564480	keystroke_k	k	n/a
282.316	0.105	564632	keystroke_e	e	n/a
282.3905	0.15	564781	keystroke_Key.space	Key.space	n/a
282.916	0.09	565832	keystroke_h	h	n/a
283.141	0.09	566282	keystroke_u	u	n/a
283.276	0.09	566552	keystroke_g	g	n/a
283.411	0.09	566822	keystroke_h	h	n/a
283.546	0.105	567092	keystroke_s	s	n/a
284.025	0.091	568050	keystroke_Key.backspace	Key.backspace	n/a
284.13	0.1355	568260	keystroke_e	e	n/a
284.2505	0.15	568501	keystroke_s	s	n/a
284.4455	0.09	568891	keystroke_Key.enter	Key.enter	n/a
284.543	5.2595	569086	prompt	n/a	handmade weird advantages band\n
285.151	0.0895	570302	keystroke_h	h	n/a
285.2705	0.12	570541	keystroke_a	a	n/a
285.4055	0.09	570811	keystroke_n	n	n/a
285.481	0.105	570962	keystroke_d	d	n/a
285.736	0.09	571472	keystroke_m	m	n/a
285.8105	0.0905	571621	keystroke_a	a	n/a
285.93	0.121	571860	keystroke_d	d	n/a
286.126	0.135	572252	keystroke_e	e	n/a
286.23	0.12	572460	keystroke_Key.space	Key.space	n/a
286.441	0.1195	572882	keystroke_w	w	n/a
286.546	0.105	573092	keystroke_e	e	n/a
286.71	0.076	573420	keystroke_i	i	n/a
286.816	0.105	573632	keystroke_r	r	n/a
287.025	0.121	574050	keystroke_d	d	n/a
287.085	0.166	574170	keystroke_Key.space	Key.space	n/a
287.266	0.149	574532	keystroke_a	a	n/a
287.4005	0.1195	574801	keystroke_d	d	n/a
287.7305	0.0905	575461	keystroke_v	v	n/a
287.941	0.1195	575882	keystroke_a	a	n/a
288.075	0.0755	576150	keystroke_n	n	n/a
288.286	0.09	576572	keystroke_t	t	n/a
288.406	0.12	576812	keystroke_a	a	n/a
288.556	0.195	577112	keystroke_g	g	n/a
288.7205	0.135	577441	keystroke_e	e	n/a
288.826	0.135	577652	keystroke_s	s	n/a
288.9005	0.1355	577801	keystroke_Key.space	Key.space	n/a
289.171	0.09	578342	keystroke_b	b	n/a
289.275	0.105	578550	keystroke_a	a	n/a
289.426	0.0895	578852	keystroke_n	n	n/a
289.501	0.1195	579002	keystroke_d	d	n/a
289.711	0.09	579422	keystroke_Key.enter	Key.enter	n/a
289.8065	7.481	579613	prompt	n/a	raising dvds discount agriculture\n
290.476	0.12	580952	keystroke_r	r	n/a
290.596	0.105	581192	keystroke_a	a	n/a
290.701	0.075	581402	keystroke_i	i	n/a
290.821	0.12	581642	keystroke_s	s	n/a
291.016	0.075	582032	keystroke_i	i	n/a
291.0605	0.105	582121	keystroke_n	n	n/a
291.1805	0.105	582361	keystroke_g	g	n/a
291.2255	0.12	582451	keystroke_Key.space	Key.space	n/a
291.571	0.09	583142	keystroke_d	d	n/a
291.871	0.0905	583742	keystroke_i	i	n/a
292.261	0.09	584522	keystroke_Key.backspace	Key.backspace	n/a
292.321	0.135	584642	keystroke_v	v	n/a
292.516	0.12	585032	keystroke_d	d	n/a
292.801	0.135	585602	keystroke_s	s	n/a
293.01	0.12	586020	keystroke_Key.space	Key.space	n/a
293.37	0.136	586740	keystroke_d	d	n/a
293.521	0.075	587042	keystroke_i	i	n/a
293.596	0.105	587192	keystroke_s	s	n/a
294.001	0.0445	588002	keystroke_c	c	n/a
294.151	0.075	588302	keystroke_o	o	n/a
294.391	0.105	588782	keystroke_u	u	n/a
294.466	0.105	588932	keystroke_n	n	n/a
294.541	0.12	589082	keystroke_t	t	n/a
294.616	0.15	589232	keystroke_Key.space	Key.space	n/a
294.826	0.12	589652	keystroke_a	a	n/a
295.3355	0.1055	590671	keystroke_g	g	n/a
295.5155	0.1505	591031	keystroke_r	r	n/a
295.6805	0.075	591361	keystroke_i	i	n/a
296.056	0.1195	592112	keystroke_c	c	n/a
296.1755	0.0755	592351	keystroke_u	u	n/a
296.3855	0.09	592771	keystroke_l	l	n/a
296.536	0.075	593072	keystroke_t	t	n/a
296.7155	0.09	593431	keystroke_u	u	n/a
296.791	0.1345	593582	keystroke_r	r	n/a
296.9105	0.135	593821	keystroke_e	e	n/a
297.1805	0.105	594361	keystroke_Key.enter	Key.enter	n/a
297.2925	8.635	594585	prompt	n/a	legs meditation attribute scoring\n
297.856	0.089	595712	keystroke_l	l	n/a
297.961	0.089	595922	keystroke_e	e	n/a
298.126	0.1195	596252	keystroke_g	g	n/a
298.231	0.1205	596462	keystroke_s	s	n/a
298.336	0.104	596672	keystroke_Key.space	Key.space	n/a
298.531	0.0755	597062	keystroke_m	m	n/a
298.62	0.075	597240	keystroke_e	e	n/a
298.816	0.104	597632	keystroke_d	d	n/a
298.935	0.0755	597870	keystroke_i	i	n/a
299.565	0.121	599130	keystroke_c	c	n/a
300.421	0.045	600842	keystroke_Key.backspace	Key.backspace	n/a
300.571	0.0295	601142	keystroke_Key.backspace	Key.backspace	n/a
300.9905	0.09	601981	keystroke_i	i	n/a
301.2155	0.09	602431	keystroke_t	t	n/a
301.3355	0.15	602671	keystroke_a	a	n/a
301.4865	0.0895	602973	keystroke_t	t	n/a
301.62	0.0905	603240	keystroke_i	i	n/a
301.846	0.135	603692	keystroke_o	o	n/a
301.951	0.1045	603902	keystroke_n	n	n/a
302.041	0.12	604082	keystroke_Key.space	Key.space	n/a
302.2055	0.12	604411	keystroke_a	a	n/a
302.4155	0.045	604831	keystroke_t	t	n/a
302.5355	0.12	605071	keystroke_t	t	n/a
302.791	0.1045	605582	keystroke_i	i	n/a
303.1955	0.075	606391	keystroke_Key.backspace	Key.backspace	n/a
303.3155	0.1055	606631	keystroke_r	r	n/a
303.5105	0.075	607021	keystroke_i	i	n/a
303.8555	0.075	607711	keystroke_b	b	n/a
304.036	0.0745	608072	keystroke_u	u	n/a
304.186	0.105	608372	keystroke_t	t	n/a
304.335	0.105	608670	keystroke_e	e	n/a
304.41	0.1205	608820	keystroke_Key.space	Key.space	n/a
304.621	0.075	609242	keystroke_s	s	n/a
304.831	0.105	609662	keystroke_c	c	n/a
305.011	0.09	610022	keystroke_o	o	n/a
305.176	0.089	610352	keystroke_r	r	n/a
305.356	0.104	610712	keystroke_i	i	n/a
305.431	0.089	610862	keystroke_n	n	n/a
305.566	0.105	611132	keystroke_g	g	n/a
305.835	0.09	611670	keystroke_Key.enter	Key.enter	n/a
305.9315	4.316	611863	prompt	n/a	entry andy finals reel\n
306.6455	0.105	613291	keystroke_e	e	n/a
306.7355	0.075	613471	keystroke_n	n	n/a
306.8705	0.135	613741	keystroke_t	t	n/a
307.021	0.105	614042	keystroke_r	r	n/a
307.1555	0.09	614311	keystroke_y	y	n/a
307.2305	0.1055	614461	keystroke_Key.space	Key.space	n/a
307.366	0.12	614732	keystroke_a	a	n/a
307.515	0.09	615030	keystroke_n	n	n/a
307.71	0.106	615420	keystroke_d	d	n/a
307.89	0.076	615780	keystroke_y	y	n/a
307.98	0.105	615960	keystroke_Key.space	Key.space	n/a
308.19	0.106	616380	keystroke_f	f	n/a
308.34	0.105	616680	keystroke_i	i	n/a
308.431	0.075	616862	keystroke_n	n	n/a
308.52	0.09	617040	keystroke_a	a	n/a
308.716	0.1045	617432	keystroke_l	l	n/a
308.9105	0.12	617821	keystroke_s	s	n/a
309.2105	0.12	618421	keystroke_Key.space	Key.space	n/a
309.541	0.0595	619082	keystroke_r	r	n/a
309.631	0.0895	619262	keystroke_e	e	n/a
309.811	0.0895	619622	keystroke_e	e	n/a
309.916	0.09	619832	keystroke_l	l	n/a
310.1555	0.09	620311	keystroke_Key.enter	Key.enter	n/a
310.253	12.0395	620506	prompt	n/a	commonly forty pipeline characteristics\n
311.2055	0.12	622411	keystroke_c	c	n/a
311.386	0.075	622772	keystroke_o	o	n/a
311.6115	0.059	623223	keystroke_m	m	n/a
311.731	0.074	623462	keystroke_m	m	n/a
312.016	0.1345	624032	keystroke_o	o	n/a
312.3305	0.105	624661	keystroke_n	n	n/a
312.916	0.09	625832	keystroke_l	l	n/a
313.1105	0.091	626221	keystroke_y	y	n/a
313.17	0.105	626340	keystroke_Key.space	Key.space	n/a
313.396	0.1045	626792	keystroke_f	f	n/a
313.5455	0.075	627091	keystroke_o	o	n/a
313.6215	0.074	627243	keystroke_r	r	n/a
313.8305	0.0905	627661	keystroke_t	t	n/a
314.0855	0.0905	628171	keystroke_y	y	n/a
314.161	0.105	628322	keystroke_Key.space	Key.space	n/a
314.491	0.074	628982	keystroke_p	p	n/a
314.941	0.15	629882	keystroke_i	i	n/a
315.376	0.09	630752	keystroke_p	p	n/a
315.541	0.1195	631082	keystroke_e	e	n/a
315.7655	0.105	631531	keystroke_l	l	n/a
316.065	0.15	632130	keystroke_i	i	n/a
316.2	0.091	632400	keystroke_n	n	n/a
316.276	0.12	632552	keystroke_e	e	n/a
316.3655	0.1195	632731	keystroke_Key.space	Key.space	n/a
316.681	0.1195	633362	keystroke_c	c	n/a
316.8905	0.075	633781	keystroke_h	h	n/a
317.0255	0.165	634051	keystroke_r	r	n/a
317.2205	0.18	634441	keystroke_a	a	n/a
317.97	0.075	635940	keystroke_Key.backspace	Key.backspace	n/a
318.105	0.09	636210	keystroke_Key.backspace	Key.backspace	n/a
318.211	0.1045	636422	keystroke_a	a	n/a
318.3905	0.12	636781	keystroke_r	r	n/a
318.511	0.1495	637022	keystroke_a	a	n/a
318.8855	0.105	637771	keystroke_c	c	n/a
319.171	0.09	638342	keystroke_t	t	n/a
319.636	0.15	639272	keystroke_e	e	n/a
319.756	0.119	639512	keystroke_r	r	n/a
319.9805	0.0745	639961	keystroke_i	i	n/a
320.07	0.135	640140	keystroke_s	s	n/a
320.37	0.091	640740	keystroke_t	t	n/a
320.5655	0.0895	641131	keystroke_i	i	n/a
321.255	0.1355	642510	keystroke_c	c	n/a
321.45	0.1355	642900	keystroke_s	s	n/a
321.5705	0.135	643141	keystroke_Key.space	Key.space	n/a
321.9455	0.075	643891	keystroke_Key.backspace	Key.backspace	n/a
322.171	0.119	644342	keystroke_Key.enter	Key.enter	n/a
322.297	7.915	644594	prompt	n/a	clips hairy satisfied iraq\n
322.921	0.104	645842	keystroke_c	c	n/a
323.055	0.121	646110	keystroke_l	l	n/a
323.326	0.029	646652	keystroke_u	u	n/a
323.626	0.09	647252	keystroke_p	p	n/a
323.9555	0.06	647911	keystroke_Key.backspace	Key.backspace	n/a
324.0755	0.075	648151	keystroke_Key.backspace	Key.backspace	n/a
324.406	0.06	648812	keystroke_i	i	n/a
324.601	0.09	649202	keystroke_p	p	n/a
324.6755	0.1055	649351	keystroke_s	s	n/a
324.751	0.12	649502	keystroke_Key.space	Key.space	n/a
324.931	0.135	649862	keystroke_f	f	n/a
325.531	0.075	651062	keystroke_Key.backspace	Key.backspace	n/a
325.801	0.105	651602	keystroke_h	h	n/a
325.891	0.12	651782	keystroke_a	a	n/a
326.056	0.075	652112	keystroke_i	i	n/a
326.191	0.0895	652382	keystroke_r	r	n/a
326.37	0.0605	652740	keystroke_y	y	n/a
326.4305	0.105	652861	keystroke_Key.space	Key.space	n/a
326.641	0.104	653282	keystroke_s	s	n/a
327.0005	0.12	654001	keystroke_a	a	n/a
327.3455	0.0895	654691	keystroke_t	t	n/a
327.585	0.1055	655170	keystroke_i	i	n/a
327.841	0.1195	655682	keystroke_s	s	n/a
328.08	0.1205	656160	keystroke_f	f	n/a
328.245	0.105	656490	keystroke_i	i	n/a
328.411	0.0895	656822	keystroke_e	e	n/a
328.6355	0.1205	657271	keystroke_d	d	n/a
328.74	0.12	657480	keystroke_Key.space	Key.space	n/a
329.116	0.0895	658232	keystroke_i	i	n/a
329.3405	0.105	658681	keystroke_r	r	n/a
329.5355	0.1055	659071	keystroke_a	a	n/a
329.8805	0.105	659761	keystroke_q	q	n/a
330.1055	0.105	660211	keystroke_Key.enter	Key.enter	n/a
330.218	7.7945	660436	prompt	n/a	accessories streets marcus replica\n
330.8855	0.09	661771	keystroke_a	a	n/a
331.111	0.0595	662222	keystroke_c	c	n/a
331.246	0.09	662492	keystroke_c	c	n/a
331.4855	0.09	662971	keystroke_e	e	n/a
331.6955	0.06	663391	keystroke_s	s	n/a
331.8305	0.1055	663661	keystroke_s	s	n/a
332.011	0.105	664022	keystroke_o	o	n/a
332.176	0.1045	664352	keystroke_r	r	n/a
332.371	0.075	664742	keystroke_i	i	n/a
332.476	0.15	664952	keystroke_e	e	n/a
332.641	0.119	665282	keystroke_s	s	n/a
332.7455	0.1045	665491	keystroke_Key.space	Key.space	n/a
333.135	0.1055	666270	keystroke_s	s	n/a
333.3305	0.1355	666661	keystroke_t	t	n/a
333.496	0.104	666992	keystroke_r	r	n/a
333.736	0.0595	667472	keystroke_e	e	n/a
333.885	0.106	667770	keystroke_e	e	n/a
334.155	0.165	668310	keystroke_s	s	n/a
334.8155	0.105	669631	keystroke_Key.backspace	Key.backspace	n/a
334.9055	0.12	669811	keystroke_t	t	n/a
334.9955	0.1355	669991	keystroke_s	s	n/a
335.1005	0.12	670201	keystroke_Key.space	Key.space	n/a
335.3705	0.105	670741	keystroke_m	m	n/a
335.4605	0.075	670921	keystroke_a	a	n/a
335.626	0.0895	671252	keystroke_r	r	n/a
335.881	0.0895	671762	keystroke_c	c	n/a
336.03	0.076	672060	keystroke_u	u	n/a
336.12	0.1055	672240	keystroke_s	s	n/a
336.21	0.12	672420	keystroke_Key.space	Key.space	n/a
336.496	0.1195	672992	keystroke_r	r	n/a
336.6	0.1055	673200	keystroke_e	e	n/a
336.8105	0.1495	673621	keystroke_p	p	n/a
336.9155	0.105	673831	keystroke_l	l	n/a
337.155	0.09	674310	keystroke_i	i	n/a
337.2905	0.0905	674581	keystroke_c	c	n/a
337.456	0.135	674912	keystroke_a	a	n/a
337.906	0.105	675812	keystroke_Key.enter	Key.enter	n/a
338.017	4.87	676034	prompt	n/a	makes three statements rear\n
338.611	0.06	677222	keystroke_m	m	n/a
338.641	0.089	677282	keystroke_a	a	n/a
338.776	0.105	677552	keystroke_k	k	n/a
338.865	0.1355	677730	keystroke_e	e	n/a
338.9855	0.12	677971	keystroke_s	s	n/a
339.0755	0.1505	678151	keystroke_Key.space	Key.space	n/a
339.196	0.104	678392	keystroke_t	t	n/a
339.315	0.0755	678630	keystroke_h	h	n/a
339.451	0.1195	678902	keystroke_r	r	n/a
339.765	0.12	679530	keystroke_e	e	n/a
339.9605	0.12	679921	keystroke_e	e	n/a
340.0955	0.135	680191	keystroke_Key.space	Key.space	n/a
340.2605	0.12	680521	keystroke_s	s	n/a
340.4405	0.12	680881	keystroke_t	t	n/a
340.5615	0.1495	681123	keystroke_a	a	n/a
340.681	0.15	681362	keystroke_t	t	n/a
340.831	0.105	681662	keystroke_e	e	n/a
341.041	0.075	682082	keystroke_m	m	n/a
341.131	0.09	682262	keystroke_e	e	n/a
341.251	0.06	682502	keystroke_n	n	n/a
341.37	0.136	682740	keystroke_t	t	n/a
341.776	0.195	683552	keystroke_s	s	n/a
341.955	0.1355	683910	keystroke_Key.space	Key.space	n/a
342.1355	0.18	684271	keystroke_r	r	n/a
342.3005	0.1955	684601	keystroke_e	e	n/a
342.4655	0.165	684931	keystroke_a	a	n/a
342.6155	0.12	685231	keystroke_r	r	n/a
342.7655	0.1205	685531	keystroke_Key.enter	Key.enter	n/a
342.8895	7.1675	685779	prompt	n/a	urgent marcus who reservoir\n
343.651	0.015	687302	keystroke_u	u	n/a
343.771	0.105	687542	keystroke_r	r	n/a
343.921	0.075	687842	keystroke_g	g	n/a
344.2805	0.12	688561	keystroke_e	e	n/a
344.4455	0.105	688891	keystroke_n	n	n/a
344.655	0.106	689310	keystroke_t	t	n/a
344.73	0.12	689460	keystroke_Key.space	Key.space	n/a
344.9405	0.1045	689881	keystroke_m	m	n/a
345.015	0.105	690030	keystroke_a	a	n/a
345.18	0.105	690360	keystroke_r	r	n/a
345.435	0.1055	690870	keystroke_c	c	n/a
345.6155	0.105	691231	keystroke_u	u	n/a
345.705	0.0905	691410	keystroke_s	s	n/a
345.78	0.105	691560	keystroke_Key.space	Key.space	n/a
346.125	0.09	692250	keystroke_w	w	n/a
346.2005	0.1195	692401	keystroke_h	h	n/a
346.35	0.1205	692700	keystroke_o	o	n/a
346.4405	0.1195	692881	keystroke_Key.space	Key.space	n/a
346.7105	0.105	693421	keystroke_s	s	n/a
346.89	0.106	693780	keystroke_e	e	n/a
347.595	0.105	695190	keystroke_Key.backspace	Key.backspace	n/a
347.745	0.105	695490	keystroke_Key.backspace	Key.backspace	n/a
347.82	0.165	695640	keystroke_r	r	n/a
347.9255	0.1645	695851	keystroke_e	e	n/a
348.06	0.135	696120	keystroke_s	s	n/a
348.6755	0.1495	697351	keystroke_e	e	n/a
348.81	0.12	697620	keystroke_r	r	n/a
349.2005	0.1045	698401	keystroke_v	v	n/a
349.4405	0.0745	698881	keystroke_o	o	n/a
349.621	0.1045	699242	keystroke_i	i	n/a
349.7855	0.09	699571	keystroke_r	r	n/a
349.9655	0.09	699931	keystroke_Key.enter	Key.enter	n/a
350.06	10.9775	700120	prompt	n/a	sample carlos technician practitioners\n
350.836	0.0895	701672	keystroke_s	s	n/a
351.046	0.09	702092	keystroke_a	a	n/a
351.121	0.06	702242	keystroke_m	m	n/a
351.301	0.1645	702602	keystroke_p	p	n/a
351.4205	0.135	702841	keystroke_l	l	n/a
351.541	0.1495	703082	keystroke_e	e	n/a
351.6605	0.12	703321	keystroke_Key.space	Key.space	n/a
352.2305	0.1055	704461	keystroke_c	c	n/a
352.351	0.105	704702	keystroke_a	a	n/a
352.575	0.106	705150	keystroke_r	r	n/a
352.695	0.076	705390	keystroke_l	l	n/a
352.905	0.091	705810	keystroke_o	o	n/a
353.011	0.105	706022	keystroke_s	s	n/a
353.071	0.15	706142	keystroke_Key.space	Key.space	n/a
353.296	0.075	706592	keystroke_t	t	n/a
353.386	0.105	706772	keystroke_e	e	n/a
353.671	0.09	707342	keystroke_c	c	n/a
353.851	0.06	707702	keystroke_h	h	n/a
354.09	0.091	708180	keystroke_n	n	n/a
354.301	0.104	708602	keystroke_i	i	n/a
355.17	0.1055	710340	keystroke_c	c	n/a
355.32	0.09	710640	keystroke_i	i	n/a
355.441	0.0895	710882	keystroke_a	a	n/a
355.5905	0.0745	711181	keystroke_n	n	n/a
355.695	0.0905	711390	keystroke_Key.space	Key.space	n/a
356.446	0.1045	712892	keystroke_p	p	n/a
356.5805	0.12	713161	keystroke_r	r	n/a
356.7015	0.134	713403	keystroke_a	a	n/a
356.956	0.0905	713912	keystroke_c	c	n/a
357.2555	0.0605	714511	keystroke_t	t	n/a
357.3605	0.1055	714721	keystroke_i	i	n/a
358.1555	0.09	716311	keystroke_t	t	n/a
358.2755	0.09	716551	keystroke_i	i	n/a
358.5305	0.135	717061	keystroke_o	o	n/a
358.6355	0.105	717271	keystroke_n	n	n/a
359.821	0.149	719642	keystroke_e	e	n/a
359.9555	0.1045	719911	keystroke_r	r	n/a
360.105	0.135	720210	keystroke_s	s	n/a
360.2855	0.1055	720571	keystroke_Key.space	Key.space	n/a
360.766	0.045	721532	keystroke_Key.backspace	Key.backspace	n/a
360.931	0.105	721862	keystroke_Key.enter	Key.enter	n/a
361.0415	7.436	722083	prompt	n/a	expired rivers ipod motivated\n
361.756	0.075	723512	keystroke_e	e	n/a
361.981	0.12	723962	keystroke_x	x	n/a
362.071	0.09	724142	keystroke_p	p	n/a
362.281	0.105	724562	keystroke_i	i	n/a
362.371	0.12	724742	keystroke_r	r	n/a
362.476	0.105	724952	keystroke_e	e	n/a
362.686	0.09	725372	keystroke_d	d	n/a
362.746	0.105	725492	keystroke_Key.space	Key.space	n/a
363.031	0.0755	726062	keystroke_r	r	n/a
363.136	0.075	726272	keystroke_i	i	n/a
363.2705	0.0905	726541	keystroke_v	v	n/a
363.496	0.1345	726992	keystroke_e	e	n/a
363.5855	0.135	727171	keystroke_r	r	n/a
363.7355	0.09	727471	keystroke_s	s	n/a
363.7955	0.105	727591	keystroke_Key.space	Key.space	n/a
364.0055	0.075	728011	keystroke_i	i	n/a
364.2305	0.0905	728461	keystroke_p	p	n/a
364.4405	0.0755	728881	keystroke_i	i	n/a
364.516	0.1345	729032	keystroke_d	d	n/a
364.591	0.12	729182	keystroke_Key.space	Key.space	n/a
364.8755	0.0755	729751	keystroke_m	m	n/a
365.041	0.0745	730082	keystroke_o	o	n/a
365.3855	0.0605	730771	keystroke_Key.backspace	Key.backspace	n/a
365.536	0.06	731072	keystroke_Key.backspace	Key.backspace	n/a
365.656	0.074	731312	keystroke_Key.backspace	Key.backspace	n/a
365.79	0.0605	731580	keystroke_Key.backspace	Key.backspace	n/a
366.2705	0.0755	732541	keystroke_Key.backspace	Key.backspace	n/a
366.541	0.1045	733082	keystroke_o	o	n/a
366.6605	0.1055	733321	keystroke_d	d	n/a
366.7355	0.105	733471	keystroke_Key.space	Key.space	n/a
366.8555	0.075	733711	keystroke_m	m	n/a
367.0055	0.09	734011	keystroke_o	o	n/a
367.1405	0.0905	734281	keystroke_t	t	n/a
367.276	0.09	734552	keystroke_i	i	n/a
367.561	0.0155	735122	keystroke_v	v	n/a
367.6065	0.1185	735213	keystroke_a	a	n/a
367.8465	0.1045	735693	keystroke_t	t	n/a
367.9955	0.06	735991	keystroke_e	e	n/a
368.176	0.1045	736352	keystroke_d	d	n/a
368.356	0.119	736712	keystroke_Key.enter	Key.enter	n/a
368.482	8.215	736964	prompt	n/a	blogger engines resulting citizenship\n
369.181	0.0595	738362	keystroke_b	b	n/a
369.4205	0.075	738841	keystroke_l	l	n/a
369.631	0.0745	739262	keystroke_o	o	n/a
369.7355	0.075	739471	keystroke_g	g	n/a
369.886	0.105	739772	keystroke_g	g	n/a
370.0955	0.1805	740191	keystroke_e	e	n/a
370.2155	0.105	740431	keystroke_r	r	n/a
370.291	0.12	740582	keystroke_Key.space	Key.space	n/a
370.5905	0.1055	741181	keystroke_n	n	n/a
370.6655	0.1205	741331	keystroke_e	e	n/a
371.011	0.074	742022	keystroke_Key.backspace	Key.backspace	n/a
371.161	0.0595	742322	keystroke_Key.backspace	Key.backspace	n/a
371.281	0.1045	742562	keystroke_e	e	n/a
371.4305	0.09	742861	keystroke_n	n	n/a
371.8055	0.105	743611	keystroke_g	g	n/a
371.9405	0.135	743881	keystroke_i	i	n/a
372.06	0.0905	744120	keystroke_n	n	n/a
372.12	0.1505	744240	keystroke_e	e	n/a
372.255	0.1355	744510	keystroke_s	s	n/a
372.331	0.135	744662	keystroke_Key.space	Key.space	n/a
372.495	0.1505	744990	keystroke_r	r	n/a
372.585	0.1505	745170	keystroke_e	e	n/a
372.7205	0.135	745441	keystroke_s	s	n/a
372.886	0.075	745772	keystroke_u	u	n/a
373.081	0.105	746162	keystroke_l	l	n/a
373.2155	0.075	746431	keystroke_t	t	n/a
373.381	0.105	746762	keystroke_i	i	n/a
373.4705	0.1055	746941	keystroke_n	n	n/a
373.5155	0.1355	747031	keystroke_g	g	n/a
373.591	0.1795	747182	keystroke_Key.space	Key.space	n/a
373.756	0.0895	747512	keystroke_s	s	n/a
374.101	0.0895	748202	keystroke_Key.backspace	Key.backspace	n/a
374.2355	0.106	748471	keystroke_c	c	n/a
374.4005	0.0905	748801	keystroke_i	i	n/a
374.5665	0.1195	749133	keystroke_t	t	n/a
374.7005	0.075	749401	keystroke_i	i	n/a
375.046	0.0905	750092	keystroke_z	z	n/a
375.315	0.091	750630	keystroke_e	e	n/a
375.4205	0.0755	750841	keystroke_n	n	n/a
375.766	0.105	751532	keystroke_s	s	n/a
375.886	0.0745	751772	keystroke_h	h	n/a
376.111	0.0745	752222	keystroke_i	i	n/a
376.3355	0.1055	752671	keystroke_p	p	n/a
376.5905	0.105	753181	keystroke_Key.enter	Key.enter	n/a
376.7015	4.1665	753403	prompt	n/a	solo moving isn't came\n
377.28	0.106	754560	keystroke_s	s	n/a
377.431	0.075	754862	keystroke_o	o	n/a
377.611	0.105	755222	keystroke_l	l	n/a
377.776	0.0905	755552	keystroke_o	o	n/a
377.851	0.104	755702	keystroke_Key.space	Key.space	n/a
378.061	0.06	756122	keystroke_m	m	n/a
378.196	0.09	756392	keystroke_o	o	n/a
378.316	0.119	756632	keystroke_v	v	n/a
378.496	0.074	756992	keystroke_i	i	n/a
378.5555	0.09	757111	keystroke_n	n	n/a
378.6605	0.1045	757321	keystroke_g	g	n/a
378.721	0.1195	757442	keystroke_Key.space	Key.space	n/a
378.886	0.059	757772	keystroke_i	i	n/a
378.915	0.075	757830	keystroke_s	s	n/a
379.14	0.0605	758280	keystroke_n	n	n/a
379.32	0.09	758640	keystroke_'	'	n/a
379.486	0.1045	758972	keystroke_t	t	n/a
379.545	0.1355	759090	keystroke_Key.space	Key.space	n/a
380.206	0.1345	760412	keystroke_c	c	n/a
380.355	0.106	760710	keystroke_a	a	n/a
380.445	0.1055	760890	keystroke_m	m	n/a
380.596	0.105	761192	keystroke_e	e	n/a
380.746	0.12	761492	keystroke_Key.enter	Key.enter	n/a
380.8755	9.9065	761751	prompt	n/a	classical lucky motorcycle skype\n
382.231	0.105	764462	keystroke_c	c	n/a
382.35	0.09	764700	keystroke_l	l	n/a
382.515	0.1055	765030	keystroke_a	a	n/a
383.1005	0.0145	766201	keystroke_s	s	n/a
383.1905	0.1055	766381	keystroke_s	s	n/a
383.3105	0.1045	766621	keystroke_i	i	n/a
383.535	0.106	767070	keystroke_c	c	n/a
383.686	0.09	767372	keystroke_a	a	n/a
383.7905	0.0595	767581	keystroke_l	l	n/a
383.851	0.104	767702	keystroke_Key.space	Key.space	n/a
384.105	0.0605	768210	keystroke_l	l	n/a
384.331	0.075	768662	keystroke_u	u	n/a
384.435	0.1055	768870	keystroke_c	c	n/a
384.616	0.0745	769232	keystroke_k	k	n/a
384.856	0.06	769712	keystroke_y	y	n/a
384.916	0.1195	769832	keystroke_Key.space	Key.space	n/a
385.1105	0.09	770221	keystroke_m	m	n/a
385.2755	0.0755	770551	keystroke_o	o	n/a
385.381	0.1045	770762	keystroke_t	t	n/a
385.5155	0.1055	771031	keystroke_o	o	n/a
385.6805	0.105	771361	keystroke_r	r	n/a
386.0255	0.105	772051	keystroke_s	s	n/a
386.4605	0.0905	772921	keystroke_Key.backspace	Key.backspace	n/a
386.6105	0.105	773221	keystroke_c	c	n/a
386.776	0.074	773552	keystroke_y	y	n/a
387.091	0.105	774182	keystroke_c	c	n/a
387.241	0.0895	774482	keystroke_l	l	n/a
387.3905	0.1045	774781	keystroke_e	e	n/a
387.48	0.106	774960	keystroke_Key.space	Key.space	n/a
387.661	0.12	775322	keystroke_s	s	n/a
387.811	0.09	775622	keystroke_k	k	n/a
388.486	0.03	776972	keystroke_u	u	n/a
388.9205	0.0455	777841	keystroke_p	p	n/a
389.371	0.045	778742	keystroke_Key.backspace	Key.backspace	n/a
389.431	0.03	778862	keystroke_Key.backspace	Key.backspace	n/a
389.536	0.075	779072	keystroke_y	y	n/a
389.806	0.135	779612	keystroke_e	e	n/a
390.151	0.09	780302	keystroke_Key.backspace	Key.backspace	n/a
390.361	0.09	780722	keystroke_p	p	n/a
390.466	0.105	780932	keystroke_e	e	n/a
390.691	0.09	781382	keystroke_Key.enter	Key.enter	n/a
390.785	8.1425	781570	prompt	n/a	rough component publish wonderful\n
391.546	0.09	783092	keystroke_r	r	n/a
391.651	0.06	783302	keystroke_o	o	n/a
391.8455	0.06	783691	keystroke_u	u	n/a
391.9355	0.1055	783871	keystroke_g	g	n/a
392.161	0.0595	784322	keystroke_h	h	n/a
392.2205	0.105	784441	keystroke_Key.space	Key.space	n/a
392.566	0.105	785132	keystroke_c	c	n/a
392.656	0.105	785312	keystroke_o	o	n/a
392.746	0.0745	785492	keystroke_m	m	n/a
393.181	0.09	786362	keystroke_p	p	n/a
393.4055	0.09	786811	keystroke_e	e	n/a
393.5255	0.09	787051	keystroke_n	n	n/a
394.006	0.045	788012	keystroke_Key.backspace	Key.backspace	n/a
394.126	0.045	788252	keystroke_Key.backspace	Key.backspace	n/a
394.3655	0.135	788731	keystroke_o	o	n/a
394.486	0.09	788972	keystroke_n	n	n/a
394.5605	0.0905	789121	keystroke_e	e	n/a
394.696	0.074	789392	keystroke_n	n	n/a
395.415	0.1055	790830	keystroke_t	t	n/a
395.505	0.121	791010	keystroke_Key.space	Key.space	n/a
395.896	0.1045	791792	keystroke_p	p	n/a
396.1805	0.0755	792361	keystroke_u	u	n/a
396.436	0.075	792872	keystroke_b	b	n/a
396.631	0.09	793262	keystroke_l	l	n/a
396.8405	0.09	793681	keystroke_i	i	n/a
396.9465	0.104	793893	keystroke_s	s	n/a
397.111	0.0295	794222	keystroke_h	h	n/a
397.1255	0.105	794251	keystroke_Key.space	Key.space	n/a
397.411	0.09	794822	keystroke_w	w	n/a
397.486	0.105	794972	keystroke_o	o	n/a
397.576	0.09	795152	keystroke_n	n	n/a
397.7255	0.1055	795451	keystroke_d	d	n/a
397.951	0.135	795902	keystroke_e	e	n/a
398.056	0.09	796112	keystroke_r	r	n/a
398.251	0.105	796502	keystroke_f	f	n/a
398.371	0.06	796742	keystroke_u	u	n/a
398.596	0.09	797192	keystroke_l	l	n/a
398.8205	0.105	797641	keystroke_Key.enter	Key.enter	n/a
398.9325	12.1455	797865	prompt	n/a	looking conscious beat ordered\n
399.5865	0.044	799173	keystroke_l	l	n/a
399.7205	0.0605	799441	keystroke_o	o	n/a
399.8555	0.1655	799711	keystroke_o	o	n/a
399.9755	0.1055	799951	keystroke_k	k	n/a
400.201	0.1495	800402	keystroke_i	i	n/a
400.321	0.105	800642	keystroke_n	n	n/a
400.4405	0.075	800881	keystroke_g	g	n/a
400.486	0.105	800972	keystroke_Key.space	Key.space	n/a
400.741	0.105	801482	keystroke_c	c	n/a
400.9055	0.1505	801811	keystroke_o	o	n/a
401.01	0.105	802020	keystroke_n	n	n/a
401.476	0.12	802952	keystroke_s	s	n/a
401.746	0.09	803492	keystroke_c	c	n/a
401.9405	0.09	803881	keystroke_i	i	n/a
402.2255	0.15	804451	keystroke_e	e	n/a
402.361	0.12	804722	keystroke_r	r	n/a
402.7505	0.0605	805501	keystroke_Key.backspace	Key.backspace	n/a
402.8705	0.0755	805741	keystroke_Key.backspace	Key.backspace	n/a
403.1255	0.0905	806251	keystroke_o	o	n/a
403.366	0.12	806732	keystroke_w	w	n/a
403.471	0.12	806942	keystroke_Key.space	Key.space	n/a
404.431	0.075	808862	keystroke_Key.backspace	Key.backspace	n/a
404.581	0.075	809162	keystroke_Key.backspace	Key.backspace	n/a
405.016	0.12	810032	keystroke_s	s	n/a
405.151	0.12	810302	keystroke_Key.space	Key.space	n/a
405.361	0.105	810722	keystroke_b	b	n/a
405.9305	0.075	811861	keystroke_Key.backspace	Key.backspace	n/a
406.111	0.045	812222	keystroke_Key.backspace	Key.backspace	n/a
406.261	0.045	812522	keystroke_Key.backspace	Key.backspace	n/a
406.396	0.075	812792	keystroke_Key.backspace	Key.backspace	n/a
406.606	0.06	813212	keystroke_Key.backspace	Key.backspace	n/a
406.935	0.0755	813870	keystroke_Key.backspace	Key.backspace	n/a
407.806	0.119	815612	keystroke_c	c	n/a
407.94	0.075	815880	keystroke_i	i	n/a
408.1505	0.075	816301	keystroke_o	o	n/a
408.361	0.0595	816722	keystroke_u	u	n/a
408.4355	0.09	816871	keystroke_s	s	n/a
408.5105	0.105	817021	keystroke_Key.space	Key.space	n/a
408.7355	0.06	817471	keystroke_b	b	n/a
408.8105	0.135	817621	keystroke_e	e	n/a
408.9465	0.104	817893	keystroke_a	a	n/a
409.1105	0.106	818221	keystroke_t	t	n/a
409.1705	0.12	818341	keystroke_Key.space	Key.space	n/a
409.4705	0.0905	818941	keystroke_o	o	n/a
409.6955	0.09	819391	keystroke_r	r	n/a
410.011	0.119	820022	keystroke_d	d	n/a
410.341	0.09	820682	keystroke_e	e	n/a
410.4165	0.1345	820833	keystroke_r	r	n/a
410.596	0.075	821192	keystroke_e	e	n/a
410.8505	0.0755	821701	keystroke_d	d	n/a
410.9855	0.09	821971	keystroke_Key.enter	Key.enter	n/a
411.082	7.225	822164	prompt	n/a	thousands dirty machinery offer\n
411.706	0.0895	823412	keystroke_t	t	n/a
411.8255	0.075	823651	keystroke_h	h	n/a
411.976	0.0745	823952	keystroke_o	o	n/a
412.366	0.09	824732	keystroke_u	u	n/a
413.101	0.105	826202	keystroke_s	s	n/a
413.326	0.09	826652	keystroke_a	a	n/a
413.461	0.09	826922	keystroke_n	n	n/a
413.581	0.165	827162	keystroke_d	d	n/a
413.7755	0.15	827551	keystroke_s	s	n/a
414.1505	0.12	828301	keystroke_Key.space	Key.space	n/a
414.78	0.121	829560	keystroke_d	d	n/a
414.885	0.106	829770	keystroke_i	i	n/a
415.0505	0.09	830101	keystroke_r	r	n/a
415.2605	0.0755	830521	keystroke_t	t	n/a
415.5	0.0605	831000	keystroke_y	y	n/a
415.606	0.089	831212	keystroke_Key.space	Key.space	n/a
415.861	0.09	831722	keystroke_m	m	n/a
415.921	0.1045	831842	keystroke_a	a	n/a
416.0855	0.1355	832171	keystroke_c	c	n/a
416.2215	0.059	832443	keystroke_h	h	n/a
416.5205	0.075	833041	keystroke_i	i	n/a
416.6705	0.12	833341	keystroke_n	n	n/a
416.926	0.149	833852	keystroke_e	e	n/a
417.0605	0.1055	834121	keystroke_r	r	n/a
417.256	0.06	834512	keystroke_y	y	n/a
417.36	0.105	834720	keystroke_Key.space	Key.space	n/a
417.6	0.0905	835200	keystroke_o	o	n/a
417.676	0.0595	835352	keystroke_f	f	n/a
417.81	0.06	835620	keystroke_f	f	n/a
417.975	0.135	835950	keystroke_e	e	n/a
418.066	0.119	836132	keystroke_r	r	n/a
418.2005	0.1045	836401	keystroke_Key.enter	Key.enter	n/a
418.3115	8.022	836623	prompt	n/a	rational partition determining enters\n
418.92	0.1205	837840	keystroke_r	r	n/a
419.0705	0.105	838141	keystroke_a	a	n/a
419.235	0.09	838470	keystroke_t	t	n/a
419.926	0.1045	839852	keystroke_i	i	n/a
420.1655	0.165	840331	keystroke_o	o	n/a
420.2855	0.0905	840571	keystroke_n	n	n/a
420.3905	0.105	840781	keystroke_a	a	n/a
420.5405	0.105	841081	keystroke_l	l	n/a
420.6605	0.09	841321	keystroke_Key.space	Key.space	n/a
420.871	0.09	841742	keystroke_p	p	n/a
421.1405	0.105	842281	keystroke_a	a	n/a
421.3355	0.075	842671	keystroke_r	r	n/a
421.5305	0.06	843061	keystroke_t	t	n/a
421.6655	0.0755	843331	keystroke_i	i	n/a
421.86	0.076	843720	keystroke_t	t	n/a
421.9505	0.09	843901	keystroke_i	i	n/a
422.1755	0.1355	844351	keystroke_o	o	n/a
422.2955	0.075	844591	keystroke_n	n	n/a
422.3855	0.0895	844771	keystroke_Key.space	Key.space	n/a
422.671	0.0895	845342	keystroke_d	d	n/a
422.985	0.015	845970	keystroke_e	e	n/a
423.0155	0.0905	846031	keystroke_t	t	n/a
423.136	0.194	846272	keystroke_e	e	n/a
423.3455	0.0605	846691	keystroke_r	r	n/a
423.5405	0.09	847081	keystroke_m	m	n/a
423.8105	0.1205	847621	keystroke_i	i	n/a
423.886	0.1195	847772	keystroke_n	n	n/a
424.0655	0.1355	848131	keystroke_i	i	n/a
424.1855	0.105	848371	keystroke_n	n	n/a
424.3055	0.135	848611	keystroke_g	g	n/a
424.41	0.121	848820	keystroke_Key.space	Key.space	n/a
424.7855	0.105	849571	keystroke_e	e	n/a
424.935	0.075	849870	keystroke_n	n	n/a
425.07	0.075	850140	keystroke_t	t	n/a
425.6705	0.15	851341	keystroke_e	e	n/a
425.7905	0.1505	851581	keystroke_r	r	n/a
426.016	0.135	852032	keystroke_s	s	n/a
426.211	0.119	852422	keystroke_Key.enter	Key.enter	n/a
426.3395	7.433	852679	prompt	n/a	catalog themes roulette maintained\n
427.0205	0.105	854041	keystroke_c	c	n/a
427.171	0.1045	854342	keystroke_a	a	n/a
427.336	0.059	854672	keystroke_l	l	n/a
427.44	0.045	854880	keystroke_a	a	n/a
427.725	0.0755	855450	keystroke_Key.backspace	Key.backspace	n/a
427.8755	0.0745	855751	keystroke_Key.backspace	Key.backspace	n/a
427.965	0.076	855930	keystroke_t	t	n/a
428.056	0.15	856112	keystroke_a	a	n/a
428.265	0.106	856530	keystroke_l	l	n/a
428.4905	0.09	856981	keystroke_o	o	n/a
428.6105	0.1205	857221	keystroke_g	g	n/a
428.761	0.105	857522	keystroke_Key.space	Key.space	n/a
429.121	0.089	858242	keystroke_t	t	n/a
429.301	0.0445	858602	keystroke_h	h	n/a
429.3605	0.075	858721	keystroke_e	e	n/a
429.5565	0.074	859113	keystroke_m	m	n/a
429.6605	0.135	859321	keystroke_e	e	n/a
429.9155	0.1355	859831	keystroke_s	s	n/a
430.036	0.119	860072	keystroke_Key.space	Key.space	n/a
430.23	0.121	860460	keystroke_r	r	n/a
430.38	0.061	860760	keystroke_o	o	n/a
430.606	0.06	861212	keystroke_u	u	n/a
431.056	0.089	862112	keystroke_l	l	n/a
431.176	0.105	862352	keystroke_e	e	n/a
431.506	0.105	863012	keystroke_t	t	n/a
431.656	0.105	863312	keystroke_t	t	n/a
431.956	0.135	863912	keystroke_e	e	n/a
432.121	0.105	864242	keystroke_Key.space	Key.space	n/a
432.376	0.09	864752	keystroke_m	m	n/a
432.496	0.105	864992	keystroke_a	a	n/a
432.661	0.104	865322	keystroke_i	i	n/a
432.736	0.105	865472	keystroke_n	n	n/a
432.9155	0.0745	865831	keystroke_t	t	n/a
433.006	0.12	866012	keystroke_a	a	n/a
433.156	0.09	866312	keystroke_i	i	n/a
433.216	0.105	866432	keystroke_n	n	n/a
433.336	0.075	866672	keystroke_e	e	n/a
433.531	0.12	867062	keystroke_d	d	n/a
433.681	0.0895	867362	keystroke_Key.enter	Key.enter	n/a
433.7765	7.166	867553	prompt	n/a	knowing controls arch bedding\n
434.4305	0.0755	868861	keystroke_k	k	n/a
434.565	0.0455	869130	keystroke_k	k	n/a
434.716	0.059	869432	keystroke_n	n	n/a
434.94	0.06	869880	keystroke_o	o	n/a
435.27	0.0305	870540	keystroke_Key.backspace	Key.backspace	n/a
435.3905	0.075	870781	keystroke_Key.backspace	Key.backspace	n/a
435.8705	0.09	871741	keystroke_Key.backspace	Key.backspace	n/a
436.141	0.074	872282	keystroke_n	n	n/a
436.2905	0.09	872581	keystroke_o	o	n/a
436.4255	0.105	872851	keystroke_w	w	n/a
436.6055	0.15	873211	keystroke_i	i	n/a
436.7105	0.1045	873421	keystroke_n	n	n/a
436.83	0.12	873660	keystroke_g	g	n/a
436.905	0.105	873810	keystroke_Key.space	Key.space	n/a
437.19	0.105	874380	keystroke_c	c	n/a
437.325	0.12	874650	keystroke_o	o	n/a
437.416	0.089	874832	keystroke_n	n	n/a
437.5205	0.1205	875041	keystroke_t	t	n/a
437.641	0.119	875282	keystroke_r	r	n/a
437.761	0.0595	875522	keystroke_o	o	n/a
437.9255	0.1045	875851	keystroke_l	l	n/a
438.0605	0.12	876121	keystroke_s	s	n/a
438.195	0.0905	876390	keystroke_Key.space	Key.space	n/a
438.916	0.12	877832	keystroke_a	a	n/a
439.201	0.075	878402	keystroke_r	r	n/a
439.4405	0.105	878881	keystroke_c	c	n/a
439.5755	0.075	879151	keystroke_h	h	n/a
439.666	0.0895	879332	keystroke_Key.space	Key.space	n/a
439.875	0.06	879750	keystroke_b	b	n/a
439.9505	0.0755	879901	keystroke_e	e	n/a
440.1455	0.06	880291	keystroke_d	d	n/a
440.2655	0.1045	880531	keystroke_d	d	n/a
440.4605	0.1205	880921	keystroke_i	i	n/a
440.551	0.105	881102	keystroke_n	n	n/a
440.671	0.0745	881342	keystroke_g	g	n/a
440.8355	0.105	881671	keystroke_Key.enter	Key.enter	n/a
440.9495	6.8785	881899	prompt	n/a	granny sweden eyes episode\n
441.6905	0.075	883381	keystroke_g	g	n/a
441.8705	0.15	883741	keystroke_r	r	n/a
442.021	0.12	884042	keystroke_a	a	n/a
442.155	0.061	884310	keystroke_n	n	n/a
442.2755	0.0755	884551	keystroke_n	n	n/a
442.516	0.06	885032	keystroke_y	y	n/a
442.56	0.106	885120	keystroke_Key.space	Key.space	n/a
442.8905	0.0755	885781	keystroke_s	s	n/a
443.131	0.1495	886262	keystroke_w	w	n/a
443.3255	0.075	886651	keystroke_e	e	n/a
443.9105	0.0445	887821	keystroke_d	d	n/a
443.9705	0.0745	887941	keystroke_e	e	n/a
444.075	0.0755	888150	keystroke_n	n	n/a
444.135	0.12	888270	keystroke_Key.space	Key.space	n/a
444.39	0.09	888780	keystroke_e	e	n/a
444.6605	0.1495	889321	keystroke_e	e	n/a
445.11	0.0755	890220	keystroke_Key.backspace	Key.backspace	n/a
445.44	0.0905	890880	keystroke_y	y	n/a
445.5005	0.1945	891001	keystroke_e	e	n/a
445.6505	0.1045	891301	keystroke_s	s	n/a
445.725	0.1205	891450	keystroke_Key.space	Key.space	n/a
445.92	0.105	891840	keystroke_e	e	n/a
446.07	0.076	892140	keystroke_p	p	n/a
446.2955	0.09	892591	keystroke_i	i	n/a
446.4455	0.105	892891	keystroke_d	d	n/a
446.9855	0.09	893971	keystroke_Key.backspace	Key.backspace	n/a
447.1055	0.105	894211	keystroke_s	s	n/a
447.2555	0.09	894511	keystroke_o	o	n/a
447.3305	0.105	894661	keystroke_d	d	n/a
447.5555	0.1205	895111	keystroke_e	e	n/a
447.7205	0.105	895441	keystroke_Key.enter	Key.enter	n/a
447.832	10.8705	895664	prompt	n/a	recovery gibraltar slots nutritional\n
448.5455	0.119	897091	keystroke_r	r	n/a
448.651	0.12	897302	keystroke_e	e	n/a
448.8755	0.09	897751	keystroke_c	c	n/a
448.9955	0.09	897991	keystroke_o	o	n/a
449.1005	0.09	898201	keystroke_v	v	n/a
449.34	0.106	898680	keystroke_e	e	n/a
449.4155	0.12	898831	keystroke_r	r	n/a
449.7005	0.075	899401	keystroke_y	y	n/a
449.7905	0.1195	899581	keystroke_Key.space	Key.space	n/a
450.3905	0.0595	900781	keystroke_g	g	n/a
450.5705	0.135	901141	keystroke_r	r	n/a
451.4105	0.075	902821	keystroke_Key.backspace	Key.backspace	n/a
451.6955	0.09	903391	keystroke_i	i	n/a
452.04	0.016	904080	keystroke_b	b	n/a
452.326	0.1195	904652	keystroke_r	r	n/a
452.506	0.119	905012	keystroke_a	a	n/a
452.91	0.1055	905820	keystroke_l	l	n/a
453.2405	0.1195	906481	keystroke_t	t	n/a
453.39	0.136	906780	keystroke_a	a	n/a
453.5105	0.12	907021	keystroke_Key.space	Key.space	n/a
453.9455	0.06	907891	keystroke_Key.backspace	Key.backspace	n/a
454.4255	0.12	908851	keystroke_r	r	n/a
454.5305	0.1205	909061	keystroke_Key.space	Key.space	n/a
454.801	0.0895	909602	keystroke_s	s	n/a
455.07	0.075	910140	keystroke_l	l	n/a
455.25	0.075	910500	keystroke_o	o	n/a
455.341	0.105	910682	keystroke_t	t	n/a
455.476	0.149	910952	keystroke_s	s	n/a
455.595	0.105	911190	keystroke_Key.space	Key.space	n/a
456.481	0.075	912962	keystroke_n	n	n/a
456.766	0.074	913532	keystroke_u	u	n/a
457.0205	0.12	914041	keystroke_t	t	n/a
457.1255	0.135	914251	keystroke_r	r	n/a
457.305	0.0755	914610	keystroke_i	i	n/a
457.6955	0.075	915391	keystroke_t	t	n/a
457.785	0.06	915570	keystroke_i	i	n/a
457.9805	0.1195	915961	keystroke_o	o	n/a
458.0555	0.1195	916111	keystroke_n	n	n/a
458.22	0.105	916440	keystroke_a	a	n/a
458.3405	0.12	916681	keystroke_l	l	n/a
458.611	0.089	917222	keystroke_Key.enter	Key.enter	n/a
458.707	5.1705	917414	prompt	n/a	meter zone publisher assists\n
459.3605	0.09	918721	keystroke_m	m	n/a
459.421	0.09	918842	keystroke_e	e	n/a
459.6005	0.09	919201	keystroke_t	t	n/a
459.7505	0.1345	919501	keystroke_e	e	n/a
459.8405	0.12	919681	keystroke_r	r	n/a
459.9305	0.1195	919861	keystroke_Key.space	Key.space	n/a
460.171	0.12	920342	keystroke_z	z	n/a
460.351	0.135	920702	keystroke_o	o	n/a
460.456	0.105	920912	keystroke_n	n	n/a
460.546	0.104	921092	keystroke_e	e	n/a
460.606	0.1345	921212	keystroke_Key.space	Key.space	n/a
460.7705	0.0595	921541	keystroke_p	p	n/a
461.01	0.09	922020	keystroke_u	u	n/a
461.1605	0.0595	922321	keystroke_b	b	n/a
461.3705	0.09	922741	keystroke_l	l	n/a
461.5805	0.09	923161	keystroke_i	i	n/a
461.805	0.075	923610	keystroke_s	s	n/a
462.0455	0.0905	924091	keystroke_h	h	n/a
462.24	0.105	924480	keystroke_e	e	n/a
462.33	0.1205	924660	keystroke_r	r	n/a
462.405	0.12	924810	keystroke_Key.space	Key.space	n/a
462.586	0.09	925172	keystroke_a	a	n/a
462.7955	0.045	925591	keystroke_s	s	n/a
462.915	0.0905	925830	keystroke_s	s	n/a
463.0805	0.09	926161	keystroke_i	i	n/a
463.1555	0.12	926311	keystroke_s	s	n/a
463.5605	0.0455	927121	keystroke_t	t	n/a
463.62	0.136	927240	keystroke_s	s	n/a
463.786	0.09	927572	keystroke_Key.enter	Key.enter	n/a
463.8815	7.841	927763	prompt	n/a	systematic jessica effective books\n
464.7155	0.1055	929431	keystroke_s	s	n/a
464.8805	0.075	929761	keystroke_y	y	n/a
464.9105	0.0905	929821	keystroke_s	s	n/a
465.15	0.091	930300	keystroke_t	t	n/a
465.241	0.12	930482	keystroke_e	e	n/a
465.406	0.0895	930812	keystroke_m	m	n/a
465.646	0.1045	931292	keystroke_a	a	n/a
465.8705	0.075	931741	keystroke_t	t	n/a
466.0505	0.0755	932101	keystroke_i	i	n/a
466.141	0.135	932282	keystroke_c	c	n/a
466.26	0.0905	932520	keystroke_Key.space	Key.space	n/a
466.4705	0.075	932941	keystroke_j	j	n/a
466.5605	0.105	933121	keystroke_s	s	n/a
466.711	0.1045	933422	keystroke_e	e	n/a
467.1305	0.075	934261	keystroke_Key.backspace	Key.backspace	n/a
467.2805	0.075	934561	keystroke_Key.backspace	Key.backspace	n/a
467.3255	0.09	934651	keystroke_e	e	n/a
467.4755	0.0905	934951	keystroke_s	s	n/a
467.656	0.09	935312	keystroke_s	s	n/a
467.806	0.0895	935612	keystroke_i	i	n/a
468.3905	0.0905	936781	keystroke_c	c	n/a
468.631	0.1045	937262	keystroke_a	a	n/a
468.8105	0.12	937621	keystroke_Key.space	Key.space	n/a
469.186	0.0445	938372	keystroke_e	e	n/a
469.3805	0.0755	938761	keystroke_f	f	n/a
469.5155	0.0905	939031	keystroke_f	f	n/a
469.651	0.104	939302	keystroke_e	e	n/a
469.876	0.089	939752	keystroke_c	c	n/a
470.116	0.06	940232	keystroke_t	t	n/a
470.265	0.075	940530	keystroke_i	i	n/a
470.355	0.09	940710	keystroke_v	v	n/a
470.565	0.105	941130	keystroke_e	e	n/a
470.641	0.119	941282	keystroke_Key.space	Key.space	n/a
470.8515	0.0435	941703	keystroke_b	b	n/a
471.0455	0.075	942091	keystroke_o	o	n/a
471.1805	0.195	942361	keystroke_o	o	n/a
471.331	0.1345	942662	keystroke_k	k	n/a
471.4955	0.105	942991	keystroke_s	s	n/a
471.6155	0.105	943231	keystroke_Key.enter	Key.enter	n/a
471.727	6.9105	943454	prompt	n/a	naval operated propecia ebay\n
472.2305	0.09	944461	keystroke_s	s	n/a
472.575	0.0755	945150	keystroke_Key.backspace	Key.backspace	n/a
472.801	0.075	945602	keystroke_n	n	n/a
472.8905	0.0905	945781	keystroke_a	a	n/a
473.2205	0.0755	946441	keystroke_v	v	n/a
473.6405	0.015	947281	keystroke_a	a	n/a
473.6705	0.03	947341	keystroke_l	l	n/a
473.7305	0.09	947461	keystroke_Key.space	Key.space	n/a
474.076	0.0745	948152	keystroke_o	o	n/a
474.2705	0.09	948541	keystroke_p	p	n/a
474.331	0.1345	948662	keystroke_e	e	n/a
474.4355	0.12	948871	keystroke_r	r	n/a
474.5705	0.09	949141	keystroke_a	a	n/a
474.7205	0.105	949441	keystroke_t	t	n/a
474.8555	0.1045	949711	keystroke_e	e	n/a
475.0655	0.105	950131	keystroke_d	d	n/a
475.1555	0.09	950311	keystroke_Key.space	Key.space	n/a
475.291	0.0895	950582	keystroke_p	p	n/a
475.4255	0.09	950851	keystroke_r	r	n/a
475.531	0.0895	951062	keystroke_o	o	n/a
476.0255	0.0455	952051	keystroke_p	p	n/a
476.4605	0.12	952921	keystroke_e	e	n/a
476.7005	0.105	953401	keystroke_c	c	n/a
476.8505	0.09	953701	keystroke_i	i	n/a
476.9705	0.12	953941	keystroke_a	a	n/a
477.075	0.105	954150	keystroke_Key.space	Key.space	n/a
477.5705	0.1045	955141	keystroke_e	e	n/a
477.721	0.09	955442	keystroke_b	b	n/a
477.931	0.09	955862	keystroke_a	a	n/a
478.291	0.09	956582	keystroke_y	y	n/a
478.561	0.075	957122	keystroke_Key.enter	Key.enter	n/a
478.642	4.6	957284	prompt	n/a	newbie axis busy drain\n
479.356	0.105	958712	keystroke_n	n	n/a
479.521	0.0595	959042	keystroke_e	e	n/a
479.7005	0.09	959401	keystroke_w	w	n/a
479.9105	0.06	959821	keystroke_b	b	n/a
480.1055	0.09	960211	keystroke_i	i	n/a
480.2105	0.1345	960421	keystroke_e	e	n/a
480.3005	0.135	960601	keystroke_Key.space	Key.space	n/a
480.57	0.076	961140	keystroke_a	a	n/a
480.841	0.135	961682	keystroke_x	x	n/a
481.066	0.074	962132	keystroke_i	i	n/a
481.23	0.135	962460	keystroke_s	s	n/a
481.381	0.1195	962762	keystroke_Key.space	Key.space	n/a
481.636	0.0745	963272	keystroke_b	b	n/a
481.8	0.0755	963600	keystroke_u	u	n/a
481.8905	0.1205	963781	keystroke_s	s	n/a
482.041	0.06	964082	keystroke_y	y	n/a
482.115	0.105	964230	keystroke_Key.space	Key.space	n/a
482.445	0.09	964890	keystroke_d	d	n/a
482.655	0.121	965310	keystroke_r	r	n/a
482.791	0.104	965582	keystroke_a	a	n/a
482.866	0.1045	965732	keystroke_i	i	n/a
482.9405	0.105	965881	keystroke_n	n	n/a
483.1505	0.09	966301	keystroke_Key.enter	Key.enter	n/a
483.246	6.881	966492	prompt	n/a	contacted fiction human consider\n
483.916	0.1045	967832	keystroke_c	c	n/a
484.141	0.015	968282	keystroke_o	o	n/a
484.4555	0.121	968911	keystroke_n	n	n/a
484.6805	0.09	969361	keystroke_t	t	n/a
484.9205	0.105	969841	keystroke_a	a	n/a
485.1155	0.105	970231	keystroke_c	c	n/a
485.3705	0.09	970741	keystroke_t	t	n/a
485.5205	0.045	971041	keystroke_e	e	n/a
485.6405	0.12	971281	keystroke_d	d	n/a
485.7605	0.12	971521	keystroke_Key.space	Key.space	n/a
485.9705	0.0905	971941	keystroke_f	f	n/a
486.1955	0.075	972391	keystroke_i	i	n/a
486.3305	0.105	972661	keystroke_c	c	n/a
486.631	0.0595	973262	keystroke_t	t	n/a
486.7355	0.075	973471	keystroke_i	i	n/a
486.916	0.1045	973832	keystroke_o	o	n/a
487.006	0.09	974012	keystroke_n	n	n/a
487.081	0.1195	974162	keystroke_Key.space	Key.space	n/a
487.2305	0.1355	974461	keystroke_f	f	n/a
487.606	0.074	975212	keystroke_Key.backspace	Key.backspace	n/a
487.921	0.075	975842	keystroke_h	h	n/a
488.116	0.06	976232	keystroke_u	u	n/a
488.34	0.09	976680	keystroke_m	m	n/a
488.475	0.106	976950	keystroke_a	a	n/a
488.566	0.0895	977132	keystroke_n	n	n/a
488.6705	0.1055	977341	keystroke_Key.space	Key.space	n/a
488.9255	0.105	977851	keystroke_c	c	n/a
489.0455	0.12	978091	keystroke_o	o	n/a
489.1355	0.0905	978271	keystroke_n	n	n/a
489.2405	0.0905	978481	keystroke_s	s	n/a
489.3315	0.089	978663	keystroke_i	i	n/a
489.496	0.1345	978992	keystroke_d	d	n/a
489.781	0.12	979562	keystroke_e	e	n/a
489.8555	0.1055	979711	keystroke_r	r	n/a
490.021	0.104	980042	keystroke_Key.enter	Key.enter	n/a
490.131	8.2335	980262	prompt	n/a	specifies twelve dispatched prominent\n
490.7555	0.1045	981511	keystroke_s	s	n/a
490.876	0.1045	981752	keystroke_p	p	n/a
491.026	0.0745	982052	keystroke_e	e	n/a
491.2505	0.106	982501	keystroke_c	c	n/a
491.4155	0.09	982831	keystroke_i	i	n/a
491.6105	0.09	983221	keystroke_f	f	n/a
491.7305	0.09	983461	keystroke_i	i	n/a
491.8955	0.1355	983791	keystroke_e	e	n/a
492.076	0.165	984152	keystroke_s	s	n/a
492.196	0.12	984392	keystroke_Key.space	Key.space	n/a
492.601	0.09	985202	keystroke_t	t	n/a
492.7805	0.12	985561	keystroke_w	w	n/a
492.961	0.105	985922	keystroke_e	e	n/a
493.1255	0.0905	986251	keystroke_l	l	n/a
493.306	0.105	986612	keystroke_e	e	n/a
493.725	0.06	987450	keystroke_Key.backspace	Key.backspace	n/a
493.816	0.09	987632	keystroke_v	v	n/a
494.0255	0.1355	988051	keystroke_e	e	n/a
494.1305	0.105	988261	keystroke_Key.space	Key.space	n/a
494.896	0.135	989792	keystroke_d	d	n/a
495.031	0.075	990062	keystroke_i	i	n/a
495.091	0.105	990182	keystroke_s	s	n/a
495.301	0.09	990602	keystroke_p	p	n/a
495.406	0.105	990812	keystroke_a	a	n/a
495.676	0.075	991352	keystroke_t	t	n/a
495.916	0.09	991832	keystroke_c	c	n/a
496.021	0.075	992042	keystroke_h	h	n/a
496.171	0.075	992342	keystroke_e	e	n/a
496.351	0.12	992702	keystroke_d	d	n/a
496.441	0.105	992882	keystroke_Key.space	Key.space	n/a
496.6805	0.09	993361	keystroke_p	p	n/a
496.816	0.1045	993632	keystroke_r	r	n/a
496.935	0.1355	993870	keystroke_o	o	n/a
497.1005	0.1205	994201	keystroke_m	m	n/a
497.4005	0.135	994801	keystroke_i	i	n/a
497.506	0.1195	995012	keystroke_n	n	n/a
497.731	0.0895	995462	keystroke_e	e	n/a
497.851	0.09	995702	keystroke_n	n	n/a
498.076	0.0895	996152	keystroke_t	t	n/a
498.286	0.074	996572	keystroke_Key.enter	Key.enter	n/a
498.3695	8.3635	996739	prompt	n/a	graphics advances motorcycles must've\n
499.2605	0.105	998521	keystroke_g	g	n/a
499.531	0.119	999062	keystroke_r	r	n/a
499.68	0.12	999360	keystroke_a	a	n/a
499.83	0.09	999660	keystroke_p	p	n/a
500.086	0.0745	1000172	keystroke_h	h	n/a
500.2955	0.09	1000591	keystroke_i	i	n/a
500.4005	0.09	1000801	keystroke_c	c	n/a
