onset	duration	sample	value	key	prompt_text
3.3785	0.091	6757	keystroke_Key.space	Key.space	n/a
3.5035	7.6655	7007	prompt	n/a	the quick brown fox jumps over a lazy dog\n
5.589	0.027	11178	keystroke_t	t	n/a
5.59	0.056	11180	keystroke_h	h	n/a
5.706	0.135	11412	keystroke_e	e	n/a
5.916	0.09	11832	keystroke_Key.space	Key.space	n/a
6.036	0.135	12072	keystroke_q	q	n/a
6.201	0.06	12402	keystroke_u	u	n/a
6.366	0.075	12732	keystroke_i	i	n/a
6.4865	0.1195	12973	keystroke_c	c	n/a
6.6215	0.105	13243	keystroke_k	k	n/a
6.6815	0.0895	13363	keystroke_Key.space	Key.space	n/a
6.8465	0.0745	13693	keystroke_b	b	n/a
6.9365	0.075	13873	keystroke_r	r	n/a
7.0265	0.075	14053	keystroke_o	o	n/a
7.1315	0.09	14263	keystroke_w	w	n/a
7.1915	0.0605	14383	keystroke_n	n	n/a
7.312	0.0895	14624	keystroke_Key.space	Key.space	n/a
7.4915	0.105	14983	keystroke_f	f	n/a
7.5815	0.09	15163	keystroke_o	o	n/a
7.7015	0.1055	15403	keystroke_x	x	n/a
7.822	0.09	15644	keystroke_Key.space	Key.space	n/a
7.912	0.075	15824	keystroke_j	j	n/a
8.062	0.075	16124	keystroke_u	u	n/a
8.197	0.105	16394	keystroke_m	m	n/a
8.392	0.06	16784	keystroke_p	p	n/a
8.482	0.09	16964	keystroke_s	s	n/a
8.6465	0.075	17293	keystroke_Key.space	Key.space	n/a
8.7815	0.09	17563	keystroke_o	o	n/a
8.7965	0.12	17593	keystroke_v	v	n/a
8.9765	0.12	17953	keystroke_e	e	n/a
9.0365	0.135	18073	keystroke_r	r	n/a
9.1865	0.075	18373	keystroke_Key.space	Key.space	n/a
9.4565	0.105	18913	keystroke_a	a	n/a
9.5615	0.075	19123	keystroke_Key.space	Key.space	n/a
9.7415	0.06	19483	keystroke_l	l	n/a
9.7865	0.09	19573	keystroke_a	a	n/a
9.9515	0.105	19903	keystroke_z	z	n/a
10.177	0.075	20354	keystroke_y	y	n/a
10.281	0.076	20562	keystroke_Key.space	Key.space	n/a
10.372	0.135	20744	keystroke_d	d	n/a
10.492	0.0595	20984	keystroke_o	o	n/a
10.582	0.09	21164	keystroke_g	g	n/a
11.107	0.0595	22214	keystroke_Key.enter	Key.enter	n/a
11.173	5.3655	22346	prompt	n/a	medium divisions silly individually\n
11.7365	0.12	23473	keystroke_m	m	n/a
11.8715	0.03	23743	keystroke_e	e	n/a
11.9765	0.12	23953	keystroke_d	d	n/a
12.0815	0.09	24163	keystroke_i	i	n/a
12.2615	0.0895	24523	keystroke_u	u	n/a
12.396	0.0755	24792	keystroke_m	m	n/a
12.5465	0.075	25093	keystroke_Key.space	Key.space	n/a
12.6365	0.09	25273	keystroke_d	d	n/a
12.7415	0.075	25483	keystroke_i	i	n/a
12.8615	0.075	25723	keystroke_v	v	n/a
12.9665	0.075	25933	keystroke_i	i	n/a
13.0265	0.12	26053	keystroke_s	s	n/a
13.1615	0.03	26323	keystroke_i	i	n/a
13.2365	0.105	26473	keystroke_o	o	n/a
13.2815	0.105	26563	keystroke_n	n	n/a
13.5215	0.105	27043	keystroke_s	s	n/a
13.912	0.074	27824	keystroke_Key.space	Key.space	n/a
14.046	0.105	28092	keystroke_s	s	n/a
14.166	0.06	28332	keystroke_i	i	n/a
14.331	0.0605	28662	keystroke_l	l	n/a
14.4365	0.075	28873	keystroke_l	l	n/a
14.5265	0.105	29053	keystroke_y	y	n/a
14.6465	0.075	29293	keystroke_Key.space	Key.space	n/a
14.7665	0.1045	29533	keystroke_i	i	n/a
14.8265	0.105	29653	keystroke_n	n	n/a
14.9465	0.12	29893	keystroke_d	d	n/a
15.1265	0.09	30253	keystroke_i	i	n/a
15.3815	0.09	30763	keystroke_v	v	n/a
15.5015	0.105	31003	keystroke_i	i	n/a
15.6215	0.12	31243	keystroke_d	d	n/a
15.7565	0.06	31513	keystroke_u	u	n/a
15.8465	0.12	31693	keystroke_a	a	n/a
15.9815	0.06	31963	keystroke_l	l	n/a
16.0865	0.09	32173	keystroke_l	l	n/a
16.2215	0.09	32443	keystroke_y	y	n/a
16.4615	0.075	32923	keystroke_Key.enter	Key.enter	n/a
16.541	8.0375	33082	prompt	n/a	aurora latter functional harm\n
17.0465	0.18	34093	keystroke_m	m	n/a
17.2715	0.075	34543	keystroke_Key.backspace	Key.backspace	n/a
17.3765	0.12	34753	keystroke_a	a	n/a
17.5115	0.12	35023	keystroke_r	r	n/a
17.6165	0.075	35233	keystroke_u	u	n/a
17.9015	0.105	35803	keystroke_r	r	n/a
18.261	0.1205	36522	keystroke_Key.backspace	Key.backspace	n/a
18.8915	0.075	37783	keystroke_Key.backspace	Key.backspace	n/a
19.0265	0.09	38053	keystroke_Key.backspace	Key.backspace	n/a
19.3115	0.015	38623	keystroke_y	y	n/a
19.3115	0.03	38623	keystroke_u	u	n/a
19.4315	0.105	38863	keystroke_r	r	n/a
19.7315	0.075	39463	keystroke_Key.backspace	Key.backspace	n/a
19.896	0.165	39792	keystroke_Key.backspace	Key.backspace	n/a
20.286	0.075	40572	keystroke_Key.backspace	Key.backspace	n/a
20.587	0.12	41174	keystroke_u	u	n/a
20.9465	0.105	41893	keystroke_r	r	n/a
21.0365	0.09	42073	keystroke_o	o	n/a
21.1415	0.15	42283	keystroke_r	r	n/a
21.2015	0.135	42403	keystroke_a	a	n/a
21.4565	0.09	42913	keystroke_Key.space	Key.space	n/a
21.7115	0.105	43423	keystroke_l	l	n/a
21.8015	0.0905	43603	keystroke_a	a	n/a
21.967	0.075	43934	keystroke_t	t	n/a
22.102	0.09	44204	keystroke_t	t	n/a
22.222	0.165	44444	keystroke_e	e	n/a
22.327	0.105	44654	keystroke_r	r	n/a
22.416	0.121	44832	keystroke_Key.space	Key.space	n/a
22.522	0.105	45044	keystroke_f	f	n/a
22.642	0.104	45284	keystroke_u	u	n/a
22.657	0.134	45314	keystroke_n	n	n/a
22.776	0.09	45552	keystroke_c	c	n/a
23.031	0.09	46062	keystroke_t	t	n/a
23.091	0.075	46182	keystroke_i	i	n/a
23.226	0.105	46452	keystroke_o	o	n/a
23.271	0.09	46542	keystroke_n	n	n/a
23.391	0.12	46782	keystroke_a	a	n/a
23.451	0.15	46902	keystroke_l	l	n/a
23.556	0.0755	47112	keystroke_Key.space	Key.space	n/a
23.7665	0.06	47533	keystroke_h	h	n/a
23.9615	0.1945	47923	keystroke_a	a	n/a
24.141	0.1205	48282	keystroke_r	r	n/a
24.2615	0.09	48523	keystroke_m	m	n/a
24.5015	0.075	49003	keystroke_Key.enter	Key.enter	n/a
24.582	5.531	49164	prompt	n/a	readers evaluations fans moore\n
25.162	0.135	50324	keystroke_r	r	n/a
25.252	0.09	50504	keystroke_e	e	n/a
25.3565	0.12	50713	keystroke_a	a	n/a
25.4915	0.15	50983	keystroke_d	d	n/a
25.7315	0.135	51463	keystroke_e	e	n/a
26.0165	0.105	52033	keystroke_r	r	n/a
26.1665	0.1195	52333	keystroke_s	s	n/a
26.331	0.0905	52662	keystroke_Key.space	Key.space	n/a
26.4365	0.06	52873	keystroke_e	e	n/a
26.6015	0.105	53203	keystroke_v	v	n/a
26.7365	0.09	53473	keystroke_a	a	n/a
26.8865	0.0895	53773	keystroke_l	l	n/a
27.126	0.061	54252	keystroke_u	u	n/a
27.231	0.06	54462	keystroke_a	a	n/a
27.411	0.075	54822	keystroke_t	t	n/a
27.531	0.09	55062	keystroke_i	i	n/a
27.681	0.105	55362	keystroke_o	o	n/a
27.741	0.09	55482	keystroke_n	n	n/a
27.846	0.106	55692	keystroke_s	s	n/a
28.116	0.0905	56232	keystroke_Key.space	Key.space	n/a
28.251	0.135	56502	keystroke_f	f	n/a
28.731	0.106	57462	keystroke_a	a	n/a
29.047	0.09	58094	keystroke_n	n	n/a
29.152	0.105	58304	keystroke_s	s	n/a
29.272	0.06	58544	keystroke_Key.space	Key.space	n/a
29.407	0.105	58814	keystroke_m	m	n/a
29.482	0.075	58964	keystroke_o	o	n/a
29.632	0.09	59264	keystroke_o	o	n/a
29.767	0.1045	59534	keystroke_r	r	n/a
29.826	0.09	59652	keystroke_e	e	n/a
30.036	0.075	60072	keystroke_Key.enter	Key.enter	n/a
30.1155	3.613	60231	prompt	n/a	stranger loss costa land\n
30.6815	0.09	61363	keystroke_s	s	n/a
30.8165	0.105	61633	keystroke_t	t	n/a
30.8765	0.105	61753	keystroke_r	r	n/a
31.0415	0.15	62083	keystroke_a	a	n/a
31.1615	0.06	62323	keystroke_n	n	n/a
31.2665	0.105	62533	keystroke_g	g	n/a
31.3415	0.12	62683	keystroke_e	e	n/a
31.4315	0.09	62863	keystroke_r	r	n/a
31.5365	0.06	63073	keystroke_Key.space	Key.space	n/a
31.6865	0.075	63373	keystroke_l	l	n/a
31.8215	0.0755	63643	keystroke_o	o	n/a
31.942	0.075	63884	keystroke_s	s	n/a
32.062	0.12	64124	keystroke_s	s	n/a
32.212	0.09	64424	keystroke_Key.space	Key.space	n/a
32.347	0.12	64694	keystroke_c	c	n/a
32.452	0.075	64904	keystroke_o	o	n/a
32.542	0.12	65084	keystroke_s	s	n/a
32.692	0.12	65384	keystroke_t	t	n/a
32.782	0.104	65564	keystroke_a	a	n/a
32.917	0.074	65834	keystroke_Key.space	Key.space	n/a
33.067	0.075	66134	keystroke_l	l	n/a
33.127	0.0895	66254	keystroke_a	a	n/a
33.2465	0.06	66493	keystroke_n	n	n/a
33.4115	0.09	66823	keystroke_d	d	n/a
33.6365	0.09	67273	keystroke_Key.enter	Key.enter	n/a
33.734	6.9245	67468	prompt	n/a	paperback demanding railway inspections\n
34.3565	0.105	68713	keystroke_p	p	n/a
34.4765	0.105	68953	keystroke_a	a	n/a
34.8215	0.09	69643	keystroke_p	p	n/a
34.9715	0.06	69943	keystroke_e	e	n/a
34.9865	0.12	69973	keystroke_r	r	n/a
35.5415	0.09	71083	keystroke_b	b	n/a
35.7215	0.135	71443	keystroke_a	a	n/a
35.7815	0.15	71563	keystroke_c	c	n/a
35.9015	0.09	71803	keystroke_k	k	n/a
35.9615	0.09	71923	keystroke_Key.space	Key.space	n/a
36.0665	0.045	72133	keystroke_e	e	n/a
36.3965	0.075	72793	keystroke_Key.backspace	Key.backspace	n/a
36.4715	0.0745	72943	keystroke_d	d	n/a
36.606	0.09	73212	keystroke_e	e	n/a
36.697	0.089	73394	keystroke_m	m	n/a
36.846	0.06	73692	keystroke_a	a	n/a
36.951	0.09	73902	keystroke_n	n	n/a
37.251	0.075	74502	keystroke_d	d	n/a
37.341	0.09	74682	keystroke_i	i	n/a
37.386	0.106	74772	keystroke_n	n	n/a
37.476	0.09	74952	keystroke_g	g	n/a
37.596	0.06	75192	keystroke_Key.space	Key.space	n/a
37.716	0.105	75432	keystroke_r	r	n/a
37.8365	0.1045	75673	keystroke_a	a	n/a
37.956	0.075	75912	keystroke_i	i	n/a
38.106	0.09	76212	keystroke_l	l	n/a
38.242	0.15	76484	keystroke_w	w	n/a
38.302	0.105	76604	keystroke_a	a	n/a
38.542	0.0895	77084	keystroke_y	y	n/a
38.9615	0.105	77923	keystroke_Key.space	Key.space	n/a
39.2315	0.09	78463	keystroke_i	i	n/a
39.2915	0.09	78583	keystroke_n	n	n/a
39.3825	0.119	78765	keystroke_s	s	n/a
39.5165	0.0745	79033	keystroke_p	p	n/a
39.5615	0.0755	79123	keystroke_e	e	n/a
39.681	0.12	79362	keystroke_c	c	n/a
39.966	0.09	79932	keystroke_t	t	n/a
40.027	0.059	80054	keystroke_i	i	n/a
40.146	0.09	80292	keystroke_o	o	n/a
40.176	0.12	80352	keystroke_n	n	n/a
40.281	0.106	80562	keystroke_s	s	n/a
40.581	0.075	81162	keystroke_Key.enter	Key.enter	n/a
40.6615	9.0575	81323	prompt	n/a	disciplines donna structured rick\n
41.3165	0.0755	82633	keystroke_d	d	n/a
41.557	0.075	83114	keystroke_i	i	n/a
41.6765	0.09	83353	keystroke_s	s	n/a
41.8415	0.0905	83683	keystroke_c	c	n/a
42.052	0.09	84104	keystroke_i	i	n/a
43.8365	0.0595	87673	keystroke_Key.backspace	Key.backspace	n/a
43.956	0.09	87912	keystroke_Key.backspace	Key.backspace	n/a
44.7365	0.075	89473	keystroke_c	c	n/a
44.8125	0.074	89625	keystroke_i	i	n/a
45.741	0.106	91482	keystroke_p	p	n/a
45.817	0.044	91634	keystroke_l	l	n/a
45.997	0.089	91994	keystroke_i	i	n/a
46.027	0.105	92054	keystroke_n	n	n/a
46.117	0.06	92234	keystroke_e	e	n/a
46.207	0.12	92414	keystroke_s	s	n/a
46.461	0.091	92922	keystroke_Key.space	Key.space	n/a
46.567	0.09	93134	keystroke_d	d	n/a
46.671	0.09	93342	keystroke_o	o	n/a
46.776	0.075	93552	keystroke_n	n	n/a
46.911	0.075	93822	keystroke_n	n	n/a
47.0615	0.135	94123	keystroke_a	a	n/a
47.2115	0.105	94423	keystroke_Key.space	Key.space	n/a
47.407	0.09	94814	keystroke_s	s	n/a
47.602	0.12	95204	keystroke_t	t	n/a
47.677	0.09	95354	keystroke_r	r	n/a
47.872	0.06	95744	keystroke_u	u	n/a
47.977	0.105	95954	keystroke_c	c	n/a
48.2165	0.075	96433	keystroke_t	t	n/a
48.3365	0.075	96673	keystroke_u	u	n/a
48.4265	0.165	96853	keystroke_r	r	n/a
48.5165	0.135	97033	keystroke_e	e	n/a
48.7715	0.12	97543	keystroke_d	d	n/a
48.9065	0.09	97813	keystroke_Key.space	Key.space	n/a
49.0115	0.075	98023	keystroke_r	r	n/a
49.0875	0.074	98175	keystroke_i	i	n/a
49.1915	0.09	98383	keystroke_c	c	n/a
49.2665	0.09	98533	keystroke_k	k	n/a
49.6565	0.06	99313	keystroke_Key.enter	Key.enter	n/a
49.7275	5.616	99455	prompt	n/a	merchants chemicals inns term\n
50.227	0.09	100454	keystroke_m	m	n/a
50.332	0.12	100664	keystroke_e	e	n/a
50.407	0.105	100814	keystroke_r	r	n/a
50.632	0.09	101264	keystroke_c	c	n/a
50.707	0.09	101414	keystroke_h	h	n/a
50.812	0.1195	101624	keystroke_a	a	n/a
50.9015	0.075	101803	keystroke_n	n	n/a
51.0965	0.15	102193	keystroke_t	t	n/a
51.2165	0.135	102433	keystroke_s	s	n/a
51.3965	0.09	102793	keystroke_Key.space	Key.space	n/a
51.892	0.105	103784	keystroke_c	c	n/a
52.012	0.045	104024	keystroke_h	h	n/a
52.1015	0.09	104203	keystroke_e	e	n/a
52.2215	0.1205	104443	keystroke_m	m	n/a
52.327	0.09	104654	keystroke_i	i	n/a
52.402	0.1345	104804	keystroke_c	c	n/a
52.462	0.1345	104924	keystroke_a	a	n/a
52.7615	0.105	105523	keystroke_l	l	n/a
52.9115	0.105	105823	keystroke_s	s	n/a
53.5865	0.075	107173	keystroke_Key.space	Key.space	n/a
53.7365	0.075	107473	keystroke_i	i	n/a
53.8265	0.0755	107653	keystroke_n	n	n/a
53.962	0.09	107924	keystroke_n	n	n/a
54.096	0.136	108192	keystroke_s	s	n/a
54.292	0.105	108584	keystroke_Key.space	Key.space	n/a
54.532	0.165	109064	keystroke_t	t	n/a
54.652	0.12	109304	keystroke_e	e	n/a
54.877	0.06	109754	keystroke_r	r	n/a
54.982	0.075	109964	keystroke_m	m	n/a
55.267	0.074	110534	keystroke_Key.enter	Key.enter	n/a
55.366	4.492	110732	prompt	n/a	proper purchased sound dive\n
56.1815	0.075	112363	keystroke_p	p	n/a
56.3015	0.09	112603	keystroke_r	r	n/a
56.4065	0.075	112813	keystroke_o	o	n/a
56.5415	0.105	113083	keystroke_p	p	n/a
56.6315	0.12	113263	keystroke_e	e	n/a
56.6915	0.105	113383	keystroke_r	r	n/a
56.9465	0.09	113893	keystroke_Key.space	Key.space	n/a
57.1565	0.06	114313	keystroke_p	p	n/a
57.532	0.075	115064	keystroke_u	u	n/a
57.652	0.075	115304	keystroke_r	r	n/a
57.832	0.105	115664	keystroke_c	c	n/a
57.937	0.09	115874	keystroke_h	h	n/a
58.012	0.135	116024	keystroke_a	a	n/a
58.117	0.135	116234	keystroke_s	s	n/a
58.282	0.075	116564	keystroke_e	e	n/a
58.446	0.076	116892	keystroke_d	d	n/a
58.537	0.105	117074	keystroke_Key.space	Key.space	n/a
58.627	0.12	117254	keystroke_s	s	n/a
58.717	0.075	117434	keystroke_o	o	n/a
58.882	0.075	117764	keystroke_u	u	n/a
58.897	0.105	117794	keystroke_n	n	n/a
58.972	0.075	117944	keystroke_d	d	n/a
59.076	0.121	118152	keystroke_Key.space	Key.space	n/a
59.182	0.09	118364	keystroke_d	d	n/a
59.287	0.045	118574	keystroke_i	i	n/a
59.362	0.105	118724	keystroke_v	v	n/a
59.437	0.09	118874	keystroke_e	e	n/a
59.782	0.0745	119564	keystroke_Key.enter	Key.enter	n/a
59.861	4.572	119722	prompt	n/a	determined loose tube brooks\n
60.472	0.075	120944	keystroke_d	d	n/a
60.637	0.045	121274	keystroke_e	e	n/a
60.772	0.09	121544	keystroke_t	t	n/a
60.907	0.135	121814	keystroke_e	e	n/a
60.997	0.09	121994	keystroke_r	r	n/a
61.102	0.09	122204	keystroke_m	m	n/a
61.237	0.119	122474	keystroke_i	i	n/a
61.282	0.105	122564	keystroke_n	n	n/a
61.402	0.075	122804	keystroke_e	e	n/a
61.597	0.105	123194	keystroke_d	d	n/a
61.672	0.074	123344	keystroke_Key.space	Key.space	n/a
61.836	0.076	123672	keystroke_l	l	n/a
61.987	0.06	123974	keystroke_o	o	n/a
62.092	0.09	124184	keystroke_o	o	n/a
62.197	0.105	124394	keystroke_s	s	n/a
62.257	0.12	124514	keystroke_e	e	n/a
62.392	0.09	124784	keystroke_Key.space	Key.space	n/a
62.542	0.09	125084	keystroke_t	t	n/a
62.707	0.075	125414	keystroke_u	u	n/a
62.856	0.076	125712	keystroke_b	b	n/a
62.946	0.075	125892	keystroke_e	e	n/a
63.126	0.06	126252	keystroke_Key.space	Key.space	n/a
63.216	0.135	126432	keystroke_b	b	n/a
63.336	0.09	126672	keystroke_r	r	n/a
63.411	0.06	126822	keystroke_o	o	n/a
63.516	0.09	127032	keystroke_o	o	n/a
63.666	0.09	127332	keystroke_k	k	n/a
63.741	0.0905	127482	keystroke_e	e	n/a
64.0715	0.075	128143	keystroke_Key.backspace	Key.backspace	n/a
64.1315	0.105	128263	keystroke_s	s	n/a
64.3415	0.09	128683	keystroke_Key.enter	Key.enter	n/a
64.4355	9.7925	128871	prompt	n/a	chicago vatican differently saying\n
65.1815	0.075	130363	keystroke_c	c	n/a
65.3015	0.105	130603	keystroke_h	h	n/a
65.3615	0.12	130723	keystroke_i	i	n/a
65.5115	0.12	131023	keystroke_c	c	n/a
65.5865	0.135	131173	keystroke_a	a	n/a
65.872	0.0895	131744	keystroke_g	g	n/a
65.9765	0.09	131953	keystroke_o	o	n/a
66.1265	0.12	132253	keystroke_Key.space	Key.space	n/a
66.4265	0.105	132853	keystroke_v	v	n/a
66.5915	0.12	133183	keystroke_a	a	n/a
66.8315	0.09	133663	keystroke_t	t	n/a
66.9515	0.075	133903	keystroke_i	i	n/a
67.1015	0.135	134203	keystroke_c	c	n/a
67.1615	0.135	134323	keystroke_a	a	n/a
67.2815	0.06	134563	keystroke_n	n	n/a
67.417	0.09	134834	keystroke_Key.space	Key.space	n/a
67.567	0.09	135134	keystroke_d	d	n/a
67.627	0.075	135254	keystroke_i	i	n/a
67.762	0.074	135524	keystroke_f	f	n/a
67.896	0.061	135792	keystroke_f	f	n/a
68.092	0.119	136184	keystroke_e	e	n/a
68.167	0.165	136334	keystroke_r	r	n/a
68.286	0.121	136572	keystroke_e	e	n/a
68.422	0.045	136844	keystroke_n	n	n/a
68.511	0.12	137022	keystroke_t	t	n/a
68.602	0.09	137204	keystroke_l	l	n/a
68.721	0.076	137442	keystroke_y	y	n/a
70.9885	0.013	141977	keystroke_Key.space	Key.space	n/a
71.1665	0.105	142333	keystroke_s	s	n/a
71.3165	0.105	142633	keystroke_a	a	n/a
71.5265	0.075	143053	keystroke_y	y	n/a
71.5565	0.06	143113	keystroke_w	w	n/a
72.3965	0.135	144793	keystroke_Key.backspace	Key.backspace	n/a
72.801	0.09	145602	keystroke_i	i	n/a
72.817	0.119	145634	keystroke_n	n	n/a
73.042	0.104	146084	keystroke_g	g	n/a
74.151	0.075	148302	keystroke_Key.enter	Key.enter	n/a
74.2305	6.343	148461	prompt	n/a	measuring portion balloon beneficial\n
74.7665	0.075	149533	keystroke_m	m	n/a
75.0065	0.075	150013	keystroke_e	e	n/a
75.0825	0.164	150165	keystroke_a	a	n/a
75.1865	0.135	150373	keystroke_s	s	n/a
75.352	0.089	150704	keystroke_u	u	n/a
75.472	0.09	150944	keystroke_r	r	n/a
75.532	0.12	151064	keystroke_i	i	n/a
75.592	0.105	151184	keystroke_n	n	n/a
75.667	0.105	151334	keystroke_g	g	n/a
75.891	0.09	151782	keystroke_Key.space	Key.space	n/a
76.116	0.121	152232	keystroke_p	p	n/a
76.357	0.075	152714	keystroke_o	o	n/a
76.552	0.09	153104	keystroke_r	r	n/a
76.612	0.135	153224	keystroke_t	t	n/a
76.776	0.0755	153552	keystroke_i	i	n/a
76.8815	0.12	153763	keystroke_o	o	n/a
76.9415	0.075	153883	keystroke_n	n	n/a
77.0915	0.09	154183	keystroke_Key.space	Key.space	n/a
77.3015	0.1055	154603	keystroke_b	b	n/a
77.481	0.105	154962	keystroke_a	a	n/a
77.602	0.074	155204	keystroke_l	l	n/a
77.721	0.09	155442	keystroke_l	l	n/a
77.9015	0.06	155803	keystroke_o	o	n/a
78.0215	0.105	156043	keystroke_o	o	n/a
78.321	0.09	156642	keystroke_n	n	n/a
78.531	0.105	157062	keystroke_Key.space	Key.space	n/a
78.876	0.031	157752	keystroke_b	b	n/a
78.936	0.135	157872	keystroke_e	e	n/a
79.116	0.075	158232	keystroke_n	n	n/a
79.221	0.105	158442	keystroke_e	e	n/a
79.446	0.09	158892	keystroke_f	f	n/a
79.566	0.09	159132	keystroke_i	i	n/a
79.716	0.09	159432	keystroke_c	c	n/a
79.821	0.0755	159642	keystroke_i	i	n/a
79.9415	0.12	159883	keystroke_a	a	n/a
80.1065	0.09	160213	keystroke_l	l	n/a
80.5115	0.06	161023	keystroke_Key.enter	Key.enter	n/a
80.576	8.142	161152	prompt	n/a	thehun frequency tract universities\n
81.246	0.09	162492	keystroke_t	t	n/a
81.291	0.09	162582	keystroke_h	h	n/a
81.441	0.09	162882	keystroke_e	e	n/a
81.696	0.09	163392	keystroke_h	h	n/a
81.982	0.06	163964	keystroke_u	u	n/a
82.072	0.104	164144	keystroke_n	n	n/a
82.2515	0.09	164503	keystroke_Key.space	Key.space	n/a
82.5965	0.12	165193	keystroke_r	r	n/a
82.9715	0.09	165943	keystroke_Key.backspace	Key.backspace	n/a
83.0765	0.105	166153	keystroke_f	f	n/a
83.2715	0.12	166543	keystroke_r	r	n/a
83.3315	0.1195	166663	keystroke_e	e	n/a
83.6015	0.12	167203	keystroke_q	q	n/a
83.9465	0.12	167893	keystroke_u	u	n/a
84.171	0.0905	168342	keystroke_e	e	n/a
84.4115	0.0895	168823	keystroke_n	n	n/a
84.5465	0.1195	169093	keystroke_c	c	n/a
84.8465	0.0745	169693	keystroke_y	y	n/a
84.996	0.075	169992	keystroke_Key.space	Key.space	n/a
85.2065	0.12	170413	keystroke_t	t	n/a
85.266	0.09	170532	keystroke_r	r	n/a
85.4765	0.12	170953	keystroke_a	a	n/a
85.5815	0.105	171163	keystroke_c	c	n/a
85.821	0.09	171642	keystroke_t	t	n/a
85.956	0.105	171912	keystroke_Key.space	Key.space	n/a
86.196	0.09	172392	keystroke_u	u	n/a
86.241	0.091	172482	keystroke_n	n	n/a
86.707	0.09	173414	keystroke_i	i	n/a
86.902	0.12	173804	keystroke_v	v	n/a
87.007	0.164	174014	keystroke_e	e	n/a
87.082	0.104	174164	keystroke_r	r	n/a
87.336	0.12	174672	keystroke_s	s	n/a
87.546	0.09	175092	keystroke_i	i	n/a
87.696	0.09	175392	keystroke_t	t	n/a
87.801	0.0905	175602	keystroke_i	i	n/a
87.9215	0.105	175843	keystroke_e	e	n/a
88.1165	0.105	176233	keystroke_s	s	n/a
88.6565	0.06	177313	keystroke_Key.enter	Key.enter	n/a
88.721	5.367	177442	prompt	n/a	supply strand demands article\n
89.2565	0.105	178513	keystroke_s	s	n/a
89.4215	0.075	178843	keystroke_u	u	n/a
89.6165	0.075	179233	keystroke_p	p	n/a
89.7515	0.075	179503	keystroke_p	p	n/a
89.9015	0.09	179803	keystroke_l	l	n/a
90.0365	0.06	180073	keystroke_y	y	n/a
90.2165	0.06	180433	keystroke_Key.space	Key.space	n/a
90.3515	0.12	180703	keystroke_s	s	n/a
90.4865	0.09	180973	keystroke_t	t	n/a
90.5315	0.06	181063	keystroke_r	r	n/a
90.6365	0.135	181273	keystroke_a	a	n/a
90.7865	0.075	181573	keystroke_n	n	n/a
90.9965	0.075	181993	keystroke_d	d	n/a
91.2515	0.09	182503	keystroke_Key.space	Key.space	n/a
91.7315	0.03	183463	keystroke_d	d	n/a
91.851	0.075	183702	keystroke_e	e	n/a
91.941	0.09	183882	keystroke_m	m	n/a
92.061	0.105	184122	keystroke_a	a	n/a
92.181	0.0755	184362	keystroke_n	n	n/a
92.3015	0.075	184603	keystroke_d	d	n/a
92.5115	0.09	185023	keystroke_s	s	n/a
92.6615	0.105	185323	keystroke_Key.space	Key.space	n/a
92.9765	0.105	185953	keystroke_a	a	n/a
93.171	0.075	186342	keystroke_r	r	n/a
93.216	0.12	186432	keystroke_t	t	n/a
93.321	0.075	186642	keystroke_i	i	n/a
93.4715	0.09	186943	keystroke_c	c	n/a
93.5315	0.075	187063	keystroke_l	l	n/a
93.6515	0.075	187303	keystroke_e	e	n/a
94.0265	0.06	188053	keystroke_Key.enter	Key.enter	n/a
94.0905	7.0025	188181	prompt	n/a	consists embedded tube lessons\n
94.6865	0.12	189373	keystroke_c	c	n/a
94.7615	0.12	189523	keystroke_o	o	n/a
94.8365	0.075	189673	keystroke_n	n	n/a
94.9265	0.075	189853	keystroke_s	s	n/a
95.2115	0.075	190423	keystroke_i	i	n/a
95.6915	0.15	191383	keystroke_s	s	n/a
95.856	0.105	191712	keystroke_t	t	n/a
95.931	0.105	191862	keystroke_s	s	n/a
96.501	0.075	193002	keystroke_Key.space	Key.space	n/a
96.6815	0.105	193363	keystroke_c	c	n/a
96.9515	0.075	193903	keystroke_Key.backspace	Key.backspace	n/a
97.0415	0.075	194083	keystroke_e	e	n/a
97.1615	0.075	194323	keystroke_m	m	n/a
97.2965	0.1045	194593	keystroke_b	b	n/a
97.7315	0.075	195463	keystroke_e	e	n/a
97.9415	0.075	195883	keystroke_d	d	n/a
98.0915	0.075	196183	keystroke_d	d	n/a
98.3465	0.06	196693	keystroke_e	e	n/a
98.5115	0.0745	197023	keystroke_d	d	n/a
98.601	0.09	197202	keystroke_Key.space	Key.space	n/a
98.722	0.104	197444	keystroke_t	t	n/a
98.872	0.074	197744	keystroke_u	u	n/a
99.006	0.06	198012	keystroke_b	b	n/a
99.336	0.09	198672	keystroke_e	e	n/a
99.441	0.09	198882	keystroke_Key.space	Key.space	n/a
99.651	0.075	199302	keystroke_l	l	n/a
99.786	0.03	199572	keystroke_e	e	n/a
99.9665	0.09	199933	keystroke_s	s	n/a
100.1015	0.105	200203	keystroke_s	s	n/a
100.491	0.12	200982	keystroke_o	o	n/a
100.551	0.09	201102	keystroke_n	n	n/a
100.656	0.105	201312	keystroke_s	s	n/a
101.016	0.075	202032	keystroke_Key.enter	Key.enter	n/a
101.096	10.662	202192	prompt	n/a	orlando electricity immigrants mysimon\n
101.6915	0.075	203383	keystroke_o	o	n/a
101.8265	0.105	203653	keystroke_r	r	n/a
101.9915	0.105	203983	keystroke_l	l	n/a
102.0815	0.105	204163	keystroke_a	a	n/a
102.1875	0.074	204375	keystroke_n	n	n/a
102.2915	0.075	204583	keystroke_d	d	n/a
102.5765	0.075	205153	keystroke_o	o	n/a
102.8465	0.09	205693	keystroke_Key.space	Key.space	n/a
103.012	0.074	206024	keystroke_e	e	n/a
103.161	0.105	206322	keystroke_l	l	n/a
103.251	0.076	206502	keystroke_e	e	n/a
103.431	0.075	206862	keystroke_c	c	n/a
103.626	0.1055	207252	keystroke_t	t	n/a
103.641	0.1205	207282	keystroke_r	r	n/a
103.896	0.06	207792	keystroke_i	i	n/a
106.404	0.042	212808	keystroke_c	c	n/a
106.521	0.06	213042	keystroke_i	i	n/a
106.641	0.135	213282	keystroke_t	t	n/a
106.731	0.135	213462	keystroke_y	y	n/a
107.076	0.09	214152	keystroke_Key.space	Key.space	n/a
107.392	0.09	214784	keystroke_i	i	n/a
107.467	0.075	214934	keystroke_m	m	n/a
107.602	0.075	215204	keystroke_m	m	n/a
107.767	0.1045	215534	keystroke_i	i	n/a
107.9765	0.135	215953	keystroke_g	g	n/a
108.0515	0.105	216103	keystroke_r	r	n/a
108.2015	0.135	216403	keystroke_a	a	n/a
108.3215	0.075	216643	keystroke_n	n	n/a
108.4265	0.105	216853	keystroke_t	t	n/a
108.5015	0.12	217003	keystroke_s	s	n/a
108.7865	0.09	217573	keystroke_Key.space	Key.space	n/a
109.581	0.09	219162	keystroke_m	m	n/a
109.776	0.0755	219552	keystroke_y	y	n/a
110.106	0.105	220212	keystroke_s	s	n/a
110.301	0.075	220602	keystroke_i	i	n/a
110.422	0.104	220844	keystroke_m	m	n/a
110.557	0.104	221114	keystroke_o	o	n/a
110.616	0.091	221232	keystroke_n	n	n/a
111.681	0.075	223362	keystroke_Key.enter	Key.enter	n/a
111.761	6.8065	223522	prompt	n/a	boat corpus ordinance faqs\n
112.551	0.075	225102	keystroke_b	b	n/a
112.656	0.06	225312	keystroke_o	o	n/a
112.761	0.135	225522	keystroke_a	a	n/a
112.881	0.105	225762	keystroke_t	t	n/a
113.001	0.09	226002	keystroke_Key.space	Key.space	n/a
113.256	0.045	226512	keystroke_o	o	n/a
113.601	0.075	227202	keystroke_Key.backspace	Key.backspace	n/a
113.691	0.09	227382	keystroke_c	c	n/a
113.796	0.0605	227592	keystroke_o	o	n/a
113.916	0.105	227832	keystroke_r	r	n/a
114.501	0.106	229002	keystroke_p	p	n/a
114.727	0.075	229454	keystroke_u	u	n/a
114.787	0.12	229574	keystroke_s	s	n/a
114.922	0.0585	229844	keystroke_Key.space	Key.space	n/a
115.041	0.075	230082	keystroke_o	o	n/a
115.146	0.06	230292	keystroke_r	r	n/a
115.326	0.09	230652	keystroke_d	d	n/a
115.431	0.09	230862	keystroke_i	i	n/a
115.611	0.075	231222	keystroke_n	n	n/a
115.731	0.1205	231462	keystroke_a	a	n/a
115.8365	0.075	231673	keystroke_n	n	n/a
116.0165	0.105	232033	keystroke_c	c	n/a
116.0765	0.12	232153	keystroke_e	e	n/a
116.5415	0.09	233083	keystroke_Key.space	Key.space	n/a
116.6765	0.135	233353	keystroke_f	f	n/a
116.8565	0.135	233713	keystroke_a	a	n/a
117.0665	0.12	234133	keystroke_w	w	n/a
117.5465	0.09	235093	keystroke_Key.backspace	Key.backspace	n/a
117.666	0.12	235332	keystroke_q	q	n/a
117.9665	0.075	235933	keystroke_s	s	n/a
118.4915	0.075	236983	keystroke_Key.enter	Key.enter	n/a
118.57	8.9375	237140	prompt	n/a	reproduce nathan segment previews\n
119.2115	0.165	238423	keystroke_r	r	n/a
119.3015	0.135	238603	keystroke_e	e	n/a
119.4665	0.09	238933	keystroke_p	p	n/a
119.6315	0.06	239263	keystroke_r	r	n/a
120.2165	0.09	240433	keystroke_o	o	n/a
120.3665	0.0895	240733	keystroke_d	d	n/a
120.486	0.075	240972	keystroke_u	u	n/a
120.591	0.12	241182	keystroke_c	c	n/a
120.666	0.12	241332	keystroke_e	e	n/a
121.056	0.105	242112	keystroke_Key.space	Key.space	n/a
121.341	0.075	242682	keystroke_n	n	n/a
121.431	0.105	242862	keystroke_a	a	n/a
121.656	0.105	243312	keystroke_t	t	n/a
121.701	0.09	243402	keystroke_h	h	n/a
121.896	0.12	243792	keystroke_a	a	n/a
122.031	0.06	244062	keystroke_n	n	n/a
122.196	0.075	244392	keystroke_Key.space	Key.space	n/a
122.316	0.09	244632	keystroke_s	s	n/a
122.481	0.075	244962	keystroke_e	e	n/a
122.586	0.105	245172	keystroke_f	f	n/a
122.721	0.12	245442	keystroke_m	m	n/a
123.006	0.09	246012	keystroke_e	e	n/a
123.4555	0.0605	246911	keystroke_Key.backspace	Key.backspace	n/a
123.606	0.075	247212	keystroke_Key.backspace	Key.backspace	n/a
123.741	0.1205	247482	keystroke_Key.backspace	Key.backspace	n/a
123.8465	0.105	247693	keystroke_g	g	n/a
124.0715	0.105	248143	keystroke_m	m	n/a
124.1765	0.105	248353	keystroke_e	e	n/a
124.2655	0.076	248531	keystroke_n	n	n/a
124.4015	0.105	248803	keystroke_t	t	n/a
124.9115	0.0745	249823	keystroke_Key.space	Key.space	n/a
125.1965	0.0745	250393	keystroke_p	p	n/a
125.2415	0.105	250483	keystroke_r	r	n/a
125.3015	0.105	250603	keystroke_e	e	n/a
125.5415	0.1045	251083	keystroke_v	v	n/a
125.6915	0.0745	251383	keystroke_i	i	n/a
125.767	0.15	251534	keystroke_e	e	n/a
125.8265	0.1195	251653	keystroke_w	w	n/a
126.021	0.15	252042	keystroke_s	s	n/a
127.4315	0.075	254863	keystroke_Key.enter	Key.enter	n/a
127.512	6.5655	255024	prompt	n/a	alice tiles karma there'd\n
128.0465	0.15	256093	keystroke_a	a	n/a
128.2415	0.12	256483	keystroke_l	l	n/a
128.4365	0.0745	256873	keystroke_i	i	n/a
128.766	0.12	257532	keystroke_c	c	n/a
128.811	0.15	257622	keystroke_e	e	n/a
129.021	0.09	258042	keystroke_Key.space	Key.space	n/a
129.231	0.135	258462	keystroke_t	t	n/a
129.336	0.06	258672	keystroke_i	i	n/a
129.486	0.105	258972	keystroke_l	l	n/a
129.576	0.09	259152	keystroke_e	e	n/a
129.7565	0.0895	259513	keystroke_s	s	n/a
129.861	0.06	259722	keystroke_Key.space	Key.space	n/a
129.9665	0.075	259933	keystroke_k	k	n/a
130.0265	0.135	260053	keystroke_a	a	n/a
130.1315	0.15	260263	keystroke_r	r	n/a
130.2665	0.09	260533	keystroke_m	m	n/a
130.3715	0.12	260743	keystroke_a	a	n/a
130.6715	0.09	261343	keystroke_Key.space	Key.space	n/a
130.8965	0.075	261793	keystroke_t	t	n/a
130.9265	0.09	261853	keystroke_h	h	n/a
131.0765	0.12	262153	keystroke_e	e	n/a
131.1515	0.12	262303	keystroke_r	r	n/a
131.2565	0.075	262513	keystroke_e	e	n/a
131.6615	0.06	263323	keystroke_'	'	n/a
131.7815	0.105	263563	keystroke_d	d	n/a
134.0635	0.013	268127	keystroke_Key.enter	Key.enter	n/a
134.0805	6.957	268161	prompt	n/a	corporate mystery subjective graphs\n
134.796	0.06	269592	keystroke_c	c	n/a
134.841	0.06	269682	keystroke_o	o	n/a
134.976	0.09	269952	keystroke_r	r	n/a
135.081	0.09	270162	keystroke_p	p	n/a
135.231	0.075	270462	keystroke_o	o	n/a
135.321	0.1055	270642	keystroke_r	r	n/a
135.4565	0.135	270913	keystroke_a	a	n/a
135.6365	0.12	271273	keystroke_t	t	n/a
135.7115	0.105	271423	keystroke_e	e	n/a
136.0265	0.09	272053	keystroke_Key.space	Key.space	n/a
136.2065	0.075	272413	keystroke_m	m	n/a
136.4015	0.105	272803	keystroke_y	y	n/a
136.5665	0.135	273133	keystroke_s	s	n/a
136.6865	0.105	273373	keystroke_t	t	n/a
136.8065	0.165	273613	keystroke_e	e	n/a
136.9115	0.12	273823	keystroke_r	r	n/a
137.2265	0.09	274453	keystroke_y	y	n/a
137.4065	0.105	274813	keystroke_Key.space	Key.space	n/a
137.5865	0.105	275173	keystroke_s	s	n/a
137.7215	0.075	275443	keystroke_u	u	n/a
137.8115	0.1045	275623	keystroke_b	b	n/a
137.931	0.075	275862	keystroke_j	j	n/a
137.991	0.12	275982	keystroke_e	e	n/a
138.096	0.105	276192	keystroke_c	c	n/a
138.291	0.06	276582	keystroke_t	t	n/a
138.381	0.06	276762	keystroke_i	i	n/a
138.471	0.105	276942	keystroke_v	v	n/a
138.516	0.15	277032	keystroke_e	e	n/a
138.741	0.105	277482	keystroke_Key.space	Key.space	n/a
138.906	0.12	277812	keystroke_g	g	n/a
138.966	0.09	277932	keystroke_r	r	n/a
139.206	0.06	278412	keystroke_p	p	n/a
139.446	0.09	278892	keystroke_Key.backspace	Key.backspace	n/a
139.551	0.105	279102	keystroke_a	a	n/a
139.686	0.075	279372	keystroke_p	p	n/a
139.791	0.06	279582	keystroke_g	g	n/a
139.866	0.12	279732	keystroke_s	s	n/a
140.256	0.075	280512	keystroke_Key.backspace	Key.backspace	n/a
140.391	0.075	280782	keystroke_Key.backspace	Key.backspace	n/a
140.481	0.105	280962	keystroke_h	h	n/a
140.631	0.15	281262	keystroke_s	s	n/a
140.9465	0.09	281893	keystroke_Key.enter	Key.enter	n/a
141.041	8.457	282082	prompt	n/a	commission without affiliation tasks\n
141.6665	0.12	283333	keystroke_c	c	n/a
141.7265	0.105	283453	keystroke_o	o	n/a
141.8015	0.06	283603	keystroke_m	m	n/a
141.9065	0.105	283813	keystroke_m	m	n/a
142.0865	0.09	284173	keystroke_i	i	n/a
142.206	0.1055	284412	keystroke_s	s	n/a
142.7165	0.105	285433	keystroke_s	s	n/a
142.8815	0.075	285763	keystroke_i	i	n/a
143.0015	0.105	286003	keystroke_o	o	n/a
143.0615	0.09	286123	keystroke_n	n	n/a
143.3915	0.12	286783	keystroke_Key.space	Key.space	n/a
143.691	0.105	287382	keystroke_a	a	n/a
143.991	0.09	287982	keystroke_Key.backspace	Key.backspace	n/a
144.066	0.09	288132	keystroke_w	w	n/a
144.1865	0.075	288373	keystroke_i	i	n/a
144.2765	0.12	288553	keystroke_t	t	n/a
144.3365	0.135	288673	keystroke_h	h	n/a
144.4115	0.075	288823	keystroke_o	o	n/a
144.5615	0.075	289123	keystroke_u	u	n/a
144.6215	0.09	289243	keystroke_t	t	n/a
144.7715	0.09	289543	keystroke_Key.space	Key.space	n/a
144.8915	0.105	289783	keystroke_a	a	n/a
145.0715	0.09	290143	keystroke_f	f	n/a
145.2215	0.09	290443	keystroke_f	f	n/a
146.0015	0.045	292003	keystroke_i	i	n/a
146.1215	0.06	292243	keystroke_l	l	n/a
146.2565	0.0745	292513	keystroke_i	i	n/a
147.4715	0.12	294943	keystroke_a	a	n/a
147.6965	0.09	295393	keystroke_t	t	n/a
147.7865	0.075	295573	keystroke_i	i	n/a
147.9215	0.09	295843	keystroke_o	o	n/a
147.9815	0.075	295963	keystroke_n	n	n/a
148.1465	0.09	296293	keystroke_Key.space	Key.space	n/a
148.2515	0.135	296503	keystroke_t	t	n/a
148.3115	0.2095	296623	keystroke_a	a	n/a
148.761	0.12	297522	keystroke_s	s	n/a
148.911	0.09	297822	keystroke_k	k	n/a
149.0315	0.09	298063	keystroke_s	s	n/a
149.4215	0.075	298843	keystroke_Key.enter	Key.enter	n/a
149.502	9.9555	299004	prompt	n/a	kingston existence albuquerque condo\n
150.1265	0.06	300253	keystroke_k	k	n/a
150.2765	0.075	300553	keystroke_i	i	n/a
150.3365	0.03	300673	keystroke_n	n	n/a
150.3815	0.105	300763	keystroke_g	g	n/a
150.9965	0.075	301993	keystroke_s	s	n/a
151.0405	0.1205	302081	keystroke_t	t	n/a
151.131	0.135	302262	keystroke_o	o	n/a
151.191	0.1055	302382	keystroke_n	n	n/a
151.461	0.12	302922	keystroke_Key.space	Key.space	n/a
151.881	0.091	303762	keystroke_e	e	n/a
152.076	0.105	304152	keystroke_x	x	n/a
152.286	0.09	304572	keystroke_i	i	n/a
152.3905	0.106	304781	keystroke_s	s	n/a
152.5405	0.135	305081	keystroke_t	t	n/a
152.6305	0.136	305261	keystroke_e	e	n/a
152.7515	0.0745	305503	keystroke_n	n	n/a
152.9605	0.105	305921	keystroke_c	c	n/a
152.976	0.1205	305952	keystroke_e	e	n/a
153.2605	0.09	306521	keystroke_Key.space	Key.space	n/a
153.5015	0.1195	307003	keystroke_a	a	n/a
153.636	0.09	307272	keystroke_l	l	n/a
153.906	0.045	307812	keystroke_b	b	n/a
154.941	0.06	309882	keystroke_u	u	n/a
156.066	0.12	312132	keystroke_q	q	n/a
156.366	0.075	312732	keystroke_u	u	n/a
157.2365	0.165	314473	keystroke_e	e	n/a
157.3115	0.15	314623	keystroke_r	r	n/a
157.731	0.12	315462	keystroke_q	q	n/a
157.852	0.074	315704	keystroke_u	u	n/a
157.971	0.105	315942	keystroke_e	e	n/a
158.376	0.105	316752	keystroke_Key.space	Key.space	n/a
158.5865	0.135	317173	keystroke_c	c	n/a
158.6615	0.12	317323	keystroke_o	o	n/a
158.7365	0.075	317473	keystroke_n	n	n/a
158.8115	0.09	317623	keystroke_d	d	n/a
158.8865	0.075	317773	keystroke_o	o	n/a
159.366	0.09	318732	keystroke_Key.enter	Key.enter	n/a
159.4605	6.762	318921	prompt	n/a	france soap accurately personality\n
160.1165	0.105	320233	keystroke_f	f	n/a
160.2365	0.075	320473	keystroke_r	r	n/a
160.3865	0.105	320773	keystroke_a	a	n/a
160.5215	0.09	321043	keystroke_n	n	n/a
160.6415	0.12	321283	keystroke_c	c	n/a
160.7015	0.12	321403	keystroke_e	e	n/a
161.0615	0.0895	322123	keystroke_Key.space	Key.space	n/a
161.196	0.105	322392	keystroke_s	s	n/a
161.316	0.075	322632	keystroke_o	o	n/a
161.406	0.12	322812	keystroke_a	a	n/a
161.511	0.075	323022	keystroke_p	p	n/a
162.0365	0.03	324073	keystroke_Key.space	Key.space	n/a
162.2315	0.15	324463	keystroke_a	a	n/a
162.4715	0.06	324943	keystroke_c	c	n/a
162.5915	0.1195	325183	keystroke_c	c	n/a
162.816	0.075	325632	keystroke_u	u	n/a
162.936	0.09	325872	keystroke_r	r	n/a
163.071	0.135	326142	keystroke_a	a	n/a
163.251	0.135	326502	keystroke_t	t	n/a
163.341	0.12	326682	keystroke_e	e	n/a
163.446	0.075	326892	keystroke_l	l	n/a
163.5815	0.09	327163	keystroke_y	y	n/a
164.0165	0.1045	328033	keystroke_Key.space	Key.space	n/a
164.226	0.09	328452	keystroke_p	p	n/a
164.346	0.12	328692	keystroke_e	e	n/a
164.406	0.09	328812	keystroke_r	r	n/a
164.556	0.12	329112	keystroke_s	s	n/a
164.631	0.105	329262	keystroke_o	o	n/a
164.691	0.09	329382	keystroke_n	n	n/a
164.796	0.1505	329592	keystroke_a	a	n/a
164.9615	0.075	329923	keystroke_l	l	n/a
165.1115	0.075	330223	keystroke_i	i	n/a
165.2165	0.15	330433	keystroke_t	t	n/a
165.2765	0.134	330553	keystroke_y	y	n/a
166.1465	0.075	332293	keystroke_Key.enter	Key.enter	n/a
166.2265	7.2415	332453	prompt	n/a	endorsement dramatically timely alignment\n
166.9115	0.014	333823	keystroke_e	e	n/a
166.9265	0.09	333853	keystroke_n	n	n/a
167.0765	0.104	334153	keystroke_d	d	n/a
167.2865	0.075	334573	keystroke_o	o	n/a
167.4215	0.06	334843	keystroke_r	r	n/a
167.6015	0.135	335203	keystroke_s	s	n/a
167.6915	0.12	335383	keystroke_e	e	n/a
167.8415	0.09	335683	keystroke_m	m	n/a
167.9465	0.0745	335893	keystroke_e	e	n/a
168.006	0.075	336012	keystroke_n	n	n/a
168.171	0.075	336342	keystroke_t	t	n/a
168.336	0.105	336672	keystroke_Key.space	Key.space	n/a
168.486	0.075	336972	keystroke_d	d	n/a
168.666	0.0605	337332	keystroke_r	r	n/a
168.7415	0.15	337483	keystroke_a	a	n/a
168.9065	0.09	337813	keystroke_m	m	n/a
169.0115	0.09	338023	keystroke_a	a	n/a
169.2215	0.075	338443	keystroke_t	t	n/a
169.3115	0.075	338623	keystroke_i	i	n/a
169.4465	0.1045	338893	keystroke_c	c	n/a
169.491	0.135	338982	keystroke_a	a	n/a
169.596	0.06	339192	keystroke_l	l	n/a
169.716	0.075	339432	keystroke_l	l	n/a
169.836	0.075	339672	keystroke_y	y	n/a
169.9865	0.0745	339973	keystroke_Key.space	Key.space	n/a
170.316	0.105	340632	keystroke_t	t	n/a
170.406	0.105	340812	keystroke_i	i	n/a
170.451	0.09	340902	keystroke_m	m	n/a
170.556	0.105	341112	keystroke_e	e	n/a
170.662	0.089	341324	keystroke_l	l	n/a
170.796	0.09	341592	keystroke_y	y	n/a
171.246	0.09	342492	keystroke_Key.space	Key.space	n/a
171.351	0.12	342702	keystroke_a	a	n/a
171.501	0.075	343002	keystroke_l	l	n/a
171.666	0.075	343332	keystroke_i	i	n/a
171.8315	0.105	343663	keystroke_g	g	n/a
171.981	0.06	343962	keystroke_n	n	n/a
172.131	0.075	344262	keystroke_m	m	n/a
172.296	0.075	344592	keystroke_n	n	n/a
172.686	0.075	345372	keystroke_Key.backspace	Key.backspace	n/a
172.776	0.105	345552	keystroke_e	e	n/a
172.866	0.075	345732	keystroke_n	n	n/a
172.986	0.075	345972	keystroke_t	t	n/a
173.391	0.075	346782	keystroke_Key.enter	Key.enter	n/a
173.4715	8.711	346943	prompt	n/a	yarn dash moldova license\n
174.3065	0.09	348613	keystroke_y	y	n/a
174.5315	0.03	349063	keystroke_a	a	n/a
174.9815	0.045	349963	keystroke_r	r	n/a
175.0715	0.06	350143	keystroke_n	n	n/a
175.2215	0.09	350443	keystroke_Key.space	Key.space	n/a
175.3565	0.12	350713	keystroke_d	d	n/a
175.5365	0.18	351073	keystroke_a	a	n/a
175.6265	0.165	351253	keystroke_s	s	n/a
175.8065	0.0745	351613	keystroke_h	h	n/a
175.986	0.075	351972	keystroke_Key.space	Key.space	n/a
176.166	0.075	352332	keystroke_m	m	n/a
176.242	0.1345	352484	keystroke_a	a	n/a
176.5715	0.06	353143	keystroke_Key.backspace	Key.backspace	n/a
176.7515	0.075	353503	keystroke_o	o	n/a
176.9015	0.09	353803	keystroke_l	l	n/a
177.1265	0.09	354253	keystroke_d	d	n/a
177.2615	0.06	354523	keystroke_o	o	n/a
177.3965	0.105	354793	keystroke_l	l	n/a
177.8315	0.075	355663	keystroke_Key.backspace	Key.backspace	n/a
177.9365	0.119	355873	keystroke_v	v	n/a
178.0115	0.135	356023	keystroke_a	a	n/a
178.2515	0.09	356503	keystroke_Key.space	Key.space	n/a
178.4315	0.059	356863	keystroke_l	l	n/a
178.5665	0.0745	357133	keystroke_i	i	n/a
178.731	0.136	357462	keystroke_c	c	n/a
178.806	0.121	357612	keystroke_e	e	n/a
179.1965	0.075	358393	keystroke_n	n	n/a
179.3165	0.165	358633	keystroke_s	s	n/a
179.4065	0.15	358813	keystroke_e	e	n/a
182.169	0.012	364338	keystroke_Key.enter	Key.enter	n/a
182.186	5.517	364372	prompt	n/a	answers watt serial mars\n
182.7815	0.105	365563	keystroke_a	a	n/a
182.8715	0.075	365743	keystroke_n	n	n/a
182.9615	0.135	365923	keystroke_s	s	n/a
183.186	0.06	366372	keystroke_w	w	n/a
183.426	0.09	366852	keystroke_r	r	n/a
183.9215	0.09	367843	keystroke_Key.backspace	Key.backspace	n/a
184.0715	0.21	368143	keystroke_e	e	n/a
184.1615	0.135	368323	keystroke_r	r	n/a
184.4615	0.1345	368923	keystroke_s	s	n/a
184.701	0.105	369402	keystroke_Key.space	Key.space	n/a
184.941	0.135	369882	keystroke_w	w	n/a
185.016	0.12	370032	keystroke_a	a	n/a
185.196	0.075	370392	keystroke_t	t	n/a
185.346	0.105	370692	keystroke_t	t	n/a
185.511	0.075	371022	keystroke_Key.space	Key.space	n/a
185.601	0.12	371202	keystroke_s	s	n/a
185.811	0.135	371622	keystroke_e	e	n/a
185.871	0.15	371742	keystroke_r	r	n/a
185.976	0.09	371952	keystroke_i	i	n/a
186.111	0.135	372222	keystroke_a	a	n/a
186.411	0.09	372822	keystroke_l	l	n/a
186.576	0.09	373152	keystroke_Key.space	Key.space	n/a
186.756	0.075	373512	keystroke_m	m	n/a
186.846	0.135	373692	keystroke_a	a	n/a
187.041	0.135	374082	keystroke_r	r	n/a
187.131	0.1505	374262	keystroke_s	s	n/a
187.6115	0.09	375223	keystroke_Key.enter	Key.enter	n/a
187.706	6.162	375412	prompt	n/a	elementary occasions linking reseller\n
188.346	0.075	376692	keystroke_e	e	n/a
188.406	0.09	376812	keystroke_l	l	n/a
188.511	0.075	377022	keystroke_e	e	n/a
188.6015	0.105	377203	keystroke_m	m	n/a
188.6915	0.075	377383	keystroke_e	e	n/a
188.7815	0.075	377563	keystroke_n	n	n/a
188.8715	0.105	377743	keystroke_t	t	n/a
188.9465	0.135	377893	keystroke_a	a	n/a
189.1265	0.105	378253	keystroke_r	r	n/a
189.1865	0.135	378373	keystroke_y	y	n/a
189.3365	0.09	378673	keystroke_Key.space	Key.space	n/a
189.5315	0.075	379063	keystroke_o	o	n/a
189.6365	0.09	379273	keystroke_c	c	n/a
189.9065	0.105	379813	keystroke_a	a	n/a
190.2215	0.09	380443	keystroke_Key.backspace	Key.backspace	n/a
190.2965	0.135	380593	keystroke_c	c	n/a
190.3565	0.165	380713	keystroke_a	a	n/a
190.4465	0.18	380893	keystroke_s	s	n/a
190.6565	0.075	381313	keystroke_i	i	n/a
190.7915	0.09	381583	keystroke_o	o	n/a
190.8215	0.105	381643	keystroke_n	n	n/a
190.9415	0.135	381883	keystroke_s	s	n/a
191.2265	0.0745	382453	keystroke_Key.space	Key.space	n/a
191.406	0.06	382812	keystroke_l	l	n/a
191.541	0.09	383082	keystroke_i	i	n/a
191.586	0.105	383172	keystroke_n	n	n/a
191.721	0.09	383442	keystroke_k	k	n/a
191.871	0.09	383742	keystroke_i	i	n/a
191.901	0.12	383802	keystroke_n	n	n/a
191.991	0.105	383982	keystroke_g	g	n/a
192.472	0.0895	384944	keystroke_Key.space	Key.space	n/a
192.6065	0.12	385213	keystroke_r	r	n/a
192.6365	0.12	385273	keystroke_e	e	n/a
192.8765	0.12	385753	keystroke_s	s	n/a
193.0865	0.09	386173	keystroke_e	e	n/a
193.2215	0.075	386443	keystroke_l	l	n/a
193.3415	0.105	386683	keystroke_l	l	n/a
193.4315	0.15	386863	keystroke_e	e	n/a
193.5215	0.135	387043	keystroke_r	r	n/a
193.7915	0.075	387583	keystroke_Key.enter	Key.enter	n/a
193.8705	7.0175	387741	prompt	n/a	sailing vendors consistent cigarettes\n
194.481	0.12	388962	keystroke_s	s	n/a
194.586	0.135	389172	keystroke_a	a	n/a
194.826	0.06	389652	keystroke_i	i	n/a
195.021	0.09	390042	keystroke_l	l	n/a
195.201	0.105	390402	keystroke_i	i	n/a
195.246	0.09	390492	keystroke_n	n	n/a
195.351	0.105	390702	keystroke_g	g	n/a
195.576	0.09	391152	keystroke_Key.space	Key.space	n/a
195.696	0.1355	391392	keystroke_v	v	n/a
195.786	0.105	391572	keystroke_e	e	n/a
195.846	0.09	391692	keystroke_n	n	n/a
195.996	0.1355	391992	keystroke_d	d	n/a
196.1015	0.075	392203	keystroke_o	o	n/a
196.2065	0.12	392413	keystroke_r	r	n/a
196.3415	0.165	392683	keystroke_s	s	n/a
196.6715	0.0895	393343	keystroke_Key.space	Key.space	n/a
196.806	0.106	393612	keystroke_c	c	n/a
196.882	0.105	393764	keystroke_o	o	n/a
196.926	0.09	393852	keystroke_n	n	n/a
197.031	0.136	394062	keystroke_s	s	n/a
197.197	0.06	394394	keystroke_i	i	n/a
197.467	0.104	394934	keystroke_s	s	n/a
197.6465	0.12	395293	keystroke_t	t	n/a
197.7215	0.1345	395443	keystroke_e	e	n/a
197.871	0.075	395742	keystroke_n	n	n/a
197.991	0.09	395982	keystroke_t	t	n/a
198.426	0.09	396852	keystroke_Key.space	Key.space	n/a
198.741	0.12	397482	keystroke_c	c	n/a
198.846	0.075	397692	keystroke_i	i	n/a
198.996	0.105	397992	keystroke_g	g	n/a
199.2065	0.12	398413	keystroke_a	a	n/a
199.4465	0.09	398893	keystroke_r	r	n/a
199.6415	0.105	399283	keystroke_e	e	n/a
199.8065	0.06	399613	keystroke_t	t	n/a
199.9265	0.09	399853	keystroke_t	t	n/a
200.3465	0.06	400693	keystroke_e	e	n/a
200.5265	0.105	401053	keystroke_s	s	n/a
200.8115	0.0745	401623	keystroke_Key.enter	Key.enter	n/a
200.891	7.467	401782	prompt	n/a	specific landscapes evaluating slip\n
201.411	0.06	402822	keystroke_s	s	n/a
201.576	0.09	403152	keystroke_p	p	n/a
201.712	0.059	403424	keystroke_e	e	n/a
201.8615	0.09	403723	keystroke_c	c	n/a
201.9815	0.06	403963	keystroke_i	i	n/a
202.0425	0.089	404085	keystroke_f	f	n/a
202.1615	0.06	404323	keystroke_i	i	n/a
202.2365	0.12	404473	keystroke_c	c	n/a
202.4315	0.09	404863	keystroke_Key.space	Key.space	n/a
202.6265	0.105	405253	keystroke_l	l	n/a
202.7615	0.12	405523	keystroke_a	a	n/a
202.8515	0.075	405703	keystroke_n	n	n/a
202.9415	0.09	405883	keystroke_d	d	n/a
203.1065	0.12	406213	keystroke_s	s	n/a
203.1965	0.15	406393	keystroke_c	c	n/a
203.2865	0.15	406573	keystroke_a	a	n/a
203.4215	0.09	406843	keystroke_p	p	n/a
203.6015	0.09	407203	keystroke_e	e	n/a
203.7215	0.1345	407443	keystroke_s	s	n/a
203.886	0.075	407772	keystroke_Key.space	Key.space	n/a
204.036	0.075	408072	keystroke_e	e	n/a
204.186	0.105	408372	keystroke_v	v	n/a
204.321	0.12	408642	keystroke_a	a	n/a
204.501	0.075	409002	keystroke_l	l	n/a
204.681	0.075	409362	keystroke_u	u	n/a
204.771	0.09	409542	keystroke_a	a	n/a
204.862	0.119	409724	keystroke_t	t	n/a
204.936	0.06	409872	keystroke_i	i	n/a
205.056	0.105	410112	keystroke_o	o	n/a
205.101	0.075	410202	keystroke_n	n	n/a
205.8965	0.045	411793	keystroke_Key.backspace	Key.backspace	n/a
206.061	0.0905	412122	keystroke_Key.backspace	Key.backspace	n/a
206.287	0.075	412574	keystroke_n	n	n/a
206.377	0.075	412754	keystroke_g	g	n/a
206.5115	0.0745	413023	keystroke_Key.space	Key.space	n/a
206.617	0.105	413234	keystroke_s	s	n/a
206.767	0.075	413534	keystroke_l	l	n/a
206.9465	0.045	413893	keystroke_i	i	n/a
207.112	0.0585	414224	keystroke_p	p	n/a
208.281	0.0755	416562	keystroke_Key.enter	Key.enter	n/a
208.3625	6.3405	416725	prompt	n/a	amino be deluxe separated\n
209.046	0.135	418092	keystroke_a	a	n/a
209.121	0.105	418242	keystroke_m	m	n/a
209.241	0.105	418482	keystroke_i	i	n/a
209.316	0.09	418632	keystroke_n	n	n/a
209.466	0.09	418932	keystroke_o	o	n/a
209.796	0.045	419592	keystroke_Key.backspace	Key.backspace	n/a
210.246	0.045	420492	keystroke_o	o	n/a
210.366	0.105	420732	keystroke_Key.space	Key.space	n/a
210.561	0.12	421122	keystroke_b	b	n/a
210.771	0.09	421542	keystroke_e	e	n/a
210.921	0.09	421842	keystroke_Key.space	Key.space	n/a
211.086	0.09	422172	keystroke_d	d	n/a
211.236	0.09	422472	keystroke_e	e	n/a
211.356	0.075	422712	keystroke_l	l	n/a
211.521	0.09	423042	keystroke_u	u	n/a
211.671	0.135	423342	keystroke_x	x	n/a
212.076	0.09	424152	keystroke_e	e	n/a
212.301	0.075	424602	keystroke_Key.space	Key.space	n/a
212.436	0.135	424872	keystroke_s	s	n/a
212.706	0.09	425412	keystroke_e	e	n/a
212.826	0.09	425652	keystroke_p	p	n/a
213.2465	0.135	426493	keystroke_a	a	n/a
213.5165	0.12	427033	keystroke_r	r	n/a
213.8015	0.12	427603	keystroke_a	a	n/a
214.0265	0.09	428053	keystroke_t	t	n/a
214.0865	0.15	428173	keystroke_e	e	n/a
214.3115	0.105	428623	keystroke_d	d	n/a
214.626	0.075	429252	keystroke_Key.enter	Key.enter	n/a
214.7055	6.8225	429411	prompt	n/a	villages characteristics lack stevens\n
215.376	0.09	430752	keystroke_v	v	n/a
215.451	0.06	430902	keystroke_i	i	n/a
215.586	0.075	431172	keystroke_l	l	n/a
215.706	0.12	431412	keystroke_l	l	n/a
215.796	0.1205	431592	keystroke_a	a	n/a
215.9315	0.12	431863	keystroke_g	g	n/a
216.0065	0.105	432013	keystroke_e	e	n/a
216.1865	0.105	432373	keystroke_s	s	n/a
216.2765	0.09	432553	keystroke_Key.space	Key.space	n/a
216.4265	0.09	432853	keystroke_c	c	n/a
216.5315	0.06	433063	keystroke_h	h	n/a
216.6365	0.1345	433273	keystroke_a	a	n/a
216.876	0.12	433752	keystroke_r	r	n/a
217.086	0.1205	434172	keystroke_a	a	n/a
217.1915	0.12	434383	keystroke_c	c	n/a
217.4165	0.1045	434833	keystroke_t	t	n/a
217.581	0.135	435162	keystroke_e	e	n/a
217.6565	0.1195	435313	keystroke_r	r	n/a
217.9115	0.075	435823	keystroke_i	i	n/a
218.0465	0.135	436093	keystroke_s	s	n/a
218.1665	0.105	436333	keystroke_t	t	n/a
218.3165	0.075	436633	keystroke_i	i	n/a
218.4515	0.12	436903	keystroke_c	c	n/a
218.4815	0.15	436963	keystroke_s	s	n/a
219.156	0.09	438312	keystroke_Key.space	Key.space	n/a
219.336	0.075	438672	keystroke_l	l	n/a
219.412	0.104	438824	keystroke_a	a	n/a
219.546	0.1655	439092	keystroke_c	c	n/a
219.651	0.1055	439302	keystroke_k	k	n/a
219.7265	0.09	439453	keystroke_Key.space	Key.space	n/a
219.8465	0.1045	439693	keystroke_s	s	n/a
219.996	0.12	439992	keystroke_t	t	n/a
220.101	0.12	440202	keystroke_e	e	n/a
220.311	0.09	440622	keystroke_v	v	n/a
220.341	0.135	440682	keystroke_e	e	n/a
220.551	0.09	441102	keystroke_n	n	n/a
220.806	0.09	441612	keystroke_s	s	n/a
221.4365	0.09	442873	keystroke_Key.enter	Key.enter	n/a
221.5315	7.1815	443063	prompt	n/a	innocent specializing estimates additional\n
222.1415	0.075	444283	keystroke_i	i	n/a
222.2315	0.09	444463	keystroke_n	n	n/a
222.3665	0.075	444733	keystroke_n	n	n/a
222.5165	0.09	445033	keystroke_o	o	n/a
222.6965	0.135	445393	keystroke_c	c	n/a
223.1465	0.12	446293	keystroke_e	e	n/a
223.2515	0.075	446503	keystroke_n	n	n/a
223.3565	0.105	446713	keystroke_t	t	n/a
223.5065	0.075	447013	keystroke_Key.space	Key.space	n/a
223.6415	0.135	447283	keystroke_s	s	n/a
223.7465	0.09	447493	keystroke_p	p	n/a
223.8515	0.06	447703	keystroke_e	e	n/a
223.9715	0.1195	447943	keystroke_c	c	n/a
224.092	0.074	448184	keystroke_i	i	n/a
224.181	0.1505	448362	keystroke_a	a	n/a
224.3015	0.075	448603	keystroke_l	l	n/a
224.4665	0.06	448933	keystroke_i	i	n/a
224.5715	0.105	449143	keystroke_z	z	n/a
224.6615	0.09	449323	keystroke_i	i	n/a
224.7065	0.09	449413	keystroke_n	n	n/a
224.7815	0.09	449563	keystroke_g	g	n/a
225.1865	0.09	450373	keystroke_Key.space	Key.space	n/a
225.621	0.09	451242	keystroke_e	e	n/a
225.756	0.12	451512	keystroke_s	s	n/a
225.861	0.09	451722	keystroke_t	t	n/a
225.966	0.105	451932	keystroke_i	i	n/a
226.011	0.105	452022	keystroke_m	m	n/a
226.146	0.105	452292	keystroke_a	a	n/a
226.266	0.12	452532	keystroke_t	t	n/a
226.341	0.105	452682	keystroke_e	e	n/a
226.506	0.135	453012	keystroke_s	s	n/a
226.836	0.075	453672	keystroke_Key.space	Key.space	n/a
227.166	0.12	454332	keystroke_a	a	n/a
227.331	0.06	454662	keystroke_d	d	n/a
227.451	0.105	454902	keystroke_d	d	n/a
227.601	0.09	455202	keystroke_i	i	n/a
227.706	0.09	455412	keystroke_t	t	n/a
227.797	0.059	455594	keystroke_i	i	n/a
227.886	0.091	455772	keystroke_o	o	n/a
227.932	0.104	455864	keystroke_n	n	n/a
228.021	0.1205	456042	keystroke_a	a	n/a
228.1565	0.075	456313	keystroke_l	l	n/a
228.6365	0.075	457273	keystroke_Key.enter	Key.enter	n/a
228.7165	6.446	457433	prompt	n/a	aspects traveler motors optimum\n
229.371	0.105	458742	keystroke_a	a	n/a
229.446	0.135	458892	keystroke_s	s	n/a
229.596	0.09	459192	keystroke_p	p	n/a
229.701	0.105	459402	keystroke_e	e	n/a
229.836	0.105	459672	keystroke_c	c	n/a
230.091	0.075	460182	keystroke_t	t	n/a
230.181	0.15	460362	keystroke_s	s	n/a
230.316	0.09	460632	keystroke_Key.space	Key.space	n/a
230.421	0.105	460842	keystroke_t	t	n/a
230.466	0.105	460932	keystroke_r	r	n/a
230.616	0.135	461232	keystroke_a	a	n/a
230.811	0.1055	461622	keystroke_v	v	n/a
230.9465	0.09	461893	keystroke_e	e	n/a
231.1115	0.09	462223	keystroke_l	l	n/a
231.2165	0.1495	462433	keystroke_e	e	n/a
231.2915	0.1495	462583	keystroke_r	r	n/a
231.471	0.075	462942	keystroke_Key.space	Key.space	n/a
231.621	0.105	463242	keystroke_m	m	n/a
231.666	0.12	463332	keystroke_o	o	n/a
231.787	0.074	463574	keystroke_t	t	n/a
231.891	0.075	463782	keystroke_o	o	n/a
232.236	0.09	464472	keystroke_r	r	n/a
232.416	0.12	464832	keystroke_s	s	n/a
232.581	0.075	465162	keystroke_Key.space	Key.space	n/a
232.806	0.075	465612	keystroke_o	o	n/a
232.956	0.075	465912	keystroke_p	p	n/a
233.136	0.075	466272	keystroke_t	t	n/a
233.286	0.075	466572	keystroke_i	i	n/a
233.557	0.06	467114	keystroke_u	u	n/a
233.677	0.12	467354	keystroke_m	m	n/a
234.172	0.059	468344	keystroke_Key.backspace	Key.backspace	n/a
234.291	0.09	468582	keystroke_Key.backspace	Key.backspace	n/a
234.502	0.074	469004	keystroke_m	m	n/a
234.622	0.075	469244	keystroke_u	u	n/a
234.756	0.076	469512	keystroke_m	m	n/a
235.086	0.075	470172	keystroke_Key.enter	Key.enter	n/a
235.166	10.7815	470332	prompt	n/a	functional playstation fresh monetary\n
235.791	0.135	471582	keystroke_f	f	n/a
235.911	0.075	471822	keystroke_u	u	n/a
235.941	0.09	471882	keystroke_n	n	n/a
235.987	0.1045	471974	keystroke_c	c	n/a
236.196	0.0905	472392	keystroke_t	t	n/a
236.271	0.0605	472542	keystroke_i	i	n/a
236.3765	0.105	472753	keystroke_o	o	n/a
236.4215	0.09	472843	keystroke_n	n	n/a
236.5415	0.12	473083	keystroke_a	a	n/a
236.6315	0.12	473263	keystroke_l	l	n/a
236.7365	0.075	473473	keystroke_Key.space	Key.space	n/a
236.9465	0.105	473893	keystroke_p	p	n/a
236.9915	0.09	473983	keystroke_l	l	n/a
237.0665	0.09	474133	keystroke_a	a	n/a
237.3365	0.09	474673	keystroke_y	y	n/a
237.5615	0.1195	475123	keystroke_s	s	n/a
237.651	0.12	475302	keystroke_t	t	n/a
237.756	0.105	475512	keystroke_a	a	n/a
237.801	0.135	475602	keystroke_t	t	n/a
237.966	0.045	475932	keystroke_i	i	n/a
238.311	0.075	476622	keystroke_Key.backspace	Key.backspace	n/a
238.431	0.12	476862	keystroke_t	t	n/a
238.896	0.06	477792	keystroke_i	i	n/a
239.106	0.075	478212	keystroke_Key.backspace	Key.backspace	n/a
239.226	0.0905	478452	keystroke_Key.backspace	Key.backspace	n/a
239.4365	0.075	478873	keystroke_i	i	n/a
239.5565	0.12	479113	keystroke_o	o	n/a
239.6165	0.09	479233	keystroke_n	n	n/a
239.7665	0.105	479533	keystroke_Key.space	Key.space	n/a
239.9165	0.09	479833	keystroke_f	f	n/a
240.0965	0.105	480193	keystroke_r	r	n/a
240.1415	0.105	480283	keystroke_e	e	n/a
240.3065	0.1345	480613	keystroke_s	s	n/a
240.471	0.075	480942	keystroke_h	h	n/a
243.1435	0.001	486287	keystroke_Key.backspace	Key.backspace	n/a
243.7115	0.0745	487423	keystroke_h	h	n/a
243.937	0.06	487874	keystroke_Key.space	Key.space	n/a
244.117	0.09	488234	keystroke_m	m	n/a
244.177	0.135	488354	keystroke_o	o	n/a
244.327	0.09	488654	keystroke_n	n	n/a
244.522	0.06	489044	keystroke_t	t	n/a
244.792	0.075	489584	keystroke_Key.backspace	Key.backspace	n/a
244.867	0.09	489734	keystroke_e	e	n/a
245.002	0.135	490004	keystroke_t	t	n/a
245.227	0.12	490454	keystroke_a	a	n/a
245.407	0.09	490814	keystroke_r	r	n/a
245.467	0.105	490934	keystroke_y	y	n/a
245.8715	0.075	491743	keystroke_Key.enter	Key.enter	n/a
245.9505	7.647	491901	prompt	n/a	promotional folder discs fallen\n
246.5465	0.09	493093	keystroke_p	p	n/a
246.6665	0.09	493333	keystroke_r	r	n/a
246.7715	0.075	493543	keystroke_o	o	n/a
246.8915	0.09	493783	keystroke_m	m	n/a
246.9515	0.09	493903	keystroke_o	o	n/a
247.1165	0.105	494233	keystroke_t	t	n/a
247.3265	0.075	494653	keystroke_i	i	n/a
247.4465	0.09	494893	keystroke_o	o	n/a
247.4765	0.09	494953	keystroke_n	n	n/a
247.5815	0.12	495163	keystroke_a	a	n/a
247.6715	0.09	495343	keystroke_l	l	n/a
247.986	0.09	495972	keystroke_Key.space	Key.space	n/a
248.061	0.135	496122	keystroke_f	f	n/a
248.421	0.075	496842	keystroke_o	o	n/a
248.631	0.09	497262	keystroke_l	l	n/a
248.736	0.075	497472	keystroke_d	d	n/a
248.901	0.075	497802	keystroke_e	e	n/a
248.931	0.135	497862	keystroke_r	r	n/a
249.081	0.075	498162	keystroke_Key.space	Key.space	n/a
249.246	0.0455	498492	keystroke_f	f	n/a
249.4715	0.09	498943	keystroke_Key.backspace	Key.backspace	n/a
249.5765	0.09	499153	keystroke_d	d	n/a
249.6815	0.075	499363	keystroke_i	i	n/a
249.7715	0.105	499543	keystroke_c	c	n/a
249.8315	0.135	499663	keystroke_s	s	n/a
250.3715	0.075	500743	keystroke_Key.backspace	Key.backspace	n/a
250.4915	0.09	500983	keystroke_Key.backspace	Key.backspace	n/a
250.5665	0.12	501133	keystroke_s	s	n/a
250.6715	0.12	501343	keystroke_c	c	n/a
250.7615	0.12	501523	keystroke_s	s	n/a
251.2415	0.0895	502483	keystroke_Key.space	Key.space	n/a
251.631	0.135	503262	keystroke_a	a	n/a
251.646	0.045	503292	keystroke_f	f	n/a
251.767	0.0595	503534	keystroke_l	l	n/a
251.9015	0.075	503803	keystroke_l	l	n/a
252.1715	0.06	504343	keystroke_Key.backspace	Key.backspace	n/a
252.3065	0.075	504613	keystroke_Key.backspace	Key.backspace	n/a
252.4565	0.045	504913	keystroke_Key.backspace	Key.backspace	n/a
252.5615	0.09	505123	keystroke_Key.backspace	Key.backspace	n/a
252.6215	0.09	505243	keystroke_f	f	n/a
252.6665	0.12	505333	keystroke_a	a	n/a
252.8315	0.075	505663	keystroke_l	l	n/a
252.9665	0.075	505933	keystroke_l	l	n/a
253.0565	0.09	506113	keystroke_e	e	n/a
253.1615	0.075	506323	keystroke_n	n	n/a
253.5215	0.075	507043	keystroke_Key.enter	Key.enter	n/a
253.601	5.9215	507202	prompt	n/a	software vocational mall grid\n
254.151	0.09	508302	keystroke_s	s	n/a
254.226	0.06	508452	keystroke_o	o	n/a
254.301	0.105	508602	keystroke_f	f	n/a
254.496	0.105	508992	keystroke_t	t	n/a
254.511	0.15	509022	keystroke_w	w	n/a
254.631	0.151	509262	keystroke_a	a	n/a
254.752	0.134	509504	keystroke_r	r	n/a
254.842	0.135	509684	keystroke_e	e	n/a
255.141	0.1055	510282	keystroke_Key.space	Key.space	n/a
255.4115	0.0895	510823	keystroke_v	v	n/a
255.6215	0.075	511243	keystroke_o	o	n/a
255.786	0.12	511572	keystroke_c	c	n/a
255.8315	0.15	511663	keystroke_a	a	n/a
256.086	0.0905	512172	keystroke_t	t	n/a
256.161	0.0605	512322	keystroke_i	i	n/a
256.2515	0.105	512503	keystroke_o	o	n/a
256.311	0.075	512622	keystroke_n	n	n/a
256.416	0.1055	512832	keystroke_a	a	n/a
256.5065	0.12	513013	keystroke_l	l	n/a
256.5815	0.105	513163	keystroke_Key.space	Key.space	n/a
256.8965	0.105	513793	keystroke_m	m	n/a
256.9865	0.135	513973	keystroke_a	a	n/a
257.1065	0.21	514213	keystroke_l	l	n/a
257.5565	0.075	515113	keystroke_l	l	n/a
257.7215	0.09	515443	keystroke_Key.space	Key.space	n/a
257.8565	0.12	515713	keystroke_g	g	n/a
257.9165	0.12	515833	keystroke_r	r	n/a
258.0515	0.06	516103	keystroke_i	i	n/a
258.1415	0.12	516283	keystroke_d	d	n/a
259.431	0.0905	518862	keystroke_Key.enter	Key.enter	n/a
259.5255	7.977	519051	prompt	n/a	wing house retail exclusively\n
260.0015	0.075	520003	keystroke_s	s	n/a
260.2265	0.0605	520453	keystroke_=	=	n/a
260.317	0.0745	520634	keystroke_w	w	n/a
260.5855	0.06	521171	keystroke_Key.backspace	Key.backspace	n/a
260.7215	0.075	521443	keystroke_Key.backspace	Key.backspace	n/a
260.8715	0.045	521743	keystroke_Key.backspace	Key.backspace	n/a
261.1415	0.09	522283	keystroke_w	w	n/a
261.2465	0.12	522493	keystroke_i	i	n/a
261.3065	0.09	522613	keystroke_n	n	n/a
261.3815	0.09	522763	keystroke_g	g	n/a
261.6815	0.075	523363	keystroke_Key.space	Key.space	n/a
261.7715	0.075	523543	keystroke_g	g	n/a
262.0715	0.075	524143	keystroke_Key.backspace	Key.backspace	n/a
262.1915	0.06	524383	keystroke_h	h	n/a
262.3115	0.09	524623	keystroke_o	o	n/a
262.5065	0.06	525013	keystroke_u	u	n/a
262.5515	0.12	525103	keystroke_s	s	n/a
262.6415	0.12	525283	keystroke_e	e	n/a
262.7765	0.09	525553	keystroke_Key.space	Key.space	n/a
262.9865	0.135	525973	keystroke_r	r	n/a
263.0615	0.09	526123	keystroke_e	e	n/a
263.2115	0.09	526423	keystroke_t	t	n/a
263.3465	0.12	526693	keystroke_a	a	n/a
263.4675	0.059	526935	keystroke_i	i	n/a
263.631	0.06	527262	keystroke_l	l	n/a
263.781	0.075	527562	keystroke_Key.space	Key.space	n/a
263.871	0.045	527742	keystroke_e	e	n/a
264.051	0.105	528102	keystroke_x	x	n/a
264.441	0.075	528882	keystroke_c	c	n/a
264.531	0.075	529062	keystroke_l	l	n/a
264.741	0.0605	529482	keystroke_u	u	n/a
264.966	0.105	529932	keystroke_s	s	n/a
265.446	0.075	530892	keystroke_i	i	n/a
265.641	0.09	531282	keystroke_v	v	n/a
265.686	0.12	531372	keystroke_e	e	n/a
265.8365	0.075	531673	keystroke_l	l	n/a
265.9715	0.09	531943	keystroke_y	y	n/a
267.441	0.06	534882	keystroke_Key.enter	Key.enter	n/a
267.5055	6.702	535011	prompt	n/a	eminem palace bibliography note\n
268.056	0.09	536112	keystroke_e	e	n/a
268.191	0.075	536382	keystroke_m	m	n/a
268.311	0.105	536622	keystroke_i	i	n/a
268.371	0.105	536742	keystroke_n	n	n/a
268.611	0.09	537222	keystroke_e	e	n/a
268.791	0.09	537582	keystroke_m	m	n/a
268.9865	0.0745	537973	keystroke_Key.space	Key.space	n/a
269.211	0.075	538422	keystroke_p	p	n/a
269.346	0.105	538692	keystroke_a	a	n/a
269.616	0.015	539232	keystroke_l	l	n/a
269.661	0.12	539322	keystroke_a	a	n/a
269.916	0.1055	539832	keystroke_c	c	n/a
269.9615	0.12	539923	keystroke_e	e	n/a
270.246	0.075	540492	keystroke_Key.space	Key.space	n/a
270.471	0.075	540942	keystroke_b	b	n/a
270.561	0.09	541122	keystroke_i	i	n/a
270.666	0.09	541332	keystroke_b	b	n/a
271.146	0.075	542292	keystroke_l	l	n/a
271.311	0.06	542622	keystroke_i	i	n/a
271.446	0.075	542892	keystroke_o	o	n/a
271.522	0.119	543044	keystroke_g	g	n/a
271.581	0.105	543162	keystroke_r	r	n/a
271.701	0.1655	543402	keystroke_a	a	n/a
271.8365	0.045	543673	keystroke_p	p	n/a
272.1065	0.09	544213	keystroke_h	h	n/a
272.9015	0.075	545803	keystroke_y	y	n/a
273.351	0.075	546702	keystroke_Key.space	Key.space	n/a
273.486	0.105	546972	keystroke_n	n	n/a
273.546	0.12	547092	keystroke_o	o	n/a
273.636	0.135	547272	keystroke_t	t	n/a
273.711	0.15	547422	keystroke_e	e	n/a
274.131	0.075	548262	keystroke_Key.enter	Key.enter	n/a
274.21	11.293	548420	prompt	n/a	branches cdna nodes blind\n
274.7765	0.075	549553	keystroke_b	b	n/a
274.9565	0.06	549913	keystroke_r	r	n/a
275.1065	0.135	550213	keystroke_a	a	n/a
275.2565	0.09	550513	keystroke_n	n	n/a
275.3615	0.09	550723	keystroke_c	c	n/a
275.4815	0.06	550963	keystroke_h	h	n/a
275.871	0.15	551742	keystroke_s	s	n/a
276.051	0.075	552102	keystroke_Key.space	Key.space	n/a
276.216	0.105	552432	keystroke_s	s	n/a
276.666	0.06	553332	keystroke_Key.backspace	Key.backspace	n/a
276.771	0.105	553542	keystroke_c	c	n/a
277.281	0.15	554562	keystroke_d	d	n/a
277.7765	0.1195	555553	keystroke_n	n	n/a
277.911	0.105	555822	keystroke_a	a	n/a
278.271	0.075	556542	keystroke_Key.space	Key.space	n/a
278.601	0.12	557202	keystroke_n	n	n/a
278.691	0.105	557382	keystroke_o	o	n/a
278.766	0.105	557532	keystroke_d	d	n/a
278.946	0.135	557892	keystroke_e	e	n/a
279.051	0.165	558102	keystroke_s	s	n/a
279.231	0.09	558462	keystroke_Key.space	Key.space	n/a
279.426	0.105	558852	keystroke_b	b	n/a
279.501	0.075	559002	keystroke_l	l	n/a
279.6365	0.105	559273	keystroke_i	i	n/a
279.681	0.0905	559362	keystroke_n	n	n/a
279.7565	0.12	559513	keystroke_d	d	n/a
282.399	0.042	564798	keystroke_Key.left	Key.left	n/a
282.501	0.105	565002	keystroke_Key.left	Key.left	n/a
282.6665	0.075	565333	keystroke_Key.left	Key.left	n/a
282.8315	0.06	565663	keystroke_Key.left	Key.left	n/a
282.9515	0.09	565903	keystroke_Key.left	Key.left	n/a
283.0865	0.2245	566173	keystroke_Key.left	Key.left	n/a
283.341	0.105	566682	keystroke_Key.left	Key.left	n/a
283.506	0.075	567012	keystroke_Key.left	Key.left	n/a
283.641	0.06	567282	keystroke_Key.left	Key.left	n/a
283.776	0.075	567552	keystroke_Key.left	Key.left	n/a
283.926	0.06	567852	keystroke_Key.left	Key.left	n/a
284.046	0.075	568092	keystroke_Key.left	Key.left	n/a
284.196	0.06	568392	keystroke_Key.left	Key.left	n/a
284.346	0.06	568692	keystroke_Key.left	Key.left	n/a
284.466	0.075	568932	keystroke_Key.left	Key.left	n/a
284.601	0.075	569202	keystroke_Key.left	Key.left	n/a
284.736	0.075	569472	keystroke_Key.left	Key.left	n/a
284.886	0.06	569772	keystroke_Key.left	Key.left	n/a
285.216	0.075	570432	keystroke_e	e	n/a
285.426	0.0755	570852	keystroke_Key.enter	Key.enter	n/a
285.507	6.386	571014	prompt	n/a	baptist front minds appreciation\n
286.2515	0.1045	572503	keystroke_b	b	n/a
286.431	0.105	572862	keystroke_a	a	n/a
286.537	0.089	573074	keystroke_p	p	n/a
287.617	0.12	575234	keystroke_t	t	n/a
287.722	0.09	575444	keystroke_i	i	n/a
287.827	0.1195	575654	keystroke_s	s	n/a
287.9015	0.135	575803	keystroke_t	t	n/a
288.186	0.105	576372	keystroke_Key.space	Key.space	n/a
288.366	0.12	576732	keystroke_f	f	n/a
288.711	0.09	577422	keystroke_r	r	n/a
288.816	0.15	577632	keystroke_o	o	n/a
288.876	0.12	577752	keystroke_n	n	n/a
288.981	0.075	577962	keystroke_t	t	n/a
289.116	0.09	578232	keystroke_Key.space	Key.space	n/a
289.296	0.075	578592	keystroke_m	m	n/a
289.356	0.15	578712	keystroke_i	i	n/a
289.431	0.105	578862	keystroke_n	n	n/a
289.551	0.135	579102	keystroke_d	d	n/a
289.611	0.165	579222	keystroke_s	s	n/a
289.911	0.09	579822	keystroke_Key.space	Key.space	n/a
290.061	0.12	580122	keystroke_a	a	n/a
290.196	0.075	580392	keystroke_p	p	n/a
290.316	0.075	580632	keystroke_p	p	n/a
290.406	0.105	580812	keystroke_r	r	n/a
290.452	0.104	580904	keystroke_e	e	n/a
290.631	0.105	581262	keystroke_c	c	n/a
291.2015	0.06	582403	keystroke_i	i	n/a
291.2915	0.09	582583	keystroke_a	a	n/a
291.4115	0.105	582823	keystroke_t	t	n/a
291.4865	0.045	582973	keystroke_i	i	n/a
291.5765	0.09	583153	keystroke_o	o	n/a
291.6215	0.075	583243	keystroke_n	n	n/a
291.8165	0.075	583633	keystroke_Key.enter	Key.enter	n/a
291.8955	6.2825	583791	prompt	n/a	honolulu whatever luck shed\n
292.6265	0.075	585253	keystroke_h	h	n/a
292.6865	0.105	585373	keystroke_o	o	n/a
292.7765	0.075	585553	keystroke_n	n	n/a
292.8525	0.104	585705	keystroke_o	o	n/a
293.1515	0.09	586303	keystroke_l	l	n/a
293.4065	0.06	586813	keystroke_u	u	n/a
293.6015	0.06	587203	keystroke_l	l	n/a
293.7215	0.075	587443	keystroke_u	u	n/a
293.8865	0.075	587773	keystroke_Key.space	Key.space	n/a
293.9765	0.12	587953	keystroke_w	w	n/a
294.2765	0.12	588553	keystroke_a	a	n/a
294.4115	0.09	588823	keystroke_t	t	n/a
294.5315	0.15	589063	keystroke_e	e	n/a
294.7115	0.105	589423	keystroke_v	v	n/a
294.8015	0.1355	589603	keystroke_e	e	n/a
294.877	0.104	589754	keystroke_r	r	n/a
295.117	0.074	590234	keystroke_Key.backspace	Key.backspace	n/a
295.266	0.075	590532	keystroke_Key.backspace	Key.backspace	n/a
295.417	0.059	590834	keystroke_Key.backspace	Key.backspace	n/a
295.551	0.075	591102	keystroke_Key.backspace	Key.backspace	n/a
295.701	0.06	591402	keystroke_Key.backspace	Key.backspace	n/a
295.8515	0.06	591703	keystroke_Key.backspace	Key.backspace	n/a
295.9115	0.105	591823	keystroke_h	h	n/a
296.031	0.135	592062	keystroke_a	a	n/a
296.151	0.09	592302	keystroke_t	t	n/a
296.2715	0.12	592543	keystroke_e	e	n/a
296.4665	0.09	592933	keystroke_v	v	n/a
296.5415	0.165	593083	keystroke_e	e	n/a
296.6165	0.135	593233	keystroke_r	r	n/a
296.8265	0.075	593653	keystroke_Key.space	Key.space	n/a
296.9915	0.075	593983	keystroke_l	l	n/a
297.1715	0.06	594343	keystroke_u	u	n/a
297.2615	0.105	594523	keystroke_c	c	n/a
297.3365	0.105	594673	keystroke_k	k	n/a
297.4115	0.075	594823	keystroke_Key.space	Key.space	n/a
297.5315	0.12	595063	keystroke_s	s	n/a
297.6215	0.075	595243	keystroke_h	h	n/a
297.7265	0.075	595453	keystroke_e	e	n/a
297.876	0.105	595752	keystroke_d	d	n/a
298.101	0.075	596202	keystroke_Key.enter	Key.enter	n/a
298.181	5.652	596362	prompt	n/a	solutions coordination yacht interest\n
298.791	0.105	597582	keystroke_s	s	n/a
298.851	0.105	597702	keystroke_o	o	n/a
299.046	0.075	598092	keystroke_l	l	n/a
299.196	0.06	598392	keystroke_u	u	n/a
299.331	0.105	598662	keystroke_t	t	n/a
299.421	0.0755	598842	keystroke_i	i	n/a
299.5415	0.105	599083	keystroke_o	o	n/a
299.5865	0.09	599173	keystroke_n	n	n/a
299.6915	0.105	599383	keystroke_s	s	n/a
299.7965	0.0895	599593	keystroke_Key.space	Key.space	n/a
299.976	0.105	599952	keystroke_c	c	n/a
300.036	0.075	600072	keystroke_o	o	n/a
300.156	0.075	600312	keystroke_o	o	n/a
300.246	0.075	600492	keystroke_r	r	n/a
300.396	0.09	600792	keystroke_d	d	n/a
300.471	0.105	600942	keystroke_i	i	n/a
300.516	0.0905	601032	keystroke_n	n	n/a
300.591	0.1205	601182	keystroke_a	a	n/a
300.6965	0.12	601393	keystroke_t	t	n/a
300.7865	0.09	601573	keystroke_i	i	n/a
300.9065	0.12	601813	keystroke_o	o	n/a
300.9665	0.09	601933	keystroke_n	n	n/a
301.1165	0.09	602233	keystroke_Key.space	Key.space	n/a
301.4615	0.075	602923	keystroke_y	y	n/a
301.6565	0.105	603313	keystroke_a	a	n/a
301.7765	0.12	603553	keystroke_c	c	n/a
301.8815	0.075	603763	keystroke_h	h	n/a
302.0615	0.075	604123	keystroke_t	t	n/a
302.2715	0.075	604543	keystroke_Key.space	Key.space	n/a
302.3915	0.105	604783	keystroke_i	i	n/a
302.4515	0.105	604903	keystroke_n	n	n/a
302.6015	0.12	605203	keystroke_t	t	n/a
302.6765	0.12	605353	keystroke_e	e	n/a
302.7515	0.135	605503	keystroke_r	r	n/a
303.0665	0.135	606133	keystroke_e	e	n/a
303.2765	0.12	606553	keystroke_s	s	n/a
303.3665	0.1205	606733	keystroke_t	t	n/a
303.771	0.06	607542	keystroke_Key.enter	Key.enter	n/a
303.838	6.13	607676	prompt	n/a	costumes brochure fiber heritage\n
304.281	0.105	608562	keystroke_s	s	n/a
304.506	0.09	609012	keystroke_Key.backspace	Key.backspace	n/a
304.611	0.09	609222	keystroke_c	c	n/a
304.702	0.074	609404	keystroke_o	o	n/a
304.791	0.075	609582	keystroke_s	s	n/a
305.031	0.105	610062	keystroke_t	t	n/a
305.121	0.09	610242	keystroke_u	u	n/a
305.271	0.105	610542	keystroke_n	n	n/a
305.691	0.075	611382	keystroke_Key.backspace	Key.backspace	n/a
305.871	0.075	611742	keystroke_m	m	n/a
305.961	0.09	611922	keystroke_e	e	n/a
306.111	0.1205	612222	keystroke_s	s	n/a
306.2465	0.06	612493	keystroke_Key.space	Key.space	n/a
306.3515	0.09	612703	keystroke_b	b	n/a
306.5015	0.09	613003	keystroke_r	r	n/a
306.5765	0.09	613153	keystroke_o	o	n/a
306.7415	0.12	613483	keystroke_c	c	n/a
306.9665	0.165	613933	keystroke_h	h	n/a
307.0415	0.105	614083	keystroke_u	u	n/a
307.2665	0.135	614533	keystroke_r	r	n/a
307.3415	0.105	614683	keystroke_e	e	n/a
307.4765	0.105	614953	keystroke_Key.space	Key.space	n/a
307.6715	0.12	615343	keystroke_f	f	n/a
307.7765	0.075	615553	keystroke_i	i	n/a
307.8965	0.09	615793	keystroke_b	b	n/a
308.0315	0.135	616063	keystroke_e	e	n/a
308.1065	0.1345	616213	keystroke_r	r	n/a
308.496	0.1055	616992	keystroke_Key.space	Key.space	n/a
308.7065	0.06	617413	keystroke_h	h	n/a
308.7965	0.135	617593	keystroke_e	e	n/a
308.8715	0.135	617743	keystroke_r	r	n/a
309.0815	0.075	618163	keystroke_i	i	n/a
309.2465	0.1195	618493	keystroke_t	t	n/a
309.351	0.105	618702	keystroke_a	a	n/a
309.501	0.09	619002	keystroke_g	g	n/a
309.561	0.105	619122	keystroke_e	e	n/a
309.8915	0.075	619783	keystroke_Key.enter	Key.enter	n/a
309.971	8.3215	619942	prompt	n/a	delaware execution demands sans\n
310.6255	0.075	621251	keystroke_d	d	n/a
310.7155	0.061	621431	keystroke_e	e	n/a
310.806	0.0745	621612	keystroke_l	l	n/a
310.9405	0.12	621881	keystroke_a	a	n/a
311.3005	0.091	622601	keystroke_w	w	n/a
311.3615	0.104	622723	keystroke_a	a	n/a
311.451	0.1355	622902	keystroke_r	r	n/a
311.541	0.0895	623082	keystroke_e	e	n/a
312.3055	0.135	624611	keystroke_Key.space	Key.space	n/a
312.4555	0.015	624911	keystroke_e	e	n/a
312.5915	0.134	625183	keystroke_c	c	n/a
312.6815	0.104	625363	keystroke_e	e	n/a
313.2655	0.09	626531	keystroke_Key.backspace	Key.backspace	n/a
313.4155	0.09	626831	keystroke_Key.backspace	Key.backspace	n/a
314.436	0.136	628872	keystroke_x	x	n/a
314.767	0.089	629534	keystroke_e	e	n/a
315.4115	0.0895	630823	keystroke_c	c	n/a
315.5305	0.0905	631061	keystroke_u	u	n/a
315.6515	0.09	631303	keystroke_t	t	n/a
315.7565	0.06	631513	keystroke_i	i	n/a
315.8615	0.1045	631723	keystroke_o	o	n/a
315.921	0.075	631842	keystroke_n	n	n/a
316.056	0.105	632112	keystroke_Key.space	Key.space	n/a
316.146	0.075	632292	keystroke_d	d	n/a
316.296	0.075	632592	keystroke_e	e	n/a
316.386	0.075	632772	keystroke_m	m	n/a
316.432	0.119	632864	keystroke_a	a	n/a
316.536	0.09	633072	keystroke_n	n	n/a
316.611	0.1655	633222	keystroke_d	d	n/a
316.7165	0.12	633433	keystroke_s	s	n/a
317.1515	0.075	634303	keystroke_Key.space	Key.space	n/a
317.2865	0.12	634573	keystroke_s	s	n/a
317.3765	0.165	634753	keystroke_a	a	n/a
317.5415	0.06	635083	keystroke_n	n	n/a
317.6465	0.135	635293	keystroke_s	s	n/a
318.2165	0.075	636433	keystroke_Key.enter	Key.enter	n/a
318.2955	5.4425	636591	prompt	n/a	download ebooks guest exports\n
318.831	0.09	637662	keystroke_d	d	n/a
318.936	0.06	637872	keystroke_o	o	n/a
319.041	0.105	638082	keystroke_w	w	n/a
319.131	0.0755	638262	keystroke_n	n	n/a
319.2965	0.09	638593	keystroke_l	l	n/a
319.4015	0.0895	638803	keystroke_o	o	n/a
319.446	0.165	638892	keystroke_a	a	n/a
319.596	0.135	639192	keystroke_d	d	n/a
319.821	0.0755	639642	keystroke_Key.space	Key.space	n/a
319.9265	0.075	639853	keystroke_e	e	n/a
320.1665	0.09	640333	keystroke_b	b	n/a
320.2715	0.06	640543	keystroke_o	o	n/a
320.3765	0.075	640753	keystroke_o	o	n/a
320.511	0.105	641022	keystroke_k	k	n/a
320.601	0.1205	641202	keystroke_s	s	n/a
320.7065	0.09	641413	keystroke_Key.space	Key.space	n/a
320.8565	0.075	641713	keystroke_g	g	n/a
320.9765	0.075	641953	keystroke_u	u	n/a
321.0965	0.0745	642193	keystroke_e	e	n/a
321.291	0.12	642582	keystroke_t	t	n/a
321.9965	0.09	643993	keystroke_Key.backspace	Key.backspace	n/a
322.0715	0.0895	644143	keystroke_s	s	n/a
322.1315	0.0895	644263	keystroke_t	t	n/a
322.266	0.09	644532	keystroke_Key.space	Key.space	n/a
322.446	0.06	644892	keystroke_e	e	n/a
322.776	0.12	645552	keystroke_x	x	n/a
322.881	0.075	645762	keystroke_p	p	n/a
323.016	0.09	646032	keystroke_o	o	n/a
323.091	0.12	646182	keystroke_r	r	n/a
323.181	0.09	646362	keystroke_t	t	n/a
323.331	0.12	646662	keystroke_s	s	n/a
323.661	0.075	647322	keystroke_Key.enter	Key.enter	n/a
323.7405	8.112	647481	prompt	n/a	lesser prediction untitled zoloft\n
324.3965	0.089	648793	keystroke_l	l	n/a
324.5005	0.09	649001	keystroke_e	e	n/a
324.6505	0.121	649301	keystroke_s	s	n/a
324.7855	0.121	649571	keystroke_s	s	n/a
324.9815	0.135	649963	keystroke_e	e	n/a
325.0565	0.12	650113	keystroke_r	r	n/a
325.1465	0.09	650293	keystroke_Key.space	Key.space	n/a
325.2965	0.075	650593	keystroke_p	p	n/a
325.3565	0.12	650713	keystroke_r	r	n/a
325.4165	0.09	650833	keystroke_e	e	n/a
325.6265	0.0905	651253	keystroke_d	d	n/a
325.731	0.075	651462	keystroke_i	i	n/a
325.851	0.09	651702	keystroke_c	c	n/a
326.031	0.075	652062	keystroke_t	t	n/a
326.076	0.06	652152	keystroke_i	i	n/a
326.166	0.105	652332	keystroke_o	o	n/a
326.226	0.09	652452	keystroke_n	n	n/a
326.676	0.12	653352	keystroke_Key.space	Key.space	n/a
326.916	0.0905	653832	keystroke_u	u	n/a
326.9765	0.075	653953	keystroke_n	n	n/a
327.1115	0.09	654223	keystroke_t	t	n/a
327.2165	0.075	654433	keystroke_i	i	n/a
327.411	0.045	654822	keystroke_l	l	n/a
327.696	0.075	655392	keystroke_Key.backspace	Key.backspace	n/a
327.906	0.0755	655812	keystroke_t	t	n/a
327.9965	0.09	655993	keystroke_l	l	n/a
328.1465	0.105	656293	keystroke_e	e	n/a
328.3565	0.105	656713	keystroke_d	d	n/a
329.9765	0.075	659953	keystroke_Key.space	Key.space	n/a
330.4865	0.045	660973	keystroke_s	s	n/a
330.6215	0.0745	661243	keystroke_Key.backspace	Key.backspace	n/a
330.726	0.105	661452	keystroke_z	z	n/a
330.891	0.06	661782	keystroke_o	o	n/a
331.146	0.045	662292	keystroke_l	l	n/a
331.251	0.075	662502	keystroke_o	o	n/a
331.341	0.105	662682	keystroke_f	f	n/a
331.536	0.06	663072	keystroke_t	t	n/a
331.7915	0.0595	663583	keystroke_Key.enter	Key.enter	n/a
331.8565	5.1565	663713	prompt	n/a	instant decimal secrets willow\n
332.4055	0.106	664811	keystroke_i	i	n/a
332.4505	0.09	664901	keystroke_n	n	n/a
332.5265	0.119	665053	keystroke_s	s	n/a
332.6165	0.1195	665233	keystroke_t	t	n/a
332.7065	0.1195	665413	keystroke_a	a	n/a
332.796	0.09	665592	keystroke_n	n	n/a
332.871	0.105	665742	keystroke_t	t	n/a
333.006	0.09	666012	keystroke_Key.space	Key.space	n/a
333.127	0.059	666254	keystroke_d	d	n/a
333.261	0.0905	666522	keystroke_e	e	n/a
333.6215	0.105	667243	keystroke_c	c	n/a
333.7115	0.12	667423	keystroke_i	i	n/a
333.8165	0.09	667633	keystroke_m	m	n/a
333.9215	0.135	667843	keystroke_a	a	n/a
334.086	0.075	668172	keystroke_l	l	n/a
334.2965	0.075	668593	keystroke_Key.space	Key.space	n/a
334.416	0.105	668832	keystroke_s	s	n/a
334.596	0.09	669192	keystroke_e	e	n/a
334.776	0.105	669552	keystroke_c	c	n/a
334.956	0.15	669912	keystroke_r	r	n/a
335.031	0.12	670062	keystroke_e	e	n/a
335.196	0.105	670392	keystroke_t	t	n/a
335.8115	0.075	671623	keystroke_s	s	n/a
335.9765	0.075	671953	keystroke_Key.space	Key.space	n/a
336.0665	0.105	672133	keystroke_w	w	n/a
336.1565	0.075	672313	keystroke_i	i	n/a
336.3215	0.045	672643	keystroke_l	l	n/a
336.4265	0.075	672853	keystroke_l	l	n/a
336.5615	0.06	673123	keystroke_o	o	n/a
336.6215	0.12	673243	keystroke_w	w	n/a
336.9515	0.06	673903	keystroke_Key.enter	Key.enter	n/a
337.021	6.877	674042	prompt	n/a	ohio fires poems soup\n
337.6565	0.09	675313	keystroke_o	o	n/a
337.8065	0.0895	675613	keystroke_h	h	n/a
337.911	0.09	675822	keystroke_i	i	n/a
338.061	0.075	676122	keystroke_o	o	n/a
338.286	0.09	676572	keystroke_Key.space	Key.space	n/a
338.496	0.12	676992	keystroke_f	f	n/a
338.631	0.06	677262	keystroke_i	i	n/a
338.721	0.21	677442	keystroke_e	e	n/a
339.156	0.075	678312	keystroke_Key.backspace	Key.backspace	n/a
339.216	0.1055	678432	keystroke_r	r	n/a
339.276	0.0755	678552	keystroke_e	e	n/a
339.4115	0.15	678823	keystroke_s	s	n/a
339.756	0.075	679512	keystroke_Key.space	Key.space	n/a
339.951	0.09	679902	keystroke_p	p	n/a
340.101	0.0905	680202	keystroke_o	o	n/a
340.206	0.075	680412	keystroke_e	e	n/a
340.386	0.09	680772	keystroke_m	m	n/a
340.521	0.105	681042	keystroke_s	s	n/a
340.686	0.09	681372	keystroke_Key.space	Key.space	n/a
340.791	0.105	681582	keystroke_s	s	n/a
340.911	0.09	681822	keystroke_o	o	n/a
341.106	0.06	682212	keystroke_u	u	n/a
341.301	0.0605	682602	keystroke_p	p	n/a
343.868	0.028	687736	keystroke_Key.enter	Key.enter	n/a
343.9005	9.882	687801	prompt	n/a	employees hughes axis democracy\n
344.4665	0.105	688933	keystroke_e	e	n/a
344.5565	0.105	689113	keystroke_m	m	n/a
344.9765	0.135	689953	keystroke_p	p	n/a
345.0365	0.09	690073	keystroke_l	l	n/a
345.1865	0.075	690373	keystroke_o	o	n/a
345.336	0.105	690672	keystroke_y	y	n/a
345.591	0.075	691182	keystroke_e	e	n/a
345.756	0.09	691512	keystroke_e	e	n/a
345.966	0.09	691932	keystroke_s	s	n/a
346.116	0.075	692232	keystroke_Key.space	Key.space	n/a
346.281	0.06	692562	keystroke_h	h	n/a
346.416	0.06	692832	keystroke_u	u	n/a
346.626	0.09	693252	keystroke_g	g	n/a
347.0915	0.075	694183	keystroke_h	h	n/a
347.2415	0.09	694483	keystroke_e	e	n/a
347.4365	0.1045	694873	keystroke_s	s	n/a
347.571	0.075	695142	keystroke_Key.space	Key.space	n/a
348.186	0.105	696372	keystroke_a	a	n/a
348.396	0.121	696792	keystroke_x	x	n/a
348.562	0.104	697124	keystroke_i	i	n/a
348.696	0.12	697392	keystroke_s	s	n/a
348.861	0.12	697722	keystroke_Key.space	Key.space	n/a
349.041	0.075	698082	keystroke_d	d	n/a
349.206	0.076	698412	keystroke_e	e	n/a
349.431	0.105	698862	keystroke_m	m	n/a
349.506	0.106	699012	keystroke_o	o	n/a
349.746	0.1205	699492	keystroke_c	c	n/a
349.806	0.1355	699612	keystroke_r	r	n/a
349.9865	0.135	699973	keystroke_a	a	n/a
350.2865	0.105	700573	keystroke_c	c	n/a
350.5565	0.075	701113	keystroke_y	y	n/a
353.754	0.028	707508	keystroke_Key.enter	Key.enter	n/a
353.786	5.697	707572	prompt	n/a	deutsche stake effects particle\n
354.3665	0.105	708733	keystroke_d	d	n/a
354.5315	0.075	709063	keystroke_e	e	n/a
354.7265	0.06	709453	keystroke_u	u	n/a
354.892	0.075	709784	keystroke_t	t	n/a
355.491	0.09	710982	keystroke_s	s	n/a
355.566	0.106	711132	keystroke_c	c	n/a
355.656	0.075	711312	keystroke_h	h	n/a
355.761	0.105	711522	keystroke_e	e	n/a
356.061	0.106	712122	keystroke_Key.space	Key.space	n/a
356.316	0.105	712632	keystroke_s	s	n/a
356.467	0.105	712934	keystroke_t	t	n/a
356.541	0.15	713082	keystroke_a	a	n/a
356.661	0.09	713322	keystroke_k	k	n/a
356.736	0.09	713472	keystroke_e	e	n/a
356.872	0.059	713744	keystroke_Key.space	Key.space	n/a
356.917	0.089	713834	keystroke_e	e	n/a
357.036	0.076	714072	keystroke_f	f	n/a
357.186	0.091	714372	keystroke_f	f	n/a
357.261	0.09	714522	keystroke_e	e	n/a
357.397	0.089	714794	keystroke_c	c	n/a
357.621	0.09	715242	keystroke_t	t	n/a
357.696	0.12	715392	keystroke_s	s	n/a
358.0715	0.075	716143	keystroke_Key.space	Key.space	n/a
358.312	0.09	716624	keystroke_p	p	n/a
358.417	0.105	716834	keystroke_a	a	n/a
358.567	0.075	717134	keystroke_r	r	n/a
358.597	0.09	717194	keystroke_t	t	n/a
358.732	0.075	717464	keystroke_i	i	n/a
358.822	0.105	717644	keystroke_c	c	n/a
358.927	0.0595	717854	keystroke_l	l	n/a
359.0315	0.075	718063	keystroke_e	e	n/a
359.4065	0.075	718813	keystroke_Key.enter	Key.enter	n/a
359.487	7.436	718974	prompt	n/a	infection harris peninsula reprints\n
360.0665	0.09	720133	keystroke_i	i	n/a
360.1265	0.0755	720253	keystroke_n	n	n/a
360.3365	0.105	720673	keystroke_f	f	n/a
360.3965	0.105	720793	keystroke_e	e	n/a
360.5765	0.105	721153	keystroke_c	c	n/a
360.7715	0.09	721543	keystroke_t	t	n/a
360.8465	0.06	721693	keystroke_i	i	n/a
360.9515	0.105	721903	keystroke_o	o	n/a
360.9965	0.09	721993	keystroke_n	n	n/a
361.1315	0.09	722263	keystroke_Key.space	Key.space	n/a
361.4765	0.075	722953	keystroke_h	h	n/a
361.6265	0.1055	723253	keystroke_a	a	n/a
361.762	0.045	723524	keystroke_r	r	n/a
361.897	0.105	723794	keystroke_r	r	n/a
361.987	0.09	723974	keystroke_i	i	n/a
362.092	0.105	724184	keystroke_d	d	n/a
362.467	0.165	724934	keystroke_Key.space	Key.space	n/a
362.827	0.105	725654	keystroke_Key.backspace	Key.backspace	n/a
363.172	0.075	726344	keystroke_Key.backspace	Key.backspace	n/a
363.247	0.135	726494	keystroke_s	s	n/a
363.427	0.075	726854	keystroke_Key.space	Key.space	n/a
363.622	0.074	727244	keystroke_p	p	n/a
363.742	0.059	727484	keystroke_e	e	n/a
363.8465	0.06	727693	keystroke_n	n	n/a
364.206	0.075	728412	keystroke_i	i	n/a
364.326	0.045	728652	keystroke_n	n	n/a
364.806	0.135	729612	keystroke_s	s	n/a
364.896	0.06	729792	keystroke_u	u	n/a
365.061	0.075	730122	keystroke_l	l	n/a
365.196	0.12	730392	keystroke_a	a	n/a
365.481	0.075	730962	keystroke_Key.space	Key.space	n/a
365.616	0.105	731232	keystroke_r	r	n/a
365.676	0.105	731352	keystroke_e	e	n/a
365.8265	0.075	731653	keystroke_p	p	n/a
366.1715	0.135	732343	keystroke_r	r	n/a
366.2615	0.1055	732523	keystroke_i	i	n/a
366.3215	0.0755	732643	keystroke_n	n	n/a
366.412	0.105	732824	keystroke_t	t	n/a
366.472	0.15	732944	keystroke_s	s	n/a
366.862	0.06	733724	keystroke_Key.enter	Key.enter	n/a
366.934	6.124	733868	prompt	n/a	true sorted generator nevertheless\n
367.5665	0.135	735133	keystroke_t	t	n/a
367.8065	0.075	735613	keystroke_r	r	n/a
367.9265	0.09	735853	keystroke_u	u	n/a
368.0315	0.09	736063	keystroke_e	e	n/a
368.1365	0.09	736273	keystroke_Key.space	Key.space	n/a
368.2415	0.09	736483	keystroke_s	s	n/a
368.4815	0.06	736963	keystroke_o	o	n/a
368.6465	0.12	737293	keystroke_r	r	n/a
368.7215	0.105	737443	keystroke_t	t	n/a
368.8565	0.09	737713	keystroke_e	e	n/a
369.0365	0.12	738073	keystroke_d	d	n/a
369.1265	0.105	738253	keystroke_Key.space	Key.space	n/a
369.3815	0.0605	738763	keystroke_g	g	n/a
369.442	0.1045	738884	keystroke_e	e	n/a
369.5315	0.075	739063	keystroke_n	n	n/a
369.6215	0.15	739243	keystroke_e	e	n/a
369.712	0.1195	739424	keystroke_r	r	n/a
369.8765	0.135	739753	keystroke_a	a	n/a
369.9815	0.135	739963	keystroke_t	t	n/a
370.1315	0.06	740263	keystroke_o	o	n/a
370.2965	0.075	740593	keystroke_r	r	n/a
370.6865	0.075	741373	keystroke_Key.space	Key.space	n/a
371.0165	0.06	742033	keystroke_n	n	n/a
371.0775	0.119	742155	keystroke_e	e	n/a
371.1815	0.135	742363	keystroke_v	v	n/a
371.2565	0.1195	742513	keystroke_e	e	n/a
371.3165	0.1345	742633	keystroke_r	r	n/a
371.8415	0.075	743683	keystroke_t	t	n/a
371.8565	0.105	743713	keystroke_h	h	n/a
371.9765	0.135	743953	keystroke_e	e	n/a
372.0965	0.09	744193	keystroke_l	l	n/a
372.2165	0.105	744433	keystroke_e	e	n/a
372.4115	0.105	744823	keystroke_s	s	n/a
372.5315	0.1045	745063	keystroke_s	s	n/a
372.981	0.075	745962	keystroke_Key.enter	Key.enter	n/a
373.065	8.213	746130	prompt	n/a	awareness limitations debate women\n
373.627	0.045	747254	keystroke_a	a	n/a
373.702	0.165	747404	keystroke_w	w	n/a
373.852	0.105	747704	keystroke_a	a	n/a
374.002	0.165	748004	keystroke_r	r	n/a
374.122	0.09	748244	keystroke_e	e	n/a
374.392	0.075	748784	keystroke_n	n	n/a
374.527	0.06	749054	keystroke_e	e	n/a
374.752	0.09	749504	keystroke_s	s	n/a
374.917	0.105	749834	keystroke_s	s	n/a
375.067	0.105	750134	keystroke_Key.space	Key.space	n/a
375.3365	0.105	750673	keystroke_l	l	n/a
375.5165	0.09	751033	keystroke_i	i	n/a
375.5915	0.09	751183	keystroke_m	m	n/a
375.6665	0.105	751333	keystroke_i	i	n/a
376.2665	0.135	752533	keystroke_t	t	n/a
376.3865	0.135	752773	keystroke_a	a	n/a
376.4915	0.135	752983	keystroke_t	t	n/a
376.5965	0.0745	753193	keystroke_i	i	n/a
376.731	0.06	753462	keystroke_o	o	n/a
376.761	0.09	753522	keystroke_n	n	n/a
376.866	0.105	753732	keystroke_s	s	n/a
376.972	0.089	753944	keystroke_Key.space	Key.space	n/a
377.121	0.075	754242	keystroke_d	d	n/a
377.256	0.075	754512	keystroke_e	e	n/a
377.4365	0.09	754873	keystroke_b	b	n/a
377.5865	0.12	755173	keystroke_a	a	n/a
377.6915	0.12	755383	keystroke_t	t	n/a
377.7665	0.0595	755533	keystroke_r	r	n/a
377.8115	0.075	755623	keystroke_e	e	n/a
378.3515	0.105	756703	keystroke_Key.space	Key.space	n/a
378.6815	0.06	757363	keystroke_Key.backspace	Key.backspace	n/a
378.8315	0.06	757663	keystroke_Key.backspace	Key.backspace	n/a
378.9515	0.09	757903	keystroke_Key.backspace	Key.backspace	n/a
379.0565	0.06	758113	keystroke_e	e	n/a
379.4765	0.09	758953	keystroke_Key.space	Key.space	n/a
379.972	0.164	759944	keystroke_w	w	n/a
380.017	0.075	760034	keystroke_e	e	n/a
380.481	0.061	760962	keystroke_Key.backspace	Key.backspace	n/a
380.661	0.046	761322	keystroke_o	o	n/a
380.736	0.09	761472	keystroke_m	m	n/a
380.827	0.089	761654	keystroke_e	e	n/a
380.931	0.0605	761862	keystroke_n	n	n/a
381.2165	0.06	762433	keystroke_Key.enter	Key.enter	n/a
381.282	7.3455	762564	prompt	n/a	conferencing executed enrolled compliance\n
381.8615	0.135	763723	keystroke_c	c	n/a
381.9215	0.105	763843	keystroke_o	o	n/a
381.9815	0.075	763963	keystroke_n	n	n/a
382.1015	0.1045	764203	keystroke_f	f	n/a
382.251	0.09	764502	keystroke_e	e	n/a
382.326	0.12	764652	keystroke_r	r	n/a
382.416	0.09	764832	keystroke_e	e	n/a
383.046	0.0905	766092	keystroke_n	n	n/a
383.1665	0.135	766333	keystroke_c	c	n/a
383.2565	0.09	766513	keystroke_i	i	n/a
383.3165	0.09	766633	keystroke_n	n	n/a
383.4215	0.075	766843	keystroke_g	g	n/a
384.0365	0.09	768073	keystroke_Key.space	Key.space	n/a
384.3065	0.075	768613	keystroke_e	e	n/a
384.501	0.076	769002	keystroke_x	x	n/a
384.667	0.0445	769334	keystroke_e	e	n/a
384.8015	0.075	769603	keystroke_c	c	n/a
384.8915	0.0595	769783	keystroke_u	u	n/a
385.041	0.12	770082	keystroke_t	t	n/a
385.116	0.105	770232	keystroke_e	e	n/a
385.296	0.105	770592	keystroke_d	d	n/a
385.701	0.09	771402	keystroke_Key.space	Key.space	n/a
385.8815	0.075	771763	keystroke_e	e	n/a
385.9715	0.075	771943	keystroke_n	n	n/a
386.1065	0.09	772213	keystroke_r	r	n/a
386.1815	0.0745	772363	keystroke_o	o	n/a
386.346	0.06	772692	keystroke_l	l	n/a
386.451	0.0905	772902	keystroke_l	l	n/a
386.5265	0.09	773053	keystroke_e	e	n/a
386.6615	0.135	773323	keystroke_d	d	n/a
386.8265	0.09	773653	keystroke_Key.space	Key.space	n/a
387.1115	0.06	774223	keystroke_e	e	n/a
387.3365	0.075	774673	keystroke_Key.backspace	Key.backspace	n/a
387.4265	0.105	774853	keystroke_c	c	n/a
387.5165	0.105	775033	keystroke_o	o	n/a
387.576	0.0905	775152	keystroke_m	m	n/a
387.7865	0.1045	775573	keystroke_p	p	n/a
387.831	0.075	775662	keystroke_l	l	n/a
387.996	0.075	775992	keystroke_i	i	n/a
388.056	0.135	776112	keystroke_a	a	n/a
388.146	0.075	776292	keystroke_n	n	n/a
388.266	0.12	776532	keystroke_c	c	n/a
388.326	0.105	776652	keystroke_e	e	n/a
388.551	0.075	777102	keystroke_Key.enter	Key.enter	n/a
388.6315	7.9315	777263	prompt	n/a	juvenile much maintaining transmit\n
389.316	0.091	778632	keystroke_j	j	n/a
389.482	0.06	778964	keystroke_u	u	n/a
389.632	0.1045	779264	keystroke_v	v	n/a
389.6765	0.15	779353	keystroke_e	e	n/a
390.1865	0.105	780373	keystroke_n	n	n/a
390.2465	0.1045	780493	keystroke_i	i	n/a
390.441	0.09	780882	keystroke_l	l	n/a
390.516	0.105	781032	keystroke_e	e	n/a
390.801	0.045	781602	keystroke_Key.space	Key.space	n/a
390.937	0.089	781874	keystroke_m	m	n/a
391.071	0.075	782142	keystroke_u	u	n/a
391.161	0.106	782322	keystroke_c	c	n/a
391.237	0.074	782474	keystroke_h	h	n/a
391.461	0.075	782922	keystroke_Key.space	Key.space	n/a
391.641	0.09	783282	keystroke_m	m	n/a
391.806	0.105	783612	keystroke_a	a	n/a
391.986	0.12	783972	keystroke_i	i	n/a
392.061	0.1055	784122	keystroke_n	n	n/a
392.257	0.089	784514	keystroke_t	t	n/a
392.587	0.12	785174	keystroke_a	a	n/a
393.171	0.135	786342	keystroke_i	i	n/a
393.262	0.105	786524	keystroke_n	n	n/a
394.222	0.104	788444	keystroke_i	i	n/a
394.251	0.12	788502	keystroke_n	n	n/a
394.401	0.09	788802	keystroke_g	g	n/a
395.076	0.06	790152	keystroke_Key.space	Key.space	n/a
395.316	0.12	790632	keystroke_t	t	n/a
395.361	0.12	790722	keystroke_r	r	n/a
395.496	0.15	790992	keystroke_a	a	n/a
395.676	0.075	791352	keystroke_n	n	n/a
395.781	0.12	791562	keystroke_s	s	n/a
396.021	0.09	792042	keystroke_m	m	n/a
396.096	0.075	792192	keystroke_i	i	n/a
396.201	0.075	792402	keystroke_t	t	n/a
396.4865	0.075	792973	keystroke_Key.enter	Key.enter	n/a
396.566	8.157	793132	prompt	n/a	entertaining assault marc limited\n
397.1615	0.075	794323	keystroke_e	e	n/a
397.2515	0.015	794503	keystroke_n	n	n/a
397.2815	0.12	794563	keystroke_t	t	n/a
397.3565	0.165	794713	keystroke_e	e	n/a
397.4465	0.135	794893	keystroke_r	r	n/a
397.7315	0.105	795463	keystroke_t	t	n/a
397.7765	0.12	795553	keystroke_e	e	n/a
398.2865	0.09	796573	keystroke_Key.backspace	Key.backspace	n/a
398.4965	0.105	796993	keystroke_a	a	n/a
399.2915	0.075	798583	keystroke_i	i	n/a
399.4565	0.09	798913	keystroke_n	n	n/a
400.1915	0.06	800383	keystroke_i	i	n/a
400.2665	0.0895	800533	keystroke_n	n	n/a
400.446	0.09	800892	keystroke_g	g	n/a
400.566	0.09	801132	keystroke_Key.space	Key.space	n/a
400.926	0.135	801852	keystroke_a	a	n/a
401.076	0.105	802152	keystroke_s	s	n/a
401.226	0.1355	802452	keystroke_s	s	n/a
401.4965	0.135	802993	keystroke_a	a	n/a
401.6465	0.06	803293	keystroke_u	u	n/a
401.8115	0.075	803623	keystroke_l	l	n/a
401.9315	0.105	803863	keystroke_t	t	n/a
402.0215	0.075	804043	keystroke_Key.space	Key.space	n/a
402.1565	0.09	804313	keystroke_m	m	n/a
402.1865	0.12	804373	keystroke_a	a	n/a
402.2615	0.105	804523	keystroke_r	r	n/a
402.4715	0.12	804943	keystroke_c	c	n/a
402.7265	0.075	805453	keystroke_Key.space	Key.space	n/a
402.9215	0.075	805843	keystroke_l	l	n/a
403.1015	0.075	806203	keystroke_i	i	n/a
403.1615	0.105	806323	keystroke_m	m	n/a
403.2515	0.105	806503	keystroke_i	i	n/a
403.4465	0.12	806893	keystroke_t	t	n/a
403.5215	0.09	807043	keystroke_e	e	n/a
403.986	0.075	807972	keystroke_d	d	n/a
404.631	0.09	809262	keystroke_Key.enter	Key.enter	n/a
404.7255	4.917	809451	prompt	n/a	calm donate territory beam\n
405.4265	0.06	810853	keystroke_c	c	n/a
405.4715	0.09	810943	keystroke_a	a	n/a
405.5465	0.15	811093	keystroke_l	l	n/a
405.6515	0.09	811303	keystroke_m	m	n/a
405.8315	0.045	811663	keystroke_Key.space	Key.space	n/a
405.8915	0.09	811783	keystroke_d	d	n/a
405.9515	0.12	811903	keystroke_o	o	n/a
406.0265	0.105	812053	keystroke_n	n	n/a
406.3115	0.12	812623	keystroke_a	a	n/a
406.4615	0.12	812923	keystroke_t	t	n/a
406.5215	0.105	813043	keystroke_e	e	n/a
406.7615	0.06	813523	keystroke_Key.space	Key.space	n/a
406.8815	0.09	813763	keystroke_t	t	n/a
407.0615	0.09	814123	keystroke_e	e	n/a
407.1815	0.09	814363	keystroke_r	r	n/a
407.3165	0.075	814633	keystroke_r	r	n/a
407.4065	0.09	814813	keystroke_i	i	n/a
407.7065	0.105	815413	keystroke_t	t	n/a
407.8265	0.06	815653	keystroke_o	o	n/a
407.9165	0.09	815833	keystroke_r	r	n/a
407.9765	0.1045	815953	keystroke_y	y	n/a
408.411	0.09	816822	keystroke_Key.space	Key.space	n/a
408.726	0.105	817452	keystroke_b	b	n/a
408.966	0.03	817932	keystroke_e	e	n/a
409.011	0.165	818022	keystroke_a	a	n/a
409.161	0.075	818322	keystroke_m	m	n/a
409.566	0.0755	819132	keystroke_Key.enter	Key.enter	n/a
409.6455	7.047	819291	prompt	n/a	daughter creating xbox vector\n
410.331	0.105	820662	keystroke_a	a	n/a
410.826	0.075	821652	keystroke_Key.backspace	Key.backspace	n/a
410.9465	0.15	821893	keystroke_d	d	n/a
411.4115	0.12	822823	keystroke_a	a	n/a
411.5615	0.0895	823123	keystroke_u	u	n/a
411.726	0.1355	823452	keystroke_g	g	n/a
411.816	0.1055	823632	keystroke_h	h	n/a
411.9965	0.105	823993	keystroke_t	t	n/a
412.2065	0.135	824413	keystroke_e	e	n/a
412.2515	0.135	824503	keystroke_r	r	n/a
412.4765	0.105	824953	keystroke_Key.space	Key.space	n/a
412.7465	0.12	825493	keystroke_c	c	n/a
412.9565	0.165	825913	keystroke_r	r	n/a
412.9715	0.195	825943	keystroke_e	e	n/a
413.2415	0.135	826483	keystroke_a	a	n/a
413.3915	0.09	826783	keystroke_t	t	n/a
413.5115	0.105	827023	keystroke_i	i	n/a
413.5715	0.09	827143	keystroke_n	n	n/a
413.6315	0.09	827263	keystroke_g	g	n/a
413.7815	0.09	827563	keystroke_Key.space	Key.space	n/a
414.2015	0.09	828403	keystroke_x	x	n/a
414.4565	0.09	828913	keystroke_b	b	n/a
414.5615	0.075	829123	keystroke_o	o	n/a
414.6815	0.12	829363	keystroke_x	x	n/a
415.0115	0.105	830023	keystroke_Key.space	Key.space	n/a
415.4015	0.09	830803	keystroke_e	e	n/a
415.6715	0.09	831343	keystroke_Key.backspace	Key.backspace	n/a
415.7465	0.0745	831493	keystroke_v	v	n/a
415.7915	0.1045	831583	keystroke_e	e	n/a
415.971	0.075	831942	keystroke_c	c	n/a
416.151	0.09	832302	keystroke_t	t	n/a
416.256	0.06	832512	keystroke_o	o	n/a
416.346	0.0905	832692	keystroke_r	r	n/a
416.6315	0.06	833263	keystroke_Key.enter	Key.enter	n/a
416.6955	6.762	833391	prompt	n/a	gentle claire indicates morocco\n
417.3065	0.105	834613	keystroke_g	g	n/a
417.3665	0.12	834733	keystroke_e	e	n/a
417.5165	0.075	835033	keystroke_n	n	n/a
417.6365	0.105	835273	keystroke_t	t	n/a
417.9665	0.075	835933	keystroke_l	l	n/a
418.0565	0.09	836113	keystroke_e	e	n/a
418.251	0.09	836502	keystroke_Key.space	Key.space	n/a
418.416	0.105	836832	keystroke_c	c	n/a
418.506	0.09	837012	keystroke_l	l	n/a
418.641	0.135	837282	keystroke_a	a	n/a
419.4515	0.06	838903	keystroke_i	i	n/a
419.5265	0.12	839053	keystroke_r	r	n/a
419.5865	0.12	839173	keystroke_e	e	n/a
419.7815	0.075	839563	keystroke_Key.space	Key.space	n/a
419.9165	0.105	839833	keystroke_i	i	n/a
419.9765	0.06	839953	keystroke_n	n	n/a
420.0515	0.105	840103	keystroke_d	d	n/a
420.1715	0.06	840343	keystroke_i	i	n/a
420.4865	0.09	840973	keystroke_c	c	n/a
420.5465	0.135	841093	keystroke_a	a	n/a
420.7415	0.105	841483	keystroke_t	t	n/a
420.7865	0.09	841573	keystroke_e	e	n/a
420.9665	0.12	841933	keystroke_s	s	n/a
421.1015	0.09	842203	keystroke_Key.space	Key.space	n/a
421.3115	0.0895	842623	keystroke_m	m	n/a
421.3565	0.1045	842713	keystroke_o	o	n/a
421.566	0.075	843132	keystroke_r	r	n/a
421.6715	0.075	843343	keystroke_o	o	n/a
421.9715	0.12	843943	keystroke_c	c	n/a
422.1065	0.06	844213	keystroke_o	o	n/a
422.2265	0.06	844453	keystroke_o	o	n/a
422.6765	0.06	845353	keystroke_Key.backspace	Key.backspace	n/a
422.8115	0.06	845623	keystroke_Key.backspace	Key.backspace	n/a
422.9015	0.105	845803	keystroke_c	c	n/a
423.0365	0.075	846073	keystroke_o	o	n/a
423.3965	0.06	846793	keystroke_Key.enter	Key.enter	n/a
423.461	9.9275	846922	prompt	n/a	training optimize mandatory cultural\n
424.251	0.1205	848502	keystroke_t	t	n/a
424.281	0.1205	848562	keystroke_r	r	n/a
424.4465	0.1645	848893	keystroke_a	a	n/a
424.626	0.09	849252	keystroke_i	i	n/a
424.791	0.09	849582	keystroke_n	n	n/a
425.331	0.075	850662	keystroke_i	i	n/a
425.361	0.09	850722	keystroke_n	n	n/a
425.511	0.105	851022	keystroke_g	g	n/a
425.886	0.09	851772	keystroke_Key.space	Key.space	n/a
426.126	0.06	852252	keystroke_o	o	n/a
426.276	0.075	852552	keystroke_p	p	n/a
426.3965	0.075	852793	keystroke_t	t	n/a
426.5615	0.075	853123	keystroke_i	i	n/a
427.5815	0.12	855163	keystroke_m	m	n/a
427.6565	0.09	855313	keystroke_i	i	n/a
427.7915	0.1195	855583	keystroke_x	x	n/a
428.271	0.09	856542	keystroke_Key.backspace	Key.backspace	n/a
428.3465	0.12	856693	keystroke_z	z	n/a
428.6015	0.075	857203	keystroke_e	e	n/a
428.8715	0.075	857743	keystroke_Key.space	Key.space	n/a
429.0965	0.09	858193	keystroke_m	m	n/a
429.1715	0.12	858343	keystroke_a	a	n/a
429.2615	0.075	858523	keystroke_n	n	n/a
429.3815	0.09	858763	keystroke_d	d	n/a
429.4715	0.105	858943	keystroke_a	a	n/a
429.921	0.09	859842	keystroke_t	t	n/a
430.206	0.06	860412	keystroke_o	o	n/a
430.312	0.149	860624	keystroke_r	r	n/a
430.446	0.09	860892	keystroke_y	y	n/a
430.821	0.075	861642	keystroke_Key.space	Key.space	n/a
431.2265	0.09	862453	keystroke_c	c	n/a
431.3315	0.045	862663	keystroke_u	u	n/a
431.511	0.06	863022	keystroke_l	l	n/a
431.631	0.091	863262	keystroke_t	t	n/a
431.766	0.0605	863532	keystroke_u	u	n/a
431.8865	0.075	863773	keystroke_r	r	n/a
432.0065	0.15	864013	keystroke_a	a	n/a
432.1865	0.06	864373	keystroke_l	l	n/a
433.311	0.075	866622	keystroke_Key.enter	Key.enter	n/a
433.3925	9.04	866785	prompt	n/a	lewis reserved ecuador weird\n
434.0015	0.045	868003	keystroke_l	l	n/a
434.091	0.075	868182	keystroke_e	e	n/a
434.286	0.105	868572	keystroke_w	w	n/a
434.436	0.09	868872	keystroke_i	i	n/a
434.571	0.09	869142	keystroke_s	s	n/a
434.946	0.105	869892	keystroke_Key.space	Key.space	n/a
435.3965	0.06	870793	keystroke_r	r	n/a
435.4115	0.09	870823	keystroke_e	e	n/a
435.6665	0.12	871333	keystroke_s	s	n/a
436.281	0.1355	872562	keystroke_e	e	n/a
436.3565	0.12	872713	keystroke_r	r	n/a
436.5965	0.105	873193	keystroke_v	v	n/a
436.6865	0.12	873373	keystroke_e	e	n/a
436.8965	0.12	873793	keystroke_d	d	n/a
437.496	0.09	874992	keystroke_e	e	n/a
437.8715	0.09	875743	keystroke_Key.backspace	Key.backspace	n/a
438.096	0.09	876192	keystroke_Key.space	Key.space	n/a
438.202	0.0895	876404	keystroke_e	e	n/a
438.3065	0.135	876613	keystroke_c	c	n/a
438.5315	0.09	877063	keystroke_d	d	n/a
438.9215	0.075	877843	keystroke_Key.backspace	Key.backspace	n/a
439.1315	0.075	878263	keystroke_u	u	n/a
439.3115	0.1195	878623	keystroke_a	a	n/a
439.806	0.106	879612	keystroke_d	d	n/a
439.942	0.074	879884	keystroke_o	o	n/a
440.032	0.0745	880064	keystroke_r	r	n/a
440.211	0.0755	880422	keystroke_Key.space	Key.space	n/a
440.3615	0.12	880723	keystroke_w	w	n/a
440.4215	0.135	880843	keystroke_e	e	n/a
440.5415	0.06	881083	keystroke_i	i	n/a
440.6465	0.09	881293	keystroke_r	r	n/a
441.0965	0.075	882193	keystroke_d	d	n/a
442.341	0.09	884682	keystroke_Key.enter	Key.enter	n/a
442.4355	4.7225	884871	prompt	n/a	lies about narrow preceding\n
443.001	0.075	886002	keystroke_l	l	n/a
443.151	0.09	886302	keystroke_i	i	n/a
443.211	0.09	886422	keystroke_e	e	n/a
443.286	0.12	886572	keystroke_s	s	n/a
443.421	0.075	886842	keystroke_Key.space	Key.space	n/a
443.466	0.105	886932	keystroke_a	a	n/a
443.616	0.135	887232	keystroke_b	b	n/a
443.706	0.06	887412	keystroke_o	o	n/a
443.8265	0.075	887653	keystroke_u	u	n/a
443.8865	0.075	887773	keystroke_t	t	n/a
443.9915	0.045	887983	keystroke_Key.space	Key.space	n/a
444.0965	0.105	888193	keystroke_n	n	n/a
444.1565	0.09	888313	keystroke_o	o	n/a
444.4565	0.09	888913	keystroke_Key.backspace	Key.backspace	n/a
444.5315	0.09	889063	keystroke_a	a	n/a
444.6365	0.075	889273	keystroke_r	r	n/a
444.7715	0.0895	889543	keystroke_r	r	n/a
444.876	0.06	889752	keystroke_o	o	n/a
444.951	0.075	889902	keystroke_w	w	n/a
445.056	0.075	890112	keystroke_Key.space	Key.space	n/a
445.311	0.06	890622	keystroke_p	p	n/a
445.401	0.075	890802	keystroke_e	e	n/a
445.716	0.075	891432	keystroke_Key.backspace	Key.backspace	n/a
445.792	0.09	891584	keystroke_r	r	n/a
445.8365	0.0755	891673	keystroke_e	e	n/a
446.1065	0.1195	892213	keystroke_c	c	n/a
446.1965	0.1345	892393	keystroke_e	e	n/a
446.466	0.075	892932	keystroke_d	d	n/a
446.526	0.105	893052	keystroke_i	i	n/a
446.571	0.12	893142	keystroke_n	n	n/a
446.676	0.075	893352	keystroke_g	g	n/a
447.066	0.091	894132	keystroke_Key.enter	Key.enter	n/a
447.1615	7.0165	894323	prompt	n/a	prospects lending rosa divine\n
447.741	0.09	895482	keystroke_p	p	n/a
447.846	0.09	895692	keystroke_r	r	n/a
447.921	0.075	895842	keystroke_o	o	n/a
448.116	0.12	896232	keystroke_s	s	n/a
448.386	0.03	896772	keystroke_p	p	n/a
448.401	0.106	896802	keystroke_e	e	n/a
448.476	0.105	896952	keystroke_c	c	n/a
448.732	0.09	897464	keystroke_t	t	n/a
448.791	0.136	897582	keystroke_s	s	n/a
449.271	0.06	898542	keystroke_Key.space	Key.space	n/a
449.421	0.076	898842	keystroke_l	l	n/a
449.676	0.091	899352	keystroke_e	e	n/a
449.812	0.059	899624	keystroke_n	n	n/a
449.857	0.09	899714	keystroke_d	d	n/a
449.961	0.09	899922	keystroke_i	i	n/a
449.976	0.1205	899952	keystroke_n	n	n/a
450.066	0.0755	900132	keystroke_g	g	n/a
450.6665	0.015	901333	keystroke_Key.space	Key.space	n/a
450.7715	0.1045	901543	keystroke_r	r	n/a
450.861	0.076	901722	keystroke_o	o	n/a
450.951	0.09	901902	keystroke_s	s	n/a
451.011	0.18	902022	keystroke_a	a	n/a
451.356	0.075	902712	keystroke_Key.space	Key.space	n/a
451.581	0.0755	903162	keystroke_d	d	n/a
451.6715	0.075	903343	keystroke_i	i	n/a
451.7615	0.0895	903523	keystroke_v	v	n/a
451.836	0.09	903672	keystroke_i	i	n/a
451.866	0.09	903732	keystroke_n	n	n/a
452.001	0.075	904002	keystroke_e	e	n/a
452.166	0.09	904332	keystroke_s	s	n/a
453.876	0.06	907752	keystroke_Key.backspace	Key.backspace	n/a
454.086	0.091	908172	keystroke_Key.enter	Key.enter	n/a
454.1805	7.0925	908361	prompt	n/a	ellis gmbh israeli understand\n
454.821	0.09	909642	keystroke_e	e	n/a
454.971	0.075	909942	keystroke_l	l	n/a
455.091	0.09	910182	keystroke_l	l	n/a
455.256	0.075	910512	keystroke_i	i	n/a
455.346	0.12	910692	keystroke_s	s	n/a
455.481	0.075	910962	keystroke_Key.space	Key.space	n/a
455.766	0.0905	911532	keystroke_g	g	n/a
455.8415	0.075	911683	keystroke_m	m	n/a
456.231	0.076	912462	keystroke_b	b	n/a
456.4565	0.06	912913	keystroke_h	h	n/a
456.9215	0.105	913843	keystroke_Key.space	Key.space	n/a
457.1765	0.075	914353	keystroke_i	i	n/a
457.2665	0.1045	914533	keystroke_s	s	n/a
457.7165	0.1045	915433	keystroke_a	a	n/a
458.031	0.075	916062	keystroke_Key.backspace	Key.backspace	n/a
458.091	0.12	916182	keystroke_r	r	n/a
458.167	0.119	916334	keystroke_a	a	n/a
458.721	0.09	917442	keystroke_e	e	n/a
458.826	0.09	917652	keystroke_l	l	n/a
458.976	0.075	917952	keystroke_i	i	n/a
459.156	0.09	918312	keystroke_Key.space	Key.space	n/a
459.426	0.075	918852	keystroke_u	u	n/a
459.471	0.075	918942	keystroke_n	n	n/a
459.561	0.075	919122	keystroke_d	d	n/a
459.726	0.105	919452	keystroke_e	e	n/a
459.786	0.12	919572	keystroke_r	r	n/a
459.921	0.135	919842	keystroke_s	s	n/a
460.026	0.106	920052	keystroke_t	t	n/a
460.101	0.12	920202	keystroke_a	a	n/a
460.206	0.06	920412	keystroke_n	n	n/a
460.311	0.09	920622	keystroke_d	d	n/a
461.1965	0.075	922393	keystroke_Key.enter	Key.enter	n/a
461.2795	5.993	922559	prompt	n/a	diesel limitations indexed digest\n
461.931	0.09	923862	keystroke_d	d	n/a
462.036	0.06	924072	keystroke_i	i	n/a
462.216	0.09	924432	keystroke_e	e	n/a
462.4115	0.09	924823	keystroke_s	s	n/a
462.711	0.075	925422	keystroke_e	e	n/a
462.831	0.075	925662	keystroke_l	l	n/a
462.981	0.075	925962	keystroke_Key.space	Key.space	n/a
