onset	duration	sample	value	key	prompt_text
1.3125	0.161	2625	keystroke_Key.alt_l	Key.alt_l	n/a
1.3835	0.115	2767	keystroke_Key.tab	Key.tab	n/a
7.6075	0.205	15215	keystroke_Key.alt_l	Key.alt_l	n/a
7.6775	0.183	15355	keystroke_Key.tab	Key.tab	n/a
7.8965	10.293	15793	prompt	n/a	the quick brown fox jumps over a lazy dog\n
9.549	0.043	19098	keystroke_t	t	n/a
9.592	0.105	19184	keystroke_h	h	n/a
9.6515	0.105	19303	keystroke_e	e	n/a
9.7575	0.119	19515	keystroke_Key.space	Key.space	n/a
9.9065	0.06	19813	keystroke_w	w	n/a
9.9815	0.1355	19963	keystroke_u	u	n/a
10.0565	0.1355	20113	keystroke_i	i	n/a
10.237	0.135	20474	keystroke_c	c	n/a
11.1515	0.105	22303	keystroke_Key.backspace	Key.backspace	n/a
11.497	0.105	22994	keystroke_Key.backspace	Key.backspace	n/a
11.842	0.075	23684	keystroke_Key.backspace	Key.backspace	n/a
12.1575	0.09	24315	keystroke_Key.backspace	Key.backspace	n/a
12.607	0.09	25214	keystroke_q	q	n/a
12.787	0.12	25574	keystroke_u	u	n/a
12.847	0.105	25694	keystroke_i	i	n/a
12.967	0.1205	25934	keystroke_c	c	n/a
13.0725	0.09	26145	keystroke_k	k	n/a
13.1175	0.09	26235	keystroke_Key.space	Key.space	n/a
13.3125	0.09	26625	keystroke_b	b	n/a
13.3875	0.09	26775	keystroke_r	r	n/a
13.4925	0.09	26985	keystroke_o	o	n/a
13.5675	0.09	27135	keystroke_w	w	n/a
13.6725	0.0895	27345	keystroke_n	n	n/a
13.732	0.09	27464	keystroke_Key.space	Key.space	n/a
13.792	0.09	27584	keystroke_f	f	n/a
13.897	0.105	27794	keystroke_o	o	n/a
14.017	0.09	28034	keystroke_x	x	n/a
14.107	0.075	28214	keystroke_Key.space	Key.space	n/a
14.242	0.075	28484	keystroke_j	j	n/a
14.422	0.075	28844	keystroke_u	u	n/a
14.617	0.12	29234	keystroke_m	m	n/a
14.722	0.105	29444	keystroke_p	p	n/a
14.827	0.09	29654	keystroke_s	s	n/a
14.902	0.105	29804	keystroke_Key.space	Key.space	n/a
14.977	0.105	29954	keystroke_o	o	n/a
15.052	0.09	30104	keystroke_v	v	n/a
15.2175	0.12	30435	keystroke_e	e	n/a
15.2775	0.105	30555	keystroke_r	r	n/a
15.3675	0.089	30735	keystroke_Key.space	Key.space	n/a
15.4275	0.12	30855	keystroke_a	a	n/a
15.5325	0.06	31065	keystroke_Key.space	Key.space	n/a
15.6225	0.1045	31245	keystroke_l	l	n/a
15.682	0.105	31364	keystroke_a	a	n/a
15.937	0.105	31874	keystroke_y	y	n/a
15.982	0.075	31964	keystroke_Key.space	Key.space	n/a
16.702	0.075	33404	keystroke_Key.backspace	Key.backspace	n/a
16.927	0.09	33854	keystroke_Key.backspace	Key.backspace	n/a
17.362	0.105	34724	keystroke_z	z	n/a
17.512	0.1195	35024	keystroke_y	y	n/a
17.5715	0.105	35143	keystroke_Key.space	Key.space	n/a
17.6765	0.1205	35353	keystroke_d	d	n/a
17.782	0.105	35564	keystroke_o	o	n/a
17.902	0.09	35804	keystroke_g	g	n/a
18.067	0.12	36134	keystroke_Key.enter	Key.enter	n/a
18.1975	7.581	36395	prompt	n/a	microsoft treo hasn't weekend\n
18.8925	0.135	37785	keystroke_m	m	n/a
19.0275	0.135	38055	keystroke_i	i	n/a
19.1775	0.15	38355	keystroke_c	c	n/a
19.2975	0.15	38595	keystroke_r	r	n/a
19.8225	0.09	39645	keystroke_o	o	n/a
20.0175	0.09	40035	keystroke_s	s	n/a
20.4215	0.09	40843	keystroke_o	o	n/a
20.5265	0.0905	41053	keystroke_f	f	n/a
20.722	0.09	41444	keystroke_t	t	n/a
20.782	0.12	41564	keystroke_Key.space	Key.space	n/a
20.917	0.075	41834	keystroke_t	t	n/a
22.0875	0.119	44175	keystroke_r	r	n/a
22.3115	0.09	44623	keystroke_e	e	n/a
22.837	0.135	45674	keystroke_o	o	n/a
22.927	0.15	45854	keystroke_Key.space	Key.space	n/a
23.587	0.09	47174	keystroke_h	h	n/a
23.692	0.105	47384	keystroke_a	a	n/a
23.722	0.105	47444	keystroke_s	s	n/a
23.812	0.09	47624	keystroke_n	n	n/a
24.112	0.045	48224	keystroke_'	'	n/a
24.187	0.075	48374	keystroke_t	t	n/a
24.757	0.105	49514	keystroke_Key.space	Key.space	n/a
24.892	0.105	49784	keystroke_w	w	n/a
24.937	0.075	49874	keystroke_e	e	n/a
25.102	0.09	50204	keystroke_e	e	n/a
25.177	0.075	50354	keystroke_k	k	n/a
25.267	0.075	50534	keystroke_e	e	n/a
25.357	0.09	50714	keystroke_n	n	n/a
25.477	0.09	50954	keystroke_d	d	n/a
25.6565	0.12	51313	keystroke_Key.enter	Key.enter	n/a
25.782	6.207	51564	prompt	n/a	contrary distant printer expenses\n
26.4225	0.104	52845	keystroke_c	c	n/a
26.5115	0.076	53023	keystroke_o	o	n/a
26.6465	0.076	53293	keystroke_n	n	n/a
26.7075	0.06	53415	keystroke_t	t	n/a
26.8725	0.105	53745	keystroke_r	r	n/a
26.9465	0.166	53893	keystroke_a	a	n/a
27.0975	0.105	54195	keystroke_r	r	n/a
27.2025	0.105	54405	keystroke_y	y	n/a
27.2465	0.135	54493	keystroke_Key.space	Key.space	n/a
27.5465	0.09	55093	keystroke_d	d	n/a
27.6815	0.075	55363	keystroke_i	i	n/a
27.7715	0.075	55543	keystroke_s	s	n/a
27.9365	0.12	55873	keystroke_t	t	n/a
28.0115	0.075	56023	keystroke_a	a	n/a
28.1315	0.09	56263	keystroke_n	n	n/a
28.2375	0.104	56475	keystroke_t	t	n/a
28.3265	0.09	56653	keystroke_Key.space	Key.space	n/a
28.4765	0.121	56953	keystroke_p	p	n/a
28.927	0.12	57854	keystroke_r	r	n/a
29.032	0.09	58064	keystroke_i	i	n/a
29.107	0.12	58214	keystroke_n	n	n/a
29.197	0.06	58394	keystroke_t	t	n/a
29.272	0.165	58544	keystroke_e	e	n/a
29.362	0.09	58724	keystroke_r	r	n/a
29.422	0.105	58844	keystroke_Key.space	Key.space	n/a
29.542	0.09	59084	keystroke_e	e	n/a
29.722	0.105	59444	keystroke_x	x	n/a
29.827	0.0895	59654	keystroke_p	p	n/a
30.0515	0.0755	60103	keystroke_n	n	n/a
30.877	0.1045	61754	keystroke_Key.backspace	Key.backspace	n/a
31.1765	0.075	62353	keystroke_e	e	n/a
31.2665	0.075	62533	keystroke_n	n	n/a
31.3865	0.0905	62773	keystroke_s	s	n/a
31.492	0.105	62984	keystroke_e	e	n/a
31.552	0.12	63104	keystroke_s	s	n/a
31.8815	0.105	63763	keystroke_Key.enter	Key.enter	n/a
31.992	21.072	63984	prompt	n/a	carter declaration finland stake\n
32.782	0.135	65564	keystroke_c	c	n/a
32.872	0.12	65744	keystroke_a	a	n/a
33.067	0.09	66134	keystroke_r	r	n/a
33.232	0.09	66464	keystroke_t	t	n/a
33.307	0.15	66614	keystroke_e	e	n/a
33.382	0.12	66764	keystroke_r	r	n/a
33.457	0.15	66914	keystroke_Key.space	Key.space	n/a
33.667	0.105	67334	keystroke_c	c	n/a
33.8915	0.105	67783	keystroke_e	e	n/a
34.0415	0.105	68083	keystroke_l	l	n/a
34.3415	0.105	68683	keystroke_a	a	n/a
34.4165	0.135	68833	keystroke_r	r	n/a
34.6115	0.1055	69223	keystroke_a	a	n/a
34.687	0.12	69374	keystroke_t	t	n/a
34.792	0.105	69584	keystroke_i	i	n/a
34.852	0.075	69704	keystroke_o	o	n/a
35.017	0.1045	70034	keystroke_n	n	n/a
35.077	0.1345	70154	keystroke_Key.space	Key.space	n/a
35.2265	0.105	70453	keystroke_f	f	n/a
35.3015	0.075	70603	keystroke_i	i	n/a
35.3615	0.135	70723	keystroke_n	n	n/a
35.5115	0.1355	71023	keystroke_d	d	n/a
35.797	0.105	71594	keystroke_l	l	n/a
35.947	0.09	71894	keystroke_a	a	n/a
36.142	0.105	72284	keystroke_n	n	n/a
36.247	0.105	72494	keystroke_d	d	n/a
39.3395	0.057	78679	keystroke_Key.backspace	Key.backspace	n/a
39.7865	0.12	79573	keystroke_Key.backspace	Key.backspace	n/a
40.2815	0.105	80563	keystroke_Key.backspace	Key.backspace	n/a
40.7615	0.135	81523	keystroke_Key.backspace	Key.backspace	n/a
41.272	0.1055	82544	keystroke_Key.backspace	Key.backspace	n/a
41.7825	0.135	83565	keystroke_Key.backspace	Key.backspace	n/a
42.262	0.1045	84524	keystroke_Key.backspace	Key.backspace	n/a
42.7115	0.1505	85423	keystroke_Key.backspace	Key.backspace	n/a
43.207	0.105	86414	keystroke_Key.backspace	Key.backspace	n/a
43.687	0.12	87374	keystroke_Key.backspace	Key.backspace	n/a
44.1815	0.105	88363	keystroke_Key.backspace	Key.backspace	n/a
44.6615	0.09	89323	keystroke_Key.backspace	Key.backspace	n/a
45.1115	0.105	90223	keystroke_Key.backspace	Key.backspace	n/a
45.5915	0.09	91183	keystroke_Key.backspace	Key.backspace	n/a
46.1015	0.1055	92203	keystroke_Key.backspace	Key.backspace	n/a
46.5965	0.105	93193	keystroke_Key.backspace	Key.backspace	n/a
47.0915	0.12	94183	keystroke_Key.backspace	Key.backspace	n/a
47.5865	0.09	95173	keystroke_Key.backspace	Key.backspace	n/a
48.082	0.12	96164	keystroke_Key.backspace	Key.backspace	n/a
48.472	0.135	96944	keystroke_d	d	n/a
48.547	0.135	97094	keystroke_e	e	n/a
48.802	0.1205	97604	keystroke_c	c	n/a
49.5365	0.046	99073	keystroke_l	l	n/a
49.8065	0.12	99613	keystroke_a	a	n/a
50.0315	0.165	100063	keystroke_r	r	n/a
50.1515	0.105	100303	keystroke_a	a	n/a
50.3165	0.135	100633	keystroke_t	t	n/a
50.4365	0.135	100873	keystroke_i	i	n/a
50.4965	0.1205	100993	keystroke_o	o	n/a
50.7215	0.1055	101443	keystroke_n	n	n/a
50.767	0.15	101534	keystroke_Key.space	Key.space	n/a
50.977	0.12	101954	keystroke_f	f	n/a
51.052	0.09	102104	keystroke_i	i	n/a
51.232	0.105	102464	keystroke_n	n	n/a
51.592	0.09	103184	keystroke_l	l	n/a
51.697	0.105	103394	keystroke_a	a	n/a
51.817	0.0895	103634	keystroke_n	n	n/a
51.9225	0.105	103845	keystroke_d	d	n/a
52.0275	0.104	104055	keystroke_Key.space	Key.space	n/a
52.192	0.1195	104384	keystroke_s	s	n/a
52.3865	0.15	104773	keystroke_t	t	n/a
52.4615	0.105	104923	keystroke_a	a	n/a
52.5815	0.09	105163	keystroke_k	k	n/a
52.6565	0.105	105313	keystroke_e	e	n/a
52.9265	0.135	105853	keystroke_Key.enter	Key.enter	n/a
53.0675	4.7965	106135	prompt	n/a	harold receptors enable slovenia\n
53.857	0.075	107714	keystroke_h	h	n/a
53.917	0.075	107834	keystroke_a	a	n/a
53.962	0.105	107924	keystroke_r	r	n/a
54.127	0.06	108254	keystroke_o	o	n/a
54.277	0.09	108554	keystroke_l	l	n/a
54.352	0.105	108704	keystroke_d	d	n/a
54.442	0.12	108884	keystroke_Key.space	Key.space	n/a
54.592	0.1045	109184	keystroke_r	r	n/a
54.6665	0.12	109333	keystroke_e	e	n/a
54.8615	0.135	109723	keystroke_c	c	n/a
54.9365	0.12	109873	keystroke_e	e	n/a
55.3565	0.075	110713	keystroke_p	p	n/a
55.4915	0.105	110983	keystroke_t	t	n/a
55.6415	0.105	111283	keystroke_o	o	n/a
55.7315	0.15	111463	keystroke_r	r	n/a
55.8215	0.12	111643	keystroke_s	s	n/a
55.8965	0.1055	111793	keystroke_Key.space	Key.space	n/a
56.047	0.12	112094	keystroke_e	e	n/a
56.152	0.105	112304	keystroke_n	n	n/a
56.242	0.09	112484	keystroke_a	a	n/a
56.377	0.105	112754	keystroke_b	b	n/a
56.497	0.075	112994	keystroke_l	l	n/a
56.542	0.105	113084	keystroke_e	e	n/a
56.662	0.09	113324	keystroke_Key.space	Key.space	n/a
56.797	0.105	113594	keystroke_s	s	n/a
56.872	0.09	113744	keystroke_l	l	n/a
57.097	0.09	114194	keystroke_o	o	n/a
57.202	0.09	114404	keystroke_v	v	n/a
57.247	0.12	114494	keystroke_e	e	n/a
57.382	0.075	114764	keystroke_n	n	n/a
57.412	0.105	114824	keystroke_i	i	n/a
57.472	0.12	114944	keystroke_a	a	n/a
57.742	0.12	115484	keystroke_Key.enter	Key.enter	n/a
57.8675	5.292	115735	prompt	n/a	investments harbor comfortable origin\n
58.4915	0.075	116983	keystroke_i	i	n/a
58.6265	0.1055	117253	keystroke_n	n	n/a
58.702	0.1495	117404	keystroke_v	v	n/a
58.8965	0.18	117793	keystroke_e	e	n/a
58.9865	0.165	117973	keystroke_s	s	n/a
59.1065	0.135	118213	keystroke_t	t	n/a
59.3165	0.09	118633	keystroke_m	m	n/a
59.3915	0.09	118783	keystroke_e	e	n/a
59.5265	0.06	119053	keystroke_n	n	n/a
59.5565	0.12	119113	keystroke_t	t	n/a
59.6315	0.105	119263	keystroke_s	s	n/a
59.7065	0.09	119413	keystroke_Key.space	Key.space	n/a
59.9615	0.091	119923	keystroke_h	h	n/a
60.0065	0.1205	120013	keystroke_a	a	n/a
60.082	0.075	120164	keystroke_r	r	n/a
60.307	0.09	120614	keystroke_b	b	n/a
60.442	0.09	120884	keystroke_o	o	n/a
60.547	0.105	121094	keystroke_r	r	n/a
60.697	0.045	121394	keystroke_Key.space	Key.space	n/a
60.862	0.105	121724	keystroke_c	c	n/a
60.952	0.075	121904	keystroke_o	o	n/a
61.1015	0.105	122203	keystroke_m	m	n/a
61.1915	0.105	122383	keystroke_f	f	n/a
61.3265	0.075	122653	keystroke_o	o	n/a
61.4315	0.0755	122863	keystroke_r	r	n/a
61.5965	0.0905	123193	keystroke_t	t	n/a
61.6565	0.12	123313	keystroke_a	a	n/a
61.8215	0.09	123643	keystroke_b	b	n/a
61.9265	0.0755	123853	keystroke_l	l	n/a
61.9865	0.1055	123973	keystroke_e	e	n/a
62.107	0.0755	124214	keystroke_Key.space	Key.space	n/a
62.2725	0.09	124545	keystroke_o	o	n/a
62.3925	0.105	124785	keystroke_r	r	n/a
62.5425	0.075	125085	keystroke_i	i	n/a
62.6625	0.105	125325	keystroke_g	g	n/a
62.7225	0.1195	125445	keystroke_i	i	n/a
62.812	0.09	125624	keystroke_n	n	n/a
63.037	0.12	126074	keystroke_Key.enter	Key.enter	n/a
63.176	5.8925	126352	prompt	n/a	performs jessica threatened driving\n
63.7425	0.135	127485	keystroke_p	p	n/a
63.9975	0.09	127995	keystroke_e	e	n/a
64.0425	0.09	128085	keystroke_r	r	n/a
64.2675	0.06	128535	keystroke_f	f	n/a
64.3725	0.105	128745	keystroke_o	o	n/a
64.4775	0.09	128955	keystroke_r	r	n/a
64.5825	0.105	129165	keystroke_m	m	n/a
64.7025	0.12	129405	keystroke_s	s	n/a
64.9425	0.12	129885	keystroke_Key.space	Key.space	n/a
65.227	0.09	130454	keystroke_j	j	n/a
65.287	0.12	130574	keystroke_e	e	n/a
65.422	0.06	130844	keystroke_s	s	n/a
65.6015	0.075	131203	keystroke_s	s	n/a
65.7215	0.06	131443	keystroke_i	i	n/a
65.8115	0.12	131623	keystroke_c	c	n/a
65.8715	0.121	131743	keystroke_a	a	n/a
65.9615	0.12	131923	keystroke_Key.space	Key.space	n/a
66.307	0.105	132614	keystroke_t	t	n/a
66.427	0.105	132854	keystroke_h	h	n/a
66.5925	0.105	133185	keystroke_r	r	n/a
67.042	0.15	134084	keystroke_e	e	n/a
67.147	0.105	134294	keystroke_a	a	n/a
67.432	0.105	134864	keystroke_t	t	n/a
67.507	0.09	135014	keystroke_e	e	n/a
67.6115	0.09	135223	keystroke_n	n	n/a
67.7175	0.1345	135435	keystroke_e	e	n/a
67.777	0.135	135554	keystroke_d	d	n/a
67.897	0.12	135794	keystroke_Key.space	Key.space	n/a
68.047	0.0745	136094	keystroke_d	d	n/a
68.2265	0.075	136453	keystroke_r	r	n/a
68.3315	0.105	136663	keystroke_i	i	n/a
68.4515	0.075	136903	keystroke_v	v	n/a
68.5415	0.09	137083	keystroke_i	i	n/a
68.6015	0.12	137203	keystroke_n	n	n/a
68.6765	0.105	137353	keystroke_g	g	n/a
68.947	0.12	137894	keystroke_Key.enter	Key.enter	n/a
69.0745	3.609	138149	prompt	n/a	finally ward cups forge\n
69.697	0.105	139394	keystroke_f	f	n/a
69.787	0.03	139574	keystroke_i	i	n/a
69.847	0.105	139694	keystroke_n	n	n/a
69.922	0.105	139844	keystroke_a	a	n/a
70.042	0.06	140084	keystroke_l	l	n/a
70.177	0.09	140354	keystroke_l	l	n/a
70.282	0.075	140564	keystroke_y	y	n/a
70.372	0.105	140744	keystroke_Key.space	Key.space	n/a
70.492	0.165	140984	keystroke_w	w	n/a
70.537	0.135	141074	keystroke_a	a	n/a
70.642	0.061	141284	keystroke_r	r	n/a
70.807	0.105	141614	keystroke_d	d	n/a
70.897	0.105	141794	keystroke_Key.space	Key.space	n/a
71.362	0.105	142724	keystroke_c	c	n/a
71.452	0.09	142904	keystroke_u	u	n/a
71.647	0.09	143294	keystroke_p	p	n/a
71.782	0.06	143564	keystroke_s	s	n/a
71.827	0.105	143654	keystroke_Key.space	Key.space	n/a
71.962	0.105	143924	keystroke_f	f	n/a
72.052	0.075	144104	keystroke_o	o	n/a
72.142	0.09	144284	keystroke_r	r	n/a
72.3365	0.12	144673	keystroke_g	g	n/a
72.3815	0.105	144763	keystroke_e	e	n/a
72.5765	0.105	145153	keystroke_Key.enter	Key.enter	n/a
72.689	3.2495	145378	prompt	n/a	export dial yesterday adam\n
73.2965	0.06	146593	keystroke_e	e	n/a
73.4615	0.1055	146923	keystroke_x	x	n/a
73.537	0.105	147074	keystroke_p	p	n/a
73.612	0.105	147224	keystroke_o	o	n/a
73.702	0.12	147404	keystroke_r	r	n/a
73.792	0.0895	147584	keystroke_t	t	n/a
73.867	0.0745	147734	keystroke_Key.space	Key.space	n/a
74.0015	0.075	148003	keystroke_d	d	n/a
74.0465	0.09	148093	keystroke_i	i	n/a
74.1515	0.09	148303	keystroke_a	a	n/a
74.2115	0.105	148423	keystroke_l	l	n/a
74.2715	0.12	148543	keystroke_Key.space	Key.space	n/a
74.5715	0.075	149143	keystroke_y	y	n/a
74.6615	0.15	149323	keystroke_e	e	n/a
74.7215	0.105	149443	keystroke_s	s	n/a
74.7515	0.105	149503	keystroke_t	t	n/a
74.9015	0.12	149803	keystroke_e	e	n/a
74.9465	0.09	149893	keystroke_r	r	n/a
75.1265	0.105	150253	keystroke_d	d	n/a
75.1565	0.12	150313	keystroke_a	a	n/a
75.2015	0.105	150403	keystroke_y	y	n/a
75.2615	0.106	150523	keystroke_Key.space	Key.space	n/a
75.3975	0.09	150795	keystroke_a	a	n/a
75.4875	0.12	150975	keystroke_d	d	n/a
75.5625	0.105	151125	keystroke_a	a	n/a
75.6225	0.09	151245	keystroke_m	m	n/a
75.832	0.105	151664	keystroke_Key.enter	Key.enter	n/a
75.942	5.4115	151884	prompt	n/a	advances cheaper weddings holocaust\n
76.5825	0.12	153165	keystroke_a	a	n/a
76.6575	0.135	153315	keystroke_d	d	n/a
76.9415	0.09	153883	keystroke_v	v	n/a
77.0015	0.12	154003	keystroke_a	a	n/a
77.1515	0.105	154303	keystroke_n	n	n/a
77.2715	0.135	154543	keystroke_c	c	n/a
77.3165	0.166	154633	keystroke_e	e	n/a
77.3915	0.121	154783	keystroke_s	s	n/a
77.4975	0.135	154995	keystroke_Key.space	Key.space	n/a
77.7975	0.105	155595	keystroke_c	c	n/a
77.8875	0.105	155775	keystroke_h	h	n/a
78.0825	0.09	156165	keystroke_e	e	n/a
78.1125	0.105	156225	keystroke_a	a	n/a
78.2325	0.105	156465	keystroke_p	p	n/a
78.3075	0.15	156615	keystroke_e	e	n/a
78.3975	0.105	156795	keystroke_r	r	n/a
78.4875	0.09	156975	keystroke_Key.space	Key.space	n/a
78.6225	0.105	157245	keystroke_w	w	n/a
78.6675	0.105	157335	keystroke_e	e	n/a
78.9065	0.045	157813	keystroke_d	d	n/a
78.9965	0.105	157993	keystroke_d	d	n/a
79.0565	0.12	158113	keystroke_i	i	n/a
79.1465	0.105	158293	keystroke_n	n	n/a
79.2215	0.09	158443	keystroke_g	g	n/a
79.2665	0.12	158533	keystroke_s	s	n/a
79.3415	0.105	158683	keystroke_Key.space	Key.space	n/a
79.6865	0.075	159373	keystroke_h	h	n/a
79.9715	0.06	159943	keystroke_o	o	n/a
80.1365	0.075	160273	keystroke_l	l	n/a
80.2865	0.09	160573	keystroke_o	o	n/a
80.5715	0.1355	161143	keystroke_c	c	n/a
80.632	0.135	161264	keystroke_a	a	n/a
80.857	0.09	161714	keystroke_u	u	n/a
80.947	0.12	161894	keystroke_s	s	n/a
81.022	0.105	162044	keystroke_t	t	n/a
81.217	0.135	162434	keystroke_Key.enter	Key.enter	n/a
81.3585	5.065	162717	prompt	n/a	eternal michael honduras dawn\n
81.907	0.105	163814	keystroke_e	e	n/a
82.132	0.09	164264	keystroke_t	t	n/a
82.762	0.12	165524	keystroke_e	e	n/a
82.837	0.135	165674	keystroke_r	r	n/a
82.957	0.105	165914	keystroke_n	n	n/a
83.092	0.105	166184	keystroke_a	a	n/a
83.212	0.1045	166424	keystroke_l	l	n/a
83.2715	0.105	166543	keystroke_Key.space	Key.space	n/a
83.5115	0.1355	167023	keystroke_m	m	n/a
83.662	0.105	167324	keystroke_i	i	n/a
83.812	0.1495	167624	keystroke_c	c	n/a
83.9465	0.09	167893	keystroke_h	h	n/a
84.0665	0.105	168133	keystroke_a	a	n/a
84.1115	0.15	168223	keystroke_e	e	n/a
84.2465	0.09	168493	keystroke_l	l	n/a
84.2765	0.135	168553	keystroke_Key.space	Key.space	n/a
84.6515	0.09	169303	keystroke_h	h	n/a
84.8165	0.075	169633	keystroke_o	o	n/a
84.9515	0.105	169903	keystroke_n	n	n/a
85.0575	0.134	170115	keystroke_d	d	n/a
85.2215	0.075	170443	keystroke_u	u	n/a
85.3115	0.075	170623	keystroke_r	r	n/a
85.3565	0.15	170713	keystroke_a	a	n/a
85.4615	0.105	170923	keystroke_s	s	n/a
85.5215	0.135	171043	keystroke_Key.space	Key.space	n/a
85.6715	0.075	171343	keystroke_d	d	n/a
85.7315	0.15	171463	keystroke_a	a	n/a
85.8215	0.12	171643	keystroke_w	w	n/a
85.9115	0.09	171823	keystroke_n	n	n/a
86.3015	0.12	172603	keystroke_Key.enter	Key.enter	n/a
86.428	10.1505	172856	prompt	n/a	france solid exhaust optimization\n
87.0215	0.075	174043	keystroke_f	f	n/a
87.157	0.105	174314	keystroke_r	r	n/a
87.217	0.105	174434	keystroke_a	a	n/a
87.277	0.105	174554	keystroke_n	n	n/a
87.442	0.1205	174884	keystroke_e	e	n/a
87.5015	0.075	175003	keystroke_Key.space	Key.space	n/a
88.432	0.075	176864	keystroke_Key.backspace	Key.backspace	n/a
88.7615	0.09	177523	keystroke_Key.backspace	Key.backspace	n/a
88.9415	0.12	177883	keystroke_c	c	n/a
88.9865	0.165	177973	keystroke_e	e	n/a
89.1365	0.075	178273	keystroke_Key.space	Key.space	n/a
89.2415	0.105	178483	keystroke_s	s	n/a
89.3015	0.075	178603	keystroke_o	o	n/a
89.5715	0.09	179143	keystroke_i	i	n/a
89.6465	0.09	179293	keystroke_d	d	n/a
89.7965	0.0755	179593	keystroke_Key.space	Key.space	n/a
90.862	0.09	181724	keystroke_Key.backspace	Key.backspace	n/a
91.162	0.075	182324	keystroke_Key.backspace	Key.backspace	n/a
91.387	0.09	182774	keystroke_Key.backspace	Key.backspace	n/a
91.732	0.105	183464	keystroke_l	l	n/a
91.807	0.12	183614	keystroke_i	i	n/a
91.912	0.105	183824	keystroke_d	d	n/a
92.032	0.09	184064	keystroke_Key.space	Key.space	n/a
92.137	0.0755	184274	keystroke_e	e	n/a
92.3165	0.135	184633	keystroke_x	x	n/a
92.4675	0.12	184935	keystroke_h	h	n/a
93.4115	0.09	186823	keystroke_a	a	n/a
94.2965	0.09	188593	keystroke_u	u	n/a
94.4165	0.12	188833	keystroke_s	s	n/a
94.5065	0.12	189013	keystroke_t	t	n/a
94.5815	0.12	189163	keystroke_Key.space	Key.space	n/a
94.9415	0.12	189883	keystroke_o	o	n/a
95.0015	0.135	190003	keystroke_p	p	n/a
95.1665	0.105	190333	keystroke_t	t	n/a
95.3165	0.105	190633	keystroke_i	i	n/a
95.4815	0.12	190963	keystroke_m	m	n/a
95.5565	0.105	191113	keystroke_i	i	n/a
95.6765	0.06	191353	keystroke_z	z	n/a
95.8415	0.135	191683	keystroke_a	a	n/a
95.9465	0.1205	191893	keystroke_t	t	n/a
96.0065	0.0905	192013	keystroke_i	i	n/a
96.0515	0.0755	192103	keystroke_o	o	n/a
96.217	0.09	192434	keystroke_n	n	n/a
96.472	0.105	192944	keystroke_Key.enter	Key.enter	n/a
96.5825	10.766	193165	prompt	n/a	verzeichnis show granny bottles\n
97.5215	0.135	195043	keystroke_v	v	n/a
97.8065	0.105	195613	keystroke_e	e	n/a
97.9865	0.12	195973	keystroke_r	r	n/a
98.2865	0.12	196573	keystroke_z	z	n/a
98.7215	0.105	197443	keystroke_e	e	n/a
98.9465	0.105	197893	keystroke_i	i	n/a
99.2165	0.105	198433	keystroke_c	c	n/a
99.3665	0.105	198733	keystroke_h	h	n/a
100.882	0.105	201764	keystroke_n	n	n/a
101.152	0.105	202304	keystroke_i	i	n/a
101.272	0.075	202544	keystroke_s	s	n/a
101.362	0.09	202724	keystroke_Key.space	Key.space	n/a
101.512	0.105	203024	keystroke_s	s	n/a
101.602	0.09	203204	keystroke_h	h	n/a
101.722	0.105	203444	keystroke_o	o	n/a
101.812	0.105	203624	keystroke_w	w	n/a
101.887	0.105	203774	keystroke_Key.space	Key.space	n/a
102.157	0.06	204314	keystroke_g	g	n/a
102.307	0.1045	204614	keystroke_r	r	n/a
102.3665	0.091	204733	keystroke_a	a	n/a
102.4415	0.061	204883	keystroke_n	n	n/a
102.5765	0.09	205153	keystroke_n	n	n/a
102.6215	0.105	205243	keystroke_y	y	n/a
102.7115	0.105	205423	keystroke_Key.space	Key.space	n/a
102.8315	0.075	205663	keystroke_b	b	n/a
102.9515	0.09	205903	keystroke_i	i	n/a
103.0575	0.06	206115	keystroke_t	t	n/a
103.7315	0.075	207463	keystroke_Key.backspace	Key.backspace	n/a
103.8815	0.105	207763	keystroke_Key.backspace	Key.backspace	n/a
104.1225	0.06	208245	keystroke_o	o	n/a
104.1975	0.075	208395	keystroke_t	t	n/a
104.3625	0.09	208725	keystroke_t	t	n/a
104.5725	0.135	209145	keystroke_e	e	n/a
104.6475	0.075	209295	keystroke_s	s	n/a
105.6665	0.09	211333	keystroke_Key.backspace	Key.backspace	n/a
105.937	0.105	211874	keystroke_Key.backspace	Key.backspace	n/a
106.837	0.075	213674	keystroke_l	l	n/a
106.972	0.135	213944	keystroke_e	e	n/a
107.017	0.165	214034	keystroke_s	s	n/a
107.227	0.12	214454	keystroke_Key.enter	Key.enter	n/a
107.3525	5.006	214705	prompt	n/a	tucson knock stand martial\n
108.0665	0.0905	216133	keystroke_t	t	n/a
108.172	0.12	216344	keystroke_u	u	n/a
108.307	0.09	216614	keystroke_c	c	n/a
108.457	0.105	216914	keystroke_s	s	n/a
108.532	0.075	217064	keystroke_o	o	n/a
108.667	0.09	217334	keystroke_n	n	n/a
108.727	0.105	217454	keystroke_Key.space	Key.space	n/a
108.847	0.1205	217694	keystroke_k	k	n/a
108.952	0.0905	217904	keystroke_n	n	n/a
109.0875	0.075	218175	keystroke_o	o	n/a
109.1775	0.09	218355	keystroke_c	c	n/a
109.2525	0.09	218505	keystroke_k	k	n/a
109.3115	0.105	218623	keystroke_Key.space	Key.space	n/a
109.3875	0.12	218775	keystroke_s	s	n/a
109.5375	0.105	219075	keystroke_t	t	n/a
109.5975	0.105	219195	keystroke_a	a	n/a
109.6725	0.09	219345	keystroke_n	n	n/a
109.7775	0.075	219555	keystroke_d	d	n/a
109.8215	0.09	219643	keystroke_Key.space	Key.space	n/a
109.9425	0.135	219885	keystroke_m	m	n/a
110.0325	0.12	220065	keystroke_a	a	n/a
110.1225	0.06	220245	keystroke_t	t	n/a
111.217	0.12	222434	keystroke_Key.backspace	Key.backspace	n/a
111.502	0.09	223004	keystroke_r	r	n/a
111.757	0.03	223514	keystroke_t	t	n/a
111.772	0.1045	223544	keystroke_i	i	n/a
111.862	0.1345	223724	keystroke_a	a	n/a
111.9515	0.105	223903	keystroke_l	l	n/a
112.252	0.105	224504	keystroke_Key.enter	Key.enter	n/a
112.362	6.611	224724	prompt	n/a	patent compromise saved encountered\n
113.092	0.105	226184	keystroke_p	p	n/a
113.152	0.105	226304	keystroke_a	a	n/a
113.242	0.15	226484	keystroke_t	t	n/a
113.377	0.105	226754	keystroke_e	e	n/a
114.127	0.105	228254	keystroke_n	n	n/a
114.217	0.105	228434	keystroke_t	t	n/a
114.337	0.12	228674	keystroke_Key.space	Key.space	n/a
114.547	0.12	229094	keystroke_c	c	n/a
114.862	0.06	229724	keystroke_o	o	n/a
114.952	0.105	229904	keystroke_m	m	n/a
115.132	0.105	230264	keystroke_p	p	n/a
115.327	0.09	230654	keystroke_r	r	n/a
115.462	0.09	230924	keystroke_o	o	n/a
115.642	0.105	231284	keystroke_m	m	n/a
115.687	0.12	231374	keystroke_i	i	n/a
115.777	0.12	231554	keystroke_s	s	n/a
115.852	0.105	231704	keystroke_e	e	n/a
115.912	0.135	231824	keystroke_Key.space	Key.space	n/a
116.092	0.1195	232184	keystroke_s	s	n/a
116.1515	0.105	232303	keystroke_a	a	n/a
116.3015	0.09	232603	keystroke_v	v	n/a
116.4665	0.1355	232933	keystroke_e	e	n/a
116.5265	0.135	233053	keystroke_d	d	n/a
116.6465	0.105	233293	keystroke_Key.space	Key.space	n/a
116.7965	0.106	233593	keystroke_e	e	n/a
116.9175	0.09	233835	keystroke_n	n	n/a
117.0225	0.12	234045	keystroke_c	c	n/a
117.1575	0.135	234315	keystroke_o	o	n/a
117.2475	0.105	234495	keystroke_u	u	n/a
117.8475	0.09	235695	keystroke_n	n	n/a
117.9975	0.075	235995	keystroke_t	t	n/a
118.1625	0.12	236325	keystroke_e	e	n/a
118.2675	0.119	236535	keystroke_r	r	n/a
118.3715	0.166	236743	keystroke_e	e	n/a
118.4925	0.12	236985	keystroke_d	d	n/a
118.8065	0.165	237613	keystroke_Key.enter	Key.enter	n/a
118.9765	4.362	237953	prompt	n/a	read fell cooking contemporary\n
119.512	0.09	239024	keystroke_r	r	n/a
119.677	0.09	239354	keystroke_e	e	n/a
119.737	0.165	239474	keystroke_a	a	n/a
119.857	0.105	239714	keystroke_d	d	n/a
119.932	0.09	239864	keystroke_Key.space	Key.space	n/a
120.037	0.1195	240074	keystroke_f	f	n/a
120.097	0.1345	240194	keystroke_e	e	n/a
120.1715	0.075	240343	keystroke_l	l	n/a
120.2915	0.135	240583	keystroke_l	l	n/a
120.4115	0.075	240823	keystroke_Key.space	Key.space	n/a
120.5465	0.135	241093	keystroke_c	c	n/a
120.6665	0.06	241333	keystroke_o	o	n/a
120.8015	0.09	241603	keystroke_o	o	n/a
120.8465	0.12	241693	keystroke_k	k	n/a
121.0115	0.09	242023	keystroke_i	i	n/a
121.0715	0.135	242143	keystroke_n	n	n/a
121.1615	0.075	242323	keystroke_g	g	n/a
121.2365	0.105	242473	keystroke_Key.space	Key.space	n/a
121.4015	0.0755	242803	keystroke_c	c	n/a
121.477	0.0895	242954	keystroke_o	o	n/a
121.6115	0.105	243223	keystroke_n	n	n/a
121.7315	0.135	243463	keystroke_t	t	n/a
121.8065	0.12	243613	keystroke_e	e	n/a
121.8815	0.075	243763	keystroke_m	m	n/a
122.0465	0.09	244093	keystroke_p	p	n/a
122.1215	0.105	244243	keystroke_o	o	n/a
122.1665	0.075	244333	keystroke_r	r	n/a
122.2415	0.1505	244483	keystroke_a	a	n/a
122.3315	0.09	244663	keystroke_r	r	n/a
122.4365	0.09	244873	keystroke_y	y	n/a
122.4815	0.1055	244963	keystroke_Key.space	Key.space	n/a
123.202	0.135	246404	keystroke_Key.enter	Key.enter	n/a
123.343	4.1055	246686	prompt	n/a	provider mechanics tube rats\n
123.952	0.12	247904	keystroke_p	p	n/a
124.087	0.09	248174	keystroke_r	r	n/a
124.192	0.105	248384	keystroke_o	o	n/a
124.312	0.09	248624	keystroke_v	v	n/a
124.432	0.105	248864	keystroke_i	i	n/a
124.522	0.12	249044	keystroke_d	d	n/a
124.627	0.15	249254	keystroke_e	e	n/a
124.732	0.105	249464	keystroke_r	r	n/a
124.792	0.075	249584	keystroke_Key.space	Key.space	n/a
124.957	0.12	249914	keystroke_m	m	n/a
125.032	0.075	250064	keystroke_e	e	n/a
125.212	0.12	250424	keystroke_c	c	n/a
125.332	0.105	250664	keystroke_h	h	n/a
125.5415	0.09	251083	keystroke_a	a	n/a
125.6465	0.105	251293	keystroke_n	n	n/a
125.6915	0.135	251383	keystroke_i	i	n/a
125.7525	0.089	251505	keystroke_c	c	n/a
125.7815	0.135	251563	keystroke_s	s	n/a
125.9315	0.12	251863	keystroke_Key.space	Key.space	n/a
126.157	0.09	252314	keystroke_t	t	n/a
126.262	0.105	252524	keystroke_u	u	n/a
126.412	0.105	252824	keystroke_b	b	n/a
126.487	0.105	252974	keystroke_e	e	n/a
126.637	0.135	253274	keystroke_Key.space	Key.space	n/a
126.832	0.12	253664	keystroke_r	r	n/a
126.922	0.105	253844	keystroke_a	a	n/a
127.057	0.1505	254114	keystroke_t	t	n/a
127.1475	0.12	254295	keystroke_s	s	n/a
127.297	0.15	254594	keystroke_Key.enter	Key.enter	n/a
127.452	5.6965	254904	prompt	n/a	morocco roof early unions\n
128.182	0.105	256364	keystroke_m	m	n/a
128.467	0.09	256934	keystroke_o	o	n/a
128.602	0.09	257204	keystroke_r	r	n/a
128.797	0.09	257594	keystroke_o	o	n/a
129.007	0.075	258014	keystroke_c	c	n/a
129.277	0.105	258554	keystroke_c	c	n/a
129.397	0.12	258794	keystroke_o	o	n/a
129.502	0.1345	259004	keystroke_Key.space	Key.space	n/a
129.7115	0.0905	259423	keystroke_r	r	n/a
129.8165	0.075	259633	keystroke_o	o	n/a
129.9815	0.105	259963	keystroke_o	o	n/a
130.0715	0.105	260143	keystroke_f	f	n/a
130.1915	0.09	260383	keystroke_Key.space	Key.space	n/a
130.3115	0.06	260623	keystroke_r	r	n/a
131.422	0.135	262844	keystroke_Key.backspace	Key.backspace	n/a
131.662	0.0905	263324	keystroke_e	e	n/a
131.7075	0.15	263415	keystroke_a	a	n/a
131.8425	0.075	263685	keystroke_r	r	n/a
131.9025	0.09	263805	keystroke_l	l	n/a
132.0225	0.075	264045	keystroke_y	y	n/a
132.0975	0.089	264195	keystroke_Key.space	Key.space	n/a
132.2315	0.0905	264463	keystroke_u	u	n/a
132.382	0.09	264764	keystroke_n	n	n/a
132.592	0.105	265184	keystroke_i	i	n/a
132.637	0.075	265274	keystroke_o	o	n/a
132.802	0.09	265604	keystroke_n	n	n/a
132.877	0.105	265754	keystroke_s	s	n/a
133.027	0.12	266054	keystroke_Key.enter	Key.enter	n/a
133.1525	6.011	266305	prompt	n/a	crafts const fighting complications\n
134.362	0.12	268724	keystroke_c	c	n/a
134.632	0.09	269264	keystroke_r	r	n/a
134.692	0.135	269384	keystroke_a	a	n/a
134.812	0.09	269624	keystroke_f	f	n/a
135.022	0.105	270044	keystroke_t	t	n/a
135.052	0.135	270104	keystroke_s	s	n/a
135.157	0.12	270314	keystroke_Key.space	Key.space	n/a
135.4115	0.03	270823	keystroke_c	c	n/a
135.4265	0.09	270853	keystroke_o	o	n/a
136.147	0.075	272294	keystroke_n	n	n/a
136.267	0.105	272534	keystroke_s	s	n/a
136.357	0.1195	272714	keystroke_t	t	n/a
136.4615	0.09	272923	keystroke_Key.space	Key.space	n/a
136.6115	0.09	273223	keystroke_f	f	n/a
136.7165	0.105	273433	keystroke_i	i	n/a
136.8365	0.075	273673	keystroke_g	g	n/a
136.9265	0.105	273853	keystroke_h	h	n/a
137.0015	0.09	274003	keystroke_t	t	n/a
137.0765	0.12	274153	keystroke_i	i	n/a
137.1665	0.135	274333	keystroke_n	n	n/a
137.2415	0.09	274483	keystroke_g	g	n/a
137.3465	0.12	274693	keystroke_Key.space	Key.space	n/a
137.6765	0.1055	275353	keystroke_c	c	n/a
137.752	0.09	275504	keystroke_o	o	n/a
137.842	0.105	275684	keystroke_m	m	n/a
138.007	0.105	276014	keystroke_p	p	n/a
138.067	0.0895	276134	keystroke_l	l	n/a
138.2615	0.075	276523	keystroke_i	i	n/a
138.3215	0.12	276643	keystroke_c	c	n/a
138.3665	0.12	276733	keystroke_a	a	n/a
138.5615	0.09	277123	keystroke_t	t	n/a
138.6365	0.09	277273	keystroke_i	i	n/a
138.6815	0.06	277363	keystroke_o	o	n/a
138.8165	0.09	277633	keystroke_n	n	n/a
138.8765	0.09	277753	keystroke_s	s	n/a
139.0715	0.0905	278143	keystroke_Key.enter	Key.enter	n/a
139.171	5.377	278342	prompt	n/a	justice barry instructions belize\n
139.7615	0.15	279523	keystroke_j	j	n/a
139.8665	0.121	279733	keystroke_u	u	n/a
139.9415	0.105	279883	keystroke_s	s	n/a
140.0015	0.075	280003	keystroke_t	t	n/a
140.0915	0.0905	280183	keystroke_i	i	n/a
140.212	0.165	280424	keystroke_c	c	n/a
140.287	0.135	280574	keystroke_e	e	n/a
140.392	0.06	280784	keystroke_Key.space	Key.space	n/a
140.512	0.12	281024	keystroke_b	b	n/a
140.587	0.105	281174	keystroke_a	a	n/a
140.647	0.075	281294	keystroke_r	r	n/a
140.782	0.12	281564	keystroke_r	r	n/a
140.857	0.09	281714	keystroke_y	y	n/a
140.902	0.105	281804	keystroke_Key.space	Key.space	n/a
141.157	0.0895	282314	keystroke_i	i	n/a
141.2765	0.135	282553	keystroke_n	n	n/a
141.3965	0.105	282793	keystroke_s	s	n/a
141.4865	0.12	282973	keystroke_t	t	n/a
141.5765	0.075	283153	keystroke_r	r	n/a
141.6215	0.06	283243	keystroke_u	u	n/a
141.7415	0.09	283483	keystroke_c	c	n/a
141.967	0.075	283934	keystroke_t	t	n/a
142.012	0.12	284024	keystroke_i	i	n/a
142.072	0.075	284144	keystroke_o	o	n/a
142.207	0.105	284414	keystroke_n	n	n/a
142.282	0.09	284564	keystroke_s	s	n/a
142.357	0.075	284714	keystroke_Key.space	Key.space	n/a
142.507	0.09	285014	keystroke_b	b	n/a
142.597	0.09	285194	keystroke_e	e	n/a
143.707	0.12	287414	keystroke_l	l	n/a
143.842	0.12	287684	keystroke_i	i	n/a
143.917	0.15	287834	keystroke_z	z	n/a
144.007	0.075	288014	keystroke_e	e	n/a
144.397	0.15	288794	keystroke_Key.enter	Key.enter	n/a
144.5525	3.761	289105	prompt	n/a	their keyboard emerging an\n
145.327	0.075	290654	keystroke_t	t	n/a
145.357	0.09	290714	keystroke_h	h	n/a
145.477	0.09	290954	keystroke_e	e	n/a
145.537	0.09	291074	keystroke_i	i	n/a
145.627	0.12	291254	keystroke_r	r	n/a
145.687	0.09	291374	keystroke_Key.space	Key.space	n/a
145.792	0.105	291584	keystroke_k	k	n/a
145.882	0.1345	291764	keystroke_e	e	n/a
145.9565	0.075	291913	keystroke_y	y	n/a
146.0015	0.075	292003	keystroke_b	b	n/a
146.1365	0.105	292273	keystroke_o	o	n/a
146.1965	0.135	292393	keystroke_a	a	n/a
146.2575	0.104	292515	keystroke_r	r	n/a
146.5115	0.12	293023	keystroke_d	d	n/a
146.6465	0.12	293293	keystroke_Key.space	Key.space	n/a
146.8265	0.075	293653	keystroke_e	e	n/a
146.9025	0.119	293805	keystroke_m	m	n/a
147.0365	0.075	294073	keystroke_e	e	n/a
147.0515	0.105	294103	keystroke_r	r	n/a
147.2315	0.09	294463	keystroke_g	g	n/a
147.2915	0.091	294583	keystroke_i	i	n/a
147.3515	0.165	294703	keystroke_n	n	n/a
147.4415	0.09	294883	keystroke_g	g	n/a
147.5615	0.105	295123	keystroke_Key.space	Key.space	n/a
147.6815	0.105	295363	keystroke_a	a	n/a
147.7715	0.076	295543	keystroke_n	n	n/a
148.1315	0.1805	296263	keystroke_Key.enter	Key.enter	n/a
148.317	5.306	296634	prompt	n/a	country initiative revealed nursing\n
149.0765	0.045	298153	keystroke_c	c	n/a
149.1065	0.09	298213	keystroke_o	o	n/a
149.2565	0.075	298513	keystroke_u	u	n/a
149.4065	0.105	298813	keystroke_n	n	n/a
149.4515	0.105	298903	keystroke_t	t	n/a
149.5715	0.1055	299143	keystroke_r	r	n/a
149.6165	0.1205	299233	keystroke_y	y	n/a
149.707	0.105	299414	keystroke_Key.space	Key.space	n/a
149.857	0.09	299714	keystroke_i	i	n/a
150.007	0.09	300014	keystroke_n	n	n/a
150.2165	0.09	300433	keystroke_i	i	n/a
150.3365	0.09	300673	keystroke_t	t	n/a
150.4565	0.075	300913	keystroke_i	i	n/a
151.2665	0.105	302533	keystroke_a	a	n/a
151.3565	0.0905	302713	keystroke_t	t	n/a
151.462	0.105	302924	keystroke_i	i	n/a
151.582	0.105	303164	keystroke_v	v	n/a
151.627	0.135	303254	keystroke_e	e	n/a
151.702	0.12	303404	keystroke_Key.space	Key.space	n/a
151.882	0.105	303764	keystroke_r	r	n/a
151.957	0.105	303914	keystroke_e	e	n/a
152.152	0.075	304304	keystroke_v	v	n/a
152.347	0.09	304694	keystroke_e	e	n/a
152.377	0.12	304754	keystroke_a	a	n/a
152.512	0.0895	305024	keystroke_l	l	n/a
152.572	0.1345	305144	keystroke_e	e	n/a
152.6315	0.1205	305263	keystroke_d	d	n/a
152.7215	0.0605	305443	keystroke_Key.space	Key.space	n/a
152.827	0.15	305654	keystroke_n	n	n/a
152.902	0.09	305804	keystroke_u	u	n/a
152.947	0.09	305894	keystroke_r	r	n/a
153.067	0.105	306134	keystroke_s	s	n/a
153.142	0.105	306284	keystroke_i	i	n/a
153.217	0.105	306434	keystroke_n	n	n/a
153.292	0.09	306584	keystroke_g	g	n/a
153.502	0.12	307004	keystroke_Key.enter	Key.enter	n/a
153.6275	6.8055	307255	prompt	n/a	refinance drawings disability evaluations\n
154.3415	0.12	308683	keystroke_r	r	n/a
154.4165	0.09	308833	keystroke_e	e	n/a
154.7765	0.09	309553	keystroke_f	f	n/a
154.8965	0.09	309793	keystroke_i	i	n/a
155.0915	0.09	310183	keystroke_n	n	n/a
155.1965	0.105	310393	keystroke_a	a	n/a
155.4065	0.105	310813	keystroke_n	n	n/a
155.4965	0.09	310993	keystroke_c	c	n/a
155.5265	0.15	311053	keystroke_e	e	n/a
155.6315	0.15	311263	keystroke_Key.space	Key.space	n/a
156.067	0.1195	312134	keystroke_d	d	n/a
156.2765	0.075	312553	keystroke_r	r	n/a
156.3215	0.135	312643	keystroke_a	a	n/a
156.412	0.12	312824	keystroke_w	w	n/a
156.5165	0.12	313033	keystroke_i	i	n/a
156.5915	0.1355	313183	keystroke_n	n	n/a
156.667	0.105	313334	keystroke_g	g	n/a
156.712	0.105	313424	keystroke_s	s	n/a
156.802	0.135	313604	keystroke_Key.space	Key.space	n/a
157.027	0.105	314054	keystroke_d	d	n/a
157.132	0.09	314264	keystroke_i	i	n/a
157.237	0.09	314474	keystroke_s	s	n/a
157.402	0.075	314804	keystroke_a	a	n/a
157.552	0.105	315104	keystroke_b	b	n/a
158.002	0.105	316004	keystroke_i	i	n/a
158.092	0.1195	316184	keystroke_l	l	n/a
158.1815	0.135	316363	keystroke_i	i	n/a
158.2415	0.076	316483	keystroke_t	t	n/a
158.3765	0.105	316753	keystroke_y	y	n/a
158.4365	0.12	316873	keystroke_Key.space	Key.space	n/a
158.5715	0.09	317143	keystroke_e	e	n/a
158.7365	0.105	317473	keystroke_v	v	n/a
158.8115	0.105	317623	keystroke_a	a	n/a
159.1265	0.09	318253	keystroke_l	l	n/a
159.607	0.1045	319214	keystroke_u	u	n/a
159.7265	0.075	319453	keystroke_a	a	n/a
159.7565	0.105	319513	keystroke_t	t	n/a
159.8315	0.12	319663	keystroke_i	i	n/a
159.9075	0.059	319815	keystroke_o	o	n/a
160.0415	0.105	320083	keystroke_n	n	n/a
160.1015	0.105	320203	keystroke_s	s	n/a
160.3265	0.105	320653	keystroke_Key.enter	Key.enter	n/a
160.4375	6.0115	320875	prompt	n/a	blessed lost alert progressive\n
161.077	0.09	322154	keystroke_b	b	n/a
161.197	0.105	322394	keystroke_l	l	n/a
161.272	0.105	322544	keystroke_e	e	n/a
161.317	0.09	322634	keystroke_s	s	n/a
161.467	0.135	322934	keystroke_s	s	n/a
161.557	0.12	323114	keystroke_e	e	n/a
161.617	0.12	323234	keystroke_d	d	n/a
161.692	0.105	323384	keystroke_Key.space	Key.space	n/a
161.842	0.09	323684	keystroke_l	l	n/a
162.022	0.075	324044	keystroke_o	o	n/a
162.067	0.09	324134	keystroke_s	s	n/a
162.112	0.105	324224	keystroke_t	t	n/a
162.172	0.12	324344	keystroke_Key.space	Key.space	n/a
162.292	0.105	324584	keystroke_a	a	n/a
162.412	0.09	324824	keystroke_l	l	n/a
162.592	0.12	325184	keystroke_e	e	n/a
162.652	0.105	325304	keystroke_r	r	n/a
162.847	0.105	325694	keystroke_t	t	n/a
162.952	0.075	325904	keystroke_Key.space	Key.space	n/a
163.387	0.075	326774	keystroke_p	p	n/a
163.492	0.105	326984	keystroke_r	r	n/a
163.582	0.0745	327164	keystroke_o	o	n/a
163.6715	0.09	327343	keystroke_g	g	n/a
163.8665	0.15	327733	keystroke_r	r	n/a
163.9115	0.12	327823	keystroke_e	e	n/a
163.9715	0.075	327943	keystroke_s	s	n/a
164.1065	0.12	328213	keystroke_s	s	n/a
164.2115	0.075	328423	keystroke_i	i	n/a
164.3165	0.105	328633	keystroke_v	v	n/a
164.3615	0.15	328723	keystroke_e	e	n/a
164.6615	0.0905	329323	keystroke_'	'	n/a
165.7115	0.12	331423	keystroke_Key.backspace	Key.backspace	n/a
166.342	0.1045	332684	keystroke_Key.enter	Key.enter	n/a
166.453	4.06	332906	prompt	n/a	instructions face enemy acrobat\n
167.1515	0.09	334303	keystroke_i	i	n/a
167.3015	0.12	334603	keystroke_n	n	n/a
167.3615	0.09	334723	keystroke_s	s	n/a
167.4065	0.105	334813	keystroke_t	t	n/a
167.4665	0.105	334933	keystroke_r	r	n/a
167.5565	0.09	335113	keystroke_u	u	n/a
167.6915	0.075	335383	keystroke_c	c	n/a
167.9015	0.03	335803	keystroke_t	t	n/a
167.9165	0.075	335833	keystroke_i	i	n/a
167.9615	0.06	335923	keystroke_o	o	n/a
168.0665	0.105	336133	keystroke_n	n	n/a
168.1265	0.09	336253	keystroke_s	s	n/a
168.2315	0.105	336463	keystroke_Key.space	Key.space	n/a
168.3065	0.105	336613	keystroke_f	f	n/a
168.3815	0.075	336763	keystroke_a	a	n/a
168.5015	0.15	337003	keystroke_c	c	n/a
168.5765	0.135	337153	keystroke_e	e	n/a
168.6965	0.06	337393	keystroke_Key.space	Key.space	n/a
168.8015	0.105	337603	keystroke_e	e	n/a
168.8615	0.075	337723	keystroke_n	n	n/a
168.9515	0.09	337903	keystroke_e	e	n/a
169.0415	0.1055	338083	keystroke_m	m	n/a
169.372	0.03	338744	keystroke_y	y	n/a
169.387	0.03	338774	keystroke_Key.space	Key.space	n/a
169.432	0.045	338864	keystroke_a	a	n/a
169.447	0.12	338894	keystroke_c	c	n/a
169.672	0.0745	339344	keystroke_r	r	n/a
169.7615	0.105	339523	keystroke_o	o	n/a
169.9265	0.0745	339853	keystroke_b	b	n/a
170.0915	0.12	340183	keystroke_a	a	n/a
170.1815	0.09	340363	keystroke_t	t	n/a
170.361	0.15	340722	keystroke_Key.enter	Key.enter	n/a
170.516	4.1675	341032	prompt	n/a	karaoke cross organic route\n
171.0965	0.1345	342193	keystroke_k	k	n/a
171.246	0.09	342492	keystroke_a	a	n/a
171.4115	0.105	342823	keystroke_r	r	n/a
171.6365	0.105	343273	keystroke_a	a	n/a
171.787	0.12	343574	keystroke_o	o	n/a
171.877	0.15	343754	keystroke_k	k	n/a
171.982	0.105	343964	keystroke_e	e	n/a
172.056	0.135	344112	keystroke_Key.space	Key.space	n/a
172.236	0.106	344472	keystroke_c	c	n/a
172.417	0.075	344834	keystroke_r	r	n/a
172.507	0.089	345014	keystroke_o	o	n/a
172.582	0.075	345164	keystroke_s	s	n/a
172.747	0.075	345494	keystroke_s	s	n/a
172.791	0.075	345582	keystroke_Key.space	Key.space	n/a
172.957	0.09	345914	keystroke_o	o	n/a
173.107	0.1045	346214	keystroke_r	r	n/a
173.3465	0.15	346693	keystroke_g	g	n/a
173.4215	0.135	346843	keystroke_a	a	n/a
173.5115	0.09	347023	keystroke_n	n	n/a
173.5715	0.06	347143	keystroke_i	i	n/a
173.6915	0.12	347383	keystroke_c	c	n/a
173.7815	0.12	347563	keystroke_Key.space	Key.space	n/a
174.0365	0.06	348073	keystroke_r	r	n/a
174.0815	0.1205	348163	keystroke_o	o	n/a
174.157	0.12	348314	keystroke_u	u	n/a
174.232	0.12	348464	keystroke_t	t	n/a
174.307	0.15	348614	keystroke_e	e	n/a
174.532	0.15	349064	keystroke_Key.enter	Key.enter	n/a
174.688	4.315	349376	prompt	n/a	biggest servers gloves optics\n
175.4015	0.09	350803	keystroke_b	b	n/a
175.4615	0.105	350923	keystroke_i	i	n/a
175.5815	0.06	351163	keystroke_g	g	n/a
175.7315	0.09	351463	keystroke_g	g	n/a
175.8365	0.1505	351673	keystroke_e	e	n/a
175.8515	0.1205	351703	keystroke_s	s	n/a
175.9115	0.1355	351823	keystroke_t	t	n/a
176.031	0.105	352062	keystroke_Key.space	Key.space	n/a
176.1815	0.15	352363	keystroke_s	s	n/a
176.2565	0.135	352513	keystroke_e	e	n/a
176.3165	0.105	352633	keystroke_r	r	n/a
176.511	0.1055	353022	keystroke_v	v	n/a
176.6615	0.135	353323	keystroke_e	e	n/a
176.7515	0.135	353503	keystroke_r	r	n/a
176.8115	0.1345	353623	keystroke_s	s	n/a
176.9315	0.105	353863	keystroke_Key.space	Key.space	n/a
177.2165	0.12	354433	keystroke_g	g	n/a
177.3215	0.075	354643	keystroke_l	l	n/a
177.7865	0.09	355573	keystroke_o	o	n/a
177.8615	0.135	355723	keystroke_v	v	n/a
177.9365	0.135	355873	keystroke_e	e	n/a
177.9815	0.105	355963	keystroke_s	s	n/a
178.0565	0.075	356113	keystroke_Key.space	Key.space	n/a
178.192	0.15	356384	keystroke_o	o	n/a
178.267	0.105	356534	keystroke_p	p	n/a
178.357	0.09	356714	keystroke_t	t	n/a
178.462	0.135	356924	keystroke_i	i	n/a
178.612	0.135	357224	keystroke_c	c	n/a
178.672	0.105	357344	keystroke_s	s	n/a
178.852	0.15	357704	keystroke_Key.enter	Key.enter	n/a
179.006	5.4875	358012	prompt	n/a	custody translations sale molecules\n
179.7365	0.1055	359473	keystroke_c	c	n/a
179.887	0.12	359774	keystroke_u	u	n/a
180.307	0.075	360614	keystroke_s	s	n/a
180.577	0.075	361154	keystroke_t	t	n/a
180.727	0.105	361454	keystroke_o	o	n/a
180.817	0.09	361634	keystroke_d	d	n/a
180.847	0.135	361694	keystroke_y	y	n/a
180.967	0.12	361934	keystroke_Key.space	Key.space	n/a
181.192	0.075	362384	keystroke_t	t	n/a
181.357	0.12	362714	keystroke_r	r	n/a
181.417	0.135	362834	keystroke_a	a	n/a
181.567	0.09	363134	keystroke_n	n	n/a
181.702	0.105	363404	keystroke_s	s	n/a
181.867	0.105	363734	keystroke_l	l	n/a
181.957	0.12	363914	keystroke_a	a	n/a
182.062	0.075	364124	keystroke_t	t	n/a
182.152	0.105	364304	keystroke_i	i	n/a
182.211	0.091	364422	keystroke_o	o	n/a
182.422	0.075	364844	keystroke_n	n	n/a
182.467	0.089	364934	keystroke_s	s	n/a
182.571	0.09	365142	keystroke_Key.space	Key.space	n/a
182.676	0.12	365352	keystroke_s	s	n/a
182.737	0.089	365474	keystroke_a	a	n/a
182.841	0.1055	365682	keystroke_l	l	n/a
182.9615	0.1055	365923	keystroke_e	e	n/a
183.052	0.105	366104	keystroke_Key.space	Key.space	n/a
183.3065	0.105	366613	keystroke_m	m	n/a
183.4265	0.075	366853	keystroke_o	o	n/a
183.5915	0.105	367183	keystroke_l	l	n/a
183.6665	0.105	367333	keystroke_e	e	n/a
183.8915	0.12	367783	keystroke_c	c	n/a
183.9815	0.105	367963	keystroke_u	u	n/a
184.0415	0.105	368083	keystroke_l	l	n/a
184.1165	0.135	368233	keystroke_e	e	n/a
184.1915	0.105	368383	keystroke_s	s	n/a
184.4165	0.075	368833	keystroke_Key.enter	Key.enter	n/a
184.4965	6.5065	368993	prompt	n/a	asbestos monitor advantage triangle\n
185.272	0.09	370544	keystroke_a	a	n/a
185.437	0.135	370874	keystroke_s	s	n/a
185.587	0.12	371174	keystroke_b	b	n/a
185.722	0.165	371444	keystroke_e	e	n/a
185.812	0.105	371624	keystroke_s	s	n/a
185.902	0.105	371804	keystroke_t	t	n/a
186.262	0.12	372524	keystroke_o	o	n/a
186.307	0.15	372614	keystroke_s	s	n/a
186.472	0.0145	372944	keystroke_Key.space	Key.space	n/a
186.5915	0.15	373183	keystroke_m	m	n/a
187.0865	0.09	374173	keystroke_o	o	n/a
187.2965	0.105	374593	keystroke_n	n	n/a
187.5215	0.09	375043	keystroke_i	i	n/a
187.7315	0.09	375463	keystroke_t	t	n/a
187.8665	0.075	375733	keystroke_o	o	n/a
187.9565	0.09	375913	keystroke_r	r	n/a
188.0615	0.09	376123	keystroke_Key.space	Key.space	n/a
188.1365	0.135	376273	keystroke_a	a	n/a
188.2265	0.105	376453	keystroke_d	d	n/a
188.4665	0.12	376933	keystroke_v	v	n/a
188.5265	0.12	377053	keystroke_a	a	n/a
188.6615	0.09	377323	keystroke_n	n	n/a
188.8865	0.105	377773	keystroke_t	t	n/a
188.9615	0.09	377923	keystroke_a	a	n/a
189.0965	0.12	378193	keystroke_g	g	n/a
189.1565	0.135	378313	keystroke_e	e	n/a
189.2765	0.105	378553	keystroke_Key.space	Key.space	n/a
189.621	0.09	379242	keystroke_t	t	n/a
189.801	0.105	379602	keystroke_r	r	n/a
189.921	0.105	379842	keystroke_i	i	n/a
190.012	0.09	380024	keystroke_a	a	n/a
190.116	0.091	380232	keystroke_n	n	n/a
190.221	0.09	380442	keystroke_g	g	n/a
190.296	0.09	380592	keystroke_l	l	n/a
190.431	0.105	380862	keystroke_e	e	n/a
190.896	0.105	381792	keystroke_Key.enter	Key.enter	n/a
191.008	10.105	382016	prompt	n/a	miracle meta nominated peers\n
191.707	0.134	383414	keystroke_m	m	n/a
191.811	0.12	383622	keystroke_i	i	n/a
191.871	0.09	383742	keystroke_r	r	n/a
191.947	0.089	383894	keystroke_a	a	n/a
192.066	0.045	384132	keystroke_a	a	n/a
192.081	0.105	384162	keystroke_c	c	n/a
192.141	0.09	384282	keystroke_l	l	n/a
192.261	0.1055	384522	keystroke_e	e	n/a
192.3215	0.09	384643	keystroke_Key.space	Key.space	n/a
192.3965	0.12	384793	keystroke_m	m	n/a
192.4715	0.09	384943	keystroke_e	e	n/a
192.5465	0.15	385093	keystroke_t	t	n/a
192.6215	0.135	385243	keystroke_a	a	n/a
192.7265	0.075	385453	keystroke_Key.space	Key.space	n/a
194.287	0.015	388574	keystroke_Key.backspace	Key.backspace	n/a
194.542	0.105	389084	keystroke_Key.backspace	Key.backspace	n/a
194.9015	0.135	389803	keystroke_Key.backspace	Key.backspace	n/a
195.2915	0.12	390583	keystroke_Key.backspace	Key.backspace	n/a
195.6515	0.135	391303	keystroke_Key.backspace	Key.backspace	n/a
196.0115	0.12	392023	keystroke_Key.backspace	Key.backspace	n/a
196.416	0.12	392832	keystroke_Key.backspace	Key.backspace	n/a
196.806	0.106	393612	keystroke_Key.backspace	Key.backspace	n/a
197.181	0.121	394362	keystroke_Key.backspace	Key.backspace	n/a
197.586	0.105	395172	keystroke_Key.backspace	Key.backspace	n/a
197.9765	0.12	395953	keystroke_c	c	n/a
198.0815	0.09	396163	keystroke_l	l	n/a
198.2015	0.105	396403	keystroke_e	e	n/a
198.2915	0.075	396583	keystroke_Key.space	Key.space	n/a
198.5015	0.075	397003	keystroke_m	m	n/a
198.5765	0.105	397153	keystroke_e	e	n/a
198.6665	0.12	397333	keystroke_t	t	n/a
198.7415	0.12	397483	keystroke_a	a	n/a
198.8165	0.09	397633	keystroke_Key.space	Key.space	n/a
199.0865	0.075	398173	keystroke_n	n	n/a
199.2215	0.09	398443	keystroke_o	o	n/a
199.3715	0.12	398743	keystroke_m	m	n/a
199.4615	0.12	398923	keystroke_i	i	n/a
199.5665	0.105	399133	keystroke_n	n	n/a
199.6265	0.105	399253	keystroke_a	a	n/a
199.6865	0.09	399373	keystroke_t	t	n/a
199.7615	0.18	399523	keystroke_e	e	n/a
199.8815	0.12	399763	keystroke_d	d	n/a
199.9565	0.105	399913	keystroke_Key.space	Key.space	n/a
200.1515	0.09	400303	keystroke_p	p	n/a
200.3165	0.075	400633	keystroke_e	e	n/a
200.4665	0.135	400933	keystroke_e	e	n/a
200.5565	0.12	401113	keystroke_r	r	n/a
200.6465	0.075	401293	keystroke_s	s	n/a
200.9915	0.12	401983	keystroke_Key.enter	Key.enter	n/a
201.117	4.916	402234	prompt	n/a	expired hosting distinguished he'll\n
201.6815	0.075	403363	keystroke_e	e	n/a
201.8915	0.09	403783	keystroke_x	x	n/a
201.9515	0.12	403903	keystroke_p	p	n/a
202.0415	0.1045	404083	keystroke_i	i	n/a
202.146	0.0755	404292	keystroke_r	r	n/a
202.2065	0.18	404413	keystroke_e	e	n/a
202.3265	0.12	404653	keystroke_d	d	n/a
202.4165	0.105	404833	keystroke_Key.space	Key.space	n/a
202.5665	0.105	405133	keystroke_h	h	n/a
202.6725	0.089	405345	keystroke_o	o	n/a
202.7465	0.09	405493	keystroke_s	s	n/a
202.7915	0.09	405583	keystroke_t	t	n/a
202.8665	0.105	405733	keystroke_i	i	n/a
202.9265	0.15	405853	keystroke_n	n	n/a
203.0015	0.09	406003	keystroke_g	g	n/a
203.0765	0.12	406153	keystroke_Key.space	Key.space	n/a
203.2265	0.12	406453	keystroke_d	d	n/a
203.3315	0.105	406663	keystroke_i	i	n/a
203.4815	0.105	406963	keystroke_s	s	n/a
203.6765	0.105	407353	keystroke_t	t	n/a
203.8115	0.075	407623	keystroke_i	i	n/a
203.9465	0.105	407893	keystroke_n	n	n/a
204.0665	0.09	408133	keystroke_g	g	n/a
204.1865	0.195	408373	keystroke_u	u	n/a
204.3515	0.105	408703	keystroke_i	i	n/a
204.5165	0.0745	409033	keystroke_s	s	n/a
204.682	0.074	409364	keystroke_h	h	n/a
204.711	0.1355	409422	keystroke_e	e	n/a
204.757	0.1495	409514	keystroke_d	d	n/a
204.8915	0.06	409783	keystroke_Key.space	Key.space	n/a
205.0115	0.105	410023	keystroke_h	h	n/a
205.1165	0.1045	410233	keystroke_e	e	n/a
205.312	0.09	410624	keystroke_'	'	n/a
205.537	0.06	411074	keystroke_l	l	n/a
205.671	0.136	411342	keystroke_l	l	n/a
205.926	0.105	411852	keystroke_Key.enter	Key.enter	n/a
206.0395	5.004	412079	prompt	n/a	arrives lesbian hazard proceedings\n
206.6915	0.15	413383	keystroke_a	a	n/a
206.7965	0.075	413593	keystroke_r	r	n/a
206.9315	0.105	413863	keystroke_r	r	n/a
207.0515	0.09	414103	keystroke_i	i	n/a
207.1865	0.1045	414373	keystroke_v	v	n/a
207.2165	0.1645	414433	keystroke_e	e	n/a
207.292	0.105	414584	keystroke_s	s	n/a
207.321	0.09	414642	keystroke_Key.space	Key.space	n/a
207.501	0.105	415002	keystroke_l	l	n/a
207.546	0.18	415092	keystroke_e	e	n/a
207.651	0.121	415302	keystroke_s	s	n/a
208.071	0.092	416142	keystroke_b	b	n/a
208.177	0.075	416354	keystroke_i	i	n/a
208.267	0.105	416534	keystroke_a	a	n/a
208.342	0.1195	416684	keystroke_n	n	n/a
208.4165	0.105	416833	keystroke_Key.space	Key.space	n/a
208.6115	0.0905	417223	keystroke_h	h	n/a
208.657	0.1045	417314	keystroke_a	a	n/a
208.8515	0.09	417703	keystroke_z	z	n/a
209.0765	0.105	418153	keystroke_a	a	n/a
209.1965	0.06	418393	keystroke_r	r	n/a
209.3615	0.09	418723	keystroke_d	d	n/a
209.4215	0.09	418843	keystroke_Key.space	Key.space	n/a
209.5565	0.105	419113	keystroke_p	p	n/a
209.6465	0.09	419293	keystroke_r	r	n/a
209.7815	0.0905	419563	keystroke_o	o	n/a
209.887	0.15	419774	keystroke_c	c	n/a
210.022	0.105	420044	keystroke_e	e	n/a
210.2165	0.105	420433	keystroke_e	e	n/a
210.2615	0.135	420523	keystroke_d	d	n/a
210.3965	0.12	420793	keystroke_i	i	n/a
210.4865	0.105	420973	keystroke_n	n	n/a
210.5615	0.09	421123	keystroke_g	g	n/a
210.6065	0.12	421213	keystroke_s	s	n/a
210.9065	0.135	421813	keystroke_Key.enter	Key.enter	n/a
211.0475	4.8855	422095	prompt	n/a	secure cheapest fibre managers\n
211.7165	0.045	423433	keystroke_s	s	n/a
211.8365	0.075	423673	keystroke_e	e	n/a
211.9865	0.09	423973	keystroke_c	c	n/a
212.1215	0.105	424243	keystroke_u	u	n/a
212.2265	0.12	424453	keystroke_r	r	n/a
212.2865	0.12	424573	keystroke_e	e	n/a
212.3315	0.12	424663	keystroke_Key.space	Key.space	n/a
212.5565	0.09	425113	keystroke_c	c	n/a
212.6615	0.105	425323	keystroke_h	h	n/a
212.7815	0.105	425563	keystroke_e	e	n/a
212.8265	0.105	425653	keystroke_a	a	n/a
212.9465	0.06	425893	keystroke_p	p	n/a
213.0215	0.165	426043	keystroke_e	e	n/a
213.0965	0.12	426193	keystroke_s	s	n/a
213.1565	0.135	426313	keystroke_t	t	n/a
213.3065	0.105	426613	keystroke_Key.space	Key.space	n/a
213.4715	0.105	426943	keystroke_f	f	n/a
213.5915	0.105	427183	keystroke_i	i	n/a
213.7265	0.09	427453	keystroke_b	b	n/a
213.9515	0.105	427903	keystroke_r	r	n/a
214.0115	0.12	428023	keystroke_e	e	n/a
214.1015	0.105	428203	keystroke_Key.space	Key.space	n/a
214.3415	0.09	428683	keystroke_m	m	n/a
214.4615	0.12	428923	keystroke_a	a	n/a
214.7465	0.09	429493	keystroke_n	n	n/a
214.882	0.075	429764	keystroke_a	a	n/a
215.002	0.09	430004	keystroke_g	g	n/a
215.122	0.1495	430244	keystroke_e	e	n/a
215.197	0.1495	430394	keystroke_r	r	n/a
215.2865	0.12	430573	keystroke_s	s	n/a
215.782	0.15	431564	keystroke_Key.enter	Key.enter	n/a
215.937	9.806	431874	prompt	n/a	argument alcohol conversation multiple\n
216.637	0.105	433274	keystroke_a	a	n/a
216.727	0.075	433454	keystroke_r	r	n/a
216.907	0.105	433814	keystroke_g	g	n/a
217.027	0.06	434054	keystroke_u	u	n/a
217.207	0.075	434414	keystroke_m	m	n/a
217.282	0.09	434564	keystroke_e	e	n/a
217.387	0.075	434774	keystroke_n	n	n/a
217.447	0.09	434894	keystroke_t	t	n/a
217.537	0.135	435074	keystroke_Key.space	Key.space	n/a
217.642	0.135	435284	keystroke_a	a	n/a
218.002	0.135	436004	keystroke_l	l	n/a
218.1665	0.135	436333	keystroke_c	c	n/a
218.3165	0.135	436633	keystroke_o	o	n/a
218.6015	0.09	437203	keystroke_h	h	n/a
218.7515	0.075	437503	keystroke_o	o	n/a
218.9165	0.105	437833	keystroke_l	l	n/a
218.9915	0.105	437983	keystroke_Key.space	Key.space	n/a
219.1415	0.105	438283	keystroke_c	c	n/a
219.2165	0.06	438433	keystroke_o	o	n/a
219.3515	0.09	438703	keystroke_n	n	n/a
219.4715	0.0905	438943	keystroke_v	v	n/a
220.4615	0.12	440923	keystroke_e	e	n/a
220.5365	0.12	441073	keystroke_r	r	n/a
220.7465	0.18	441493	keystroke_a	a	n/a
220.7615	0.045	441523	keystroke_s	s	n/a
220.8965	0.12	441793	keystroke_t	t	n/a
222.516	0.121	445032	keystroke_Key.backspace	Key.backspace	n/a
222.817	0.09	445634	keystroke_Key.backspace	Key.backspace	n/a
223.192	0.105	446384	keystroke_Key.backspace	Key.backspace	n/a
223.747	0.15	447494	keystroke_s	s	n/a
223.867	0.09	447734	keystroke_a	a	n/a
223.912	0.1345	447824	keystroke_t	t	n/a
224.0315	0.105	448063	keystroke_i	i	n/a
224.0915	0.0745	448183	keystroke_o	o	n/a
224.256	0.076	448512	keystroke_n	n	n/a
224.301	0.12	448602	keystroke_Key.space	Key.space	n/a
224.467	0.135	448934	keystroke_m	m	n/a
224.646	0.09	449292	keystroke_u	u	n/a
224.916	0.075	449832	keystroke_l	l	n/a
225.021	0.12	450042	keystroke_t	t	n/a
225.156	0.075	450312	keystroke_i	i	n/a
225.246	0.135	450492	keystroke_p	p	n/a
225.351	0.105	450702	keystroke_l	l	n/a
225.411	0.105	450822	keystroke_e	e	n/a
225.651	0.09	451302	keystroke_Key.enter	Key.enter	n/a
225.746	4.587	451492	prompt	n/a	truth friday holidays infants\n
226.416	0.09	452832	keystroke_t	t	n/a
226.611	0.09	453222	keystroke_r	r	n/a
226.716	0.0755	453432	keystroke_u	u	n/a
226.821	0.105	453642	keystroke_t	t	n/a
226.911	0.105	453822	keystroke_h	h	n/a
227.001	0.075	454002	keystroke_Key.space	Key.space	n/a
227.136	0.075	454272	keystroke_f	f	n/a
227.3015	0.075	454603	keystroke_r	r	n/a
227.3615	0.105	454723	keystroke_i	i	n/a
227.4965	0.12	454993	keystroke_d	d	n/a
227.5265	0.15	455053	keystroke_a	a	n/a
227.6465	0.0905	455293	keystroke_y	y	n/a
227.6915	0.0905	455383	keystroke_Key.space	Key.space	n/a
227.902	0.045	455804	keystroke_h	h	n/a
227.992	0.105	455984	keystroke_o	o	n/a
228.757	0.09	457514	keystroke_l	l	n/a
228.892	0.09	457784	keystroke_i	i	n/a
228.997	0.105	457994	keystroke_d	d	n/a
229.042	0.105	458084	keystroke_a	a	n/a
229.162	0.075	458324	keystroke_y	y	n/a
229.237	0.104	458474	keystroke_s	s	n/a
229.282	0.104	458564	keystroke_Key.space	Key.space	n/a
229.506	0.061	459012	keystroke_i	i	n/a
229.627	0.09	459254	keystroke_n	n	n/a
229.701	0.105	459402	keystroke_f	f	n/a
229.747	0.09	459494	keystroke_a	a	n/a
229.851	0.076	459702	keystroke_n	n	n/a
229.927	0.12	459854	keystroke_t	t	n/a
229.972	0.135	459944	keystroke_s	s	n/a
230.227	0.105	460454	keystroke_Key.enter	Key.enter	n/a
230.3385	5.02	460677	prompt	n/a	risks simulations lose nicholas\n
230.9615	0.09	461923	keystroke_r	r	n/a
231.0665	0.105	462133	keystroke_i	i	n/a
231.1565	0.105	462313	keystroke_s	s	n/a
231.2765	0.075	462553	keystroke_k	k	n/a
232.072	0.1195	464144	keystroke_s	s	n/a
232.1765	0.12	464353	keystroke_Key.space	Key.space	n/a
232.4465	0.0745	464893	keystroke_s	s	n/a
232.581	0.075	465162	keystroke_i	i	n/a
232.791	0.105	465582	keystroke_m	m	n/a
233.031	0.105	466062	keystroke_u	u	n/a
233.106	0.12	466212	keystroke_l	l	n/a
233.211	0.075	466422	keystroke_a	a	n/a
233.241	0.12	466482	keystroke_t	t	n/a
233.331	0.12	466662	keystroke_i	i	n/a
233.436	0.045	466872	keystroke_o	o	n/a
233.526	0.105	467052	keystroke_n	n	n/a
233.586	0.09	467172	keystroke_s	s	n/a
233.677	0.089	467354	keystroke_Key.space	Key.space	n/a
233.796	0.09	467592	keystroke_l	l	n/a
233.976	0.09	467952	keystroke_o	o	n/a
234.051	0.09	468102	keystroke_s	s	n/a
234.081	0.121	468162	keystroke_e	e	n/a
234.157	0.09	468314	keystroke_Key.space	Key.space	n/a
234.322	0.135	468644	keystroke_n	n	n/a
234.397	0.135	468794	keystroke_i	i	n/a
234.5465	0.105	469093	keystroke_c	c	n/a
234.6365	0.075	469273	keystroke_h	h	n/a
234.8015	0.06	469603	keystroke_o	o	n/a
234.952	0.09	469904	keystroke_l	l	n/a
235.027	0.135	470054	keystroke_a	a	n/a
235.102	0.12	470204	keystroke_s	s	n/a
235.267	0.09	470534	keystroke_Key.enter	Key.enter	n/a
235.3615	3.8215	470723	prompt	n/a	girl finances midi david\n
236.002	0.09	472004	keystroke_g	g	n/a
236.107	0.0895	472214	keystroke_i	i	n/a
236.1815	0.105	472363	keystroke_r	r	n/a
236.2565	0.105	472513	keystroke_l	l	n/a
236.3015	0.135	472603	keystroke_Key.space	Key.space	n/a
236.4815	0.12	472963	keystroke_f	f	n/a
236.5565	0.075	473113	keystroke_i	i	n/a
236.6915	0.105	473383	keystroke_n	n	n/a
236.7965	0.105	473593	keystroke_a	a	n/a
237.291	0.075	474582	keystroke_n	n	n/a
237.396	0.12	474792	keystroke_c	c	n/a
237.441	0.166	474882	keystroke_e	e	n/a
237.531	0.12	475062	keystroke_s	s	n/a
237.636	0.135	475272	keystroke_Key.space	Key.space	n/a
237.936	0.105	475872	keystroke_m	m	n/a
237.981	0.135	475962	keystroke_i	i	n/a
238.176	0.135	476352	keystroke_d	d	n/a
238.281	0.106	476562	keystroke_i	i	n/a
238.342	0.12	476684	keystroke_Key.space	Key.space	n/a
238.507	0.09	477014	keystroke_d	d	n/a
238.537	0.09	477074	keystroke_a	a	n/a
238.687	0.09	477374	keystroke_v	v	n/a
238.762	0.105	477524	keystroke_i	i	n/a
238.852	0.105	477704	keystroke_d	d	n/a
239.061	0.12	478122	keystroke_Key.enter	Key.enter	n/a
239.187	5.9815	478374	prompt	n/a	volunteers achieved physicians struck\n
239.8415	0.1055	479683	keystroke_v	v	n/a
239.917	0.075	479834	keystroke_o	o	n/a
240.082	0.09	480164	keystroke_l	l	n/a
240.217	0.075	480434	keystroke_u	u	n/a
240.382	0.09	480764	keystroke_n	n	n/a
240.427	0.09	480854	keystroke_t	t	n/a
240.532	0.105	481064	keystroke_e	e	n/a
240.712	0.12	481424	keystroke_e	e	n/a
240.787	0.135	481574	keystroke_r	r	n/a
240.892	0.105	481784	keystroke_s	s	n/a
241.027	0.12	482054	keystroke_Key.space	Key.space	n/a
241.342	0.105	482684	keystroke_a	a	n/a
241.477	0.135	482954	keystroke_c	c	n/a
241.627	0.0745	483254	keystroke_h	h	n/a
241.672	0.1045	483344	keystroke_i	i	n/a
241.7465	0.105	483493	keystroke_e	e	n/a
241.8365	0.1055	483673	keystroke_v	v	n/a
241.987	0.1495	483974	keystroke_e	e	n/a
242.077	0.1345	484154	keystroke_d	d	n/a
242.1965	0.09	484393	keystroke_Key.space	Key.space	n/a
242.3465	0.1055	484693	keystroke_p	p	n/a
242.482	0.075	484964	keystroke_h	h	n/a
242.662	0.0745	485324	keystroke_y	y	n/a
242.8565	0.09	485713	keystroke_s	s	n/a
243.6065	0.105	487213	keystroke_i	i	n/a
243.7265	0.1045	487453	keystroke_c	c	n/a
243.846	0.075	487692	keystroke_i	i	n/a
243.906	0.105	487812	keystroke_a	a	n/a
244.056	0.06	488112	keystroke_n	n	n/a
244.086	0.105	488172	keystroke_s	s	n/a
244.206	0.105	488412	keystroke_Key.space	Key.space	n/a
244.326	0.09	488652	keystroke_s	s	n/a
244.417	0.12	488834	keystroke_t	t	n/a
244.492	0.09	488984	keystroke_r	r	n/a
244.567	0.1045	489134	keystroke_u	u	n/a
244.6865	0.135	489373	keystroke_c	c	n/a
244.7915	0.1055	489583	keystroke_k	k	n/a
245.0465	0.12	490093	keystroke_Key.enter	Key.enter	n/a
245.1715	6.0115	490343	prompt	n/a	preservation incoming above suggestions\n
246.021	0.105	492042	keystroke_p	p	n/a
246.321	0.15	492642	keystroke_r	r	n/a
246.426	0.12	492852	keystroke_e	e	n/a
246.7115	0.1195	493423	keystroke_s	s	n/a
246.771	0.135	493542	keystroke_e	e	n/a
246.891	0.12	493782	keystroke_r	r	n/a
247.1465	0.105	494293	keystroke_v	v	n/a
247.327	0.105	494654	keystroke_a	a	n/a
247.402	0.105	494804	keystroke_t	t	n/a
247.492	0.12	494984	keystroke_i	i	n/a
247.567	0.06	495134	keystroke_o	o	n/a
247.732	0.09	495464	keystroke_n	n	n/a
247.7915	0.0755	495583	keystroke_Key.space	Key.space	n/a
247.9115	0.075	495823	keystroke_i	i	n/a
248.0315	0.105	496063	keystroke_n	n	n/a
248.1215	0.105	496243	keystroke_c	c	n/a
248.2115	0.09	496423	keystroke_o	o	n/a
248.3465	0.105	496693	keystroke_m	m	n/a
248.4365	0.105	496873	keystroke_i	i	n/a
248.5265	0.105	497053	keystroke_n	n	n/a
248.5865	0.09	497173	keystroke_g	g	n/a
248.6915	0.105	497383	keystroke_Key.space	Key.space	n/a
248.7665	0.105	497533	keystroke_a	a	n/a
248.8865	0.075	497773	keystroke_b	b	n/a
248.9915	0.105	497983	keystroke_o	o	n/a
249.1265	0.165	498253	keystroke_v	v	n/a
249.2315	0.12	498463	keystroke_e	e	n/a
249.3515	0.12	498703	keystroke_Key.space	Key.space	n/a
249.742	0.075	499484	keystroke_s	s	n/a
249.832	0.105	499664	keystroke_u	u	n/a
249.922	0.06	499844	keystroke_g	g	n/a
250.072	0.06	500144	keystroke_g	g	n/a
250.102	0.15	500204	keystroke_e	e	n/a
250.147	0.12	500294	keystroke_s	s	n/a
250.237	0.12	500474	keystroke_t	t	n/a
250.372	0.09	500744	keystroke_i	i	n/a
250.417	0.075	500834	keystroke_o	o	n/a
250.582	0.09	501164	keystroke_n	n	n/a
250.657	0.12	501314	keystroke_s	s	n/a
251.092	0.09	502184	keystroke_Key.enter	Key.enter	n/a
251.1865	3.6715	502373	prompt	n/a	need link meaningful broker\n
251.902	0.09	503804	keystroke_n	n	n/a
251.977	0.06	503954	keystroke_e	e	n/a
252.112	0.105	504224	keystroke_e	e	n/a
252.157	0.15	504314	keystroke_d	d	n/a
252.247	0.104	504494	keystroke_Key.space	Key.space	n/a
252.397	0.06	504794	keystroke_l	l	n/a
252.577	0.06	505154	keystroke_i	i	n/a
252.712	0.105	505424	keystroke_n	n	n/a
252.772	0.105	505544	keystroke_k	k	n/a
252.831	0.106	505662	keystroke_Key.space	Key.space	n/a
252.997	0.105	505994	keystroke_m	m	n/a
253.072	0.12	506144	keystroke_e	e	n/a
253.117	0.105	506234	keystroke_a	a	n/a
253.222	0.105	506444	keystroke_n	n	n/a
253.312	0.105	506624	keystroke_i	i	n/a
253.432	0.12	506864	keystroke_n	n	n/a
253.567	0.104	507134	keystroke_g	g	n/a
253.7615	0.135	507523	keystroke_f	f	n/a
253.8365	0.15	507673	keystroke_u	u	n/a
253.9265	0.09	507853	keystroke_l	l	n/a
253.9715	0.105	507943	keystroke_Key.space	Key.space	n/a
254.1515	0.09	508303	keystroke_b	b	n/a
254.2565	0.09	508513	keystroke_r	r	n/a
254.3315	0.105	508663	keystroke_o	o	n/a
254.3915	0.105	508783	keystroke_k	k	n/a
254.4515	0.12	508903	keystroke_e	e	n/a
254.4815	0.12	508963	keystroke_r	r	n/a
254.7665	0.09	509533	keystroke_Key.enter	Key.enter	n/a
254.8625	6.3705	509725	prompt	n/a	germany shorter parade settlement\n
255.5615	0.075	511123	keystroke_g	g	n/a
255.8465	0.12	511693	keystroke_e	e	n/a
255.9065	0.12	511813	keystroke_r	r	n/a
256.0715	0.105	512143	keystroke_m	m	n/a
256.1315	0.09	512263	keystroke_a	a	n/a
256.2515	0.09	512503	keystroke_n	n	n/a
256.3265	0.09	512653	keystroke_y	y	n/a
256.4015	0.12	512803	keystroke_Key.space	Key.space	n/a
256.5065	0.105	513013	keystroke_s	s	n/a
256.5665	0.105	513133	keystroke_h	h	n/a
256.6865	0.105	513373	keystroke_o	o	n/a
256.7465	0.06	513493	keystroke_r	r	n/a
256.8965	0.075	513793	keystroke_t	t	n/a
256.9865	0.165	513973	keystroke_e	e	n/a
257.0615	0.12	514123	keystroke_r	r	n/a
257.5865	0.1355	515173	keystroke_Key.space	Key.space	n/a
257.9615	0.1055	515923	keystroke_p	p	n/a
258.037	0.075	516074	keystroke_a	a	n/a
258.097	0.1045	516194	keystroke_r	r	n/a
258.1865	0.105	516373	keystroke_a	a	n/a
258.321	0.1505	516642	keystroke_d	d	n/a
258.4415	0.12	516883	keystroke_e	e	n/a
258.5465	0.12	517093	keystroke_Key.space	Key.space	n/a
258.6965	0.165	517393	keystroke_s	s	n/a
258.8015	0.15	517603	keystroke_e	e	n/a
258.8915	0.075	517783	keystroke_t	t	n/a
259.0265	0.105	518053	keystroke_t	t	n/a
259.1165	0.105	518233	keystroke_l	l	n/a
259.2365	0.105	518473	keystroke_e	e	n/a
259.3265	0.09	518653	keystroke_m	m	n/a
259.4615	0.09	518923	keystroke_t	t	n/a
260.5565	0.105	521113	keystroke_Key.backspace	Key.backspace	n/a
260.7665	0.09	521533	keystroke_e	e	n/a
260.8415	0.09	521683	keystroke_n	n	n/a
260.9465	0.09	521893	keystroke_t	t	n/a
261.1265	0.105	522253	keystroke_Key.enter	Key.enter	n/a
261.237	7.766	522474	prompt	n/a	grande reasoning sleep wallpaper\n
262.0115	0.09	524023	keystroke_g	g	n/a
262.222	0.12	524444	keystroke_r	r	n/a
262.267	0.12	524534	keystroke_a	a	n/a
262.402	0.105	524804	keystroke_n	n	n/a
262.477	0.135	524954	keystroke_d	d	n/a
262.537	0.12	525074	keystroke_e	e	n/a
262.642	0.089	525284	keystroke_Key.space	Key.space	n/a
263.8565	0.09	527713	keystroke_g	g	n/a
265.012	0.09	530024	keystroke_Key.backspace	Key.backspace	n/a
265.252	0.075	530504	keystroke_r	r	n/a
265.417	0.09	530834	keystroke_e	e	n/a
265.477	0.135	530954	keystroke_a	a	n/a
265.567	0.12	531134	keystroke_s	s	n/a
265.702	0.09	531404	keystroke_o	o	n/a
266.5865	0.12	533173	keystroke_n	n	n/a
266.6915	0.15	533383	keystroke_i	i	n/a
266.8115	0.105	533623	keystroke_n	n	n/a
266.8865	0.105	533773	keystroke_g	g	n/a
266.9765	0.105	533953	keystroke_Key.space	Key.space	n/a
267.1265	0.075	534253	keystroke_s	s	n/a
267.2165	0.0905	534433	keystroke_l	l	n/a
267.322	0.06	534644	keystroke_e	e	n/a
267.442	0.09	534884	keystroke_e	e	n/a
267.487	0.089	534974	keystroke_p	p	n/a
267.561	0.12	535122	keystroke_Key.space	Key.space	n/a
267.712	0.105	535424	keystroke_w	w	n/a
267.757	0.104	535514	keystroke_a	a	n/a
267.892	0.045	535784	keystroke_l	l	n/a
268.042	0.075	536084	keystroke_l	l	n/a
268.432	0.075	536864	keystroke_p	p	n/a
268.5215	0.0905	537043	keystroke_a	a	n/a
268.627	0.105	537254	keystroke_p	p	n/a
268.717	0.12	537434	keystroke_e	e	n/a
268.762	0.105	537524	keystroke_r	r	n/a
268.897	0.105	537794	keystroke_Key.enter	Key.enter	n/a
269.009	4.1045	538018	prompt	n/a	called novelty scenarios booty\n
269.632	0.045	539264	keystroke_c	c	n/a
269.647	0.075	539294	keystroke_a	a	n/a
269.692	0.06	539384	keystroke_l	l	n/a
269.827	0.105	539654	keystroke_l	l	n/a
269.887	0.105	539774	keystroke_e	e	n/a
269.932	0.105	539864	keystroke_d	d	n/a
270.022	0.09	540044	keystroke_Key.space	Key.space	n/a
270.127	0.105	540254	keystroke_n	n	n/a
270.217	0.09	540434	keystroke_o	o	n/a
270.277	0.075	540554	keystroke_v	v	n/a
270.322	0.135	540644	keystroke_e	e	n/a
270.442	0.06	540884	keystroke_l	l	n/a
270.547	0.09	541094	keystroke_t	t	n/a
270.712	0.0895	541424	keystroke_y	y	n/a
270.8165	0.075	541633	keystroke_Key.space	Key.space	n/a
270.9215	0.105	541843	keystroke_s	s	n/a
271.0415	0.135	542083	keystroke_c	c	n/a
271.2675	0.104	542535	keystroke_e	e	n/a
271.4015	0.09	542803	keystroke_n	n	n/a
271.5065	0.09	543013	keystroke_a	a	n/a
271.5665	0.09	543133	keystroke_r	r	n/a
271.6715	0.12	543343	keystroke_i	i	n/a
271.7315	0.105	543463	keystroke_o	o	n/a
271.8375	0.089	543675	keystroke_s	s	n/a
271.8965	0.09	543793	keystroke_Key.space	Key.space	n/a
272.0915	0.075	544183	keystroke_b	b	n/a
272.2565	0.06	544513	keystroke_o	o	n/a
272.3765	0.09	544753	keystroke_o	o	n/a
272.4515	0.06	544903	keystroke_t	t	n/a
272.6165	0.09	545233	keystroke_y	y	n/a
272.9915	0.12	545983	keystroke_Key.enter	Key.enter	n/a
273.118	5.83	546236	prompt	n/a	authorized intervals governments vocals\n
273.7715	0.12	547543	keystroke_a	a	n/a
273.9215	0.075	547843	keystroke_u	u	n/a
273.9975	0.089	547995	keystroke_t	t	n/a
274.1015	0.075	548203	keystroke_h	h	n/a
274.1915	0.12	548383	keystroke_o	o	n/a
274.2515	0.105	548503	keystroke_r	r	n/a
274.4165	0.12	548833	keystroke_i	i	n/a
274.4915	0.135	548983	keystroke_z	z	n/a
274.5815	0.136	549163	keystroke_e	e	n/a
274.6115	0.165	549223	keystroke_d	d	n/a
274.7615	0.075	549523	keystroke_Key.space	Key.space	n/a
274.8665	0.12	549733	keystroke_i	i	n/a
274.9715	0.135	549943	keystroke_n	n	n/a
275.032	0.0895	550064	keystroke_t	t	n/a
275.1365	0.135	550273	keystroke_e	e	n/a
275.2115	0.12	550423	keystroke_r	r	n/a
275.4965	0.03	550993	keystroke_v	v	n/a
275.5115	0.09	551023	keystroke_a	a	n/a
276.2015	0.105	552403	keystroke_l	l	n/a
276.2915	0.105	552583	keystroke_s	s	n/a
276.4115	0.105	552823	keystroke_Key.space	Key.space	n/a
276.6215	0.09	553243	keystroke_g	g	n/a
276.7265	0.09	553453	keystroke_o	o	n/a
276.8615	0.06	553723	keystroke_v	v	n/a
276.9965	0.165	553993	keystroke_e	e	n/a
277.0865	0.12	554173	keystroke_r	r	n/a
277.2215	0.075	554443	keystroke_n	n	n/a
277.3865	0.09	554773	keystroke_m	m	n/a
277.4615	0.105	554923	keystroke_e	e	n/a
277.5815	0.06	555163	keystroke_n	n	n/a
277.6265	0.12	555253	keystroke_t	t	n/a
277.7315	0.105	555463	keystroke_Key.space	Key.space	n/a
277.9265	0.09	555853	keystroke_v	v	n/a
278.362	0.09	556724	keystroke_o	o	n/a
278.467	0.09	556934	keystroke_c	c	n/a
278.497	0.09	556994	keystroke_a	a	n/a
278.572	0.09	557144	keystroke_l	l	n/a
278.707	0.06	557414	keystroke_s	s	n/a
278.857	0.09	557714	keystroke_Key.enter	Key.enter	n/a
278.9515	4.3465	557903	prompt	n/a	audio techno unemployment mars\n
279.5765	0.075	559153	keystroke_a	a	n/a
279.6665	0.075	559333	keystroke_u	u	n/a
279.7565	0.105	559513	keystroke_d	d	n/a
279.8465	0.12	559693	keystroke_i	i	n/a
279.9065	0.09	559813	keystroke_o	o	n/a
279.9365	0.15	559873	keystroke_Key.space	Key.space	n/a
280.1015	0.09	560203	keystroke_t	t	n/a
280.1615	0.09	560323	keystroke_e	e	n/a
280.3115	0.1205	560623	keystroke_c	c	n/a
280.3865	0.06	560773	keystroke_h	h	n/a
280.5515	0.09	561103	keystroke_n	n	n/a
280.6715	0.12	561343	keystroke_o	o	n/a
280.7465	0.135	561493	keystroke_Key.space	Key.space	n/a
281.0465	0.06	562093	keystroke_u	u	n/a
281.2115	0.075	562423	keystroke_n	n	n/a
281.3315	0.105	562663	keystroke_e	e	n/a
281.4375	0.074	562875	keystroke_m	m	n/a
281.5865	0.12	563173	keystroke_p	p	n/a
281.6615	0.09	563323	keystroke_l	l	n/a
281.9465	0.09	563893	keystroke_o	o	n/a
282.0665	0.09	564133	keystroke_y	y	n/a
282.1715	0.105	564343	keystroke_m	m	n/a
282.2615	0.105	564523	keystroke_e	e	n/a
282.3825	0.089	564765	keystroke_n	n	n/a
282.4565	0.09	564913	keystroke_t	t	n/a
282.5615	0.075	565123	keystroke_Key.space	Key.space	n/a
282.6965	0.12	565393	keystroke_m	m	n/a
282.7865	0.12	565573	keystroke_a	a	n/a
282.8165	0.135	565633	keystroke_r	r	n/a
282.8915	0.135	565783	keystroke_s	s	n/a
283.1765	0.12	566353	keystroke_Key.enter	Key.enter	n/a
283.303	13.675	566606	prompt	n/a	opponent enlargement generally andrea\n
283.9565	0.105	567913	keystroke_o	o	n/a
284.0765	0.09	568153	keystroke_p	p	n/a
284.2715	0.06	568543	keystroke_p	p	n/a
284.4815	0.105	568963	keystroke_o	o	n/a
284.9315	0.075	569863	keystroke_n	n	n/a
285.0065	0.1195	570013	keystroke_e	e	n/a
285.1115	0.0905	570223	keystroke_n	n	n/a
285.232	0.104	570464	keystroke_t	t	n/a
285.321	0.09	570642	keystroke_Key.space	Key.space	n/a
285.562	0.105	571124	keystroke_e	e	n/a
285.801	0.105	571602	keystroke_n	n	n/a
286.086	0.09	572172	keystroke_l	l	n/a
286.432	0.12	572864	keystroke_a	a	n/a
286.491	0.091	572982	keystroke_r	r	n/a
286.672	0.075	573344	keystroke_g	g	n/a
286.702	0.105	573404	keystroke_e	e	n/a
286.792	0.09	573584	keystroke_m	m	n/a
286.896	0.076	573792	keystroke_e	e	n/a
286.987	0.075	573974	keystroke_n	n	n/a
287.032	0.105	574064	keystroke_t	t	n/a
287.121	0.135	574242	keystroke_Key.space	Key.space	n/a
287.272	0.075	574544	keystroke_g	g	n/a
287.332	0.195	574664	keystroke_e	e	n/a
287.467	0.12	574934	keystroke_r	r	n/a
287.571	0.091	575142	keystroke_n	n	n/a
287.677	0.105	575354	keystroke_a	a	n/a
287.767	0.06	575534	keystroke_l	l	n/a
287.8865	0.09	575773	keystroke_l	l	n/a
287.9465	0.1055	575893	keystroke_y	y	n/a
288.0665	0.09	576133	keystroke_Key.space	Key.space	n/a
288.1715	0.09	576343	keystroke_a	a	n/a
288.2465	0.09	576493	keystroke_n	n	n/a
288.3515	0.075	576703	keystroke_d	d	n/a
288.5465	0.075	577093	keystroke_r	r	n/a
288.7265	0.075	577453	keystroke_e	e	n/a
288.7565	0.12	577513	keystroke_a	a	n/a
290.2865	0.105	580573	keystroke_Key.backspace	Key.backspace	n/a
290.6765	0.09	581353	keystroke_Key.backspace	Key.backspace	n/a
291.1115	0.12	582223	keystroke_Key.backspace	Key.backspace	n/a
291.5165	0.12	583033	keystroke_Key.backspace	Key.backspace	n/a
291.9065	0.105	583813	keystroke_Key.backspace	Key.backspace	n/a
292.2365	0.12	584473	keystroke_Key.backspace	Key.backspace	n/a
292.5815	0.135	585163	keystroke_Key.backspace	Key.backspace	n/a
292.9115	0.12	585823	keystroke_Key.backspace	Key.backspace	n/a
293.3165	0.09	586633	keystroke_Key.backspace	Key.backspace	n/a
293.6315	0.12	587263	keystroke_Key.backspace	Key.backspace	n/a
293.9765	0.105	587953	keystroke_Key.backspace	Key.backspace	n/a
294.4415	0.045	588883	keystroke_Key.backspace	Key.backspace	n/a
294.7715	0.105	589543	keystroke_Key.backspace	Key.backspace	n/a
295.1165	0.075	590233	keystroke_n	n	n/a
295.2815	0.075	590563	keystroke_e	e	n/a
295.5515	0.105	591103	keystroke_r	r	n/a
295.6415	0.105	591283	keystroke_a	a	n/a
295.762	0.045	591524	keystroke_l	l	n/a
295.8815	0.0905	591763	keystroke_l	l	n/a
295.957	0.105	591914	keystroke_y	y	n/a
296.046	0.0905	592092	keystroke_Key.space	Key.space	n/a
296.182	0.104	592364	keystroke_a	a	n/a
296.301	0.075	592602	keystroke_n	n	n/a
296.391	0.076	592782	keystroke_d	d	n/a
296.572	0.059	593144	keystroke_r	r	n/a
296.721	0.091	593442	keystroke_e	e	n/a
296.752	0.12	593504	keystroke_a	a	n/a
296.872	0.104	593744	keystroke_Key.enter	Key.enter	n/a
296.982	5.3215	593964	prompt	n/a	belly mouth thou cardiovascular\n
297.622	0.089	595244	keystroke_b	b	n/a
297.727	0.074	595454	keystroke_e	e	n/a
297.817	0.059	595634	keystroke_l	l	n/a
297.951	0.09	595902	keystroke_l	l	n/a
298.011	0.105	596022	keystroke_y	y	n/a
298.086	0.0905	596172	keystroke_Key.space	Key.space	n/a
298.2065	0.075	596413	keystroke_m	m	n/a
298.3715	0.12	596743	keystroke_o	o	n/a
298.4465	0.075	596893	keystroke_u	u	n/a
298.5365	0.1055	597073	keystroke_t	t	n/a
298.6565	0.06	597313	keystroke_h	h	n/a
298.6715	0.09	597343	keystroke_Key.space	Key.space	n/a
298.777	0.12	597554	keystroke_t	t	n/a
298.8815	0.0905	597763	keystroke_h	h	n/a
299.0315	0.105	598063	keystroke_o	o	n/a
299.1065	0.0895	598213	keystroke_u	u	n/a
299.151	0.135	598302	keystroke_Key.space	Key.space	n/a
299.526	0.121	599052	keystroke_c	c	n/a
299.587	0.12	599174	keystroke_a	a	n/a
299.767	0.06	599534	keystroke_r	r	n/a
299.917	0.105	599834	keystroke_d	d	n/a
299.992	0.135	599984	keystroke_i	i	n/a
300.052	0.105	600104	keystroke_o	o	n/a
300.262	0.06	600524	keystroke_v	v	n/a
300.277	0.09	600554	keystroke_c	c	n/a
301.297	0.105	602594	keystroke_Key.backspace	Key.backspace	n/a
301.447	0.105	602894	keystroke_a	a	n/a
301.507	0.105	603014	keystroke_s	s	n/a
301.777	0.105	603554	keystroke_c	c	n/a
301.867	0.09	603734	keystroke_u	u	n/a
301.927	0.12	603854	keystroke_l	l	n/a
302.017	0.105	604034	keystroke_a	a	n/a
302.062	0.12	604124	keystroke_r	r	n/a
302.197	0.105	604394	keystroke_Key.enter	Key.enter	n/a
302.308	4.3005	604616	prompt	n/a	meets cabinet wright thickness\n
303.0365	0.09	606073	keystroke_m	m	n/a
303.1415	0.075	606283	keystroke_e	e	n/a
303.2915	0.105	606583	keystroke_e	e	n/a
303.3665	0.135	606733	keystroke_t	t	n/a
303.4415	0.105	606883	keystroke_s	s	n/a
303.5615	0.105	607123	keystroke_Key.space	Key.space	n/a
303.7115	0.12	607423	keystroke_c	c	n/a
303.7715	0.105	607543	keystroke_a	a	n/a
303.9665	0.09	607933	keystroke_b	b	n/a
304.0415	0.105	608083	keystroke_i	i	n/a
304.1315	0.12	608263	keystroke_n	n	n/a
304.2065	0.15	608413	keystroke_e	e	n/a
304.2525	0.119	608505	keystroke_t	t	n/a
304.3415	0.12	608683	keystroke_Key.space	Key.space	n/a
304.7165	0.0905	609433	keystroke_w	w	n/a
304.9565	0.105	609913	keystroke_r	r	n/a
305.1065	0.09	610213	keystroke_i	i	n/a
305.1665	0.09	610333	keystroke_g	g	n/a
305.2715	0.105	610543	keystroke_h	h	n/a
305.3315	0.09	610663	keystroke_t	t	n/a
305.4065	0.0895	610813	keystroke_Key.space	Key.space	n/a
305.5115	0.105	611023	keystroke_t	t	n/a
305.601	0.105	611202	keystroke_h	h	n/a
305.691	0.105	611382	keystroke_i	i	n/a
305.8415	0.0895	611683	keystroke_c	c	n/a
305.916	0.075	611832	keystroke_k	k	n/a
306.021	0.105	612042	keystroke_n	n	n/a
306.081	0.1205	612162	keystroke_e	e	n/a
306.1565	0.06	612313	keystroke_s	s	n/a
306.3065	0.09	612613	keystroke_s	s	n/a
306.4565	0.15	612913	keystroke_Key.enter	Key.enter	n/a
306.6125	11.2305	613225	prompt	n/a	occurrence morgan scenario trains\n
307.2515	0.105	614503	keystroke_o	o	n/a
307.3715	0.06	614743	keystroke_c	c	n/a
307.5215	0.09	615043	keystroke_c	c	n/a
307.6265	0.12	615253	keystroke_u	u	n/a
307.7615	0.09	615523	keystroke_r	r	n/a
308.0465	0.09	616093	keystroke_e	e	n/a
308.1515	0.09	616303	keystroke_n	n	n/a
308.2265	0.09	616453	keystroke_c	c	n/a
308.2715	0.135	616543	keystroke_e	e	n/a
308.3465	0.09	616693	keystroke_Key.space	Key.space	n/a
308.4815	0.15	616963	keystroke_m	m	n/a
308.5715	0.12	617143	keystroke_o	o	n/a
308.7065	0.045	617413	keystroke_r	r	n/a
309.9815	0.09	619963	keystroke_Key.backspace	Key.backspace	n/a
310.327	0.09	620654	keystroke_Key.backspace	Key.backspace	n/a
310.7465	0.045	621493	keystroke_Key.backspace	Key.backspace	n/a
311.1815	0.105	622363	keystroke_Key.backspace	Key.backspace	n/a
311.572	0.09	623144	keystroke_Key.backspace	Key.backspace	n/a
311.932	0.09	623864	keystroke_Key.backspace	Key.backspace	n/a
312.397	0.09	624794	keystroke_Key.backspace	Key.backspace	n/a
312.7115	0.105	625423	keystroke_Key.backspace	Key.backspace	n/a
312.9375	0.104	625875	keystroke_r	r	n/a
313.3865	0.105	626773	keystroke_e	e	n/a
313.4765	0.0905	626953	keystroke_n	n	n/a
313.582	0.12	627164	keystroke_c	c	n/a
313.642	0.15	627284	keystroke_e	e	n/a
313.687	0.089	627374	keystroke_Key.space	Key.space	n/a
313.822	0.135	627644	keystroke_m	m	n/a
313.897	0.12	627794	keystroke_o	o	n/a
313.957	0.075	627914	keystroke_r	r	n/a
314.122	0.12	628244	keystroke_g	g	n/a
314.182	0.12	628364	keystroke_a	a	n/a
314.257	0.09	628514	keystroke_n	n	n/a
314.316	0.121	628632	keystroke_Key.space	Key.space	n/a
314.422	0.105	628844	keystroke_s	s	n/a
314.586	0.121	629172	keystroke_c	c	n/a
315.531	0.106	631062	keystroke_e	e	n/a
315.817	0.089	631634	keystroke_n	n	n/a
316.072	0.105	632144	keystroke_a	a	n/a
316.132	0.104	632264	keystroke_r	r	n/a
316.222	0.1195	632444	keystroke_i	i	n/a
316.282	0.0895	632564	keystroke_o	o	n/a
316.311	0.1655	632622	keystroke_Key.space	Key.space	n/a
316.7465	0.09	633493	keystroke_t	t	n/a
317.0915	0.135	634183	keystroke_r	r	n/a
317.1665	0.12	634333	keystroke_a	a	n/a
317.2715	0.09	634543	keystroke_i	i	n/a
317.3765	0.12	634753	keystroke_n	n	n/a
317.4215	0.105	634843	keystroke_s	s	n/a
317.722	0.12	635444	keystroke_Key.enter	Key.enter	n/a
317.846	5.892	635692	prompt	n/a	calendars pulling diff nobody\n
318.502	0.105	637004	keystroke_c	c	n/a
318.547	0.12	637094	keystroke_a	a	n/a
318.622	0.105	637244	keystroke_l	l	n/a
318.757	0.09	637514	keystroke_e	e	n/a
318.922	0.06	637844	keystroke_n	n	n/a
318.967	0.105	637934	keystroke_d	d	n/a
319.057	0.105	638114	keystroke_e	e	n/a
319.102	0.135	638204	keystroke_r	r	n/a
319.177	0.12	638354	keystroke_s	s	n/a
319.252	0.09	638504	keystroke_Key.space	Key.space	n/a
319.402	0.105	638804	keystroke_p	p	n/a
319.612	0.09	639224	keystroke_u	u	n/a
319.777	0.075	639554	keystroke_l	l	n/a
319.927	0.135	639854	keystroke_l	l	n/a
320.017	0.09	640034	keystroke_i	i	n/a
320.182	0.105	640364	keystroke_n	n	n/a
320.272	0.105	640544	keystroke_g	g	n/a
320.8715	0.09	641743	keystroke_Key.space	Key.space	n/a
320.9915	0.09	641983	keystroke_d	d	n/a
321.0665	0.09	642133	keystroke_i	i	n/a
321.1715	0.045	642343	keystroke_f	f	n/a
321.3065	0.075	642613	keystroke_f	f	n/a
321.3515	0.0755	642703	keystroke_Key.space	Key.space	n/a
321.487	0.105	642974	keystroke_n	n	n/a
321.757	0.105	643514	keystroke_o	o	n/a
321.937	0.104	643874	keystroke_b	b	n/a
322.057	0.089	644114	keystroke_o	o	n/a
322.1615	0.15	644323	keystroke_d	d	n/a
322.2515	0.15	644503	keystroke_y	y	n/a
323.5865	0.15	647173	keystroke_Key.enter	Key.enter	n/a
323.741	6.3275	647482	prompt	n/a	hans advantages anne ontario\n
324.5165	0.09	649033	keystroke_h	h	n/a
324.6215	0.075	649243	keystroke_a	a	n/a
324.7115	0.105	649423	keystroke_n	n	n/a
324.7715	0.12	649543	keystroke_s	s	n/a
324.8765	0.15	649753	keystroke_Key.space	Key.space	n/a
325.0415	0.12	650083	keystroke_a	a	n/a
325.1165	0.12	650233	keystroke_d	d	n/a
325.4765	0.09	650953	keystroke_v	v	n/a
325.5365	0.135	651073	keystroke_a	a	n/a
326.257	0.105	652514	keystroke_n	n	n/a
326.857	0.15	653714	keystroke_t	t	n/a
326.977	0.105	653954	keystroke_a	a	n/a
327.142	0.1195	654284	keystroke_g	g	n/a
327.187	0.1795	654374	keystroke_e	e	n/a
327.2625	0.119	654525	keystroke_s	s	n/a
327.3515	0.12	654703	keystroke_Key.space	Key.space	n/a
327.5765	0.09	655153	keystroke_a	a	n/a
327.6675	0.059	655335	keystroke_n	n	n/a
327.8015	0.09	655603	keystroke_n	n	n/a
327.8615	0.12	655723	keystroke_e	e	n/a
327.9515	0.105	655903	keystroke_Key.space	Key.space	n/a
328.147	0.06	656294	keystroke_o	o	n/a
328.297	0.105	656594	keystroke_n	n	n/a
328.507	0.1195	657014	keystroke_t	t	n/a
329.3315	0.12	658663	keystroke_a	a	n/a
329.4215	0.12	658843	keystroke_r	r	n/a
329.5265	0.135	659053	keystroke_i	i	n/a
329.5865	0.12	659173	keystroke_o	o	n/a
329.9465	0.12	659893	keystroke_Key.enter	Key.enter	n/a
330.0715	7.0175	660143	prompt	n/a	signatures treasure stickers received\n
330.697	0.09	661394	keystroke_s	s	n/a
330.802	0.1195	661604	keystroke_i	i	n/a
330.9365	0.09	661873	keystroke_g	g	n/a
331.1165	0.09	662233	keystroke_n	n	n/a
331.2215	0.1195	662443	keystroke_a	a	n/a
331.3115	0.1055	662623	keystroke_t	t	n/a
331.446	0.106	662892	keystroke_u	u	n/a
331.522	0.135	663044	keystroke_r	r	n/a
331.567	0.165	663134	keystroke_e	e	n/a
331.641	0.106	663282	keystroke_s	s	n/a
331.671	0.15	663342	keystroke_Key.space	Key.space	n/a
331.852	0.09	663704	keystroke_t	t	n/a
332.016	0.106	664032	keystroke_r	r	n/a
332.1965	0.105	664393	keystroke_e	e	n/a
332.2565	0.195	664513	keystroke_a	a	n/a
332.3915	0.105	664783	keystroke_s	s	n/a
332.5415	0.105	665083	keystroke_u	u	n/a
332.6165	0.1205	665233	keystroke_r	r	n/a
332.6765	0.1355	665353	keystroke_e	e	n/a
332.752	0.135	665504	keystroke_Key.space	Key.space	n/a
332.932	0.12	665864	keystroke_s	s	n/a
333.037	0.075	666074	keystroke_t	t	n/a
333.127	0.09	666254	keystroke_i	i	n/a
333.232	0.12	666464	keystroke_c	c	n/a
333.337	0.075	666674	keystroke_k	k	n/a
333.427	0.165	666854	keystroke_e	e	n/a
333.472	0.15	666944	keystroke_r	r	n/a
333.577	0.135	667154	keystroke_s	s	n/a
333.667	0.09	667334	keystroke_Key.space	Key.space	n/a
333.817	0.15	667634	keystroke_r	r	n/a
333.952	0.105	667904	keystroke_e	e	n/a
334.192	0.12	668384	keystroke_c	c	n/a
335.5115	0.075	671023	keystroke_e	e	n/a
336.0065	0.06	672013	keystroke_i	i	n/a
336.381	0.09	672762	keystroke_v	v	n/a
336.531	0.1355	673062	keystroke_e	e	n/a
336.592	0.149	673184	keystroke_d	d	n/a
336.937	0.149	673874	keystroke_Key.enter	Key.enter	n/a
337.092	7.151	674184	prompt	n/a	strictly tiger certificates nvidia\n
337.657	0.09	675314	keystroke_s	s	n/a
337.837	0.105	675674	keystroke_t	t	n/a
337.957	0.105	675914	keystroke_r	r	n/a
338.242	0.105	676484	keystroke_i	i	n/a
338.392	0.06	676784	keystroke_c	c	n/a
338.767	0.105	677534	keystroke_t	t	n/a
338.917	0.0745	677834	keystroke_l	l	n/a
338.9765	0.09	677953	keystroke_y	y	n/a
339.0815	0.12	678163	keystroke_Key.space	Key.space	n/a
339.2165	0.09	678433	keystroke_t	t	n/a
339.4265	0.09	678853	keystroke_i	i	n/a
339.5315	0.06	679063	keystroke_g	g	n/a
339.6215	0.135	679243	keystroke_e	e	n/a
339.6815	0.105	679363	keystroke_t	t	n/a
339.8615	0.12	679723	keystroke_e	e	n/a
340.8515	0.105	681703	keystroke_Key.backspace	Key.backspace	n/a
341.0915	0.09	682183	keystroke_Key.backspace	Key.backspace	n/a
341.3315	0.075	682663	keystroke_r	r	n/a
341.4365	0.105	682873	keystroke_Key.space	Key.space	n/a
341.5865	0.09	683173	keystroke_c	c	n/a
341.7665	0.12	683533	keystroke_e	e	n/a
341.8265	0.105	683653	keystroke_r	r	n/a
342.0215	0.075	684043	keystroke_t	t	n/a
342.1565	0.09	684313	keystroke_i	i	n/a
342.2615	0.075	684523	keystroke_f	f	n/a
342.4565	0.105	684913	keystroke_c	c	n/a
342.5015	0.105	685003	keystroke_a	a	n/a
342.6965	0.12	685393	keystroke_t	t	n/a
342.7415	0.165	685483	keystroke_e	e	n/a
342.7865	0.135	685573	keystroke_s	s	n/a
342.8915	0.12	685783	keystroke_Key.space	Key.space	n/a
343.1465	0.105	686293	keystroke_n	n	n/a
343.2665	0.09	686533	keystroke_v	v	n/a
343.6715	0.09	687343	keystroke_i	i	n/a
343.7765	0.09	687553	keystroke_d	d	n/a
343.8965	0.06	687793	keystroke_i	i	n/a
343.9415	0.105	687883	keystroke_a	a	n/a
344.1365	0.105	688273	keystroke_Key.enter	Key.enter	n/a
344.247	7.631	688494	prompt	n/a	petersburg hourly discusses vocational\n
344.9915	0.09	689983	keystroke_p	p	n/a
345.0815	0.12	690163	keystroke_e	e	n/a
345.1565	0.12	690313	keystroke_t	t	n/a
345.3515	0.135	690703	keystroke_e	e	n/a
345.4265	0.15	690853	keystroke_r	r	n/a
345.5465	0.105	691093	keystroke_s	s	n/a
346.0115	0.105	692023	keystroke_b	b	n/a
346.0565	0.105	692113	keystroke_u	u	n/a
346.132	0.0745	692264	keystroke_r	r	n/a
346.312	0.105	692624	keystroke_g	g	n/a
346.402	0.09	692804	keystroke_Key.space	Key.space	n/a
346.537	0.09	693074	keystroke_h	h	n/a
346.702	0.105	693404	keystroke_o	o	n/a
346.762	0.105	693524	keystroke_u	u	n/a
346.852	0.09	693704	keystroke_r	r	n/a
346.957	0.09	693914	keystroke_l	l	n/a
347.062	0.09	694124	keystroke_y	y	n/a
347.137	0.105	694274	keystroke_Key.space	Key.space	n/a
347.287	0.09	694574	keystroke_d	d	n/a
347.377	0.09	694754	keystroke_i	i	n/a
347.482	0.075	694964	keystroke_s	s	n/a
347.602	0.12	695204	keystroke_c	c	n/a
347.737	0.06	695474	keystroke_u	u	n/a
348.3665	0.075	696733	keystroke_s	s	n/a
348.5165	0.075	697033	keystroke_s	s	n/a
348.6515	0.105	697303	keystroke_e	e	n/a
348.7115	0.105	697423	keystroke_s	s	n/a
349.1465	0.1195	698293	keystroke_Key.space	Key.space	n/a
349.386	0.075	698772	keystroke_v	v	n/a
349.476	0.09	698952	keystroke_o	o	n/a
349.5965	0.1495	699193	keystroke_c	c	n/a
350.392	0.0445	700784	keystroke_a	a	n/a
350.5715	0.09	701143	keystroke_t	t	n/a
350.6465	0.105	701293	keystroke_i	i	n/a
350.6915	0.105	701383	keystroke_o	o	n/a
350.8715	0.09	701743	keystroke_n	n	n/a
350.9165	0.12	701833	keystroke_a	a	n/a
351.0215	0.12	702043	keystroke_l	l	n/a
351.0815	0.15	702163	keystroke_Key.space	Key.space	n/a
351.6815	0.195	703363	keystroke_Key.enter	Key.enter	n/a
351.881	4.257	703762	prompt	n/a	subscribers comics wine starting\n
352.4915	0.06	704983	keystroke_s	s	n/a
352.6115	0.09	705223	keystroke_u	u	n/a
352.7165	0.09	705433	keystroke_b	b	n/a
352.8665	0.135	705733	keystroke_s	s	n/a
352.9415	0.12	705883	keystroke_c	c	n/a
353.167	0.075	706334	keystroke_r	r	n/a
353.257	0.075	706514	keystroke_i	i	n/a
353.347	0.075	706694	keystroke_b	b	n/a
353.467	0.195	706934	keystroke_e	e	n/a
353.557	0.12	707114	keystroke_r	r	n/a
353.617	0.135	707234	keystroke_s	s	n/a
353.737	0.12	707474	keystroke_Key.space	Key.space	n/a
353.917	0.12	707834	keystroke_c	c	n/a
354.007	0.075	708014	keystroke_o	o	n/a
354.112	0.15	708224	keystroke_m	m	n/a
354.277	0.135	708554	keystroke_i	i	n/a
354.382	0.135	708764	keystroke_c	c	n/a
354.442	0.105	708884	keystroke_s	s	n/a
354.532	0.09	709064	keystroke_Key.space	Key.space	n/a
354.877	0.075	709754	keystroke_w	w	n/a
354.922	0.075	709844	keystroke_i	i	n/a
355.012	0.165	710024	keystroke_n	n	n/a
355.072	0.105	710144	keystroke_e	e	n/a
355.192	0.12	710384	keystroke_Key.space	Key.space	n/a
355.267	0.105	710534	keystroke_s	s	n/a
355.357	0.075	710714	keystroke_t	t	n/a
355.462	0.12	710924	keystroke_a	a	n/a
355.522	0.076	711044	keystroke_r	r	n/a
355.672	0.09	711344	keystroke_t	t	n/a
355.732	0.1195	711464	keystroke_i	i	n/a
355.807	0.1045	711614	keystroke_n	n	n/a
355.8965	0.105	711793	keystroke_g	g	n/a
356.0165	0.12	712033	keystroke_Key.enter	Key.enter	n/a
356.146	6.337	712292	prompt	n/a	mechanisms felt theta entertaining\n
356.857	0.09	713714	keystroke_m	m	n/a
356.962	0.09	713924	keystroke_e	e	n/a
357.172	0.09	714344	keystroke_c	c	n/a
357.277	0.075	714554	keystroke_h	h	n/a
357.382	0.105	714764	keystroke_a	a	n/a
357.472	0.105	714944	keystroke_n	n	n/a
357.517	0.12	715034	keystroke_i	i	n/a
358.8065	0.09	717613	keystroke_s	s	n/a
358.8815	0.105	717763	keystroke_m	m	n/a
359.0015	0.105	718003	keystroke_s	s	n/a
359.4215	0.135	718843	keystroke_Key.space	Key.space	n/a
359.6015	0.045	719203	keystroke_f	f	n/a
359.6165	0.105	719233	keystroke_e	e	n/a
359.7065	0.12	719413	keystroke_l	l	n/a
359.8115	0.105	719623	keystroke_t	t	n/a
359.9015	0.1205	719803	keystroke_Key.space	Key.space	n/a
360.127	0.0895	720254	keystroke_t	t	n/a
360.2615	0.09	720523	keystroke_h	h	n/a
360.3965	0.12	720793	keystroke_e	e	n/a
360.6215	0.105	721243	keystroke_t	t	n/a
360.6965	0.12	721393	keystroke_a	a	n/a
360.8315	0.12	721663	keystroke_Key.space	Key.space	n/a
361.0265	0.12	722053	keystroke_e	e	n/a
361.1615	0.075	722323	keystroke_n	n	n/a
361.2515	0.1045	722503	keystroke_t	t	n/a
361.371	0.135	722742	keystroke_e	e	n/a
361.446	0.105	722892	keystroke_r	r	n/a
361.671	0.105	723342	keystroke_t	t	n/a
361.731	0.0905	723462	keystroke_a	a	n/a
361.836	0.0905	723672	keystroke_i	i	n/a
361.941	0.12	723882	keystroke_n	n	n/a
362.046	0.12	724092	keystroke_i	i	n/a
362.136	0.09	724272	keystroke_n	n	n/a
362.196	0.09	724392	keystroke_g	g	n/a
362.3765	0.1045	724753	keystroke_Key.enter	Key.enter	n/a
362.487	5.591	724974	prompt	n/a	worth uniprotkb most upgrades\n
363.081	0.105	726162	keystroke_w	w	n/a
363.666	0.0905	727332	keystroke_o	o	n/a
363.741	0.0755	727482	keystroke_r	r	n/a
363.891	0.12	727782	keystroke_t	t	n/a
363.9665	0.105	727933	keystroke_h	h	n/a
364.0265	0.135	728053	keystroke_Key.space	Key.space	n/a
364.2665	0.075	728533	keystroke_u	u	n/a
364.4615	0.12	728923	keystroke_n	n	n/a
364.5365	0.105	729073	keystroke_i	i	n/a
364.8215	0.105	729643	keystroke_p	p	n/a
365.2865	0.09	730573	keystroke_r	r	n/a
365.4065	0.075	730813	keystroke_o	o	n/a
365.5265	0.09	731053	keystroke_t	t	n/a
365.7665	0.075	731533	keystroke_k	k	n/a
366.0665	0.1195	732133	keystroke_b	b	n/a
366.411	0.06	732822	keystroke_Key.space	Key.space	n/a
366.501	0.1505	733002	keystroke_m	m	n/a
366.5615	0.135	733123	keystroke_o	o	n/a
366.6665	0.075	733333	keystroke_s	s	n/a
366.6815	0.1205	733363	keystroke_t	t	n/a
366.771	0.075	733542	keystroke_Key.space	Key.space	n/a
366.967	0.119	733934	keystroke_u	u	n/a
367.101	0.106	734202	keystroke_p	p	n/a
367.161	0.061	734322	keystroke_g	g	n/a
367.327	0.105	734654	keystroke_r	r	n/a
367.387	0.104	734774	keystroke_a	a	n/a
367.551	0.196	735102	keystroke_d	d	n/a
367.627	0.164	735254	keystroke_e	e	n/a
367.747	0.075	735494	keystroke_s	s	n/a
367.941	0.135	735882	keystroke_Key.enter	Key.enter	n/a
368.0825	5.5155	736165	prompt	n/a	personnel improved continue writings\n
368.662	0.105	737324	keystroke_p	p	n/a
368.752	0.1345	737504	keystroke_e	e	n/a
368.7965	0.15	737593	keystroke_r	r	n/a
368.8715	0.15	737743	keystroke_s	s	n/a
368.9765	0.105	737953	keystroke_o	o	n/a
369.5015	0.06	739003	keystroke_n	n	n/a
369.6515	0.09	739303	keystroke_n	n	n/a
369.7425	0.119	739485	keystroke_e	e	n/a
369.8465	0.12	739693	keystroke_l	l	n/a
369.9215	0.135	739843	keystroke_Key.space	Key.space	n/a
370.162	0.075	740324	keystroke_i	i	n/a
370.282	0.104	740564	keystroke_m	m	n/a
370.432	0.105	740864	keystroke_p	p	n/a
370.552	0.074	741104	keystroke_r	r	n/a
370.642	0.074	741284	keystroke_o	o	n/a
370.732	0.074	741464	keystroke_v	v	n/a
370.866	0.12	741732	keystroke_e	e	n/a
370.927	0.119	741854	keystroke_d	d	n/a
371.031	0.075	742062	keystroke_Key.space	Key.space	n/a
371.241	0.076	742482	keystroke_c	c	n/a
371.271	0.09	742542	keystroke_o	o	n/a
371.436	0.12	742872	keystroke_n	n	n/a
371.631	0.106	743262	keystroke_t	t	n/a
371.751	0.09	743502	keystroke_i	i	n/a
371.886	0.195	743772	keystroke_n	n	n/a
372.006	0.136	744012	keystroke_u	u	n/a
372.172	0.105	744344	keystroke_e	e	n/a
372.247	0.135	744494	keystroke_Key.space	Key.space	n/a
372.562	0.12	745124	keystroke_w	w	n/a
372.637	0.12	745274	keystroke_r	r	n/a
372.802	0.09	745604	keystroke_i	i	n/a
372.892	0.105	745784	keystroke_t	t	n/a
372.982	0.12	745964	keystroke_i	i	n/a
373.057	0.12	746114	keystroke_n	n	n/a
373.146	0.091	746292	keystroke_g	g	n/a
373.192	0.119	746384	keystroke_s	s	n/a
373.462	0.135	746924	keystroke_Key.enter	Key.enter	n/a
373.6025	5.366	747205	prompt	n/a	swap facing photos arlington\n
374.242	0.075	748484	keystroke_s	s	n/a
374.422	0.105	748844	keystroke_w	w	n/a
374.467	0.12	748934	keystroke_a	a	n/a
374.512	0.09	749024	keystroke_p	p	n/a
374.572	0.12	749144	keystroke_Key.space	Key.space	n/a
374.707	0.075	749414	keystroke_f	f	n/a
374.752	0.09	749504	keystroke_a	a	n/a
374.887	0.09	749774	keystroke_c	c	n/a
374.946	0.121	749892	keystroke_i	i	n/a
375.007	0.12	750014	keystroke_n	n	n/a
375.097	0.09	750194	keystroke_g	g	n/a
375.202	0.075	750404	keystroke_Key.space	Key.space	n/a
375.322	0.1195	750644	keystroke_p	p	n/a
375.4265	0.075	750853	keystroke_h	h	n/a
375.5615	0.075	751123	keystroke_o	o	n/a
375.6215	0.075	751243	keystroke_t	t	n/a
375.9815	0.105	751963	keystroke_o	o	n/a
376.0865	0.1345	752173	keystroke_Key.space	Key.space	n/a
377.3465	0.105	754693	keystroke_Key.backspace	Key.backspace	n/a
377.5715	0.105	755143	keystroke_s	s	n/a
377.6615	0.09	755323	keystroke_Key.space	Key.space	n/a
377.8265	0.12	755653	keystroke_a	a	n/a
377.9015	0.09	755803	keystroke_r	r	n/a
378.0065	0.12	756013	keystroke_l	l	n/a
378.1115	0.09	756223	keystroke_i	i	n/a
378.2615	0.105	756523	keystroke_n	n	n/a
378.3515	0.045	756703	keystroke_g	g	n/a
378.4715	0.105	756943	keystroke_t	t	n/a
378.5315	0.075	757063	keystroke_o	o	n/a
378.6665	0.075	757333	keystroke_n	n	n/a
378.8615	0.105	757723	keystroke_Key.enter	Key.enter	n/a
378.9715	3.552	757943	prompt	n/a	jack economy essay costs\n
379.6415	0.105	759283	keystroke_j	j	n/a
379.7315	0.12	759463	keystroke_a	a	n/a
379.7765	0.15	759553	keystroke_c	c	n/a
379.8665	0.09	759733	keystroke_k	k	n/a
379.9115	0.12	759823	keystroke_Key.space	Key.space	n/a
380.0465	0.1055	760093	keystroke_e	e	n/a
380.272	0.1345	760544	keystroke_c	c	n/a
380.3915	0.075	760783	keystroke_o	o	n/a
380.4815	0.075	760963	keystroke_n	n	n/a
380.5715	0.09	761143	keystroke_o	o	n/a
380.6765	0.12	761353	keystroke_m	m	n/a
380.7665	0.09	761533	keystroke_y	y	n/a
380.8715	0.105	761743	keystroke_Key.space	Key.space	n/a
380.9315	0.12	761863	keystroke_e	e	n/a
381.0065	0.075	762013	keystroke_s	s	n/a
381.1415	0.075	762283	keystroke_s	s	n/a
381.2915	0.09	762583	keystroke_a	a	n/a
381.3665	0.105	762733	keystroke_y	y	n/a
381.4115	0.12	762823	keystroke_Key.space	Key.space	n/a
381.5765	0.1045	763153	keystroke_c	c	n/a
381.666	0.105	763332	keystroke_o	o	n/a
381.786	0.06	763572	keystroke_s	s	n/a
381.861	0.15	763722	keystroke_t	t	n/a
381.966	0.12	763932	keystroke_s	s	n/a
382.416	0.1065	764832	keystroke_Key.enter	Key.enter	n/a
382.528	5.425	765056	prompt	n/a	flex haven't inform steam\n
383.1965	0.105	766393	keystroke_f	f	n/a
383.2865	0.09	766573	keystroke_l	l	n/a
383.3615	0.12	766723	keystroke_e	e	n/a
383.4825	0.119	766965	keystroke_x	x	n/a
383.6165	0.06	767233	keystroke_Key.space	Key.space	n/a
383.7665	0.12	767533	keystroke_h	h	n/a
383.8415	0.15	767683	keystroke_a	a	n/a
384.0365	0.105	768073	keystroke_v	v	n/a
384.0965	0.105	768193	keystroke_e	e	n/a
384.1715	0.09	768343	keystroke_n	n	n/a
384.472	0.0745	768944	keystroke_t	t	n/a
385.2665	0.0905	770533	keystroke_Key.backspace	Key.backspace	n/a
385.837	0.105	771674	keystroke_'	'	n/a
385.987	0.105	771974	keystroke_t	t	n/a
386.106	0.0905	772212	keystroke_Key.space	Key.space	n/a
386.2865	0.0905	772573	keystroke_i	i	n/a
386.437	0.119	772874	keystroke_n	n	n/a
386.647	0.12	773294	keystroke_f	f	n/a
386.781	0.076	773562	keystroke_o	o	n/a
386.887	0.089	773774	keystroke_r	r	n/a
386.961	0.136	773922	keystroke_m	m	n/a
387.111	0.1205	774222	keystroke_Key.space	Key.space	n/a
387.2615	0.09	774523	keystroke_s	s	n/a
387.3365	0.075	774673	keystroke_t	t	n/a
387.5165	0.105	775033	keystroke_e	e	n/a
387.5615	0.12	775123	keystroke_a	a	n/a
387.6365	0.075	775273	keystroke_m	m	n/a
387.8465	0.105	775693	keystroke_Key.enter	Key.enter	n/a
387.957	5.336	775914	prompt	n/a	stay detected pope increasingly\n
388.6715	0.09	777343	keystroke_s	s	n/a
388.7765	0.12	777553	keystroke_t	t	n/a
388.8665	0.09	777733	keystroke_a	a	n/a
388.9865	0.105	777973	keystroke_y	y	n/a
389.0465	0.135	778093	keystroke_e	e	n/a
389.1215	0.105	778243	keystroke_d	d	n/a
389.1965	0.09	778393	keystroke_Key.space	Key.space	n/a
389.3165	0.15	778633	keystroke_d	d	n/a
389.4065	0.135	778813	keystroke_e	e	n/a
389.5865	0.12	779173	keystroke_t	t	n/a
389.6615	0.135	779323	keystroke_e	e	n/a
390.1115	0.1655	780223	keystroke_c	c	n/a
390.292	0.0905	780584	keystroke_t	t	n/a
390.3665	0.135	780733	keystroke_e	e	n/a
390.4565	0.135	780913	keystroke_d	d	n/a
390.5465	0.105	781093	keystroke_Key.space	Key.space	n/a
390.7115	0.105	781423	keystroke_p	p	n/a
390.8315	0.135	781663	keystroke_o	o	n/a
390.9215	0.09	781843	keystroke_p	p	n/a
390.9965	0.105	781993	keystroke_e	e	n/a
391.0865	0.075	782173	keystroke_Key.space	Key.space	n/a
391.2515	0.09	782503	keystroke_i	i	n/a
391.3265	0.135	782653	keystroke_n	n	n/a
391.4165	0.12	782833	keystroke_c	c	n/a
391.641	0.075	783282	keystroke_r	r	n/a
391.792	0.09	783584	keystroke_e	e	n/a
391.836	0.136	783672	keystroke_a	a	n/a
391.926	0.12	783852	keystroke_s	s	n/a
392.106	0.09	784212	keystroke_i	i	n/a
392.316	0.09	784632	keystroke_n	n	n/a
392.617	0.164	785234	keystroke_g	g	n/a
392.812	0.104	785624	keystroke_l	l	n/a
392.931	0.12	785862	keystroke_y	y	n/a
393.201	0.09	786402	keystroke_Key.enter	Key.enter	n/a
393.2975	4.4505	786595	prompt	n/a	sunday float passion paragraph\n
393.892	0.089	787784	keystroke_s	s	n/a
394.027	0.105	788054	keystroke_u	u	n/a
394.326	0.076	788652	keystroke_n	n	n/a
394.431	0.12	788862	keystroke_d	d	n/a
394.476	0.135	788952	keystroke_a	a	n/a
394.612	0.089	789224	keystroke_y	y	n/a
394.671	0.09	789342	keystroke_Key.space	Key.space	n/a
394.7915	0.105	789583	keystroke_f	f	n/a
394.9115	0.045	789823	keystroke_l	l	n/a
395.061	0.075	790122	keystroke_o	o	n/a
395.121	0.075	790242	keystroke_a	a	n/a
395.151	0.105	790302	keystroke_t	t	n/a
395.211	0.09	790422	keystroke_Key.space	Key.space	n/a
395.361	0.1055	790722	keystroke_p	p	n/a
395.4815	0.09	790963	keystroke_a	a	n/a
395.5565	0.045	791113	keystroke_s	s	n/a
395.6615	0.12	791323	keystroke_s	s	n/a
395.7665	0.135	791533	keystroke_i	i	n/a
395.8415	0.075	791683	keystroke_o	o	n/a
396.0365	0.09	792073	keystroke_n	n	n/a
396.4565	0.09	792913	keystroke_Key.space	Key.space	n/a
396.6515	0.09	793303	keystroke_p	p	n/a
396.7265	0.106	793453	keystroke_a	a	n/a
396.8015	0.121	793603	keystroke_r	r	n/a
396.8915	0.105	793783	keystroke_a	a	n/a
397.0415	0.075	794083	keystroke_g	g	n/a
397.2065	0.09	794413	keystroke_r	r	n/a
397.2365	0.12	794473	keystroke_a	a	n/a
397.2815	0.06	794563	keystroke_p	p	n/a
397.4465	0.075	794893	keystroke_h	h	n/a
397.6565	0.09	795313	keystroke_Key.enter	Key.enter	n/a
397.753	5.8005	795506	prompt	n/a	tracking roommate side panama\n
398.4515	0.06	796903	keystroke_t	t	n/a
398.6015	0.09	797203	keystroke_r	r	n/a
398.6615	0.12	797323	keystroke_a	a	n/a
398.7965	0.105	797593	keystroke_c	c	n/a
398.8715	0.06	797743	keystroke_k	k	n/a
399.0065	0.105	798013	keystroke_i	i	n/a
399.0665	0.12	798133	keystroke_n	n	n/a
399.1265	0.075	798253	keystroke_g	g	n/a
399.2315	0.09	798463	keystroke_Key.space	Key.space	n/a
399.3365	0.09	798673	keystroke_r	r	n/a
399.4115	0.06	798823	keystroke_o	o	n/a
399.5615	0.075	799123	keystroke_o	o	n/a
400.3415	0.075	800683	keystroke_m	m	n/a
400.627	0.09	801254	keystroke_m	m	n/a
400.702	0.105	801404	keystroke_a	a	n/a
400.762	0.12	801524	keystroke_t	t	n/a
400.837	0.12	801674	keystroke_e	e	n/a
400.942	0.09	801884	keystroke_Key.space	Key.space	n/a
401.542	0.075	803084	keystroke_s	s	n/a
401.692	0.105	803384	keystroke_i	i	n/a
401.812	0.15	803624	keystroke_d	d	n/a
401.887	0.135	803774	keystroke_e	e	n/a
401.992	0.135	803984	keystroke_Key.space	Key.space	n/a
402.3365	0.075	804673	keystroke_p	p	n/a
402.4865	0.105	804973	keystroke_a	a	n/a
402.5765	0.075	805153	keystroke_n	n	n/a
402.6965	0.105	805393	keystroke_a	a	n/a
402.7865	0.09	805573	keystroke_m	m	n/a
403.132	0.105	806264	keystroke_a	a	n/a
403.447	0.105	806894	keystroke_Key.enter	Key.enter	n/a
403.5575	4.9455	807115	prompt	n/a	shortcuts pollution investors regular\n
404.347	0.105	808694	keystroke_s	s	n/a
404.421	0.076	808842	keystroke_h	h	n/a
404.512	0.105	809024	keystroke_o	o	n/a
404.602	0.075	809204	keystroke_r	r	n/a
404.752	0.09	809504	keystroke_t	t	n/a
405.007	0.09	810014	keystroke_c	c	n/a
405.127	0.09	810254	keystroke_u	u	n/a
405.231	0.121	810462	keystroke_t	t	n/a
405.307	0.105	810614	keystroke_s	s	n/a
405.366	0.09	810732	keystroke_Key.space	Key.space	n/a
405.501	0.121	811002	keystroke_p	p	n/a
405.607	0.105	811214	keystroke_o	o	n/a
405.831	0.0455	811662	keystroke_l	l	n/a
405.951	0.076	811902	keystroke_l	l	n/a
406.087	0.0745	812174	keystroke_u	u	n/a
406.192	0.104	812384	keystroke_t	t	n/a
406.281	0.105	812562	keystroke_i	i	n/a
406.326	0.075	812652	keystroke_o	o	n/a
406.4765	0.0895	812953	keystroke_n	n	n/a
406.536	0.1055	813072	keystroke_Key.space	Key.space	n/a
406.656	0.076	813312	keystroke_i	i	n/a
406.747	0.12	813494	keystroke_n	n	n/a
406.852	0.15	813704	keystroke_v	v	n/a
406.927	0.195	813854	keystroke_e	e	n/a
407.017	0.165	814034	keystroke_s	s	n/a
407.212	0.105	814424	keystroke_t	t	n/a
407.392	0.09	814784	keystroke_o	o	n/a
407.467	0.12	814934	keystroke_r	r	n/a
407.527	0.12	815054	keystroke_s	s	n/a
407.647	0.105	815294	keystroke_Key.space	Key.space	n/a
407.782	0.105	815564	keystroke_r	r	n/a
407.857	0.105	815714	keystroke_e	e	n/a
407.977	0.09	815954	keystroke_g	g	n/a
408.037	0.1195	816074	keystroke_u	u	n/a
408.127	0.1045	816254	keystroke_l	l	n/a
