onset	duration	sample	value	key	prompt_text
1.1985	13.023	2397	prompt	n/a	the quick brown fox jumps over a lazy dog\n
2.8405	0.027	5681	keystroke_t	t	n/a
2.841	0.1015	5682	keystroke_h	h	n/a
3.0325	0.075	6065	keystroke_w	w	n/a
3.0475	0.1355	6095	keystroke_Key.space	Key.space	n/a
3.813	0.0595	7626	keystroke_Key.backspace	Key.backspace	n/a
3.978	0.105	7956	keystroke_Key.backspace	Key.backspace	n/a
4.158	0.1475	8316	keystroke_e	e	n/a
4.3345	0.12	8669	keystroke_Key.space	Key.space	n/a
4.978	0.151	9956	keystroke_q	q	n/a
5.1585	0.1205	10317	keystroke_u	u	n/a
5.2485	0.1495	10497	keystroke_i	i	n/a
5.444	0.1195	10888	keystroke_c	c	n/a
5.5185	0.1945	11037	keystroke_k	k	n/a
5.6535	0.1045	11307	keystroke_Key.space	Key.space	n/a
5.863	0.1205	11726	keystroke_b	b	n/a
6.1185	0.1345	12237	keystroke_o	o	n/a
6.568	0.12	13136	keystroke_Key.backspace	Key.backspace	n/a
6.8235	0.0745	13647	keystroke_r	r	n/a
6.9285	0.119	13857	keystroke_o	o	n/a
7.0325	0.165	14065	keystroke_w	w	n/a
7.168	0.195	14336	keystroke_n	n	n/a
7.2885	0.15	14577	keystroke_Key.space	Key.space	n/a
7.919	0.1045	15838	keystroke_f	f	n/a
8.0385	0.135	16077	keystroke_o	o	n/a
8.324	0.119	16648	keystroke_x	x	n/a
8.3995	0.089	16799	keystroke_Key.space	Key.space	n/a
8.608	0.105	17216	keystroke_j	j	n/a
8.863	0.12	17726	keystroke_u	u	n/a
9.1185	0.1195	18237	keystroke_m	m	n/a
9.838	0.1205	19676	keystroke_p	p	n/a
10.0035	0.1655	20007	keystroke_s	s	n/a
10.123	0.12	20246	keystroke_Key.space	Key.space	n/a
10.319	0.1195	20638	keystroke_o	o	n/a
10.573	0.1205	21146	keystroke_v	v	n/a
10.6785	0.1795	21357	keystroke_e	e	n/a
10.8285	0.09	21657	keystroke_Key.space	Key.space	n/a
11.383	0.105	22766	keystroke_Key.backspace	Key.backspace	n/a
11.504	0.0745	23008	keystroke_r	r	n/a
11.5935	0.105	23187	keystroke_Key.space	Key.space	n/a
11.7135	0.135	23427	keystroke_a	a	n/a
11.8335	0.06	23667	keystroke_Key.space	Key.space	n/a
11.983	0.135	23966	keystroke_l	l	n/a
12.359	0.1045	24718	keystroke_a	a	n/a
12.8235	0.2245	25647	keystroke_z	z	n/a
12.974	0.12	25948	keystroke_y	y	n/a
13.0185	0.1345	26037	keystroke_Key.space	Key.space	n/a
13.213	0.1805	26426	keystroke_d	d	n/a
13.318	0.15	26636	keystroke_o	o	n/a
14.023	0.1355	28046	keystroke_g	g	n/a
14.128	0.09	28256	keystroke_Key.enter	Key.enter	n/a
14.228	9.5625	28456	prompt	n/a	blow tobago palestinian presence\n
15.074	0.104	30148	keystroke_b	b	n/a
15.358	0.09	30716	keystroke_l	l	n/a
15.5685	0.105	31137	keystroke_o	o	n/a
15.689	0.135	31378	keystroke_w	w	n/a
15.793	0.135	31586	keystroke_Key.space	Key.space	n/a
16.3035	0.0895	32607	keystroke_o	o	n/a
16.7985	0.1505	33597	keystroke_Key.backspace	Key.backspace	n/a
16.978	0.12	33956	keystroke_t	t	n/a
17.053	0.165	34106	keystroke_o	o	n/a
17.429	0.12	34858	keystroke_b	b	n/a
17.563	0.1355	35126	keystroke_a	a	n/a
17.8785	0.15	35757	keystroke_g	g	n/a
18.0135	0.195	36027	keystroke_o	o	n/a
18.313	0.1055	36626	keystroke_Key.space	Key.space	n/a
18.643	0.1355	37286	keystroke_p	p	n/a
18.7935	0.1355	37587	keystroke_a	a	n/a
19.048	0.1355	38096	keystroke_l	l	n/a
19.1985	0.1495	38397	keystroke_e	e	n/a
20.188	0.2855	40376	keystroke_s	s	n/a
20.699	0.179	41398	keystroke_t	t	n/a
20.8485	0.135	41697	keystroke_i	i	n/a
21.104	0.09	42208	keystroke_n	n	n/a
21.314	0.135	42628	keystroke_i	i	n/a
21.674	0.165	43348	keystroke_a	a	n/a
21.824	0.195	43648	keystroke_n	n	n/a
21.944	0.134	43888	keystroke_Key.space	Key.space	n/a
22.244	0.134	44488	keystroke_p	p	n/a
22.453	0.151	44906	keystroke_r	r	n/a
22.558	0.121	45116	keystroke_e	e	n/a
22.7685	0.1795	45537	keystroke_s	s	n/a
22.828	0.285	45656	keystroke_e	e	n/a
23.023	0.121	46046	keystroke_n	n	n/a
23.353	0.2105	46706	keystroke_c	c	n/a
23.458	0.1805	46916	keystroke_e	e	n/a
23.713	0.075	47426	keystroke_Key.enter	Key.enter	n/a
23.795	12.0555	47590	prompt	n/a	outlet haven proposition smell\n
24.659	0.21	49318	keystroke_o	o	n/a
24.989	0.15	49978	keystroke_t	t	n/a
25.0485	0.1655	50097	keystroke_u	u	n/a
25.844	0.06	51688	keystroke_Key.backspace	Key.backspace	n/a
25.9935	0.0905	51987	keystroke_Key.backspace	Key.backspace	n/a
26.219	0.134	52438	keystroke_u	u	n/a
26.443	0.091	52886	keystroke_t	t	n/a
27.089	0.105	54178	keystroke_l	l	n/a
27.2235	0.12	54447	keystroke_e	e	n/a
27.434	0.165	54868	keystroke_t	t	n/a
27.5835	0.1205	55167	keystroke_Key.space	Key.space	n/a
27.869	0.12	55738	keystroke_h	h	n/a
28.0035	0.165	56007	keystroke_a	a	n/a
28.108	0.135	56216	keystroke_v	v	n/a
28.289	0.195	56578	keystroke_e	e	n/a
28.499	0.165	56998	keystroke_n	n	n/a
28.634	0.09	57268	keystroke_Key.space	Key.space	n/a
28.9185	0.1355	57837	keystroke_p	p	n/a
30.4335	0.1495	60867	keystroke_r	r	n/a
30.524	0.1045	61048	keystroke_o	o	n/a
30.7645	0.2245	61529	keystroke_p	p	n/a
30.8985	0.165	61797	keystroke_o	o	n/a
31.3785	0.24	62757	keystroke_s	s	n/a
33.0885	0.0905	66177	keystroke_Key.backspace	Key.backspace	n/a
34.0485	0.121	68097	keystroke_i	i	n/a
34.2285	0.18	68457	keystroke_s	s	n/a
34.4245	0.15	68849	keystroke_i	i	n/a
34.544	0.134	69088	keystroke_t	t	n/a
34.603	0.121	69206	keystroke_o	o	n/a
34.814	0.134	69628	keystroke_n	n	n/a
34.888	0.105	69776	keystroke_Key.space	Key.space	n/a
35.0985	0.1205	70197	keystroke_s	s	n/a
35.1885	0.0905	70377	keystroke_m	m	n/a
35.339	0.165	70678	keystroke_a	a	n/a
35.429	0.06	70858	keystroke_l	l	n/a
35.548	0.121	71096	keystroke_l	l	n/a
35.758	0.0905	71516	keystroke_Key.enter	Key.enter	n/a
35.855	6.6105	71710	prompt	n/a	demand tariff partners trio\n
36.974	0.1645	73948	keystroke_d	d	n/a
37.0335	0.15	74067	keystroke_e	e	n/a
37.094	0.1195	74188	keystroke_m	m	n/a
37.274	0.1805	74548	keystroke_a	a	n/a
37.5285	0.105	75057	keystroke_n	n	n/a
37.6035	0.15	75207	keystroke_d	d	n/a
37.768	0.0905	75536	keystroke_Key.space	Key.space	n/a
38.084	0.1195	76168	keystroke_t	t	n/a
38.324	0.1795	76648	keystroke_a	a	n/a
38.5485	0.09	77097	keystroke_r	r	n/a
38.6985	0.1505	77397	keystroke_i	i	n/a
39.1185	0.075	78237	keystroke_f	f	n/a
39.299	0.075	78598	keystroke_f	f	n/a
39.314	0.1045	78628	keystroke_Key.space	Key.space	n/a
39.524	0.135	79048	keystroke_p	p	n/a
39.554	0.18	79108	keystroke_a	a	n/a
39.7185	0.1505	79437	keystroke_r	r	n/a
39.959	0.18	79918	keystroke_t	t	n/a
40.259	0.225	80518	keystroke_e	e	n/a
40.394	0.09	80788	keystroke_n	n	n/a
40.409	0.24	80818	keystroke_r	r	n/a
40.8285	0.225	81657	keystroke_s	s	n/a
40.9935	0.1355	81987	keystroke_Key.space	Key.space	n/a
41.8035	0.135	83607	keystroke_t	t	n/a
41.8785	0.151	83757	keystroke_r	r	n/a
42.0145	0.075	84029	keystroke_i	i	n/a
42.1785	0.091	84357	keystroke_o	o	n/a
42.404	0.0595	84808	keystroke_Key.enter	Key.enter	n/a
42.4735	7.1175	84947	prompt	n/a	standings taylor virginia instance\n
43.214	0.105	86428	keystroke_s	s	n/a
43.4395	0.09	86879	keystroke_t	t	n/a
43.5735	0.196	87147	keystroke_a	a	n/a
43.6635	0.091	87327	keystroke_n	n	n/a
43.7385	0.135	87477	keystroke_d	d	n/a
43.8585	0.0755	87717	keystroke_i	i	n/a
43.9945	0.104	87989	keystroke_n	n	n/a
44.039	0.15	88078	keystroke_g	g	n/a
44.219	0.2095	88438	keystroke_s	s	n/a
44.384	0.1055	88768	keystroke_Key.space	Key.space	n/a
44.609	0.1195	89218	keystroke_t	t	n/a
44.759	0.2395	89518	keystroke_a	a	n/a
44.9535	0.135	89907	keystroke_y	y	n/a
45.2545	0.135	90509	keystroke_l	l	n/a
45.4485	0.15	90897	keystroke_r	r	n/a
45.4795	0.2395	90959	keystroke_o	o	n/a
45.6585	0.12	91317	keystroke_Key.space	Key.space	n/a
45.989	0.1505	91978	keystroke_v	v	n/a
46.2295	0.239	92459	keystroke_e	e	n/a
46.3345	0.164	92669	keystroke_r	r	n/a
46.4085	0.136	92817	keystroke_i	i	n/a
47.2035	0.031	94407	keystroke_g	g	n/a
47.2195	0.105	94439	keystroke_i	i	n/a
47.3535	0.1055	94707	keystroke_e	e	n/a
47.549	0.1495	95098	keystroke_n	n	n/a
47.5795	0.224	95159	keystroke_a	a	n/a
47.7885	0.1505	95577	keystroke_Key.space	Key.space	n/a
48.1045	0.0895	96209	keystroke_i	i	n/a
48.269	0.12	96538	keystroke_n	n	n/a
48.404	0.1645	96808	keystroke_s	s	n/a
48.6735	0.12	97347	keystroke_t	t	n/a
48.8085	0.0905	97617	keystroke_r	r	n/a
49.0035	0.1655	98007	keystroke_r	r	n/a
49.0185	0.165	98037	keystroke_e	e	n/a
49.199	0.1355	98398	keystroke_a	a	n/a
49.3495	0.2095	98699	keystroke_t	t	n/a
49.484	0.105	98968	keystroke_Key.enter	Key.enter	n/a
49.603	8.0585	99206	prompt	n/a	reunion presently popular convergence\n
50.4735	0.12	100947	keystroke_r	r	n/a
50.5635	0.15	101127	keystroke_e	e	n/a
50.8785	0.09	101757	keystroke_u	u	n/a
51.299	0.0895	102598	keystroke_n	n	n/a
51.4935	0.1055	102987	keystroke_i	i	n/a
51.7185	0.075	103437	keystroke_o	o	n/a
51.929	0.195	103858	keystroke_n	n	n/a
52.034	0.1345	104068	keystroke_Key.space	Key.space	n/a
52.2885	0.105	104577	keystroke_p	p	n/a
52.529	0.1655	105058	keystroke_r	r	n/a
52.6485	0.09	105297	keystroke_e	e	n/a
52.8435	0.2105	105687	keystroke_s	s	n/a
52.9335	0.2255	105867	keystroke_e	e	n/a
53.099	0.12	106198	keystroke_n	n	n/a
53.1745	0.1495	106349	keystroke_t	t	n/a
53.369	0.0905	106738	keystroke_l	l	n/a
53.504	0.0895	107008	keystroke_y	y	n/a
53.5785	0.1355	107157	keystroke_Key.space	Key.space	n/a
53.819	0.195	107638	keystroke_p	p	n/a
53.968	0.121	107936	keystroke_o	o	n/a
54.134	0.2845	108268	keystroke_p	p	n/a
54.4335	0.1355	108867	keystroke_i	i	n/a
54.7485	0.135	109497	keystroke_l	l	n/a
55.0185	0.12	110037	keystroke_a	a	n/a
55.184	0.1645	110368	keystroke_r	r	n/a
55.3635	0.1205	110727	keystroke_Key.space	Key.space	n/a
55.829	0.179	111658	keystroke_c	c	n/a
55.918	0.1055	111836	keystroke_o	o	n/a
56.099	0.09	112198	keystroke_n	n	n/a
56.234	0.12	112468	keystroke_v	v	n/a
56.4895	0.1945	112979	keystroke_e	e	n/a
56.609	0.105	113218	keystroke_r	r	n/a
56.8635	0.09	113727	keystroke_g	g	n/a
56.969	0.18	113938	keystroke_e	e	n/a
57.1045	0.0745	114209	keystroke_n	n	n/a
57.209	0.21	114418	keystroke_c	c	n/a
57.374	0.135	114748	keystroke_e	e	n/a
57.5835	0.0755	115167	keystroke_Key.enter	Key.enter	n/a
57.6785	6.492	115357	prompt	n/a	meditation kiss href madness\n
58.4545	0.15	116909	keystroke_m	m	n/a
58.723	0.135	117446	keystroke_e	e	n/a
58.934	0.15	117868	keystroke_d	d	n/a
59.038	0.121	118076	keystroke_i	i	n/a
59.339	0.09	118678	keystroke_t	t	n/a
59.4895	0.1795	118979	keystroke_a	a	n/a
59.6845	0.164	119369	keystroke_t	t	n/a
59.834	0.1345	119668	keystroke_i	i	n/a
59.924	0.1195	119848	keystroke_o	o	n/a
60.149	0.1345	120298	keystroke_n	n	n/a
60.1935	0.135	120387	keystroke_Key.space	Key.space	n/a
60.4935	0.0905	120987	keystroke_k	k	n/a
60.6585	0.12	121317	keystroke_i	i	n/a
60.7645	0.075	121529	keystroke_s	s	n/a
60.9585	0.15	121917	keystroke_s	s	n/a
61.019	0.12	122038	keystroke_Key.space	Key.space	n/a
61.1845	0.1345	122369	keystroke_h	h	n/a
61.424	0.18	122848	keystroke_r	r	n/a
61.544	0.136	123088	keystroke_e	e	n/a
62.174	0.165	124348	keystroke_g	g	n/a
62.34	0.1335	124680	keystroke_Key.space	Key.space	n/a
62.8795	0.1345	125759	keystroke_m	m	n/a
62.9695	0.164	125939	keystroke_a	a	n/a
63.1485	0.195	126297	keystroke_d	d	n/a
63.4035	0.105	126807	keystroke_n	n	n/a
63.569	0.1195	127138	keystroke_e	e	n/a
63.7785	0.075	127557	keystroke_s	s	n/a
63.973	0.15	127946	keystroke_s	s	n/a
64.063	0.1055	128126	keystroke_Key.enter	Key.enter	n/a
64.1765	6.5335	128353	prompt	n/a	miracle empirical blair he\n
64.799	0.105	129598	keystroke_m	m	n/a
65.039	0.12	130078	keystroke_i	i	n/a
65.2485	0.0905	130497	keystroke_r	r	n/a
65.3985	0.165	130797	keystroke_a	a	n/a
65.519	0.0745	131038	keystroke_b	b	n/a
65.8185	0.105	131637	keystroke_l	l	n/a
65.909	0.18	131818	keystroke_e	e	n/a
66.074	0.105	132148	keystroke_Key.space	Key.space	n/a
66.3885	0.1655	132777	keystroke_e	e	n/a
66.479	0.09	132958	keystroke_m	m	n/a
66.674	0.105	133348	keystroke_p	p	n/a
66.974	0.06	133948	keystroke_l	l	n/a
67.364	0.12	134728	keystroke_Key.backspace	Key.backspace	n/a
67.604	0.12	135208	keystroke_i	i	n/a
67.709	0.09	135418	keystroke_r	r	n/a
67.903	0.1355	135806	keystroke_i	i	n/a
68.1885	0.121	136377	keystroke_c	c	n/a
68.2185	0.21	136437	keystroke_a	a	n/a
68.324	0.18	136648	keystroke_l	l	n/a
68.4585	0.1055	136917	keystroke_Key.space	Key.space	n/a
69.4035	0.0905	138807	keystroke_b	b	n/a
69.6585	0.03	139317	keystroke_l	l	n/a
69.7335	0.15	139467	keystroke_a	a	n/a
69.8535	0.105	139707	keystroke_i	i	n/a
70.138	0.135	140276	keystroke_r	r	n/a
70.199	0.089	140398	keystroke_Key.space	Key.space	n/a
70.363	0.106	140726	keystroke_h	h	n/a
70.439	0.165	140878	keystroke_e	e	n/a
70.6495	0.0585	141299	keystroke_Key.enter	Key.enter	n/a
70.715	9.431	141430	prompt	n/a	proceed myanmar completely appeared\n
71.519	0.12	143038	keystroke_p	p	n/a
71.699	0.135	143398	keystroke_r	r	n/a
71.7885	0.09	143577	keystroke_o	o	n/a
72.1495	0.18	144299	keystroke_c	c	n/a
72.449	0.09	144898	keystroke_e	e	n/a
72.6145	0.2695	145229	keystroke_e	e	n/a
72.809	0.15	145618	keystroke_d	d	n/a
72.899	0.075	145798	keystroke_Key.space	Key.space	n/a
73.079	0.0905	146158	keystroke_m	m	n/a
73.3485	0.091	146697	keystroke_y	y	n/a
73.4685	0.166	146937	keystroke_a	a	n/a
73.5895	0.165	147179	keystroke_n	n	n/a
73.9645	0.1045	147929	keystroke_m	m	n/a
74.0835	0.075	148167	keystroke_a	a	n/a
74.309	0.1345	148618	keystroke_r	r	n/a
74.4285	0.1205	148857	keystroke_Key.space	Key.space	n/a
74.699	0.1795	149398	keystroke_c	c	n/a
74.7585	0.075	149517	keystroke_o	o	n/a
74.9385	0.076	149877	keystroke_m	m	n/a
75.134	0.045	150268	keystroke_p	p	n/a
75.284	0.135	150568	keystroke_l	l	n/a
75.3585	0.1355	150717	keystroke_e	e	n/a
75.6585	0.121	151317	keystroke_t	t	n/a
75.9285	0.2105	151857	keystroke_e	e	n/a
76.574	0.09	153148	keystroke_l	l	n/a
76.664	0.12	153328	keystroke_y	y	n/a
76.829	0.12	153658	keystroke_Key.space	Key.space	n/a
77.2495	0.0745	154499	keystroke_p	p	n/a
77.669	0.105	155338	keystroke_Key.backspace	Key.backspace	n/a
77.8035	0.1655	155607	keystroke_a	a	n/a
78.104	0.1045	156208	keystroke_p	p	n/a
78.689	0.1345	157378	keystroke_p	p	n/a
78.959	0.1945	157918	keystroke_r	r	n/a
79.0785	0.12	158157	keystroke_e	e	n/a
79.3035	0.1805	158607	keystroke_a	a	n/a
79.634	0.12	159268	keystroke_r	r	n/a
79.724	0.24	159448	keystroke_e	e	n/a
80.039	0.105	160078	keystroke_Key.enter	Key.enter	n/a
80.1525	5.048	160305	prompt	n/a	cents post aims gratuit\n
80.999	0.1345	161998	keystroke_c	c	n/a
81.2395	0.165	162479	keystroke_e	e	n/a
81.3585	0.1055	162717	keystroke_n	n	n/a
81.4485	0.1055	162897	keystroke_t	t	n/a
81.7335	0.151	163467	keystroke_s	s	n/a
81.839	0.1045	163678	keystroke_Key.space	Key.space	n/a
82.0185	0.24	164037	keystroke_p	p	n/a
82.1535	0.165	164307	keystroke_o	o	n/a
82.229	0.1495	164458	keystroke_s	s	n/a
82.4685	0.121	164937	keystroke_t	t	n/a
82.5735	0.09	165147	keystroke_Key.space	Key.space	n/a
82.7385	0.1955	165477	keystroke_a	a	n/a
82.8145	0.105	165629	keystroke_i	i	n/a
83.039	0.075	166078	keystroke_m	m	n/a
83.249	0.135	166498	keystroke_s	s	n/a
83.369	0.09	166738	keystroke_Key.space	Key.space	n/a
84.0145	0.1495	168029	keystroke_g	g	n/a
84.119	0.12	168238	keystroke_r	r	n/a
84.5995	0.149	169199	keystroke_t	t	n/a
84.7035	0.075	169407	keystroke_u	u	n/a
84.8695	0.105	169739	keystroke_i	i	n/a
84.9145	0.134	169829	keystroke_t	t	n/a
85.1385	0.06	170277	keystroke_Key.enter	Key.enter	n/a
85.206	5.0345	170412	prompt	n/a	crimes cards i'll legs\n
86.099	0.1505	172198	keystroke_c	c	n/a
86.354	0.12	172708	keystroke_r	r	n/a
86.429	0.09	172858	keystroke_i	i	n/a
86.593	0.1215	173186	keystroke_m	m	n/a
86.6995	0.105	173399	keystroke_e	e	n/a
86.8945	0.12	173789	keystroke_s	s	n/a
86.9985	0.09	173997	keystroke_Key.space	Key.space	n/a
87.1485	0.181	174297	keystroke_c	c	n/a
87.2695	0.164	174539	keystroke_a	a	n/a
87.5835	0.1505	175167	keystroke_r	r	n/a
87.8695	0.209	175739	keystroke_d	d	n/a
87.974	0.135	175948	keystroke_s	s	n/a
88.094	0.09	176188	keystroke_Key.space	Key.space	n/a
88.319	0.12	176638	keystroke_i	i	n/a
88.9045	0.1045	177809	keystroke_;	;	n/a
89.263	0.046	178526	keystroke_l	l	n/a
89.398	0.181	178796	keystroke_l	l	n/a
89.519	0.12	179038	keystroke_Key.space	Key.space	n/a
89.713	0.136	179426	keystroke_k	k	n/a
89.819	0.1195	179638	keystroke_e	e	n/a
89.9545	0.1945	179909	keystroke_f	f	n/a
90.1335	0.105	180267	keystroke_Key.enter	Key.enter	n/a
90.246	9.2795	180492	prompt	n/a	ordinance fair accordance nomination\n
91.3045	0.1195	182609	keystroke_o	o	n/a
91.393	0.1065	182786	keystroke_r	r	n/a
91.6485	0.165	183297	keystroke_d	d	n/a
91.7385	0.09	183477	keystroke_i	i	n/a
91.8885	0.1055	183777	keystroke_n	n	n/a
91.9785	0.135	183957	keystroke_a	a	n/a
92.084	0.1045	184168	keystroke_n	n	n/a
92.2035	0.2405	184407	keystroke_c	c	n/a
92.3685	0.1655	184737	keystroke_e	e	n/a
92.489	0.075	184978	keystroke_Key.space	Key.space	n/a
92.729	0.15	185458	keystroke_f	f	n/a
92.834	0.18	185668	keystroke_a	a	n/a
92.954	0.135	185908	keystroke_i	i	n/a
93.1045	0.1045	186209	keystroke_r	r	n/a
93.194	0.12	186388	keystroke_Key.space	Key.space	n/a
93.389	0.135	186778	keystroke_a	a	n/a
93.6595	0.0745	187319	keystroke_c	c	n/a
93.8535	0.1195	187707	keystroke_c	c	n/a
93.989	0.1645	187978	keystroke_o	o	n/a
94.1395	0.1045	188279	keystroke_r	r	n/a
94.348	0.1665	188696	keystroke_d	d	n/a
94.4545	0.1045	188909	keystroke_i	i	n/a
95.1435	0.1505	190287	keystroke_Key.backspace	Key.backspace	n/a
95.234	0.15	190468	keystroke_a	a	n/a
95.504	0.2545	191008	keystroke_c	c	n/a
95.519	0.12	191038	keystroke_n	n	n/a
95.714	0.21	191428	keystroke_e	e	n/a
95.8635	0.1055	191727	keystroke_Key.space	Key.space	n/a
96.6295	0.0895	193259	keystroke_n	n	n/a
96.794	0.12	193588	keystroke_o	o	n/a
97.034	0.105	194068	keystroke_m	m	n/a
97.244	0.105	194488	keystroke_i	i	n/a
97.529	0.105	195058	keystroke_n	n	n/a
97.635	0.119	195270	keystroke_a	a	n/a
97.9195	0.135	195839	keystroke_i	i	n/a
98.624	0.15	197248	keystroke_Key.backspace	Key.backspace	n/a
98.8195	0.119	197639	keystroke_t	t	n/a
98.954	0.1195	197908	keystroke_i	i	n/a
99.0435	0.12	198087	keystroke_o	o	n/a
99.2235	0.1055	198447	keystroke_n	n	n/a
99.464	0.06	198928	keystroke_Key.enter	Key.enter	n/a
99.5305	7.645	199061	prompt	n/a	sealed eric occasional fares\n
100.4845	0.15	200969	keystroke_e	e	n/a
100.8885	0.135	201777	keystroke_Key.backspace	Key.backspace	n/a
101.0685	0.166	202137	keystroke_s	s	n/a
101.1885	0.1355	202377	keystroke_e	e	n/a
101.384	0.24	202768	keystroke_a	a	n/a
101.609	0.15	203218	keystroke_l	l	n/a
101.79	0.2235	203580	keystroke_e	e	n/a
102.1935	0.1505	204387	keystroke_d	d	n/a
102.314	0.12	204628	keystroke_Key.space	Key.space	n/a
102.704	0.2255	205408	keystroke_e	e	n/a
102.825	0.1495	205650	keystroke_r	r	n/a
103.004	0.151	206008	keystroke_i	i	n/a
103.274	0.181	206548	keystroke_c	c	n/a
103.424	0.105	206848	keystroke_Key.space	Key.space	n/a
103.6495	0.1345	207299	keystroke_o	o	n/a
103.844	0.0905	207688	keystroke_c	c	n/a
103.9645	0.1795	207929	keystroke_c	c	n/a
104.519	0.2545	209038	keystroke_a	a	n/a
104.7585	0.226	209517	keystroke_s	s	n/a
105.0145	0.089	210029	keystroke_i	i	n/a
105.074	0.1195	210148	keystroke_o	o	n/a
105.2845	0.104	210569	keystroke_n	n	n/a
105.3745	0.18	210749	keystroke_a	a	n/a
105.4945	0.18	210989	keystroke_l	l	n/a
105.6145	0.135	211229	keystroke_Key.space	Key.space	n/a
105.8845	0.09	211769	keystroke_f	f	n/a
106.0035	0.225	212007	keystroke_a	a	n/a
106.244	0.0595	212488	keystroke_s	s	n/a
106.6035	0.1355	213207	keystroke_Key.backspace	Key.backspace	n/a
106.755	0.074	213510	keystroke_r	r	n/a
106.785	0.1195	213570	keystroke_e	e	n/a
107.0085	0.135	214017	keystroke_s	s	n/a
107.0835	0.0905	214167	keystroke_Key.enter	Key.enter	n/a
107.1825	8.9935	214365	prompt	n/a	watches collectables publications carolina\n
107.8935	0.1365	215787	keystroke_w	w	n/a
108.314	0.135	216628	keystroke_a	a	n/a
108.69	0.134	217380	keystroke_t	t	n/a
108.9595	0.195	217919	keystroke_e	e	n/a
109.32	0.209	218640	keystroke_c	c	n/a
109.514	0.1045	219028	keystroke_h	h	n/a
109.6195	0.1955	219239	keystroke_e	e	n/a
109.7095	0.1795	219419	keystroke_d	d	n/a
109.844	0.12	219688	keystroke_Key.space	Key.space	n/a
110.384	0.2095	220768	keystroke_c	c	n/a
110.4735	0.09	220947	keystroke_o	o	n/a
110.684	0.0605	221368	keystroke_l	l	n/a
110.804	0.105	221608	keystroke_l	l	n/a
110.864	0.09	221728	keystroke_e	e	n/a
111.104	0.075	222208	keystroke_c	c	n/a
111.42	0.074	222840	keystroke_t	t	n/a
111.509	0.1645	223018	keystroke_a	a	n/a
111.569	0.1055	223138	keystroke_b	b	n/a
111.8095	0.1195	223619	keystroke_l	l	n/a
111.8985	0.106	223797	keystroke_e	e	n/a
112.05	0.179	224100	keystroke_s	s	n/a
112.1845	0.1045	224369	keystroke_Key.space	Key.space	n/a
112.379	0.135	224758	keystroke_p	p	n/a
112.634	0.1065	225268	keystroke_u	u	n/a
112.8895	0.12	225779	keystroke_b	b	n/a
112.964	0.0755	225928	keystroke_l	l	n/a
113.143	0.106	226286	keystroke_i	i	n/a
113.279	0.1345	226558	keystroke_c	c	n/a
113.399	0.1655	226798	keystroke_a	a	n/a
113.699	0.165	227398	keystroke_t	t	n/a
113.759	0.1205	227518	keystroke_i	i	n/a
113.849	0.12	227698	keystroke_o	o	n/a
114.0595	0.09	228119	keystroke_n	n	n/a
114.1345	0.135	228269	keystroke_s	s	n/a
114.2385	0.09	228477	keystroke_Key.space	Key.space	n/a
114.524	0.1355	229048	keystroke_c	c	n/a
114.6145	0.135	229229	keystroke_a	a	n/a
114.869	0.1505	229738	keystroke_r	r	n/a
114.9445	0.09	229889	keystroke_o	o	n/a
115.259	0.1205	230518	keystroke_i	i	n/a
115.6195	0.1195	231239	keystroke_j	j	n/a
115.784	0.1355	231568	keystroke_n	n	n/a
115.7995	0.15	231599	keystroke_e	e	n/a
116.114	0.0595	232228	keystroke_Key.enter	Key.enter	n/a
116.184	6.906	232368	prompt	n/a	high amenities capture pride\n
116.9995	0.12	233999	keystroke_h	h	n/a
117.135	0.1345	234270	keystroke_i	i	n/a
117.3	0.1195	234600	keystroke_g	g	n/a
117.3895	0.18	234779	keystroke_h	h	n/a
117.5085	0.135	235017	keystroke_Key.space	Key.space	n/a
117.9285	0.1065	235857	keystroke_a	a	n/a
118.02	0.12	236040	keystroke_m	m	n/a
118.17	0.2095	236340	keystroke_e	e	n/a
118.2885	0.136	236577	keystroke_r	r	n/a
118.7535	0.1355	237507	keystroke_Key.backspace	Key.backspace	n/a
119.054	0.106	238108	keystroke_n	n	n/a
119.22	0.299	238440	keystroke_i	i	n/a
119.25	0.104	238500	keystroke_t	t	n/a
119.475	0.134	238950	keystroke_e	e	n/a
119.8945	0.195	239789	keystroke_e	e	n/a
120.2095	0.1795	240419	keystroke_s	s	n/a
120.359	0.135	240718	keystroke_Key.space	Key.space	n/a
120.945	0.105	241890	keystroke_c	c	n/a
120.9745	0.2095	241949	keystroke_a	a	n/a
121.0795	0.165	242159	keystroke_p	p	n/a
121.439	0.1055	242878	keystroke_t	t	n/a
121.7095	0.165	243419	keystroke_u	u	n/a
121.8895	0.15	243779	keystroke_r	r	n/a
121.9645	0.1945	243929	keystroke_e	e	n/a
122.0535	0.1205	244107	keystroke_Key.space	Key.space	n/a
122.279	0.105	244558	keystroke_p	p	n/a
122.399	0.1195	244798	keystroke_r	r	n/a
122.5345	0.134	245069	keystroke_i	i	n/a
122.774	0.1795	245548	keystroke_d	d	n/a
122.8795	0.164	245759	keystroke_e	e	n/a
123.0135	0.075	246027	keystroke_Key.enter	Key.enter	n/a
123.0935	6.7485	246187	prompt	n/a	desktops able makers pine\n
124.0495	0.165	248099	keystroke_d	d	n/a
124.154	0.1195	248308	keystroke_e	e	n/a
124.3345	0.18	248669	keystroke_s	s	n/a
124.7545	0.12	249509	keystroke_k	k	n/a
125.1	0.134	250200	keystroke_t	t	n/a
125.189	0.075	250378	keystroke_o	o	n/a
125.354	0.105	250708	keystroke_p	p	n/a
125.4435	0.151	250887	keystroke_s	s	n/a
125.5785	0.0905	251157	keystroke_Key.space	Key.space	n/a
125.729	0.18	251458	keystroke_a	a	n/a
126.1795	0.134	252359	keystroke_b	b	n/a
126.449	0.12	252898	keystroke_l	l	n/a
126.5545	0.1495	253109	keystroke_e	e	n/a
126.6745	0.0745	253349	keystroke_Key.space	Key.space	n/a
126.854	0.105	253708	keystroke_m	m	n/a
126.914	0.1505	253828	keystroke_a	a	n/a
127.0945	0.135	254189	keystroke_k	k	n/a
127.1845	0.195	254369	keystroke_e	e	n/a
127.2895	0.135	254579	keystroke_r	r	n/a
127.649	0.045	255298	keystroke_s	s	n/a
127.664	0.09	255328	keystroke_Key.space	Key.space	n/a
127.89	0.104	255780	keystroke_p	p	n/a
128.1145	0.075	256229	keystroke_j	j	n/a
128.3395	0.104	256679	keystroke_i	i	n/a
128.984	0.0755	257968	keystroke_Key.backspace	Key.backspace	n/a
129.164	0.0445	258328	keystroke_Key.backspace	Key.backspace	n/a
129.3745	0.075	258749	keystroke_i	i	n/a
129.539	0.0905	259078	keystroke_n	n	n/a
129.6145	0.12	259229	keystroke_e	e	n/a
129.7785	0.06	259557	keystroke_Key.enter	Key.enter	n/a
129.8495	8.526	259699	prompt	n/a	carried cover residential cannon\n
130.6185	0.166	261237	keystroke_c	c	n/a
130.7245	0.164	261449	keystroke_a	a	n/a
130.9785	0.105	261957	keystroke_r	r	n/a
131.1895	0.134	262379	keystroke_r	r	n/a
131.3835	0.0905	262767	keystroke_i	i	n/a
131.4585	0.166	262917	keystroke_e	e	n/a
131.5645	0.1505	263129	keystroke_d	d	n/a
131.6695	0.12	263339	keystroke_Key.space	Key.space	n/a
131.8635	0.181	263727	keystroke_c	c	n/a
131.984	0.09	263968	keystroke_o	o	n/a
132.254	0.1205	264508	keystroke_v	v	n/a
132.494	0.225	264988	keystroke_e	e	n/a
132.614	0.15	265228	keystroke_r	r	n/a
132.7495	0.1345	265499	keystroke_Key.space	Key.space	n/a
132.9745	0.1645	265949	keystroke_r	r	n/a
133.064	0.1505	266128	keystroke_e	e	n/a
133.3195	0.18	266639	keystroke_d	d	n/a
133.4545	0.135	266909	keystroke_i	i	n/a
134.8335	0.0755	269667	keystroke_Key.backspace	Key.backspace	n/a
135.044	0.09	270088	keystroke_Key.backspace	Key.backspace	n/a
135.2095	0.134	270419	keystroke_s	s	n/a
135.4035	0.1505	270807	keystroke_i	i	n/a
135.5985	0.1815	271197	keystroke_d	d	n/a
135.7045	0.1955	271409	keystroke_e	e	n/a
135.869	0.12	271738	keystroke_n	n	n/a
136.004	0.0905	272008	keystroke_t	t	n/a
136.1695	0.195	272339	keystroke_a	a	n/a
136.3195	0.2695	272639	keystroke_l	l	n/a
136.4995	0.1795	272999	keystroke_Key.space	Key.space	n/a
137.249	0.2095	274498	keystroke_c	c	n/a
137.4435	0.166	274887	keystroke_a	a	n/a
137.669	0.0155	275338	keystroke_n	n	n/a
137.775	0.0745	275550	keystroke_n	n	n/a
137.939	0.106	275878	keystroke_o	o	n/a
138.105	0.0895	276210	keystroke_n	n	n/a
138.344	0.03	276688	keystroke_Key.enter	Key.enter	n/a
138.38	8.0505	276760	prompt	n/a	folder refined adaptive jewish\n
139.1845	0.119	278369	keystroke_f	f	n/a
139.274	0.09	278548	keystroke_o	o	n/a
139.4685	0.1055	278937	keystroke_l	l	n/a
139.679	0.105	279358	keystroke_d	d	n/a
139.9195	0.1795	279839	keystroke_e	e	n/a
140.0245	0.1655	280049	keystroke_r	r	n/a
140.2195	0.1345	280439	keystroke_Key.space	Key.space	n/a
140.654	0.15	281308	keystroke_r	r	n/a
140.729	0.135	281458	keystroke_e	e	n/a
140.999	0.15	281998	keystroke_f	f	n/a
141.074	0.076	282148	keystroke_i	i	n/a
141.239	0.135	282478	keystroke_n	n	n/a
141.359	0.24	282718	keystroke_e	e	n/a
141.764	0.1495	283528	keystroke_d	d	n/a
141.8835	0.151	283767	keystroke_Key.space	Key.space	n/a
142.26	0.1345	284520	keystroke_a	a	n/a
142.739	0.2105	285478	keystroke_d	d	n/a
142.9045	0.194	285809	keystroke_a	a	n/a
143.8495	0.15	287699	keystroke_p	p	n/a
144.1945	0.09	288389	keystroke_t	t	n/a
144.3595	0.105	288719	keystroke_i	i	n/a
144.5695	0.1795	289139	keystroke_v	v	n/a
144.675	0.18	289350	keystroke_e	e	n/a
144.8095	0.0905	289619	keystroke_Key.space	Key.space	n/a
145.185	0.119	290370	keystroke_j	j	n/a
145.289	0.105	290578	keystroke_e	e	n/a
145.53	0.1785	291060	keystroke_w	w	n/a
145.604	0.1495	291208	keystroke_e	e	n/a
145.844	0.15	291688	keystroke_i	i	n/a
146.025	0.21	292050	keystroke_s	s	n/a
146.084	0.121	292168	keystroke_h	h	n/a
146.3545	0.074	292709	keystroke_Key.enter	Key.enter	n/a
146.4425	8.763	292885	prompt	n/a	developers warriors characteristic nearby\n
147.6745	0.179	295349	keystroke_d	d	n/a
147.794	0.105	295588	keystroke_e	e	n/a
148.065	0.1345	296130	keystroke_v	v	n/a
148.1545	0.1795	296309	keystroke_e	e	n/a
148.319	0.06	296638	keystroke_;	;	n/a
148.499	0.0905	296998	keystroke_o	o	n/a
148.6795	0.12	297359	keystroke_p	p	n/a
148.7695	0.18	297539	keystroke_e	e	n/a
148.8745	0.135	297749	keystroke_r	r	n/a
149.0835	0.166	298167	keystroke_s	s	n/a
149.1885	0.121	298377	keystroke_Key.space	Key.space	n/a
149.3545	0.15	298709	keystroke_w	w	n/a
149.5345	0.195	299069	keystroke_a	a	n/a
149.7445	0.045	299489	keystroke_r	r	n/a
149.8945	0.105	299789	keystroke_r	r	n/a
150.0145	0.12	300029	keystroke_i	i	n/a
150.299	0.15	300598	keystroke_o	o	n/a
150.5695	0.1355	301139	keystroke_r	r	n/a
150.794	0.151	301588	keystroke_s	s	n/a
150.929	0.1055	301858	keystroke_Key.space	Key.space	n/a
151.215	0.239	302430	keystroke_c	c	n/a
151.469	0.09	302938	keystroke_h	h	n/a
151.574	0.1355	303148	keystroke_a	a	n/a
151.799	0.135	303598	keystroke_r	r	n/a
151.935	0.2095	303870	keystroke_a	a	n/a
152.3245	0.1345	304649	keystroke_c	c	n/a
152.669	0.105	305338	keystroke_t	t	n/a
152.804	0.2095	305608	keystroke_e	e	n/a
152.924	0.1195	305848	keystroke_r	r	n/a
153.0285	0.1805	306057	keystroke_i	i	n/a
153.149	0.136	306298	keystroke_s	s	n/a
153.344	0.15	306688	keystroke_t	t	n/a
153.779	0.0155	307558	keystroke_s	s	n/a
153.8985	0.1055	307797	keystroke_Key.space	Key.space	n/a
154.1245	0.1345	308249	keystroke_n	n	n/a
154.17	0.149	308340	keystroke_e	e	n/a
154.3635	0.195	308727	keystroke_a	a	n/a
154.4845	0.0905	308969	keystroke_r	r	n/a
154.6935	0.105	309387	keystroke_b	b	n/a
154.8745	0.1055	309749	keystroke_y	y	n/a
155.129	0.0755	310258	keystroke_Key.enter	Key.enter	n/a
155.213	8.9035	310426	prompt	n/a	dollars gathered courage utilize\n
156.1045	0.135	312209	keystroke_f	f	n/a
156.1655	0.089	312331	keystroke_o	o	n/a
156.375	0.074	312750	keystroke_l	l	n/a
156.5085	0.12	313017	keystroke_l	l	n/a
156.5845	0.1645	313169	keystroke_a	a	n/a
156.779	0.0905	313558	keystroke_r	r	n/a
157.08	0.1785	314160	keystroke_s	s	n/a
157.1995	0.134	314399	keystroke_Key.space	Key.space	n/a
158.2945	0.12	316589	keystroke_g	g	n/a
158.3395	0.135	316679	keystroke_a	a	n/a
158.5795	0.09	317159	keystroke_t	t	n/a
158.6695	0.1055	317339	keystroke_h	h	n/a
158.7445	0.15	317489	keystroke_e	e	n/a
158.8495	0.21	317699	keystroke_r	r	n/a
158.9995	0.165	317999	keystroke_e	e	n/a
159.435	0.179	318870	keystroke_d	d	n/a
159.659	0.12	319318	keystroke_Key.space	Key.space	n/a
160.049	0.225	320098	keystroke_o	o	n/a
160.1095	0.1345	320219	keystroke_c	c	n/a
160.289	0.18	320578	keystroke_u	u	n/a
160.4995	0.0745	320999	keystroke_r	r	n/a
160.6045	0.1795	321209	keystroke_a	a	n/a
160.709	0.12	321418	keystroke_n	n	n/a
160.979	0.165	321958	keystroke_f	f	n/a
161.2045	0.1795	322409	keystroke_e	e	n/a
161.5785	0.12	323157	keystroke_Key.space	Key.space	n/a
161.8795	0.1495	323759	keystroke_a	a	n/a
162.254	0.09	324508	keystroke_Key.backspace	Key.backspace	n/a
162.479	0.1355	324958	keystroke_u	u	n/a
162.629	0.1505	325258	keystroke_t	t	n/a
162.7645	0.075	325529	keystroke_o	o	n/a
163.2	0.089	326400	keystroke_l	l	n/a
163.394	0.12	326788	keystroke_i	i	n/a
163.6045	0.1645	327209	keystroke_x	x	n/a
163.904	0.18	327808	keystroke_e	e	n/a
164.024	0.0895	328048	keystroke_Key.enter	Key.enter	n/a
164.1205	10.0915	328241	prompt	n/a	i objectives object speech\n
165.344	0.495	330688	keystroke_Key.shift_r	Key.shift_r	n/a
166.274	0.09	332548	keystroke_i	i	n/a
166.6045	0.104	333209	keystroke_Key.space	Key.space	n/a
166.8295	0.105	333659	keystroke_o	o	n/a
167.819	0.09	335638	keystroke_b	b	n/a
168.029	0.075	336058	keystroke_j	j	n/a
168.1195	0.0895	336239	keystroke_e	e	n/a
168.344	0.136	336688	keystroke_c	c	n/a
168.719	0.016	337438	keystroke_t	t	n/a
168.749	0.15	337498	keystroke_i	i	n/a
168.959	0.195	337918	keystroke_v	v	n/a
169.079	0.1505	338158	keystroke_e	e	n/a
169.169	0.09	338338	keystroke_Key.space	Key.space	n/a
169.364	0.105	338728	keystroke_o	o	n/a
169.574	0.135	339148	keystroke_b	b	n/a
172.262	0.001	344524	keystroke_j	j	n/a
172.334	0.1055	344668	keystroke_e	e	n/a
172.604	0.1505	345208	keystroke_c	c	n/a
172.71	0.149	345420	keystroke_t	t	n/a
172.7835	0.1355	345567	keystroke_Key.space	Key.space	n/a
173.1	0.059	346200	keystroke_d	d	n/a
173.174	0.135	346348	keystroke_o	o	n/a
173.3545	0.1045	346709	keystroke_e	e	n/a
173.534	0.1205	347068	keystroke_e	e	n/a
173.774	0.135	347548	keystroke_c	c	n/a
173.849	0.12	347698	keystroke_h	h	n/a
174.119	0.09	348238	keystroke_Key.enter	Key.enter	n/a
174.2235	6.1075	348447	prompt	n/a	citysearch lock speech harvey\n
175.004	0.15	350008	keystroke_c	c	n/a
175.124	0.1355	350248	keystroke_i	i	n/a
175.409	0.136	350818	keystroke_t	t	n/a
175.5895	0.1195	351179	keystroke_y	y	n/a
175.9195	0.0895	351839	keystroke_s	s	n/a
176.129	0.105	352258	keystroke_e	e	n/a
176.3095	0.15	352619	keystroke_a	a	n/a
176.414	0.12	352828	keystroke_r	r	n/a
176.729	0.136	353458	keystroke_c	c	n/a
176.834	0.15	353668	keystroke_h	h	n/a
177.149	0.1055	354298	keystroke_Key.space	Key.space	n/a
177.419	0.105	354838	keystroke_l	l	n/a
177.6145	0.09	355229	keystroke_o	o	n/a
177.6745	0.1345	355349	keystroke_c	c	n/a
177.809	0.1805	355618	keystroke_k	k	n/a
177.914	0.1205	355828	keystroke_Key.space	Key.space	n/a
178.0495	0.1205	356099	keystroke_s	s	n/a
178.1395	0.09	356279	keystroke_p	p	n/a
178.305	0.089	356610	keystroke_e	e	n/a
178.469	0.1195	356938	keystroke_e	e	n/a
178.694	0.21	357388	keystroke_c	c	n/a
178.964	0.15	357928	keystroke_h	h	n/a
179.024	0.12	358048	keystroke_Key.space	Key.space	n/a
179.2185	0.1355	358437	keystroke_h	h	n/a
179.2795	0.1645	358559	keystroke_a	a	n/a
179.4595	0.165	358919	keystroke_r	r	n/a
179.744	0.151	359488	keystroke_v	v	n/a
179.8345	0.18	359669	keystroke_e	e	n/a
179.955	0.1185	359910	keystroke_y	y	n/a
180.254	0.075	360508	keystroke_Key.enter	Key.enter	n/a
180.3455	10.65	360691	prompt	n/a	percentage syndicate browsers immigration\n
181.215	0.1045	362430	keystroke_p	p	n/a
181.3045	0.15	362609	keystroke_e	e	n/a
181.3785	0.121	362757	keystroke_r	r	n/a
181.7095	0.1655	363419	keystroke_c	c	n/a
181.83	0.149	363660	keystroke_a	a	n/a
181.995	0.089	363990	keystroke_n	n	n/a
182.0995	0.0895	364199	keystroke_t	t	n/a
182.235	0.134	364470	keystroke_a	a	n/a
182.3395	0.0905	364679	keystroke_g	g	n/a
182.4755	0.134	364951	keystroke_e	e	n/a
182.5345	0.12	365069	keystroke_Key.space	Key.space	n/a
182.9095	0.165	365819	keystroke_s	s	n/a
183.0145	0.0755	366029	keystroke_y	y	n/a
183.225	0.1495	366450	keystroke_n	n	n/a
183.989	0.1505	367978	keystroke_d	d	n/a
184.079	0.1205	368158	keystroke_i	i	n/a
184.3045	0.135	368609	keystroke_c	c	n/a
184.4245	0.105	368849	keystroke_a	a	n/a
184.6795	0.105	369359	keystroke_t	t	n/a
184.7695	0.1655	369539	keystroke_e	e	n/a
184.949	0.135	369898	keystroke_Key.space	Key.space	n/a
186.2095	0.1205	372419	keystroke_b	b	n/a
186.315	0.119	372630	keystroke_r	r	n/a
186.4645	0.105	372929	keystroke_o	o	n/a
186.629	0.1355	373258	keystroke_w	w	n/a
187.0645	0.045	374129	keystroke_n	n	n/a
187.4995	0.119	374999	keystroke_Key.backspace	Key.backspace	n/a
187.6345	0.33	375269	keystroke_s	s	n/a
187.7995	0.285	375599	keystroke_e	e	n/a
187.9645	0.1945	375929	keystroke_r	r	n/a
188.52	0.1795	377040	keystroke_s	s	n/a
188.669	0.105	377338	keystroke_Key.space	Key.space	n/a
188.894	0.1055	377788	keystroke_i	i	n/a
189.134	0.03	378268	keystroke_m	m	n/a
189.225	0.105	378450	keystroke_m	m	n/a
189.42	0.15	378840	keystroke_i	i	n/a
189.5545	0.165	379109	keystroke_d	d	n/a
189.6595	0.165	379319	keystroke_a	a	n/a
189.944	0.1355	379888	keystroke_t	t	n/a
190.064	0.21	380128	keystroke_e	e	n/a
190.379	0.12	380758	keystroke_i	i	n/a
190.6045	0.105	381209	keystroke_n	n	n/a
190.6345	0.149	381269	keystroke_g	g	n/a
190.9035	0.09	381807	keystroke_Key.enter	Key.enter	n/a
191.001	10.15	382002	prompt	n/a	medicare fisheries programmes morocco\n
192.014	0.1495	384028	keystroke_m	m	n/a
192.134	0.1045	384268	keystroke_e	e	n/a
192.3895	0.0895	384779	keystroke_d	d	n/a
192.494	0.0905	384988	keystroke_i	i	n/a
192.675	0.12	385350	keystroke_c	c	n/a
192.78	0.149	385560	keystroke_a	a	n/a
193.0195	0.1495	386039	keystroke_r	r	n/a
193.11	0.1495	386220	keystroke_e	e	n/a
193.184	0.1055	386368	keystroke_Key.space	Key.space	n/a
193.4095	0.165	386819	keystroke_d	d	n/a
193.5445	0.135	387089	keystroke_i	i	n/a
194.4595	0.045	388919	keystroke_Key.backspace	Key.backspace	n/a
194.564	0.105	389128	keystroke_Key.backspace	Key.backspace	n/a
194.639	0.1205	389278	keystroke_f	f	n/a
194.7895	0.135	389579	keystroke_i	i	n/a
195.2395	0.0895	390479	keystroke_s	s	n/a
195.314	0.09	390628	keystroke_h	h	n/a
195.4795	0.1945	390959	keystroke_e	e	n/a
195.585	0.165	391170	keystroke_r	r	n/a
195.751	0.103	391502	keystroke_i	i	n/a
195.869	0.1795	391738	keystroke_s	s	n/a
195.9735	0.1055	391947	keystroke_Key.space	Key.space	n/a
196.3795	0.1345	392759	keystroke_p	p	n/a
196.5285	0.1215	393057	keystroke_r	r	n/a
196.635	0.1335	393270	keystroke_o	o	n/a
196.9035	0.135	393807	keystroke_g	g	n/a
197.0695	0.1655	394139	keystroke_r	r	n/a
197.3395	0.15	394679	keystroke_a	a	n/a
197.5345	0.0905	395069	keystroke_m	m	n/a
197.6995	0.044	395399	keystroke_m	m	n/a
197.7145	0.1655	395429	keystroke_e	e	n/a
198.014	0.165	396028	keystroke_s	s	n/a
198.434	0.135	396868	keystroke_Key.space	Key.space	n/a
199.1845	0.104	398369	keystroke_m	m	n/a
199.395	0.1345	398790	keystroke_o	o	n/a
199.6495	0.135	399299	keystroke_r	r	n/a
199.7395	0.12	399479	keystroke_o	o	n/a
200.174	0.1205	400348	keystroke_c	c	n/a
200.3545	0.165	400709	keystroke_c	c	n/a
200.5645	0.12	401129	keystroke_o	o	n/a
201.0745	0.075	402149	keystroke_Key.enter	Key.enter	n/a
201.156	5.7545	402312	prompt	n/a	stem game finals salad\n
201.7945	0.15	403589	keystroke_s	s	n/a
202.0645	0.09	404129	keystroke_t	t	n/a
202.1835	0.151	404367	keystroke_e	e	n/a
202.319	0.1205	404638	keystroke_m	m	n/a
202.59	0.074	405180	keystroke_Key.space	Key.space	n/a
202.7995	0.075	405599	keystroke_g	g	n/a
202.8755	0.104	405751	keystroke_a	a	n/a
203.0245	0.12	406049	keystroke_m	m	n/a
203.129	0.1505	406258	keystroke_e	e	n/a
203.249	0.12	406498	keystroke_Key.space	Key.space	n/a
204.2695	0.135	408539	keystroke_f	f	n/a
204.3145	0.075	408629	keystroke_i	i	n/a
204.4795	0.119	408959	keystroke_n	n	n/a
204.6145	0.15	409229	keystroke_a	a	n/a
204.7195	0.105	409439	keystroke_l	l	n/a
204.8095	0.1505	409619	keystroke_s	s	n/a
204.944	0.105	409888	keystroke_Key.space	Key.space	n/a
205.109	0.1205	410218	keystroke_s	s	n/a
205.4245	0.1345	410849	keystroke_a	a	n/a
205.6795	0.179	411359	keystroke_a	a	n/a
205.784	0.1655	411568	keystroke_l	l	n/a
206.1285	0.075	412257	keystroke_Key.backspace	Key.backspace	n/a
206.2645	0.09	412529	keystroke_Key.backspace	Key.backspace	n/a
206.4445	0.15	412889	keystroke_l	l	n/a
206.4895	0.195	412979	keystroke_a	a	n/a
206.7145	0.1505	413429	keystroke_d	d	n/a
206.8345	0.075	413669	keystroke_Key.enter	Key.enter	n/a
206.924	6.707	413848	prompt	n/a	feels ethnic threatened flying\n
207.7345	0.1205	415469	keystroke_f	f	n/a
207.9295	0.105	415859	keystroke_e	e	n/a
208.1095	0.134	416219	keystroke_e	e	n/a
208.2295	0.1205	416459	keystroke_l	l	n/a
208.3645	0.1505	416729	keystroke_s	s	n/a
208.484	0.121	416968	keystroke_Key.space	Key.space	n/a
208.845	0.149	417690	keystroke_e	e	n/a
209.1	0.1195	418200	keystroke_t	t	n/a
209.2045	0.09	418409	keystroke_h	h	n/a
209.4295	0.075	418859	keystroke_n	n	n/a
209.5795	0.12	419159	keystroke_i	i	n/a
209.7145	0.1195	419429	keystroke_c	c	n/a
209.849	0.1205	419698	keystroke_Key.space	Key.space	n/a
210.135	0.1195	420270	keystroke_t	t	n/a
210.239	0.1055	420478	keystroke_h	h	n/a
210.435	0.18	420870	keystroke_r	r	n/a
210.57	0.15	421140	keystroke_e	e	n/a
210.809	0.135	421618	keystroke_a	a	n/a
211.005	0.1045	422010	keystroke_t	t	n/a
211.1545	0.255	422309	keystroke_e	e	n/a
211.469	0.211	422938	keystroke_n	n	n/a
211.665	0.195	423330	keystroke_e	e	n/a
211.89	0.195	423780	keystroke_d	d	n/a
212.024	0.12	424048	keystroke_Key.space	Key.space	n/a
212.609	0.18	425218	keystroke_f	f	n/a
212.684	0.0905	425368	keystroke_l	l	n/a
212.94	0.06	425880	keystroke_y	y	n/a
213.135	0.075	426270	keystroke_i	i	n/a
213.33	0.074	426660	keystroke_n	n	n/a
213.3895	0.1195	426779	keystroke_g	g	n/a
213.569	0.06	427138	keystroke_Key.enter	Key.enter	n/a
213.6355	9.91	427271	prompt	n/a	assembled moses directory equipment\n
214.304	0.12	428608	keystroke_a	a	n/a
214.59	0.0895	429180	keystroke_s	s	n/a
214.7545	0.104	429509	keystroke_s	s	n/a
214.9495	0.15	429899	keystroke_e	e	n/a
215.2795	0.1195	430559	keystroke_m	m	n/a
215.535	0.104	431070	keystroke_b	b	n/a
215.774	0.105	431548	keystroke_l	l	n/a
215.8645	0.1805	431729	keystroke_e	e	n/a
216.03	0.1645	432060	keystroke_d	d	n/a
216.2095	0.09	432419	keystroke_Key.space	Key.space	n/a
216.4795	0.03	432959	keystroke_m	m	n/a
216.6445	0.105	433289	keystroke_o	o	n/a
216.9595	0.225	433919	keystroke_s	s	n/a
217.0795	0.18	434159	keystroke_e	e	n/a
217.3195	0.15	434639	keystroke_s	s	n/a
217.814	0.12	435628	keystroke_Key.space	Key.space	n/a
218.249	0.1205	436498	keystroke_d	d	n/a
218.339	0.0905	436678	keystroke_i	i	n/a
218.505	0.089	437010	keystroke_r	r	n/a
218.564	0.1355	437128	keystroke_e	e	n/a
218.8345	0.119	437669	keystroke_c	c	n/a
219.1195	0.135	438239	keystroke_t	t	n/a
219.3595	0.1205	438719	keystroke_o	o	n/a
219.6145	0.12	439229	keystroke_t	t	n/a
219.7195	0.18	439439	keystroke_y	y	n/a
219.9595	0.15	439919	keystroke_Key.space	Key.space	n/a
221.8795	0.1195	443759	keystroke_e	e	n/a
222.18	0.1945	444360	keystroke_q	q	n/a
222.3595	0.075	444719	keystroke_u	u	n/a
222.5245	0.105	445049	keystroke_i	i	n/a
222.7645	0.12	445529	keystroke_p	p	n/a
223.0195	0.09	446039	keystroke_m	m	n/a
223.0945	0.12	446189	keystroke_e	e	n/a
223.1845	0.09	446369	keystroke_n	n	n/a
223.3045	0.1355	446609	keystroke_t	t	n/a
223.4845	0.0595	446969	keystroke_Key.enter	Key.enter	n/a
223.5495	8.8165	447099	prompt	n/a	basketball colombia accompanying weighted\n
224.49	0.1195	448980	keystroke_b	b	n/a
224.594	0.226	449188	keystroke_a	a	n/a
224.745	0.165	449490	keystroke_s	s	n/a
224.955	0.1345	449910	keystroke_k	k	n/a
225.075	0.15	450150	keystroke_e	e	n/a
225.2395	0.1045	450479	keystroke_t	t	n/a
225.4495	0.12	450899	keystroke_b	b	n/a
225.5845	0.1205	451169	keystroke_a	a	n/a
225.706	0.059	451412	keystroke_l	l	n/a
225.8245	0.195	451649	keystroke_l	l	n/a
225.989	0.166	451978	keystroke_Key.space	Key.space	n/a
226.305	0.18	452610	keystroke_c	c	n/a
226.3645	0.1055	452729	keystroke_o	o	n/a
226.544	0.1055	453088	keystroke_l	l	n/a
226.769	0.121	453538	keystroke_o	o	n/a
227.1	0.104	454200	keystroke_m	m	n/a
227.3395	0.0605	454679	keystroke_b	b	n/a
227.4745	0.106	454949	keystroke_i	i	n/a
227.5645	0.165	455129	keystroke_a	a	n/a
227.7135	0.1065	455427	keystroke_Key.space	Key.space	n/a
228.0145	0.1345	456029	keystroke_a	a	n/a
228.269	0.076	456538	keystroke_c	c	n/a
228.4345	0.1355	456869	keystroke_c	c	n/a
228.509	0.105	457018	keystroke_o	o	n/a
228.69	0.0895	457380	keystroke_m	m	n/a
228.8995	0.1055	457799	keystroke_p	p	n/a
229.0645	0.195	458129	keystroke_a	a	n/a
229.1845	0.0905	458369	keystroke_n	n	n/a
229.5145	0.0755	459029	keystroke_y	y	n/a
229.7095	0.074	459419	keystroke_i	i	n/a
229.875	0.1045	459750	keystroke_n	n	n/a
229.9645	0.119	459929	keystroke_g	g	n/a
230.0695	0.12	460139	keystroke_Key.space	Key.space	n/a
231.0745	0.24	462149	keystroke_w	w	n/a
231.2245	0.135	462449	keystroke_e	e	n/a
231.375	0.1045	462750	keystroke_i	i	n/a
231.4945	0.1195	462989	keystroke_g	g	n/a
231.569	0.0905	463138	keystroke_h	h	n/a
231.7045	0.09	463409	keystroke_t	t	n/a
231.9595	0.2245	463919	keystroke_e	e	n/a
232.154	0.15	464308	keystroke_d	d	n/a
232.274	0.09	464548	keystroke_Key.enter	Key.enter	n/a
232.3725	6.6535	464745	prompt	n/a	newest values finds fresh\n
233.1745	0.105	466349	keystroke_n	n	n/a
233.3095	0.165	466619	keystroke_e	e	n/a
233.6545	0.2255	467309	keystroke_w	w	n/a
233.7895	0.1505	467579	keystroke_e	e	n/a
234.1045	0.1795	468209	keystroke_s	s	n/a
234.299	0.105	468598	keystroke_t	t	n/a
234.389	0.1055	468778	keystroke_Key.space	Key.space	n/a
234.6745	0.21	469349	keystroke_a	a	n/a
235.1545	0.136	470309	keystroke_Key.backspace	Key.backspace	n/a
235.4995	0.165	470999	keystroke_v	v	n/a
235.6045	0.1805	471209	keystroke_a	a	n/a
235.709	0.121	471418	keystroke_l	l	n/a
235.979	0.091	471958	keystroke_u	u	n/a
236.084	0.0905	472168	keystroke_e	e	n/a
236.265	0.1495	472530	keystroke_s	s	n/a
236.3545	0.12	472709	keystroke_Key.space	Key.space	n/a
236.8195	0.1045	473639	keystroke_f	f	n/a
236.8945	0.0755	473789	keystroke_i	i	n/a
237.0895	0.12	474179	keystroke_n	n	n/a
237.1945	0.1505	474389	keystroke_d	d	n/a
237.2995	0.1195	474599	keystroke_s	s	n/a
237.3885	0.106	474777	keystroke_Key.space	Key.space	n/a
237.8695	0.09	475739	keystroke_f	f	n/a
238.1245	0.135	476249	keystroke_r	r	n/a
238.2135	0.1665	476427	keystroke_e	e	n/a
238.5445	0.165	477089	keystroke_s	s	n/a
238.6795	0.12	477359	keystroke_h	h	n/a
238.9645	0.06	477929	keystroke_Key.enter	Key.enter	n/a
239.033	8.783	478066	prompt	n/a	participate organized lock lingerie\n
239.7595	0.12	479519	keystroke_p	p	n/a
239.8645	0.1655	479729	keystroke_a	a	n/a
240.0445	0.1205	480089	keystroke_r	r	n/a
240.2395	0.1195	480479	keystroke_t	t	n/a
240.344	0.12	480688	keystroke_i	i	n/a
240.615	0.1495	481230	keystroke_c	c	n/a
240.7045	0.1045	481409	keystroke_i	i	n/a
240.944	0.1355	481888	keystroke_p	p	n/a
241.0645	0.1055	482129	keystroke_a	a	n/a
241.2895	0.105	482579	keystroke_t	t	n/a
241.3795	0.165	482759	keystroke_e	e	n/a
241.5145	0.12	483029	keystroke_Key.space	Key.space	n/a
241.8445	0.09	483689	keystroke_o	o	n/a
242.0845	0.09	484169	keystroke_r	r	n/a
242.3695	0.105	484739	keystroke_g	g	n/a
242.4595	0.15	484919	keystroke_a	a	n/a
242.64	0.0745	485280	keystroke_n	n	n/a
242.85	0.0745	485700	keystroke_i	i	n/a
242.9245	0.149	485849	keystroke_z	z	n/a
243.2395	0.2255	486479	keystroke_e	e	n/a
243.39	0.165	486780	keystroke_d	d	n/a
243.509	0.105	487018	keystroke_Key.space	Key.space	n/a
243.7645	0.09	487529	keystroke_l	l	n/a
244.095	0.1945	488190	keystroke_c	c	n/a
244.2295	0.12	488459	keystroke_o	o	n/a
244.5595	0.075	489119	keystroke_Key.backspace	Key.backspace	n/a
244.7095	0.09	489419	keystroke_Key.backspace	Key.backspace	n/a
244.89	0.134	489780	keystroke_o	o	n/a
245.0085	0.166	490017	keystroke_c	c	n/a
245.129	0.2255	490258	keystroke_k	k	n/a
245.2945	0.1195	490589	keystroke_Key.space	Key.space	n/a
245.7455	0.119	491491	keystroke_l	l	n/a
245.9845	0.06	491969	keystroke_i	i	n/a
246.33	0.1795	492660	keystroke_n	n	n/a
246.57	0.1345	493140	keystroke_g	g	n/a
246.8545	0.21	493709	keystroke_e	e	n/a
246.9595	0.15	493919	keystroke_r	r	n/a
247.1095	0.12	494219	keystroke_i	i	n/a
247.2445	0.1655	494489	keystroke_a	a	n/a
247.739	0.075	495478	keystroke_Key.enter	Key.enter	n/a
247.824	5.722	495648	prompt	n/a	cannon signs ebook benefit\n
248.655	0.1495	497310	keystroke_c	c	n/a
248.8195	0.15	497639	keystroke_a	a	n/a
248.8645	0.06	497729	keystroke_n	n	n/a
248.9995	0.105	497999	keystroke_n	n	n/a
249.1645	0.105	498329	keystroke_o	o	n/a
249.3605	0.179	498721	keystroke_n	n	n/a
249.4795	0.12	498959	keystroke_Key.space	Key.space	n/a
249.914	0.121	499828	keystroke_s	s	n/a
250.0055	0.1195	500011	keystroke_i	i	n/a
250.185	0.12	500370	keystroke_g	g	n/a
250.3195	0.165	500639	keystroke_n	n	n/a
250.544	0.181	501088	keystroke_s	s	n/a
250.68	0.119	501360	keystroke_Key.space	Key.space	n/a
250.92	0.164	501840	keystroke_e	e	n/a
251.145	0.075	502290	keystroke_b	b	n/a
251.339	0.075	502678	keystroke_o	o	n/a
251.504	0.181	503008	keystroke_o	o	n/a
251.594	0.211	503188	keystroke_k	k	n/a
251.759	0.12	503518	keystroke_Key.space	Key.space	n/a
251.9995	0.0895	503999	keystroke_b	b	n/a
252.09	0.0745	504180	keystroke_e	e	n/a
252.2245	0.1055	504449	keystroke_n	n	n/a
252.2395	0.1655	504479	keystroke_e	e	n/a
253.094	0.09	506188	keystroke_f	f	n/a
253.155	0.119	506310	keystroke_i	i	n/a
253.3195	0.1205	506639	keystroke_t	t	n/a
253.455	0.089	506910	keystroke_Key.enter	Key.enter	n/a
253.5505	7.7055	507101	prompt	n/a	pens hearing oclc deployment\n
254.2945	0.135	508589	keystroke_p	p	n/a
254.415	0.1495	508830	keystroke_e	e	n/a
254.5795	0.105	509159	keystroke_n	n	n/a
254.7295	0.18	509459	keystroke_s	s	n/a
255.2095	0.135	510419	keystroke_Key.space	Key.space	n/a
255.5245	0.12	511049	keystroke_h	h	n/a
255.5995	0.12	511199	keystroke_e	e	n/a
255.7795	0.195	511559	keystroke_a	a	n/a
255.915	0.179	511830	keystroke_r	r	n/a
256.02	0.089	512040	keystroke_i	i	n/a
256.185	0.1045	512370	keystroke_n	n	n/a
256.305	0.1645	512610	keystroke_g	g	n/a
256.3945	0.135	512789	keystroke_Key.space	Key.space	n/a
256.785	0.1195	513570	keystroke_o	o	n/a
257.1445	0.18	514289	keystroke_c	c	n/a
257.3095	0.1205	514619	keystroke_l	l	n/a
257.819	0.105	515638	keystroke_o	o	n/a
258.254	0.12	516508	keystroke_Key.backspace	Key.backspace	n/a
258.3595	0.1055	516719	keystroke_c	c	n/a
258.734	0.1055	517468	keystroke_Key.space	Key.space	n/a
259.4545	0.18	518909	keystroke_d	d	n/a
259.5445	0.165	519089	keystroke_e	e	n/a
259.8895	0.0755	519779	keystroke_p	p	n/a
260.0695	0.0895	520139	keystroke_l	l	n/a
260.2345	0.075	520469	keystroke_o	o	n/a
260.4895	0.06	520979	keystroke_y	y	n/a
260.7305	0.1195	521461	keystroke_m	m	n/a
260.835	0.1505	521670	keystroke_e	e	n/a
260.9245	0.09	521849	keystroke_n	n	n/a
261.059	0.105	522118	keystroke_t	t	n/a
261.194	0.06	522388	keystroke_Key.enter	Key.enter	n/a
261.2615	9.9395	522523	prompt	n/a	decision samuel amenities nobody\n
262.2	0.1495	524400	keystroke_d	d	n/a
262.2895	0.121	524579	keystroke_e	e	n/a
262.6505	0.149	525301	keystroke_c	c	n/a
262.7545	0.1205	525509	keystroke_i	i	n/a
262.935	0.15	525870	keystroke_s	s	n/a
263.01	0.1495	526020	keystroke_i	i	n/a
263.0995	0.105	526199	keystroke_o	o	n/a
263.3095	0.1645	526619	keystroke_n	n	n/a
263.3845	0.1345	526769	keystroke_Key.space	Key.space	n/a
263.654	0.241	527308	keystroke_s	s	n/a
263.8195	0.1805	527639	keystroke_a	a	n/a
263.91	0.104	527820	keystroke_m	m	n/a
264.1945	0.1655	528389	keystroke_e	e	n/a
264.975	0.135	529950	keystroke_]	]	n/a
265.469	0.046	530938	keystroke_Key.backspace	Key.backspace	n/a
265.619	0.09	531238	keystroke_Key.backspace	Key.backspace	n/a
265.875	0.105	531750	keystroke_u	u	n/a
266.07	0.165	532140	keystroke_e	e	n/a
266.19	0.2095	532380	keystroke_l	l	n/a
266.3695	0.105	532739	keystroke_Key.space	Key.space	n/a
266.7595	0.15	533519	keystroke_a	a	n/a
266.8195	0.105	533639	keystroke_m	m	n/a
267.0155	0.104	534031	keystroke_i	i	n/a
267.2245	0.075	534449	keystroke_n	n	n/a
267.8995	0.09	535799	keystroke_Key.backspace	Key.backspace	n/a
268.0795	0.12	536159	keystroke_Key.backspace	Key.backspace	n/a
268.2295	0.18	536459	keystroke_e	e	n/a
268.4545	0.135	536909	keystroke_n	n	n/a
268.7845	0.15	537569	keystroke_i	i	n/a
268.9645	0.135	537929	keystroke_t	t	n/a
269.0845	0.135	538169	keystroke_i	i	n/a
269.2495	0.12	538499	keystroke_e	e	n/a
269.4455	0.179	538891	keystroke_s	s	n/a
269.5495	0.09	539099	keystroke_Key.space	Key.space	n/a
269.7895	0.075	539579	keystroke_n	n	n/a
269.9545	0.0905	539909	keystroke_o	o	n/a
270.1645	0.09	540329	keystroke_b	b	n/a
270.5545	0.1355	541109	keystroke_o	o	n/a
270.8545	0.09	541709	keystroke_d	d	n/a
270.8695	0.09	541739	keystroke_y	y	n/a
271.124	0.075	542248	keystroke_Key.enter	Key.enter	n/a
271.2045	6.5065	542409	prompt	n/a	signatures grip neon prepare\n
271.9645	0.12	543929	keystroke_s	s	n/a
272.0695	0.12	544139	keystroke_i	i	n/a
272.265	0.1195	544530	keystroke_g	g	n/a
272.355	0.1045	544710	keystroke_n	n	n/a
272.5795	0.09	545159	keystroke_a	a	n/a
272.7895	0.105	545579	keystroke_t	t	n/a
272.9095	0.135	545819	keystroke_u	u	n/a
273.0295	0.135	546059	keystroke_r	r	n/a
273.1205	0.104	546241	keystroke_e	e	n/a
273.3145	0.1505	546629	keystroke_s	s	n/a
273.4045	0.151	546809	keystroke_Key.space	Key.space	n/a
273.63	0.1945	547260	keystroke_f	f	n/a
273.8095	0.195	547619	keystroke_r	r	n/a
273.9445	0.1205	547889	keystroke_i	i	n/a
274.35	0.2545	548700	keystroke_p	p	n/a
274.4995	0.18	548999	keystroke_Key.space	Key.space	n/a
274.9495	0.105	549899	keystroke_n	n	n/a
275.0695	0.18	550139	keystroke_e	e	n/a
275.2345	0.1955	550469	keystroke_o	o	n/a
275.97	0.06	551940	keystroke_n	n	n/a
276.179	0.0755	552358	keystroke_Key.space	Key.space	n/a
276.4945	0.105	552989	keystroke_p	p	n/a
276.6145	0.136	553229	keystroke_r	r	n/a
276.7205	0.104	553441	keystroke_e	e	n/a
277.0045	0.105	554009	keystroke_p	p	n/a
277.0965	0.1635	554193	keystroke_a	a	n/a
277.2895	0.195	554579	keystroke_r	r	n/a
277.4245	0.1355	554849	keystroke_e	e	n/a
277.664	0.045	555328	keystroke_Key.enter	Key.enter	n/a
277.7155	8.8035	555431	prompt	n/a	mins insects tribes instructors\n
278.43	0.075	556860	keystroke_m	m	n/a
278.625	0.074	557250	keystroke_i	i	n/a
278.7745	0.1055	557549	keystroke_n	n	n/a
278.894	0.135	557788	keystroke_s	s	n/a
279.044	0.091	558088	keystroke_Key.space	Key.space	n/a
279.4645	0.0745	558929	keystroke_i	i	n/a
279.6595	0.0905	559319	keystroke_n	n	n/a
279.93	0.134	559860	keystroke_s	s	n/a
280.185	0.135	560370	keystroke_e	e	n/a
280.53	0.134	561060	keystroke_c	c	n/a
281.1145	0.0455	562229	keystroke_t	t	n/a
281.444	0.151	562888	keystroke_s	s	n/a
281.549	0.135	563098	keystroke_Key.space	Key.space	n/a
281.789	0.18	563578	keystroke_t	t	n/a
281.94	0.1645	563880	keystroke_r	r	n/a
282.074	0.106	564148	keystroke_i	i	n/a
282.2845	0.1355	564569	keystroke_b	b	n/a
282.4045	0.196	564809	keystroke_e	e	n/a
282.495	0.15	564990	keystroke_r	r	n/a
283.499	0.15	566998	keystroke_Key.backspace	Key.backspace	n/a
283.664	0.15	567328	keystroke_s	s	n/a
283.784	0.1355	567568	keystroke_Key.space	Key.space	n/a
284.4145	0.09	568829	keystroke_i	i	n/a
284.5945	0.1205	569189	keystroke_n	n	n/a
284.6995	0.1195	569399	keystroke_s	s	n/a
284.954	0.136	569908	keystroke_t	t	n/a
285.044	0.137	570088	keystroke_r	r	n/a
285.1045	0.121	570209	keystroke_u	u	n/a
285.39	0.09	570780	keystroke_c	c	n/a
285.7045	0.1505	571409	keystroke_t	t	n/a
285.7345	0.105	571469	keystroke_o	o	n/a
285.975	0.1355	571950	keystroke_r	r	n/a
286.035	0.1495	572070	keystroke_e	e	n/a
286.2895	0.12	572579	keystroke_s	s	n/a
286.44	0.075	572880	keystroke_Key.enter	Key.enter	n/a
286.526	13.3415	573052	prompt	n/a	implemented advances scripting forbes\n
287.4455	0.105	574891	keystroke_i	i	n/a
287.64	0.09	575280	keystroke_m	m	n/a
287.805	0.06	575610	keystroke_p	p	n/a
287.971	0.089	575942	keystroke_l	l	n/a
288.045	0.1045	576090	keystroke_e	e	n/a
288.1645	0.105	576329	keystroke_m	m	n/a
288.2555	0.104	576511	keystroke_e	e	n/a
288.3445	0.1205	576689	keystroke_n	n	n/a
288.4495	0.105	576899	keystroke_t	t	n/a
288.6595	0.1955	577319	keystroke_s	s	n/a
289.425	0.12	578850	keystroke_Key.backspace	Key.backspace	n/a
289.56	0.1345	579120	keystroke_d	d	n/a
289.9045	0.1195	579809	keystroke_Key.backspace	Key.backspace	n/a
290.01	0.149	580020	keystroke_e	e	n/a
290.115	0.12	580230	keystroke_d	d	n/a
290.25	0.12	580500	keystroke_Key.space	Key.space	n/a
290.49	0.18	580980	keystroke_a	a	n/a
290.925	0.15	581850	keystroke_d	d	n/a
291.2695	0.12	582539	keystroke_v	v	n/a
291.4045	0.15	582809	keystroke_a	a	n/a
291.54	0.1195	583080	keystroke_n	n	n/a
291.84	0.1945	583680	keystroke_e	e	n/a
292.1095	0.105	584219	keystroke_Key.space	Key.space	n/a
292.664	0.12	585328	keystroke_Key.backspace	Key.backspace	n/a
293.895	0.1045	587790	keystroke_Key.backspace	Key.backspace	n/a
294.5245	0.135	589049	keystroke_c	c	n/a
294.7795	0.1355	589559	keystroke_e	e	n/a
295.0355	0.165	590071	keystroke_s	s	n/a
295.2145	0.09	590429	keystroke_Key.space	Key.space	n/a
295.5595	0.045	591119	keystroke_e	e	n/a
295.9795	0.135	591959	keystroke_Key.backspace	Key.backspace	n/a
296.1155	0.1485	592231	keystroke_s	s	n/a
296.31	0.15	592620	keystroke_c	c	n/a
296.655	0.1945	593310	keystroke_r	r	n/a
297.539	0.12	595078	keystroke_i	i	n/a
297.825	0.1345	595650	keystroke_p	p	n/a
298.0195	0.1355	596039	keystroke_t	t	n/a
298.17	0.09	596340	keystroke_i	i	n/a
298.38	0.075	596760	keystroke_n	n	n/a
298.5	0.12	597000	keystroke_g	g	n/a
298.56	0.09	597120	keystroke_Key.space	Key.space	n/a
298.98	0.12	597960	keystroke_f	f	n/a
299.07	0.105	598140	keystroke_o	o	n/a
299.22	0.12	598440	keystroke_r	r	n/a
299.325	0.135	598650	keystroke_b	b	n/a
299.475	0.12	598950	keystroke_e	e	n/a
299.6845	0.1495	599369	keystroke_s	s	n/a
299.7895	0.075	599579	keystroke_Key.enter	Key.enter	n/a
299.879	9.332	599758	prompt	n/a	confidence position advantage expressions\n
300.645	0.164	601290	keystroke_c	c	n/a
300.734	0.0915	601468	keystroke_o	o	n/a
300.914	0.1055	601828	keystroke_n	n	n/a
301.095	0.1345	602190	keystroke_f	f	n/a
301.2005	0.089	602401	keystroke_i	i	n/a
301.38	0.1645	602760	keystroke_d	d	n/a
301.47	0.1645	602940	keystroke_e	e	n/a
301.5895	0.09	603179	keystroke_n	n	n/a
301.8595	0.255	603719	keystroke_e	e	n/a
302.0545	0.15	604109	keystroke_Key.space	Key.space	n/a
302.6545	0.075	605309	keystroke_Key.backspace	Key.backspace	n/a
302.8345	0.105	605669	keystroke_Key.backspace	Key.backspace	n/a
303.0745	0.225	606149	keystroke_c	c	n/a
303.2545	0.21	606509	keystroke_e	e	n/a
303.4495	0.1355	606899	keystroke_Key.space	Key.space	n/a
304.08	0.224	608160	keystroke_p	p	n/a
304.2	0.179	608400	keystroke_o	o	n/a
304.334	0.18	608668	keystroke_s	s	n/a
304.4705	0.1185	608941	keystroke_i	i	n/a
304.604	0.166	609208	keystroke_t	t	n/a
304.709	0.075	609418	keystroke_i	i	n/a
304.754	0.121	609508	keystroke_o	o	n/a
304.95	0.1805	609900	keystroke_n	n	n/a
305.3695	0.09	610739	keystroke_Key.space	Key.space	n/a
305.5495	0.15	611099	keystroke_a	a	n/a
305.7455	0.119	611491	keystroke_d	d	n/a
305.9405	0.104	611881	keystroke_v	v	n/a
306.0295	0.121	612059	keystroke_a	a	n/a
306.195	0.1195	612390	keystroke_n	n	n/a
306.33	0.044	612660	keystroke_t	t	n/a
306.4195	0.15	612839	keystroke_a	a	n/a
306.5245	0.075	613049	keystroke_g	g	n/a
306.6455	0.119	613291	keystroke_e	e	n/a
306.7345	0.105	613469	keystroke_Key.space	Key.space	n/a
307.3195	0.12	614639	keystroke_e	e	n/a
307.6045	0.1505	615209	keystroke_x	x	n/a
307.6945	0.135	615389	keystroke_p	p	n/a
307.965	0.105	615930	keystroke_r	r	n/a
308.01	0.15	616020	keystroke_e	e	n/a
308.2345	0.075	616469	keystroke_s	s	n/a
308.4145	0.135	616829	keystroke_s	s	n/a
308.4755	0.1195	616951	keystroke_i	i	n/a
308.565	0.0895	617130	keystroke_o	o	n/a
308.7145	0.1055	617429	keystroke_n	n	n/a
308.88	0.1195	617760	keystroke_s	s	n/a
309.1645	0.045	618329	keystroke_Key.enter	Key.enter	n/a
309.216	10.825	618432	prompt	n/a	replaced adobe determine gasoline\n
310.29	0.059	620580	keystroke_r	r	n/a
310.305	0.18	620610	keystroke_e	e	n/a
310.5005	0.074	621001	keystroke_p	p	n/a
310.7695	0.1495	621539	keystroke_a	a	n/a
310.83	0.15	621660	keystroke_l	l	n/a
311.399	0.105	622798	keystroke_Key.backspace	Key.backspace	n/a
311.609	0.075	623218	keystroke_Key.backspace	Key.backspace	n/a
312.03	0.1645	624060	keystroke_l	l	n/a
312.1955	0.164	624391	keystroke_a	a	n/a
312.4795	0.1205	624959	keystroke_c	c	n/a
312.7345	0.0455	625469	keystroke_e	e	n/a
312.9295	0.12	625859	keystroke_e	e	n/a
313.469	0.15	626938	keystroke_Key.backspace	Key.backspace	n/a
313.694	0.181	627388	keystroke_d	d	n/a
313.89	0.12	627780	keystroke_Key.space	Key.space	n/a
314.3095	0.165	628619	keystroke_a	a	n/a
314.6695	0.1655	629339	keystroke_d	d	n/a
315.525	0.09	631050	keystroke_o	o	n/a
315.764	0.091	631528	keystroke_b	b	n/a
315.885	0.1495	631770	keystroke_e	e	n/a
316.0045	0.1345	632009	keystroke_Key.space	Key.space	n/a
316.605	0.135	633210	keystroke_d	d	n/a
316.7855	0.2095	633571	keystroke_e	e	n/a
316.9805	0.1195	633961	keystroke_t	t	n/a
317.13	0.2255	634260	keystroke_e	e	n/a
317.2495	0.1505	634499	keystroke_r	r	n/a
317.3565	0.0885	634713	keystroke_m	m	n/a
317.5495	0.09	635099	keystroke_i	i	n/a
317.7	0.0745	635400	keystroke_n	n	n/a
317.7595	0.135	635519	keystroke_e	e	n/a
317.925	0.1045	635850	keystroke_Key.space	Key.space	n/a
318.4795	0.135	636959	keystroke_g	g	n/a
318.66	0.2405	637320	keystroke_a	a	n/a
318.8095	0.18	637619	keystroke_s	s	n/a
318.975	0.1195	637950	keystroke_o	o	n/a
319.3655	0.105	638731	keystroke_l	l	n/a
319.5745	0.06	639149	keystroke_i	i	n/a
319.7245	0.105	639449	keystroke_n	n	n/a
319.8145	0.1355	639629	keystroke_e	e	n/a
319.9645	0.0745	639929	keystroke_Key.enter	Key.enter	n/a
320.0475	6.669	640095	prompt	n/a	immediate burn solely nine\n
320.684	0.09	641368	keystroke_i	i	n/a
320.895	0.059	641790	keystroke_m	m	n/a
321.044	0.09	642088	keystroke_m	m	n/a
321.119	0.12	642238	keystroke_e	e	n/a
321.375	0.0905	642750	keystroke_d	d	n/a
321.4505	0.104	642901	keystroke_i	i	n/a
321.569	0.1205	643138	keystroke_a	a	n/a
321.81	0.119	643620	keystroke_t	t	n/a
321.9145	0.1645	643829	keystroke_e	e	n/a
322.094	0.0605	644188	keystroke_Key.space	Key.space	n/a
322.3195	0.09	644639	keystroke_b	b	n/a
322.5145	0.1055	645029	keystroke_u	u	n/a
322.769	0.1505	645538	keystroke_r	r	n/a
322.8605	0.1495	645721	keystroke_n	n	n/a
322.95	0.12	645900	keystroke_Key.space	Key.space	n/a
323.4295	0.15	646859	keystroke_d	d	n/a
323.5045	0.0905	647009	keystroke_o	o	n/a
324.0145	0.09	648029	keystroke_Key.backspace	Key.backspace	n/a
324.1795	0.1205	648359	keystroke_Key.backspace	Key.backspace	n/a
324.3445	0.1655	648689	keystroke_s	s	n/a
324.4495	0.1055	648899	keystroke_o	o	n/a
324.6445	0.135	649289	keystroke_l	l	n/a
325.2155	0.149	650431	keystroke_e	e	n/a
325.38	0.12	650760	keystroke_l	l	n/a
325.725	0.15	651450	keystroke_y	y	n/a
325.83	0.105	651660	keystroke_Key.space	Key.space	n/a
326.055	0.06	652110	keystroke_n	n	n/a
326.204	0.091	652408	keystroke_i	i	n/a
326.355	0.1045	652710	keystroke_n	n	n/a
326.43	0.1505	652860	keystroke_e	e	n/a
326.6545	0.06	653309	keystroke_Key.enter	Key.enter	n/a
326.724	7.538	653448	prompt	n/a	grammar closer corner asbestos\n
327.578	0.1125	655156	keystroke_g	g	n/a
327.6755	0.135	655351	keystroke_r	r	n/a
327.9145	0.181	655829	keystroke_a	a	n/a
328.0955	0.0295	656191	keystroke_m	m	n/a
328.2145	0.0905	656429	keystroke_m	m	n/a
328.29	0.135	656580	keystroke_a	a	n/a
328.6955	0.1495	657391	keystroke_r	r	n/a
328.92	0.12	657840	keystroke_Key.space	Key.space	n/a
329.6695	0.121	659339	keystroke_c	c	n/a
329.73	0.1055	659460	keystroke_l	l	n/a
329.9555	0.1495	659911	keystroke_o	o	n/a
330.1955	0.209	660391	keystroke_s	s	n/a
330.3145	0.27	660629	keystroke_e	e	n/a
330.4955	0.1795	660991	keystroke_r	r	n/a
330.6895	0.09	661379	keystroke_Key.space	Key.space	n/a
331.1405	0.1495	662281	keystroke_c	c	n/a
331.2445	0.136	662489	keystroke_o	o	n/a
331.4255	0.165	662851	keystroke_r	r	n/a
331.6055	0.075	663211	keystroke_n	n	n/a
331.7405	0.1495	663481	keystroke_e	e	n/a
331.8155	0.1495	663631	keystroke_r	r	n/a
331.92	0.1495	663840	keystroke_Key.space	Key.space	n/a
332.461	0.1495	664922	keystroke_a	a	n/a
332.67	0.136	665340	keystroke_s	s	n/a
333	0.105	666000	keystroke_b	b	n/a
333.1205	0.12	666241	keystroke_e	e	n/a
333.346	0.149	666692	keystroke_s	s	n/a
333.66	0.151	667320	keystroke_t	t	n/a
333.825	0.12	667650	keystroke_o	o	n/a
333.99	0.1655	667980	keystroke_r	r	n/a
334.1705	0.09	668341	keystroke_Key.enter	Key.enter	n/a
334.269	11.276	668538	prompt	n/a	justice suggesting thereafter jets\n
335.4305	0.09	670861	keystroke_j	j	n/a
335.611	0.1055	671222	keystroke_u	u	n/a
335.7005	0.105	671401	keystroke_s	s	n/a
335.9255	0.075	671851	keystroke_t	t	n/a
335.986	0.1195	671972	keystroke_i	i	n/a
336.255	0.2405	672510	keystroke_c	c	n/a
336.5105	0.135	673021	keystroke_Key.space	Key.space	n/a
336.57	0.18	673140	keystroke_e	e	n/a
337.02	0.0905	674040	keystroke_Key.backspace	Key.backspace	n/a
337.1705	0.119	674341	keystroke_Key.backspace	Key.backspace	n/a
337.2445	0.166	674489	keystroke_e	e	n/a
337.4405	0.1045	674881	keystroke_Key.space	Key.space	n/a
337.62	0.12	675240	keystroke_s	s	n/a
337.755	0.091	675510	keystroke_u	u	n/a
338.311	0.0595	676622	keystroke_g	g	n/a
338.4455	0.165	676891	keystroke_g	g	n/a
338.6405	0.135	677281	keystroke_e	e	n/a
338.8055	0.225	677611	keystroke_s	s	n/a
339.015	0.136	678030	keystroke_i	i	n/a
339.225	0.1045	678450	keystroke_n	n	n/a
339.886	0.1645	679772	keystroke_Key.backspace	Key.backspace	n/a
340.08	0.1655	680160	keystroke_Key.backspace	Key.backspace	n/a
340.4255	0.1645	680851	keystroke_t	t	n/a
340.56	0.12	681120	keystroke_i	i	n/a
340.74	0.106	681480	keystroke_n	n	n/a
340.83	0.136	681660	keystroke_g	g	n/a
340.981	0.104	681962	keystroke_Key.space	Key.space	n/a
341.34	0.12	682680	keystroke_t	t	n/a
341.4455	0.1045	682891	keystroke_h	h	n/a
341.535	0.181	683070	keystroke_e	e	n/a
341.626	0.195	683252	keystroke_r	r	n/a
341.955	0.1805	683910	keystroke_a	a	n/a
342.091	0.1195	684182	keystroke_b	b	n/a
342.7665	0.119	685533	keystroke_Key.backspace	Key.backspace	n/a
342.9905	0.12	685981	keystroke_f	f	n/a
343.261	0.105	686522	keystroke_t	t	n/a
343.382	0.224	686764	keystroke_e	e	n/a
343.5	0.121	687000	keystroke_r	r	n/a
343.621	0.134	687242	keystroke_Key.space	Key.space	n/a
344.8505	0.1505	689701	keystroke_j	j	n/a
344.9855	0.15	689971	keystroke_e	e	n/a
345.1655	0.12	690331	keystroke_t	t	n/a
345.3605	0.135	690721	keystroke_s	s	n/a
345.4655	0.075	690931	keystroke_Key.enter	Key.enter	n/a
345.5495	7.538	691099	prompt	n/a	checklist names church sussex\n
346.321	0.135	692642	keystroke_c	c	n/a
346.441	0.09	692882	keystroke_h	h	n/a
346.546	0.105	693092	keystroke_e	e	n/a
346.801	0.135	693602	keystroke_c	c	n/a
346.861	0.12	693722	keystroke_k	k	n/a
347.131	0.045	694262	keystroke_l	l	n/a
347.296	0.1495	694592	keystroke_i	i	n/a
347.4455	0.1055	694891	keystroke_s	s	n/a
347.671	0.1345	695342	keystroke_t	t	n/a
347.7905	0.106	695581	keystroke_Key.space	Key.space	n/a
348.061	0.1045	696122	keystroke_n	n	n/a
348.1805	0.135	696361	keystroke_a	a	n/a
348.3005	0.1055	696601	keystroke_m	m	n/a
348.4205	0.09	696841	keystroke_e	e	n/a
348.6005	0.1505	697201	keystroke_s	s	n/a
348.6755	0.1205	697351	keystroke_Key.space	Key.space	n/a
349.066	0.135	698132	keystroke_c	c	n/a
349.156	0.1195	698312	keystroke_h	h	n/a
349.2905	0.18	698581	keystroke_i	i	n/a
349.4555	0.12	698911	keystroke_r	r	n/a
349.9805	0.165	699961	keystroke_c	c	n/a
350.1155	0.18	700231	keystroke_h	h	n/a
350.2355	0.1195	700471	keystroke_Key.space	Key.space	n/a
350.61	0.166	701220	keystroke_a	a	n/a
351.0605	0.165	702121	keystroke_Key.backspace	Key.backspace	n/a
351.2555	0.105	702511	keystroke_e	e	n/a
351.4955	0.09	702991	keystroke_s	s	n/a
351.646	0.15	703292	keystroke_s	s	n/a
351.916	0.15	703832	keystroke_e	e	n/a
352.7405	0.2105	705481	keystroke_x	x	n/a
352.935	0.15	705870	keystroke_Key.enter	Key.enter	n/a
353.093	6.5195	706186	prompt	n/a	quad skill freelance friday\n
354.2275	0.2085	708455	keystroke_q	q	n/a
354.4815	0.1345	708963	keystroke_u	u	n/a
354.631	0.1805	709262	keystroke_a	a	n/a
354.871	0.1795	709742	keystroke_d	d	n/a
355.005	0.151	710010	keystroke_Key.space	Key.space	n/a
355.561	0.179	711122	keystroke_s	s	n/a
355.635	0.106	711270	keystroke_k	k	n/a
355.801	0.105	711602	keystroke_i	i	n/a
355.995	0.3015	711990	keystroke_l	l	n/a
356.2805	0.1955	712561	keystroke_Key.space	Key.space	n/a
356.9855	0.1045	713971	keystroke_f	f	n/a
357.226	0.12	714452	keystroke_r	r	n/a
357.331	0.12	714662	keystroke_e	e	n/a
357.5415	0.15	715083	keystroke_e	e	n/a
357.751	0.104	715502	keystroke_l	l	n/a
357.8415	0.179	715683	keystroke_a	a	n/a
357.975	0.09	715950	keystroke_n	n	n/a
358.1415	0.1345	716283	keystroke_c	c	n/a
358.1555	0.211	716311	keystroke_d	d	n/a
358.261	0.18	716522	keystroke_e	e	n/a
358.351	0.135	716702	keystroke_Key.space	Key.space	n/a
358.621	0.225	717242	keystroke_f	f	n/a
358.831	0.045	717662	keystroke_r	r	n/a
358.846	0.014	717692	keystroke_e	e	n/a
358.847	0.044	717694	keystroke_i	i	n/a
359.041	0.1205	718082	keystroke_n	n	n/a
359.056	0.195	718112	keystroke_d	d	n/a
359.131	0.2405	718262	keystroke_a	a	n/a
359.506	0.1045	719012	keystroke_Key.enter	Key.enter	n/a
359.618	9.0995	719236	prompt	n/a	either digest honda texas\n
360.391	0.164	720782	keystroke_e	e	n/a
360.571	0.135	721142	keystroke_i	i	n/a
360.691	0.09	721382	keystroke_t	t	n/a
360.8255	0.1055	721651	keystroke_h	h	n/a
360.856	0.18	721712	keystroke_e	e	n/a
360.961	0.12	721922	keystroke_r	r	n/a
361.02	0.106	722040	keystroke_Key.space	Key.space	n/a
361.321	0.165	722642	keystroke_f	f	n/a
361.366	0.1495	722732	keystroke_i	i	n/a
361.9655	0.06	723931	keystroke_Key.backspace	Key.backspace	n/a
362.1005	0.12	724201	keystroke_Key.backspace	Key.backspace	n/a
362.2505	0.15	724501	keystroke_d	d	n/a
362.385	0.0755	724770	keystroke_i	i	n/a
364.171	0.089	728342	keystroke_g	g	n/a
364.305	0.151	728610	keystroke_e	e	n/a
364.531	0.12	729062	keystroke_s	s	n/a
364.741	0.09	729482	keystroke_t	t	n/a
364.816	0.09	729632	keystroke_Key.space	Key.space	n/a
364.996	0.0905	729992	keystroke_h	h	n/a
365.1915	0.1045	730383	keystroke_o	o	n/a
365.371	0.1195	730742	keystroke_n	n	n/a
365.656	0.195	731312	keystroke_d	d	n/a
365.791	0.165	731582	keystroke_a	a	n/a
365.8805	0.12	731761	keystroke_Key.space	Key.space	n/a
366.3015	0.089	732603	keystroke_t	t	n/a
366.421	0.15	732842	keystroke_e	e	n/a
367.0655	0.135	734131	keystroke_c	c	n/a
367.4705	0.165	734941	keystroke_Key.backspace	Key.backspace	n/a
367.7415	0.1945	735483	keystroke_x	x	n/a
368.176	0.21	736352	keystroke_a	a	n/a
368.521	0.135	737042	keystroke_s	s	n/a
368.656	0.0595	737312	keystroke_Key.enter	Key.enter	n/a
368.731	7.921	737462	prompt	n/a	restored tiles teenage hardware\n
369.6155	0.09	739231	keystroke_r	r	n/a
369.6305	0.151	739261	keystroke_e	e	n/a
369.8855	0.166	739771	keystroke_s	s	n/a
370.0515	0.1195	740103	keystroke_t	t	n/a
370.126	0.135	740252	keystroke_o	o	n/a
370.396	0.1645	740792	keystroke_r	r	n/a
370.517	0.149	741034	keystroke_e	e	n/a
371.4755	0.135	742951	keystroke_d	d	n/a
371.6255	0.12	743251	keystroke_Key.space	Key.space	n/a
372.061	0.12	744122	keystroke_t	t	n/a
372.1665	0.089	744333	keystroke_i	i	n/a
372.375	0.1205	744750	keystroke_l	l	n/a
372.481	0.105	744962	keystroke_e	e	n/a
372.6915	0.12	745383	keystroke_s	s	n/a
372.796	0.1045	745592	keystroke_Key.space	Key.space	n/a
373.036	0.1055	746072	keystroke_t	t	n/a
373.2165	0.09	746433	keystroke_e	e	n/a
373.3815	0.1345	746763	keystroke_e	e	n/a
373.6955	0.1795	747391	keystroke_n	n	n/a
373.9955	0.151	747991	keystroke_a	a	n/a
374.086	0.12	748172	keystroke_g	g	n/a
374.207	0.1495	748414	keystroke_e	e	n/a
374.326	0.1195	748652	keystroke_Key.space	Key.space	n/a
374.611	0.1655	749222	keystroke_a	a	n/a
375.016	0.1045	750032	keystroke_Key.backspace	Key.backspace	n/a
375.2705	0.15	750541	keystroke_h	h	n/a
375.3615	0.1495	750723	keystroke_a	a	n/a
375.5255	0.106	751051	keystroke_r	r	n/a
375.7805	0.136	751561	keystroke_d	d	n/a
376.02	0.1365	752040	keystroke_w	w	n/a
376.186	0.1645	752372	keystroke_a	a	n/a
376.3665	0.164	752733	keystroke_r	r	n/a
376.456	0.15	752912	keystroke_e	e	n/a
376.5905	0.06	753181	keystroke_Key.enter	Key.enter	n/a
376.6555	8.969	753311	prompt	n/a	consistency jean suffer ghost\n
377.5805	0.135	755161	keystroke_c	c	n/a
377.731	0.0595	755462	keystroke_o	o	n/a
378.4965	0.1485	756993	keystroke_n	n	n/a
379.1565	0.1335	758313	keystroke_s	s	n/a
379.275	0.12	758550	keystroke_i	i	n/a
379.4115	0.135	758823	keystroke_s	s	n/a
379.7115	0.089	759423	keystroke_t	t	n/a
379.8455	0.15	759691	keystroke_e	e	n/a
379.9515	0.119	759903	keystroke_n	n	n/a
380.206	0.18	760412	keystroke_c	c	n/a
380.3405	0.195	760681	keystroke_y	y	n/a
380.461	0.1345	760922	keystroke_Key.space	Key.space	n/a
380.7765	0.1645	761553	keystroke_j	j	n/a
380.9855	0.1205	761971	keystroke_e	e	n/a
381.196	0.15	762392	keystroke_a	a	n/a
382.186	0.1795	764372	keystroke_n	n	n/a
382.291	0.1345	764582	keystroke_Key.space	Key.space	n/a
382.6355	0.1655	765271	keystroke_s	s	n/a
382.7265	0.0895	765453	keystroke_u	u	n/a
382.9805	0.06	765961	keystroke_f	f	n/a
383.1455	0.075	766291	keystroke_f	f	n/a
383.2965	0.164	766593	keystroke_e	e	n/a
383.3865	0.15	766773	keystroke_r	r	n/a
383.4905	0.09	766981	keystroke_Key.space	Key.space	n/a
384.331	0.135	768662	keystroke_g	g	n/a
384.496	0.106	768992	keystroke_h	h	n/a
384.766	0.165	769532	keystroke_s	s	n/a
385.066	0.135	770132	keystroke_o	o	n/a
385.561	0.0605	771122	keystroke_Key.enter	Key.enter	n/a
385.6375	0.1335	771275	keystroke_t	t	n/a
385.639	7.333	771278	prompt	n/a	wonderful giving salad shipped\n
386.941	0.134	773882	keystroke_Key.backspace	Key.backspace	n/a
387.166	0.15	774332	keystroke_w	w	n/a
387.271	0.089	774542	keystroke_o	o	n/a
387.436	0.1055	774872	keystroke_n	n	n/a
387.571	0.0905	775142	keystroke_d	d	n/a
387.691	0.18	775382	keystroke_e	e	n/a
387.811	0.089	775622	keystroke_r	r	n/a
388.036	0.135	776072	keystroke_f	f	n/a
388.066	0.134	776132	keystroke_u	u	n/a
388.366	0.2245	776732	keystroke_l	l	n/a
388.4705	0.165	776941	keystroke_Key.space	Key.space	n/a
388.966	0.12	777932	keystroke_g	g	n/a
389.0705	0.1055	778141	keystroke_i	i	n/a
389.3115	0.1195	778623	keystroke_v	v	n/a
389.371	0.0895	778742	keystroke_i	i	n/a
389.5515	0.1045	779103	keystroke_n	n	n/a
389.671	0.1195	779342	keystroke_g	g	n/a
389.7755	0.135	779551	keystroke_Key.space	Key.space	n/a
390.241	0.149	780482	keystroke_s	s	n/a
390.391	0.3755	780782	keystroke_a	a	n/a
390.42	0.0905	780840	keystroke_l	l	n/a
391.1415	0.15	782283	keystroke_a	a	n/a
391.411	0.1345	782822	keystroke_d	d	n/a
391.5155	0.105	783031	keystroke_Key.space	Key.space	n/a
391.7405	0.15	783481	keystroke_s	s	n/a
391.7855	0.1505	783571	keystroke_h	h	n/a
391.9205	0.09	783841	keystroke_i	i	n/a
392.1615	0.045	784323	keystroke_p	p	n/a
392.266	0.1355	784532	keystroke_p	p	n/a
392.3265	0.225	784653	keystroke_e	e	n/a
392.5665	0.209	785133	keystroke_d	d	n/a
392.9105	0.0605	785821	keystroke_Key.enter	Key.enter	n/a
392.982	8.7205	785964	prompt	n/a	icons disturbed treating intervention\n
393.826	0.135	787652	keystroke_i	i	n/a
394.021	0.15	788042	keystroke_c	c	n/a
394.1405	0.076	788281	keystroke_o	o	n/a
394.3055	0.09	788611	keystroke_n	n	n/a
394.4255	0.135	788851	keystroke_s	s	n/a
394.5455	0.1205	789091	keystroke_Key.space	Key.space	n/a
395.085	0.105	790170	keystroke_d	d	n/a
395.1615	0.1185	790323	keystroke_i	i	n/a
395.2955	0.121	790591	keystroke_s	s	n/a
395.596	0.135	791192	keystroke_t	t	n/a
395.715	0.106	791430	keystroke_r	r	n/a
395.745	0.106	791490	keystroke_u	u	n/a
395.926	0.1205	791852	keystroke_b	b	n/a
396.031	0.179	792062	keystroke_e	e	n/a
396.136	0.18	792272	keystroke_d	d	n/a
396.331	0.1045	792662	keystroke_Key.space	Key.space	n/a
396.9015	0.135	793803	keystroke_t	t	n/a
396.9765	0.165	793953	keystroke_r	r	n/a
397.2165	0.1195	794433	keystroke_e	e	n/a
397.441	0.1345	794882	keystroke_a	a	n/a
397.6955	0.135	795391	keystroke_t	t	n/a
397.7405	0.105	795481	keystroke_i	i	n/a
397.921	0.09	795842	keystroke_n	n	n/a
398.1005	0.09	796201	keystroke_g	g	n/a
398.1305	0.1055	796261	keystroke_Key.space	Key.space	n/a
398.686	0.119	797372	keystroke_i	i	n/a
398.866	0.12	797732	keystroke_n	n	n/a
398.941	0.12	797882	keystroke_t	t	n/a
399.121	0.21	798242	keystroke_e	e	n/a
399.211	0.135	798422	keystroke_r	r	n/a
399.495	0.226	798990	keystroke_v	v	n/a
399.661	0.165	799322	keystroke_e	e	n/a
399.736	0.119	799472	keystroke_n	n	n/a
399.9015	0.135	799803	keystroke_t	t	n/a
399.9905	0.1055	799981	keystroke_i	i	n/a
400.171	0.09	800342	keystroke_o	o	n/a
400.306	0.12	800612	keystroke_n	n	n/a
400.381	0.1055	800762	keystroke_g	g	n/a
401.3705	0.105	802741	keystroke_Key.backspace	Key.backspace	n/a
401.6405	0.06	803281	keystroke_Key.enter	Key.enter	n/a
401.7095	6.9375	803419	prompt	n/a	quantities adrian gains number\n
402.826	0.1795	805652	keystroke_q	q	n/a
402.975	0.1505	805950	keystroke_u	u	n/a
403.186	0.165	806372	keystroke_a	a	n/a
403.3055	0.1205	806611	keystroke_n	n	n/a
403.53	0.0915	807060	keystroke_t	t	n/a
403.591	0.105	807182	keystroke_i	i	n/a
403.726	0.135	807452	keystroke_t	t	n/a
403.816	0.121	807632	keystroke_i	i	n/a
403.92	0.1515	807840	keystroke_e	e	n/a
404.1765	0.1195	808353	keystroke_s	s	n/a
404.2355	0.1355	808471	keystroke_Key.space	Key.space	n/a
404.596	0.135	809192	keystroke_a	a	n/a
404.836	0.135	809672	keystroke_d	d	n/a
405.061	0.1505	810122	keystroke_r	r	n/a
405.166	0.09	810332	keystroke_e	e	n/a
405.286	0.135	810572	keystroke_i	i	n/a
405.481	0.225	810962	keystroke_a	a	n/a
405.571	0.1205	811142	keystroke_n	n	n/a
406.276	0.12	812552	keystroke_Key.space	Key.space	n/a
406.891	0.105	813782	keystroke_g	g	n/a
406.996	0.18	813992	keystroke_a	a	n/a
407.116	0.12	814232	keystroke_i	i	n/a
407.3115	0.074	814623	keystroke_n	n	n/a
407.4305	0.105	814861	keystroke_s	s	n/a
407.5205	0.09	815041	keystroke_Key.space	Key.space	n/a
407.7155	0.076	815431	keystroke_n	n	n/a
407.881	0.09	815762	keystroke_u	u	n/a
408.091	0.0445	816182	keystroke_m	m	n/a
408.2555	0.0905	816511	keystroke_b	b	n/a
408.316	0.1495	816632	keystroke_e	e	n/a
408.376	0.1345	816752	keystroke_r	r	n/a
408.5705	0.0745	817141	keystroke_Key.enter	Key.enter	n/a
408.6545	7.988	817309	prompt	n/a	higher springfield sewing environment\n
409.6815	0.104	819363	keystroke_h	h	n/a
409.7865	0.119	819573	keystroke_i	i	n/a
409.876	0.1045	819752	keystroke_g	g	n/a
409.9965	0.119	819993	keystroke_h	h	n/a
411	0.226	822000	keystroke_e	e	n/a
411.121	0.12	822242	keystroke_r	r	n/a
411.2555	0.1195	822511	keystroke_Key.space	Key.space	n/a
411.481	0.135	822962	keystroke_s	s	n/a
411.556	0.15	823112	keystroke_p	p	n/a
411.751	0.12	823502	keystroke_r	r	n/a
411.841	0.089	823682	keystroke_i	i	n/a
412.005	0.106	824010	keystroke_n	n	n/a
412.066	0.1345	824132	keystroke_g	g	n/a
412.3805	0.135	824761	keystroke_f	f	n/a
412.4705	0.105	824941	keystroke_i	i	n/a
412.6055	0.21	825211	keystroke_e	e	n/a
412.7105	0.121	825421	keystroke_l	l	n/a
412.8165	0.179	825633	keystroke_d	d	n/a
412.9505	0.135	825901	keystroke_Key.space	Key.space	n/a
413.6115	0.149	827223	keystroke_s	s	n/a
413.911	0.12	827822	keystroke_e	e	n/a
414.1655	0.1355	828331	keystroke_w	w	n/a
414.2715	0.0895	828543	keystroke_i	i	n/a
414.4355	0.12	828871	keystroke_n	n	n/a
414.571	0.12	829142	keystroke_g	g	n/a
414.6605	0.1355	829321	keystroke_Key.space	Key.space	n/a
415.1105	0.1505	830221	keystroke_e	e	n/a
415.2155	0.105	830431	keystroke_n	n	n/a
415.426	0.105	830852	keystroke_v	v	n/a
415.4855	0.1205	830971	keystroke_i	i	n/a
415.741	0.12	831482	keystroke_r	r	n/a
415.801	0.045	831602	keystroke_o	o	n/a
415.936	0.105	831872	keystroke_n	n	n/a
416.056	0.12	832112	keystroke_e	e	n/a
416.1455	0.045	832291	keystroke_m	m	n/a
416.2805	0.09	832561	keystroke_n	n	n/a
416.3555	0.1505	832711	keystroke_t	t	n/a
416.566	0.0745	833132	keystroke_Key.enter	Key.enter	n/a
416.646	10.6015	833292	prompt	n/a	stations wake aggressive sustainability\n
417.556	0.12	835112	keystroke_s	s	n/a
417.826	0.0755	835652	keystroke_t	t	n/a
417.9605	0.1505	835921	keystroke_a	a	n/a
418.155	0.12	836310	keystroke_t	t	n/a
418.2015	0.1495	836403	keystroke_i	i	n/a
418.29	0.091	836580	keystroke_o	o	n/a
418.471	0.12	836942	keystroke_n	n	n/a
418.546	0.1045	837092	keystroke_s	s	n/a
418.696	0.0895	837392	keystroke_Key.space	Key.space	n/a
418.756	0.165	837512	keystroke_w	w	n/a
418.981	0.1345	837962	keystroke_a	a	n/a
419.3415	0.134	838683	keystroke_k	k	n/a
419.537	0.134	839074	keystroke_e	e	n/a
419.6255	0.135	839251	keystroke_Key.space	Key.space	n/a
419.8205	0.151	839641	keystroke_a	a	n/a
420.0315	0.119	840063	keystroke_f	f	n/a
420.2255	0.12	840451	keystroke_f	f	n/a
420.9755	0.09	841951	keystroke_Key.backspace	Key.backspace	n/a
421.1405	0.12	842281	keystroke_Key.backspace	Key.backspace	n/a
421.2915	0.0745	842583	keystroke_g	g	n/a
421.456	0.1045	842912	keystroke_g	g	n/a
421.7405	0.1655	843481	keystroke_r	r	n/a
421.8455	0.12	843691	keystroke_e	e	n/a
422.0555	0.0905	844111	keystroke_s	s	n/a
422.2355	0.135	844471	keystroke_s	s	n/a
422.341	0.12	844682	keystroke_i	i	n/a
422.4455	0.2555	844891	keystroke_v	v	n/a
422.6105	0.15	845221	keystroke_e	e	n/a
422.6705	0.1205	845341	keystroke_Key.space	Key.space	n/a
423.0315	0.194	846063	keystroke_s	s	n/a
423.1655	0.12	846331	keystroke_u	u	n/a
423.2865	0.134	846573	keystroke_s	s	n/a
423.586	0.104	847172	keystroke_t	t	n/a
423.8705	0.1505	847741	keystroke_a	a	n/a
423.946	0.105	847892	keystroke_i	i	n/a
424.7105	0.106	849421	keystroke_n	n	n/a
425.461	0.1955	850922	keystroke_a	a	n/a
425.581	0.12	851162	keystroke_b	b	n/a
425.82	0.09	851640	keystroke_i	i	n/a
426.046	0.0745	852092	keystroke_l	l	n/a
426.196	0.119	852392	keystroke_i	i	n/a
426.796	0.1505	853592	keystroke_t	t	n/a
426.886	0.12	853772	keystroke_y	y	n/a
427.2	0.045	854400	keystroke_Key.enter	Key.enter	n/a
427.2625	8.5805	854525	prompt	n/a	exists charlie south spouse\n
428.0115	0.119	856023	keystroke_e	e	n/a
428.641	0.1795	857282	keystroke_x	x	n/a
428.9555	0.165	857911	keystroke_i	i	n/a
429.3755	0.105	858751	keystroke_s	s	n/a
429.585	0.106	859170	keystroke_t	t	n/a
429.766	0.15	859532	keystroke_s	s	n/a
429.885	0.1055	859770	keystroke_Key.space	Key.space	n/a
430.0955	0.1805	860191	keystroke_c	c	n/a
430.2605	0.135	860521	keystroke_h	h	n/a
430.3815	0.1795	860763	keystroke_a	a	n/a
430.5765	0.1345	861153	keystroke_r	r	n/a
430.682	0.089	861364	keystroke_l	l	n/a
430.876	0.105	861752	keystroke_i	i	n/a
430.9665	0.1795	861933	keystroke_e	e	n/a
431.746	0.12	863492	keystroke_Key.space	Key.space	n/a
432.032	0.1935	864064	keystroke_s	s	n/a
432.0915	0.1785	864183	keystroke_o	o	n/a
432.2115	0.1035	864423	keystroke_u	u	n/a
432.42	0.09	864840	keystroke_t	t	n/a
432.481	0.194	864962	keystroke_h	h	n/a
432.601	0.1345	865202	keystroke_Key.space	Key.space	n/a
432.765	0.1665	865530	keystroke_s	s	n/a
432.841	0.255	865682	keystroke_o	o	n/a
433.006	0.075	866012	keystroke_i	i	n/a
433.891	0.1495	867782	keystroke_Key.backspace	Key.backspace	n/a
434.1455	0.1355	868291	keystroke_Key.backspace	Key.backspace	n/a
434.5365	0.194	869073	keystroke_p	p	n/a
435.031	0.1045	870062	keystroke_o	o	n/a
435.256	0.1495	870512	keystroke_u	u	n/a
435.3905	0.225	870781	keystroke_s	s	n/a
435.5415	0.179	871083	keystroke_e	e	n/a
435.7505	0.09	871501	keystroke_Key.enter	Key.enter	n/a
435.852	11.045	871704	prompt	n/a	adaptor justice focused eminem\n
436.577	0.164	873154	keystroke_a	a	n/a
436.831	0.165	873662	keystroke_d	d	n/a
436.967	0.1785	873934	keystroke_a	a	n/a
437.1155	0.165	874231	keystroke_p	p	n/a
437.4615	0.1495	874923	keystroke_t	t	n/a
437.9555	0.0605	875911	keystroke_o	o	n/a
438.076	0.1205	876152	keystroke_r	r	n/a
438.2105	0.12	876421	keystroke_Key.space	Key.space	n/a
438.4815	0.0895	876963	keystroke_j	j	n/a
438.661	0.15	877322	keystroke_u	u	n/a
438.751	0.12	877502	keystroke_s	s	n/a
439.1415	0.1045	878283	keystroke_t	t	n/a
439.26	0.121	878520	keystroke_i	i	n/a
439.455	0.196	878910	keystroke_c	c	n/a
439.636	0.149	879272	keystroke_Key.space	Key.space	n/a
440.3115	0.1345	880623	keystroke_f	f	n/a
440.3715	0.1645	880743	keystroke_o	o	n/a
440.716	0.15	881432	keystroke_s	s	n/a
440.776	0.105	881552	keystroke_u	u	n/a
441.8405	0.09	883681	keystroke_Key.backspace	Key.backspace	n/a
442.0355	0.076	884071	keystroke_Key.backspace	Key.backspace	n/a
443.025	0.091	886050	keystroke_c	c	n/a
443.161	0.135	886322	keystroke_u	u	n/a
443.236	0.135	886472	keystroke_s	s	n/a
443.52	0.1815	887040	keystroke_e	e	n/a
443.611	0.1645	887222	keystroke_d	d	n/a
443.7455	0.135	887491	keystroke_Key.space	Key.space	n/a
444.0305	0.1645	888061	keystroke_e	e	n/a
444.4815	0.15	888963	keystroke_m	m	n/a
444.7355	0.09	889471	keystroke_i	i	n/a
444.9005	0.0905	889801	keystroke_n	n	n/a
445.066	0.1195	890132	keystroke_i	i	n/a
446.2955	0.1205	892591	keystroke_Key.backspace	Key.backspace	n/a
446.4615	0.179	892923	keystroke_e	e	n/a
446.6105	0.0895	893221	keystroke_m	m	n/a
446.8505	0.0445	893701	keystroke_Key.enter	Key.enter	n/a
446.901	7.271	893802	prompt	n/a	absolute famous taxi combining\n
447.766	0.1345	895532	keystroke_a	a	n/a
447.87	0.136	895740	keystroke_b	b	n/a
448.065	0.1205	896130	keystroke_s	s	n/a
448.1405	0.09	896281	keystroke_o	o	n/a
448.3365	0.059	896673	keystroke_l	l	n/a
448.5605	0.105	897121	keystroke_u	u	n/a
448.681	0.0595	897362	keystroke_t	t	n/a
448.786	0.165	897572	keystroke_e	e	n/a
448.936	0.134	897872	keystroke_Key.space	Key.space	n/a
449.5215	0.119	899043	keystroke_f	f	n/a
449.6565	0.149	899313	keystroke_a	a	n/a
449.701	0.12	899402	keystroke_m	m	n/a
450.046	0.1195	900092	keystroke_o	o	n/a
450.211	0.1055	900422	keystroke_u	u	n/a
450.3465	0.135	900693	keystroke_s	s	n/a
450.4505	0.12	900901	keystroke_Key.space	Key.space	n/a
450.856	0.074	901712	keystroke_t	t	n/a
451.006	0.135	902012	keystroke_a	a	n/a
451.5765	0.1345	903153	keystroke_x	x	n/a
451.7405	0.21	903481	keystroke_i	i	n/a
451.8905	0.121	903781	keystroke_Key.space	Key.space	n/a
452.116	0.165	904232	keystroke_c	c	n/a
452.1765	0.105	904353	keystroke_o	o	n/a
452.866	0.135	905732	keystroke_m	m	n/a
453.196	0.075	906392	keystroke_b	b	n/a
453.346	0.105	906692	keystroke_i	i	n/a
453.571	0.045	907142	keystroke_n	n	n/a
453.721	0.09	907442	keystroke_i	i	n/a
453.856	0.105	907712	keystroke_n	n	n/a
453.916	0.0905	907832	keystroke_g	g	n/a
454.126	0.045	908252	keystroke_Key.enter	Key.enter	n/a
454.1765	8.1855	908353	prompt	n/a	advertise delayed more photography\n
455.1465	0.149	910293	keystroke_a	a	n/a
455.3405	0.15	910681	keystroke_d	d	n/a
455.6405	0.1045	911281	keystroke_v	v	n/a
455.7305	0.18	911461	keystroke_e	e	n/a
455.836	0.09	911672	keystroke_r	r	n/a
456.0455	0.061	912091	keystroke_t	t	n/a
456.166	0.105	912332	keystroke_i	i	n/a
456.256	0.224	912512	keystroke_s	s	n/a
456.39	0.181	912780	keystroke_e	e	n/a
456.555	0.091	913110	keystroke_Key.space	Key.space	n/a
456.826	0.105	913652	keystroke_f	f	n/a
456.975	0.255	913950	keystroke_e	e	n/a
457.471	0.089	914942	keystroke_Key.backspace	Key.backspace	n/a
457.635	0.1055	915270	keystroke_Key.backspace	Key.backspace	n/a
457.756	0.15	915512	keystroke_f	f	n/a
458.161	0.134	916322	keystroke_Key.backspace	Key.backspace	n/a
458.3115	0.149	916623	keystroke_d	d	n/a
458.385	0.1665	916770	keystroke_e	e	n/a
458.4905	0.1505	916981	keystroke_l	l	n/a
458.791	0.12	917582	keystroke_a	a	n/a
459.06	0.075	918120	keystroke_t	t	n/a
459.21	0.166	918420	keystroke_e	e	n/a
459.345	0.15	918690	keystroke_d	d	n/a
459.496	0.09	918992	keystroke_Key.space	Key.space	n/a
459.75	0.076	919500	keystroke_m	m	n/a
459.901	0.1205	919802	keystroke_o	o	n/a
459.975	0.121	919950	keystroke_r	r	n/a
460.036	0.15	920072	keystroke_e	e	n/a
460.1705	0.075	920341	keystroke_Key.space	Key.space	n/a
460.3055	0.09	920611	keystroke_p	p	n/a
460.5155	0.0905	921031	keystroke_h	h	n/a
460.7105	0.09	921421	keystroke_o	o	n/a
460.7705	0.1055	921541	keystroke_t	t	n/a
460.876	0.1195	921752	keystroke_o	o	n/a
461.1005	0.15	922201	keystroke_g	g	n/a
461.2805	0.1505	922561	keystroke_r	r	n/a
461.5955	0.135	923191	keystroke_a	a	n/a
461.6105	0.076	923221	keystroke_p	p	n/a
461.7905	0.105	923581	keystroke_h	h	n/a
462.0305	0.09	924061	keystroke_y	y	n/a
462.3155	0.045	924631	keystroke_Key.enter	Key.enter	n/a
462.376	12.136	924752	prompt	n/a	newspapers broadband ranges circumstances\n
465.0785	0.027	930157	keystroke_n	n	n/a
465.1505	0.1655	930301	keystroke_e	e	n/a
465.2705	0.1505	930541	keystroke_w	w	n/a
465.556	0.165	931112	keystroke_s	s	n/a
465.7055	0.105	931411	keystroke_p	p	n/a
465.8255	0.1795	931651	keystroke_a	a	n/a
465.9155	0.1045	931831	keystroke_p	p	n/a
466.1255	0.211	932251	keystroke_e	e	n/a
466.2455	0.1205	932491	keystroke_r	r	n/a
466.4715	0.164	932943	keystroke_s	s	n/a
466.6505	0.105	933301	keystroke_Key.space	Key.space	n/a
467.0255	0.091	934051	keystroke_b	b	n/a
467.566	0.135	935132	keystroke_r	r	n/a
467.686	0.105	935372	keystroke_o	o	n/a
467.836	0.135	935672	keystroke_a	a	n/a
468.0315	0.15	936063	keystroke_d	d	n/a
468.436	0.105	936872	keystroke_b	b	n/a
468.556	0.1345	937112	keystroke_a	a	n/a
468.675	0.166	937350	keystroke_d	d	n/a
468.7655	0.0905	937531	keystroke_n	n	n/a
468.9455	0.12	937891	keystroke_Key.space	Key.space	n/a
469.3355	0.105	938671	keystroke_r	r	n/a
469.4555	0.21	938911	keystroke_a	a	n/a
469.5615	0.1195	939123	keystroke_n	n	n/a
469.7105	0.1505	939421	keystroke_d	d	n/a
470.461	0.1495	940922	keystroke_Key.backspace	Key.backspace	n/a
470.5955	0.1055	941191	keystroke_g	g	n/a
470.8505	0.15	941701	keystroke_e	e	n/a
471.1355	0.1505	942271	keystroke_s	s	n/a
471.2255	0.1355	942451	keystroke_Key.space	Key.space	n/a
471.766	0.165	943532	keystroke_c	c	n/a
471.946	0.12	943892	keystroke_i	i	n/a
472.216	0.104	944432	keystroke_r	r	n/a
472.501	0.1805	945002	keystroke_c	c	n/a
472.696	0.0905	945392	keystroke_u	u	n/a
472.9055	0.15	945811	keystroke_m	m	n/a
473.401	0.12	946802	keystroke_s	s	n/a
473.551	0.044	947102	keystroke_t	t	n/a
473.656	0.15	947312	keystroke_a	a	n/a
473.791	0.165	947582	keystroke_n	n	n/a
474.075	0.136	948150	keystroke_e	e	n/a
474.316	0.1345	948632	keystroke_s	s	n/a
474.4355	0.0755	948871	keystroke_Key.enter	Key.enter	n/a
474.5175	8.605	949035	prompt	n/a	epinions students desktop evening\n
475.4115	0.134	950823	keystroke_e	e	n/a
476.206	0.165	952412	keystroke_p	p	n/a
476.581	0.12	953162	keystroke_i	i	n/a
476.851	0.06	953702	keystroke_n	n	n/a
477.016	0.09	954032	keystroke_i	i	n/a
477.18	0.105	954360	keystroke_o	o	n/a
477.361	0.089	954722	keystroke_n	n	n/a
477.391	0.12	954782	keystroke_s	s	n/a
477.585	0.135	955170	keystroke_Key.space	Key.space	n/a
477.676	0.15	955352	keystroke_s	s	n/a
478.456	0.12	956912	keystroke_t	t	n/a
478.591	0.105	957182	keystroke_u	u	n/a
478.9355	0.181	957871	keystroke_d	d	n/a
479.0405	0.195	958081	keystroke_e	e	n/a
479.1755	0.1055	958351	keystroke_n	n	n/a
479.3555	0.0905	958711	keystroke_t	t	n/a
479.491	0.1345	958982	keystroke_s	s	n/a
479.5805	0.1345	959161	keystroke_Key.space	Key.space	n/a
479.97	0.166	959940	keystroke_d	d	n/a
480.046	0.1505	960092	keystroke_e	e	n/a
480.256	0.18	960512	keystroke_s	s	n/a
480.856	0.135	961712	keystroke_k	k	n/a
481.186	0.09	962372	keystroke_t	t	n/a
481.231	0.09	962462	keystroke_o	o	n/a
481.412	0.119	962824	keystroke_p	p	n/a
481.68	0.121	963360	keystroke_Key.space	Key.space	n/a
481.921	0.15	963842	keystroke_e	e	n/a
482.1755	0.12	964351	keystroke_v	v	n/a
482.31	0.15	964620	keystroke_e	e	n/a
482.4305	0.0745	964861	keystroke_n	n	n/a
482.595	0.075	965190	keystroke_i	i	n/a
482.73	0.106	965460	keystroke_n	n	n/a
482.8205	0.1205	965641	keystroke_g	g	n/a
483.0455	0.075	966091	keystroke_Key.enter	Key.enter	n/a
483.1315	9.4855	966263	prompt	n/a	extremely guard occasionally henry\n
483.8405	0.1355	967681	keystroke_e	e	n/a
484.471	0.1495	968942	keystroke_x	x	n/a
484.8305	0.121	969661	keystroke_t	t	n/a
485.0255	0.1955	970051	keystroke_r	r	n/a
485.1455	0.15	970291	keystroke_e	e	n/a
485.311	0.0595	970622	keystroke_m	m	n/a
485.3555	0.1955	970711	keystroke_e	e	n/a
485.5355	0.121	971071	keystroke_l	l	n/a
485.8955	0.15	971791	keystroke_y	y	n/a
485.9705	0.135	971941	keystroke_Key.space	Key.space	n/a
486.6	0.105	973200	keystroke_g	g	n/a
486.72	0.121	973440	keystroke_u	u	n/a
486.885	0.1365	973770	keystroke_a	a	n/a
487.081	0.09	974162	keystroke_r	r	n/a
487.305	0.136	974610	keystroke_d	d	n/a
487.411	0.1495	974822	keystroke_Key.space	Key.space	n/a
487.666	0.1345	975332	keystroke_a	a	n/a
487.966	0.135	975932	keystroke_c	c	n/a
488.642	0.149	977284	keystroke_c	c	n/a
488.956	0.165	977912	keystroke_a	a	n/a
489.421	0.195	978842	keystroke_s	s	n/a
489.586	0.105	979172	keystroke_i	i	n/a
489.661	0.12	979322	keystroke_o	o	n/a
489.84	0.1215	979680	keystroke_n	n	n/a
489.9465	0.165	979893	keystroke_a	a	n/a
490.081	0.1045	980162	keystroke_l	l	n/a
490.696	0.105	981392	keystroke_l	l	n/a
491.0105	0.18	982021	keystroke_y	y	n/a
491.116	0.12	982232	keystroke_Key.space	Key.space	n/a
491.5065	0.1195	983013	keystroke_h	h	n/a
491.641	0.1345	983282	keystroke_e	e	n/a
491.7615	0.089	983523	keystroke_n	n	n/a
492.166	0.12	984332	keystroke_r	r	n/a
492.2565	0.0895	984513	keystroke_y	y	n/a
492.541	0.075	985082	keystroke_Key.enter	Key.enter	n/a
492.6215	9.2985	985243	prompt	n/a	executed calendars transcript relatives\n
493.5315	0.104	987063	keystroke_e	e	n/a
493.9055	0.1505	987811	keystroke_x	x	n/a
494.221	0.105	988442	keystroke_e	e	n/a
494.506	0.12	989012	keystroke_c	c	n/a
494.5955	0.12	989191	keystroke_u	u	n/a
494.866	0.0595	989732	keystroke_t	t	n/a
495.0755	0.195	990151	keystroke_e	e	n/a
495.225	0.135	990450	keystroke_d	d	n/a
495.345	0.12	990690	keystroke_Key.space	Key.space	n/a
495.601	0.15	991202	keystroke_c	c	n/a
495.7955	0.1655	991591	keystroke_a	a	n/a
495.931	0.105	991862	keystroke_l	l	n/a
496.0505	0.1805	992101	keystroke_e	e	n/a
496.201	0.12	992402	keystroke_n	n	n/a
496.261	0.225	992522	keystroke_d	d	n/a
496.456	0.18	992912	keystroke_a	a	n/a
496.666	0.15	993332	keystroke_r	r	n/a
496.981	0.1655	993962	keystroke_s	s	n/a
497.1005	0.121	994201	keystroke_Key.space	Key.space	n/a
497.5955	0.105	995191	keystroke_t	t	n/a
497.6565	0.135	995313	keystroke_r	r	n/a
497.911	0.15	995822	keystroke_a	a	n/a
498.0465	0.1045	996093	keystroke_n	n	n/a
498.1955	0.1205	996391	keystroke_s	s	n/a
498.4955	0.105	996991	keystroke_c	c	n/a
498.736	0.1795	997472	keystroke_r	r	n/a
498.8555	0.09	997711	keystroke_i	i	n/a
499.0655	0.0905	998131	keystroke_p	p	n/a
499.306	0.0895	998612	keystroke_Key.space	Key.space	n/a
499.6955	0.12	999391	keystroke_Key.backspace	Key.backspace	n/a
499.862	0.164	999724	keystroke_t	t	n/a
500.07	0.15	1000140	keystroke_Key.space	Key.space	n/a
500.446	0.1645	1000892	keystroke_r	r	n/a
500.55	0.106	1001100	keystroke_e	e	n/a
500.641	0.15	1001282	keystroke_l	l	n/a
500.775	0.1355	1001550	keystroke_a	a	n/a
500.956	0.12	1001912	keystroke_t	t	n/a
501.0605	0.151	1002121	keystroke_i	i	n/a
501.3315	0.194	1002663	keystroke_v	v	n/a
501.4505	0.1805	1002901	keystroke_e	e	n/a
501.6765	0.164	1003353	keystroke_s	s	n/a
501.8255	0.09	1003651	keystroke_Key.enter	Key.enter	n/a
501.936	8.411	1003872	prompt	n/a	economic worthy republic vary\n
502.5605	0.1055	1005121	keystroke_e	e	n/a
503.0855	0.1955	1006171	keystroke_c	c	n/a
503.2655	0.135	1006531	keystroke_o	o	n/a
503.5355	0.076	1007071	keystroke_n	n	n/a
503.7155	0.105	1007431	keystroke_o	o	n/a
503.9565	0.044	1007913	keystroke_m	m	n/a
504.1805	0.105	1008361	keystroke_i	i	n/a
505.2765	0.1195	1010553	keystroke_c	c	n/a
505.441	0.12	1010882	keystroke_Key.space	Key.space	n/a
505.591	0.135	1011182	keystroke_w	w	n/a
505.6805	0.12	1011361	keystroke_o	o	n/a
505.7855	0.1055	1011571	keystroke_r	r	n/a
506.012	0.179	1012024	keystroke_t	t	n/a
506.161	0.135	1012322	keystroke_h	h	n/a
506.416	0.1945	1012832	keystroke_y	y	n/a
506.551	0.12	1013102	keystroke_Key.space	Key.space	n/a
507.1065	0.1345	1014213	keystroke_r	r	n/a
507.181	0.1655	1014362	keystroke_e	e	n/a
507.39	0.1665	1014780	keystroke_p	p	n/a
507.675	0.091	1015350	keystroke_u	u	n/a
507.901	0.135	1015802	keystroke_b	b	n/a
507.976	0.1055	1015952	keystroke_l	l	n/a
508.1865	0.119	1016373	keystroke_i	i	n/a
508.3205	0.195	1016641	keystroke_c	c	n/a
508.5005	0.09	1017001	keystroke_Key.space	Key.space	n/a
508.7555	0.12	1017511	keystroke_w	w	n/a
509.175	0.165	1018350	keystroke_Key.backspace	Key.backspace	n/a
509.537	0.104	1019074	keystroke_v	v	n/a
509.626	0.1645	1019252	keystroke_a	a	n/a
509.9105	0.15	1019821	keystroke_r	r	n/a
510.0005	0.0745	1020001	keystroke_y	y	n/a
510.286	0.0595	1020572	keystroke_Key.enter	Key.enter	n/a
510.3505	8.217	1020701	prompt	n/a	henry flickr explorer thin\n
511.126	0.12	1022252	keystroke_h	h	n/a
512.0565	0.134	1024113	keystroke_e	e	n/a
512.176	0.1195	1024352	keystroke_n	n	n/a
512.6255	0.136	1025251	keystroke_r	r	n/a
512.731	0.1645	1025462	keystroke_y	y	n/a
512.866	0.1345	1025732	keystroke_Key.space	Key.space	n/a
513.601	0.135	1027202	keystroke_f	f	n/a
513.676	0.0895	1027352	keystroke_l	l	n/a
513.8715	0.119	1027743	keystroke_i	i	n/a
514.396	0.12	1028792	keystroke_c	c	n/a
514.531	0.09	1029062	keystroke_k	k	n/a
514.741	0.12	1029482	keystroke_r	r	n/a
515.1905	0.12	1030381	keystroke_Key.space	Key.space	n/a
515.4155	0.135	1030831	keystroke_e	e	n/a
515.7905	0.165	1031581	keystroke_x	x	n/a
515.9255	0.12	1031851	keystroke_p	p	n/a
516.361	0.0745	1032722	keystroke_l	l	n/a
516.556	0.12	1033112	keystroke_o	o	n/a
516.811	0.1055	1033622	keystroke_r	r	n/a
517.4115	0.195	1034823	keystroke_e	e	n/a
517.5155	0.15	1035031	keystroke_r	r	n/a
517.696	0.105	1035392	keystroke_Key.space	Key.space	n/a
517.9355	0.135	1035871	keystroke_t	t	n/a
518.0255	0.1055	1036051	keystroke_h	h	n/a
518.0715	0.1345	1036143	keystroke_i	i	n/a
518.2505	0.106	1036501	keystroke_n	n	n/a
518.5055	0.06	1037011	keystroke_Key.enter	Key.enter	n/a
518.5725	6.775	1037145	prompt	n/a	mistakes deluxe rally named\n
519.2565	0.074	1038513	keystroke_m	m	n/a
519.4355	0.1205	1038871	keystroke_i	i	n/a
519.4805	0.136	1038961	keystroke_s	s	n/a
519.7215	0.06	1039443	keystroke_t	t	n/a
519.8415	0.1495	1039683	keystroke_a	a	n/a
519.9465	0.1345	1039893	keystroke_k	k	n/a
520.096	0.15	1040192	keystroke_e	e	n/a
520.471	0.195	1040942	keystroke_s	s	n/a
520.876	0.135	1041752	keystroke_Key.space	Key.space	n/a
521.296	0.1645	1042592	keystroke_d	d	n/a
521.385	0.165	1042770	keystroke_e	e	n/a
521.6105	0.0745	1043221	keystroke_l	l	n/a
521.881	0.075	1043762	keystroke_u	u	n/a
522.286	0.1205	1044572	keystroke_x	x	n/a
522.5405	0.165	1045081	keystroke_e	e	n/a
522.6905	0.12	1045381	keystroke_Key.space	Key.space	n/a
523.186	0.09	1046372	keystroke_r	r	n/a
523.322	0.1485	1046644	keystroke_a	a	n/a
523.381	0.06	1046762	keystroke_l	l	n/a
523.501	0.09	1047002	keystroke_l	l	n/a
523.7565	0.135	1047513	keystroke_y	y	n/a
523.8605	0.075	1047721	keystroke_Key.space	Key.space	n/a
524.041	0.105	1048082	keystroke_n	n	n/a
524.147	0.149	1048294	keystroke_a	a	n/a
524.311	0.1505	1048622	keystroke_k	k	n/a
524.7	0.091	1049400	keystroke_Key.backspace	Key.backspace	n/a
524.94	0.076	1049880	keystroke_m	m	n/a
525.031	0.135	1050062	keystroke_e	e	n/a
525.106	0.135	1050212	keystroke_d	d	n/a
525.271	0.074	1050542	keystroke_Key.enter	Key.enter	n/a
525.3515	7.406	1050703	prompt	n/a	chrysler clinical being knee\n
526.291	0.15	1052582	keystroke_c	c	n/a
526.411	0.09	1052822	keystroke_h	h	n/a
526.561	0.12	1053122	keystroke_r	r	n/a
526.666	0.104	1053332	keystroke_i	i	n/a
526.815	0.166	1053630	keystroke_s	s	n/a
527.086	0.104	1054172	keystroke_l	l	n/a
527.235	0.211	1054470	keystroke_e	e	n/a
527.356	0.15	1054712	keystroke_r	r	n/a
527.535	0.135	1055070	keystroke_Key.space	Key.space	n/a
527.8665	0.164	1055733	keystroke_c	c	n/a
527.941	0.075	1055882	keystroke_l	l	n/a
528.106	0.075	1056212	keystroke_i	i	n/a
528.3455	0.1055	1056691	keystroke_n	n	n/a
528.526	0.135	1057052	keystroke_i	i	n/a
528.8715	0.1495	1057743	keystroke_c	c	n/a
528.9755	0.181	1057951	keystroke_a	a	n/a
529.0515	0.18	1058103	keystroke_l	l	n/a
529.2015	0.089	1058403	keystroke_Key.space	Key.space	n/a
529.4255	0.105	1058851	keystroke_b	b	n/a
529.5155	0.151	1059031	keystroke_e	e	n/a
529.6065	0.09	1059213	keystroke_i	i	n/a
529.7705	0.0755	1059541	keystroke_n	n	n/a
529.861	0.105	1059722	keystroke_g	g	n/a
529.9505	0.06	1059901	keystroke_Key.space	Key.space	n/a
530.116	0.1195	1060232	keystroke_j	j	n/a
530.2665	0.134	1060533	keystroke_n	n	n/a
530.8355	0.0605	1061671	keystroke_Key.backspace	Key.backspace	n/a
530.956	0.0745	1061912	keystroke_Key.backspace	Key.backspace	n/a
531.211	0.0595	1062422	keystroke_k	k	n/a
531.39	0.075	1062780	keystroke_n	n	n/a
531.4805	0.1195	1062961	keystroke_e	e	n/a
531.646	0.0905	1063292	keystroke_w	w	n/a
532.096	0.1045	1064192	keystroke_Key.backspace	Key.backspace	n/a
532.2155	0.135	1064431	keystroke_e	e	n/a
532.6355	0.1205	1065271	keystroke_Key.enter	Key.enter	n/a
532.764	6.7895	1065528	prompt	n/a	assignments doing shoppers fridge\n
533.3415	0.1495	1066683	keystroke_a	a	n/a
533.5505	0.09	1067101	keystroke_s	s	n/a
533.7155	0.136	1067431	keystroke_s	s	n/a
533.806	0.1195	1067612	keystroke_i	i	n/a
533.986	0.1195	1067972	keystroke_g	g	n/a
534.046	0.105	1068092	keystroke_n	n	n/a
534.271	0.06	1068542	keystroke_m	m	n/a
534.3455	0.135	1068691	keystroke_e	e	n/a
534.4655	0.06	1068931	keystroke_n	n	n/a
534.781	0.1345	1069562	keystroke_t	t	n/a
535.0355	0.21	1070071	keystroke_s	s	n/a
535.1855	0.1045	1070371	keystroke_Key.space	Key.space	n/a
535.8015	0.1945	1071603	keystroke_d	d	n/a
535.891	0.195	1071782	keystroke_o	o	n/a
535.996	0.12	1071992	keystroke_i	i	n/a
536.2505	0.1055	1072501	keystroke_n	n	n/a
536.3715	0.134	1072743	keystroke_g	g	n/a
536.476	0.1045	1072952	keystroke_Key.space	Key.space	n/a
536.7155	0.165	1073431	keystroke_s	s	n/a
536.8505	0.091	1073701	keystroke_h	h	n/a
537.046	0.09	1074092	keystroke_o	o	n/a
537.256	0.045	1074512	keystroke_p	p	n/a
537.391	0.135	1074782	keystroke_p	p	n/a
537.511	0.18	1075022	keystroke_e	e	n/a
537.601	0.105	1075202	keystroke_r	r	n/a
537.7965	0.1495	1075593	keystroke_s	s	n/a
537.886	0.12	1075772	keystroke_Key.space	Key.space	n/a
538.456	0.164	1076912	keystroke_f	f	n/a
538.576	0.1955	1077152	keystroke_r	r	n/a
538.7415	0.165	1077483	keystroke_i	i	n/a
539.086	0.1345	1078172	keystroke_d	d	n/a
539.1755	0.1055	1078351	keystroke_g	g	n/a
539.3255	0.165	1078651	keystroke_e	e	n/a
539.4605	0.09	1078921	keystroke_Key.enter	Key.enter	n/a
539.5735	6.9105	1079147	prompt	n/a	ireland phone mobiles yourself\n
540.331	0.1195	1080662	keystroke_i	i	n/a
540.57	0.136	1081140	keystroke_r	r	n/a
540.6615	0.134	1081323	keystroke_e	e	n/a
540.8565	0.1195	1081713	keystroke_l	l	n/a
540.991	0.15	1081982	keystroke_a	a	n/a
541.156	0.0595	1082312	keystroke_n	n	n/a
541.2305	0.15	1082461	keystroke_d	d	n/a
541.441	0.0895	1082882	keystroke_Key.space	Key.space	n/a
541.636	0.1045	1083272	keystroke_p	p	n/a
541.8455	0.0755	1083691	keystroke_h	h	n/a
541.996	0.0895	1083992	keystroke_o	o	n/a
542.1605	0.105	1084321	keystroke_n	n	n/a
542.296	0.1345	1084592	keystroke_e	e	n/a
542.4455	0.09	1084891	keystroke_Key.space	Key.space	n/a
543.2105	0.105	1086421	keystroke_Key.backspace	Key.backspace	n/a
543.4805	0.075	1086961	keystroke_m	m	n/a
543.661	0.135	1087322	keystroke_o	o	n/a
543.9305	0.136	1087861	keystroke_b	b	n/a
544.051	0.075	1088102	keystroke_i	i	n/a
544.262	0.089	1088524	keystroke_l	l	n/a
544.366	0.09	1088732	keystroke_e	e	n/a
544.561	0.105	1089122	keystroke_s	s	n/a
544.651	0.12	1089302	keystroke_Key.space	Key.space	n/a
545.0855	0.06	1090171	keystroke_y	y	n/a
545.2355	0.195	1090471	keystroke_o	o	n/a
545.3105	0.1355	1090621	keystroke_u	u	n/a
545.4755	0.1205	1090951	keystroke_r	r	n/a
545.791	0.12	1091582	keystroke_s	s	n/a
546.001	0.1495	1092002	keystroke_e	e	n/a
546.105	0.12	1092210	keystroke_l	l	n/a
546.256	0.1195	1092512	keystroke_f	f	n/a
546.3905	0.09	1092781	keystroke_Key.enter	Key.enter	n/a
546.493	5.7355	1092986	prompt	n/a	missile lecture crest reel\n
547.126	0.1055	1094252	keystroke_m	m	n/a
547.3205	0.105	1094641	keystroke_i	i	n/a
547.4265	0.089	1094853	keystroke_s	s	n/a
547.606	0.195	1095212	keystroke_s	s	n/a
547.8155	0.0755	1095631	keystroke_i	i	n/a
