onset	duration	sample	value	key	prompt_text
3.201	9.6055	6402	prompt	n/a	the quick brown fox jumps over a lazy dog\n
4.152	0.0285	8304	keystroke	t	n/a
4.195	0.09	8390	keystroke	h	n/a
4.435	0.09	8870	keystroke	e	n/a
4.54	0.09	9080	keystroke	Key.space	n/a
4.631	0.119	9262	keystroke	q	n/a
4.765	0.075	9530	keystroke	u	n/a
4.9005	0.0595	9801	keystroke	c	n/a
4.93	0.075	9860	keystroke	i	n/a
6.232	0.06	12464	keystroke	Key.backspace	n/a
6.3675	0.0605	12735	keystroke	Key.backspace	n/a
6.503	0.0745	13006	keystroke	Key.backspace	n/a
6.9225	0.091	13845	keystroke	i	n/a
7.148	0.105	14296	keystroke	Key.backspace	n/a
7.4635	0.0295	14927	keystroke	y	n/a
7.733	0.09	15466	keystroke	Key.backspace	n/a
7.9125	0.0755	15825	keystroke	u	n/a
8.093	0.0745	16186	keystroke	i	n/a
8.1975	0.0905	16395	keystroke	c	n/a
8.302	0.0755	16604	keystroke	k	n/a
8.4825	0.0895	16965	keystroke	Key.space	n/a
8.588	0.06	17176	keystroke	b	n/a
8.753	0.0905	17506	keystroke	r	n/a
8.8275	0.075	17655	keystroke	o	n/a
8.9325	0.1055	17865	keystroke	w	n/a
9.0225	0.0605	18045	keystroke	n	n/a
9.143	0.09	18286	keystroke	Key.space	n/a
9.203	0.12	18406	keystroke	f	n/a
9.353	0.09	18706	keystroke	o	n/a
9.458	0.09	18916	keystroke	x	n/a
9.563	0.06	19126	keystroke	Key.space	n/a
9.7425	0.045	19485	keystroke	j	n/a
9.878	0.0595	19756	keystroke	u	n/a
10.0425	0.075	20085	keystroke	m	n/a
10.2375	0.075	20475	keystroke	p	n/a
10.3275	0.09	20655	keystroke	s	n/a
10.4325	0.0745	20865	keystroke	Key.space	n/a
10.612	0.076	21224	keystroke	o	n/a
10.658	0.09	21316	keystroke	v	n/a
10.717	0.166	21434	keystroke	e	n/a
10.853	0.105	21706	keystroke	r	n/a
10.9275	0.0895	21855	keystroke	Key.space	n/a
11.063	0.0895	22126	keystroke	a	n/a
11.1075	0.075	22215	keystroke	Key.space	n/a
11.3175	0.0755	22635	keystroke	l	n/a
11.7375	0.06	23475	keystroke	a	n/a
11.918	0.105	23836	keystroke	z	n/a
12.068	0.104	24136	keystroke	y	n/a
12.187	0.1055	24374	keystroke	Key.space	n/a
12.323	0.09	24646	keystroke	d	n/a
12.457	0.075	24914	keystroke	o	n/a
12.547	0.09	25094	keystroke	g	n/a
12.683	0.119	25366	keystroke	Key.enter	n/a
12.813	8.1665	25626	prompt	n/a	continuously national clara dolls\n
13.343	0.0745	26686	keystroke	c	n/a
13.433	0.0595	26866	keystroke	o	n/a
13.5975	0.075	27195	keystroke	n	n/a
13.6575	0.1055	27315	keystroke	t	n/a
13.793	0.075	27586	keystroke	i	n/a
13.943	0.06	27886	keystroke	n	n/a
14.1075	0.045	28215	keystroke	u	n/a
14.273	0.0745	28546	keystroke	o	n/a
14.4225	0.075	28845	keystroke	u	n/a
14.5125	0.09	29025	keystroke	s	n/a
14.6175	0.09	29235	keystroke	l	n/a
14.7375	0.075	29475	keystroke	y	n/a
14.8425	0.06	29685	keystroke	Key.space	n/a
15.0075	0.0905	30015	keystroke	n	n/a
15.0675	0.12	30135	keystroke	a	n/a
15.1575	0.09	30315	keystroke	t	n/a
15.398	0.0745	30796	keystroke	o	n/a
15.4425	0.09	30885	keystroke	n	n/a
15.6375	0.075	31275	keystroke	a	n/a
15.773	0.105	31546	keystroke	l	n/a
16.2075	0.075	32415	keystroke	Key.backspace	n/a
16.3425	0.075	32685	keystroke	Key.backspace	n/a
16.477	0.075	32954	keystroke	Key.backspace	n/a
16.6125	0.0895	33225	keystroke	Key.backspace	n/a
16.913	0.0145	33826	keystroke	u	n/a
17.2875	0.075	34575	keystroke	Key.backspace	n/a
17.692	0.076	35384	keystroke	i	n/a
17.858	0.075	35716	keystroke	o	n/a
18.053	0.0745	36106	keystroke	n	n/a
18.173	0.089	36346	keystroke	a	n/a
18.247	0.061	36494	keystroke	l	n/a
18.4275	0.075	36855	keystroke	Key.space	n/a
18.488	0.1345	36976	keystroke	d	n/a
18.593	0.1345	37186	keystroke	a	n/a
18.758	0.0895	37516	keystroke	t	n/a
19.0275	0.06	38055	keystroke	Key.backspace	n/a
19.1775	0.06	38355	keystroke	Key.backspace	n/a
19.282	0.09	38564	keystroke	Key.backspace	n/a
19.403	0.0895	38806	keystroke	c	n/a
19.5075	0.0895	39015	keystroke	l	n/a
19.612	0.12	39224	keystroke	a	n/a
19.883	0.1495	39766	keystroke	r	n/a
20.0175	0.12	40035	keystroke	a	n/a
20.1825	0.06	40365	keystroke	Key.space	n/a
20.2575	0.075	40515	keystroke	d	n/a
20.3925	0.06	40785	keystroke	o	n/a
20.558	0.0445	41116	keystroke	l	n/a
20.6625	0.0905	41325	keystroke	l	n/a
20.738	0.105	41476	keystroke	s	n/a
20.8275	0.15	41655	keystroke	Key.enter	n/a
20.9845	7.0455	41969	prompt	n/a	affiliation glasses medicine ultimately\n
21.563	0.104	43126	keystroke	a	n/a
21.6975	0.0595	43395	keystroke	f	n/a
21.817	0.075	43634	keystroke	f	n/a
21.9225	0.0595	43845	keystroke	i	n/a
22.087	0.0755	44174	keystroke	l	n/a
22.2525	0.0755	44505	keystroke	i	n/a
22.357	0.12	44714	keystroke	a	n/a
22.4625	0.0745	44925	keystroke	t	n/a
22.552	0.06	45104	keystroke	i	n/a
22.702	0.0755	45404	keystroke	o	n/a
22.747	0.105	45494	keystroke	n	n/a
22.972	0.09	45944	keystroke	Key.space	n/a
23.107	0.1055	46214	keystroke	g	n/a
23.348	0.0895	46696	keystroke	l	n/a
23.4825	0.135	46965	keystroke	a	n/a
23.5875	0.09	47175	keystroke	s	n/a
23.7075	0.1205	47415	keystroke	s	n/a
24.0675	0.1205	48135	keystroke	e	n/a
24.158	0.1045	48316	keystroke	s	n/a
24.4575	0.09	48915	keystroke	Key.space	n/a
24.7575	0.105	49515	keystroke	m	n/a
24.8475	0.09	49695	keystroke	e	n/a
24.998	0.0745	49996	keystroke	d	n/a
25.1325	0.0605	50265	keystroke	i	n/a
25.523	0.074	51046	keystroke	c	n/a
25.6725	0.0755	51345	keystroke	i	n/a
25.867	0.075	51734	keystroke	n	n/a
25.958	0.075	51916	keystroke	e	n/a
26.047	0.06	52094	keystroke	Key.space	n/a
26.242	0.06	52484	keystroke	u	n/a
26.438	0.0895	52876	keystroke	l	n/a
26.513	0.0745	53026	keystroke	t	n/a
26.633	0.06	53266	keystroke	i	n/a
26.7975	0.0755	53595	keystroke	m	n/a
26.843	0.105	53686	keystroke	a	n/a
26.993	0.1045	53986	keystroke	t	n/a
27.068	0.105	54136	keystroke	e	n/a
27.188	0.075	54376	keystroke	l	n/a
27.293	0.06	54586	keystroke	t	n/a
27.6675	0.0755	55335	keystroke	Key.backspace	n/a
27.7275	0.0905	55455	keystroke	y	n/a
27.892	0.135	55784	keystroke	Key.enter	n/a
28.0345	5.41	56069	prompt	n/a	accuracy wash operators frozen\n
28.4775	0.1205	56955	keystroke	a	n/a
28.627	0.061	57254	keystroke	c	n/a
28.7325	0.075	57465	keystroke	c	n/a
28.9125	0.075	57825	keystroke	u	n/a
28.973	0.0895	57946	keystroke	r	n/a
29.0925	0.1345	58185	keystroke	a	n/a
29.182	0.076	58364	keystroke	c	n/a
29.3925	0.06	58785	keystroke	y	n/a
29.4975	0.09	58995	keystroke	Key.space	n/a
29.918	0.1195	59836	keystroke	w	n/a
30.0225	0.1655	60045	keystroke	a	n/a
30.1125	0.06	60225	keystroke	s	n/a
30.473	0.0595	60946	keystroke	h	n/a
30.7425	0.075	61485	keystroke	Key.space	n/a
30.9525	0.0605	61905	keystroke	o	n/a
31.118	0.0745	62236	keystroke	p	n/a
31.1625	0.105	62325	keystroke	e	n/a
31.2375	0.135	62475	keystroke	r	n/a
31.358	0.105	62716	keystroke	a	n/a
31.448	0.105	62896	keystroke	t	n/a
31.583	0.03	63166	keystroke	o	n/a
31.658	0.089	63316	keystroke	r	n/a
31.808	0.104	63616	keystroke	s	n/a
31.9875	0.0895	63975	keystroke	Key.space	n/a
32.528	0.09	65056	keystroke	f	n/a
32.708	0.075	65416	keystroke	r	n/a
32.812	0.09	65624	keystroke	o	n/a
32.932	0.09	65864	keystroke	z	n/a
33.068	0.1045	66136	keystroke	e	n/a
33.173	0.09	66346	keystroke	n	n/a
33.3225	0.12	66645	keystroke	Key.enter	n/a
33.449	7.7505	66898	prompt	n/a	lightning boston employees segments\n
34.012	0.076	68024	keystroke	l	n/a
34.208	0.0595	68416	keystroke	i	n/a
34.283	0.089	68566	keystroke	g	n/a
34.387	0.1205	68774	keystroke	n	n/a
34.838	0.0895	69676	keystroke	Key.backspace	n/a
34.958	0.0745	69916	keystroke	t	n/a
35.1075	0.045	70215	keystroke	n	n/a
35.3625	0.075	70725	keystroke	Key.backspace	n/a
35.4825	0.1055	70965	keystroke	Key.backspace	n/a
35.573	0.074	71146	keystroke	h	n/a
35.753	0.09	71506	keystroke	t	n/a
35.903	0.09	71806	keystroke	n	n/a
36.143	0.06	72286	keystroke	i	n/a
36.248	0.059	72496	keystroke	g	n/a
36.3675	0.075	72735	keystroke	n	n/a
36.8025	0.06	73605	keystroke	Key.backspace	n/a
36.9225	0.075	73845	keystroke	Key.backspace	n/a
37.1325	0.0605	74265	keystroke	n	n/a
37.208	0.075	74416	keystroke	g	n/a
37.298	0.089	74596	keystroke	Key.space	n/a
37.462	0.0905	74924	keystroke	b	n/a
37.567	0.061	75134	keystroke	o	n/a
37.628	0.1345	75256	keystroke	s	n/a
37.7475	0.09	75495	keystroke	t	n/a
37.838	0.0445	75676	keystroke	o	n/a
38.0025	0.06	76005	keystroke	n	n/a
38.1375	0.075	76275	keystroke	Key.space	n/a
38.2425	0.105	76485	keystroke	e	n/a
38.3175	0.09	76635	keystroke	m	n/a
38.5275	0.075	77055	keystroke	p	n/a
38.6775	0.0905	77355	keystroke	l	n/a
38.873	0.0595	77746	keystroke	o	n/a
38.9775	0.09	77955	keystroke	y	n/a
39.3075	0.075	78615	keystroke	e	n/a
39.4725	0.075	78945	keystroke	e	n/a
39.6075	0.09	79215	keystroke	s	n/a
39.7425	0.075	79485	keystroke	Key.space	n/a
39.9525	0.09	79905	keystroke	s	n/a
40.1175	0.09	80235	keystroke	e	n/a
40.238	0.0895	80476	keystroke	g	n/a
40.4775	0.0905	80955	keystroke	m	n/a
40.6425	0.105	81285	keystroke	e	n/a
40.7775	0.075	81555	keystroke	n	n/a
40.8675	0.12	81735	keystroke	t	n/a
40.9725	0.105	81945	keystroke	s	n/a
41.0925	0.105	82185	keystroke	Key.enter	n/a
41.2055	6.8945	82411	prompt	n/a	postposted back bicycle compiler\n
41.7225	0.0455	83445	keystroke	p	n/a
41.8875	0.045	83775	keystroke	o	n/a
42.0825	0.09	84165	keystroke	s	n/a
42.2475	0.0755	84495	keystroke	t	n/a
42.5475	0.06	85095	keystroke	o	n/a
42.7875	0.09	85575	keystroke	Key.backspace	n/a
42.9525	0.075	85905	keystroke	p	n/a
43.1175	0.075	86235	keystroke	o	n/a
43.3425	0.0755	86685	keystroke	n	n/a
43.433	0.1045	86866	keystroke	e	n/a
43.582	0.075	87164	keystroke	d	n/a
43.672	0.06	87344	keystroke	Key.space	n/a
43.807	0.0305	87614	keystroke	b	n/a
44.347	0.061	88694	keystroke	a	n/a
44.453	0.105	88906	keystroke	c	n/a
44.573	0.09	89146	keystroke	k	n/a
44.7675	0.0745	89535	keystroke	Key.space	n/a
44.9625	0.0755	89925	keystroke	b	n/a
45.082	0.0605	90164	keystroke	i	n/a
45.2025	0.09	90405	keystroke	c	n/a
45.4425	0.0595	90885	keystroke	y	n/a
45.637	0.0755	91274	keystroke	c	n/a
45.742	0.105	91484	keystroke	l	n/a
45.848	0.0745	91696	keystroke	e	n/a
46.597	0.1055	93194	keystroke	Key.space	n/a
46.823	0.105	93646	keystroke	c	n/a
46.9425	0.045	93885	keystroke	o	n/a
47.108	0.0595	94216	keystroke	m	n/a
47.3625	0.03	94725	keystroke	p	n/a
47.5425	0.0745	95085	keystroke	i	n/a
47.752	0.09	95504	keystroke	l	n/a
47.857	0.105	95714	keystroke	e	n/a
47.9175	0.1205	95835	keystroke	r	n/a
47.977	0.12	95954	keystroke	Key.enter	n/a
48.1055	6.534	96211	prompt	n/a	globe suspected played occupation\n
48.7275	0.075	97455	keystroke	l	n/a
48.9225	0.075	97845	keystroke	Key.backspace	n/a
49.0125	0.075	98025	keystroke	g	n/a
49.0575	0.0905	98115	keystroke	l	n/a
49.312	0.0155	98624	keystroke	o	n/a
49.343	0.0595	98686	keystroke	b	n/a
49.7925	0.0895	99585	keystroke	e	n/a
49.9275	0.1045	99855	keystroke	Key.space	n/a
50.047	0.076	100094	keystroke	s	n/a
50.183	0.06	100366	keystroke	u	n/a
50.258	0.105	100516	keystroke	s	n/a
50.4375	0.075	100875	keystroke	p	n/a
50.5135	0.1195	101027	keystroke	e	n/a
50.6775	0.0755	101355	keystroke	c	n/a
50.858	0.0895	101716	keystroke	t	n/a
50.9325	0.105	101865	keystroke	e	n/a
51.0525	0.0755	102105	keystroke	d	n/a
51.172	0.09	102344	keystroke	Key.space	n/a
51.382	0.0905	102764	keystroke	g	n/a
51.6225	0.105	103245	keystroke	Key.backspace	n/a
51.7575	0.075	103515	keystroke	p	n/a
51.923	0.0895	103846	keystroke	l	n/a
51.9975	0.12	103995	keystroke	a	n/a
52.1025	0.135	104205	keystroke	y	n/a
52.1925	0.12	104385	keystroke	e	n/a
52.3575	0.09	104715	keystroke	d	n/a
52.4925	0.06	104985	keystroke	Key.space	n/a
52.6125	0.0755	105225	keystroke	c	n/a
52.733	0.06	105466	keystroke	o	n/a
52.927	0.06	105854	keystroke	Key.backspace	n/a
53.047	0.09	106094	keystroke	Key.backspace	n/a
53.198	0.075	106396	keystroke	o	n/a
53.273	0.06	106546	keystroke	c	n/a
53.407	0.09	106814	keystroke	c	n/a
53.557	0.09	107114	keystroke	u	n/a
53.7975	0.06	107595	keystroke	p	n/a
53.903	0.0895	107806	keystroke	a	n/a
54.008	0.0745	108016	keystroke	t	n/a
54.1125	0.0595	108225	keystroke	i	n/a
54.2625	0.105	108525	keystroke	o	n/a
54.368	0.074	108736	keystroke	n	n/a
54.547	0.09	109094	keystroke	Key.enter	n/a
54.6475	7.042	109295	prompt	n/a	comparison areas agriculture scsi\n
55.238	0.0595	110476	keystroke	c	n/a
55.3125	0.06	110625	keystroke	o	n/a
55.4925	0.06	110985	keystroke	m	n/a
55.6875	0.06	111375	keystroke	p	n/a
55.778	0.1345	111556	keystroke	a	n/a
55.8675	0.09	111735	keystroke	r	n/a
56.0175	0.06	112035	keystroke	i	n/a
56.1525	0.09	112305	keystroke	s	n/a
56.2575	0.06	112515	keystroke	o	n/a
56.453	0.0595	112906	keystroke	n	n/a
56.7975	0.09	113595	keystroke	Key.space	n/a
56.9475	0.135	113895	keystroke	a	n/a
57.0675	0.0895	114135	keystroke	r	n/a
57.2625	0.09	114525	keystroke	e	n/a
57.3675	0.1345	114735	keystroke	a	n/a
57.937	0.076	115874	keystroke	Key.backspace	n/a
58.2225	0.12	116445	keystroke	a	n/a
58.3725	0.09	116745	keystroke	s	n/a
58.4925	0.1045	116985	keystroke	Key.space	n/a
58.762	0.0905	117524	keystroke	a	n/a
58.867	0.0755	117734	keystroke	g	n/a
59.047	0.075	118094	keystroke	r	n/a
59.137	0.091	118274	keystroke	i	n/a
59.2875	0.09	118575	keystroke	c	n/a
59.4075	0.06	118815	keystroke	u	n/a
59.588	0.089	119176	keystroke	l	n/a
59.662	0.0755	119324	keystroke	t	n/a
59.813	0.074	119626	keystroke	u	n/a
59.857	0.1205	119714	keystroke	r	n/a
59.947	0.106	119894	keystroke	e	n/a
60.0825	0.1045	120165	keystroke	Key.space	n/a
60.247	0.09	120494	keystroke	s	n/a
60.412	0.09	120824	keystroke	c	n/a
61.0725	0.075	122145	keystroke	s	n/a
61.387	0.075	122774	keystroke	i	n/a
61.582	0.1055	123164	keystroke	Key.enter	n/a
61.696	5.078	123392	prompt	n/a	organizational stop fate illegal\n
62.2725	0.1045	124545	keystroke	o	n/a
62.362	0.0755	124724	keystroke	r	n/a
62.527	0.106	125054	keystroke	g	n/a
62.618	0.09	125236	keystroke	a	n/a
62.737	0.09	125474	keystroke	n	n/a
62.947	0.076	125894	keystroke	i	n/a
63.007	0.105	126014	keystroke	z	n/a
63.1875	0.1345	126375	keystroke	a	n/a
63.293	0.09	126586	keystroke	t	n/a
63.352	0.075	126704	keystroke	i	n/a
63.517	0.075	127034	keystroke	o	n/a
63.562	0.091	127124	keystroke	n	n/a
63.8175	0.015	127635	keystroke	a	n/a
63.848	0.044	127696	keystroke	l	n/a
64.012	0.0905	128024	keystroke	Key.space	n/a
64.0875	0.09	128175	keystroke	s	n/a
64.1925	0.075	128385	keystroke	t	n/a
64.2525	0.075	128505	keystroke	o	n/a
64.4325	0.075	128865	keystroke	p	n/a
64.4925	0.1195	128985	keystroke	Key.space	n/a
64.688	0.074	129376	keystroke	f	n/a
64.7025	0.0905	129405	keystroke	a	n/a
65.3175	0.1345	130635	keystroke	t	n/a
65.4075	0.105	130815	keystroke	e	n/a
65.5275	0.0895	131055	keystroke	Key.space	n/a
65.7975	0.0605	131595	keystroke	i	n/a
65.993	0.044	131986	keystroke	l	n/a
66.112	0.09	132224	keystroke	l	n/a
66.173	0.105	132346	keystroke	e	n/a
66.2625	0.105	132525	keystroke	g	n/a
66.4575	0.09	132915	keystroke	a	n/a
66.5025	0.1055	133005	keystroke	l	n/a
66.6525	0.12	133305	keystroke	Key.enter	n/a
66.7785	3.041	133557	prompt	n/a	focal magic later gang\n
67.298	0.089	134596	keystroke	f	n/a
67.4775	0.06	134955	keystroke	o	n/a
67.568	0.104	135136	keystroke	c	n/a
67.687	0.091	135374	keystroke	a	n/a
67.792	0.076	135584	keystroke	l	n/a
67.972	0.06	135944	keystroke	Key.space	n/a
68.123	0.0895	136246	keystroke	m	n/a
68.198	0.119	136396	keystroke	a	n/a
68.272	0.09	136544	keystroke	g	n/a
68.408	0.089	136816	keystroke	i	n/a
68.512	0.0605	137024	keystroke	c	n/a
68.6025	0.0745	137205	keystroke	Key.space	n/a
68.7975	0.0755	137595	keystroke	l	n/a
68.873	0.104	137746	keystroke	a	n/a
68.9475	0.1055	137895	keystroke	t	n/a
69.0375	0.12	138075	keystroke	e	n/a
69.128	0.0745	138256	keystroke	r	n/a
69.1725	0.075	138345	keystroke	Key.space	n/a
69.2925	0.09	138585	keystroke	g	n/a
69.3675	0.0905	138735	keystroke	a	n/a
69.4425	0.06	138885	keystroke	n	n/a
69.5925	0.075	139185	keystroke	g	n/a
69.7275	0.09	139455	keystroke	Key.enter	n/a
69.8235	7.871	139647	prompt	n/a	tenant motherboard purpose differently\n
70.4475	0.0905	140895	keystroke	t	n/a
70.5975	0.0745	141195	keystroke	e	n/a
70.6425	0.0745	141285	keystroke	n	n/a
71.167	0.0755	142334	keystroke	a	n/a
71.2875	0.0595	142575	keystroke	n	n/a
71.362	0.075	142724	keystroke	t	n/a
71.4665	0.075	142933	keystroke	Key.space	n/a
71.678	0.044	143356	keystroke	m	n/a
71.8425	0.0745	143685	keystroke	o	n/a
71.963	0.089	143926	keystroke	t	n/a
72.0675	0.06	144135	keystroke	h	n/a
72.142	0.135	144284	keystroke	e	n/a
72.2175	0.0745	144435	keystroke	r	n/a
72.427	0.091	144854	keystroke	h	n/a
72.532	0.045	145064	keystroke	o	n/a
72.652	0.0605	145304	keystroke	o	n/a
72.7275	0.0745	145455	keystroke	d	n/a
72.8325	0.09	145665	keystroke	Key.space	n/a
73.2375	0.06	146475	keystroke	u	n/a
73.4775	0.105	146955	keystroke	Key.backspace	n/a
73.987	0.1205	147974	keystroke	p	n/a
74.4225	0.0905	148845	keystroke	u	n/a
74.677	0.015	149354	keystroke	r	n/a
74.9925	0.105	149985	keystroke	p	n/a
75.337	0.1055	150674	keystroke	o	n/a
75.488	0.0595	150976	keystroke	s	n/a
75.622	0.121	151244	keystroke	e	n/a
75.727	0.075	151454	keystroke	Key.space	n/a
75.817	0.0755	151634	keystroke	d	n/a
75.953	0.0895	151906	keystroke	i	n/a
76.0275	0.075	152055	keystroke	f	n/a
76.1625	0.1205	152325	keystroke	f	n/a
76.4025	0.135	152805	keystroke	r	n/a
76.7325	0.075	153465	keystroke	Key.backspace	n/a
76.8375	0.075	153675	keystroke	e	n/a
76.9275	0.1195	153855	keystroke	r	n/a
77.0165	0.1205	154033	keystroke	e	n/a
77.123	0.075	154246	keystroke	n	n/a
77.2275	0.0895	154455	keystroke	t	n/a
77.363	0.074	154726	keystroke	l	n/a
77.422	0.09	154844	keystroke	y	n/a
77.5575	0.1355	155115	keystroke	Key.enter	n/a
77.6985	6.9405	155397	prompt	n/a	grateful roots spirit identification\n
78.428	0.089	156856	keystroke	g	n/a
78.6225	0.075	157245	keystroke	r	n/a
78.9365	0.136	157873	keystroke	a	n/a
79.043	0.104	158086	keystroke	t	n/a
79.1315	0.091	158263	keystroke	e	n/a
79.3275	0.09	158655	keystroke	f	n/a
79.448	0.0745	158896	keystroke	u	n/a
79.6425	0.09	159285	keystroke	l	n/a
79.7025	0.105	159405	keystroke	Key.space	n/a
79.8525	0.09	159705	keystroke	r	n/a
79.972	0.0605	159944	keystroke	o	n/a
80.1525	0.0605	160305	keystroke	o	n/a
80.2725	0.09	160545	keystroke	t	n/a
80.4075	0.105	160815	keystroke	s	n/a
80.5875	0.104	161175	keystroke	Key.space	n/a
80.7975	0.12	161595	keystroke	s	n/a
80.9015	0.106	161803	keystroke	p	n/a
81.1425	0.09	162285	keystroke	i	n/a
81.457	0.1355	162914	keystroke	r	n/a
81.607	0.0755	163214	keystroke	i	n/a
81.742	0.06	163484	keystroke	t	n/a
82.3125	0.0895	164625	keystroke	Key.space	n/a
82.8825	0.0745	165765	keystroke	i	n/a
82.958	0.164	165916	keystroke	d	n/a
83.0775	0.1055	166155	keystroke	e	n/a
83.168	0.0895	166336	keystroke	n	n/a
83.2725	0.0445	166545	keystroke	t	n/a
83.393	0.059	166786	keystroke	i	n/a
83.467	0.0755	166934	keystroke	f	n/a
83.5875	0.0895	167175	keystroke	i	n/a
83.663	0.105	167326	keystroke	c	n/a
83.7825	0.1355	167565	keystroke	a	n/a
84.0525	0.075	168105	keystroke	t	n/a
84.1425	0.0745	168285	keystroke	i	n/a
84.322	0.0905	168644	keystroke	o	n/a
84.3825	0.09	168765	keystroke	n	n/a
84.517	0.12	169034	keystroke	Key.enter	n/a
84.644	5.951	169288	prompt	n/a	measurements how're candles asks\n
85.222	0.09	170444	keystroke	m	n/a
85.297	0.15	170594	keystroke	e	n/a
85.402	0.1355	170804	keystroke	a	n/a
85.4925	0.1345	170985	keystroke	s	n/a
85.613	0.0745	171226	keystroke	u	n/a
85.747	0.166	171494	keystroke	r	n/a
85.898	0.09	171796	keystroke	e	n/a
87.0225	0.09	174045	keystroke	m	n/a
87.1875	0.09	174375	keystroke	e	n/a
87.2775	0.0595	174555	keystroke	n	n/a
87.3675	0.0745	174735	keystroke	t	n/a
87.457	0.1055	174914	keystroke	s	n/a
87.547	0.075	175094	keystroke	Key.space	n/a
87.6975	0.0895	175395	keystroke	h	n/a
87.817	0.075	175634	keystroke	o	n/a
87.907	0.12	175814	keystroke	w	n/a
88.1325	0.0895	176265	keystroke	'	n/a
88.237	0.12	176474	keystroke	r	n/a
88.2975	0.09	176595	keystroke	e	n/a
88.417	0.09	176834	keystroke	Key.space	n/a
88.6725	0.0895	177345	keystroke	c	n/a
88.778	0.119	177556	keystroke	a	n/a
88.898	0.074	177796	keystroke	n	n/a
88.9575	0.1195	177915	keystroke	d	n/a
89.107	0.076	178214	keystroke	l	n/a
89.212	0.0755	178424	keystroke	e	n/a
89.437	0.0755	178874	keystroke	s	n/a
89.602	0.0605	179204	keystroke	Key.space	n/a
89.7525	0.1195	179505	keystroke	a	n/a
89.8875	0.1045	179775	keystroke	s	n/a
90.022	0.0905	180044	keystroke	k	n/a
90.3525	0.09	180705	keystroke	s	n/a
90.4575	0.1345	180915	keystroke	Key.enter	n/a
90.6005	3.5335	181201	prompt	n/a	rolled remix dean sends\n
91.1025	0.089	182205	keystroke	r	n/a
91.252	0.0755	182504	keystroke	o	n/a
91.4175	0.105	182835	keystroke	l	n/a
91.5665	0.09	183133	keystroke	l	n/a
91.7465	0.09	183493	keystroke	e	n/a
91.8815	0.091	183763	keystroke	d	n/a
91.9865	0.091	183973	keystroke	Key.space	n/a
92.1965	0.121	184393	keystroke	r	n/a
92.2725	0.1345	184545	keystroke	e	n/a
92.392	0.06	184784	keystroke	m	n/a
92.557	0.06	185114	keystroke	i	n/a
92.6325	0.1045	185265	keystroke	x	n/a
92.752	0.09	185504	keystroke	Key.space	n/a
92.8565	0.09	185713	keystroke	d	n/a
93.0365	0.121	186073	keystroke	e	n/a
93.127	0.0905	186254	keystroke	a	n/a
93.2325	0.06	186465	keystroke	n	n/a
93.397	0.075	186794	keystroke	Key.space	n/a
93.4575	0.075	186915	keystroke	s	n/a
93.607	0.09	187214	keystroke	e	n/a
93.698	0.089	187396	keystroke	n	n/a
93.7725	0.1495	187545	keystroke	d	n/a
93.892	0.1055	187784	keystroke	s	n/a
94.0275	0.1045	188055	keystroke	Key.enter	n/a
94.1385	7.196	188277	prompt	n/a	jake nasdaq chemical married\n
94.7625	0.075	189525	keystroke	j	n/a
94.8525	0.1345	189705	keystroke	a	n/a
94.9715	0.091	189943	keystroke	s	n/a
95.2725	0.075	190545	keystroke	Key.backspace	n/a
95.4375	0.09	190875	keystroke	k	n/a
95.5125	0.105	191025	keystroke	e	n/a
95.6325	0.09	191265	keystroke	Key.space	n/a
95.8575	0.075	191715	keystroke	n	n/a
95.9175	0.12	191835	keystroke	a	n/a
95.9925	0.135	191985	keystroke	s	n/a
96.592	0.105	193184	keystroke	d	n/a
96.7125	0.12	193425	keystroke	q	n/a
97.4765	0.091	194953	keystroke	Key.backspace	n/a
97.7925	0.1195	195585	keystroke	a	n/a
98.017	0.09	196034	keystroke	q	n/a
98.332	0.1055	196664	keystroke	Key.space	n/a
98.632	0.0755	197264	keystroke	c	n/a
98.752	0.09	197504	keystroke	h	n/a
98.827	0.105	197654	keystroke	e	n/a
98.947	0.075	197894	keystroke	m	n/a
99.1425	0.0595	198285	keystroke	i	n/a
99.2625	0.1345	198525	keystroke	c	n/a
99.397	0.09	198794	keystroke	a	n/a
99.442	0.105	198884	keystroke	l	n/a
99.562	0.0905	199124	keystroke	l	n/a
100.057	0.0755	200114	keystroke	Key.backspace	n/a
100.312	0.075	200624	keystroke	Key.space	n/a
100.4925	0.0745	200985	keystroke	m	n/a
100.582	0.135	201164	keystroke	a	n/a
100.702	0.075	201404	keystroke	r	n/a
100.8225	0.0895	201645	keystroke	r	n/a
100.9275	0.09	201855	keystroke	i	n/a
101.0025	0.075	202005	keystroke	e	n/a
101.1375	0.1045	202275	keystroke	d	n/a
101.227	0.1055	202454	keystroke	Key.enter	n/a
101.3395	6.6695	202679	prompt	n/a	arrangement how's lane personality\n
101.872	0.1055	203744	keystroke	a	n/a
101.992	0.0605	203984	keystroke	r	n/a
102.0965	0.1355	204193	keystroke	r	n/a
102.2475	0.12	204495	keystroke	a	n/a
102.4275	0.0895	204855	keystroke	n	n/a
102.577	0.1205	205154	keystroke	g	n/a
102.667	0.09	205334	keystroke	e	n/a
102.8325	0.0895	205665	keystroke	m	n/a
102.967	0.09	205934	keystroke	e	n/a
103.058	0.074	206116	keystroke	n	n/a
103.1475	0.105	206295	keystroke	t	n/a
103.267	0.06	206534	keystroke	Key.space	n/a
103.4925	0.0745	206985	keystroke	h	n/a
103.702	0.1205	207404	keystroke	w	n/a
104.332	0.105	208664	keystroke	Key.backspace	n/a
104.5575	0.0895	209115	keystroke	o	n/a
104.7075	0.0745	209415	keystroke	w	n/a
104.9775	0.09	209955	keystroke	'	n/a
105.112	0.0895	210224	keystroke	s	n/a
105.2625	0.059	210525	keystroke	Key.space	n/a
105.4575	0.074	210915	keystroke	l	n/a
105.547	0.1045	211094	keystroke	a	n/a
105.6825	0.06	211365	keystroke	n	n/a
105.7565	0.09	211513	keystroke	e	n/a
105.8315	0.076	211663	keystroke	Key.space	n/a
106.0575	0.06	212115	keystroke	p	n/a
106.1175	0.135	212235	keystroke	e	n/a
106.1775	0.12	212355	keystroke	r	n/a
106.3275	0.075	212655	keystroke	o	n/a
106.8075	0.0895	213615	keystroke	Key.backspace	n/a
106.912	0.0905	213824	keystroke	s	n/a
106.972	0.0755	213944	keystroke	o	n/a
107.167	0.075	214334	keystroke	n	n/a
107.287	0.09	214574	keystroke	a	n/a
107.4225	0.0745	214845	keystroke	l	n/a
107.587	0.09	215174	keystroke	i	n/a
107.6625	0.0595	215325	keystroke	t	n/a
107.782	0.12	215564	keystroke	y	n/a
107.932	0.075	215864	keystroke	Key.enter	n/a
108.013	6.821	216026	prompt	n/a	maps session international support\n
108.5615	0.076	217123	keystroke	m	n/a
108.6515	0.105	217303	keystroke	a	n/a
108.7875	0.059	217575	keystroke	p	n/a
108.9075	0.105	217815	keystroke	s	n/a
109.0415	0.061	218083	keystroke	Key.space	n/a
109.3875	0.075	218775	keystroke	s	n/a
109.5375	0.09	219075	keystroke	e	n/a
109.7175	0.06	219435	keystroke	s	n/a
109.9275	0.0445	219855	keystroke	i	n/a
110.1825	0.1195	220365	keystroke	Key.backspace	n/a
110.272	0.1205	220544	keystroke	s	n/a
110.362	0.06	220724	keystroke	i	n/a
110.527	0.09	221054	keystroke	o	n/a
110.618	0.089	221236	keystroke	n	n/a
110.797	0.09	221594	keystroke	Key.space	n/a
111.082	0.0605	222164	keystroke	i	n/a
111.262	0.0595	222524	keystroke	n	n/a
111.3225	0.09	222645	keystroke	t	n/a
111.3965	0.15	222793	keystroke	e	n/a
111.5015	0.1055	223003	keystroke	r	n/a
111.6215	0.0905	223243	keystroke	n	n/a
111.7415	0.076	223483	keystroke	a	n/a
111.7725	0.105	223545	keystroke	t	n/a
111.8925	0.06	223785	keystroke	i	n/a
112.0425	0.089	224085	keystroke	o	n/a
112.0865	0.076	224173	keystroke	n	n/a
112.297	0.1055	224594	keystroke	a	n/a
112.522	0.06	225044	keystroke	l	n/a
112.9125	0.0895	225825	keystroke	Key.space	n/a
113.6775	0.1045	227355	keystroke	s	n/a
113.827	0.075	227654	keystroke	u	n/a
114.067	0.0595	228134	keystroke	p	n/a
114.187	0.0605	228374	keystroke	p	n/a
114.3515	0.076	228703	keystroke	o	n/a
114.4415	0.09	228883	keystroke	r	n/a
114.6225	0.075	229245	keystroke	t	n/a
114.7115	0.12	229423	keystroke	Key.enter	n/a
114.8395	5.7095	229679	prompt	n/a	dropped picked remarks weekend\n
115.3725	0.089	230745	keystroke	d	n/a
115.5365	0.075	231073	keystroke	r	n/a
115.597	0.0895	231194	keystroke	o	n/a
115.8975	0.075	231795	keystroke	p	n/a
116.032	0.09	232064	keystroke	p	n/a
116.1815	0.1055	232363	keystroke	e	n/a
116.3775	0.075	232755	keystroke	d	n/a
116.4975	0.075	232995	keystroke	Key.space	n/a
116.797	0.075	233594	keystroke	p	n/a
116.9925	0.0745	233985	keystroke	i	n/a
117.082	0.06	234164	keystroke	c	n/a
117.172	0.1055	234344	keystroke	k	n/a
117.3075	0.12	234615	keystroke	e	n/a
117.4565	0.09	234913	keystroke	d	n/a
117.577	0.0905	235154	keystroke	Key.space	n/a
118.1175	0.15	236235	keystroke	r	n/a
118.2075	0.12	236415	keystroke	e	n/a
118.3125	0.09	236625	keystroke	m	n/a
118.432	0.135	236864	keystroke	a	n/a
118.552	0.12	237104	keystroke	r	n/a
118.7625	0.075	237525	keystroke	k	n/a
118.9125	0.09	237825	keystroke	s	n/a
119.0175	0.09	238035	keystroke	Key.space	n/a
119.167	0.06	238334	keystroke	e	n/a
119.4975	0.09	238995	keystroke	Key.backspace	n/a
119.5575	0.075	239115	keystroke	w	n/a
119.7065	0.075	239413	keystroke	e	n/a
119.8275	0.1045	239655	keystroke	e	n/a
119.947	0.09	239894	keystroke	k	n/a
120.0825	0.0895	240165	keystroke	e	n/a
120.202	0.105	240404	keystroke	n	n/a
120.2925	0.0895	240585	keystroke	d	n/a
120.427	0.12	240854	keystroke	Key.enter	n/a
120.5545	6.954	241109	prompt	n/a	contribute rachel september attention\n
121.162	0.0745	242324	keystroke	c	n/a
121.267	0.09	242534	keystroke	o	n/a
121.462	0.075	242924	keystroke	n	n/a
121.552	0.045	243104	keystroke	t	n/a
121.672	0.075	243344	keystroke	r	n/a
121.807	0.09	243614	keystroke	i	n/a
121.912	0.0755	243824	keystroke	b	n/a
122.077	0.0605	244154	keystroke	u	n/a
122.152	0.1195	244304	keystroke	t	n/a
122.2425	0.0895	244485	keystroke	e	n/a
122.377	0.09	244754	keystroke	Key.space	n/a
122.6625	0.0295	245325	keystroke	r	n/a
122.737	0.06	245474	keystroke	a	n/a
122.782	0.075	245564	keystroke	c	n/a
122.872	0.075	245744	keystroke	h	n/a
122.9625	0.104	245925	keystroke	e	n/a
123.1125	0.075	246225	keystroke	l	n/a
123.2915	0.09	246583	keystroke	Key.space	n/a
123.3515	0.12	246703	keystroke	s	n/a
123.5775	0.1345	247155	keystroke	e	n/a
123.742	0.1055	247484	keystroke	p	n/a
123.907	0.09	247814	keystroke	t	n/a
124.1475	0.09	248295	keystroke	e	n/a
124.2665	0.106	248533	keystroke	m	n/a
124.5075	0.134	249015	keystroke	e	n/a
125.1075	0.06	250215	keystroke	r	n/a
125.227	0.1055	250454	keystroke	Key.space	n/a
125.4225	0.06	250845	keystroke	a	n/a
125.8425	0.06	251685	keystroke	f	n/a
126.0675	0.075	252135	keystroke	Key.backspace	n/a
126.1275	0.09	252255	keystroke	t	n/a
126.292	0.0605	252584	keystroke	t	n/a
126.5925	0.09	253185	keystroke	e	n/a
126.7125	0.089	253425	keystroke	n	n/a
126.8025	0.09	253605	keystroke	t	n/a
126.9675	0.045	253935	keystroke	i	n/a
127.1025	0.075	254205	keystroke	o	n/a
127.2375	0.0745	254475	keystroke	n	n/a
127.4165	0.0905	254833	keystroke	Key.enter	n/a
127.5165	5.8575	255033	prompt	n/a	estimate passengers bottle mountains\n
128.047	0.0595	256094	keystroke	e	n/a
128.2115	0.09	256423	keystroke	s	n/a
128.332	0.1045	256664	keystroke	t	n/a
128.452	0.075	256904	keystroke	i	n/a
128.6615	0.031	257323	keystroke	m	n/a
128.6765	0.106	257353	keystroke	a	n/a
128.7225	0.119	257445	keystroke	t	n/a
128.8125	0.09	257625	keystroke	e	n/a
128.8565	0.09	257713	keystroke	Key.space	n/a
129.2025	0.0895	258405	keystroke	p	n/a
129.307	0.1195	258614	keystroke	a	n/a
129.4565	0.0605	258913	keystroke	s	n/a
129.5775	0.075	259155	keystroke	s	n/a
129.8175	0.0595	259635	keystroke	e	n/a
129.952	0.09	259904	keystroke	n	n/a
130.072	0.09	260144	keystroke	g	n/a
130.147	0.151	260294	keystroke	e	n/a
130.267	0.105	260534	keystroke	r	n/a
130.402	0.09	260804	keystroke	s	n/a
130.522	0.09	261044	keystroke	Key.space	n/a
130.897	0.0605	261794	keystroke	b	n/a
130.987	0.075	261974	keystroke	o	n/a
131.0775	0.0595	262155	keystroke	t	n/a
131.197	0.06	262394	keystroke	t	n/a
131.317	0.09	262634	keystroke	l	n/a
131.407	0.09	262814	keystroke	e	n/a
131.527	0.06	263054	keystroke	Key.space	n/a
132.0075	0.0595	264015	keystroke	m	n/a
132.202	0.075	264404	keystroke	o	n/a
132.397	0.06	264794	keystroke	u	n/a
132.5625	0.0745	265125	keystroke	n	n/a
132.622	0.135	265244	keystroke	t	n/a
132.772	0.09	265544	keystroke	a	n/a
132.832	0.06	265664	keystroke	i	n/a
132.997	0.09	265994	keystroke	n	n/a
133.1025	0.12	266205	keystroke	s	n/a
133.2515	0.1205	266503	keystroke	Key.enter	n/a
133.3785	5.0955	266757	prompt	n/a	palace massage saudi receivers\n
133.912	0.075	267824	keystroke	p	n/a
134.107	0.075	268214	keystroke	a	n/a
134.272	0.0755	268544	keystroke	l	n/a
134.452	0.1045	268904	keystroke	a	n/a
134.5715	0.136	269143	keystroke	c	n/a
134.662	0.1045	269324	keystroke	e	n/a
134.8115	0.0605	269623	keystroke	Key.space	n/a
135.007	0.0595	270014	keystroke	m	n/a
135.1115	0.076	270223	keystroke	a	n/a
135.382	0.0905	270764	keystroke	s	n/a
135.532	0.1345	271064	keystroke	s	n/a
135.6815	0.151	271363	keystroke	a	n/a
135.8015	0.091	271603	keystroke	g	n/a
135.8625	0.09	271725	keystroke	e	n/a
135.9375	0.12	271875	keystroke	Key.space	n/a
136.2075	0.15	272415	keystroke	s	n/a
136.3875	0.105	272775	keystroke	a	n/a
136.5375	0.045	273075	keystroke	u	n/a
136.6275	0.045	273255	keystroke	d	n/a
136.9725	0.075	273945	keystroke	i	n/a
137.1225	0.0895	274245	keystroke	Key.space	n/a
137.3175	0.105	274635	keystroke	r	n/a
137.407	0.105	274814	keystroke	e	n/a
137.557	0.12	275114	keystroke	c	n/a
137.647	0.1055	275294	keystroke	e	n/a
137.782	0.09	275564	keystroke	i	n/a
137.872	0.1205	275744	keystroke	v	n/a
137.977	0.12	275954	keystroke	e	n/a
138.0675	0.1045	276135	keystroke	r	n/a
138.202	0.0755	276404	keystroke	s	n/a
138.352	0.12	276704	keystroke	Key.enter	n/a
138.478	3.731	276956	prompt	n/a	sudan license dogs warm\n
139.027	0.12	278054	keystroke	s	n/a
139.222	0.0605	278444	keystroke	u	n/a
139.327	0.15	278654	keystroke	d	n/a
139.4625	0.1195	278925	keystroke	a	n/a
139.642	0.09	279284	keystroke	n	n/a
139.912	0.09	279824	keystroke	Key.space	n/a
140.2715	0.046	280543	keystroke	l	n/a
140.4225	0.074	280845	keystroke	i	n/a
140.482	0.135	280964	keystroke	c	n/a
140.5725	0.074	281145	keystroke	e	n/a
140.6625	0.0745	281325	keystroke	n	n/a
140.752	0.0745	281504	keystroke	s	n/a
140.9165	0.0755	281833	keystroke	e	n/a
141.0065	0.06	282013	keystroke	Key.space	n/a
141.0825	0.075	282165	keystroke	d	n/a
141.2015	0.076	282403	keystroke	o	n/a
141.2775	0.074	282555	keystroke	g	n/a
141.3965	0.1055	282793	keystroke	s	n/a
141.502	0.0755	283004	keystroke	Key.space	n/a
141.622	0.165	283244	keystroke	w	n/a
141.742	0.1205	283484	keystroke	a	n/a
141.832	0.0905	283664	keystroke	r	n/a
141.937	0.06	283874	keystroke	m	n/a
142.042	0.075	284084	keystroke	s	n/a
142.132	0.075	284264	keystroke	Key.enter	n/a
142.2135	5.8605	284427	prompt	n/a	carolina young leadership tracked\n
143.092	0.0305	286184	keystroke	v	n/a
143.407	0.105	286814	keystroke	Key.backspace	n/a
143.4975	0.09	286995	keystroke	c	n/a
143.572	0.15	287144	keystroke	a	n/a
143.692	0.09	287384	keystroke	r	n/a
143.797	0.06	287594	keystroke	o	n/a
143.947	0.075	287894	keystroke	l	n/a
144.0965	0.061	288193	keystroke	i	n/a
144.2465	0.091	288493	keystroke	n	n/a
144.3665	0.105	288733	keystroke	a	n/a
144.4565	0.06	288913	keystroke	Key.space	n/a
144.7275	0.09	289455	keystroke	y	n/a
144.7865	0.091	289573	keystroke	o	n/a
144.9825	0.044	289965	keystroke	u	n/a
145.1165	0.076	290233	keystroke	n	n/a
145.162	0.075	290324	keystroke	g	n/a
145.297	0.06	290594	keystroke	Key.space	n/a
145.5065	0.075	291013	keystroke	l	n/a
145.612	0.0605	291224	keystroke	e	n/a
145.6575	0.134	291315	keystroke	a	n/a
145.7615	0.121	291523	keystroke	d	n/a
145.8825	0.135	291765	keystroke	e	n/a
145.9715	0.09	291943	keystroke	r	n/a
146.4525	0.059	292905	keystroke	s	n/a
146.5725	0.0895	293145	keystroke	h	n/a
146.677	0.075	293354	keystroke	i	n/a
146.8865	0.0455	293773	keystroke	p	n/a
146.9915	0.0605	293983	keystroke	Key.space	n/a
147.1575	0.075	294315	keystroke	t	n/a
147.3225	0.075	294645	keystroke	r	n/a
147.3825	0.15	294765	keystroke	a	n/a
147.5175	0.09	295035	keystroke	c	n/a
147.6375	0.09	295275	keystroke	k	n/a
147.7125	0.119	295425	keystroke	e	n/a
147.877	0.075	295754	keystroke	d	n/a
147.967	0.105	295934	keystroke	Key.enter	n/a
148.079	7.107	296158	prompt	n/a	magnificent volt holidays cooking\n
148.7615	0.0605	297523	keystroke	m	n/a
148.852	0.1205	297704	keystroke	a	n/a
148.973	0.074	297946	keystroke	n	n/a
149.077	0.0905	298154	keystroke	g	n/a
149.2265	0.0605	298453	keystroke	i	n/a
149.812	0.075	299624	keystroke	Key.backspace	n/a
149.962	0.0445	299924	keystroke	Key.backspace	n/a
150.0665	0.105	300133	keystroke	Key.backspace	n/a
150.2165	0.076	300433	keystroke	g	n/a
150.3375	0.09	300675	keystroke	n	n/a
150.622	0.0595	301244	keystroke	i	n/a
150.8165	0.076	301633	keystroke	f	n/a
150.9825	0.09	301965	keystroke	i	n/a
151.0575	0.1495	302115	keystroke	c	n/a
151.222	0.1205	302444	keystroke	e	n/a
151.2975	0.075	302595	keystroke	n	n/a
151.4025	0.09	302805	keystroke	t	n/a
151.4765	0.09	302953	keystroke	Key.space	n/a
151.7615	0.106	303523	keystroke	v	n/a
151.8525	0.075	303705	keystroke	o	n/a
152.0025	0.105	304005	keystroke	l	n/a
152.137	0.0755	304274	keystroke	t	n/a
152.272	0.075	304544	keystroke	Key.space	n/a
152.527	0.09	305054	keystroke	h	n/a
152.602	0.09	305204	keystroke	o	n/a
152.752	0.075	305504	keystroke	l	n/a
152.932	0.0595	305864	keystroke	i	n/a
153.0215	0.076	306043	keystroke	d	n/a
153.772	0.105	307544	keystroke	a	n/a
153.9375	0.0745	307875	keystroke	y	n/a
154.087	0.09	308174	keystroke	s	n/a
154.177	0.075	308354	keystroke	Key.space	n/a
154.2975	0.06	308595	keystroke	c	n/a
154.387	0.0605	308774	keystroke	o	n/a
154.552	0.0455	309104	keystroke	o	n/a
154.6875	0.0895	309375	keystroke	k	n/a
154.837	0.09	309674	keystroke	i	n/a
154.912	0.1055	309824	keystroke	n	n/a
154.9725	0.104	309945	keystroke	g	n/a
155.062	0.1195	310124	keystroke	Key.enter	n/a
155.1905	9.518	310381	prompt	n/a	southern searched valentine ones\n
155.8125	0.1195	311625	keystroke	s	n/a
155.8865	0.091	311773	keystroke	o	n/a
156.0825	0.09	312165	keystroke	u	n/a
156.1875	0.1045	312375	keystroke	t	n/a
156.307	0.0895	312614	keystroke	h	n/a
156.4415	0.1205	312883	keystroke	e	n/a
156.5165	0.105	313033	keystroke	r	n/a
156.652	0.0895	313304	keystroke	Key.space	n/a
156.9965	0.0755	313993	keystroke	s	n/a
157.222	0.1055	314444	keystroke	e	n/a
157.3285	0.149	314657	keystroke	a	n/a
157.4175	0.075	314835	keystroke	r	n/a
157.5975	0.059	315195	keystroke	c	n/a
157.7465	0.076	315493	keystroke	h	n/a
157.8375	0.0895	315675	keystroke	e	n/a
158.0615	0.06	316123	keystroke	d	n/a
158.2265	0.0605	316453	keystroke	Key.space	n/a
158.6625	0.045	317325	keystroke	c	n/a
158.962	0.09	317924	keystroke	Key.backspace	n/a
159.142	0.0755	318284	keystroke	Key.backspace	n/a
159.3075	0.075	318615	keystroke	Key.backspace	n/a
159.4575	0.0745	318915	keystroke	Key.backspace	n/a
159.607	0.06	319214	keystroke	Key.backspace	n/a
159.7425	0.0595	319485	keystroke	Key.backspace	n/a
159.877	0.045	319754	keystroke	Key.backspace	n/a
159.982	0.0755	319964	keystroke	Key.backspace	n/a
160.117	0.0755	320234	keystroke	Key.backspace	n/a
160.237	0.0755	320474	keystroke	Key.backspace	n/a
160.3725	0.104	320745	keystroke	Key.backspace	n/a
160.5365	0.105	321073	keystroke	n	n/a
160.777	0.0745	321554	keystroke	Key.space	n/a
161.6775	0.0745	323355	keystroke	s	n/a
161.887	0.135	323774	keystroke	e	n/a
162.007	0.1805	324014	keystroke	a	n/a
162.202	0.09	324404	keystroke	r	n/a
162.412	0.075	324824	keystroke	c	n/a
162.502	0.105	325004	keystroke	h	n/a
162.607	0.09	325214	keystroke	e	n/a
162.7125	0.0745	325425	keystroke	d	n/a
162.8025	0.0895	325605	keystroke	Key.space	n/a
162.967	0.105	325934	keystroke	v	n/a
163.087	0.1055	326174	keystroke	a	n/a
163.207	0.09	326414	keystroke	l	n/a
163.312	0.0905	326624	keystroke	e	n/a
163.447	0.075	326894	keystroke	n	n/a
163.507	0.0905	327014	keystroke	t	n/a
163.642	0.0595	327284	keystroke	i	n/a
163.777	0.09	327554	keystroke	n	n/a
163.8525	0.0895	327705	keystroke	e	n/a
163.957	0.045	327914	keystroke	Key.space	n/a
164.1225	0.0595	328245	keystroke	o	n/a
164.287	0.09	328574	keystroke	n	n/a
164.362	0.0595	328724	keystroke	e	n/a
164.497	0.0895	328994	keystroke	s	n/a
164.602	0.1045	329204	keystroke	Key.enter	n/a
164.7125	8.9965	329425	prompt	n/a	printing smilies probability picnic\n
165.352	0.105	330704	keystroke	r	n/a
165.472	0.06	330944	keystroke	i	n/a
165.8315	0.06	331663	keystroke	Key.backspace	n/a
165.9665	0.09	331933	keystroke	Key.backspace	n/a
166.0715	0.1205	332143	keystroke	p	n/a
166.207	0.135	332414	keystroke	r	n/a
166.327	0.075	332654	keystroke	i	n/a
166.4925	0.09	332985	keystroke	n	n/a
166.552	0.105	333104	keystroke	t	n/a
166.702	0.06	333404	keystroke	i	n/a
166.852	0.075	333704	keystroke	n	n/a
166.912	0.09	333824	keystroke	g	n/a
167.017	0.06	334034	keystroke	Key.space	n/a
167.167	0.075	334334	keystroke	s	n/a
167.182	0.09	334364	keystroke	m	n/a
167.407	0.075	334814	keystroke	i	n/a
167.6025	0.0895	335205	keystroke	l	n/a
167.827	0.0745	335654	keystroke	i	n/a
167.9925	0.074	335985	keystroke	e	n/a
168.142	0.0895	336284	keystroke	s	n/a
168.622	0.0745	337244	keystroke	Key.space	n/a
169.237	0.105	338474	keystroke	a	n/a
169.432	0.075	338864	keystroke	Key.backspace	n/a
169.5825	0.09	339165	keystroke	p	n/a
169.642	0.075	339284	keystroke	r	n/a
169.792	0.075	339584	keystroke	o	n/a
169.9275	0.0895	339855	keystroke	b	n/a
170.317	0.0605	340634	keystroke	i	n/a
170.602	0.06	341204	keystroke	Key.backspace	n/a
170.692	0.105	341384	keystroke	a	n/a
170.902	0.075	341804	keystroke	b	n/a
170.992	0.06	341984	keystroke	i	n/a
171.1575	0.0745	342315	keystroke	l	n/a
171.322	0.06	342644	keystroke	i	n/a
171.382	0.0455	342764	keystroke	t	n/a
171.607	0.074	343214	keystroke	Key.space	n/a
171.847	0.09	343694	keystroke	Key.backspace	n/a
171.9675	0.0735	343935	keystroke	y	n/a
172.462	0.0595	344924	keystroke	Key.space	n/a
172.687	0.075	345374	keystroke	p	n/a
172.882	0.0605	345764	keystroke	i	n/a
172.972	0.09	345944	keystroke	c	n/a
173.242	0.075	346484	keystroke	n	n/a
173.437	0.0755	346874	keystroke	i	n/a
173.497	0.075	346994	keystroke	c	n/a
173.6315	0.075	347263	keystroke	Key.enter	n/a
173.7135	8.44	347427	prompt	n/a	previews bibliography botswana childrens\n
174.1725	0.104	348345	keystroke	p	n/a
174.3965	0.106	348793	keystroke	r	n/a
174.6965	0.031	349393	keystroke	Key.backspace	n/a
174.967	0.0895	349934	keystroke	r	n/a
175.207	0.1345	350414	keystroke	e	n/a
175.2815	0.106	350563	keystroke	w	n/a
175.507	0.075	351014	keystroke	v	n/a
175.657	0.09	351314	keystroke	i	n/a
175.762	0.105	351524	keystroke	e	n/a
175.822	0.105	351644	keystroke	w	n/a
176.107	0.03	352214	keystroke	s	n/a
176.122	0.09	352244	keystroke	Key.space	n/a
176.272	0.09	352544	keystroke	b	n/a
176.4075	0.0895	352815	keystroke	i	n/a
176.797	0.0755	353594	keystroke	b	n/a
176.9615	0.076	353923	keystroke	l	n/a
177.157	0.075	354314	keystroke	i	n/a
177.367	0.09	354734	keystroke	o	n/a
177.517	0.0905	355034	keystroke	g	n/a
177.712	0.135	355424	keystroke	r	n/a
177.832	0.1045	355664	keystroke	a	n/a
177.9215	0.105	355843	keystroke	p	n/a
178.057	0.06	356114	keystroke	h	n/a
178.222	0.045	356444	keystroke	y	n/a
178.822	0.105	357644	keystroke	Key.space	n/a
179.3015	0.1055	358603	keystroke	b	n/a
179.4215	0.0605	358843	keystroke	o	n/a
179.512	0.1195	359024	keystroke	t	n/a
179.6765	0.0905	359353	keystroke	s	n/a
180.2315	0.12	360463	keystroke	w	n/a
180.4415	0.105	360883	keystroke	a	n/a
180.6065	0.0755	361213	keystroke	n	n/a
180.7265	0.075	361453	keystroke	a	n/a
180.847	0.075	361694	keystroke	Key.space	n/a
180.9975	0.0595	361995	keystroke	c	n/a
181.1765	0.076	362353	keystroke	h	n/a
181.2665	0.0755	362533	keystroke	i	n/a
181.4475	0.0895	362895	keystroke	l	n/a
181.522	0.0745	363044	keystroke	d	n/a
181.6875	0.089	363375	keystroke	r	n/a
181.7615	0.075	363523	keystroke	e	n/a
181.8375	0.074	363675	keystroke	n	n/a
181.9265	0.09	363853	keystroke	s	n/a
182.0465	0.105	364093	keystroke	Key.enter	n/a
182.159	6.4595	364318	prompt	n/a	chaos challenge premises galaxy\n
182.827	0.06	365654	keystroke	c	n/a
182.9765	0.09	365953	keystroke	h	n/a
183.0515	0.12	366103	keystroke	a	n/a
183.157	0.1045	366314	keystroke	s	n/a
183.337	0.0745	366674	keystroke	o	n/a
183.607	0.075	367214	keystroke	Key.backspace	n/a
183.742	0.09	367484	keystroke	Key.backspace	n/a
183.832	0.1055	367664	keystroke	o	n/a
183.922	0.12	367844	keystroke	s	n/a
184.087	0.105	368174	keystroke	Key.space	n/a
184.267	0.075	368534	keystroke	c	n/a
184.492	0.075	368984	keystroke	h	n/a
184.627	0.09	369254	keystroke	a	n/a
184.762	0.075	369524	keystroke	l	n/a
184.882	0.0905	369764	keystroke	l	n/a
184.9875	0.1045	369975	keystroke	e	n/a
185.107	0.0745	370214	keystroke	n	n/a
185.1975	0.0895	370395	keystroke	g	n/a
185.2565	0.1055	370513	keystroke	e	n/a
185.347	0.06	370694	keystroke	Key.space	n/a
185.587	0.075	371174	keystroke	p	n/a
185.692	0.09	371384	keystroke	r	n/a
186.067	0.09	372134	keystroke	e	n/a
186.262	0.09	372524	keystroke	m	n/a
186.5015	0.06	373003	keystroke	i	n/a
186.5915	0.105	373183	keystroke	s	n/a
186.7425	0.1495	373485	keystroke	e	n/a
186.8465	0.09	373693	keystroke	s	n/a
186.9965	0.09	373993	keystroke	Key.space	n/a
187.147	0.0905	374294	keystroke	g	n/a
187.282	0.105	374564	keystroke	a	n/a
187.432	0.09	374864	keystroke	l	n/a
187.6415	0.1055	375283	keystroke	a	n/a
187.9115	0.1205	375823	keystroke	x	n/a
188.3015	0.0905	376603	keystroke	y	n/a
188.511	0.1055	377022	keystroke	Key.enter	n/a
188.623	6.807	377246	prompt	n/a	version italic alabama matthew\n
189.1415	0.12	378283	keystroke	v	n/a
189.2775	0.119	378555	keystroke	e	n/a
189.3815	0.1055	378763	keystroke	r	n/a
189.5025	0.1045	379005	keystroke	s	n/a
189.622	0.0895	379244	keystroke	i	n/a
189.7715	0.09	379543	keystroke	o	n/a
189.8465	0.075	379693	keystroke	n	n/a
189.9815	0.075	379963	keystroke	Key.space	n/a
190.1765	0.061	380353	keystroke	i	n/a
190.2525	0.0895	380505	keystroke	t	n/a
190.3265	0.105	380653	keystroke	a	n/a
190.402	0.09	380804	keystroke	l	n/a
190.5965	0.06	381193	keystroke	i	n/a
190.6715	0.075	381343	keystroke	c	n/a
190.7915	0.09	381583	keystroke	Key.space	n/a
190.9115	0.0905	381823	keystroke	a	n/a
191.0465	0.06	382093	keystroke	l	n/a
191.1515	0.0755	382303	keystroke	a	n/a
191.3475	0.089	382695	keystroke	b	n/a
191.4665	0.0905	382933	keystroke	a	n/a
191.632	0.0745	383264	keystroke	n	n/a
191.9015	0.075	383803	keystroke	Key.backspace	n/a
192.097	0.075	384194	keystroke	m	n/a
192.1865	0.105	384373	keystroke	a	n/a
192.307	0.0745	384614	keystroke	Key.space	n/a
192.4415	0.105	384883	keystroke	a	n/a
192.5475	0.044	385095	keystroke	m	n/a
192.8165	0.03	385633	keystroke	Key.backspace	n/a
192.9215	0.09	385843	keystroke	Key.backspace	n/a
193.117	0.06	386234	keystroke	m	n/a
193.192	0.12	386384	keystroke	a	n/a
193.297	0.09	386594	keystroke	t	n/a
193.492	0.105	386984	keystroke	t	n/a
193.777	0.075	387554	keystroke	h	n/a
193.9715	0.091	387943	keystroke	e	n/a
194.3765	0.076	388753	keystroke	w	n/a
195.2765	0.15	390553	keystroke	Key.enter	n/a
195.434	5.08	390868	prompt	n/a	rapids merger scripting aberdeen\n
196.0115	0.1505	392023	keystroke	r	n/a
196.102	0.105	392204	keystroke	e	n/a
196.267	0.09	392534	keystroke	p	n/a
196.462	0.105	392924	keystroke	i	n/a
196.552	0.105	393104	keystroke	d	n/a
196.612	0.12	393224	keystroke	s	n/a
196.702	0.075	393404	keystroke	Key.space	n/a
196.867	0.09	393734	keystroke	m	n/a
196.942	0.12	393884	keystroke	e	n/a
196.987	0.0905	393974	keystroke	r	n/a
197.1815	0.0905	394363	keystroke	g	n/a
197.2865	0.12	394573	keystroke	e	n/a
197.3765	0.09	394753	keystroke	r	n/a
197.4815	0.075	394963	keystroke	Key.space	n/a
197.587	0.105	395174	keystroke	s	n/a
197.722	0.075	395444	keystroke	c	n/a
197.902	0.0905	395804	keystroke	r	n/a
197.977	0.075	395954	keystroke	i	n/a
198.1565	0.105	396313	keystroke	p	n/a
198.2465	0.0905	396493	keystroke	t	n/a
198.382	0.06	396764	keystroke	i	n/a
198.547	0.0905	397094	keystroke	n	n/a
198.622	0.074	397244	keystroke	g	n/a
198.7265	0.075	397453	keystroke	Key.space	n/a
198.8615	0.105	397723	keystroke	a	n/a
199.0415	0.1055	398083	keystroke	d	n/a
199.312	0.0745	398624	keystroke	Key.backspace	n/a
199.372	0.105	398744	keystroke	b	n/a
199.477	0.165	398954	keystroke	e	n/a
199.5975	0.0895	399195	keystroke	r	n/a
199.837	0.09	399674	keystroke	d	n/a
199.942	0.09	399884	keystroke	e	n/a
200.107	0.09	400214	keystroke	e	n/a
200.212	0.09	400424	keystroke	n	n/a
200.392	0.12	400784	keystroke	Key.enter	n/a
200.521	5.2275	401042	prompt	n/a	wondering separation warned logical\n
201.022	0.135	402044	keystroke	w	n/a
201.1425	0.0595	402285	keystroke	o	n/a
201.322	0.075	402644	keystroke	n	n/a
201.3675	0.1045	402735	keystroke	d	n/a
201.487	0.135	402974	keystroke	e	n/a
201.562	0.075	403124	keystroke	r	n/a
201.622	0.06	403244	keystroke	i	n/a
201.772	0.09	403544	keystroke	n	n/a
201.862	0.06	403724	keystroke	g	n/a
201.967	0.09	403934	keystroke	Key.space	n/a
202.012	0.12	404024	keystroke	s	n/a
202.252	0.105	404504	keystroke	e	n/a
202.402	0.0755	404804	keystroke	p	n/a
202.537	0.075	405074	keystroke	a	n/a
202.657	0.1345	405314	keystroke	r	n/a
202.821	0.151	405642	keystroke	a	n/a
203.1215	0.0905	406243	keystroke	t	n/a
203.272	0.0745	406544	keystroke	i	n/a
203.4515	0.076	406903	keystroke	o	n/a
203.528	0.059	407056	keystroke	n	n/a
203.6915	0.0755	407383	keystroke	Key.space	n/a
203.827	0.225	407654	keystroke	w	n/a
204.037	0.12	408074	keystroke	a	n/a
204.097	0.12	408194	keystroke	r	n/a
204.277	0.09	408554	keystroke	n	n/a
204.382	0.12	408764	keystroke	e	n/a
204.547	0.075	409094	keystroke	d	n/a
204.637	0.075	409274	keystroke	Key.space	n/a
204.832	0.075	409664	keystroke	l	n/a
204.997	0.075	409994	keystroke	o	n/a
205.057	0.075	410114	keystroke	g	n/a
205.177	0.09	410354	keystroke	i	n/a
205.282	0.105	410564	keystroke	c	n/a
205.357	0.105	410714	keystroke	a	n/a
205.447	0.0905	410894	keystroke	l	n/a
205.612	0.135	411224	keystroke	Key.enter	n/a
205.7535	6.145	411507	prompt	n/a	charms portion switches automobiles\n
206.317	0.09	412634	keystroke	c	n/a
206.467	0.09	412934	keystroke	h	n/a
206.572	0.09	413144	keystroke	a	n/a
206.617	0.09	413234	keystroke	r	n/a
206.707	0.0755	413414	keystroke	m	n/a
206.812	0.105	413624	keystroke	s	n/a
206.902	0.075	413804	keystroke	Key.space	n/a
207.142	0.015	414284	keystroke	p	n/a
207.2765	0.0905	414553	keystroke	o	n/a
207.3515	0.0755	414703	keystroke	r	n/a
207.6365	0.075	415273	keystroke	t	n/a
207.922	0.0745	415844	keystroke	o	n/a
208.192	0.044	416384	keystroke	Key.backspace	n/a
208.372	0.06	416744	keystroke	i	n/a
208.522	0.104	417044	keystroke	o	n/a
208.612	0.075	417224	keystroke	n	n/a
208.7465	0.09	417493	keystroke	Key.space	n/a
208.9865	0.12	417973	keystroke	s	n/a
209.1815	0.1055	418363	keystroke	w	n/a
209.407	0.09	418814	keystroke	i	n/a
209.512	0.0745	419024	keystroke	t	n/a
209.707	0.0595	419414	keystroke	c	n/a
209.7815	0.0745	419563	keystroke	h	n/a
209.8415	0.1045	419683	keystroke	e	n/a
210.0515	0.09	420103	keystroke	s	n/a
210.186	0.09	420372	keystroke	Key.space	n/a
210.4115	0.136	420823	keystroke	a	n/a
210.531	0.0755	421062	keystroke	u	n/a
210.652	0.0895	421304	keystroke	t	n/a
210.7565	0.075	421513	keystroke	o	n/a
210.9365	0.0755	421873	keystroke	m	n/a
211.132	0.06	422264	keystroke	o	n/a
211.2065	0.0905	422413	keystroke	b	n/a
211.3115	0.0755	422623	keystroke	i	n/a
211.462	0.1045	422924	keystroke	l	n/a
211.552	0.0595	423104	keystroke	e	n/a
211.6865	0.1055	423373	keystroke	s	n/a
211.7765	0.12	423553	keystroke	Key.enter	n/a
211.9035	4.975	423807	prompt	n/a	brings simon cellular supporting\n
212.4665	0.06	424933	keystroke	b	n/a
212.647	0.0745	425294	keystroke	r	n/a
212.7065	0.075	425413	keystroke	i	n/a
212.8715	0.0755	425743	keystroke	n	n/a
212.9475	0.1195	425895	keystroke	g	n/a
213.052	0.09	426104	keystroke	s	n/a
213.172	0.075	426344	keystroke	Key.space	n/a
213.3075	0.0895	426615	keystroke	s	n/a
213.4265	0.0755	426853	keystroke	i	n/a
213.592	0.06	427184	keystroke	m	n/a
213.757	0.06	427514	keystroke	o	n/a
213.907	0.0745	427814	keystroke	n	n/a
214.042	0.105	428084	keystroke	Key.space	n/a
214.1315	0.1355	428263	keystroke	c	n/a
214.237	0.09	428474	keystroke	e	n/a
214.3115	0.09	428623	keystroke	l	n/a
214.4615	0.075	428923	keystroke	l	n/a
214.657	0.06	429314	keystroke	u	n/a
214.8665	0.0755	429733	keystroke	l	n/a
214.972	0.12	429944	keystroke	a	n/a
215.032	0.1045	430064	keystroke	r	n/a
215.1215	0.09	430243	keystroke	Key.space	n/a
215.257	0.1195	430514	keystroke	s	n/a
215.392	0.06	430784	keystroke	u	n/a
215.857	0.0745	431714	keystroke	p	n/a
215.9765	0.0755	431953	keystroke	p	n/a
216.157	0.09	432314	keystroke	o	n/a
216.2315	0.045	432463	keystroke	r	n/a
216.367	0.075	432734	keystroke	t	n/a
216.457	0.045	432914	keystroke	i	n/a
216.592	0.105	433184	keystroke	n	n/a
216.682	0.09	433364	keystroke	g	n/a
216.757	0.12	433514	keystroke	Key.enter	n/a
216.883	5.3955	433766	prompt	n/a	mechanism ground going anyway\n
217.6265	0.105	435253	keystroke	m	n/a
217.7165	0.0605	435433	keystroke	e	n/a
217.7915	0.0905	435583	keystroke	c	n/a
217.9565	0.075	435913	keystroke	h	n/a
218.061	0.0755	436122	keystroke	a	n/a
218.167	0.0895	436334	keystroke	n	n/a
218.4215	0.0605	436843	keystroke	i	n/a
218.707	0.0895	437414	keystroke	s	n/a
218.8415	0.06	437683	keystroke	m	n/a
219.007	0.059	438014	keystroke	Key.space	n/a
219.1565	0.0755	438313	keystroke	g	n/a
219.3215	0.0755	438643	keystroke	r	n/a
219.3515	0.0755	438703	keystroke	o	n/a
219.5465	0.06	439093	keystroke	u	n/a
219.7115	0.0755	439423	keystroke	n	n/a
219.8015	0.0755	439603	keystroke	d	n/a
219.9215	0.075	439843	keystroke	Key.space	n/a
220.207	0.0745	440414	keystroke	g	n/a
220.2515	0.075	440503	keystroke	o	n/a
220.401	0.075	440802	keystroke	i	n/a
220.5215	0.1195	441043	keystroke	n	n/a
220.612	0.075	441224	keystroke	g	n/a
220.716	0.075	441432	keystroke	Key.space	n/a
220.912	0.1195	441824	keystroke	a	n/a
221.437	0.075	442874	keystroke	n	n/a
221.617	0.06	443234	keystroke	y	n/a
221.767	0.12	443534	keystroke	w	n/a
221.872	0.105	443744	keystroke	a	n/a
222.007	0.06	444014	keystroke	y	n/a
222.172	0.1045	444344	keystroke	Key.enter	n/a
222.2835	5.575	444567	prompt	n/a	limits directories drama trees\n
222.8165	0.0895	445633	keystroke	l	n/a
222.9815	0.0605	445963	keystroke	i	n/a
223.132	0.06	446264	keystroke	m	n/a
223.296	0.076	446592	keystroke	i	n/a
223.357	0.105	446714	keystroke	t	n/a
223.477	0.105	446954	keystroke	s	n/a
223.597	0.075	447194	keystroke	Key.space	n/a
223.657	0.1355	447314	keystroke	d	n/a
223.867	0.075	447734	keystroke	i	n/a
224.047	0.135	448094	keystroke	r	n/a
224.152	0.12	448304	keystroke	e	n/a
224.317	0.089	448634	keystroke	c	n/a
224.527	0.059	449054	keystroke	t	n/a
224.6475	0.0895	449295	keystroke	o	n/a
224.7215	0.0895	449443	keystroke	r	n/a
224.887	0.06	449774	keystroke	i	n/a
224.976	0.075	449952	keystroke	e	n/a
225.1415	0.105	450283	keystroke	s	n/a
225.261	0.075	450522	keystroke	Key.space	n/a
225.4565	0.0755	450913	keystroke	d	n/a
225.606	0.12	451212	keystroke	r	n/a
225.712	0.105	451424	keystroke	a	n/a
225.877	0.06	451754	keystroke	m	n/a
226.237	0.105	452474	keystroke	a	n/a
226.357	0.0595	452714	keystroke	Key.space	n/a
226.522	0.105	453044	keystroke	t	n/a
226.641	0.105	453282	keystroke	e	n/a
226.761	0.075	453522	keystroke	r	n/a
227.0015	0.0605	454003	keystroke	Key.backspace	n/a
227.137	0.09	454274	keystroke	Key.backspace	n/a
227.182	0.1495	454364	keystroke	r	n/a
227.2715	0.1055	454543	keystroke	e	n/a
227.4365	0.09	454873	keystroke	e	n/a
227.647	0.06	455294	keystroke	s	n/a
227.7515	0.105	455503	keystroke	Key.enter	n/a
227.863	7.705	455726	prompt	n/a	filter print viewpicture champion\n
228.4415	0.09	456883	keystroke	f	n/a
228.5465	0.06	457093	keystroke	i	n/a
228.712	0.075	457424	keystroke	l	n/a
228.802	0.09	457604	keystroke	t	n/a
228.877	0.1645	457754	keystroke	e	n/a
228.982	0.0895	457964	keystroke	r	n/a
229.057	0.075	458114	keystroke	Key.space	n/a
229.1765	0.09	458353	keystroke	r	n/a
229.3115	0.03	458623	keystroke	p	n/a
229.5215	0.06	459043	keystroke	Key.backspace	n/a
229.6415	0.09	459283	keystroke	Key.backspace	n/a
229.747	0.1045	459494	keystroke	p	n/a
230.227	0.06	460454	keystroke	r	n/a
230.347	0.105	460694	keystroke	i	n/a
230.617	0.0745	461234	keystroke	n	n/a
230.707	0.1195	461414	keystroke	t	n/a
230.8415	0.0755	461683	keystroke	Key.space	n/a
231.1565	0.1355	462313	keystroke	v	n/a
231.3065	0.12	462613	keystroke	i	n/a
231.757	0.1195	463514	keystroke	e	n/a
231.8465	0.1055	463693	keystroke	w	n/a
231.997	0.09	463994	keystroke	Key.space	n/a
232.8515	0.09	465703	keystroke	Key.backspace	n/a
233.0015	0.09	466003	keystroke	p	n/a
233.2265	0.09	466453	keystroke	i	n/a
233.3315	0.06	466663	keystroke	c	n/a
233.512	0.09	467024	keystroke	t	n/a
233.617	0.09	467234	keystroke	u	n/a
233.707	0.105	467414	keystroke	r	n/a
233.767	0.105	467534	keystroke	e	n/a
233.917	0.089	467834	keystroke	Key.space	n/a
234.036	0.0755	468072	keystroke	c	n/a
234.201	0.075	468402	keystroke	h	n/a
234.667	0.06	469334	keystroke	a	n/a
234.727	0.0895	469454	keystroke	m	n/a
234.937	0.06	469874	keystroke	p	n/a
235.117	0.06	470234	keystroke	i	n/a
235.267	0.09	470534	keystroke	o	n/a
235.327	0.1045	470654	keystroke	n	n/a
235.4465	0.12	470893	keystroke	Key.enter	n/a
235.573	5.816	471146	prompt	n/a	posts department function electoral\n
236.137	0.074	472274	keystroke	p	n/a
236.286	0.1055	472572	keystroke	o	n/a
236.361	0.1055	472722	keystroke	s	n/a
236.4515	0.121	472903	keystroke	t	n/a
236.5865	0.09	473173	keystroke	s	n/a
236.707	0.074	473414	keystroke	Key.space	n/a
237.037	0.165	474074	keystroke	d	n/a
237.172	0.105	474344	keystroke	e	n/a
237.307	0.105	474614	keystroke	p	n/a
237.457	0.135	474914	keystroke	a	n/a
237.562	0.09	475124	keystroke	r	n/a
237.742	0.075	475484	keystroke	t	n/a
237.847	0.075	475694	keystroke	m	n/a
237.952	0.105	475904	keystroke	e	n/a
238.042	0.075	476084	keystroke	n	n/a
238.1315	0.0595	476263	keystroke	t	n/a
238.2215	0.075	476443	keystroke	Key.space	n/a
238.3715	0.0755	476743	keystroke	f	n/a
238.462	0.075	476924	keystroke	u	n/a
238.627	0.09	477254	keystroke	n	n/a
238.687	0.075	477374	keystroke	c	n/a
238.912	0.06	477824	keystroke	t	n/a
238.986	0.076	477972	keystroke	i	n/a
239.137	0.0895	478274	keystroke	o	n/a
239.2115	0.0755	478423	keystroke	n	n/a
239.3315	0.09	478663	keystroke	Key.space	n/a
239.647	0.15	479294	keystroke	e	n/a
239.842	0.0745	479684	keystroke	l	n/a
239.902	0.15	479804	keystroke	e	n/a
240.396	0.0605	480792	keystroke	c	n/a
240.5915	0.09	481183	keystroke	t	n/a
240.7565	0.0755	481513	keystroke	o	n/a
240.8165	0.0905	481633	keystroke	r	n/a
240.982	0.0895	481964	keystroke	a	n/a
241.0865	0.0755	482173	keystroke	l	n/a
241.2665	0.1195	482533	keystroke	Key.enter	n/a
241.394	8.515	482788	prompt	n/a	bracelet virtually flesh marshall\n
242.0615	0.09	484123	keystroke	b	n/a
242.197	0.044	484394	keystroke	e	n/a
242.3765	0.075	484753	keystroke	r	n/a
242.5115	0.09	485023	keystroke	Key.backspace	n/a
242.707	0.0895	485414	keystroke	Key.backspace	n/a
242.8115	0.09	485623	keystroke	r	n/a
242.9915	0.09	485983	keystroke	e	n/a
243.096	0.136	486192	keystroke	a	n/a
243.6365	0.075	487273	keystroke	Key.backspace	n/a
243.7715	0.075	487543	keystroke	Key.backspace	n/a
243.8615	0.165	487723	keystroke	a	n/a
244.0115	0.1655	488023	keystroke	c	n/a
244.1615	0.09	488323	keystroke	e	n/a
244.3115	0.09	488623	keystroke	l	n/a
244.4315	0.0905	488863	keystroke	e	n/a
244.5965	0.1055	489193	keystroke	t	n/a
245.0915	0.0895	490183	keystroke	Key.space	n/a
245.407	0.075	490814	keystroke	v	n/a
245.541	0.091	491082	keystroke	i	n/a
245.6465	0.0455	491293	keystroke	r	n/a
245.767	0.0895	491534	keystroke	t	n/a
245.841	0.075	491682	keystroke	u	n/a
245.991	0.105	491982	keystroke	a	n/a
246.081	0.061	492162	keystroke	l	n/a
246.2165	0.09	492433	keystroke	l	n/a
246.292	0.0745	492584	keystroke	y	n/a
246.427	0.09	492854	keystroke	Key.space	n/a
246.667	0.15	493334	keystroke	f	n/a
246.907	0.0445	493814	keystroke	l	n/a
247.4915	0.105	494983	keystroke	e	n/a
247.747	0.075	495494	keystroke	s	n/a
247.881	0.075	495762	keystroke	h	n/a
248.061	0.0755	496122	keystroke	Key.space	n/a
248.2265	0.0905	496453	keystroke	m	n/a
248.3015	0.1055	496603	keystroke	a	n/a
248.361	0.106	496722	keystroke	r	n/a
248.571	0.06	497142	keystroke	h	n/a
248.587	0.06	497174	keystroke	s	n/a
248.932	0.0445	497864	keystroke	Key.backspace	n/a
249.067	0.0895	498134	keystroke	Key.backspace	n/a
249.2015	0.1055	498403	keystroke	s	n/a
249.3215	0.045	498643	keystroke	h	n/a
249.4115	0.12	498823	keystroke	a	n/a
249.5325	0.059	499065	keystroke	l	n/a
249.6665	0.075	499333	keystroke	l	n/a
249.7715	0.135	499543	keystroke	Key.enter	n/a
249.914	8.799	499828	prompt	n/a	cigarettes reduces helicopter nikon\n
250.522	0.059	501044	keystroke	c	n/a
250.642	0.075	501284	keystroke	i	n/a
250.7465	0.0905	501493	keystroke	g	n/a
250.8965	0.1045	501793	keystroke	a	n/a
251.017	0.089	502034	keystroke	r	n/a
251.3015	0.09	502603	keystroke	e	n/a
251.5265	0.045	503053	keystroke	t	n/a
251.662	0.075	503324	keystroke	t	n/a
251.766	0.091	503532	keystroke	e	n/a
251.976	0.09	503952	keystroke	s	n/a
252.081	0.0905	504162	keystroke	Key.space	n/a
252.2015	0.12	504403	keystroke	r	n/a
252.277	0.1045	504554	keystroke	e	n/a
252.427	0.0745	504854	keystroke	d	n/a
252.5615	0.09	505123	keystroke	u	n/a
252.6365	0.121	505273	keystroke	c	n/a
252.7265	0.105	505453	keystroke	e	n/a
252.9065	0.075	505813	keystroke	s	n/a
252.9665	0.075	505933	keystroke	Key.space	n/a
253.252	0.0295	506504	keystroke	h	n/a
253.267	0.045	506534	keystroke	e	n/a
253.3125	0.104	506625	keystroke	l	n/a
253.5365	0.075	507073	keystroke	i	n/a
253.8065	0.075	507613	keystroke	p	n/a
254.061	0.105	508122	keystroke	Key.backspace	n/a
254.1815	0.075	508363	keystroke	c	n/a
254.241	0.075	508482	keystroke	o	n/a
254.406	0.0905	508812	keystroke	p	n/a
254.5865	0.105	509173	keystroke	t	n/a
254.6915	0.1355	509383	keystroke	e	n/a
254.7815	0.1045	509563	keystroke	r	n/a
254.901	0.0755	509802	keystroke	Key.space	n/a
255.217	0.0745	510434	keystroke	i	n/a
255.7415	0.0745	511483	keystroke	Key.backspace	n/a
255.861	0.0755	511722	keystroke	n	n/a
255.952	0.075	511904	keystroke	i	n/a
256.477	0.045	512954	keystroke	l	n/a
256.642	0.059	513284	keystroke	o	n/a
257.376	0.06	514752	keystroke	Key.backspace	n/a
257.526	0.09	515052	keystroke	Key.backspace	n/a
257.8565	0.0605	515713	keystroke	k	n/a
258.051	0.03	516102	keystroke	o	n/a
258.2015	0.0895	516403	keystroke	n	n/a
258.6215	0.09	517243	keystroke	Key.enter	n/a
258.718	7.3455	517436	prompt	n/a	poor screensavers peaceful kevin\n
259.252	0.075	518504	keystroke	p	n/a
259.4165	0.075	518833	keystroke	o	n/a
259.5515	0.09	519103	keystroke	o	n/a
259.6565	0.09	519313	keystroke	r	n/a
259.7915	0.105	519583	keystroke	Key.space	n/a
260.077	0.1045	520154	keystroke	s	n/a
260.272	0.0745	520544	keystroke	c	n/a
260.452	0.0745	520904	keystroke	r	n/a
260.5565	0.075	521113	keystroke	e	n/a
260.6915	0.075	521383	keystroke	e	n/a
260.7815	0.105	521563	keystroke	n	n/a
260.9015	0.135	521803	keystroke	s	n/a
261.0065	0.135	522013	keystroke	a	n/a
261.1265	0.105	522253	keystroke	v	n/a
261.1865	0.1655	522373	keystroke	e	n/a
261.3365	0.09	522673	keystroke	r	n/a
261.442	0.105	522884	keystroke	s	n/a
261.5615	0.09	523123	keystroke	Key.space	n/a
261.8015	0.075	523603	keystroke	p	n/a
261.862	0.1045	523724	keystroke	e	n/a
261.9515	0.12	523903	keystroke	a	n/a
262.0865	0.06	524173	keystroke	c	n/a
262.417	0.0595	524834	keystroke	f	n/a
263.1215	0.0895	526243	keystroke	Key.backspace	n/a
263.197	0.09	526394	keystroke	e	n/a
263.317	0.104	526634	keystroke	f	n/a
263.437	0.0595	526874	keystroke	u	n/a
263.6315	0.075	527263	keystroke	l	n/a
263.6765	0.1205	527353	keystroke	Key.space	n/a
263.917	0.03	527834	keystroke	k	n/a
264.4265	0.0745	528853	keystroke	Key.backspace	n/a
264.576	0.045	529152	keystroke	Key.backspace	n/a
264.936	0.09	529872	keystroke	Key.space	n/a
265.116	0.091	530232	keystroke	k	n/a
265.2365	0.105	530473	keystroke	e	n/a
265.3715	0.0905	530743	keystroke	v	n/a
265.596	0.061	531192	keystroke	i	n/a
265.761	0.0755	531522	keystroke	n	n/a
265.926	0.1355	531852	keystroke	Key.enter	n/a
266.068	6.2055	532136	prompt	n/a	targeted floors communications violin\n
266.707	0.1045	533414	keystroke	t	n/a
266.856	0.1505	533712	keystroke	a	n/a
266.946	0.0905	533892	keystroke	r	n/a
267.141	0.106	534282	keystroke	g	n/a
267.231	0.1355	534462	keystroke	e	n/a
267.382	0.1045	534764	keystroke	t	n/a
267.5465	0.105	535093	keystroke	e	n/a
267.7415	0.075	535483	keystroke	d	n/a
267.8615	0.09	535723	keystroke	Key.space	n/a
267.9965	0.09	535993	keystroke	f	n/a
268.117	0.09	536234	keystroke	l	n/a
268.2965	0.075	536593	keystroke	o	n/a
268.4315	0.09	536863	keystroke	o	n/a
268.5365	0.0605	537073	keystroke	r	n/a
268.9265	0.0745	537853	keystroke	s	n/a
269.061	0.0905	538122	keystroke	Key.space	n/a
269.242	0.045	538484	keystroke	c	n/a
269.3165	0.075	538633	keystroke	o	n/a
269.4815	0.045	538963	keystroke	m	n/a
269.601	0.075	539202	keystroke	m	n/a
269.782	0.059	539564	keystroke	u	n/a
269.9165	0.0755	539833	keystroke	n	n/a
270.082	0.075	540164	keystroke	i	n/a
270.1715	0.105	540343	keystroke	c	n/a
270.262	0.149	540524	keystroke	a	n/a
270.381	0.075	540762	keystroke	t	n/a
270.441	0.076	540882	keystroke	i	n/a
270.6065	0.0895	541213	keystroke	o	n/a
270.681	0.06	541362	keystroke	n	n/a
270.8765	0.09	541753	keystroke	s	n/a
270.9815	0.09	541963	keystroke	Key.space	n/a
271.1765	0.09	542353	keystroke	v	n/a
271.326	0.0755	542652	keystroke	i	n/a
271.4915	0.0755	542983	keystroke	o	n/a
271.6565	0.075	543313	keystroke	l	n/a
271.851	0.06	543702	keystroke	i	n/a
271.9715	0.0905	543943	keystroke	n	n/a
272.1665	0.105	544333	keystroke	Key.enter	n/a
272.281	5.5265	544562	prompt	n/a	everyone's malta seconds troy\n
272.8415	0.075	545683	keystroke	e	n/a
272.9615	0.075	545923	keystroke	v	n/a
273.0515	0.15	546103	keystroke	e	n/a
273.1265	0.0905	546253	keystroke	r	n/a
273.3215	0.06	546643	keystroke	y	n/a
273.3965	0.045	546793	keystroke	o	n/a
273.561	0.061	547122	keystroke	n	n/a
273.8465	0.06	547693	keystroke	e	n/a
273.9815	0.09	547963	keystroke	'	n/a
274.1015	0.09	548203	keystroke	s	n/a
274.2515	0.09	548503	keystroke	Key.space	n/a
274.4465	0.075	548893	keystroke	m	n/a
274.5515	0.1055	549103	keystroke	a	n/a
274.6865	0.09	549373	keystroke	l	n/a
274.7915	0.075	549583	keystroke	t	n/a
275.0765	0.105	550153	keystroke	a	n/a
275.2115	0.09	550423	keystroke	Key.space	n/a
275.6765	0.09	551353	keystroke	s	n/a
275.8565	0.0755	551713	keystroke	e	n/a
275.9915	0.06	551983	keystroke	c	n/a
276.0665	0.0605	552133	keystroke	o	n/a
276.2315	0.0745	552463	keystroke	n	n/a
276.307	0.089	552614	keystroke	d	n/a
276.337	0.12	552674	keystroke	s	n/a
276.457	0.0745	552914	keystroke	Key.space	n/a
276.547	0.0595	553094	keystroke	t	n/a
276.6815	0.075	553363	keystroke	r	n/a
276.801	0.0755	553602	keystroke	o	n/a
277.2665	0.0595	554533	keystroke	y	n/a
277.6865	0.12	555373	keystroke	Key.enter	n/a
277.8105	7.498	555621	prompt	n/a	pill similar focused enclosure\n
278.377	0.074	556754	keystroke	p	n/a
278.602	0.075	557204	keystroke	i	n/a
278.8115	0.06	557623	keystroke	l	n/a
278.9315	0.0745	557863	keystroke	l	n/a
279.021	0.1055	558042	keystroke	Key.space	n/a
279.202	0.1195	558404	keystroke	s	n/a
279.2915	0.0605	558583	keystroke	i	n/a
279.4565	0.06	558913	keystroke	m	n/a
279.622	0.0445	559244	keystroke	i	n/a
279.7715	0.0905	559543	keystroke	l	n/a
279.8465	0.135	559693	keystroke	a	n/a
279.9215	0.09	559843	keystroke	r	n/a
280.0265	0.09	560053	keystroke	Key.space	n/a
280.1615	0.0905	560323	keystroke	f	n/a
280.281	0.0905	560562	keystroke	o	n/a
280.6415	0.0755	561283	keystroke	c	n/a
280.8365	0.075	561673	keystroke	u	n/a
281.0615	0.1045	562123	keystroke	s	n/a
281.211	0.105	562422	keystroke	e	n/a
281.5415	0.0445	563083	keystroke	d	n/a
281.721	0.06	563442	keystroke	Key.space	n/a
282.0215	0.0595	564043	keystroke	c	n/a
282.216	0.06	564432	keystroke	Key.backspace	n/a
282.291	0.105	564582	keystroke	e	n/a
282.382	0.06	564764	keystroke	c	n/a
282.651	0.0605	565302	keystroke	Key.backspace	n/a
282.861	0.075	565722	keystroke	n	n/a
282.9665	0.074	565933	keystroke	c	n/a
283.116	0.061	566232	keystroke	o	n/a
283.281	0.091	566562	keystroke	l	n/a
283.941	0.045	567882	keystroke	Key.backspace	n/a
284.0615	0.0745	568123	keystroke	Key.backspace	n/a
284.197	0.104	568394	keystroke	l	n/a
284.481	0.0755	568962	keystroke	o	n/a
284.811	0.0905	569622	keystroke	s	n/a
284.9615	0.06	569923	keystroke	u	n/a
285.0365	0.09	570073	keystroke	r	n/a
285.0815	0.09	570163	keystroke	e	n/a
285.1865	0.12	570373	keystroke	Key.enter	n/a
285.314	4.944	570628	prompt	n/a	entity hobby basename sponsors\n
285.906	0.105	571812	keystroke	e	n/a
286.026	0.09	572052	keystroke	n	n/a
286.1465	0.0905	572293	keystroke	t	n/a
286.2815	0.06	572563	keystroke	i	n/a
286.3565	0.1045	572713	keystroke	t	n/a
286.476	0.075	572952	keystroke	i	n/a
286.566	0.106	573132	keystroke	y	n/a
286.761	0.0755	573522	keystroke	Key.space	n/a
287.076	0.06	574152	keystroke	h	n/a
287.181	0.076	574362	keystroke	o	n/a
287.287	0.074	574574	keystroke	b	n/a
287.451	0.06	574902	keystroke	b	n/a
287.6765	0.0755	575353	keystroke	y	n/a
287.856	0.09	575712	keystroke	Key.space	n/a
288.066	0.0755	576132	keystroke	b	n/a
288.231	0.135	576462	keystroke	a	n/a
288.307	0.0895	576614	keystroke	s	n/a
288.486	0.0605	576972	keystroke	e	n/a
288.682	0.0445	577364	keystroke	n	n/a
288.7565	0.09	577513	keystroke	a	n/a
288.8615	0.075	577723	keystroke	m	n/a
288.9215	0.0745	577843	keystroke	e	n/a
289.0265	0.0745	578053	keystroke	Key.space	n/a
289.1455	0.091	578291	keystroke	s	n/a
289.2515	0.0755	578503	keystroke	p	n/a
289.401	0.061	578802	keystroke	o	n/a
289.566	0.09	579132	keystroke	n	n/a
289.671	0.0605	579342	keystroke	s	n/a
289.867	0.0595	579734	keystroke	o	n/a
289.9415	0.1345	579883	keystroke	r	n/a
290.061	0.1055	580122	keystroke	s	n/a
290.151	0.1055	580302	keystroke	Key.enter	n/a
290.263	9.145	580526	prompt	n/a	debian bradley experimental transactions\n
290.9315	0.12	581863	keystroke	d	n/a
291.0215	0.12	582043	keystroke	a	n/a
291.3515	0.09	582703	keystroke	Key.backspace	n/a
291.4115	0.09	582823	keystroke	e	n/a
291.5465	0.0905	583093	keystroke	b	n/a
291.8915	0.09	583783	keystroke	a	n/a
292.0265	0.06	584053	keystroke	i	n/a
292.6405	0.061	585281	keystroke	Key.backspace	n/a
292.776	0.09	585552	keystroke	Key.backspace	n/a
292.896	0.075	585792	keystroke	i	n/a
293.031	0.1055	586062	keystroke	a	n/a
293.121	0.0605	586242	keystroke	n	n/a
293.2865	0.06	586573	keystroke	Key.space	n/a
293.406	0.09	586812	keystroke	b	n/a
293.6165	0.1045	587233	keystroke	r	n/a
293.736	0.135	587472	keystroke	a	n/a
293.8265	0.0895	587653	keystroke	d	n/a
294.0215	0.075	588043	keystroke	l	n/a
294.1865	0.09	588373	keystroke	e	n/a
294.336	0.09	588672	keystroke	y	n/a
294.4565	0.0745	588913	keystroke	Key.space	n/a
294.651	0.0755	589302	keystroke	e	n/a
294.861	0.0605	589722	keystroke	x	n/a
294.981	0.105	589962	keystroke	p	n/a
295.071	0.1055	590142	keystroke	e	n/a
295.1465	0.0755	590293	keystroke	r	n/a
295.2965	0.075	590593	keystroke	i	n/a
295.4015	0.09	590803	keystroke	e	n/a
295.551	0.075	591102	keystroke	m	n/a
295.8065	0.0445	591613	keystroke	Key.backspace	n/a
295.926	0.06	591852	keystroke	Key.backspace	n/a
296.091	0.076	592182	keystroke	m	n/a
296.182	0.089	592364	keystroke	e	n/a
296.286	0.0755	592572	keystroke	n	n/a
296.346	0.105	592692	keystroke	t	n/a
296.4665	0.075	592933	keystroke	a	n/a
296.5565	0.0745	593113	keystroke	l	n/a
296.661	0.09	593322	keystroke	Key.space	n/a
296.917	0.059	593834	keystroke	t	n/a
297.111	0.0605	594222	keystroke	r	n/a
297.1865	0.06	594373	keystroke	a	n/a
297.3815	0.09	594763	keystroke	n	n/a
297.7415	0.105	595483	keystroke	s	n/a
297.906	0.18	595812	keystroke	a	n/a
298.0265	0.0445	596053	keystroke	c	n/a
298.1915	0.06	596383	keystroke	t	n/a
298.297	0.0595	596594	keystroke	i	n/a
298.4465	0.089	596893	keystroke	o	n/a
298.477	0.0895	596954	keystroke	n	n/a
298.6865	0.105	597373	keystroke	s	n/a
299.2565	0.15	598513	keystroke	Key.enter	n/a
299.412	5.006	598824	prompt	n/a	shift soon metallic rwanda\n
299.961	0.1055	599922	keystroke	s	n/a
300.126	0.105	600252	keystroke	h	n/a
300.261	0.09	600522	keystroke	i	n/a
300.3665	0.12	600733	keystroke	f	n/a
300.591	0.09	601182	keystroke	t	n/a
300.726	0.0755	601452	keystroke	Key.space	n/a
300.8315	0.1055	601663	keystroke	s	n/a
300.966	0.06	601932	keystroke	o	n/a
301.0865	0.075	602173	keystroke	o	n/a
301.1765	0.09	602353	keystroke	n	n/a
301.296	0.0755	602592	keystroke	Key.space	n/a
301.4615	0.0745	602923	keystroke	m	n/a
301.521	0.105	603042	keystroke	e	n/a
301.627	0.119	603254	keystroke	t	n/a
301.731	0.075	603462	keystroke	a	n/a
301.7915	0.0745	603583	keystroke	l	n/a
301.926	0.0755	603852	keystroke	l	n/a
302.0915	0.075	604183	keystroke	i	n/a
302.196	0.0455	604392	keystroke	c	n/a
302.2865	0.09	604573	keystroke	Key.space	n/a
302.5265	0.09	605053	keystroke	s	n/a
302.8115	0.06	605623	keystroke	Key.backspace	n/a
302.887	0.074	605774	keystroke	r	n/a
303.2015	0.045	606403	keystroke	q	n/a
303.4855	0.076	606971	keystroke	Key.backspace	n/a
303.5465	0.135	607093	keystroke	w	n/a
303.6965	0.0905	607393	keystroke	a	n/a
303.847	0.0595	607694	keystroke	n	n/a
304.0265	0.12	608053	keystroke	d	n/a
304.1615	0.12	608323	keystroke	a	n/a
304.3115	0.105	608623	keystroke	Key.enter	n/a
304.423	8.35	608846	prompt	n/a	frederick potential curve northeast\n
305.271	0.09	610542	keystroke	d	n/a
305.6165	0.1195	611233	keystroke	Key.backspace	n/a
305.751	0.075	611502	keystroke	f	n/a
306.427	0.1495	612854	keystroke	r	n/a
306.5615	0.1195	613123	keystroke	e	n/a
306.9215	0.105	613843	keystroke	d	n/a
307.1015	0.15	614203	keystroke	e	n/a
307.2065	0.09	614413	keystroke	r	n/a
307.3415	0.105	614683	keystroke	i	n/a
307.4615	0.075	614923	keystroke	c	n/a
307.5815	0.075	615163	keystroke	k	n/a
307.7315	0.075	615463	keystroke	Key.space	n/a
307.9415	0.0755	615883	keystroke	p	n/a
308.1515	0.075	616303	keystroke	o	n/a
308.2415	0.1355	616483	keystroke	t	n/a
308.3615	0.105	616723	keystroke	e	n/a
308.5115	0.09	617023	keystroke	n	n/a
308.7065	0.075	617413	keystroke	t	n/a
308.8865	0.074	617773	keystroke	i	n/a
309.0055	0.1055	618011	keystroke	a	n/a
309.1265	0.06	618253	keystroke	l	n/a
309.4565	0.135	618913	keystroke	Key.space	n/a
309.9515	0.06	619903	keystroke	c	n/a
310.2215	0.09	620443	keystroke	u	n/a
310.297	0.09	620594	keystroke	r	n/a
310.491	0.1045	620982	keystroke	v	n/a
310.552	0.105	621104	keystroke	e	n/a
310.671	0.0745	621342	keystroke	Key.space	n/a
310.897	0.0595	621794	keystroke	n	n/a
311.0755	0.075	622151	keystroke	o	n/a
311.1365	0.075	622273	keystroke	r	n/a
311.301	0.075	622602	keystroke	t	n/a
311.421	0.0755	622842	keystroke	h	n/a
311.8865	0.09	623773	keystroke	w	n/a
312.0815	0.09	624163	keystroke	Key.backspace	n/a
312.1565	0.135	624313	keystroke	e	n/a
312.2765	0.12	624553	keystroke	a	n/a
312.3365	0.135	624673	keystroke	s	n/a
312.5165	0.09	625033	keystroke	t	n/a
312.6515	0.12	625303	keystroke	Key.enter	n/a
312.776	5.667	625552	prompt	n/a	waters impaired gordon frederick\n
313.2815	0.12	626563	keystroke	w	n/a
313.4165	0.0895	626833	keystroke	a	n/a
313.791	0.1055	627582	keystroke	t	n/a
313.911	0.1355	627822	keystroke	e	n/a
314.0165	0.09	628033	keystroke	r	n/a
314.1665	0.105	628333	keystroke	s	n/a
314.2865	0.075	628573	keystroke	Key.space	n/a
314.5715	0.06	629143	keystroke	i	n/a
314.751	0.06	629502	keystroke	m	n/a
314.946	0.0755	629892	keystroke	p	n/a
315.051	0.1055	630102	keystroke	a	n/a
315.141	0.0905	630282	keystroke	i	n/a
315.217	0.0895	630434	keystroke	r	n/a
315.2765	0.12	630553	keystroke	e	n/a
315.427	0.0895	630854	keystroke	d	n/a
315.4865	0.105	630973	keystroke	Key.space	n/a
315.6665	0.105	631333	keystroke	g	n/a
315.801	0.0605	631602	keystroke	o	n/a
315.891	0.06	631782	keystroke	r	n/a
316.086	0.0605	632172	keystroke	d	n/a
316.581	0.0605	633162	keystroke	o	n/a
316.761	0.075	633522	keystroke	n	n/a
316.911	0.09	633822	keystroke	Key.space	n/a
317.077	0.1045	634154	keystroke	f	n/a
317.3015	0.15	634603	keystroke	r	n/a
317.3915	0.12	634783	keystroke	e	n/a
317.587	0.0735	635174	keystroke	d	n/a
317.7665	0.134	635533	keystroke	e	n/a
317.8565	0.0895	635713	keystroke	r	n/a
317.976	0.076	635952	keystroke	i	n/a
318.0965	0.075	636193	keystroke	c	n/a
318.1715	0.089	636343	keystroke	k	n/a
318.276	0.165	636552	keystroke	Key.enter	n/a
318.4475	6.026	636895	prompt	n/a	howard engaging luis beat\n
320.1515	0.09	640303	keystroke	h	n/a
320.2715	0.09	640543	keystroke	o	n/a
320.3615	0.12	640723	keystroke	w	n/a
320.5865	0.1655	641173	keystroke	a	n/a
320.767	0.0745	641534	keystroke	r	n/a
320.9465	0.105	641893	keystroke	d	n/a
321.441	0.075	642882	keystroke	Key.space	n/a
321.711	0.12	643422	keystroke	e	n/a
321.861	0.076	643722	keystroke	n	n/a
321.967	0.104	643934	keystroke	g	n/a
322.116	0.12	644232	keystroke	a	n/a
322.206	0.105	644412	keystroke	g	n/a
322.326	0.06	644652	keystroke	i	n/a
322.491	0.0745	644982	keystroke	n	n/a
322.5515	0.09	645103	keystroke	g	n/a
322.6555	0.045	645311	keystroke	Key.space	n/a
322.8815	0.0445	645763	keystroke	l	n/a
323.0765	0.075	646153	keystroke	u	n/a
323.4215	0.09	646843	keystroke	i	n/a
323.5865	0.1045	647173	keystroke	s	n/a
323.691	0.0905	647382	keystroke	Key.space	n/a
323.841	0.106	647682	keystroke	b	n/a
324.066	0.12	648132	keystroke	e	n/a
324.1715	0.1195	648343	keystroke	a	n/a
324.261	0.09	648522	keystroke	t	n/a
324.351	0.12	648702	keystroke	Key.enter	n/a
324.479	5.319	648958	prompt	n/a	dame framing wife preliminary\n
325.0265	0.15	650053	keystroke	d	n/a
325.1465	0.12	650293	keystroke	a	n/a
325.2365	0.06	650473	keystroke	m	n/a
325.311	0.1355	650622	keystroke	e	n/a
325.431	0.0745	650862	keystroke	Key.space	n/a
325.5215	0.089	651043	keystroke	f	n/a
325.6865	0.12	651373	keystroke	r	n/a
325.7915	0.089	651583	keystroke	a	n/a
325.8965	0.075	651793	keystroke	m	n/a
326.0915	0.075	652183	keystroke	i	n/a
326.1515	0.1205	652303	keystroke	n	n/a
326.2105	0.091	652421	keystroke	g	n/a
326.331	0.0895	652662	keystroke	Key.space	n/a
326.4665	0.12	652933	keystroke	w	n/a
326.6165	0.075	653233	keystroke	i	n/a
326.7365	0.165	653473	keystroke	f	n/a
326.8565	0.12	653713	keystroke	e	n/a
326.9915	0.09	653983	keystroke	Key.space	n/a
327.397	0.1195	654794	keystroke	r	n/a
327.4715	0.09	654943	keystroke	e	n/a
327.6665	0.089	655333	keystroke	Key.backspace	n/a
327.9515	0.075	655903	keystroke	Key.backspace	n/a
328.1165	0.1045	656233	keystroke	p	n/a
328.236	0.1055	656472	keystroke	r	n/a
328.281	0.12	656562	keystroke	e	n/a
328.461	0.105	656922	keystroke	l	n/a
328.656	0.0755	657312	keystroke	i	n/a
328.8215	0.075	657643	keystroke	m	n/a
329.0165	0.06	658033	keystroke	i	n/a
329.182	0.0595	658364	keystroke	n	n/a
329.2715	0.1495	658543	keystroke	a	n/a
329.347	0.12	658694	keystroke	r	n/a
329.541	0.1055	659082	keystroke	y	n/a
329.661	0.1355	659322	keystroke	Key.enter	n/a
329.803	8.125	659606	prompt	n/a	faster they'll institute panels\n
330.4115	0.135	660823	keystroke	f	n/a
330.5305	0.151	661061	keystroke	a	n/a
330.6205	0.136	661241	keystroke	s	n/a
330.7715	0.1045	661543	keystroke	t	n/a
331.1315	0.1045	662263	keystroke	y	n/a
331.461	0.075	662922	keystroke	Key.backspace	n/a
331.521	0.135	663042	keystroke	e	n/a
331.611	0.105	663222	keystroke	r	n/a
331.7615	0.1045	663523	keystroke	Key.space	n/a
331.926	0.105	663852	keystroke	t	n/a
332.136	0.09	664272	keystroke	h	n/a
332.2415	0.105	664483	keystroke	e	n/a
332.4065	0.075	664813	keystroke	y	n/a
332.7065	0.105	665413	keystroke	'	n/a
332.9765	0.03	665953	keystroke	k	n/a
333.0965	0.075	666193	keystroke	l	n/a
333.396	0.075	666792	keystroke	Key.backspace	n/a
333.531	0.0905	667062	keystroke	Key.backspace	n/a
333.8165	0.075	667633	keystroke	l	n/a
333.9515	0.105	667903	keystroke	l	n/a
334.1005	0.106	668201	keystroke	Key.space	n/a
334.2365	0.075	668473	keystroke	i	n/a
334.4165	0.0905	668833	keystroke	n	n/a
334.5365	0.105	669073	keystroke	s	n/a
334.7015	0.06	669403	keystroke	i	n/a
334.7915	0.1045	669583	keystroke	t	n/a
335.4965	0.0595	670993	keystroke	Key.backspace	n/a
335.6315	0.09	671263	keystroke	Key.backspace	n/a
335.797	0.104	671594	keystroke	t	n/a
335.931	0.09	671862	keystroke	i	n/a
336.1565	0.0595	672313	keystroke	t	n/a
336.2765	0.09	672553	keystroke	u	n/a
336.3955	0.121	672791	keystroke	t	n/a
336.486	0.105	672972	keystroke	e	n/a
336.7115	0.0745	673423	keystroke	Key.space	n/a
337.026	0.06	674052	keystroke	p	n/a
337.1455	0.09	674291	keystroke	a	n/a
337.2815	0.06	674563	keystroke	n	n/a
337.5065	0.104	675013	keystroke	e	n/a
337.5965	0.0905	675193	keystroke	l	n/a
337.701	0.0895	675402	keystroke	s	n/a
337.8055	0.12	675611	keystroke	Key.enter	n/a
337.933	4.69	675866	prompt	n/a	clinic cups rover bits\n
338.541	0.0755	677082	keystroke	c	n/a
338.6765	0.12	677353	keystroke	l	n/a
338.8715	0.075	677743	keystroke	i	n/a
339.066	0.0605	678132	keystroke	n	n/a
339.2315	0.0595	678463	keystroke	i	n/a
339.3215	0.0895	678643	keystroke	c	n/a
339.396	0.09	678792	keystroke	Key.space	n/a
339.621	0.06	679242	keystroke	u	n/a
339.846	0.075	679692	keystroke	Key.backspace	n/a
339.936	0.075	679872	keystroke	c	n/a
340.041	0.0755	680082	keystroke	u	n/a
340.2815	0.0755	680563	keystroke	p	n/a
340.4165	0.09	680833	keystroke	s	n/a
340.5205	0.09	681041	keystroke	Key.space	n/a
340.8515	0.059	681703	keystroke	r	n/a
340.9265	0.105	681853	keystroke	o	n/a
341.0455	0.076	682091	keystroke	v	n/a
341.1215	0.1495	682243	keystroke	e	n/a
341.2265	0.0895	682453	keystroke	r	n/a
341.781	0.135	683562	keystroke	Key.space	n/a
342.1415	0.06	684283	keystroke	b	n/a
342.2455	0.075	684491	keystroke	i	n/a
342.3365	0.135	684673	keystroke	t	n/a
342.457	0.0745	684914	keystroke	s	n/a
342.5165	0.104	685033	keystroke	Key.enter	n/a
342.6315	5.466	685263	prompt	n/a	hack hands embedded housewives\n
343.2515	0.0745	686503	keystroke	h	n/a
343.386	0.1205	686772	keystroke	a	n/a
343.4915	0.06	686983	keystroke	c	n/a
343.5665	0.1055	687133	keystroke	k	n/a
343.7615	0.074	687523	keystroke	Key.space	n/a
343.8665	0.09	687733	keystroke	h	n/a
344.0165	0.0895	688033	keystroke	a	n/a
344.1215	0.075	688243	keystroke	n	n/a
344.1815	0.135	688363	keystroke	d	n/a
344.286	0.0745	688572	keystroke	s	n/a
344.376	0.0745	688752	keystroke	Key.space	n/a
344.5115	0.089	689023	keystroke	e	n/a
344.6455	0.075	689291	keystroke	m	n/a
344.7515	0.074	689503	keystroke	b	n/a
344.9315	0.1045	689863	keystroke	e	n/a
345.1865	0.06	690373	keystroke	d	n/a
345.321	0.105	690642	keystroke	d	n/a
345.411	0.135	690822	keystroke	e	n/a
345.5315	0.0745	691063	keystroke	d	n/a
345.6365	0.09	691273	keystroke	Key.space	n/a
345.877	0.0895	691754	keystroke	h	n/a
345.9815	0.0895	691963	keystroke	o	n/a
346.4315	0.03	692863	keystroke	w	n/a
346.671	0.0905	693342	keystroke	Key.backspace	n/a
346.8665	0.0895	693733	keystroke	u	n/a
346.941	0.075	693882	keystroke	s	n/a
347.106	0.09	694212	keystroke	e	n/a
347.3915	0.075	694783	keystroke	w	n/a
347.467	0.0895	694934	keystroke	i	n/a
347.616	0.1355	695232	keystroke	v	n/a
347.706	0.0905	695412	keystroke	e	n/a
347.871	0.12	695742	keystroke	s	n/a
347.9765	0.12	695953	keystroke	Key.enter	n/a
348.1005	5.4125	696201	prompt	n/a	valentine butter gimme recognize\n
348.6815	0.1195	697363	keystroke	v	n/a
348.7715	0.135	697543	keystroke	a	n/a
348.891	0.0895	697782	keystroke	l	n/a
348.9965	0.09	697993	keystroke	e	n/a
349.1165	0.0895	698233	keystroke	n	n/a
349.2215	0.06	698443	keystroke	t	n/a
349.3265	0.075	698653	keystroke	i	n/a
349.4915	0.09	698983	keystroke	n	n/a
349.5665	0.12	699133	keystroke	e	n/a
349.6715	0.075	699343	keystroke	Key.space	n/a
349.926	0.0755	699852	keystroke	u	n/a
350.181	0.075	700362	keystroke	Key.backspace	n/a
350.421	0.09	700842	keystroke	b	n/a
350.5265	0.0895	701053	keystroke	u	n/a
350.6315	0.0595	701263	keystroke	t	n/a
350.766	0.105	701532	keystroke	t	n/a
350.856	0.1655	701712	keystroke	e	n/a
350.946	0.135	701892	keystroke	r	n/a
351.036	0.075	702072	keystroke	Key.space	n/a
351.171	0.09	702342	keystroke	g	n/a
351.306	0.06	702612	keystroke	i	n/a
351.471	0.045	702942	keystroke	m	n/a
351.5915	0.0745	703183	keystroke	m	n/a
351.651	0.09	703302	keystroke	e	n/a
351.7565	0.1195	703513	keystroke	Key.space	n/a
351.831	0.1205	703662	keystroke	r	n/a
352.071	0.1055	704142	keystroke	e	n/a
352.2515	0.075	704503	keystroke	c	n/a
352.3415	0.09	704683	keystroke	o	n/a
352.5215	0.075	705043	keystroke	g	n/a
352.716	0.09	705432	keystroke	n	n/a
352.926	0.075	705852	keystroke	i	n/a
353.016	0.1505	706032	keystroke	z	n/a
353.1215	0.1195	706243	keystroke	e	n/a
353.391	0.12	706782	keystroke	Key.enter	n/a
353.518	4.99	707036	prompt	n/a	babe northern thailand ghana\n
354.126	0.105	708252	keystroke	b	n/a
354.2915	0.135	708583	keystroke	a	n/a
354.3815	0.1345	708763	keystroke	b	n/a
354.4715	0.12	708943	keystroke	e	n/a
354.6065	0.075	709213	keystroke	Key.space	n/a
354.9505	0.061	709901	keystroke	n	n/a
355.146	0.0755	710292	keystroke	o	n/a
355.206	0.0605	710412	keystroke	r	n/a
355.341	0.0905	710682	keystroke	t	n/a
355.4465	0.075	710893	keystroke	h	n/a
355.506	0.1355	711012	keystroke	e	n/a
355.5955	0.091	711191	keystroke	r	n/a
355.6865	0.09	711373	keystroke	Key.space	n/a
355.8055	0.091	711611	keystroke	t	n/a
355.9855	0.0755	711971	keystroke	h	n/a
356.1205	0.105	712241	keystroke	a	n/a
356.1815	0.075	712363	keystroke	i	n/a
356.3615	0.089	712723	keystroke	l	n/a
356.6615	0.105	713323	keystroke	a	n/a
357.216	0.075	714432	keystroke	n	n/a
357.306	0.0605	714612	keystroke	d	n/a
357.426	0.0605	714852	keystroke	Key.space	n/a
357.6065	0.104	715213	keystroke	g	n/a
357.891	0.0905	715782	keystroke	h	n/a
358.0105	0.091	716021	keystroke	a	n/a
358.131	0.09	716262	keystroke	n	n/a
358.236	0.075	716472	keystroke	a	n/a
358.4165	0.0895	716833	keystroke	Key.enter	n/a
358.5125	3.431	717025	prompt	n/a	dist brave doug cancel\n
359.0765	0.0745	718153	keystroke	d	n/a
359.196	0.0755	718392	keystroke	i	n/a
359.256	0.135	718512	keystroke	s	n/a
359.406	0.075	718812	keystroke	t	n/a
359.496	0.09	718992	keystroke	Key.space	n/a
359.631	0.0905	719262	keystroke	b	n/a
359.8265	0.1045	719653	keystroke	r	n/a
359.932	0.1645	719864	keystroke	a	n/a
360.051	0.15	720102	keystroke	v	n/a
360.141	0.12	720282	keystroke	e	n/a
360.276	0.1205	720552	keystroke	Key.space	n/a
360.411	0.09	720822	keystroke	d	n/a
360.531	0.06	721062	keystroke	o	n/a
360.726	0.06	721452	keystroke	u	n/a
360.801	0.0755	721602	keystroke	g	n/a
360.9515	0.09	721903	keystroke	Key.space	n/a
361.221	0.15	722442	keystroke	c	n/a
361.356	0.105	722712	keystroke	a	n/a
361.446	0.06	722892	keystroke	n	n/a
361.521	0.105	723042	keystroke	c	n/a
361.5965	0.1045	723193	keystroke	e	n/a
361.686	0.1055	723372	keystroke	l	n/a
361.8065	0.1345	723613	keystroke	Key.enter	n/a
361.948	7.165	723896	prompt	n/a	successful orbit tournaments fund\n
362.5415	0.015	725083	keystroke	d	n/a
362.6465	0.075	725293	keystroke	s	n/a
362.8405	0.0605	725681	keystroke	Key.backspace	n/a
362.9605	0.09	725921	keystroke	Key.backspace	n/a
363.0665	0.1345	726133	keystroke	s	n/a
363.2165	0.0595	726433	keystroke	u	n/a
363.471	0.0905	726942	keystroke	c	n/a
363.6365	0.09	727273	keystroke	c	n/a
363.7105	0.105	727421	keystroke	e	n/a
363.8905	0.0755	727781	keystroke	s	n/a
364.011	0.1205	728022	keystroke	s	n/a
364.1755	0.09	728351	keystroke	f	n/a
364.2815	0.089	728563	keystroke	u	n/a
364.5055	0.091	729011	keystroke	l	n/a
364.6705	0.09	729341	keystroke	Key.space	n/a
364.9865	0.09	729973	keystroke	o	n/a
365.0615	0.074	730123	keystroke	r	n/a
365.2715	0.075	730543	keystroke	b	n/a
365.391	0.075	730782	keystroke	i	n/a
365.481	0.06	730962	keystroke	r	n/a
365.586	0.09	731172	keystroke	Key.space	n/a
365.916	0.06	731832	keystroke	Key.backspace	n/a
366.036	0.09	732072	keystroke	Key.backspace	n/a
366.141	0.09	732282	keystroke	t	n/a
366.261	0.0905	732522	keystroke	Key.space	n/a
366.501	0.09	733002	keystroke	t	n/a
366.606	0.06	733212	keystroke	o	n/a
366.786	0.06	733572	keystroke	u	n/a
366.8465	0.105	733693	keystroke	r	n/a
366.9965	0.0595	733993	keystroke	n	n/a
367.3855	0.091	734771	keystroke	a	n/a
367.5365	0.1195	735073	keystroke	m	n/a
367.686	0.09	735372	keystroke	e	n/a
367.926	0.075	735852	keystroke	n	n/a
368.0315	0.1195	736063	keystroke	t	n/a
368.166	0.0905	736332	keystroke	s	n/a
368.2855	0.061	736571	keystroke	Key.space	n/a
368.4515	0.09	736903	keystroke	f	n/a
368.5705	0.061	737141	keystroke	u	n/a
368.736	0.0905	737472	keystroke	n	n/a
368.796	0.0755	737592	keystroke	d	n/a
368.9765	0.1345	737953	keystroke	Key.enter	n/a
369.1165	5.981	738233	prompt	n/a	pursue mandatory hood nova\n
369.6515	0.09	739303	keystroke	p	n/a
369.891	0.0595	739782	keystroke	u	n/a
369.9655	0.09	739931	keystroke	r	n/a
370.0865	0.09	740173	keystroke	u	n/a
370.2355	0.0905	740471	keystroke	s	n/a
370.536	0.045	741072	keystroke	Key.backspace	n/a
370.656	0.06	741312	keystroke	Key.backspace	n/a
370.746	0.09	741492	keystroke	s	n/a
370.821	0.09	741642	keystroke	u	n/a
370.941	0.1055	741882	keystroke	e	n/a
371.0615	0.0745	742123	keystroke	Key.space	n/a
371.2705	0.06	742541	keystroke	m	n/a
371.3605	0.09	742721	keystroke	a	n/a
371.4655	0.0755	742931	keystroke	n	n/a
371.586	0.1195	743172	keystroke	d	n/a
371.7065	0.0895	743413	keystroke	a	n/a
372.066	0.0905	744132	keystroke	t	n/a
372.201	0.06	744402	keystroke	o	n/a
372.291	0.075	744582	keystroke	r	n/a
372.4715	0.0745	744943	keystroke	y	n/a
372.561	0.075	745122	keystroke	Key.space	n/a
372.666	0.0755	745332	keystroke	g	n/a
372.861	0.03	745722	keystroke	o	n/a
372.966	0.09	745932	keystroke	Key.backspace	n/a
373.116	0.09	746232	keystroke	Key.backspace	n/a
373.1905	0.075	746381	keystroke	h	n/a
373.296	0.0745	746592	keystroke	o	n/a
373.4305	0.0755	746861	keystroke	o	n/a
373.5665	0.09	747133	keystroke	d	n/a
373.6705	0.0605	747341	keystroke	Key.space	n/a
373.851	0.045	747702	keystroke	n	n/a
374.031	0.06	748062	keystroke	o	n/a
374.136	0.03	748272	keystroke	v	n/a
374.1965	0.0745	748393	keystroke	v	n/a
374.451	0.09	748902	keystroke	a	n/a
374.661	0.06	749322	keystroke	Key.backspace	n/a
374.796	0.075	749592	keystroke	Key.backspace	n/a
374.8565	0.0745	749713	keystroke	a	n/a
374.976	0.12	749952	keystroke	Key.enter	n/a
375.101	6.972	750202	prompt	n/a	mental tournament watershed fairfield\n
375.666	0.0755	751332	keystroke	m	n/a
375.8765	0.1345	751753	keystroke	e	n/a
376.0405	0.09	752081	keystroke	n	n/a
376.1455	0.09	752291	keystroke	t	n/a
376.2815	0.089	752563	keystroke	a	n/a
376.3715	0.06	752743	keystroke	l	n/a
376.5365	0.074	753073	keystroke	Key.space	n/a
376.6715	0.075	753343	keystroke	t	n/a
376.7605	0.076	753521	keystroke	o	n/a
376.9715	0.074	753943	keystroke	u	n/a
377.0765	0.0745	754153	keystroke	r	n/a
377.166	0.0755	754332	keystroke	n	n/a
377.2865	0.0745	754573	keystroke	a	n/a
377.376	0.075	754752	keystroke	m	n/a
377.5705	0.075	755141	keystroke	n	n/a
377.6755	0.1205	755351	keystroke	e	n/a
378.2755	0.06	756551	keystroke	Key.backspace	n/a
378.3955	0.09	756791	keystroke	Key.backspace	n/a
378.5165	0.12	757033	keystroke	e	n/a
378.6215	0.075	757243	keystroke	n	n/a
378.7105	0.106	757421	keystroke	t	n/a
378.8455	0.075	757691	keystroke	Key.space	n/a
379.2515	0.1645	758503	keystroke	w	n/a
379.3865	0.1345	758773	keystroke	a	n/a
379.491	0.12	758982	keystroke	t	n/a
379.566	0.135	759132	keystroke	e	n/a
379.6715	0.075	759343	keystroke	r	n/a
379.806	0.0905	759612	keystroke	s	n/a
379.956	0.0905	759912	keystroke	h	n/a
380.1065	0.0745	760213	keystroke	e	n/a
380.3915	0.089	760783	keystroke	d	n/a
380.556	0.0745	761112	keystroke	Key.space	n/a
380.796	0.1045	761592	keystroke	f	n/a
380.8865	0.104	761773	keystroke	a	n/a
381.0055	0.09	762011	keystroke	i	n/a
381.1115	0.0595	762223	keystroke	r	n/a
381.306	0.0755	762612	keystroke	f	n/a
381.4865	0.09	762973	keystroke	i	n/a
381.6365	0.075	763273	keystroke	e	n/a
381.7415	0.09	763483	keystroke	l	n/a
381.8465	0.075	763693	keystroke	d	n/a
381.9365	0.134	763873	keystroke	Key.enter	n/a
382.078	4.39	764156	prompt	n/a	saddam prisoner drop imports\n
382.641	0.1655	765282	keystroke	s	n/a
382.7765	0.12	765553	keystroke	a	n/a
382.8815	0.06	765763	keystroke	d	n/a
383.0165	0.12	766033	keystroke	d	n/a
383.1215	0.105	766243	keystroke	a	n/a
383.2565	0.09	766513	keystroke	m	n/a
383.4655	0.045	766931	keystroke	Key.space	n/a
383.6765	0.075	767353	keystroke	p	n/a
383.7365	0.0895	767473	keystroke	r	n/a
383.886	0.075	767772	keystroke	i	n/a
383.991	0.09	767982	keystroke	s	n/a
384.066	0.0605	768132	keystroke	o	n/a
384.231	0.09	768462	keystroke	n	n/a
384.336	0.105	768672	keystroke	e	n/a
384.382	0.0895	768764	keystroke	r	n/a
384.456	0.09	768912	keystroke	Key.space	n/a
384.606	0.09	769212	keystroke	d	n/a
384.7865	0.075	769573	keystroke	r	n/a
384.8305	0.076	769661	keystroke	o	n/a
384.9665	0.0745	769933	keystroke	p	n/a
385.1465	0.074	770293	keystroke	Key.space	n/a
385.3715	0.045	770743	keystroke	i	n/a
385.5215	0.075	771043	keystroke	m	n/a
385.7165	0.045	771433	keystroke	p	n/a
385.8665	0.06	771733	keystroke	o	n/a
385.9415	0.06	771883	keystroke	r	n/a
386.1215	0.119	772243	keystroke	t	n/a
386.2255	0.1055	772451	keystroke	s	n/a
386.316	0.15	772632	keystroke	Key.enter	n/a
386.473	4.989	772946	prompt	n/a	entry fossil action artwork\n
387.036	0.106	774072	keystroke	e	n/a
387.1865	0.075	774373	keystroke	n	n/a
387.2915	0.03	774583	keystroke	t	n/a
387.4265	0.045	774853	keystroke	r	n/a
387.5765	0.075	775153	keystroke	y	n/a
387.6815	0.075	775363	keystroke	Key.space	n/a
387.9065	0.045	775813	keystroke	d	n/a
388.1455	0.0905	776291	keystroke	Key.backspace	n/a
388.3565	0.0295	776713	keystroke	f	n/a
388.4015	0.0745	776803	keystroke	o	n/a
388.566	0.0755	777132	keystroke	s	n/a
388.7165	0.089	777433	keystroke	s	n/a
388.8655	0.075	777731	keystroke	i	n/a
389.1355	0.075	778271	keystroke	l	n/a
389.3605	0.0905	778721	keystroke	Key.space	n/a
389.496	0.195	778992	keystroke	a	n/a
389.631	0.075	779262	keystroke	c	n/a
389.811	0.09	779622	keystroke	t	n/a
389.916	0.06	779832	keystroke	i	n/a
390.051	0.09	780102	keystroke	o	n/a
390.126	0.09	780252	keystroke	n	n/a
390.26	0.106	780520	keystroke	Key.space	n/a
390.351	0.15	780702	keystroke	a	n/a
390.455	0.106	780910	keystroke	r	n/a
390.666	0.0745	781332	keystroke	t	n/a
390.9055	0.12	781811	keystroke	w	n/a
391.0105	0.075	782021	keystroke	o	n/a
391.116	0.104	782232	keystroke	r	n/a
391.19	0.105	782380	keystroke	k	n/a
391.31	0.15	782620	keystroke	Key.enter	n/a
391.4665	4.39	782933	prompt	n/a	proved evil prepared beef\n
392	0.0905	784000	keystroke	p	n/a
392.091	0.0885	784182	keystroke	r	n/a
392.1955	0.119	784391	keystroke	o	n/a
392.2995	0.105	784599	keystroke	v	n/a
392.3755	0.119	784751	keystroke	e	n/a
392.5255	0.089	785051	keystroke	d	n/a
392.6295	0.09	785259	keystroke	Key.space	n/a
392.7345	0.106	785469	keystroke	e	n/a
392.885	0.075	785770	keystroke	v	n/a
393.0055	0.0445	786011	keystroke	i	n/a
393.1555	0.075	786311	keystroke	l	n/a
393.2595	0.075	786519	keystroke	Key.space	n/a
393.455	0.075	786910	keystroke	p	n/a
393.545	0.1355	787090	keystroke	r	n/a
393.634	0.1215	787268	keystroke	e	n/a
394.025	0.09	788050	keystroke	p	n/a
394.13	0.135	788260	keystroke	a	n/a
394.25	0.12	788500	keystroke	r	n/a
394.325	0.12	788650	keystroke	e	n/a
394.49	0.0745	788980	keystroke	d	n/a
394.5945	0.075	789189	keystroke	Key.space	n/a
394.8345	0.09	789669	keystroke	f	n/a
395.0445	0.075	790089	keystroke	Key.backspace	n/a
395.135	0.105	790270	keystroke	b	n/a
395.2245	0.075	790449	keystroke	e	n/a
395.3895	0.0755	790779	keystroke	e	n/a
395.5845	0.0905	791169	keystroke	f	n/a
395.7345	0.1195	791469	keystroke	Key.enter	n/a
395.862	5.1535	791724	prompt	n/a	plaza confirmation nick conduct\n
396.6045	0.06	793209	keystroke	p	n/a
396.7395	0.105	793479	keystroke	l	n/a
396.8295	0.135	793659	keystroke	a	n/a
397.1445	0.0895	794289	keystroke	z	n/a
397.3245	0.119	794649	keystroke	a	n/a
397.4745	0.089	794949	keystroke	Key.space	n/a
397.6845	0.044	795369	keystroke	c	n/a
397.7595	0.059	795519	keystroke	o	n/a
397.9695	0.075	795939	keystroke	n	n/a
398.089	0.135	796178	keystroke	f	n/a
398.2695	0.06	796539	keystroke	i	n/a
398.3445	0.074	796689	keystroke	r	n/a
398.4485	0.09	796897	keystroke	m	n/a
398.584	0.135	797168	keystroke	a	n/a
398.689	0.105	797378	keystroke	t	n/a
398.7945	0.0445	797589	keystroke	i	n/a
398.914	0.09	797828	keystroke	o	n/a
398.9895	0.075	797979	keystroke	n	n/a
399.138	0.076	798276	keystroke	Key.space	n/a
399.364	0.015	798728	keystroke	n	n/a
399.469	0.075	798938	keystroke	i	n/a
399.559	0.0755	799118	keystroke	c	n/a
399.649	0.075	799298	keystroke	k	n/a
399.7985	0.0745	799597	keystroke	Key.space	n/a
399.949	0.06	799898	keystroke	c	n/a
400.0245	0.0435	800049	keystroke	o	n/a
400.174	0.074	800348	keystroke	n	n/a
400.279	0.074	800558	keystroke	d	n/a
400.368	0.075	800736	keystroke	u	n/a
400.489	0.12	800978	keystroke	c	n/a
400.728	0.0755	801456	keystroke	t	n/a
400.908	0.1055	801816	keystroke	Key.enter	n/a
401.02	5.095	802040	prompt	n/a	grant effectively shares bother\n
401.554	0.105	803108	keystroke	f	n/a
401.8535	0.045	803707	keystroke	Key.backspace	n/a
401.914	0.0745	803828	keystroke	g	n/a
402.094	0.105	804188	keystroke	r	n/a
402.169	0.12	804338	keystroke	a	n/a
402.244	0.0745	804488	keystroke	n	n/a
402.3195	0.074	804639	keystroke	t	n/a
402.4385	0.075	804877	keystroke	Key.space	n/a
402.6185	0.09	805237	keystroke	e	n/a
402.7835	0.0605	805567	keystroke	f	n/a
403.2635	0.0745	806527	keystroke	f	n/a
403.383	0.135	806766	keystroke	e	n/a
403.533	0.0605	807066	keystroke	c	n/a
403.713	0.06	807426	keystroke	t	n/a
403.879	0.0445	807758	keystroke	i	n/a
403.9535	0.0755	807907	keystroke	v	n/a
403.9985	0.1355	807997	keystroke	e	n/a
404.119	0.0895	808238	keystroke	l	n/a
404.2235	0.075	808447	keystroke	y	n/a
404.3585	0.0895	808717	keystroke	Key.space	n/a
404.509	0.09	809018	keystroke	s	n/a
404.6585	0.075	809317	keystroke	h	n/a
404.7035	0.09	809407	keystroke	a	n/a
404.8085	0.12	809617	keystroke	r	n/a
404.884	0.089	809768	keystroke	e	n/a
405.0635	0.075	810127	keystroke	s	n/a
405.1535	0.0745	810307	keystroke	Key.space	n/a
405.318	0.075	810636	keystroke	b	n/a
405.4235	0.0895	810847	keystroke	o	n/a
405.498	0.105	810996	keystroke	t	n/a
405.648	0.0755	811296	keystroke	h	n/a
405.7535	0.15	811507	keystroke	e	n/a
405.8585	0.0895	811717	keystroke	r	n/a
405.978	0.1355	811956	keystroke	Key.enter	n/a
406.1235	5.5115	812247	prompt	n/a	editors tommy fees fantasy\n
406.7135	0.0745	813427	keystroke	e	n/a
406.863	0.075	813726	keystroke	d	n/a
406.9685	0.075	813937	keystroke	i	n/a
407.073	0.075	814146	keystroke	t	n/a
407.178	0.045	814356	keystroke	i	n/a
407.523	0.075	815046	keystroke	Key.backspace	n/a
407.6885	0.104	815377	keystroke	o	n/a
407.7775	0.1355	815555	keystroke	r	n/a
407.8985	0.0905	815797	keystroke	s	n/a
408.0635	0.0745	816127	keystroke	Key.space	n/a
408.483	0.0605	816966	keystroke	t	n/a
408.5285	0.0745	817057	keystroke	o	n/a
408.694	0.0745	817388	keystroke	m	n/a
408.8285	0.075	817657	keystroke	m	n/a
408.9635	0.1345	817927	keystroke	y	n/a
409.1585	0.0595	818317	keystroke	Key.space	n/a
409.3535	0.1045	818707	keystroke	f	n/a
409.518	0.09	819036	keystroke	e	n/a
409.683	0.0755	819366	keystroke	e	n/a
409.863	0.075	819726	keystroke	s	n/a
409.968	0.075	819936	keystroke	Key.space	n/a
410.4635	0.105	820927	keystroke	f	n/a
410.5535	0.105	821107	keystroke	a	n/a
410.8985	0.09	821797	keystroke	n	n/a
411.0185	0.105	822037	keystroke	t	n/a
411.1685	0.1345	822337	keystroke	a	n/a
411.2285	0.105	822457	keystroke	s	n/a
411.378	0.1055	822756	keystroke	y	n/a
411.528	0.105	823056	keystroke	Key.enter	n/a
411.639	4.796	823278	prompt	n/a	reminder amanda sustained onto\n
412.3835	0.12	824767	keystroke	r	n/a
412.4585	0.12	824917	keystroke	e	n/a
412.5635	0.075	825127	keystroke	m	n/a
412.7585	0.045	825517	keystroke	i	n/a
412.9085	0.075	825817	keystroke	n	n/a
412.9685	0.12	825937	keystroke	d	n/a
413.0735	0.1195	826147	keystroke	e	n/a
413.148	0.09	826296	keystroke	r	n/a
413.253	0.06	826506	keystroke	Key.space	n/a
413.343	0.09	826686	keystroke	a	n/a
413.448	0.0905	826896	keystroke	m	n/a
413.5985	0.0605	827197	keystroke	a	n/a
413.719	0.0745	827438	keystroke	n	n/a
413.808	0.121	827616	keystroke	d	n/a
413.8985	0.12	827797	keystroke	a	n/a
414.0335	0.06	828067	keystroke	Key.space	n/a
414.198	0.09	828396	keystroke	s	n/a
414.334	0.075	828668	keystroke	u	n/a
414.4235	0.0905	828847	keystroke	s	n/a
414.558	0.0755	829116	keystroke	t	n/a
414.6785	0.105	829357	keystroke	a	n/a
414.8285	0.09	829657	keystroke	i	n/a
415.0685	0.075	830137	keystroke	n	n/a
415.159	0.1195	830318	keystroke	e	n/a
415.3235	0.0895	830647	keystroke	d	n/a
415.428	0.06	830856	keystroke	Key.space	n/a
415.654	0.029	831308	keystroke	o	n/a
415.953	0.0755	831906	keystroke	n	n/a
416.058	0.1055	832116	keystroke	t	n/a
416.1785	0.0595	832357	keystroke	o	n/a
416.3135	0.119	832627	keystroke	Key.enter	n/a
416.439	5.696	832878	prompt	n/a	exploration retained nick accurate\n
417.0935	0.09	834187	keystroke	e	n/a
417.2725	0.076	834545	keystroke	x	n/a
417.3635	0.06	834727	keystroke	p	n/a
417.5435	0.06	835087	keystroke	l	n/a
417.6935	0.075	835387	keystroke	o	n/a
417.7535	0.12	835507	keystroke	r	n/a
417.9185	0.149	835837	keystroke	a	n/a
418.0375	0.105	836075	keystroke	t	n/a
418.1575	0.076	836315	keystroke	i	n/a
418.2925	0.091	836585	keystroke	o	n/a
418.353	0.0755	836706	keystroke	n	n/a
418.5325	0.09	837065	keystroke	Key.space	n/a
418.639	0.1345	837278	keystroke	r	n/a
418.7285	0.09	837457	keystroke	e	n/a
418.8935	0.0905	837787	keystroke	t	n/a
419.0285	0.09	838057	keystroke	i	n/a
419.673	0.075	839346	keystroke	Key.backspace	n/a
419.764	0.09	839528	keystroke	a	n/a
419.8385	0.075	839677	keystroke	i	n/a
420.0185	0.0745	840037	keystroke	n	n/a
420.063	0.105	840126	keystroke	e	n/a
420.273	0.045	840546	keystroke	d	n/a
420.333	0.09	840666	keystroke	Key.space	n/a
420.558	0.0605	841116	keystroke	n	n/a
420.7235	0.06	841447	keystroke	i	n/a
420.8435	0.075	841687	keystroke	c	n/a
420.9035	0.06	841807	keystroke	k	n/a
421.0535	0.09	842107	keystroke	Key.space	n/a
421.1585	0.09	842317	keystroke	a	n/a
421.3535	0.06	842707	keystroke	c	n/a
421.4735	0.0895	842947	keystroke	c	n/a
421.623	0.0605	843246	keystroke	u	n/a
421.684	0.119	843368	keystroke	r	n/a
421.788	0.1355	843576	keystroke	a	n/a
421.8935	0.1055	843787	keystroke	t	n/a
421.968	0.1055	843936	keystroke	e	n/a
422.043	0.09	844086	keystroke	Key.enter	n/a
422.14	6.7445	844280	prompt	n/a	plus coaches beans header\n
422.643	0.0755	845286	keystroke	p	n/a
422.8085	0.0745	845617	keystroke	l	n/a
423.0035	0.0745	846007	keystroke	u	n/a
423.123	0.0755	846246	keystroke	s	n/a
423.2125	0.075	846425	keystroke	Key.space	n/a
423.3035	0.075	846607	keystroke	c	n/a
423.4385	0.06	846877	keystroke	o	n/a
423.5135	0.1495	847027	keystroke	a	n/a
423.6035	0.075	847207	keystroke	s	n/a
424.0235	0.075	848047	keystroke	Key.backspace	n/a
424.1585	0.09	848317	keystroke	Key.backspace	n/a
424.2635	0.075	848527	keystroke	c	n/a
424.6535	0.105	849307	keystroke	Key.backspace	n/a
424.7435	0.1045	849487	keystroke	a	n/a
424.833	0.09	849666	keystroke	c	n/a
424.9685	0.1045	849937	keystroke	h	n/a
425.1035	0.09	850207	keystroke	e	n/a
425.298	0.09	850596	keystroke	s	n/a
425.463	0.09	850926	keystroke	Key.space	n/a
425.8085	0.105	851617	keystroke	b	n/a
425.8835	0.089	851767	keystroke	e	n/a
426.0185	0.0745	852037	keystroke	n	n/a
426.1375	0.0755	852275	keystroke	a	n/a
426.858	0.0605	853716	keystroke	Key.backspace	n/a
426.978	0.0905	853956	keystroke	Key.backspace	n/a
427.083	0.09	854166	keystroke	a	n/a
427.2035	0.09	854407	keystroke	n	n/a
427.3385	0.105	854677	keystroke	s	n/a
427.5335	0.0445	855067	keystroke	Key.space	n/a
427.7585	0.0145	855517	keystroke	b	n/a
428.028	0.075	856056	keystroke	Key.backspace	n/a
428.103	0.0755	856206	keystroke	h	n/a
428.328	0.09	856656	keystroke	e	n/a
428.388	0.15	856776	keystroke	a	n/a
428.508	0.1045	857016	keystroke	d	n/a
428.6285	0.1195	857257	keystroke	e	n/a
428.7035	0.0895	857407	keystroke	r	n/a
428.7625	0.12	857525	keystroke	Key.enter	n/a
428.8885	9.3565	857777	prompt	n/a	almost photographic lightning planets\n
429.498	0.1045	858996	keystroke	a	n/a
