onset	duration	sample	value	key	prompt_text
5.9005	9.7575	11801	prompt	n/a	the quick brown fox jumps over a lazy dog\n
7.8435	0.043	15687	keystroke	t	n/a
7.9005	0.121	15801	keystroke	h	n/a
7.9915	0.105	15983	keystroke	e	n/a
8.1415	0.104	16283	keystroke	Key.space	n/a
8.441	0.15	16882	keystroke	q	n/a
8.636	0.1345	17272	keystroke	u	n/a
8.7255	0.1355	17451	keystroke	i	n/a
8.9815	0.12	17963	keystroke	c	n/a
9.1305	0.166	18261	keystroke	k	n/a
9.2965	0.134	18593	keystroke	Key.space	n/a
9.7915	0.089	19583	keystroke	b	n/a
10.0615	0.105	20123	keystroke	r	n/a
10.2105	0.105	20421	keystroke	o	n/a
10.3605	0.105	20721	keystroke	w	n/a
10.511	0.18	21022	keystroke	n	n/a
10.6765	0.1045	21353	keystroke	Key.space	n/a
10.796	0.105	21592	keystroke	f	n/a
10.931	0.135	21862	keystroke	o	n/a
11.096	0.15	22192	keystroke	x	n/a
11.321	0.09	22642	keystroke	Key.space	n/a
11.516	0.105	23032	keystroke	j	n/a
11.741	0.1195	23482	keystroke	u	n/a
12.0405	0.2255	24081	keystroke	m	n/a
12.2205	0.165	24441	keystroke	p	n/a
12.4005	0.09	24801	keystroke	s	n/a
12.5655	0.075	25131	keystroke	Key.space	n/a
12.7005	0.12	25401	keystroke	o	n/a
12.8505	0.0905	25701	keystroke	v	n/a
12.986	0.12	25972	keystroke	e	n/a
13.091	0.119	26182	keystroke	r	n/a
13.166	0.119	26332	keystroke	Key.space	n/a
13.3	0.121	26600	keystroke	a	n/a
13.405	0.12	26810	keystroke	Key.space	n/a
13.916	0.089	27832	keystroke	l	n/a
14.051	0.105	28102	keystroke	a	n/a
14.336	0.1045	28672	keystroke	z	n/a
14.516	0.12	29032	keystroke	y	n/a
14.696	0.1195	29392	keystroke	Key.space	n/a
14.9505	0.12	29901	keystroke	d	n/a
15.1005	0.105	30201	keystroke	o	n/a
15.2955	0.09	30591	keystroke	g	n/a
15.5505	0.105	31101	keystroke	Key.enter	n/a
15.6625	8.845	31325	prompt	n/a	efficient searching buyers lexmark\n
16.391	0.105	32782	keystroke	e	n/a
16.571	0.09	33142	keystroke	f	n/a
16.736	0.105	33472	keystroke	f	n/a
16.916	0.12	33832	keystroke	i	n/a
17.111	0.12	34222	keystroke	c	n/a
17.471	0.09	34942	keystroke	i	n/a
17.951	0.015	35902	keystroke	e	n/a
18.086	0.1195	36172	keystroke	n	n/a
18.2505	0.105	36501	keystroke	t	n/a
18.461	0.135	36922	keystroke	Key.space	n/a
18.956	0.105	37912	keystroke	s	n/a
19.211	0.09	38422	keystroke	e	n/a
19.361	0.12	38722	keystroke	a	n/a
19.676	0.135	39352	keystroke	r	n/a
20.305	0.121	40610	keystroke	c	n/a
20.501	0.15	41002	keystroke	h	n/a
20.666	0.15	41332	keystroke	i	n/a
20.771	0.15	41542	keystroke	n	n/a
20.951	0.105	41902	keystroke	g	n/a
21.101	0.15	42202	keystroke	Key.space	n/a
21.4905	0.12	42981	keystroke	b	n/a
21.6855	0.09	43371	keystroke	u	n/a
21.9105	0.12	43821	keystroke	y	n/a
22.1805	0.135	44361	keystroke	e	n/a
22.3005	0.12	44601	keystroke	r	n/a
22.5105	0.09	45021	keystroke	s	n/a
22.6155	0.135	45231	keystroke	Key.space	n/a
23.0055	0.135	46011	keystroke	l	n/a
23.1415	0.104	46283	keystroke	e	n/a
23.3805	0.105	46761	keystroke	x	n/a
23.5755	0.15	47151	keystroke	m	n/a
23.7855	0.1805	47571	keystroke	a	n/a
23.981	0.12	47962	keystroke	r	n/a
24.146	0.135	48292	keystroke	k	n/a
24.401	0.105	48802	keystroke	Key.enter	n/a
24.513	4.9745	49026	prompt	n/a	not seas bones swing\n
25.166	0.1195	50332	keystroke	n	n/a
25.2555	0.105	50511	keystroke	o	n/a
25.4055	0.18	50811	keystroke	t	n/a
25.5105	0.09	51021	keystroke	Key.space	n/a
25.9155	0.075	51831	keystroke	s	n/a
25.9755	0.135	51951	keystroke	e	n/a
26.261	0.2245	52522	keystroke	a	n/a
26.4855	0.06	52971	keystroke	s	n/a
26.681	0.1495	53362	keystroke	Key.space	n/a
27.2355	0.1055	54471	keystroke	b	n/a
27.386	0.15	54772	keystroke	o	n/a
27.491	0.165	54982	keystroke	n	n/a
27.656	0.0745	55312	keystroke	e	n/a
27.8355	0.09	55671	keystroke	s	n/a
28.3305	0.12	56661	keystroke	Key.space	n/a
28.5705	0.075	57141	keystroke	s	n/a
28.7805	0.075	57561	keystroke	w	n/a
28.9155	0.165	57831	keystroke	i	n/a
28.9905	0.18	57981	keystroke	n	n/a
29.1255	0.105	58251	keystroke	g	n/a
29.381	0.105	58762	keystroke	Key.enter	n/a
29.4905	9.657	58981	prompt	n/a	spaces dependence conduct textiles\n
30.176	0.105	60352	keystroke	s	n/a
30.371	0.09	60742	keystroke	p	n/a
30.611	0.09	61222	keystroke	a	n/a
30.866	0.105	61732	keystroke	c	n/a
31.121	0.09	62242	keystroke	e	n/a
31.3305	0.09	62661	keystroke	s	n/a
31.4805	0.135	62961	keystroke	Key.space	n/a
31.7955	0.105	63591	keystroke	d	n/a
32.0355	0.09	64071	keystroke	e	n/a
32.2455	0.09	64491	keystroke	p	n/a
32.3805	0.105	64761	keystroke	e	n/a
32.5755	0.105	65151	keystroke	n	n/a
32.6955	0.09	65391	keystroke	d	n/a
32.9205	0.091	65841	keystroke	e	n/a
33.1005	0.12	66201	keystroke	n	n/a
33.2515	0.09	66503	keystroke	c	n/a
33.5065	0.089	67013	keystroke	e	n/a
33.6255	0.15	67251	keystroke	Key.space	n/a
34.0455	0.121	68091	keystroke	c	n/a
34.1505	0.18	68301	keystroke	o	n/a
34.2255	0.135	68451	keystroke	n	n/a
34.4055	0.075	68811	keystroke	d	n/a
34.6305	0.121	69261	keystroke	u	n/a
34.7355	0.0905	69471	keystroke	c	n/a
35.006	0.09	70012	keystroke	t	n/a
35.126	0.135	70252	keystroke	Key.space	n/a
35.846	0.135	71692	keystroke	t	n/a
36.116	0.075	72232	keystroke	e	n/a
36.356	0.135	72712	keystroke	x	n/a
36.611	0.1045	73222	keystroke	t	n/a
36.836	0.15	73672	keystroke	i	n/a
37.9165	0.149	75833	keystroke	l	n/a
38.1705	0.135	76341	keystroke	e	n/a
38.5905	0.12	77181	keystroke	s	n/a
39.041	0.105	78082	keystroke	Key.enter	n/a
39.1505	8.1575	78301	prompt	n/a	airline micro warm activated\n
40.061	0.135	80122	keystroke	a	n/a
40.211	0.15	80422	keystroke	i	n/a
40.376	0.06	80752	keystroke	r	n/a
40.541	0.135	81082	keystroke	l	n/a
40.736	0.18	81472	keystroke	i	n/a
40.841	0.18	81682	keystroke	n	n/a
41.036	0.105	82072	keystroke	e	n/a
41.2	0.151	82400	keystroke	Key.space	n/a
41.861	0.165	83722	keystroke	m	n/a
42.071	0.135	84142	keystroke	i	n/a
42.6705	0.121	85341	keystroke	c	n/a
42.9555	0.106	85911	keystroke	r	n/a
43.1515	0.135	86303	keystroke	o	n/a
43.4355	0.12	86871	keystroke	Key.space	n/a
43.9165	0.119	87833	keystroke	w	n/a
44.1715	0.1645	88343	keystroke	a	n/a
44.3055	0.1205	88611	keystroke	r	n/a
44.591	0.165	89182	keystroke	m	n/a
44.771	0.12	89542	keystroke	Key.space	n/a
45.206	0.12	90412	keystroke	a	n/a
45.431	0.12	90862	keystroke	c	n/a
45.7305	0.09	91461	keystroke	t	n/a
45.9555	0.12	91911	keystroke	i	n/a
46.0905	0.135	92181	keystroke	v	n/a
46.2855	0.1955	92571	keystroke	a	n/a
46.466	0.135	92932	keystroke	t	n/a
46.6465	0.09	93293	keystroke	e	n/a
46.871	0.09	93742	keystroke	d	n/a
47.1855	0.12	94371	keystroke	Key.enter	n/a
47.311	11.956	94622	prompt	n/a	adobe technician supervision interpretation\n
48.1305	0.15	96261	keystroke	a	n/a
48.4005	0.105	96801	keystroke	d	n/a
48.5355	0.135	97071	keystroke	o	n/a
48.6855	0.165	97371	keystroke	b	n/a
48.8655	0.105	97731	keystroke	e	n/a
49.0455	0.135	98091	keystroke	Key.space	n/a
49.6005	0.135	99201	keystroke	t	n/a
49.7365	0.119	99473	keystroke	e	n/a
50.0505	0.105	100101	keystroke	c	n/a
50.2755	0.1505	100551	keystroke	h	n/a
50.636	0.135	101272	keystroke	n	n/a
50.816	0.135	101632	keystroke	i	n/a
51.011	0.12	102022	keystroke	c	n/a
51.176	0.135	102352	keystroke	i	n/a
51.401	0.135	102802	keystroke	a	n/a
51.551	0.15	103102	keystroke	n	n/a
51.956	0.1345	103912	keystroke	Key.space	n/a
52.3165	0.1045	104633	keystroke	s	n/a
52.601	0.165	105202	keystroke	u	n/a
52.961	0.135	105922	keystroke	p	n/a
53.291	0.135	106582	keystroke	e	n/a
53.471	0.12	106942	keystroke	r	n/a
53.831	0.09	107662	keystroke	v	n/a
53.981	0.12	107962	keystroke	i	n/a
54.161	0.09	108322	keystroke	s	n/a
54.281	0.135	108562	keystroke	i	n/a
54.4005	0.1205	108801	keystroke	o	n/a
54.476	0.165	108952	keystroke	n	n/a
54.656	0.15	109312	keystroke	Key.space	n/a
55.001	0.18	110002	keystroke	i	n/a
55.091	0.18	110182	keystroke	n	n/a
55.481	0.135	110962	keystroke	t	n/a
55.946	0.09	111892	keystroke	e	n/a
56.246	0.1195	112492	keystroke	r	n/a
56.5905	0.1355	113181	keystroke	p	n/a
56.876	0.1655	113752	keystroke	r	n/a
57.251	0.12	114502	keystroke	e	n/a
57.611	0.135	115222	keystroke	t	n/a
57.9105	0.165	115821	keystroke	a	n/a
58.2265	0.089	116453	keystroke	t	n/a
58.5555	0.1355	117111	keystroke	i	n/a
58.661	0.15	117322	keystroke	o	n/a
58.766	0.165	117532	keystroke	n	n/a
59.156	0.105	118312	keystroke	Key.enter	n/a
59.271	9.37	118542	prompt	n/a	thumbzilla faces sessions eliminate\n
60.356	0.12	120712	keystroke	t	n/a
60.461	0.105	120922	keystroke	h	n/a
60.701	0.0895	121402	keystroke	u	n/a
60.9255	0.135	121851	keystroke	m	n/a
61.1355	0.105	122271	keystroke	b	n/a
61.4955	0.15	122991	keystroke	z	n/a
61.6605	0.135	123321	keystroke	i	n/a
61.9305	0.075	123861	keystroke	l	n/a
62.096	0.105	124192	keystroke	l	n/a
62.246	0.135	124492	keystroke	a	n/a
62.456	0.1195	124912	keystroke	Key.space	n/a
62.996	0.075	125992	keystroke	f	n/a
63.116	0.15	126232	keystroke	a	n/a
63.401	0.15	126802	keystroke	c	n/a
63.686	0.12	127372	keystroke	e	n/a
63.926	0.0755	127852	keystroke	s	n/a
64.3305	0.135	128661	keystroke	Key.space	n/a
64.5855	0.12	129171	keystroke	s	n/a
64.856	0.105	129712	keystroke	e	n/a
65.081	0.09	130162	keystroke	s	n/a
65.261	0.105	130522	keystroke	s	n/a
65.4255	0.135	130851	keystroke	i	n/a
65.5155	0.15	131031	keystroke	o	n/a
65.6055	0.18	131211	keystroke	n	n/a
65.7555	0.12	131511	keystroke	s	n/a
65.9055	0.12	131811	keystroke	Key.space	n/a
66.461	0.135	132922	keystroke	e	n/a
66.671	0.105	133342	keystroke	l	n/a
66.851	0.135	133702	keystroke	i	n/a
67.031	0.165	134062	keystroke	m	n/a
67.571	0.12	135142	keystroke	i	n/a
67.751	0.165	135502	keystroke	n	n/a
67.931	0.195	135862	keystroke	a	n/a
68.111	0.15	136222	keystroke	t	n/a
68.246	0.09	136492	keystroke	e	n/a
68.516	0.1195	137032	keystroke	Key.enter	n/a
68.6455	6.472	137291	prompt	n/a	alexandria sake than group\n
69.4015	0.134	138803	keystroke	a	n/a
69.5505	0.165	139101	keystroke	l	n/a
69.7005	0.106	139401	keystroke	e	n/a
70.211	0.09	140422	keystroke	x	n/a
70.7355	0.135	141471	keystroke	a	n/a
70.9155	0.15	141831	keystroke	n	n/a
71.0955	0.105	142191	keystroke	d	n/a
71.3655	0.12	142731	keystroke	r	n/a
71.5005	0.135	143001	keystroke	i	n/a
71.696	0.12	143392	keystroke	a	n/a
71.936	0.12	143872	keystroke	Key.space	n/a
72.4305	0.12	144861	keystroke	s	n/a
72.6405	0.105	145281	keystroke	a	n/a
72.7605	0.165	145521	keystroke	k	n/a
72.9105	0.105	145821	keystroke	e	n/a
73.0465	0.119	146093	keystroke	Key.space	n/a
73.346	0.12	146692	keystroke	t	n/a
73.481	0.1205	146962	keystroke	h	n/a
73.586	0.12	147172	keystroke	a	n/a
73.736	0.165	147472	keystroke	n	n/a
73.886	0.12	147772	keystroke	Key.space	n/a
74.051	0.105	148102	keystroke	g	n/a
74.276	0.1045	148552	keystroke	r	n/a
74.411	0.255	148822	keystroke	o	n/a
74.516	0.1795	149032	keystroke	u	n/a
74.6355	0.18	149271	keystroke	p	n/a
75.011	0.105	150022	keystroke	Key.enter	n/a
75.1205	9.267	150241	prompt	n/a	ghana administration limit deliver\n
76.0305	0.105	152061	keystroke	g	n/a
76.2565	0.1195	152513	keystroke	h	n/a
76.391	0.12	152782	keystroke	a	n/a
76.571	0.12	153142	keystroke	n	n/a
76.706	0.1055	153412	keystroke	a	n/a
76.871	0.135	153742	keystroke	Key.space	n/a
77.6355	0.105	155271	keystroke	a	n/a
77.8455	0.105	155691	keystroke	d	n/a
77.9955	0.24	155991	keystroke	m	n/a
78.2205	0.165	156441	keystroke	i	n/a
78.356	0.2845	156712	keystroke	n	n/a
78.6255	0.09	157251	keystroke	i	n/a
78.9555	0.195	157911	keystroke	s	n/a
79.1355	0.135	158271	keystroke	t	n/a
79.3455	0.15	158691	keystroke	r	n/a
80.051	0.12	160102	keystroke	a	n/a
80.291	0.12	160582	keystroke	t	n/a
80.456	0.135	160912	keystroke	i	n/a
80.546	0.165	161092	keystroke	o	n/a
80.681	0.165	161362	keystroke	n	n/a
80.831	0.135	161662	keystroke	Key.space	n/a
81.251	0.135	162502	keystroke	l	n/a
81.446	0.135	162892	keystroke	i	n/a
81.686	0.18	163372	keystroke	m	n/a
81.821	0.15	163642	keystroke	i	n/a
82.106	0.12	164212	keystroke	t	n/a
82.286	0.135	164572	keystroke	Key.space	n/a
83.021	0.045	166042	keystroke	d	n/a
83.171	0.105	166342	keystroke	e	n/a
83.381	0.09	166762	keystroke	l	n/a
83.546	0.12	167092	keystroke	i	n/a
83.726	0.12	167452	keystroke	v	n/a
83.921	0.15	167842	keystroke	e	n/a
84.041	0.105	168082	keystroke	r	n/a
84.266	0.12	168532	keystroke	Key.enter	n/a
84.3905	4.6915	168781	prompt	n/a	cultures font online love\n
85.1355	0.1205	170271	keystroke	c	n/a
85.316	0.12	170632	keystroke	u	n/a
85.466	0.135	170932	keystroke	l	n/a
85.661	0.12	171322	keystroke	t	n/a
86.0055	0.016	172011	keystroke	u	n/a
86.036	0.06	172072	keystroke	r	n/a
86.156	0.09	172312	keystroke	e	n/a
86.381	0.09	172762	keystroke	s	n/a
86.501	0.15	173002	keystroke	Key.space	n/a
86.891	0.105	173782	keystroke	f	n/a
86.981	0.15	173962	keystroke	o	n/a
87.071	0.15	174142	keystroke	n	n/a
87.206	0.09	174412	keystroke	t	n/a
87.311	0.12	174622	keystroke	Key.space	n/a
87.446	0.105	174892	keystroke	o	n/a
87.536	0.12	175072	keystroke	n	n/a
87.671	0.09	175342	keystroke	l	n/a
87.776	0.1345	175552	keystroke	i	n/a
87.8805	0.12	175761	keystroke	n	n/a
88.0305	0.075	176061	keystroke	e	n/a
88.1355	0.12	176271	keystroke	Key.space	n/a
88.451	0.06	176902	keystroke	l	n/a
88.601	0.09	177202	keystroke	o	n/a
88.706	0.15	177412	keystroke	v	n/a
88.796	0.12	177592	keystroke	e	n/a
88.961	0.12	177922	keystroke	Key.enter	n/a
89.085	9.0875	178170	prompt	n/a	antiques reasonable receiver donor\n
89.801	0.12	179602	keystroke	a	n/a
89.936	0.135	179872	keystroke	n	n/a
90.581	0.105	181162	keystroke	t	n/a
90.7005	0.12	181401	keystroke	i	n/a
90.9555	0.12	181911	keystroke	q	n/a
91.1055	0.135	182211	keystroke	u	n/a
91.2705	0.075	182541	keystroke	e	n/a
91.4205	0.12	182841	keystroke	s	n/a
91.6305	0.12	183261	keystroke	Key.space	n/a
92.0205	0.165	184041	keystroke	r	n/a
92.2005	0.135	184401	keystroke	e	n/a
92.6805	0.18	185361	keystroke	a	n/a
92.8455	0.09	185691	keystroke	s	n/a
93.0405	0.18	186081	keystroke	o	n/a
93.1755	0.18	186351	keystroke	n	n/a
93.8655	0.12	187731	keystroke	a	n/a
94.5255	0.06	189051	keystroke	b	n/a
94.7055	0.1195	189411	keystroke	l	n/a
94.901	0.104	189802	keystroke	e	n/a
95.05	0.105	190100	keystroke	Key.space	n/a
95.711	0.075	191422	keystroke	r	n/a
95.846	0.105	191692	keystroke	e	n/a
96.1755	0.105	192351	keystroke	c	n/a
96.431	0.105	192862	keystroke	e	n/a
96.611	0.12	193222	keystroke	i	n/a
96.806	0.105	193612	keystroke	v	n/a
96.941	0.165	193882	keystroke	e	n/a
97.091	0.09	194182	keystroke	r	n/a
97.196	0.15	194392	keystroke	Key.space	n/a
97.391	0.12	194782	keystroke	d	n/a
97.466	0.12	194932	keystroke	o	n/a
97.571	0.15	195142	keystroke	n	n/a
97.721	0.12	195442	keystroke	o	n/a
97.856	0.12	195712	keystroke	r	n/a
98.081	0.0895	196162	keystroke	Key.enter	n/a
98.1755	6.732	196351	prompt	n/a	differ historical brake stable\n
98.831	0.135	197662	keystroke	d	n/a
98.996	0.12	197992	keystroke	i	n/a
99.131	0.09	198262	keystroke	f	n/a
99.281	0.12	198562	keystroke	f	n/a
99.461	0.15	198922	keystroke	e	n/a
99.566	0.12	199132	keystroke	r	n/a
99.746	0.15	199492	keystroke	Key.space	n/a
100.181	0.165	200362	keystroke	h	n/a
100.286	0.165	200572	keystroke	i	n/a
100.481	0.18	200962	keystroke	s	n/a
100.676	0.105	201352	keystroke	t	n/a
100.871	0.12	201742	keystroke	o	n/a
101.066	0.119	202132	keystroke	r	n/a
101.2	0.136	202400	keystroke	i	n/a
101.576	0.1645	203152	keystroke	c	n/a
101.7555	0.105	203511	keystroke	a	n/a
101.9205	0.18	203841	keystroke	l	n/a
102.0555	0.135	204111	keystroke	Key.space	n/a
102.5505	0.121	205101	keystroke	b	n/a
102.821	0.104	205642	keystroke	r	n/a
102.956	0.105	205912	keystroke	a	n/a
103.121	0.165	206242	keystroke	k	n/a
103.301	0.075	206602	keystroke	e	n/a
103.421	0.105	206842	keystroke	Key.space	n/a
103.676	0.105	207352	keystroke	s	n/a
103.856	0.165	207712	keystroke	t	n/a
104.066	0.15	208132	keystroke	a	n/a
104.246	0.105	208492	keystroke	b	n/a
104.455	0.1205	208910	keystroke	l	n/a
104.6055	0.0745	209211	keystroke	e	n/a
104.8	0.105	209600	keystroke	Key.enter	n/a
104.9105	11.757	209821	prompt	n/a	jacket visiting newspaper binary\n
105.761	0.135	211522	keystroke	j	n/a
106.0005	0.2405	212001	keystroke	a	n/a
106.211	0.1195	212422	keystroke	c	n/a
106.376	0.15	212752	keystroke	k	n/a
106.541	0.195	213082	keystroke	e	n/a
106.721	0.09	213442	keystroke	t	n/a
106.796	0.135	213592	keystroke	Key.space	n/a
108.191	0.105	216382	keystroke	v	n/a
108.341	0.12	216682	keystroke	s	n/a
108.476	0.135	216952	keystroke	i	n/a
109.106	0.12	218212	keystroke	Key.backspace	n/a
109.316	0.104	218632	keystroke	Key.backspace	n/a
109.6005	0.1505	219201	keystroke	i	n/a
109.765	0.136	219530	keystroke	s	n/a
110.381	0.1195	220762	keystroke	i	n/a
110.5905	0.1055	221181	keystroke	t	n/a
110.726	0.21	221452	keystroke	i	n/a
110.8455	0.165	221691	keystroke	n	n/a
111.0705	0.0905	222141	keystroke	g	n/a
111.221	0.1645	222442	keystroke	Key.space	n/a
111.851	0.1345	223702	keystroke	n	n/a
112.0155	0.21	224031	keystroke	e	n/a
112.496	0.09	224992	keystroke	w	n/a
112.751	0.135	225502	keystroke	s	n/a
113.9215	0.135	227843	keystroke	p	n/a
114.176	0.12	228352	keystroke	a	n/a
114.551	0.09	229102	keystroke	p	n/a
114.791	0.165	229582	keystroke	e	n/a
114.941	0.12	229882	keystroke	r	n/a
115.076	0.165	230152	keystroke	Key.space	n/a
115.541	0.135	231082	keystroke	b	n/a
115.706	0.15	231412	keystroke	i	n/a
115.81	0.151	231620	keystroke	n	n/a
115.976	0.135	231952	keystroke	a	n/a
116.081	0.135	232162	keystroke	r	n/a
116.261	0.149	232522	keystroke	y	n/a
116.546	0.119	233092	keystroke	Key.enter	n/a
116.671	8.7715	233342	prompt	n/a	baskets assigned committees optional\n
117.386	0.15	234772	keystroke	b	n/a
117.625	0.151	235250	keystroke	a	n/a
117.791	0.12	235582	keystroke	s	n/a
117.941	0.15	235882	keystroke	k	n/a
118.121	0.12	236242	keystroke	e	n/a
118.256	0.1045	236512	keystroke	t	n/a
118.4055	0.18	236811	keystroke	Key.space	n/a
119.0655	0.12	238131	keystroke	Key.backspace	n/a
119.2305	0.12	238461	keystroke	s	n/a
119.3955	0.135	238791	keystroke	Key.space	n/a
119.6055	0.06	239211	keystroke	a	n/a
120.0405	0.09	240081	keystroke	s	n/a
120.2055	0.1055	240411	keystroke	s	n/a
120.341	0.135	240682	keystroke	i	n/a
120.536	0.09	241072	keystroke	g	n/a
120.761	0.165	241522	keystroke	n	n/a
120.971	0.105	241942	keystroke	e	n/a
121.211	0.134	242422	keystroke	d	n/a
121.361	0.164	242722	keystroke	Key.space	n/a
121.706	0.135	243412	keystroke	c	n/a
121.796	0.134	243592	keystroke	o	n/a
122.126	0.015	244252	keystroke	m	n/a
122.201	0.12	244402	keystroke	m	n/a
122.381	0.12	244762	keystroke	i	n/a
122.531	0.105	245062	keystroke	t	n/a
122.696	0.105	245392	keystroke	t	n/a
123.326	0.1045	246652	keystroke	e	n/a
123.5205	0.09	247041	keystroke	e	n/a
123.7155	0.105	247431	keystroke	s	n/a
123.9255	0.15	247851	keystroke	Key.space	n/a
124.1955	0.12	248391	keystroke	o	n/a
124.3455	0.165	248691	keystroke	p	n/a
124.5555	0.12	249111	keystroke	t	n/a
124.6905	0.12	249381	keystroke	i	n/a
124.7655	0.15	249531	keystroke	o	n/a
124.8705	0.12	249741	keystroke	n	n/a
125.0055	0.105	250011	keystroke	a	n/a
125.0955	0.12	250191	keystroke	l	n/a
125.3205	0.1205	250641	keystroke	Key.enter	n/a
125.4455	8.3515	250891	prompt	n/a	there'll acre wherever locate\n
126.2055	0.12	252411	keystroke	t	n/a
126.2805	0.12	252561	keystroke	h	n/a
126.4455	0.06	252891	keystroke	e	n/a
126.4905	0.12	252981	keystroke	r	n/a
126.5955	0.075	253191	keystroke	e	n/a
126.8055	0.135	253611	keystroke	'	n/a
127.0905	0.105	254181	keystroke	l	n/a
127.3005	0.12	254601	keystroke	l	n/a
127.4355	0.1505	254871	keystroke	Key.space	n/a
127.931	0.1045	255862	keystroke	a	n/a
128.1405	0.12	256281	keystroke	c	n/a
128.426	0.0745	256852	keystroke	r	n/a
128.651	0.105	257302	keystroke	e	n/a
128.861	0.12	257722	keystroke	Key.space	n/a
129.3555	0.105	258711	keystroke	w	n/a
129.5205	0.15	259041	keystroke	h	n/a
129.7005	0.105	259401	keystroke	e	n/a
130.1205	0.15	260241	keystroke	r	n/a
131.306	0.105	262612	keystroke	e	n/a
131.5605	0.15	263121	keystroke	v	n/a
131.7405	0.195	263481	keystroke	e	n/a
131.9055	0.12	263811	keystroke	r	n/a
132.0405	0.135	264081	keystroke	Key.space	n/a
132.641	0.09	265282	keystroke	l	n/a
132.836	0.135	265672	keystroke	o	n/a
132.941	0.165	265882	keystroke	c	n/a
133.136	0.165	266272	keystroke	a	n/a
133.316	0.135	266632	keystroke	t	n/a
133.436	0.12	266872	keystroke	e	n/a
133.691	0.105	267382	keystroke	Key.enter	n/a
133.8	5.6975	267600	prompt	n/a	trance actions loud grounds\n
134.576	0.12	269152	keystroke	t	n/a
134.786	0.12	269572	keystroke	r	n/a
134.921	0.135	269842	keystroke	a	n/a
135.086	0.135	270172	keystroke	n	n/a
135.266	0.09	270532	keystroke	c	n/a
135.491	0.09	270982	keystroke	e	n/a
135.611	0.15	271222	keystroke	Key.space	n/a
135.836	0.12	271672	keystroke	a	n/a
136.046	0.105	272092	keystroke	c	n/a
136.256	0.0895	272512	keystroke	t	n/a
136.3605	0.1655	272721	keystroke	i	n/a
136.436	0.165	272872	keystroke	o	n/a
136.541	0.135	273082	keystroke	n	n/a
136.706	0.105	273412	keystroke	s	n/a
136.871	0.119	273742	keystroke	Key.space	n/a
137.0505	0.105	274101	keystroke	l	n/a
137.2605	0.135	274521	keystroke	o	n/a
137.3505	0.15	274701	keystroke	u	n/a
137.5605	0.105	275121	keystroke	d	n/a
137.711	0.135	275422	keystroke	Key.space	n/a
138.1	0.076	276200	keystroke	g	n/a
138.401	0.105	276802	keystroke	r	n/a
138.551	0.135	277102	keystroke	o	n/a
138.641	0.105	277282	keystroke	u	n/a
138.836	0.12	277672	keystroke	n	n/a
138.97	0.091	277940	keystroke	d	n/a
139.166	0.045	278332	keystroke	s	n/a
139.376	0.119	278752	keystroke	Key.enter	n/a
139.5	6.943	279000	prompt	n/a	novels helping college improvement\n
140.275	0.1515	280550	keystroke	n	n/a
140.3955	0.15	280791	keystroke	o	n/a
140.5755	0.136	281151	keystroke	v	n/a
140.6955	0.1355	281391	keystroke	e	n/a
140.86	0.136	281720	keystroke	l	n/a
141.01	0.1065	282020	keystroke	s	n/a
141.1605	0.1195	282321	keystroke	Key.space	n/a
141.34	0.136	282680	keystroke	h	n/a
141.491	0.075	282982	keystroke	e	n/a
141.536	0.135	283072	keystroke	l	n/a
141.716	0.135	283432	keystroke	p	n/a
141.896	0.165	283792	keystroke	i	n/a
142.001	0.135	284002	keystroke	n	n/a
142.136	0.09	284272	keystroke	g	n/a
142.316	0.1195	284632	keystroke	Key.space	n/a
142.7805	0.12	285561	keystroke	c	n/a
142.8705	0.105	285741	keystroke	o	n/a
143.0955	0.075	286191	keystroke	l	n/a
143.2455	0.105	286491	keystroke	l	n/a
143.3055	0.105	286611	keystroke	e	n/a
143.5155	0.075	287031	keystroke	g	n/a
143.7105	0.09	287421	keystroke	e	n/a
143.9955	0.165	287991	keystroke	Key.space	n/a
144.326	0.1945	288652	keystroke	i	n/a
144.4455	0.21	288891	keystroke	m	n/a
144.6105	0.15	289221	keystroke	p	n/a
144.7905	0.135	289581	keystroke	r	n/a
144.9405	0.135	289881	keystroke	o	n/a
145.1655	0.165	290331	keystroke	v	n/a
145.3455	0.06	290691	keystroke	e	n/a
145.4505	0.12	290901	keystroke	m	n/a
145.6005	0.075	291201	keystroke	e	n/a
145.7055	0.105	291411	keystroke	n	n/a
145.8115	0.089	291623	keystroke	t	n/a
146.3355	0.106	292671	keystroke	Key.enter	n/a
146.4455	8.9665	292891	prompt	n/a	frankfurt murphy oman filing\n
147.206	0.105	294412	keystroke	f	n/a
147.461	0.105	294922	keystroke	r	n/a
147.581	0.105	295162	keystroke	a	n/a
147.701	0.135	295402	keystroke	n	n/a
147.866	0.15	295732	keystroke	k	n/a
148.466	0.12	296932	keystroke	f	n/a
148.721	0.135	297442	keystroke	u	n/a
148.886	0.06	297772	keystroke	r	n/a
149.096	0.09	298192	keystroke	t	n/a
149.231	0.149	298462	keystroke	Key.space	n/a
149.651	0.12	299302	keystroke	m	n/a
149.921	0.12	299842	keystroke	u	n/a
150.131	0.12	300262	keystroke	r	n/a
150.386	0.12	300772	keystroke	p	n/a
150.761	0.0895	301522	keystroke	y	n/a
150.776	0.045	301552	keystroke	u	n/a
151.2555	0.105	302511	keystroke	Key.backspace	n/a
151.5105	0.09	303021	keystroke	h	n/a
151.9605	0.09	303921	keystroke	Key.backspace	n/a
152.155	0.09	304310	keystroke	Key.backspace	n/a
152.396	0.09	304792	keystroke	h	n/a
152.62	0.106	305240	keystroke	y	n/a
152.8605	0.135	305721	keystroke	Key.space	n/a
153.2505	0.135	306501	keystroke	o	n/a
153.4905	0.12	306981	keystroke	m	n/a
153.6405	0.135	307281	keystroke	a	n/a
153.7905	0.105	307581	keystroke	n	n/a
153.9555	0.15	307911	keystroke	Key.space	n/a
154.2555	0.105	308511	keystroke	f	n/a
154.3755	0.1045	308751	keystroke	i	n/a
154.571	0.09	309142	keystroke	l	n/a
154.751	0.105	309502	keystroke	l	n/a
154.9	0.195	309800	keystroke	i	n/a
154.99	0.181	309980	keystroke	n	n/a
155.125	0.091	310250	keystroke	g	n/a
155.306	0.105	310612	keystroke	Key.enter	n/a
155.415	7.497	310830	prompt	n/a	specific pack cheapest retailer\n
156.265	0.121	312530	keystroke	s	n/a
156.491	0.105	312982	keystroke	p	n/a
156.626	0.09	313252	keystroke	e	n/a
156.851	0.105	313702	keystroke	c	n/a
156.956	0.12	313912	keystroke	i	n/a
157.136	0.059	314272	keystroke	f	n/a
157.241	0.12	314482	keystroke	i	n/a
157.436	0.1045	314872	keystroke	c	n/a
157.6005	0.135	315201	keystroke	Key.space	n/a
157.7955	0.1495	315591	keystroke	p	n/a
157.931	0.104	315862	keystroke	a	n/a
158.11	0.12	316220	keystroke	c	n/a
158.32	0.15	316640	keystroke	k	n/a
158.44	0.15	316880	keystroke	Key.space	n/a
158.755	0.15	317510	keystroke	c	n/a
158.9805	0.135	317961	keystroke	h	n/a
159.3405	0.12	318681	keystroke	e	n/a
159.5355	0.12	319071	keystroke	a	n/a
159.7455	0.135	319491	keystroke	p	n/a
159.9705	0.105	319941	keystroke	e	n/a
160.1505	0.135	320301	keystroke	s	n/a
160.4205	0.105	320841	keystroke	t	n/a
160.6155	0.15	321231	keystroke	Key.space	n/a
160.9905	0.1055	321981	keystroke	r	n/a
161.201	0.105	322402	keystroke	e	n/a
161.396	0.105	322792	keystroke	t	n/a
161.6355	0.105	323271	keystroke	a	n/a
161.8455	0.12	323691	keystroke	i	n/a
162.0555	0.12	324111	keystroke	l	n/a
162.3105	0.18	324621	keystroke	e	n/a
162.5205	0.105	325041	keystroke	r	n/a
162.8055	0.105	325611	keystroke	Key.enter	n/a
162.917	7.84	325834	prompt	n/a	roll adjusted maintaining without\n
163.7805	0.135	327561	keystroke	r	n/a
163.9305	0.09	327861	keystroke	o	n/a
164.1855	0.075	328371	keystroke	l	n/a
164.366	0.075	328732	keystroke	l	n/a
164.516	0.135	329032	keystroke	Key.space	n/a
164.636	0.15	329272	keystroke	a	n/a
164.771	0.105	329542	keystroke	d	n/a
164.906	0.09	329812	keystroke	j	n/a
165.1005	0.105	330201	keystroke	u	n/a
165.1605	0.15	330321	keystroke	s	n/a
165.2955	0.105	330591	keystroke	t	n/a
165.971	0.09	331942	keystroke	e	n/a
166.166	0.105	332332	keystroke	d	n/a
166.331	0.1495	332662	keystroke	Key.space	n/a
166.4955	0.195	332991	keystroke	m	n/a
166.6905	0.15	333381	keystroke	a	n/a
166.8555	0.1805	333711	keystroke	i	n/a
167.0205	0.1805	334041	keystroke	n	n/a
167.38	0.12	334760	keystroke	t	n/a
167.68	0.12	335360	keystroke	a	n/a
167.816	0.195	335632	keystroke	i	n/a
167.935	0.15	335870	keystroke	n	n/a
168.13	0.136	336260	keystroke	i	n/a
168.25	0.136	336500	keystroke	n	n/a
168.4005	0.09	336801	keystroke	g	n/a
168.5505	0.12	337101	keystroke	Key.space	n/a
169.7355	0.1045	339471	keystroke	w	n/a
169.9	0.121	339800	keystroke	i	n/a
170.05	0.105	340100	keystroke	t	n/a
170.14	0.09	340280	keystroke	h	n/a
170.26	0.1655	340520	keystroke	o	n/a
170.365	0.1355	340730	keystroke	u	n/a
170.4855	0.045	340971	keystroke	t	n/a
170.6355	0.1195	341271	keystroke	Key.enter	n/a
170.7595	7.153	341519	prompt	n/a	onto sciences expertise condition\n
171.4455	0.09	342891	keystroke	o	n/a
171.491	0.1495	342982	keystroke	n	n/a
171.7155	0.1205	343431	keystroke	t	n/a
171.8205	0.1205	343641	keystroke	o	n/a
172.001	0.165	344002	keystroke	Key.space	n/a
172.271	0.09	344542	keystroke	s	n/a
172.5255	0.105	345051	keystroke	c	n/a
172.6905	0.1195	345381	keystroke	i	n/a
172.871	0.105	345742	keystroke	e	n/a
172.991	0.12	345982	keystroke	n	n/a
173.17	0.106	346340	keystroke	c	n/a
173.395	0.076	346790	keystroke	e	n/a
173.561	0.09	347122	keystroke	s	n/a
173.68	0.151	347360	keystroke	Key.space	n/a
173.9355	0.06	347871	keystroke	e	n/a
174.1155	0.15	348231	keystroke	x	n/a
174.325	0.121	348650	keystroke	p	n/a
174.536	0.135	349072	keystroke	e	n/a
174.8355	0.1645	349671	keystroke	r	n/a
175.2405	0.105	350481	keystroke	t	n/a
175.4205	0.1355	350841	keystroke	i	n/a
175.631	0.1645	351262	keystroke	s	n/a
175.7805	0.1055	351561	keystroke	e	n/a
175.9455	0.1355	351891	keystroke	Key.space	n/a
176.186	0.1345	352372	keystroke	c	n/a
176.3355	0.135	352671	keystroke	o	n/a
176.5305	0.1355	353061	keystroke	n	n/a
176.846	0.12	353692	keystroke	d	n/a
177.026	0.12	354052	keystroke	i	n/a
177.236	0.105	354472	keystroke	t	n/a
177.356	0.12	354712	keystroke	i	n/a
177.446	0.15	354892	keystroke	o	n/a
177.536	0.15	355072	keystroke	n	n/a
177.805	0.106	355610	keystroke	Key.enter	n/a
177.9165	6.4305	355833	prompt	n/a	sega illustrated sheet bios\n
178.616	0.075	357232	keystroke	s	n/a
178.811	0.135	357622	keystroke	e	n/a
179.1105	0.135	358221	keystroke	g	n/a
179.2605	0.09	358521	keystroke	a	n/a
179.3955	0.15	358791	keystroke	Key.space	n/a
179.7105	0.105	359421	keystroke	i	n/a
179.9205	0.075	359841	keystroke	l	n/a
180.1005	0.09	360201	keystroke	l	n/a
180.2655	0.135	360531	keystroke	u	n/a
180.4905	0.135	360981	keystroke	s	n/a
180.6855	0.105	361371	keystroke	t	n/a
180.8805	0.135	361761	keystroke	r	n/a
181.0905	0.12	362181	keystroke	a	n/a
181.2405	0.12	362481	keystroke	t	n/a
181.4805	0.075	362961	keystroke	e	n/a
181.6905	0.105	363381	keystroke	d	n/a
182.62	0.165	365240	keystroke	Key.space	n/a
182.8	0.12	365600	keystroke	s	n/a
182.95	0.12	365900	keystroke	h	n/a
183.055	0.105	366110	keystroke	e	n/a
183.25	0.091	366500	keystroke	e	n/a
183.46	0.075	366920	keystroke	t	n/a
183.58	0.135	367160	keystroke	Key.space	n/a
183.76	0.09	367520	keystroke	b	n/a
183.865	0.105	367730	keystroke	i	n/a
183.955	0.12	367910	keystroke	o	n/a
184.06	0.09	368120	keystroke	s	n/a
184.24	0.105	368480	keystroke	Key.enter	n/a
184.35	8.472	368700	prompt	n/a	denied conflicts paris replaced\n
184.93	0.105	369860	keystroke	d	n/a
185.155	0.06	370310	keystroke	e	n/a
185.23	0.15	370460	keystroke	n	n/a
185.35	0.135	370700	keystroke	i	n/a
185.44	0.075	370880	keystroke	e	n/a
185.635	0.135	371270	keystroke	d	n/a
185.785	0.105	371570	keystroke	Key.space	n/a
186.2055	0.1355	372411	keystroke	c	n/a
186.2955	0.1655	372591	keystroke	o	n/a
186.431	0.135	372862	keystroke	n	n/a
186.551	0.105	373102	keystroke	f	n/a
186.701	0.09	373402	keystroke	l	n/a
186.806	0.1045	373612	keystroke	i	n/a
186.9855	0.09	373971	keystroke	c	n/a
187.2555	0.105	374511	keystroke	t	n/a
187.4805	0.105	374961	keystroke	s	n/a
187.6605	0.15	375321	keystroke	Key.space	n/a
188.1255	0.0755	376251	keystroke	a	n/a
188.246	0.18	376492	keystroke	p	n/a
188.71	0.076	377420	keystroke	Key.backspace	n/a
188.86	0.105	377720	keystroke	Key.backspace	n/a
189.086	0.135	378172	keystroke	p	n/a
189.191	0.074	378382	keystroke	a	n/a
189.37	0.09	378740	keystroke	r	n/a
189.55	0.121	379100	keystroke	i	n/a
189.715	0.105	379430	keystroke	s	n/a
189.85	0.15	379700	keystroke	Key.space	n/a
190.4505	0.12	380901	keystroke	r	n/a
190.5555	0.105	381111	keystroke	e	n/a
190.7655	0.105	381531	keystroke	p	n/a
190.9905	0.1495	381981	keystroke	l	n/a
191.23	0.135	382460	keystroke	a	n/a
191.47	0.105	382940	keystroke	c	n/a
191.725	0.075	383450	keystroke	e	n/a
191.935	0.075	383870	keystroke	d	n/a
192.715	0.105	385430	keystroke	Key.enter	n/a
192.8255	7.1515	385651	prompt	n/a	offset temporary forests busy\n
193.6155	0.1045	387231	keystroke	o	n/a
193.7355	0.09	387471	keystroke	f	n/a
193.9005	0.12	387801	keystroke	f	n/a
194.1405	0.1805	388281	keystroke	s	n/a
194.2755	0.12	388551	keystroke	e	n/a
194.5455	0.105	389091	keystroke	t	n/a
194.936	0.149	389872	keystroke	Key.space	n/a
195.311	0.105	390622	keystroke	t	n/a
195.461	0.089	390922	keystroke	e	n/a
195.6555	0.195	391311	keystroke	m	n/a
195.8205	0.18	391641	keystroke	p	n/a
196.3305	0.12	392661	keystroke	o	n/a
196.4805	0.135	392961	keystroke	r	n/a
196.9305	0.1205	393861	keystroke	a	n/a
197.066	0.09	394132	keystroke	r	n/a
197.306	0.135	394612	keystroke	y	n/a
197.501	0.15	395002	keystroke	Key.space	n/a
197.786	0.12	395572	keystroke	f	n/a
197.966	0.135	395932	keystroke	o	n/a
198.206	0.12	396412	keystroke	r	n/a
198.415	0.106	396830	keystroke	e	n/a
198.6405	0.165	397281	keystroke	s	n/a
198.7905	0.12	397581	keystroke	t	n/a
199.0305	0.09	398061	keystroke	s	n/a
199.151	0.1345	398302	keystroke	Key.space	n/a
199.3305	0.105	398661	keystroke	b	n/a
199.4655	0.105	398931	keystroke	u	n/a
199.5855	0.12	399171	keystroke	s	n/a
199.6905	0.075	399381	keystroke	y	n/a
199.8705	0.105	399741	keystroke	Key.enter	n/a
199.98	6.342	399960	prompt	n/a	please battery arrow techno\n
200.666	0.105	401332	keystroke	p	n/a
200.831	0.12	401662	keystroke	l	n/a
200.936	0.1195	401872	keystroke	e	n/a
201.0705	0.165	402141	keystroke	a	n/a
201.1755	0.12	402351	keystroke	s	n/a
201.2505	0.135	402501	keystroke	e	n/a
201.3705	0.135	402741	keystroke	Key.space	n/a
201.5805	0.09	403161	keystroke	b	n/a
201.7155	0.1045	403431	keystroke	a	n/a
201.926	0.075	403852	keystroke	t	n/a
202.06	0.121	404120	keystroke	t	n/a
202.226	0.104	404452	keystroke	e	n/a
202.315	0.135	404630	keystroke	r	n/a
202.435	0.1055	404870	keystroke	y	n/a
202.496	0.1495	404992	keystroke	Key.space	n/a
203.126	0.1645	406252	keystroke	a	n/a
203.3955	0.06	406791	keystroke	r	n/a
203.5305	0.075	407061	keystroke	r	n/a
203.6205	0.15	407241	keystroke	o	n/a
203.995	0.105	407990	keystroke	w	n/a
204.1455	0.1345	408291	keystroke	Key.space	n/a
204.64	0.105	409280	keystroke	t	n/a
204.82	0.0905	409640	keystroke	e	n/a
205.1805	0.12	410361	keystroke	c	n/a
205.4955	0.105	410991	keystroke	h	n/a
205.7355	0.18	411471	keystroke	n	n/a
205.8705	0.195	411741	keystroke	o	n/a
206.2005	0.12	412401	keystroke	Key.enter	n/a
206.3255	7.392	412651	prompt	n/a	colleague adobe best movie\n
207.1305	0.105	414261	keystroke	c	n/a
207.2055	0.09	414411	keystroke	o	n/a
207.4155	0.075	414831	keystroke	l	n/a
207.5655	0.135	415131	keystroke	l	n/a
207.6555	0.135	415311	keystroke	e	n/a
208.1055	0.105	416211	keystroke	a	n/a
208.2555	0.075	416511	keystroke	g	n/a
208.4655	0.12	416931	keystroke	u	n/a
208.6305	0.105	417261	keystroke	e	n/a
208.7505	0.135	417501	keystroke	Key.space	n/a
209.171	0.03	418342	keystroke	a	n/a
209.2455	0.12	418491	keystroke	a	n/a
209.6505	0.09	419301	keystroke	d	n/a
209.7855	0.15	419571	keystroke	o	n/a
210.221	0.09	420442	keystroke	Key.backspace	n/a
210.4155	0.0755	420831	keystroke	Key.backspace	n/a
210.5655	0.0895	421131	keystroke	Key.backspace	n/a
210.731	0.089	421462	keystroke	d	n/a
210.91	0.12	421820	keystroke	o	n/a
211.075	0.09	422150	keystroke	b	n/a
211.2705	0.09	422541	keystroke	e	n/a
211.4205	0.165	422841	keystroke	Key.space	n/a
211.8255	0.105	423651	keystroke	b	n/a
212.0055	0.135	424011	keystroke	e	n/a
212.2155	0.1495	424431	keystroke	s	n/a
212.35	0.12	424700	keystroke	t	n/a
212.515	0.135	425030	keystroke	Key.space	n/a
212.785	0.165	425570	keystroke	m	n/a
212.875	0.135	425750	keystroke	o	n/a
213.07	0.135	426140	keystroke	v	n/a
213.22	0.12	426440	keystroke	i	n/a
213.37	0.09	426740	keystroke	e	n/a
213.595	0.12	427190	keystroke	Key.enter	n/a
213.7215	6.0705	427443	prompt	n/a	adsl prisoners shows dealt\n
214.45	0.12	428900	keystroke	a	n/a
214.645	0.1055	429290	keystroke	d	n/a
214.8855	0.1195	429771	keystroke	s	n/a
215.02	0.151	430040	keystroke	l	n/a
215.14	0.135	430280	keystroke	Key.space	n/a
215.381	0.12	430762	keystroke	p	n/a
215.546	0.135	431092	keystroke	r	n/a
215.695	0.106	431390	keystroke	i	n/a
215.891	0.09	431782	keystroke	s	n/a
216.041	0.209	432082	keystroke	o	n/a
216.265	0.1055	432530	keystroke	n	n/a
216.535	0.091	433070	keystroke	e	n/a
216.581	0.15	433162	keystroke	r	n/a
216.836	0.09	433672	keystroke	s	n/a
217.001	0.149	434002	keystroke	Key.space	n/a
217.511	0.09	435022	keystroke	s	n/a
217.631	0.12	435262	keystroke	h	n/a
217.72	0.136	435440	keystroke	o	n/a
217.871	0.075	435742	keystroke	w	n/a
218.081	0.089	436162	keystroke	s	n/a
218.185	0.15	436370	keystroke	Key.space	n/a
218.575	0.075	437150	keystroke	d	n/a
218.8005	0.075	437601	keystroke	e	n/a
219.0255	0.105	438051	keystroke	a	n/a
219.2055	0.15	438411	keystroke	l	n/a
219.4455	0.105	438891	keystroke	t	n/a
219.6855	0.105	439371	keystroke	Key.enter	n/a
219.7945	8.1875	439589	prompt	n/a	kernel reduction agencies prairie\n
220.9	0.1505	441800	keystroke	k	n/a
221.365	0.135	442730	keystroke	e	n/a
221.636	0.105	443272	keystroke	r	n/a
221.831	0.1495	443662	keystroke	n	n/a
222.0555	0.1055	444111	keystroke	e	n/a
222.251	0.1495	444502	keystroke	l	n/a
222.3705	0.1505	444741	keystroke	Key.space	n/a
222.731	0.135	445462	keystroke	r	n/a
222.9255	0.09	445851	keystroke	e	n/a
223.1655	0.105	446331	keystroke	d	n/a
223.3155	0.165	446631	keystroke	u	n/a
223.4655	0.075	446931	keystroke	c	n/a
223.7355	0.105	447471	keystroke	t	n/a
223.8415	0.149	447683	keystroke	i	n/a
223.9755	0.105	447951	keystroke	o	n/a
224.0505	0.18	448101	keystroke	n	n/a
224.1855	0.15	448371	keystroke	Key.space	n/a
224.425	0.165	448850	keystroke	a	n/a
224.635	0.105	449270	keystroke	g	n/a
224.89	0.0905	449780	keystroke	e	n/a
225.1005	0.15	450201	keystroke	n	n/a
225.3855	0.1205	450771	keystroke	c	n/a
225.596	0.1345	451192	keystroke	i	n/a
225.7755	0.09	451551	keystroke	e	n/a
225.9705	0.105	451941	keystroke	s	n/a
226.0905	0.15	452181	keystroke	Key.space	n/a
226.3305	0.15	452661	keystroke	p	n/a
226.6005	0.105	453201	keystroke	r	n/a
226.9155	0.12	453831	keystroke	a	n/a
227.0955	0.135	454191	keystroke	i	n/a
227.3355	0.135	454671	keystroke	r	n/a
227.5155	0.12	455031	keystroke	i	n/a
227.6805	0.09	455361	keystroke	e	n/a
227.8605	0.12	455721	keystroke	Key.enter	n/a
227.985	6.357	455970	prompt	n/a	consortium logo panama facial\n
228.971	0.12	457942	keystroke	c	n/a
229.106	0.165	458212	keystroke	o	n/a
229.211	0.165	458422	keystroke	n	n/a
229.391	0.09	458782	keystroke	s	n/a
229.571	0.09	459142	keystroke	o	n/a
229.691	0.075	459382	keystroke	r	n/a
229.901	0.0745	459802	keystroke	t	n/a
230.0055	0.105	460011	keystroke	i	n/a
230.2305	0.135	460461	keystroke	u	n/a
230.5	0.12	461000	keystroke	m	n/a
230.65	0.165	461300	keystroke	Key.space	n/a
230.8	0.105	461600	keystroke	l	n/a
230.995	0.09	461990	keystroke	o	n/a
231.101	0.09	462202	keystroke	g	n/a
231.236	0.18	462472	keystroke	o	n/a
231.371	0.15	462742	keystroke	Key.space	n/a
231.671	0.12	463342	keystroke	p	n/a
231.806	0.105	463612	keystroke	a	n/a
231.941	0.15	463882	keystroke	n	n/a
232.106	0.105	464212	keystroke	a	n/a
232.286	0.1195	464572	keystroke	m	n/a
232.511	0.09	465022	keystroke	a	n/a
232.615	0.135	465230	keystroke	Key.space	n/a
233.081	0.149	466162	keystroke	f	n/a
233.321	0.15	466642	keystroke	a	n/a
233.591	0.075	467182	keystroke	c	n/a
233.696	0.135	467392	keystroke	i	n/a
233.89	0.121	467780	keystroke	a	n/a
233.995	0.106	467990	keystroke	l	n/a
234.235	0.1055	468470	keystroke	Key.enter	n/a
234.35	9.022	468700	prompt	n/a	opinion assembly brands public\n
235.1205	0.2545	470241	keystroke	o	n/a
235.465	0.18	470930	keystroke	p	n/a
235.9	0.135	471800	keystroke	i	n/a
236.47	0.1355	472940	keystroke	n	n/a
236.7255	0.15	473451	keystroke	i	n/a
236.8605	0.18	473721	keystroke	o	n/a
236.9955	0.18	473991	keystroke	n	n/a
237.1905	0.165	474381	keystroke	Key.space	n/a
237.7305	0.12	475461	keystroke	a	n/a
238.0155	0.09	476031	keystroke	s	n/a
238.2105	0.1345	476421	keystroke	s	n/a
238.555	0.105	477110	keystroke	e	n/a
238.7805	0.15	477561	keystroke	m	n/a
239.1705	0.09	478341	keystroke	b	n/a
239.365	0.135	478730	keystroke	l	n/a
239.605	0.12	479210	keystroke	y	n/a
239.785	0.1355	479570	keystroke	Key.space	n/a
240.22	0.1055	480440	keystroke	b	n/a
240.4905	0.105	480981	keystroke	r	n/a
240.6405	0.12	481281	keystroke	a	n/a
240.7905	0.135	481581	keystroke	n	n/a
240.9555	0.12	481911	keystroke	d	n/a
241.1505	0.105	482301	keystroke	s	n/a
241.3305	0.15	482661	keystroke	Key.space	n/a
241.9005	0.15	483801	keystroke	p	n/a
242.0805	0.165	484161	keystroke	u	n/a
242.2755	0.09	484551	keystroke	b	n/a
242.5005	0.12	485001	keystroke	l	n/a
242.6955	0.105	485391	keystroke	i	n/a
242.9505	0.09	485901	keystroke	c	n/a
243.2655	0.105	486531	keystroke	Key.enter	n/a
243.3755	8.0065	486751	prompt	n/a	induction virtue films cargo\n
244.1505	0.165	488301	keystroke	i	n/a
244.3005	0.15	488601	keystroke	n	n/a
244.4955	0.105	488991	keystroke	d	n/a
244.6605	0.15	489321	keystroke	u	n/a
244.8255	0.09	489651	keystroke	c	n/a
245.0805	0.105	490161	keystroke	t	n/a
245.2305	0.225	490461	keystroke	i	n/a
245.5155	0.09	491031	keystroke	o	n/a
245.5455	0.15	491091	keystroke	n	n/a
246.205	0.136	492410	keystroke	Key.space	n/a
246.521	0.104	493042	keystroke	v	n/a
246.64	0.121	493280	keystroke	i	n/a
246.821	0.09	493642	keystroke	r	n/a
247.046	0.074	494092	keystroke	t	n/a
247.166	0.12	494332	keystroke	u	n/a
247.5255	0.075	495051	keystroke	e	n/a
247.7055	0.12	495411	keystroke	Key.space	n/a
248.2005	0.045	496401	keystroke	f	n/a
248.41	0.105	496820	keystroke	i	n/a
248.575	0.1505	497150	keystroke	l	n/a
248.875	0.135	497750	keystroke	m	n/a
249.325	0.075	498650	keystroke	s	n/a
249.55	0.135	499100	keystroke	Key.space	n/a
250.0155	0.105	500031	keystroke	c	n/a
250.2555	0.195	500511	keystroke	a	n/a
250.5105	0.09	501021	keystroke	r	n/a
250.7355	0.09	501471	keystroke	g	n/a
250.9755	0.135	501951	keystroke	o	n/a
251.26	0.12	502520	keystroke	Key.enter	n/a
251.385	10.902	502770	prompt	n/a	ranger journalism sexuality keeping\n
252.1905	0.12	504381	keystroke	r	n/a
252.3555	0.15	504711	keystroke	a	n/a
252.5205	0.12	505041	keystroke	n	n/a
252.7305	0.135	505461	keystroke	g	n/a
253.0305	0.15	506061	keystroke	e	n/a
253.1505	0.135	506301	keystroke	r	n/a
253.3605	0.15	506721	keystroke	Key.space	n/a
253.6605	0.12	507321	keystroke	j	n/a
253.9155	0.135	507831	keystroke	o	n/a
254.1405	0.12	508281	keystroke	u	n/a
254.335	0.151	508670	keystroke	r	n/a
254.53	0.15	509060	keystroke	n	n/a
254.71	0.12	509420	keystroke	a	n/a
254.86	0.1055	509720	keystroke	l	n/a
255.0555	0.135	510111	keystroke	i	n/a
255.2355	0.12	510471	keystroke	s	n/a
255.4605	0.165	510921	keystroke	m	n/a
255.6105	0.1495	511221	keystroke	Key.space	n/a
256.225	0.135	512450	keystroke	s	n/a
256.5555	0.075	513111	keystroke	e	n/a
257.2905	0.12	514581	keystroke	x	n/a
257.5905	0.15	515181	keystroke	u	n/a
257.7855	0.12	515571	keystroke	a	n/a
258.4905	0.09	516981	keystroke	l	n/a
258.6555	0.135	517311	keystroke	i	n/a
258.8955	0.105	517791	keystroke	t	n/a
259.1505	0.2095	518301	keystroke	Key.space	n/a
259.1655	0.015	518331	keystroke	u	n/a
259.96	0.12	519920	keystroke	Key.backspace	n/a
260.2	0.0905	520400	keystroke	Key.backspace	n/a
260.515	0.09	521030	keystroke	y	n/a
260.71	0.12	521420	keystroke	Key.space	n/a
260.98	0.15	521960	keystroke	k	n/a
261.22	0.06	522440	keystroke	e	n/a
261.385	0.12	522770	keystroke	e	n/a
261.55	0.136	523100	keystroke	p	n/a
261.746	0.179	523492	keystroke	i	n/a
261.866	0.149	523732	keystroke	n	n/a
262.03	0.09	524060	keystroke	g	n/a
262.18	0.105	524360	keystroke	Key.enter	n/a
262.291	8.321	524582	prompt	n/a	melissa resumes hungry indigenous\n
263.23	0.09	526460	keystroke	m	n/a
263.695	0.1205	527390	keystroke	e	n/a
263.8905	0.105	527781	keystroke	l	n/a
264.0555	0.12	528111	keystroke	i	n/a
264.191	0.09	528382	keystroke	s	n/a
264.3705	0.09	528741	keystroke	s	n/a
264.5505	0.135	529101	keystroke	a	n/a
264.7005	0.15	529401	keystroke	Key.space	n/a
265.1205	0.0745	530241	keystroke	r	n/a
265.3155	0.105	530631	keystroke	e	n/a
265.5255	0.12	531051	keystroke	s	n/a
265.7205	0.1195	531441	keystroke	u	n/a
265.945	0.15	531890	keystroke	m	n/a
266.11	0.061	532220	keystroke	e	n/a
266.245	0.135	532490	keystroke	s	n/a
266.41	0.12	532820	keystroke	Key.space	n/a
266.62	0.09	533240	keystroke	h	n/a
266.83	0.09	533660	keystroke	u	n/a
267.04	0.105	534080	keystroke	n	n/a
267.205	0.105	534410	keystroke	g	n/a
267.43	0.075	534860	keystroke	r	n/a
267.61	0.1355	535220	keystroke	y	n/a
267.7155	0.165	535431	keystroke	Key.space	n/a
268.1805	0.1645	536361	keystroke	i	n/a
268.2855	0.1805	536571	keystroke	n	n/a
268.511	0.135	537022	keystroke	d	n/a
268.691	0.134	537382	keystroke	i	n/a
268.976	0.09	537952	keystroke	g	n/a
269.17	0.1055	538340	keystroke	e	n/a
269.3055	0.135	538611	keystroke	n	n/a
269.5005	0.195	539001	keystroke	o	n/a
269.6655	0.15	539331	keystroke	u	n/a
270.2655	0.09	540531	keystroke	s	n/a
270.5055	0.105	541011	keystroke	Key.enter	n/a
270.615	8.277	541230	prompt	n/a	commitment committed dialog bear\n
271.4805	0.12	542961	keystroke	c	n/a
271.5855	0.135	543171	keystroke	o	n/a
271.7205	0.09	543441	keystroke	m	n/a
271.8855	0.1345	543771	keystroke	m	n/a
272.095	0.09	544190	keystroke	i	n/a
272.26	0.105	544520	keystroke	t	n/a
273.491	0.09	546982	keystroke	m	n/a
273.595	0.106	547190	keystroke	e	n/a
273.716	0.15	547432	keystroke	n	n/a
273.851	0.09	547702	keystroke	t	n/a
274	0.15	548000	keystroke	Key.space	n/a
274.331	0.119	548662	keystroke	c	n/a
274.435	0.1505	548870	keystroke	o	n/a
274.6455	0.1045	549291	keystroke	m	n/a
274.825	0.285	549650	keystroke	m	n/a
275.29	0.135	550580	keystroke	i	n/a
275.485	0.105	550970	keystroke	t	n/a
275.665	0.105	551330	keystroke	t	n/a
275.86	0.075	551720	keystroke	e	n/a
276.07	0.135	552140	keystroke	d	n/a
276.235	0.135	552470	keystroke	Key.space	n/a
276.46	0.105	552920	keystroke	d	n/a
276.566	0.149	553132	keystroke	i	n/a
276.745	0.1505	553490	keystroke	a	n/a
276.9555	0.09	553911	keystroke	l	n/a
277.1505	0.105	554301	keystroke	o	n/a
277.3755	0.105	554751	keystroke	g	n/a
277.5255	0.135	555051	keystroke	Key.space	n/a
277.8405	0.12	555681	keystroke	b	n/a
278.0955	0.12	556191	keystroke	e	n/a
278.35	0.15	556700	keystroke	a	n/a
278.515	0.09	557030	keystroke	r	n/a
278.8	0.09	557600	keystroke	Key.enter	n/a
278.8945	9.0125	557789	prompt	n/a	stages airports marcus advantages\n
279.626	0.15	559252	keystroke	s	n/a
279.926	0.1495	559852	keystroke	t	n/a
280.165	0.1805	560330	keystroke	a	n/a
280.3755	0.1495	560751	keystroke	g	n/a
280.645	0.105	561290	keystroke	e	n/a
280.825	0.135	561650	keystroke	s	n/a
281.035	0.165	562070	keystroke	Key.space	n/a
281.545	0.135	563090	keystroke	a	n/a
281.71	0.165	563420	keystroke	i	n/a
281.845	0.105	563690	keystroke	r	n/a
282.055	0.135	564110	keystroke	p	n/a
282.22	0.15	564440	keystroke	o	n/a
282.895	0.12	565790	keystroke	r	n/a
283.165	0.105	566330	keystroke	t	n/a
283.435	0.09	566870	keystroke	s	n/a
283.615	0.165	567230	keystroke	Key.space	n/a
283.93	0.135	567860	keystroke	m	n/a
284.245	0.15	568490	keystroke	a	n/a
284.545	0.09	569090	keystroke	r	n/a
284.89	0.15	569780	keystroke	c	n/a
285.1	0.15	570200	keystroke	u	n/a
285.31	0.12	570620	keystroke	s	n/a
285.49	0.135	570980	keystroke	Key.space	n/a
285.835	0.105	571670	keystroke	a	n/a
286.09	0.09	572180	keystroke	d	n/a
286.285	0.18	572570	keystroke	v	n/a
286.45	0.12	572900	keystroke	a	n/a
286.615	0.135	573230	keystroke	n	n/a
286.78	0.105	573560	keystroke	t	n/a
286.9905	0.165	573981	keystroke	a	n/a
287.2005	0.135	574401	keystroke	g	n/a
287.3505	0.09	574701	keystroke	e	n/a
287.5605	0.075	575121	keystroke	s	n/a
287.8005	0.105	575601	keystroke	Key.enter	n/a
287.91	6.9575	575820	prompt	n/a	pulled geology class premier\n
288.835	0.15	577670	keystroke	p	n/a
289.03	0.12	578060	keystroke	u	n/a
289.225	0.105	578450	keystroke	l	n/a
289.435	0.105	578870	keystroke	l	n/a
289.6	0.1055	579200	keystroke	e	n/a
289.8255	0.105	579651	keystroke	d	n/a
289.9755	0.1195	579951	keystroke	Key.space	n/a
290.23	0.075	580460	keystroke	g	n/a
290.395	0.09	580790	keystroke	e	n/a
290.59	0.105	581180	keystroke	o	n/a
290.8	0.06	581600	keystroke	l	n/a
290.965	0.09	581930	keystroke	o	n/a
291.0705	0.09	582141	keystroke	g	n/a
291.2655	0.15	582531	keystroke	y	n/a
291.4305	0.164	582861	keystroke	Key.space	n/a
291.6855	0.135	583371	keystroke	c	n/a
292.1505	0.105	584301	keystroke	l	n/a
292.3305	0.15	584661	keystroke	a	n/a
292.5855	0.0895	585171	keystroke	s	n/a
292.765	0.0905	585530	keystroke	s	n/a
292.9	0.135	585800	keystroke	Key.space	n/a
293.26	0.121	586520	keystroke	p	n/a
293.5	0.15	587000	keystroke	r	n/a
293.725	0.09	587450	keystroke	e	n/a
293.935	0.165	587870	keystroke	m	n/a
294.085	0.135	588170	keystroke	i	n/a
294.3405	0.12	588681	keystroke	e	n/a
294.4755	0.12	588951	keystroke	r	n/a
294.7455	0.12	589491	keystroke	Key.enter	n/a
294.87	8.7265	589740	prompt	n/a	booth desire referred eligibility\n
295.4655	0.1045	590931	keystroke	b	n/a
295.5855	0.1045	591171	keystroke	o	n/a
295.7805	0.09	591561	keystroke	o	n/a
295.9005	0.12	591801	keystroke	t	n/a
295.975	0.15	591950	keystroke	h	n/a
296.1095	0.135	592219	keystroke	Key.space	n/a
296.2905	0.0595	592581	keystroke	d	n/a
296.98	0.075	593960	keystroke	e	n/a
297.22	0.09	594440	keystroke	s	n/a
297.745	0.12	595490	keystroke	i	n/a
297.9255	0.105	595851	keystroke	r	n/a
298.0455	0.075	596091	keystroke	e	n/a
298.24	0.135	596480	keystroke	Key.space	n/a
298.9005	0.12	597801	keystroke	r	n/a
299.0805	0.104	598161	keystroke	e	n/a
299.3045	0.151	598609	keystroke	f	n/a
299.5605	0.18	599121	keystroke	e	n/a
299.7105	0.12	599421	keystroke	r	n/a
300.145	0.105	600290	keystroke	r	n/a
300.325	0.09	600650	keystroke	e	n/a
300.55	0.09	601100	keystroke	d	n/a
300.685	0.12	601370	keystroke	Key.space	n/a
300.955	0.09	601910	keystroke	e	n/a
301.15	0.075	602300	keystroke	l	n/a
301.27	0.135	602540	keystroke	i	n/a
301.465	0.12	602930	keystroke	g	n/a
301.63	0.105	603260	keystroke	i	n/a
301.93	0.1355	603860	keystroke	b	n/a
302.0805	0.15	604161	keystroke	i	n/a
302.3655	0.135	604731	keystroke	l	n/a
302.4855	0.165	604971	keystroke	i	n/a
302.7105	0.12	605421	keystroke	t	n/a
303.07	0.1205	606140	keystroke	y	n/a
303.4755	0.12	606951	keystroke	Key.enter	n/a
303.6	8.457	607200	prompt	n/a	allows strengths shareholders wise\n
304.21	0.135	608420	keystroke	a	n/a
304.375	0.105	608750	keystroke	l	n/a
304.555	0.075	609110	keystroke	l	n/a
304.7355	0.105	609471	keystroke	o	n/a
304.8855	0.105	609771	keystroke	w	n/a
305.125	0.12	610250	keystroke	s	n/a
305.29	0.12	610580	keystroke	Key.space	n/a
305.485	0.135	610970	keystroke	s	n/a
305.74	0.12	611480	keystroke	t	n/a
305.965	0.09	611930	keystroke	r	n/a
306.16	0.12	612320	keystroke	e	n/a
306.31	0.1345	612620	keystroke	n	n/a
306.5205	0.1045	613041	keystroke	g	n/a
307	0.09	614000	keystroke	t	n/a
307.15	0.15	614300	keystroke	h	n/a
307.45	0.09	614900	keystroke	s	n/a
307.63	0.135	615260	keystroke	Key.space	n/a
307.825	0.105	615650	keystroke	s	n/a
307.945	0.135	615890	keystroke	h	n/a
308.095	0.18	616190	keystroke	a	n/a
308.5	0.105	617000	keystroke	r	n/a
308.77	0.0905	617540	keystroke	e	n/a
309.1305	0.12	618261	keystroke	h	n/a
309.2655	0.12	618531	keystroke	o	n/a
309.5055	0.12	619011	keystroke	l	n/a
309.6855	0.105	619371	keystroke	d	n/a
309.9405	0.21	619881	keystroke	e	n/a
310.405	0.105	620810	keystroke	r	n/a
310.645	0.1205	621290	keystroke	s	n/a
310.87	0.15	621740	keystroke	Key.space	n/a
311.23	0.135	622460	keystroke	w	n/a
311.41	0.15	622820	keystroke	i	n/a
311.575	0.135	623150	keystroke	s	n/a
311.695	0.12	623390	keystroke	e	n/a
311.95	0.105	623900	keystroke	Key.enter	n/a
312.061	8.996	624122	prompt	n/a	viewers membership posts census\n
312.7155	0.135	625431	keystroke	v	n/a
312.8805	0.15	625761	keystroke	i	n/a
313.0755	0.18	626151	keystroke	e	n/a
313.2405	0.15	626481	keystroke	w	n/a
313.6455	0.18	627291	keystroke	e	n/a
313.8405	0.12	627681	keystroke	r	n/a
314.1555	0.09	628311	keystroke	s	n/a
314.3055	0.12	628611	keystroke	Key.space	n/a
314.5905	0.15	629181	keystroke	m	n/a
314.7555	0.105	629511	keystroke	e	n/a
314.9205	0.12	629841	keystroke	m	n/a
315.085	0.075	630170	keystroke	e	n/a
315.64	0.12	631280	keystroke	b	n/a
315.925	0.105	631850	keystroke	e	n/a
316.6455	0.015	633291	keystroke	Key.backspace	n/a
316.6755	0.09	633351	keystroke	Key.backspace	n/a
316.8555	0.12	633711	keystroke	Key.backspace	n/a
317.1555	0.105	634311	keystroke	b	n/a
317.4105	0.1345	634821	keystroke	e	n/a
317.5	0.105	635000	keystroke	r	n/a
317.725	0.09	635450	keystroke	s	n/a
317.86	0.165	635720	keystroke	h	n/a
317.95	0.165	635900	keystroke	i	n/a
318.07	0.15	636140	keystroke	p	n/a
318.265	0.1655	636530	keystroke	Key.space	n/a
318.5955	0.09	637191	keystroke	p	n/a
318.7305	0.12	637461	keystroke	o	n/a
318.8505	0.165	637701	keystroke	s	n/a
318.9855	0.105	637971	keystroke	t	n/a
319.2105	0.1045	638421	keystroke	s	n/a
319.33	0.165	638660	keystroke	Key.space	n/a
319.69	0.1205	639380	keystroke	c	n/a
319.9755	0.06	639951	keystroke	e	n/a
320.2305	0.135	640461	keystroke	n	n/a
320.4255	0.105	640851	keystroke	s	n/a
320.6055	0.135	641211	keystroke	u	n/a
320.7555	0.0895	641511	keystroke	s	n/a
320.935	0.12	641870	keystroke	Key.enter	n/a
321.0595	8.5475	642119	prompt	n/a	monaco snowboard extreme approved\n
321.91	0.165	643820	keystroke	m	n/a
322.06	0.15	644120	keystroke	o	n/a
322.225	0.15	644450	keystroke	n	n/a
322.9005	0.12	645801	keystroke	a	n/a
323.1705	0.105	646341	keystroke	c	n/a
323.3355	0.15	646671	keystroke	o	n/a
323.5155	0.165	647031	keystroke	Key.space	n/a
323.9805	0.09	647961	keystroke	s	n/a
324.1605	0.1345	648321	keystroke	n	n/a
324.2805	0.1795	648561	keystroke	o	n/a
324.475	0.09	648950	keystroke	w	n/a
324.85	0.12	649700	keystroke	b	n/a
325.015	0.135	650030	keystroke	o	n/a
325.2555	0.164	650511	keystroke	a	n/a
325.4205	0.134	650841	keystroke	r	n/a
325.6605	0.104	651321	keystroke	d	n/a
325.8695	0.135	651739	keystroke	Key.space	n/a
326.2595	0.091	652519	keystroke	e	n/a
326.4855	0.15	652971	keystroke	x	n/a
326.7405	0.12	653481	keystroke	t	n/a
326.9655	0.09	653931	keystroke	r	n/a
327.1155	0.105	654231	keystroke	e	n/a
327.2805	0.165	654561	keystroke	m	n/a
327.4155	0.09	654831	keystroke	e	n/a
327.6255	0.12	655251	keystroke	Key.space	n/a
328.0605	0.12	656121	keystroke	a	n/a
328.2705	0.0895	656541	keystroke	p	n/a
328.435	0.135	656870	keystroke	p	n/a
328.585	0.12	657170	keystroke	r	n/a
328.735	0.135	657470	keystroke	o	n/a
328.885	0.135	657770	keystroke	v	n/a
329.035	0.09	658070	keystroke	e	n/a
329.246	0.089	658492	keystroke	d	n/a
329.485	0.12	658970	keystroke	Key.enter	n/a
329.612	7.2845	659224	prompt	n/a	suggests hospital struggle using\n
330.2205	0.1045	660441	keystroke	s	n/a
330.4	0.15	660800	keystroke	u	n/a
330.58	0.075	661160	keystroke	g	n/a
330.745	0.135	661490	keystroke	g	n/a
330.925	0.135	661850	keystroke	e	n/a
331.105	0.1805	662210	keystroke	s	n/a
331.2705	0.135	662541	keystroke	t	n/a
331.6305	0.1195	663261	keystroke	s	n/a
331.78	0.15	663560	keystroke	Key.space	n/a
332.2	0.15	664400	keystroke	h	n/a
332.335	0.1505	664670	keystroke	o	n/a
332.7405	0.15	665481	keystroke	p	n/a
333.3105	0.1045	666621	keystroke	Key.backspace	n/a
333.49	0.12	666980	keystroke	s	n/a
333.67	0.12	667340	keystroke	p	n/a
333.866	0.1045	667732	keystroke	i	n/a
334.015	0.09	668030	keystroke	t	n/a
334.195	0.1195	668390	keystroke	a	n/a
334.3455	0.1345	668691	keystroke	l	n/a
334.465	0.15	668930	keystroke	Key.space	n/a
334.6905	0.12	669381	keystroke	s	n/a
334.8855	0.09	669771	keystroke	t	n/a
335.0805	0.0745	670161	keystroke	r	n/a
335.2	0.135	670400	keystroke	u	n/a
335.32	0.06	670640	keystroke	g	n/a
335.485	0.075	670970	keystroke	g	n/a
335.575	0.135	671150	keystroke	l	n/a
335.74	0.09	671480	keystroke	e	n/a
335.845	0.15	671690	keystroke	Key.space	n/a
336.0855	0.105	672171	keystroke	u	n/a
336.1755	0.105	672351	keystroke	s	n/a
336.325	0.15	672650	keystroke	i	n/a
336.415	0.195	672830	keystroke	n	n/a
336.625	0.03	673250	keystroke	g	n/a
336.775	0.1205	673550	keystroke	Key.enter	n/a
336.8995	10.767	673799	prompt	n/a	environments calculator distant confident\n
337.8855	0.12	675771	keystroke	e	n/a
338.0205	0.135	676041	keystroke	n	n/a
338.2905	0.1045	676581	keystroke	v	n/a
338.455	0.15	676910	keystroke	i	n/a
338.68	0.1205	677360	keystroke	r	n/a
338.9805	0.165	677961	keystroke	o	n/a
339.1605	0.135	678321	keystroke	n	n/a
339.4605	0.135	678921	keystroke	m	n/a
339.6555	0.09	679311	keystroke	e	n/a
339.7905	0.12	679581	keystroke	n	n/a
339.9555	0.12	679911	keystroke	t	n/a
340.646	0.119	681292	keystroke	s	n/a
340.9745	0.1505	681949	keystroke	Key.space	n/a
341.38	0.105	682760	keystroke	c	n/a
341.6505	0.12	683301	keystroke	a	n/a
341.9505	0.12	683901	keystroke	l	n/a
342.2355	0.12	684471	keystroke	c	n/a
342.4005	0.135	684801	keystroke	u	n/a
342.6255	0.12	685251	keystroke	l	n/a
342.7755	0.195	685551	keystroke	a	n/a
342.9405	0.12	685881	keystroke	t	n/a
343.1505	0.135	686301	keystroke	o	n/a
343.3755	0.105	686751	keystroke	r	n/a
343.6005	0.12	687201	keystroke	Key.space	n/a
343.9605	0.0895	687921	keystroke	d	n/a
344.11	0.135	688220	keystroke	i	n/a
344.26	0.105	688520	keystroke	s	n/a
344.515	0.09	689030	keystroke	t	n/a
344.725	0.12	689450	keystroke	a	n/a
345.2955	0.12	690591	keystroke	n	n/a
345.5655	0.12	691131	keystroke	t	n/a
345.7755	0.12	691551	keystroke	Key.space	n/a
346.2255	0.1195	692451	keystroke	c	n/a
346.33	0.18	692660	keystroke	o	n/a
346.495	0.12	692990	keystroke	n	n/a
346.645	0.105	693290	keystroke	f	n/a
346.81	0.105	693620	keystroke	i	n/a
346.96	0.075	693920	keystroke	d	n/a
347.125	0.075	694250	keystroke	e	n/a
347.26	0.12	694520	keystroke	n	n/a
347.365	0.09	694730	keystroke	t	n/a
347.56	0.105	695120	keystroke	Key.enter	n/a
347.67	5.9665	695340	prompt	n/a	attempt climb preview benz\n
348.3555	0.105	696711	keystroke	a	n/a
348.5355	0.075	697071	keystroke	t	n/a
348.6855	0.09	697371	keystroke	t	n/a
348.9405	0.015	697881	keystroke	e	n/a
348.9695	0.166	697939	keystroke	m	n/a
349.1055	0.12	698211	keystroke	p	n/a
349.2555	0.105	698511	keystroke	t	n/a
349.6745	0.135	699349	keystroke	Key.space	n/a
350.0805	0.12	700161	keystroke	c	n/a
350.1855	0.074	700371	keystroke	l	n/a
350.2895	0.105	700579	keystroke	i	n/a
350.4255	0.134	700851	keystroke	m	n/a
350.5745	0.091	701149	keystroke	b	n/a
350.7545	0.12	701509	keystroke	Key.space	n/a
351.2195	0.12	702439	keystroke	p	n/a
351.3545	0.12	702709	keystroke	r	n/a
351.4895	0.075	702979	keystroke	e	n/a
351.8345	0.135	703669	keystroke	v	n/a
352.0145	0.135	704029	keystroke	i	n/a
352.2395	0.15	704479	keystroke	e	n/a
352.3455	0.1195	704691	keystroke	w	n/a
352.51	0.15	705020	keystroke	Key.space	n/a
352.885	0.09	705770	keystroke	b	n/a
353.02	0.09	706040	keystroke	e	n/a
353.14	0.12	706280	keystroke	n	n/a
353.305	0.12	706610	keystroke	z	n/a
353.515	0.12	707030	keystroke	Key.enter	n/a
353.64	7.1215	707280	prompt	n/a	berry copyrights upgrades mature\n
354.295	0.075	708590	keystroke	b	n/a
354.52	0.12	709040	keystroke	e	n/a
354.715	0.09	709430	keystroke	r	n/a
354.865	0.105	709730	keystroke	r	n/a
355.015	0.1355	710030	keystroke	y	n/a
355.105	0.1955	710210	keystroke	Key.space	n/a
355.4355	0.12	710871	keystroke	c	n/a
355.5855	0.15	711171	keystroke	o	n/a
355.7055	0.135	711411	keystroke	p	n/a
355.8705	0.135	711741	keystroke	y	n/a
356.1395	0.09	712279	keystroke	r	n/a
356.2595	0.1055	712519	keystroke	i	n/a
356.395	0.09	712790	keystroke	g	n/a
356.56	0.1055	713120	keystroke	h	n/a
356.7555	0.09	713511	keystroke	t	n/a
357.025	0.0895	714050	keystroke	s	n/a
357.1755	0.12	714351	keystroke	Key.space	n/a
357.3855	0.15	714771	keystroke	u	n/a
357.5655	0.15	715131	keystroke	p	n/a
357.9705	0.105	715941	keystroke	g	n/a
358.2105	0.1195	716421	keystroke	r	n/a
358.39	0.12	716780	keystroke	a	n/a
358.6	0.09	717200	keystroke	d	n/a
358.825	0.06	717650	keystroke	e	n/a
358.96	0.105	717920	keystroke	s	n/a
359.11	0.1355	718220	keystroke	Key.space	n/a
359.6055	0.134	719211	keystroke	m	n/a
359.7245	0.136	719449	keystroke	a	n/a
359.9805	0.09	719961	keystroke	t	n/a
360.1005	0.1495	720201	keystroke	u	n/a
360.265	0.09	720530	keystroke	r	n/a
360.37	0.105	720740	keystroke	e	n/a
360.64	0.12	721280	keystroke	Key.enter	n/a
360.765	10.0915	721530	prompt	n/a	teenage magic peaceful supreme\n
361.75	0.105	723500	keystroke	t	n/a
361.885	0.075	723770	keystroke	e	n/a
362.065	0.09	724130	keystroke	e	n/a
362.2	0.135	724400	keystroke	n	n/a
362.335	0.12	724670	keystroke	a	n/a
362.456	0.119	724912	keystroke	g	n/a
362.56	0.105	725120	keystroke	e	n/a
362.71	0.135	725420	keystroke	Key.space	n/a
362.95	0.1355	725900	keystroke	m	n/a
363.1005	0.105	726201	keystroke	a	n/a
363.4155	0.075	726831	keystroke	i	n/a
364.0305	0.09	728061	keystroke	Key.backspace	n/a
364.1655	0.09	728331	keystroke	g	n/a
364.315	0.105	728630	keystroke	i	n/a
364.495	0.105	728990	keystroke	c	n/a
364.645	0.1195	729290	keystroke	Key.space	n/a
365.0655	0.075	730131	keystroke	p	n/a
365.23	0.105	730460	keystroke	e	n/a
365.41	0.18	730820	keystroke	a	n/a
365.68	0.105	731360	keystroke	s	n/a
366.22	0.1205	732440	keystroke	Key.backspace	n/a
366.3705	0.12	732741	keystroke	c	n/a
366.6255	0.075	733251	keystroke	e	n/a
366.8955	0.075	733791	keystroke	f	n/a
367.0455	0.135	734091	keystroke	u	n/a
367.2255	0.18	734451	keystroke	l	n/a
367.3305	0.15	734661	keystroke	Key.space	n/a
367.5255	0.105	735051	keystroke	s	n/a
367.7955	0.12	735591	keystroke	u	n/a
368.5005	0.105	737001	keystroke	r	n/a
369.04	0.105	738080	keystroke	Key.backspace	n/a
369.34	0.135	738680	keystroke	p	n/a
370.045	0.12	740090	keystroke	r	n/a
370.24	0.105	740480	keystroke	e	n/a
370.405	0.15	740810	keystroke	m	n/a
370.54	0.075	741080	keystroke	e	n/a
370.75	0.105	741500	keystroke	Key.enter	n/a
370.86	5.427	741720	prompt	n/a	refer therapy mixer prot\n
371.56	0.105	743120	keystroke	r	n/a
371.68	0.135	743360	keystroke	e	n/a
371.92	0.105	743840	keystroke	f	n/a
372.07	0.12	744140	keystroke	e	n/a
372.175	0.12	744350	keystroke	r	n/a
372.3105	0.15	744621	keystroke	Key.space	n/a
372.7755	0.135	745551	keystroke	t	n/a
372.8955	0.105	745791	keystroke	h	n/a
373.1055	0.15	746211	keystroke	e	n/a
373.2255	0.15	746451	keystroke	r	n/a
373.4355	0.105	746871	keystroke	a	n/a
373.6605	0.15	747321	keystroke	p	n/a
373.8555	0.15	747711	keystroke	y	n/a
374.0495	0.136	748099	keystroke	Key.space	n/a
374.3055	0.1945	748611	keystroke	m	n/a
374.425	0.15	748850	keystroke	i	n/a
374.65	0.135	749300	keystroke	x	n/a
374.89	0.165	749780	keystroke	e	n/a
375.025	0.12	750050	keystroke	r	n/a
375.175	0.1505	750350	keystroke	Key.space	n/a
375.4305	0.135	750861	keystroke	p	n/a
375.5805	0.12	751161	keystroke	r	n/a
375.7755	0.12	751551	keystroke	o	n/a
375.9855	0.09	751971	keystroke	t	n/a
376.1805	0.105	752361	keystroke	Key.enter	n/a
376.2905	9.4165	752581	prompt	n/a	renew pull newark pending\n
377.05	0.12	754100	keystroke	r	n/a
377.26	0.105	754520	keystroke	e	n/a
377.455	0.135	754910	keystroke	n	n/a
377.62	0.075	755240	keystroke	e	n/a
378.085	0.09	756170	keystroke	w	n/a
378.3095	0.166	756619	keystroke	Key.space	n/a
379.06	0.15	758120	keystroke	p	n/a
379.24	0.15	758480	keystroke	u	n/a
379.5395	0.105	759079	keystroke	l	n/a
379.7495	0.165	759499	keystroke	l	n/a
379.885	0.105	759770	keystroke	Key.space	n/a
380.1545	0.15	760309	keystroke	n	n/a
380.425	0.12	760850	keystroke	e	n/a
380.77	0.12	761540	keystroke	t	n/a
381.115	0.09	762230	keystroke	w	n/a
381.4	0.12	762800	keystroke	o	n/a
382.1195	0.12	764239	keystroke	Key.backspace	n/a
382.39	0.09	764780	keystroke	Key.backspace	n/a
382.585	0.09	765170	keystroke	Key.backspace	n/a
383.02	0.09	766040	keystroke	w	n/a
383.29	0.15	766580	keystroke	a	n/a
383.545	0.12	767090	keystroke	r	n/a
383.8595	0.12	767719	keystroke	k	n/a
384.1895	0.135	768379	keystroke	Key.space	n/a
384.535	0.12	769070	keystroke	p	n/a
384.745	0.09	769490	keystroke	e	n/a
384.865	0.12	769730	keystroke	n	n/a
385.06	0.0895	770120	keystroke	d	n/a
385.1645	0.195	770329	keystroke	i	n/a
385.2845	0.136	770569	keystroke	n	n/a
385.4055	0.075	770811	keystroke	g	n/a
385.5705	0.135	771141	keystroke	Key.enter	n/a
385.71	11.0365	771420	prompt	n/a	massachusetts provinces analytical album\n
386.455	0.1355	772910	keystroke	m	n/a
386.6505	0.135	773301	keystroke	a	n/a
386.9055	0.105	773811	keystroke	s	n/a
387.1155	0.12	774231	keystroke	s	n/a
387.4155	0.15	774831	keystroke	a	n/a
387.8505	0.1495	775701	keystroke	c	n/a
388.09	0.135	776180	keystroke	h	n/a
388.3755	0.134	776751	keystroke	u	n/a
388.6295	0.121	777259	keystroke	s	n/a
388.8995	0.09	777799	keystroke	e	n/a
389.1545	0.106	778309	keystroke	t	n/a
389.3195	0.106	778639	keystroke	t	n/a
389.5895	0.12	779179	keystroke	s	n/a
389.7545	0.18	779509	keystroke	Key.space	n/a
390.0995	0.136	780199	keystroke	p	n/a
390.3845	0.12	780769	keystroke	r	n/a
390.6095	0.12	781219	keystroke	o	n/a
390.835	0.165	781670	keystroke	v	n/a
391.03	0.105	782060	keystroke	i	n/a
391.27	0.15	782540	keystroke	n	n/a
391.54	0.15	783080	keystroke	c	n/a
391.84	0.105	783680	keystroke	e	n/a
392.08	0.1055	784160	keystroke	s	n/a
392.26	0.1195	784520	keystroke	Key.space	n/a
392.4695	0.105	784939	keystroke	a	n/a
392.6345	0.12	785269	keystroke	n	n/a
392.9195	0.15	785839	keystroke	a	n/a
393.2195	0.135	786439	keystroke	l	n/a
393.5045	0.12	787009	keystroke	y	n/a
393.94	0.12	787880	keystroke	t	n/a
394.09	0.135	788180	keystroke	i	n/a
394.3295	0.18	788659	keystroke	c	n/a
394.5105	0.104	789021	keystroke	a	n/a
394.6755	0.15	789351	keystroke	l	n/a
394.8405	0.18	789681	keystroke	Key.space	n/a
395.4855	0.135	790971	keystroke	a	n/a
395.6805	0.135	791361	keystroke	l	n/a
395.9205	0.12	791841	keystroke	b	n/a
396.1305	0.12	792261	keystroke	u	n/a
396.3855	0.12	792771	keystroke	m	n/a
396.6255	0.12	793251	keystroke	Key.enter	n/a
396.7505	9.641	793501	prompt	n/a	puerto located institutional harris\n
397.7205	0.12	795441	keystroke	p	n/a
398.2305	0.135	796461	keystroke	u	n/a
398.5305	0.105	797061	keystroke	e	n/a
398.7555	0.09	797511	keystroke	r	n/a
398.9655	0.09	797931	keystroke	t	n/a
399.0855	0.179	798171	keystroke	o	n/a
399.2055	0.149	798411	keystroke	Key.space	n/a
399.7455	0.06	799491	keystroke	l	n/a
399.9095	0.106	799819	keystroke	o	n/a
400.0305	0.1495	800061	keystroke	c	n/a
400.225	0.1345	800450	keystroke	a	n/a
400.5245	0.075	801049	keystroke	e	n/a
400.7195	0.1055	801439	keystroke	d	n/a
400.885	0.105	801770	keystroke	Key.space	n/a
401.305	0.1205	802610	keystroke	i	n/a
401.5005	0.15	803001	keystroke	n	n/a
401.7105	0.195	803421	keystroke	s	n/a
401.8895	0.121	803779	keystroke	t	n/a
402.0255	0.135	804051	keystroke	i	n/a
402.1905	0.1195	804381	keystroke	t	n/a
402.34	0.105	804680	keystroke	i	n/a
403.93	0.12	807860	keystroke	Key.backspace	n/a
404.2	0.12	808400	keystroke	u	n/a
404.4095	0.12	808819	keystroke	t	n/a
404.5595	0.135	809119	keystroke	i	n/a
404.6795	0.15	809359	keystroke	o	n/a
404.7695	0.15	809539	keystroke	n	n/a
404.95	0.12	809900	keystroke	a	n/a
405.085	0.12	810170	keystroke	l	n/a
405.145	0.135	810290	keystroke	Key.space	n/a
405.4	0.09	810800	keystroke	h	n/a
405.55	0.15	811100	keystroke	a	n/a
405.745	0.06	811490	keystroke	r	n/a
405.88	0.1045	811760	keystroke	r	n/a
405.9995	0.136	811999	keystroke	i	n/a
406.1505	0.09	812301	keystroke	s	n/a
406.2545	0.1355	812509	keystroke	Key.enter	n/a
406.3945	7.977	812789	prompt	n/a	herbs requested validity butter\n
407.11	0.12	814220	keystroke	h	n/a
407.275	0.15	814550	keystroke	e	n/a
407.44	0.12	814880	keystroke	r	n/a
407.725	0.09	815450	keystroke	b	n/a
407.92	0.105	815840	keystroke	s	n/a
408.07	0.12	816140	keystroke	Key.space	n/a
408.5345	0.15	817069	keystroke	r	n/a
408.6695	0.195	817339	keystroke	e	n/a
408.9095	0.135	817819	keystroke	q	n/a
409.1495	0.15	818299	keystroke	u	n/a
409.4045	0.135	818809	keystroke	e	n/a
409.6595	0.1655	819319	keystroke	s	n/a
409.81	0.12	819620	keystroke	t	n/a
409.945	0.09	819890	keystroke	e	n/a
410.185	0.09	820370	keystroke	d	n/a
410.3205	0.134	820641	keystroke	Key.space	n/a
410.59	0.135	821180	keystroke	v	n/a
410.8755	0.135	821751	keystroke	a	n/a
411.1445	0.09	822289	keystroke	l	n/a
411.3095	0.12	822619	keystroke	i	n/a
411.4595	0.136	822919	keystroke	d	n/a
412.5545	0.12	825109	keystroke	i	n/a
412.7345	0.121	825469	keystroke	t	n/a
412.9155	0.1345	825831	keystroke	y	n/a
413.0205	0.1645	826041	keystroke	Key.space	n/a
413.425	0.12	826850	keystroke	b	n/a
413.53	0.135	827060	keystroke	u	n/a
413.71	0.0755	827420	keystroke	t	n/a
413.8755	0.09	827751	keystroke	t	n/a
414.0105	0.09	828021	keystroke	e	n/a
414.0855	0.09	828171	keystroke	r	n/a
414.2505	0.119	828501	keystroke	Key.enter	n/a
414.376	6.8505	828752	prompt	n/a	none jump nebraska between\n
415	0.165	830000	keystroke	n	n/a
415.135	0.135	830270	keystroke	o	n/a
415.315	0.135	830630	keystroke	n	n/a
415.465	0.075	830930	keystroke	e	n/a
415.615	0.195	831230	keystroke	Key.space	n/a
415.9595	0.105	831919	keystroke	j	n/a
416.1695	0.09	832339	keystroke	u	n/a
416.4095	0.196	832819	keystroke	m	n/a
416.5905	0.15	833181	keystroke	p	n/a
416.8155	0.12	833631	keystroke	Key.space	n/a
417.3255	0.12	834651	keystroke	n	n/a
417.7905	0.089	835581	keystroke	e	n/a
418.0145	0.1205	836029	keystroke	b	n/a
418.33	0.15	836660	keystroke	r	n/a
418.54	0.12	837080	keystroke	a	n/a
418.705	0.105	837410	keystroke	s	n/a
418.885	0.15	837770	keystroke	k	n/a
419.095	0.105	838190	keystroke	a	n/a
419.2445	0.135	838489	keystroke	Key.space	n/a
419.6805	0.089	839361	keystroke	b	n/a
419.8745	0.165	839749	keystroke	e	n/a
420.0845	0.15	840169	keystroke	t	n/a
420.2795	0.1055	840559	keystroke	w	n/a
420.565	0.075	841130	keystroke	e	n/a
420.7295	0.075	841459	keystroke	e	n/a
420.8195	0.15	841639	keystroke	n	n/a
421.1195	0.105	842239	keystroke	Key.enter	n/a
421.2295	6.507	842459	prompt	n/a	argentina titled noble fired\n
421.8545	0.15	843709	keystroke	a	n/a
422.1095	0.09	844219	keystroke	r	n/a
422.3645	0.105	844729	keystroke	g	n/a
422.5145	0.09	845029	keystroke	e	n/a
422.6495	0.12	845299	keystroke	n	n/a
422.7845	0.105	845569	keystroke	t	n/a
422.9495	0.18	845899	keystroke	i	n/a
423.1145	0.135	846229	keystroke	n	n/a
423.2795	0.12	846559	keystroke	a	n/a
423.4445	0.135	846889	keystroke	Key.space	n/a
423.7295	0.105	847459	keystroke	t	n/a
423.8195	0.135	847639	keystroke	i	n/a
424.0595	0.09	848119	keystroke	t	n/a
424.1795	0.1205	848359	keystroke	l	n/a
424.39	0.045	848780	keystroke	e	n/a
424.585	0.09	849170	keystroke	d	n/a
424.81	0.12	849620	keystroke	Key.space	n/a
425.215	0.12	850430	keystroke	n	n/a
425.35	0.12	850700	keystroke	o	n/a
425.5	0.105	851000	keystroke	b	n/a
425.9045	0.105	851809	keystroke	l	n/a
426.1595	0.09	852319	keystroke	e	n/a
426.3255	0.104	852651	keystroke	Key.space	n/a
426.5055	0.12	853011	keystroke	f	n/a
426.6405	0.12	853281	keystroke	i	n/a
426.7755	0.105	853551	keystroke	r	n/a
427.1805	0.06	854361	keystroke	e	n/a
427.3605	0.105	854721	keystroke	d	n/a
427.6155	0.12	855231	keystroke	Key.enter	n/a
427.7395	6.027	855479	prompt	n/a	smooth philosophy guide is\n
428.635	0.045	857270	keystroke	a	n/a
429.085	0.105	858170	keystroke	Key.backspace	n/a
429.22	0.105	858440	keystroke	s	n/a
429.355	0.12	858710	keystroke	m	n/a
429.445	0.12	858890	keystroke	o	n/a
429.67	0.09	859340	keystroke	o	n/a
429.82	0.105	859640	keystroke	t	n/a
429.94	0.1345	859880	keystroke	h	n/a
430.0595	0.165	860119	keystroke	Key.space	n/a
430.3445	0.12	860689	keystroke	p	n/a
430.5845	0.18	861169	keystroke	h	n/a
430.7495	0.15	861499	keystroke	i	n/a
431.0045	0.09	862009	keystroke	l	n/a
431.1995	0.105	862399	keystroke	o	n/a
431.3195	0.075	862639	keystroke	s	n/a
431.4395	0.105	862879	keystroke	o	n/a
431.5595	0.165	863119	keystroke	p	n/a
431.7545	0.09	863509	keystroke	h	n/a
431.9645	0.135	863929	keystroke	y	n/a
432.0845	0.165	864169	keystroke	Key.space	n/a
432.3695	0.09	864739	keystroke	g	n/a
432.5495	0.1655	865099	keystroke	u	n/a
432.79	0.12	865580	keystroke	i	n/a
432.91	0.09	865820	keystroke	d	n/a
433.105	0.075	866210	keystroke	e	n/a
433.225	0.15	866450	keystroke	Key.space	n/a
433.345	0.15	866690	keystroke	i	n/a
433.48	0.09	866960	keystroke	s	n/a
433.66	0.105	867320	keystroke	Key.enter	n/a
433.7695	6.642	867539	prompt	n/a	remove saddam accepts weekly\n
434.395	0.075	868790	keystroke	r	n/a
434.485	0.09	868970	keystroke	e	n/a
434.635	0.1655	869270	keystroke	m	n/a
434.725	0.135	869450	keystroke	o	n/a
434.8155	0.15	869631	keystroke	v	n/a
434.935	0.075	869870	keystroke	e	n/a
435.025	0.12	870050	keystroke	Key.space	n/a
435.385	0.09	870770	keystroke	s	n/a
435.5945	0.15	871189	keystroke	a	n/a
435.8805	0.09	871761	keystroke	d	n/a
436.0455	0.09	872091	keystroke	d	n/a
436.2405	0.104	872481	keystroke	a	n/a
436.405	0.165	872810	keystroke	m	n/a
436.555	0.12	873110	keystroke	Key.space	n/a
436.87	0.1045	873740	keystroke	a	n/a
437.1095	0.075	874219	keystroke	c	n/a
437.2745	0.075	874549	keystroke	c	n/a
437.5	0.075	875000	keystroke	e	n/a
438.7005	0.015	877401	keystroke	p	n/a
438.7305	0.015	877461	keystroke	t	n/a
438.8205	0.105	877641	keystroke	s	n/a
438.9705	0.1345	877941	keystroke	Key.space	n/a
439.225	0.12	878450	keystroke	w	n/a
439.42	0.09	878840	keystroke	e	n/a
439.6	0.0895	879200	keystroke	e	n/a
439.7055	0.12	879411	keystroke	k	n/a
439.8545	0.135	879709	keystroke	l	n/a
440.0045	0.12	880009	keystroke	y	n/a
440.3045	0.1055	880609	keystroke	Key.enter	n/a
440.415	8.4415	880830	prompt	n/a	military variance latinas duck\n
441.205	0.1945	882410	keystroke	m	n/a
441.4295	0.121	882859	keystroke	i	n/a
441.5945	0.15	883189	keystroke	l	n/a
441.7745	0.135	883549	keystroke	i	n/a
442.3455	0.1195	884691	keystroke	t	n/a
442.63	0.15	885260	keystroke	a	n/a
442.795	0.12	885590	keystroke	r	n/a
442.99	0.135	885980	keystroke	y	n/a
443.095	0.15	886190	keystroke	Key.space	n/a
443.44	0.15	886880	keystroke	v	n/a
443.7555	0.179	887511	keystroke	a	n/a
443.9945	0.12	887989	keystroke	r	n/a
444.1445	0.135	888289	keystroke	i	n/a
444.43	0.105	888860	keystroke	a	n/a
444.595	0.135	889190	keystroke	n	n/a
444.775	0.12	889550	keystroke	c	n/a
445	0.105	890000	keystroke	e	n/a
445.135	0.1495	890270	keystroke	Key.space	n/a
445.5245	0.075	891049	keystroke	a	n/a
445.9755	0.105	891951	keystroke	Key.backspace	n/a
446.2155	0.12	892431	keystroke	l	n/a
446.3355	0.105	892671	keystroke	a	n/a
446.65	0.12	893300	keystroke	t	n/a
446.92	0.1505	893840	keystroke	i	n/a
447.1745	0.15	894349	keystroke	n	n/a
447.3395	0.1655	894679	keystroke	a	n/a
447.58	0.12	895160	keystroke	s	n/a
447.73	0.15	895460	keystroke	Key.space	n/a
448.09	0.105	896180	keystroke	d	n/a
448.225	0.135	896450	keystroke	u	n/a
448.36	0.105	896720	keystroke	c	n/a
448.48	0.105	896960	keystroke	k	n/a
448.72	0.135	897440	keystroke	Key.enter	n/a
448.86	8.0065	897720	prompt	n/a	smallest childrens taking adopted\n
449.5445	0.09	899089	keystroke	s	n/a
449.7395	0.135	899479	keystroke	m	n/a
449.8895	0.12	899779	keystroke	a	n/a
450.0245	0.09	900049	keystroke	l	n/a
450.1895	0.1205	900379	keystroke	l	n/a
450.34	0.105	900680	keystroke	e	n/a
450.535	0.105	901070	keystroke	s	n/a
450.835	0.12	901670	keystroke	t	n/a
451.03	0.165	902060	keystroke	Key.space	n/a
451.4795	0.075	902959	keystroke	c	n/a
451.5845	0.135	903169	keystroke	h	n/a
451.6745	0.105	903349	keystroke	i	n/a
451.8995	0.105	903799	keystroke	l	n/a
452.0345	0.105	904069	keystroke	d	n/a
452.3195	0.12	904639	keystroke	r	n/a
452.4695	0.09	904939	keystroke	e	n/a
452.8895	0.12	905779	keystroke	n	n/a
453.1145	0.0905	906229	keystroke	s	n/a
453.46	0.165	906920	keystroke	Key.space	n/a
453.85	0.12	907700	keystroke	t	n/a
454	0.12	908000	keystroke	a	n/a
454.09	0.09	908180	keystroke	k	n/a
454.27	0.1505	908540	keystroke	i	n/a
454.36	0.1355	908720	keystroke	n	n/a
454.4655	0.105	908931	keystroke	g	n/a
454.5995	0.1805	909199	keystroke	Key.space	n/a
455.05	0.12	910100	keystroke	a	n/a
455.215	0.1195	910430	keystroke	d	n/a
455.7845	0.1505	911569	keystroke	o	n/a
455.9945	0.15	911989	keystroke	p	n/a
456.2495	0.105	912499	keystroke	t	n/a
456.3845	0.105	912769	keystroke	e	n/a
456.5795	0.0905	913159	keystroke	d	n/a
456.7455	0.12	913491	keystroke	Key.enter	n/a
456.8695	9.387	913739	prompt	n/a	pioneer archives donald cathedral\n
457.645	0.135	915290	keystroke	p	n/a
457.885	0.15	915770	keystroke	i	n/a
458.155	0.105	916310	keystroke	o	n/a
458.305	0.135	916610	keystroke	n	n/a
458.515	0.0905	917030	keystroke	e	n/a
458.6945	0.09	917389	keystroke	e	n/a
458.8895	0.09	917779	keystroke	r	n/a
459.0245	0.15	918049	keystroke	Key.space	n/a
459.3095	0.1055	918619	keystroke	a	n/a
459.5195	0.091	919039	keystroke	r	n/a
459.7895	0.105	919579	keystroke	c	n/a
459.9395	0.165	919879	keystroke	h	n/a
460.0445	0.12	920089	keystroke	i	n/a
460.2245	0.1805	920449	keystroke	v	n/a
460.39	0.105	920780	keystroke	e	n/a
460.57	0.09	921140	keystroke	s	n/a
460.66	0.15	921320	keystroke	Key.space	n/a
460.825	0.09	921650	keystroke	d	n/a
460.93	0.12	921860	keystroke	o	n/a
461.035	0.075	922070	keystroke	n	n/a
461.68	0.105	923360	keystroke	a	n/a
461.89	0.12	923780	keystroke	l	n/a
462.085	0.105	924170	keystroke	d	n/a
462.235	0.105	924470	keystroke	Key.space	n/a
462.625	0.12	925250	keystroke	c	n/a
462.82	0.12	925640	keystroke	h	n/a
463.51	0.15	927020	keystroke	Key.backspace	n/a
463.645	0.075	927290	keystroke	a	n/a
463.78	0.12	927560	keystroke	h	n/a
463.945	0.135	927890	keystroke	t	n/a
464.515	0.09	929030	keystroke	Key.backspace	n/a
464.68	0.105	929360	keystroke	Key.backspace	n/a
464.8	0.12	929600	keystroke	t	n/a
464.935	0.12	929870	keystroke	h	n/a
465.07	0.075	930140	keystroke	e	n/a
465.34	0.105	930680	keystroke	d	n/a
465.55	0.12	931100	keystroke	r	n/a
465.715	0.12	931430	keystroke	a	n/a
465.865	0.1195	931730	keystroke	l	n/a
466.1495	0.105	932299	keystroke	Key.enter	n/a
466.259	9.058	932518	prompt	n/a	resource love relying organisations\n
467.0495	0.1205	934099	keystroke	r	n/a
467.155	0.1195	934310	keystroke	e	n/a
467.4095	0.09	934819	keystroke	s	n/a
467.6195	0.18	935239	keystroke	o	n/a
468.1895	0.1205	936379	keystroke	u	n/a
468.295	0.1045	936590	keystroke	r	n/a
468.5645	0.09	937129	keystroke	c	n/a
468.7895	0.06	937579	keystroke	e	n/a
468.9395	0.15	937879	keystroke	Key.space	n/a
469.3595	0.151	938719	keystroke	o	n/a
469.8095	0.09	939619	keystroke	Key.backspace	n/a
470.0345	0.09	940069	keystroke	l	n/a
470.2295	0.09	940459	keystroke	o	n/a
470.3345	0.1355	940669	keystroke	v	n/a
470.44	0.1205	940880	keystroke	e	n/a
470.62	0.1345	941240	keystroke	Key.space	n/a
471.1595	0.075	942319	keystroke	r	n/a
471.2795	0.075	942559	keystroke	e	n/a
471.4455	0.15	942891	keystroke	l	n/a
471.775	0.105	943550	keystroke	y	n/a
471.985	0.165	943970	keystroke	i	n/a
472.105	0.165	944210	keystroke	n	n/a
472.285	0.1195	944570	keystroke	g	n/a
472.4195	0.135	944839	keystroke	Key.space	n/a
472.5995	0.12	945199	keystroke	o	n/a
472.7645	0.06	945529	keystroke	r	n/a
472.9895	0.09	945979	keystroke	g	n/a
473.1245	0.12	946249	keystroke	a	n/a
473.2595	0.15	946519	keystroke	n	n/a
473.935	0.135	947870	keystroke	i	n/a
474.22	0.12	948440	keystroke	s	n/a
474.4595	0.12	948919	keystroke	a	n/a
474.5945	0.105	949189	keystroke	t	n/a
474.7145	0.135	949429	keystroke	i	n/a
474.8045	0.165	949609	keystroke	o	n/a
474.8645	0.15	949729	keystroke	n	n/a
474.9995	0.09	949999	keystroke	s	n/a
475.21	0.105	950420	keystroke	Key.enter	n/a
475.3195	5.337	950639	prompt	n/a	nail warm rugby gimme\n
476.05	0.165	952100	keystroke	n	n/a
476.335	0.18	952670	keystroke	a	n/a
476.575	0.12	953150	keystroke	i	n/a
476.785	0.15	953570	keystroke	l	n/a
476.92	0.15	953840	keystroke	Key.space	n/a
477.13	0.09	954260	keystroke	w	n/a
477.355	0.1345	954710	keystroke	a	n/a
477.4745	0.105	954949	keystroke	r	n/a
477.6245	0.1355	955249	keystroke	m	n/a
477.744	0.1205	955488	keystroke	Key.space	n/a
478.2245	0.12	956449	keystroke	r	n/a
478.4345	0.135	956869	keystroke	u	n/a
478.6295	0.105	957259	keystroke	g	n/a
479.0495	0.105	958099	keystroke	b	n/a
479.1845	0.12	958369	keystroke	y	n/a
479.3645	0.12	958729	keystroke	Key.space	n/a
479.6505	0.089	959301	keystroke	g	n/a
479.7845	0.12	959569	keystroke	i	n/a
479.9645	0.09	959929	keystroke	m	n/a
480.1305	0.119	960261	keystroke	m	n/a
480.2655	0.09	960531	keystroke	e	n/a
480.5345	0.1205	961069	keystroke	Key.enter	n/a
480.659	9.1325	961318	prompt	n/a	john asylum amazing trustee\n
481.405	0.12	962810	keystroke	j	n/a
481.54	0.135	963080	keystroke	o	n/a
481.705	0.12	963410	keystroke	h	n/a
481.945	0.135	963890	keystroke	n	n/a
482.05	0.135	964100	keystroke	Key.space	n/a
482.845	0.135	965690	keystroke	a	n/a
482.965	0.135	965930	keystroke	s	n/a
483.3245	0.165	966649	keystroke	y	n/a
484.195	0.1345	968390	keystroke	u	n/a
484.8095	0.105	969619	keystroke	Key.backspace	n/a
485.0645	0.12	970129	keystroke	l	n/a
485.2745	0.105	970549	keystroke	u	n/a
485.6945	0.12	971389	keystroke	Key.space	n/a
486.1145	0.105	972229	keystroke	Key.backspace	n/a
486.3395	0.12	972679	keystroke	m	n/a
486.4745	0.12	972949	keystroke	Key.space	n/a
486.865	0.12	973730	keystroke	a	n/a
487.015	0.135	974030	keystroke	m	n/a
487.33	0.0895	974660	keystroke	a	n/a
487.5395	0.12	975079	keystroke	z	n/a
487.6745	0.18	975349	keystroke	i	n/a
487.7495	0.18	975499	keystroke	n	n/a
487.9595	0.105	975919	keystroke	g	n/a
488.0795	0.135	976159	keystroke	Key.space	n/a
488.3955	0.089	976791	keystroke	t	n/a
488.5895	0.105	977179	keystroke	r	n/a
488.74	0.135	977480	keystroke	u	n/a
488.89	0.135	977780	keystroke	s	n/a
489.07	0.105	978140	keystroke	t	n/a
489.295	0.045	978590	keystroke	e	n/a
489.445	0.075	978890	keystroke	e	n/a
489.67	0.12	979340	keystroke	Key.enter	n/a
489.7965	7.705	979593	prompt	n/a	storm lies garlic consultants\n
490.51	0.135	981020	keystroke	s	n/a
490.9145	0.106	981829	keystroke	t	n/a
491.425	0.105	982850	keystroke	o	n/a
491.65	0.105	983300	keystroke	r	n/a
491.815	0.135	983630	keystroke	m	n/a
492.04	0.105	984080	keystroke	Key.space	n/a
492.52	0.09	985040	keystroke	l	n/a
492.7	0.12	985400	keystroke	i	n/a
492.895	0.09	985790	keystroke	e	n/a
493.06	0.105	986120	keystroke	s	n/a
493.18	0.135	986360	keystroke	Key.space	n/a
493.84	0.105	987680	keystroke	g	n/a
494.065	0.195	988130	keystroke	a	n/a
494.23	0.0895	988460	keystroke	r	n/a
494.3495	0.09	988699	keystroke	l	n/a
494.4995	0.135	988999	keystroke	i	n/a
494.7545	0.15	989509	keystroke	c	n/a
494.9345	0.15	989869	keystroke	Key.space	n/a
495.2195	0.105	990439	keystroke	c	n/a
495.3545	0.165	990709	keystroke	o	n/a
495.4605	0.135	990921	keystroke	n	n/a
495.6545	0.105	991309	keystroke	s	n/a
495.8195	0.135	991639	keystroke	u	n/a
495.9845	0.1055	991969	keystroke	l	n/a
496.4645	0.1055	992929	keystroke	t	n/a
496.63	0.12	993260	keystroke	a	n/a
496.765	0.165	993530	keystroke	n	n/a
496.96	0.09	993920	keystroke	t	n/a
497.125	0.105	994250	keystroke	s	n/a
497.395	0.1045	994790	keystroke	Key.enter	n/a
497.504	6.6875	995008	prompt	n/a	rebel closest faced regulations\n
498.6695	0.135	997339	keystroke	r	n/a
498.8345	0.105	997669	keystroke	e	n/a
499.0745	0.105	998149	keystroke	b	n/a
499.2545	0.09	998509	keystroke	e	n/a
499.4345	0.135	998869	keystroke	l	n/a
499.5395	0.165	999079	keystroke	Key.space	n/a
499.9595	0.121	999919	keystroke	c	n/a
500.0645	0.09	1000129	keystroke	l	n/a
500.2295	0.1205	1000459	keystroke	o	n/a
500.365	0.1645	1000730	keystroke	s	n/a
500.605	0.1045	1001210	keystroke	e	n/a
500.83	0.105	1001660	keystroke	s	n/a
500.965	0.12	1001930	keystroke	t	n/a
501.13	0.135	1002260	keystroke	Key.space	n/a
501.385	0.135	1002770	keystroke	f	n/a
501.535	0.18	1003070	keystroke	a	n/a
501.79	0.135	1003580	keystroke	c	n/a
502.045	0.075	1004090	keystroke	e	n/a
502.24	0.105	1004480	keystroke	d	n/a
502.36	0.15	1004720	keystroke	Key.space	n/a
502.57	0.105	1005140	keystroke	r	n/a
502.675	0.075	1005350	keystroke	e	n/a
502.945	0.09	1005890	keystroke	g	n/a
503.08	0.15	1006160	keystroke	u	n/a
503.245	0.135	1006490	keystroke	l	n/a
503.395	0.15	1006790	keystroke	a	n/a
503.53	0.0895	1007060	keystroke	t	n/a
503.6045	0.105	1007209	keystroke	i	n/a
503.6795	0.1355	1007359	keystroke	o	n/a
503.755	0.135	1007510	keystroke	n	n/a
503.86	0.09	1007720	keystroke	s	n/a
504.07	0.12	1008140	keystroke	Key.enter	n/a
504.194	5.5925	1008388	prompt	n/a	perfume configured ball woods\n
505.0445	0.1355	1010089	keystroke	p	n/a
505.21	0.18	1010420	keystroke	e	n/a
505.36	0.105	1010720	keystroke	r	n/a
505.615	0.09	1011230	keystroke	f	n/a
505.75	0.1195	1011500	keystroke	u	n/a
505.9755	0.1045	1011951	keystroke	m	n/a
506.11	0.075	1012220	keystroke	e	n/a
506.245	0.135	1012490	keystroke	Key.space	n/a
506.6645	0.1205	1013329	keystroke	c	n/a
506.785	0.12	1013570	keystroke	o	n/a
506.86	0.15	1013720	keystroke	n	n/a
507.01	0.075	1014020	keystroke	f	n/a
507.13	0.105	1014260	keystroke	i	n/a
507.265	0.075	1014530	keystroke	g	n/a
507.385	0.12	1014770	keystroke	u	n/a
507.475	0.105	1014950	keystroke	r	n/a
507.625	0.075	1015250	keystroke	e	n/a
507.82	0.0745	1015640	keystroke	d	n/a
507.9245	0.15	1015849	keystroke	Key.space	n/a
508.1195	0.09	1016239	keystroke	b	n/a
508.2395	0.1055	1016479	keystroke	a	n/a
508.48	0.075	1016960	keystroke	l	n/a
508.66	0.09	1017320	keystroke	l	n/a
508.765	0.105	1017530	keystroke	Key.space	n/a
508.945	0.0895	1017890	keystroke	w	n/a
509.0645	0.09	1018129	keystroke	o	n/a
509.2295	0.1055	1018459	keystroke	o	n/a
509.365	0.075	1018730	keystroke	d	n/a
509.47	0.12	1018940	keystroke	s	n/a
509.68	0.104	1019360	keystroke	Key.enter	n/a
509.7895	8.877	1019579	prompt	n/a	benz pharmacy nickname electronic\n
510.685	0.09	1021370	keystroke	b	n/a
510.865	0.075	1021730	keystroke	e	n/a
510.985	0.1345	1021970	keystroke	n	n/a
511.2695	0.12	1022539	keystroke	z	n/a
511.4645	0.165	1022929	keystroke	Key.space	n/a
511.8545	0.1505	1023709	keystroke	p	n/a
512.05	0.105	1024100	keystroke	a	n/a
512.8295	0.105	1025659	keystroke	Key.backspace	n/a
513.085	0.09	1026170	keystroke	h	n/a
513.565	0.075	1027130	keystroke	a	n/a
513.7	0.105	1027400	keystroke	r	n/a
513.865	0.15	1027730	keystroke	m	n/a
514.075	0.09	1028150	keystroke	a	n/a
514.33	0.105	1028660	keystroke	c	n/a
514.54	0.15	1029080	keystroke	y	n/a
514.675	0.165	1029350	keystroke	Key.space	n/a
515.035	0.15	1030070	keystroke	n	n/a
515.14	0.15	1030280	keystroke	i	n/a
515.275	0.105	1030550	keystroke	c	n/a
515.395	0.09	1030790	keystroke	k	n/a
515.71	0.15	1031420	keystroke	n	n/a
515.875	0.12	1031750	keystroke	a	n/a
516.04	0.135	1032080	keystroke	m	n/a
516.235	0.09	1032470	keystroke	e	n/a
516.43	0.135	1032860	keystroke	Key.space	n/a
516.9995	0.105	1033999	keystroke	e	n/a
517.1645	0.12	1034329	keystroke	l	n/a
517.2995	0.06	1034599	keystroke	e	n/a
517.5095	0.09	1035019	keystroke	c	n/a
517.7045	0.09	1035409	keystroke	t	n/a
517.9145	0.06	1035829	keystroke	r	n/a
517.9895	0.105	1035979	keystroke	o	n/a
518.1545	0.135	1036309	keystroke	n	n/a
518.2595	0.1355	1036519	keystroke	i	n/a
518.38	0.075	1036760	keystroke	c	n/a
518.56	0.105	1037120	keystroke	Key.enter	n/a
518.6695	9.8065	1037339	prompt	n/a	quad from none bibliographic\n
519.43	0.1345	1038860	keystroke	q	n/a
519.6545	0.12	1039309	keystroke	u	n/a
519.8795	0.135	1039759	keystroke	a	n/a
520.0745	0.1045	1040149	keystroke	d	n/a
520.194	0.15	1040388	keystroke	Key.space	n/a
520.389	0.091	1040778	keystroke	f	n/a
520.599	0.076	1041198	keystroke	r	n/a
520.69	0.119	1041380	keystroke	o	n/a
520.78	0.135	1041560	keystroke	m	n/a
520.884	0.15	1041768	keystroke	Key.space	n/a
521.245	0.12	1042490	keystroke	n	n/a
521.38	0.15	1042760	keystroke	o	n/a
521.5	0.149	1043000	keystroke	n	n/a
521.724	0.106	1043448	keystroke	e	n/a
521.889	0.106	1043778	keystroke	Key.space	n/a
522.3545	0.105	1044709	keystroke	b	n/a
522.4745	0.15	1044949	keystroke	i	n/a
523.255	0.105	1046510	keystroke	b	n/a
523.87	0.075	1047740	keystroke	l	n/a
524.02	0.12	1048040	keystroke	i	n/a
524.275	0.1045	1048550	keystroke	o	n/a
524.5445	0.091	1049089	keystroke	r	n/a
524.9195	0.0905	1049839	keystroke	g	n/a
525.955	0.105	1051910	keystroke	r	n/a
526.4195	0.09	1052839	keystroke	Key.backspace	n/a
526.5995	0.075	1053199	keystroke	Key.backspace	n/a
526.7345	0.105	1053469	keystroke	Key.backspace	n/a
526.915	0.09	1053830	keystroke	g	n/a
527.125	0.075	1054250	keystroke	r	n/a
527.245	0.12	1054490	keystroke	a	n/a
527.41	0.15	1054820	keystroke	p	n/a
527.545	0.165	1055090	keystroke	h	n/a
527.995	0.12	1055990	keystroke	i	n/a
528.16	0.105	1056320	keystroke	c	n/a
528.37	0.105	1056740	keystroke	Key.enter	n/a
528.4795	8.8915	1056959	prompt	n/a	cdna hewlett diameter therapist\n
529.465	0.12	1058930	keystroke	c	n/a
529.795	0.165	1059590	keystroke	n	n/a
530.5445	0.135	1061089	keystroke	Key.backspace	n/a
530.6945	0.105	1061389	keystroke	d	n/a
530.8605	0.119	1061721	keystroke	n	n/a
531.0395	0.135	1062079	keystroke	a	n/a
531.2045	0.18	1062409	keystroke	Key.space	n/a
531.7455	0.134	1063491	keystroke	h	n/a
532.0145	0.135	1064029	keystroke	e	n/a
532.525	0.09	1065050	keystroke	w	n/a
533.14	0.135	1066280	keystroke	l	n/a
533.305	0.105	1066610	keystroke	e	n/a
533.695	0.0745	1067390	keystroke	t	n/a
533.8445	0.12	1067689	keystroke	t	n/a
533.9945	0.1655	1067989	keystroke	Key.space	n/a
534.25	0.1345	1068500	keystroke	d	n/a
534.3995	0.1355	1068799	keystroke	i	n/a
534.535	0.12	1069070	keystroke	a	n/a
534.685	0.15	1069370	keystroke	m	n/a
534.835	0.105	1069670	keystroke	e	n/a
535.06	0.06	1070120	keystroke	t	n/a
535.1945	0.09	1070389	keystroke	t	n/a
535.3595	0.075	1070719	keystroke	e	n/a
535.4045	0.105	1070809	keystroke	r	n/a
535.5545	0.105	1071109	keystroke	Key.space	n/a
535.7345	0.12	1071469	keystroke	t	n/a
535.8245	0.1505	1071649	keystroke	h	n/a
535.9895	0.045	1071979	keystroke	e	n/a
536.0795	0.1355	1072159	keystroke	r	n/a
536.3645	0.1045	1072729	keystroke	a	n/a
536.529	0.135	1073058	keystroke	p	n/a
536.7995	0.135	1073599	keystroke	i	n/a
536.9945	0.15	1073989	keystroke	s	n/a
537.0845	0.135	1074169	keystroke	t	n/a
537.2495	0.12	1074499	keystroke	Key.enter	n/a
537.3735	7.633	1074747	prompt	n/a	puts dictionary loss payday\n
538.555	0.165	1077110	keystroke	p	n/a
538.66	0.165	1077320	keystroke	u	n/a
538.81	0.09	1077620	keystroke	t	n/a
538.975	0.105	1077950	keystroke	s	n/a
539.08	0.1195	1078160	keystroke	Key.space	n/a
539.2895	0.105	1078579	keystroke	d	n/a
539.3795	0.12	1078759	keystroke	i	n/a
539.5295	0.105	1079059	keystroke	c	n/a
540.28	0.12	1080560	keystroke	t	n/a
540.43	0.165	1080860	keystroke	i	n/a
540.55	0.18	1081100	keystroke	o	n/a
540.7	0.15	1081400	keystroke	n	n/a
541.4345	0.135	1082869	keystroke	a	n/a
541.5845	0.09	1083169	keystroke	r	n/a
541.7645	0.15	1083529	keystroke	y	n/a
541.8845	0.165	1083769	keystroke	Key.space	n/a
542.2295	0.09	1084459	keystroke	l	n/a
542.425	0.0895	1084850	keystroke	o	n/a
542.575	0.09	1085150	keystroke	s	n/a
542.74	0.09	1085480	keystroke	s	n/a
542.875	0.1345	1085750	keystroke	Key.space	n/a
543.355	0.12	1086710	keystroke	p	n/a
543.565	0.12	1087130	keystroke	a	n/a
543.985	0.105	1087970	keystroke	y	n/a
544.3895	0.09	1088779	keystroke	d	n/a
544.5245	0.12	1089049	keystroke	a	n/a
544.6595	0.105	1089319	keystroke	y	n/a
544.8995	0.105	1089799	keystroke	Key.enter	n/a
545.0095	10.0015	1090019	prompt	n/a	trees responded vbulletin coastal\n
545.6795	0.12	1091359	keystroke	t	n/a
545.9195	0.075	1091839	keystroke	r	n/a
546.1595	0.09	1092319	keystroke	e	n/a
546.385	0.075	1092770	keystroke	e	n/a
546.595	0.09	1093190	keystroke	s	n/a
546.76	0.135	1093520	keystroke	Key.space	n/a
547.195	0.09	1094390	keystroke	s	n/a
547.615	0.105	1095230	keystroke	Key.backspace	n/a
547.735	0.12	1095470	keystroke	r	n/a
547.84	0.075	1095680	keystroke	e	n/a
548.02	0.105	1096040	keystroke	s	n/a
548.17	0.1645	1096340	keystroke	p	n/a
548.4095	0.165	1096819	keystroke	o	n/a
548.5295	0.15	1097059	keystroke	n	n/a
549.07	0.12	1098140	keystroke	d	n/a
549.31	0.075	1098620	keystroke	e	n/a
549.535	0.09	1099070	keystroke	d	n/a
549.655	0.135	1099310	keystroke	Key.space	n/a
549.925	0.1045	1099850	keystroke	v	n/a
550.33	0.09	1100660	keystroke	b	n/a
550.525	0.12	1101050	keystroke	u	n/a
550.765	0.12	1101530	keystroke	l	n/a
551.005	0.09	1102010	keystroke	l	n/a
551.185	0.09	1102370	keystroke	e	n/a
551.425	0.105	1102850	keystroke	t	n/a
551.665	0.18	1103330	keystroke	i	n/a
551.785	0.165	1103570	keystroke	n	n/a
552.9695	0.18	1105939	keystroke	Key.space	n/a
553.645	0.105	1107290	keystroke	c	n/a
553.795	0.135	1107590	keystroke	o	n/a
554.095	0.15	1108190	keystroke	a	n/a
554.215	0.12	1108430	keystroke	s	n/a
554.3945	0.105	1108789	keystroke	t	n/a
554.5445	0.105	1109089	keystroke	a	n/a
554.6645	0.105	1109329	keystroke	l	n/a
554.9045	0.105	1109809	keystroke	Key.enter	n/a
555.0145	6.117	1110029	prompt	n/a	rational scores anybody rescue\n
555.8195	0.105	1111639	keystroke	r	n/a
555.9845	0.105	1111969	keystroke	a	n/a
556.0745	0.1055	1112149	keystroke	t	n/a
556.165	0.12	1112330	keystroke	i	n/a
556.254	0.1205	1112508	keystroke	o	n/a
556.314	0.1655	1112628	keystroke	n	n/a
556.4345	0.105	1112869	keystroke	a	n/a
556.5545	0.12	1113109	keystroke	l	n/a
556.6295	0.135	1113259	keystroke	Key.space	n/a
556.9745	0.09	1113949	keystroke	s	n/a
557.1855	0.059	1114371	keystroke	c	n/a
557.4095	0.105	1114819	keystroke	r	n/a
557.5445	0.135	1115089	keystroke	o	n/a
557.7245	0.075	1115449	keystroke	e	n/a
557.86	0.12	1115720	keystroke	s	n/a
558.01	0.135	1116020	keystroke	Key.space	n/a
558.295	0.135	1116590	keystroke	a	n/a
558.385	0.105	1116770	keystroke	n	n/a
558.595	0.105	1117190	keystroke	y	n/a
558.73	0.09	1117460	keystroke	b	n/a
558.82	0.135	1117640	keystroke	o	n/a
559.015	0.09	1118030	keystroke	d	n/a
559.165	0.1045	1118330	keystroke	y	n/a
559.2995	0.135	1118599	keystroke	Key.space	n/a
559.72	0.105	1119440	keystroke	r	n/a
560.0195	0.075	1120039	keystroke	e	n/a
560.2745	0.075	1120549	keystroke	s	n/a
560.59	0.09	1121180	keystroke	c	n/a
560.725	0.135	1121450	keystroke	u	n/a
560.875	0.06	1121750	keystroke	e	n/a
561.025	0.105	1122050	keystroke	Key.enter	n/a
561.1345	6.987	1122269	prompt	n/a	members tape spain tournament\n
562.3595	0.09	1124719	keystroke	m	n/a
562.4045	0.09	1124809	keystroke	e	n/a
562.5395	0.12	1125079	keystroke	m	n/a
562.6145	0.0905	1125229	keystroke	b	n/a
562.7655	0.089	1125531	keystroke	e	n/a
562.8405	0.0885	1125681	keystroke	r	n/a
563.005	0.075	1126010	keystroke	s	n/a
563.095	0.119	1126190	keystroke	Key.space	n/a
563.2	0.09	1126400	keystroke	t	n/a
563.3195	0.135	1126639	keystroke	a	n/a
563.4405	0.1345	1126881	keystroke	p	n/a
563.575	0.075	1127150	keystroke	e	n/a
563.695	0.104	1127390	keystroke	Key.space	n/a
564.009	0.031	1128018	keystroke	a	n/a
564.445	0.12	1128890	keystroke	Key.backspace	n/a
564.58	0.09	1129160	keystroke	s	n/a
564.73	0.12	1129460	keystroke	p	n/a
564.88	0.12	1129760	keystroke	a	n/a
565.03	0.1645	1130060	keystroke	i	n/a
565.1045	0.166	1130209	keystroke	n	n/a
565.2555	0.149	1130511	keystroke	Key.space	n/a
565.6595	0.1205	1131319	keystroke	t	n/a
565.824	0.121	1131648	keystroke	o	n/a
565.9	0.1495	1131800	keystroke	u	n/a
566.0655	0.089	1132131	keystroke	r	n/a
566.185	0.12	1132370	keystroke	n	n/a
567.235	0.135	1134470	keystroke	a	n/a
567.415	0.135	1134830	keystroke	m	n/a
567.58	0.09	1135160	keystroke	e	n/a
567.685	0.1195	1135370	keystroke	n	n/a
567.7895	0.09	1135579	keystroke	t	n/a
567.9995	0.12	1135999	keystroke	Key.enter	n/a
568.1245	7.6315	1136249	prompt	n/a	swap netherlands sure sampling\n
568.885	0.105	1137770	keystroke	s	n/a
569.1545	0.075	1138309	keystroke	w	n/a
569.3195	0.135	1138639	keystroke	a	n/a
569.4245	0.15	1138849	keystroke	p	n/a
569.5295	0.12	1139059	keystroke	Key.space	n/a
569.9345	0.135	1139869	keystroke	n	n/a
570.1295	0.12	1140259	keystroke	e	n/a
570.295	0.12	1140590	keystroke	t	n/a
570.43	0.1495	1140860	keystroke	h	n/a
570.67	0.15	1141340	keystroke	e	n/a
570.7595	0.165	1141519	keystroke	r	n/a
571.1945	0.105	1142389	keystroke	l	n/a
571.3755	0.119	1142751	keystroke	a	n/a
571.5245	0.135	1143049	keystroke	n	n/a
571.6605	0.09	1143321	keystroke	d	n/a
571.8395	0.09	1143679	keystroke	s	n/a
571.9745	0.15	1143949	keystroke	Key.space	n/a
572.2595	0.12	1144519	keystroke	s	n/a
572.4245	0.15	1144849	keystroke	u	n/a
572.6045	0.225	1145209	keystroke	r	n/a
573.1895	0.09	1146379	keystroke	e	n/a
573.3245	0.165	1146649	keystroke	Key.space	n/a
573.6245	0.105	1147249	keystroke	s	n/a
574.4645	0.09	1148929	keystroke	a	n/a
574.5845	0.24	1149169	keystroke	m	n/a
574.8095	0.12	1149619	keystroke	p	n/a
574.9595	0.12	1149919	keystroke	l	n/a
575.1545	0.21	1150309	keystroke	i	n/a
575.2895	0.15	1150579	keystroke	n	n/a
575.4545	0.09	1150909	keystroke	g	n/a
575.6345	0.12	1151269	keystroke	Key.enter	n/a
575.761	8.6955	1151522	prompt	n/a	newsletters locks clark districts\n
576.9695	0.105	1153939	keystroke	n	n/a
577.0895	0.18	1154179	keystroke	e	n/a
577.51	0.105	1155020	keystroke	w	n/a
577.825	0.105	1155650	keystroke	s	n/a
578.02	0.135	1156040	keystroke	l	n/a
578.3195	0.12	1156639	keystroke	e	n/a
578.6645	0.06	1157329	keystroke	t	n/a
578.7995	0.12	1157599	keystroke	t	n/a
578.9945	0.09	1157989	keystroke	e	n/a
579.0695	0.12	1158139	keystroke	r	n/a
579.2945	0.105	1158589	keystroke	Key.space	n/a
579.7445	0.12	1159489	keystroke	Key.backspace	n/a
579.8795	0.105	1159759	keystroke	s	n/a
580.0745	0.09	1160149	keystroke	Key.space	n/a
580.2695	0.09	1160539	keystroke	l	n/a
580.4495	0.105	1160899	keystroke	o	n/a
580.5695	0.1055	1161139	keystroke	c	n/a
580.675	0.135	1161350	keystroke	k	n/a
580.855	0.105	1161710	keystroke	s	n/a
580.975	0.12	1161950	keystroke	Key.space	n/a
581.23	0.105	1162460	keystroke	c	n/a
581.35	0.135	1162700	keystroke	l	n/a
581.544	0.18	1163088	keystroke	a	n/a
581.71	0.075	1163420	keystroke	r	n/a
582.009	0.196	1164018	keystroke	k	n/a
582.13	0.15	1164260	keystroke	Key.space	n/a
582.535	0.105	1165070	keystroke	d	n/a
582.685	0.135	1165370	keystroke	i	n/a
582.835	0.135	1165670	keystroke	s	n/a
583.105	0.12	1166210	keystroke	t	n/a
583.36	0.09	1166720	keystroke	r	n/a
583.525	0.165	1167050	keystroke	i	n/a
583.705	0.105	1167410	keystroke	c	n/a
583.93	0.12	1167860	keystroke	t	n/a
584.14	0.075	1168280	keystroke	s	n/a
584.349	0.1055	1168698	keystroke	Key.enter	n/a
584.4615	7.135	1168923	prompt	n/a	followed stamps ctrl folk\n
585.3545	0.09	1170709	keystroke	f	n/a
585.4745	0.09	1170949	keystroke	o	n/a
585.6995	0.075	1171399	keystroke	l	n/a
585.8645	0.075	1171729	keystroke	l	n/a
586.0445	0.09	1172089	keystroke	o	n/a
586.1795	0.075	1172359	keystroke	w	n/a
586.2995	0.045	1172599	keystroke	e	n/a
586.4795	0.075	1172959	keystroke	d	n/a
586.6295	0.135	1173259	keystroke	Key.space	n/a
587.14	0.149	1174280	keystroke	s	n/a
587.305	0.09	1174610	keystroke	t	n/a
587.485	0.12	1174970	keystroke	a	n/a
587.71	0.21	1175420	keystroke	m	n/a
587.86	0.135	1175720	keystroke	p	n/a
588.04	0.135	1176080	keystroke	s	n/a
588.235	0.12	1176470	keystroke	Key.space	n/a
588.594	0.136	1177188	keystroke	c	n/a
589.015	0.075	1178030	keystroke	t	n/a
589.21	0.09	1178420	keystroke	r	n/a
589.375	0.135	1178750	keystroke	o	n/a
589.99	0.09	1179980	keystroke	Key.backspace	n/a
590.23	0.149	1180460	keystroke	l	n/a
590.3495	0.1495	1180699	keystroke	Key.space	n/a
590.71	0.1195	1181420	keystroke	f	n/a
590.844	0.075	1181688	keystroke	o	n/a
591.0095	0.0905	1182019	keystroke	l	n/a
591.114	0.151	1182228	keystroke	k	n/a
591.475	0.12	1182950	keystroke	Key.enter	n/a
591.5995	8.337	1183199	prompt	n/a	niagara widespread followed employ\n
592.5545	0.1655	1185109	keystroke	n	n/a
592.735	0.18	1185470	keystroke	i	n/a
593.1245	0.1205	1186249	keystroke	a	n/a
593.3495	0.12	1186699	keystroke	g	n/a
593.5595	0.1945	1187119	keystroke	a	n/a
593.7695	0.1045	1187539	keystroke	r	n/a
593.9195	0.1205	1187839	keystroke	a	n/a
594.129	0.12	1188258	keystroke	Key.space	n/a
594.4	0.105	1188800	keystroke	w	n/a
594.67	0.135	1189340	keystroke	i	n/a
594.835	0.09	1189670	keystroke	d	n/a
595.03	0.09	1190060	keystroke	e	n/a
595.255	0.105	1190510	keystroke	s	n/a
595.48	0.12	1190960	keystroke	p	n/a
595.645	0.165	1191290	keystroke	r	n/a
595.78	0.135	1191560	keystroke	e	n/a
596.155	0.1495	1192310	keystroke	a	n/a
596.3495	0.09	1192699	keystroke	d	n/a
596.5445	0.165	1193089	keystroke	Key.space	n/a
596.7695	0.105	1193539	keystroke	f	n/a
596.9045	0.105	1193809	keystroke	o	n/a
597.1295	0.09	1194259	keystroke	l	n/a
597.2945	0.09	1194589	keystroke	l	n/a
597.4895	0.105	1194979	keystroke	o	n/a
597.5795	0.105	1195159	keystroke	w	n/a
597.6995	0.1055	1195399	keystroke	e	n/a
597.925	0.09	1195850	keystroke	d	n/a
598.105	0.135	1196210	keystroke	Key.space	n/a
598.5695	0.09	1197139	keystroke	e	n/a
598.7045	0.195	1197409	keystroke	m	n/a
598.9005	0.104	1197801	keystroke	p	n/a
599.0495	0.1655	1198099	keystroke	l	n/a
599.32	0.09	1198640	keystroke	o	n/a
599.5	0.135	1199000	keystroke	y	n/a
599.83	0.105	1199660	keystroke	Key.enter	n/a
599.939	11.502	1199878	prompt	n/a	addition balanced photography epinions\n
600.7755	0.119	1201551	keystroke	a	n/a
600.9845	0.075	1201969	keystroke	d	n/a
601.1345	0.105	1202269	keystroke	d	n/a
601.3445	0.135	1202689	keystroke	i	n/a
601.5245	0.105	1203049	keystroke	t	n/a
601.6305	0.194	1203261	keystroke	i	n/a
601.8545	0.1505	1203709	keystroke	o	n/a
601.975	0.135	1203950	keystroke	n	n/a
602.29	0.15	1204580	keystroke	Key.space	n/a
602.875	0.105	1205750	keystroke	b	n/a
603.07	0.135	1206140	keystroke	a	n/a
603.19	0.12	1206380	keystroke	l	n/a
603.385	0.12	1206770	keystroke	a	n/a
603.52	0.135	1207040	keystroke	n	n/a
603.685	0.09	1207370	keystroke	c	n/a
603.895	0.0595	1207790	keystroke	e	n/a
604.0745	0.09	1208149	keystroke	d	n/a
604.2095	0.1355	1208419	keystroke	Key.space	n/a
604.6295	0.12	1209259	keystroke	p	n/a
604.8545	0.105	1209709	keystroke	h	n/a
606.13	0.12	1212260	keystroke	o	n/a
606.3095	0.105	1212619	keystroke	t	n/a
606.4595	0.105	1212919	keystroke	o	n/a
606.7445	0.06	1213489	keystroke	g	n/a
606.9245	0.09	1213849	keystroke	r	n/a
607.0595	0.12	1214119	keystroke	a	n/a
607.2395	0.135	1214479	keystroke	p	n/a
607.4045	0.105	1214809	keystroke	h	n/a
607.5845	0.1345	1215169	keystroke	y	n/a
608.274	0.1505	1216548	keystroke	Key.space	n/a
608.7695	0.045	1217539	keystroke	e	n/a
608.9495	0.135	1217899	keystroke	p	n/a
609.2345	0.18	1218469	keystroke	i	n/a
610.345	0.135	1220690	keystroke	n	n/a
610.5995	0.135	1221199	keystroke	i	n/a
610.7795	0.18	1221559	keystroke	o	n/a
610.9445	0.135	1221889	keystroke	n	n/a
611.1395	0.09	1222279	keystroke	s	n/a
611.3345	0.105	1222669	keystroke	Key.enter	n/a
611.444	11.502	1222888	prompt	n/a	nightmare compound specifics ceremony\n
612.3695	0.06	1224739	keystroke	n	n/a
612.4595	0.135	1224919	keystroke	i	n/a
612.6395	0.12	1225279	keystroke	g	n/a
612.774	0.136	1225548	keystroke	h	n/a
612.894	0.091	1225788	keystroke	t	n/a
613.464	0.135	1226928	keystroke	m	n/a
613.584	0.18	1227168	keystroke	a	n/a
613.749	0.151	1227498	keystroke	r	n/a
613.915	0.0745	1227830	keystroke	e	n/a
614.0045	0.15	1228009	keystroke	Key.space	n/a
614.2595	0.1045	1228519	keystroke	c	n/a
614.409	0.12	1228818	keystroke	o	n/a
614.844	0.15	1229688	keystroke	m	n/a
615.0395	0.2095	1230079	keystroke	p	n/a
615.4895	0.1055	1230979	keystroke	o	n/a
615.565	0.105	1231130	keystroke	u	n/a
616.045	0.06	1232090	keystroke	d	n/a
616.5545	0.09	1233109	keystroke	Key.backspace	n/a
616.7945	0.0905	1233589	keystroke	n	n/a
