onset	duration	sample	value	key	prompt_text
1.816	13.282	3632	prompt	n/a	the quick brown fox jumps over a lazy dog\n
5.1385	0.013	10277	keystroke_t	t	n/a
5.196	0.061	10392	keystroke_h	h	n/a
5.361	0.0755	10722	keystroke_i	i	n/a
5.691	0.0605	11382	keystroke_c	c	n/a
5.8685	0.0905	11737	keystroke_k	k	n/a
6.3485	0.0605	12697	keystroke_Key.backspace	Key.backspace	n/a
6.5435	0.09	13087	keystroke_Key.backspace	Key.backspace	n/a
6.739	0.0745	13478	keystroke_Key.backspace	Key.backspace	n/a
6.9035	0.0605	13807	keystroke_e	e	n/a
7.0385	0.1055	14077	keystroke_Key.space	Key.space	n/a
7.3835	0.076	14767	keystroke_q	q	n/a
7.4895	0.0745	14979	keystroke_u	u	n/a
7.759	0.076	15518	keystroke_i	i	n/a
8.0445	0.045	16089	keystroke_c	c	n/a
8.1345	0.09	16269	keystroke_k	k	n/a
8.435	0.0895	16870	keystroke_Key.space	Key.space	n/a
8.615	0.075	17230	keystroke_b	b	n/a
8.8255	0.0595	17651	keystroke_r	r	n/a
8.9595	0.0755	17919	keystroke_o	o	n/a
9.125	0.0745	18250	keystroke_w	w	n/a
9.2595	0.075	18519	keystroke_n	n	n/a
9.5445	0.09	19089	keystroke_Key.space	Key.space	n/a
9.7705	0.09	19541	keystroke_f	f	n/a
9.9195	0.091	19839	keystroke_o	o	n/a
10.1445	0.076	20289	keystroke_x	x	n/a
10.3095	0.105	20619	keystroke_Key.space	Key.space	n/a
10.5495	0.1055	21099	keystroke_j	j	n/a
10.8205	0.075	21641	keystroke_u	u	n/a
11.075	0.09	22150	keystroke_m	m	n/a
11.255	0.105	22510	keystroke_p	p	n/a
11.45	0.1055	22900	keystroke_s	s	n/a
11.72	0.1345	23440	keystroke_Key.space	Key.space	n/a
11.9445	0.076	23889	keystroke_o	o	n/a
12.0495	0.09	24099	keystroke_v	v	n/a
12.26	0.1205	24520	keystroke_e	e	n/a
12.32	0.075	24640	keystroke_r	r	n/a
12.44	0.12	24880	keystroke_Key.space	Key.space	n/a
12.635	0.1055	25270	keystroke_a	a	n/a
12.9795	0.105	25959	keystroke_Key.space	Key.space	n/a
13.1905	0.1195	26381	keystroke_l	l	n/a
13.4155	0.104	26831	keystroke_a	a	n/a
13.7595	0.09	27519	keystroke_z	z	n/a
14.0295	0.061	28059	keystroke_y	y	n/a
14.285	0.0595	28570	keystroke_Key.space	Key.space	n/a
14.4655	0.075	28931	keystroke_d	d	n/a
14.5845	0.0755	29169	keystroke_o	o	n/a
14.7645	0.0605	29529	keystroke_g	g	n/a
15.035	0.06	30070	keystroke_Key.enter	Key.enter	n/a
15.105	10.9715	30210	prompt	n/a	import median adjustments cloth\n
15.8605	0.089	31721	keystroke_i	i	n/a
16.0255	0.0745	32051	keystroke_m	m	n/a
16.1745	0.1205	32349	keystroke_p	p	n/a
16.415	0.0905	32830	keystroke_o	o	n/a
16.565	0.075	33130	keystroke_r	r	n/a
16.76	0.06	33520	keystroke_t	t	n/a
16.85	0.075	33700	keystroke_Key.space	Key.space	n/a
17.4955	0.074	34991	keystroke_m	m	n/a
17.6595	0.06	35319	keystroke_e	e	n/a
17.8545	0.09	35709	keystroke_d	d	n/a
17.9895	0.076	35979	keystroke_i	i	n/a
18.1855	0.0895	36371	keystroke_a	a	n/a
18.3195	0.0755	36639	keystroke_n	n	n/a
18.544	0.09	37088	keystroke_Key.space	Key.space	n/a
18.9505	0.09	37901	keystroke_a	a	n/a
19.1755	0.06	38351	keystroke_d	d	n/a
19.3255	0.075	38651	keystroke_j	j	n/a
19.5505	0.0595	39101	keystroke_u	u	n/a
19.715	0.09	39430	keystroke_s	s	n/a
19.865	0.09	39730	keystroke_t	t	n/a
20.12	0.1055	40240	keystroke_m	m	n/a
20.285	0.09	40570	keystroke_e	e	n/a
20.42	0.075	40840	keystroke_n	n	n/a
20.57	0.09	41140	keystroke_t	t	n/a
20.78	0.09	41560	keystroke_s	s	n/a
20.93	0.105	41860	keystroke_Key.space	Key.space	n/a
21.755	0.075	43510	keystroke_l	l	n/a
21.98	0.0605	43960	keystroke_o	o	n/a
22.37	0.0595	44740	keystroke_Key.backspace	Key.backspace	n/a
22.5645	0.0755	45129	keystroke_Key.backspace	Key.backspace	n/a
22.7305	0.074	45461	keystroke_c	c	n/a
22.865	0.1055	45730	keystroke_l	l	n/a
23.1505	0.089	46301	keystroke_o	o	n/a
23.3745	0.061	46749	keystroke_t	t	n/a
23.5545	0.061	47109	keystroke_h	h	n/a
26.0625	0.012	52125	keystroke_Key.enter	Key.enter	n/a
26.081	12.059	52162	prompt	n/a	you're informal observed case\n
27.095	0.075	54190	keystroke_y	y	n/a
27.215	0.12	54430	keystroke_o	o	n/a
27.38	0.0755	54760	keystroke_u	u	n/a
27.6205	0.105	55241	keystroke_'	'	n/a
27.845	0.075	55690	keystroke_r	r	n/a
27.875	0.09	55750	keystroke_e	e	n/a
28.04	0.06	56080	keystroke_Key.space	Key.space	n/a
28.385	0.06	56770	keystroke_i	i	n/a
28.52	0.105	57040	keystroke_n	n	n/a
28.775	0.0745	57550	keystroke_f	f	n/a
28.94	0.1055	57880	keystroke_o	o	n/a
29.0305	0.0595	58061	keystroke_r	r	n/a
29.24	0.09	58480	keystroke_m	m	n/a
29.6305	0.104	59261	keystroke_a	a	n/a
29.7945	0.091	59589	keystroke_l	l	n/a
30.0645	0.06	60129	keystroke_Key.space	Key.space	n/a
30.3795	0.076	60759	keystroke_o	o	n/a
30.5745	0.075	61149	keystroke_v	v	n/a
30.785	0.0605	61570	keystroke_e	e	n/a
30.9055	0.075	61811	keystroke_r	r	n/a
31.325	0.045	62650	keystroke_Key.backspace	Key.backspace	n/a
31.505	0.0605	63010	keystroke_Key.backspace	Key.backspace	n/a
31.7	0.075	63400	keystroke_Key.backspace	Key.backspace	n/a
31.745	0.075	63490	keystroke_b	b	n/a
31.955	0.06	63910	keystroke_e	e	n/a
32.225	0.075	64450	keystroke_s	s	n/a
32.45	0.0305	64900	keystroke_e	e	n/a
32.4655	0.0295	64931	keystroke_r	r	n/a
32.7655	0.044	65531	keystroke_Key.backspace	Key.backspace	n/a
32.9455	0.0595	65891	keystroke_Key.backspace	Key.backspace	n/a
33.125	0.0745	66250	keystroke_Key.backspace	Key.backspace	n/a
33.44	0.075	66880	keystroke_Key.backspace	Key.backspace	n/a
33.6055	0.134	67211	keystroke_s	s	n/a
33.7255	0.119	67451	keystroke_e	e	n/a
33.8455	0.0745	67691	keystroke_r	r	n/a
34.1445	0.091	68289	keystroke_v	v	n/a
34.505	0.0605	69010	keystroke_e	e	n/a
34.7155	0.075	69431	keystroke_d	d	n/a
34.9545	0.1055	69909	keystroke_Key.space	Key.space	n/a
35.2255	0.0895	70451	keystroke_c	c	n/a
35.4055	0.089	70811	keystroke_a	a	n/a
35.5555	0.12	71111	keystroke_s	s	n/a
35.885	0.0605	71770	keystroke_e	e	n/a
38.137	0.001	76274	keystroke_Key.enter	Key.enter	n/a
38.145	6.907	76290	prompt	n/a	davis portable leisure winner\n
38.8405	0.075	77681	keystroke_d	d	n/a
39.0055	0.075	78011	keystroke_a	a	n/a
39.2155	0.075	78431	keystroke_v	v	n/a
39.3955	0.0745	78791	keystroke_i	i	n/a
39.5155	0.0895	79031	keystroke_s	s	n/a
39.71	0.105	79420	keystroke_Key.space	Key.space	n/a
40.055	0.0905	80110	keystroke_p	p	n/a
40.2505	0.075	80501	keystroke_o	o	n/a
40.4305	0.09	80861	keystroke_r	r	n/a
40.6555	0.075	81311	keystroke_t	t	n/a
40.835	0.0755	81670	keystroke_a	a	n/a
41.0605	0.06	82121	keystroke_b	b	n/a
41.1955	0.075	82391	keystroke_l	l	n/a
41.3455	0.03	82691	keystroke_e	e	n/a
41.4355	0.0895	82871	keystroke_Key.space	Key.space	n/a
41.6755	0.09	83351	keystroke_l	l	n/a
41.945	0.0605	83890	keystroke_e	e	n/a
42.1855	0.074	84371	keystroke_i	i	n/a
42.5905	0.075	85181	keystroke_s	s	n/a
42.8755	0.0745	85751	keystroke_u	u	n/a
43.0705	0.089	86141	keystroke_r	r	n/a
43.1445	0.09	86289	keystroke_e	e	n/a
43.3095	0.106	86619	keystroke_Key.space	Key.space	n/a
43.565	0.0755	87130	keystroke_w	w	n/a
43.6695	0.09	87339	keystroke_i	i	n/a
43.8955	0.075	87791	keystroke_n	n	n/a
44.0905	0.075	88181	keystroke_n	n	n/a
44.2245	0.09	88449	keystroke_e	e	n/a
44.3605	0.075	88721	keystroke_r	r	n/a
44.9905	0.0595	89981	keystroke_Key.enter	Key.enter	n/a
45.0575	9.8345	90115	prompt	n/a	bind charge marriott mobility\n
45.9355	0.0595	91871	keystroke_b	b	n/a
46.0555	0.0595	92111	keystroke_i	i	n/a
46.2055	0.09	92411	keystroke_n	n	n/a
46.34	0.075	92680	keystroke_d	d	n/a
46.5045	0.105	93009	keystroke_Key.space	Key.space	n/a
46.7745	0.06	93549	keystroke_c	c	n/a
46.9095	0.076	93819	keystroke_h	h	n/a
47.0005	0.06	94001	keystroke_a	a	n/a
47.1355	0.09	94271	keystroke_r	r	n/a
47.435	0.06	94870	keystroke_g	g	n/a
47.57	0.06	95140	keystroke_e	e	n/a
47.705	0.105	95410	keystroke_Key.space	Key.space	n/a
47.991	0.104	95982	keystroke_m	m	n/a
48.185	0.0755	96370	keystroke_a	a	n/a
48.32	0.105	96640	keystroke_r	r	n/a
48.6355	0.06	97271	keystroke_r	r	n/a
48.8305	0.105	97661	keystroke_i	i	n/a
49.0255	0.09	98051	keystroke_o	o	n/a
49.4155	0.0745	98831	keystroke_t	t	n/a
49.7155	0.075	99431	keystroke_t	t	n/a
50.2105	0.105	100421	keystroke_Key.space	Key.space	n/a
50.4505	0.09	100901	keystroke_m	m	n/a
50.631	0.0745	101262	keystroke_o	o	n/a
50.9595	0.0755	101919	keystroke_b	b	n/a
51.0955	0.074	102191	keystroke_i	i	n/a
51.471	0.0895	102942	keystroke_i	i	n/a
52.4305	0.09	104861	keystroke_Key.backspace	Key.backspace	n/a
53.0755	0.119	106151	keystroke_l	l	n/a
53.2995	0.136	106599	keystroke_i	i	n/a
53.5855	0.075	107171	keystroke_t	t	n/a
53.72	0.0605	107440	keystroke_y	y	n/a
54.8155	0.075	109631	keystroke_Key.enter	Key.enter	n/a
54.897	19.9305	109794	prompt	n/a	facilities attractive voip postcards\n
56.1955	0.09	112391	keystroke_f	f	n/a
56.3455	0.09	112691	keystroke_a	a	n/a
56.5855	0.06	113171	keystroke_c	c	n/a
56.7655	0.0745	113531	keystroke_i	i	n/a
56.9605	0.0895	113921	keystroke_l	l	n/a
57.1255	0.0745	114251	keystroke_i	i	n/a
57.4105	0.0745	114821	keystroke_t	t	n/a
57.5455	0.09	115091	keystroke_i	i	n/a
57.905	0.0755	115810	keystroke_e	e	n/a
58.1	0.075	116200	keystroke_s	s	n/a
58.31	0.105	116620	keystroke_Key.space	Key.space	n/a
58.8505	0.0905	117701	keystroke_a	a	n/a
59.1805	0.075	118361	keystroke_t	t	n/a
59.856	0.074	119712	keystroke_t	t	n/a
60.11	0.0755	120220	keystroke_r	r	n/a
60.29	0.0755	120580	keystroke_a	a	n/a
60.515	0.06	121030	keystroke_c	c	n/a
60.725	0.0755	121450	keystroke_t	t	n/a
60.92	0.046	121840	keystroke_i	i	n/a
61.2945	0.075	122589	keystroke_v	v	n/a
61.4605	0.059	122921	keystroke_e	e	n/a
68.3325	0.103	136665	keystroke_Key.space	Key.space	n/a
69.8605	0.0905	139721	keystroke_v	v	n/a
70.1455	0.1055	140291	keystroke_o	o	n/a
70.475	0.0755	140950	keystroke_i	i	n/a
70.6855	0.0895	141371	keystroke_p	p	n/a
71.2255	0.1195	142451	keystroke_Key.space	Key.space	n/a
71.676	0.1045	143352	keystroke_p	p	n/a
71.8705	0.0905	143741	keystroke_o	o	n/a
72.0205	0.075	144041	keystroke_s	s	n/a
72.1855	0.075	144371	keystroke_t	t	n/a
72.5305	0.0895	145061	keystroke_c	c	n/a
72.74	0.106	145480	keystroke_a	a	n/a
73.416	0.075	146832	keystroke_r	r	n/a
73.701	0.059	147402	keystroke_d	d	n/a
73.911	0.075	147822	keystroke_s	s	n/a
74.766	0.0595	149532	keystroke_Key.enter	Key.enter	n/a
74.8415	15.6765	149683	prompt	n/a	specifications drops handhelds evaluations\n
75.71	0.075	151420	keystroke_s	s	n/a
75.876	0.075	151752	keystroke_e	e	n/a
75.9655	0.1055	151931	keystroke_p	p	n/a
76.4905	0.06	152981	keystroke_Key.backspace	Key.backspace	n/a
76.7005	0.075	153401	keystroke_Key.backspace	Key.backspace	n/a
76.8955	0.105	153791	keystroke_p	p	n/a
77.046	0.105	154092	keystroke_e	e	n/a
77.271	0.075	154542	keystroke_c	c	n/a
77.5995	0.076	155199	keystroke_f	f	n/a
77.886	0.074	155772	keystroke_i	i	n/a
78.44	0.045	156880	keystroke_Key.backspace	Key.backspace	n/a
78.62	0.06	157240	keystroke_Key.backspace	Key.backspace	n/a
78.861	0.059	157722	keystroke_i	i	n/a
78.875	0.03	157750	keystroke_f	f	n/a
79.8205	0.075	159641	keystroke_i	i	n/a
80.2105	0.09	160421	keystroke_c	c	n/a
80.4205	0.075	160841	keystroke_a	a	n/a
80.6755	0.015	161351	keystroke_t	t	n/a
80.7055	0.075	161411	keystroke_i	i	n/a
80.7655	0.165	161531	keystroke_o	o	n/a
80.9605	0.09	161921	keystroke_n	n	n/a
81.0955	0.09	162191	keystroke_s	s	n/a
81.275	0.105	162550	keystroke_Key.space	Key.space	n/a
81.8905	0.06	163781	keystroke_d	d	n/a
82.041	0.074	164082	keystroke_r	r	n/a
82.16	0.105	164320	keystroke_o	o	n/a
82.3255	0.1195	164651	keystroke_p	p	n/a
82.5055	0.09	165011	keystroke_s	s	n/a
82.7145	0.1205	165429	keystroke_Key.space	Key.space	n/a
83.5555	0.045	167111	keystroke_h	h	n/a
83.691	0.0895	167382	keystroke_a	a	n/a
83.8255	0.06	167651	keystroke_n	n	n/a
83.9905	0.0595	167981	keystroke_d	d	n/a
84.4405	0.0595	168881	keystroke_l	l	n/a
84.8755	0.075	169751	keystroke_Key.backspace	Key.backspace	n/a
85.1	0.075	170200	keystroke_h	h	n/a
85.295	0.075	170590	keystroke_e	e	n/a
85.446	0.0745	170892	keystroke_l	l	n/a
85.7155	0.075	171431	keystroke_d	d	n/a
85.9555	0.075	171911	keystroke_s	s	n/a
86.1805	0.12	172361	keystroke_Key.space	Key.space	n/a
87.096	0.0745	174192	keystroke_e	e	n/a
87.485	0.015	174970	keystroke_v	v	n/a
87.6955	0.06	175391	keystroke_a	a	n/a
88.2655	0.06	176531	keystroke_l	l	n/a
88.475	0.06	176950	keystroke_u	u	n/a
88.79	0.166	177580	keystroke_a	a	n/a
89	0.09	178000	keystroke_t	t	n/a
89.105	0.09	178210	keystroke_i	i	n/a
89.18	0.1655	178360	keystroke_o	o	n/a
89.3905	0.09	178781	keystroke_n	n	n/a
89.6155	0.09	179231	keystroke_s	s	n/a
90.4995	0.016	180999	keystroke_Key.enter	Key.enter	n/a
90.526	8.6905	181052	prompt	n/a	echo hewlett round olympus\n
91.445	0.045	182890	keystroke_e	e	n/a
91.64	0.075	183280	keystroke_c	c	n/a
91.775	0.06	183550	keystroke_h	h	n/a
91.91	0.09	183820	keystroke_o	o	n/a
92.135	0.135	184270	keystroke_Key.space	Key.space	n/a
92.54	0.0605	185080	keystroke_h	h	n/a
92.72	0.075	185440	keystroke_e	e	n/a
92.81	0.1205	185620	keystroke_w	w	n/a
93.035	0.0755	186070	keystroke_l	l	n/a
93.2905	0.075	186581	keystroke_e	e	n/a
93.5455	0.06	187091	keystroke_t	t	n/a
93.7105	0.075	187421	keystroke_t	t	n/a
93.8305	0.12	187661	keystroke_Key.space	Key.space	n/a
94.2505	0.075	188501	keystroke_r	r	n/a
94.3855	0.075	188771	keystroke_o	o	n/a
94.5505	0.06	189101	keystroke_u	u	n/a
94.7755	0.075	189551	keystroke_n	n	n/a
94.9405	0.0755	189881	keystroke_d	d	n/a
95.1205	0.089	190241	keystroke_Key.space	Key.space	n/a
95.825	0.0905	191650	keystroke_o	o	n/a
96.1405	0.09	192281	keystroke_l	l	n/a
96.6055	0.09	193211	keystroke_y	y	n/a
96.9205	0.104	193841	keystroke_m	m	n/a
97.475	0.075	194950	keystroke_b	b	n/a
98.045	0.075	196090	keystroke_Key.backspace	Key.backspace	n/a
98.2855	0.104	196571	keystroke_p	p	n/a
98.4945	0.06	196989	keystroke_u	u	n/a
98.6595	0.075	197319	keystroke_s	s	n/a
99.155	0.0595	198310	keystroke_Key.enter	Key.enter	n/a
99.2235	12.0385	198447	prompt	n/a	timeline exempt widescreen attached\n
100.31	0.0755	200620	keystroke_t	t	n/a
100.4	0.09	200800	keystroke_i	i	n/a
100.565	0.105	201130	keystroke_m	m	n/a
100.7005	0.0745	201401	keystroke_e	e	n/a
100.8805	0.0895	201761	keystroke_l	l	n/a
101.0305	0.075	202061	keystroke_i	i	n/a
101.195	0.075	202390	keystroke_n	n	n/a
101.2855	0.0595	202571	keystroke_e	e	n/a
101.495	0.105	202990	keystroke_Key.space	Key.space	n/a
102.035	0.075	204070	keystroke_e	e	n/a
102.2455	0.09	204491	keystroke_x	x	n/a
102.8455	0.074	205691	keystroke_e	e	n/a
103.01	0.1045	206020	keystroke_m	m	n/a
103.2355	0.104	206471	keystroke_p	p	n/a
103.7745	0.075	207549	keystroke_t	t	n/a
104.5695	0.076	209139	keystroke_Key.space	Key.space	n/a
105.1255	0.059	210251	keystroke_w	w	n/a
105.2595	0.09	210519	keystroke_i	i	n/a
105.41	0.0895	210820	keystroke_d	d	n/a
105.7105	0.045	211421	keystroke_e	e	n/a
106.46	0.09	212920	keystroke_s	s	n/a
106.7	0.06	213400	keystroke_c	c	n/a
106.8955	0.0745	213791	keystroke_r	r	n/a
107.2095	0.045	214419	keystroke_e	e	n/a
107.3595	0.06	214719	keystroke_e	e	n/a
107.5095	0.061	215019	keystroke_n	n	n/a
107.7045	0.105	215409	keystroke_Key.space	Key.space	n/a
107.9	0.09	215800	keystroke_a	a	n/a
108.1255	0.075	216251	keystroke_t	t	n/a
108.3205	0.075	216641	keystroke_t	t	n/a
108.515	0.0755	217030	keystroke_a	a	n/a
108.7255	0.06	217451	keystroke_c	c	n/a
108.8605	0.075	217721	keystroke_h	h	n/a
109.0255	0.0745	218051	keystroke_e	e	n/a
109.2355	0.06	218471	keystroke_d	d	n/a
111.185	0.075	222370	keystroke_Key.enter	Key.enter	n/a
111.268	9.088	222536	prompt	n/a	something brutal assault filter\n
112.205	0.09	224410	keystroke_s	s	n/a
112.325	0.0905	224650	keystroke_o	o	n/a
112.475	0.1055	224950	keystroke_m	m	n/a
112.6255	0.06	225251	keystroke_e	e	n/a
112.8795	0.06	225759	keystroke_t	t	n/a
112.9705	0.105	225941	keystroke_h	h	n/a
113.1195	0.09	226239	keystroke_i	i	n/a
113.2555	0.1195	226511	keystroke_n	n	n/a
113.36	0.075	226720	keystroke_g	g	n/a
113.5095	0.09	227019	keystroke_Key.space	Key.space	n/a
113.7495	0.06	227499	keystroke_b	b	n/a
113.945	0.105	227890	keystroke_r	r	n/a
114.125	0.0755	228250	keystroke_u	u	n/a
114.3805	0.0745	228761	keystroke_t	t	n/a
114.575	0.09	229150	keystroke_a	a	n/a
114.7555	0.0595	229511	keystroke_l	l	n/a
114.95	0.105	229900	keystroke_Key.space	Key.space	n/a
115.2205	0.09	230441	keystroke_a	a	n/a
115.43	0.0605	230860	keystroke_s	s	n/a
115.5945	0.075	231189	keystroke_s	s	n/a
115.82	0.075	231640	keystroke_a	a	n/a
115.97	0.0605	231940	keystroke_u	u	n/a
116.4955	0.0745	232991	keystroke_l	l	n/a
116.66	0.0755	233320	keystroke_t	t	n/a
116.885	0.12	233770	keystroke_Key.space	Key.space	n/a
117.1995	0.0755	234399	keystroke_f	f	n/a
117.3355	0.075	234671	keystroke_i	i	n/a
117.5455	0.09	235091	keystroke_l	l	n/a
117.7705	0.059	235541	keystroke_t	t	n/a
117.9355	0.0445	235871	keystroke_e	e	n/a
117.98	0.09	235960	keystroke_r	r	n/a
120.3525	0.001	240705	keystroke_Key.enter	Key.enter	n/a
120.361	11.931	240722	prompt	n/a	reports luggage advertisers relevant\n
121.4905	0.075	242981	keystroke_r	r	n/a
121.5505	0.09	243101	keystroke_e	e	n/a
121.7005	0.12	243401	keystroke_p	p	n/a
121.9255	0.0745	243851	keystroke_o	o	n/a
122.135	0.0895	244270	keystroke_r	r	n/a
122.345	0.0755	244690	keystroke_t	t	n/a
122.5245	0.076	245049	keystroke_s	s	n/a
122.6145	0.1205	245229	keystroke_Key.space	Key.space	n/a
122.7955	0.105	245591	keystroke_l	l	n/a
123.065	0.045	246130	keystroke_u	u	n/a
123.2305	0.075	246461	keystroke_g	g	n/a
123.4255	0.0745	246851	keystroke_g	g	n/a
123.7405	0.075	247481	keystroke_a	a	n/a
123.98	0.075	247960	keystroke_g	g	n/a
124.13	0.0755	248260	keystroke_e	e	n/a
124.4	0.09	248800	keystroke_Key.space	Key.space	n/a
124.7	0.0605	249400	keystroke_d	d	n/a
124.8945	0.076	249789	keystroke_a	a	n/a
125.42	0.045	250840	keystroke_Key.backspace	Key.backspace	n/a
125.6005	0.09	251201	keystroke_Key.backspace	Key.backspace	n/a
125.6755	0.105	251351	keystroke_a	a	n/a
125.9005	0.0605	251801	keystroke_d	d	n/a
126.2305	0.06	252461	keystroke_v	v	n/a
126.4105	0.03	252821	keystroke_e	e	n/a
126.4555	0.075	252911	keystroke_r	r	n/a
126.7705	0.075	253541	keystroke_t	t	n/a
126.9505	0.045	253901	keystroke_i	i	n/a
127.655	0.0905	255310	keystroke_s	s	n/a
128.5105	0.0895	257021	keystroke_e	e	n/a
128.63	0.0905	257260	keystroke_r	r	n/a
128.915	0.0605	257830	keystroke_s	s	n/a
129.095	0.1045	258190	keystroke_Key.space	Key.space	n/a
129.515	0.09	259030	keystroke_r	r	n/a
129.6205	0.105	259241	keystroke_e	e	n/a
129.83	0.0905	259660	keystroke_l	l	n/a
130.0255	0.045	260051	keystroke_e	e	n/a
130.5045	0.076	261009	keystroke_v	v	n/a
130.6405	0.09	261281	keystroke_a	a	n/a
130.7895	0.076	261579	keystroke_n	n	n/a
130.9555	0.075	261911	keystroke_t	t	n/a
132.215	0.075	264430	keystroke_Key.enter	Key.enter	n/a
132.3065	6.6455	264613	prompt	n/a	love aids handed prison\n
133.1005	0.0895	266201	keystroke_l	l	n/a
133.31	0.0755	266620	keystroke_o	o	n/a
133.4	0.0755	266800	keystroke_v	v	n/a
133.5655	0.06	267131	keystroke_e	e	n/a
134.27	0.105	268540	keystroke_Key.space	Key.space	n/a
134.5405	0.105	269081	keystroke_a	a	n/a
134.795	0.0755	269590	keystroke_i	i	n/a
134.945	0.0755	269890	keystroke_d	d	n/a
135.155	0.0755	270310	keystroke_s	s	n/a
135.35	0.105	270700	keystroke_Key.space	Key.space	n/a
136.1155	0.06	272231	keystroke_h	h	n/a
136.2655	0.09	272531	keystroke_a	a	n/a
136.4755	0.06	272951	keystroke_n	n	n/a
136.745	0.12	273490	keystroke_d	d	n/a
137.0155	0.0595	274031	keystroke_e	e	n/a
137.18	0.075	274360	keystroke_d	d	n/a
137.36	0.105	274720	keystroke_Key.space	Key.space	n/a
137.705	0.1055	275410	keystroke_p	p	n/a
137.8405	0.0745	275681	keystroke_r	r	n/a
137.975	0.105	275950	keystroke_i	i	n/a
138.17	0.09	276340	keystroke_s	s	n/a
138.3205	0.09	276641	keystroke_o	o	n/a
138.5155	0.0595	277031	keystroke_n	n	n/a
138.8905	0.0595	277781	keystroke_Key.enter	Key.enter	n/a
138.9565	8.1395	277913	prompt	n/a	flags identical kenya club\n
139.8655	0.09	279731	keystroke_f	f	n/a
139.9855	0.074	279971	keystroke_l	l	n/a
140.1205	0.1045	280241	keystroke_a	a	n/a
140.525	0.075	281050	keystroke_g	g	n/a
140.72	0.075	281440	keystroke_s	s	n/a
140.84	0.105	281680	keystroke_Key.space	Key.space	n/a
141.0955	0.0745	282191	keystroke_i	i	n/a
141.35	0.0755	282700	keystroke_d	d	n/a
141.56	0.06	283120	keystroke_e	e	n/a
141.725	0.075	283450	keystroke_n	n	n/a
141.995	0.0755	283990	keystroke_t	t	n/a
142.145	0.09	284290	keystroke_i	i	n/a
142.4	0.09	284800	keystroke_c	c	n/a
142.565	0.09	285130	keystroke_a	a	n/a
142.7305	0.0745	285461	keystroke_l	l	n/a
142.94	0.09	285880	keystroke_Key.space	Key.space	n/a
143.585	0.0755	287170	keystroke_k	k	n/a
143.81	0.06	287620	keystroke_e	e	n/a
143.96	0.09	287920	keystroke_n	n	n/a
144.53	0.0455	289060	keystroke_y	y	n/a
144.6805	0.09	289361	keystroke_a	a	n/a
145.04	0.09	290080	keystroke_Key.space	Key.space	n/a
145.3845	0.06	290769	keystroke_c	c	n/a
145.505	0.0905	291010	keystroke_l	l	n/a
145.73	0.06	291460	keystroke_u	u	n/a
146.0455	0.074	292091	keystroke_b	b	n/a
147.035	0.06	294070	keystroke_Key.enter	Key.enter	n/a
147.109	9.1225	294218	prompt	n/a	semester riverside lewis password\n
147.89	0.0605	295780	keystroke_s	s	n/a
148.0405	0.1045	296081	keystroke_e	e	n/a
148.175	0.0605	296350	keystroke_m	m	n/a
148.52	0.0905	297040	keystroke_e	e	n/a
148.76	0.1055	297520	keystroke_s	s	n/a
148.9245	0.076	297849	keystroke_t	t	n/a
149.1055	0.044	298211	keystroke_e	e	n/a
149.1505	0.09	298301	keystroke_r	r	n/a
149.2995	0.1055	298599	keystroke_Key.space	Key.space	n/a
149.6	0.075	299200	keystroke_r	r	n/a
149.81	0.0605	299620	keystroke_i	i	n/a
150.2755	0.0745	300551	keystroke_v	v	n/a
150.5	0.045	301000	keystroke_e	e	n/a
150.515	0.09	301030	keystroke_r	r	n/a
151.1145	0.106	302229	keystroke_s	s	n/a
151.3255	0.045	302651	keystroke_i	i	n/a
151.4305	0.075	302861	keystroke_d	d	n/a
151.625	0.045	303250	keystroke_e	e	n/a
151.76	0.0905	303520	keystroke_Key.space	Key.space	n/a
152.06	0.0905	304120	keystroke_l	l	n/a
152.2095	0.09	304419	keystroke_e	e	n/a
152.4205	0.0895	304841	keystroke_w	w	n/a
152.7955	0.09	305591	keystroke_i	i	n/a
152.975	0.09	305950	keystroke_s	s	n/a
153.17	0.09	306340	keystroke_Key.space	Key.space	n/a
153.47	0.105	306940	keystroke_p	p	n/a
153.6655	0.09	307331	keystroke_a	a	n/a
153.8745	0.06	307749	keystroke_s	s	n/a
154.04	0.0905	308080	keystroke_s	s	n/a
154.325	0.0745	308650	keystroke_w	w	n/a
154.52	0.075	309040	keystroke_o	o	n/a
154.64	0.075	309280	keystroke_r	r	n/a
154.8505	0.059	309701	keystroke_d	d	n/a
156.1695	0.0605	312339	keystroke_Key.enter	Key.enter	n/a
156.2355	9.626	312471	prompt	n/a	harbor fotos stuck alarm\n
157.1305	0.044	314261	keystroke_h	h	n/a
157.2495	0.09	314499	keystroke_a	a	n/a
157.3705	0.0895	314741	keystroke_r	r	n/a
157.715	0.075	315430	keystroke_b	b	n/a
157.8355	0.0595	315671	keystroke_o	o	n/a
158.2255	0.0895	316451	keystroke_a	a	n/a
158.9	0.045	317800	keystroke_Key.backspace	Key.backspace	n/a
159.08	0.06	318160	keystroke_Key.backspace	Key.backspace	n/a
159.7255	0.09	319451	keystroke_o	o	n/a
159.9495	0.076	319899	keystroke_r	r	n/a
160.25	0.09	320500	keystroke_Key.space	Key.space	n/a
160.925	0.075	321850	keystroke_f	f	n/a
161.3155	0.075	322631	keystroke_o	o	n/a
161.5395	0.0905	323079	keystroke_t	t	n/a
161.825	0.0755	323650	keystroke_o	o	n/a
162.125	0.09	324250	keystroke_s	s	n/a
162.365	0.09	324730	keystroke_Key.space	Key.space	n/a
162.605	0.105	325210	keystroke_s	s	n/a
162.845	0.06	325690	keystroke_t	t	n/a
163.0105	0.045	326021	keystroke_u	u	n/a
163.2205	0.0445	326441	keystroke_c	c	n/a
163.355	0.075	326710	keystroke_k	k	n/a
163.655	0.09	327310	keystroke_Key.space	Key.space	n/a
163.925	0.0755	327850	keystroke_a	a	n/a
164.255	0.0895	328510	keystroke_l	l	n/a
164.45	0.12	328900	keystroke_a	a	n/a
164.6295	0.09	329259	keystroke_r	r	n/a
164.8095	0.076	329619	keystroke_m	m	n/a
165.7545	0.1055	331509	keystroke_Key.enter	Key.enter	n/a
165.8665	13.1965	331733	prompt	n/a	stake realized theoretical genetics\n
166.8355	0.149	333671	keystroke_s	s	n/a
167.375	0.075	334750	keystroke_t	t	n/a
167.525	0.09	335050	keystroke_a	a	n/a
167.675	0.075	335350	keystroke_k	k	n/a
167.8705	0.0445	335741	keystroke_e	e	n/a
167.99	0.09	335980	keystroke_Key.space	Key.space	n/a
168.635	0.075	337270	keystroke_r	r	n/a
168.695	0.135	337390	keystroke_e	e	n/a
168.905	0.0895	337810	keystroke_a	a	n/a
169.0555	0.0895	338111	keystroke_l	l	n/a
169.2795	0.09	338559	keystroke_i	i	n/a
169.505	0.06	339010	keystroke_z	z	n/a
169.8645	0.076	339729	keystroke_e	e	n/a
170.075	0.0895	340150	keystroke_d	d	n/a
170.1945	0.1205	340389	keystroke_Key.space	Key.space	n/a
170.54	0.0745	341080	keystroke_t	t	n/a
170.675	0.06	341350	keystroke_h	h	n/a
170.84	0.075	341680	keystroke_e	e	n/a
171.17	0.075	342340	keystroke_o	o	n/a
171.815	0.0905	343630	keystroke_r	r	n/a
172.1595	0.045	344319	keystroke_e	e	n/a
173	0.075	346000	keystroke_t	t	n/a
173.315	0.105	346630	keystroke_i	i	n/a
173.6755	0.119	347351	keystroke_c	c	n/a
173.9	0.06	347800	keystroke_a	a	n/a
174.0205	0.0745	348041	keystroke_l	l	n/a
174.275	0.105	348550	keystroke_Key.space	Key.space	n/a
174.725	0.09	349450	keystroke_g	g	n/a
174.935	0.06	349870	keystroke_e	e	n/a
175.0705	0.075	350141	keystroke_n	n	n/a
175.2205	0.075	350441	keystroke_e	e	n/a
175.7	0.0755	351400	keystroke_t	t	n/a
175.865	0.075	351730	keystroke_i	i	n/a
176.045	0.075	352090	keystroke_c	c	n/a
176.315	0.03	352630	keystroke_s	s	n/a
179.0605	0	358121	keystroke_Key.enter	Key.enter	n/a
179.0665	10.5105	358133	prompt	n/a	rise reserve mechanical gore\n
179.99	0.0745	359980	keystroke_r	r	n/a
180.1105	0.0895	360221	keystroke_i	i	n/a
180.275	0.09	360550	keystroke_s	s	n/a
180.47	0.06	360940	keystroke_e	e	n/a
180.605	0.09	361210	keystroke_Key.space	Key.space	n/a
181.4005	0.0745	362801	keystroke_r	r	n/a
181.46	0.12	362920	keystroke_e	e	n/a
181.8195	0.105	363639	keystroke_s	s	n/a
181.955	0.105	363910	keystroke_e	e	n/a
182.045	0.075	364090	keystroke_r	r	n/a
182.3305	0.0745	364661	keystroke_v	v	n/a
182.9	0.06	365800	keystroke_e	e	n/a
183.185	0.089	366370	keystroke_Key.space	Key.space	n/a
183.8895	0.1055	367779	keystroke_m	m	n/a
184.115	0.075	368230	keystroke_e	e	n/a
184.595	0.075	369190	keystroke_c	c	n/a
184.8195	0.061	369639	keystroke_h	h	n/a
185.12	0.075	370240	keystroke_a	a	n/a
185.27	0.075	370540	keystroke_n	n	n/a
185.705	0.075	371410	keystroke_i	i	n/a
185.93	0.0755	371860	keystroke_c	c	n/a
186.035	0.105	372070	keystroke_a	a	n/a
186.2	0.0595	372400	keystroke_l	l	n/a
186.4095	0.105	372819	keystroke_Key.space	Key.space	n/a
186.9355	0.0895	373871	keystroke_g	g	n/a
187.1305	0.0745	374261	keystroke_o	o	n/a
187.31	0.075	374620	keystroke_r	r	n/a
187.445	0.09	374890	keystroke_e	e	n/a
189.4995	0.0755	378999	keystroke_Key.enter	Key.enter	n/a
189.5835	6.5335	379167	prompt	n/a	oxford loss yearly receive\n
190.61	0.09	381220	keystroke_o	o	n/a
190.82	0.09	381640	keystroke_x	x	n/a
191.21	0.0905	382420	keystroke_f	f	n/a
191.3595	0.0755	382719	keystroke_o	o	n/a
191.48	0.074	382960	keystroke_r	r	n/a
191.735	0.0605	383470	keystroke_d	d	n/a
191.915	0.09	383830	keystroke_Key.space	Key.space	n/a
192.1695	0.105	384339	keystroke_l	l	n/a
192.3945	0.09	384789	keystroke_o	o	n/a
192.6045	0.0605	385209	keystroke_s	s	n/a
192.755	0.09	385510	keystroke_s	s	n/a
192.9045	0.12	385809	keystroke_Key.space	Key.space	n/a
193.28	0.0445	386560	keystroke_y	y	n/a
193.3855	0.0745	386771	keystroke_e	e	n/a
193.535	0.0745	387070	keystroke_a	a	n/a
193.685	0.0905	387370	keystroke_r	r	n/a
193.8495	0.0905	387699	keystroke_l	l	n/a
194.12	0.0445	388240	keystroke_y	y	n/a
194.3595	0.09	388719	keystroke_Key.space	Key.space	n/a
194.615	0.09	389230	keystroke_r	r	n/a
194.69	0.09	389380	keystroke_e	e	n/a
194.975	0.075	389950	keystroke_c	c	n/a
195.185	0.06	390370	keystroke_e	e	n/a
195.35	0.074	390700	keystroke_i	i	n/a
195.5295	0.0605	391059	keystroke_v	v	n/a
195.6795	0.075	391359	keystroke_e	e	n/a
196.0395	0.075	392079	keystroke_Key.enter	Key.enter	n/a
196.122	9.5495	392244	prompt	n/a	goes attempt they're guaranteed\n
196.82	0.074	393640	keystroke_g	g	n/a
196.94	0.075	393880	keystroke_o	o	n/a
197.0745	0.06	394149	keystroke_e	e	n/a
197.2695	0.075	394539	keystroke_s	s	n/a
197.375	0.12	394750	keystroke_Key.space	Key.space	n/a
197.585	0.075	395170	keystroke_a	a	n/a
197.765	0.059	395530	keystroke_t	t	n/a
197.96	0.06	395920	keystroke_t	t	n/a
198.125	0.06	396250	keystroke_e	e	n/a
198.2145	0.075	396429	keystroke_m	m	n/a
198.3645	0.105	396729	keystroke_p	p	n/a
198.665	0.075	397330	keystroke_t	t	n/a
198.994	0.1055	397988	keystroke_Key.space	Key.space	n/a
199.2795	0.075	398559	keystroke_t	t	n/a
199.4145	0.0605	398829	keystroke_h	h	n/a
199.5495	0.06	399099	keystroke_e	e	n/a
200.045	0.045	400090	keystroke_y	y	n/a
200.434	0.121	400868	keystroke_'	'	n/a
200.975	0.089	401950	keystroke_r	r	n/a
201.079	0.076	402158	keystroke_e	e	n/a
201.229	0.1055	402458	keystroke_Key.space	Key.space	n/a
201.62	0.075	403240	keystroke_g	g	n/a
201.74	0.0595	403480	keystroke_u	u	n/a
201.905	0.1045	403810	keystroke_a	a	n/a
202.1145	0.0755	404229	keystroke_r	r	n/a
202.55	0.09	405100	keystroke_a	a	n/a
202.7	0.075	405400	keystroke_n	n	n/a
203.12	0.06	406240	keystroke_t	t	n/a
203.405	0.045	406810	keystroke_e	e	n/a
203.5395	0.09	407079	keystroke_e	e	n/a
203.795	0.0895	407590	keystroke_d	d	n/a
205.5945	0.075	411189	keystroke_Key.enter	Key.enter	n/a
205.6785	10.027	411357	prompt	n/a	reasonable lite october participated\n
206.5405	0.0895	413081	keystroke_r	r	n/a
206.615	0.0745	413230	keystroke_e	e	n/a
206.78	0.105	413560	keystroke_a	a	n/a
207.125	0.09	414250	keystroke_s	s	n/a
207.2745	0.1055	414549	keystroke_o	o	n/a
207.47	0.0745	414940	keystroke_n	n	n/a
207.6345	0.09	415269	keystroke_a	a	n/a
207.8755	0.0595	415751	keystroke_b	b	n/a
207.995	0.09	415990	keystroke_l	l	n/a
208.115	0.06	416230	keystroke_e	e	n/a
208.235	0.104	416470	keystroke_Key.space	Key.space	n/a
208.46	0.075	416920	keystroke_l	l	n/a
208.61	0.09	417220	keystroke_i	i	n/a
208.7445	0.0755	417489	keystroke_t	t	n/a
208.954	0.061	417908	keystroke_e	e	n/a
209.149	0.09	418298	keystroke_Key.space	Key.space	n/a
209.54	0.0745	419080	keystroke_o	o	n/a
209.8245	0.06	419649	keystroke_c	c	n/a
210.05	0.0755	420100	keystroke_t	t	n/a
210.2	0.1045	420400	keystroke_o	o	n/a
210.4545	0.075	420909	keystroke_b	b	n/a
210.68	0.0445	421360	keystroke_e	e	n/a
210.74	0.0745	421480	keystroke_r	r	n/a
210.8895	0.105	421779	keystroke_Key.space	Key.space	n/a
211.145	0.09	422290	keystroke_p	p	n/a
211.265	0.09	422530	keystroke_a	a	n/a
211.4	0.1345	422800	keystroke_r	r	n/a
211.64	0.075	423280	keystroke_t	t	n/a
211.775	0.0745	423550	keystroke_i	i	n/a
211.985	0.075	423970	keystroke_c	c	n/a
212.27	0.105	424540	keystroke_i	i	n/a
212.6	0.075	425200	keystroke_p	p	n/a
212.8245	0.091	425649	keystroke_a	a	n/a
213.0355	0.104	426071	keystroke_t	t	n/a
213.185	0.09	426370	keystroke_e	e	n/a
213.38	0.075	426760	keystroke_d	d	n/a
215.692	0.012	431384	keystroke_Key.enter	Key.enter	n/a
215.7085	5.9075	431417	prompt	n/a	debate reporter would moore\n
216.56	0.075	433120	keystroke_d	d	n/a
216.74	0.075	433480	keystroke_e	e	n/a
216.979	0.0905	433958	keystroke_b	b	n/a
217.1595	0.0755	434319	keystroke_a	a	n/a
217.28	0.089	434560	keystroke_t	t	n/a
217.475	0.03	434950	keystroke_e	e	n/a
217.5945	0.105	435189	keystroke_Key.space	Key.space	n/a
217.835	0.06	435670	keystroke_r	r	n/a
217.895	0.09	435790	keystroke_e	e	n/a
218.029	0.121	436058	keystroke_p	p	n/a
218.255	0.075	436510	keystroke_o	o	n/a
218.389	0.076	436778	keystroke_r	r	n/a
218.599	0.061	437198	keystroke_t	t	n/a
218.795	0.0445	437590	keystroke_e	e	n/a
218.8545	0.0905	437709	keystroke_r	r	n/a
219.079	0.075	438158	keystroke_Key.space	Key.space	n/a
219.59	0.0745	439180	keystroke_w	w	n/a
219.6945	0.06	439389	keystroke_o	o	n/a
219.86	0.06	439720	keystroke_u	u	n/a
219.995	0.1045	439990	keystroke_l	l	n/a
220.115	0.0595	440230	keystroke_d	d	n/a
220.28	0.0445	440560	keystroke_Key.space	Key.space	n/a
220.49	0.075	440980	keystroke_m	m	n/a
220.7295	0.09	441459	keystroke_o	o	n/a
220.955	0.045	441910	keystroke_o	o	n/a
221.06	0.0745	442120	keystroke_r	r	n/a
221.2095	0.0905	442419	keystroke_e	e	n/a
221.5395	0.0755	443079	keystroke_Key.enter	Key.enter	n/a
221.6195	12.282	443239	prompt	n/a	nickname predicted powered cartridge\n
222.3805	0.074	444761	keystroke_n	n	n/a
222.575	0.06	445150	keystroke_i	i	n/a
222.7545	0.0755	445509	keystroke_c	c	n/a
222.8895	0.0755	445779	keystroke_k	k	n/a
223.4745	0.1055	446949	keystroke_n	n	n/a
223.655	0.1045	447310	keystroke_a	a	n/a
223.8945	0.12	447789	keystroke_m	m	n/a
224.075	0.0595	448150	keystroke_e	e	n/a
224.2545	0.105	448509	keystroke_Key.space	Key.space	n/a
224.51	0.1045	449020	keystroke_p	p	n/a
224.6445	0.0755	449289	keystroke_r	r	n/a
224.6895	0.0755	449379	keystroke_e	e	n/a
225.1245	0.0605	450249	keystroke_d	d	n/a
225.26	0.075	450520	keystroke_i	i	n/a
225.5745	0.09	451149	keystroke_c	c	n/a
225.8	0.0745	451600	keystroke_t	t	n/a
226.0105	0.0745	452021	keystroke_e	e	n/a
226.2045	0.0755	452409	keystroke_d	d	n/a
226.3245	0.105	452649	keystroke_Key.space	Key.space	n/a
226.5345	0.1205	453069	keystroke_p	p	n/a
226.7145	0.0755	453429	keystroke_w	w	n/a
226.82	0.09	453640	keystroke_o	o	n/a
227.3295	0.045	454659	keystroke_Key.backspace	Key.backspace	n/a
227.5095	0.0755	455019	keystroke_Key.backspace	Key.backspace	n/a
227.72	0.075	455440	keystroke_o	o	n/a
227.87	0.075	455740	keystroke_w	w	n/a
228.05	0.075	456100	keystroke_e	e	n/a
228.14	0.135	456280	keystroke_r	r	n/a
228.47	0.0895	456940	keystroke_e	e	n/a
228.6795	0.06	457359	keystroke_d	d	n/a
228.8745	0.0905	457749	keystroke_Key.space	Key.space	n/a
229.31	0.075	458620	keystroke_c	c	n/a
229.444	0.09	458888	keystroke_a	a	n/a
229.58	0.09	459160	keystroke_r	r	n/a
229.8645	0.075	459729	keystroke_t	t	n/a
230.2695	0.075	460539	keystroke_r	r	n/a
230.4495	0.076	460899	keystroke_i	i	n/a
230.9145	0.075	461829	keystroke_g	g	n/a
231.455	0.0595	462910	keystroke_Key.backspace	Key.backspace	n/a
231.545	0.09	463090	keystroke_d	d	n/a
231.754	0.0755	463508	keystroke_g	g	n/a
231.905	0.06	463810	keystroke_e	e	n/a
233.8245	0.0745	467649	keystroke_Key.enter	Key.enter	n/a
233.9055	10.256	467811	prompt	n/a	jungle decide posting boat\n
234.815	0.0595	469630	keystroke_j	j	n/a
234.995	0.074	469990	keystroke_u	u	n/a
235.2345	0.105	470469	keystroke_m	m	n/a
235.46	0.09	470920	keystroke_p	p	n/a
235.9995	0.06	471999	keystroke_Key.backspace	Key.backspace	n/a
236.1945	0.06	472389	keystroke_Key.backspace	Key.backspace	n/a
236.4345	0.075	472869	keystroke_n	n	n/a
236.93	0.075	473860	keystroke_g	g	n/a
237.05	0.075	474100	keystroke_l	l	n/a
237.17	0.075	474340	keystroke_e	e	n/a
237.32	0.105	474640	keystroke_Key.space	Key.space	n/a
237.635	0.06	475270	keystroke_d	d	n/a
237.8	0.06	475600	keystroke_e	e	n/a
238.0095	0.0755	476019	keystroke_c	c	n/a
238.19	0.0595	476380	keystroke_i	i	n/a
238.3845	0.0605	476769	keystroke_d	d	n/a
238.5795	0.0455	477159	keystroke_e	e	n/a
238.6695	0.105	477339	keystroke_Key.space	Key.space	n/a
238.91	0.1195	477820	keystroke_p	p	n/a
239.09	0.0895	478180	keystroke_o	o	n/a
239.27	0.0445	478540	keystroke_s	s	n/a
239.3745	0.0905	478749	keystroke_t	t	n/a
239.5395	0.105	479079	keystroke_i	i	n/a
239.72	0.0895	479440	keystroke_n	n	n/a
239.8395	0.075	479679	keystroke_g	g	n/a
239.9595	0.105	479919	keystroke_Key.space	Key.space	n/a
240.215	0.0745	480430	keystroke_b	b	n/a
240.3495	0.075	480699	keystroke_o	o	n/a
240.4395	0.09	480879	keystroke_a	a	n/a
240.575	0.09	481150	keystroke_r	r	n/a
241.1895	0.0595	482379	keystroke_Key.backspace	Key.backspace	n/a
241.325	0.059	482650	keystroke_t	t	n/a
244.1175	0.0425	488235	keystroke_Key.enter	Key.enter	n/a
244.1665	11.98	488333	prompt	n/a	rogers cave accessing rotary\n
245.375	0.09	490750	keystroke_r	r	n/a
245.48	0.0295	490960	keystroke_e	e	n/a
245.5395	0.075	491079	keystroke_o	o	n/a
246.1245	0.045	492249	keystroke_Key.backspace	Key.backspace	n/a
246.32	0.0445	492640	keystroke_Key.backspace	Key.backspace	n/a
246.5745	0.0755	493149	keystroke_o	o	n/a
246.83	0.0895	493660	keystroke_g	g	n/a
246.9945	0.06	493989	keystroke_e	e	n/a
247.04	0.0895	494080	keystroke_r	r	n/a
247.31	0.105	494620	keystroke_s	s	n/a
247.459	0.121	494918	keystroke_Key.space	Key.space	n/a
247.775	0.09	495550	keystroke_c	c	n/a
247.91	0.1045	495820	keystroke_a	a	n/a
248.4045	0.0605	496809	keystroke_v	v	n/a
248.5695	0.06	497139	keystroke_e	e	n/a
248.719	0.105	497438	keystroke_Key.space	Key.space	n/a
248.945	0.0895	497890	keystroke_a	a	n/a
249.1995	0.0755	498399	keystroke_c	c	n/a
249.3945	0.0605	498789	keystroke_d	d	n/a
249.62	0.045	499240	keystroke_e	e	n/a
250.1895	0.0595	500379	keystroke_Key.backspace	Key.backspace	n/a
250.369	0.0905	500738	keystroke_Key.backspace	Key.backspace	n/a
250.4745	0.0905	500949	keystroke_e	e	n/a
250.745	0.06	501490	keystroke_s	s	n/a
251.1945	0.06	502389	keystroke_Key.backspace	Key.backspace	n/a
251.3895	0.075	502779	keystroke_Key.backspace	Key.backspace	n/a
251.51	0.0745	503020	keystroke_c	c	n/a
251.7345	0.06	503469	keystroke_e	e	n/a
252.0795	0.045	504159	keystroke_s	s	n/a
252.229	0.09	504458	keystroke_s	s	n/a
252.4095	0.0455	504819	keystroke_i	i	n/a
252.5295	0.105	505059	keystroke_n	n	n/a
252.6495	0.06	505299	keystroke_g	g	n/a
252.7845	0.09	505569	keystroke_Key.space	Key.space	n/a
253.1	0.0745	506200	keystroke_r	r	n/a
253.2195	0.0905	506439	keystroke_o	o	n/a
254.165	0.075	508330	keystroke_t	t	n/a
254.3445	0.075	508689	keystroke_a	a	n/a
254.495	0.09	508990	keystroke_r	r	n/a
254.795	0.044	509590	keystroke_y	y	n/a
256.0695	0.075	512139	keystroke_Key.enter	Key.enter	n/a
256.151	8.2155	512302	prompt	n/a	needs disorder regime parcel\n
256.91	0.0595	513820	keystroke_n	n	n/a
257.075	0.06	514150	keystroke_e	e	n/a
257.255	0.06	514510	keystroke_e	e	n/a
257.465	0.06	514930	keystroke_d	d	n/a
257.645	0.075	515290	keystroke_s	s	n/a
257.764	0.091	515528	keystroke_Key.space	Key.space	n/a
258.065	0.045	516130	keystroke_d	d	n/a
258.365	0.075	516730	keystroke_i	i	n/a
258.605	0.0745	517210	keystroke_s	s	n/a
259.07	0.0745	518140	keystroke_o	o	n/a
259.2205	0.089	518441	keystroke_r	r	n/a
259.5495	0.075	519099	keystroke_d	d	n/a
259.76	0.045	519520	keystroke_e	e	n/a
259.85	0.075	519700	keystroke_r	r	n/a
259.955	0.105	519910	keystroke_Key.space	Key.space	n/a
260.225	0.09	520450	keystroke_r	r	n/a
260.33	0.075	520660	keystroke_e	e	n/a
260.63	0.06	521260	keystroke_g	g	n/a
260.795	0.074	521590	keystroke_i	i	n/a
261.1245	0.12	522249	keystroke_m	m	n/a
261.65	0.0595	523300	keystroke_e	e	n/a
261.904	0.0605	523808	keystroke_Key.space	Key.space	n/a
262.324	0.0905	524648	keystroke_p	p	n/a
262.459	0.091	524918	keystroke_a	a	n/a
262.625	0.075	525250	keystroke_r	r	n/a
262.97	0.06	525940	keystroke_c	c	n/a
263.18	0.06	526360	keystroke_e	e	n/a
263.285	0.06	526570	keystroke_l	l	n/a
264.289	0.076	528578	keystroke_Key.enter	Key.enter	n/a
264.371	8.455	528742	prompt	n/a	writing components heavily smile\n
265.25	0.044	530500	keystroke_w	w	n/a
265.445	0.0745	530890	keystroke_r	r	n/a
265.745	0.0895	531490	keystroke_i	i	n/a
265.999	0.075	531998	keystroke_t	t	n/a
266.119	0.091	532238	keystroke_i	i	n/a
266.284	0.0905	532568	keystroke_n	n	n/a
266.4045	0.0755	532809	keystroke_g	g	n/a
266.5245	0.1045	533049	keystroke_Key.space	Key.space	n/a
266.854	0.0755	533708	keystroke_c	c	n/a
266.944	0.106	533888	keystroke_o	o	n/a
267.11	0.105	534220	keystroke_m	m	n/a
267.2745	0.1505	534549	keystroke_p	p	n/a
267.68	0.1045	535360	keystroke_o	o	n/a
268.16	0.1045	536320	keystroke_n	n	n/a
268.64	0.0745	537280	keystroke_e	e	n/a
268.8045	0.0755	537609	keystroke_n	n	n/a
268.925	0.075	537850	keystroke_t	t	n/a
269.1795	0.075	538359	keystroke_s	s	n/a
269.3745	0.12	538749	keystroke_Key.space	Key.space	n/a
269.8545	0.0605	539709	keystroke_h	h	n/a
269.9895	0.075	539979	keystroke_e	e	n/a
270.14	0.074	540280	keystroke_a	a	n/a
270.4545	0.09	540909	keystroke_v	v	n/a
270.7095	0.09	541419	keystroke_i	i	n/a
270.9805	0.0895	541961	keystroke_l	l	n/a
271.235	0.0745	542470	keystroke_y	y	n/a
271.489	0.09	542978	keystroke_Key.space	Key.space	n/a
271.684	0.09	543368	keystroke_s	s	n/a
271.789	0.0905	543578	keystroke_m	m	n/a
271.999	0.076	543998	keystroke_i	i	n/a
272.179	0.091	544358	keystroke_l	l	n/a
272.36	0.0745	544720	keystroke_e	e	n/a
272.7645	0.06	545529	keystroke_Key.enter	Key.enter	n/a
272.8305	8.56	545661	prompt	n/a	graph relative plenty freeware\n
273.6645	0.075	547329	keystroke_g	g	n/a
273.8595	0.075	547719	keystroke_r	r	n/a
273.995	0.1045	547990	keystroke_a	a	n/a
274.1445	0.105	548289	keystroke_p	p	n/a
274.34	0.075	548680	keystroke_h	h	n/a
274.714	0.106	549428	keystroke_Key.space	Key.space	n/a
275.045	0.09	550090	keystroke_r	r	n/a
275.15	0.0895	550300	keystroke_e	e	n/a
275.36	0.075	550720	keystroke_l	l	n/a
275.5245	0.076	551049	keystroke_a	a	n/a
275.6895	0.09	551379	keystroke_t	t	n/a
275.84	0.0895	551680	keystroke_i	i	n/a
276.05	0.0445	552100	keystroke_v	v	n/a
276.14	0.0895	552280	keystroke_e	e	n/a
276.3345	0.075	552669	keystroke_Key.space	Key.space	n/a
277.2045	0.1195	554409	keystroke_p	p	n/a
277.4895	0.0895	554979	keystroke_l	l	n/a
277.7905	0.0745	555581	keystroke_e	e	n/a
277.925	0.075	555850	keystroke_n	n	n/a
278.225	0.0745	556450	keystroke_t	t	n/a
278.435	0.0595	556870	keystroke_y	y	n/a
278.6595	0.09	557319	keystroke_Key.space	Key.space	n/a
278.9145	0.075	557829	keystroke_f	f	n/a
279.095	0.0895	558190	keystroke_r	r	n/a
279.4845	0.0605	558969	keystroke_e	e	n/a
279.7095	0.075	559419	keystroke_e	e	n/a
280.2795	0.0895	560559	keystroke_w	w	n/a
280.4745	0.0905	560949	keystroke_a	a	n/a
280.6395	0.1045	561279	keystroke_r	r	n/a
280.7595	0.0745	561519	keystroke_e	e	n/a
281.3145	0.075	562629	keystroke_Key.enter	Key.enter	n/a
281.3935	10.2605	562787	prompt	n/a	harvey tucson indicate ages\n
282.304	0.061	564608	keystroke_h	h	n/a
282.4695	0.0595	564939	keystroke_a	a	n/a
282.574	0.091	565148	keystroke_r	r	n/a
282.889	0.076	565778	keystroke_v	v	n/a
283.1	0.075	566200	keystroke_e	e	n/a
283.25	0.045	566500	keystroke_y	y	n/a
283.505	0.089	567010	keystroke_Key.space	Key.space	n/a
284.4195	0.075	568839	keystroke_t	t	n/a
284.5545	0.075	569109	keystroke_u	u	n/a
284.9745	0.06	569949	keystroke_c	c	n/a
285.965	0.075	571930	keystroke_s	s	n/a
286.069	0.091	572138	keystroke_o	o	n/a
286.234	0.091	572468	keystroke_n	n	n/a
286.444	0.106	572888	keystroke_Key.space	Key.space	n/a
286.67	0.059	573340	keystroke_i	i	n/a
286.819	0.0905	573638	keystroke_n	n	n/a
287.0295	0.0745	574059	keystroke_d	d	n/a
287.27	0.014	574540	keystroke_i	i	n/a
287.3295	0.0755	574659	keystroke_c	c	n/a
287.4945	0.0605	574989	keystroke_a	a	n/a
287.645	0.075	575290	keystroke_t	t	n/a
287.8245	0.075	575649	keystroke_e	e	n/a
288.0795	0.105	576159	keystroke_Key.space	Key.space	n/a
288.3345	0.0895	576669	keystroke_a	a	n/a
288.53	0.089	577060	keystroke_g	g	n/a
288.71	0.074	577420	keystroke_e	e	n/a
288.92	0.075	577840	keystroke_s	s	n/a
291.651	0.001	583302	keystroke_Key.enter	Key.enter	n/a
291.6575	12.8035	583315	prompt	n/a	existing huntington cable attitudes\n
292.429	0.0455	584858	keystroke_e	e	n/a
292.6095	0.09	585219	keystroke_x	x	n/a
293.5245	0.09	587049	keystroke_i	i	n/a
293.7195	0.09	587439	keystroke_s	s	n/a
293.87	0.0895	587740	keystroke_t	t	n/a
294.005	0.0895	588010	keystroke_i	i	n/a
294.185	0.0745	588370	keystroke_n	n	n/a
294.2895	0.06	588579	keystroke_g	g	n/a
294.3945	0.105	588789	keystroke_Key.space	Key.space	n/a
294.6645	0.075	589329	keystroke_h	h	n/a
294.875	0.074	589750	keystroke_u	u	n/a
295.0995	0.105	590199	keystroke_n	n	n/a
295.61	0.059	591220	keystroke_t	t	n/a
296.074	0.121	592148	keystroke_i	i	n/a
296.284	0.0905	592568	keystroke_n	n	n/a
296.449	0.09	592898	keystroke_g	g	n/a
296.9	0.09	593800	keystroke_t	t	n/a
296.974	0.0915	593948	keystroke_o	o	n/a
297.199	0.106	594398	keystroke_n	n	n/a
297.4395	0.105	594879	keystroke_Key.space	Key.space	n/a
297.65	0.075	595300	keystroke_c	c	n/a
297.8	0.0745	595600	keystroke_a	a	n/a
298.084	0.075	596168	keystroke_b	b	n/a
298.205	0.075	596410	keystroke_l	l	n/a
298.369	0.061	596738	keystroke_e	e	n/a
298.4895	0.0745	596979	keystroke_Key.space	Key.space	n/a
299.1495	0.1355	598299	keystroke_a	a	n/a
299.42	0.0595	598840	keystroke_t	t	n/a
299.6145	0.075	599229	keystroke_t	t	n/a
299.8095	0.06	599619	keystroke_i	i	n/a
301.6545	0.075	603309	keystroke_t	t	n/a
301.8045	0.06	603609	keystroke_u	u	n/a
302.27	0.0745	604540	keystroke_d	d	n/a
302.45	0.074	604900	keystroke_e	e	n/a
302.659	0.075	605318	keystroke_s	s	n/a
304.3995	0.06	608799	keystroke_Key.enter	Key.enter	n/a
304.4655	6.4455	608931	prompt	n/a	prediction harm beliefs came\n
305.405	0.1195	610810	keystroke_p	p	n/a
305.555	0.1045	611110	keystroke_r	r	n/a
305.6595	0.075	611319	keystroke_e	e	n/a
305.9445	0.075	611889	keystroke_d	d	n/a
306.0645	0.0755	612129	keystroke_i	i	n/a
306.2445	0.045	612489	keystroke_c	c	n/a
306.3645	0.09	612729	keystroke_t	t	n/a
306.5145	0.075	613029	keystroke_i	i	n/a
306.5595	0.15	613119	keystroke_o	o	n/a
306.7695	0.06	613539	keystroke_n	n	n/a
306.9345	0.09	613869	keystroke_Key.space	Key.space	n/a
307.1295	0.06	614259	keystroke_h	h	n/a
307.2045	0.091	614409	keystroke_a	a	n/a
307.34	0.089	614680	keystroke_r	r	n/a
307.5045	0.075	615009	keystroke_m	m	n/a
307.7895	0.09	615579	keystroke_Key.space	Key.space	n/a
308.1795	0.0605	616359	keystroke_b	b	n/a
308.3595	0.06	616719	keystroke_e	e	n/a
308.5395	0.06	617079	keystroke_l	l	n/a
308.705	0.0745	617410	keystroke_i	i	n/a
309.1245	0.0905	618249	keystroke_e	e	n/a
309.3645	0.089	618729	keystroke_f	f	n/a
309.6345	0.0755	619269	keystroke_s	s	n/a
309.7845	0.09	619569	keystroke_Key.space	Key.space	n/a
310.0845	0.0605	620169	keystroke_c	c	n/a
310.189	0.1055	620378	keystroke_a	a	n/a
310.339	0.0605	620678	keystroke_m	m	n/a
310.5345	0.0605	621069	keystroke_e	e	n/a
310.8345	0.075	621669	keystroke_Key.enter	Key.enter	n/a
310.917	7.539	621834	prompt	n/a	suffering seeker radios sunset\n
311.585	0.09	623170	keystroke_s	s	n/a
311.749	0.06	623498	keystroke_u	u	n/a
312.064	0.061	624128	keystroke_f	f	n/a
312.244	0.105	624488	keystroke_f	f	n/a
312.455	0.044	624910	keystroke_e	e	n/a
312.529	0.076	625058	keystroke_r	r	n/a
312.7845	0.075	625569	keystroke_i	i	n/a
312.9195	0.105	625839	keystroke_n	n	n/a
313.0395	0.075	626079	keystroke_g	g	n/a
313.1595	0.09	626319	keystroke_Key.space	Key.space	n/a
313.399	0.0905	626798	keystroke_s	s	n/a
313.6245	0.06	627249	keystroke_e	e	n/a
313.834	0.0755	627668	keystroke_e	e	n/a
313.9695	0.09	627939	keystroke_k	k	n/a
314.2395	0.0595	628479	keystroke_e	e	n/a
314.39	0.06	628780	keystroke_r	r	n/a
314.555	0.074	629110	keystroke_Key.space	Key.space	n/a
315.064	0.075	630128	keystroke_r	r	n/a
315.214	0.075	630428	keystroke_a	a	n/a
315.4545	0.0595	630909	keystroke_d	d	n/a
315.589	0.076	631178	keystroke_i	i	n/a
315.739	0.106	631478	keystroke_o	o	n/a
315.905	0.09	631810	keystroke_s	s	n/a
316.279	0.1205	632558	keystroke_Key.space	Key.space	n/a
316.7595	0.105	633519	keystroke_s	s	n/a
316.9245	0.0745	633849	keystroke_u	u	n/a
317.149	0.091	634298	keystroke_n	n	n/a
317.645	0.09	635290	keystroke_s	s	n/a
317.824	0.091	635648	keystroke_e	e	n/a
317.9895	0.075	635979	keystroke_t	t	n/a
318.3795	0.075	636759	keystroke_Key.enter	Key.enter	n/a
318.46	7.856	636920	prompt	n/a	careful teachers achieving team\n
319.5195	0.0755	639039	keystroke_c	c	n/a
319.64	0.0895	639280	keystroke_a	a	n/a
319.7755	0.104	639551	keystroke_r	r	n/a
319.895	0.014	639790	keystroke_e	e	n/a
320.329	0.1055	640658	keystroke_f	f	n/a
320.5395	0.045	641079	keystroke_u	u	n/a
320.7345	0.06	641469	keystroke_l	l	n/a
320.9295	0.09	641859	keystroke_Key.space	Key.space	n/a
321.3045	0.075	642609	keystroke_t	t	n/a
321.4395	0.1045	642879	keystroke_e	e	n/a
321.604	0.0755	643208	keystroke_a	a	n/a
321.844	0.0755	643688	keystroke_c	c	n/a
322.01	0.059	644020	keystroke_h	h	n/a
322.204	0.06	644408	keystroke_e	e	n/a
322.3095	0.09	644619	keystroke_r	r	n/a
322.5335	0.076	645067	keystroke_s	s	n/a
322.669	0.12	645338	keystroke_Key.space	Key.space	n/a
323.15	0.075	646300	keystroke_a	a	n/a
323.4045	0.0755	646809	keystroke_c	c	n/a
323.5995	0.0595	647199	keystroke_h	h	n/a
323.764	0.0905	647528	keystroke_i	i	n/a
324.0495	0.075	648099	keystroke_e	e	n/a
324.455	0.1045	648910	keystroke_v	v	n/a
324.725	0.0745	649450	keystroke_i	i	n/a
324.8745	0.105	649749	keystroke_n	n	n/a
325.0095	0.075	650019	keystroke_g	g	n/a
325.144	0.1205	650288	keystroke_Key.space	Key.space	n/a
325.4895	0.06	650979	keystroke_t	t	n/a
325.6095	0.105	651219	keystroke_e	e	n/a
325.775	0.0595	651550	keystroke_a	a	n/a
325.8495	0.075	651699	keystroke_m	m	n/a
326.2545	0.06	652509	keystroke_Key.enter	Key.enter	n/a
326.321	6.6245	652642	prompt	n/a	heel customer back cool\n
327.2895	0.06	654579	keystroke_h	h	n/a
327.47	0.06	654940	keystroke_e	e	n/a
327.6345	0.075	655269	keystroke_e	e	n/a
327.725	0.0595	655450	keystroke_l	l	n/a
327.9645	0.09	655929	keystroke_Key.space	Key.space	n/a
328.4745	0.06	656949	keystroke_u	u	n/a
328.909	0.075	657818	keystroke_Key.backspace	Key.backspace	n/a
329.044	0.0755	658088	keystroke_c	c	n/a
329.21	0.0745	658420	keystroke_u	u	n/a
329.4495	0.075	658899	keystroke_s	s	n/a
329.6595	0.075	659319	keystroke_t	t	n/a
329.8095	0.09	659619	keystroke_o	o	n/a
330.0645	0.105	660129	keystroke_m	m	n/a
330.2295	0.06	660459	keystroke_e	e	n/a
330.3045	0.075	660609	keystroke_r	r	n/a
330.5445	0.09	661089	keystroke_Key.space	Key.space	n/a
330.9495	0.0745	661899	keystroke_b	b	n/a
331.1145	0.075	662229	keystroke_a	a	n/a
331.3245	0.075	662649	keystroke_c	c	n/a
331.4145	0.075	662829	keystroke_k	k	n/a
331.6095	0.09	663219	keystroke_Key.space	Key.space	n/a
331.954	0.091	663908	keystroke_c	c	n/a
332.1195	0.075	664239	keystroke_o	o	n/a
332.315	0.0745	664630	keystroke_o	o	n/a
332.5395	0.075	665079	keystroke_l	l	n/a
332.885	0.0595	665770	keystroke_Key.enter	Key.enter	n/a
332.949	7.7075	665898	prompt	n/a	background flags breast fleet\n
333.724	0.075	667448	keystroke_b	b	n/a
333.949	0.151	667898	keystroke_a	a	n/a
334.324	0.0455	668648	keystroke_c	c	n/a
334.459	0.091	668918	keystroke_k	k	n/a
334.8645	0.06	669729	keystroke_g	g	n/a
335.0595	0.075	670119	keystroke_r	r	n/a
335.1495	0.075	670299	keystroke_o	o	n/a
335.315	0.06	670630	keystroke_u	u	n/a
335.5245	0.09	671049	keystroke_n	n	n/a
335.6445	0.06	671289	keystroke_d	d	n/a
335.8845	0.0895	671769	keystroke_Key.space	Key.space	n/a
336.1095	0.0895	672219	keystroke_f	f	n/a
336.259	0.09	672518	keystroke_l	l	n/a
336.394	0.0905	672788	keystroke_a	a	n/a
336.5595	0.105	673119	keystroke_g	g	n/a
336.7995	0.0755	673599	keystroke_s	s	n/a
336.9045	0.1195	673809	keystroke_Key.space	Key.space	n/a
337.2945	0.0905	674589	keystroke_b	b	n/a
337.5345	0.0745	675069	keystroke_r	r	n/a
337.6245	0.0905	675249	keystroke_e	e	n/a
337.789	0.1205	675578	keystroke_a	a	n/a
337.954	0.09	675908	keystroke_s	s	n/a
338.089	0.0905	676178	keystroke_t	t	n/a
338.479	0.075	676958	keystroke_Key.space	Key.space	n/a
338.809	0.09	677618	keystroke_f	f	n/a
339.019	0.075	678038	keystroke_l	l	n/a
339.2595	0.06	678519	keystroke_e	e	n/a
339.4395	0.06	678879	keystroke_e	e	n/a
339.6195	0.0755	679239	keystroke_t	t	n/a
340.5945	0.06	681189	keystroke_Key.enter	Key.enter	n/a
340.6605	10.3905	681321	prompt	n/a	facilities holders validity catholic\n
341.825	0.0895	683650	keystroke_f	f	n/a
341.9595	0.105	683919	keystroke_a	a	n/a
342.215	0.0745	684430	keystroke_c	c	n/a
342.4245	0.075	684849	keystroke_i	i	n/a
342.6945	0.1195	685389	keystroke_l	l	n/a
342.965	0.1195	685930	keystroke_i	i	n/a
343.2495	0.0595	686499	keystroke_t	t	n/a
343.3845	0.09	686769	keystroke_i	i	n/a
343.8045	0.06	687609	keystroke_e	e	n/a
344.015	0.06	688030	keystroke_s	s	n/a
344.2095	0.1045	688419	keystroke_Key.space	Key.space	n/a
344.674	0.06	689348	keystroke_h	h	n/a
344.884	0.0605	689768	keystroke_o	o	n/a
345.139	0.091	690278	keystroke_l	l	n/a
345.274	0.0605	690548	keystroke_d	d	n/a
345.4545	0.0745	690909	keystroke_e	e	n/a
345.5595	0.0905	691119	keystroke_r	r	n/a
345.815	0.089	691630	keystroke_s	s	n/a
345.965	0.119	691930	keystroke_Key.space	Key.space	n/a
346.265	0.089	692530	keystroke_v	v	n/a
346.415	0.105	692830	keystroke_a	a	n/a
346.595	0.089	693190	keystroke_l	l	n/a
346.774	0.105	693548	keystroke_i	i	n/a
346.909	0.06	693818	keystroke_d	d	n/a
347.1645	0.09	694329	keystroke_i	i	n/a
347.3745	0.075	694749	keystroke_t	t	n/a
347.525	0.0435	695050	keystroke_y	y	n/a
347.8685	0.075	695737	keystroke_Key.space	Key.space	n/a
348.155	0.06	696310	keystroke_c	c	n/a
348.3045	0.075	696609	keystroke_a	a	n/a
348.4995	0.075	696999	keystroke_t	t	n/a
348.6645	0.06	697329	keystroke_h	h	n/a
348.9345	0.0895	697869	keystroke_o	o	n/a
349.234	0.0605	698468	keystroke_l	l	n/a
349.415	0.074	698830	keystroke_i	i	n/a
349.6245	0.045	699249	keystroke_c	c	n/a
351.0045	0.045	702009	keystroke_Key.enter	Key.enter	n/a
351.0545	6.972	702109	prompt	n/a	usda maui rising resident\n
351.905	0.059	703810	keystroke_u	u	n/a
352.069	0.0905	704138	keystroke_s	s	n/a
352.4145	0.105	704829	keystroke_d	d	n/a
352.5645	0.105	705129	keystroke_a	a	n/a
352.8195	0.09	705639	keystroke_Key.space	Key.space	n/a
353.299	0.12	706598	keystroke_m	m	n/a
353.554	0.09	707108	keystroke_a	a	n/a
353.9745	0.0595	707949	keystroke_u	u	n/a
354.499	0.09	708998	keystroke_i	i	n/a
354.829	0.0905	709658	keystroke_Key.space	Key.space	n/a
355.2195	0.0895	710439	keystroke_r	r	n/a
355.3845	0.0755	710769	keystroke_i	i	n/a
355.5645	0.075	711129	keystroke_s	s	n/a
355.6995	0.09	711399	keystroke_i	i	n/a
355.8645	0.09	711729	keystroke_n	n	n/a
355.9845	0.074	711969	keystroke_g	g	n/a
356.0895	0.09	712179	keystroke_Key.space	Key.space	n/a
356.3745	0.1045	712749	keystroke_r	r	n/a
356.464	0.0905	712928	keystroke_e	e	n/a
356.7945	0.09	713589	keystroke_s	s	n/a
356.9895	0.075	713979	keystroke_i	i	n/a
357.2735	0.046	714547	keystroke_d	d	n/a
357.4695	0.075	714939	keystroke_e	e	n/a
357.6035	0.076	715207	keystroke_n	n	n/a
357.7235	0.075	715447	keystroke_t	t	n/a
357.9635	0.06	715927	keystroke_Key.enter	Key.enter	n/a
358.031	8.56	716062	prompt	n/a	centre page compressed animated\n
358.8795	0.075	717759	keystroke_c	c	n/a
359.0595	0.06	718119	keystroke_a	a	n/a
359.809	0.045	719618	keystroke_Key.backspace	Key.backspace	n/a
359.914	0.075	719828	keystroke_e	e	n/a
360.0495	0.09	720099	keystroke_n	n	n/a
360.2895	0.075	720579	keystroke_t	t	n/a
360.4695	0.09	720939	keystroke_r	r	n/a
360.8595	0.075	721719	keystroke_e	e	n/a
361.0995	0.09	722199	keystroke_Key.space	Key.space	n/a
361.654	0.0905	723308	keystroke_p	p	n/a
361.7745	0.105	723549	keystroke_a	a	n/a
361.999	0.06	723998	keystroke_g	g	n/a
362.1345	0.075	724269	keystroke_e	e	n/a
362.374	0.075	724748	keystroke_Key.space	Key.space	n/a
363.019	0.0605	726038	keystroke_c	c	n/a
363.1245	0.105	726249	keystroke_o	o	n/a
363.2745	0.105	726549	keystroke_m	m	n/a
363.4835	0.121	726967	keystroke_p	p	n/a
363.6485	0.091	727297	keystroke_r	r	n/a
363.7245	0.089	727449	keystroke_e	e	n/a
364.0095	0.074	728019	keystroke_s	s	n/a
364.1745	0.089	728349	keystroke_s	s	n/a
364.4145	0.075	728829	keystroke_e	e	n/a
364.5945	0.075	729189	keystroke_d	d	n/a
364.7585	0.1055	729517	keystroke_Key.space	Key.space	n/a
364.969	0.0905	729938	keystroke_a	a	n/a
365.119	0.0755	730238	keystroke_n	n	n/a
365.3145	0.06	730629	keystroke_i	i	n/a
365.5545	0.105	731109	keystroke_m	m	n/a
365.7795	0.0895	731559	keystroke_a	a	n/a
365.944	0.091	731888	keystroke_t	t	n/a
366.094	0.09	732188	keystroke_e	e	n/a
366.3045	0.074	732609	keystroke_d	d	n/a
366.529	0.0595	733058	keystroke_Key.enter	Key.enter	n/a
366.5955	13.2255	733191	prompt	n/a	sunglasses replication differences luggage\n
367.2945	0.09	734589	keystroke_s	s	n/a
367.4445	0.0595	734889	keystroke_u	u	n/a
368.149	0.0755	736298	keystroke_n	n	n/a
368.509	0.075	737018	keystroke_g	g	n/a
368.6445	0.09	737289	keystroke_l	l	n/a
368.7635	0.1055	737527	keystroke_a	a	n/a
368.9445	0.075	737889	keystroke_s	s	n/a
369.124	0.0905	738248	keystroke_s	s	n/a
369.3645	0.075	738729	keystroke_e	e	n/a
369.5745	0.09	739149	keystroke_s	s	n/a
369.6795	0.1045	739359	keystroke_Key.space	Key.space	n/a
370.2345	0.089	740469	keystroke_r	r	n/a
370.3095	0.09	740619	keystroke_e	e	n/a
370.5345	0.0895	741069	keystroke_p	p	n/a
370.7445	0.0895	741489	keystroke_l	l	n/a
370.999	0.121	741998	keystroke_i	i	n/a
371.284	0.0755	742568	keystroke_c	c	n/a
371.4335	0.106	742867	keystroke_a	a	n/a
371.6295	0.09	743259	keystroke_t	t	n/a
371.7345	0.105	743469	keystroke_i	i	n/a
371.8245	0.135	743649	keystroke_o	o	n/a
372.0045	0.075	744009	keystroke_n	n	n/a
372.169	0.09	744338	keystroke_Key.space	Key.space	n/a
372.364	0.0605	744728	keystroke_d	d	n/a
372.4845	0.0895	744969	keystroke_i	i	n/a
372.694	0.075	745388	keystroke_f	f	n/a
372.919	0.0605	745838	keystroke_f	f	n/a
373.114	0.0455	746228	keystroke_e	e	n/a
373.219	0.1055	746438	keystroke_r	r	n/a
373.519	0.06	747038	keystroke_e	e	n/a
373.6095	0.0745	747219	keystroke_n	n	n/a
373.939	0.0755	747878	keystroke_c	c	n/a
374.1645	0.06	748329	keystroke_e	e	n/a
374.4345	0.075	748869	keystroke_s	s	n/a
374.644	0.1055	749288	keystroke_Key.space	Key.space	n/a
375.124	0.09	750248	keystroke_l	l	n/a
375.3645	0.075	750729	keystroke_u	u	n/a
375.6045	0.075	751209	keystroke_g	g	n/a
375.8295	0.075	751659	keystroke_g	g	n/a
376.0545	0.074	752109	keystroke_e	e	n/a
376.3085	0.031	752617	keystroke_s	s	n/a
376.864	0.075	753728	keystroke_Key.backspace	Key.backspace	n/a
377.0745	0.0745	754149	keystroke_g	g	n/a
377.209	0.09	754418	keystroke_e	e	n/a
377.5985	0.0605	755197	keystroke_Key.backspace	Key.backspace	n/a
377.7795	0.075	755559	keystroke_Key.backspace	Key.backspace	n/a
377.9885	0.0605	755977	keystroke_Key.backspace	Key.backspace	n/a
378.229	0.0905	756458	keystroke_a	a	n/a
378.4095	0.075	756819	keystroke_g	g	n/a
378.544	0.0605	757088	keystroke_e	e	n/a
379.744	0.075	759488	keystroke_Key.enter	Key.enter	n/a
379.8255	8.485	759651	prompt	n/a	quarterly line deliver swap\n
380.854	0.0745	761708	keystroke_q	q	n/a
380.9435	0.061	761887	keystroke_u	u	n/a
381.1995	0.03	762399	keystroke_e	e	n/a
381.784	0.075	763568	keystroke_Key.backspace	Key.backspace	n/a
381.8745	0.105	763749	keystroke_a	a	n/a
382.0545	0.09	764109	keystroke_r	r	n/a
382.3985	0.076	764797	keystroke_t	t	n/a
382.6395	0.059	765279	keystroke_e	e	n/a
382.714	0.0745	765428	keystroke_r	r	n/a
383.089	0.0895	766178	keystroke_l	l	n/a
383.329	0.06	766658	keystroke_y	y	n/a
383.554	0.09	767108	keystroke_Key.space	Key.space	n/a
383.749	0.0745	767498	keystroke_l	l	n/a
383.884	0.09	767768	keystroke_i	i	n/a
384.1095	0.044	768219	keystroke_v	v	n/a
384.5135	0.061	769027	keystroke_Key.backspace	Key.backspace	n/a
384.723	0.0915	769446	keystroke_n	n	n/a
384.8445	0.09	769689	keystroke_e	e	n/a
385.009	0.09	770018	keystroke_Key.space	Key.space	n/a
385.534	0.0605	771068	keystroke_d	d	n/a
385.699	0.06	771398	keystroke_e	e	n/a
385.879	0.09	771758	keystroke_l	l	n/a
386.0745	0.0745	772149	keystroke_i	i	n/a
386.254	0.06	772508	keystroke_v	v	n/a
386.4195	0.0595	772839	keystroke_e	e	n/a
386.4945	0.075	772989	keystroke_r	r	n/a
386.6435	0.091	773287	keystroke_Key.space	Key.space	n/a
386.8845	0.059	773769	keystroke_s	s	n/a
387.139	0.091	774278	keystroke_w	w	n/a
387.3495	0.0745	774699	keystroke_a	a	n/a
387.514	0.09	775028	keystroke_p	p	n/a
388.2335	0.0755	776467	keystroke_Key.enter	Key.enter	n/a
388.315	8.08	776630	prompt	n/a	verification largest opponent varies\n
389.1345	0.059	778269	keystroke_v	v	n/a
389.3295	0.0445	778659	keystroke_e	e	n/a
389.4045	0.0895	778809	keystroke_r	r	n/a
389.5995	0.075	779199	keystroke_i	i	n/a
389.839	0.06	779678	keystroke_f	f	n/a
389.944	0.09	779888	keystroke_i	i	n/a
390.139	0.0605	780278	keystroke_c	c	n/a
390.2895	0.075	780579	keystroke_a	a	n/a
390.4085	0.09	780817	keystroke_t	t	n/a
390.4845	0.1345	780969	keystroke_i	i	n/a
390.6035	0.135	781207	keystroke_o	o	n/a
390.7835	0.0905	781567	keystroke_n	n	n/a
390.949	0.09	781898	keystroke_Key.space	Key.space	n/a
391.1445	0.075	782289	keystroke_l	l	n/a
391.2495	0.089	782499	keystroke_a	a	n/a
391.3995	0.105	782799	keystroke_r	r	n/a
391.669	0.0595	783338	keystroke_g	g	n/a
391.8345	0.0745	783669	keystroke_e	e	n/a
392.014	0.075	784028	keystroke_s	s	n/a
392.149	0.0755	784298	keystroke_t	t	n/a
392.209	0.135	784418	keystroke_Key.space	Key.space	n/a
392.4345	0.0895	784869	keystroke_o	o	n/a
392.629	0.105	785258	keystroke_p	p	n/a
392.854	0.105	785708	keystroke_p	p	n/a
393.184	0.06	786368	keystroke_n	n	n/a
393.6035	0.061	787207	keystroke_Key.backspace	Key.backspace	n/a
393.8145	0.0895	787629	keystroke_o	o	n/a
393.994	0.0905	787988	keystroke_n	n	n/a
394.324	0.09	788648	keystroke_e	e	n/a
394.474	0.0755	788948	keystroke_n	n	n/a
394.6245	0.06	789249	keystroke_t	t	n/a
394.7885	0.075	789577	keystroke_Key.space	Key.space	n/a
395.044	0.0755	790088	keystroke_v	v	n/a
395.2395	0.075	790479	keystroke_a	a	n/a
395.3295	0.1045	790659	keystroke_r	r	n/a
395.524	0.075	791048	keystroke_i	i	n/a
395.764	0.0595	791528	keystroke_e	e	n/a
395.974	0.0605	791948	keystroke_s	s	n/a
396.3185	0.075	792637	keystroke_Key.enter	Key.enter	n/a
396.3985	6.4325	792797	prompt	n/a	debian says lung there'll\n
397.099	0.0755	794198	keystroke_d	d	n/a
397.2795	0.06	794559	keystroke_e	e	n/a
397.5945	0.0745	795189	keystroke_b	b	n/a
397.744	0.0755	795488	keystroke_i	i	n/a
397.939	0.09	795878	keystroke_a	a	n/a
398.074	0.075	796148	keystroke_n	n	n/a
398.284	0.09	796568	keystroke_Key.space	Key.space	n/a
398.554	0.075	797108	keystroke_s	s	n/a
398.7495	0.0745	797499	keystroke_a	a	n/a
398.8835	0.061	797767	keystroke_y	y	n/a
399.169	0.09	798338	keystroke_Key.space	Key.space	n/a
399.469	0.1045	798938	keystroke_l	l	n/a
399.709	0.0595	799418	keystroke_u	u	n/a
399.9335	0.1055	799867	keystroke_n	n	n/a
400.429	0.075	800858	keystroke_g	g	n/a
400.744	0.1195	801488	keystroke_Key.space	Key.space	n/a
401.0145	0.0745	802029	keystroke_t	t	n/a
401.149	0.06	802298	keystroke_h	h	n/a
401.344	0.045	802688	keystroke_e	e	n/a
401.434	0.09	802868	keystroke_r	r	n/a
401.5545	0.06	803109	keystroke_e	e	n/a
401.6285	0.136	803257	keystroke_'	'	n/a
402.1545	0.074	804309	keystroke_l	l	n/a
402.3485	0.076	804697	keystroke_l	l	n/a
402.769	0.06	805538	keystroke_Key.enter	Key.enter	n/a
402.837	14.469	805674	prompt	n/a	idle refrigerator nikon misc\n
403.8195	0.09	807639	keystroke_i	i	n/a
404.0295	0.075	808059	keystroke_d	d	n/a
404.269	0.0455	808538	keystroke_e	e	n/a
404.329	0.075	808658	keystroke_l	l	n/a
404.599	0.105	809198	keystroke_Key.space	Key.space	n/a
404.8985	0.09	809797	keystroke_r	r	n/a
404.9745	0.1045	809949	keystroke_e	e	n/a
405.349	0.045	810698	keystroke_Key.backspace	Key.backspace	n/a
405.529	0.0595	811058	keystroke_Key.backspace	Key.backspace	n/a
405.7085	0.0605	811417	keystroke_Key.backspace	Key.backspace	n/a
405.904	0.075	811808	keystroke_Key.backspace	Key.backspace	n/a
406.1595	0.075	812319	keystroke_l	l	n/a
406.5345	0.015	813069	keystroke_Key.backspace	Key.backspace	n/a
406.7135	0.075	813427	keystroke_Key.backspace	Key.backspace	n/a
407.044	0.09	814088	keystroke_l	l	n/a
407.4185	0.0305	814837	keystroke_Key.space	Key.space	n/a
407.4935	0.075	814987	keystroke_e	e	n/a
407.854	0.0445	815708	keystroke_Key.backspace	Key.backspace	n/a
408.049	0.0595	816098	keystroke_Key.backspace	Key.backspace	n/a
408.1845	0.074	816369	keystroke_e	e	n/a
408.3345	0.0745	816669	keystroke_Key.space	Key.space	n/a
408.9185	0.0755	817837	keystroke_r	r	n/a
409.0085	0.091	818017	keystroke_e	e	n/a
410.2695	0.0595	820539	keystroke_f	f	n/a
410.449	0.075	820898	keystroke_r	r	n/a
410.7045	0.075	821409	keystroke_i	i	n/a
410.9145	0.09	821829	keystroke_g	g	n/a
411.1835	0.075	822367	keystroke_e	e	n/a
411.2595	0.089	822519	keystroke_r	r	n/a
411.589	0.09	823178	keystroke_a	a	n/a
411.859	0.06	823718	keystroke_t	t	n/a
412.009	0.0755	824018	keystroke_o	o	n/a
412.1295	0.0745	824259	keystroke_r	r	n/a
412.294	0.09	824588	keystroke_Key.space	Key.space	n/a
412.504	0.0905	825008	keystroke_k	k	n/a
412.9835	0.0755	825967	keystroke_Key.backspace	Key.backspace	n/a
413.209	0.075	826418	keystroke_n	n	n/a
413.404	0.09	826808	keystroke_i	i	n/a
414.0785	0.06	828157	keystroke_k	k	n/a
414.5285	0.076	829057	keystroke_o	o	n/a
414.7835	0.075	829567	keystroke_n	n	n/a
415.0535	0.06	830107	keystroke_Key.space	Key.space	n/a
415.2785	0.076	830557	keystroke_m	m	n/a
415.4895	0.06	830979	keystroke_i	i	n/a
415.6395	0.09	831279	keystroke_s	s	n/a
415.8345	0.09	831669	keystroke_c	c	n/a
417.2585	0.0455	834517	keystroke_Key.enter	Key.enter	n/a
417.311	9.73	834622	prompt	n/a	transparency exotic options author\n
418.2045	0.0745	836409	keystroke_t	t	n/a
418.399	0.075	836798	keystroke_r	r	n/a
418.564	0.09	837128	keystroke_a	a	n/a
418.7435	0.075	837487	keystroke_n	n	n/a
418.9085	0.0905	837817	keystroke_s	s	n/a
419.224	0.09	838448	keystroke_p	p	n/a
419.3745	0.09	838749	keystroke_a	a	n/a
419.764	0.0595	839528	keystroke_c	c	n/a
420.304	0.0895	840608	keystroke_Key.backspace	Key.backspace	n/a
420.559	0.0905	841118	keystroke_r	r	n/a
420.6635	0.1055	841327	keystroke_e	e	n/a
421.129	0.0595	842258	keystroke_n	n	n/a
421.534	0.0605	843068	keystroke_c	c	n/a
421.804	0.06	843608	keystroke_y	y	n/a
422.0585	0.075	844117	keystroke_Key.space	Key.space	n/a
422.4045	0.074	844809	keystroke_e	e	n/a
422.6445	0.075	845289	keystroke_x	x	n/a
422.8085	0.076	845617	keystroke_o	o	n/a
423.154	0.075	846308	keystroke_t	t	n/a
423.319	0.0605	846638	keystroke_i	i	n/a
423.469	0.075	846938	keystroke_c	c	n/a
423.649	0.09	847298	keystroke_Key.space	Key.space	n/a
423.844	0.106	847688	keystroke_o	o	n/a
424.039	0.09	848078	keystroke_p	p	n/a
424.459	0.075	848918	keystroke_t	t	n/a
424.639	0.0605	849278	keystroke_i	i	n/a
424.714	0.135	849428	keystroke_o	o	n/a
424.909	0.09	849818	keystroke_n	n	n/a
425.0745	0.09	850149	keystroke_s	s	n/a
425.239	0.105	850478	keystroke_Key.space	Key.space	n/a
425.434	0.09	850868	keystroke_a	a	n/a
425.584	0.075	851168	keystroke_u	u	n/a
425.794	0.0755	851588	keystroke_t	t	n/a
425.944	0.0605	851888	keystroke_h	h	n/a
426.439	0.0755	852878	keystroke_o	o	n/a
426.5745	0.0745	853149	keystroke_r	r	n/a
426.979	0.06	853958	keystroke_Key.enter	Key.enter	n/a
427.045	15.3855	854090	prompt	n/a	expert creations zdnet wishlist\n
427.9245	0.06	855849	keystroke_e	e	n/a
428.1045	0.09	856209	keystroke_x	x	n/a
428.2685	0.091	856537	keystroke_p	p	n/a
428.449	0.046	856898	keystroke_e	e	n/a
428.5245	0.089	857049	keystroke_r	r	n/a
428.8535	0.0605	857707	keystroke_t	t	n/a
429.034	0.105	858068	keystroke_Key.space	Key.space	n/a
429.5745	0.075	859149	keystroke_c	c	n/a
429.7845	0.06	859569	keystroke_r	r	n/a
429.8445	0.0895	859689	keystroke_e	e	n/a
430.039	0.0455	860078	keystroke_a	a	n/a
430.234	0.075	860468	keystroke_t	t	n/a
430.414	0.105	860828	keystroke_i	i	n/a
430.474	0.195	860948	keystroke_o	o	n/a
430.729	0.121	861458	keystroke_n	n	n/a
430.954	0.075	861908	keystroke_g	g	n/a
431.149	0.0755	862298	keystroke_s	s	n/a
431.329	0.105	862658	keystroke_Key.space	Key.space	n/a
432.2735	0.106	864547	keystroke_z	z	n/a
432.844	0.06	865688	keystroke_d	d	n/a
433.144	0.075	866288	keystroke_n	n	n/a
433.399	0.045	866798	keystroke_e	e	n/a
433.5035	0.105	867007	keystroke_t	t	n/a
434.4945	0.15	868989	keystroke_Key.left	Key.left	n/a
434.7645	0.075	869529	keystroke_Key.left	Key.left	n/a
434.8685	0.1205	869737	keystroke_Key.left	Key.left	n/a
435.064	0.09	870128	keystroke_Key.left	Key.left	n/a
435.229	0.075	870458	keystroke_Key.left	Key.left	n/a
435.394	0.09	870788	keystroke_Key.left	Key.left	n/a
435.5585	0.1655	871117	keystroke_Key.left	Key.left	n/a
436.309	0.06	872618	keystroke_Key.backspace	Key.backspace	n/a
436.954	0.1045	873908	keystroke_Key.right	Key.right	n/a
437.1485	0.0755	874297	keystroke_Key.right	Key.right	n/a
437.3435	0.045	874687	keystroke_Key.right	Key.right	n/a
437.494	0.075	874988	keystroke_Key.right	Key.right	n/a
437.6735	0.075	875347	keystroke_Key.right	Key.right	n/a
437.839	0.0745	875678	keystroke_Key.right	Key.right	n/a
438.0335	0.06	876067	keystroke_Key.right	Key.right	n/a
439.204	0.1045	878408	keystroke_Key.right	Key.right	n/a
439.7885	0.091	879577	keystroke_Key.space	Key.space	n/a
440.1785	0.091	880357	keystroke_w	w	n/a
440.4335	0.09	880867	keystroke_i	i	n/a
440.6745	0.0895	881349	keystroke_s	s	n/a
440.794	0.06	881588	keystroke_h	h	n/a
441.124	0.075	882248	keystroke_l	l	n/a
441.289	0.09	882578	keystroke_i	i	n/a
441.4245	0.0895	882849	keystroke_s	s	n/a
441.574	0.075	883148	keystroke_t	t	n/a
442.369	0.06	884738	keystroke_Key.enter	Key.enter	n/a
442.4345	8.441	884869	prompt	n/a	blogger inline univ theme\n
443.1635	0.0755	886327	keystroke_b	b	n/a
443.314	0.09	886628	keystroke_l	l	n/a
443.539	0.075	887078	keystroke_o	o	n/a
443.989	0.075	887978	keystroke_g	g	n/a
444.169	0.09	888338	keystroke_g	g	n/a
444.184	0.015	888368	keystroke_f	f	n/a
444.4245	0.0445	888849	keystroke_e	e	n/a
444.4845	0.09	888969	keystroke_r	r	n/a
444.739	0.105	889478	keystroke_Key.space	Key.space	n/a
445.219	0.045	890438	keystroke_Key.backspace	Key.backspace	n/a
445.384	0.06	890768	keystroke_Key.backspace	Key.backspace	n/a
445.579	0.06	891158	keystroke_Key.backspace	Key.backspace	n/a
445.759	0.075	891518	keystroke_Key.backspace	Key.backspace	n/a
445.8645	0.0745	891729	keystroke_e	e	n/a
445.954	0.09	891908	keystroke_r	r	n/a
446.059	0.12	892118	keystroke_Key.space	Key.space	n/a
446.239	0.09	892478	keystroke_i	i	n/a
446.434	0.0595	892868	keystroke_n	n	n/a
446.7645	0.09	893529	keystroke_l	l	n/a
446.944	0.0595	893888	keystroke_i	i	n/a
447.0785	0.105	894157	keystroke_n	n	n/a
447.229	0.0905	894458	keystroke_e	e	n/a
447.454	0.0745	894908	keystroke_Key.space	Key.space	n/a
447.9195	0.045	895839	keystroke_u	u	n/a
448.129	0.075	896258	keystroke_n	n	n/a
448.444	0.09	896888	keystroke_i	i	n/a
448.714	0.075	897428	keystroke_v	v	n/a
448.924	0.09	897848	keystroke_Key.space	Key.space	n/a
449.194	0.075	898388	keystroke_t	t	n/a
449.284	0.075	898568	keystroke_h	h	n/a
449.464	0.075	898928	keystroke_e	e	n/a
449.7495	0.105	899499	keystroke_m	m	n/a
449.959	0.0755	899918	keystroke_e	e	n/a
450.799	0.075	901598	keystroke_Key.enter	Key.enter	n/a
450.881	14.8895	901762	prompt	n/a	satisfaction interviews allowing premiere\n
451.6845	0.074	903369	keystroke_s	s	n/a
451.9235	0.0905	903847	keystroke_a	a	n/a
452.089	0.0905	904178	keystroke_t	t	n/a
452.344	0.06	904688	keystroke_i	i	n/a
452.5545	0.0745	905109	keystroke_s	s	n/a
453.184	0.0755	906368	keystroke_f	f	n/a
453.3795	0.074	906759	keystroke_a	a	n/a
453.5885	0.0755	907177	keystroke_c	c	n/a
453.814	0.0745	907628	keystroke_t	t	n/a
453.9345	0.165	907869	keystroke_o	o	n/a
454.159	0.0905	908318	keystroke_n	n	n/a
454.5035	0.075	909007	keystroke_Key.space	Key.space	n/a
454.9685	0.045	909937	keystroke_Key.backspace	Key.backspace	n/a
455.1485	0.06	910297	keystroke_Key.backspace	Key.backspace	n/a
455.3285	0.0755	910657	keystroke_Key.backspace	Key.backspace	n/a
455.5835	0.075	911167	keystroke_i	i	n/a
455.7345	0.105	911469	keystroke_o	o	n/a
455.9885	0.0605	911977	keystroke_n	n	n/a
456.394	0.06	912788	keystroke_Key.space	Key.space	n/a
457.039	0.045	914078	keystroke_i	i	n/a
457.189	0.12	914378	keystroke_n	n	n/a
457.3995	0.059	914799	keystroke_t	t	n/a
457.5195	0.134	915039	keystroke_e	e	n/a
457.6235	0.09	915247	keystroke_r	r	n/a
460.8505	0.0135	921701	keystroke_v	v	n/a
460.9535	0.076	921907	keystroke_i	i	n/a
461.1345	0.105	922269	keystroke_e	e	n/a
461.224	0.135	922448	keystroke_w	w	n/a
461.5395	0.089	923079	keystroke_s	s	n/a
461.7185	0.12	923437	keystroke_Key.space	Key.space	n/a
461.9145	0.09	923829	keystroke_a	a	n/a
462.0935	0.075	924187	keystroke_l	l	n/a
462.2745	0.0895	924549	keystroke_l	l	n/a
462.4845	0.074	924969	keystroke_o	o	n/a
462.6485	0.076	925297	keystroke_w	w	n/a
462.7995	0.074	925599	keystroke_i	i	n/a
462.9785	0.075	925957	keystroke_n	n	n/a
463.0985	0.075	926197	keystroke_g	g	n/a
463.2335	0.105	926467	keystroke_Key.space	Key.space	n/a
463.6235	0.09	927247	keystroke_p	p	n/a
463.7435	0.09	927487	keystroke_r	r	n/a
463.8195	0.089	927639	keystroke_e	e	n/a
464.0285	0.09	928057	keystroke_m	m	n/a
464.3885	0.091	928777	keystroke_i	i	n/a
464.7335	0.09	929467	keystroke_e	e	n/a
464.8685	0.09	929737	keystroke_r	r	n/a
465.199	0.06	930398	keystroke_e	e	n/a
465.694	0.075	931388	keystroke_Key.enter	Key.enter	n/a
465.775	7.9605	931550	prompt	n/a	samba euro satin southern\n
466.519	0.075	933038	keystroke_s	s	n/a
466.699	0.09	933398	keystroke_a	a	n/a
466.8645	0.104	933729	keystroke_m	m	n/a
467.2535	0.075	934507	keystroke_b	b	n/a
467.4485	0.0605	934897	keystroke_a	a	n/a
467.7035	0.1055	935407	keystroke_Key.space	Key.space	n/a
468.2135	0.075	936427	keystroke_e	e	n/a
468.4385	0.0605	936877	keystroke_u	u	n/a
468.8435	0.075	937687	keystroke_r	r	n/a
468.9785	0.09	937957	keystroke_o	o	n/a
469.3085	0.105	938617	keystroke_Key.space	Key.space	n/a
469.8045	0.089	939609	keystroke_s	s	n/a
469.984	0.0605	939968	keystroke_a	a	n/a
470.119	0.0745	940238	keystroke_t	t	n/a
470.3435	0.076	940687	keystroke_i	i	n/a
470.4945	0.1045	940989	keystroke_n	n	n/a
470.959	0.0595	941918	keystroke_Key.space	Key.space	n/a
471.6635	0.106	943327	keystroke_s	s	n/a
471.7985	0.0905	943597	keystroke_o	o	n/a
472.4285	0.06	944857	keystroke_u	u	n/a
472.714	0.0745	945428	keystroke_t	t	n/a
472.849	0.0755	945698	keystroke_h	h	n/a
473.0135	0.0605	946027	keystroke_e	e	n/a
473.059	0.089	946118	keystroke_r	r	n/a
473.284	0.06	946568	keystroke_n	n	n/a
473.674	0.059	947348	keystroke_Key.enter	Key.enter	n/a
473.74	10.4955	947480	prompt	n/a	stereo greatest places reggae\n
474.5295	0.0895	949059	keystroke_s	s	n/a
474.6945	0.074	949389	keystroke_t	t	n/a
474.889	0.0905	949778	keystroke_e	e	n/a
475.5345	0.0745	951069	keystroke_r	r	n/a
475.9095	0.0745	951819	keystroke_e	e	n/a
476.119	0.06	952238	keystroke_o	o	n/a
476.389	0.045	952778	keystroke_Key.space	Key.space	n/a
476.7935	0.0755	953587	keystroke_g	g	n/a
476.974	0.09	953948	keystroke_r	r	n/a
477.049	0.0755	954098	keystroke_e	e	n/a
477.2295	0.075	954459	keystroke_a	a	n/a
477.4245	0.075	954849	keystroke_t	t	n/a
477.694	0.06	955388	keystroke_e	e	n/a
477.9185	0.0605	955837	keystroke_s	s	n/a
478.053	0.076	956106	keystroke_t	t	n/a
478.2035	0.106	956407	keystroke_Key.space	Key.space	n/a
478.6685	0.09	957337	keystroke_p	p	n/a
478.9095	0.0745	957819	keystroke_l	l	n/a
479.044	0.1045	958088	keystroke_a	a	n/a
479.269	0.075	958538	keystroke_c	c	n/a
479.479	0.075	958958	keystroke_e	e	n/a
479.6745	0.0895	959349	keystroke_s	s	n/a
479.794	0.135	959588	keystroke_Key.space	Key.space	n/a
480.2895	0.075	960579	keystroke_r	r	n/a
480.469	0.075	960938	keystroke_a	a	n/a
481.0535	0.076	962107	keystroke_Key.backspace	Key.backspace	n/a
481.1885	0.076	962377	keystroke_e	e	n/a
481.5195	0.0595	963039	keystroke_g	g	n/a
481.924	0.075	963848	keystroke_g	g	n/a
482.1345	0.09	964269	keystroke_a	a	n/a
482.6135	0.0455	965227	keystroke_i	i	n/a
483.049	0.06	966098	keystroke_Key.backspace	Key.backspace	n/a
483.139	0.0605	966278	keystroke_e	e	n/a
484.1885	0.045	968377	keystroke_Key.enter	Key.enter	n/a
484.2405	9.2655	968481	prompt	n/a	cleared medicaid barriers reviewed\n
485.149	0.075	970298	keystroke_c	c	n/a
485.329	0.0595	970658	keystroke_l	l	n/a
485.434	0.0895	970868	keystroke_e	e	n/a
485.5835	0.06	971167	keystroke_a	a	n/a
485.7345	0.09	971469	keystroke_r	r	n/a
485.9585	0.0605	971917	keystroke_e	e	n/a
486.139	0.06	972278	keystroke_d	d	n/a
486.289	0.06	972578	keystroke_Key.space	Key.space	n/a
486.8145	0.1045	973629	keystroke_m	m	n/a
487.055	0.044	974110	keystroke_e	e	n/a
487.2335	0.0755	974467	keystroke_d	d	n/a
487.6245	0.0595	975249	keystroke_i	i	n/a
487.8335	0.0755	975667	keystroke_c	c	n/a
488.074	0.0895	976148	keystroke_a	a	n/a
488.314	0.0745	976628	keystroke_i	i	n/a
488.5995	0.105	977199	keystroke_d	d	n/a
488.853	0.0905	977706	keystroke_Key.space	Key.space	n/a
489.2885	0.076	978577	keystroke_b	b	n/a
489.4845	0.074	978969	keystroke_a	a	n/a
489.7095	0.074	979419	keystroke_r	r	n/a
489.9935	0.075	979987	keystroke_r	r	n/a
490.1885	0.06	980377	keystroke_i	i	n/a
490.354	0.06	980708	keystroke_e	e	n/a
490.504	0.09	981008	keystroke_r	r	n/a
490.894	0.06	981788	keystroke_s	s	n/a
491.119	0.09	982238	keystroke_Key.space	Key.space	n/a
491.494	0.105	982988	keystroke_r	r	n/a
491.584	0.09	983168	keystroke_e	e	n/a
491.914	0.09	983828	keystroke_v	v	n/a
492.0795	0.075	984159	keystroke_i	i	n/a
492.2135	0.0905	984427	keystroke_e	e	n/a
492.258	0.1215	984516	keystroke_w	w	n/a
492.754	0.075	985508	keystroke_e	e	n/a
492.9635	0.0605	985927	keystroke_d	d	n/a
493.444	0.06	986888	keystroke_Key.enter	Key.enter	n/a
493.5105	10.1655	987021	prompt	n/a	international latex blogging instance\n
494.389	0.06	988778	keystroke_i	i	n/a
494.5245	0.104	989049	keystroke_n	n	n/a
494.764	0.0595	989528	keystroke_t	t	n/a
494.8685	0.075	989737	keystroke_e	e	n/a
494.9585	0.091	989917	keystroke_r	r	n/a
495.0785	0.0755	990157	keystroke_n	n	n/a
495.259	0.09	990518	keystroke_a	a	n/a
495.409	0.09	990818	keystroke_t	t	n/a
495.514	0.0895	991028	keystroke_i	i	n/a
495.6185	0.1355	991237	keystroke_o	o	n/a
495.7685	0.1055	991537	keystroke_n	n	n/a
495.934	0.09	991868	keystroke_a	a	n/a
496.0685	0.09	992137	keystroke_l	l	n/a
496.384	0.09	992768	keystroke_Key.space	Key.space	n/a
496.774	0.0755	993548	keystroke_l	l	n/a
496.864	0.105	993728	keystroke_a	a	n/a
497.134	0.06	994268	keystroke_t	t	n/a
497.3285	0.076	994657	keystroke_e	e	n/a
497.629	0.0745	995258	keystroke_x	x	n/a
497.8085	0.09	995617	keystroke_Key.space	Key.space	n/a
498.124	0.0605	996248	keystroke_b	b	n/a
498.259	0.0605	996518	keystroke_o	o	n/a
498.859	0.0745	997718	keystroke_Key.backspace	Key.backspace	n/a
499.099	0.0905	998198	keystroke_l	l	n/a
499.324	0.075	998648	keystroke_o	o	n/a
499.639	0.075	999278	keystroke_g	g	n/a
499.8345	0.074	999669	keystroke_g	g	n/a
499.9235	0.075	999847	keystroke_i	i	n/a
500.0735	0.105	1000147	keystroke_n	n	n/a
500.269	0.0445	1000538	keystroke_g	g	n/a
500.344	0.1045	1000688	keystroke_Key.space	Key.space	n/a
500.5835	0.061	1001167	keystroke_i	i	n/a
500.7335	0.09	1001467	keystroke_n	n	n/a
501.079	0.09	1002158	keystroke_s	s	n/a
501.259	0.09	1002518	keystroke_t	t	n/a
501.424	0.09	1002848	keystroke_a	a	n/a
501.574	0.075	1003148	keystroke_n	n	n/a
501.844	0.0595	1003688	keystroke_c	c	n/a
502.0385	0.06	1004077	keystroke_e	e	n/a
503.6135	0.06	1007227	keystroke_Key.enter	Key.enter	n/a
503.681	13.5995	1007362	prompt	n/a	papua handed kinase theology\n
504.514	0.135	1009028	keystroke_p	p	n/a
504.709	0.105	1009418	keystroke_a	a	n/a
505.3845	0.1045	1010769	keystroke_p	p	n/a
505.774	0.09	1011548	keystroke_u	u	n/a
506.1345	0.0745	1012269	keystroke_a	a	n/a
506.359	0.09	1012718	keystroke_Key.space	Key.space	n/a
506.6445	0.0745	1013289	keystroke_h	h	n/a
506.7785	0.0905	1013557	keystroke_a	a	n/a
506.944	0.075	1013888	keystroke_n	n	n/a
507.274	0.075	1014548	keystroke_d	d	n/a
507.468	0.076	1014936	keystroke_e	e	n/a
507.664	0.06	1015328	keystroke_d	d	n/a
507.799	0.1195	1015598	keystroke_Key.space	Key.space	n/a
508.444	0.09	1016888	keystroke_i	i	n/a
508.744	0.075	1017488	keystroke_n	n	n/a
509.1035	0.061	1018207	keystroke_Key.backspace	Key.backspace	n/a
509.284	0.06	1018568	keystroke_Key.backspace	Key.backspace	n/a
509.509	0.09	1019018	keystroke_k	k	n/a
509.764	0.045	1019528	keystroke_n	n	n/a
510.409	0.0745	1020818	keystroke_Key.backspace	Key.backspace	n/a
510.694	0.09	1021388	keystroke_i	i	n/a
510.889	0.0895	1021778	keystroke_n	n	n/a
511.5785	0.1205	1023157	keystroke_a	a	n/a
511.8035	0.0905	1023607	keystroke_s	s	n/a
511.9995	0.0745	1023999	keystroke_e	e	n/a
512.209	0.105	1024418	keystroke_Key.space	Key.space	n/a
512.569	0.075	1025138	keystroke_t	t	n/a
512.779	0.0895	1025558	keystroke_h	h	n/a
513.049	0.045	1026098	keystroke_e	e	n/a
513.2745	0.0595	1026549	keystroke_o	o	n/a
513.829	0.09	1027658	keystroke_l	l	n/a
514.0545	0.0745	1028109	keystroke_o	o	n/a
514.278	0.06	1028556	keystroke_g	g	n/a
514.444	0.059	1028888	keystroke_y	y	n/a
517.2355	0.043	1034471	keystroke_Key.enter	Key.enter	n/a
517.2875	10.508	1034575	prompt	n/a	sandwich satisfy horses trance\n
518.104	0.075	1036208	keystroke_s	s	n/a
518.239	0.12	1036478	keystroke_a	a	n/a
518.344	0.075	1036688	keystroke_n	n	n/a
518.5545	0.0595	1037109	keystroke_d	d	n/a
518.929	0.0745	1037858	keystroke_w	w	n/a
519.064	0.09	1038128	keystroke_i	i	n/a
519.319	0.0295	1038638	keystroke_s	s	n/a
519.694	0.03	1039388	keystroke_h	h	n/a
520.084	0.03	1040168	keystroke_Key.backspace	Key.backspace	n/a
520.2335	0.0755	1040467	keystroke_Key.backspace	Key.backspace	n/a
520.3685	0.06	1040737	keystroke_c	c	n/a
520.489	0.09	1040978	keystroke_h	h	n/a
521.1335	0.075	1042267	keystroke_Key.space	Key.space	n/a
521.689	0.074	1043378	keystroke_s	s	n/a
521.839	0.0895	1043678	keystroke_a	a	n/a
522.0785	0.0755	1044157	keystroke_t	t	n/a
522.349	0.0745	1044698	keystroke_i	i	n/a
522.529	0.0745	1045058	keystroke_s	s	n/a
522.934	0.075	1045868	keystroke_f	f	n/a
523.113	0.0455	1046226	keystroke_y	y	n/a
523.3685	0.1055	1046737	keystroke_Key.space	Key.space	n/a
523.638	0.061	1047276	keystroke_h	h	n/a
523.804	0.075	1047608	keystroke_o	o	n/a
523.969	0.1045	1047938	keystroke_r	r	n/a
524.4635	0.0755	1048927	keystroke_s	s	n/a
524.6735	0.0455	1049347	keystroke_e	e	n/a
524.914	0.09	1049828	keystroke_s	s	n/a
525.1385	0.075	1050277	keystroke_Key.space	Key.space	n/a
525.679	0.06	1051358	keystroke_t	t	n/a
525.8435	0.0755	1051687	keystroke_r	r	n/a
525.994	0.09	1051988	keystroke_a	a	n/a
526.1145	0.089	1052229	keystroke_n	n	n/a
526.3835	0.09	1052767	keystroke_s	s	n/a
526.804	0.06	1053608	keystroke_Key.backspace	Key.backspace	n/a
526.9545	0.0585	1053909	keystroke_c	c	n/a
527.149	0.06	1054298	keystroke_e	e	n/a
527.734	0.06	1055468	keystroke_Key.enter	Key.enter	n/a
527.8005	6.5045	1055601	prompt	n/a	shares earnings june bring\n
528.454	0.105	1056908	keystroke_s	s	n/a
528.619	0.0595	1057238	keystroke_h	h	n/a
528.799	0.09	1057598	keystroke_a	a	n/a
528.949	0.09	1057898	keystroke_r	r	n/a
529.054	0.09	1058108	keystroke_e	e	n/a
529.294	0.09	1058588	keystroke_s	s	n/a
529.518	0.0905	1059036	keystroke_Key.space	Key.space	n/a
529.999	0.06	1059998	keystroke_e	e	n/a
530.164	0.075	1060328	keystroke_a	a	n/a
530.299	0.09	1060598	keystroke_r	r	n/a
530.449	0.1045	1060898	keystroke_n	n	n/a
530.6585	0.09	1061317	keystroke_i	i	n/a
530.809	0.105	1061618	keystroke_n	n	n/a
530.869	0.075	1061738	keystroke_g	g	n/a
531.109	0.0745	1062218	keystroke_s	s	n/a
531.3635	0.1205	1062727	keystroke_Key.space	Key.space	n/a
531.694	0.1045	1063388	keystroke_j	j	n/a
531.934	0.0745	1063868	keystroke_u	u	n/a
532.294	0.105	1064588	keystroke_n	n	n/a
532.549	0.0595	1065098	keystroke_e	e	n/a
532.804	0.0745	1065608	keystroke_Key.space	Key.space	n/a
533.149	0.06	1066298	keystroke_b	b	n/a
533.344	0.075	1066688	keystroke_r	r	n/a
533.479	0.06	1066958	keystroke_i	i	n/a
533.614	0.09	1067228	keystroke_n	n	n/a
533.779	0.074	1067558	keystroke_g	g	n/a
534.243	0.0605	1068486	keystroke_Key.enter	Key.enter	n/a
534.3085	9.297	1068617	prompt	n/a	larry asthma escape alliance\n
535.114	0.09	1070228	keystroke_l	l	n/a
535.2185	0.1055	1070437	keystroke_a	a	n/a
535.3695	0.0745	1070739	keystroke_r	r	n/a
535.5645	0.0745	1071129	keystroke_r	r	n/a
535.6985	0.0605	1071397	keystroke_y	y	n/a
535.909	0.1345	1071818	keystroke_Key.space	Key.space	n/a
536.104	0.1045	1072208	keystroke_a	a	n/a
536.2835	0.0905	1072567	keystroke_s	s	n/a
536.733	0.061	1073466	keystroke_t	t	n/a
536.869	0.06	1073738	keystroke_h	h	n/a
537.244	0.0895	1074488	keystroke_m	m	n/a
537.408	0.091	1074816	keystroke_a	a	n/a
538.0985	0.12	1076197	keystroke_Key.space	Key.space	n/a
538.534	0.075	1077068	keystroke_e	e	n/a
538.789	0.074	1077578	keystroke_x	x	n/a
539.4335	0.0755	1078867	keystroke_Key.backspace	Key.backspace	n/a
539.539	0.105	1079078	keystroke_s	s	n/a
539.8235	0.09	1079647	keystroke_c	c	n/a
540.0335	0.09	1080067	keystroke_a	a	n/a
540.1985	0.121	1080397	keystroke_p	p	n/a
540.3935	0.0605	1080787	keystroke_e	e	n/a
540.5435	0.0755	1081087	keystroke_Key.space	Key.space	n/a
540.7385	0.1055	1081477	keystroke_a	a	n/a
540.934	0.0895	1081868	keystroke_l	l	n/a
541.129	0.1355	1082258	keystroke_l	l	n/a
541.4735	0.1195	1082947	keystroke_i	i	n/a
541.6995	0.0895	1083399	keystroke_a	a	n/a
541.879	0.06	1083758	keystroke_n	n	n/a
542.254	0.06	1084508	keystroke_c	c	n/a
542.614	0.045	1085228	keystroke_e	e	n/a
543.5435	0.06	1087087	keystroke_Key.enter	Key.enter	n/a
543.61	11.335	1087220	prompt	n/a	industry integrity america you'd\n
544.384	0.075	1088768	keystroke_i	i	n/a
544.519	0.0895	1089038	keystroke_n	n	n/a
544.804	0.074	1089608	keystroke_d	d	n/a
544.9685	0.0605	1089937	keystroke_u	u	n/a
545.238	0.136	1090476	keystroke_s	s	n/a
545.404	0.0745	1090808	keystroke_t	t	n/a
545.5235	0.09	1091047	keystroke_r	r	n/a
545.8385	0.0755	1091677	keystroke_y	y	n/a
546.079	0.075	1092158	keystroke_Key.space	Key.space	n/a
546.319	0.075	1092638	keystroke_i	i	n/a
546.484	0.105	1092968	keystroke_n	n	n/a
546.724	0.075	1093448	keystroke_t	t	n/a
546.859	0.1055	1093718	keystroke_e	e	n/a
547.2635	0.09	1094527	keystroke_g	g	n/a
547.4885	0.0905	1094977	keystroke_r	r	n/a
547.669	0.09	1095338	keystroke_i	i	n/a
547.894	0.075	1095788	keystroke_t	t	n/a
547.909	0.03	1095818	keystroke_y	y	n/a
548.1185	0.0455	1096237	keystroke_y	y	n/a
548.418	0.0905	1096836	keystroke_Key.space	Key.space	n/a
548.674	0.09	1097348	keystroke_a	a	n/a
548.8235	0.106	1097647	keystroke_m	m	n/a
549.184	0.045	1098368	keystroke_Key.backspace	Key.backspace	n/a
549.364	0.06	1098728	keystroke_Key.backspace	Key.backspace	n/a
549.543	0.046	1099086	keystroke_Key.backspace	Key.backspace	n/a
549.723	0.045	1099446	keystroke_Key.backspace	Key.backspace	n/a
550.653	0.075	1101306	keystroke_Key.space	Key.space	n/a
551.059	0.075	1102118	keystroke_a	a	n/a
551.149	0.089	1102298	keystroke_m	m	n/a
551.374	0.03	1102748	keystroke_e	e	n/a
551.434	0.09	1102868	keystroke_r	r	n/a
551.554	0.075	1103108	keystroke_i	i	n/a
551.944	0.1045	1103888	keystroke_c	c	n/a
552.0935	0.1055	1104187	keystroke_a	a	n/a
552.558	0.121	1105116	keystroke_Key.space	Key.space	n/a
552.979	0.03	1105958	keystroke_y	y	n/a
553.143	0.106	1106286	keystroke_o	o	n/a
553.339	0.09	1106678	keystroke_u	u	n/a
553.848	0.106	1107696	keystroke_'	'	n/a
554.374	0.075	1108748	keystroke_d	d	n/a
554.868	0.076	1109736	keystroke_Key.enter	Key.enter	n/a
554.9485	7.527	1109897	prompt	n/a	arrange were bought jaguar\n
555.769	0.075	1111538	keystroke_a	a	n/a
555.949	0.075	1111898	keystroke_r	r	n/a
556.1445	0.0745	1112289	keystroke_r	r	n/a
556.3085	0.075	1112617	keystroke_a	a	n/a
556.399	0.0595	1112798	keystroke_n	n	n/a
556.5935	0.06	1113187	keystroke_g	g	n/a
556.7285	0.061	1113457	keystroke_e	e	n/a
556.8335	0.105	1113667	keystroke_Key.space	Key.space	n/a
557.059	0.0755	1114118	keystroke_w	w	n/a
557.269	0.045	1114538	keystroke_e	e	n/a
557.329	0.12	1114658	keystroke_r	r	n/a
557.464	0.0595	1114928	keystroke_e	e	n/a
557.5835	0.09	1115167	keystroke_Key.space	Key.space	n/a
557.8535	0.0605	1115707	keystroke_b	b	n/a
558.0335	0.0605	1116067	keystroke_o	o	n/a
558.9635	0.0905	1117927	keystroke_u	u	n/a
559.189	0.0745	1118378	keystroke_g	g	n/a
559.3235	0.06	1118647	keystroke_h	h	n/a
560.149	0.06	1120298	keystroke_t	t	n/a
560.284	0.12	1120568	keystroke_Key.space	Key.space	n/a
560.719	0.09	1121438	keystroke_j	j	n/a
560.914	0.0895	1121828	keystroke_a	a	n/a
561.3035	0.09	1122607	keystroke_g	g	n/a
561.469	0.06	1122938	keystroke_u	u	n/a
561.6635	0.09	1123327	keystroke_a	a	n/a
561.8135	0.075	1123627	keystroke_r	r	n/a
562.4135	0.06	1124827	keystroke_Key.enter	Key.enter	n/a
562.4795	8.021	1124959	prompt	n/a	grow title revolution hollow\n
563.9435	0.0455	1127887	keystroke_g	g	n/a
564.1085	0.09	1128217	keystroke_r	r	n/a
564.2135	0.06	1128427	keystroke_o	o	n/a
564.379	0.075	1128758	keystroke_w	w	n/a
565.114	0.075	1130228	keystroke_Key.space	Key.space	n/a
565.429	0.075	1130858	keystroke_t	t	n/a
565.594	0.075	1131188	keystroke_i	i	n/a
565.849	0.075	1131698	keystroke_t	t	n/a
566.074	0.09	1132148	keystroke_l	l	n/a
566.254	0.06	1132508	keystroke_e	e	n/a
566.404	0.09	1132808	keystroke_Key.space	Key.space	n/a
566.824	0.105	1133648	keystroke_r	r	n/a
566.914	0.075	1133828	keystroke_e	e	n/a
567.199	0.06	1134398	keystroke_v	v	n/a
567.349	0.0755	1134698	keystroke_o	o	n/a
567.634	0.105	1135268	keystroke_l	l	n/a
567.889	0.074	1135778	keystroke_u	u	n/a
568.174	0.075	1136348	keystroke_t	t	n/a
568.354	0.0745	1136708	keystroke_i	i	n/a
568.4285	0.1505	1136857	keystroke_o	o	n/a
568.6085	0.105	1137217	keystroke_n	n	n/a
568.7885	0.1045	1137577	keystroke_Key.space	Key.space	n/a
569.0435	0.0605	1138087	keystroke_h	h	n/a
569.2235	0.0755	1138447	keystroke_o	o	n/a
569.614	0.1195	1139228	keystroke_l	l	n/a
569.794	0.1195	1139588	keystroke_l	l	n/a
570.0335	0.075	1140067	keystroke_o	o	n/a
570.169	0.0745	1140338	keystroke_w	w	n/a
570.438	0.06	1140876	keystroke_Key.enter	Key.enter	n/a
570.505	9.7295	1141010	prompt	n/a	mitchell campus compilation determines\n
571.2485	0.09	1142497	keystroke_m	m	n/a
571.4735	0.061	1142947	keystroke_i	i	n/a
571.7285	0.0595	1143457	keystroke_t	t	n/a
572.0735	0.045	1144147	keystroke_c	c	n/a
572.1935	0.075	1144387	keystroke_h	h	n/a
572.509	0.0595	1145018	keystroke_e	e	n/a
572.778	0.0605	1145556	keystroke_l	l	n/a
572.959	0.075	1145918	keystroke_l	l	n/a
573.154	0.104	1146308	keystroke_Key.space	Key.space	n/a
573.364	0.0745	1146728	keystroke_c	c	n/a
573.5135	0.09	1147027	keystroke_a	a	n/a
573.634	0.09	1147268	keystroke_m	m	n/a
573.9935	0.105	1147987	keystroke_p	p	n/a
574.2185	0.0605	1148437	keystroke_u	u	n/a
574.369	0.09	1148738	keystroke_s	s	n/a
574.639	0.089	1149278	keystroke_Key.space	Key.space	n/a
575.0735	0.06	1150147	keystroke_c	c	n/a
575.2085	0.1055	1150417	keystroke_o	o	n/a
575.344	0.12	1150688	keystroke_m	m	n/a
575.554	0.105	1151108	keystroke_p	p	n/a
575.7185	0.12	1151437	keystroke_i	i	n/a
576.334	0.105	1152668	keystroke_l	l	n/a
576.529	0.09	1153058	keystroke_a	a	n/a
576.739	0.075	1153478	keystroke_t	t	n/a
576.8585	0.0905	1153717	keystroke_i	i	n/a
576.964	0.1645	1153928	keystroke_o	o	n/a
577.159	0.105	1154318	keystroke_n	n	n/a
577.3685	0.105	1154737	keystroke_Key.space	Key.space	n/a
577.849	0.06	1155698	keystroke_d	d	n/a
578.044	0.0595	1156088	keystroke_e	e	n/a
578.2385	0.061	1156477	keystroke_t	t	n/a
578.434	0.0295	1156868	keystroke_e	e	n/a
578.479	0.089	1156958	keystroke_r	r	n/a
578.7645	0.0745	1157529	keystroke_m	m	n/a
578.9885	0.09	1157977	keystroke_i	i	n/a
579.1385	0.1055	1158277	keystroke_n	n	n/a
579.259	0.075	1158518	keystroke_e	e	n/a
579.4385	0.075	1158877	keystroke_s	s	n/a
580.159	0.0745	1160318	keystroke_Key.enter	Key.enter	n/a
580.2375	10.603	1160475	prompt	n/a	cooperation spirituality keith badge\n
581.1185	0.03	1162237	keystroke_c	c	n/a
581.223	0.09	1162446	keystroke_o	o	n/a
581.929	0.045	1163858	keystroke_o	o	n/a
582.409	0.105	1164818	keystroke_p	p	n/a
582.709	0.075	1165418	keystroke_e	e	n/a
582.8585	0.0905	1165717	keystroke_r	r	n/a
583.113	0.061	1166226	keystroke_a	a	n/a
583.2485	0.091	1166497	keystroke_t	t	n/a
583.399	0.0895	1166798	keystroke_i	i	n/a
583.5035	0.15	1167007	keystroke_o	o	n/a
583.6985	0.09	1167397	keystroke_n	n	n/a
583.8935	0.1205	1167787	keystroke_Key.space	Key.space	n/a
584.133	0.1055	1168266	keystroke_s	s	n/a
584.284	0.119	1168568	keystroke_p	p	n/a
584.5845	0.0145	1169169	keystroke_i	i	n/a
584.809	0.09	1169618	keystroke_r	r	n/a
585.2885	0.1055	1170577	keystroke_i	i	n/a
585.528	0.0605	1171056	keystroke_t	t	n/a
586.113	0.06	1172226	keystroke_u	u	n/a
586.278	0.076	1172556	keystroke_a	a	n/a
586.4285	0.075	1172857	keystroke_l	l	n/a
586.608	0.076	1173216	keystroke_l	l	n/a
586.8335	0.045	1173667	keystroke_y	y	n/a
587.0585	0.09	1174117	keystroke_Key.space	Key.space	n/a
587.418	0.09	1174836	keystroke_k	k	n/a
587.598	0.0605	1175196	keystroke_e	e	n/a
587.7635	0.0755	1175527	keystroke_i	i	n/a
588.0785	0.0755	1176157	keystroke_t	t	n/a
588.244	0.06	1176488	keystroke_h	h	n/a
588.4835	0.09	1176967	keystroke_Key.space	Key.space	n/a
588.724	0.075	1177448	keystroke_b	b	n/a
588.903	0.0905	1177806	keystroke_a	a	n/a
589.1585	0.075	1178317	keystroke_d	d	n/a
589.653	0.061	1179306	keystroke_g	g	n/a
589.804	0.0445	1179608	keystroke_e	e	n/a
590.763	0.0755	1181526	keystroke_Key.enter	Key.enter	n/a
590.8435	12.5365	1181687	prompt	n/a	tail regulatory saturn gorgeous\n
591.754	0.059	1183508	keystroke_t	t	n/a
591.888	0.091	1183776	keystroke_a	a	n/a
592.173	0.0905	1184346	keystroke_i	i	n/a
592.3985	0.075	1184797	keystroke_l	l	n/a
592.6375	0.09	1185275	keystroke_Key.space	Key.space	n/a
593.359	0.089	1186718	keystroke_r	r	n/a
593.4635	0.09	1186927	keystroke_e	e	n/a
593.749	0.075	1187498	keystroke_g	g	n/a
593.8985	0.0605	1187797	keystroke_u	u	n/a
594.154	0.075	1188308	keystroke_l	l	n/a
594.289	0.09	1188578	keystroke_a	a	n/a
594.739	0.075	1189478	keystroke_t	t	n/a
594.9335	0.06	1189867	keystroke_o	o	n/a
595.0535	0.0755	1190107	keystroke_r	r	n/a
595.219	0.0295	1190438	keystroke_y	y	n/a
595.488	0.075	1190976	keystroke_Key.space	Key.space	n/a
595.759	0.1195	1191518	keystroke_s	s	n/a
596.043	0.105	1192086	keystroke_a	a	n/a
596.3135	0.075	1192627	keystroke_t	t	n/a
596.5685	0.06	1193137	keystroke_u	u	n/a
596.7635	0.06	1193527	keystroke_r	r	n/a
596.9435	0.06	1193887	keystroke_n	n	n/a
597.1835	0.09	1194367	keystroke_Key.space	Key.space	n/a
597.574	0.0745	1195148	keystroke_g	g	n/a
597.7235	0.0895	1195447	keystroke_o	o	n/a
597.874	0.0745	1195748	keystroke_r	r	n/a
598.188	0.06	1196376	keystroke_e	e	n/a
598.6085	0.0305	1197217	keystroke_o	o	n/a
599.0285	0.0595	1198057	keystroke_Key.backspace	Key.backspace	n/a
599.223	0.0755	1198446	keystroke_Key.backspace	Key.backspace	n/a
599.823	0.0755	1199646	keystroke_g	g	n/a
600.0335	0.0605	1200067	keystroke_o	o	n/a
600.513	0.0455	1201026	keystroke_Key.backspace	Key.backspace	n/a
601.233	0.09	1202466	keystroke_e	e	n/a
601.473	0.0755	1202946	keystroke_o	o	n/a
601.684	0.06	1203368	keystroke_u	u	n/a
601.864	0.0895	1203728	keystroke_s	s	n/a
603.319	0.0595	1206638	keystroke_Key.enter	Key.enter	n/a
603.3845	6.9555	1206769	prompt	n/a	searched frog light angola\n
604.1895	0.074	1208379	keystroke_s	s	n/a
604.3535	0.075	1208707	keystroke_e	e	n/a
604.4885	0.09	1208977	keystroke_a	a	n/a
604.639	0.0745	1209278	keystroke_r	r	n/a
604.954	0.0595	1209908	keystroke_c	c	n/a
605.0735	0.075	1210147	keystroke_h	h	n/a
605.403	0.061	1210806	keystroke_e	e	n/a
605.5985	0.0595	1211197	keystroke_d	d	n/a
605.733	0.1055	1211466	keystroke_Key.space	Key.space	n/a
606.0335	0.075	1212067	keystroke_f	f	n/a
606.229	0.075	1212458	keystroke_r	r	n/a
606.3485	0.09	1212697	keystroke_o	o	n/a
606.873	0.076	1213746	keystroke_g	g	n/a
607.0835	0.0895	1214167	keystroke_Key.space	Key.space	n/a
607.4435	0.075	1214887	keystroke_l	l	n/a
607.6085	0.09	1215217	keystroke_i	i	n/a
607.773	0.0755	1215546	keystroke_g	g	n/a
607.893	0.075	1215786	keystroke_h	h	n/a
608.0435	0.0755	1216087	keystroke_t	t	n/a
608.193	0.09	1216386	keystroke_Key.space	Key.space	n/a
608.4185	0.075	1216837	keystroke_a	a	n/a
608.5535	0.0605	1217107	keystroke_n	n	n/a
608.7635	0.0745	1217527	keystroke_g	g	n/a
608.9585	0.0755	1217917	keystroke_o	o	n/a
609.259	0.075	1218518	keystroke_l	l	n/a
609.634	0.075	1219268	keystroke_a	a	n/a
610.264	0.0745	1220528	keystroke_Key.enter	Key.enter	n/a
610.3455	10.69	1220691	prompt	n/a	phone logo memo philippines\n
611.2535	0.12	1222507	keystroke_p	p	n/a
611.4635	0.075	1222927	keystroke_h	h	n/a
611.7185	0.105	1223437	keystroke_o	o	n/a
611.944	0.0745	1223888	keystroke_n	n	n/a
612.0485	0.075	1224097	keystroke_e	e	n/a
612.2285	0.09	1224457	keystroke_Key.space	Key.space	n/a
612.5735	0.0895	1225147	keystroke_l	l	n/a
612.8135	0.09	1225627	keystroke_o	o	n/a
613.1125	0.076	1226225	keystroke_g	g	n/a
613.2485	0.075	1226497	keystroke_o	o	n/a
613.5185	0.0905	1227037	keystroke_Key.space	Key.space	n/a
613.7735	0.105	1227547	keystroke_m	m	n/a
613.9085	0.075	1227817	keystroke_e	e	n/a
614.0735	0.0895	1228147	keystroke_m	m	n/a
614.284	0.074	1228568	keystroke_o	o	n/a
614.628	0.075	1229256	keystroke_Key.space	Key.space	n/a
615.1095	0.104	1230219	keystroke_p	p	n/a
615.3485	0.075	1230697	keystroke_h	h	n/a
615.528	0.0905	1231056	keystroke_i	i	n/a
615.739	0.1045	1231478	keystroke_l	l	n/a
616.2485	0.1045	1232497	keystroke_i	i	n/a
619.1305	0.073	1238261	keystroke_p	p	n/a
619.2785	0.0755	1238557	keystroke_p	p	n/a
619.4735	0.09	1238947	keystroke_i	i	n/a
619.654	0.089	1239308	keystroke_n	n	n/a
620.029	0.09	1240058	keystroke_e	e	n/a
620.284	0.075	1240568	keystroke_s	s	n/a
620.9735	0.06	1241947	keystroke_Key.enter	Key.enter	n/a
621.04	9.7155	1242080	prompt	n/a	cookbook certification cedar simply\n
621.784	0.0745	1243568	keystroke_c	c	n/a
621.9035	0.075	1243807	keystroke_o	o	n/a
622.129	0.0895	1244258	keystroke_o	o	n/a
622.3835	0.0745	1244767	keystroke_k	k	n/a
622.7435	0.0745	1245487	keystroke_b	b	n/a
622.9235	0.075	1245847	keystroke_o	o	n/a
623.1185	0.075	1246237	keystroke_o	o	n/a
623.3285	0.075	1246657	keystroke_k	k	n/a
623.5385	0.09	1247077	keystroke_Key.space	Key.space	n/a
623.943	0.075	1247886	keystroke_c	c	n/a
624.153	0.075	1248306	keystroke_e	e	n/a
624.289	0.0895	1248578	keystroke_r	r	n/a
624.5285	0.0745	1249057	keystroke_t	t	n/a
624.708	0.06	1249416	keystroke_i	i	n/a
624.8735	0.075	1249747	keystroke_f	f	n/a
625.0385	0.0445	1250077	keystroke_i	i	n/a
625.159	0.0895	1250318	keystroke_c	c	n/a
625.3235	0.075	1250647	keystroke_a	a	n/a
625.429	0.075	1250858	keystroke_t	t	n/a
625.504	0.1045	1251008	keystroke_i	i	n/a
625.6235	0.1355	1251247	keystroke_o	o	n/a
625.789	0.089	1251578	keystroke_n	n	n/a
625.9535	0.0895	1251907	keystroke_Key.space	Key.space	n/a
626.0885	0.0745	1252177	keystroke_c	c	n/a
626.283	0.06	1252566	keystroke_e	e	n/a
626.523	0.0605	1253046	keystroke_d	d	n/a
626.763	0.0755	1253526	keystroke_a	a	n/a
626.899	0.0745	1253798	keystroke_r	r	n/a
627.1235	0.075	1254247	keystroke_Key.space	Key.space	n/a
627.3485	0.09	1254697	keystroke_s	s	n/a
627.5735	0.015	1255147	keystroke_u	u	n/a
627.873	0.106	1255746	keystroke_i	i	n/a
628.099	0.0445	1256198	keystroke_m	m	n/a
628.4285	0.0445	1256857	keystroke_Key.backspace	Key.backspace	n/a
628.6085	0.0745	1257217	keystroke_Key.backspace	Key.backspace	n/a
628.8035	0.045	1257607	keystroke_Key.backspace	Key.backspace	n/a
629.103	0.09	1258206	keystroke_i	i	n/a
629.298	0.106	1258596	keystroke_m	m	n/a
629.493	0.1055	1258986	keystroke_p	p	n/a
629.793	0.09	1259586	keystroke_l	l	n/a
630.064	0.059	1260128	keystroke_y	y	n/a
630.6935	0.06	1261387	keystroke_Key.enter	Key.enter	n/a
630.759	6.0565	1261518	prompt	n/a	site woman hills defects\n
631.459	0.089	1262918	keystroke_s	s	n/a
631.563	0.076	1263126	keystroke_i	i	n/a
631.744	0.0745	1263488	keystroke_t	t	n/a
631.8785	0.075	1263757	keystroke_e	e	n/a
631.9685	0.09	1263937	keystroke_Key.space	Key.space	n/a
632.3885	0.0905	1264777	keystroke_w	w	n/a
632.524	0.0895	1265048	keystroke_o	o	n/a
632.7785	0.0895	1265557	keystroke_m	m	n/a
632.989	0.09	1265978	keystroke_a	a	n/a
633.1085	0.075	1266217	keystroke_n	n	n/a
633.3335	0.09	1266667	keystroke_Key.space	Key.space	n/a
633.5585	0.0605	1267117	keystroke_h	h	n/a
633.7395	0.0735	1267479	keystroke_i	i	n/a
634.0985	0.06	1268197	keystroke_l	l	n/a
634.279	0.0745	1268558	keystroke_l	l	n/a
634.3985	0.09	1268797	keystroke_s	s	n/a
634.5335	0.105	1269067	keystroke_Key.space	Key.space	n/a
635.1035	0.0745	1270207	keystroke_d	d	n/a
635.284	0.075	1270568	keystroke_e	e	n/a
635.643	0.0605	1271286	keystroke_f	f	n/a
635.838	0.09	1271676	keystroke_e	e	n/a
636.0485	0.0455	1272097	keystroke_c	c	n/a
636.244	0.059	1272488	keystroke_t	t	n/a
636.439	0.089	1272878	keystroke_s	s	n/a
636.7535	0.0595	1273507	keystroke_Key.enter	Key.enter	n/a
636.8195	10.7055	1273639	prompt	n/a	returning threshold careers morocco\n
637.6685	0.0755	1275337	keystroke_r	r	n/a
637.7585	0.075	1275517	keystroke_e	e	n/a
638.0135	0.06	1276027	keystroke_t	t	n/a
638.1335	0.045	1276267	keystroke_u	u	n/a
638.284	0.074	1276568	keystroke_r	r	n/a
638.463	0.09	1276926	keystroke_n	n	n/a
638.673	0.0755	1277346	keystroke_i	i	n/a
638.839	0.09	1277678	keystroke_n	n	n/a
638.943	0.0755	1277886	keystroke_g	g	n/a
639.1235	0.0895	1278247	keystroke_Key.space	Key.space	n/a
639.618	0.076	1279236	keystroke_t	t	n/a
639.7385	0.06	1279477	keystroke_h	h	n/a
640.143	0.09	1280286	keystroke_r	r	n/a
640.278	0.106	1280556	keystroke_e	e	n/a
640.594	0.075	1281188	keystroke_s	s	n/a
640.804	0.045	1281608	keystroke_h	h	n/a
641.0585	0.075	1282117	keystroke_o	o	n/a
641.283	0.0905	1282566	keystroke_l	l	n/a
641.448	0.061	1282896	keystroke_d	d	n/a
641.613	0.06	1283226	keystroke_Key.space	Key.space	n/a
641.853	0.0755	1283706	keystroke_c	c	n/a
642.063	0.091	1284126	keystroke_a	a	n/a
642.2285	0.075	1284457	keystroke_r	r	n/a
642.6035	0.0595	1285207	keystroke_e	e	n/a
642.814	0.06	1285628	keystroke_e	e	n/a
643.084	0.0595	1286168	keystroke_r	r	n/a
643.3235	0.0905	1286647	keystroke_s	s	n/a
643.5035	0.09	1287007	keystroke_Key.space	Key.space	n/a
643.7435	0.075	1287487	keystroke_m	m	n/a
643.9385	0.075	1287877	keystroke_o	o	n/a
644.2085	0.09	1288417	keystroke_r	r	n/a
644.433	0.0755	1288866	keystroke_o	o	n/a
645.633	0.0605	1291266	keystroke_c	c	n/a
645.784	0.0745	1291568	keystroke_c	c	n/a
645.933	0.09	1291866	keystroke_o	o	n/a
647.4485	0.0745	1294897	keystroke_Key.enter	Key.enter	n/a
647.5285	9.0715	1295057	prompt	n/a	handle rainbow none colon\n
648.3185	0.06	1296637	keystroke_h	h	n/a
648.4535	0.09	1296907	keystroke_a	a	n/a
648.6325	0.046	1297265	keystroke_n	n	n/a
648.7535	0.06	1297507	keystroke_d	d	n/a
648.889	0.0745	1297778	keystroke_l	l	n/a
649.0235	0.06	1298047	keystroke_e	e	n/a
649.1585	0.09	1298317	keystroke_Key.space	Key.space	n/a
649.5035	0.075	1299007	keystroke_r	r	n/a
649.639	0.1045	1299278	keystroke_a	a	n/a
649.7435	0.06	1299487	keystroke_i	i	n/a
649.924	0.1045	1299848	keystroke_n	n	n/a
650.3585	0.06	1300717	keystroke_b	b	n/a
650.4935	0.0755	1300987	keystroke_o	o	n/a
650.6585	0.075	1301317	keystroke_a	a	n/a
651.2885	0.09	1302577	keystroke_Key.backspace	Key.backspace	n/a
651.4985	0.075	1302997	keystroke_w	w	n/a
651.858	0.09	1303716	keystroke_Key.space	Key.space	n/a
652.5485	0.09	1305097	keystroke_n	n	n/a
652.7435	0.105	1305487	keystroke_o	o	n/a
