onset	duration	sample	value	key	prompt_text
1.0345	16.0985	2069	prompt	n/a	the quick brown fox jumps over a lazy dog\n
6.3765	0.0135	12753	keystroke_t	t	n/a
6.4355	0.0595	12871	keystroke_h	h	n/a
6.6305	0.09	13261	keystroke_e	e	n/a
6.8105	0.0895	13621	keystroke_Key.space	Key.space	n/a
7.2455	0.0895	14491	keystroke_q	q	n/a
7.35	0.06	14700	keystroke_u	u	n/a
7.5155	0.0745	15031	keystroke_i	i	n/a
7.68	0.15	15360	keystroke_c	c	n/a
7.785	0.0755	15570	keystroke_k	k	n/a
7.9055	0.105	15811	keystroke_Key.space	Key.space	n/a
8.4005	0.0755	16801	keystroke_b	b	n/a
8.446	0.0895	16892	keystroke_r	r	n/a
8.581	0.1045	17162	keystroke_o	o	n/a
8.7165	0.0745	17433	keystroke_w	w	n/a
8.85	0.075	17700	keystroke_n	n	n/a
8.9705	0.075	17941	keystroke_Key.space	Key.space	n/a
9.1205	0.0895	18241	keystroke_f	f	n/a
9.196	0.074	18392	keystroke_o	o	n/a
9.36	0.1055	18720	keystroke_x	x	n/a
9.495	0.09	18990	keystroke_Key.space	Key.space	n/a
9.7955	0.09	19591	keystroke_j	j	n/a
9.9755	0.06	19951	keystroke_u	u	n/a
10.2005	0.03	20401	keystroke_n	n	n/a
10.216	0.105	20432	keystroke_p	p	n/a
10.2455	0.0155	20491	keystroke_m	m	n/a
10.3505	0.1205	20701	keystroke_s	s	n/a
10.4105	0.12	20821	keystroke_Key.space	Key.space	n/a
10.575	0.0755	21150	keystroke_o	o	n/a
10.9805	0.045	21961	keystroke_Key.backspace	Key.backspace	n/a
11.0855	0.0595	22171	keystroke_Key.backspace	Key.backspace	n/a
11.1755	0.075	22351	keystroke_Key.backspace	Key.backspace	n/a
11.3105	0.06	22621	keystroke_Key.backspace	Key.backspace	n/a
11.445	0.0455	22890	keystroke_Key.backspace	Key.backspace	n/a
11.701	0.089	23402	keystroke_m	m	n/a
11.8955	0.0595	23791	keystroke_p	p	n/a
12.001	0.044	24002	keystroke_s	s	n/a
12.2255	0.045	24451	keystroke_Key.backspace	Key.backspace	n/a
12.33	0.0455	24660	keystroke_Key.backspace	Key.backspace	n/a
12.4355	0.0595	24871	keystroke_Key.backspace	Key.backspace	n/a
12.5705	0.09	25141	keystroke_Key.backspace	Key.backspace	n/a
13.066	0.0895	26132	keystroke_m	m	n/a
13.291	0.0895	26582	keystroke_s	s	n/a
13.6205	0.045	27241	keystroke_Key.backspace	Key.backspace	n/a
13.801	0.0595	27602	keystroke_p	p	n/a
13.876	0.119	27752	keystroke_s	s	n/a
13.98	0.09	27960	keystroke_Key.space	Key.space	n/a
14.251	0.074	28502	keystroke_o	o	n/a
14.355	0.09	28710	keystroke_v	v	n/a
14.55	0.091	29100	keystroke_e	e	n/a
14.7155	0.1505	29431	keystroke_r	r	n/a
14.835	0.106	29670	keystroke_Key.space	Key.space	n/a
15.33	0.0905	30660	keystroke_a	a	n/a
15.465	0.0905	30930	keystroke_Key.space	Key.space	n/a
15.645	0.1055	31290	keystroke_l	l	n/a
15.7655	0.09	31531	keystroke_a	a	n/a
16.005	0.0605	32010	keystroke_z	z	n/a
16.2605	0.0905	32521	keystroke_y	y	n/a
16.485	0.0755	32970	keystroke_Key.space	Key.space	n/a
16.6655	0.0755	33331	keystroke_d	d	n/a
16.755	0.0755	33510	keystroke_o	o	n/a
16.8905	0.06	33781	keystroke_g	g	n/a
17.0555	0.0745	34111	keystroke_Key.enter	Key.enter	n/a
17.139	8.3635	34278	prompt	n/a	gamecube pierre nickname towns\n
18.061	0.045	36122	keystroke_g	g	n/a
18.1805	0.105	36361	keystroke_a	a	n/a
18.2705	0.1205	36541	keystroke_m	m	n/a
18.375	0.0905	36750	keystroke_e	e	n/a
18.616	0.0895	37232	keystroke_c	c	n/a
18.7505	0.075	37501	keystroke_u	u	n/a
19.05	0.0755	38100	keystroke_b	b	n/a
19.186	0.089	38372	keystroke_e	e	n/a
19.4555	0.0745	38911	keystroke_Key.space	Key.space	n/a
20.175	0.135	40350	keystroke_p	p	n/a
20.3555	0.0755	40711	keystroke_i	i	n/a
20.6255	0.0905	41251	keystroke_e	e	n/a
20.9555	0.06	41911	keystroke_r	r	n/a
21.105	0.0605	42210	keystroke_r	r	n/a
21.3005	0.1355	42601	keystroke_e	e	n/a
21.5555	0.0745	43111	keystroke_Key.space	Key.space	n/a
21.9305	0.105	43861	keystroke_n	n	n/a
22.1555	0.0755	44311	keystroke_i	i	n/a
22.32	0.1655	44640	keystroke_c	c	n/a
22.44	0.0755	44880	keystroke_k	k	n/a
23.6705	0.075	47341	keystroke_n	n	n/a
23.776	0.1345	47552	keystroke_a	a	n/a
23.8955	0.1045	47791	keystroke_m	m	n/a
24.075	0.0905	48150	keystroke_e	e	n/a
24.2855	0.0745	48571	keystroke_Key.space	Key.space	n/a
24.511	0.0895	49022	keystroke_t	t	n/a
24.6305	0.075	49261	keystroke_o	o	n/a
24.735	0.0605	49470	keystroke_w	w	n/a
24.8405	0.1045	49681	keystroke_n	n	n/a
25.0055	0.0745	50011	keystroke_s	s	n/a
25.425	0.075	50850	keystroke_Key.enter	Key.enter	n/a
25.5075	8.0495	51015	prompt	n/a	specifies deputy august forced\n
26.3555	0.09	52711	keystroke_s	s	n/a
26.8205	0.1055	53641	keystroke_p	p	n/a
26.91	0.075	53820	keystroke_e	e	n/a
27.1505	0.105	54301	keystroke_c	c	n/a
27.2705	0.0745	54541	keystroke_i	i	n/a
27.901	0.104	55802	keystroke_f	f	n/a
28.021	0.075	56042	keystroke_i	i	n/a
28.1555	0.0755	56311	keystroke_e	e	n/a
28.35	0.1055	56700	keystroke_s	s	n/a
28.575	0.1055	57150	keystroke_Key.space	Key.space	n/a
28.7855	0.0745	57571	keystroke_d	d	n/a
28.965	0.06	57930	keystroke_e	e	n/a
29.0855	0.075	58171	keystroke_p	p	n/a
29.2955	0.0595	58591	keystroke_u	u	n/a
29.8505	0.075	59701	keystroke_t	t	n/a
30.0605	0.09	60121	keystroke_y	y	n/a
30.435	0.0755	60870	keystroke_Key.space	Key.space	n/a
31.141	0.105	62282	keystroke_a	a	n/a
31.23	0.075	62460	keystroke_u	u	n/a
31.35	0.0905	62700	keystroke_g	g	n/a
31.455	0.076	62910	keystroke_u	u	n/a
31.5605	0.105	63121	keystroke_s	s	n/a
31.785	0.106	63570	keystroke_t	t	n/a
31.95	0.09	63900	keystroke_Key.space	Key.space	n/a
32.3855	0.06	64771	keystroke_f	f	n/a
32.5055	0.09	65011	keystroke_o	o	n/a
32.611	0.06	65222	keystroke_r	r	n/a
32.881	0.044	65762	keystroke_c	c	n/a
33.105	0.06	66210	keystroke_e	e	n/a
33.301	0.075	66602	keystroke_d	d	n/a
33.48	0.0755	66960	keystroke_Key.enter	Key.enter	n/a
33.561	7.1665	67122	prompt	n/a	he'll insulin developers cross\n
34.38	0.1355	68760	keystroke_h	h	n/a
34.5005	0.0905	69001	keystroke_e	e	n/a
34.71	0.075	69420	keystroke_'	'	n/a
35.5505	0.045	71101	keystroke_l	l	n/a
35.7155	0.0755	71431	keystroke_l	l	n/a
35.8655	0.12	71731	keystroke_Key.space	Key.space	n/a
36.0155	0.09	72031	keystroke_i	i	n/a
36.2255	0.0905	72451	keystroke_n	n	n/a
36.316	0.105	72632	keystroke_s	s	n/a
36.451	0.0745	72902	keystroke_u	u	n/a
36.6605	0.1055	73321	keystroke_l	l	n/a
36.9005	0.0605	73801	keystroke_i	i	n/a
37.066	0.0745	74132	keystroke_n	n	n/a
37.2005	0.105	74401	keystroke_Key.space	Key.space	n/a
37.4855	0.0595	74971	keystroke_d	d	n/a
37.651	0.0595	75302	keystroke_e	e	n/a
37.951	0.075	75902	keystroke_v	v	n/a
38.176	0.075	76352	keystroke_e	e	n/a
38.311	0.119	76622	keystroke_l	l	n/a
38.551	0.075	77102	keystroke_o	o	n/a
38.7015	0.1035	77403	keystroke_p	p	n/a
39.1055	0.075	78211	keystroke_e	e	n/a
39.2855	0.045	78571	keystroke_r	r	n/a
39.4355	0.1055	78871	keystroke_s	s	n/a
39.675	0.076	79350	keystroke_Key.space	Key.space	n/a
39.945	0.06	79890	keystroke_c	c	n/a
40.1105	0.075	80221	keystroke_r	r	n/a
40.216	0.075	80432	keystroke_o	o	n/a
40.351	0.0745	80702	keystroke_s	s	n/a
40.5005	0.075	81001	keystroke_s	s	n/a
40.6355	0.09	81271	keystroke_Key.enter	Key.enter	n/a
40.732	8.1555	81464	prompt	n/a	resistant praise awesome fails\n
41.491	0.075	82982	keystroke_r	r	n/a
41.6855	0.06	83371	keystroke_e	e	n/a
42.211	0.0905	84422	keystroke_s	s	n/a
42.345	0.076	84690	keystroke_i	i	n/a
42.796	0.105	85592	keystroke_s	s	n/a
43.036	0.09	86072	keystroke_t	t	n/a
43.276	0.0895	86552	keystroke_n	n	n/a
43.576	0.09	87152	keystroke_t	t	n/a
43.786	0.09	87572	keystroke_Key.space	Key.space	n/a
44.311	0.044	88622	keystroke_Key.backspace	Key.backspace	n/a
44.446	0.03	88892	keystroke_Key.backspace	Key.backspace	n/a
44.536	0.045	89072	keystroke_Key.backspace	Key.backspace	n/a
44.581	0.12	89162	keystroke_a	a	n/a
44.731	0.075	89462	keystroke_n	n	n/a
44.836	0.105	89672	keystroke_t	t	n/a
44.986	0.09	89972	keystroke_Key.space	Key.space	n/a
45.361	0.09	90722	keystroke_p	p	n/a
45.436	0.06	90872	keystroke_r	r	n/a
45.736	0.12	91472	keystroke_a	a	n/a
45.901	0.075	91802	keystroke_i	i	n/a
46.096	0.135	92192	keystroke_s	s	n/a
46.216	0.105	92432	keystroke_e	e	n/a
46.651	0.09	93302	keystroke_Key.space	Key.space	n/a
46.936	0.12	93872	keystroke_a	a	n/a
47.101	0.1345	94202	keystroke_w	w	n/a
47.2655	0.0605	94531	keystroke_e	e	n/a
47.43	0.075	94860	keystroke_s	s	n/a
47.476	0.1495	94952	keystroke_o	o	n/a
47.566	0.1195	95132	keystroke_m	m	n/a
47.6705	0.12	95341	keystroke_e	e	n/a
47.7905	0.105	95581	keystroke_Key.space	Key.space	n/a
47.9705	0.075	95941	keystroke_f	f	n/a
48.151	0.105	96302	keystroke_a	a	n/a
48.241	0.074	96482	keystroke_i	i	n/a
48.4205	0.075	96841	keystroke_l	l	n/a
48.601	0.0895	97202	keystroke_s	s	n/a
48.7955	0.09	97591	keystroke_Key.enter	Key.enter	n/a
48.8915	10.6465	97783	prompt	n/a	benjamin folks midi prices\n
49.876	0.104	99752	keystroke_b	b	n/a
49.996	0.1195	99992	keystroke_e	e	n/a
50.2055	0.0895	100411	keystroke_n	n	n/a
50.476	0.075	100952	keystroke_j	j	n/a
50.61	0.121	101220	keystroke_a	a	n/a
50.745	0.091	101490	keystroke_m	m	n/a
50.9555	0.0455	101911	keystroke_i	i	n/a
51.121	0.09	102242	keystroke_n	n	n/a
51.315	0.12	102630	keystroke_Key.space	Key.space	n/a
53.882	0.059	107764	keystroke_f	f	n/a
53.926	0.075	107852	keystroke_o	o	n/a
54.121	0.09	108242	keystroke_l	l	n/a
54.271	0.105	108542	keystroke_k	k	n/a
54.451	0.105	108902	keystroke_s	s	n/a
54.661	0.09	109322	keystroke_Key.space	Key.space	n/a
54.9015	0.1035	109803	keystroke_m	m	n/a
55.111	0.075	110222	keystroke_i	i	n/a
55.201	0.1045	110402	keystroke_d	d	n/a
55.321	0.089	110642	keystroke_i	i	n/a
55.425	0.105	110850	keystroke_Key.space	Key.space	n/a
55.576	0.075	111152	keystroke_p	p	n/a
55.68	0.061	111360	keystroke_r	r	n/a
55.846	0.06	111692	keystroke_e	e	n/a
56.5355	0.0755	113071	keystroke_i	i	n/a
56.8205	0.03	113641	keystroke_Key.backspace	Key.backspace	n/a
56.9105	0.06	113821	keystroke_Key.backspace	Key.backspace	n/a
57.121	0.075	114242	keystroke_i	i	n/a
57.2105	0.105	114421	keystroke_x	x	n/a
57.4355	0.09	114871	keystroke_e	e	n/a
57.616	0.165	115232	keystroke_s	s	n/a
58.246	0.045	116492	keystroke_Key.backspace	Key.backspace	n/a
58.351	0.045	116702	keystroke_Key.backspace	Key.backspace	n/a
58.456	0.09	116912	keystroke_Key.backspace	Key.backspace	n/a
58.561	0.075	117122	keystroke_c	c	n/a
58.861	0.075	117722	keystroke_s	s	n/a
59.146	0.06	118292	keystroke_Key.backspace	Key.backspace	n/a
59.191	0.105	118382	keystroke_e	e	n/a
59.311	0.1045	118622	keystroke_s	s	n/a
59.4305	0.105	118861	keystroke_Key.enter	Key.enter	n/a
59.5435	8.9795	119087	prompt	n/a	deutsch can soil randy\n
60.481	0.075	120962	keystroke_d	d	n/a
60.631	0.09	121262	keystroke_e	e	n/a
60.991	0.075	121982	keystroke_u	u	n/a
61.2005	0.1045	122401	keystroke_s	s	n/a
61.41	0.091	122820	keystroke_t	t	n/a
61.666	0.09	123332	keystroke_c	c	n/a
62.071	0.06	124142	keystroke_Key.backspace	Key.backspace	n/a
62.6555	0.12	125311	keystroke_s	s	n/a
63.421	0.135	126842	keystroke_c	c	n/a
63.541	0.09	127082	keystroke_h	h	n/a
63.706	0.12	127412	keystroke_Key.space	Key.space	n/a
64.006	0.074	128012	keystroke_c	c	n/a
64.096	0.12	128192	keystroke_a	a	n/a
64.23	0.091	128460	keystroke_n	n	n/a
64.35	0.1055	128700	keystroke_Key.space	Key.space	n/a
64.575	0.091	129150	keystroke_s	s	n/a
64.71	0.045	129420	keystroke_o	o	n/a
64.861	0.0605	129722	keystroke_i	i	n/a
65.026	0.104	130052	keystroke_l	l	n/a
65.1	0.121	130200	keystroke_Key.space	Key.space	n/a
65.266	0.059	130532	keystroke_r	r	n/a
65.3855	0.136	130771	keystroke_a	a	n/a
65.5055	0.09	131011	keystroke_n	n	n/a
65.6105	0.0905	131221	keystroke_d	d	n/a
65.8805	0.075	131761	keystroke_y	y	n/a
68.4925	0.028	136985	keystroke_Key.enter	Key.enter	n/a
68.5315	9.951	137063	prompt	n/a	details notification garlic citysearch\n
69.4205	0.075	138841	keystroke_d	d	n/a
69.5705	0.091	139141	keystroke_e	e	n/a
69.796	0.06	139592	keystroke_t	t	n/a
69.916	0.135	139832	keystroke_a	a	n/a
70.036	0.06	140072	keystroke_i	i	n/a
70.171	0.105	140342	keystroke_l	l	n/a
70.306	0.09	140612	keystroke_s	s	n/a
70.486	0.09	140972	keystroke_Key.space	Key.space	n/a
71.2205	0.045	142441	keystroke_n	n	n/a
71.3405	0.12	142681	keystroke_o	o	n/a
71.4455	0.0905	142891	keystroke_t	t	n/a
71.551	0.1205	143102	keystroke_i	i	n/a
71.686	0.075	143372	keystroke_f	f	n/a
71.776	0.105	143552	keystroke_i	i	n/a
71.926	0.135	143852	keystroke_c	c	n/a
72.0905	0.1205	144181	keystroke_a	a	n/a
72.241	0.0745	144482	keystroke_t	t	n/a
72.346	0.0745	144692	keystroke_i	i	n/a
72.5265	0.089	145053	keystroke_o	o	n/a
72.556	0.1345	145112	keystroke_n	n	n/a
72.8255	0.1055	145651	keystroke_Key.space	Key.space	n/a
73.231	0.075	146462	keystroke_g	g	n/a
73.5305	0.1055	147061	keystroke_a	a	n/a
73.62	0.106	147240	keystroke_r	r	n/a
73.785	0.076	147570	keystroke_l	l	n/a
73.936	0.09	147872	keystroke_i	i	n/a
74.071	0.1345	148142	keystroke_c	c	n/a
74.251	0.1195	148502	keystroke_Key.space	Key.space	n/a
74.6105	0.105	149221	keystroke_c	c	n/a
74.701	0.0745	149402	keystroke_i	i	n/a
74.881	0.075	149762	keystroke_t	t	n/a
75.0755	0.09	150151	keystroke_y	y	n/a
75.451	0.165	150902	keystroke_s	s	n/a
75.601	0.1045	151202	keystroke_e	e	n/a
75.7955	0.09	151591	keystroke_r	r	n/a
75.9005	0.1205	151801	keystroke_a	a	n/a
76.5305	0.09	153061	keystroke_Key.backspace	Key.backspace	n/a
77.0255	0.075	154051	keystroke_Key.backspace	Key.backspace	n/a
77.6555	0.1205	155311	keystroke_a	a	n/a
77.761	0.09	155522	keystroke_r	r	n/a
78	0.076	156000	keystroke_c	c	n/a
78.09	0.106	156180	keystroke_h	h	n/a
78.3905	0.09	156781	keystroke_Key.enter	Key.enter	n/a
78.4875	10.151	156975	prompt	n/a	dennis framed dimension muscles\n
79.2455	0.075	158491	keystroke_d	d	n/a
79.3955	0.1055	158791	keystroke_e	e	n/a
79.5455	0.0755	159091	keystroke_n	n	n/a
79.696	0.089	159392	keystroke_n	n	n/a
79.8	0.091	159600	keystroke_i	i	n/a
79.9055	0.1495	159811	keystroke_s	s	n/a
79.995	0.166	159990	keystroke_Key.space	Key.space	n/a
80.716	0.09	161432	keystroke_g	g	n/a
81.3155	0.075	162631	keystroke_r	r	n/a
81.436	0.135	162872	keystroke_a	a	n/a
81.7655	0.1045	163531	keystroke_m	m	n/a
82.275	0.06	164550	keystroke_Key.backspace	Key.backspace	n/a
82.395	0.045	164790	keystroke_Key.backspace	Key.backspace	n/a
82.5	0.045	165000	keystroke_Key.backspace	Key.backspace	n/a
82.6055	0.1045	165211	keystroke_Key.backspace	Key.backspace	n/a
82.665	0.06	165330	keystroke_f	f	n/a
83.2355	0.0755	166471	keystroke_r	r	n/a
83.37	0.135	166740	keystroke_a	a	n/a
83.445	0.106	166890	keystroke_m	m	n/a
83.565	0.061	167130	keystroke_e	e	n/a
83.746	0.1195	167492	keystroke_d	d	n/a
83.8355	0.105	167671	keystroke_Key.space	Key.space	n/a
84.0755	0.0755	168151	keystroke_d	d	n/a
84.1955	0.09	168391	keystroke_i	i	n/a
84.6905	0.09	169381	keystroke_m	m	n/a
84.781	0.074	169562	keystroke_e	e	n/a
84.9005	0.09	169801	keystroke_n	n	n/a
85.201	0.0895	170402	keystroke_s	s	n/a
85.995	0.06	171990	keystroke_i	i	n/a
86.161	0.044	172322	keystroke_o	o	n/a
86.311	0.0745	172622	keystroke_n	n	n/a
86.5955	0.12	173191	keystroke_Key.space	Key.space	n/a
87.0305	0.09	174061	keystroke_m	m	n/a
87.271	0.074	174542	keystroke_u	u	n/a
87.3905	0.12	174781	keystroke_s	s	n/a
87.6305	0.09	175261	keystroke_c	c	n/a
87.7805	0.12	175561	keystroke_l	l	n/a
87.8855	0.09	175771	keystroke_e	e	n/a
88.0655	0.105	176131	keystroke_s	s	n/a
88.2755	0.09	176551	keystroke_Key.space	Key.space	n/a
88.5605	0.075	177121	keystroke_Key.enter	Key.enter	n/a
88.643	8.77	177286	prompt	n/a	transparent messages connectivity exit\n
89.311	0.089	178622	keystroke_t	t	n/a
89.491	0.074	178982	keystroke_r	r	n/a
89.5805	0.119	179161	keystroke_a	a	n/a
89.7155	0.105	179431	keystroke_n	n	n/a
89.8495	0.091	179699	keystroke_s	s	n/a
90.4805	0.06	180961	keystroke_p	p	n/a
90.5405	0.09	181081	keystroke_a	a	n/a
90.6455	0.0595	181291	keystroke_r	r	n/a
90.84	0.09	181680	keystroke_e	e	n/a
91.006	0.09	182012	keystroke_n	n	n/a
91.126	0.089	182252	keystroke_t	t	n/a
91.29	0.0905	182580	keystroke_Key.space	Key.space	n/a
91.515	0.1055	183030	keystroke_m	m	n/a
91.605	0.0755	183210	keystroke_e	e	n/a
91.8155	0.059	183631	keystroke_s	s	n/a
91.9955	0.0595	183991	keystroke_s	s	n/a
92.1	0.121	184200	keystroke_a	a	n/a
92.3255	0.075	184651	keystroke_g	g	n/a
92.5205	0.075	185041	keystroke_e	e	n/a
92.7155	0.164	185431	keystroke_s	s	n/a
92.8645	0.106	185729	keystroke_Key.space	Key.space	n/a
93.1655	0.09	186331	keystroke_c	c	n/a
93.2255	0.0755	186451	keystroke_o	o	n/a
93.3905	0.075	186781	keystroke_n	n	n/a
93.795	0.075	187590	keystroke_n	n	n/a
93.976	0.0745	187952	keystroke_e	e	n/a
94.3655	0.105	188731	keystroke_c	c	n/a
95.22	0.105	190440	keystroke_t	t	n/a
95.37	0.075	190740	keystroke_i	i	n/a
95.4755	0.1055	190951	keystroke_v	v	n/a
95.655	0.09	191310	keystroke_i	i	n/a
95.7605	0.1045	191521	keystroke_t	t	n/a
95.955	0.09	191910	keystroke_y	y	n/a
96.18	0.075	192360	keystroke_Key.space	Key.space	n/a
96.4055	0.0595	192811	keystroke_e	e	n/a
96.8255	0.0895	193651	keystroke_x	x	n/a
96.93	0.1055	193860	keystroke_i	i	n/a
97.1105	0.075	194221	keystroke_t	t	n/a
97.3345	0.076	194669	keystroke_Key.enter	Key.enter	n/a
97.4175	10.9295	194835	prompt	n/a	volleyball changelog sunset minneapolis\n
98.2655	0.09	196531	keystroke_v	v	n/a
98.551	0.0595	197102	keystroke_o	o	n/a
98.7305	0.0445	197461	keystroke_l	l	n/a
98.865	0.09	197730	keystroke_l	l	n/a
98.97	0.135	197940	keystroke_e	e	n/a
99.255	0.09	198510	keystroke_b	b	n/a
99.765	0.0455	199530	keystroke_Key.backspace	Key.backspace	n/a
99.795	0.091	199590	keystroke_y	y	n/a
100.095	0.0605	200190	keystroke_b	b	n/a
100.1855	0.119	200371	keystroke_a	a	n/a
100.3805	0.044	200761	keystroke_l	l	n/a
100.515	0.0745	201030	keystroke_l	l	n/a
100.6195	0.106	201239	keystroke_Key.space	Key.space	n/a
100.7855	0.105	201571	keystroke_c	c	n/a
100.9205	0.075	201841	keystroke_h	h	n/a
101.0405	0.12	202081	keystroke_a	a	n/a
101.1755	0.075	202351	keystroke_n	n	n/a
101.9255	0.105	203851	keystroke_g	g	n/a
102.3605	0.06	204721	keystroke_e	e	n/a
102.615	0.09	205230	keystroke_l	l	n/a
102.7805	0.0895	205561	keystroke_o	o	n/a
102.885	0.12	205770	keystroke_g	g	n/a
103.0955	0.0895	206191	keystroke_Key.space	Key.space	n/a
103.2605	0.1045	206521	keystroke_s	s	n/a
103.35	0.075	206700	keystroke_u	u	n/a
103.921	0.0895	207842	keystroke_n	n	n/a
104.1305	0.135	208261	keystroke_s	s	n/a
104.2205	0.104	208441	keystroke_e	e	n/a
104.4305	0.104	208861	keystroke_t	t	n/a
104.5945	0.105	209189	keystroke_Key.space	Key.space	n/a
104.9705	0.104	209941	keystroke_m	m	n/a
105.1655	0.074	210331	keystroke_i	i	n/a
105.346	0.1045	210692	keystroke_n	n	n/a
106.3355	0.075	212671	keystroke_n	n	n/a
106.5755	0.075	213151	keystroke_e	e	n/a
107.1605	0.1045	214321	keystroke_a	a	n/a
107.43	0.1055	214860	keystroke_p	p	n/a
107.595	0.0905	215190	keystroke_o	o	n/a
107.7755	0.1645	215551	keystroke_l	l	n/a
107.9105	0.105	215821	keystroke_i	i	n/a
108.0455	0.105	216091	keystroke_s	s	n/a
108.2555	0.09	216511	keystroke_Key.enter	Key.enter	n/a
108.351	6.8815	216702	prompt	n/a	richard traveller commercial false\n
108.9605	0.06	217921	keystroke_r	r	n/a
109.156	0.0595	218312	keystroke_i	i	n/a
109.5305	0.09	219061	keystroke_c	c	n/a
109.6355	0.075	219271	keystroke_h	h	n/a
109.7245	0.121	219449	keystroke_a	a	n/a
109.8605	0.09	219721	keystroke_r	r	n/a
110.0855	0.09	220171	keystroke_d	d	n/a
110.25	0.1055	220500	keystroke_Key.space	Key.space	n/a
110.535	0.0755	221070	keystroke_t	t	n/a
110.715	0.061	221430	keystroke_r	r	n/a
110.805	0.105	221610	keystroke_a	a	n/a
111.0305	0.0745	222061	keystroke_v	v	n/a
111.255	0.06	222510	keystroke_e	e	n/a
111.511	0.059	223022	keystroke_l	l	n/a
111.661	0.075	223322	keystroke_l	l	n/a
111.75	0.091	223500	keystroke_e	e	n/a
111.916	0.1345	223832	keystroke_r	r	n/a
112.035	0.105	224070	keystroke_Key.space	Key.space	n/a
112.29	0.1055	224580	keystroke_c	c	n/a
112.4105	0.09	224821	keystroke_o	o	n/a
112.666	0.0445	225332	keystroke_m	m	n/a
112.786	0.1045	225572	keystroke_m	m	n/a
112.846	0.0895	225692	keystroke_e	e	n/a
113.0255	0.0595	226051	keystroke_r	r	n/a
113.2505	0.09	226501	keystroke_c	c	n/a
113.3995	0.075	226799	keystroke_i	i	n/a
113.5345	0.1215	227069	keystroke_a	a	n/a
113.67	0.075	227340	keystroke_l	l	n/a
113.82	0.0905	227640	keystroke_Key.space	Key.space	n/a
114.69	0.045	229380	keystroke_f	f	n/a
114.7505	0.0445	229501	keystroke_a	a	n/a
114.78	0.12	229560	keystroke_l	l	n/a
114.885	0.12	229770	keystroke_s	s	n/a
114.945	0.12	229890	keystroke_e	e	n/a
115.14	0.09	230280	keystroke_Key.enter	Key.enter	n/a
115.238	21.6555	230476	prompt	n/a	pharmaceutical superintendent legacy dutch\n
116.07	0.105	232140	keystroke_p	p	n/a
116.49	0.075	232980	keystroke_h	h	n/a
116.6405	0.135	233281	keystroke_a	a	n/a
116.8505	0.09	233701	keystroke_r	r	n/a
117.0155	0.105	234031	keystroke_a	a	n/a
117.1355	0.105	234271	keystroke_m	m	n/a
117.9455	0.03	235891	keystroke_Key.backspace	Key.backspace	n/a
118.0505	0.06	236101	keystroke_Key.backspace	Key.backspace	n/a
118.2465	0.074	236493	keystroke_m	m	n/a
118.351	0.1195	236702	keystroke_a	a	n/a
118.8305	0.135	237661	keystroke_s	s	n/a
118.9805	0.075	237961	keystroke_e	e	n/a
119.6105	0.045	239221	keystroke_Key.backspace	Key.backspace	n/a
119.7155	0.09	239431	keystroke_Key.backspace	Key.backspace	n/a
119.7455	0.0755	239491	keystroke_c	c	n/a
119.9255	0.0755	239851	keystroke_e	e	n/a
120.706	0.105	241412	keystroke_u	u	n/a
120.9155	0.089	241831	keystroke_t	t	n/a
121.021	0.0745	242042	keystroke_i	i	n/a
121.5605	0.1045	243121	keystroke_c	c	n/a
121.6955	0.105	243391	keystroke_a	a	n/a
121.7855	0.0905	243571	keystroke_l	l	n/a
121.9205	0.0755	243841	keystroke_Key.space	Key.space	n/a
122.8055	0.12	245611	keystroke_s	s	n/a
123.0305	0.075	246061	keystroke_u	u	n/a
123.2405	0.105	246481	keystroke_p	p	n/a
123.3465	0.074	246693	keystroke_e	e	n/a
123.5255	0.075	247051	keystroke_r	r	n/a
123.8855	0.06	247771	keystroke_i	i	n/a
124.0505	0.105	248101	keystroke_n	n	n/a
124.5755	0.06	249151	keystroke_d	d	n/a
124.7105	0.09	249421	keystroke_e	e	n/a
124.831	0.104	249662	keystroke_n	n	n/a
125.131	0.074	250262	keystroke_d	d	n/a
125.251	0.089	250502	keystroke_e	e	n/a
125.355	0.1055	250710	keystroke_n	n	n/a
125.475	0.076	250950	keystroke_t	t	n/a
125.6105	0.12	251221	keystroke_Key.space	Key.space	n/a
130.5625	0.001	261125	keystroke_Key.backspace	Key.backspace	n/a
130.7405	0.015	261481	keystroke_Key.backspace	Key.backspace	n/a
130.8155	0.0605	261631	keystroke_Key.backspace	Key.backspace	n/a
130.9505	0.06	261901	keystroke_Key.backspace	Key.backspace	n/a
131.0855	0.06	262171	keystroke_Key.backspace	Key.backspace	n/a
131.221	0.0445	262442	keystroke_Key.backspace	Key.backspace	n/a
131.4005	0.015	262801	keystroke_Key.backspace	Key.backspace	n/a
131.49	0.106	262980	keystroke_Key.backspace	Key.backspace	n/a
131.8355	0.06	263671	keystroke_t	t	n/a
132.0455	0.15	264091	keystroke_e	e	n/a
132.1505	0.135	264301	keystroke_n	n	n/a
133.276	0.06	266552	keystroke_d	d	n/a
133.4105	0.105	266821	keystroke_e	e	n/a
133.4705	0.12	266941	keystroke_n	n	n/a
133.621	0.105	267242	keystroke_t	t	n/a
133.711	0.135	267422	keystroke_Key.space	Key.space	n/a
134.521	0.105	269042	keystroke_l	l	n/a
134.566	0.075	269132	keystroke_e	e	n/a
134.761	0.105	269522	keystroke_g	g	n/a
134.911	0.135	269822	keystroke_a	a	n/a
135.181	0.06	270362	keystroke_c	c	n/a
135.405	0.1055	270810	keystroke_y	y	n/a
135.6455	0.075	271291	keystroke_Key.space	Key.space	n/a
136.0355	0.12	272071	keystroke_d	d	n/a
136.1565	0.104	272313	keystroke_u	u	n/a
136.3055	0.06	272611	keystroke_t	t	n/a
136.5315	0.089	273063	keystroke_c	c	n/a
136.5915	0.0895	273183	keystroke_h	h	n/a
136.7855	0.105	273571	keystroke_Key.enter	Key.enter	n/a
136.8995	10.0275	273799	prompt	n/a	fluid geographic defendant examine\n
137.626	0.09	275252	keystroke_f	f	n/a
137.731	0.089	275462	keystroke_l	l	n/a
137.9265	0.0595	275853	keystroke_u	u	n/a
138.166	0.015	276332	keystroke_i	i	n/a
138.195	0.105	276390	keystroke_d	d	n/a
138.286	0.12	276572	keystroke_Key.space	Key.space	n/a
138.781	0.09	277562	keystroke_g	g	n/a
139.1415	0.0895	278283	keystroke_e	e	n/a
139.276	0.105	278552	keystroke_o	o	n/a
139.471	0.06	278942	keystroke_g	g	n/a
139.6355	0.0455	279271	keystroke_r	r	n/a
139.741	0.105	279482	keystroke_a	a	n/a
139.831	0.105	279662	keystroke_p	p	n/a
139.996	0.1205	279992	keystroke_h	h	n/a
140.1305	0.0455	280261	keystroke_i	i	n/a
140.206	0.09	280412	keystroke_c	c	n/a
140.356	0.1045	280712	keystroke_Key.space	Key.space	n/a
141.076	0.0745	282152	keystroke_d	d	n/a
141.2555	0.09	282511	keystroke_e	e	n/a
141.7955	0.09	283591	keystroke_f	f	n/a
142.756	0.105	285512	keystroke_e	e	n/a
142.951	0.12	285902	keystroke_n	n	n/a
143.101	0.12	286202	keystroke_d	d	n/a
143.236	0.135	286472	keystroke_a	a	n/a
143.3855	0.0905	286771	keystroke_n	n	n/a
143.551	0.0745	287102	keystroke_t	t	n/a
143.851	0.089	287702	keystroke_Key.space	Key.space	n/a
144.33	0.0905	288660	keystroke_e	e	n/a
144.571	0.105	289142	keystroke_x	x	n/a
144.8255	0.1205	289651	keystroke_a	a	n/a
145.6205	0.1355	291241	keystroke_m	m	n/a
146.356	0.06	292712	keystroke_i	i	n/a
146.521	0.0745	293042	keystroke_n	n	n/a
146.6105	0.075	293221	keystroke_e	e	n/a
146.8205	0.1055	293641	keystroke_Key.enter	Key.enter	n/a
146.9315	12.2205	293863	prompt	n/a	conviction asian robert transformation\n
148.1105	0.0155	296221	keystroke_c	c	n/a
148.126	0.0595	296252	keystroke_o	o	n/a
148.2905	0.06	296581	keystroke_n	n	n/a
148.4255	0.1055	296851	keystroke_v	v	n/a
148.5605	0.09	297121	keystroke_i	i	n/a
148.681	0.1045	297362	keystroke_c	c	n/a
148.9355	0.105	297871	keystroke_t	t	n/a
149.0265	0.0445	298053	keystroke_i	i	n/a
149.1605	0.075	298321	keystroke_o	o	n/a
149.3415	0.0595	298683	keystroke_n	n	n/a
149.5505	0.12	299101	keystroke_Key.space	Key.space	n/a
150.106	0.105	300212	keystroke_a	a	n/a
150.256	0.12	300512	keystroke_s	s	n/a
150.421	0.0455	300842	keystroke_i	i	n/a
150.5265	0.0445	301053	keystroke_a	a	n/a
150.631	0.0595	301262	keystroke_n	n	n/a
150.8105	0.105	301621	keystroke_Key.space	Key.space	n/a
152.9105	0.09	305821	keystroke_r	r	n/a
153.031	0.0895	306062	keystroke_o	o	n/a
153.346	0.09	306692	keystroke_b	b	n/a
153.496	0.09	306992	keystroke_e	e	n/a
153.691	0.06	307382	keystroke_r	r	n/a
153.856	0.075	307712	keystroke_t	t	n/a
154.006	0.105	308012	keystroke_Key.space	Key.space	n/a
154.6355	0.0755	309271	keystroke_t	t	n/a
154.786	0.0895	309572	keystroke_r	r	n/a
154.92	0.1505	309840	keystroke_a	a	n/a
155.056	0.1045	310112	keystroke_n	n	n/a
155.2355	0.0455	310471	keystroke_s	s	n/a
155.4005	0.09	310801	keystroke_f	f	n/a
155.5355	0.06	311071	keystroke_o	o	n/a
155.6405	0.0905	311281	keystroke_r	r	n/a
155.806	0.075	311612	keystroke_m	m	n/a
155.9105	0.105	311821	keystroke_a	a	n/a
156.076	0.075	312152	keystroke_t	t	n/a
156.3905	0.0305	312781	keystroke_o	o	n/a
156.9305	0.0455	313861	keystroke_\	\	n/a
157.3655	0.06	314731	keystroke_Key.backspace	Key.backspace	n/a
157.4855	0.0605	314971	keystroke_Key.backspace	Key.backspace	n/a
157.996	0.0455	315992	keystroke_i	i	n/a
158.116	0.09	316232	keystroke_o	o	n/a
158.326	0.09	316652	keystroke_n	n	n/a
159.016	0.134	318032	keystroke_Key.enter	Key.enter	n/a
159.1565	12.086	318313	prompt	n/a	eight lady excellent conventional\n
159.946	0.105	319892	keystroke_e	e	n/a
160.036	0.105	320072	keystroke_i	i	n/a
160.171	0.09	320342	keystroke_g	g	n/a
160.2755	0.1055	320551	keystroke_h	h	n/a
160.3955	0.0905	320791	keystroke_t	t	n/a
160.56	0.106	321120	keystroke_Key.space	Key.space	n/a
160.996	0.105	321992	keystroke_l	l	n/a
161.086	0.134	322172	keystroke_a	a	n/a
161.206	0.105	322412	keystroke_d	d	n/a
161.491	0.06	322982	keystroke_y	y	n/a
161.8355	0.105	323671	keystroke_Key.space	Key.space	n/a
163.3505	0.075	326701	keystroke_e	e	n/a
163.6955	0.105	327391	keystroke_x	x	n/a
163.9655	0.0905	327931	keystroke_c	c	n/a
164.2055	0.0455	328411	keystroke_e	e	n/a
164.9705	0.09	329941	keystroke_l	l	n/a
165.1515	0.104	330303	keystroke_l	l	n/a
165.3155	0.075	330631	keystroke_e	e	n/a
165.406	0.0895	330812	keystroke_n	n	n/a
165.5405	0.0905	331081	keystroke_t	t	n/a
165.795	0.09	331590	keystroke_Key.space	Key.space	n/a
166.906	0.12	333812	keystroke_c	c	n/a
167.0405	0.075	334081	keystroke_o	o	n/a
167.3105	0.0755	334621	keystroke_n	n	n/a
168.181	0.089	336362	keystroke_v	v	n/a
168.4805	0.09	336961	keystroke_e	e	n/a
168.616	0.135	337232	keystroke_n	n	n/a
168.976	0.1045	337952	keystroke_t	t	n/a
169.186	0.075	338372	keystroke_i	i	n/a
169.426	0.105	338852	keystroke_o	o	n/a
169.651	0.089	339302	keystroke_n	n	n/a
170.656	0.105	341312	keystroke_a	a	n/a
170.896	0.1345	341792	keystroke_l	l	n/a
171.1055	0.135	342211	keystroke_Key.enter	Key.enter	n/a
171.247	6.49	342494	prompt	n/a	myanmar flow or pest\n
172.051	0.12	344102	keystroke_m	m	n/a
172.1855	0.105	344371	keystroke_y	y	n/a
173.445	0.106	346890	keystroke_a	a	n/a
174.045	0.121	348090	keystroke_n	n	n/a
174.721	0.105	349442	keystroke_m	m	n/a
175.095	0.1205	350190	keystroke_a	a	n/a
175.2905	0.1055	350581	keystroke_r	r	n/a
175.501	0.1345	351002	keystroke_Key.space	Key.space	n/a
175.7405	0.09	351481	keystroke_f	f	n/a
175.846	0.0895	351692	keystroke_l	l	n/a
175.9955	0.1205	351991	keystroke_o	o	n/a
176.1305	0.105	352261	keystroke_w	w	n/a
176.2655	0.135	352531	keystroke_Key.space	Key.space	n/a
176.7605	0.075	353521	keystroke_o	o	n/a
176.8655	0.12	353731	keystroke_r	r	n/a
176.9555	0.12	353911	keystroke_Key.space	Key.space	n/a
177.0905	0.105	354181	keystroke_p	p	n/a
177.1805	0.105	354361	keystroke_e	e	n/a
177.301	0.105	354602	keystroke_s	s	n/a
177.466	0.119	354932	keystroke_t	t	n/a
177.6305	0.1045	355261	keystroke_Key.enter	Key.enter	n/a
177.7415	12.6415	355483	prompt	n/a	hotmail wear calculate humidity\n
178.846	0.089	357692	keystroke_h	h	n/a
179.04	0.075	358080	keystroke_o	o	n/a
179.1755	0.0905	358351	keystroke_t	t	n/a
179.641	0.0895	359282	keystroke_m	m	n/a
179.8205	0.105	359641	keystroke_a	a	n/a
179.9105	0.075	359821	keystroke_i	i	n/a
180.0905	0.06	360181	keystroke_l	l	n/a
180.241	0.1045	360482	keystroke_Key.space	Key.space	n/a
181.2455	0.09	362491	keystroke_w	w	n/a
181.3805	0.0905	362761	keystroke_e	e	n/a
181.5455	0.0745	363091	keystroke_a	a	n/a
181.6955	0.09	363391	keystroke_r	r	n/a
182.325	0.121	364650	keystroke_Key.space	Key.space	n/a
183.5555	0.0895	367111	keystroke_c	c	n/a
183.7055	0.105	367411	keystroke_a	a	n/a
183.8405	0.135	367681	keystroke_l	l	n/a
184.306	0.105	368612	keystroke_c	c	n/a
184.426	0.075	368852	keystroke_u	u	n/a
185.5505	0.1055	371101	keystroke_l	l	n/a
185.671	0.09	371342	keystroke_a	a	n/a
185.806	0.075	371612	keystroke_t	t	n/a
186.001	0.09	372002	keystroke_e	e	n/a
186.285	0.091	372570	keystroke_Key.space	Key.space	n/a
186.781	0.1345	373562	keystroke_h	h	n/a
188.671	0.0895	377342	keystroke_u	u	n/a
188.9105	0.0905	377821	keystroke_m	m	n/a
189.3455	0.0755	378691	keystroke_i	i	n/a
189.5555	0.105	379111	keystroke_d	d	n/a
189.676	0.0595	379352	keystroke_i	i	n/a
189.8405	0.105	379681	keystroke_t	t	n/a
190.0655	0.09	380131	keystroke_y	y	n/a
190.2755	0.105	380551	keystroke_Key.enter	Key.enter	n/a
190.389	13.794	380778	prompt	n/a	bonds characterization fellow relief\n
191.0555	0.0905	382111	keystroke_b	b	n/a
191.191	0.0745	382382	keystroke_o	o	n/a
191.341	0.135	382682	keystroke_n	n	n/a
191.4455	0.105	382891	keystroke_d	d	n/a
191.611	0.135	383222	keystroke_s	s	n/a
191.7305	0.1205	383461	keystroke_Key.space	Key.space	n/a
192.016	0.135	384032	keystroke_c	c	n/a
192.165	0.091	384330	keystroke_h	h	n/a
192.631	0.105	385262	keystroke_r	r	n/a
192.765	0.1205	385530	keystroke_a	a	n/a
192.9905	0.091	385981	keystroke_c	c	n/a
193.2315	0.074	386463	keystroke_t	t	n/a
193.426	0.0595	386852	keystroke_e	e	n/a
193.5605	0.105	387121	keystroke_r	r	n/a
193.6805	0.1055	387361	keystroke_i	i	n/a
193.846	0.105	387692	keystroke_z	z	n/a
194.04	0.075	388080	keystroke_a	a	n/a
194.16	0.1205	388320	keystroke_t	t	n/a
194.2355	0.075	388471	keystroke_i	i	n/a
194.4005	0.1205	388801	keystroke_o	o	n/a
194.5055	0.12	389011	keystroke_n	n	n/a
194.6555	0.135	389311	keystroke_Key.space	Key.space	n/a
195.316	0.075	390632	keystroke_f	f	n/a
195.5855	0.1055	391171	keystroke_e	e	n/a
202.2335	0.001	404467	keystroke_l	l	n/a
202.3065	0.06	404613	keystroke_l	l	n/a
202.441	0.1355	404882	keystroke_o	o	n/a
202.5315	0.1195	405063	keystroke_w	w	n/a
202.7105	0.12	405421	keystroke_Key.space	Key.space	n/a
202.8455	0.0455	405691	keystroke_r	r	n/a
202.9955	0.12	405991	keystroke_e	e	n/a
203.101	0.135	406202	keystroke_l	l	n/a
203.356	0.12	406712	keystroke_i	i	n/a
203.431	0.105	406862	keystroke_e	e	n/a
203.641	0.0455	407282	keystroke_f	f	n/a
204.0605	0.12	408121	keystroke_Key.enter	Key.enter	n/a
204.1875	10.1205	408375	prompt	n/a	reduces cameroon where's slave\n
204.8115	0.044	409623	keystroke_r	r	n/a
204.9605	0.045	409921	keystroke_e	e	n/a
205.1105	0.0905	410221	keystroke_d	d	n/a
205.1865	0.1045	410373	keystroke_u	u	n/a
205.321	0.0895	410642	keystroke_c	c	n/a
205.4855	0.1055	410971	keystroke_e	e	n/a
205.621	0.1505	411242	keystroke_s	s	n/a
205.756	0.12	411512	keystroke_Key.space	Key.space	n/a
206.056	0.135	412112	keystroke_a	a	n/a
206.7305	0.0595	413461	keystroke_Key.backspace	Key.backspace	n/a
206.806	0.09	413612	keystroke_c	c	n/a
207.226	0.135	414452	keystroke_a	a	n/a
207.541	0.12	415082	keystroke_m	m	n/a
207.676	0.0605	415352	keystroke_e	e	n/a
207.841	0.09	415682	keystroke_r	r	n/a
208.036	0.06	416072	keystroke_o	o	n/a
208.1555	0.0905	416311	keystroke_o	o	n/a
208.351	0.1045	416702	keystroke_n	n	n/a
208.576	0.1045	417152	keystroke_Key.space	Key.space	n/a
208.7105	0.1505	417421	keystroke_w	w	n/a
208.846	0.105	417692	keystroke_h	h	n/a
208.966	0.105	417932	keystroke_e	e	n/a
209.1905	0.06	418381	keystroke_r	r	n/a
209.371	0.1205	418742	keystroke_e	e	n/a
209.551	0.15	419102	keystroke_Key.space	Key.space	n/a
210.1205	0.06	420241	keystroke_Key.backspace	Key.backspace	n/a
210.571	0.015	421142	keystroke_'	'	n/a
211.126	0.135	422252	keystroke_s	s	n/a
211.216	0.12	422432	keystroke_Key.space	Key.space	n/a
211.381	0.135	422762	keystroke_s	s	n/a
211.471	0.105	422942	keystroke_l	l	n/a
211.606	0.105	423212	keystroke_a	a	n/a
211.801	0.075	423602	keystroke_v	v	n/a
212.0115	0.104	424023	keystroke_e	e	n/a
214.294	0.012	428588	keystroke_Key.enter	Key.enter	n/a
214.3135	9.099	428627	prompt	n/a	saturn what systematic disney\n
215.296	0.03	430592	keystroke_s	s	n/a
215.3555	0.09	430711	keystroke_a	a	n/a
215.5055	0.09	431011	keystroke_t	t	n/a
215.6265	0.105	431253	keystroke_u	u	n/a
215.7165	0.104	431433	keystroke_r	r	n/a
215.8515	0.12	431703	keystroke_n	n	n/a
215.9855	0.075	431971	keystroke_Key.space	Key.space	n/a
216.0765	0.0895	432153	keystroke_w	w	n/a
216.1805	0.09	432361	keystroke_h	h	n/a
216.2555	0.1355	432511	keystroke_a	a	n/a
216.4055	0.121	432811	keystroke_t	t	n/a
216.5405	0.12	433081	keystroke_Key.space	Key.space	n/a
217.0355	0.105	434071	keystroke_s	s	n/a
217.351	0.09	434702	keystroke_y	y	n/a
219.151	0.135	438302	keystroke_t	t	n/a
219.6305	0.105	439261	keystroke_Key.backspace	Key.backspace	n/a
219.6615	0.12	439323	keystroke_s	s	n/a
220.0805	0.091	440161	keystroke_t	t	n/a
220.2755	0.12	440551	keystroke_e	e	n/a
220.3965	0.119	440793	keystroke_m	m	n/a
220.6955	0.121	441391	keystroke_a	a	n/a
220.861	0.1055	441722	keystroke_t	t	n/a
221.0115	0.104	442023	keystroke_i	i	n/a
221.1305	0.105	442261	keystroke_c	c	n/a
221.266	0.1355	442532	keystroke_Key.space	Key.space	n/a
221.491	0.105	442982	keystroke_d	d	n/a
221.626	0.09	443252	keystroke_i	i	n/a
222.1065	0.1195	444213	keystroke_s	s	n/a
222.316	0.12	444632	keystroke_n	n	n/a
222.421	0.105	444842	keystroke_e	e	n/a
223.0365	0.0745	446073	keystroke_y	y	n/a
223.291	0.12	446582	keystroke_Key.enter	Key.enter	n/a
223.417	9.0405	446834	prompt	n/a	textbook derby wednesday adults\n
226.0385	0.028	452077	keystroke_t	t	n/a
226.1565	0.104	452313	keystroke_e	e	n/a
226.3805	0.09	452761	keystroke_x	x	n/a
226.6365	0.105	453273	keystroke_t	t	n/a
226.8455	0.076	453691	keystroke_b	b	n/a
227.1015	0.045	454203	keystroke_o	o	n/a
227.2365	0.0595	454473	keystroke_o	o	n/a
227.4005	0.0895	454801	keystroke_k	k	n/a
227.55	0.136	455100	keystroke_Key.space	Key.space	n/a
228.1055	0.075	456211	keystroke_d	d	n/a
228.2715	0.0445	456543	keystroke_e	e	n/a
228.391	0.1345	456782	keystroke_r	r	n/a
228.5405	0.0905	457081	keystroke_b	b	n/a
228.736	0.09	457472	keystroke_y	y	n/a
229.051	0.12	458102	keystroke_Key.space	Key.space	n/a
229.276	0.1205	458552	keystroke_w	w	n/a
229.411	0.105	458822	keystroke_e	e	n/a
229.621	0.1205	459242	keystroke_d	d	n/a
229.921	0.1045	459842	keystroke_n	n	n/a
230.0105	0.1055	460021	keystroke_e	e	n/a
230.2055	0.105	460411	keystroke_s	s	n/a
230.5655	0.1055	461131	keystroke_d	d	n/a
230.7015	0.119	461403	keystroke_a	a	n/a
230.971	0.075	461942	keystroke_y	y	n/a
231.136	0.104	462272	keystroke_Key.space	Key.space	n/a
231.301	0.1355	462602	keystroke_a	a	n/a
231.526	0.105	463052	keystroke_d	d	n/a
231.7215	0.1045	463443	keystroke_u	u	n/a
231.901	0.105	463802	keystroke_l	l	n/a
231.976	0.105	463952	keystroke_t	t	n/a
232.186	0.09	464372	keystroke_s	s	n/a
232.336	0.119	464672	keystroke_Key.enter	Key.enter	n/a
232.462	9.116	464924	prompt	n/a	hair contemporary deutsche kong\n
233.131	0.09	466262	keystroke_a	a	n/a
233.221	0.0755	466442	keystroke_h	h	n/a
233.476	0.045	466952	keystroke_Key.backspace	Key.backspace	n/a
233.5805	0.0895	467161	keystroke_Key.backspace	Key.backspace	n/a
233.791	0.0755	467582	keystroke_h	h	n/a
233.911	0.12	467822	keystroke_a	a	n/a
233.986	0.09	467972	keystroke_i	i	n/a
234.1505	0.105	468301	keystroke_r	r	n/a
234.2855	0.12	468571	keystroke_Key.space	Key.space	n/a
234.5105	0.106	469021	keystroke_c	c	n/a
234.6305	0.075	469261	keystroke_o	o	n/a
234.8105	0.1055	469621	keystroke_n	n	n/a
235.0205	0.0755	470041	keystroke_t	t	n/a
235.201	0.105	470402	keystroke_e	e	n/a
235.2905	0.165	470581	keystroke_m	m	n/a
235.426	0.15	470852	keystroke_p	p	n/a
235.56	0.136	471120	keystroke_o	o	n/a
235.756	0.12	471512	keystroke_r	r	n/a
235.98	0.1355	471960	keystroke_a	a	n/a
236.3255	0.1205	472651	keystroke_r	r	n/a
236.6105	0.0755	473221	keystroke_y	y	n/a
236.746	0.1345	473492	keystroke_Key.space	Key.space	n/a
237.046	0.075	474092	keystroke_d	d	n/a
237.2255	0.061	474451	keystroke_e	e	n/a
238.2465	0.134	476493	keystroke_u	u	n/a
238.366	0.1195	476732	keystroke_t	t	n/a
238.9655	0.1505	477931	keystroke_s	s	n/a
239.3555	0.0905	478711	keystroke_h	h	n/a
239.6855	0.09	479371	keystroke_Key.backspace	Key.backspace	n/a
239.7765	0.075	479553	keystroke_c	c	n/a
239.9265	0.0895	479853	keystroke_h	h	n/a
240.1065	0.12	480213	keystroke_e	e	n/a
240.4355	0.135	480871	keystroke_Key.space	Key.space	n/a
240.8405	0.075	481681	keystroke_k	k	n/a
241.0065	0.075	482013	keystroke_o	o	n/a
241.1565	0.104	482313	keystroke_n	n	n/a
241.2315	0.104	482463	keystroke_g	g	n/a
241.471	0.1045	482942	keystroke_Key.enter	Key.enter	n/a
241.583	5.935	483166	prompt	n/a	liberal suse orchestra peeing\n
242.3855	0.106	484771	keystroke_l	l	n/a
242.5515	0.075	485103	keystroke_i	i	n/a
242.7315	0.0895	485463	keystroke_b	b	n/a
242.8365	0.045	485673	keystroke_e	e	n/a
242.9715	0.105	485943	keystroke_r	r	n/a
243.0615	0.1345	486123	keystroke_a	a	n/a
243.1815	0.1495	486363	keystroke_l	l	n/a
243.346	0.105	486692	keystroke_Key.space	Key.space	n/a
243.676	0.1195	487352	keystroke_s	s	n/a
243.766	0.1195	487532	keystroke_u	u	n/a
244.1265	0.15	488253	keystroke_s	s	n/a
244.2155	0.1205	488431	keystroke_e	e	n/a
244.4705	0.135	488941	keystroke_Key.space	Key.space	n/a
244.8765	0.104	489753	keystroke_o	o	n/a
244.9655	0.075	489931	keystroke_r	r	n/a
245.1765	0.0895	490353	keystroke_c	c	n/a
245.3255	0.0905	490651	keystroke_h	h	n/a
245.4305	0.076	490861	keystroke_e	e	n/a
245.5505	0.12	491101	keystroke_s	s	n/a
245.7305	0.075	491461	keystroke_t	t	n/a
245.8805	0.1055	491761	keystroke_r	r	n/a
245.9705	0.166	491941	keystroke_a	a	n/a
246.106	0.135	492212	keystroke_Key.space	Key.space	n/a
246.5715	0.1345	493143	keystroke_p	p	n/a
246.7215	0.0595	493443	keystroke_e	e	n/a
246.856	0.105	493712	keystroke_e	e	n/a
246.946	0.135	493892	keystroke_i	i	n/a
247.021	0.12	494042	keystroke_n	n	n/a
247.126	0.075	494252	keystroke_g	g	n/a
247.3805	0.1355	494761	keystroke_Key.enter	Key.enter	n/a
247.5225	3.5805	495045	prompt	n/a	perry lies setup lowest\n
248.2965	0.119	496593	keystroke_p	p	n/a
248.371	0.0605	496742	keystroke_e	e	n/a
248.536	0.0605	497072	keystroke_r	r	n/a
248.686	0.0595	497372	keystroke_r	r	n/a
248.896	0.0595	497792	keystroke_y	y	n/a
249.016	0.12	498032	keystroke_Key.space	Key.space	n/a
249.121	0.15	498242	keystroke_l	l	n/a
249.2555	0.12	498511	keystroke_i	i	n/a
249.3765	0.104	498753	keystroke_e	e	n/a
249.526	0.1505	499052	keystroke_s	s	n/a
249.646	0.1345	499292	keystroke_Key.space	Key.space	n/a
250.1405	0.1505	500281	keystroke_s	s	n/a
250.2155	0.1055	500431	keystroke_e	e	n/a
250.426	0.0605	500852	keystroke_t	t	n/a
250.501	0.075	501002	keystroke_u	u	n/a
250.756	0.135	501512	keystroke_p	p	n/a
251.011	0.09	502022	keystroke_Key.enter	Key.enter	n/a
251.107	5.3355	502214	prompt	n/a	solid prison regards brooks\n
252.391	0.105	504782	keystroke_s	s	n/a
252.481	0.075	504962	keystroke_o	o	n/a
252.646	0.1355	505292	keystroke_l	l	n/a
252.766	0.135	505532	keystroke_i	i	n/a
252.886	0.12	505772	keystroke_d	d	n/a
252.991	0.105	505982	keystroke_Key.space	Key.space	n/a
253.111	0.105	506222	keystroke_p	p	n/a
253.201	0.105	506402	keystroke_r	r	n/a
253.291	0.12	506582	keystroke_i	i	n/a
253.456	0.1045	506912	keystroke_s	s	n/a
253.576	0.06	507152	keystroke_o	o	n/a
253.741	0.0895	507482	keystroke_n	n	n/a
253.8905	0.09	507781	keystroke_Key.space	Key.space	n/a
254.0555	0.045	508111	keystroke_r	r	n/a
254.2205	0.061	508441	keystroke_e	e	n/a
254.3865	0.09	508773	keystroke_g	g	n/a
254.5505	0.166	509101	keystroke_a	a	n/a
254.6415	0.1045	509283	keystroke_r	r	n/a
254.8505	0.0905	509701	keystroke_d	d	n/a
254.9565	0.149	509913	keystroke_s	s	n/a
255.091	0.1045	510182	keystroke_Key.space	Key.space	n/a
255.2555	0.075	510511	keystroke_b	b	n/a
255.5855	0.0755	511171	keystroke_r	r	n/a
255.7055	0.0605	511411	keystroke_o	o	n/a
255.8255	0.075	511651	keystroke_o	o	n/a
256.021	0.1045	512042	keystroke_k	k	n/a
256.1265	0.134	512253	keystroke_s	s	n/a
256.3055	0.135	512611	keystroke_Key.enter	Key.enter	n/a
256.4475	10.1445	512895	prompt	n/a	performing mostly cameroon segment\n
257.2505	0.105	514501	keystroke_p	p	n/a
257.3255	0.0605	514651	keystroke_e	e	n/a
257.4905	0.06	514981	keystroke_r	r	n/a
257.731	0.045	515462	keystroke_f	f	n/a
258.106	0.105	516212	keystroke_o	o	n/a
258.226	0.1195	516452	keystroke_r	r	n/a
258.3155	0.12	516631	keystroke_m	m	n/a
258.496	0.1055	516992	keystroke_i	i	n/a
258.616	0.1055	517232	keystroke_n	n	n/a
258.7355	0.106	517471	keystroke_g	g	n/a
258.8565	0.1045	517713	keystroke_Key.space	Key.space	n/a
259.081	0.104	518162	keystroke_m	m	n/a
259.231	0.1195	518462	keystroke_o	o	n/a
259.3365	0.1195	518673	keystroke_s	s	n/a
259.501	0.1355	519002	keystroke_t	t	n/a
260.2955	0.1205	520591	keystroke_l	l	n/a
260.431	0.09	520862	keystroke_y	y	n/a
260.655	0.1355	521310	keystroke_Key.space	Key.space	n/a
261.135	0.106	522270	keystroke_c	c	n/a
261.316	0.1205	522632	keystroke_a	a	n/a
261.481	0.12	522962	keystroke_m	m	n/a
261.796	0.089	523592	keystroke_e	e	n/a
261.96	0.106	523920	keystroke_r	r	n/a
262.201	0.06	524402	keystroke_o	o	n/a
262.351	0.045	524702	keystroke_o	o	n/a
262.501	0.12	525002	keystroke_n	n	n/a
262.636	0.12	525272	keystroke_Key.space	Key.space	n/a
262.771	0.165	525542	keystroke_s	s	n/a
263.191	0.09	526382	keystroke_e	e	n/a
263.4165	0.0895	526833	keystroke_g	g	n/a
263.716	0.075	527432	keystroke_m	m	n/a
263.836	0.1055	527672	keystroke_e	e	n/a
263.926	0.12	527852	keystroke_n	n	n/a
264.061	0.09	528122	keystroke_t	t	n/a
266.4625	0.118	532925	keystroke_Key.enter	Key.enter	n/a
266.597	8.4755	533194	prompt	n/a	extension jordan mixture mexican\n
267.2105	0.09	534421	keystroke_e	e	n/a
267.4055	0.105	534811	keystroke_x	x	n/a
267.601	0.0895	535202	keystroke_t	t	n/a
267.7815	0.059	535563	keystroke_e	e	n/a
267.8565	0.1345	535713	keystroke_n	n	n/a
268.3515	0.0895	536703	keystroke_s	s	n/a
268.4255	0.075	536851	keystroke_i	i	n/a
268.6055	0.06	537211	keystroke_o	o	n/a
268.7855	0.106	537571	keystroke_n	n	n/a
268.9055	0.135	537811	keystroke_Key.space	Key.space	n/a
269.0855	0.1205	538171	keystroke_j	j	n/a
269.236	0.074	538472	keystroke_o	o	n/a
269.5355	0.1355	539071	keystroke_r	r	n/a
269.9415	0.0295	539883	keystroke_n	n	n/a
270.3305	0.045	540661	keystroke_Key.backspace	Key.backspace	n/a
270.3605	0.105	540721	keystroke_d	d	n/a
270.4955	0.15	540991	keystroke_a	a	n/a
270.6605	0.076	541321	keystroke_m	m	n/a
271.035	0.061	542070	keystroke_Key.backspace	Key.backspace	n/a
271.231	0.06	542462	keystroke_n	n	n/a
271.335	0.121	542670	keystroke_Key.space	Key.space	n/a
271.501	0.0745	543002	keystroke_m	m	n/a
271.6505	0.121	543301	keystroke_i	i	n/a
271.7855	0.1355	543571	keystroke_x	x	n/a
272.1005	0.105	544201	keystroke_t	t	n/a
272.221	0.1345	544442	keystroke_u	u	n/a
272.341	0.0755	544682	keystroke_r	r	n/a
272.5055	0.105	545011	keystroke_e	e	n/a
272.5805	0.135	545161	keystroke_Key.space	Key.space	n/a
272.7605	0.1055	545521	keystroke_m	m	n/a
272.836	0.075	545672	keystroke_e	e	n/a
273.0305	0.1055	546061	keystroke_x	x	n/a
273.226	0.09	546452	keystroke_c	c	n/a
273.376	0.06	546752	keystroke_i	i	n/a
273.735	0.046	547470	keystroke_Key.backspace	Key.backspace	n/a
273.841	0.0445	547682	keystroke_Key.backspace	Key.backspace	n/a
274.021	0.0595	548042	keystroke_i	i	n/a
274.0655	0.1205	548131	keystroke_c	c	n/a
274.2005	0.135	548401	keystroke_a	a	n/a
274.246	0.1045	548492	keystroke_n	n	n/a
274.891	0.18	549782	keystroke_Key.enter	Key.enter	n/a
275.0765	6.417	550153	prompt	n/a	leave stopping stainless breeding\n
275.7315	0.15	551463	keystroke_l	l	n/a
275.821	0.105	551642	keystroke_e	e	n/a
275.956	0.105	551912	keystroke_a	a	n/a
276.1205	0.121	552241	keystroke_v	v	n/a
276.346	0.1045	552692	keystroke_e	e	n/a
276.4355	0.1055	552871	keystroke_Key.space	Key.space	n/a
276.5255	0.105	553051	keystroke_s	s	n/a
276.6755	0.105	553351	keystroke_t	t	n/a
276.7815	0.044	553563	keystroke_o	o	n/a
277.276	0.06	554552	keystroke_p	p	n/a
277.441	0.0595	554882	keystroke_p	p	n/a
277.5905	0.06	555181	keystroke_i	i	n/a
277.7555	0.12	555511	keystroke_n	n	n/a
277.861	0.12	555722	keystroke_g	g	n/a
277.966	0.1345	555932	keystroke_Key.space	Key.space	n/a
278.2205	0.105	556441	keystroke_s	s	n/a
278.3405	0.09	556681	keystroke_t	t	n/a
278.4605	0.12	556921	keystroke_a	a	n/a
278.5655	0.06	557131	keystroke_i	i	n/a
278.701	0.12	557402	keystroke_n	n	n/a
279.0455	0.1345	558091	keystroke_l	l	n/a
279.166	0.1045	558332	keystroke_e	e	n/a
279.361	0.1055	558722	keystroke_s	s	n/a
279.556	0.1355	559112	keystroke_s	s	n/a
279.7955	0.1205	559591	keystroke_Key.space	Key.space	n/a
280.201	0.075	560402	keystroke_b	b	n/a
280.291	0.06	560582	keystroke_r	r	n/a
280.456	0.0755	560912	keystroke_e	e	n/a
280.636	0.0445	561272	keystroke_e	e	n/a
280.8005	0.12	561601	keystroke_d	d	n/a
280.9215	0.1195	561843	keystroke_i	i	n/a
280.996	0.1195	561992	keystroke_n	n	n/a
281.1305	0.075	562261	keystroke_g	g	n/a
281.3555	0.135	562711	keystroke_Key.enter	Key.enter	n/a
281.501	7.686	563002	prompt	n/a	toyota survive lock occasion\n
282.2555	0.1505	564511	keystroke_t	t	n/a
282.556	0.0745	565112	keystroke_o	o	n/a
282.7355	0.12	565471	keystroke_y	y	n/a
283.171	0.09	566342	keystroke_o	o	n/a
283.2905	0.1205	566581	keystroke_t	t	n/a
283.456	0.15	566912	keystroke_a	a	n/a
283.591	0.12	567182	keystroke_Key.space	Key.space	n/a
283.801	0.135	567602	keystroke_s	s	n/a
283.981	0.12	567962	keystroke_u	u	n/a
284.071	0.075	568142	keystroke_r	r	n/a
284.3705	0.075	568741	keystroke_v	v	n/a
284.7005	0.0905	569401	keystroke_i	i	n/a
285.241	0.06	570482	keystroke_v	v	n/a
285.45	0.106	570900	keystroke_e	e	n/a
285.6905	0.105	571381	keystroke_Key.space	Key.space	n/a
285.961	0.075	571922	keystroke_l	l	n/a
286.126	0.12	572252	keystroke_o	o	n/a
286.426	0.15	572852	keystroke_c	c	n/a
286.621	0.075	573242	keystroke_k	k	n/a
286.786	0.12	573572	keystroke_Key.space	Key.space	n/a
287.221	0.09	574442	keystroke_o	o	n/a
287.3415	0.0595	574683	keystroke_c	c	n/a
287.506	0.0905	575012	keystroke_c	c	n/a
287.6555	0.135	575311	keystroke_a	a	n/a
288.406	0.105	576812	keystroke_s	s	n/a
288.4965	0.0895	576993	keystroke_i	i	n/a
288.6755	0.075	577351	keystroke_o	o	n/a
288.8405	0.1205	577681	keystroke_n	n	n/a
289.066	0.12	578132	keystroke_Key.enter	Key.enter	n/a
289.1915	8.666	578383	prompt	n/a	para drain christianity apnic\n
290.0715	0.1185	580143	keystroke_p	p	n/a
290.161	0.135	580322	keystroke_a	a	n/a
290.326	0.1205	580652	keystroke_r	r	n/a
290.505	0.151	581010	keystroke_a	a	n/a
290.7	0.09	581400	keystroke_Key.space	Key.space	n/a
290.881	0.074	581762	keystroke_d	d	n/a
291.046	0.03	582092	keystroke_r	r	n/a
291.361	0.12	582722	keystroke_a	a	n/a
291.451	0.09	582902	keystroke_i	i	n/a
291.661	0.105	583322	keystroke_n	n	n/a
291.7805	0.105	583561	keystroke_Key.space	Key.space	n/a
291.9905	0.106	583981	keystroke_c	c	n/a
292.111	0.0905	584222	keystroke_h	h	n/a
292.396	0.075	584792	keystroke_i	i	n/a
292.816	0.075	585632	keystroke_Key.backspace	Key.backspace	n/a
292.906	0.105	585812	keystroke_r	r	n/a
293.071	0.09	586142	keystroke_i	i	n/a
293.686	0.1195	587372	keystroke_s	s	n/a
294.8255	0.12	589651	keystroke_t	t	n/a
294.916	0.1345	589832	keystroke_i	i	n/a
295.0355	0.1355	590071	keystroke_a	a	n/a
295.155	0.12	590310	keystroke_n	n	n/a
295.41	0.105	590820	keystroke_i	i	n/a
295.501	0.09	591002	keystroke_t	t	n/a
295.711	0.0755	591422	keystroke_y	y	n/a
295.861	0.135	591722	keystroke_Key.space	Key.space	n/a
296.9255	0.045	593851	keystroke_a	a	n/a
296.941	0.1045	593882	keystroke_p	p	n/a
297.1205	0.105	594241	keystroke_n	n	n/a
297.2555	0.1355	594511	keystroke_i	i	n/a
297.3915	0.1195	594783	keystroke_c	c	n/a
297.6905	0.1645	595381	keystroke_Key.enter	Key.enter	n/a
297.862	10.901	595724	prompt	n/a	bang obtaining brian integrity\n
298.636	0.03	597272	keystroke_b	b	n/a
298.65	0.121	597300	keystroke_a	a	n/a
298.7565	0.1035	597513	keystroke_n	n	n/a
298.861	0.12	597722	keystroke_g	g	n/a
298.995	0.105	597990	keystroke_Key.space	Key.space	n/a
299.206	0.09	598412	keystroke_o	o	n/a
299.4165	0.0745	598833	keystroke_b	b	n/a
300.2705	0.12	600541	keystroke_t	t	n/a
300.66	0.136	601320	keystroke_a	a	n/a
301.3355	0.1195	602671	keystroke_i	i	n/a
301.546	0.1195	603092	keystroke_n	n	n/a
301.7105	0.106	603421	keystroke_i	i	n/a
301.8455	0.1205	603691	keystroke_n	n	n/a
301.996	0.135	603992	keystroke_g	g	n/a
302.1455	0.105	604291	keystroke_Key.space	Key.space	n/a
302.866	0.075	605732	keystroke_b	b	n/a
303.001	0.0905	606002	keystroke_r	r	n/a
303.406	0.105	606812	keystroke_i	i	n/a
303.541	0.135	607082	keystroke_a	a	n/a
303.661	0.075	607322	keystroke_n	n	n/a
303.811	0.12	607622	keystroke_Key.space	Key.space	n/a
304.186	0.045	608372	keystroke_i	i	n/a
304.426	0.0155	608852	keystroke_n	n	n/a
304.486	0.105	608972	keystroke_t	t	n/a
305.146	0.135	610292	keystroke_e	e	n/a
306.5405	0.0755	613081	keystroke_g	g	n/a
306.7505	0.106	613501	keystroke_r	r	n/a
306.9755	0.12	613951	keystroke_i	i	n/a
307.1405	0.105	614281	keystroke_t	t	n/a
307.3505	0.075	614701	keystroke_y	y	n/a
307.5305	0.12	615061	keystroke_Key.space	Key.space	n/a
308.6255	0.135	617251	keystroke_Key.enter	Key.enter	n/a
308.768	10.7795	617536	prompt	n/a	queens requested ebook traveling\n
309.5265	0.134	619053	keystroke_q	q	n/a
309.6615	0.1045	619323	keystroke_u	u	n/a
309.991	0.075	619982	keystroke_e	e	n/a
310.141	0.104	620282	keystroke_e	e	n/a
310.246	0.089	620492	keystroke_n	n	n/a
310.365	0.136	620730	keystroke_s	s	n/a
310.516	0.135	621032	keystroke_Key.space	Key.space	n/a
311.0715	0.105	622143	keystroke_r	r	n/a
311.4455	0.0605	622891	keystroke_e	e	n/a
311.866	0.0905	623732	keystroke_q	q	n/a
312.016	0.09	624032	keystroke_u	u	n/a
312.151	0.105	624302	keystroke_e	e	n/a
312.301	0.09	624602	keystroke_s	s	n/a
312.466	0.09	624932	keystroke_t	t	n/a
312.676	0.06	625352	keystroke_e	e	n/a
312.856	0.09	625712	keystroke_d	d	n/a
313.276	0.12	626552	keystroke_Key.space	Key.space	n/a
314.176	0.0895	628352	keystroke_e	e	n/a
314.596	0.0455	629192	keystroke_b	b	n/a
314.7765	0.0445	629553	keystroke_o	o	n/a
314.911	0.0745	629822	keystroke_o	o	n/a
315.0915	0.089	630183	keystroke_k	k	n/a
315.301	0.089	630602	keystroke_Key.space	Key.space	n/a
315.481	0.09	630962	keystroke_t	t	n/a
315.6765	0.075	631353	keystroke_r	r	n/a
315.8555	0.09	631711	keystroke_a	a	n/a
317.3255	0.076	634651	keystroke_v	v	n/a
317.7755	0.06	635551	keystroke_e	e	n/a
318.0755	0.12	636151	keystroke_l	l	n/a
318.2855	0.0755	636571	keystroke_i	i	n/a
318.4955	0.09	636991	keystroke_n	n	n/a
318.6015	0.0895	637203	keystroke_g	g	n/a
319.4105	0.135	638821	keystroke_Key.enter	Key.enter	n/a
319.5515	8.4415	639103	prompt	n/a	grant aruba travelers innovative\n
320.2955	0.1055	640591	keystroke_g	g	n/a
320.491	0.09	640982	keystroke_r	r	n/a
320.641	0.12	641282	keystroke_a	a	n/a
320.836	0.105	641672	keystroke_n	n	n/a
321.016	0.1345	642032	keystroke_t	t	n/a
321.255	0.121	642510	keystroke_Key.space	Key.space	n/a
321.931	0.06	643862	keystroke_a	a	n/a
322.066	0.075	644132	keystroke_r	r	n/a
322.171	0.105	644342	keystroke_u	u	n/a
322.5015	0.0595	645003	keystroke_b	b	n/a
322.666	0.105	645332	keystroke_a	a	n/a
322.921	0.105	645842	keystroke_Key.space	Key.space	n/a
323.236	0.075	646472	keystroke_t	t	n/a
323.401	0.105	646802	keystroke_r	r	n/a
323.536	0.12	647072	keystroke_a	a	n/a
323.9855	0.06	647971	keystroke_v	v	n/a
324.1955	0.0905	648391	keystroke_e	e	n/a
324.361	0.12	648722	keystroke_l	l	n/a
324.466	0.09	648932	keystroke_e	e	n/a
324.631	0.0895	649262	keystroke_r	r	n/a
324.7805	0.1355	649561	keystroke_s	s	n/a
324.9005	0.1505	649801	keystroke_Key.space	Key.space	n/a
325.231	0.015	650462	keystroke_i	i	n/a
325.321	0.105	650642	keystroke_n	n	n/a
325.561	0.0895	651122	keystroke_n	n	n/a
325.786	0.09	651572	keystroke_o	o	n/a
326.071	0.06	652142	keystroke_v	v	n/a
326.2365	0.1345	652473	keystroke_a	a	n/a
327.091	0.12	654182	keystroke_t	t	n/a
327.2555	0.105	654511	keystroke_i	i	n/a
327.436	0.0905	654872	keystroke_v	v	n/a
327.661	0.105	655322	keystroke_e	e	n/a
327.886	0.104	655772	keystroke_Key.enter	Key.enter	n/a
327.996	9.7765	655992	prompt	n/a	computational barrel speaks forestry\n
328.6655	0.1205	657331	keystroke_c	c	n/a
328.7705	0.06	657541	keystroke_o	o	n/a
328.9955	0.075	657991	keystroke_m	m	n/a
329.2055	0.0755	658411	keystroke_p	p	n/a
329.4005	0.0905	658801	keystroke_u	u	n/a
330.9015	0.1185	661803	keystroke_t	t	n/a
331.05	0.121	662100	keystroke_a	a	n/a
331.1555	0.1205	662311	keystroke_t	t	n/a
331.291	0.06	662582	keystroke_i	i	n/a
331.441	0.075	662882	keystroke_o	o	n/a
331.591	0.12	663182	keystroke_n	n	n/a
331.695	0.12	663390	keystroke_a	a	n/a
331.801	0.1045	663602	keystroke_l	l	n/a
331.9805	0.105	663961	keystroke_Key.space	Key.space	n/a
332.536	0.0905	665072	keystroke_b	b	n/a
332.731	0.12	665462	keystroke_a	a	n/a
333.316	0.03	666632	keystroke_r	r	n/a
333.436	0.06	666872	keystroke_r	r	n/a
333.586	0.0905	667172	keystroke_e	e	n/a
333.691	0.09	667382	keystroke_l	l	n/a
333.856	0.134	667712	keystroke_Key.space	Key.space	n/a
334.096	0.12	668192	keystroke_s	s	n/a
334.23	0.106	668460	keystroke_p	p	n/a
334.321	0.1055	668642	keystroke_e	e	n/a
334.441	0.135	668882	keystroke_a	a	n/a
334.561	0.075	669122	keystroke_k	k	n/a
334.801	0.15	669602	keystroke_s	s	n/a
335.1305	0.12	670261	keystroke_Key.space	Key.space	n/a
335.5805	0.1055	671161	keystroke_f	f	n/a
335.686	0.0895	671372	keystroke_o	o	n/a
335.8055	0.09	671611	keystroke_r	r	n/a
335.9865	0.089	671973	keystroke_e	e	n/a
336.211	0.09	672422	keystroke_s	s	n/a
336.4815	0.0895	672963	keystroke_t	t	n/a
336.676	0.06	673352	keystroke_r	r	n/a
336.9015	0.0445	673803	keystroke_y	y	n/a
337.6055	0.165	675211	keystroke_Key.enter	Key.enter	n/a
337.7775	5.83	675555	prompt	n/a	o'er he's fruit substantially\n
338.431	0.1045	676862	keystroke_o	o	n/a
338.731	0.09	677462	keystroke_'	'	n/a
338.911	0.09	677822	keystroke_e	e	n/a
339.121	0.09	678242	keystroke_r	r	n/a
339.196	0.15	678392	keystroke_Key.space	Key.space	n/a
339.481	0.09	678962	keystroke_h	h	n/a
339.6005	0.0905	679201	keystroke_e	e	n/a
339.735	0.091	679470	keystroke_'	'	n/a
339.946	0.105	679892	keystroke_s	s	n/a
340.02	0.135	680040	keystroke_Key.space	Key.space	n/a
340.591	0.06	681182	keystroke_f	f	n/a
340.741	0.105	681482	keystroke_r	r	n/a
340.816	0.075	681632	keystroke_u	u	n/a
340.981	0.075	681962	keystroke_i	i	n/a
341.101	0.075	682202	keystroke_t	t	n/a
341.311	0.149	682622	keystroke_Key.space	Key.space	n/a
341.5505	0.135	683101	keystroke_s	s	n/a
341.656	0.0905	683312	keystroke_u	u	n/a
341.851	0.09	683702	keystroke_b	b	n/a
342.046	0.12	684092	keystroke_s	s	n/a
342.226	0.09	684452	keystroke_t	t	n/a
342.376	0.12	684752	keystroke_a	a	n/a
342.466	0.12	684932	keystroke_n	n	n/a
342.646	0.12	685292	keystroke_t	t	n/a
342.78	0.121	685560	keystroke_i	i	n/a
342.916	0.089	685832	keystroke_a	a	n/a
343.02	0.076	686040	keystroke_l	l	n/a
343.156	0.135	686312	keystroke_l	l	n/a
343.2765	0.1035	686553	keystroke_y	y	n/a
343.456	0.15	686912	keystroke_Key.enter	Key.enter	n/a
343.6125	9.295	687225	prompt	n/a	technology listening showers countries\n
344.3405	0.06	688681	keystroke_t	t	n/a
344.506	0.0745	689012	keystroke_e	e	n/a
344.701	0.1195	689402	keystroke_c	c	n/a
344.836	0.1045	689672	keystroke_h	h	n/a
345.0605	0.06	690121	keystroke_o	o	n/a
345.6755	0.0755	691351	keystroke_Key.backspace	Key.backspace	n/a
345.916	0.09	691832	keystroke_n	n	n/a
346.066	0.09	692132	keystroke_o	o	n/a
346.246	0.12	692492	keystroke_l	l	n/a
346.336	0.105	692672	keystroke_o	o	n/a
346.381	0.075	692762	keystroke_g	g	n/a
346.636	0.06	693272	keystroke_y	y	n/a
346.876	0.135	693752	keystroke_Key.space	Key.space	n/a
347.1015	0.15	694203	keystroke_l	l	n/a
347.221	0.135	694442	keystroke_i	i	n/a
347.311	0.12	694622	keystroke_s	s	n/a
347.416	0.075	694832	keystroke_t	t	n/a
347.596	0.0905	695192	keystroke_e	e	n/a
347.655	0.1215	695310	keystroke_n	n	n/a
347.941	0.135	695882	keystroke_i	i	n/a
348.136	0.0905	696272	keystroke_n	n	n/a
348.256	0.075	696512	keystroke_g	g	n/a
348.3455	0.105	696691	keystroke_Key.space	Key.space	n/a
348.481	0.1495	696962	keystroke_s	s	n/a
348.6005	0.0755	697201	keystroke_h	h	n/a
348.7355	0.12	697471	keystroke_o	o	n/a
348.8405	0.135	697681	keystroke_w	w	n/a
348.9605	0.075	697921	keystroke_e	e	n/a
349.1255	0.105	698251	keystroke_r	r	n/a
349.261	0.165	698522	keystroke_s	s	n/a
349.3805	0.105	698761	keystroke_Key.space	Key.space	n/a
349.741	0.1045	699482	keystroke_o	o	n/a
350.491	0.059	700982	keystroke_Key.backspace	Key.backspace	n/a
350.5655	0.15	701131	keystroke_c	c	n/a
350.701	0.06	701402	keystroke_o	o	n/a
350.911	0.0755	701822	keystroke_u	u	n/a
351.0905	0.1045	702181	keystroke_n	n	n/a
351.435	0.121	702870	keystroke_t	t	n/a
351.57	0.1355	703140	keystroke_i	i	n/a
351.6755	0.06	703351	keystroke_r	r	n/a
351.8405	0.0905	703681	keystroke_e	e	n/a
352.396	0.015	704792	keystroke_s	s	n/a
352.756	0.15	705512	keystroke_Key.enter	Key.enter	n/a
352.912	10.7955	705824	prompt	n/a	glen dialogue internationally participant\n
353.896	0.09	707792	keystroke_g	g	n/a
354	0.106	708000	keystroke_l	l	n/a
354.0905	0.105	708181	keystroke_e	e	n/a
354.2405	0.075	708481	keystroke_n	n	n/a
354.3905	0.135	708781	keystroke_Key.space	Key.space	n/a
355.606	0.06	711212	keystroke_d	d	n/a
355.681	0.1055	711362	keystroke_i	i	n/a
355.831	0.09	711662	keystroke_a	a	n/a
356.8355	0.09	713671	keystroke_l	l	n/a
356.986	0.1045	713972	keystroke_o	o	n/a
357.151	0.1045	714302	keystroke_g	g	n/a
357.2715	0.104	714543	keystroke_u	u	n/a
357.3905	0.09	714781	keystroke_e	e	n/a
357.6155	0.12	715231	keystroke_Key.space	Key.space	n/a
357.9005	0.105	715801	keystroke_i	i	n/a
358.111	0.075	716222	keystroke_n	n	n/a
358.606	0.0595	717212	keystroke_t	t	n/a
358.786	0.09	717572	keystroke_e	e	n/a
358.951	0.1045	717902	keystroke_r	r	n/a
359.0715	0.0895	718143	keystroke_n	n	n/a
359.2205	0.1055	718441	keystroke_a	a	n/a
359.431	0.105	718862	keystroke_t	t	n/a
359.551	0.075	719102	keystroke_i	i	n/a
359.716	0.075	719432	keystroke_o	o	n/a
359.851	0.09	719702	keystroke_n	n	n/a
359.986	0.09	719972	keystroke_a	a	n/a
360.106	0.045	720212	keystroke_l	l	n/a
360.241	0.12	720482	keystroke_l	l	n/a
360.406	0.105	720812	keystroke_y	y	n/a
360.571	0.1345	721142	keystroke_Key.space	Key.space	n/a
360.8105	0.135	721621	keystroke_p	p	n/a
361.096	0.075	722192	keystroke_r	r	n/a
361.5455	0.09	723091	keystroke_Key.backspace	Key.backspace	n/a
361.681	0.1655	723362	keystroke_a	a	n/a
361.8005	0.1055	723601	keystroke_r	r	n/a
362.0255	0.105	724051	keystroke_t	t	n/a
362.1755	0.09	724351	keystroke_i	i	n/a
362.7915	0.105	725583	keystroke_c	c	n/a
362.8505	0.091	725701	keystroke_i	i	n/a
363.0305	0.1055	726061	keystroke_p	p	n/a
363.181	0.1355	726362	keystroke_a	a	n/a
363.286	0.1355	726572	keystroke_n	n	n/a
363.4055	0.1055	726811	keystroke_t	t	n/a
363.556	0.149	727112	keystroke_Key.enter	Key.enter	n/a
363.7135	5.964	727427	prompt	n/a	hose interesting manager elder\n
364.336	0.09	728672	keystroke_h	h	n/a
364.396	0.15	728792	keystroke_o	o	n/a
364.53	0.15	729060	keystroke_s	s	n/a
364.606	0.165	729212	keystroke_e	e	n/a
364.7255	0.1355	729451	keystroke_Key.space	Key.space	n/a
364.875	0.1055	729750	keystroke_i	i	n/a
365.1755	0.1205	730351	keystroke_n	n	n/a
365.3105	0.09	730621	keystroke_t	t	n/a
365.5215	0.075	731043	keystroke_e	e	n/a
365.6555	0.091	731311	keystroke_r	r	n/a
365.836	0.105	731672	keystroke_e	e	n/a
366.03	0.0755	732060	keystroke_s	s	n/a
366.1655	0.105	732331	keystroke_t	t	n/a
366.2555	0.075	732511	keystroke_i	i	n/a
366.4205	0.12	732841	keystroke_n	n	n/a
366.511	0.1195	733022	keystroke_g	g	n/a
366.6005	0.105	733201	keystroke_Key.space	Key.space	n/a
367.2905	0.075	734581	keystroke_m	m	n/a
367.381	0.105	734762	keystroke_a	a	n/a
367.4705	0.105	734941	keystroke_n	n	n/a
367.5905	0.0905	735181	keystroke_a	a	n/a
367.771	0.06	735542	keystroke_g	g	n/a
367.936	0.09	735872	keystroke_e	e	n/a
368.101	0.12	736202	keystroke_r	r	n/a
368.191	0.135	736382	keystroke_Key.space	Key.space	n/a
368.7905	0.09	737581	keystroke_e	e	n/a
368.8955	0.12	737791	keystroke_l	l	n/a
369.0755	0.075	738151	keystroke_d	d	n/a
369.2405	0.06	738481	keystroke_e	e	n/a
369.3755	0.1355	738751	keystroke_r	r	n/a
369.4955	0.1795	738991	keystroke_Key.enter	Key.enter	n/a
369.682	8.02	739364	prompt	n/a	slovenia oklahoma amazing entirely\n
370.276	0.12	740552	keystroke_s	s	n/a
370.501	0.12	741002	keystroke_l	l	n/a
370.696	0.105	741392	keystroke_o	o	n/a
370.9055	0.0905	741811	keystroke_v	v	n/a
371.101	0.105	742202	keystroke_e	e	n/a
371.235	0.121	742470	keystroke_n	n	n/a
371.401	0.134	742802	keystroke_i	i	n/a
371.521	0.1045	743042	keystroke_a	a	n/a
371.731	0.105	743462	keystroke_Key.space	Key.space	n/a
372.331	0.015	744662	keystroke_o	o	n/a
372.496	0.15	744992	keystroke_k	k	n/a
372.841	0.15	745682	keystroke_l	l	n/a
372.991	0.12	745982	keystroke_a	a	n/a
374.0555	0.0905	748111	keystroke_h	h	n/a
374.191	0.0895	748382	keystroke_o	o	n/a
374.386	0.1045	748772	keystroke_m	m	n/a
374.4755	0.165	748951	keystroke_a	a	n/a
374.926	0.1495	749852	keystroke_Key.space	Key.space	n/a
375.1805	0.105	750361	keystroke_a	a	n/a
375.2705	0.135	750541	keystroke_m	m	n/a
375.376	0.075	750752	keystroke_a	a	n/a
375.5405	0.105	751081	keystroke_z	z	n/a
375.601	0.1345	751202	keystroke_i	i	n/a
375.6905	0.1355	751381	keystroke_n	n	n/a
375.7655	0.1205	751531	keystroke_g	g	n/a
375.871	0.12	751742	keystroke_Key.space	Key.space	n/a
376.2305	0.075	752461	keystroke_e	e	n/a
376.3205	0.121	752641	keystroke_n	n	n/a
376.5455	0.12	753091	keystroke_t	t	n/a
376.6355	0.135	753271	keystroke_i	i	n/a
376.7555	0.061	753511	keystroke_r	r	n/a
376.9205	0.075	753841	keystroke_e	e	n/a
377.026	0.1195	754052	keystroke_l	l	n/a
377.2355	0.045	754471	keystroke_y	y	n/a
377.551	0.1495	755102	keystroke_Key.enter	Key.enter	n/a
377.7085	42.441	755417	prompt	n/a	appointed palace installations cancelled\n
412.9395	0.073	825879	keystroke_a	a	n/a
413.0275	0.105	826055	keystroke_p	p	n/a
413.2375	0.09	826475	keystroke_p	p	n/a
413.897	0.1205	827794	keystroke_i	i	n/a
414.2565	0.091	828513	keystroke_n	n	n/a
414.3775	0.1045	828755	keystroke_t	t	n/a
414.572	0.1055	829144	keystroke_e	e	n/a
414.782	0.135	829564	keystroke_d	d	n/a
415.0525	0.12	830105	keystroke_Key.space	Key.space	n/a
415.3825	0.09	830765	keystroke_p	p	n/a
415.6225	0.1195	831245	keystroke_a	a	n/a
415.743	0.1345	831486	keystroke_l	l	n/a
415.878	0.104	831756	keystroke_a	a	n/a
416.1475	0.075	832295	keystroke_c	c	n/a
416.3425	0.12	832685	keystroke_e	e	n/a
416.4625	0.134	832925	keystroke_Key.space	Key.space	n/a
416.6415	0.075	833283	keystroke_i	i	n/a
416.8075	0.12	833615	keystroke_n	n	n/a
416.8975	0.119	833795	keystroke_s	s	n/a
417.1075	0.105	834215	keystroke_t	t	n/a
417.2275	0.135	834455	keystroke_a	a	n/a
417.3325	0.059	834665	keystroke_l	l	n/a
417.4675	0.104	834935	keystroke_l	l	n/a
417.662	0.12	835324	keystroke_a	a	n/a
417.7975	0.12	835595	keystroke_t	t	n/a
417.9175	0.045	835835	keystroke_i	i	n/a
418.0525	0.0745	836105	keystroke_o	o	n/a
418.202	0.135	836404	keystroke_n	n	n/a
418.307	0.165	836614	keystroke_s	s	n/a
418.457	0.1355	836914	keystroke_Key.space	Key.space	n/a
418.6675	0.0895	837335	keystroke_c	c	n/a
418.832	0.1205	837664	keystroke_a	a	n/a
418.9525	0.1195	837905	keystroke_n	n	n/a
419.087	0.0605	838174	keystroke_c	c	n/a
419.2525	0.075	838505	keystroke_e	e	n/a
419.4315	0.06	838863	keystroke_l	l	n/a
419.5675	0.119	839135	keystroke_l	l	n/a
419.6565	0.09	839313	keystroke_e	e	n/a
419.8215	0.091	839643	keystroke_d	d	n/a
420.002	0.1345	840004	keystroke_Key.enter	Key.enter	n/a
420.1595	7.4195	840319	prompt	n/a	administrative genetic train grid\n
420.812	0.135	841624	keystroke_a	a	n/a
420.932	0.12	841864	keystroke_d	d	n/a
421.1875	0.075	842375	keystroke_m	m	n/a
421.3215	0.121	842643	keystroke_i	i	n/a
421.6075	0.089	843215	keystroke_n	n	n/a
423.047	0.09	846094	keystroke_i	i	n/a
423.212	0.09	846424	keystroke_s	s	n/a
423.7075	0.075	847415	keystroke_t	t	n/a
423.8575	0.105	847715	keystroke_r	r	n/a
423.9475	0.12	847895	keystroke_a	a	n/a
424.0525	0.12	848105	keystroke_t	t	n/a
424.1875	0.09	848375	keystroke_i	i	n/a
424.2925	0.0895	848585	keystroke_v	v	n/a
424.487	0.12	848974	keystroke_e	e	n/a
424.562	0.135	849124	keystroke_Key.space	Key.space	n/a
424.847	0.06	849694	keystroke_g	g	n/a
425.0125	0.0895	850025	keystroke_e	e	n/a
425.1775	0.1495	850355	keystroke_n	n	n/a
425.282	0.0905	850564	keystroke_e	e	n/a
425.492	0.0895	850984	keystroke_t	t	n/a
425.6115	0.12	851223	keystroke_i	i	n/a
425.7475	0.1195	851495	keystroke_c	c	n/a
425.837	0.12	851674	keystroke_Key.space	Key.space	n/a
426.017	0.06	852034	keystroke_t	t	n/a
426.1825	0.09	852365	keystroke_r	r	n/a
426.2575	0.15	852515	keystroke_a	a	n/a
426.3775	0.135	852755	keystroke_i	i	n/a
426.467	0.1205	852934	keystroke_n	n	n/a
426.6465	0.105	853293	keystroke_Key.space	Key.space	n/a
426.8875	0.075	853775	keystroke_g	g	n/a
427.0525	0.075	854105	keystroke_r	r	n/a
427.1425	0.104	854285	keystroke_i	i	n/a
427.2625	0.0895	854525	keystroke_d	d	n/a
427.4565	0.1205	854913	keystroke_Key.enter	Key.enter	n/a
427.5835	6.0255	855167	prompt	n/a	afraid federation stopping affair\n
428.327	0.12	856654	keystroke_a	a	n/a
428.477	0.045	856954	keystroke_f	f	n/a
428.627	0.0905	857254	keystroke_r	r	n/a
428.7325	0.135	857465	keystroke_a	a	n/a
428.8375	0.12	857675	keystroke_i	i	n/a
428.9425	0.1195	857885	keystroke_d	d	n/a
429.182	0.105	858364	keystroke_Key.space	Key.space	n/a
429.7675	0.0895	859535	keystroke_f	f	n/a
429.947	0.105	859894	keystroke_e	e	n/a
430.1425	0.0745	860285	keystroke_d	d	n/a
430.427	0.045	860854	keystroke_e	e	n/a
430.547	0.135	861094	keystroke_r	r	n/a
430.637	0.12	861274	keystroke_a	a	n/a
430.772	0.1205	861544	keystroke_t	t	n/a
430.8625	0.0745	861725	keystroke_i	i	n/a
431.012	0.06	862024	keystroke_o	o	n/a
431.162	0.105	862324	keystroke_n	n	n/a
431.252	0.105	862504	keystroke_Key.space	Key.space	n/a
431.357	0.135	862714	keystroke_s	s	n/a
431.477	0.165	862954	keystroke_t	t	n/a
431.597	0.075	863194	keystroke_o	o	n/a
431.747	0.045	863494	keystroke_p	p	n/a
431.8675	0.0745	863735	keystroke_p	p	n/a
432.047	0.03	864094	keystroke_i	i	n/a
432.167	0.0905	864334	keystroke_n	n	n/a
432.272	0.105	864544	keystroke_g	g	n/a
432.362	0.135	864724	keystroke_Key.space	Key.space	n/a
432.557	0.1355	865114	keystroke_a	a	n/a
432.722	0.06	865444	keystroke_f	f	n/a
432.857	0.09	865714	keystroke_f	f	n/a
432.9925	0.1645	865985	keystroke_a	a	n/a
433.142	0.105	866284	keystroke_i	i	n/a
433.262	0.105	866524	keystroke_r	r	n/a
433.472	0.135	866944	keystroke_Key.enter	Key.enter	n/a
433.622	4.9215	867244	prompt	n/a	vessel nothing throat metro\n
434.462	0.06	868924	keystroke_v	v	n/a
434.6425	0.0745	869285	keystroke_e	e	n/a
434.837	0.045	869674	keystroke_s	s	n/a
434.987	0.105	869974	keystroke_s	s	n/a
435.077	0.12	870154	keystroke_e	e	n/a
435.287	0.12	870574	keystroke_l	l	n/a
435.497	0.105	870994	keystroke_Key.space	Key.space	n/a
435.6465	0.075	871293	keystroke_n	n	n/a
435.7965	0.105	871593	keystroke_o	o	n/a
435.8865	0.1055	871773	keystroke_t	t	n/a
436.0225	0.074	872045	keystroke_h	h	n/a
436.0665	0.09	872133	keystroke_i	i	n/a
436.217	0.1195	872434	keystroke_n	n	n/a
436.292	0.1205	872584	keystroke_g	g	n/a
436.3965	0.12	872793	keystroke_Key.space	Key.space	n/a
436.5625	0.119	873125	keystroke_t	t	n/a
436.6965	0.075	873393	keystroke_h	h	n/a
436.7715	0.1055	873543	keystroke_r	r	n/a
436.9365	0.105	873873	keystroke_o	o	n/a
437.1465	0.1055	874293	keystroke_a	a	n/a
437.3115	0.076	874623	keystroke_t	t	n/a
437.4615	0.1205	874923	keystroke_Key.space	Key.space	n/a
437.7315	0.1955	875463	keystroke_m	m	n/a
437.777	0.06	875554	keystroke_e	e	n/a
437.957	0.076	875914	keystroke_t	t	n/a
438.122	0.1195	876244	keystroke_r	r	n/a
438.2425	0.074	876485	keystroke_o	o	n/a
438.4365	0.105	876873	keystroke_Key.enter	Key.enter	n/a
438.5485	6.145	877097	prompt	n/a	mentioned bargains buyer neck\n
439.3375	0.104	878675	keystroke_m	m	n/a
439.7725	0.105	879545	keystroke_e	e	n/a
439.8775	0.134	879755	keystroke_n	n	n/a
440.0275	0.105	880055	keystroke_t	t	n/a
440.1165	0.046	880233	keystroke_i	i	n/a
440.2665	0.031	880533	keystroke_o	o	n/a
440.3725	0.135	880745	keystroke_n	n	n/a
440.912	0.045	881824	keystroke_e	e	n/a
441.092	0.09	882184	keystroke_d	d	n/a
441.137	0.12	882274	keystroke_Key.space	Key.space	n/a
441.467	0.1055	882934	keystroke_b	b	n/a
441.5875	0.1045	883175	keystroke_a	a	n/a
441.722	0.12	883444	keystroke_r	r	n/a
442.247	0.09	884494	keystroke_g	g	n/a
442.4275	0.12	884855	keystroke_a	a	n/a
442.5025	0.075	885005	keystroke_i	i	n/a
442.6975	0.074	885395	keystroke_n	n	n/a
442.7875	0.12	885575	keystroke_s	s	n/a
442.9665	0.135	885933	keystroke_Key.space	Key.space	n/a
443.1615	0.091	886323	keystroke_b	b	n/a
443.3115	0.121	886623	keystroke_u	u	n/a
443.4475	0.06	886895	keystroke_y	y	n/a
443.6275	0.089	887255	keystroke_e	e	n/a
443.792	0.12	887584	keystroke_r	r	n/a
443.867	0.105	887734	keystroke_Key.space	Key.space	n/a
444.017	0.09	888034	keystroke_n	n	n/a
444.077	0.06	888154	keystroke_e	e	n/a
444.287	0.1055	888574	keystroke_c	c	n/a
444.347	0.12	888694	keystroke_k	k	n/a
444.542	0.1495	889084	keystroke_Key.enter	Key.enter	n/a
444.697	6.9715	889394	prompt	n/a	extremely locks participation healthy\n
445.4125	0.1045	890825	keystroke_e	e	n/a
445.6515	0.105	891303	keystroke_x	x	n/a
445.862	0.09	891724	keystroke_t	t	n/a
446.027	0.075	892054	keystroke_r	r	n/a
446.207	0.0905	892414	keystroke_e	e	n/a
446.627	0.12	893254	keystroke_m	m	n/a
446.807	0.045	893614	keystroke_e	e	n/a
446.897	0.105	893794	keystroke_l	l	n/a
447.047	0.075	894094	keystroke_y	y	n/a
447.167	0.1205	894334	keystroke_Key.space	Key.space	n/a
447.332	0.09	894664	keystroke_l	l	n/a
447.497	0.105	894994	keystroke_o	o	n/a
447.5875	0.0745	895175	keystroke_c	c	n/a
447.692	0.0905	895384	keystroke_k	k	n/a
448.232	0.12	896464	keystroke_s	s	n/a
448.322	0.165	896644	keystroke_Key.space	Key.space	n/a
448.637	0.12	897274	keystroke_p	p	n/a
448.727	0.12	897454	keystroke_a	a	n/a
448.832	0.0905	897664	keystroke_r	r	n/a
449.012	0.105	898024	keystroke_t	t	n/a
449.102	0.105	898204	keystroke_i	i	n/a
449.237	0.12	898474	keystroke_c	c	n/a
449.372	0.075	898744	keystroke_i	i	n/a
449.522	0.105	899044	keystroke_p	p	n/a
449.612	0.1045	899224	keystroke_a	a	n/a
449.7325	0.12	899465	keystroke_t	t	n/a
449.8225	0.06	899645	keystroke_i	i	n/a
449.9725	0.06	899945	keystroke_o	o	n/a
450.1375	0.1045	900275	keystroke_n	n	n/a
450.2425	0.104	900485	keystroke_Key.space	Key.space	n/a
450.5275	0.105	901055	keystroke_h	h	n/a
450.6025	0.134	901205	keystroke_e	e	n/a
450.692	0.1205	901384	keystroke_a	a	n/a
450.7815	0.106	901563	keystroke_l	l	n/a
450.9015	0.106	901803	keystroke_t	t	n/a
451.0525	0.075	902105	keystroke_h	h	n/a
451.1715	0.106	902343	keystroke_y	y	n/a
451.532	0.135	903064	keystroke_Key.enter	Key.enter	n/a
451.6755	9.4745	903351	prompt	n/a	madison enhanced compensation ashley\n
452.3575	0.15	904715	keystroke_m	m	n/a
452.4775	0.135	904955	keystroke_a	a	n/a
452.5825	0.12	905165	keystroke_d	d	n/a
452.6875	0.135	905375	keystroke_i	i	n/a
452.8365	0.135	905673	keystroke_s	s	n/a
452.9575	0.089	905915	keystroke_o	o	n/a
453.1375	0.09	906275	keystroke_n	n	n/a
453.2715	0.135	906543	keystroke_Key.space	Key.space	n/a
453.932	0.12	907864	keystroke_e	e	n/a
454.037	0.12	908074	keystroke_n	n	n/a
454.2625	0.0895	908525	keystroke_h	h	n/a
454.337	0.135	908674	keystroke_a	a	n/a
454.517	0.075	909034	keystroke_n	n	n/a
454.967	0.09	909934	keystroke_c	c	n/a
455.162	0.075	910324	keystroke_e	e	n/a
455.342	0.105	910684	keystroke_d	d	n/a
455.402	0.12	910804	keystroke_Key.space	Key.space	n/a
455.717	0.09	911434	keystroke_c	c	n/a
455.792	0.075	911584	keystroke_o	o	n/a
455.9715	0.09	911943	keystroke_m	m	n/a
456.7225	0.12	913445	keystroke_p	p	n/a
456.8275	0.119	913655	keystroke_e	e	n/a
456.9625	0.105	913925	keystroke_n	n	n/a
457.7125	0.1045	915425	keystroke_s	s	n/a
457.8315	0.106	915663	keystroke_a	a	n/a
457.9965	0.1655	915993	keystroke_t	t	n/a
458.0865	0.09	916173	keystroke_i	i	n/a
458.2365	0.076	916473	keystroke_o	o	n/a
458.3715	0.135	916743	keystroke_n	n	n/a
458.4615	0.105	916923	keystroke_Key.space	Key.space	n/a
458.762	0.12	917524	keystroke_a	a	n/a
459.1375	0.12	918275	keystroke_s	s	n/a
459.2875	0.105	918575	keystroke_h	h	n/a
460.367	0.1045	920734	keystroke_l	l	n/a
460.4115	0.105	920823	keystroke_e	e	n/a
460.6815	0.135	921363	keystroke_y	y	n/a
460.9965	0.15	921993	keystroke_Key.enter	Key.enter	n/a
461.1545	6.4895	922309	prompt	n/a	noon thomas general disc\n
461.777	0.06	923554	keystroke_n	n	n/a
461.927	0.06	923854	keystroke_o	o	n/a
462.047	0.0905	924094	keystroke_o	o	n/a
462.227	0.1355	924454	keystroke_n	n	n/a
462.347	0.075	924694	keystroke_Key.space	Key.space	n/a
462.4975	0.1345	924995	keystroke_t	t	n/a
462.602	0.075	925204	keystroke_h	h	n/a
463.562	0.0745	927124	keystroke_o	o	n/a
463.7115	0.105	927423	keystroke_m	m	n/a
463.8015	0.165	927603	keystroke_a	a	n/a
463.9825	0.09	927965	keystroke_s	s	n/a
464.1025	0.134	928205	keystroke_Key.space	Key.space	n/a
464.9415	0.075	929883	keystroke_g	g	n/a
465.4225	0.104	930845	keystroke_e	e	n/a
465.8575	0.135	931715	keystroke_n	n	n/a
465.9475	0.06	931895	keystroke_e	e	n/a
466.082	0.105	932164	keystroke_r	r	n/a
466.187	0.105	932374	keystroke_a	a	n/a
466.307	0.12	932614	keystroke_l	l	n/a
466.4725	0.1045	932945	keystroke_Key.space	Key.space	n/a
466.6225	0.1195	933245	keystroke_d	d	n/a
466.7575	0.1195	933515	keystroke_i	i	n/a
466.862	0.105	933724	keystroke_s	s	n/a
467.072	0.09	934144	keystroke_c	c	n/a
467.492	0.15	934984	keystroke_Key.enter	Key.enter	n/a
467.6495	5.8595	935299	prompt	n/a	managers playing bedford over\n
468.407	0.1195	936814	keystroke_m	m	n/a
468.482	0.1195	936964	keystroke_a	a	n/a
468.6165	0.1055	937233	keystroke_n	n	n/a
468.6925	0.074	937385	keystroke_a	a	n/a
468.827	0.075	937654	keystroke_g	g	n/a
469.0065	0.06	938013	keystroke_e	e	n/a
469.1265	0.1205	938253	keystroke_r	r	n/a
469.2475	0.164	938495	keystroke_s	s	n/a
469.3225	0.15	938645	keystroke_Key.space	Key.space	n/a
469.5475	0.075	939095	keystroke_p	p	n/a
469.742	0.1055	939484	keystroke_l	l	n/a
469.802	0.1055	939604	keystroke_a	a	n/a
470.027	0.1055	940054	keystroke_y	y	n/a
470.1475	0.12	940295	keystroke_i	i	n/a
470.222	0.12	940444	keystroke_n	n	n/a
470.357	0.105	940714	keystroke_g	g	n/a
470.462	0.1205	940924	keystroke_Key.space	Key.space	n/a
470.867	0.0905	941734	keystroke_b	b	n/a
470.9715	0.09	941943	keystroke_e	e	n/a
471.1665	0.06	942333	keystroke_d	d	n/a
471.3615	0.121	942723	keystroke_f	f	n/a
471.4965	0.1205	942993	keystroke_o	o	n/a
471.6015	0.09	943203	keystroke_r	r	n/a
471.8125	0.12	943625	keystroke_d	d	n/a
471.947	0.1195	943894	keystroke_Key.space	Key.space	n/a
472.4275	0.0895	944855	keystroke_o	o	n/a
472.5615	0.0755	945123	keystroke_v	v	n/a
472.757	0.09	945514	keystroke_e	e	n/a
472.952	0.09	945904	keystroke_r	r	n/a
473.3575	0.15	946715	keystroke_Key.enter	Key.enter	n/a
473.5135	7.9305	947027	prompt	n/a	junk sparc retro pairs\n
474.272	0.075	948544	keystroke_j	j	n/a
474.422	0.09	948844	keystroke_u	u	n/a
474.647	0.045	949294	keystroke_n	n	n/a
474.962	0.12	949924	keystroke_k	k	n/a
475.112	0.15	950224	keystroke_Key.space	Key.space	n/a
475.592	0.1055	951184	keystroke_s	s	n/a
475.7125	0.119	951425	keystroke_p	p	n/a
475.9665	0.15	951933	keystroke_a	a	n/a
476.1325	0.075	952265	keystroke_r	r	n/a
476.372	0.09	952744	keystroke_c	c	n/a
476.582	0.12	953164	keystroke_Key.space	Key.space	n/a
476.837	0.045	953674	keystroke_r	r	n/a
476.987	0.0755	953974	keystroke_e	e	n/a
477.1975	0.06	954395	keystroke_t	t	n/a
477.3325	0.105	954665	keystroke_r	r	n/a
477.4375	0.105	954875	keystroke_o	o	n/a
477.5715	0.075	955143	keystroke_Key.space	Key.space	n/a
478.2465	0.12	956493	keystroke_p	p	n/a
478.3675	0.134	956735	keystroke_a	a	n/a
479.0725	0.0895	958145	keystroke_i	i	n/a
479.1775	0.1045	958355	keystroke_r	r	n/a
479.312	0.135	958624	keystroke_s	s	n/a
481.367	0.075	962734	keystroke_Key.enter	Key.enter	n/a
481.4485	5.9805	962897	prompt	n/a	quotes add weed bracelets\n
482.282	0.12	964564	keystroke_q	q	n/a
482.387	0.12	964774	keystroke_u	u	n/a
482.852	0.06	965704	keystroke_o	o	n/a
482.9125	0.0745	965825	keystroke_t	t	n/a
483.107	0.0755	966214	keystroke_e	e	n/a
483.212	0.1205	966424	keystroke_s	s	n/a
483.3165	0.12	966633	keystroke_Key.space	Key.space	n/a
483.542	0.1495	967084	keystroke_a	a	n/a
483.662	0.0745	967324	keystroke_d	d	n/a
483.8265	0.106	967653	keystroke_d	d	n/a
483.872	0.1195	967744	keystroke_Key.space	Key.space	n/a
484.1115	0.136	968223	keystroke_w	w	n/a
484.217	0.0905	968434	keystroke_e	e	n/a
484.367	0.1045	968734	keystroke_e	e	n/a
484.5775	0.1345	969155	keystroke_d	d	n/a
484.682	0.135	969364	keystroke_Key.space	Key.space	n/a
485.087	0.0755	970174	keystroke_b	b	n/a
485.2375	0.1045	970475	keystroke_r	r	n/a
485.417	0.15	970834	keystroke_a	a	n/a
485.927	0.105	971854	keystroke_c	c	n/a
486.167	0.105	972334	keystroke_e	e	n/a
486.662	0.12	973324	keystroke_l	l	n/a
486.737	0.09	973474	keystroke_e	e	n/a
486.977	0.075	973954	keystroke_t	t	n/a
487.112	0.135	974224	keystroke_s	s	n/a
487.2765	0.15	974553	keystroke_Key.enter	Key.enter	n/a
487.4355	14.544	974871	prompt	n/a	queens periodic discuss macedonia\n
488.237	0.165	976474	keystroke_q	q	n/a
488.342	0.12	976684	keystroke_u	u	n/a
488.477	0.075	976954	keystroke_e	e	n/a
488.6265	0.121	977253	keystroke_e	e	n/a
488.732	0.1045	977464	keystroke_n	n	n/a
488.8675	0.135	977735	keystroke_s	s	n/a
488.9565	0.105	977913	keystroke_Key.space	Key.space	n/a
489.3025	0.134	978605	keystroke_p	p	n/a
489.3915	0.09	978783	keystroke_e	e	n/a
489.5565	0.1055	979113	keystroke_r	r	n/a
489.662	0.12	979324	keystroke_i	i	n/a
489.812	0.105	979624	keystroke_d	d	n/a
489.932	0.0905	979864	keystroke_o	o	n/a
490.7865	0.015	981573	keystroke_Key.backspace	Key.backspace	n/a
490.8615	0.09	981723	keystroke_Key.backspace	Key.backspace	n/a
491.853	0.104	983706	keystroke_o	o	n/a
492.137	0.091	984274	keystroke_d	d	n/a
492.212	0.1055	984424	keystroke_i	i	n/a
492.348	0.134	984696	keystroke_c	c	n/a
492.467	0.12	984934	keystroke_Key.space	Key.space	n/a
492.692	0.106	985384	keystroke_d	d	n/a
492.887	0.09	985774	keystroke_i	i	n/a
493.217	0.09	986434	keystroke_s	s	n/a
493.412	0.105	986824	keystroke_c	c	n/a
493.503	0.1045	987006	keystroke_u	u	n/a
493.6525	0.0595	987305	keystroke_s	s	n/a
493.802	0.12	987604	keystroke_s	s	n/a
493.907	0.105	987814	keystroke_Key.space	Key.space	n/a
494.087	0.135	988174	keystroke_m	m	n/a
494.207	0.12	988414	keystroke_a	a	n/a
494.5075	0.0745	989015	keystroke_c	c	n/a
494.687	0.075	989374	keystroke_e	e	n/a
494.912	0.12	989824	keystroke_d	d	n/a
495.033	0.089	990066	keystroke_o	o	n/a
495.4075	0.0745	990815	keystroke_n	n	n/a
495.587	0.1055	991174	keystroke_i	i	n/a
495.707	0.0755	991414	keystroke_c	c	n/a
495.797	0.12	991594	keystroke_a	a	n/a
498.0635	0.001	996127	keystroke_Key.backspace	Key.backspace	n/a
498.0915	0.1055	996183	keystroke_Key.backspace	Key.backspace	n/a
498.2875	0.119	996575	keystroke_a	a	n/a
498.392	0.1645	996784	keystroke_Key.space	Key.space	n/a
501.933	0.044	1003866	keystroke_Key.enter	Key.enter	n/a
501.993	15.091	1003986	prompt	n/a	simultaneously jake bush membership\n
502.727	0.105	1005454	keystroke_s	s	n/a
502.802	0.135	1005604	keystroke_i	i	n/a
503.162	0.0755	1006324	keystroke_m	m	n/a
503.672	0.09	1007344	keystroke_u	u	n/a
503.867	0.0905	1007734	keystroke_l	l	n/a
504.7975	0.105	1009595	keystroke_t	t	n/a
504.9475	0.105	1009895	keystroke_a	a	n/a
505.3375	0.105	1010675	keystroke_n	n	n/a
505.877	0.135	1011754	keystroke_e	e	n/a
506.267	0.15	1012534	keystroke_s	s	n/a
506.372	0.0605	1012744	keystroke_o	o	n/a
506.522	0.0605	1013044	keystroke_u	u	n/a
506.702	0.09	1013404	keystroke_l	l	n/a
506.822	0.075	1013644	keystroke_y	y	n/a
506.927	0.135	1013854	keystroke_Key.space	Key.space	n/a
508.4565	0.075	1016913	keystroke_Key.backspace	Key.backspace	n/a
508.6215	0.075	1017243	keystroke_Key.backspace	Key.backspace	n/a
508.7715	0.075	1017543	keystroke_Key.backspace	Key.backspace	n/a
508.922	0.0595	1017844	keystroke_Key.backspace	Key.backspace	n/a
509.0415	0.0455	1018083	keystroke_Key.backspace	Key.backspace	n/a
509.177	0.045	1018354	keystroke_Key.backspace	Key.backspace	n/a
509.282	0.045	1018564	keystroke_Key.backspace	Key.backspace	n/a
509.387	0.06	1018774	keystroke_Key.backspace	Key.backspace	n/a
509.5075	0.0595	1019015	keystroke_Key.backspace	Key.backspace	n/a
509.627	0.06	1019254	keystroke_Key.backspace	Key.backspace	n/a
510.932	0.0905	1021864	keystroke_t	t	n/a
511.0825	0.12	1022165	keystroke_a	a	n/a
511.1725	0.135	1022345	keystroke_n	n	n/a
511.3975	0.1195	1022795	keystroke_e	e	n/a
511.802	0.045	1023604	keystroke_o	o	n/a
511.952	0.09	1023904	keystroke_u	u	n/a
512.132	0.12	1024264	keystroke_s	s	n/a
512.267	0.12	1024534	keystroke_l	l	n/a
512.477	0.09	1024954	keystroke_y	y	n/a
512.612	0.0905	1025224	keystroke_Key.space	Key.space	n/a
513.437	0.105	1026874	keystroke_j	j	n/a
513.5275	0.1345	1027055	keystroke_a	a	n/a
513.632	0.1205	1027264	keystroke_k	k	n/a
513.6925	0.1195	1027385	keystroke_e	e	n/a
513.797	0.1055	1027594	keystroke_Key.space	Key.space	n/a
513.977	0.0755	1027954	keystroke_b	b	n/a
514.142	0.1205	1028284	keystroke_u	u	n/a
514.247	0.12	1028494	keystroke_s	s	n/a
514.382	0.09	1028764	keystroke_h	h	n/a
514.532	0.12	1029064	keystroke_Key.space	Key.space	n/a
515.372	0.135	1030744	keystroke_m	m	n/a
515.4925	0.119	1030985	keystroke_e	e	n/a
515.6415	0.136	1031283	keystroke_m	m	n/a
515.8965	0.1055	1031793	keystroke_b	b	n/a
516.0175	0.0895	1032035	keystroke_e	e	n/a
516.197	0.09	1032394	keystroke_r	r	n/a
516.348	0.1045	1032696	keystroke_s	s	n/a
516.4225	0.105	1032845	keystroke_h	h	n/a
516.6165	0.0755	1033233	keystroke_i	i	n/a
516.782	0.1055	1033564	keystroke_p	p	n/a
516.962	0.12	1033924	keystroke_Key.enter	Key.enter	n/a
517.089	6.655	1034178	prompt	n/a	tool impressive west numerical\n
517.6675	0.119	1035335	keystroke_t	t	n/a
517.8025	0.044	1035605	keystroke_o	o	n/a
518.2225	0.059	1036445	keystroke_o	o	n/a
518.4175	0.104	1036835	keystroke_l	l	n/a
518.5365	0.106	1037073	keystroke_Key.space	Key.space	n/a
518.7015	0.105	1037403	keystroke_i	i	n/a
518.8965	0.1205	1037793	keystroke_m	m	n/a
519.092	0.1345	1038184	keystroke_p	p	n/a
519.2425	0.06	1038485	keystroke_r	r	n/a
519.4065	0.09	1038813	keystroke_e	e	n/a
519.6315	0.0455	1039263	keystroke_s	s	n/a
519.7675	0.0895	1039535	keystroke_s	s	n/a
519.902	0.075	1039804	keystroke_i	i	n/a
520.0825	0.105	1040165	keystroke_v	v	n/a
520.3225	0.15	1040645	keystroke_e	e	n/a
520.5175	0.134	1041035	keystroke_Key.space	Key.space	n/a
520.832	0.1355	1041664	keystroke_w	w	n/a
520.9515	0.105	1041903	keystroke_e	e	n/a
521.0875	0.104	1042175	keystroke_s	s	n/a
521.2515	0.12	1042503	keystroke_t	t	n/a
521.387	0.1195	1042774	keystroke_Key.space	Key.space	n/a
521.717	0.105	1043434	keystroke_n	n	n/a
522.497	0.075	1044994	keystroke_u	u	n/a
522.6925	0.15	1045385	keystroke_m	m	n/a
522.7825	0.1045	1045565	keystroke_e	e	n/a
522.962	0.1205	1045924	keystroke_r	r	n/a
523.067	0.135	1046134	keystroke_i	i	n/a
523.157	0.12	1046314	keystroke_c	c	n/a
523.2925	0.134	1046585	keystroke_a	a	n/a
523.412	0.0905	1046824	keystroke_l	l	n/a
523.6525	0.09	1047305	keystroke_Key.enter	Key.enter	n/a
523.7495	6.8945	1047499	prompt	n/a	secretary stockings worn zone\n
524.312	0.1345	1048624	keystroke_s	s	n/a
524.462	0.1055	1048924	keystroke_e	e	n/a
525.1665	0.1205	1050333	keystroke_c	c	n/a
525.5725	0.089	1051145	keystroke_r	r	n/a
526.0225	0.105	1052045	keystroke_e	e	n/a
526.5475	0.09	1053095	keystroke_t	t	n/a
526.7275	0.134	1053455	keystroke_a	a	n/a
526.8925	0.06	1053785	keystroke_r	r	n/a
527.2075	0.089	1054415	keystroke_y	y	n/a
527.3865	0.106	1054773	keystroke_Key.space	Key.space	n/a
527.612	0.105	1055224	keystroke_s	s	n/a
527.762	0.105	1055524	keystroke_t	t	n/a
527.897	0.09	1055794	keystroke_o	o	n/a
528.002	0.12	1056004	keystroke_c	c	n/a
528.107	0.075	1056214	keystroke_k	k	n/a
528.2575	0.06	1056515	keystroke_i	i	n/a
528.407	0.12	1056814	keystroke_n	n	n/a
528.512	0.09	1057024	keystroke_g	g	n/a
528.603	0.119	1057206	keystroke_Key.space	Key.space	n/a
528.872	0.1355	1057744	keystroke_w	w	n/a
528.9925	0.12	1057985	keystroke_o	o	n/a
529.097	0.105	1058194	keystroke_r	r	n/a
529.217	0.12	1058434	keystroke_n	n	n/a
529.412	0.1195	1058824	keystroke_Key.space	Key.space	n/a
529.8465	0.12	1059693	keystroke_z	z	n/a
529.9675	0.0595	1059935	keystroke_o	o	n/a
530.1325	0.105	1060265	keystroke_n	n	n/a
530.2215	0.106	1060443	keystroke_e	e	n/a
530.4915	0.15	1060983	keystroke_Key.enter	Key.enter	n/a
530.6485	8.9055	1061297	prompt	n/a	bureau legs spencer hold\n
531.7675	0.1195	1063535	keystroke_b	b	n/a
532.0975	0.12	1064195	keystroke_u	u	n/a
533.0425	0.09	1066085	keystroke_r	r	n/a
533.2525	0.105	1066505	keystroke_e	e	n/a
533.6425	0.09	1067285	keystroke_a	a	n/a
533.7625	0.135	1067525	keystroke_u	u	n/a
533.9575	0.105	1067915	keystroke_Key.space	Key.space	n/a
534.2425	0.12	1068485	keystroke_l	l	n/a
534.3025	0.12	1068605	keystroke_e	e	n/a
534.5725	0.075	1069145	keystroke_g	g	n/a
534.7525	0.135	1069505	keystroke_s	s	n/a
534.8425	0.12	1069685	keystroke_Key.space	Key.space	n/a
535.2475	0.15	1070495	keystroke_s	s	n/a
535.4575	0.135	1070915	keystroke_p	p	n/a
535.7115	0.105	1071423	keystroke_e	e	n/a
535.9665	0.105	1071933	keystroke_n	n	n/a
536.1915	0.0905	1072383	keystroke_c	c	n/a
536.417	0.0755	1072834	keystroke_e	e	n/a
536.5825	0.15	1073165	keystroke_r	r	n/a
536.6875	0.119	1073375	keystroke_Key.space	Key.space	n/a
536.9115	0.105	1073823	keystroke_c	c	n/a
537.0025	0.074	1074005	keystroke_o	o	n/a
537.1815	0.1355	1074363	keystroke_l	l	n/a
537.302	0.135	1074604	keystroke_d	d	n/a
538.262	0.045	1076524	keystroke_Key.backspace	Key.backspace	n/a
538.397	0.045	1076794	keystroke_Key.backspace	Key.backspace	n/a
538.517	0.045	1077034	keystroke_Key.backspace	Key.backspace	n/a
538.637	0.06	1077274	keystroke_Key.backspace	Key.backspace	n/a
538.847	0.075	1077694	keystroke_h	h	n/a
538.982	0.0745	1077964	keystroke_o	o	n/a
539.1615	0.12	1078323	keystroke_l	l	n/a
539.2525	0.074	1078505	keystroke_d	d	n/a
539.432	0.1195	1078864	keystroke_Key.enter	Key.enter	n/a
539.558	6.641	1079116	prompt	n/a	bubble deaf hartford workout\n
540.632	0.075	1081264	keystroke_b	b	n/a
540.842	0.105	1081684	keystroke_u	u	n/a
541.052	0.06	1082104	keystroke_b	b	n/a
541.1875	0.0895	1082375	keystroke_b	b	n/a
541.367	0.1205	1082734	keystroke_l	l	n/a
541.502	0.15	1083004	keystroke_e	e	n/a
541.682	0.1055	1083364	keystroke_Key.space	Key.space	n/a
541.802	0.09	1083604	keystroke_d	d	n/a
541.967	0.09	1083934	keystroke_e	e	n/a
542.057	0.1205	1084114	keystroke_a	a	n/a
542.8075	0.105	1085615	keystroke_f	f	n/a
543.0325	0.09	1086065	keystroke_Key.space	Key.space	n/a
543.317	0.105	1086634	keystroke_h	h	n/a
543.437	0.135	1086874	keystroke_a	a	n/a
543.8875	0.1045	1087775	keystroke_r	r	n/a
544.202	0.105	1088404	keystroke_t	t	n/a
544.5325	0.075	1089065	keystroke_f	f	n/a
544.6225	0.1195	1089245	keystroke_o	o	n/a
544.7275	0.0745	1089455	keystroke_r	r	n/a
544.9075	0.1045	1089815	keystroke_d	d	n/a
544.982	0.105	1089964	keystroke_Key.space	Key.space	n/a
545.1025	0.12	1090205	keystroke_w	w	n/a
545.2375	0.06	1090475	keystroke_o	o	n/a
545.3425	0.12	1090685	keystroke_r	r	n/a
545.4175	0.075	1090835	keystroke_k	k	n/a
545.5825	0.089	1091165	keystroke_o	o	n/a
545.7915	0.0905	1091583	keystroke_u	u	n/a
545.8965	0.091	1091793	keystroke_t	t	n/a
546.0775	0.12	1092155	keystroke_Key.enter	Key.enter	n/a
546.2035	8.3955	1092407	prompt	n/a	combat crossing frequency polyphonic\n
546.9625	0.045	1093925	keystroke_c	c	n/a
547.0075	0.06	1094015	keystroke_o	o	n/a
547.1875	0.09	1094375	keystroke_m	m	n/a
547.4125	0.075	1094825	keystroke_b	b	n/a
547.5025	0.1045	1095005	keystroke_a	a	n/a
547.667	0.1205	1095334	keystroke_t	t	n/a
547.772	0.12	1095544	keystroke_Key.space	Key.space	n/a
547.982	0.09	1095964	keystroke_c	c	n/a
548.432	0.12	1096864	keystroke_r	r	n/a
548.553	0.074	1097106	keystroke_o	o	n/a
548.642	0.105	1097284	keystroke_s	s	n/a
549.1375	0.12	1098275	keystroke_s	s	n/a
549.242	0.06	1098484	keystroke_i	i	n/a
549.407	0.1045	1098814	keystroke_n	n	n/a
549.4965	0.1205	1098993	keystroke_g	g	n/a
549.602	0.12	1099204	keystroke_Key.space	Key.space	n/a
549.797	0.075	1099594	keystroke_f	f	n/a
549.9625	0.0595	1099925	keystroke_r	r	n/a
550.277	0.075	1100554	keystroke_e	e	n/a
550.562	0.12	1101124	keystroke_q	q	n/a
550.697	0.0895	1101394	keystroke_u	u	n/a
550.8165	0.105	1101633	keystroke_e	e	n/a
550.9225	0.105	1101845	keystroke_n	n	n/a
551.0715	0.09	1102143	keystroke_c	c	n/a
551.942	0.075	1103884	keystroke_y	y	n/a
552.092	0.165	1104184	keystroke_Key.space	Key.space	n/a
552.527	0.12	1105054	keystroke_p	p	n/a
552.707	0.0755	1105414	keystroke_o	o	n/a
552.8575	0.1495	1105715	keystroke_l	l	n/a
553.022	0.09	1106044	keystroke_y	y	n/a
553.292	0.105	1106584	keystroke_p	p	n/a
553.457	0.15	1106914	keystroke_h	h	n/a
553.562	0.105	1107124	keystroke_o	o	n/a
553.9375	0.134	1107875	keystroke_n	n	n/a
554.087	0.12	1108174	keystroke_i	i	n/a
554.2215	0.0605	1108443	keystroke_c	c	n/a
554.4765	0.12	1108953	keystroke_Key.enter	Key.enter	n/a
554.6035	6.9405	1109207	prompt	n/a	repeated saying obtaining gather\n
555.212	0.075	1110424	keystroke_r	r	n/a
555.377	0.12	1110754	keystroke_e	e	n/a
555.512	0.1945	1111024	keystroke_p	p	n/a
555.6475	0.104	1111295	keystroke_e	e	n/a
555.9465	0.1205	1111893	keystroke_a	a	n/a
556.0825	0.089	1112165	keystroke_t	t	n/a
556.2615	0.09	1112523	keystroke_e	e	n/a
556.4575	0.119	1112915	keystroke_d	d	n/a
556.5465	0.1355	1113093	keystroke_Key.space	Key.space	n/a
556.757	0.075	1113514	keystroke_s	s	n/a
556.847	0.105	1113694	keystroke_a	a	n/a
557.4175	0.075	1114835	keystroke_y	y	n/a
557.5675	0.075	1115135	keystroke_i	i	n/a
557.7175	0.0895	1115435	keystroke_n	n	n/a
557.837	0.12	1115674	keystroke_g	g	n/a
558.002	0.12	1116004	keystroke_Key.space	Key.space	n/a
558.167	0.075	1116334	keystroke_o	o	n/a
558.362	0.105	1116724	keystroke_b	b	n/a
558.497	0.105	1116994	keystroke_t	t	n/a
558.632	0.12	1117264	keystroke_a	a	n/a
558.782	0.12	1117564	keystroke_i	i	n/a
559.6525	0.134	1119305	keystroke_n	n	n/a
559.8615	0.1655	1119723	keystroke_i	i	n/a
559.982	0.1205	1119964	keystroke_n	n	n/a
560.1325	0.074	1120265	keystroke_g	g	n/a
560.3715	0.1205	1120743	keystroke_Key.space	Key.space	n/a
560.612	0.0595	1121224	keystroke_g	g	n/a
560.7615	0.121	1121523	keystroke_a	a	n/a
560.8515	0.105	1121703	keystroke_t	t	n/a
560.9875	0.1045	1121975	keystroke_h	h	n/a
561.1075	0.075	1122215	keystroke_e	e	n/a
561.257	0.15	1122514	keystroke_r	r	n/a
561.3925	0.15	1122785	keystroke_Key.enter	Key.enter	n/a
561.5485	4.946	1123097	prompt	n/a	sell male trails flush\n
562.2015	0.1355	1124403	keystroke_s	s	n/a
562.352	0.1205	1124704	keystroke_e	e	n/a
562.4865	0.075	1124973	keystroke_l	l	n/a
562.637	0.1195	1125274	keystroke_l	l	n/a
562.7265	0.1205	1125453	keystroke_Key.space	Key.space	n/a
563.0425	0.134	1126085	keystroke_m	m	n/a
563.148	0.1495	1126296	keystroke_a	a	n/a
563.267	0.1195	1126534	keystroke_l	l	n/a
563.4015	0.121	1126803	keystroke_e	e	n/a
563.732	0.135	1127464	keystroke_Key.space	Key.space	n/a
564.047	0.09	1128094	keystroke_t	t	n/a
564.227	0.06	1128454	keystroke_r	r	n/a
564.317	0.12	1128634	keystroke_a	a	n/a
564.422	0.105	1128844	keystroke_i	i	n/a
564.573	0.059	1129146	keystroke_s	s	n/a
565.112	0.045	1130224	keystroke_Key.backspace	Key.backspace	n/a
565.292	0.106	1130584	keystroke_l	l	n/a
565.382	0.12	1130764	keystroke_s	s	n/a
565.547	0.135	1131094	keystroke_Key.space	Key.space	n/a
565.742	0.105	1131484	keystroke_f	f	n/a
565.832	0.105	1131664	keystroke_l	l	n/a
566.0125	0.0895	1132025	keystroke_u	u	n/a
566.087	0.105	1132174	keystroke_s	s	n/a
566.193	0.074	1132386	keystroke_h	h	n/a
566.342	0.1505	1132684	keystroke_Key.enter	Key.enter	n/a
566.499	6.2955	1132998	prompt	n/a	scenario markers confusion jose\n
567.2425	0.135	1134485	keystroke_s	s	n/a
567.4975	0.105	1134995	keystroke_c	c	n/a
567.768	0.1195	1135536	keystroke_e	e	n/a
567.872	0.105	1135744	keystroke_n	n	n/a
568.232	0.135	1136464	keystroke_a	a	n/a
568.352	0.12	1136704	keystroke_r	r	n/a
568.457	0.09	1136914	keystroke_i	i	n/a
568.697	0.105	1137394	keystroke_o	o	n/a
568.847	0.135	1137694	keystroke_Key.space	Key.space	n/a
569.148	0.149	1138296	keystroke_m	m	n/a
569.282	0.12	1138564	keystroke_a	a	n/a
569.4625	0.1195	1138925	keystroke_r	r	n/a
569.672	0.105	1139344	keystroke_k	k	n/a
569.747	0.09	1139494	keystroke_e	e	n/a
569.912	0.105	1139824	keystroke_r	r	n/a
570.047	0.135	1140094	keystroke_s	s	n/a
570.152	0.105	1140304	keystroke_Key.space	Key.space	n/a
570.392	0.09	1140784	keystroke_c	c	n/a
570.467	0.075	1140934	keystroke_o	o	n/a
570.647	0.105	1141294	keystroke_n	n	n/a
570.827	0.105	1141654	keystroke_f	f	n/a
570.962	0.12	1141924	keystroke_u	u	n/a
571.097	0.1805	1142194	keystroke_s	s	n/a
571.2025	0.0895	1142405	keystroke_i	i	n/a
571.3525	0.075	1142705	keystroke_o	o	n/a
571.517	0.12	1143034	keystroke_n	n	n/a
571.652	0.135	1143304	keystroke_Key.space	Key.space	n/a
571.8775	0.1195	1143755	keystroke_j	j	n/a
572.072	0.135	1144144	keystroke_o	o	n/a
572.357	0.15	1144714	keystroke_s	s	n/a
572.462	0.105	1144924	keystroke_e	e	n/a
572.642	0.15	1145284	keystroke_Key.enter	Key.enter	n/a
572.7995	10.0745	1145599	prompt	n/a	clearance roster conservative attachments\n
573.737	0.075	1147474	keystroke_c	c	n/a
573.842	0.15	1147684	keystroke_l	l	n/a
573.977	0.105	1147954	keystroke_e	e	n/a
574.157	0.135	1148314	keystroke_a	a	n/a
574.352	0.12	1148704	keystroke_r	r	n/a
574.562	0.06	1149124	keystroke_n	n	n/a
574.637	0.075	1149274	keystroke_a	a	n/a
575.177	0.03	1150354	keystroke_Key.backspace	Key.backspace	n/a
575.282	0.06	1150564	keystroke_Key.backspace	Key.backspace	n/a
575.357	0.12	1150714	keystroke_a	a	n/a
575.462	0.12	1150924	keystroke_n	n	n/a
575.582	0.045	1151164	keystroke_c	c	n/a
575.732	0.135	1151464	keystroke_e	e	n/a
575.8525	0.1195	1151705	keystroke_Key.space	Key.space	n/a
576.1375	0.1195	1152275	keystroke_r	r	n/a
576.242	0.0905	1152484	keystroke_o	o	n/a
576.347	0.075	1152694	keystroke_s	s	n/a
576.467	0.09	1152934	keystroke_t	t	n/a
576.6775	0.0295	1153355	keystroke_e	e	n/a
576.797	0.09	1153594	keystroke_r	r	n/a
576.872	0.09	1153744	keystroke_Key.space	Key.space	n/a
577.022	0.105	1154044	keystroke_c	c	n/a
577.097	0.09	1154194	keystroke_o	o	n/a
577.277	0.105	1154554	keystroke_n	n	n/a
577.517	0.15	1155034	keystroke_s	s	n/a
577.652	0.09	1155304	keystroke_e	e	n/a
577.817	0.12	1155634	keystroke_r	r	n/a
578.132	0.075	1156264	keystroke_v	v	n/a
578.297	0.12	1156594	keystroke_a	a	n/a
578.447	0.1055	1156894	keystroke_t	t	n/a
578.5525	0.1195	1157105	keystroke_i	i	n/a
578.7165	0.105	1157433	keystroke_v	v	n/a
578.9265	0.135	1157853	keystroke_e	e	n/a
579.0325	0.119	1158065	keystroke_Key.space	Key.space	n/a
579.2725	0.104	1158545	keystroke_a	a	n/a
579.4225	0.089	1158845	keystroke_t	t	n/a
579.5865	0.105	1159173	keystroke_t	t	n/a
579.8565	0.12	1159713	keystroke_c	c	n/a
579.9915	0.1055	1159983	keystroke_h	h	n/a
580.622	0.06	1161244	keystroke_Key.backspace	Key.backspace	n/a
580.697	0.1055	1161394	keystroke_a	a	n/a
580.832	0.105	1161664	keystroke_h	h	n/a
581.6115	0.0455	1163223	keystroke_Key.backspace	Key.backspace	n/a
581.672	0.045	1163344	keystroke_Key.backspace	Key.backspace	n/a
581.837	0.09	1163674	keystroke_h	h	n/a
582.197	0.075	1164394	keystroke_m	m	n/a
582.257	0.105	1164514	keystroke_e	e	n/a
582.377	0.105	1164754	keystroke_n	n	n/a
582.467	0.09	1164934	keystroke_t	t	n/a
582.587	0.1355	1165174	keystroke_s	s	n/a
582.7365	0.1355	1165473	keystroke_Key.enter	Key.enter	n/a
582.882	6.367	1165764	prompt	n/a	telecharger garage speaking jack\n
583.487	0.075	1166974	keystroke_t	t	n/a
583.652	0.105	1167304	keystroke_e	e	n/a
583.772	0.15	1167544	keystroke_l	l	n/a
583.907	0.1205	1167814	keystroke_e	e	n/a
584.4925	0.06	1168985	keystroke_c	c	n/a
584.5975	0.09	1169195	keystroke_h	h	n/a
584.7325	0.12	1169465	keystroke_a	a	n/a
584.8375	0.105	1169675	keystroke_r	r	n/a
585.0175	0.075	1170035	keystroke_g	g	n/a
585.1975	0.09	1170395	keystroke_e	e	n/a
585.3775	0.12	1170755	keystroke_r	r	n/a
585.4675	0.135	1170935	keystroke_Key.space	Key.space	n/a
586.1125	0.044	1172225	keystroke_g	g	n/a
586.2325	0.12	1172465	keystroke_a	a	n/a
586.3975	0.09	1172795	keystroke_r	r	n/a
586.6675	0.105	1173335	keystroke_a	a	n/a
587.0425	0.0145	1174085	keystroke_g	g	n/a
587.1625	0.1345	1174325	keystroke_e	e	n/a
587.267	0.15	1174534	keystroke_Key.space	Key.space	n/a
587.672	0.1195	1175344	keystroke_s	s	n/a
587.777	0.1195	1175554	keystroke_p	p	n/a
587.8365	0.15	1175673	keystroke_e	e	n/a
587.9415	0.121	1175883	keystroke_a	a	n/a
588.017	0.0745	1176034	keystroke_k	k	n/a
588.167	0.1195	1176334	keystroke_i	i	n/a
588.2415	0.136	1176483	keystroke_n	n	n/a
588.332	0.1055	1176664	keystroke_g	g	n/a
588.4215	0.12	1176843	keystroke_Key.space	Key.space	n/a
588.5715	0.1205	1177143	keystroke_j	j	n/a
588.6765	0.136	1177353	keystroke_a	a	n/a
588.7975	0.1195	1177595	keystroke_c	c	n/a
588.8715	0.1205	1177743	keystroke_k	k	n/a
589.067	0.18	1178134	keystroke_Key.enter	Key.enter	n/a
589.2535	5.5455	1178507	prompt	n/a	friend throws polished adsl\n
589.7875	0.1195	1179575	keystroke_r	r	n/a
590.3425	0.089	1180685	keystroke_Key.backspace	Key.backspace	n/a
590.3875	0.089	1180775	keystroke_f	f	n/a
590.5675	0.09	1181135	keystroke_r	r	n/a
590.6425	0.09	1181285	keystroke_i	i	n/a
590.7025	0.104	1181405	keystroke_e	e	n/a
590.8375	0.1045	1181675	keystroke_n	n	n/a
590.927	0.1055	1181854	keystroke_d	d	n/a
591.017	0.135	1182034	keystroke_Key.space	Key.space	n/a
591.332	0.105	1182664	keystroke_t	t	n/a
591.452	0.105	1182904	keystroke_h	h	n/a
591.527	0.15	1183054	keystroke_r	r	n/a
591.632	0.12	1183264	keystroke_o	o	n/a
591.707	0.075	1183414	keystroke_w	w	n/a
591.887	0.12	1183774	keystroke_s	s	n/a
591.977	0.135	1183954	keystroke_Key.space	Key.space	n/a
592.337	0.09	1184674	keystroke_p	p	n/a
592.472	0.0905	1184944	keystroke_o	o	n/a
592.637	0.1205	1185274	keystroke_l	l	n/a
592.742	0.105	1185484	keystroke_i	i	n/a
592.832	0.135	1185664	keystroke_s	s	n/a
592.9525	0.0895	1185905	keystroke_h	h	n/a
593.117	0.09	1186234	keystroke_e	e	n/a
593.2975	0.0895	1186595	keystroke_d	d	n/a
593.342	0.135	1186684	keystroke_Key.space	Key.space	n/a
593.972	0.135	1187944	keystroke_a	a	n/a
594.122	0.06	1188244	keystroke_d	d	n/a
594.392	0.1205	1188784	keystroke_s	s	n/a
594.467	0.105	1188934	keystroke_l	l	n/a
594.692	0.105	1189384	keystroke_Key.enter	Key.enter	n/a
594.8035	9.6555	1189607	prompt	n/a	decreased designs various french\n
595.5315	0.076	1191063	keystroke_a	a	n/a
595.877	0.0605	1191754	keystroke_Key.backspace	Key.backspace	n/a
595.938	0.104	1191876	keystroke_d	d	n/a
596.132	0.0745	1192264	keystroke_e	e	n/a
596.567	0.09	1193134	keystroke_c	c	n/a
596.792	0.075	1193584	keystroke_r	r	n/a
596.957	0.1205	1193914	keystroke_e	e	n/a
597.6625	0.135	1195325	keystroke_a	a	n/a
597.7815	0.105	1195563	keystroke_s	s	n/a
597.8415	0.09	1195683	keystroke_e	e	n/a
598.0525	0.045	1196105	keystroke_d	d	n/a
598.082	0.1195	1196164	keystroke_Key.space	Key.space	n/a
598.277	0.06	1196554	keystroke_d	d	n/a
598.3975	0.09	1196795	keystroke_e	e	n/a
598.5325	0.12	1197065	keystroke_s	s	n/a
599.1015	0.0905	1198203	keystroke_i	i	n/a
599.402	0.105	1198804	keystroke_g	g	n/a
599.477	0.121	1198954	keystroke_n	n	n/a
599.612	0.0755	1199224	keystroke_e	e	n/a
599.732	0.135	1199464	keystroke_s	s	n/a
599.8525	0.1195	1199705	keystroke_Key.space	Key.space	n/a
600.6025	0.0445	1201205	keystroke_Key.backspace	Key.backspace	n/a
600.722	0.045	1201444	keystroke_Key.backspace	Key.backspace	n/a
600.8275	0.12	1201655	keystroke_Key.backspace	Key.backspace	n/a
600.9775	0.12	1201955	keystroke_s	s	n/a
601.4865	0.105	1202973	keystroke_Key.space	Key.space	n/a
601.907	0.0455	1203814	keystroke_v	v	n/a
602.0275	0.0895	1204055	keystroke_a	a	n/a
602.192	0.105	1204384	keystroke_r	r	n/a
602.237	0.075	1204474	keystroke_i	i	n/a
602.3875	0.0595	1204775	keystroke_o	o	n/a
