onset	duration	sample	value	key	prompt_text
2.52	13.32	5040	prompt	n/a	the quick brown fox jumps over a lazy dog\n
4.8585	0.013	9717	keystroke_t	t	n/a
4.916	0.09	9832	keystroke_h	h	n/a
4.9915	0.1195	9983	keystroke_e	e	n/a
5.126	0.15	10252	keystroke_Key.space	Key.space	n/a
5.3515	0.1345	10703	keystroke_q	q	n/a
5.471	0.105	10942	keystroke_u	u	n/a
5.636	0.135	11272	keystroke_c	c	n/a
6.251	0.105	12502	keystroke_Key.backspace	Key.backspace	n/a
6.5355	0.105	13071	keystroke_i	i	n/a
6.656	0.15	13312	keystroke_c	c	n/a
6.761	0.15	13522	keystroke_k	k	n/a
7.3155	0.1505	14631	keystroke_Key.space	Key.space	n/a
7.677	0.09	15354	keystroke_b	b	n/a
7.887	0.1045	15774	keystroke_o	o	n/a
7.902	0.1045	15804	keystroke_r	r	n/a
8.3975	0.104	16795	keystroke_Key.backspace	Key.backspace	n/a
8.6215	0.105	17243	keystroke_Key.backspace	Key.backspace	n/a
8.7715	0.121	17543	keystroke_r	r	n/a
8.9365	0.09	17873	keystroke_o	o	n/a
9.012	0.15	18024	keystroke_w	w	n/a
9.177	0.09	18354	keystroke_n	n	n/a
9.5225	0.1345	19045	keystroke_Key.space	Key.space	n/a
9.732	0.06	19464	keystroke_f	f	n/a
10.497	0.1205	20994	keystroke_o	o	n/a
10.6025	0.15	21205	keystroke_x	x	n/a
11.202	0.1355	22404	keystroke_Key.space	Key.space	n/a
11.5025	0.075	23005	keystroke_j	j	n/a
11.6975	0.075	23395	keystroke_u	u	n/a
11.923	0.075	23846	keystroke_m	m	n/a
12.103	0.134	24206	keystroke_p	p	n/a
12.222	0.15	24444	keystroke_s	s	n/a
12.627	0.105	25254	keystroke_Key.space	Key.space	n/a
12.8375	0.12	25675	keystroke_o	o	n/a
12.9725	0.0755	25945	keystroke_v	v	n/a
13.1375	0.105	26275	keystroke_e	e	n/a
13.2125	0.105	26425	keystroke_r	r	n/a
13.3325	0.1195	26665	keystroke_Key.space	Key.space	n/a
13.467	0.15	26934	keystroke_a	a	n/a
13.587	0.135	27174	keystroke_Key.space	Key.space	n/a
13.977	0.12	27954	keystroke_l	l	n/a
14.142	0.135	28284	keystroke_a	a	n/a
14.397	0.18	28794	keystroke_z	z	n/a
14.562	0.15	29124	keystroke_y	y	n/a
14.652	0.1355	29304	keystroke_Key.space	Key.space	n/a
14.982	0.1495	29964	keystroke_d	d	n/a
15.1475	0.135	30295	keystroke_o	o	n/a
15.2675	0.105	30535	keystroke_g	g	n/a
15.7025	0.135	31405	keystroke_Key.enter	Key.enter	n/a
15.844	7.585	31688	prompt	n/a	enhance seen titled illustrated\n
16.603	0.1335	33206	keystroke_e	e	n/a
16.7515	0.105	33503	keystroke_n	n	n/a
16.992	0.0905	33984	keystroke_h	h	n/a
17.1125	0.15	34225	keystroke_a	a	n/a
17.562	0.135	35124	keystroke_n	n	n/a
17.682	0.18	35364	keystroke_c	c	n/a
17.802	0.15	35604	keystroke_e	e	n/a
17.953	0.1195	35906	keystroke_Key.space	Key.space	n/a
18.132	0.18	36264	keystroke_s	s	n/a
18.2825	0.1205	36565	keystroke_e	e	n/a
18.492	0.1345	36984	keystroke_e	e	n/a
18.6575	0.135	37315	keystroke_n	n	n/a
18.8225	0.1345	37645	keystroke_Key.space	Key.space	n/a
19.122	0.09	38244	keystroke_t	t	n/a
19.197	0.135	38394	keystroke_i	i	n/a
19.347	0.105	38694	keystroke_t	t	n/a
19.497	0.15	38994	keystroke_l	l	n/a
20.0525	0.105	40105	keystroke_e	e	n/a
20.352	0.135	40704	keystroke_d	d	n/a
20.607	0.135	41214	keystroke_Key.space	Key.space	n/a
20.877	0.12	41754	keystroke_i	i	n/a
21.177	0.135	42354	keystroke_l	l	n/a
21.462	0.12	42924	keystroke_l	l	n/a
21.702	0.105	43404	keystroke_u	u	n/a
21.792	0.135	43584	keystroke_s	s	n/a
22.017	0.06	44034	keystroke_t	t	n/a
22.182	0.12	44364	keystroke_r	r	n/a
22.3765	0.1955	44753	keystroke_a	a	n/a
22.512	0.12	45024	keystroke_t	t	n/a
22.662	0.105	45324	keystroke_e	e	n/a
22.887	0.1355	45774	keystroke_d	d	n/a
23.2775	0.15	46555	keystroke_Key.enter	Key.enter	n/a
23.432	9.297	46864	prompt	n/a	strengthening important fast mexican\n
24.237	0.1055	48474	keystroke_s	s	n/a
24.4475	0.045	48895	keystroke_t	t	n/a
24.5975	0.1945	49195	keystroke_r	r	n/a
24.688	0.1795	49376	keystroke_e	e	n/a
25.1975	0.12	50395	keystroke_n	n	n/a
25.3775	0.075	50755	keystroke_g	g	n/a
25.4975	0.1045	50995	keystroke_h	h	n/a
25.632	0.075	51264	keystroke_t	t	n/a
25.827	0.135	51654	keystroke_e	e	n/a
25.977	0.105	51954	keystroke_n	n	n/a
26.667	0.18	53334	keystroke_i	i	n/a
26.787	0.15	53574	keystroke_n	n	n/a
26.922	0.105	53844	keystroke_g	g	n/a
27.117	0.12	54234	keystroke_Key.space	Key.space	n/a
27.447	0.1055	54894	keystroke_i	i	n/a
27.703	0.075	55406	keystroke_m	m	n/a
27.883	0.105	55766	keystroke_p	p	n/a
28.0925	0.12	56185	keystroke_o	o	n/a
28.1975	0.12	56395	keystroke_r	r	n/a
28.393	0.09	56786	keystroke_t	t	n/a
28.588	0.1495	57176	keystroke_a	a	n/a
28.7525	0.09	57505	keystroke_n	n	n/a
28.8725	0.0895	57745	keystroke_t	t	n/a
29.097	0.1355	58194	keystroke_Key.space	Key.space	n/a
29.3075	0.12	58615	keystroke_f	f	n/a
29.4425	0.135	58885	keystroke_a	a	n/a
29.5625	0.195	59125	keystroke_s	s	n/a
29.7275	0.15	59455	keystroke_t	t	n/a
30.1325	0.15	60265	keystroke_Key.space	Key.space	n/a
30.4925	0.135	60985	keystroke_m	m	n/a
30.5675	0.12	61135	keystroke_e	e	n/a
31.2575	0.1345	62515	keystroke_x	x	n/a
31.602	0.135	63204	keystroke_i	i	n/a
31.932	0.18	63864	keystroke_c	c	n/a
32.142	0.15	64284	keystroke_a	a	n/a
32.262	0.12	64524	keystroke_n	n	n/a
32.5625	0.165	65125	keystroke_Key.enter	Key.enter	n/a
32.732	13.1525	65464	prompt	n/a	qualification bahrain three unions\n
33.687	0.15	67374	keystroke_q	q	n/a
34.077	0.105	68154	keystroke_u	u	n/a
34.392	0.15	68784	keystroke_a	a	n/a
34.512	0.135	69024	keystroke_l	l	n/a
34.902	0.135	69804	keystroke_i	i	n/a
35.112	0.15	70224	keystroke_f	f	n/a
35.292	0.135	70584	keystroke_i	i	n/a
35.517	0.15	71034	keystroke_c	c	n/a
35.712	0.15	71424	keystroke_a	a	n/a
35.997	0.105	71994	keystroke_t	t	n/a
36.087	0.195	72174	keystroke_i	i	n/a
36.207	0.195	72414	keystroke_o	o	n/a
36.297	0.18	72594	keystroke_n	n	n/a
36.462	0.135	72924	keystroke_Key.space	Key.space	n/a
37.212	0.165	74424	keystroke_a	a	n/a
37.917	0.135	75834	keystroke_Key.backspace	Key.backspace	n/a
38.277	0.105	76554	keystroke_h	h	n/a
38.503	0.1345	77006	keystroke_a	a	n/a
39.8375	0.105	79675	keystroke_Key.backspace	Key.backspace	n/a
40.0475	0.135	80095	keystroke_Key.backspace	Key.backspace	n/a
40.677	0.09	81354	keystroke_b	b	n/a
40.827	0.165	81654	keystroke_a	a	n/a
40.977	0.12	81954	keystroke_h	h	n/a
42.0425	0.075	84085	keystroke_r	r	n/a
42.1775	0.15	84355	keystroke_a	a	n/a
42.3125	0.15	84625	keystroke_i	i	n/a
42.3725	0.1495	84745	keystroke_n	n	n/a
42.597	0.135	85194	keystroke_Key.space	Key.space	n/a
42.7775	0.09	85555	keystroke_t	t	n/a
42.8825	0.1195	85765	keystroke_h	h	n/a
43.212	0.105	86424	keystroke_r	r	n/a
43.332	0.12	86664	keystroke_e	e	n/a
43.558	0.134	87116	keystroke_e	e	n/a
44.022	0.1655	88044	keystroke_Key.space	Key.space	n/a
44.4275	0.105	88855	keystroke_u	u	n/a
44.652	0.12	89304	keystroke_n	n	n/a
44.757	0.121	89514	keystroke_i	i	n/a
44.9825	0.18	89965	keystroke_o	o	n/a
45.0725	0.18	90145	keystroke_n	n	n/a
45.4325	0.165	90865	keystroke_s	s	n/a
45.7325	0.15	91465	keystroke_Key.enter	Key.enter	n/a
45.8875	11.682	91775	prompt	n/a	trainers diseases frequencies icons\n
46.767	0.09	93534	keystroke_t	t	n/a
46.9775	0.09	93955	keystroke_r	r	n/a
47.1875	0.15	94375	keystroke_a	a	n/a
47.3385	0.194	94677	keystroke_i	i	n/a
47.4575	0.15	94915	keystroke_n	n	n/a
47.5925	0.12	95185	keystroke_e	e	n/a
47.6525	0.15	95305	keystroke_r	r	n/a
47.9075	0.15	95815	keystroke_s	s	n/a
48.088	0.15	96176	keystroke_Key.space	Key.space	n/a
48.2975	0.1505	96595	keystroke_d	d	n/a
48.433	0.1195	96866	keystroke_i	i	n/a
48.538	0.1195	97076	keystroke_s	s	n/a
48.883	0.1045	97766	keystroke_e	e	n/a
49.0925	0.1355	98185	keystroke_a	a	n/a
49.198	0.18	98396	keystroke_s	s	n/a
49.288	0.15	98576	keystroke_e	e	n/a
49.573	0.165	99146	keystroke_s	s	n/a
50.6375	0.15	101275	keystroke_Key.space	Key.space	n/a
50.8775	0.105	101755	keystroke_f	f	n/a
51.0875	0.18	102175	keystroke_r	r	n/a
51.1625	0.165	102325	keystroke_e	e	n/a
51.7325	0.12	103465	keystroke_q	q	n/a
51.8675	0.12	103735	keystroke_u	u	n/a
51.9725	0.135	103945	keystroke_e	e	n/a
52.1075	0.135	104215	keystroke_n	n	n/a
52.3475	0.135	104695	keystroke_c	c	n/a
52.887	0.165	105774	keystroke_e	e	n/a
53.007	0.165	106014	keystroke_i	i	n/a
53.142	0.165	106284	keystroke_s	s	n/a
54.057	0.09	108114	keystroke_Key.backspace	Key.backspace	n/a
54.237	0.1355	108474	keystroke_Key.backspace	Key.backspace	n/a
54.823	0.0895	109646	keystroke_Key.backspace	Key.backspace	n/a
55.1075	0.135	110215	keystroke_i	i	n/a
55.1825	0.105	110365	keystroke_e	e	n/a
55.3625	0.15	110725	keystroke_s	s	n/a
55.917	0.135	111834	keystroke_Key.space	Key.space	n/a
56.202	0.151	112404	keystroke_i	i	n/a
56.367	0.12	112734	keystroke_c	c	n/a
56.473	0.195	112946	keystroke_o	o	n/a
56.547	0.181	113094	keystroke_n	n	n/a
56.802	0.105	113604	keystroke_s	s	n/a
57.402	0.1655	114804	keystroke_Key.enter	Key.enter	n/a
57.572	7.2725	115144	prompt	n/a	imagination many transfer tale\n
58.437	0.1055	116874	keystroke_i	i	n/a
58.662	0.1355	117324	keystroke_m	m	n/a
58.7825	0.1355	117565	keystroke_a	a	n/a
59.3375	0.105	118675	keystroke_g	g	n/a
59.4575	0.12	118915	keystroke_i	i	n/a
59.6675	0.105	119335	keystroke_n	n	n/a
59.7735	0.104	119547	keystroke_a	a	n/a
59.9975	0.12	119995	keystroke_t	t	n/a
60.0875	0.15	120175	keystroke_i	i	n/a
60.1775	0.21	120355	keystroke_o	o	n/a
60.2825	0.165	120565	keystroke_n	n	n/a
60.4475	0.15	120895	keystroke_Key.space	Key.space	n/a
60.927	0.09	121854	keystroke_m	m	n/a
60.972	0.12	121944	keystroke_a	a	n/a
61.107	0.09	122214	keystroke_n	n	n/a
61.333	0.12	122666	keystroke_y	y	n/a
61.422	0.1355	122844	keystroke_Key.space	Key.space	n/a
61.7825	0.075	123565	keystroke_t	t	n/a
61.9775	0.06	123955	keystroke_r	r	n/a
62.0975	0.15	124195	keystroke_a	a	n/a
62.2485	0.104	124497	keystroke_n	n	n/a
62.4275	0.15	124855	keystroke_s	s	n/a
62.7125	0.105	125425	keystroke_f	f	n/a
62.908	0.12	125816	keystroke_e	e	n/a
62.968	0.135	125936	keystroke_r	r	n/a
63.298	0.15	126596	keystroke_Key.space	Key.space	n/a
63.463	0.09	126926	keystroke_t	t	n/a
63.658	0.12	127316	keystroke_a	a	n/a
63.8825	0.135	127765	keystroke_l	l	n/a
63.9725	0.135	127945	keystroke_e	e	n/a
64.7075	0.135	129415	keystroke_Key.enter	Key.enter	n/a
64.848	10.181	129696	prompt	n/a	crazy portland presentations simple\n
65.802	0.03	131604	keystroke_c	c	n/a
66.102	0.09	132204	keystroke_r	r	n/a
66.267	0.105	132534	keystroke_a	a	n/a
66.523	0.165	133046	keystroke_z	z	n/a
66.673	0.15	133346	keystroke_y	y	n/a
66.9875	0.135	133975	keystroke_Key.space	Key.space	n/a
67.2275	0.12	134455	keystroke_p	p	n/a
67.4525	0.1355	134905	keystroke_o	o	n/a
67.5575	0.0755	135115	keystroke_r	r	n/a
67.753	0.09	135506	keystroke_t	t	n/a
68.158	0.135	136316	keystroke_l	l	n/a
68.3225	0.15	136645	keystroke_a	a	n/a
68.4575	0.12	136915	keystroke_n	n	n/a
68.5625	0.15	137125	keystroke_d	d	n/a
68.922	0.136	137844	keystroke_Key.space	Key.space	n/a
69.177	0.136	138354	keystroke_p	p	n/a
69.297	0.15	138594	keystroke_r	r	n/a
69.372	0.12	138744	keystroke_e	e	n/a
69.612	0.18	139224	keystroke_s	s	n/a
69.777	0.165	139554	keystroke_e	e	n/a
70.047	0.12	140094	keystroke_n	n	n/a
70.197	0.105	140394	keystroke_t	t	n/a
70.377	0.135	140754	keystroke_e	e	n/a
70.617	0.12	141234	keystroke_d	d	n/a
71.5625	0.135	143125	keystroke_Key.backspace	Key.backspace	n/a
71.8925	0.12	143785	keystroke_Key.backspace	Key.backspace	n/a
72.1775	0.12	144355	keystroke_a	a	n/a
72.4325	0.135	144865	keystroke_t	t	n/a
72.5075	0.15	145015	keystroke_i	i	n/a
72.582	0.1805	145164	keystroke_o	o	n/a
72.6875	0.15	145375	keystroke_n	n	n/a
72.8225	0.135	145645	keystroke_s	s	n/a
73.1075	0.15	146215	keystroke_Key.space	Key.space	n/a
73.5125	0.165	147025	keystroke_s	s	n/a
73.7375	0.09	147475	keystroke_i	i	n/a
73.9775	0.09	147955	keystroke_m	m	n/a
74.1725	0.075	148345	keystroke_p	p	n/a
74.3675	0.15	148735	keystroke_l	l	n/a
74.4725	0.135	148945	keystroke_e	e	n/a
74.878	0.15	149756	keystroke_Key.enter	Key.enter	n/a
75.0355	10.9435	150071	prompt	n/a	developed apparently beam assumed\n
75.883	0.09	151766	keystroke_d	d	n/a
76.0775	0.12	152155	keystroke_e	e	n/a
76.288	0.075	152576	keystroke_v	v	n/a
76.408	0.135	152816	keystroke_e	e	n/a
76.573	0.12	153146	keystroke_l	l	n/a
76.798	0.075	153596	keystroke_o	o	n/a
76.9925	0.1205	153985	keystroke_p	p	n/a
77.368	0.104	154736	keystroke_e	e	n/a
77.622	0.135	155244	keystroke_d	d	n/a
77.862	0.135	155724	keystroke_Key.space	Key.space	n/a
78.1925	0.135	156385	keystroke_a	a	n/a
78.868	0.09	157736	keystroke_p	p	n/a
79.183	0.015	158366	keystroke_p	p	n/a
79.348	0.105	158696	keystroke_a	a	n/a
79.573	0.09	159146	keystroke_r	r	n/a
79.738	0.12	159476	keystroke_e	e	n/a
79.873	0.135	159746	keystroke_n	n	n/a
79.993	0.09	159986	keystroke_t	t	n/a
80.173	0.119	160346	keystroke_l	l	n/a
80.427	0.121	160854	keystroke_y	y	n/a
80.652	0.1355	161304	keystroke_Key.space	Key.space	n/a
81.2225	0.09	162445	keystroke_b	b	n/a
81.4625	0.09	162925	keystroke_e	e	n/a
81.6425	0.15	163285	keystroke_a	a	n/a
81.8225	0.18	163645	keystroke_m	m	n/a
82.3175	0.165	164635	keystroke_Key.space	Key.space	n/a
82.7075	0.135	165415	keystroke_s	s	n/a
83.592	0.135	167184	keystroke_Key.backspace	Key.backspace	n/a
83.742	0.12	167484	keystroke_a	a	n/a
83.967	0.105	167934	keystroke_s	s	n/a
84.177	0.1355	168354	keystroke_s	s	n/a
84.3425	0.09	168685	keystroke_u	u	n/a
84.5525	0.1505	169105	keystroke_m	m	n/a
84.6575	0.1345	169315	keystroke_e	e	n/a
85.0775	0.135	170155	keystroke_d	d	n/a
85.813	0.165	171626	keystroke_Key.enter	Key.enter	n/a
85.982	8.577	171964	prompt	n/a	purpose gray croatia boss\n
86.7875	0.105	173575	keystroke_p	p	n/a
87.0275	0.135	174055	keystroke_u	u	n/a
87.1325	0.135	174265	keystroke_r	r	n/a
87.702	0.12	175404	keystroke_p	p	n/a
87.9425	0.135	175885	keystroke_o	o	n/a
88.0325	0.195	176065	keystroke_s	s	n/a
88.1075	0.18	176215	keystroke_e	e	n/a
88.4525	0.135	176905	keystroke_Key.space	Key.space	n/a
88.6625	0.0755	177325	keystroke_g	g	n/a
88.858	0.09	177716	keystroke_r	r	n/a
89.007	0.1505	178014	keystroke_a	a	n/a
89.1575	0.12	178315	keystroke_y	y	n/a
89.5625	0.1345	179125	keystroke_Key.space	Key.space	n/a
90.0725	0.135	180145	keystroke_c	c	n/a
90.4475	0.135	180895	keystroke_r	r	n/a
91.1525	0.045	182305	keystroke_o	o	n/a
91.2125	0.1205	182425	keystroke_a	a	n/a
91.4675	0.105	182935	keystroke_t	t	n/a
91.633	0.15	183266	keystroke_i	i	n/a
92.0225	0.15	184045	keystroke_a	a	n/a
92.593	0.134	185186	keystroke_Key.space	Key.space	n/a
92.9525	0.105	185905	keystroke_b	b	n/a
93.7175	0.1505	187435	keystroke_o	o	n/a
93.883	0.104	187766	keystroke_s	s	n/a
94.077	0.136	188154	keystroke_s	s	n/a
94.392	0.166	188784	keystroke_Key.enter	Key.enter	n/a
94.562	11.112	189124	prompt	n/a	colony cycling keeping tiles\n
95.413	0.164	190826	keystroke_c	c	n/a
95.788	0.12	191576	keystroke_o	o	n/a
96.027	0.09	192054	keystroke_l	l	n/a
96.222	0.121	192444	keystroke_o	o	n/a
96.463	0.119	192926	keystroke_n	n	n/a
96.732	0.105	193464	keystroke_y	y	n/a
96.9875	0.135	193975	keystroke_Key.space	Key.space	n/a
97.1975	0.165	194395	keystroke_c	c	n/a
97.3475	0.09	194695	keystroke_y	y	n/a
97.5125	0.15	195025	keystroke_c	c	n/a
97.6775	0.15	195355	keystroke_l	l	n/a
97.9625	0.12	195925	keystroke_i	i	n/a
98.0225	0.15	196045	keystroke_n	n	n/a
98.1875	0.0895	196375	keystroke_g	g	n/a
98.487	0.135	196974	keystroke_Key.space	Key.space	n/a
99.312	0.15	198624	keystroke_k	k	n/a
99.432	0.105	198864	keystroke_e	e	n/a
99.732	0.045	199464	keystroke_e	e	n/a
99.747	0.105	199494	keystroke_p	p	n/a
99.957	0.135	199914	keystroke_i	i	n/a
100.032	0.15	200064	keystroke_n	n	n/a
100.167	0.12	200334	keystroke_g	g	n/a
100.362	0.135	200724	keystroke_Key.space	Key.space	n/a
100.647	0.105	201294	keystroke_t	t	n/a
100.767	0.1505	201534	keystroke_i	i	n/a
100.9475	0.09	201895	keystroke_t	t	n/a
101.0225	0.135	202045	keystroke_l	l	n/a
101.1425	0.105	202285	keystroke_e	e	n/a
101.3375	0.195	202675	keystroke_s	s	n/a
102.1475	0.045	204295	keystroke_Key.backspace	Key.backspace	n/a
102.2825	0.12	204565	keystroke_Key.backspace	Key.backspace	n/a
102.4925	0.105	204985	keystroke_Key.backspace	Key.backspace	n/a
103.257	0.135	206514	keystroke_Key.backspace	Key.backspace	n/a
104.4725	0.135	208945	keystroke_l	l	n/a
104.5175	0.12	209035	keystroke_e	e	n/a
104.728	0.18	209456	keystroke_s	s	n/a
105.493	0.18	210986	keystroke_Key.enter	Key.enter	n/a
105.6765	8.2475	211353	prompt	n/a	thus industrial configuration differently\n
106.543	0.045	213086	keystroke_t	t	n/a
106.588	0.06	213176	keystroke_h	h	n/a
106.768	0.105	213536	keystroke_u	u	n/a
106.858	0.1495	213716	keystroke_s	s	n/a
107.0525	0.105	214105	keystroke_Key.space	Key.space	n/a
107.2475	0.165	214495	keystroke_i	i	n/a
107.3075	0.165	214615	keystroke_n	n	n/a
107.5475	0.165	215095	keystroke_d	d	n/a
107.6985	0.089	215397	keystroke_u	u	n/a
107.7725	0.12	215545	keystroke_s	s	n/a
108.0275	0.06	216055	keystroke_t	t	n/a
108.1625	0.105	216325	keystroke_r	r	n/a
108.2825	0.15	216565	keystroke_i	i	n/a
108.4775	0.15	216955	keystroke_a	a	n/a
108.6425	0.21	217285	keystroke_l	l	n/a
109.1225	0.135	218245	keystroke_Key.space	Key.space	n/a
109.4675	0.03	218935	keystroke_c	c	n/a
109.4825	0.165	218965	keystroke_o	o	n/a
109.5275	0.15	219055	keystroke_n	n	n/a
109.6625	0.165	219325	keystroke_f	f	n/a
109.8425	0.15	219685	keystroke_i	i	n/a
110.0525	0.09	220105	keystroke_g	g	n/a
110.1875	0.12	220375	keystroke_u	u	n/a
110.5175	0.105	221035	keystroke_r	r	n/a
110.6825	0.135	221365	keystroke_a	a	n/a
110.908	0.12	221816	keystroke_t	t	n/a
110.998	0.15	221996	keystroke_i	i	n/a
111.118	0.18	222236	keystroke_o	o	n/a
111.193	0.18	222386	keystroke_n	n	n/a
111.328	0.135	222656	keystroke_Key.space	Key.space	n/a
111.508	0.1645	223016	keystroke_d	d	n/a
111.6425	0.15	223285	keystroke_i	i	n/a
111.7475	0.075	223495	keystroke_f	f	n/a
111.9275	0.09	223855	keystroke_f	f	n/a
112.1225	0.105	224245	keystroke_e	e	n/a
112.1825	0.135	224365	keystroke_r	r	n/a
112.3625	0.135	224725	keystroke_e	e	n/a
112.5125	0.135	225025	keystroke_n	n	n/a
112.6325	0.105	225265	keystroke_t	t	n/a
113.0375	0.15	226075	keystroke_l	l	n/a
113.352	0.12	226704	keystroke_y	y	n/a
113.7425	0.18	227485	keystroke_Key.enter	Key.enter	n/a
113.9275	9.5065	227855	prompt	n/a	considerations belly qualification facts\n
114.9875	0.165	229975	keystroke_c	c	n/a
115.1675	0.165	230335	keystroke_o	o	n/a
115.2125	0.135	230425	keystroke_n	n	n/a
115.3625	0.135	230725	keystroke_s	s	n/a
115.5125	0.1345	231025	keystroke_i	i	n/a
115.617	0.105	231234	keystroke_d	d	n/a
115.812	0.18	231624	keystroke_e	e	n/a
115.917	0.166	231834	keystroke_r	r	n/a
116.247	0.135	232494	keystroke_a	a	n/a
116.472	0.105	232944	keystroke_t	t	n/a
116.563	0.1645	233126	keystroke_i	i	n/a
116.667	0.1805	233334	keystroke_o	o	n/a
116.7725	0.165	233545	keystroke_n	n	n/a
116.9525	0.15	233905	keystroke_s	s	n/a
117.2075	0.135	234415	keystroke_Key.space	Key.space	n/a
117.4625	0.12	234925	keystroke_b	b	n/a
117.6275	0.15	235255	keystroke_e	e	n/a
118.0925	0.075	236185	keystroke_l	l	n/a
118.2425	0.1645	236485	keystroke_l	l	n/a
118.527	0.165	237054	keystroke_y	y	n/a
118.632	0.075	237264	keystroke_Key.space	Key.space	n/a
118.798	0.12	237596	keystroke_q	q	n/a
118.888	0.12	237776	keystroke_u	u	n/a
119.023	0.1495	238046	keystroke_a	a	n/a
119.3975	0.135	238795	keystroke_l	l	n/a
119.6825	0.1355	239365	keystroke_i	i	n/a
119.863	0.1045	239726	keystroke_f	f	n/a
119.9525	0.135	239905	keystroke_i	i	n/a
120.1625	0.15	240325	keystroke_c	c	n/a
120.3275	0.15	240655	keystroke_a	a	n/a
121.092	0.135	242184	keystroke_t	t	n/a
121.212	0.196	242424	keystroke_i	i	n/a
121.332	0.21	242664	keystroke_o	o	n/a
121.438	0.164	242876	keystroke_n	n	n/a
121.813	0.119	243626	keystroke_Key.space	Key.space	n/a
121.933	0.119	243866	keystroke_f	f	n/a
122.067	0.15	244134	keystroke_a	a	n/a
122.338	0.089	244676	keystroke_c	c	n/a
122.607	0.105	245214	keystroke_t	t	n/a
122.832	0.15	245664	keystroke_s	s	n/a
123.282	0.1505	246564	keystroke_Key.enter	Key.enter	n/a
123.4375	7.3465	246875	prompt	n/a	founded tribute build mold\n
124.1525	0.135	248305	keystroke_f	f	n/a
124.3025	0.165	248605	keystroke_o	o	n/a
124.3775	0.105	248755	keystroke_u	u	n/a
124.5875	0.105	249175	keystroke_n	n	n/a
124.6775	0.105	249355	keystroke_d	d	n/a
124.8725	0.105	249745	keystroke_e	e	n/a
125.0525	0.15	250105	keystroke_d	d	n/a
125.3675	0.15	250735	keystroke_Key.space	Key.space	n/a
125.5625	0.09	251125	keystroke_t	t	n/a
125.7425	0.135	251485	keystroke_r	r	n/a
125.8625	0.1055	251725	keystroke_i	i	n/a
126.058	0.09	252116	keystroke_b	b	n/a
126.268	0.135	252536	keystroke_u	u	n/a
126.373	0.075	252746	keystroke_t	t	n/a
126.538	0.12	253076	keystroke_e	e	n/a
126.928	0.105	253856	keystroke_Key.space	Key.space	n/a
127.108	0.09	254216	keystroke_b	b	n/a
127.318	0.15	254636	keystroke_u	u	n/a
127.408	0.12	254816	keystroke_i	i	n/a
127.9175	0.105	255835	keystroke_l	l	n/a
127.9775	0.1655	255955	keystroke_d	d	n/a
128.3225	0.12	256645	keystroke_Key.space	Key.space	n/a
128.5325	0.09	257065	keystroke_m	m	n/a
128.7125	0.12	257425	keystroke_o	o	n/a
128.7875	0.165	257575	keystroke_d	d	n/a
129.6425	0.12	259285	keystroke_Key.backspace	Key.backspace	n/a
130.0175	0.15	260035	keystroke_l	l	n/a
130.1525	0.15	260305	keystroke_d	d	n/a
130.6025	0.18	261205	keystroke_Key.enter	Key.enter	n/a
130.787	9.372	261574	prompt	n/a	virginia spirit genres bids\n
131.8175	0.15	263635	keystroke_v	v	n/a
132.0875	0.15	264175	keystroke_i	i	n/a
132.1775	0.12	264355	keystroke_r	r	n/a
132.4775	0.135	264955	keystroke_g	g	n/a
132.7325	0.12	265465	keystroke_i	i	n/a
133.048	0.105	266096	keystroke_n	n	n/a
133.692	0.151	267384	keystroke_i	i	n/a
133.963	0.15	267926	keystroke_a	a	n/a
134.383	0.1645	268766	keystroke_Key.space	Key.space	n/a
134.698	0.149	269396	keystroke_s	s	n/a
135.402	0.121	270804	keystroke_p	p	n/a
135.792	0.1505	271584	keystroke_i	i	n/a
136.198	0.135	272396	keystroke_r	r	n/a
136.318	0.15	272636	keystroke_i	i	n/a
136.453	0.105	272906	keystroke_t	t	n/a
137.053	0.1495	274106	keystroke_Key.space	Key.space	n/a
137.3225	0.075	274645	keystroke_g	g	n/a
137.4725	0.1505	274945	keystroke_e	e	n/a
137.6075	0.1205	275215	keystroke_n	n	n/a
137.7725	0.165	275545	keystroke_r	r	n/a
137.8775	0.165	275755	keystroke_e	e	n/a
138.2975	0.1355	276595	keystroke_s	s	n/a
138.8225	0.135	277645	keystroke_Key.space	Key.space	n/a
139.1375	0.105	278275	keystroke_b	b	n/a
139.3175	0.15	278635	keystroke_i	i	n/a
139.3775	0.135	278755	keystroke_d	d	n/a
139.5725	0.15	279145	keystroke_s	s	n/a
139.9925	0.165	279985	keystroke_Key.enter	Key.enter	n/a
140.162	10.002	280324	prompt	n/a	winter graduation stay generations\n
141.0275	0.15	282055	keystroke_w	w	n/a
141.2075	0.135	282415	keystroke_i	i	n/a
141.2825	0.165	282565	keystroke_n	n	n/a
141.4025	0.1055	282805	keystroke_t	t	n/a
141.553	0.165	283106	keystroke_e	e	n/a
141.643	0.15	283286	keystroke_r	r	n/a
141.928	0.1645	283856	keystroke_Key.space	Key.space	n/a
142.3325	0.075	284665	keystroke_g	g	n/a
142.5275	0.09	285055	keystroke_r	r	n/a
142.6775	0.135	285355	keystroke_a	a	n/a
142.903	0.134	285806	keystroke_d	d	n/a
143.083	0.119	286166	keystroke_u	u	n/a
143.5175	0.09	287035	keystroke_a	a	n/a
143.7725	0.135	287545	keystroke_t	t	n/a
143.8625	0.15	287725	keystroke_i	i	n/a
143.9525	0.18	287905	keystroke_o	o	n/a
144.0275	0.165	288055	keystroke_n	n	n/a
146.3245	0.208	292649	keystroke_Key.space	Key.space	n/a
146.5175	0.03	293035	keystroke_s	s	n/a
146.5625	0.015	293125	keystroke_t	t	n/a
146.6375	0.15	293275	keystroke_a	a	n/a
146.7275	0.18	293455	keystroke_y	y	n/a
146.8925	0.21	293785	keystroke_Key.space	Key.space	n/a
147.4475	0.12	294895	keystroke_g	g	n/a
148.0925	0.15	296185	keystroke_e	e	n/a
148.512	0.135	297024	keystroke_n	n	n/a
148.662	0.121	297324	keystroke_e	e	n/a
148.858	0.135	297716	keystroke_r	r	n/a
149.248	0.03	298496	keystroke_a	a	n/a
149.263	0.105	298526	keystroke_t	t	n/a
149.353	0.135	298706	keystroke_i	i	n/a
149.458	0.18	298916	keystroke_o	o	n/a
149.503	0.1795	299006	keystroke_n	n	n/a
149.638	0.1345	299276	keystroke_s	s	n/a
149.9975	0.165	299995	keystroke_Key.enter	Key.enter	n/a
150.1675	6.2665	300335	prompt	n/a	finally cruises checked if\n
150.8675	0.1205	301735	keystroke_f	f	n/a
150.973	0.09	301946	keystroke_i	i	n/a
151.108	0.1195	302216	keystroke_n	n	n/a
151.2275	0.165	302455	keystroke_a	a	n/a
151.3475	0.105	302695	keystroke_l	l	n/a
151.5275	0.15	303055	keystroke_l	l	n/a
151.8125	0.165	303625	keystroke_y	y	n/a
151.9625	0.12	303925	keystroke_Key.space	Key.space	n/a
152.263	0.105	304526	keystroke_c	c	n/a
152.5175	0.135	305035	keystroke_r	r	n/a
152.6375	0.135	305275	keystroke_u	u	n/a
152.7275	0.165	305455	keystroke_i	i	n/a
152.9825	0.225	305965	keystroke_s	s	n/a
153.0875	0.165	306175	keystroke_e	e	n/a
153.7625	0.15	307525	keystroke_s	s	n/a
154.3475	0.15	308695	keystroke_Key.space	Key.space	n/a
154.5575	0.12	309115	keystroke_c	c	n/a
154.6775	0.12	309355	keystroke_h	h	n/a
154.8125	0.12	309625	keystroke_e	e	n/a
155.0225	0.15	310045	keystroke_c	c	n/a
155.1575	0.15	310315	keystroke_k	k	n/a
155.3675	0.12	310735	keystroke_e	e	n/a
155.5625	0.15	311125	keystroke_d	d	n/a
155.7425	0.135	311485	keystroke_Key.space	Key.space	n/a
155.9375	0.15	311875	keystroke_i	i	n/a
156.0275	0.135	312055	keystroke_f	f	n/a
156.2675	0.165	312535	keystroke_Key.enter	Key.enter	n/a
156.437	7.992	312874	prompt	n/a	rise riders arising participate\n
157.5575	0.135	315115	keystroke_r	r	n/a
157.7375	0.1345	315475	keystroke_i	i	n/a
157.857	0.15	315714	keystroke_s	s	n/a
157.9325	0.1645	315865	keystroke_e	e	n/a
158.112	0.135	316224	keystroke_Key.space	Key.space	n/a
158.472	0.135	316944	keystroke_r	r	n/a
158.622	0.12	317244	keystroke_i	i	n/a
158.743	0.1195	317486	keystroke_d	d	n/a
158.968	0.135	317936	keystroke_e	e	n/a
159.043	0.135	318086	keystroke_r	r	n/a
159.2375	0.15	318475	keystroke_s	s	n/a
159.4625	0.165	318925	keystroke_Key.space	Key.space	n/a
159.7325	0.12	319465	keystroke_a	a	n/a
159.8975	0.105	319795	keystroke_r	r	n/a
160.1675	0.135	320335	keystroke_i	i	n/a
160.3175	0.15	320635	keystroke_s	s	n/a
160.4225	0.165	320845	keystroke_i	i	n/a
160.5425	0.165	321085	keystroke_n	n	n/a
160.6775	0.105	321355	keystroke_g	g	n/a
160.7975	0.135	321595	keystroke_Key.space	Key.space	n/a
161.0825	0.15	322165	keystroke_p	p	n/a
161.1575	0.165	322315	keystroke_a	a	n/a
161.2625	0.12	322525	keystroke_r	r	n/a
161.4875	0.09	322975	keystroke_t	t	n/a
161.6225	0.1205	323245	keystroke_i	i	n/a
161.773	0.15	323546	keystroke_c	c	n/a
161.938	0.1345	323876	keystroke_i	i	n/a
162.3125	0.15	324625	keystroke_p	p	n/a
162.4025	0.195	324805	keystroke_a	a	n/a
162.5375	0.135	325075	keystroke_t	t	n/a
162.6875	0.135	325375	keystroke_e	e	n/a
162.9125	0.1345	325825	keystroke_d	d	n/a
163.917	0.135	327834	keystroke_Key.backspace	Key.backspace	n/a
164.277	0.1505	328554	keystroke_Key.enter	Key.enter	n/a
164.432	7.107	328864	prompt	n/a	tracker counters ware despite\n
165.3425	0.09	330685	keystroke_t	t	n/a
165.5375	0.075	331075	keystroke_r	r	n/a
165.6725	0.18	331345	keystroke_a	a	n/a
165.7775	0.165	331555	keystroke_c	c	n/a
165.9575	0.15	331915	keystroke_k	k	n/a
166.182	0.1355	332364	keystroke_e	e	n/a
166.2575	0.15	332515	keystroke_r	r	n/a
166.5875	0.1495	333175	keystroke_Key.space	Key.space	n/a
166.8875	0.1645	333775	keystroke_c	c	n/a
167.0075	0.165	334015	keystroke_o	o	n/a
167.082	0.1055	334164	keystroke_u	u	n/a
167.2925	0.1205	334585	keystroke_n	n	n/a
167.3675	0.0905	334735	keystroke_t	t	n/a
167.518	0.15	335036	keystroke_e	e	n/a
167.593	0.165	335186	keystroke_r	r	n/a
167.833	0.18	335666	keystroke_s	s	n/a
168.058	0.15	336116	keystroke_Key.space	Key.space	n/a
168.298	0.06	336596	keystroke_w	w	n/a
168.628	0.134	337256	keystroke_a	a	n/a
168.777	0.1655	337554	keystroke_r	r	n/a
168.868	0.1345	337736	keystroke_e	e	n/a
169.153	0.134	338306	keystroke_Key.space	Key.space	n/a
169.362	0.105	338724	keystroke_d	d	n/a
169.542	0.105	339084	keystroke_e	e	n/a
169.707	0.135	339414	keystroke_s	s	n/a
170.142	0.1205	340284	keystroke_p	p	n/a
170.4725	0.15	340945	keystroke_i	i	n/a
170.6525	0.1055	341305	keystroke_t	t	n/a
170.817	0.1355	341634	keystroke_e	e	n/a
171.3575	0.18	342715	keystroke_Key.enter	Key.enter	n/a
171.5485	11.526	343097	prompt	n/a	cams playing grab accommodation\n
172.9025	0.1655	345805	keystroke_c	c	n/a
173.068	0.15	346136	keystroke_a	a	n/a
173.203	0.15	346406	keystroke_m	m	n/a
173.8175	0.135	347635	keystroke_s	s	n/a
174.1175	0.1355	348235	keystroke_Key.space	Key.space	n/a
174.373	0.12	348746	keystroke_p	p	n/a
174.598	0.149	349196	keystroke_l	l	n/a
174.792	0.1505	349584	keystroke_a	a	n/a
174.912	0.1205	349824	keystroke_y	y	n/a
175.0925	0.165	350185	keystroke_i	i	n/a
175.1675	0.21	350335	keystroke_n	n	n/a
175.3625	0.09	350725	keystroke_g	g	n/a
175.4075	0.15	350815	keystroke_Key.space	Key.space	n/a
175.768	0.075	351536	keystroke_g	g	n/a
175.948	0.105	351896	keystroke_r	r	n/a
176.158	0.15	352316	keystroke_a	a	n/a
176.533	0.105	353066	keystroke_b	b	n/a
177.058	0.15	354116	keystroke_Key.space	Key.space	n/a
177.283	0.12	354566	keystroke_a	a	n/a
178.078	0.135	356156	keystroke_c	c	n/a
178.3325	0.12	356665	keystroke_c	c	n/a
178.5125	0.12	357025	keystroke_o	o	n/a
178.768	0.105	357536	keystroke_m	m	n/a
180.117	0.09	360234	keystroke_Key.backspace	Key.backspace	n/a
180.312	0.105	360624	keystroke_Key.backspace	Key.backspace	n/a
180.6875	0.105	361375	keystroke_m	m	n/a
180.867	0.1205	361734	keystroke_m	m	n/a
181.4675	0.15	362935	keystroke_o	o	n/a
181.9775	0.18	363955	keystroke_d	d	n/a
182.1725	0.15	364345	keystroke_a	a	n/a
182.3675	0.12	364735	keystroke_t	t	n/a
182.4725	0.135	364945	keystroke_i	i	n/a
182.5475	0.18	365095	keystroke_o	o	n/a
182.6375	0.15	365275	keystroke_n	n	n/a
182.9225	0.15	365845	keystroke_Key.enter	Key.enter	n/a
183.0775	13.0165	366155	prompt	n/a	contrary sandwich pioneer destroy\n
183.777	0.15	367554	keystroke_c	c	n/a
183.943	0.164	367886	keystroke_o	o	n/a
184.018	0.195	368036	keystroke_n	n	n/a
184.167	0.06	368334	keystroke_t	t	n/a
184.332	0.105	368664	keystroke_r	r	n/a
184.573	0.165	369146	keystroke_a	a	n/a
185.3225	0.12	370645	keystroke_r	r	n/a
185.4575	0.135	370915	keystroke_y	y	n/a
185.7275	0.15	371455	keystroke_Key.space	Key.space	n/a
186.0125	0.105	372025	keystroke_s	s	n/a
186.1775	0.135	372355	keystroke_a	a	n/a
186.2975	0.12	372595	keystroke_n	n	n/a
186.4325	0.12	372865	keystroke_d	d	n/a
186.9875	0.135	373975	keystroke_w	w	n/a
187.1375	0.135	374275	keystroke_i	i	n/a
187.7375	0.1505	375475	keystroke_s	s	n/a
188.218	0.105	376436	keystroke_Key.backspace	Key.backspace	n/a
188.3375	0.135	376675	keystroke_c	c	n/a
188.4875	0.12	376975	keystroke_h	h	n/a
189.118	0.135	378236	keystroke_Key.space	Key.space	n/a
189.388	0.12	378776	keystroke_p	p	n/a
189.643	0.12	379286	keystroke_i	i	n/a
189.838	0.135	379676	keystroke_o	o	n/a
190.0925	0.12	380185	keystroke_n	n	n/a
190.6475	0.105	381295	keystroke_e	e	n/a
191.1575	0.105	382315	keystroke_e	e	n/a
191.3975	0.12	382795	keystroke_r	r	n/a
191.8625	0.1355	383725	keystroke_Key.space	Key.space	n/a
192.043	0.105	384086	keystroke_d	d	n/a
192.283	0.075	384566	keystroke_e	e	n/a
192.4625	0.18	384925	keystroke_s	s	n/a
192.7925	0.075	385585	keystroke_t	t	n/a
192.9125	0.165	385825	keystroke_o	o	n/a
193.0475	0.165	386095	keystroke_r	r	n/a
193.1975	0.1505	386395	keystroke_y	y	n/a
194.1875	0.075	388375	keystroke_Key.backspace	Key.backspace	n/a
194.5025	0.12	389005	keystroke_Key.backspace	Key.backspace	n/a
194.713	0.105	389426	keystroke_Key.backspace	Key.backspace	n/a
194.998	0.15	389996	keystroke_r	r	n/a
195.268	0.15	390536	keystroke_o	o	n/a
195.5525	0.12	391105	keystroke_y	y	n/a
196.032	0.06	392064	keystroke_Key.enter	Key.enter	n/a
196.099	10.7055	392198	prompt	n/a	better casual delivery copyrights\n
197.128	0.075	394256	keystroke_b	b	n/a
197.188	0.134	394376	keystroke_e	e	n/a
197.442	0.075	394884	keystroke_t	t	n/a
197.637	0.09	395274	keystroke_t	t	n/a
197.802	0.15	395604	keystroke_e	e	n/a
197.893	0.135	395786	keystroke_r	r	n/a
198.042	0.15	396084	keystroke_Key.space	Key.space	n/a
198.253	0.15	396506	keystroke_c	c	n/a
198.417	0.121	396834	keystroke_a	a	n/a
198.9275	0.1195	397855	keystroke_u	u	n/a
199.002	0.12	398004	keystroke_s	s	n/a
199.228	0.149	398456	keystroke_a	a	n/a
199.362	0.18	398724	keystroke_l	l	n/a
199.513	0.164	399026	keystroke_Key.space	Key.space	n/a
200.6075	0.105	401215	keystroke_Key.backspace	Key.backspace	n/a
200.8175	0.06	401635	keystroke_Key.backspace	Key.backspace	n/a
200.9825	0.075	401965	keystroke_Key.backspace	Key.backspace	n/a
201.1475	0.045	402295	keystroke_Key.backspace	Key.backspace	n/a
201.283	0.09	402566	keystroke_Key.backspace	Key.backspace	n/a
201.7925	0.1505	403585	keystroke_s	s	n/a
201.988	0.135	403976	keystroke_u	u	n/a
202.108	0.135	404216	keystroke_a	a	n/a
202.228	0.165	404456	keystroke_l	l	n/a
202.7975	0.165	405595	keystroke_Key.space	Key.space	n/a
202.9775	0.105	405955	keystroke_d	d	n/a
203.1575	0.15	406315	keystroke_e	e	n/a
203.488	0.105	406976	keystroke_l	l	n/a
203.698	0.12	407396	keystroke_i	i	n/a
203.788	0.09	407576	keystroke_v	v	n/a
204.043	0.06	408086	keystroke_e	e	n/a
204.058	0.165	408116	keystroke_r	r	n/a
204.208	0.18	408416	keystroke_y	y	n/a
204.343	0.135	408686	keystroke_Key.space	Key.space	n/a
204.703	0.1345	409406	keystroke_c	c	n/a
204.8225	0.075	409645	keystroke_o	o	n/a
205.003	0.135	410006	keystroke_p	p	n/a
205.213	0.135	410426	keystroke_y	y	n/a
205.692	0.121	411384	keystroke_r	r	n/a
205.798	0.15	411596	keystroke_i	i	n/a
205.962	0.046	411924	keystroke_g	g	n/a
206.068	0.135	412136	keystroke_h	h	n/a
206.157	0.091	412314	keystroke_t	t	n/a
206.352	0.136	412704	keystroke_s	s	n/a
206.638	0.1645	413276	keystroke_Key.enter	Key.enter	n/a
206.808	7.7065	413616	prompt	n/a	create bone estimated mention\n
207.733	0.059	415466	keystroke_c	c	n/a
207.942	0.136	415884	keystroke_r	r	n/a
208.018	0.119	416036	keystroke_e	e	n/a
208.182	0.136	416364	keystroke_a	a	n/a
208.303	0.075	416606	keystroke_t	t	n/a
208.363	0.1495	416726	keystroke_e	e	n/a
208.7225	0.1205	417445	keystroke_Key.space	Key.space	n/a
209.2475	0.105	418495	keystroke_b	b	n/a
209.4425	0.165	418885	keystroke_o	o	n/a
209.5175	0.15	419035	keystroke_n	n	n/a
209.6225	0.165	419245	keystroke_e	e	n/a
210.178	0.149	420356	keystroke_Key.space	Key.space	n/a
210.343	0.134	420686	keystroke_e	e	n/a
210.552	0.121	421104	keystroke_s	s	n/a
210.733	0.15	421466	keystroke_t	t	n/a
210.868	0.12	421736	keystroke_i	i	n/a
211.108	0.135	422216	keystroke_m	m	n/a
211.288	0.1645	422576	keystroke_a	a	n/a
211.5275	0.15	423055	keystroke_t	t	n/a
211.7375	0.135	423475	keystroke_e	e	n/a
211.9775	0.135	423955	keystroke_d	d	n/a
212.4425	0.12	424885	keystroke_Key.space	Key.space	n/a
212.713	0.135	425426	keystroke_m	m	n/a
212.758	0.12	425516	keystroke_e	e	n/a
212.9225	0.105	425845	keystroke_n	n	n/a
213.0425	0.135	426085	keystroke_t	t	n/a
213.1625	0.135	426325	keystroke_i	i	n/a
213.2675	0.21	426535	keystroke_o	o	n/a
213.3425	0.195	426685	keystroke_n	n	n/a
214.3475	0.1655	428695	keystroke_Key.enter	Key.enter	n/a
214.517	11.037	429034	prompt	n/a	hugo trends lovely emirates\n
215.5925	0.135	431185	keystroke_j	j	n/a
215.8475	0.12	431695	keystroke_u	u	n/a
216.0275	0.15	432055	keystroke_g	g	n/a
216.4175	0.0905	432835	keystroke_Key.backspace	Key.backspace	n/a
216.627	0.061	433254	keystroke_Key.backspace	Key.backspace	n/a
216.778	0.135	433556	keystroke_Key.backspace	Key.backspace	n/a
217.078	0.06	434156	keystroke_h	h	n/a
217.573	0.135	435146	keystroke_u	u	n/a
217.9325	0.12	435865	keystroke_g	g	n/a
218.0675	0.15	436135	keystroke_o	o	n/a
218.5625	0.1495	437125	keystroke_Key.space	Key.space	n/a
218.922	0.09	437844	keystroke_t	t	n/a
219.132	0.106	438264	keystroke_r	r	n/a
219.268	0.15	438536	keystroke_e	e	n/a
219.508	0.135	439016	keystroke_n	n	n/a
219.658	0.135	439316	keystroke_d	d	n/a
219.913	0.135	439826	keystroke_s	s	n/a
220.932	0.1055	441864	keystroke_Key.space	Key.space	n/a
221.1125	0.1045	442225	keystroke_l	l	n/a
221.322	0.1355	442644	keystroke_o	o	n/a
221.3825	0.105	442765	keystroke_v	v	n/a
221.5475	0.1345	443095	keystroke_e	e	n/a
221.683	0.149	443366	keystroke_l	l	n/a
222.027	0.1055	444054	keystroke_y	y	n/a
222.342	0.1355	444684	keystroke_Key.space	Key.space	n/a
222.5975	0.135	445195	keystroke_e	e	n/a
223.137	0.12	446274	keystroke_m	m	n/a
223.4225	0.1355	446845	keystroke_i	i	n/a
223.753	0.105	447506	keystroke_r	r	n/a
223.993	0.21	447986	keystroke_a	a	n/a
224.098	0.12	448196	keystroke_t	t	n/a
224.248	0.12	448496	keystroke_e	e	n/a
224.518	0.12	449036	keystroke_s	s	n/a
225.357	0.195	450714	keystroke_Key.enter	Key.enter	n/a
225.5575	8.2915	451115	prompt	n/a	loss chicken trained browsers\n
226.783	0.135	453566	keystroke_l	l	n/a
227.083	0.15	454166	keystroke_o	o	n/a
227.263	0.12	454526	keystroke_s	s	n/a
227.488	0.135	454976	keystroke_s	s	n/a
227.773	0.135	455546	keystroke_Key.space	Key.space	n/a
227.968	0.15	455936	keystroke_c	c	n/a
228.133	0.135	456266	keystroke_h	h	n/a
228.253	0.15	456506	keystroke_i	i	n/a
228.388	0.1645	456776	keystroke_c	c	n/a
228.508	0.1495	457016	keystroke_k	k	n/a
228.898	0.135	457796	keystroke_e	e	n/a
229.093	0.135	458186	keystroke_n	n	n/a
229.438	0.135	458876	keystroke_Key.space	Key.space	n/a
229.648	0.075	459296	keystroke_t	t	n/a
229.828	0.09	459656	keystroke_r	r	n/a
229.978	0.1645	459956	keystroke_a	a	n/a
230.098	0.1645	460196	keystroke_i	i	n/a
230.2025	0.15	460405	keystroke_n	n	n/a
230.6225	0.1055	461245	keystroke_e	e	n/a
230.818	0.18	461636	keystroke_d	d	n/a
231.297	0.15	462594	keystroke_Key.space	Key.space	n/a
231.733	0.104	463466	keystroke_b	b	n/a
231.912	0.106	463824	keystroke_r	r	n/a
232.048	0.165	464096	keystroke_o	o	n/a
232.198	0.135	464396	keystroke_w	w	n/a
232.618	0.1495	465236	keystroke_s	s	n/a
232.8725	0.1645	465745	keystroke_e	e	n/a
232.963	0.15	465926	keystroke_r	r	n/a
233.188	0.164	466376	keystroke_s	s	n/a
233.653	0.195	467306	keystroke_Key.enter	Key.enter	n/a
233.852	9.057	467704	prompt	n/a	meters fridge factors castle\n
234.703	0.1495	469406	keystroke_m	m	n/a
234.7925	0.15	469585	keystroke_e	e	n/a
235.0775	0.09	470155	keystroke_t	t	n/a
235.2275	0.15	470455	keystroke_e	e	n/a
235.3175	0.135	470635	keystroke_r	r	n/a
235.5725	0.135	471145	keystroke_s	s	n/a
235.9625	0.15	471925	keystroke_Key.space	Key.space	n/a
236.2025	0.1195	472405	keystroke_f	f	n/a
236.623	0.12	473246	keystroke_r	r	n/a
236.728	0.135	473456	keystroke_i	i	n/a
236.9825	0.15	473965	keystroke_d	d	n/a
237.5075	0.075	475015	keystroke_g	g	n/a
237.6875	0.105	475375	keystroke_e	e	n/a
237.9875	0.135	475975	keystroke_Key.space	Key.space	n/a
238.1375	0.12	476275	keystroke_f	f	n/a
238.3025	0.1805	476605	keystroke_a	a	n/a
238.393	0.1645	476786	keystroke_c	c	n/a
238.737	0.061	477474	keystroke_t	t	n/a
238.858	0.164	477716	keystroke_o	o	n/a
238.947	0.105	477894	keystroke_r	r	n/a
239.187	0.15	478374	keystroke_s	s	n/a
240.2975	0.135	480595	keystroke_Key.space	Key.space	n/a
240.5825	0.165	481165	keystroke_c	c	n/a
240.7925	0.135	481585	keystroke_a	a	n/a
240.9425	0.21	481885	keystroke_s	s	n/a
241.1375	0.06	482275	keystroke_t	t	n/a
241.3025	0.12	482605	keystroke_e	e	n/a
241.3925	0.18	482785	keystroke_l	l	n/a
241.9925	0.09	483985	keystroke_Key.backspace	Key.backspace	n/a
242.1575	0.105	484315	keystroke_Key.backspace	Key.backspace	n/a
242.4125	0.15	484825	keystroke_l	l	n/a
242.4875	0.15	484975	keystroke_e	e	n/a
242.7575	0.1505	485515	keystroke_Key.enter	Key.enter	n/a
242.9125	10.902	485825	prompt	n/a	allowance magnetic instructor bars\n
243.9125	0.15	487825	keystroke_a	a	n/a
244.1075	0.105	488215	keystroke_l	l	n/a
244.2875	0.075	488575	keystroke_l	l	n/a
244.4675	0.135	488935	keystroke_o	o	n/a
244.5875	0.135	489175	keystroke_w	w	n/a
244.6925	0.15	489385	keystroke_n	n	n/a
245.4125	0.12	490825	keystroke_Key.backspace	Key.backspace	n/a
245.5625	0.15	491125	keystroke_a	a	n/a
245.6675	0.12	491335	keystroke_n	n	n/a
245.9525	0.1505	491905	keystroke_c	c	n/a
246.118	0.15	492236	keystroke_e	e	n/a
246.5075	0.135	493015	keystroke_Key.space	Key.space	n/a
246.7925	0.1505	493585	keystroke_m	m	n/a
246.8675	0.1355	493735	keystroke_a	a	n/a
247.048	0.09	494096	keystroke_g	g	n/a
247.708	0.105	495416	keystroke_n	n	n/a
247.828	0.135	495656	keystroke_e	e	n/a
248.143	0.09	496286	keystroke_t	t	n/a
248.263	0.135	496526	keystroke_i	i	n/a
248.383	0.15	496766	keystroke_c	c	n/a
248.908	0.135	497816	keystroke_Key.space	Key.space	n/a
249.208	0.165	498416	keystroke_i	i	n/a
249.298	0.18	498596	keystroke_n	n	n/a
249.448	0.135	498896	keystroke_s	s	n/a
249.673	0.075	499346	keystroke_t	t	n/a
249.838	0.09	499676	keystroke_r	r	n/a
249.973	0.12	499946	keystroke_u	u	n/a
250.138	0.09	500276	keystroke_c	c	n/a
250.423	0.105	500846	keystroke_t	t	n/a
250.483	0.165	500966	keystroke_i	i	n/a
250.588	0.18	501176	keystroke_o	o	n/a
250.663	0.15	501326	keystroke_n	n	n/a
251.113	0.09	502226	keystroke_Key.backspace	Key.backspace	n/a
251.308	0.075	502616	keystroke_Key.backspace	Key.backspace	n/a
251.443	0.12	502886	keystroke_Key.backspace	Key.backspace	n/a
251.833	0.15	503666	keystroke_o	o	n/a
251.953	0.15	503906	keystroke_r	r	n/a
252.5675	0.135	505135	keystroke_Key.space	Key.space	n/a
252.973	0.09	505946	keystroke_b	b	n/a
253.108	0.15	506216	keystroke_a	a	n/a
253.228	0.12	506456	keystroke_r	r	n/a
253.408	0.1795	506816	keystroke_s	s	n/a
253.6325	0.1805	507265	keystroke_Key.enter	Key.enter	n/a
253.819	9.355	507638	prompt	n/a	within bomb cutting either\n
254.6525	0.135	509305	keystroke_w	w	n/a
254.8025	0.09	509605	keystroke_i	i	n/a
254.9075	0.075	509815	keystroke_t	t	n/a
254.9675	0.12	509935	keystroke_h	h	n/a
255.0725	0.1805	510145	keystroke_i	i	n/a
255.1775	0.1955	510355	keystroke_n	n	n/a
255.418	0.135	510836	keystroke_Key.space	Key.space	n/a
256.2725	0.09	512545	keystroke_b	b	n/a
256.5125	0.135	513025	keystroke_o	o	n/a
256.7525	0.135	513505	keystroke_m	m	n/a
257.008	0.15	514016	keystroke_b	b	n/a
257.7275	0.135	515455	keystroke_Key.space	Key.space	n/a
257.9375	0.18	515875	keystroke_c	c	n/a
258.0725	0.105	516145	keystroke_u	u	n/a
258.2375	0.105	516475	keystroke_t	t	n/a
258.4625	0.09	516925	keystroke_t	t	n/a
258.5825	0.1355	517165	keystroke_i	i	n/a
258.6575	0.1205	517315	keystroke_n	n	n/a
258.793	0.105	517586	keystroke_g	g	n/a
258.883	0.135	517766	keystroke_Key.space	Key.space	n/a
259.093	0.12	518186	keystroke_e	e	n/a
259.213	0.1195	518426	keystroke_i	i	n/a
259.3335	0.074	518667	keystroke_g	g	n/a
259.4375	0.12	518875	keystroke_h	h	n/a
259.5275	0.09	519055	keystroke_t	t	n/a
259.6775	0.135	519355	keystroke_e	e	n/a
259.7685	0.134	519537	keystroke_r	r	n/a
260.6975	0.105	521395	keystroke_Key.backspace	Key.backspace	n/a
260.9075	0.075	521815	keystroke_Key.backspace	Key.backspace	n/a
261.1025	0.015	522205	keystroke_Key.backspace	Key.backspace	n/a
261.2075	0.0905	522415	keystroke_Key.backspace	Key.backspace	n/a
261.3875	0.09	522775	keystroke_Key.backspace	Key.backspace	n/a
261.6875	0.09	523375	keystroke_t	t	n/a
261.793	0.135	523586	keystroke_h	h	n/a
261.883	0.1345	523766	keystroke_e	e	n/a
261.973	0.12	523946	keystroke_r	r	n/a
262.993	0.18	525986	keystroke_Key.enter	Key.enter	n/a
263.177	9.1025	526354	prompt	n/a	kills advantages nickel totals\n
264.133	0.105	528266	keystroke_k	k	n/a
264.313	0.105	528626	keystroke_i	i	n/a
264.538	0.06	529076	keystroke_l	l	n/a
264.688	0.1195	529376	keystroke_l	l	n/a
264.838	0.15	529676	keystroke_s	s	n/a
265.273	0.12	530546	keystroke_Key.space	Key.space	n/a
265.438	0.15	530876	keystroke_a	a	n/a
265.573	0.165	531146	keystroke_d	d	n/a
265.873	0.12	531746	keystroke_v	v	n/a
266.458	0.15	532916	keystroke_a	a	n/a
266.923	0.135	533846	keystroke_n	n	n/a
267.118	0.06	534236	keystroke_t	t	n/a
267.298	0.15	534596	keystroke_a	a	n/a
267.463	0.09	534926	keystroke_g	g	n/a
267.628	0.105	535256	keystroke_e	e	n/a
267.883	0.12	535766	keystroke_s	s	n/a
268.258	0.135	536516	keystroke_Key.space	Key.space	n/a
268.513	0.105	537026	keystroke_n	n	n/a
268.678	0.12	537356	keystroke_i	i	n/a
268.873	0.0595	537746	keystroke_c	c	n/a
268.9775	0.135	537955	keystroke_k	k	n/a
269.893	0.135	539786	keystroke_e	e	n/a
270.088	0.165	540176	keystroke_l	l	n/a
270.283	0.165	540566	keystroke_Key.space	Key.space	n/a
270.763	0.06	541526	keystroke_t	t	n/a
270.778	0.15	541556	keystroke_o	o	n/a
270.958	0.0745	541916	keystroke_t	t	n/a
271.2275	0.12	542455	keystroke_a	a	n/a
271.6175	0.135	543235	keystroke_l	l	n/a
271.7375	0.1355	543475	keystroke_s	s	n/a
272.113	0.1645	544226	keystroke_Key.enter	Key.enter	n/a
272.2835	12.0705	544567	prompt	n/a	bryant strip president processor\n
273.283	0.1195	546566	keystroke_b	b	n/a
273.463	0.09	546926	keystroke_r	r	n/a
274.1675	0.121	548335	keystroke_y	y	n/a
274.332	0.1355	548664	keystroke_a	a	n/a
274.4525	0.135	548905	keystroke_n	n	n/a
274.662	0.1055	549324	keystroke_t	t	n/a
275.158	0.1795	550316	keystroke_Key.space	Key.space	n/a
275.6525	0.135	551305	keystroke_s	s	n/a
275.8925	0.075	551785	keystroke_t	t	n/a
276.0575	0.135	552115	keystroke_r	r	n/a
276.1775	0.135	552355	keystroke_i	i	n/a
276.2975	0.21	552595	keystroke_p	p	n/a
277.2275	0.165	554455	keystroke_Key.space	Key.space	n/a
277.8425	0.15	555685	keystroke_p	p	n/a
277.9325	0.12	555865	keystroke_r	r	n/a
277.9775	0.135	555955	keystroke_e	e	n/a
278.2925	0.195	556585	keystroke_s	s	n/a
278.6675	0.15	557335	keystroke_i	i	n/a
278.8925	0.12	557785	keystroke_d	d	n/a
279.3125	0.135	558625	keystroke_e	e	n/a
279.4325	0.135	558865	keystroke_n	n	n/a
279.5825	0.09	559165	keystroke_t	t	n/a
279.9875	0.15	559975	keystroke_Key.space	Key.space	n/a
280.4075	0.135	560815	keystroke_p	p	n/a
280.5275	0.105	561055	keystroke_r	r	n/a
280.6625	0.165	561325	keystroke_o	o	n/a
280.7975	0.1805	561595	keystroke_c	c	n/a
280.948	0.15	561896	keystroke_e	e	n/a
281.218	0.12	562436	keystroke_s	s	n/a
281.818	0.1345	563636	keystroke_Key.backspace	Key.backspace	n/a
281.9975	0.135	563995	keystroke_c	c	n/a
283.1225	0.12	566245	keystroke_Key.backspace	Key.backspace	n/a
283.4975	0.105	566995	keystroke_s	s	n/a
283.6775	0.15	567355	keystroke_s	s	n/a
283.8125	0.15	567625	keystroke_o	o	n/a
283.9025	0.12	567805	keystroke_r	r	n/a
284.1875	0.165	568375	keystroke_Key.enter	Key.enter	n/a
284.3645	10.6395	568729	prompt	n/a	supplemental patterns bailey moments\n
285.268	0.15	570536	keystroke_s	s	n/a
285.433	0.12	570866	keystroke_u	u	n/a
285.658	0.105	571316	keystroke_p	p	n/a
285.853	0.12	571706	keystroke_p	p	n/a
286.0625	0.135	572125	keystroke_l	l	n/a
287.0975	0.135	574195	keystroke_e	e	n/a
287.353	0.135	574706	keystroke_m	m	n/a
287.503	0.12	575006	keystroke_e	e	n/a
287.593	0.12	575186	keystroke_n	n	n/a
287.773	0.135	575546	keystroke_t	t	n/a
288.133	0.15	576266	keystroke_Key.space	Key.space	n/a
288.673	0.15	577346	keystroke_p	p	n/a
288.823	0.134	577646	keystroke_a	a	n/a
289.168	0.045	578336	keystroke_t	t	n/a
289.348	0.075	578696	keystroke_t	t	n/a
289.513	0.135	579026	keystroke_e	e	n/a
289.603	0.105	579206	keystroke_r	r	n/a
289.708	0.165	579416	keystroke_n	n	n/a
289.858	0.135	579716	keystroke_s	s	n/a
290.308	0.135	580616	keystroke_Key.space	Key.space	n/a
290.728	0.104	581456	keystroke_b	b	n/a
290.818	0.135	581636	keystroke_a	a	n/a
290.983	0.135	581966	keystroke_i	i	n/a
291.688	0.165	583376	keystroke_l	l	n/a
292.0025	0.135	584005	keystroke_e	e	n/a
292.1385	0.134	584277	keystroke_y	y	n/a
292.3775	0.135	584755	keystroke_Key.space	Key.space	n/a
292.6775	0.105	585355	keystroke_m	m	n/a
292.948	0.135	585896	keystroke_o	o	n/a
293.248	0.09	586496	keystroke_m	m	n/a
293.3825	0.15	586765	keystroke_e	e	n/a
293.4875	0.15	586975	keystroke_n	n	n/a
293.6525	0.09	587305	keystroke_t	t	n/a
293.8625	0.15	587725	keystroke_s	s	n/a
294.8075	0.195	589615	keystroke_Key.enter	Key.enter	n/a
295.0075	12.372	590015	prompt	n/a	predicted handled tremendous recreational\n
295.993	0.12	591986	keystroke_p	p	n/a
296.038	0.165	592076	keystroke_r	r	n/a
296.128	0.135	592256	keystroke_e	e	n/a
296.3675	0.12	592735	keystroke_d	d	n/a
296.5025	0.1355	593005	keystroke_i	i	n/a
296.5625	0.1205	593125	keystroke_c	c	n/a
296.818	0.104	593636	keystroke_t	t	n/a
296.997	0.12	593994	keystroke_e	e	n/a
297.193	0.15	594386	keystroke_d	d	n/a
297.403	0.119	594806	keystroke_Key.space	Key.space	n/a
297.613	0.135	595226	keystroke_h	h	n/a
297.703	0.135	595406	keystroke_a	a	n/a
297.823	0.104	595646	keystroke_n	n	n/a
297.913	0.135	595826	keystroke_d	d	n/a
299.4425	0.15	598885	keystroke_l	l	n/a
299.548	0.12	599096	keystroke_e	e	n/a
299.9225	0.0155	599845	keystroke_d	d	n/a
299.9525	0.1055	599905	keystroke_Key.space	Key.space	n/a
300.223	0.03	600446	keystroke_t	t	n/a
300.343	0.12	600686	keystroke_r	r	n/a
300.433	0.15	600866	keystroke_e	e	n/a
300.748	0.135	601496	keystroke_m	m	n/a
300.838	0.12	601676	keystroke_e	e	n/a
300.943	0.12	601886	keystroke_n	n	n/a
301.303	0.15	602606	keystroke_d	d	n/a
301.468	0.195	602936	keystroke_o	o	n/a
301.543	0.165	603086	keystroke_u	u	n/a
302.7425	0.165	605485	keystroke_s	s	n/a
303.162	0.15	606324	keystroke_Key.space	Key.space	n/a
303.7925	0.09	607585	keystroke_r	r	n/a
303.8525	0.12	607705	keystroke_e	e	n/a
304.1375	0.12	608275	keystroke_c	c	n/a
304.4075	0.135	608815	keystroke_r	r	n/a
304.483	0.1495	608966	keystroke_e	e	n/a
304.693	0.255	609386	keystroke_a	a	n/a
304.8125	0.1505	609625	keystroke_t	t	n/a
305.428	0.195	610856	keystroke_i	i	n/a
305.548	0.2245	611096	keystroke_o	o	n/a
305.668	0.2095	611336	keystroke_n	n	n/a
306.2525	0.15	612505	keystroke_a	a	n/a
306.3875	0.1805	612775	keystroke_l	l	n/a
307.1675	0.21	614335	keystroke_Key.enter	Key.enter	n/a
307.3895	11.345	614779	prompt	n/a	edmonton paradise leslie bristol\n
308.488	0.1195	616976	keystroke_e	e	n/a
308.743	0.1945	617486	keystroke_d	d	n/a
309.8975	0.135	619795	keystroke_m	m	n/a
310.1825	0.165	620365	keystroke_o	o	n/a
310.2425	0.165	620485	keystroke_n	n	n/a
311.143	0.135	622286	keystroke_t	t	n/a
311.263	0.195	622526	keystroke_o	o	n/a
311.323	0.195	622646	keystroke_n	n	n/a
312.058	0.15	624116	keystroke_Key.space	Key.space	n/a
312.328	0.15	624656	keystroke_p	p	n/a
312.493	0.075	624986	keystroke_a	a	n/a
312.658	0.105	625316	keystroke_r	r	n/a
312.808	0.135	625616	keystroke_a	a	n/a
313.153	0.135	626306	keystroke_d	d	n/a
313.273	0.1345	626546	keystroke_i	i	n/a
313.4225	0.2105	626845	keystroke_s	s	n/a
313.513	0.1945	627026	keystroke_e	e	n/a
313.933	0.1495	627866	keystroke_Key.space	Key.space	n/a
314.188	0.15	628376	keystroke_l	l	n/a
314.2475	0.1205	628495	keystroke_e	e	n/a
314.458	0.15	628916	keystroke_s	s	n/a
314.683	0.105	629366	keystroke_l	l	n/a
314.863	0.1345	629726	keystroke_i	i	n/a
314.968	0.1345	629936	keystroke_e	e	n/a
316.0325	0.135	632065	keystroke_Key.space	Key.space	n/a
316.3025	0.09	632605	keystroke_b	b	n/a
316.828	0.045	633656	keystroke_r	r	n/a
316.903	0.15	633806	keystroke_i	i	n/a
316.993	0.1495	633986	keystroke_s	s	n/a
317.2775	0.09	634555	keystroke_t	t	n/a
317.3375	0.1355	634675	keystroke_o	o	n/a
317.548	0.1795	635096	keystroke_l	l	n/a
318.553	0.18	637106	keystroke_Key.enter	Key.enter	n/a
318.7385	9.3855	637477	prompt	n/a	slave icon trap ease\n
319.6025	0.135	639205	keystroke_s	s	n/a
319.7825	0.15	639565	keystroke_l	l	n/a
319.8725	0.135	639745	keystroke_a	a	n/a
320.0085	0.119	640017	keystroke_v	v	n/a
320.173	0.135	640346	keystroke_e	e	n/a
320.413	0.1495	640826	keystroke_Key.space	Key.space	n/a
320.637	0.165	641274	keystroke_i	i	n/a
320.7875	0.15	641575	keystroke_c	c	n/a
320.908	0.209	641816	keystroke_o	o	n/a
320.998	0.194	641996	keystroke_n	n	n/a
321.177	0.1805	642354	keystroke_Key.space	Key.space	n/a
321.448	0.045	642896	keystroke_t	t	n/a
321.568	0.09	643136	keystroke_r	r	n/a
321.748	0.15	643496	keystroke_a	a	n/a
322.588	0.165	645176	keystroke_p	p	n/a
323.0225	0.15	646045	keystroke_Key.space	Key.space	n/a
323.2025	0.1505	646405	keystroke_s	s	n/a
323.308	0.12	646616	keystroke_e	e	n/a
323.923	0.09	647846	keystroke_Key.backspace	Key.backspace	n/a
324.103	0.12	648206	keystroke_Key.backspace	Key.backspace	n/a
324.238	0.195	648476	keystroke_s	s	n/a
324.343	0.135	648686	keystroke_e	e	n/a
324.538	0.21	649076	keystroke_a	a	n/a
324.838	0.09	649676	keystroke_Key.backspace	Key.backspace	n/a
325.048	0.045	650096	keystroke_Key.backspace	Key.backspace	n/a
325.183	0.165	650366	keystroke_Key.backspace	Key.backspace	n/a
325.258	0.15	650516	keystroke_s	s	n/a
325.303	0.18	650606	keystroke_e	e	n/a
325.498	0.15	650996	keystroke_a	a	n/a
326.158	0.015	652316	keystroke_Key.backspace	Key.backspace	n/a
326.218	0.075	652436	keystroke_Key.backspace	Key.backspace	n/a
326.398	0.06	652796	keystroke_Key.backspace	Key.backspace	n/a
326.713	0.105	653426	keystroke_e	e	n/a
326.998	0.12	653996	keystroke_a	a	n/a
327.223	0.21	654446	keystroke_s	s	n/a
327.343	0.165	654686	keystroke_e	e	n/a
327.958	0.165	655916	keystroke_Key.enter	Key.enter	n/a
328.127	7.692	656254	prompt	n/a	pursuant visitor buddy in\n
329.2175	0.135	658435	keystroke_p	p	n/a
329.5475	0.135	659095	keystroke_u	u	n/a
329.6975	0.12	659395	keystroke_r	r	n/a
330.1175	0.165	660235	keystroke_s	s	n/a
330.3125	0.135	660625	keystroke_u	u	n/a
330.7325	0.15	661465	keystroke_a	a	n/a
330.9575	0.135	661915	keystroke_n	n	n/a
331.1525	0.12	662305	keystroke_t	t	n/a
331.3925	0.15	662785	keystroke_Key.space	Key.space	n/a
331.6775	0.105	663355	keystroke_v	v	n/a
331.7975	0.135	663595	keystroke_i	i	n/a
331.8875	0.15	663775	keystroke_s	s	n/a
332.0675	0.165	664135	keystroke_i	i	n/a
332.368	0.12	664736	keystroke_t	t	n/a
332.698	0.18	665396	keystroke_o	o	n/a
332.848	0.135	665696	keystroke_r	r	n/a
333.4775	0.15	666955	keystroke_Key.space	Key.space	n/a
333.882	0.121	667764	keystroke_b	b	n/a
334.152	0.136	668304	keystroke_u	u	n/a
334.378	0.1195	668756	keystroke_d	d	n/a
334.5725	0.165	669145	keystroke_d	d	n/a
334.7525	0.18	669505	keystroke_y	y	n/a
334.9175	0.15	669835	keystroke_Key.space	Key.space	n/a
335.143	0.18	670286	keystroke_i	i	n/a
335.218	0.18	670436	keystroke_n	n	n/a
335.653	0.165	671306	keystroke_Key.enter	Key.enter	n/a
335.8225	13.317	671645	prompt	n/a	fast increasing edmonton gradually\n
336.778	0.15	673556	keystroke_f	f	n/a
337.243	0.195	674486	keystroke_a	a	n/a
337.423	0.315	674846	keystroke_s	s	n/a
337.648	0.06	675296	keystroke_t	t	n/a
338.5475	0.18	677095	keystroke_Key.space	Key.space	n/a
338.8625	0.195	677725	keystroke_i	i	n/a
338.9825	0.15	677965	keystroke_n	n	n/a
339.163	0.12	678326	keystroke_c	c	n/a
339.4475	0.135	678895	keystroke_r	r	n/a
339.5225	0.135	679045	keystroke_e	e	n/a
339.6875	0.18	679375	keystroke_a	a	n/a
339.8525	0.165	679705	keystroke_s	s	n/a
340.0325	0.15	680065	keystroke_i	i	n/a
340.1375	0.15	680275	keystroke_n	n	n/a
340.2425	0.105	680485	keystroke_g	g	n/a
340.437	0.135	680874	keystroke_Key.space	Key.space	n/a
340.677	0.121	681354	keystroke_e	e	n/a
341.2475	0.136	682495	keystroke_d	d	n/a
341.7275	0.105	683455	keystroke_m	m	n/a
341.9825	0.195	683965	keystroke_o	o	n/a
342.0575	0.18	684115	keystroke_n	n	n/a
342.583	0.06	685166	keystroke_t	t	n/a
342.628	0.09	685256	keystroke_o	o	n/a
342.658	0.135	685316	keystroke_n	n	n/a
343.0325	0.15	686065	keystroke_Key.space	Key.space	n/a
343.1975	0.09	686395	keystroke_g	g	n/a
343.3475	0.15	686695	keystroke_u	u	n/a
346.215	0.013	692430	keystroke_Key.backspace	Key.backspace	n/a
346.243	0.0895	692486	keystroke_r	r	n/a
346.4375	0.135	692875	keystroke_a	a	n/a
347.098	0.135	694196	keystroke_d	d	n/a
347.248	0.104	694496	keystroke_u	u	n/a
347.353	0.135	694706	keystroke_a	a	n/a
347.563	0.09	695126	keystroke_l	l	n/a
347.743	0.165	695486	keystroke_l	l	n/a
348.058	0.12	696116	keystroke_y	y	n/a
348.9425	0.195	697885	keystroke_Key.enter	Key.enter	n/a
349.142	14.3375	698284	prompt	n/a	ease counts translation edge\n
350.113	0.12	700226	keystroke_e	e	n/a
350.338	0.135	700676	keystroke_a	a	n/a
350.443	0.195	700886	keystroke_s	s	n/a
350.533	0.15	701066	keystroke_e	e	n/a
350.863	0.12	701726	keystroke_Key.space	Key.space	n/a
351.028	0.15	702056	keystroke_c	c	n/a
351.103	0.18	702206	keystroke_o	o	n/a
351.193	0.105	702386	keystroke_u	u	n/a
351.313	0.015	702626	keystroke_j	j	n/a
351.388	0.135	702776	keystroke_n	n	n/a
351.463	0.075	702926	keystroke_t	t	n/a
351.658	0.135	703316	keystroke_s	s	n/a
351.793	0.1345	703586	keystroke_Key.space	Key.space	n/a
352.033	0.06	704066	keystroke_t	t	n/a
352.378	0.165	704756	keystroke_a	a	n/a
352.948	0.12	705896	keystroke_Key.backspace	Key.backspace	n/a
353.113	0.12	706226	keystroke_r	r	n/a
353.293	0.15	706586	keystroke_a	a	n/a
353.413	0.12	706826	keystroke_n	n	n/a
353.548	0.12	707096	keystroke_s	s	n/a
356.3375	0.075	712675	keystroke_u	u	n/a
358.273	0.15	716546	keystroke_n	n	n/a
358.408	0.09	716816	keystroke_t	t	n/a
358.6185	0.15	717237	keystroke_s	s	n/a
358.9185	0.15	717837	keystroke_Key.space	Key.space	n/a
359.2935	0.075	718587	keystroke_t	t	n/a
359.4585	0.075	718917	keystroke_r	r	n/a
359.6085	0.135	719217	keystroke_a	a	n/a
359.7285	0.12	719457	keystroke_n	n	n/a
359.8625	0.1205	719725	keystroke_s	s	n/a
360.7325	0.15	721465	keystroke_l	l	n/a
360.8525	0.15	721705	keystroke_a	a	n/a
361.1225	0.135	722245	keystroke_t	t	n/a
361.1985	0.119	722397	keystroke_i	i	n/a
361.2725	0.18	722545	keystroke_o	o	n/a
361.3625	0.165	722725	keystroke_n	n	n/a
361.6475	0.12	723295	keystroke_Key.space	Key.space	n/a
362.1425	0.09	724285	keystroke_e	e	n/a
362.3375	0.135	724675	keystroke_d	d	n/a
362.5625	0.09	725125	keystroke_g	g	n/a
362.7275	0.135	725455	keystroke_e	e	n/a
363.313	0.165	726626	keystroke_Key.enter	Key.enter	n/a
363.4835	12.5955	726967	prompt	n/a	serum investing warranties monitoring\n
364.363	0.135	728726	keystroke_s	s	n/a
364.558	0.12	729116	keystroke_e	e	n/a
364.813	0.12	729626	keystroke_r	r	n/a
364.948	0.1345	729896	keystroke_u	u	n/a
365.9375	0.18	731875	keystroke_m	m	n/a
366.493	0.135	732986	keystroke_Key.space	Key.space	n/a
366.7775	0.165	733555	keystroke_i	i	n/a
366.9575	0.1505	733915	keystroke_n	n	n/a
367.093	0.09	734186	keystroke_v	v	n/a
367.258	0.135	734516	keystroke_e	e	n/a
367.4675	0.195	734935	keystroke_s	s	n/a
367.5725	0.12	735145	keystroke_t	t	n/a
367.8125	0.15	735625	keystroke_i	i	n/a
367.8725	0.165	735745	keystroke_n	n	n/a
368.0075	0.105	736015	keystroke_g	g	n/a
368.2325	0.15	736465	keystroke_Key.space	Key.space	n/a
368.5475	0.12	737095	keystroke_w	w	n/a
368.7575	0.105	737515	keystroke_a	a	n/a
368.968	0.09	737936	keystroke_r	r	n/a
369.523	0.09	739046	keystroke_r	r	n/a
369.823	0.12	739646	keystroke_a	a	n/a
369.958	0.1045	739916	keystroke_n	n	n/a
370.768	0.09	741536	keystroke_t	t	n/a
370.873	0.135	741746	keystroke_i	i	n/a
370.978	0.075	741956	keystroke_e	e	n/a
371.158	0.15	742316	keystroke_s	s	n/a
371.563	0.1355	743126	keystroke_Key.space	Key.space	n/a
371.8025	0.121	743605	keystroke_m	m	n/a
372.0275	0.15	744055	keystroke_o	o	n/a
372.6285	0.104	745257	keystroke_n	n	n/a
372.913	0.105	745826	keystroke_i	i	n/a
373.168	0.1495	746336	keystroke_o	o	n/a
374.3075	0.105	748615	keystroke_Key.backspace	Key.backspace	n/a
374.4725	0.1205	748945	keystroke_t	t	n/a
374.623	0.165	749246	keystroke_o	o	n/a
374.803	0.135	749606	keystroke_r	r	n/a
374.998	0.15	749996	keystroke_i	i	n/a
375.073	0.18	750146	keystroke_n	n	n/a
375.223	0.12	750446	keystroke_g	g	n/a
375.913	0.1645	751826	keystroke_Key.enter	Key.enter	n/a
376.0825	13.332	752165	prompt	n/a	administration certificates goto continually\n
377.203	0.06	754406	keystroke_a	a	n/a
377.278	0.165	754556	keystroke_d	d	n/a
377.6085	0.12	755217	keystroke_m	m	n/a
377.8335	0.135	755667	keystroke_i	i	n/a
378.1185	0.09	756237	keystroke_n	n	n/a
378.3585	0.105	756717	keystroke_i	i	n/a
378.7035	0.15	757407	keystroke_s	s	n/a
378.9725	0.1055	757945	keystroke_t	t	n/a
379.243	0.135	758486	keystroke_a	a	n/a
380.1575	0.09	760315	keystroke_Key.backspace	Key.backspace	n/a
380.2485	0.1045	760497	keystroke_r	r	n/a
380.443	0.1495	760886	keystroke_a	a	n/a
380.7125	0.12	761425	keystroke_t	t	n/a
380.8175	0.18	761635	keystroke_i	i	n/a
380.9225	0.18	761845	keystroke_o	o	n/a
381.0125	0.18	762025	keystroke_n	n	n/a
381.3425	0.1655	762685	keystroke_Key.space	Key.space	n/a
381.598	0.105	763196	keystroke_c	c	n/a
381.8225	0.12	763645	keystroke_e	e	n/a
381.8825	0.12	763765	keystroke_r	r	n/a
382.3325	0.106	764665	keystroke_t	t	n/a
382.738	0.15	765476	keystroke_i	i	n/a
382.903	0.105	765806	keystroke_f	f	n/a
383.023	0.135	766046	keystroke_i	i	n/a
383.368	0.135	766736	keystroke_c	c	n/a
383.533	0.1805	767066	keystroke_a	a	n/a
383.6985	0.1195	767397	keystroke_t	t	n/a
383.833	0.12	767666	keystroke_e	e	n/a
384.193	0.015	768386	keystroke_s	s	n/a
384.298	0.15	768596	keystroke_Key.space	Key.space	n/a
384.538	0.0895	769076	keystroke_g	g	n/a
384.6425	0.09	769285	keystroke_o	o	n/a
384.7775	0.105	769555	keystroke_t	t	n/a
385.0025	0.1655	770005	keystroke_o	o	n/a
385.468	0.15	770936	keystroke_Key.space	Key.space	n/a
385.858	0.165	771716	keystroke_c	c	n/a
385.963	0.1655	771926	keystroke_o	o	n/a
386.038	0.1505	772076	keystroke_n	n	n/a
386.263	0.1355	772526	keystroke_t	t	n/a
386.3835	0.135	772767	keystroke_i	i	n/a
387.268	0.135	774536	keystroke_n	n	n/a
387.853	0.165	775706	keystroke_u	u	n/a
388.1225	0.1505	776245	keystroke_a	a	n/a
388.393	0.09	776786	keystroke_l	l	n/a
388.558	0.18	777116	keystroke_l	l	n/a
388.858	0.1495	777716	keystroke_y	y	n/a
389.2475	0.165	778495	keystroke_Key.enter	Key.enter	n/a
389.4175	27.822	778835	prompt	n/a	pharmaceuticals addressed warren probability\n
390.3435	0.1345	780687	keystroke_p	p	n/a
390.583	0.135	781166	keystroke_h	h	n/a
390.703	0.195	781406	keystroke_a	a	n/a
390.808	0.165	781616	keystroke_r	r	n/a
391.198	0.165	782396	keystroke_m	m	n/a
391.318	0.135	782636	keystroke_a	a	n/a
391.633	0.135	783266	keystroke_c	c	n/a
391.813	0.12	783626	keystroke_e	e	n/a
392.638	0.135	785276	keystroke_u	u	n/a
393.1785	0.09	786357	keystroke_t	t	n/a
393.3285	0.18	786657	keystroke_i	i	n/a
395.053	0.135	790106	keystroke_c	c	n/a
395.158	0.165	790316	keystroke_a	a	n/a
395.323	0.165	790646	keystroke_l	l	n/a
395.683	0.15	791366	keystroke_s	s	n/a
396.208	0.165	792416	keystroke_Key.space	Key.space	n/a
396.448	0.135	792896	keystroke_a	a	n/a
396.643	0.12	793286	keystroke_d	d	n/a
396.853	0.1345	793706	keystroke_d	d	n/a
397.1375	0.135	794275	keystroke_r	r	n/a
397.1975	0.135	794395	keystroke_e	e	n/a
397.4375	0.135	794875	keystroke_s	s	n/a
397.648	0.1345	795296	keystroke_s	s	n/a
397.9325	0.105	795865	keystroke_e	e	n/a
398.1435	0.135	796287	keystroke_d	d	n/a
398.4135	0.165	796827	keystroke_Key.space	Key.space	n/a
398.683	0.105	797366	keystroke_w	w	n/a
398.893	0.12	797786	keystroke_a	a	n/a
399.058	0.1645	798116	keystroke_r	r	n/a
399.133	0.1495	798266	keystroke_e	e	n/a
399.3425	0.15	798685	keystroke_n	n	n/a
400.3025	0.15	800605	keystroke_Key.space	Key.space	n/a
400.7685	0.105	801537	keystroke_p	p	n/a
400.9035	0.12	801807	keystroke_r	r	n/a
400.9785	0.15	801957	keystroke_o	o	n/a
401.2635	0.12	802527	keystroke_b	b	n/a
401.4885	0.15	802977	keystroke_a	a	n/a
401.6235	0.165	803247	keystroke_b	b	n/a
403.258	0.12	806516	keystroke_i	i	n/a
403.483	0.12	806966	keystroke_l	l	n/a
403.678	0.15	807356	keystroke_i	i	n/a
403.933	0.135	807866	keystroke_t	t	n/a
404.038	0.15	808076	keystroke_y	y	n/a
406.6505	0.042	813301	keystroke_Key.backspace	Key.backspace	n/a
406.7975	0.061	813595	keystroke_Key.backspace	Key.backspace	n/a
406.993	0.06	813986	keystroke_Key.backspace	Key.backspace	n/a
407.098	0.135	814196	keystroke_Key.backspace	Key.backspace	n/a
407.323	0.06	814646	keystroke_Key.backspace	Key.backspace	n/a
407.503	0.075	815006	keystroke_Key.backspace	Key.backspace	n/a
407.668	0.075	815336	keystroke_Key.backspace	Key.backspace	n/a
407.848	0.06	815696	keystroke_Key.backspace	Key.backspace	n/a
408.013	0.09	816026	keystroke_Key.backspace	Key.backspace	n/a
408.193	0.09	816386	keystroke_Key.backspace	Key.backspace	n/a
408.388	0.09	816776	keystroke_Key.backspace	Key.backspace	n/a
408.583	0.09	817166	keystroke_Key.backspace	Key.backspace	n/a
408.748	0.135	817496	keystroke_Key.backspace	Key.backspace	n/a
409.198	0.15	818396	keystroke_Key.backspace	Key.backspace	n/a
409.633	0.135	819266	keystroke_r	r	n/a
410.008	0.1345	820016	keystroke_e	e	n/a
410.2775	0.135	820555	keystroke_n	n	n/a
410.5475	0.151	821095	keystroke_Key.space	Key.space	n/a
411.2675	0.105	822535	keystroke_p	p	n/a
411.3585	0.044	822717	keystroke_r	r	n/a
411.3875	0.135	822775	keystroke_o	o	n/a
411.6125	0.12	823225	keystroke_b	b	n/a
411.7475	0.135	823495	keystroke_a	a	n/a
411.8525	0.12	823705	keystroke_b	b	n/a
412.5125	0.105	825025	keystroke_b	b	n/a
412.6625	0.1205	825325	keystroke_i	i	n/a
412.858	0.1345	825716	keystroke_l	l	n/a
413.0825	0.15	826165	keystroke_i	i	n/a
413.503	0.105	827006	keystroke_Key.backspace	Key.backspace	n/a
413.698	0.075	827396	keystroke_Key.backspace	Key.backspace	n/a
413.878	0.075	827756	keystroke_Key.backspace	Key.backspace	n/a
414.028	0.15	828056	keystroke_Key.backspace	Key.backspace	n/a
415.3335	0.1345	830667	keystroke_i	i	n/a
415.5885	0.12	831177	keystroke_l	l	n/a
415.8135	0.135	831627	keystroke_i	i	n/a
416.2335	0.045	832467	keystroke_t	t	n/a
416.2485	0.15	832497	keystroke_y	y	n/a
417.0585	0.179	834117	keystroke_Key.enter	Key.enter	n/a
417.2445	7.51	834489	prompt	n/a	fate access soviet blacks\n
418.168	0.12	836336	keystroke_f	f	n/a
418.498	0.195	836996	keystroke_a	a	n/a
418.708	0.06	837416	keystroke_t	t	n/a
418.7825	0.15	837565	keystroke_e	e	n/a
419.1575	0.135	838315	keystroke_Key.space	Key.space	n/a
419.3225	0.15	838645	keystroke_a	a	n/a
419.4425	0.15	838885	keystroke_c	c	n/a
419.7275	0.15	839455	keystroke_c	c	n/a
420.0125	0.12	840025	keystroke_e	e	n/a
420.2375	0.09	840475	keystroke_s	s	n/a
420.4175	0.135	840835	keystroke_s	s	n/a
420.6425	0.1805	841285	keystroke_Key.space	Key.space	n/a
421.048	0.165	842096	keystroke_s	s	n/a
421.243	0.165	842486	keystroke_o	o	n/a
421.423	0.105	842846	keystroke_v	v	n/a
421.543	0.165	843086	keystroke_i	i	n/a
421.663	0.225	843326	keystroke_e	e	n/a
421.903	0.135	843806	keystroke_t	t	n/a
422.263	0.1345	844526	keystroke_Key.space	Key.space	n/a
422.5625	0.1205	845125	keystroke_b	b	n/a
423.1025	0.1055	846205	keystroke_l	l	n/a
423.193	0.1945	846386	keystroke_a	a	n/a
423.3275	0.15	846655	keystroke_c	c	n/a
423.4175	0.165	846835	keystroke_k	k	n/a
424.3025	0.15	848605	keystroke_s	s	n/a
424.5875	0.165	849175	keystroke_Key.enter	Key.enter	n/a
424.757	12.6575	849514	prompt	n/a	quit indian participate marketing\n
425.5935	0.135	851187	keystroke_q	q	n/a
425.7135	0.12	851427	keystroke_u	u	n/a
425.7885	0.18	851577	keystroke_i	i	n/a
425.9385	0.105	851877	keystroke_t	t	n/a
426.2985	0.135	852597	keystroke_Key.space	Key.space	n/a
426.4935	0.165	852987	keystroke_i	i	n/a
426.5835	0.165	853167	keystroke_n	n	n/a
426.7635	0.135	853527	keystroke_d	d	n/a
426.8835	0.165	853767	keystroke_i	i	n/a
427.5285	0.075	855057	keystroke_a	a	n/a
427.6185	0.21	855237	keystroke_n	n	n/a
427.7985	0.1795	855597	keystroke_Key.space	Key.space	n/a
428.7135	0.06	857427	keystroke_Key.backspace	Key.backspace	n/a
428.923	0.09	857846	keystroke_Key.backspace	Key.backspace	n/a
430.123	0.165	860246	keystroke_n	n	n/a
430.333	0.165	860666	keystroke_Key.space	Key.space	n/a
430.753	0.15	861506	keystroke_p	p	n/a
430.843	0.15	861686	keystroke_a	a	n/a
430.948	0.12	861896	keystroke_r	r	n/a
431.203	0.09	862406	keystroke_t	t	n/a
431.383	0.15	862766	keystroke_i	i	n/a
432.4175	0.15	864835	keystroke_c	c	n/a
432.5525	0.15	865105	keystroke_i	i	n/a
432.8525	0.1205	865705	keystroke_p	p	n/a
432.988	0.18	865976	keystroke_a	a	n/a
433.153	0.135	866306	keystroke_t	t	n/a
433.303	0.135	866606	keystroke_e	e	n/a
433.693	0.135	867386	keystroke_Key.space	Key.space	n/a
433.963	0.135	867926	keystroke_m	m	n/a
434.038	0.165	868076	keystroke_a	a	n/a
434.128	0.15	868256	keystroke_r	r	n/a
434.323	0.15	868646	keystroke_k	k	n/a
434.4585	0.1945	868917	keystroke_e	e	n/a
434.578	0.165	869156	keystroke_t	t	n/a
434.818	0.1495	869636	keystroke_i	i	n/a
434.908	0.1645	869816	keystroke_n	n	n/a
435.0275	0.12	870055	keystroke_g	g	n/a
437.296	0.117	874592	keystroke_Key.enter	Key.enter	n/a
437.417	7.6775	874834	prompt	n/a	cool norton tulsa initially\n
438.403	0.165	876806	keystroke_c	c	n/a
438.628	0.0745	877256	keystroke_o	o	n/a
438.7925	0.135	877585	keystroke_o	o	n/a
439.0025	0.165	878005	keystroke_l	l	n/a
439.3625	0.135	878725	keystroke_Key.space	Key.space	n/a
439.5725	0.15	879145	keystroke_n	n	n/a
439.6625	0.18	879325	keystroke_o	o	n/a
439.7975	0.12	879595	keystroke_r	r	n/a
440.1125	0.12	880225	keystroke_t	t	n/a
440.2175	0.18	880435	keystroke_o	o	n/a
440.338	0.1645	880676	keystroke_n	n	n/a
440.548	0.15	881096	keystroke_Key.space	Key.space	n/a
440.9225	0.09	881845	keystroke_t	t	n/a
440.9975	0.121	881995	keystroke_u	u	n/a
441.223	0.15	882446	keystroke_l	l	n/a
441.358	0.1345	882716	keystroke_s	s	n/a
441.6425	0.135	883285	keystroke_a	a	n/a
442.438	0.1495	884876	keystroke_Key.space	Key.space	n/a
442.7375	0.1055	885475	keystroke_i	i	n/a
442.978	0.105	885956	keystroke_n	n	n/a
443.173	0.135	886346	keystroke_i	i	n/a
443.473	0.12	886946	keystroke_t	t	n/a
443.578	0.135	887156	keystroke_i	i	n/a
443.728	0.15	887456	keystroke_a	a	n/a
443.983	0.09	887966	keystroke_l	l	n/a
444.133	0.15	888266	keystroke_l	l	n/a
444.403	0.12	888806	keystroke_y	y	n/a
444.913	0.18	889826	keystroke_Key.enter	Key.enter	n/a
445.097	13.4225	890194	prompt	n/a	pursue unnecessary salmon ampland\n
445.873	0.15	891746	keystroke_p	p	n/a
446.548	0.09	893096	keystroke_u	u	n/a
446.743	0.135	893486	keystroke_r	r	n/a
447.058	0.135	894116	keystroke_s	s	n/a
447.193	0.135	894386	keystroke_u	u	n/a
447.313	0.12	894626	keystroke_e	e	n/a
447.778	0.15	895556	keystroke_Key.space	Key.space	n/a
448.033	0.09	896066	keystroke_u	u	n/a
448.258	0.12	896516	keystroke_n	n	n/a
449.0535	0.135	898107	keystroke_n	n	n/a
449.3675	0.136	898735	keystroke_e	e	n/a
449.728	0.135	899456	keystroke_c	c	n/a
450.2675	0.135	900535	keystroke_e	e	n/a
450.6425	0.09	901285	keystroke_s	s	n/a
450.8225	0.135	901645	keystroke_s	s	n/a
451.0325	0.18	902065	keystroke_a	a	n/a
451.1375	0.195	902275	keystroke_r	r	n/a
451.3625	0.15	902725	keystroke_y	y	n/a
453.795	0.088	907590	keystroke_Key.space	Key.space	n/a
453.928	0.12	907856	keystroke_s	s	n/a
454.123	0.15	908246	keystroke_a	a	n/a
454.258	0.18	908516	keystroke_l	l	n/a
454.903	0.0755	909806	keystroke_m	m	n/a
455.083	0.15	910166	keystroke_o	o	n/a
455.143	0.18	910286	keystroke_n	n	n/a
455.338	0.135	910676	keystroke_Key.space	Key.space	n/a
455.578	0.1495	911156	keystroke_a	a	n/a
455.6975	0.09	911395	keystroke_m	m	n/a
455.8925	0.135	911785	keystroke_p	p	n/a
456.2675	0.1355	912535	keystroke_l	l	n/a
457.588	0.135	915176	keystroke_a	a	n/a
457.708	0.12	915416	keystroke_n	n	n/a
457.798	0.165	915596	keystroke_d	d	n/a
458.338	0.18	916676	keystroke_Key.enter	Key.enter	n/a
458.522	9.4775	917044	prompt	n/a	communicate rain protect interpreted\n
459.3575	0.1505	918715	keystroke_c	c	n/a
459.448	0.15	918896	keystroke_o	o	n/a
459.703	0.09	919406	keystroke_m	m	n/a
459.898	0.12	919796	keystroke_m	m	n/a
460.123	0.105	920246	keystroke_u	u	n/a
460.318	0.135	920636	keystroke_n	n	n/a
460.423	0.1495	920846	keystroke_i	i	n/a
460.5275	0.105	921055	keystroke_c	c	n/a
460.6025	0.166	921205	keystroke_a	a	n/a
460.8585	0.119	921717	keystroke_t	t	n/a
460.9925	0.166	921985	keystroke_e	e	n/a
461.2485	0.149	922497	keystroke_Key.space	Key.space	n/a
461.4285	0.12	922857	keystroke_r	r	n/a
461.6375	0.135	923275	keystroke_a	a	n/a
461.7585	0.164	923517	keystroke_i	i	n/a
461.8185	0.194	923637	keystroke_n	n	n/a
461.9375	0.135	923875	keystroke_Key.space	Key.space	n/a
462.1635	0.134	924327	keystroke_p	p	n/a
462.3125	0.106	924625	keystroke_r	r	n/a
462.4025	0.18	924805	keystroke_o	o	n/a
463.243	0.075	926486	keystroke_t	t	n/a
463.408	0.135	926816	keystroke_e	e	n/a
463.663	0.12	927326	keystroke_c	c	n/a
463.933	0.105	927866	keystroke_t	t	n/a
464.143	0.135	928286	keystroke_Key.space	Key.space	n/a
464.368	0.15	928736	keystroke_i	i	n/a
464.413	0.1805	928826	keystroke_n	n	n/a
464.7275	0.061	929455	keystroke_t	t	n/a
464.8485	0.1645	929697	keystroke_e	e	n/a
464.953	0.15	929906	keystroke_r	r	n/a
465.298	0.15	930596	keystroke_p	p	n/a
465.403	0.135	930806	keystroke_r	r	n/a
465.493	0.165	930986	keystroke_e	e	n/a
465.7325	0.135	931465	keystroke_t	t	n/a
466.813	0.105	933626	keystroke_e	e	n/a
467.023	0.15	934046	keystroke_d	d	n/a
467.8475	0.15	935695	keystroke_Key.enter	Key.enter	n/a
468.0025	8.682	936005	prompt	n/a	upon fifty daren't jungle\n
468.8525	0.1355	937705	keystroke_u	u	n/a
469.078	0.135	938156	keystroke_p	p	n/a
469.648	0.18	939296	keystroke_o	o	n/a
469.723	0.165	939446	keystroke_n	n	n/a
470.0675	0.135	940135	keystroke_Key.space	Key.space	n/a
470.3075	0.15	940615	keystroke_f	f	n/a
470.3975	0.135	940795	keystroke_i	i	n/a
470.7875	0.1205	941575	keystroke_f	f	n/a
471.4775	0.165	942955	keystroke_t	t	n/a
471.6275	0.03	943255	keystroke_y	y	n/a
471.9275	0.15	943855	keystroke_Key.space	Key.space	n/a
472.2275	0.15	944455	keystroke_d	d	n/a
472.3925	0.15	944785	keystroke_a	a	n/a
472.4825	0.195	944965	keystroke_r	r	n/a
472.6025	0.1505	945205	keystroke_e	e	n/a
473.6075	0.15	947215	keystroke_n	n	n/a
473.9385	0.194	947877	keystroke_'	'	n/a
474.0575	0.105	948115	keystroke_t	t	n/a
474.733	0.18	949466	keystroke_Key.space	Key.space	n/a
475.138	0.12	950276	keystroke_j	j	n/a
475.363	0.09	950726	keystroke_u	u	n/a
475.543	0.135	951086	keystroke_n	n	n/a
475.8275	0.091	951655	keystroke_g	g	n/a
475.9185	0.134	951837	keystroke_l	l	n/a
476.0085	0.134	952017	keystroke_e	e	n/a
476.5175	0.166	953035	keystroke_Key.enter	Key.enter	n/a
476.6875	8.097	953375	prompt	n/a	highest effective returns savage\n
477.598	0.12	955196	keystroke_h	h	n/a
477.733	0.105	955466	keystroke_i	i	n/a
477.853	0.075	955706	keystroke_g	g	n/a
477.943	0.15	955886	keystroke_h	h	n/a
478.4825	0.12	956965	keystroke_e	e	n/a
478.6625	0.241	957325	keystroke_s	s	n/a
478.7985	0.15	957597	keystroke_t	t	n/a
479.1885	0.15	958377	keystroke_Key.space	Key.space	n/a
479.4135	0.149	958827	keystroke_e	e	n/a
479.6225	0.06	959245	keystroke_f	f	n/a
479.8025	0.09	959605	keystroke_f	f	n/a
479.9225	0.12	959845	keystroke_e	e	n/a
480.0875	0.12	960175	keystroke_c	c	n/a
480.3125	0.105	960625	keystroke_t	t	n/a
480.4475	0.135	960895	keystroke_i	i	n/a
480.5375	0.09	961075	keystroke_v	v	n/a
480.6735	0.164	961347	keystroke_e	e	n/a
480.8225	0.105	961645	keystroke_Key.space	Key.space	n/a
481.0025	0.15	962005	keystroke_r	r	n/a
481.1075	0.135	962215	keystroke_e	e	n/a
481.3775	0.15	962755	keystroke_t	t	n/a
481.6175	0.105	963235	keystroke_u	u	n/a
481.7375	0.12	963475	keystroke_r	r	n/a
481.8275	0.12	963655	keystroke_n	n	n/a
482.2025	0.165	964405	keystroke_s	s	n/a
482.623	0.135	965246	keystroke_Key.space	Key.space	n/a
482.908	0.1345	965816	keystroke_s	s	n/a
483.133	0.12	966266	keystroke_a	a	n/a
483.2975	0.075	966595	keystroke_v	v	n/a
483.5075	0.181	967015	keystroke_a	a	n/a
484.0635	0.075	968127	keystroke_g	g	n/a
484.2135	0.12	968427	keystroke_e	e	n/a
484.618	0.165	969236	keystroke_Key.enter	Key.enter	n/a
484.787	7.3925	969574	prompt	n/a	coaching phase true bacterial\n
485.7435	0.15	971487	keystroke_c	c	n/a
485.9985	0.135	971997	keystroke_o	o	n/a
486.0885	0.165	972177	keystroke_a	a	n/a
486.6585	0.105	973317	keystroke_c	c	n/a
486.7035	0.119	973407	keystroke_h	h	n/a
486.8085	0.194	973617	keystroke_i	i	n/a
486.9125	0.165	973825	keystroke_n	n	n/a
487.0625	0.09	974125	keystroke_g	g	n/a
487.1825	0.135	974365	keystroke_Key.space	Key.space	n/a
487.4085	0.104	974817	keystroke_p	p	n/a
487.6175	0.1205	975235	keystroke_h	h	n/a
487.7225	0.1355	975445	keystroke_a	a	n/a
487.858	0.195	975716	keystroke_s	s	n/a
487.948	0.15	975896	keystroke_e	e	n/a
488.398	0.15	976796	keystroke_Key.space	Key.space	n/a
488.683	0.075	977366	keystroke_t	t	n/a
488.863	0.12	977726	keystroke_r	r	n/a
488.968	0.12	977936	keystroke_u	u	n/a
489.133	0.15	978266	keystroke_e	e	n/a
489.508	0.15	979016	keystroke_Key.space	Key.space	n/a
489.883	0.075	979766	keystroke_b	b	n/a
490.003	0.165	980006	keystroke_a	a	n/a
490.108	0.135	980216	keystroke_c	c	n/a
490.4825	0.075	980965	keystroke_t	t	n/a
490.6775	0.12	981355	keystroke_e	e	n/a
490.9025	0.135	981805	keystroke_r	r	n/a
491.0675	0.135	982135	keystroke_i	i	n/a
491.1875	0.15	982375	keystroke_a	a	n/a
491.3225	0.165	982645	keystroke_l	l	n/a
492.0275	0.15	984055	keystroke_Key.enter	Key.enter	n/a
492.182	12.1325	984364	prompt	n/a	immunology hierarchy location virus\n
493.213	0.105	986426	keystroke_i	i	n/a
493.6775	0.12	987355	keystroke_m	m	n/a
493.8875	0.165	987775	keystroke_m	m	n/a
494.3075	0.12	988615	keystroke_u	u	n/a
494.623	0.195	989246	keystroke_n	n	n/a
495.388	0.1955	990776	keystroke_o	o	n/a
496.108	0.12	992216	keystroke_l	l	n/a
496.3785	0.165	992757	keystroke_o	o	n/a
496.8885	0.134	993777	keystroke_g	g	n/a
497.0085	0.135	994017	keystroke_y	y	n/a
497.4725	0.15	994945	keystroke_Key.space	Key.space	n/a
497.8025	0.105	995605	keystroke_b	b	n/a
498.2975	0.105	996595	keystroke_Key.backspace	Key.backspace	n/a
498.5675	0.1205	997135	keystroke_h	h	n/a
498.808	0.1345	997616	keystroke_i	i	n/a
499.063	0.21	998126	keystroke_e	e	n/a
499.183	0.165	998366	keystroke_r	r	n/a
500.383	0.1945	1000766	keystroke_a	a	n/a
500.473	0.1495	1000946	keystroke_r	r	n/a
500.758	0.165	1001516	keystroke_c	c	n/a
500.908	0.135	1001816	keystroke_h	h	n/a
501.148	0.12	1002296	keystroke_y	y	n/a
501.508	0.15	1003016	keystroke_Key.space	Key.space	n/a
501.763	0.12	1003526	keystroke_l	l	n/a
501.988	0.135	1003976	keystroke_o	o	n/a
502.138	0.09	1004276	keystroke_c	c	n/a
502.213	0.135	1004426	keystroke_a	a	n/a
502.438	0.165	1004876	keystroke_t	t	n/a
502.528	0.15	1005056	keystroke_i	i	n/a
502.633	0.1805	1005266	keystroke_o	o	n/a
502.723	0.1505	1005446	keystroke_n	n	n/a
502.963	0.15	1005926	keystroke_Key.space	Key.space	n/a
503.188	0.12	1006376	keystroke_v	v	n/a
503.323	0.135	1006646	keystroke_i	i	n/a
503.459	0.134	1006918	keystroke_r	r	n/a
503.698	0.135	1007396	keystroke_u	u	n/a
503.848	0.165	1007696	keystroke_s	s	n/a
504.1625	0.15	1008325	keystroke_Key.enter	Key.enter	n/a
504.3185	10.946	1008637	prompt	n/a	colony adjacent alto assignment\n
505.333	0.1495	1010666	keystroke_c	c	n/a
505.5875	0.09	1011175	keystroke_o	o	n/a
505.7825	0.105	1011565	keystroke_l	l	n/a
505.9775	0.12	1011955	keystroke_o	o	n/a
506.1725	0.12	1012345	keystroke_n	n	n/a
506.443	0.135	1012886	keystroke_y	y	n/a
506.593	0.15	1013186	keystroke_Key.space	Key.space	n/a
507.103	0.135	1014206	keystroke_a	a	n/a
507.223	0.1945	1014446	keystroke_d	d	n/a
507.7025	0.09	1015405	keystroke_g	g	n/a
508.438	0.075	1016876	keystroke_Key.backspace	Key.backspace	n/a
508.648	0.135	1017296	keystroke_j	j	n/a
508.738	0.165	1017476	keystroke_a	a	n/a
509.218	0.165	1018436	keystroke_c	c	n/a
509.383	0.135	1018766	keystroke_e	e	n/a
509.488	0.1345	1018976	keystroke_n	n	n/a
509.6235	0.119	1019247	keystroke_t	t	n/a
510.523	0.15	1021046	keystroke_Key.space	Key.space	n/a
510.763	0.135	1021526	keystroke_a	a	n/a
510.899	0.1795	1021798	keystroke_l	l	n/a
511.0335	0.134	1022067	keystroke_t	t	n/a
511.348	0.15	1022696	keystroke_o	o	n/a
512.218	0.18	1024436	keystroke_Key.space	Key.space	n/a
512.563	0.12	1025126	keystroke_a	a	n/a
512.788	0.09	1025576	keystroke_s	s	n/a
512.968	0.15	1025936	keystroke_s	s	n/a
513.073	0.135	1026146	keystroke_i	i	n/a
513.253	0.06	1026506	keystroke_g	g	n/a
513.314	0.164	1026628	keystroke_n	n	n/a
513.943	0.12	1027886	keystroke_m	m	n/a
514.033	0.135	1028066	keystroke_e	e	n/a
514.138	0.165	1028276	keystroke_n	n	n/a
514.258	0.135	1028516	keystroke_t	t	n/a
515.0825	0.18	1030165	keystroke_Key.enter	Key.enter	n/a
515.2685	13.121	1030537	prompt	n/a	mats mcdonald path pittsburgh\n
516.2375	0.1505	1032475	keystroke_m	m	n/a
516.3125	0.1805	1032625	keystroke_a	a	n/a
516.523	0.045	1033046	keystroke_t	t	n/a
516.673	0.18	1033346	keystroke_s	s	n/a
517.483	0.165	1034966	keystroke_Key.space	Key.space	n/a
517.9775	0.06	1035955	keystroke_c	c	n/a
518.8625	0.105	1037725	keystroke_Key.backspace	Key.backspace	n/a
519.1475	0.165	1038295	keystroke_m	m	n/a
519.3425	0.15	1038685	keystroke_c	c	n/a
519.7325	0.166	1039465	keystroke_d	d	n/a
519.9135	0.1195	1039827	keystroke_o	o	n/a
520.1985	0.1195	1040397	keystroke_n	n	n/a
520.378	0.1645	1040756	keystroke_a	a	n/a
521.488	0.15	1042976	keystroke_l	l	n/a
521.623	0.1805	1043246	keystroke_d	d	n/a
522.148	0.1345	1044296	keystroke_Key.space	Key.space	n/a
522.3425	0.15	1044685	keystroke_p	p	n/a
522.4475	0.105	1044895	keystroke_a	a	n/a
522.703	0.12	1045406	keystroke_t	t	n/a
522.763	0.15	1045526	keystroke_h	h	n/a
523.528	0.105	1047056	keystroke_Key.space	Key.space	n/a
523.723	0.135	1047446	keystroke_p	p	n/a
524.218	0.12	1048436	keystroke_i	i	n/a
524.563	0.075	1049126	keystroke_t	t	n/a
524.7725	0.075	1049545	keystroke_t	t	n/a
525.178	0.12	1050356	keystroke_s	s	n/a
525.733	0.075	1051466	keystroke_b	b	n/a
525.9435	0.15	1051887	keystroke_u	u	n/a
526.1235	0.105	1052247	keystroke_r	r	n/a
526.4235	0.105	1052847	keystroke_g	g	n/a
526.6185	0.135	1053237	keystroke_e	e	n/a
527.2035	0.105	1054407	keystroke_Key.backspace	Key.backspace	n/a
527.4585	0.12	1054917	keystroke_h	h	n/a
528.2535	0.135	1056507	keystroke_Key.enter	Key.enter	n/a
528.3925	13.887	1056785	prompt	n/a	road metadata meta studied\n
532.185	0.073	1064370	keystroke_r	r	n/a
532.273	0.135	1064546	keystroke_o	o	n/a
532.348	0.15	1064696	keystroke_a	a	n/a
532.468	0.165	1064936	keystroke_d	d	n/a
532.7385	0.135	1065477	keystroke_Key.space	Key.space	n/a
532.948	0.165	1065896	keystroke_m	m	n/a
533.068	0.15	1066136	keystroke_a	a	n/a
533.368	0.12	1066736	keystroke_e	e	n/a
534.073	0.015	1068146	keystroke_Key.backspace	Key.backspace	n/a
534.1625	0.15	1068325	keystroke_Key.backspace	Key.backspace	n/a
534.3275	0.12	1068655	keystroke_e	e	n/a
534.688	0.1195	1069376	keystroke_t	t	n/a
534.853	0.165	1069706	keystroke_a	a	n/a
535.318	0.135	1070636	keystroke_d	d	n/a
535.4675	0.181	1070935	keystroke_a	a	n/a
535.5575	0.165	1071115	keystroke_t	t	n/a
535.7375	0.136	1071475	keystroke_a	a	n/a
536.2335	0.12	1072467	keystroke_Key.space	Key.space	n/a
536.4435	0.1495	1072887	keystroke_m	m	n/a
536.518	0.12	1073036	keystroke_e	e	n/a
536.773	0.105	1073546	keystroke_t	t	n/a
536.998	0.135	1073996	keystroke_a	a	n/a
537.493	0.15	1074986	keystroke_Key.space	Key.space	n/a
537.748	0.15	1075496	keystroke_s	s	n/a
537.958	0.15	1075916	keystroke_u	u	n/a
538.093	0.0905	1076186	keystroke_t	t	n/a
538.3335	0.105	1076667	keystroke_d	d	n/a
538.4235	0.15	1076847	keystroke_i	i	n/a
538.993	0.015	1077986	keystroke_Key.backspace	Key.backspace	n/a
539.038	0.09	1078076	keystroke_Key.backspace	Key.backspace	n/a
539.203	0.06	1078406	keystroke_Key.backspace	Key.backspace	n/a
539.338	0.135	1078676	keystroke_Key.backspace	Key.backspace	n/a
539.488	0.12	1078976	keystroke_t	t	n/a
539.878	0.135	1079756	keystroke_u	u	n/a
540.373	0.15	1080746	keystroke_d	d	n/a
540.478	0.165	1080956	keystroke_i	i	n/a
540.598	0.12	1081196	keystroke_e	e	n/a
540.808	0.12	1081616	keystroke_s	s	n/a
541.213	0.12	1082426	keystroke_Key.backspace	Key.backspace	n/a
541.318	0.135	1082636	keystroke_d	d	n/a
542.098	0.1795	1084196	keystroke_Key.enter	Key.enter	n/a
542.282	8.1725	1084564	prompt	n/a	demo settle solomon leaves\n
543.208	0.135	1086416	keystroke_d	d	n/a
543.433	0.135	1086866	keystroke_e	e	n/a
543.6435	0.225	1087287	keystroke_m	m	n/a
543.8835	0.21	1087767	keystroke_o	o	n/a
544.5135	0.09	1089027	keystroke_Key.space	Key.space	n/a
544.7535	0.09	1089507	keystroke_e	e	n/a
545.1585	0.105	1090317	keystroke_Key.backspace	Key.backspace	n/a
545.2485	0.165	1090497	keystroke_s	s	n/a
545.3085	0.165	1090617	keystroke_e	e	n/a
545.6535	0.075	1091307	keystroke_t	t	n/a
545.8485	0.075	1091697	keystroke_t	t	n/a
545.9685	0.15	1091937	keystroke_l	l	n/a
546.0585	0.135	1092117	keystroke_e	e	n/a
546.3885	0.1045	1092777	keystroke_Key.space	Key.space	n/a
546.523	0.18	1093046	keystroke_s	s	n/a
546.628	0.105	1093256	keystroke_o	o	n/a
546.808	0.12	1093616	keystroke_l	l	n/a
547.018	0.12	1094036	keystroke_o	o	n/a
547.288	0.105	1094576	keystroke_m	m	n/a
547.528	0.165	1095056	keystroke_o	o	n/a
547.603	0.18	1095206	keystroke_n	n	n/a
548.203	0.105	1096406	keystroke_Key.space	Key.space	n/a
548.413	0.195	1096826	keystroke_l	l	n/a
548.518	0.105	1097036	keystroke_e	e	n/a
548.668	0.18	1097336	keystroke_a	a	n/a
548.833	0.135	1097666	keystroke_v	v	n/a
548.998	0.12	1097996	keystroke_e	e	n/a
549.193	0.165	1098386	keystroke_s	s	n/a
550.2735	0.1795	1100547	keystroke_Key.enter	Key.enter	n/a
550.4575	18.702	1100915	prompt	n/a	boxing discounted quantum separated\n
551.443	0.075	1102886	keystroke_b	b	n/a
551.608	0.105	1103216	keystroke_o	o	n/a
551.698	0.195	1103396	keystroke_x	x	n/a
551.848	0.165	1103696	keystroke_i	i	n/a
551.938	0.165	1103876	keystroke_n	n	n/a
552.058	0.105	1104116	keystroke_g	g	n/a
552.388	0.135	1104776	keystroke_Key.space	Key.space	n/a
552.823	0.1355	1105646	keystroke_d	d	n/a
552.9585	0.134	1105917	keystroke_i	i	n/a
553.0475	0.135	1106095	keystroke_s	s	n/a
553.3925	0.18	1106785	keystroke_c	c	n/a
553.4825	0.166	1106965	keystroke_o	o	n/a
553.5735	0.089	1107147	keystroke_u	u	n/a
553.7075	0.015	1107415	keystroke_j	j	n/a
553.7675	0.136	1107535	keystroke_n	n	n/a
553.8885	0.09	1107777	keystroke_t	t	n/a
554.0535	0.135	1108107	keystroke_e	e	n/a
554.4725	0.1055	1108945	keystroke_Key.backspace	Key.backspace	n/a
554.668	0.09	1109336	keystroke_Key.backspace	Key.backspace	n/a
554.833	0.15	1109666	keystroke_Key.backspace	Key.backspace	n/a
555.283	0.105	1110566	keystroke_Key.backspace	Key.backspace	n/a
555.553	0.12	1111106	keystroke_n	n	n/a
555.793	0.1045	1111586	keystroke_t	t	n/a
555.9875	0.075	1111975	keystroke_e	e	n/a
556.0775	0.03	1112155	keystroke_d	d	n/a
556.1835	0.15	1112367	keystroke_d	d	n/a
556.8735	0.0595	1113747	keystroke_Key.backspace	Key.backspace	n/a
557.023	0.12	1114046	keystroke_Key.backspace	Key.backspace	n/a
557.7885	0.105	1115577	keystroke_Key.backspace	Key.backspace	n/a
559.0485	0.105	1118097	keystroke_e	e	n/a
559.2435	0.165	1118487	keystroke_d	d	n/a
560.038	0.1505	1120076	keystroke_Key.space	Key.space	n/a
560.6535	0.15	1121307	keystroke_q	q	n/a
561.4485	0.134	1122897	keystroke_Key.backspace	Key.backspace	n/a
562.5585	0.15	1125117	keystroke_q	q	n/a
562.6935	0.12	1125387	keystroke_u	u	n/a
562.7985	0.135	1125597	keystroke_a	a	n/a
562.9185	0.135	1125837	keystroke_n	n	n/a
563.758	0.135	1127516	keystroke_t	t	n/a
563.908	0.135	1127816	keystroke_u	u	n/a
564.223	0.135	1128446	keystroke_m	m	n/a
565.0925	0.166	1130185	keystroke_Key.space	Key.space	n/a
565.3185	0.179	1130637	keystroke_s	s	n/a
566.0385	0.134	1132077	keystroke_e	e	n/a
566.308	0.135	1132616	keystroke_p	p	n/a
566.473	0.165	1132946	keystroke_a	a	n/a
567.0425	0.135	1134085	keystroke_r	r	n/a
567.2975	0.18	1134595	keystroke_a	a	n/a
567.7935	0.104	1135587	keystroke_t	t	n/a
568.0025	0.12	1136005	keystroke_e	e	n/a
568.3185	0.15	1136637	keystroke_d	d	n/a
568.993	0.165	1137986	keystroke_Key.enter	Key.enter	n/a
569.1625	8.4725	1138325	prompt	n/a	commonwealth sound option bend\n
570.028	0.15	1140056	keystroke_c	c	n/a
570.118	0.12	1140236	keystroke_o	o	n/a
570.373	0.105	1140746	keystroke_m	m	n/a
570.568	0.15	1141136	keystroke_m	m	n/a
570.7635	0.2395	1141527	keystroke_o	o	n/a
570.883	0.18	1141766	keystroke_n	n	n/a
571.273	0.15	1142546	keystroke_w	w	n/a
571.5135	0.12	1143027	keystroke_e	e	n/a
571.7235	0.165	1143447	keystroke_a	a	n/a
571.8735	0.195	1143747	keystroke_l	l	n/a
572.1735	0.1345	1144347	keystroke_t	t	n/a
572.278	0.135	1144556	keystroke_h	h	n/a
573.1335	0.135	1146267	keystroke_Key.space	Key.space	n/a
573.703	0.15	1147406	keystroke_s	s	n/a
573.823	0.195	1147646	keystroke_o	o	n/a
573.913	0.135	1147826	keystroke_u	u	n/a
574.153	0.15	1148306	keystroke_n	n	n/a
574.273	0.18	1148546	keystroke_d	d	n/a
574.723	0.12	1149446	keystroke_Key.space	Key.space	n/a
574.963	0.105	1149926	keystroke_o	o	n/a
575.158	0.135	1150316	keystroke_p	p	n/a
575.323	0.12	1150646	keystroke_t	t	n/a
575.413	0.166	1150826	keystroke_i	i	n/a
575.533	0.211	1151066	keystroke_o	o	n/a
575.639	0.18	1151278	keystroke_n	n	n/a
575.863	0.105	1151726	keystroke_Key.space	Key.space	n/a
576.6885	0.075	1153377	keystroke_b	b	n/a
576.8085	0.135	1153617	keystroke_e	e	n/a
576.9135	0.135	1153827	keystroke_n	n	n/a
577.0485	0.165	1154097	keystroke_d	d	n/a
577.4685	0.165	1154937	keystroke_Key.enter	Key.enter	n/a
577.6375	11.2925	1155275	prompt	n/a	mean wrist genre organisations\n
578.5485	0.1645	1157097	keystroke_m	m	n/a
578.638	0.105	1157276	keystroke_e	e	n/a
578.7735	0.1795	1157547	keystroke_a	a	n/a
578.908	0.135	1157816	keystroke_n	n	n/a
579.1185	0.135	1158237	keystroke_Key.space	Key.space	n/a
579.6135	0.12	1159227	keystroke_w	w	n/a
580.1235	0.105	1160247	keystroke_r	r	n/a
580.1985	0.12	1160397	keystroke_i	i	n/a
580.6635	0.225	1161327	keystroke_s	s	n/a
580.8585	0.15	1161717	keystroke_t	t	n/a
581.6535	0.06	1163307	keystroke_Key.space	Key.space	n/a
581.8935	0.09	1163787	keystroke_g	g	n/a
582.0435	0.1345	1164087	keystroke_e	e	n/a
582.1635	0.1195	1164327	keystroke_n	n	n/a
582.389	0.15	1164778	keystroke_r	r	n/a
582.478	0.151	1164956	keystroke_e	e	n/a
582.958	0.15	1165916	keystroke_Key.space	Key.space	n/a
583.258	0.151	1166516	keystroke_o	o	n/a
583.843	0.121	1167686	keystroke_r	r	n/a
584.083	0.105	1168166	keystroke_g	g	n/a
584.248	0.15	1168496	keystroke_a	a	n/a
584.503	0.1055	1169006	keystroke_n	n	n/a
584.6985	0.135	1169397	keystroke_i	i	n/a
584.8485	0.15	1169697	keystroke_z	z	n/a
585.4935	0.1195	1170987	keystroke_Key.backspace	Key.backspace	n/a
586.618	0.1205	1173236	keystroke_s	s	n/a
587.3235	0.12	1174647	keystroke_a	a	n/a
587.5785	0.12	1175157	keystroke_t	t	n/a
587.6535	0.135	1175307	keystroke_i	i	n/a
587.7435	0.195	1175487	keystroke_o	o	n/a
587.8335	0.18	1175667	keystroke_n	n	n/a
588.0585	0.15	1176117	keystroke_s	s	n/a
588.7635	0.164	1177527	keystroke_Key.enter	Key.enter	n/a
588.9325	15.147	1177865	prompt	n/a	venezuela advertisements would've dirty\n
589.784	0.104	1179568	keystroke_v	v	n/a
590.429	0.134	1180858	keystroke_e	e	n/a
590.684	0.149	1181368	keystroke_n	n	n/a
590.848	0.136	1181696	keystroke_e	e	n/a
591.6885	0.24	1183377	keystroke_z	z	n/a
592.0035	0.15	1184007	keystroke_u	u	n/a
592.5135	0.15	1185027	keystroke_e	e	n/a
593.6385	0.1795	1187277	keystroke_l	l	n/a
594.088	0.165	1188176	keystroke_a	a	n/a
594.328	0.1355	1188656	keystroke_Key.space	Key.space	n/a
594.6285	0.165	1189257	keystroke_a	a	n/a
594.8085	0.165	1189617	keystroke_d	d	n/a
595.1685	0.06	1190337	keystroke_v	v	n/a
595.3185	0.135	1190637	keystroke_e	e	n/a
595.3935	0.15	1190787	keystroke_r	r	n/a
595.6635	0.135	1191327	keystroke_t	t	n/a
595.8435	0.165	1191687	keystroke_i	i	n/a
596.0235	0.165	1192047	keystroke_s	s	n/a
596.0685	0.18	1192137	keystroke_e	e	n/a
596.788	0.1205	1193576	keystroke_m	m	n/a
596.863	0.1505	1193726	keystroke_e	e	n/a
597.0285	0.12	1194057	keystroke_n	n	n/a
597.1035	0.105	1194207	keystroke_t	t	n/a
597.313	0.165	1194626	keystroke_s	s	n/a
597.643	0.165	1195286	keystroke_Key.space	Key.space	n/a
598.0335	0.1345	1196067	keystroke_w	w	n/a
598.1385	0.1645	1196277	keystroke_o	o	n/a
598.229	0.104	1196458	keystroke_u	u	n/a
598.423	0.181	1196846	keystroke_l	l	n/a
598.543	0.18	1197086	keystroke_d	d	n/a
600.3135	0.165	1200627	keystroke_Key.backspace	Key.backspace	n/a
601.3035	0.165	1202607	keystroke_d	d	n/a
601.5285	0.195	1203057	keystroke_'	'	n/a
601.6185	0.12	1203237	keystroke_v	v	n/a
601.7835	0.135	1203567	keystroke_e	e	n/a
602.638	0.18	1205276	keystroke_Key.space	Key.space	n/a
602.893	0.1505	1205786	keystroke_d	d	n/a
603.0585	0.135	1206117	keystroke_i	i	n/a
603.119	0.119	1206238	keystroke_r	r	n/a
603.344	0.1495	1206688	keystroke_t	t	n/a
603.479	0.1345	1206958	keystroke_y	y	n/a
603.928	0.15	1207856	keystroke_Key.enter	Key.enter	n/a
604.0825	13.2425	1208165	prompt	n/a	violations paperback grows driven\n
605.713	0.15	1211426	keystroke_v	v	n/a
605.968	0.12	1211936	keystroke_i	i	n/a
606.283	0.106	1212566	keystroke_o	o	n/a
606.493	0.165	1212986	keystroke_l	l	n/a
606.718	0.135	1213436	keystroke_a	a	n/a
606.9735	0.12	1213947	keystroke_t	t	n/a
607.0485	0.18	1214097	keystroke_i	i	n/a
607.1535	0.21	1214307	keystroke_o	o	n/a
607.2585	0.27	1214517	keystroke_n	n	n/a
607.4535	0.18	1214907	keystroke_Key.space	Key.space	n/a
607.903	0.12	1215806	keystroke_Key.backspace	Key.backspace	n/a
608.143	0.15	1216286	keystroke_s	s	n/a
608.563	0.135	1217126	keystroke_Key.space	Key.space	n/a
608.743	0.15	1217486	keystroke_p	p	n/a
609.118	0.135	1218236	keystroke_a	a	n/a
609.298	0.151	1218596	keystroke_p	p	n/a
609.479	0.1645	1218958	keystroke_a	a	n/a
609.6885	0.195	1219377	keystroke_e	e	n/a
609.794	0.165	1219588	keystroke_r	r	n/a
610.2585	0.09	1220517	keystroke_b	b	n/a
610.3635	0.165	1220727	keystroke_a	a	n/a
610.4535	0.18	1220907	keystroke_c	c	n/a
610.5885	0.15	1221177	keystroke_k	k	n/a
611.2935	0.1495	1222587	keystroke_Key.space	Key.space	n/a
611.503	0.0905	1223006	keystroke_g	g	n/a
611.6085	0.15	1223217	keystroke_o	o	n/a
611.7135	0.1195	1223427	keystroke_r	r	n/a
612.3735	0.135	1224747	keystroke_Key.backspace	Key.backspace	n/a
612.5535	0.075	1225107	keystroke_Key.backspace	Key.backspace	n/a
612.6135	0.135	1225227	keystroke_r	r	n/a
612.7785	0.165	1225557	keystroke_o	o	n/a
612.8835	0.165	1225767	keystroke_w	w	n/a
613.3035	0.165	1226607	keystroke_s	s	n/a
613.7535	0.135	1227507	keystroke_Key.space	Key.space	n/a
614.0085	0.135	1228017	keystroke_d	d	n/a
614.2185	0.135	1228437	keystroke_i	i	n/a
614.3385	0.15	1228677	keystroke_r	r	n/a
614.908	0.105	1229816	keystroke_Key.backspace	Key.backspace	n/a
615.088	0.1205	1230176	keystroke_Key.backspace	Key.backspace	n/a
615.1935	0.135	1230387	keystroke_r	r	n/a
615.5835	0.015	1231167	keystroke_i	i	n/a
616.0785	0.12	1232157	keystroke_v	v	n/a
616.2735	0.135	1232547	keystroke_e	e	n/a
616.3635	0.15	1232727	keystroke_n	n	n/a
617.143	0.1805	1234286	keystroke_Key.enter	Key.enter	n/a
617.328	8.037	1234656	prompt	n/a	soma interest charged diamonds\n
618.2535	0.165	1236507	keystroke_s	s	n/a
618.3735	0.105	1236747	keystroke_o	o	n/a
618.5835	0.12	1237167	keystroke_m	m	n/a
618.6435	0.135	1237287	keystroke_e	e	n/a
618.8235	0.1345	1237647	keystroke_Key.space	Key.space	n/a
619.198	0.15	1238396	keystroke_i	i	n/a
619.258	0.165	1238516	keystroke_n	n	n/a
619.393	0.075	1238786	keystroke_t	t	n/a
619.528	0.21	1239056	keystroke_e	e	n/a
619.708	0.3005	1239416	keystroke_r	r	n/a
619.948	0.2105	1239896	keystroke_e	e	n/a
620.2485	0.24	1240497	keystroke_s	s	n/a
620.3535	0.165	1240707	keystroke_t	t	n/a
620.863	0.1505	1241726	keystroke_Key.space	Key.space	n/a
621.3735	0.15	1242747	keystroke_c	c	n/a
621.5235	0.09	1243047	keystroke_h	h	n/a
621.5985	0.21	1243197	keystroke_a	a	n/a
621.7485	0.12	1243497	keystroke_r	r	n/a
621.9735	0.09	1243947	keystroke_g	g	n/a
622.1085	0.12	1244217	keystroke_e	e	n/a
622.3635	0.135	1244727	keystroke_d	d	n/a
622.6035	0.15	1245207	keystroke_Key.space	Key.space	n/a
622.933	0.135	1245866	keystroke_d	d	n/a
623.083	0.135	1246166	keystroke_i	i	n/a
623.293	0.165	1246586	keystroke_a	a	n/a
623.668	0.12	1247336	keystroke_m	m	n/a
623.893	0.196	1247786	keystroke_o	o	n/a
623.983	0.181	1247966	keystroke_n	n	n/a
624.209	0.134	1248418	keystroke_d	d	n/a
624.449	0.165	1248898	keystroke_s	s	n/a
625.184	0.18	1250368	keystroke_Key.enter	Key.enter	n/a
625.368	13.437	1250736	prompt	n/a	methodology scary citations that's\n
626.294	0.149	1252588	keystroke_m	m	n/a
626.429	0.135	1252858	keystroke_e	e	n/a
627.193	0.135	1254386	keystroke_t	t	n/a
627.313	0.09	1254626	keystroke_h	h	n/a
627.373	0.195	1254746	keystroke_o	o	n/a
627.673	0.165	1255346	keystroke_d	d	n/a
627.778	0.165	1255556	keystroke_o	o	n/a
628.1085	0.1345	1256217	keystroke_g	g	n/a
628.273	0.18	1256546	keystroke_o	o	n/a
628.963	0.06	1257926	keystroke_Key.backspace	Key.backspace	n/a
629.128	0.105	1258256	keystroke_Key.backspace	Key.backspace	n/a
629.7435	0.15	1259487	keystroke_l	l	n/a
629.938	0.165	1259876	keystroke_o	o	n/a
630.088	0.12	1260176	keystroke_g	g	n/a
630.298	0.12	1260596	keystroke_y	y	n/a
630.643	0.15	1261286	keystroke_Key.space	Key.space	n/a
630.944	0.135	1261888	keystroke_s	s	n/a
631.139	0.165	1262278	keystroke_c	c	n/a
631.3635	0.165	1262727	keystroke_a	a	n/a
631.454	0.21	1262908	keystroke_r	r	n/a
631.619	0.15	1263238	keystroke_e	e	n/a
632.248	0.105	1264496	keystroke_Key.backspace	Key.backspace	n/a
632.504	0.149	1265008	keystroke_y	y	n/a
633.0135	0.165	1266027	keystroke_Key.space	Key.space	n/a
633.3285	0.165	1266657	keystroke_c	c	n/a
633.5235	0.1345	1267047	keystroke_i	i	n/a
633.659	0.089	1267318	keystroke_t	t	n/a
633.838	0.21	1267676	keystroke_a	a	n/a
633.928	0.15	1267856	keystroke_t	t	n/a
634.063	0.135	1268126	keystroke_i	i	n/a
634.138	0.195	1268276	keystroke_o	o	n/a
634.228	0.18	1268456	keystroke_n	n	n/a
634.483	0.18	1268966	keystroke_s	s	n/a
634.7685	0.135	1269537	keystroke_Key.space	Key.space	n/a
634.9485	0.09	1269897	keystroke_t	t	n/a
635.0685	0.105	1270137	keystroke_h	h	n/a
635.1135	0.195	1270227	keystroke_a	a	n/a
635.1885	0.135	1270377	keystroke_t	t	n/a
635.3385	0.18	1270677	keystroke_'	'	n/a
635.4735	0.15	1270947	keystroke_s	s	n/a
635.924	0.059	1271848	keystroke_Key.space	Key.space	n/a
636.418	0.105	1272836	keystroke_Key.backspace	Key.backspace	n/a
636.643	0.135	1273286	keystroke_Key.backspace	Key.backspace	n/a
636.973	0.135	1273946	keystroke_d	d	n/a
638.039	0.15	1276078	keystroke_Key.backspace	Key.backspace	n/a
638.234	0.149	1276468	keystroke_s	s	n/a
638.623	0.18	1277246	keystroke_Key.enter	Key.enter	n/a
638.8095	20.965	1277619	prompt	n/a	will licensing barnes pharmaceuticals\n
640.409	0.165	1280818	keystroke_w	w	n/a
640.5585	0.105	1281117	keystroke_i	i	n/a
640.8285	0.09	1281657	keystroke_l	l	n/a
641.0085	0.1645	1282017	keystroke_l	l	n/a
641.0835	0.165	1282167	keystroke_Key.space	Key.space	n/a
641.488	0.1205	1282976	keystroke_l	l	n/a
641.668	0.136	1283336	keystroke_i	i	n/a
641.789	0.12	1283578	keystroke_c	c	n/a
641.984	0.12	1283968	keystroke_e	e	n/a
642.119	0.15	1284238	keystroke_n	n	n/a
642.359	0.18	1284718	keystroke_s	s	n/a
642.824	0.179	1285648	keystroke_i	i	n/a
642.899	0.164	1285798	keystroke_n	n	n/a
644.263	0.121	1288526	keystroke_g	g	n/a
644.6535	0.135	1289307	keystroke_Key.space	Key.space	n/a
644.9835	0.165	1289967	keystroke_b	b	n/a
645.3885	0.15	1290777	keystroke_l	l	n/a
646.3335	0.195	1292667	keystroke_a	a	n/a
646.4385	0.15	1292877	keystroke_r	r	n/a
646.7835	0.06	1293567	keystroke_Key.backspace	Key.backspace	n/a
646.9635	0.045	1293927	keystroke_Key.backspace	Key.backspace	n/a
647.0835	0.105	1294167	keystroke_Key.backspace	Key.backspace	n/a
647.2035	0.165	1294407	keystroke_a	a	n/a
647.2635	0.18	1294527	keystroke_r	r	n/a
649.408	0.135	1298816	keystroke_n	n	n/a
649.528	0.12	1299056	keystroke_e	e	n/a
649.768	0.15	1299536	keystroke_s	s	n/a
649.978	0.165	1299956	keystroke_Key.space	Key.space	n/a
650.518	0.105	1301036	keystroke_p	p	n/a
650.744	0.119	1301488	keystroke_h	h	n/a
650.833	0.1805	1301666	keystroke_a	a	n/a
650.8935	0.18	1301787	keystroke_r	r	n/a
651.703	0.151	1303406	keystroke_m	m	n/a
651.838	0.06	1303676	keystroke_a	a	n/a
652.168	0.09	1304336	keystroke_c	c	n/a
652.348	0.151	1304696	keystroke_e	e	n/a
654.0585	0.135	1308117	keystroke_u	u	n/a
654.6885	0.15	1309377	keystroke_t	t	n/a
654.8985	0.1645	1309797	keystroke_i	i	n/a
655.138	0.18	1310276	keystroke_c	c	n/a
655.423	0.18	1310846	keystroke_l	l	n/a
655.438	0.03	1310876	keystroke_a	a	n/a
655.558	0.165	1311116	keystroke_s	s	n/a
656.818	0.1055	1313636	keystroke_Key.backspace	Key.backspace	n/a
656.9685	0.15	1313937	keystroke_Key.backspace	Key.backspace	n/a
657.2535	0.09	1314507	keystroke_Key.backspace	Key.backspace	n/a
658.0035	0.12	1316007	keystroke_a	a	n/a
658.1835	0.135	1316367	keystroke_l	l	n/a
658.3335	0.15	1316667	keystroke_s	s	n/a
659.5935	0.18	1319187	keystroke_Key.enter	Key.enter	n/a
659.7775	9.972	1319555	prompt	n/a	greek desirable watches packs\n
660.5835	0.09	1321167	keystroke_g	g	n/a
660.7785	0.15	1321557	keystroke_r	r	n/a
660.8535	0.135	1321707	keystroke_e	e	n/a
661.0785	0.165	1322157	keystroke_e	e	n/a
661.2735	0.195	1322547	keystroke_k	k	n/a
661.4985	0.1645	1322997	keystroke_Key.space	Key.space	n/a
661.873	0.12	1323746	keystroke_d	d	n/a
661.994	0.134	1323988	keystroke_i	i	n/a
662.083	0.15	1324166	keystroke_s	s	n/a
663.133	0.075	1326266	keystroke_Key.backspace	Key.backspace	n/a
663.298	0.12	1326596	keystroke_Key.backspace	Key.backspace	n/a
663.403	0.105	1326806	keystroke_e	e	n/a
663.5835	0.15	1327167	keystroke_s	s	n/a
663.7485	0.15	1327497	keystroke_i	i	n/a
664.213	0.135	1328426	keystroke_r	r	n/a
664.783	0.15	1329566	keystroke_a	a	n/a
664.918	0.0905	1329836	keystroke_b	b	n/a
665.1285	0.15	1330257	keystroke_l	l	n/a
665.3985	0.15	1330797	keystroke_e	e	n/a
665.9235	0.165	1331847	keystroke_Key.space	Key.space	n/a
666.2235	0.12	1332447	keystroke_w	w	n/a
666.4335	0.195	1332867	keystroke_a	a	n/a
666.5385	0.1055	1333077	keystroke_t	t	n/a
666.824	0.134	1333648	keystroke_c	c	n/a
666.959	0.119	1333918	keystroke_h	h	n/a
667.033	0.12	1334066	keystroke_e	e	n/a
667.228	0.121	1334456	keystroke_d	d	n/a
667.6635	0.12	1335327	keystroke_Key.backspace	Key.backspace	n/a
667.7835	0.18	1335567	keystroke_s	s	n/a
668.0985	0.15	1336197	keystroke_Key.space	Key.space	n/a
668.3235	0.165	1336647	keystroke_p	p	n/a
668.4585	0.165	1336917	keystroke_a	a	n/a
668.5785	0.15	1337157	keystroke_c	c	n/a
668.6685	0.165	1337337	keystroke_k	k	n/a
669.2535	0.15	1338507	keystroke_s	s	n/a
669.5835	0.165	1339167	keystroke_Key.enter	Key.enter	n/a
669.7535	8.5765	1339507	prompt	n/a	investment encounter rolled edgar\n
670.708	0.15	1341416	keystroke_i	i	n/a
670.828	0.1805	1341656	keystroke_n	n	n/a
670.9935	0.09	1341987	keystroke_v	v	n/a
671.1585	0.15	1342317	keystroke_e	e	n/a
671.3985	0.225	1342797	keystroke_s	s	n/a
671.4885	0.15	1342977	keystroke_t	t	n/a
671.8785	0.12	1343757	keystroke_m	m	n/a
671.9385	0.15	1343877	keystroke_e	e	n/a
672.1035	0.12	1344207	keystroke_n	n	n/a
672.2085	0.12	1344417	keystroke_t	t	n/a
672.5835	0.135	1345167	keystroke_Key.space	Key.space	n/a
672.8985	0.135	1345797	keystroke_e	e	n/a
673.0185	0.135	1346037	keystroke_n	n	n/a
673.5885	0.1495	1347177	keystroke_c	c	n/a
673.6785	0.18	1347357	keystroke_o	o	n/a
673.753	0.1205	1347506	keystroke_u	u	n/a
