onset	duration	sample	value	key	prompt_text
2.6075	9.02	5215	prompt	n/a	the quick brown fox jumps over a lazy dog\n
3.6035	0.012	7207	keystroke_t	t	n/a
3.6555	0.0605	7311	keystroke_h	h	n/a
3.781	0.076	7562	keystroke_e	e	n/a
4.3365	0.09	8673	keystroke_Key.space	Key.space	n/a
4.562	0.075	9124	keystroke_q	q	n/a
4.7715	0.105	9543	keystroke_u	u	n/a
4.997	0.135	9994	keystroke_i	i	n/a
5.1765	0.1205	10353	keystroke_c	c	n/a
5.2815	0.1055	10563	keystroke_k	k	n/a
5.417	0.105	10834	keystroke_Key.space	Key.space	n/a
5.567	0.105	11134	keystroke_b	b	n/a
5.702	0.09	11404	keystroke_r	r	n/a
5.807	0.105	11614	keystroke_o	o	n/a
5.927	0.105	11854	keystroke_w	w	n/a
6.062	0.0865	12124	keystroke_n	n	n/a
6.192	0.105	12384	keystroke_Key.space	Key.space	n/a
6.432	0.075	12864	keystroke_f	f	n/a
6.492	0.09	12984	keystroke_o	o	n/a
6.733	0.075	13466	keystroke_Key.space	Key.space	n/a
7.123	0.0755	14246	keystroke_Key.backspace	Key.backspace	n/a
7.2585	0.09	14517	keystroke_x	x	n/a
7.3935	0.105	14787	keystroke_Key.space	Key.space	n/a
7.5135	0.09	15027	keystroke_j	j	n/a
7.679	0.075	15358	keystroke_u	u	n/a
8.204	0.105	16408	keystroke_m	m	n/a
8.369	0.105	16738	keystroke_p	p	n/a
8.579	0.09	17158	keystroke_s	s	n/a
8.684	0.075	17368	keystroke_Key.space	Key.space	n/a
8.894	0.06	17788	keystroke_o	o	n/a
9.299	0.075	18598	keystroke_v	v	n/a
9.419	0.105	18838	keystroke_e	e	n/a
9.464	0.105	18928	keystroke_r	r	n/a
9.584	0.075	19168	keystroke_Key.space	Key.space	n/a
9.674	0.105	19348	keystroke_a	a	n/a
10.109	0.105	20218	keystroke_Key.space	Key.space	n/a
10.274	0.105	20548	keystroke_l	l	n/a
10.394	0.09	20788	keystroke_a	a	n/a
10.574	0.1195	21148	keystroke_z	z	n/a
10.6795	0.089	21359	keystroke_y	y	n/a
10.7695	0.089	21539	keystroke_Key.space	Key.space	n/a
10.9485	0.105	21897	keystroke_d	d	n/a
11.0835	0.09	22167	keystroke_o	o	n/a
11.2185	0.06	22437	keystroke_g	g	n/a
11.5185	0.105	23037	keystroke_Key.enter	Key.enter	n/a
11.6345	8.7215	23269	prompt	n/a	march travesti grid tears\n
12.2845	0.104	24569	keystroke_m	m	n/a
12.7645	0.045	25529	keystroke_e	e	n/a
13.0645	0.089	26129	keystroke_Key.backspace	Key.backspace	n/a
13.1395	0.09	26279	keystroke_a	a	n/a
13.2445	0.074	26489	keystroke_r	r	n/a
13.4245	0.09	26849	keystroke_c	c	n/a
13.5155	0.104	27031	keystroke_h	h	n/a
13.6035	0.121	27207	keystroke_Key.space	Key.space	n/a
14.1745	0.045	28349	keystroke_t	t	n/a
14.4295	0.0885	28859	keystroke_r	r	n/a
14.5785	0.09	29157	keystroke_a	a	n/a
14.8035	0.075	29607	keystroke_v	v	n/a
15.1635	0.105	30327	keystroke_e	e	n/a
15.3435	0.105	30687	keystroke_s	s	n/a
15.4635	0.0755	30927	keystroke_t	t	n/a
15.764	0.09	31528	keystroke_i	i	n/a
16.109	0.105	32218	keystroke_Key.space	Key.space	n/a
16.784	0.09	33568	keystroke_g	g	n/a
16.979	0.105	33958	keystroke_r	r	n/a
17.114	0.105	34228	keystroke_i	i	n/a
17.294	0.105	34588	keystroke_d	d	n/a
17.459	0.075	34918	keystroke_Key.space	Key.space	n/a
18.764	0.105	37528	keystroke_t	t	n/a
19.019	0.09	38038	keystroke_e	e	n/a
19.4535	0.121	38907	keystroke_a	a	n/a
19.7695	0.089	39539	keystroke_r	r	n/a
19.978	0.1205	39956	keystroke_s	s	n/a
20.294	0.059	40588	keystroke_Key.enter	Key.enter	n/a
20.3615	8.9345	40723	prompt	n/a	completed between charlie philadelphia\n
20.9685	0.091	41937	keystroke_c	c	n/a
21.0885	0.121	42177	keystroke_o	o	n/a
21.1795	0.134	42359	keystroke_m	m	n/a
21.5385	0.106	43077	keystroke_p	p	n/a
21.5835	0.091	43167	keystroke_l	l	n/a
21.9585	0.09	43917	keystroke_t	t	n/a
22.3035	0.09	44607	keystroke_Key.backspace	Key.backspace	n/a
22.3785	0.075	44757	keystroke_e	e	n/a
22.4235	0.105	44847	keystroke_t	t	n/a
22.5435	0.1205	45087	keystroke_e	e	n/a
22.634	0.105	45268	keystroke_d	d	n/a
22.769	0.104	45538	keystroke_Key.space	Key.space	n/a
23.264	0.1045	46528	keystroke_b	b	n/a
23.6095	0.09	47219	keystroke_e	e	n/a
23.6845	0.0745	47369	keystroke_t	t	n/a
23.864	0.075	47728	keystroke_w	w	n/a
23.894	0.105	47788	keystroke_e	e	n/a
24.059	0.09	48118	keystroke_e	e	n/a
24.194	0.09	48388	keystroke_n	n	n/a
24.314	0.09	48628	keystroke_Key.space	Key.space	n/a
24.539	0.09	49078	keystroke_c	c	n/a
24.554	0.09	49108	keystroke_h	h	n/a
25.2285	0.076	50457	keystroke_a	a	n/a
25.3485	0.09	50697	keystroke_r	r	n/a
25.5435	0.12	51087	keystroke_l	l	n/a
25.5885	0.106	51177	keystroke_i	i	n/a
25.7235	0.075	51447	keystroke_e	e	n/a
25.9035	0.075	51807	keystroke_Key.space	Key.space	n/a
26.1585	0.12	52317	keystroke_p	p	n/a
26.3685	0.105	52737	keystroke_h	h	n/a
27.0735	0.12	54147	keystroke_i	i	n/a
27.2085	0.105	54417	keystroke_l	l	n/a
27.3435	0.106	54687	keystroke_a	a	n/a
27.6885	0.06	55377	keystroke_d	d	n/a
27.7935	0.105	55587	keystroke_e	e	n/a
28.1385	0.12	56277	keystroke_l	l	n/a
28.3035	0.1205	56607	keystroke_p	p	n/a
28.7385	0.12	57477	keystroke_h	h	n/a
28.8435	0.09	57687	keystroke_i	i	n/a
28.935	0.089	57870	keystroke_a	a	n/a
29.2035	0.09	58407	keystroke_Key.enter	Key.enter	n/a
29.301	5.545	58602	prompt	n/a	very profile mailing aids\n
29.969	0.075	59938	keystroke_v	v	n/a
30.089	0.105	60178	keystroke_e	e	n/a
30.149	0.09	60298	keystroke_r	r	n/a
30.224	0.075	60448	keystroke_y	y	n/a
30.314	0.105	60628	keystroke_Key.space	Key.space	n/a
30.464	0.12	60928	keystroke_p	p	n/a
30.599	0.075	61198	keystroke_r	r	n/a
30.734	0.09	61468	keystroke_o	o	n/a
30.884	0.09	61768	keystroke_f	f	n/a
31.004	0.12	62008	keystroke_i	i	n/a
31.094	0.12	62188	keystroke_l	l	n/a
31.199	0.075	62398	keystroke_e	e	n/a
31.379	0.09	62758	keystroke_Key.space	Key.space	n/a
31.544	0.09	63088	keystroke_m	m	n/a
31.664	0.09	63328	keystroke_a	a	n/a
31.799	0.105	63598	keystroke_i	i	n/a
32.279	0.135	64558	keystroke_l	l	n/a
32.429	0.105	64858	keystroke_i	i	n/a
32.609	0.09	65218	keystroke_i	i	n/a
32.654	0.075	65308	keystroke_n	n	n/a
33.329	0.06	66658	keystroke_Key.backspace	Key.backspace	n/a
33.524	0.045	67048	keystroke_Key.backspace	Key.backspace	n/a
33.794	0.09	67588	keystroke_n	n	n/a
33.899	0.075	67798	keystroke_g	g	n/a
34.064	0.075	68128	keystroke_Key.space	Key.space	n/a
34.319	0.09	68638	keystroke_a	a	n/a
34.424	0.09	68848	keystroke_i	i	n/a
34.499	0.12	68998	keystroke_d	d	n/a
34.604	0.105	69208	keystroke_s	s	n/a
34.769	0.075	69538	keystroke_Key.enter	Key.enter	n/a
34.851	9.9255	69702	prompt	n/a	jumping commissions mercury consumption\n
35.489	0.105	70978	keystroke_j	j	n/a
35.684	0.06	71368	keystroke_u	u	n/a
35.849	0.09	71698	keystroke_m	m	n/a
35.999	0.105	71998	keystroke_p	p	n/a
36.359	0.075	72718	keystroke_i	i	n/a
36.569	0.09	73138	keystroke_n	n	n/a
36.674	0.06	73348	keystroke_g	g	n/a
37.379	0.105	74758	keystroke_Key.space	Key.space	n/a
37.499	0.105	74998	keystroke_c	c	n/a
37.634	0.12	75268	keystroke_o	o	n/a
37.724	0.12	75448	keystroke_m	m	n/a
37.934	0.075	75868	keystroke_m	m	n/a
38.234	0.09	76468	keystroke_i	i	n/a
38.429	0.09	76858	keystroke_s	s	n/a
38.654	0.06	77308	keystroke_s	s	n/a
38.819	0.105	77638	keystroke_i	i	n/a
38.939	0.09	77878	keystroke_o	o	n/a
38.999	0.06	77998	keystroke_n	n	n/a
39.239	0.045	78478	keystroke_s	s	n/a
39.329	0.075	78658	keystroke_Key.space	Key.space	n/a
39.689	0.105	79378	keystroke_m	m	n/a
39.824	0.09	79648	keystroke_e	e	n/a
39.899	0.061	79798	keystroke_r	r	n/a
40.064	0.09	80128	keystroke_c	c	n/a
40.379	0.09	80758	keystroke_u	u	n/a
40.529	0.09	81058	keystroke_t	t	n/a
40.709	0.09	81418	keystroke_y	y	n/a
41.039	0.075	82078	keystroke_Key.backspace	Key.backspace	n/a
41.219	0.06	82438	keystroke_Key.backspace	Key.backspace	n/a
41.309	0.09	82618	keystroke_r	r	n/a
41.414	0.075	82828	keystroke_y	y	n/a
41.519	0.105	83038	keystroke_Key.space	Key.space	n/a
42.014	0.105	84028	keystroke_c	c	n/a
42.104	0.09	84208	keystroke_i	i	n/a
42.179	0.06	84358	keystroke_n	n	n/a
42.614	0.06	85228	keystroke_Key.backspace	Key.backspace	n/a
42.764	0.045	85528	keystroke_Key.backspace	Key.backspace	n/a
43.049	0.135	86098	keystroke_o	o	n/a
43.139	0.09	86278	keystroke_n	n	n/a
43.274	0.09	86548	keystroke_s	s	n/a
43.709	0.09	87418	keystroke_u	u	n/a
43.919	0.09	87838	keystroke_m	m	n/a
44.069	0.09	88138	keystroke_p	p	n/a
44.204	0.09	88408	keystroke_t	t	n/a
44.264	0.09	88528	keystroke_i	i	n/a
44.399	0.105	88798	keystroke_o	o	n/a
44.459	0.075	88918	keystroke_n	n	n/a
44.684	0.09	89368	keystroke_Key.enter	Key.enter	n/a
44.783	8.0785	89566	prompt	n/a	fresh emma getting married\n
46.9975	0.012	93995	keystroke_f	f	n/a
47.0995	0.09	94199	keystroke_r	r	n/a
47.1745	0.09	94349	keystroke_e	e	n/a
47.3395	0.12	94679	keystroke_s	s	n/a
47.4295	0.09	94859	keystroke_h	h	n/a
47.5345	0.09	95069	keystroke_Key.space	Key.space	n/a
47.6845	0.075	95369	keystroke_m	m	n/a
48.1185	0.091	96237	keystroke_Key.backspace	Key.backspace	n/a
48.2245	0.075	96449	keystroke_e	e	n/a
48.6895	0.09	97379	keystroke_n	n	n/a
48.8845	0.09	97769	keystroke_n	n	n/a
49.1695	0.089	98339	keystroke_Key.backspace	Key.backspace	n/a
49.3345	0.089	98669	keystroke_Key.backspace	Key.backspace	n/a
49.814	0.075	99628	keystroke_m	m	n/a
49.949	0.09	99898	keystroke_m	m	n/a
50.054	0.075	100108	keystroke_a	a	n/a
50.174	0.09	100348	keystroke_Key.space	Key.space	n/a
50.699	0.0605	101398	keystroke_g	g	n/a
51.0745	0.09	102149	keystroke_e	e	n/a
51.1795	0.045	102359	keystroke_t	t	n/a
51.3295	0.06	102659	keystroke_t	t	n/a
51.4945	0.105	102989	keystroke_i	i	n/a
51.5395	0.075	103079	keystroke_n	n	n/a
51.6295	0.09	103259	keystroke_g	g	n/a
51.7345	0.075	103469	keystroke_Key.space	Key.space	n/a
51.9145	0.075	103829	keystroke_m	m	n/a
52.1095	0.075	104219	keystroke_a	a	n/a
52.2145	0.105	104429	keystroke_r	r	n/a
52.3795	0.075	104759	keystroke_r	r	n/a
52.4995	0.09	104999	keystroke_i	i	n/a
52.6045	0.09	105209	keystroke_e	e	n/a
52.6495	0.09	105299	keystroke_d	d	n/a
52.7845	0.075	105569	keystroke_Key.enter	Key.enter	n/a
52.869	7.2975	105738	prompt	n/a	delete wrote specialists research\n
53.4595	0.105	106919	keystroke_d	d	n/a
53.6245	0.09	107249	keystroke_e	e	n/a
53.7145	0.09	107429	keystroke_l	l	n/a
53.8185	0.076	107637	keystroke_e	e	n/a
53.9095	0.06	107819	keystroke_t	t	n/a
54.0145	0.075	108029	keystroke_e	e	n/a
54.3295	0.089	108659	keystroke_Key.space	Key.space	n/a
54.6145	0.12	109229	keystroke_w	w	n/a
54.7195	0.075	109439	keystroke_r	r	n/a
54.8395	0.104	109679	keystroke_o	o	n/a
54.9585	0.03	109917	keystroke_t	t	n/a
55.0045	0.105	110009	keystroke_e	e	n/a
55.1535	0.106	110307	keystroke_Key.space	Key.space	n/a
55.6495	0.09	111299	keystroke_s	s	n/a
55.8595	0.045	111719	keystroke_e	e	n/a
56.3535	0.076	112707	keystroke_Key.backspace	Key.backspace	n/a
56.564	0.105	113128	keystroke_p	p	n/a
56.714	0.075	113428	keystroke_e	e	n/a
56.805	0.119	113610	keystroke_c	c	n/a
57.135	0.09	114270	keystroke_i	i	n/a
57.405	0.105	114810	keystroke_a	a	n/a
57.555	0.15	115110	keystroke_l	l	n/a
57.674	0.09	115348	keystroke_i	i	n/a
57.795	0.089	115590	keystroke_s	s	n/a
57.929	0.045	115858	keystroke_t	t	n/a
58.035	0.09	116070	keystroke_s	s	n/a
58.154	0.075	116308	keystroke_Key.space	Key.space	n/a
58.694	0.105	117388	keystroke_r	r	n/a
58.769	0.075	117538	keystroke_e	e	n/a
59.085	0.059	118170	keystroke_s	s	n/a
59.249	0.091	118498	keystroke_e	e	n/a
59.444	0.075	118888	keystroke_a	a	n/a
59.549	0.06	119098	keystroke_r	r	n/a
59.744	0.091	119488	keystroke_c	c	n/a
59.82	0.105	119640	keystroke_h	h	n/a
60.089	0.075	120178	keystroke_Key.enter	Key.enter	n/a
60.1715	8.065	120343	prompt	n/a	florist savannah coral latest\n
60.689	0.075	121378	keystroke_f	f	n/a
60.87	0.104	121740	keystroke_l	l	n/a
61.094	0.121	122188	keystroke_i	i	n/a
61.559	0.091	123118	keystroke_Key.backspace	Key.backspace	n/a
61.754	0.075	123508	keystroke_o	o	n/a
61.949	0.09	123898	keystroke_r	r	n/a
62.099	0.09	124198	keystroke_i	i	n/a
62.234	0.105	124468	keystroke_s	s	n/a
62.325	0.059	124650	keystroke_r	r	n/a
62.459	0.09	124918	keystroke_Key.space	Key.space	n/a
62.909	0.06	125818	keystroke_Key.backspace	Key.backspace	n/a
63.045	0.074	126090	keystroke_Key.backspace	Key.backspace	n/a
63.239	0.106	126478	keystroke_t	t	n/a
63.405	0.119	126810	keystroke_Key.space	Key.space	n/a
63.975	0.09	127950	keystroke_s	s	n/a
64.139	0.075	128278	keystroke_a	a	n/a
64.319	0.045	128638	keystroke_v	v	n/a
64.514	0.09	129028	keystroke_a	a	n/a
64.62	0.074	129240	keystroke_n	n	n/a
64.814	0.076	129628	keystroke_n	n	n/a
65.055	0.135	130110	keystroke_a	a	n/a
65.174	0.091	130348	keystroke_s	s	n/a
65.789	0.06	131578	keystroke_Key.backspace	Key.backspace	n/a
65.94	0.09	131880	keystroke_h	h	n/a
66.089	0.105	132178	keystroke_Key.space	Key.space	n/a
66.435	0.089	132870	keystroke_c	c	n/a
66.495	0.09	132990	keystroke_o	o	n/a
66.69	0.074	133380	keystroke_r	r	n/a
66.87	0.09	133740	keystroke_a	a	n/a
66.945	0.09	133890	keystroke_l	l	n/a
67.064	0.105	134128	keystroke_Key.space	Key.space	n/a
67.29	0.075	134580	keystroke_l	l	n/a
67.38	0.105	134760	keystroke_a	a	n/a
67.65	0.074	135300	keystroke_t	t	n/a
67.739	0.091	135478	keystroke_e	e	n/a
67.935	0.06	135870	keystroke_s	s	n/a
68.024	0.045	136048	keystroke_t	t	n/a
68.174	0.06	136348	keystroke_Key.enter	Key.enter	n/a
68.241	4.6905	136482	prompt	n/a	flame varied cult brunette\n
68.76	0.075	137520	keystroke_f	f	n/a
68.85	0.105	137700	keystroke_l	l	n/a
68.969	0.076	137938	keystroke_a	a	n/a
69.075	0.075	138150	keystroke_m	m	n/a
69.165	0.075	138330	keystroke_e	e	n/a
69.254	0.09	138508	keystroke_Key.space	Key.space	n/a
69.735	0.059	139470	keystroke_v	v	n/a
69.93	0.075	139860	keystroke_a	a	n/a
70.019	0.075	140038	keystroke_r	r	n/a
70.125	0.075	140250	keystroke_i	i	n/a
70.23	0.06	140460	keystroke_e	e	n/a
70.29	0.12	140580	keystroke_d	d	n/a
70.439	0.106	140878	keystroke_Key.space	Key.space	n/a
70.725	0.105	141450	keystroke_c	c	n/a
70.815	0.15	141630	keystroke_u	u	n/a
70.935	0.09	141870	keystroke_l	l	n/a
71.055	0.075	142110	keystroke_t	t	n/a
71.234	0.09	142468	keystroke_Key.space	Key.space	n/a
71.475	0.089	142950	keystroke_b	b	n/a
71.624	0.045	143248	keystroke_r	r	n/a
71.88	0.09	143760	keystroke_u	u	n/a
71.925	0.105	143850	keystroke_n	n	n/a
72.21	0.075	144420	keystroke_e	e	n/a
72.39	0.06	144780	keystroke_t	t	n/a
72.555	0.06	145110	keystroke_t	t	n/a
72.645	0.105	145290	keystroke_e	e	n/a
72.825	0.104	145650	keystroke_Key.enter	Key.enter	n/a
72.9365	6.175	145873	prompt	n/a	vegetables annoying cups gzip\n
73.469	0.046	146938	keystroke_v	v	n/a
73.635	0.074	147270	keystroke_e	e	n/a
73.724	0.076	147448	keystroke_g	g	n/a
73.904	0.076	147808	keystroke_a	a	n/a
74.309	0.09	148618	keystroke_Key.backspace	Key.backspace	n/a
74.385	0.074	148770	keystroke_e	e	n/a
74.415	0.089	148830	keystroke_t	t	n/a
74.639	0.091	149278	keystroke_a	a	n/a
74.744	0.09	149488	keystroke_b	b	n/a
74.909	0.09	149818	keystroke_l	l	n/a
75	0.059	150000	keystroke_e	e	n/a
75.165	0.105	150330	keystroke_s	s	n/a
75.284	0.076	150568	keystroke_Key.space	Key.space	n/a
75.66	0.0895	151320	keystroke_a	a	n/a
75.7345	0.045	151469	keystroke_n	n	n/a
75.8545	0.09	151709	keystroke_n	n	n/a
76.0045	0.075	152009	keystroke_o	o	n/a
76.4395	0.03	152879	keystroke_y	y	n/a
76.4995	0.135	152999	keystroke_i	i	n/a
76.5745	0.075	153149	keystroke_n	n	n/a
76.6645	0.075	153329	keystroke_g	g	n/a
76.7545	0.09	153509	keystroke_Key.space	Key.space	n/a
76.9495	0.075	153899	keystroke_c	c	n/a
77.0395	0.135	154079	keystroke_u	u	n/a
77.1595	0.105	154319	keystroke_p	p	n/a
77.3095	0.075	154619	keystroke_s	s	n/a
77.4895	0.105	154979	keystroke_Key.space	Key.space	n/a
78.1645	0.06	156329	keystroke_g	g	n/a
78.5095	0.075	157019	keystroke_z	z	n/a
78.5545	0.12	157109	keystroke_i	i	n/a
78.6445	0.075	157289	keystroke_p	p	n/a
79.0495	0.06	158099	keystroke_Key.enter	Key.enter	n/a
79.116	6.686	158232	prompt	n/a	africa finland profits rugby\n
79.6795	0.0745	159359	keystroke_a	a	n/a
79.829	0.076	159658	keystroke_f	f	n/a
79.994	0.075	159988	keystroke_r	r	n/a
80.099	0.09	160198	keystroke_i	i	n/a
80.204	0.105	160408	keystroke_c	c	n/a
80.354	0.105	160708	keystroke_a	a	n/a
80.474	0.09	160948	keystroke_Key.space	Key.space	n/a
80.879	0.105	161758	keystroke_f	f	n/a
80.985	0.074	161970	keystroke_i	i	n/a
81.014	0.106	162028	keystroke_n	n	n/a
81.12	0.089	162240	keystroke_a	a	n/a
81.255	0.105	162510	keystroke_l	l	n/a
81.8395	0.09	163679	keystroke_Key.backspace	Key.backspace	n/a
82.0345	0.045	164069	keystroke_Key.backspace	Key.backspace	n/a
82.2895	0.12	164579	keystroke_l	l	n/a
82.4395	0.105	164879	keystroke_a	a	n/a
82.6495	0.09	165299	keystroke_n	n	n/a
82.8295	0.09	165659	keystroke_d	d	n/a
83.0245	0.105	166049	keystroke_Key.space	Key.space	n/a
83.3995	0.106	166799	keystroke_p	p	n/a
83.5195	0.09	167039	keystroke_r	r	n/a
83.6105	0.089	167221	keystroke_o	o	n/a
83.76	0.09	167520	keystroke_f	f	n/a
83.895	0.105	167790	keystroke_i	i	n/a
84.03	0.06	168060	keystroke_t	t	n/a
84.165	0.09	168330	keystroke_s	s	n/a
84.27	0.09	168540	keystroke_Key.space	Key.space	n/a
84.675	0.06	169350	keystroke_r	r	n/a
84.7795	0.135	169559	keystroke_u	u	n/a
85.0345	0.06	170069	keystroke_g	g	n/a
85.1845	0.105	170369	keystroke_b	b	n/a
85.4845	0.075	170969	keystroke_y	y	n/a
85.7095	0.09	171419	keystroke_Key.enter	Key.enter	n/a
85.8065	9.1145	171613	prompt	n/a	talks nearby metabolism pricing\n
86.6095	0.045	173219	keystroke_t	t	n/a
86.7745	0.075	173549	keystroke_a	a	n/a
87.1495	0.105	174299	keystroke_l	l	n/a
87.2395	0.09	174479	keystroke_k	k	n/a
87.3295	0.105	174659	keystroke_s	s	n/a
87.4945	0.075	174989	keystroke_Key.space	Key.space	n/a
87.6895	0.09	175379	keystroke_n	n	n/a
87.8545	0.12	175709	keystroke_e	e	n/a
87.9595	0.09	175919	keystroke_r	r	n/a
88.2895	0.06	176579	keystroke_a	a	n/a
88.6945	0.075	177389	keystroke_Key.backspace	Key.backspace	n/a
88.8745	0.06	177749	keystroke_Key.backspace	Key.backspace	n/a
88.9945	0.105	177989	keystroke_a	a	n/a
89.1295	0.105	178259	keystroke_b	b	n/a
89.5495	0.075	179099	keystroke_Key.backspace	Key.backspace	n/a
89.7145	0.06	179429	keystroke_r	r	n/a
89.8195	0.09	179639	keystroke_b	b	n/a
90.1195	0.015	180239	keystroke_Key.space	Key.space	n/a
90.7045	0.075	181409	keystroke_Key.backspace	Key.backspace	n/a
90.8095	0.09	181619	keystroke_y	y	n/a
91.0495	0.105	182099	keystroke_Key.space	Key.space	n/a
91.9045	0.045	183809	keystroke_m	m	n/a
92.0395	0.12	184079	keystroke_e	e	n/a
92.2495	0.09	184499	keystroke_t	t	n/a
92.4295	0.12	184859	keystroke_a	a	n/a
92.6845	0.075	185369	keystroke_b	b	n/a
92.9245	0.09	185849	keystroke_o	o	n/a
93.1345	0.105	186269	keystroke_l	l	n/a
93.2095	0.105	186419	keystroke_i	i	n/a
93.3895	0.075	186779	keystroke_s	s	n/a
93.4945	0.075	186989	keystroke_m	m	n/a
93.6295	0.105	187259	keystroke_Key.space	Key.space	n/a
94.0795	0.105	188159	keystroke_p	p	n/a
94.1855	0.089	188371	keystroke_r	r	n/a
94.3045	0.09	188609	keystroke_i	i	n/a
94.4245	0.09	188849	keystroke_c	c	n/a
94.5295	0.105	189059	keystroke_i	i	n/a
94.5895	0.075	189179	keystroke_n	n	n/a
94.7095	0.06	189419	keystroke_g	g	n/a
94.8595	0.06	189719	keystroke_Key.enter	Key.enter	n/a
94.9255	7.721	189851	prompt	n/a	periodic delay jewelry aaron\n
95.5495	0.09	191099	keystroke_p	p	n/a
95.6245	0.09	191249	keystroke_e	e	n/a
95.6995	0.09	191399	keystroke_r	r	n/a
95.8795	0.105	191759	keystroke_i	i	n/a
96.7345	0.09	193469	keystroke_o	o	n/a
96.8695	0.09	193739	keystroke_d	d	n/a
97.1095	0.09	194219	keystroke_i	i	n/a
97.3195	0.09	194639	keystroke_c	c	n/a
97.4695	0.075	194939	keystroke_Key.space	Key.space	n/a
97.7245	0.09	195449	keystroke_d	d	n/a
97.8295	0.075	195659	keystroke_e	e	n/a
97.9195	0.075	195839	keystroke_l	l	n/a
98.0395	0.09	196079	keystroke_a	a	n/a
98.1445	0.09	196289	keystroke_y	y	n/a
98.2645	0.105	196529	keystroke_Key.space	Key.space	n/a
99.2845	0.09	198569	keystroke_j	j	n/a
99.4195	0.075	198839	keystroke_e	e	n/a
99.5995	0.06	199199	keystroke_w	w	n/a
100.2595	0.075	200519	keystroke_e	e	n/a
100.3495	0.075	200699	keystroke_l	l	n/a
100.6495	0.105	201299	keystroke_r	r	n/a
100.7245	0.105	201449	keystroke_y	y	n/a
100.8745	0.105	201749	keystroke_Key.space	Key.space	n/a
101.4145	0.09	202829	keystroke_a	a	n/a
101.5645	0.06	203129	keystroke_r	r	n/a
101.8945	0.105	203789	keystroke_Key.backspace	Key.backspace	n/a
102.0145	0.105	204029	keystroke_a	a	n/a
102.1045	0.075	204209	keystroke_r	r	n/a
102.2395	0.09	204479	keystroke_o	o	n/a
102.2695	0.105	204539	keystroke_n	n	n/a
102.5835	0.06	205167	keystroke_Key.enter	Key.enter	n/a
102.652	7.599	205304	prompt	n/a	stuart situated institute an\n
103.1545	0.1045	206309	keystroke_s	s	n/a
103.3185	0.091	206637	keystroke_t	t	n/a
103.4545	0.1045	206909	keystroke_u	u	n/a
103.5885	0.1055	207177	keystroke_a	a	n/a
103.709	0.09	207418	keystroke_r	r	n/a
103.919	0.06	207838	keystroke_t	t	n/a
104.099	0.06	208198	keystroke_Key.space	Key.space	n/a
104.999	0.06	209998	keystroke_i	i	n/a
105.014	0.09	210028	keystroke_s	s	n/a
105.329	0.09	210658	keystroke_Key.backspace	Key.backspace	n/a
105.704	0.09	211408	keystroke_Key.backspace	Key.backspace	n/a
105.809	0.09	211618	keystroke_s	s	n/a
105.914	0.105	211828	keystroke_i	i	n/a
106.244	0.09	212488	keystroke_t	t	n/a
106.379	0.075	212758	keystroke_u	u	n/a
106.484	0.105	212968	keystroke_a	a	n/a
106.664	0.075	213328	keystroke_t	t	n/a
106.994	0.105	213988	keystroke_e	e	n/a
107.054	0.09	214108	keystroke_d	d	n/a
107.174	0.105	214348	keystroke_Key.space	Key.space	n/a
107.579	0.105	215158	keystroke_i	i	n/a
107.654	0.1205	215308	keystroke_n	n	n/a
107.8945	0.12	215789	keystroke_s	s	n/a
108.1045	0.09	216209	keystroke_t	t	n/a
108.2545	0.06	216509	keystroke_i	i	n/a
108.7045	0.075	217409	keystroke_t	t	n/a
108.8545	0.09	217709	keystroke_u	u	n/a
109.3045	0.075	218609	keystroke_t	t	n/a
109.3945	0.09	218789	keystroke_e	e	n/a
109.6195	0.105	219239	keystroke_Key.space	Key.space	n/a
109.7395	0.09	219479	keystroke_a	a	n/a
109.8445	0.09	219689	keystroke_n	n	n/a
110.1595	0.09	220319	keystroke_Key.enter	Key.enter	n/a
110.257	5.814	220514	prompt	n/a	beautiful mart chad bases\n
110.8795	0.105	221759	keystroke_b	b	n/a
110.9845	0.075	221969	keystroke_e	e	n/a
111.1645	0.105	222329	keystroke_a	a	n/a
112.184	0.09	224368	keystroke_u	u	n/a
112.349	0.06	224698	keystroke_t	t	n/a
112.5895	0.075	225179	keystroke_i	i	n/a
112.6945	0.075	225389	keystroke_f	f	n/a
112.7845	0.045	225569	keystroke_u	u	n/a
112.8895	0.105	225779	keystroke_l	l	n/a
113.2945	0.12	226589	keystroke_Key.space	Key.space	n/a
113.4445	0.105	226889	keystroke_m	m	n/a
113.5795	0.105	227159	keystroke_a	a	n/a
113.7595	0.075	227519	keystroke_r	r	n/a
113.9695	0.06	227939	keystroke_t	t	n/a
114.1495	0.09	228299	keystroke_Key.space	Key.space	n/a
114.4795	0.075	228959	keystroke_c	c	n/a
114.5545	0.105	229109	keystroke_h	h	n/a
114.7945	0.105	229589	keystroke_a	a	n/a
114.9895	0.075	229979	keystroke_d	d	n/a
115.0795	0.09	230159	keystroke_Key.space	Key.space	n/a
115.2895	0.075	230579	keystroke_b	b	n/a
115.4245	0.12	230849	keystroke_a	a	n/a
115.4845	0.105	230969	keystroke_s	s	n/a
115.6795	0.06	231359	keystroke_e	e	n/a
115.8445	0.09	231689	keystroke_s	s	n/a
115.9795	0.09	231959	keystroke_Key.enter	Key.enter	n/a
116.0755	7.1215	232151	prompt	n/a	maintained jeffrey villa soon\n
116.6845	0.105	233369	keystroke_m	m	n/a
116.8195	0.09	233639	keystroke_a	a	n/a
116.9545	0.135	233909	keystroke_i	i	n/a
117.0295	0.12	234059	keystroke_n	n	n/a
117.4345	0.075	234869	keystroke_t	t	n/a
117.5995	0.09	235199	keystroke_a	a	n/a
117.6745	0.105	235349	keystroke_i	i	n/a
117.7345	0.09	235469	keystroke_n	n	n/a
117.8255	0.104	235651	keystroke_e	e	n/a
117.8995	0.09	235799	keystroke_d	d	n/a
118.0045	0.075	236009	keystroke_Key.space	Key.space	n/a
118.3495	0.135	236699	keystroke_j	j	n/a
118.4995	0.105	236999	keystroke_e	e	n/a
118.5895	0.075	237179	keystroke_r	r	n/a
118.7395	0.075	237479	keystroke_r	r	n/a
119.3845	0.075	238769	keystroke_Key.backspace	Key.backspace	n/a
119.5195	0.09	239039	keystroke_Key.backspace	Key.backspace	n/a
119.6395	0.075	239279	keystroke_f	f	n/a
120.0745	0.09	240149	keystroke_f	f	n/a
120.2395	0.105	240479	keystroke_e	e	n/a
120.5845	0.075	241169	keystroke_Key.backspace	Key.backspace	n/a
120.6445	0.105	241289	keystroke_r	r	n/a
120.7345	0.09	241469	keystroke_e	e	n/a
120.8095	0.09	241619	keystroke_y	y	n/a
120.9445	0.105	241889	keystroke_Key.space	Key.space	n/a
121.2745	0.075	242549	keystroke_v	v	n/a
121.3945	0.09	242789	keystroke_i	i	n/a
121.5295	0.075	243059	keystroke_l	l	n/a
121.7095	0.06	243419	keystroke_l	l	n/a
121.7545	0.105	243509	keystroke_a	a	n/a
121.9045	0.12	243809	keystroke_Key.space	Key.space	n/a
122.2945	0.075	244589	keystroke_s	s	n/a
122.3545	0.105	244709	keystroke_o	o	n/a
122.4895	0.12	244979	keystroke_o	o	n/a
122.8945	0.105	245789	keystroke_n	n	n/a
123.1195	0.075	246239	keystroke_Key.enter	Key.enter	n/a
123.202	8.499	246404	prompt	n/a	sign editorial collectible balloon\n
123.7945	0.105	247589	keystroke_s	s	n/a
123.8695	0.09	247739	keystroke_i	i	n/a
123.9895	0.075	247979	keystroke_g	g	n/a
124.0795	0.075	248159	keystroke_n	n	n/a
124.1695	0.105	248339	keystroke_Key.space	Key.space	n/a
124.7545	0.105	249509	keystroke_e	e	n/a
124.8295	0.105	249659	keystroke_d	d	n/a
124.9195	0.15	249839	keystroke_i	i	n/a
125.2795	0.09	250559	keystroke_t	t	n/a
125.4445	0.09	250889	keystroke_i	i	n/a
125.5195	0.135	251039	keystroke_o	o	n/a
125.6245	0.075	251249	keystroke_n	n	n/a
126.2395	0.075	252479	keystroke_Key.backspace	Key.backspace	n/a
126.3745	0.09	252749	keystroke_r	r	n/a
126.6895	0.09	253379	keystroke_i	i	n/a
126.8545	0.105	253709	keystroke_a	a	n/a
126.9595	0.075	253919	keystroke_l	l	n/a
127.1095	0.12	254219	keystroke_Key.space	Key.space	n/a
127.6795	0.09	255359	keystroke_c	c	n/a
127.9195	0.06	255839	keystroke_l	l	n/a
128.2945	0.075	256589	keystroke_Key.backspace	Key.backspace	n/a
128.5045	0.09	257009	keystroke_o	o	n/a
128.684	0.075	257368	keystroke_l	l	n/a
128.804	0.105	257608	keystroke_l	l	n/a
128.924	0.09	257848	keystroke_e	e	n/a
128.984	0.06	257968	keystroke_c	c	n/a
129.164	0.045	258328	keystroke_t	t	n/a
129.224	0.075	258448	keystroke_i	i	n/a
129.359	0.06	258718	keystroke_b	b	n/a
129.479	0.075	258958	keystroke_l	l	n/a
129.5695	0.0745	259139	keystroke_e	e	n/a
129.689	0.09	259378	keystroke_Key.space	Key.space	n/a
129.929	0.075	259858	keystroke_b	b	n/a
130.019	0.105	260038	keystroke_a	a	n/a
130.154	0.045	260308	keystroke_l	l	n/a
130.289	0.06	260578	keystroke_l	l	n/a
130.4395	0.1345	260879	keystroke_o	o	n/a
130.529	0.03	261058	keystroke_n	n	n/a
131.039	0.075	262078	keystroke_Key.backspace	Key.backspace	n/a
131.249	0.09	262498	keystroke_o	o	n/a
131.324	0.105	262648	keystroke_n	n	n/a
131.639	0.06	263278	keystroke_Key.enter	Key.enter	n/a
131.7085	7.958	263417	prompt	n/a	personally tropical permitted focused\n
132.404	0.12	264808	keystroke_p	p	n/a
132.509	0.075	265018	keystroke_e	e	n/a
132.569	0.09	265138	keystroke_r	r	n/a
132.689	0.075	265378	keystroke_s	s	n/a
132.749	0.12	265498	keystroke_o	o	n/a
132.824	0.105	265648	keystroke_n	n	n/a
132.944	0.09	265888	keystroke_a	a	n/a
133.049	0.03	266098	keystroke_l	l	n/a
133.154	0.06	266308	keystroke_l	l	n/a
133.664	0.09	267328	keystroke_Key.space	Key.space	n/a
133.949	0.06	267898	keystroke_Key.backspace	Key.backspace	n/a
134.01	0.104	268020	keystroke_y	y	n/a
134.219	0.09	268438	keystroke_Key.space	Key.space	n/a
134.579	0.09	269158	keystroke_r	r	n/a
134.939	0.09	269878	keystroke_Key.backspace	Key.backspace	n/a
135.104	0.105	270208	keystroke_t	t	n/a
135.284	0.075	270568	keystroke_r	r	n/a
135.599	0.135	271198	keystroke_o	o	n/a
135.704	0.09	271408	keystroke_p	p	n/a
135.959	0.09	271918	keystroke_i	i	n/a
136.064	0.09	272128	keystroke_c	c	n/a
136.214	0.105	272428	keystroke_a	a	n/a
136.274	0.12	272548	keystroke_l	l	n/a
136.409	0.105	272818	keystroke_Key.space	Key.space	n/a
136.649	0.06	273298	keystroke_b	b	n/a
136.904	0.06	273808	keystroke_Key.backspace	Key.backspace	n/a
137.084	0.12	274168	keystroke_p	p	n/a
137.189	0.09	274378	keystroke_e	e	n/a
137.264	0.09	274528	keystroke_r	r	n/a
137.474	0.09	274948	keystroke_m	m	n/a
137.609	0.09	275218	keystroke_i	i	n/a
137.684	0.06	275368	keystroke_t	t	n/a
137.804	0.105	275608	keystroke_t	t	n/a
137.954	0.165	275908	keystroke_e	e	n/a
138.074	0.09	276148	keystroke_d	d	n/a
138.209	0.09	276418	keystroke_Key.space	Key.space	n/a
138.659	0.075	277318	keystroke_f	f	n/a
138.749	0.105	277498	keystroke_o	o	n/a
138.87	0.074	277740	keystroke_c	c	n/a
139.004	0.09	278008	keystroke_u	u	n/a
139.124	0.105	278248	keystroke_s	s	n/a
139.409	0.12	278818	keystroke_e	e	n/a
139.469	0.09	278938	keystroke_d	d	n/a
139.589	0.075	279178	keystroke_Key.enter	Key.enter	n/a
139.672	8.3945	279344	prompt	n/a	toddler demonstrates computer fashion\n
140.295	0.074	280590	keystroke_t	t	n/a
140.399	0.075	280798	keystroke_o	o	n/a
140.594	0.06	281188	keystroke_d	d	n/a
140.714	0.09	281428	keystroke_d	d	n/a
140.834	0.105	281668	keystroke_l	l	n/a
140.909	0.105	281818	keystroke_e	e	n/a
140.984	0.075	281968	keystroke_r	r	n/a
141.164	0.105	282328	keystroke_Key.space	Key.space	n/a
141.419	0.105	282838	keystroke_d	d	n/a
141.539	0.105	283078	keystroke_e	e	n/a
141.659	0.075	283318	keystroke_m	m	n/a
141.764	0.135	283528	keystroke_o	o	n/a
141.824	0.105	283648	keystroke_n	n	n/a
142.2	0.074	284400	keystroke_s	s	n/a
142.319	0.075	284638	keystroke_t	t	n/a
142.469	0.105	284938	keystroke_r	r	n/a
142.604	0.105	285208	keystroke_a	a	n/a
142.784	0.06	285568	keystroke_t	t	n/a
142.829	0.075	285658	keystroke_e	e	n/a
143.009	0.09	286018	keystroke_s	s	n/a
143.144	0.09	286288	keystroke_Key.space	Key.space	n/a
143.549	0.09	287098	keystroke_c	c	n/a
143.879	0.09	287758	keystroke_i	i	n/a
144.059	0.105	288118	keystroke_m	m	n/a
144.224	0.105	288448	keystroke_p	p	n/a
144.569	0.105	289138	keystroke_Key.backspace	Key.backspace	n/a
144.764	0.075	289528	keystroke_Key.backspace	Key.backspace	n/a
144.959	0.03	289918	keystroke_Key.backspace	Key.backspace	n/a
145.215	0.194	290430	keystroke_o	o	n/a
145.379	0.135	290758	keystroke_m	m	n/a
145.769	0.12	291538	keystroke_p	p	n/a
145.859	0.075	291718	keystroke_u	u	n/a
145.919	0.075	291838	keystroke_t	t	n/a
146.054	0.06	292108	keystroke_e	e	n/a
146.099	0.09	292198	keystroke_r	r	n/a
146.264	0.09	292528	keystroke_Key.space	Key.space	n/a
146.579	0.075	293158	keystroke_f	f	n/a
146.744	0.105	293488	keystroke_a	a	n/a
146.7595	0.1195	293519	keystroke_s	s	n/a
146.864	0.105	293728	keystroke_h	h	n/a
146.939	0.105	293878	keystroke_i	i	n/a
147.119	0.09	294238	keystroke_s	s	n/a
147.524	0.075	295048	keystroke_Key.backspace	Key.backspace	n/a
147.749	0.09	295498	keystroke_o	o	n/a
147.794	0.075	295588	keystroke_n	n	n/a
148.004	0.06	296008	keystroke_Key.enter	Key.enter	n/a
148.072	5.38	296144	prompt	n/a	autos refused engineer socks\n
148.574	0.09	297148	keystroke_a	a	n/a
148.68	0.0895	297360	keystroke_u	u	n/a
148.784	0.0605	297568	keystroke_t	t	n/a
148.8895	0.0745	297779	keystroke_o	o	n/a
148.979	0.09	297958	keystroke_s	s	n/a
149.129	0.105	298258	keystroke_Key.space	Key.space	n/a
149.414	0.075	298828	keystroke_r	r	n/a
149.474	0.1355	298948	keystroke_e	e	n/a
149.624	0.09	299248	keystroke_f	f	n/a
149.744	0.09	299488	keystroke_u	u	n/a
149.819	0.06	299638	keystroke_s	s	n/a
149.969	0.105	299938	keystroke_e	e	n/a
150.044	0.12	300088	keystroke_d	d	n/a
150.149	0.09	300298	keystroke_Key.space	Key.space	n/a
150.629	0.075	301258	keystroke_e	e	n/a
150.959	0.075	301918	keystroke_n	n	n/a
151.049	0.076	302098	keystroke_g	g	n/a
151.184	0.105	302368	keystroke_i	i	n/a
151.575	0.044	303150	keystroke_e	e	n/a
152.039	0.075	304078	keystroke_Key.backspace	Key.backspace	n/a
152.189	0.09	304378	keystroke_n	n	n/a
152.264	0.061	304528	keystroke_e	e	n/a
152.414	0.12	304828	keystroke_e	e	n/a
152.535	0.089	305070	keystroke_r	r	n/a
152.654	0.09	305308	keystroke_Key.space	Key.space	n/a
152.834	0.091	305668	keystroke_s	s	n/a
152.926	0.088	305852	keystroke_o	o	n/a
153.03	0.089	306060	keystroke_c	c	n/a
153.134	0.075	306268	keystroke_k	k	n/a
153.195	0.089	306390	keystroke_s	s	n/a
153.359	0.09	306718	keystroke_Key.enter	Key.enter	n/a
153.4565	7.586	306913	prompt	n/a	condo examination understood embedded\n
154.004	0.046	308008	keystroke_e	e	n/a
154.379	0.045	308758	keystroke_Key.backspace	Key.backspace	n/a
154.514	0.09	309028	keystroke_c	c	n/a
154.619	0.105	309238	keystroke_o	o	n/a
154.709	0.06	309418	keystroke_n	n	n/a
154.859	0.015	309718	keystroke_v	v	n/a
155.264	0.045	310528	keystroke_Key.backspace	Key.backspace	n/a
155.339	0.075	310678	keystroke_d	d	n/a
155.459	0.09	310918	keystroke_o	o	n/a
155.594	0.09	311188	keystroke_Key.space	Key.space	n/a
155.865	0.059	311730	keystroke_e	e	n/a
156.134	0.09	312268	keystroke_x	x	n/a
156.344	0.075	312688	keystroke_a	a	n/a
156.614	0.015	313228	keystroke_m	m	n/a
156.704	0.12	313408	keystroke_i	i	n/a
156.779	0.105	313558	keystroke_n	n	n/a
156.974	0.075	313948	keystroke_a	a	n/a
157.139	0.03	314278	keystroke_t	t	n/a
157.184	0.105	314368	keystroke_i	i	n/a
157.334	0.12	314668	keystroke_o	o	n/a
157.394	0.09	314788	keystroke_n	n	n/a
157.499	0.105	314998	keystroke_Key.space	Key.space	n/a
157.739	0.06	315478	keystroke_u	u	n/a
157.919	0.09	315838	keystroke_n	n	n/a
157.964	0.136	315928	keystroke_d	d	n/a
158.114	0.15	316228	keystroke_e	e	n/a
158.294	0.09	316588	keystroke_r	r	n/a
158.474	0.09	316948	keystroke_s	s	n/a
158.579	0.06	317158	keystroke_t	t	n/a
158.759	0.06	317518	keystroke_o	o	n/a
158.895	0.104	317790	keystroke_o	o	n/a
159.015	0.089	318030	keystroke_d	d	n/a
159.179	0.075	318358	keystroke_Key.space	Key.space	n/a
159.359	0.045	318718	keystroke_e	e	n/a
159.42	0.089	318840	keystroke_m	m	n/a
159.629	0.075	319258	keystroke_b	b	n/a
159.794	0.06	319588	keystroke_e	e	n/a
159.989	0.06	319978	keystroke_e	e	n/a
160.409	0.075	320818	keystroke_Key.backspace	Key.backspace	n/a
160.469	0.06	320938	keystroke_d	d	n/a
160.619	0.09	321238	keystroke_d	d	n/a
160.769	0.09	321538	keystroke_e	e	n/a
160.844	0.075	321688	keystroke_d	d	n/a
160.964	0.075	321928	keystroke_Key.enter	Key.enter	n/a
161.0465	10.0455	322093	prompt	n/a	y'all principal lesson quantitative\n
162.015	0.089	324030	keystroke_y	y	n/a
162.224	0.075	324448	keystroke_a	a	n/a
163.139	0.09	326278	keystroke_Key.backspace	Key.backspace	n/a
163.74	0.105	327480	keystroke_'	'	n/a
163.904	0.075	327808	keystroke_a	a	n/a
164.145	0.075	328290	keystroke_l	l	n/a
164.295	0.075	328590	keystroke_l	l	n/a
164.445	0.105	328890	keystroke_Key.space	Key.space	n/a
164.745	0.105	329490	keystroke_p	p	n/a
164.895	0.089	329790	keystroke_r	r	n/a
165.045	0.12	330090	keystroke_i	i	n/a
165.12	0.09	330240	keystroke_n	n	n/a
165.255	0.09	330510	keystroke_c	c	n/a
165.39	0.135	330780	keystroke_i	i	n/a
165.495	0.134	330990	keystroke_p	p	n/a
165.854	0.106	331708	keystroke_a	a	n/a
165.944	0.105	331888	keystroke_l	l	n/a
166.079	0.105	332158	keystroke_Key.space	Key.space	n/a
166.274	0.105	332548	keystroke_l	l	n/a
166.394	0.06	332788	keystroke_e	e	n/a
166.559	0.045	333118	keystroke_s	s	n/a
166.709	0.03	333418	keystroke_s	s	n/a
166.934	0.105	333868	keystroke_o	o	n/a
166.979	0.091	333958	keystroke_n	n	n/a
167.114	0.06	334228	keystroke_Key.space	Key.space	n/a
168.1345	0.09	336269	keystroke_q	q	n/a
168.2255	0.104	336451	keystroke_u	u	n/a
168.3745	0.12	336749	keystroke_a	a	n/a
168.5395	0.09	337079	keystroke_n	n	n/a
168.7195	0.12	337439	keystroke_t	t	n/a
168.9445	0.09	337889	keystroke_i	i	n/a
169.4245	0.09	338849	keystroke_t	t	n/a
169.8595	0.09	339719	keystroke_a	a	n/a
170.0695	0.075	340139	keystroke_t	t	n/a
170.1895	0.09	340379	keystroke_i	i	n/a
170.3245	0.105	340649	keystroke_v	v	n/a
170.4745	0.12	340949	keystroke_e	e	n/a
170.9995	0.09	341999	keystroke_Key.enter	Key.enter	n/a
171.0975	7.854	342195	prompt	n/a	inclusion resident railway rotation\n
171.7195	0.1655	343439	keystroke_i	i	n/a
172.89	0.075	345780	keystroke_n	n	n/a
172.995	0.105	345990	keystroke_c	c	n/a
173.145	0.135	346290	keystroke_l	l	n/a
173.265	0.09	346530	keystroke_u	u	n/a
173.52	0.09	347040	keystroke_s	s	n/a
173.595	0.089	347190	keystroke_i	i	n/a
173.7	0.1195	347400	keystroke_o	o	n/a
173.7595	0.105	347519	keystroke_n	n	n/a
173.8795	0.09	347759	keystroke_Key.space	Key.space	n/a
174.0595	0.225	348119	keystroke_e	e	n/a
174.5845	0.075	349169	keystroke_Key.backspace	Key.backspace	n/a
174.6295	0.105	349259	keystroke_r	r	n/a
174.7195	0.105	349439	keystroke_e	e	n/a
174.9445	0.09	349889	keystroke_d	d	n/a
175.2595	0.06	350519	keystroke_Key.backspace	Key.backspace	n/a
175.3495	0.105	350699	keystroke_s	s	n/a
175.5145	0.09	351029	keystroke_i	i	n/a
175.6345	0.105	351269	keystroke_d	d	n/a
175.8595	0.09	351719	keystroke_e	e	n/a
175.9795	0.075	351959	keystroke_n	n	n/a
176.0695	0.075	352139	keystroke_t	t	n/a
176.1745	0.09	352349	keystroke_Key.space	Key.space	n/a
176.5495	0.075	353099	keystroke_r	r	n/a
176.6845	0.09	353369	keystroke_a	a	n/a
176.7145	0.135	353429	keystroke_i	i	n/a
176.7895	0.105	353579	keystroke_l	l	n/a
177.0295	0.06	354059	keystroke_w	w	n/a
177.2095	0.075	354419	keystroke_a	a	n/a
177.2695	0.105	354539	keystroke_y	y	n/a
177.4195	0.12	354839	keystroke_Key.space	Key.space	n/a
177.6895	0.075	355379	keystroke_r	r	n/a
177.7945	0.12	355589	keystroke_o	o	n/a
178.0045	0.09	356009	keystroke_t	t	n/a
178.1395	0.105	356279	keystroke_a	a	n/a
178.2895	0.045	356579	keystroke_t	t	n/a
178.4095	0.075	356819	keystroke_i	i	n/a
178.5595	0.105	357119	keystroke_o	o	n/a
178.6495	0.06	357299	keystroke_n	n	n/a
178.8745	0.075	357749	keystroke_Key.enter	Key.enter	n/a
178.9575	3.7735	357915	prompt	n/a	cookies peace chad line\n
179.4295	0.09	358859	keystroke_c	c	n/a
179.5045	0.09	359009	keystroke_o	o	n/a
179.6695	0.12	359339	keystroke_o	o	n/a
179.7595	0.135	359519	keystroke_k	k	n/a
180.0145	0.09	360029	keystroke_i	i	n/a
180.1495	0.06	360299	keystroke_e	e	n/a
180.3145	0.09	360629	keystroke_s	s	n/a
180.4495	0.09	360899	keystroke_Key.space	Key.space	n/a
180.6895	0.105	361379	keystroke_p	p	n/a
180.7795	0.06	361559	keystroke_e	e	n/a
180.9295	0.075	361859	keystroke_a	a	n/a
181.1095	0.06	362219	keystroke_c	c	n/a
181.1395	0.075	362279	keystroke_e	e	n/a
181.2445	0.105	362489	keystroke_Key.space	Key.space	n/a
181.4995	0.075	362999	keystroke_c	c	n/a
181.5895	0.09	363179	keystroke_h	h	n/a
181.7395	0.105	363479	keystroke_a	a	n/a
181.8745	0.105	363749	keystroke_d	d	n/a
181.9945	0.075	363989	keystroke_Key.space	Key.space	n/a
182.1745	0.09	364349	keystroke_l	l	n/a
182.3695	0.09	364739	keystroke_i	i	n/a
182.4295	0.06	364859	keystroke_n	n	n/a
182.5045	0.09	365009	keystroke_e	e	n/a
182.6545	0.075	365309	keystroke_Key.enter	Key.enter	n/a
182.736	6.911	365472	prompt	n/a	provision scotia since union\n
183.3745	0.06	366749	keystroke_o	o	n/a
183.6895	0.105	367379	keystroke_Key.backspace	Key.backspace	n/a
183.9145	0.105	367829	keystroke_p	p	n/a
184.0795	0.075	368159	keystroke_r	r	n/a
184.2595	0.105	368519	keystroke_o	o	n/a
184.4545	0.075	368909	keystroke_v	v	n/a
184.6645	0.06	369329	keystroke_i	i	n/a
184.6945	0.075	369389	keystroke_s	s	n/a
184.9645	0.045	369929	keystroke_Key.backspace	Key.backspace	n/a
185.3695	0.06	370739	keystroke_s	s	n/a
185.4595	0.12	370919	keystroke_i	i	n/a
185.6395	0.135	371279	keystroke_o	o	n/a
185.7445	0.105	371489	keystroke_n	n	n/a
185.8645	0.12	371729	keystroke_Key.space	Key.space	n/a
186.2095	0.09	372419	keystroke_s	s	n/a
186.3895	0.075	372779	keystroke_c	c	n/a
186.5695	0.09	373139	keystroke_o	o	n/a
186.7195	0.075	373439	keystroke_t	t	n/a
187.1245	0.09	374249	keystroke_i	i	n/a
187.1695	0.12	374339	keystroke_a	a	n/a
187.3795	0.09	374759	keystroke_Key.space	Key.space	n/a
187.7395	0.075	375479	keystroke_s	s	n/a
187.8595	0.06	375719	keystroke_i	i	n/a
187.8895	0.075	375779	keystroke_n	n	n/a
187.9495	0.12	375899	keystroke_c	c	n/a
188.0395	0.105	376079	keystroke_e	e	n/a
188.1595	0.075	376319	keystroke_Key.space	Key.space	n/a
188.6845	0.09	377369	keystroke_u	u	n/a
188.9545	0.105	377909	keystroke_n	n	n/a
189.1795	0.091	378359	keystroke_i	i	n/a
189.2845	0.136	378569	keystroke_o	o	n/a
189.3745	0.075	378749	keystroke_n	n	n/a
189.5545	0.09	379109	keystroke_Key.enter	Key.enter	n/a
189.6515	8.6355	379303	prompt	n/a	technological disagree ethical beginning\n
190.3195	0.06	380639	keystroke_t	t	n/a
190.4095	0.105	380819	keystroke_e	e	n/a
190.5895	0.09	381179	keystroke_c	c	n/a
190.6645	0.12	381329	keystroke_h	h	n/a
191.2345	0.105	382469	keystroke_n	n	n/a
191.3405	0.089	382681	keystroke_o	o	n/a
191.6245	0.105	383249	keystroke_l	l	n/a
191.7745	0.105	383549	keystroke_o	o	n/a
192.0745	0.09	384149	keystroke_g	g	n/a
192.1945	0.09	384389	keystroke_i	i	n/a
192.2995	0.105	384599	keystroke_c	c	n/a
192.4795	0.09	384959	keystroke_a	a	n/a
192.5545	0.09	385109	keystroke_l	l	n/a
192.6895	0.12	385379	keystroke_Key.space	Key.space	n/a
193.0345	0.075	386069	keystroke_d	d	n/a
193.6795	0.075	387359	keystroke_i	i	n/a
193.7845	0.06	387569	keystroke_s	s	n/a
193.9645	0.075	387929	keystroke_a	a	n/a
194.1445	0.06	388289	keystroke_g	g	n/a
194.3245	0.09	388649	keystroke_r	r	n/a
194.4745	0.06	388949	keystroke_e	e	n/a
194.6395	0.045	389279	keystroke_e	e	n/a
194.805	0.09	389610	keystroke_Key.space	Key.space	n/a
195.435	0.075	390870	keystroke_e	e	n/a
195.615	0.075	391230	keystroke_t	t	n/a
195.705	0.105	391410	keystroke_h	h	n/a
195.765	0.105	391530	keystroke_i	i	n/a
195.9	0.075	391800	keystroke_c	c	n/a
196.08	0.105	392160	keystroke_a	a	n/a
196.17	0.09	392340	keystroke_l	l	n/a
196.29	0.105	392580	keystroke_Key.space	Key.space	n/a
196.7555	0.09	393511	keystroke_b	b	n/a
196.8005	0.104	393601	keystroke_e	e	n/a
197.0705	0.105	394141	keystroke_g	g	n/a
197.3105	0.105	394621	keystroke_i	i	n/a
197.3845	0.091	394769	keystroke_n	n	n/a
197.6405	0.089	395281	keystroke_n	n	n/a
197.8205	0.104	395641	keystroke_i	i	n/a
197.8955	0.089	395791	keystroke_n	n	n/a
197.9545	0.061	395909	keystroke_g	g	n/a
198.2095	0.075	396419	keystroke_Key.enter	Key.enter	n/a
198.291	7.0905	396582	prompt	n/a	voters viewers watts wendy\n
198.8255	0.089	397651	keystroke_v	v	n/a
198.9295	0.091	397859	keystroke_o	o	n/a
199.0355	0.074	398071	keystroke_t	t	n/a
199.1245	0.105	398249	keystroke_e	e	n/a
199.3795	0.075	398759	keystroke_s	s	n/a
200.0245	0.045	400049	keystroke_Key.backspace	Key.backspace	n/a
200.0555	0.09	400111	keystroke_r	r	n/a
200.1595	0.105	400319	keystroke_s	s	n/a
200.3095	0.105	400619	keystroke_Key.space	Key.space	n/a
200.9995	0.075	401999	keystroke_v	v	n/a
201.1195	0.09	402239	keystroke_i	i	n/a
201.1955	0.074	402391	keystroke_e	e	n/a
201.4205	0.059	402841	keystroke_w	w	n/a
201.6145	0.105	403229	keystroke_e	e	n/a
201.7045	0.106	403409	keystroke_r	r	n/a
201.8245	0.105	403649	keystroke_s	s	n/a
201.9445	0.105	403889	keystroke_Key.space	Key.space	n/a
202.2445	0.046	404489	keystroke_r	r	n/a
202.4695	0.09	404939	keystroke_Key.backspace	Key.backspace	n/a
202.5305	0.09	405061	keystroke_w	w	n/a
202.7405	0.0295	405481	keystroke_a	a	n/a
202.815	0.06	405630	keystroke_t	t	n/a
202.965	0.075	405930	keystroke_t	t	n/a
203.115	0.09	406230	keystroke_s	s	n/a
203.52	0.09	407040	keystroke_Key.space	Key.space	n/a
204.3	0.09	408600	keystroke_w	w	n/a
204.525	0.06	409050	keystroke_e	e	n/a
204.63	0.09	409260	keystroke_n	n	n/a
204.885	0.105	409770	keystroke_d	d	n/a
205.035	0.06	410070	keystroke_y	y	n/a
205.305	0.075	410610	keystroke_Key.enter	Key.enter	n/a
205.3875	6.805	410775	prompt	n/a	reports maintaining marco specs\n
205.905	0.105	411810	keystroke_r	r	n/a
205.995	0.09	411990	keystroke_e	e	n/a
206.1	0.15	412200	keystroke_p	p	n/a
206.19	0.12	412380	keystroke_o	o	n/a
206.295	0.09	412590	keystroke_r	r	n/a
206.46	0.075	412920	keystroke_t	t	n/a
206.565	0.09	413130	keystroke_s	s	n/a
206.7	0.09	413400	keystroke_Key.space	Key.space	n/a
207.045	0.12	414090	keystroke_m	m	n/a
207.24	0.12	414480	keystroke_a	a	n/a
207.33	0.12	414660	keystroke_i	i	n/a
207.39	0.135	414780	keystroke_n	n	n/a
207.615	0.09	415230	keystroke_t	t	n/a
207.825	0.105	415650	keystroke_a	a	n/a
207.915	0.105	415830	keystroke_i	i	n/a
207.975	0.105	415950	keystroke_n	n	n/a
208.245	0.12	416490	keystroke_i	i	n/a
208.335	0.09	416670	keystroke_n	n	n/a
208.38	0.075	416760	keystroke_g	g	n/a
208.53	0.09	417060	keystroke_Key.space	Key.space	n/a
208.845	0.075	417690	keystroke_m	m	n/a
209.07	0.09	418140	keystroke_a	a	n/a
209.385	0.06	418770	keystroke_r	r	n/a
209.595	0.12	419190	keystroke_c	c	n/a
210.105	0.09	420210	keystroke_o	o	n/a
210.255	0.135	420510	keystroke_Key.space	Key.space	n/a
210.615	0.06	421230	keystroke_s	s	n/a
211.635	0.09	423270	keystroke_p	p	n/a
211.755	0.105	423510	keystroke_e	e	n/a
211.875	0.075	423750	keystroke_c	c	n/a
211.995	0.075	423990	keystroke_s	s	n/a
212.085	0.105	424170	keystroke_Key.enter	Key.enter	n/a
212.1995	6.6075	424399	prompt	n/a	repeat indeed collapse chicken\n
212.715	0.12	425430	keystroke_r	r	n/a
212.79	0.075	425580	keystroke_e	e	n/a
213.255	0.075	426510	keystroke_p	p	n/a
213.36	0.06	426720	keystroke_e	e	n/a
213.525	0.075	427050	keystroke_a	a	n/a
213.675	0.075	427350	keystroke_t	t	n/a
213.9	0.09	427800	keystroke_Key.space	Key.space	n/a
214.155	0.105	428310	keystroke_i	i	n/a
214.23	0.105	428460	keystroke_n	n	n/a
214.305	0.06	428610	keystroke_d	d	n/a
214.47	0.075	428940	keystroke_d	d	n/a
214.74	0.075	429480	keystroke_e	e	n/a
215.175	0.045	430350	keystroke_Key.backspace	Key.backspace	n/a
215.34	0.06	430680	keystroke_Key.backspace	Key.backspace	n/a
215.67	0.06	431340	keystroke_e	e	n/a
215.82	0.12	431640	keystroke_e	e	n/a
215.91	0.105	431820	keystroke_d	d	n/a
216.03	0.105	432060	keystroke_Key.space	Key.space	n/a
216.375	0.105	432750	keystroke_c	c	n/a
216.465	0.09	432930	keystroke_o	o	n/a
216.675	0.06	433350	keystroke_l	l	n/a
216.78	0.105	433560	keystroke_l	l	n/a
216.93	0.09	433860	keystroke_a	a	n/a
217.05	0.105	434100	keystroke_p	p	n/a
217.2	0.06	434400	keystroke_s	s	n/a
217.365	0.075	434730	keystroke_e	e	n/a
217.545	0.105	435090	keystroke_Key.space	Key.space	n/a
217.845	0.09	435690	keystroke_c	c	n/a
217.92	0.09	435840	keystroke_h	h	n/a
217.98	0.09	435960	keystroke_i	i	n/a
218.085	0.075	436170	keystroke_c	c	n/a
218.205	0.06	436410	keystroke_k	k	n/a
218.37	0.09	436740	keystroke_e	e	n/a
218.475	0.09	436950	keystroke_n	n	n/a
218.715	0.09	437430	keystroke_Key.enter	Key.enter	n/a
218.811	5.186	437622	prompt	n/a	pays bound disappointed burden\n
219.375	0.105	438750	keystroke_p	p	n/a
219.465	0.09	438930	keystroke_a	a	n/a
219.645	0.06	439290	keystroke_y	y	n/a
219.72	0.046	439440	keystroke_s	s	n/a
219.885	0.075	439770	keystroke_Key.space	Key.space	n/a
220.11	0.09	440220	keystroke_b	b	n/a
220.275	0.135	440550	keystroke_o	o	n/a
220.32	0.105	440640	keystroke_u	u	n/a
220.53	0.09	441060	keystroke_n	n	n/a
220.635	0.105	441270	keystroke_d	d	n/a
220.755	0.06	441510	keystroke_Key.space	Key.space	n/a
221.115	0.106	442230	keystroke_d	d	n/a
221.235	0.075	442470	keystroke_i	i	n/a
221.37	0.075	442740	keystroke_s	s	n/a
221.745	0.09	443490	keystroke_a	a	n/a
221.94	0.06	443880	keystroke_p	p	n/a
222.075	0.105	444150	keystroke_p	p	n/a
222.15	0.12	444300	keystroke_o	o	n/a
222.345	0.105	444690	keystroke_i	i	n/a
222.375	0.105	444750	keystroke_n	n	n/a
222.465	0.09	444930	keystroke_t	t	n/a
222.615	0.12	445230	keystroke_e	e	n/a
222.705	0.135	445410	keystroke_d	d	n/a
222.825	0.075	445650	keystroke_Key.space	Key.space	n/a
223.2	0.06	446400	keystroke_b	b	n/a
223.276	0.104	446552	keystroke_u	u	n/a
223.425	0.075	446850	keystroke_r	r	n/a
223.605	0.0905	447210	keystroke_d	d	n/a
223.7255	0.09	447451	keystroke_e	e	n/a
223.7855	0.075	447571	keystroke_r	r	n/a
223.9205	0.075	447841	keystroke_Key.enter	Key.enter	n/a
224.001	6.1915	448002	prompt	n/a	outcomes valentine chip graphs\n
224.8805	0.15	449761	keystroke_o	o	n/a
225.0005	0.105	450001	keystroke_u	u	n/a
225.0905	0.09	450181	keystroke_t	t	n/a
225.3305	0.09	450661	keystroke_c	c	n/a
225.4215	0.104	450843	keystroke_o	o	n/a
225.4505	0.09	450901	keystroke_m	m	n/a
225.5405	0.06	451081	keystroke_e	e	n/a
225.7045	0.075	451409	keystroke_s	s	n/a
225.8245	0.09	451649	keystroke_Key.space	Key.space	n/a
226.2605	0.089	452521	keystroke_v	v	n/a
226.4545	0.061	452909	keystroke_a	a	n/a
226.5455	0.075	453091	keystroke_l	l	n/a
226.6805	0.06	453361	keystroke_e	e	n/a
227.3845	0.091	454769	keystroke_n	n	n/a
227.4905	0.075	454981	keystroke_t	t	n/a
227.5805	0.105	455161	keystroke_i	i	n/a
227.895	0.09	455790	keystroke_n	n	n/a
228	0.09	456000	keystroke_e	e	n/a
228.105	0.105	456210	keystroke_Key.space	Key.space	n/a
228.405	0.105	456810	keystroke_c	c	n/a
228.465	0.075	456930	keystroke_h	h	n/a
228.66	0.135	457320	keystroke_i	i	n/a
228.765	0.105	457530	keystroke_p	p	n/a
228.945	0.045	457890	keystroke_Key.space	Key.space	n/a
229.275	0.06	458550	keystroke_g	g	n/a
229.425	0.075	458850	keystroke_r	r	n/a
229.53	0.105	459060	keystroke_a	a	n/a
229.62	0.1055	459240	keystroke_p	p	n/a
229.7855	0.09	459571	keystroke_h	h	n/a
229.8755	0.09	459751	keystroke_s	s	n/a
230.0855	0.105	460171	keystroke_Key.enter	Key.enter	n/a
230.198	11.9645	460396	prompt	n/a	characterized bible visitors desperate\n
230.791	0.09	461582	keystroke_c	c	n/a
230.896	0.104	461792	keystroke_h	h	n/a
230.985	0.106	461970	keystroke_a	a	n/a
231.105	0.06	462210	keystroke_r	r	n/a
231.196	0.075	462392	keystroke_a	a	n/a
231.345	0.105	462690	keystroke_c	c	n/a
231.57	0.076	463140	keystroke_t	t	n/a
232.155	0.09	464310	keystroke_r	r	n/a
232.845	0.075	465690	keystroke_Key.backspace	Key.backspace	n/a
232.966	0.074	465932	keystroke_e	e	n/a
233.01	0.091	466020	keystroke_r	r	n/a
233.131	0.089	466262	keystroke_i	i	n/a
233.28	0.105	466560	keystroke_z	z	n/a
233.535	0.09	467070	keystroke_e	e	n/a
233.61	0.106	467220	keystroke_d	d	n/a
233.745	0.075	467490	keystroke_Key.space	Key.space	n/a
233.97	0.09	467940	keystroke_b	b	n/a
234.091	0.119	468182	keystroke_i	i	n/a
234.195	0.076	468390	keystroke_b	b	n/a
234.346	0.089	468692	keystroke_l	l	n/a
234.496	0.0895	468992	keystroke_e	e	n/a
234.6455	0.09	469291	keystroke_Key.space	Key.space	n/a
234.9905	0.09	469981	keystroke_v	v	n/a
235.0955	0.075	470191	keystroke_i	i	n/a
235.2005	0.09	470401	keystroke_s	s	n/a
235.3205	0.105	470641	keystroke_t	t	n/a
235.5155	0.12	471031	keystroke_i	i	n/a
235.9655	0.03	471931	keystroke_r	r	n/a
237.0455	0.09	474091	keystroke_Key.backspace	Key.backspace	n/a
237.2705	0.09	474541	keystroke_o	o	n/a
237.9305	0.09	475861	keystroke_Key.backspace	Key.backspace	n/a
238.1105	0.06	476221	keystroke_Key.backspace	Key.backspace	n/a
238.7105	0.09	477421	keystroke_Key.backspace	Key.backspace	n/a
238.9055	0.075	477811	keystroke_i	i	n/a
239.1155	0.09	478231	keystroke_t	t	n/a
239.3555	0.09	478711	keystroke_o	o	n/a
239.4755	0.075	478951	keystroke_r	r	n/a
239.6705	0.09	479341	keystroke_s	s	n/a
239.7765	0.104	479553	keystroke_Key.space	Key.space	n/a
240.2705	0.045	480541	keystroke_s	s	n/a
240.6455	0.09	481291	keystroke_Key.backspace	Key.backspace	n/a
240.7505	0.105	481501	keystroke_d	d	n/a
240.8255	0.075	481651	keystroke_e	e	n/a
241.0055	0.09	482011	keystroke_s	s	n/a
241.3505	0.075	482701	keystroke_p	p	n/a
241.4705	0.135	482941	keystroke_e	e	n/a
241.5905	0.075	483181	keystroke_r	r	n/a
241.6955	0.09	483391	keystroke_a	a	n/a
241.8455	0.075	483691	keystroke_t	t	n/a
241.9355	0.06	483871	keystroke_e	e	n/a
242.0705	0.09	484141	keystroke_Key.enter	Key.enter	n/a
242.1665	11.621	484333	prompt	n/a	judgment winners description generates\n
243.4355	0.075	486871	keystroke_j	j	n/a
243.5855	0.09	487171	keystroke_u	u	n/a
243.7055	0.09	487411	keystroke_d	d	n/a
244.9505	0.075	489901	keystroke_g	g	n/a
245.0855	0.09	490171	keystroke_m	m	n/a
245.2355	0.105	490471	keystroke_e	e	n/a
245.3555	0.09	490711	keystroke_n	n	n/a
245.4305	0.075	490861	keystroke_t	t	n/a
245.5505	0.075	491101	keystroke_Key.space	Key.space	n/a
245.9705	0.0895	491941	keystroke_v	v	n/a
246.045	0.1205	492090	keystroke_i	i	n/a
246.1055	0.075	492211	keystroke_n	n	n/a
246.6155	0.045	493231	keystroke_Key.backspace	Key.backspace	n/a
246.7655	0.0595	493531	keystroke_Key.backspace	Key.backspace	n/a
247.1255	0.06	494251	keystroke_Key.backspace	Key.backspace	n/a
247.335	0.075	494670	keystroke_w	w	n/a
247.44	0.0905	494880	keystroke_i	i	n/a
247.485	0.12	494970	keystroke_n	n	n/a
247.56	0.105	495120	keystroke_e	e	n/a
247.89	0.12	495780	keystroke_e	e	n/a
248.475	0.06	496950	keystroke_Key.backspace	Key.backspace	n/a
248.8055	0.045	497611	keystroke_Key.backspace	Key.backspace	n/a
249.0605	0.1195	498121	keystroke_n	n	n/a
249.135	0.12	498270	keystroke_e	e	n/a
249.225	0.09	498450	keystroke_r	r	n/a
249.345	0.09	498690	keystroke_s	s	n/a
249.45	0.09	498900	keystroke_Key.space	Key.space	n/a
249.645	0.105	499290	keystroke_d	d	n/a
249.795	0.105	499590	keystroke_e	e	n/a
249.99	0.105	499980	keystroke_s	s	n/a
250.155	0.075	500310	keystroke_c	c	n/a
250.38	0.105	500760	keystroke_r	r	n/a
250.965	0.12	501930	keystroke_i	i	n/a
251.04	0.12	502080	keystroke_p	p	n/a
251.19	0.075	502380	keystroke_t	t	n/a
251.28	0.12	502560	keystroke_i	i	n/a
251.445	0.105	502890	keystroke_o	o	n/a
251.535	0.075	503070	keystroke_n	n	n/a
251.88	0.105	503760	keystroke_Key.space	Key.space	n/a
252.18	0.045	504360	keystroke_r	r	n/a
252.435	0.09	504870	keystroke_Key.backspace	Key.backspace	n/a
252.495	0.075	504990	keystroke_g	g	n/a
252.6	0.075	505200	keystroke_e	e	n/a
252.72	0.075	505440	keystroke_n	n	n/a
252.81	0.105	505620	keystroke_e	e	n/a
252.9	0.09	505800	keystroke_r	r	n/a
253.02	0.09	506040	keystroke_a	a	n/a
253.17	0.06	506340	keystroke_t	t	n/a
253.44	0.045	506880	keystroke_e	e	n/a
253.59	0.075	507180	keystroke_s	s	n/a
253.6955	0.09	507391	keystroke_Key.enter	Key.enter	n/a
253.7965	6.846	507593	prompt	n/a	unexpected facts warming jpeg\n
254.5955	0.12	509191	keystroke_u	u	n/a
254.6705	0.105	509341	keystroke_n	n	n/a
255.3155	0.06	510631	keystroke_e	e	n/a
255.4955	0.075	510991	keystroke_x	x	n/a
255.705	0.091	511410	keystroke_p	p	n/a
255.825	0.091	511650	keystroke_e	e	n/a
255.93	0.091	511860	keystroke_c	c	n/a
256.11	0.076	512220	keystroke_t	t	n/a
256.216	0.135	512432	keystroke_e	e	n/a
256.306	0.105	512612	keystroke_d	d	n/a
256.44	0.09	512880	keystroke_Key.space	Key.space	n/a
256.756	0.075	513512	keystroke_f	f	n/a
256.921	0.074	513842	keystroke_a	a	n/a
257.071	0.06	514142	keystroke_c	c	n/a
257.311	0.089	514622	keystroke_t	t	n/a
257.475	0.106	514950	keystroke_s	s	n/a
257.611	0.104	515222	keystroke_Key.space	Key.space	n/a
257.9555	0.0895	515911	keystroke_w	w	n/a
258.135	0.06	516270	keystroke_a	a	n/a
258.196	0.089	516392	keystroke_r	r	n/a
258.615	0.135	517230	keystroke_m	m	n/a
258.825	0.12	517650	keystroke_i	i	n/a
258.9	0.1055	517800	keystroke_n	n	n/a
259.155	0.09	518310	keystroke_g	g	n/a
259.365	0.105	518730	keystroke_Key.space	Key.space	n/a
259.996	0.105	519992	keystroke_j	j	n/a
260.146	0.075	520292	keystroke_p	p	n/a
260.281	0.075	520562	keystroke_e	e	n/a
260.386	0.075	520772	keystroke_g	g	n/a
260.566	0.075	521132	keystroke_Key.enter	Key.enter	n/a
260.6465	6.476	521293	prompt	n/a	false educated railroad finally\n
261.181	0.09	522362	keystroke_f	f	n/a
261.316	0.105	522632	keystroke_a	a	n/a
261.406	0.09	522812	keystroke_l	l	n/a
261.526	0.06	523052	keystroke_s	s	n/a
261.676	0.06	523352	keystroke_e	e	n/a
261.78	0.075	523560	keystroke_Key.space	Key.space	n/a
261.99	0.015	523980	keystroke_c	c	n/a
262.275	0.075	524550	keystroke_Key.backspace	Key.backspace	n/a
262.321	0.104	524642	keystroke_e	e	n/a
262.38	0.091	524760	keystroke_d	d	n/a
262.485	0.09	524970	keystroke_u	u	n/a
262.591	0.089	525182	keystroke_c	c	n/a
262.8	0.091	525600	keystroke_a	a	n/a
262.966	0.074	525932	keystroke_t	t	n/a
263.055	0.09	526110	keystroke_i	i	n/a
263.58	0.09	527160	keystroke_Key.backspace	Key.backspace	n/a
263.686	0.09	527372	keystroke_e	e	n/a
263.746	0.09	527492	keystroke_d	d	n/a
263.896	0.075	527792	keystroke_Key.space	Key.space	n/a
264.406	0.09	528812	keystroke_r	r	n/a
264.631	0.075	529262	keystroke_a	a	n/a
264.751	0.15	529502	keystroke_i	i	n/a
264.871	0.09	529742	keystroke_l	l	n/a
265.201	0.075	530402	keystroke_r	r	n/a
265.321	0.075	530642	keystroke_o	o	n/a
265.411	0.09	530822	keystroke_a	a	n/a
265.516	0.09	531032	keystroke_d	d	n/a
265.636	0.09	531272	keystroke_Key.space	Key.space	n/a
266.056	0.06	532112	keystroke_f	f	n/a
266.221	0.135	532442	keystroke_a	a	n/a
266.326	0.045	532652	keystroke_m	m	n/a
266.521	0.15	533042	keystroke_i	i	n/a
266.626	0.12	533252	keystroke_l	l	n/a
266.761	0.09	533522	keystroke_y	y	n/a
267.046	0.075	534092	keystroke_Key.enter	Key.enter	n/a
267.126	10.6765	534252	prompt	n/a	mumbai reservoir lincoln oracle\n
267.736	0.09	535472	keystroke_m	m	n/a
267.946	0.06	535892	keystroke_u	u	n/a
268.096	0.105	536192	keystroke_m	m	n/a
268.306	0.075	536612	keystroke_b	b	n/a
268.426	0.075	536852	keystroke_a	a	n/a
268.576	0.075	537152	keystroke_i	i	n/a
268.711	0.105	537422	keystroke_Key.space	Key.space	n/a
268.966	0.105	537932	keystroke_r	r	n/a
269.461	0.075	538922	keystroke_s	s	n/a
269.641	0.105	539282	keystroke_e	e	n/a
269.731	0.075	539462	keystroke_r	r	n/a
269.971	0.075	539942	keystroke_v	v	n/a
270.721	0.06	541442	keystroke_Key.backspace	Key.backspace	n/a
270.871	0.075	541742	keystroke_Key.backspace	Key.backspace	n/a
271.276	0.045	542552	keystroke_Key.backspace	Key.backspace	n/a
271.561	0.075	543122	keystroke_Key.backspace	Key.backspace	n/a
272.281	0.06	544562	keystroke_e	e	n/a
272.386	0.045	544772	keystroke_e	e	n/a
272.536	0.075	545072	keystroke_s	s	n/a
272.716	0.075	545432	keystroke_e	e	n/a
272.776	0.075	545552	keystroke_r	r	n/a
272.956	0.09	545912	keystroke_v	v	n/a
273.721	0.12	547442	keystroke_o	o	n/a
273.961	0.0895	547922	keystroke_i	i	n/a
274.1105	0.075	548221	keystroke_r	r	n/a
274.2755	0.0905	548551	keystroke_Key.space	Key.space	n/a
274.696	0.1495	549392	keystroke_l	l	n/a
274.7855	0.105	549571	keystroke_i	i	n/a
274.996	0.075	549992	keystroke_n	n	n/a
275.0855	0.09	550171	keystroke_c	c	n/a
275.431	0.105	550862	keystroke_o	o	n/a
275.7005	0.12	551401	keystroke_l	l	n/a
275.776	0.1045	551552	keystroke_n	n	n/a
275.9855	0.12	551971	keystroke_Key.space	Key.space	n/a
276.4505	0.09	552901	keystroke_o	o	n/a
276.6305	0.09	553261	keystroke_r	r	n/a
276.7655	0.09	553531	keystroke_a	a	n/a
276.9305	0.09	553861	keystroke_c	c	n/a
277.081	0.12	554162	keystroke_l	l	n/a
277.3055	0.075	554611	keystroke_e	e	n/a
277.7255	0.075	555451	keystroke_Key.enter	Key.enter	n/a
277.807	9.745	555614	prompt	n/a	focused courses rack informational\n
278.4755	0.09	556951	keystroke_f	f	n/a
278.5805	0.105	557161	keystroke_o	o	n/a
278.7755	0.09	557551	keystroke_c	c	n/a
278.8805	0.075	557761	keystroke_u	u	n/a
279.2255	0.06	558451	keystroke_e	e	n/a
279.3905	0.09	558781	keystroke_s	s	n/a
279.496	0.1045	558992	keystroke_Key.space	Key.space	n/a
279.871	0.075	559742	keystroke_c	c	n/a
279.961	0.105	559922	keystroke_o	o	n/a
279.991	0.12	559982	keystroke_u	u	n/a
280.126	0.09	560252	keystroke_r	r	n/a
280.381	0.074	560762	keystroke_s	s	n/a
282.3305	0.09	564661	keystroke_e	e	n/a
282.6155	0.09	565231	keystroke_s	s	n/a
282.8105	0.105	565621	keystroke_Key.space	Key.space	n/a
283.1555	0.075	566311	keystroke_f	f	n/a
283.4405	0.075	566881	keystroke_Key.backspace	Key.backspace	n/a
283.5315	0.044	567063	keystroke_r	r	n/a
283.6205	0.075	567241	keystroke_a	a	n/a
283.7705	0.075	567541	keystroke_c	c	n/a
283.8155	0.12	567631	keystroke_k	k	n/a
283.9355	0.12	567871	keystroke_Key.space	Key.space	n/a
284.2205	0.12	568441	keystroke_i	i	n/a
284.2955	0.105	568591	keystroke_n	n	n/a
284.4305	0.075	568861	keystroke_f	f	n/a
284.6105	0.075	569221	keystroke_r	r	n/a
284.7305	0.12	569461	keystroke_o	o	n/a
284.7905	0.09	569581	keystroke_m	m	n/a
284.8655	0.075	569731	keystroke_a	a	n/a
285.0155	0.06	570031	keystroke_t	t	n/a
285.1955	0.09	570391	keystroke_i	i	n/a
285.3755	0.15	570751	keystroke_o	o	n/a
286.681	0.09	573362	keystroke_n	n	n/a
286.831	0.105	573662	keystroke_a	a	n/a
287.206	0.09	574412	keystroke_l	l	n/a
287.476	0.074	574952	keystroke_Key.enter	Key.enter	n/a
287.556	5.5765	575112	prompt	n/a	periods process hunt fairfield\n
288.121	0.119	576242	keystroke_p	p	n/a
288.3	0.076	576600	keystroke_e	e	n/a
288.36	0.09	576720	keystroke_r	r	n/a
288.465	0.12	576930	keystroke_i	i	n/a
288.57	0.106	577140	keystroke_o	o	n/a
288.705	0.09	577410	keystroke_d	d	n/a
288.78	0.105	577560	keystroke_s	s	n/a
288.9	0.09	577800	keystroke_Key.space	Key.space	n/a
289.14	0.075	578280	keystroke_p	p	n/a
289.23	0.075	578460	keystroke_r	r	n/a
289.335	0.09	578670	keystroke_o	o	n/a
289.471	0.104	578942	keystroke_c	c	n/a
289.62	0.075	579240	keystroke_e	e	n/a
289.8	0.045	579600	keystroke_s	s	n/a
289.95	0.06	579900	keystroke_s	s	n/a
290.085	0.09	580170	keystroke_Key.space	Key.space	n/a
290.325	0.12	580650	keystroke_h	h	n/a
290.46	0.106	580920	keystroke_u	u	n/a
290.745	0.09	581490	keystroke_n	n	n/a
290.85	0.075	581700	keystroke_t	t	n/a
290.94	0.09	581880	keystroke_Key.space	Key.space	n/a
291.21	0.061	582420	keystroke_f	f	n/a
291.36	0.09	582720	keystroke_a	a	n/a
291.57	0.12	583140	keystroke_i	i	n/a
291.7355	0.09	583471	keystroke_r	r	n/a
292.0955	0.09	584191	keystroke_f	f	n/a
292.1705	0.12	584341	keystroke_i	i	n/a
292.6355	0.09	585271	keystroke_e	e	n/a
292.7405	0.09	585481	keystroke_l	l	n/a
292.8605	0.09	585721	keystroke_d	d	n/a
293.0405	0.09	586081	keystroke_Key.enter	Key.enter	n/a
293.1395	7.688	586279	prompt	n/a	stat autumn surprised fresh\n
293.6105	0.09	587221	keystroke_s	s	n/a
293.7305	0.0605	587461	keystroke_t	t	n/a
293.836	0.09	587672	keystroke_a	a	n/a
293.956	0.09	587912	keystroke_t	t	n/a
294.136	0.089	588272	keystroke_Key.space	Key.space	n/a
294.286	0.105	588572	keystroke_a	a	n/a
294.556	0.119	589112	keystroke_u	u	n/a
294.751	0.09	589502	keystroke_t	t	n/a
295.125	0.106	590250	keystroke_u	u	n/a
295.366	0.12	590732	keystroke_m	m	n/a
295.591	0.075	591182	keystroke_n	n	n/a
295.711	0.105	591422	keystroke_Key.space	Key.space	n/a
296.146	0.059	592292	keystroke_s	s	n/a
296.311	0.09	592622	keystroke_u	u	n/a
296.506	0.105	593012	keystroke_r	r	n/a
296.896	0.09	593792	keystroke_p	p	n/a
297.151	0.09	594302	keystroke_i	i	n/a
297.511	0.075	595022	keystroke_r	r	n/a
297.645	0.09	595290	keystroke_s	s	n/a
298.081	0.09	596162	keystroke_Key.backspace	Key.backspace	n/a
298.831	0.075	597662	keystroke_Key.backspace	Key.backspace	n/a
299.025	0.075	598050	keystroke_Key.backspace	Key.backspace	n/a
299.146	0.075	598292	keystroke_r	r	n/a
299.266	0.105	598532	keystroke_i	i	n/a
299.416	0.06	598832	keystroke_s	s	n/a
299.581	0.075	599162	keystroke_e	e	n/a
299.626	0.105	599252	keystroke_d	d	n/a
299.701	0.075	599402	keystroke_Key.space	Key.space	n/a
299.941	0.06	599882	keystroke_f	f	n/a
300.196	0.09	600392	keystroke_r	r	n/a
300.271	0.075	600542	keystroke_e	e	n/a
300.436	0.075	600872	keystroke_s	s	n/a
300.526	0.075	601052	keystroke_h	h	n/a
300.751	0.074	601502	keystroke_Key.enter	Key.enter	n/a
300.832	9.1465	601664	prompt	n/a	privileges compensation paperbacks crafts\n
301.471	0.09	602942	keystroke_p	p	n/a
301.605	0.061	603210	keystroke_r	r	n/a
301.696	0.12	603392	keystroke_i	i	n/a
301.861	0.075	603722	keystroke_v	v	n/a
302.161	0.075	604322	keystroke_l	l	n/a
302.581	0.075	605162	keystroke_e	e	n/a
303.091	0.06	606182	keystroke_g	g	n/a
303.181	0.09	606362	keystroke_e	e	n/a
303.391	0.09	606782	keystroke_s	s	n/a
303.496	0.09	606992	keystroke_Key.space	Key.space	n/a
304.276	0.09	608552	keystroke_c	c	n/a
304.366	0.045	608732	keystroke_o	o	n/a
304.381	0.105	608762	keystroke_m	m	n/a
304.801	0.09	609602	keystroke_p	p	n/a
304.996	0.075	609992	keystroke_e	e	n/a
305.086	0.09	610172	keystroke_n	n	n/a
305.191	0.09	610382	keystroke_s	s	n/a
305.356	0.09	610712	keystroke_a	a	n/a
305.491	0.075	610982	keystroke_t	t	n/a
305.536	0.09	611072	keystroke_i	i	n/a
305.611	0.135	611222	keystroke_o	o	n/a
305.791	0.12	611582	keystroke_Key.space	Key.space	n/a
306.226	0.075	612452	keystroke_Key.backspace	Key.backspace	n/a
306.676	0.12	613352	keystroke_n	n	n/a
306.841	0.09	613682	keystroke_Key.space	Key.space	n/a
307.021	0.12	614042	keystroke_p	p	n/a
307.156	0.06	614312	keystroke_a	a	n/a
307.231	0.075	614462	keystroke_p	p	n/a
307.336	0.12	614672	keystroke_e	e	n/a
307.441	0.06	614882	keystroke_r	r	n/a
307.786	0.075	615572	keystroke_b	b	n/a
307.862	0.074	615724	keystroke_a	a	n/a
308.011	0.075	616022	keystroke_c	c	n/a
308.071	0.105	616142	keystroke_k	k	n/a
308.206	0.09	616412	keystroke_s	s	n/a
308.356	0.075	616712	keystroke_Key.space	Key.space	n/a
309.001	0.075	618002	keystroke_c	c	n/a
309.166	0.075	618332	keystroke_r	r	n/a
309.286	0.075	618572	keystroke_a	a	n/a
309.436	0.09	618872	keystroke_f	f	n/a
309.631	0.06	619262	keystroke_t	t	n/a
309.751	0.075	619502	keystroke_s	s	n/a
309.871	0.105	619742	keystroke_Key.enter	Key.enter	n/a
309.9845	5.303	619969	prompt	n/a	moves software blade books\n
310.576	0.12	621152	keystroke_m	m	n/a
310.726	0.075	621452	keystroke_o	o	n/a
310.786	0.075	621572	keystroke_v	v	n/a
310.891	0.075	621782	keystroke_e	e	n/a
311.071	0.09	622142	keystroke_s	s	n/a
311.161	0.075	622322	keystroke_Key.space	Key.space	n/a
311.341	0.105	622682	keystroke_s	s	n/a
311.461	0.075	622922	keystroke_o	o	n/a
311.551	0.06	623102	keystroke_f	f	n/a
311.701	0.09	623402	keystroke_t	t	n/a
311.836	0.09	623672	keystroke_w	w	n/a
312.031	0.06	624062	keystroke_a	a	n/a
312.106	0.15	624212	keystroke_r	r	n/a
312.271	0.105	624542	keystroke_e	e	n/a
312.406	0.105	624812	keystroke_Key.space	Key.space	n/a
312.736	0.06	625472	keystroke_b	b	n/a
312.961	0.075	625922	keystroke_a	a	n/a
313.441	0.06	626882	keystroke_Key.backspace	Key.backspace	n/a
313.621	0.0895	627242	keystroke_l	l	n/a
313.7255	0.0455	627451	keystroke_a	a	n/a
313.8755	0.09	627751	keystroke_d	d	n/a
313.9055	0.105	627811	keystroke_e	e	n/a
314.0255	0.0905	628051	keystroke_Key.space	Key.space	n/a
314.5805	0.105	629161	keystroke_b	b	n/a
314.7005	0.06	629401	keystroke_o	o	n/a
314.8205	0.12	629641	keystroke_o	o	n/a
314.926	0.1045	629852	keystroke_k	k	n/a
315.0455	0.075	630091	keystroke_s	s	n/a
315.2105	0.075	630421	keystroke_Key.enter	Key.enter	n/a
315.2915	5.172	630583	prompt	n/a	throwing trial deer guardian\n
315.871	0.075	631742	keystroke_t	t	n/a
315.961	0.12	631922	keystroke_h	h	n/a
316.261	0.09	632522	keystroke_r	r	n/a
316.366	0.105	632732	keystroke_o	o	n/a
316.456	0.075	632912	keystroke_w	w	n/a
316.591	0.09	633182	keystroke_i	i	n/a
316.651	0.09	633302	keystroke_n	n	n/a
316.726	0.075	633452	keystroke_g	g	n/a
316.831	0.09	633662	keystroke_Key.space	Key.space	n/a
317.281	0.06	634562	keystroke_t	t	n/a
317.461	0.045	634922	keystroke_r	r	n/a
317.611	0.0905	635222	keystroke_i	i	n/a
317.7015	0.1045	635403	keystroke_a	a	n/a
317.851	0.045	635702	keystroke_l	l	n/a
317.941	0.105	635882	keystroke_Key.space	Key.space	n/a
318.166	0.09	636332	keystroke_d	d	n/a
318.331	0.06	636662	keystroke_e	e	n/a
318.481	0.105	636962	keystroke_e	e	n/a
318.691	0.09	637382	keystroke_r	r	n/a
318.871	0.09	637742	keystroke_Key.space	Key.space	n/a
319.186	0.045	638372	keystroke_g	g	n/a
319.291	0.09	638582	keystroke_u	u	n/a
319.426	0.09	638852	keystroke_a	a	n/a
319.531	0.06	639062	keystroke_r	r	n/a
319.7405	0.075	639481	keystroke_d	d	n/a
319.9955	0.09	639991	keystroke_i	i	n/a
320.1305	0.075	640261	keystroke_a	a	n/a
320.1915	0.074	640383	keystroke_n	n	n/a
320.3855	0.075	640771	keystroke_Key.enter	Key.enter	n/a
320.469	9.234	640938	prompt	n/a	bookmark doug ethnic concerts\n
321.1655	0.09	642331	keystroke_b	b	n/a
321.3305	0.075	642661	keystroke_o	o	n/a
321.4805	0.15	642961	keystroke_o	o	n/a
321.6455	0.1355	643291	keystroke_k	k	n/a
321.916	0.09	643832	keystroke_m	m	n/a
322.066	0.09	644132	keystroke_a	a	n/a
322.276	0.09	644552	keystroke_r	r	n/a
322.381	0.09	644762	keystroke_k	k	n/a
322.606	0.06	645212	keystroke_Key.space	Key.space	n/a
322.801	0.09	645602	keystroke_d	d	n/a
322.936	0.12	645872	keystroke_o	o	n/a
322.996	0.105	645992	keystroke_u	u	n/a
323.116	0.09	646232	keystroke_g	g	n/a
323.3105	0.06	646621	keystroke_Key.space	Key.space	n/a
323.581	0.1195	647162	keystroke_e	e	n/a
323.7455	0.015	647491	keystroke_h	h	n/a
323.7905	0.091	647581	keystroke_t	t	n/a
324.6915	0.044	649383	keystroke_=	=	n/a
324.8565	0.029	649713	keystroke_=	=	n/a
324.9305	0.06	649861	keystroke_t	t	n/a
325.4855	0.06	650971	keystroke_Key.backspace	Key.backspace	n/a
325.7555	0.06	651511	keystroke_Key.backspace	Key.backspace	n/a
325.9655	0.06	651931	keystroke_Key.backspace	Key.backspace	n/a
326.2805	0.075	652561	keystroke_Key.backspace	Key.backspace	n/a
326.6255	0.075	653251	keystroke_Key.backspace	Key.backspace	n/a
326.8065	0.059	653613	keystroke_t	t	n/a
326.8815	0.12	653763	keystroke_h	h	n/a
327.3915	0.12	654783	keystroke_n	n	n/a
327.5265	0.09	655053	keystroke_i	i	n/a
327.5865	0.09	655173	keystroke_c	c	n/a
327.7655	0.09	655531	keystroke_Key.space	Key.space	n/a
328.0955	0.106	656191	keystroke_c	c	n/a
328.1715	0.09	656343	keystroke_o	o	n/a
328.2165	0.06	656433	keystroke_u	u	n/a
328.5905	0.075	657181	keystroke_Key.backspace	Key.backspace	n/a
328.7865	0.075	657573	keystroke_n	n	n/a
328.8315	0.09	657663	keystroke_c	c	n/a
328.9665	0.135	657933	keystroke_e	e	n/a
329.0565	0.104	658113	keystroke_r	r	n/a
329.3105	0.061	658621	keystroke_t	t	n/a
329.4165	0.105	658833	keystroke_s	s	n/a
329.6105	0.09	659221	keystroke_Key.enter	Key.enter	n/a
329.7085	6.834	659417	prompt	n/a	finnish batman clothes fill\n
330.3765	0.105	660753	keystroke_f	f	n/a
330.5105	0.09	661021	keystroke_i	i	n/a
330.5715	0.089	661143	keystroke_n	n	n/a
330.7515	0.105	661503	keystroke_n	n	n/a
331.0065	0.09	662013	keystroke_i	i	n/a
331.2165	0.09	662433	keystroke_s	s	n/a
331.3065	0.105	662613	keystroke_h	h	n/a
331.4255	0.12	662851	keystroke_Key.space	Key.space	n/a
331.5915	0.105	663183	keystroke_b	b	n/a
331.6805	0.076	663361	keystroke_a	a	n/a
331.8005	0.076	663601	keystroke_t	t	n/a
332.0415	0.075	664083	keystroke_m	m	n/a
332.1455	0.12	664291	keystroke_a	a	n/a
332.3265	0.075	664653	keystroke_n	n	n/a
332.3855	0.121	664771	keystroke_Key.space	Key.space	n/a
332.6265	0.075	665253	keystroke_c	c	n/a
332.7465	0.12	665493	keystroke_i	i	n/a
333.1815	0.075	666363	keystroke_Key.backspace	Key.backspace	n/a
333.4065	0.135	666813	keystroke_l	l	n/a
333.5265	0.105	667053	keystroke_i	i	n/a
333.6765	0.09	667353	keystroke_t	t	n/a
333.7955	0.091	667591	keystroke_h	h	n/a
334.245	0.09	668490	keystroke_Key.backspace	Key.backspace	n/a
334.531	0.059	669062	keystroke_Key.backspace	Key.backspace	n/a
334.756	0.089	669512	keystroke_Key.backspace	Key.backspace	n/a
334.996	0.1055	669992	keystroke_o	o	n/a
335.206	0.06	670412	keystroke_t	t	n/a
335.281	0.105	670562	keystroke_h	h	n/a
335.446	0.075	670892	keystroke_e	e	n/a
335.626	0.06	671252	keystroke_s	s	n/a
335.715	0.061	671430	keystroke_Key.space	Key.space	n/a
335.866	0.06	671732	keystroke_f	f	n/a
335.911	0.104	671822	keystroke_i	i	n/a
336.046	0.09	672092	keystroke_l	l	n/a
336.211	0.09	672422	keystroke_l	l	n/a
336.481	0.059	672962	keystroke_Key.enter	Key.enter	n/a
336.548	8.8145	673096	prompt	n/a	basketball louisville editorial undertake\n
337.186	0.06	674372	keystroke_b	b	n/a
337.366	0.105	674732	keystroke_a	a	n/a
337.411	0.105	674822	keystroke_s	s	n/a
337.531	0.105	675062	keystroke_k	k	n/a
337.681	0.135	675362	keystroke_e	e	n/a
337.816	0.075	675632	keystroke_t	t	n/a
337.996	0.075	675992	keystroke_b	b	n/a
338.086	0.09	676172	keystroke_a	a	n/a
338.206	0.045	676412	keystroke_l	l	n/a
338.326	0.09	676652	keystroke_l	l	n/a
338.446	0.075	676892	keystroke_Key.space	Key.space	n/a
338.821	0.12	677642	keystroke_l	l	n/a
339.046	0.12	678092	keystroke_o	o	n/a
339.121	0.12	678242	keystroke_u	u	n/a
339.376	0.06	678752	keystroke_s	s	n/a
339.706	0.089	679412	keystroke_Key.backspace	Key.backspace	n/a
339.781	0.105	679562	keystroke_i	i	n/a
339.901	0.09	679802	keystroke_s	s	n/a
340.216	0.09	680432	keystroke_v	v	n/a
340.291	0.09	680582	keystroke_i	i	n/a
340.411	0.075	680822	keystroke_l	l	n/a
340.561	0.09	681122	keystroke_l	l	n/a
340.696	0.075	681392	keystroke_e	e	n/a
340.846	0.075	681692	keystroke_Key.space	Key.space	n/a
341.176	0.12	682352	keystroke_e	e	n/a
341.266	0.09	682532	keystroke_d	d	n/a
341.371	0.09	682742	keystroke_i	i	n/a
341.626	0.09	683252	keystroke_t	t	n/a
342.661	0.09	685322	keystroke_o	o	n/a
342.781	0.09	685562	keystroke_r	r	n/a
342.901	0.09	685802	keystroke_i	i	n/a
343.306	0.09	686612	keystroke_a	a	n/a
343.411	0.09	686822	keystroke_l	l	n/a
343.606	0.1195	687212	keystroke_Key.space	Key.space	n/a
343.9805	0.075	687961	keystroke_u	u	n/a
344.1605	0.09	688321	keystroke_n	n	n/a
344.2355	0.105	688471	keystroke_d	d	n/a
344.2955	0.166	688591	keystroke_e	e	n/a
344.4755	0.105	688951	keystroke_r	r	n/a
344.7455	0.075	689491	keystroke_t	t	n/a
344.8805	0.105	689761	keystroke_a	a	n/a
345.0005	0.12	690001	keystroke_k	k	n/a
345.0905	0.075	690181	keystroke_e	e	n/a
345.2705	0.09	690541	keystroke_Key.enter	Key.enter	n/a
345.3675	7.045	690735	prompt	n/a	electronic architect kill license\n
346.1105	0.12	692221	keystroke_e	e	n/a
346.3355	0.075	692671	keystroke_l	l	n/a
346.4555	0.105	692911	keystroke_e	e	n/a
346.5905	0.105	693181	keystroke_c	c	n/a
346.8005	0.06	693601	keystroke_t	t	n/a
347.1605	0.09	694321	keystroke_r	r	n/a
347.2355	0.135	694471	keystroke_o	o	n/a
347.3405	0.105	694681	keystroke_n	n	n/a
347.4755	0.06	694951	keystroke_i	i	n/a
347.5355	0.105	695071	keystroke_c	c	n/a
347.6855	0.0605	695371	keystroke_Key.space	Key.space	n/a
347.971	0.075	695942	keystroke_a	a	n/a
348.121	0.105	696242	keystroke_r	r	n/a
348.796	0.09	697592	keystroke_c	c	n/a
348.961	0.135	697922	keystroke_h	h	n/a
349.082	0.119	698164	keystroke_i	i	n/a
349.366	0.12	698732	keystroke_t	t	n/a
349.531	0.15	699062	keystroke_e	e	n/a
349.936	0.09	699872	keystroke_c	c	n/a
350.191	0.06	700382	keystroke_t	t	n/a
350.341	0.06	700682	keystroke_Key.space	Key.space	n/a
350.731	0.015	701462	keystroke_k	k	n/a
350.881	0.09	701762	keystroke_i	i	n/a
351.046	0.075	702092	keystroke_l	l	n/a
351.181	0.105	702362	keystroke_l	l	n/a
351.316	0.09	702632	keystroke_Key.space	Key.space	n/a
351.481	0.135	702962	keystroke_l	l	n/a
351.571	0.105	703142	keystroke_i	i	n/a
351.706	0.12	703412	keystroke_c	c	n/a
351.811	0.09	703622	keystroke_e	e	n/a
351.946	0.075	703892	keystroke_n	n	n/a
352.036	0.09	704072	keystroke_s	s	n/a
352.216	0.075	704432	keystroke_e	e	n/a
352.321	0.09	704642	keystroke_Key.enter	Key.enter	n/a
352.4175	4.5555	704835	prompt	n/a	delayed arab hoping idol\n
352.951	0.12	705902	keystroke_d	d	n/a
353.056	0.105	706112	keystroke_e	e	n/a
353.191	0.09	706382	keystroke_l	l	n/a
353.326	0.075	706652	keystroke_a	a	n/a
353.416	0.075	706832	keystroke_y	y	n/a
353.521	0.075	707042	keystroke_e	e	n/a
353.566	0.09	707132	keystroke_d	d	n/a
353.701	0.0895	707402	keystroke_Key.space	Key.space	n/a
353.9705	0.09	707941	keystroke_a	a	n/a
354.0905	0.076	708181	keystroke_r	r	n/a
354.1805	0.106	708361	keystroke_a	a	n/a
354.3005	0.076	708601	keystroke_b	b	n/a
354.4955	0.075	708991	keystroke_Key.space	Key.space	n/a
354.8415	0.074	709683	keystroke_h	h	n/a
355.0355	0.15	710071	keystroke_o	o	n/a
355.1405	0.12	710281	keystroke_p	p	n/a
355.4705	0.136	710941	keystroke_i	i	n/a
355.5455	0.12	711091	keystroke_n	n	n/a
355.6805	0.046	711361	keystroke_g	g	n/a
355.7705	0.075	711541	keystroke_Key.space	Key.space	n/a
355.9815	0.089	711963	keystroke_i	i	n/a
356.0565	0.075	712113	keystroke_d	d	n/a
356.3115	0.134	712623	keystroke_o	o	n/a
356.6405	0.12	713281	keystroke_l	l	n/a
356.8955	0.075	713791	keystroke_Key.enter	Key.enter	n/a
356.977	6.5055	713954	prompt	n/a	slave chairman effectively bedrooms\n
357.5715	0.06	715143	keystroke_s	s	n/a
357.7215	0.09	715443	keystroke_l	l	n/a
357.8255	0.06	715651	keystroke_a	a	n/a
357.9615	0.074	715923	keystroke_v	v	n/a
358.0505	0.091	716101	keystroke_e	e	n/a
358.1705	0.075	716341	keystroke_Key.space	Key.space	n/a
358.3655	0.061	716731	keystroke_c	c	n/a
358.4405	0.105	716881	keystroke_h	h	n/a
358.5305	0.075	717061	keystroke_a	a	n/a
358.6205	0.09	717241	keystroke_r	r	n/a
358.7255	0.091	717451	keystroke_i	i	n/a
359.1455	0.045	718291	keystroke_Key.backspace	Key.backspace	n/a
359.4305	0.075	718861	keystroke_Key.backspace	Key.backspace	n/a
359.6565	0.0895	719313	keystroke_i	i	n/a
359.761	0.074	719522	keystroke_r	r	n/a
359.971	0.1045	719942	keystroke_m	m	n/a
360.0915	0.1345	720183	keystroke_a	a	n/a
360.195	0.105	720390	keystroke_n	n	n/a
360.3155	0.1045	720631	keystroke_Key.space	Key.space	n/a
360.556	0.074	721112	keystroke_e	e	n/a
360.675	0.09	721350	keystroke_f	f	n/a
360.87	0.09	721740	keystroke_f	f	n/a
361.021	0.09	722042	keystroke_e	e	n/a
361.08	0.09	722160	keystroke_c	c	n/a
361.276	0.0445	722552	keystroke_t	t	n/a
361.336	0.075	722672	keystroke_i	i	n/a
361.4255	0.0895	722851	keystroke_v	v	n/a
361.53	0.105	723060	keystroke_e	e	n/a
361.62	0.09	723240	keystroke_l	l	n/a
361.77	0.045	723540	keystroke_y	y	n/a
361.98	0.015	723960	keystroke_Key.space	Key.space	n/a
362.251	0.105	724502	keystroke_b	b	n/a
362.341	0.119	724682	keystroke_e	e	n/a
362.43	0.12	724860	keystroke_d	d	n/a
362.82	0.09	725640	keystroke_r	r	n/a
362.97	0.075	725940	keystroke_o	o	n/a
363.106	0.12	726212	keystroke_o	o	n/a
363.195	0.106	726390	keystroke_m	m	n/a
363.256	0.075	726512	keystroke_s	s	n/a
363.405	0.075	726810	keystroke_Key.enter	Key.enter	n/a
363.4865	5.666	726973	prompt	n/a	maintains credits medication commander\n
364.066	0.089	728132	keystroke_m	m	n/a
364.111	0.104	728222	keystroke_a	a	n/a
364.306	0.105	728612	keystroke_i	i	n/a
364.381	0.105	728762	keystroke_n	n	n/a
364.606	0.075	729212	keystroke_t	t	n/a
364.785	0.075	729570	keystroke_a	a	n/a
364.816	0.089	729632	keystroke_i	i	n/a
364.876	0.059	729752	keystroke_n	n	n/a
364.98	0.09	729960	keystroke_s	s	n/a
365.085	0.06	730170	keystroke_Key.space	Key.space	n/a
365.371	0.075	730742	keystroke_c	c	n/a
365.551	0.075	731102	keystroke_r	r	n/a
365.641	0.12	731282	keystroke_e	e	n/a
365.716	0.104	731432	keystroke_d	d	n/a
365.821	0.074	731642	keystroke_i	i	n/a
365.911	0.075	731822	keystroke_t	t	n/a
366.016	0.075	732032	keystroke_s	s	n/a
366.12	0.075	732240	keystroke_Key.space	Key.space	n/a
366.3	0.091	732600	keystroke_m	m	n/a
366.526	0.105	733052	keystroke_e	e	n/a
366.601	0.09	733202	keystroke_d	d	n/a
366.736	0.089	733472	keystroke_i	i	n/a
366.841	0.06	733682	keystroke_c	c	n/a
366.946	0.075	733892	keystroke_a	a	n/a
367.081	0.045	734162	keystroke_t	t	n/a
367.095	0.076	734190	keystroke_i	i	n/a
367.201	0.12	734402	keystroke_o	o	n/a
367.276	0.089	734552	keystroke_n	n	n/a
367.38	0.09	734760	keystroke_Key.space	Key.space	n/a
367.53	0.091	735060	keystroke_m	m	n/a
367.815	0.061	735630	keystroke_Key.backspace	Key.backspace	n/a
367.877	0.074	735754	keystroke_c	c	n/a
367.996	0.075	735992	keystroke_o	o	n/a
368.026	0.059	736052	keystroke_m	m	n/a
368.161	0.09	736322	keystroke_m	m	n/a
368.596	0.09	737192	keystroke_a	a	n/a
368.686	0.074	737372	keystroke_n	n	n/a
368.761	0.09	737522	keystroke_d	d	n/a
368.895	0.076	737790	keystroke_e	e	n/a
368.956	0.075	737912	keystroke_r	r	n/a
369.061	0.09	738122	keystroke_Key.enter	Key.enter	n/a
369.159	6.579	738318	prompt	n/a	rising ratings competitions term\n
369.661	0.105	739322	keystroke_r	r	n/a
369.781	0.06	739562	keystroke_i	i	n/a
369.871	0.075	739742	keystroke_s	s	n/a
370.02	0.12	740040	keystroke_i	i	n/a
370.126	0.06	740252	keystroke_n	n	n/a
370.171	0.06	740342	keystroke_g	g	n/a
370.305	0.09	740610	keystroke_Key.space	Key.space	n/a
370.711	0.09	741422	keystroke_r	r	n/a
371.476	0.09	742952	keystroke_a	a	n/a
371.641	0.075	743282	keystroke_t	t	n/a
371.731	0.12	743462	keystroke_i	i	n/a
371.806	0.105	743612	keystroke_n	n	n/a
371.971	0.09	743942	keystroke_s	s	n/a
372.106	0.075	744212	keystroke_Key.space	Key.space	n/a
372.511	0.075	745022	keystroke_c	c	n/a
372.571	0.09	745142	keystroke_o	o	n/a
372.631	0.075	745262	keystroke_m	m	n/a
372.766	0.075	745532	keystroke_p	p	n/a
372.871	0.105	745742	keystroke_e	e	n/a
373.1715	0.075	746343	keystroke_t	t	n/a
373.2765	0.09	746553	keystroke_i	i	n/a
373.5915	0.075	747183	keystroke_t	t	n/a
373.6815	0.12	747363	keystroke_i	i	n/a
373.8165	0.12	747633	keystroke_o	o	n/a
373.8765	0.105	747753	keystroke_n	n	n/a
373.9665	0.075	747933	keystroke_s	s	n/a
374.1465	0.09	748293	keystroke_Key.space	Key.space	n/a
374.8965	0.105	749793	keystroke_t	t	n/a
375.0465	0.09	750093	keystroke_e	e	n/a
375.1215	0.075	750243	keystroke_r	r	n/a
375.2115	0.075	750423	keystroke_m	m	n/a
375.6465	0.089	751293	keystroke_Key.enter	Key.enter	n/a
375.742	7.6315	751484	prompt	n/a	appreciate amendment puts appliances\n
376.1865	0.09	752373	keystroke_a	a	n/a
376.2905	0.061	752581	keystroke_p	p	n/a
376.4265	0.09	752853	keystroke_p	p	n/a
376.5005	0.091	753001	keystroke_r	r	n/a
376.6365	0.105	753273	keystroke_e	e	n/a
376.7415	0.06	753483	keystroke_c	c	n/a
376.8465	0.089	753693	keystroke_i	i	n/a
376.9515	0.089	753903	keystroke_a	a	n/a
377.0855	0.105	754171	keystroke_t	t	n/a
377.1755	0.106	754351	keystroke_e	e	n/a
377.2955	0.09	754591	keystroke_Key.space	Key.space	n/a
377.5955	0.1205	755191	keystroke_a	a	n/a
377.732	0.074	755464	keystroke_m	m	n/a
377.836	0.075	755672	keystroke_e	e	n/a
377.941	0.075	755882	keystroke_n	n	n/a
378.301	0.075	756602	keystroke_d	d	n/a
378.496	0.09	756992	keystroke_m	m	n/a
378.631	0.09	757262	keystroke_e	e	n/a
378.706	0.075	757412	keystroke_n	n	n/a
378.811	0.075	757622	keystroke_t	t	n/a
378.901	0.075	757802	keystroke_Key.space	Key.space	n/a
379.141	0.151	758282	keystroke_p	p	n/a
379.261	0.12	758522	keystroke_u	u	n/a
379.366	0.06	758732	keystroke_t	t	n/a
379.456	0.075	758912	keystroke_s	s	n/a
379.606	0.075	759212	keystroke_Key.space	Key.space	n/a
379.861	0.045	759722	keystroke_a	a	n/a
380.041	0.09	760082	keystroke_p	p	n/a
380.207	0.119	760414	keystroke_p	p	n/a
380.296	0.09	760592	keystroke_l	l	n/a
380.492	0.0895	760984	keystroke_i	i	n/a
380.6255	0.0905	761251	keystroke_a	a	n/a
380.8205	0.075	761641	keystroke_c	c	n/a
380.9105	0.076	761821	keystroke_n	n	n/a
381.0005	0.0605	762001	keystroke_e	e	n/a
381.166	0.075	762332	keystroke_s	s	n/a
381.841	0.0745	763682	keystroke_Key.backspace	Key.backspace	n/a
382.0365	0.0445	764073	keystroke_Key.backspace	Key.backspace	n/a
382.276	0.06	764552	keystroke_Key.backspace	Key.backspace	n/a
382.471	0.06	764942	keystroke_Key.backspace	Key.backspace	n/a
382.756	0.075	765512	keystroke_n	n	n/a
382.891	0.105	765782	keystroke_c	c	n/a
383.041	0.075	766082	keystroke_e	e	n/a
383.206	0.105	766412	keystroke_s	s	n/a
383.312	0.059	766624	keystroke_Key.enter	Key.enter	n/a
383.379	7.374	766758	prompt	n/a	kept disk needn't stick\n
384.016	0.1055	768032	keystroke_k	k	n/a
384.1965	0.12	768393	keystroke_e	e	n/a
384.4365	0.075	768873	keystroke_p	p	n/a
384.8415	0.06	769683	keystroke_y	y	n/a
384.9165	0.104	769833	keystroke_Key.space	Key.space	n/a
385.1115	0.09	770223	keystroke_d	d	n/a
385.5015	0.059	771003	keystroke_Key.backspace	Key.backspace	n/a
385.7265	0.029	771453	keystroke_Key.backspace	Key.backspace	n/a
386.0105	0.061	772021	keystroke_Key.backspace	Key.backspace	n/a
386.0865	0.09	772173	keystroke_t	t	n/a
386.3105	0.105	772621	keystroke_Key.space	Key.space	n/a
386.5365	0.09	773073	keystroke_d	d	n/a
386.6415	0.105	773283	keystroke_i	i	n/a
386.7315	0.12	773463	keystroke_s	s	n/a
386.8515	0.09	773703	keystroke_k	k	n/a
386.9255	0.106	773851	keystroke_Key.space	Key.space	n/a
387.2115	0.06	774423	keystroke_n	n	n/a
387.2565	0.075	774513	keystroke_e	e	n/a
387.4215	0.12	774843	keystroke_e	e	n/a
387.4965	0.12	774993	keystroke_d	d	n/a
388.2615	0.075	776523	keystroke_'	'	n/a
389.0415	0.09	778083	keystroke_n	n	n/a
389.4465	0.135	778893	keystroke_t	t	n/a
389.8515	0.09	779703	keystroke_Key.space	Key.space	n/a
390.1665	0.06	780333	keystroke_s	s	n/a
390.2865	0.045	780573	keystroke_t	t	n/a
390.3165	0.09	780633	keystroke_i	i	n/a
390.4665	0.075	780933	keystroke_c	c	n/a
390.4965	0.105	780993	keystroke_k	k	n/a
390.6615	0.09	781323	keystroke_Key.enter	Key.enter	n/a
390.759	7.6595	781518	prompt	n/a	organizational dublin animal film\n
391.3815	0.09	782763	keystroke_o	o	n/a
391.4865	0.09	782973	keystroke_r	r	n/a
391.7565	0.06	783513	keystroke_g	g	n/a
391.9515	0.09	783903	keystroke_a	a	n/a
392.3115	0.135	784623	keystroke_n	n	n/a
392.4315	0.09	784863	keystroke_i	i	n/a
392.5365	0.06	785073	keystroke_z	z	n/a
392.7915	0.075	785583	keystroke_a	a	n/a
392.9415	0.075	785883	keystroke_t	t	n/a
393.0015	0.075	786003	keystroke_i	i	n/a
393.0915	0.12	786183	keystroke_o	o	n/a
393.1815	0.105	786363	keystroke_n	n	n/a
393.2715	0.105	786543	keystroke_Key.space	Key.space	n/a
393.9915	0.105	787983	keystroke_Key.backspace	Key.backspace	n/a
394.2765	0.09	788553	keystroke_a	a	n/a
394.3815	0.105	788763	keystroke_l	l	n/a
394.5615	0.09	789123	keystroke_Key.space	Key.space	n/a
394.8765	0.075	789753	keystroke_d	d	n/a
395.0265	0.09	790053	keystroke_u	u	n/a
395.1315	0.09	790263	keystroke_b	b	n/a
395.2665	0.12	790533	keystroke_l	l	n/a
395.3415	0.09	790683	keystroke_i	i	n/a
395.8815	0.075	791763	keystroke_n	n	n/a
396.0615	0.075	792123	keystroke_Key.space	Key.space	n/a
396.2565	0.075	792513	keystroke_a	a	n/a
396.3465	0.075	792693	keystroke_n	n	n/a
396.4665	0.12	792933	keystroke_i	i	n/a
396.5415	0.105	793083	keystroke_m	m	n/a
396.6315	0.105	793263	keystroke_a	a	n/a
396.7815	0.09	793563	keystroke_l	l	n/a
396.9465	0.09	793893	keystroke_Key.space	Key.space	n/a
397.3065	0.105	794613	keystroke_f	f	n/a
397.3515	0.12	794703	keystroke_i	i	n/a
397.4715	0.12	794943	keystroke_l	l	n/a
397.5915	0.06	795183	keystroke_k	k	n/a
398.0115	0.075	796023	keystroke_Key.backspace	Key.backspace	n/a
398.1615	0.075	796323	keystroke_m	m	n/a
398.3415	0.075	796683	keystroke_Key.enter	Key.enter	n/a
398.4225	7.9005	796845	prompt	n/a	virtue cloth purchases basket\n
399.0465	0.105	798093	keystroke_v	v	n/a
399.2565	0.09	798513	keystroke_r	r	n/a
399.3615	0.09	798723	keystroke_i	i	n/a
399.5865	0.075	799173	keystroke_t	t	n/a
399.7665	0.105	799533	keystroke_u	u	n/a
400.2615	0.06	800523	keystroke_Key.backspace	Key.backspace	n/a
400.3965	0.075	800793	keystroke_Key.backspace	Key.backspace	n/a
400.5615	0.09	801123	keystroke_Key.backspace	Key.backspace	n/a
400.9365	0.075	801873	keystroke_Key.backspace	Key.backspace	n/a
401.0715	0.105	802143	keystroke_i	i	n/a
401.1775	0.089	802355	keystroke_r	r	n/a
401.3415	0.06	802683	keystroke_u	u	n/a
401.6415	0.06	803283	keystroke_Key.backspace	Key.backspace	n/a
401.7015	0.075	803403	keystroke_t	t	n/a
401.8065	0.075	803613	keystroke_u	u	n/a
401.9415	0.06	803883	keystroke_e	e	n/a
402.0765	0.06	804153	keystroke_Key.space	Key.space	n/a
402.3915	0.06	804783	keystroke_c	c	n/a
402.4215	0.105	804843	keystroke_l	l	n/a
402.6315	0.075	805263	keystroke_o	o	n/a
402.7215	0.075	805443	keystroke_t	t	n/a
402.8415	0.09	805683	keystroke_h	h	n/a
403.0515	0.09	806103	keystroke_Key.space	Key.space	n/a
403.3215	0.09	806643	keystroke_p	p	n/a
403.5015	0.09	807003	keystroke_r	r	n/a
403.816	0.075	807632	keystroke_Key.backspace	Key.backspace	n/a
403.891	0.09	807782	keystroke_u	u	n/a
403.966	0.075	807932	keystroke_r	r	n/a
404.161	0.09	808322	keystroke_c	c	n/a
404.281	0.09	808562	keystroke_h	h	n/a
404.356	0.105	808712	keystroke_a	a	n/a
404.416	0.12	808832	keystroke_s	s	n/a
404.626	0.06	809252	keystroke_e	e	n/a
404.791	0.075	809582	keystroke_s	s	n/a
404.911	0.09	809822	keystroke_Key.space	Key.space	n/a
405.181	0.045	810362	keystroke_b	b	n/a
405.361	0.09	810722	keystroke_a	a	n/a
405.421	0.09	810842	keystroke_s	s	n/a
405.556	0.105	811112	keystroke_k	k	n/a
405.7815	0.15	811563	keystroke_e	e	n/a
405.9165	0.09	811833	keystroke_t	t	n/a
406.2315	0.09	812463	keystroke_Key.enter	Key.enter	n/a
406.328	7.1205	812656	prompt	n/a	window takes lemon incorporated\n
406.9965	0.09	813993	keystroke_w	w	n/a
407.0715	0.09	814143	keystroke_i	i	n/a
407.1165	0.09	814233	keystroke_n	n	n/a
407.2215	0.09	814443	keystroke_d	d	n/a
407.3415	0.105	814683	keystroke_o	o	n/a
407.4615	0.06	814923	keystroke_w	w	n/a
407.5815	0.075	815163	keystroke_Key.space	Key.space	n/a
407.8055	0.061	815611	keystroke_t	t	n/a
407.9265	0.06	815853	keystroke_a	a	n/a
408.0165	0.089	816033	keystroke_k	k	n/a
408.1215	0.044	816243	keystroke_e	e	n/a
408.2715	0.075	816543	keystroke_s	s	n/a
408.3755	0.075	816751	keystroke_Key.space	Key.space	n/a
408.6015	0.12	817203	keystroke_l	l	n/a
408.7505	0.091	817501	keystroke_e	e	n/a
408.8565	0.09	817713	keystroke_m	m	n/a
408.9905	0.121	817981	keystroke_o	o	n/a
409.0505	0.091	818101	keystroke_n	n	n/a
409.1255	0.106	818251	keystroke_Key.space	Key.space	n/a
409.4265	0.12	818853	keystroke_i	i	n/a
409.7415	0.09	819483	keystroke_n	n	n/a
409.8465	0.09	819693	keystroke_c	c	n/a
410.0565	0.09	820113	keystroke_r	r	n/a
410.1615	0.12	820323	keystroke_o	o	n/a
410.2365	0.105	820473	keystroke_p	p	n/a
410.7465	0.06	821493	keystroke_Key.backspace	Key.backspace	n/a
410.8965	0.075	821793	keystroke_Key.backspace	Key.backspace	n/a
411.0465	0.075	822093	keystroke_Key.backspace	Key.backspace	n/a
411.1815	0.105	822363	keystroke_o	o	n/a
411.4065	0.09	822813	keystroke_r	r	n/a
411.6615	0.12	823323	keystroke_p	p	n/a
411.7515	0.105	823503	keystroke_o	o	n/a
412.1715	0.075	824343	keystroke_r	r	n/a
412.3665	0.105	824733	keystroke_a	a	n/a
412.5615	0.06	825123	keystroke_t	t	n/a
412.7415	0.105	825483	keystroke_e	e	n/a
412.8165	0.09	825633	keystroke_d	d	n/a
413.3565	0.09	826713	keystroke_Key.enter	Key.enter	n/a
413.453	4.605	826906	prompt	n/a	shut sent soonest needed\n
414.0165	0.105	828033	keystroke_s	s	n/a
414.0905	0.136	828181	keystroke_h	h	n/a
414.1815	0.105	828363	keystroke_u	u	n/a
414.2715	0.045	828543	keystroke_t	t	n/a
414.3765	0.075	828753	keystroke_Key.space	Key.space	n/a
414.4665	0.06	828933	keystroke_s	s	n/a
414.6165	0.09	829233	keystroke_e	e	n/a
414.7215	0.09	829443	keystroke_n	n	n/a
414.7965	0.06	829593	keystroke_t	t	n/a
414.9015	0.09	829803	keystroke_Key.space	Key.space	n/a
415.1715	0.075	830343	keystroke_s	s	n/a
415.2315	0.06	830463	keystroke_o	o	n/a
415.3665	0.12	830733	keystroke_o	o	n/a
415.4565	0.12	830913	keystroke_n	n	n/a
415.5615	0.06	831123	keystroke_e	e	n/a
415.7265	0.06	831453	keystroke_s	s	n/a
415.8165	0.06	831633	keystroke_t	t	n/a
415.9065	0.09	831813	keystroke_Key.space	Key.space	n/a
416.2065	0.09	832413	keystroke_i	i	n/a
416.2665	0.075	832533	keystroke_n	n	n/a
416.5965	0.075	833193	keystroke_Key.backspace	Key.backspace	n/a
416.7765	0.075	833553	keystroke_Key.backspace	Key.backspace	n/a
417.0165	0.075	834033	keystroke_n	n	n/a
417.1065	0.06	834213	keystroke_e	e	n/a
417.2415	0.12	834483	keystroke_e	e	n/a
417.3315	0.12	834663	keystroke_d	d	n/a
417.5415	0.075	835083	keystroke_e	e	n/a
417.8265	0.075	835653	keystroke_d	d	n/a
417.9615	0.09	835923	keystroke_Key.enter	Key.enter	n/a
418.058	5.2	836116	prompt	n/a	thongs stage hamilton ring\n
418.6215	0.06	837243	keystroke_t	t	n/a
418.6665	0.105	837333	keystroke_h	h	n/a
418.7865	0.105	837573	keystroke_o	o	n/a
418.8465	0.075	837693	keystroke_n	n	n/a
418.8925	0.059	837785	keystroke_g	g	n/a
419.0115	0.075	838023	keystroke_s	s	n/a
419.0715	0.075	838143	keystroke_Key.space	Key.space	n/a
419.2965	0.105	838593	keystroke_s	s	n/a
419.3725	0.074	838745	keystroke_t	t	n/a
419.4765	0.105	838953	keystroke_a	a	n/a
419.6715	0.075	839343	keystroke_g	g	n/a
419.7315	0.075	839463	keystroke_e	e	n/a
419.8365	0.06	839673	keystroke_Key.space	Key.space	n/a
420.0765	0.06	840153	keystroke_h	h	n/a
420.1665	0.12	840333	keystroke_a	a	n/a
420.3015	0.09	840603	keystroke_m	m	n/a
420.5115	0.09	841023	keystroke_i	i	n/a
420.6465	0.105	841293	keystroke_l	l	n/a
420.7065	0.075	841413	keystroke_i	i	n/a
420.8865	0.075	841773	keystroke_t	t	n/a
421.3665	0.09	842733	keystroke_Key.backspace	Key.backspace	n/a
421.5315	0.09	843063	keystroke_Key.backspace	Key.backspace	n/a
421.8315	0.075	843663	keystroke_t	t	n/a
422.3265	0.135	844653	keystroke_o	o	n/a
422.4165	0.075	844833	keystroke_n	n	n/a
422.5065	0.12	845013	keystroke_Key.space	Key.space	n/a
422.7465	0.09	845493	keystroke_r	r	n/a
422.8215	0.09	845643	keystroke_i	i	n/a
422.8665	0.075	845733	keystroke_n	n	n/a
423.0015	0.075	846003	keystroke_g	g	n/a
423.1815	0.075	846363	keystroke_Key.enter	Key.enter	n/a
423.263	8.4105	846526	prompt	n/a	farming alot musicians maintaining\n
423.841	0.12	847682	keystroke_f	f	n/a
424.006	0.1055	848012	keystroke_a	a	n/a
424.0965	0.075	848193	keystroke_r	r	n/a
424.1565	0.09	848313	keystroke_m	m	n/a
424.3365	0.105	848673	keystroke_i	i	n/a
424.3965	0.075	848793	keystroke_n	n	n/a
424.4565	0.075	848913	keystroke_g	g	n/a
424.5765	0.075	849153	keystroke_Key.space	Key.space	n/a
424.7715	0.09	849543	keystroke_a	a	n/a
424.8465	0.06	849693	keystroke_l	l	n/a
425.0115	0.06	850023	keystroke_o	o	n/a
425.0565	0.075	850113	keystroke_t	t	n/a
425.1915	0.075	850383	keystroke_Key.space	Key.space	n/a
425.3415	0.075	850683	keystroke_m	m	n/a
425.5215	0.06	851043	keystroke_u	u	n/a
425.5965	0.09	851193	keystroke_s	s	n/a
425.7315	0.09	851463	keystroke_c	c	n/a
425.8665	0.09	851733	keystroke_i	i	n/a
426.0315	0.09	852063	keystroke_o	o	n/a
426.0765	0.06	852153	keystroke_n	n	n/a
426.5415	0.06	853083	keystroke_Key.backspace	Key.backspace	n/a
426.7065	0.045	853413	keystroke_Key.backspace	Key.backspace	n/a
426.8265	0.06	853653	keystroke_Key.backspace	Key.backspace	n/a
427.1115	0.015	854223	keystroke_i	i	n/a
427.1865	0.105	854373	keystroke_Key.backspace	Key.backspace	n/a
427.6815	0.075	855363	keystroke_Key.backspace	Key.backspace	n/a
427.8615	0.09	855723	keystroke_i	i	n/a
427.9665	0.105	855933	keystroke_c	c	n/a
428.5215	0.09	857043	keystroke_i	i	n/a
428.7165	0.09	857433	keystroke_a	a	n/a
428.8215	0.075	857643	keystroke_n	n	n/a
428.9115	0.075	857823	keystroke_s	s	n/a
429.0015	0.075	858003	keystroke_Key.space	Key.space	n/a
429.2115	0.09	858423	keystroke_m	m	n/a
429.3165	0.105	858633	keystroke_a	a	n/a
429.4665	0.135	858933	keystroke_i	i	n/a
429.6615	0.105	859323	keystroke_n	n	n/a
430.1265	0.105	860253	keystroke_t	t	n/a
430.2915	0.12	860583	keystroke_a	a	n/a
430.3965	0.09	860793	keystroke_i	i	n/a
430.4565	0.09	860913	keystroke_n	n	n/a
430.6515	0.075	861303	keystroke_g	g	n/a
431.1015	0.045	862203	keystroke_Key.backspace	Key.backspace	n/a
431.2965	0.105	862593	keystroke_i	i	n/a
431.3415	0.09	862683	keystroke_n	n	n/a
431.4015	0.075	862803	keystroke_g	g	n/a
431.6115	0.06	863223	keystroke_Key.enter	Key.enter	n/a
431.678	12.641	863356	prompt	n/a	lamp priorities would've administration\n
432.2715	0.135	864543	keystroke_l	l	n/a
432.4215	0.09	864843	keystroke_a	a	n/a
432.5265	0.09	865053	keystroke_m	m	n/a
432.6615	0.105	865323	keystroke_p	p	n/a
432.8265	0.105	865653	keystroke_Key.space	Key.space	n/a
433.0665	0.03	866133	keystroke_p	p	n/a
433.1265	0.105	866253	keystroke_r	r	n/a
433.2615	0.15	866523	keystroke_i	i	n/a
433.3815	0.09	866763	keystroke_p	p	n/a
433.8765	0.075	867753	keystroke_Key.backspace	Key.backspace	n/a
434.0715	0.105	868143	keystroke_o	o	n/a
434.6115	0.09	869223	keystroke_r	r	n/a
434.8065	0.105	869613	keystroke_i	i	n/a
434.9415	0.09	869883	keystroke_t	t	n/a
435.6615	0.09	871323	keystroke_i	i	n/a
435.7965	0.075	871593	keystroke_e	e	n/a
435.9615	0.105	871923	keystroke_s	s	n/a
436.1565	0.135	872313	keystroke_Key.space	Key.space	n/a
436.5465	0.045	873093	keystroke_v	v	n/a
436.8315	0.075	873663	keystroke_Key.backspace	Key.backspace	n/a
436.9215	0.045	873843	keystroke_w	w	n/a
437.1315	0.03	874263	keystroke_o	o	n/a
437.1465	0.09	874293	keystroke_u	u	n/a
437.5215	0.09	875043	keystroke_l	l	n/a
438.1665	0.09	876333	keystroke_d	d	n/a
438.677	0.075	877354	keystroke_'	'	n/a
438.812	0.09	877624	keystroke_v	v	n/a
438.992	0.06	877984	keystroke_e	e	n/a
439.127	0.06	878254	keystroke_Key.space	Key.space	n/a
439.352	0.09	878704	keystroke_a	a	n/a
439.741	0.0905	879482	keystroke_d	d	n/a
439.8615	0.105	879723	keystroke_m	m	n/a
440.0265	0.105	880053	keystroke_a	a	n/a
440.4615	0.105	880923	keystroke_Key.backspace	Key.backspace	n/a
440.6715	0.12	881343	keystroke_i	i	n/a
440.7465	0.09	881493	keystroke_n	n	n/a
440.8215	0.09	881643	keystroke_s	s	n/a
440.9415	0.075	881883	keystroke_t	t	n/a
441.6615	0.09	883323	keystroke_Key.backspace	Key.backspace	n/a
442.8765	0.09	885753	keystroke_Key.backspace	Key.backspace	n/a
443.0115	0.09	886023	keystroke_i	i	n/a
443.1615	0.09	886323	keystroke_s	s	n/a
443.2665	0.105	886533	keystroke_t	t	n/a
443.4915	0.075	886983	keystroke_r	r	n/a
443.6115	0.09	887223	keystroke_a	a	n/a
443.7465	0.0895	887493	keystroke_t	t	n/a
443.792	0.105	887584	keystroke_i	i	n/a
443.911	0.12	887822	keystroke_o	o	n/a
443.972	0.12	887944	keystroke_n	n	n/a
444.227	0.089	888454	keystroke_Key.enter	Key.enter	n/a
444.329	6.74	888658	prompt	n/a	threats states bare titles\n
444.872	0.075	889744	keystroke_t	t	n/a
444.977	0.105	889954	keystroke_h	h	n/a
445.067	0.105	890134	keystroke_r	r	n/a
445.142	0.06	890284	keystroke_e	e	n/a
445.306	0.046	890612	keystroke_a	a	n/a
445.397	0.105	890794	keystroke_t	t	n/a
445.487	0.09	890974	keystroke_s	s	n/a
445.622	0.089	891244	keystroke_Key.space	Key.space	n/a
445.772	0.09	891544	keystroke_s	s	n/a
445.892	0.059	891784	keystroke_t	t	n/a
445.982	0.104	891964	keystroke_a	a	n/a
446.102	0.015	892204	keystroke_r	r	n/a
446.222	0.06	892444	keystroke_e	e	n/a
446.597	0.105	893194	keystroke_s	s	n/a
447.196	0.06	894392	keystroke_Key.backspace	Key.backspace	n/a
447.422	0.044	894844	keystroke_Key.backspace	Key.backspace	n/a
447.572	0.045	895144	keystroke_Key.backspace	Key.backspace	n/a
447.647	0.105	895294	keystroke_t	t	n/a
448.022	0.075	896044	keystroke_e	e	n/a
448.172	0.09	896344	keystroke_s	s	n/a
448.277	0.089	896554	keystroke_Key.space	Key.space	n/a
448.502	0.075	897004	keystroke_b	b	n/a
448.547	0.09	897094	keystroke_a	a	n/a
448.652	0.074	897304	keystroke_r	r	n/a
448.756	0.09	897512	keystroke_Key.space	Key.space	n/a
448.922	0.075	897844	keystroke_t	t	n/a
449.027	0.105	898054	keystroke_i	i	n/a
449.417	0.045	898834	keystroke_Key.backspace	Key.backspace	n/a
449.536	0.075	899072	keystroke_Key.backspace	Key.backspace	n/a
449.687	0.075	899374	keystroke_Key.backspace	Key.backspace	n/a
449.792	0.105	899584	keystroke_e	e	n/a
449.911	0.061	899822	keystroke_Key.space	Key.space	n/a
450.046	0.106	900092	keystroke_t	t	n/a
450.212	0.09	900424	keystroke_i	i	n/a
450.317	0.06	900634	keystroke_t	t	n/a
450.557	0.075	901114	keystroke_l	l	n/a
450.647	0.075	901294	keystroke_e	e	n/a
450.827	0.075	901654	keystroke_s	s	n/a
450.962	0.105	901924	keystroke_Key.enter	Key.enter	n/a
451.0775	9.666	902155	prompt	n/a	adaptation survivors exhibitions respective\n
451.637	0.105	903274	keystroke_a	a	n/a
451.817	0.09	903634	keystroke_d	d	n/a
451.937	0.105	903874	keystroke_a	a	n/a
452.087	0.09	904174	keystroke_p	p	n/a
452.597	0.075	905194	keystroke_t	t	n/a
452.822	0.105	905644	keystroke_a	a	n/a
453.107	0.075	906214	keystroke_t	t	n/a
453.212	0.09	906424	keystroke_i	i	n/a
453.317	0.15	906634	keystroke_o	o	n/a
453.407	0.09	906814	keystroke_n	n	n/a
453.512	0.105	907024	keystroke_Key.space	Key.space	n/a
453.797	0.06	907594	keystroke_s	s	n/a
453.872	0.09	907744	keystroke_u	u	n/a
453.992	0.09	907984	keystroke_r	r	n/a
454.187	0.075	908374	keystroke_v	v	n/a
454.277	0.09	908554	keystroke_i	i	n/a
454.352	0.09	908704	keystroke_v	v	n/a
454.487	0.075	908974	keystroke_e	e	n/a
454.832	0.09	909664	keystroke_Key.backspace	Key.backspace	n/a
455.042	0.075	910084	keystroke_o	o	n/a
455.087	0.09	910174	keystroke_r	r	n/a
455.222	0.09	910444	keystroke_s	s	n/a
455.342	0.09	910684	keystroke_Key.space	Key.space	n/a
455.897	0.075	911794	keystroke_e	e	n/a
456.092	0.075	912184	keystroke_x	x	n/a
456.182	0.09	912364	keystroke_h	h	n/a
456.452	0.18	912904	keystroke_i	i	n/a
456.572	0.12	913144	keystroke_b	b	n/a
456.722	0.09	913444	keystroke_t	t	n/a
457.757	0.09	915514	keystroke_Key.backspace	Key.backspace	n/a
458.042	0.12	916084	keystroke_i	i	n/a
458.252	0.075	916504	keystroke_t	t	n/a
458.357	0.09	916714	keystroke_i	i	n/a
458.552	0.15	917104	keystroke_o	o	n/a
458.657	0.105	917314	keystroke_n	n	n/a
458.822	0.09	917644	keystroke_s	s	n/a
458.957	0.09	917914	keystroke_Key.space	Key.space	n/a
459.272	0.075	918544	keystroke_e	e	n/a
459.512	0.09	919024	keystroke_Key.backspace	Key.backspace	n/a
459.587	0.09	919174	keystroke_r	r	n/a
459.632	0.09	919264	keystroke_e	e	n/a
459.827	0.045	919654	keystroke_s	s	n/a
459.902	0.09	919804	keystroke_p	p	n/a
460.007	0.09	920014	keystroke_e	e	n/a
460.098	0.074	920196	keystroke_c	c	n/a
460.247	0.075	920494	keystroke_t	t	n/a
460.352	0.105	920704	keystroke_i	i	n/a
460.472	0.06	920944	keystroke_v	v	n/a
460.547	0.09	921094	keystroke_e	e	n/a
460.652	0.09	921304	keystroke_Key.enter	Key.enter	n/a
460.7475	8.201	921495	prompt	n/a	prohibited false vermont shaw\n
461.387	0.12	922774	keystroke_p	p	n/a
461.552	0.09	923104	keystroke_r	r	n/a
461.792	0.105	923584	keystroke_h	h	n/a
461.942	0.135	923884	keystroke_o	o	n/a
462.302	0.06	924604	keystroke_Key.backspace	Key.backspace	n/a
462.452	0.06	924904	keystroke_Key.backspace	Key.backspace	n/a
462.617	0.105	925234	keystroke_o	o	n/a
462.887	0.06	925774	keystroke_h	h	n/a
463.142	0.12	926284	keystroke_i	i	n/a
463.217	0.105	926434	keystroke_b	b	n/a
463.352	0.09	926704	keystroke_i	i	n/a
463.457	0.06	926914	keystroke_t	t	n/a
463.697	0.12	927394	keystroke_e	e	n/a
463.786	0.091	927572	keystroke_d	d	n/a
463.951	0.105	927902	keystroke_Key.space	Key.space	n/a
464.537	0.075	929074	keystroke_f	f	n/a
464.702	0.09	929404	keystroke_a	a	n/a
464.807	0.105	929614	keystroke_l	l	n/a
464.882	0.075	929764	keystroke_s	s	n/a
465.047	0.075	930094	keystroke_e	e	n/a
465.167	0.09	930334	keystroke_Key.space	Key.space	n/a
465.407	0.06	930814	keystroke_v	v	n/a
465.542	0.105	931084	keystroke_e	e	n/a
465.617	0.089	931234	keystroke_r	r	n/a
465.7815	0.0895	931563	keystroke_m	m	n/a
466.501	0.1055	933002	keystroke_o	o	n/a
466.561	0.09	933122	keystroke_n	n	n/a
466.666	0.0605	933332	keystroke_t	t	n/a
467.491	0.105	934982	keystroke_Key.space	Key.space	n/a
467.641	0.1055	935282	keystroke_s	s	n/a
467.732	0.1045	935464	keystroke_h	h	n/a
467.9115	0.09	935823	keystroke_a	a	n/a
468.4365	0.09	936873	keystroke_w	w	n/a
468.8565	0.09	937713	keystroke_Key.enter	Key.enter	n/a
468.953	6.2505	937906	prompt	n/a	cult tennis practitioners costs\n
469.5165	0.12	939033	keystroke_c	c	n/a
469.622	0.135	939244	keystroke_u	u	n/a
469.742	0.09	939484	keystroke_l	l	n/a
469.847	0.09	939694	keystroke_t	t	n/a
470.011	0.09	940022	keystroke_Key.space	Key.space	n/a
470.237	0.075	940474	keystroke_t	t	n/a
470.357	0.09	940714	keystroke_e	e	n/a
