onset	duration	sample	value	key	prompt_text
3.9545	0.108	7909	keystroke_Key.f11	Key.f11	n/a
4.1005	11.49	8201	prompt	n/a	the quick brown fox jumps over a lazy dog\n
5.7665	0.074	11533	keystroke_t	t	n/a
6.037	0.1345	12074	keystroke_h	h	n/a
6.1265	0.1355	12253	keystroke_e	e	n/a
6.277	0.0895	12554	keystroke_Key.space	Key.space	n/a
6.382	0.1045	12764	keystroke_q	q	n/a
6.4725	0.15	12945	keystroke_y	y	n/a
6.6065	0.1205	13213	keystroke_u	u	n/a
6.727	0.1195	13454	keystroke_c	c	n/a
6.8625	0.059	13725	keystroke_j	j	n/a
7.744	0.0615	15488	keystroke_Key.backspace	Key.backspace	n/a
7.92	0.06	15840	keystroke_Key.backspace	Key.backspace	n/a
8.07	0.06	16140	keystroke_Key.backspace	Key.backspace	n/a
8.2205	0.09	16441	keystroke_Key.backspace	Key.backspace	n/a
8.9255	0.196	17851	keystroke_u	u	n/a
9.0615	0.1205	18123	keystroke_i	i	n/a
9.227	0.119	18454	keystroke_c	c	n/a
9.331	0.12	18662	keystroke_k	k	n/a
9.511	0.106	19022	keystroke_Key.space	Key.space	n/a
9.6465	0.1055	19293	keystroke_b	b	n/a
9.7665	0.121	19533	keystroke_r	r	n/a
9.8725	0.1045	19745	keystroke_o	o	n/a
9.992	0.12	19984	keystroke_w	w	n/a
10.082	0.12	20164	keystroke_n	n	n/a
10.172	0.135	20344	keystroke_Key.space	Key.space	n/a
10.308	0.104	20616	keystroke_f	f	n/a
10.427	0.0745	20854	keystroke_o	o	n/a
10.6365	0.12	21273	keystroke_x	x	n/a
10.787	0.09	21574	keystroke_Key.space	Key.space	n/a
10.9965	0.0905	21993	keystroke_j	j	n/a
11.1625	0.0895	22325	keystroke_u	u	n/a
11.387	0.0905	22774	keystroke_m	m	n/a
11.5675	0.0895	23135	keystroke_p	p	n/a
11.657	0.0755	23314	keystroke_s	s	n/a
11.852	0.09	23704	keystroke_Key.space	Key.space	n/a
11.9875	0.1195	23975	keystroke_o	o	n/a
12.3915	0.0905	24783	keystroke_v	v	n/a
12.632	0.075	25264	keystroke_e	e	n/a
12.737	0.12	25474	keystroke_r	r	n/a
12.842	0.09	25684	keystroke_Key.space	Key.space	n/a
13.007	0.1055	26014	keystroke_a	a	n/a
13.052	0.1195	26104	keystroke_Key.space	Key.space	n/a
13.2175	0.105	26435	keystroke_l	l	n/a
13.4575	0.0895	26915	keystroke_a	a	n/a
13.6975	0.134	27395	keystroke_z	z	n/a
13.8465	0.0755	27693	keystroke_y	y	n/a
14.222	0.105	28444	keystroke_Key.space	Key.space	n/a
14.342	0.0905	28684	keystroke_d	d	n/a
15.002	0.075	30004	keystroke_o	o	n/a
15.182	0.0895	30364	keystroke_g	g	n/a
15.542	0.045	31084	keystroke_Key.enter	Key.enter	n/a
15.5965	4.2225	31193	prompt	n/a	soft highly mark piece\n
16.2325	0.12	32465	keystroke_s	s	n/a
16.3825	0.135	32765	keystroke_o	o	n/a
16.5025	0.09	33005	keystroke_f	f	n/a
16.6825	0.105	33365	keystroke_t	t	n/a
16.7725	0.1645	33545	keystroke_Key.space	Key.space	n/a
16.952	0.09	33904	keystroke_h	h	n/a
17.102	0.1055	34204	keystroke_i	i	n/a
17.2225	0.075	34445	keystroke_g	g	n/a
17.2675	0.105	34535	keystroke_h	h	n/a
17.4925	0.1045	34985	keystroke_l	l	n/a
17.612	0.105	35224	keystroke_y	y	n/a
17.7015	0.121	35403	keystroke_Key.space	Key.space	n/a
17.9125	0.12	35825	keystroke_m	m	n/a
18.0615	0.1355	36123	keystroke_a	a	n/a
18.302	0.1055	36604	keystroke_r	r	n/a
18.362	0.1045	36724	keystroke_k	k	n/a
18.5115	0.091	37023	keystroke_Key.space	Key.space	n/a
18.5725	0.1195	37145	keystroke_p	p	n/a
18.782	0.135	37564	keystroke_i	i	n/a
18.8565	0.09	37713	keystroke_e	e	n/a
19.0685	0.0885	38137	keystroke_c	c	n/a
19.307	0.1045	38614	keystroke_e	e	n/a
19.7125	0.104	39425	keystroke_Key.enter	Key.enter	n/a
19.823	4.196	39646	prompt	n/a	city thick obesity which\n
20.4175	0.135	40835	keystroke_c	c	n/a
20.8375	0.1355	41675	keystroke_i	i	n/a
20.973	0.119	41946	keystroke_t	t	n/a
21.1075	0.1345	42215	keystroke_y	y	n/a
21.212	0.15	42424	keystroke_Key.space	Key.space	n/a
21.347	0.09	42694	keystroke_t	t	n/a
21.4225	0.1195	42845	keystroke_h	h	n/a
21.5875	0.1045	43175	keystroke_i	i	n/a
21.767	0.105	43534	keystroke_c	c	n/a
21.8275	0.09	43655	keystroke_k	k	n/a
21.947	0.1345	43894	keystroke_Key.space	Key.space	n/a
22.1415	0.12	44283	keystroke_o	o	n/a
22.3665	0.121	44733	keystroke_b	b	n/a
22.4565	0.0905	44913	keystroke_e	e	n/a
22.622	0.1205	45244	keystroke_s	s	n/a
22.7575	0.1195	45515	keystroke_i	i	n/a
22.907	0.1205	45814	keystroke_t	t	n/a
23.042	0.1205	46084	keystroke_y	y	n/a
23.132	0.18	46264	keystroke_Key.space	Key.space	n/a
23.252	0.105	46504	keystroke_w	w	n/a
23.342	0.1055	46684	keystroke_h	h	n/a
23.477	0.12	46954	keystroke_i	i	n/a
23.612	0.1055	47224	keystroke_c	c	n/a
23.687	0.0895	47374	keystroke_h	h	n/a
23.8965	0.121	47793	keystroke_Key.enter	Key.enter	n/a
24.0235	5.651	48047	prompt	n/a	expiration configured hitting queen\n
24.6175	0.09	49235	keystroke_e	e	n/a
24.8425	0.12	49685	keystroke_x	x	n/a
24.8865	0.136	49773	keystroke_p	p	n/a
25.172	0.105	50344	keystroke_i	i	n/a
25.2475	0.0895	50495	keystroke_r	r	n/a
25.427	0.1355	50854	keystroke_a	a	n/a
25.6975	0.075	51395	keystroke_t	t	n/a
25.7275	0.15	51455	keystroke_i	i	n/a
25.7875	0.119	51575	keystroke_o	o	n/a
26.0125	0.1045	52025	keystroke_n	n	n/a
26.102	0.1195	52204	keystroke_Key.space	Key.space	n/a
26.2075	0.134	52415	keystroke_c	c	n/a
26.2975	0.09	52595	keystroke_o	o	n/a
26.4325	0.105	52865	keystroke_n	n	n/a
26.6565	0.09	53313	keystroke_f	f	n/a
26.7615	0.105	53523	keystroke_i	i	n/a
26.9715	0.106	53943	keystroke_g	g	n/a
27.0775	0.12	54155	keystroke_u	u	n/a
27.1825	0.075	54365	keystroke_r	r	n/a
27.362	0.0905	54724	keystroke_e	e	n/a
27.542	0.075	55084	keystroke_d	d	n/a
27.617	0.1205	55234	keystroke_Key.space	Key.space	n/a
27.7225	0.1045	55445	keystroke_h	h	n/a
27.872	0.1055	55744	keystroke_i	i	n/a
27.962	0.0755	55924	keystroke_t	t	n/a
28.1125	0.104	56225	keystroke_t	t	n/a
28.2315	0.076	56463	keystroke_i	i	n/a
28.3975	0.105	56795	keystroke_n	n	n/a
28.4875	0.105	56975	keystroke_g	g	n/a
28.6375	0.12	57275	keystroke_Key.space	Key.space	n/a
28.8775	0.105	57755	keystroke_q	q	n/a
28.9975	0.09	57995	keystroke_u	u	n/a
29.1025	0.09	58205	keystroke_e	e	n/a
29.2815	0.09	58563	keystroke_e	e	n/a
29.3565	0.091	58713	keystroke_n	n	n/a
29.5825	0.09	59165	keystroke_Key.enter	Key.enter	n/a
29.6795	8.035	59359	prompt	n/a	scholarship laboratory fewer priorities\n
30.2425	0.135	60485	keystroke_s	s	n/a
30.3475	0.1045	60695	keystroke_h	h	n/a
30.482	0.09	60964	keystroke_c	c	n/a
30.7215	0.076	61443	keystroke_Key.backspace	Key.backspace	n/a
30.8875	0.075	61775	keystroke_Key.backspace	Key.backspace	n/a
30.9915	0.076	61983	keystroke_c	c	n/a
31.0975	0.0895	62195	keystroke_h	h	n/a
31.2775	0.09	62555	keystroke_o	o	n/a
31.442	0.1055	62884	keystroke_l	l	n/a
31.5325	0.105	63065	keystroke_a	a	n/a
31.7575	0.12	63515	keystroke_r	r	n/a
32.043	0.0595	64086	keystroke_s	s	n/a
32.1475	0.09	64295	keystroke_h	h	n/a
32.3125	0.12	64625	keystroke_i	i	n/a
32.5365	0.091	65073	keystroke_p	p	n/a
32.6565	0.105	65313	keystroke_Key.space	Key.space	n/a
32.837	0.12	65674	keystroke_l	l	n/a
33.0015	0.1505	66003	keystroke_a	a	n/a
33.212	0.105	66424	keystroke_b	b	n/a
33.4375	0.1195	66875	keystroke_o	o	n/a
33.572	0.0755	67144	keystroke_r	r	n/a
33.7825	0.0895	67565	keystroke_a	a	n/a
34.0225	0.09	68045	keystroke_t	t	n/a
34.1425	0.12	68285	keystroke_o	o	n/a
34.2775	0.09	68555	keystroke_r	r	n/a
34.412	0.1355	68824	keystroke_y	y	n/a
34.5325	0.12	69065	keystroke_Key.space	Key.space	n/a
34.6525	0.12	69305	keystroke_f	f	n/a
34.832	0.0905	69664	keystroke_e	e	n/a
35.0715	0.136	70143	keystroke_w	w	n/a
35.2375	0.135	70475	keystroke_e	e	n/a
35.4175	0.119	70835	keystroke_r	r	n/a
35.5665	0.121	71133	keystroke_Key.space	Key.space	n/a
35.7775	0.1045	71555	keystroke_p	p	n/a
35.8675	0.105	71735	keystroke_r	r	n/a
36.0475	0.165	72095	keystroke_i	i	n/a
36.1525	0.1345	72305	keystroke_o	o	n/a
36.317	0.135	72634	keystroke_r	r	n/a
36.8125	0.1195	73625	keystroke_i	i	n/a
37.0675	0.09	74135	keystroke_t	t	n/a
37.202	0.12	74404	keystroke_i	i	n/a
37.322	0.09	74644	keystroke_e	e	n/a
37.502	0.09	75004	keystroke_s	s	n/a
37.6075	0.1045	75215	keystroke_Key.enter	Key.enter	n/a
37.719	5.9825	75438	prompt	n/a	previous studies personal scientists\n
38.403	0.1495	76806	keystroke_p	p	n/a
38.492	0.0905	76984	keystroke_r	r	n/a
38.5975	0.1195	77195	keystroke_e	e	n/a
38.8375	0.0745	77675	keystroke_v	v	n/a
38.958	0.164	77916	keystroke_i	i	n/a
39.032	0.1205	78064	keystroke_o	o	n/a
39.242	0.105	78484	keystroke_u	u	n/a
39.332	0.1055	78664	keystroke_s	s	n/a
39.467	0.1055	78934	keystroke_Key.space	Key.space	n/a
39.5575	0.09	79115	keystroke_s	s	n/a
39.7525	0.0895	79505	keystroke_t	t	n/a
39.827	0.105	79654	keystroke_u	u	n/a
39.947	0.1205	79894	keystroke_d	d	n/a
40.082	0.135	80164	keystroke_i	i	n/a
40.1725	0.1195	80345	keystroke_e	e	n/a
40.337	0.135	80674	keystroke_s	s	n/a
40.442	0.1205	80884	keystroke_Key.space	Key.space	n/a
40.592	0.1505	81184	keystroke_p	p	n/a
40.6825	0.1195	81365	keystroke_e	e	n/a
40.8175	0.0895	81635	keystroke_r	r	n/a
40.982	0.1055	81964	keystroke_s	s	n/a
41.0725	0.105	82145	keystroke_o	o	n/a
41.267	0.09	82534	keystroke_n	n	n/a
41.3875	0.105	82775	keystroke_a	a	n/a
41.507	0.1055	83014	keystroke_l	l	n/a
41.672	0.0755	83344	keystroke_Key.space	Key.space	n/a
41.6875	0.1195	83375	keystroke_s	s	n/a
41.9275	0.0755	83855	keystroke_c	c	n/a
42.1525	0.0745	84305	keystroke_i	i	n/a
42.483	0.09	84966	keystroke_e	e	n/a
42.6175	0.1805	85235	keystroke_n	n	n/a
42.768	0.09	85536	keystroke_t	t	n/a
42.9475	0.18	85895	keystroke_i	i	n/a
43.0975	0.0745	86195	keystroke_s	s	n/a
43.292	0.06	86584	keystroke_t	t	n/a
43.4425	0.105	86885	keystroke_s	s	n/a
43.5775	0.119	87155	keystroke_Key.enter	Key.enter	n/a
43.7095	6.8455	87419	prompt	n/a	musicians patch cams holding\n
44.3725	0.075	88745	keystroke_n	n	n/a
44.687	0.151	89374	keystroke_y	y	n/a
45.122	0.0895	90244	keystroke_Key.backspace	Key.backspace	n/a
45.2715	0.0605	90543	keystroke_Key.backspace	Key.backspace	n/a
45.4825	0.105	90965	keystroke_m	m	n/a
45.722	0.1205	91444	keystroke_u	u	n/a
45.812	0.105	91624	keystroke_s	s	n/a
46.4575	0.179	92915	keystroke_i	i	n/a
46.6225	0.119	93245	keystroke_c	c	n/a
46.7565	0.09	93513	keystroke_i	i	n/a
46.9375	0.1205	93875	keystroke_a	a	n/a
47.072	0.0905	94144	keystroke_n	n	n/a
47.1765	0.0905	94353	keystroke_s	s	n/a
47.2515	0.136	94503	keystroke_Key.space	Key.space	n/a
47.417	0.06	94834	keystroke_p	p	n/a
47.9715	0.0755	95943	keystroke_a	a	n/a
48.152	0.076	96304	keystroke_t	t	n/a
48.3925	0.1045	96785	keystroke_c	c	n/a
48.4525	0.1205	96905	keystroke_h	h	n/a
48.5425	0.0895	97085	keystroke_Key.space	Key.space	n/a
48.6475	0.0595	97295	keystroke_c	c	n/a
48.8425	0.059	97685	keystroke_a	a	n/a
48.917	0.106	97834	keystroke_m	m	n/a
49.1575	0.119	98315	keystroke_s	s	n/a
49.262	0.1045	98524	keystroke_Key.space	Key.space	n/a
49.4725	0.1045	98945	keystroke_h	h	n/a
49.637	0.105	99274	keystroke_o	o	n/a
49.8475	0.1045	99695	keystroke_l	l	n/a
49.922	0.1355	99844	keystroke_d	d	n/a
50.073	0.0745	100146	keystroke_i	i	n/a
50.207	0.09	100414	keystroke_n	n	n/a
50.3125	0.0895	100625	keystroke_g	g	n/a
50.447	0.105	100894	keystroke_Key.enter	Key.enter	n/a
50.559	8.74	101118	prompt	n/a	refugees addition meetings vermont\n
51.272	0.091	102544	keystroke_r	r	n/a
51.393	0.1045	102786	keystroke_e	e	n/a
52.0075	0.09	104015	keystroke_g	g	n/a
52.3825	0.089	104765	keystroke_Key.backspace	Key.backspace	n/a
52.5325	0.0755	105065	keystroke_f	f	n/a
52.788	0.1045	105576	keystroke_u	u	n/a
52.9075	0.075	105815	keystroke_g	g	n/a
53.0725	0.12	106145	keystroke_e	e	n/a
53.253	0.1195	106506	keystroke_e	e	n/a
53.4475	0.1045	106895	keystroke_s	s	n/a
53.5215	0.1205	107043	keystroke_Key.space	Key.space	n/a
54.0175	0.1045	108035	keystroke_a	a	n/a
54.272	0.0755	108544	keystroke_d	d	n/a
54.422	0.1055	108844	keystroke_d	d	n/a
54.9925	0.0905	109985	keystroke_u	u	n/a
55.4125	0.0745	110825	keystroke_Key.backspace	Key.backspace	n/a
55.592	0.105	111184	keystroke_i	i	n/a
55.8475	0.1045	111695	keystroke_t	t	n/a
55.997	0.151	111994	keystroke_i	i	n/a
56.462	0.09	112924	keystroke_o	o	n/a
56.657	0.105	113314	keystroke_n	n	n/a
56.792	0.105	113584	keystroke_Key.space	Key.space	n/a
56.912	0.12	113824	keystroke_m	m	n/a
56.9725	0.0895	113945	keystroke_e	e	n/a
57.168	0.0895	114336	keystroke_e	e	n/a
57.3625	0.0895	114725	keystroke_t	t	n/a
57.422	0.075	114844	keystroke_i	i	n/a
57.543	0.1495	115086	keystroke_n	n	n/a
57.617	0.105	115234	keystroke_g	g	n/a
57.798	0.1195	115596	keystroke_s	s	n/a
57.9025	0.12	115805	keystroke_Key.space	Key.space	n/a
58.1425	0.104	116285	keystroke_v	v	n/a
58.3975	0.0755	116795	keystroke_e	e	n/a
58.5015	0.1205	117003	keystroke_r	r	n/a
58.6375	0.0745	117275	keystroke_m	m	n/a
58.817	0.061	117634	keystroke_o	o	n/a
58.952	0.105	117904	keystroke_n	n	n/a
59.0425	0.0895	118085	keystroke_t	t	n/a
59.192	0.1055	118384	keystroke_Key.enter	Key.enter	n/a
59.3045	6.2495	118609	prompt	n/a	parking bloggers states indonesia\n
59.988	0.1045	119976	keystroke_p	p	n/a
60.0775	0.12	120155	keystroke_a	a	n/a
60.302	0.105	120604	keystroke_r	r	n/a
60.362	0.0905	120724	keystroke_k	k	n/a
60.527	0.075	121054	keystroke_i	i	n/a
60.7075	0.09	121415	keystroke_n	n	n/a
60.782	0.091	121564	keystroke_g	g	n/a
60.887	0.0895	121774	keystroke_Key.space	Key.space	n/a
60.9615	0.106	121923	keystroke_b	b	n/a
61.2175	0.075	122435	keystroke_l	l	n/a
61.3675	0.12	122735	keystroke_o	o	n/a
61.473	0.0895	122946	keystroke_g	g	n/a
61.652	0.075	123304	keystroke_g	g	n/a
61.8175	0.0905	123635	keystroke_e	e	n/a
61.9225	0.105	123845	keystroke_r	r	n/a
62.0725	0.12	124145	keystroke_s	s	n/a
62.1625	0.1045	124325	keystroke_Key.space	Key.space	n/a
62.552	0.135	125104	keystroke_s	s	n/a
62.6575	0.1195	125315	keystroke_t	t	n/a
62.792	0.106	125584	keystroke_a	a	n/a
62.927	0.1205	125854	keystroke_t	t	n/a
63.0325	0.09	126065	keystroke_e	e	n/a
63.2275	0.09	126455	keystroke_s	s	n/a
63.287	0.1195	126574	keystroke_Key.space	Key.space	n/a
63.4215	0.091	126843	keystroke_i	i	n/a
63.5715	0.1055	127143	keystroke_n	n	n/a
63.662	0.105	127324	keystroke_f	f	n/a
64.293	0.0895	128586	keystroke_Key.backspace	Key.backspace	n/a
64.384	0.104	128768	keystroke_d	d	n/a
64.518	0.104	129036	keystroke_o	o	n/a
64.758	0.1195	129516	keystroke_n	n	n/a
64.8625	0.106	129725	keystroke_e	e	n/a
65.0875	0.12	130175	keystroke_s	s	n/a
65.1925	0.1205	130385	keystroke_i	i	n/a
65.3425	0.09	130685	keystroke_a	a	n/a
65.4625	0.089	130925	keystroke_Key.enter	Key.enter	n/a
65.5605	8.4085	131121	prompt	n/a	municipality deemed underlying brighton\n
66.198	0.1195	132396	keystroke_m	m	n/a
66.452	0.105	132904	keystroke_u	u	n/a
66.6775	0.0595	133355	keystroke_n	n	n/a
66.7975	0.1345	133595	keystroke_i	i	n/a
66.9175	0.12	133835	keystroke_c	c	n/a
67.0825	0.0445	134165	keystroke_i	i	n/a
67.277	0.12	134554	keystroke_p	p	n/a
68.2225	0.1795	136445	keystroke_a	a	n/a
68.387	0.1055	136774	keystroke_l	l	n/a
68.5825	0.104	137165	keystroke_i	i	n/a
68.718	0.0885	137436	keystroke_t	t	n/a
68.8815	0.091	137763	keystroke_y	y	n/a
68.9565	0.1055	137913	keystroke_Key.space	Key.space	n/a
69.2425	0.12	138485	keystroke_d	d	n/a
69.4525	0.074	138905	keystroke_e	e	n/a
69.6175	0.09	139235	keystroke_e	e	n/a
69.6925	0.135	139385	keystroke_m	m	n/a
69.8115	0.076	139623	keystroke_e	e	n/a
69.9775	0.06	139955	keystroke_d	d	n/a
70.0825	0.12	140165	keystroke_Key.space	Key.space	n/a
70.1875	0.105	140375	keystroke_u	u	n/a
70.412	0.09	140824	keystroke_n	n	n/a
70.562	0.12	141124	keystroke_d	d	n/a
70.787	0.09	141574	keystroke_e	e	n/a
70.937	0.136	141874	keystroke_r	r	n/a
71.057	0.1205	142114	keystroke_l	l	n/a
71.987	0.09	143974	keystroke_y	y	n/a
72.062	0.075	144124	keystroke_i	i	n/a
72.2275	0.1045	144455	keystroke_n	n	n/a
72.557	0.09	145114	keystroke_g	g	n/a
72.662	0.1045	145324	keystroke_Key.space	Key.space	n/a
72.8425	0.12	145685	keystroke_b	b	n/a
72.9475	0.09	145895	keystroke_r	r	n/a
73.0525	0.105	146105	keystroke_i	i	n/a
73.1725	0.135	146345	keystroke_g	g	n/a
73.2625	0.12	146525	keystroke_h	h	n/a
73.368	0.1195	146736	keystroke_t	t	n/a
73.4875	0.0895	146975	keystroke_o	o	n/a
73.6815	0.09	147363	keystroke_n	n	n/a
73.9065	0.0605	147813	keystroke_Key.enter	Key.enter	n/a
73.9735	5.9805	147947	prompt	n/a	mali messages shadow counting\n
74.5975	0.135	149195	keystroke_m	m	n/a
74.7175	0.12	149435	keystroke_a	a	n/a
75.1525	0.135	150305	keystroke_l	l	n/a
75.362	0.1355	150724	keystroke_i	i	n/a
75.482	0.1195	150964	keystroke_Key.space	Key.space	n/a
75.6325	0.135	151265	keystroke_m	m	n/a
75.8125	0.09	151625	keystroke_e	e	n/a
75.9925	0.074	151985	keystroke_s	s	n/a
76.1565	0.075	152313	keystroke_s	s	n/a
76.3375	0.059	152675	keystroke_a	a	n/a
76.4725	0.12	152945	keystroke_g	g	n/a
76.562	0.0905	153124	keystroke_e	e	n/a
76.833	0.015	153666	keystroke_s	s	n/a
76.8625	0.06	153725	keystroke_Key.space	Key.space	n/a
76.937	0.1045	153874	keystroke_s	s	n/a
77.027	0.1945	154054	keystroke_h	h	n/a
77.1625	0.1045	154325	keystroke_a	a	n/a
77.4625	0.105	154925	keystroke_d	d	n/a
77.5815	0.151	155163	keystroke_i	i	n/a
77.822	0.045	155644	keystroke_w	w	n/a
78.1375	0.075	156275	keystroke_Key.backspace	Key.backspace	n/a
78.2875	0.09	156575	keystroke_Key.backspace	Key.backspace	n/a
78.4375	0.12	156875	keystroke_o	o	n/a
78.5425	0.105	157085	keystroke_w	w	n/a
78.6775	0.135	157355	keystroke_Key.space	Key.space	n/a
78.8125	0.105	157625	keystroke_c	c	n/a
78.9325	0.09	157865	keystroke_o	o	n/a
79.112	0.075	158224	keystroke_u	u	n/a
79.2925	0.09	158585	keystroke_n	n	n/a
79.3675	0.09	158735	keystroke_t	t	n/a
79.4725	0.0745	158945	keystroke_i	i	n/a
79.577	0.1205	159154	keystroke_n	n	n/a
79.667	0.1205	159334	keystroke_g	g	n/a
79.862	0.09	159724	keystroke_Key.enter	Key.enter	n/a
79.9665	7.428	159933	prompt	n/a	chose scripting comprehensive mailing\n
80.627	0.1205	161254	keystroke_c	c	n/a
80.762	0.061	161524	keystroke_h	h	n/a
81.002	0.106	162004	keystroke_o	o	n/a
81.1375	0.0895	162275	keystroke_s	s	n/a
81.317	0.0905	162634	keystroke_e	e	n/a
81.3925	0.105	162785	keystroke_Key.space	Key.space	n/a
81.573	0.1045	163146	keystroke_s	s	n/a
81.7525	0.0605	163505	keystroke_c	c	n/a
81.948	0.104	163896	keystroke_r	r	n/a
82.3225	0.12	164645	keystroke_i	i	n/a
82.5475	0.104	165095	keystroke_p	p	n/a
82.6675	0.12	165335	keystroke_t	t	n/a
82.8025	0.09	165605	keystroke_i	i	n/a
82.9825	0.105	165965	keystroke_n	n	n/a
83.1025	0.09	166205	keystroke_g	g	n/a
83.2375	0.09	166475	keystroke_Key.space	Key.space	n/a
83.4015	0.0755	166803	keystroke_c	c	n/a
83.538	0.075	167076	keystroke_o	o	n/a
83.748	0.0745	167496	keystroke_m	m	n/a
83.9125	0.0905	167825	keystroke_p	p	n/a
84.092	0.1055	168184	keystroke_r	r	n/a
84.3325	0.09	168665	keystroke_e	e	n/a
84.5125	0.12	169025	keystroke_h	h	n/a
84.6175	0.0895	169235	keystroke_e	e	n/a
84.798	0.105	169596	keystroke_n	n	n/a
85.1575	0.09	170315	keystroke_s	s	n/a
85.472	0.075	170944	keystroke_i	i	n/a
85.5925	0.075	171185	keystroke_v	v	n/a
85.8325	0.105	171665	keystroke_e	e	n/a
85.9075	0.1345	171815	keystroke_Key.space	Key.space	n/a
86.0875	0.1205	172175	keystroke_m	m	n/a
86.253	0.134	172506	keystroke_a	a	n/a
86.402	0.1055	172804	keystroke_i	i	n/a
86.6275	0.0895	173255	keystroke_l	l	n/a
86.792	0.09	173584	keystroke_i	i	n/a
86.972	0.0905	173944	keystroke_n	n	n/a
87.092	0.09	174184	keystroke_g	g	n/a
87.287	0.105	174574	keystroke_Key.enter	Key.enter	n/a
87.399	6.476	174798	prompt	n/a	remove services amazing planners\n
88.0525	0.1195	176105	keystroke_r	r	n/a
88.1875	0.1205	176375	keystroke_e	e	n/a
88.308	0.104	176616	keystroke_m	m	n/a
88.5175	0.09	177035	keystroke_o	o	n/a
88.637	0.046	177274	keystroke_v	v	n/a
88.8175	0.105	177635	keystroke_e	e	n/a
88.9525	0.135	177905	keystroke_Key.space	Key.space	n/a
89.0425	0.09	178085	keystroke_s	s	n/a
89.2225	0.1055	178445	keystroke_e	e	n/a
89.358	0.104	178716	keystroke_r	r	n/a
89.642	0.045	179284	keystroke_v	v	n/a
89.7025	0.1495	179405	keystroke_i	i	n/a
89.822	0.09	179644	keystroke_c	c	n/a
90.0625	0.075	180125	keystroke_e	e	n/a
90.2275	0.12	180455	keystroke_s	s	n/a
90.3025	0.12	180605	keystroke_Key.space	Key.space	n/a
90.4375	0.135	180875	keystroke_a	a	n/a
90.5425	0.105	181085	keystroke_m	m	n/a
91.412	0.0755	182824	keystroke_a	a	n/a
91.878	0.165	183756	keystroke_z	z	n/a
92.1625	0.0745	184325	keystroke_i	i	n/a
92.327	0.0905	184654	keystroke_n	n	n/a
92.4325	0.1195	184865	keystroke_g	g	n/a
92.552	0.105	185104	keystroke_Key.space	Key.space	n/a
92.672	0.105	185344	keystroke_p	p	n/a
92.8825	0.0895	185765	keystroke_l	l	n/a
93.0025	0.12	186005	keystroke_a	a	n/a
93.1525	0.06	186305	keystroke_n	n	n/a
93.2725	0.105	186545	keystroke_n	n	n/a
93.3625	0.075	186725	keystroke_e	e	n/a
93.4825	0.09	186965	keystroke_r	r	n/a
93.6325	0.135	187265	keystroke_s	s	n/a
93.7825	0.09	187565	keystroke_Key.enter	Key.enter	n/a
93.882	5.4825	187764	prompt	n/a	scout document thongs pathology\n
94.503	0.104	189006	keystroke_s	s	n/a
94.7275	0.06	189455	keystroke_c	c	n/a
94.892	0.076	189784	keystroke_o	o	n/a
95.057	0.1355	190114	keystroke_u	u	n/a
95.2525	0.09	190505	keystroke_t	t	n/a
95.402	0.105	190804	keystroke_Key.space	Key.space	n/a
95.6125	0.1195	191225	keystroke_d	d	n/a
95.7175	0.0595	191435	keystroke_o	o	n/a
95.852	0.106	191704	keystroke_c	c	n/a
95.972	0.0755	191944	keystroke_u	u	n/a
96.167	0.1055	192334	keystroke_m	m	n/a
96.242	0.1055	192484	keystroke_e	e	n/a
96.377	0.1205	192754	keystroke_n	n	n/a
96.5125	0.12	193025	keystroke_t	t	n/a
96.6475	0.104	193295	keystroke_Key.space	Key.space	n/a
96.8275	0.1195	193655	keystroke_t	t	n/a
96.887	0.1055	193774	keystroke_h	h	n/a
97.037	0.135	194074	keystroke_o	o	n/a
97.2175	0.18	194435	keystroke_n	n	n/a
97.353	0.104	194706	keystroke_g	g	n/a
97.547	0.121	195094	keystroke_s	s	n/a
97.6375	0.135	195275	keystroke_Key.space	Key.space	n/a
97.7575	0.1505	195515	keystroke_p	p	n/a
97.9225	0.075	195845	keystroke_a	a	n/a
98.1325	0.12	196265	keystroke_t	t	n/a
98.2075	0.105	196415	keystroke_h	h	n/a
98.3575	0.09	196715	keystroke_o	o	n/a
98.5375	0.09	197075	keystroke_l	l	n/a
98.7025	0.105	197405	keystroke_o	o	n/a
98.8225	0.1055	197645	keystroke_g	g	n/a
99.0025	0.105	198005	keystroke_y	y	n/a
99.3015	0.061	198603	keystroke_Key.enter	Key.enter	n/a
99.3685	4.391	198737	prompt	n/a	shop deck mobile intend\n
99.932	0.105	199864	keystroke_s	s	n/a
100.0825	0.075	200165	keystroke_h	h	n/a
100.307	0.1505	200614	keystroke_o	o	n/a
100.412	0.1055	200824	keystroke_p	p	n/a
100.607	0.105	201214	keystroke_Key.space	Key.space	n/a
100.713	0.089	201426	keystroke_d	d	n/a
100.9075	0.0745	201815	keystroke_e	e	n/a
101.087	0.105	202174	keystroke_c	c	n/a
101.162	0.1055	202324	keystroke_k	k	n/a
101.312	0.1345	202624	keystroke_Key.space	Key.space	n/a
101.4325	0.09	202865	keystroke_m	m	n/a
101.6265	0.076	203253	keystroke_o	o	n/a
102.3625	0.105	204725	keystroke_b	b	n/a
102.4225	0.075	204845	keystroke_i	i	n/a
102.6025	0.0905	205205	keystroke_l	l	n/a
102.7075	0.1195	205415	keystroke_e	e	n/a
102.812	0.1055	205624	keystroke_Key.space	Key.space	n/a
102.887	0.061	205774	keystroke_i	i	n/a
103.022	0.105	206044	keystroke_n	n	n/a
103.0825	0.0895	206165	keystroke_t	t	n/a
103.248	0.1045	206496	keystroke_e	e	n/a
103.3825	0.09	206765	keystroke_n	n	n/a
103.5175	0.105	207035	keystroke_d	d	n/a
103.6675	0.09	207335	keystroke_Key.enter	Key.enter	n/a
103.7645	9.8195	207529	prompt	n/a	write volvo sporting parker\n
104.3425	0.1355	208685	keystroke_w	w	n/a
104.5525	0.135	209105	keystroke_r	r	n/a
104.672	0.091	209344	keystroke_i	i	n/a
104.7925	0.09	209585	keystroke_t	t	n/a
104.9575	0.12	209915	keystroke_e	e	n/a
105.0775	0.12	210155	keystroke_Key.space	Key.space	n/a
105.243	0.0745	210486	keystroke_v	v	n/a
105.3025	0.1055	210605	keystroke_o	o	n/a
105.4525	0.12	210905	keystroke_l	l	n/a
105.5575	0.1045	211115	keystroke_v	v	n/a
105.737	0.121	211474	keystroke_o	o	n/a
105.887	0.136	211774	keystroke_Key.space	Key.space	n/a
106.038	0.135	212076	keystroke_s	s	n/a
106.143	0.135	212286	keystroke_p	p	n/a
106.322	0.1055	212644	keystroke_r	r	n/a
106.397	0.106	212794	keystroke_o	o	n/a
107.0415	0.1215	214083	keystroke_t	t	n/a
107.132	0.076	214264	keystroke_i	i	n/a
107.3125	0.105	214625	keystroke_n	n	n/a
107.433	0.12	214866	keystroke_g	g	n/a
107.5675	0.12	215135	keystroke_Key.space	Key.space	n/a
107.987	0.15	215974	keystroke_p	p	n/a
108.8725	0.075	217745	keystroke_Key.backspace	Key.backspace	n/a
109.2025	0.09	218405	keystroke_Key.backspace	Key.backspace	n/a
109.4125	0.045	218825	keystroke_Key.backspace	Key.backspace	n/a
109.578	0.0595	219156	keystroke_Key.backspace	Key.backspace	n/a
109.7725	0.03	219545	keystroke_Key.backspace	Key.backspace	n/a
109.9225	0.045	219845	keystroke_Key.backspace	Key.backspace	n/a
110.0725	0.06	220145	keystroke_Key.backspace	Key.backspace	n/a
110.4325	0.075	220865	keystroke_Key.backspace	Key.backspace	n/a
110.6875	0.105	221375	keystroke_o	o	n/a
110.8975	0.1505	221795	keystroke_r	r	n/a
111.0625	0.105	222125	keystroke_i	i	n/a
111.3625	0.075	222725	keystroke_Key.backspace	Key.backspace	n/a
111.498	0.0895	222996	keystroke_t	t	n/a
111.6475	0.0895	223295	keystroke_i	i	n/a
111.888	0.09	223776	keystroke_n	n	n/a
112.007	0.105	224014	keystroke_g	g	n/a
112.1275	0.1045	224255	keystroke_Key.space	Key.space	n/a
112.323	0.09	224646	keystroke_p	p	n/a
112.428	0.1045	224856	keystroke_a	a	n/a
112.817	0.03	225634	keystroke_r	r	n/a
113.0125	0.1195	226025	keystroke_k	k	n/a
113.117	0.09	226234	keystroke_e	e	n/a
113.2375	0.1205	226475	keystroke_r	r	n/a
113.4775	0.1045	226955	keystroke_Key.enter	Key.enter	n/a
113.5885	6.3255	227177	prompt	n/a	pillow duties fingers acting\n
114.2425	0.09	228485	keystroke_p	p	n/a
114.453	0.0745	228906	keystroke_u	u	n/a
114.678	0.0895	229356	keystroke_l	l	n/a
115.0825	0.105	230165	keystroke_Key.backspace	Key.backspace	n/a
115.2765	0.046	230553	keystroke_Key.backspace	Key.backspace	n/a
115.413	0.06	230826	keystroke_i	i	n/a
115.6225	0.0895	231245	keystroke_l	l	n/a
115.787	0.0755	231574	keystroke_l	l	n/a
115.937	0.1055	231874	keystroke_o	o	n/a
116.058	0.104	232116	keystroke_w	w	n/a
116.147	0.1205	232294	keystroke_Key.space	Key.space	n/a
116.3125	0.12	232625	keystroke_d	d	n/a
116.4175	0.09	232835	keystroke_u	u	n/a
116.658	0.119	233316	keystroke_t	t	n/a
116.8375	0.105	233675	keystroke_i	i	n/a
117.077	0.1055	234154	keystroke_e	e	n/a
117.3175	0.12	234635	keystroke_s	s	n/a
117.4375	0.12	234875	keystroke_Key.space	Key.space	n/a
117.618	0.1045	235236	keystroke_f	f	n/a
117.7075	0.075	235415	keystroke_i	i	n/a
117.9025	0.12	235805	keystroke_n	n	n/a
117.9625	0.0755	235925	keystroke_g	g	n/a
118.1125	0.09	236225	keystroke_e	e	n/a
118.2475	0.0905	236495	keystroke_r	r	n/a
118.4275	0.12	236855	keystroke_s	s	n/a
118.5625	0.105	237125	keystroke_Key.space	Key.space	n/a
118.6525	0.09	237305	keystroke_a	a	n/a
118.8175	0.105	237635	keystroke_c	c	n/a
119.058	0.1195	238116	keystroke_t	t	n/a
119.373	0.0895	238746	keystroke_i	i	n/a
119.5675	0.091	239135	keystroke_n	n	n/a
119.6725	0.105	239345	keystroke_g	g	n/a
119.8075	0.105	239615	keystroke_Key.enter	Key.enter	n/a
119.9195	7.0905	239839	prompt	n/a	homepage fashion get coaching\n
120.5125	0.105	241025	keystroke_h	h	n/a
120.7075	0.09	241415	keystroke_o	o	n/a
120.9625	0.09	241925	keystroke_m	m	n/a
121.2025	0.09	242405	keystroke_p	p	n/a
121.532	0.0755	243064	keystroke_Key.backspace	Key.backspace	n/a
121.638	0.12	243276	keystroke_e	e	n/a
121.8775	0.105	243755	keystroke_p	p	n/a
122.1175	0.1195	244235	keystroke_a	a	n/a
122.357	0.12	244714	keystroke_g	g	n/a
122.4625	0.1045	244925	keystroke_e	e	n/a
122.582	0.1205	245164	keystroke_Key.space	Key.space	n/a
122.8675	0.105	245735	keystroke_f	f	n/a
123.0925	0.075	246185	keystroke_a	a	n/a
123.2875	0.0905	246575	keystroke_h	h	n/a
123.6325	0.09	247265	keystroke_Key.backspace	Key.backspace	n/a
123.7675	0.105	247535	keystroke_s	s	n/a
123.8875	0.09	247775	keystroke_h	h	n/a
124.1125	0.2845	248225	keystroke_i	i	n/a
124.2625	0.1205	248525	keystroke_o	o	n/a
124.638	0.0895	249276	keystroke_n	n	n/a
124.862	0.0755	249724	keystroke_Key.space	Key.space	n/a
125.118	0.089	250236	keystroke_g	g	n/a
125.327	0.0605	250654	keystroke_e	e	n/a
125.493	0.0895	250986	keystroke_t	t	n/a
125.5975	0.09	251195	keystroke_Key.space	Key.space	n/a
125.7625	0.09	251525	keystroke_c	c	n/a
125.8225	0.105	251645	keystroke_o	o	n/a
126.0025	0.1205	252005	keystroke_a	a	n/a
126.2425	0.0755	252485	keystroke_c	c	n/a
126.3325	0.09	252665	keystroke_h	h	n/a
126.468	0.0895	252936	keystroke_i	i	n/a
126.6325	0.1055	253265	keystroke_n	n	n/a
126.7675	0.105	253535	keystroke_g	g	n/a
126.8875	0.1205	253775	keystroke_Key.enter	Key.enter	n/a
127.014	5.7855	254028	prompt	n/a	collaboration error rising appeal\n
127.6375	0.1045	255275	keystroke_c	c	n/a
127.7875	0.045	255575	keystroke_o	o	n/a
128.1175	0.195	256235	keystroke_l	l	n/a
128.328	0.029	256656	keystroke_l	l	n/a
128.4325	0.1045	256865	keystroke_a	a	n/a
128.567	0.121	257134	keystroke_b	b	n/a
128.823	0.1195	257646	keystroke_o	o	n/a
129.0025	0.09	258005	keystroke_r	r	n/a
129.242	0.0605	258484	keystroke_a	a	n/a
129.453	0.0745	258906	keystroke_t	t	n/a
129.5425	0.15	259085	keystroke_i	i	n/a
129.6175	0.105	259235	keystroke_o	o	n/a
129.813	0.105	259626	keystroke_n	n	n/a
129.9465	0.136	259893	keystroke_Key.space	Key.space	n/a
130.007	0.121	260014	keystroke_e	e	n/a
130.2025	0.0745	260405	keystroke_r	r	n/a
130.3675	0.1205	260735	keystroke_r	r	n/a
130.5025	0.09	261005	keystroke_o	o	n/a
130.6075	0.104	261215	keystroke_r	r	n/a
130.7275	0.105	261455	keystroke_Key.space	Key.space	n/a
131.088	0.09	262176	keystroke_r	r	n/a
131.178	0.12	262356	keystroke_i	i	n/a
131.312	0.106	262624	keystroke_s	s	n/a
131.432	0.06	262864	keystroke_i	i	n/a
131.613	0.089	263226	keystroke_n	n	n/a
131.703	0.0895	263406	keystroke_g	g	n/a
131.8075	0.09	263615	keystroke_Key.space	Key.space	n/a
131.912	0.1055	263824	keystroke_a	a	n/a
132.0175	0.075	264035	keystroke_p	p	n/a
132.167	0.0755	264334	keystroke_p	p	n/a
132.287	0.0755	264574	keystroke_e	e	n/a
132.422	0.136	264844	keystroke_a	a	n/a
132.543	0.09	265086	keystroke_l	l	n/a
132.693	0.1045	265386	keystroke_Key.enter	Key.enter	n/a
132.803	5.741	265606	prompt	n/a	building member marking counting\n
133.472	0.091	266944	keystroke_b	b	n/a
133.743	0.18	267486	keystroke_u	u	n/a
133.8625	0.1195	267725	keystroke_i	i	n/a
134.102	0.1355	268204	keystroke_l	l	n/a
134.3275	0.15	268655	keystroke_d	d	n/a
134.508	0.104	269016	keystroke_i	i	n/a
134.688	0.105	269376	keystroke_n	n	n/a
134.762	0.121	269524	keystroke_g	g	n/a
134.883	0.15	269766	keystroke_Key.space	Key.space	n/a
135.018	0.105	270036	keystroke_m	m	n/a
135.093	0.12	270186	keystroke_e	e	n/a
135.2275	0.105	270455	keystroke_m	m	n/a
135.5275	0.1055	271055	keystroke_b	b	n/a
135.6175	0.0905	271235	keystroke_e	e	n/a
135.7675	0.1205	271535	keystroke_r	r	n/a
135.9175	0.09	271835	keystroke_Key.space	Key.space	n/a
136.2025	0.105	272405	keystroke_m	m	n/a
136.2925	0.075	272585	keystroke_a	a	n/a
136.4875	0.1055	272975	keystroke_r	r	n/a
136.548	0.1045	273096	keystroke_k	k	n/a
136.7275	0.06	273455	keystroke_i	i	n/a
136.8625	0.12	273725	keystroke_n	n	n/a
136.9375	0.09	273875	keystroke_g	g	n/a
137.0725	0.105	274145	keystroke_Key.space	Key.space	n/a
137.2225	0.09	274445	keystroke_c	c	n/a
137.2825	0.135	274565	keystroke_o	o	n/a
137.583	0.105	275166	keystroke_u	u	n/a
137.807	0.121	275614	keystroke_n	n	n/a
137.913	0.1195	275826	keystroke_t	t	n/a
138.0625	0.09	276125	keystroke_i	i	n/a
138.2125	0.1045	276425	keystroke_n	n	n/a
138.302	0.09	276604	keystroke_g	g	n/a
138.452	0.09	276904	keystroke_Key.enter	Key.enter	n/a
138.5485	6.4755	277097	prompt	n/a	angola disciplinary gale remarkable\n
139.2625	0.0895	278525	keystroke_a	a	n/a
139.367	0.1205	278734	keystroke_n	n	n/a
139.547	0.1055	279094	keystroke_g	g	n/a
139.683	0.0895	279366	keystroke_o	o	n/a
139.8475	0.09	279695	keystroke_l	l	n/a
139.9975	0.12	279995	keystroke_a	a	n/a
140.118	0.119	280236	keystroke_Key.space	Key.space	n/a
140.358	0.09	280716	keystroke_d	d	n/a
140.418	0.12	280836	keystroke_i	i	n/a
140.553	0.105	281106	keystroke_s	s	n/a
140.7475	0.1055	281495	keystroke_c	c	n/a
140.8385	0.105	281677	keystroke_i	i	n/a
141.0025	0.09	282005	keystroke_p	p	n/a
141.243	0.0445	282486	keystroke_l	l	n/a
141.393	0.0745	282786	keystroke_i	i	n/a
141.573	0.104	283146	keystroke_n	n	n/a
141.647	0.1055	283294	keystroke_a	a	n/a
141.873	0.0895	283746	keystroke_r	r	n/a
141.9775	0.12	283955	keystroke_y	y	n/a
142.1125	0.105	284225	keystroke_Key.space	Key.space	n/a
142.2325	0.1045	284465	keystroke_g	g	n/a
142.458	0.1195	284916	keystroke_a	a	n/a
142.562	0.1205	285124	keystroke_l	l	n/a
142.7125	0.1045	285425	keystroke_e	e	n/a
142.862	0.1655	285724	keystroke_Key.space	Key.space	n/a
143.042	0.0755	286084	keystroke_r	r	n/a
143.163	0.119	286326	keystroke_e	e	n/a
143.297	0.0755	286594	keystroke_m	m	n/a
143.8375	0.0905	287675	keystroke_a	a	n/a
144.0625	0.0755	288125	keystroke_r	r	n/a
144.1525	0.105	288305	keystroke_k	k	n/a
144.362	0.1055	288724	keystroke_a	a	n/a
144.498	0.0895	288996	keystroke_b	b	n/a
144.7075	0.105	289415	keystroke_l	l	n/a
144.7975	0.09	289595	keystroke_e	e	n/a
144.9325	0.09	289865	keystroke_Key.enter	Key.enter	n/a
145.028	6.4165	290056	prompt	n/a	astronomy telecom elvis families\n
145.6685	0.1195	291337	keystroke_a	a	n/a
145.908	0.105	291816	keystroke_s	s	n/a
146.1465	0.091	292293	keystroke_t	t	n/a
146.283	0.1195	292566	keystroke_r	r	n/a
146.3875	0.075	292775	keystroke_o	o	n/a
146.732	0.091	293464	keystroke_n	n	n/a
146.972	0.09	293944	keystroke_o	o	n/a
147.197	0.106	294394	keystroke_m	m	n/a
147.4075	0.105	294815	keystroke_y	y	n/a
147.5275	0.1195	295055	keystroke_Key.space	Key.space	n/a
147.7375	0.1195	295475	keystroke_t	t	n/a
147.9325	0.1195	295865	keystroke_e	e	n/a
148.0225	0.1195	296045	keystroke_l	l	n/a
148.158	0.0895	296316	keystroke_e	e	n/a
148.3675	0.135	296735	keystroke_c	c	n/a
148.5475	0.105	297095	keystroke_o	o	n/a
148.7275	0.105	297455	keystroke_m	m	n/a
148.9075	0.105	297815	keystroke_Key.space	Key.space	n/a
149.1625	0.12	298325	keystroke_e	e	n/a
149.328	0.164	298656	keystroke_l	l	n/a
149.523	0.09	299046	keystroke_v	v	n/a
149.6425	0.12	299285	keystroke_i	i	n/a
149.7775	0.105	299555	keystroke_s	s	n/a
149.9425	0.1045	299885	keystroke_Key.space	Key.space	n/a
150.152	0.075	300304	keystroke_f	f	n/a
150.378	0.09	300756	keystroke_a	a	n/a
150.482	0.075	300964	keystroke_m	m	n/a
150.648	0.075	301296	keystroke_i	i	n/a
150.828	0.074	301656	keystroke_l	l	n/a
150.993	0.12	301986	keystroke_i	i	n/a
151.083	0.09	302166	keystroke_e	e	n/a
151.233	0.135	302466	keystroke_s	s	n/a
151.353	0.0895	302706	keystroke_Key.enter	Key.enter	n/a
151.4485	6.6705	302897	prompt	n/a	dying executives correspondence sunshine\n
152.1325	0.1205	304265	keystroke_d	d	n/a
152.3875	0.12	304775	keystroke_y	y	n/a
152.5975	0.06	305195	keystroke_i	i	n/a
152.7475	0.09	305495	keystroke_n	n	n/a
152.8225	0.1055	305645	keystroke_g	g	n/a
152.9125	0.1195	305825	keystroke_Key.space	Key.space	n/a
153.0025	0.1055	306005	keystroke_e	e	n/a
153.2125	0.1195	306425	keystroke_x	x	n/a
153.497	0.0905	306994	keystroke_e	e	n/a
153.7075	0.09	307415	keystroke_c	c	n/a
153.8575	0.105	307715	keystroke_u	u	n/a
153.9775	0.135	307955	keystroke_t	t	n/a
154.1275	0.09	308255	keystroke_i	i	n/a
154.2475	0.091	308495	keystroke_v	v	n/a
154.458	0.0895	308916	keystroke_e	e	n/a
154.6525	0.0905	309305	keystroke_s	s	n/a
154.7125	0.105	309425	keystroke_Key.space	Key.space	n/a
154.8925	0.0905	309785	keystroke_c	c	n/a
155.0125	0.105	310025	keystroke_o	o	n/a
155.1475	0.06	310295	keystroke_r	r	n/a
155.313	0.0895	310626	keystroke_r	r	n/a
155.4475	0.0905	310895	keystroke_e	e	n/a
155.6275	0.12	311255	keystroke_s	s	n/a
155.7025	0.18	311405	keystroke_p	p	n/a
155.793	0.12	311586	keystroke_o	o	n/a
156.0325	0.105	312065	keystroke_n	n	n/a
156.093	0.0745	312186	keystroke_d	d	n/a
156.2875	0.075	312575	keystroke_e	e	n/a
156.4075	0.09	312815	keystroke_n	n	n/a
156.5275	0.105	313055	keystroke_c	c	n/a
156.7525	0.09	313505	keystroke_e	e	n/a
156.8575	0.12	313715	keystroke_Key.space	Key.space	n/a
157.023	0.0895	314046	keystroke_s	s	n/a
157.097	0.06	314194	keystroke_u	u	n/a
157.292	0.0755	314584	keystroke_n	n	n/a
157.3825	0.09	314765	keystroke_s	s	n/a
157.473	0.0895	314946	keystroke_h	h	n/a
157.6075	0.105	315215	keystroke_i	i	n/a
157.7875	0.09	315575	keystroke_n	n	n/a
157.8625	0.135	315725	keystroke_e	e	n/a
158.0275	0.09	316055	keystroke_Key.enter	Key.enter	n/a
158.1225	5.4865	316245	prompt	n/a	checking outline crossing canal\n
158.8085	0.0595	317617	keystroke_c	c	n/a
158.868	0.1045	317736	keystroke_h	h	n/a
159.017	0.09	318034	keystroke_e	e	n/a
159.2425	0.0595	318485	keystroke_c	c	n/a
159.303	0.105	318606	keystroke_k	k	n/a
159.468	0.1045	318936	keystroke_i	i	n/a
159.6325	0.105	319265	keystroke_n	n	n/a
159.738	0.1045	319476	keystroke_g	g	n/a
159.8575	0.09	319715	keystroke_Key.space	Key.space	n/a
159.9625	0.105	319925	keystroke_o	o	n/a
160.0975	0.135	320195	keystroke_u	u	n/a
160.218	0.0895	320436	keystroke_t	t	n/a
160.4275	0.075	320855	keystroke_l	l	n/a
160.578	0.0745	321156	keystroke_i	i	n/a
160.7275	0.121	321455	keystroke_n	n	n/a
160.7875	0.12	321575	keystroke_e	e	n/a
160.9675	0.12	321935	keystroke_Key.space	Key.space	n/a
161.0725	0.0895	322145	keystroke_c	c	n/a
161.508	0.09	323016	keystroke_r	r	n/a
161.5825	0.12	323165	keystroke_o	o	n/a
161.7925	0.09	323585	keystroke_s	s	n/a
162.0035	0.075	324007	keystroke_s	s	n/a
162.0625	0.06	324125	keystroke_i	i	n/a
162.1975	0.135	324395	keystroke_n	n	n/a
162.2575	0.105	324515	keystroke_g	g	n/a
162.4225	0.105	324845	keystroke_Key.space	Key.space	n/a
162.4675	0.1205	324935	keystroke_c	c	n/a
162.738	0.0895	325476	keystroke_a	a	n/a
162.978	0.1495	325956	keystroke_n	n	n/a
163.1875	0.06	326375	keystroke_a	a	n/a
163.2925	0.15	326585	keystroke_l	l	n/a
163.5175	0.09	327035	keystroke_Key.enter	Key.enter	n/a
163.613	4.991	327226	prompt	n/a	stands loaded comic breath\n
164.2075	0.0745	328415	keystroke_s	s	n/a
164.4025	0.09	328805	keystroke_t	t	n/a
164.6125	0.0895	329225	keystroke_a	a	n/a
164.703	0.1495	329406	keystroke_n	n	n/a
164.807	0.091	329614	keystroke_d	d	n/a
164.9425	0.1205	329885	keystroke_s	s	n/a
165.0325	0.12	330065	keystroke_Key.space	Key.space	n/a
165.153	0.0895	330306	keystroke_l	l	n/a
165.3175	0.12	330635	keystroke_o	o	n/a
165.4225	0.09	330845	keystroke_a	a	n/a
165.5725	0.09	331145	keystroke_d	d	n/a
165.7675	0.06	331535	keystroke_e	e	n/a
165.9475	0.0455	331895	keystroke_d	d	n/a
166.0375	0.06	332075	keystroke_Key.space	Key.space	n/a
166.3675	0.105	332735	keystroke_c	c	n/a
166.458	0.074	332916	keystroke_o	o	n/a
166.6075	0.135	333215	keystroke_m	m	n/a
166.8025	0.045	333605	keystroke_i	i	n/a
167.043	0.1045	334086	keystroke_c	c	n/a
167.1765	0.091	334353	keystroke_Key.space	Key.space	n/a
167.4025	0.15	334805	keystroke_b	b	n/a
167.5075	0.09	335015	keystroke_r	r	n/a
167.642	0.1055	335284	keystroke_e	e	n/a
167.853	0.1345	335706	keystroke_a	a	n/a
168.108	0.1045	336216	keystroke_t	t	n/a
168.1825	0.1355	336365	keystroke_h	h	n/a
168.5125	0.09	337025	keystroke_Key.enter	Key.enter	n/a
168.6085	5.261	337217	prompt	n/a	owned want now spain\n
169.0525	0.1495	338105	keystroke_i	i	n/a
169.337	0.0755	338674	keystroke_Key.backspace	Key.backspace	n/a
170.6125	0.075	341225	keystroke_o	o	n/a
170.762	0.12	341524	keystroke_w	w	n/a
170.9575	0.1055	341915	keystroke_n	n	n/a
171.1525	0.09	342305	keystroke_e	e	n/a
171.3925	0.0895	342785	keystroke_d	d	n/a
171.467	0.09	342934	keystroke_Key.space	Key.space	n/a
171.7375	0.1055	343475	keystroke_w	w	n/a
171.9175	0.0755	343835	keystroke_a	a	n/a
172.2625	0.0905	344525	keystroke_n	n	n/a
172.367	0.091	344734	keystroke_t	t	n/a
172.472	0.12	344944	keystroke_Key.space	Key.space	n/a
172.622	0.076	345244	keystroke_n	n	n/a
172.803	0.0745	345606	keystroke_o	o	n/a
172.892	0.075	345784	keystroke_w	w	n/a
173.012	0.105	346024	keystroke_Key.space	Key.space	n/a
173.147	0.105	346294	keystroke_s	s	n/a
173.237	0.09	346474	keystroke_p	p	n/a
173.3575	0.09	346715	keystroke_a	a	n/a
173.4325	0.1055	346865	keystroke_i	i	n/a
173.582	0.121	347164	keystroke_n	n	n/a
173.7775	0.09	347555	keystroke_Key.enter	Key.enter	n/a
173.874	6.7155	347748	prompt	n/a	abraham culture presentations reminder\n
174.557	0.105	349114	keystroke_a	a	n/a
174.873	0.1045	349746	keystroke_b	b	n/a
175.083	0.1045	350166	keystroke_r	r	n/a
175.3075	0.1055	350615	keystroke_a	a	n/a
175.532	0.12	351064	keystroke_h	h	n/a
175.7125	0.0895	351425	keystroke_a	a	n/a
175.847	0.105	351694	keystroke_m	m	n/a
176.042	0.09	352084	keystroke_Key.space	Key.space	n/a
176.1625	0.105	352325	keystroke_c	c	n/a
176.2525	0.075	352505	keystroke_u	u	n/a
176.4475	0.105	352895	keystroke_l	l	n/a
176.613	0.1045	353226	keystroke_t	t	n/a
176.7315	0.106	353463	keystroke_u	u	n/a
176.8075	0.0905	353615	keystroke_r	r	n/a
177.0175	0.12	354035	keystroke_e	e	n/a
177.1215	0.091	354243	keystroke_Key.space	Key.space	n/a
177.2725	0.105	354545	keystroke_p	p	n/a
177.3775	0.1205	354755	keystroke_r	r	n/a
177.542	0.135	355084	keystroke_e	e	n/a
177.768	0.089	355536	keystroke_s	s	n/a
177.9325	0.1055	355865	keystroke_e	e	n/a
178.0225	0.105	356045	keystroke_n	n	n/a
178.1575	0.0605	356315	keystroke_t	t	n/a
178.352	0.1055	356704	keystroke_a	a	n/a
178.5775	0.1055	357155	keystroke_t	t	n/a
178.6375	0.18	357275	keystroke_i	i	n/a
178.712	0.1205	357424	keystroke_o	o	n/a
178.9365	0.106	357873	keystroke_n	n	n/a
179.0275	0.0755	358055	keystroke_s	s	n/a
179.1925	0.119	358385	keystroke_Key.space	Key.space	n/a
179.3275	0.0905	358655	keystroke_r	r	n/a
179.4775	0.105	358955	keystroke_e	e	n/a
179.628	0.0895	359256	keystroke_m	m	n/a
179.823	0.0745	359646	keystroke_i	i	n/a
179.972	0.09	359944	keystroke_n	n	n/a
180.047	0.0755	360094	keystroke_d	d	n/a
180.2275	0.12	360455	keystroke_e	e	n/a
180.378	0.1045	360756	keystroke_r	r	n/a
180.4975	0.09	360995	keystroke_Key.enter	Key.enter	n/a
180.5965	5.2725	361193	prompt	n/a	silver internal gary marshall\n
181.2185	0.1035	362437	keystroke_s	s	n/a
181.308	0.104	362616	keystroke_i	i	n/a
181.518	0.1045	363036	keystroke_l	l	n/a
181.607	0.1055	363214	keystroke_v	v	n/a
181.7875	0.1205	363575	keystroke_e	e	n/a
181.9375	0.12	363875	keystroke_r	r	n/a
182.058	0.0895	364116	keystroke_Key.space	Key.space	n/a
182.1175	0.105	364235	keystroke_i	i	n/a
182.373	0.1495	364746	keystroke_n	n	n/a
182.4775	0.105	364955	keystroke_t	t	n/a
182.6725	0.09	365345	keystroke_e	e	n/a
182.7775	0.1055	365555	keystroke_r	r	n/a
183.003	0.105	366006	keystroke_n	n	n/a
183.168	0.105	366336	keystroke_a	a	n/a
183.274	0.0735	366548	keystroke_l	l	n/a
183.392	0.1505	366784	keystroke_Key.space	Key.space	n/a
183.767	0.076	367534	keystroke_g	g	n/a
183.932	0.091	367864	keystroke_a	a	n/a
184.1575	0.09	368315	keystroke_r	r	n/a
184.2025	0.1355	368405	keystroke_y	y	n/a
184.397	0.121	368794	keystroke_Key.space	Key.space	n/a
184.5925	0.1345	369185	keystroke_m	m	n/a
184.682	0.106	369364	keystroke_a	a	n/a
184.8775	0.1055	369755	keystroke_r	r	n/a
185.088	0.09	370176	keystroke_s	s	n/a
185.192	0.09	370384	keystroke_h	h	n/a
185.3425	0.1045	370685	keystroke_a	a	n/a
185.432	0.105	370864	keystroke_l	l	n/a
185.628	0.0895	371256	keystroke_l	l	n/a
185.7925	0.074	371585	keystroke_Key.enter	Key.enter	n/a
185.873	5.786	371746	prompt	n/a	measurements inspired dist foot\n
186.528	0.0295	373056	keystroke_m	m	n/a
186.648	0.1045	373296	keystroke_e	e	n/a
186.8425	0.135	373685	keystroke_a	a	n/a
186.9925	0.105	373985	keystroke_s	s	n/a
187.1125	0.09	374225	keystroke_u	u	n/a
187.2175	0.0905	374435	keystroke_r	r	n/a
187.3225	0.135	374645	keystroke_e	e	n/a
187.4275	0.104	374855	keystroke_m	m	n/a
187.563	0.1045	375126	keystroke_e	e	n/a
187.668	0.105	375336	keystroke_n	n	n/a
187.832	0.06	375664	keystroke_t	t	n/a
188.013	0.1195	376026	keystroke_s	s	n/a
188.1175	0.105	376235	keystroke_Key.space	Key.space	n/a
188.2375	0.09	376475	keystroke_i	i	n/a
188.3875	0.0895	376775	keystroke_n	n	n/a
188.492	0.0905	376984	keystroke_s	s	n/a
188.6125	0.075	377225	keystroke_p	p	n/a
188.792	0.0455	377584	keystroke_u	u	n/a
188.8675	0.0905	377735	keystroke_r	r	n/a
189.242	0.0745	378484	keystroke_Key.backspace	Key.backspace	n/a
189.393	0.075	378786	keystroke_Key.backspace	Key.backspace	n/a
189.512	0.1495	379024	keystroke_i	i	n/a
189.6325	0.105	379265	keystroke_r	r	n/a
189.767	0.105	379534	keystroke_e	e	n/a
189.962	0.0905	379924	keystroke_d	d	n/a
190.0665	0.1205	380133	keystroke_Key.space	Key.space	n/a
190.217	0.1355	380434	keystroke_d	d	n/a
190.307	0.091	380614	keystroke_i	i	n/a
190.442	0.0605	380884	keystroke_s	s	n/a
190.6375	0.105	381275	keystroke_t	t	n/a
190.7575	0.1045	381515	keystroke_Key.space	Key.space	n/a
191.028	0.059	382056	keystroke_f	f	n/a
191.118	0.0895	382236	keystroke_o	o	n/a
191.2675	0.12	382535	keystroke_o	o	n/a
191.4625	0.105	382925	keystroke_t	t	n/a
191.5525	0.105	383105	keystroke_Key.enter	Key.enter	n/a
191.6635	5.1555	383327	prompt	n/a	asin economics burton films\n
192.2575	0.1205	384515	keystroke_a	a	n/a
192.437	0.1505	384874	keystroke_s	s	n/a
192.6775	0.09	385355	keystroke_i	i	n/a
192.9025	0.0895	385805	keystroke_n	n	n/a
193.0665	0.0905	386133	keystroke_Key.space	Key.space	n/a
193.2475	0.12	386495	keystroke_e	e	n/a
193.5025	0.105	387005	keystroke_c	c	n/a
193.5925	0.06	387185	keystroke_o	o	n/a
193.728	0.0895	387456	keystroke_n	n	n/a
193.9375	0.075	387875	keystroke_o	o	n/a
194.072	0.106	388144	keystroke_m	m	n/a
194.3275	0.12	388655	keystroke_i	i	n/a
194.4475	0.09	388895	keystroke_c	c	n/a
194.6425	0.0605	389285	keystroke_s	s	n/a
194.7175	0.12	389435	keystroke_Key.space	Key.space	n/a
194.9275	0.075	389855	keystroke_b	b	n/a
195.093	0.119	390186	keystroke_u	u	n/a
195.183	0.104	390366	keystroke_r	r	n/a
195.453	0.1345	390906	keystroke_t	t	n/a
195.5575	0.075	391115	keystroke_o	o	n/a
195.722	0.105	391444	keystroke_n	n	n/a
195.857	0.12	391714	keystroke_Key.space	Key.space	n/a
196.0225	0.1045	392045	keystroke_f	f	n/a
196.112	0.076	392224	keystroke_i	i	n/a
196.277	0.121	392554	keystroke_l	l	n/a
196.457	0.12	392914	keystroke_m	m	n/a
196.6075	0.075	393215	keystroke_s	s	n/a
196.7125	0.105	393425	keystroke_Key.enter	Key.enter	n/a
196.823	7.571	393646	prompt	n/a	dressing climbing emergency dependent\n
197.582	0.0755	395164	keystroke_d	d	n/a
197.748	0.089	395496	keystroke_r	r	n/a
197.853	0.12	395706	keystroke_e	e	n/a
198.047	0.075	396094	keystroke_s	s	n/a
198.228	0.089	396456	keystroke_s	s	n/a
198.3025	0.0745	396605	keystroke_i	i	n/a
198.4525	0.1045	396905	keystroke_n	n	n/a
198.512	0.105	397024	keystroke_g	g	n/a
198.677	0.12	397354	keystroke_Key.space	Key.space	n/a
198.812	0.0605	397624	keystroke_c	c	n/a
198.9175	0.09	397835	keystroke_l	l	n/a
199.0825	0.09	398165	keystroke_i	i	n/a
199.2625	0.12	398525	keystroke_m	m	n/a
199.3675	0.12	398735	keystroke_b	b	n/a
199.517	0.0905	399034	keystroke_i	i	n/a
199.668	0.1195	399336	keystroke_n	n	n/a
199.7725	0.106	399545	keystroke_g	g	n/a
199.9225	0.12	399845	keystroke_Key.space	Key.space	n/a
200.103	0.12	400206	keystroke_a	a	n/a
200.597	0.0755	401194	keystroke_Key.backspace	Key.backspace	n/a
200.6875	0.075	401375	keystroke_e	e	n/a
200.852	0.1055	401704	keystroke_m	m	n/a
200.9715	0.0755	401943	keystroke_e	e	n/a
201.1975	0.075	402395	keystroke_r	r	n/a
201.4075	0.09	402815	keystroke_g	g	n/a
201.5725	0.1045	403145	keystroke_e	e	n/a
201.708	0.12	403416	keystroke_n	n	n/a
202.5025	0.135	405005	keystroke_c	c	n/a
202.5925	0.105	405185	keystroke_y	y	n/a
202.7725	0.12	405545	keystroke_Key.space	Key.space	n/a
202.9075	0.105	405815	keystroke_d	d	n/a
203.1025	0.0905	406205	keystroke_e	e	n/a
203.2075	0.09	406415	keystroke_p	p	n/a
203.3125	0.09	406625	keystroke_e	e	n/a
203.493	0.1045	406986	keystroke_n	n	n/a
203.732	0.075	407464	keystroke_d	d	n/a
203.912	0.09	407824	keystroke_e	e	n/a
204.0175	0.1205	408035	keystroke_n	n	n/a
204.123	0.104	408246	keystroke_t	t	n/a
204.272	0.12	408544	keystroke_Key.enter	Key.enter	n/a
204.3985	6.7155	408797	prompt	n/a	ruby calculations menus recommended\n
205.038	0.1045	410076	keystroke_r	r	n/a
205.1435	0.0895	410287	keystroke_u	u	n/a
205.323	0.1495	410646	keystroke_b	b	n/a
205.533	0.09	411066	keystroke_y	y	n/a
205.7125	0.09	411425	keystroke_Key.space	Key.space	n/a
205.818	0.104	411636	keystroke_c	c	n/a
206.013	0.119	412026	keystroke_a	a	n/a
206.147	0.061	412294	keystroke_l	l	n/a
206.222	0.12	412444	keystroke_c	c	n/a
206.3575	0.105	412715	keystroke_u	u	n/a
206.5675	0.1045	413135	keystroke_l	l	n/a
206.642	0.075	413284	keystroke_a	a	n/a
206.853	0.104	413706	keystroke_t	t	n/a
206.958	0.1945	413916	keystroke_i	i	n/a
207.0625	0.1505	414125	keystroke_o	o	n/a
207.3025	0.135	414605	keystroke_n	n	n/a
207.4525	0.0605	414905	keystroke_s	s	n/a
207.5875	0.12	415175	keystroke_Key.space	Key.space	n/a
207.902	0.105	415804	keystroke_m	m	n/a
208.068	0.119	416136	keystroke_e	e	n/a
208.172	0.09	416344	keystroke_n	n	n/a
208.3675	0.12	416735	keystroke_u	u	n/a
208.502	0.09	417004	keystroke_s	s	n/a
208.6075	0.105	417215	keystroke_Key.space	Key.space	n/a
208.7425	0.075	417485	keystroke_r	r	n/a
208.847	0.1055	417694	keystroke_e	e	n/a
209.0725	0.09	418145	keystroke_c	c	n/a
209.1325	0.06	418265	keystroke_o	o	n/a
209.2975	0.06	418595	keystroke_m	m	n/a
209.4475	0.0905	418895	keystroke_m	m	n/a
210.1075	0.105	420215	keystroke_e	e	n/a
210.273	0.1045	420546	keystroke_n	n	n/a
210.5875	0.075	421175	keystroke_d	d	n/a
210.7675	0.105	421535	keystroke_e	e	n/a
210.9475	0.135	421895	keystroke_d	d	n/a
211.0515	0.06	422103	keystroke_Key.enter	Key.enter	n/a
211.1195	7.3595	422239	prompt	n/a	graphic claire increases techrepublic\n
211.788	0.1045	423576	keystroke_g	g	n/a
211.9525	0.12	423905	keystroke_r	r	n/a
212.148	0.1045	424296	keystroke_a	a	n/a
212.3125	0.1195	424625	keystroke_p	p	n/a
212.597	0.015	425194	keystroke_h	h	n/a
212.642	0.136	425284	keystroke_i	i	n/a
212.763	0.059	425526	keystroke_c	c	n/a
212.852	0.105	425704	keystroke_Key.space	Key.space	n/a
212.973	0.12	425946	keystroke_c	c	n/a
213.123	0.075	426246	keystroke_l	l	n/a
213.2575	0.105	426515	keystroke_a	a	n/a
213.408	0.12	426816	keystroke_i	i	n/a
213.573	0.044	427146	keystroke_r	r	n/a
213.633	0.0745	427266	keystroke_e	e	n/a
213.9625	0.1055	427925	keystroke_Key.space	Key.space	n/a
214.097	0.106	428194	keystroke_i	i	n/a
214.458	0.075	428916	keystroke_n	n	n/a
214.533	0.075	429066	keystroke_c	c	n/a
214.742	0.151	429484	keystroke_r	r	n/a
214.878	0.119	429756	keystroke_e	e	n/a
215.058	0.179	430116	keystroke_a	a	n/a
215.222	0.031	430444	keystroke_s	s	n/a
215.387	0.105	430774	keystroke_e	e	n/a
215.582	0.0755	431164	keystroke_s	s	n/a
215.717	0.1205	431434	keystroke_Key.space	Key.space	n/a
215.838	0.0895	431676	keystroke_t	t	n/a
215.9875	0.105	431975	keystroke_e	e	n/a
216.1975	0.0905	432395	keystroke_c	c	n/a
216.5275	0.1205	433055	keystroke_h	h	n/a
216.8875	0.09	433775	keystroke_r	r	n/a
217.0225	0.12	434045	keystroke_e	e	n/a
217.1575	0.075	434315	keystroke_p	p	n/a
217.4425	0.0905	434885	keystroke_u	u	n/a
217.8025	0.075	435605	keystroke_b	b	n/a
217.9075	0.06	435815	keystroke_l	l	n/a
218.0575	0.135	436115	keystroke_i	i	n/a
218.1625	0.1355	436325	keystroke_c	c	n/a
218.3575	0.12	436715	keystroke_Key.enter	Key.enter	n/a
218.4835	6.625	436967	prompt	n/a	decided could've centers upgrade\n
219.2275	0.105	438455	keystroke_d	d	n/a
219.423	0.0885	438846	keystroke_e	e	n/a
219.647	0.0905	439294	keystroke_c	c	n/a
219.9925	0.09	439985	keystroke_i	i	n/a
220.1275	0.09	440255	keystroke_d	d	n/a
220.3375	0.105	440675	keystroke_e	e	n/a
220.5325	0.09	441065	keystroke_d	d	n/a
220.6665	0.0755	441333	keystroke_Key.space	Key.space	n/a
220.7575	0.0905	441515	keystroke_c	c	n/a
220.8625	0.12	441725	keystroke_o	o	n/a
220.9525	0.135	441905	keystroke_u	u	n/a
221.2075	0.105	442415	keystroke_l	l	n/a
221.3275	0.105	442655	keystroke_d	d	n/a
221.808	0.12	443616	keystroke_'	'	n/a
222.048	0.06	444096	keystroke_v	v	n/a
222.258	0.09	444516	keystroke_e	e	n/a
222.363	0.134	444726	keystroke_Key.space	Key.space	n/a
222.753	0.0905	445506	keystroke_c	c	n/a
222.962	0.09	445924	keystroke_e	e	n/a
223.068	0.12	446136	keystroke_n	n	n/a
223.202	0.106	446404	keystroke_t	t	n/a
223.382	0.076	446764	keystroke_e	e	n/a
223.503	0.0745	447006	keystroke_r	r	n/a
223.6975	0.12	447395	keystroke_s	s	n/a
223.8025	0.09	447605	keystroke_Key.space	Key.space	n/a
223.9075	0.1055	447815	keystroke_u	u	n/a
224.087	0.106	448174	keystroke_p	p	n/a
224.2375	0.12	448475	keystroke_g	g	n/a
224.372	0.105	448744	keystroke_r	r	n/a
224.5825	0.105	449165	keystroke_a	a	n/a
224.7625	0.075	449525	keystroke_d	d	n/a
224.9425	0.09	449885	keystroke_e	e	n/a
224.9875	0.12	449975	keystroke_Key.enter	Key.enter	n/a
225.1115	5.413	450223	prompt	n/a	he anthropology rings sharing\n
225.7985	0.089	451597	keystroke_h	h	n/a
225.873	0.029	451746	keystroke_e	e	n/a
225.9475	0.1055	451895	keystroke_Key.space	Key.space	n/a
226.2175	0.06	452435	keystroke_a	a	n/a
226.2925	0.09	452585	keystroke_n	n	n/a
226.4275	0.105	452855	keystroke_t	t	n/a
226.563	0.09	453126	keystroke_h	h	n/a
226.668	0.1045	453336	keystroke_r	r	n/a
226.832	0.1655	453664	keystroke_o	o	n/a
226.953	0.119	453906	keystroke_p	p	n/a
227.1925	0.0895	454385	keystroke_o	o	n/a
227.387	0.075	454774	keystroke_l	l	n/a
227.583	0.105	455166	keystroke_o	o	n/a
227.793	0.1195	455586	keystroke_g	g	n/a
227.9275	0.12	455855	keystroke_y	y	n/a
228.0775	0.135	456155	keystroke_Key.space	Key.space	n/a
228.258	0.0745	456516	keystroke_r	r	n/a
228.483	0.0895	456966	keystroke_i	i	n/a
228.6325	0.18	457265	keystroke_n	n	n/a
228.7225	0.105	457445	keystroke_g	g	n/a
228.9175	0.1055	457835	keystroke_s	s	n/a
229.0525	0.105	458105	keystroke_Key.space	Key.space	n/a
229.1575	0.1055	458315	keystroke_s	s	n/a
229.2475	0.12	458495	keystroke_h	h	n/a
229.727	0.106	459454	keystroke_a	a	n/a
229.952	0.106	459904	keystroke_r	r	n/a
230.0425	0.0895	460085	keystroke_i	i	n/a
230.193	0.104	460386	keystroke_n	n	n/a
230.2825	0.09	460565	keystroke_g	g	n/a
230.4325	0.0905	460865	keystroke_Key.enter	Key.enter	n/a
230.5285	5.396	461057	prompt	n/a	sensitive laboratory comes oman\n
231.1375	0.09	462275	keystroke_s	s	n/a
231.318	0.1195	462636	keystroke_e	e	n/a
231.4225	0.1345	462845	keystroke_n	n	n/a
231.6025	0.09	463205	keystroke_s	s	n/a
231.8575	0.105	463715	keystroke_i	i	n/a
232.023	0.075	464046	keystroke_t	t	n/a
232.127	0.135	464254	keystroke_i	i	n/a
232.2475	0.0745	464495	keystroke_v	v	n/a
232.4575	0.1045	464915	keystroke_e	e	n/a
232.532	0.105	465064	keystroke_Key.space	Key.space	n/a
232.6825	0.105	465365	keystroke_l	l	n/a
232.8325	0.09	465665	keystroke_a	a	n/a
232.9525	0.12	465905	keystroke_b	b	n/a
233.208	0.12	466416	keystroke_o	o	n/a
233.373	0.09	466746	keystroke_r	r	n/a
233.6125	0.105	467225	keystroke_a	a	n/a
233.8525	0.09	467705	keystroke_t	t	n/a
233.9725	0.12	467945	keystroke_o	o	n/a
234.1075	0.1205	468215	keystroke_r	r	n/a
234.2425	0.1195	468485	keystroke_y	y	n/a
234.3475	0.1195	468695	keystroke_Key.space	Key.space	n/a
234.4825	0.1055	468965	keystroke_c	c	n/a
234.5725	0.105	469145	keystroke_o	o	n/a
234.7675	0.09	469535	keystroke_m	m	n/a
234.8125	0.105	469625	keystroke_e	e	n/a
234.9925	0.105	469985	keystroke_s	s	n/a
235.1125	0.09	470225	keystroke_Key.space	Key.space	n/a
235.2175	0.075	470435	keystroke_o	o	n/a
235.383	0.0895	470766	keystroke_m	m	n/a
235.4875	0.12	470975	keystroke_a	a	n/a
235.5925	0.075	471185	keystroke_n	n	n/a
235.772	0.15	471544	keystroke_Key.enter	Key.enter	n/a
235.9285	8.801	471857	prompt	n/a	museum glenn efficient fresh\n
237.618	0.0895	475236	keystroke_n	n	n/a
237.9475	0.075	475895	keystroke_Key.backspace	Key.backspace	n/a
238.1725	0.1055	476345	keystroke_m	m	n/a
238.3975	0.09	476795	keystroke_u	u	n/a
238.4725	0.09	476945	keystroke_s	s	n/a
238.6225	0.15	477245	keystroke_e	e	n/a
238.7125	0.09	477425	keystroke_u	u	n/a
238.908	0.1195	477816	keystroke_m	m	n/a
239.0425	0.105	478085	keystroke_Key.space	Key.space	n/a
239.193	0.105	478386	keystroke_g	g	n/a
239.6425	0.0895	479285	keystroke_l	l	n/a
239.777	0.105	479554	keystroke_e	e	n/a
239.883	0.1045	479766	keystroke_n	n	n/a
240.077	0.0905	480154	keystroke_n	n	n/a
240.2275	0.12	480455	keystroke_Key.space	Key.space	n/a
240.333	0.1195	480666	keystroke_e	e	n/a
240.5125	0.12	481025	keystroke_f	f	n/a
240.6475	0.075	481295	keystroke_i	i	n/a
240.7975	0.1355	481595	keystroke_i	i	n/a
240.9935	0.059	481987	keystroke_c	c	n/a
241.667	0.09	483334	keystroke_Key.backspace	Key.backspace	n/a
241.8625	0.0445	483725	keystroke_Key.backspace	Key.backspace	n/a
242.267	0.0905	484534	keystroke_Key.backspace	Key.backspace	n/a
242.402	0.0905	484804	keystroke_f	f	n/a
242.597	0.09	485194	keystroke_i	i	n/a
242.8075	0.105	485615	keystroke_c	c	n/a
243.1975	0.1045	486395	keystroke_i	i	n/a
243.347	0.1055	486694	keystroke_e	e	n/a
243.482	0.105	486964	keystroke_n	n	n/a
243.617	0.105	487234	keystroke_t	t	n/a
243.7075	0.1195	487415	keystroke_Key.space	Key.space	n/a
243.843	0.0745	487686	keystroke_f	f	n/a
243.992	0.1055	487984	keystroke_r	r	n/a
244.187	0.076	488374	keystroke_e	e	n/a
244.3825	0.0905	488765	keystroke_s	s	n/a
244.473	0.059	488946	keystroke_h	h	n/a
244.6375	0.09	489275	keystroke_Key.enter	Key.enter	n/a
244.733	6.6725	489466	prompt	n/a	antique christian outcome telecom\n
245.4025	0.105	490805	keystroke_a	a	n/a
245.4925	0.1045	490985	keystroke_n	n	n/a
245.8525	0.105	491705	keystroke_t	t	n/a
246.0475	0.075	492095	keystroke_u	u	n/a
246.5575	0.09	493115	keystroke_Key.backspace	Key.backspace	n/a
246.753	0.089	493506	keystroke_i	i	n/a
246.9175	0.105	493835	keystroke_q	q	n/a
247.0235	0.1035	494047	keystroke_u	u	n/a
247.1425	0.1045	494285	keystroke_e	e	n/a
247.308	0.1195	494616	keystroke_Key.space	Key.space	n/a
247.4285	0.1185	494857	keystroke_c	c	n/a
247.562	0.075	495124	keystroke_h	h	n/a
247.6675	0.136	495335	keystroke_r	r	n/a
247.804	0.104	495608	keystroke_i	i	n/a
248.1325	0.0605	496265	keystroke_s	s	n/a
248.313	0.1045	496626	keystroke_t	t	n/a
248.4175	0.105	496835	keystroke_i	i	n/a
248.6875	0.075	497375	keystroke_a	a	n/a
248.7775	0.1055	497555	keystroke_n	n	n/a
248.9275	0.09	497855	keystroke_Key.space	Key.space	n/a
249.1675	0.075	498335	keystroke_o	o	n/a
249.3475	0.12	498695	keystroke_u	u	n/a
249.4375	0.09	498875	keystroke_t	t	n/a
249.662	0.135	499324	keystroke_c	c	n/a
249.752	0.076	499504	keystroke_o	o	n/a
249.948	0.075	499896	keystroke_m	m	n/a
250.0825	0.09	500165	keystroke_e	e	n/a
250.2025	0.09	500405	keystroke_Key.space	Key.space	n/a
250.3675	0.075	500735	keystroke_t	t	n/a
250.5325	0.105	501065	keystroke_e	e	n/a
250.6225	0.0905	501245	keystroke_l	l	n/a
250.7275	0.09	501455	keystroke_e	e	n/a
250.938	0.09	501876	keystroke_c	c	n/a
251.013	0.089	502026	keystroke_o	o	n/a
251.1475	0.149	502295	keystroke_m	m	n/a
251.3425	0.06	502685	keystroke_Key.enter	Key.enter	n/a
251.412	6.262	502824	prompt	n/a	gently branch finals luxembourg\n
252.198	0.089	504396	keystroke_g	g	n/a
252.377	0.1055	504754	keystroke_e	e	n/a
252.452	0.1055	504904	keystroke_n	n	n/a
252.5875	0.09	505175	keystroke_t	t	n/a
252.768	0.0895	505536	keystroke_l	l	n/a
252.888	0.1045	505776	keystroke_y	y	n/a
253.0075	0.075	506015	keystroke_Key.space	Key.space	n/a
253.1575	0.1355	506315	keystroke_b	b	n/a
253.338	0.1045	506676	keystroke_r	r	n/a
253.563	0.1045	507126	keystroke_a	a	n/a
253.6375	0.1045	507275	keystroke_n	n	n/a
253.802	0.1205	507604	keystroke_c	c	n/a
253.8775	0.165	507755	keystroke_h	h	n/a
254.0565	0.121	508113	keystroke_Key.space	Key.space	n/a
254.2825	0.12	508565	keystroke_f	f	n/a
254.3725	0.09	508745	keystroke_i	i	n/a
254.5225	0.12	509045	keystroke_n	n	n/a
254.7625	0.09	509525	keystroke_a	a	n/a
254.8385	0.104	509677	keystroke_l	l	n/a
255.0175	0.105	510035	keystroke_s	s	n/a
255.108	0.075	510216	keystroke_Key.space	Key.space	n/a
255.2875	0.075	510575	keystroke_l	l	n/a
255.468	0.135	510936	keystroke_u	u	n/a
255.7675	0.105	511535	keystroke_x	x	n/a
255.9925	0.1655	511985	keystroke_e	e	n/a
256.263	0.1055	512526	keystroke_m	m	n/a
256.5625	0.09	513125	keystroke_b	b	n/a
256.7725	0.1055	513545	keystroke_o	o	n/a
256.9525	0.12	513905	keystroke_u	u	n/a
257.3125	0.105	514625	keystroke_r	r	n/a
257.4775	0.105	514955	keystroke_g	g	n/a
257.5835	0.089	515167	keystroke_Key.enter	Key.enter	n/a
257.679	7.9605	515358	prompt	n/a	consolidated larry outreach significant\n
258.483	0.119	516966	keystroke_c	c	n/a
258.588	0.075	517176	keystroke_o	o	n/a
258.797	0.106	517594	keystroke_n	n	n/a
259.2625	0.12	518525	keystroke_s	s	n/a
259.367	0.076	518734	keystroke_o	o	n/a
259.518	0.1345	519036	keystroke_l	l	n/a
259.8175	0.1205	519635	keystroke_i	i	n/a
259.953	0.12	519906	keystroke_d	d	n/a
260.403	0.0745	520806	keystroke_a	a	n/a
260.6275	0.1055	521255	keystroke_t	t	n/a
260.868	0.075	521736	keystroke_e	e	n/a
261.017	0.121	522034	keystroke_d	d	n/a
261.153	0.089	522306	keystroke_Key.space	Key.space	n/a
261.377	0.136	522754	keystroke_l	l	n/a
261.498	0.075	522996	keystroke_a	a	n/a
261.708	0.06	523416	keystroke_r	r	n/a
261.857	0.076	523714	keystroke_r	r	n/a
261.9025	0.1345	523805	keystroke_y	y	n/a
262.0225	0.1195	524045	keystroke_Key.space	Key.space	n/a
262.158	0.179	524316	keystroke_o	o	n/a
262.353	0.15	524706	keystroke_u	u	n/a
262.458	0.09	524916	keystroke_t	t	n/a
262.863	0.045	525726	keystroke_r	r	n/a
262.923	0.12	525846	keystroke_e	e	n/a
263.192	0.0155	526384	keystroke_a	a	n/a
263.5375	0.105	527075	keystroke_c	c	n/a
263.6275	0.106	527255	keystroke_h	h	n/a
263.7475	0.12	527495	keystroke_Key.space	Key.space	n/a
263.8975	0.0895	527795	keystroke_s	s	n/a
264.033	0.1045	528066	keystroke_i	i	n/a
264.2125	0.1055	528425	keystroke_g	g	n/a
264.3325	0.1055	528665	keystroke_n	n	n/a
264.542	0.12	529084	keystroke_i	i	n/a
264.6925	0.1045	529385	keystroke_f	f	n/a
264.842	0.1655	529684	keystroke_i	i	n/a
265.0225	0.03	530045	keystroke_c	c	n/a
265.188	0.0895	530376	keystroke_a	a	n/a
265.2925	0.105	530585	keystroke_n	n	n/a
265.4575	0.09	530915	keystroke_t	t	n/a
265.578	0.0595	531156	keystroke_Key.enter	Key.enter	n/a
265.655	6.524	531310	prompt	n/a	supervision allowing joining moral\n
266.282	0.0905	532564	keystroke_s	s	n/a
266.3575	0.1205	532715	keystroke_u	u	n/a
266.5675	0.12	533135	keystroke_p	p	n/a
266.6725	0.09	533345	keystroke_e	e	n/a
266.8225	0.15	533645	keystroke_r	r	n/a
267.1075	0.1355	534215	keystroke_v	v	n/a
267.227	0.1355	534454	keystroke_i	i	n/a
267.3775	0.105	534755	keystroke_s	s	n/a
267.5425	0.1645	535085	keystroke_i	i	n/a
267.9625	0.061	535925	keystroke_o	o	n/a
268.2475	0.12	536495	keystroke_n	n	n/a
268.352	0.105	536704	keystroke_Key.space	Key.space	n/a
268.4725	0.1345	536945	keystroke_a	a	n/a
268.547	0.09	537094	keystroke_l	l	n/a
268.713	0.075	537426	keystroke_l	l	n/a
268.9075	0.09	537815	keystroke_o	o	n/a
268.998	0.135	537996	keystroke_w	w	n/a
269.207	0.1515	538414	keystroke_i	i	n/a
269.537	0.136	539074	keystroke_n	n	n/a
269.6585	0.089	539317	keystroke_g	g	n/a
269.777	0.09	539554	keystroke_Key.space	Key.space	n/a
269.852	0.1505	539704	keystroke_j	j	n/a
270.0325	0.18	540065	keystroke_o	o	n/a
270.1825	0.12	540365	keystroke_i	i	n/a
270.4075	0.1345	540815	keystroke_n	n	n/a
270.7375	0.09	541475	keystroke_i	i	n/a
270.9325	0.1505	541865	keystroke_n	n	n/a
271.0675	0.12	542135	keystroke_g	g	n/a
271.1575	0.105	542315	keystroke_Key.space	Key.space	n/a
271.3075	0.1055	542615	keystroke_m	m	n/a
271.5475	0.15	543095	keystroke_o	o	n/a
271.6525	0.09	543305	keystroke_r	r	n/a
271.862	0.0755	543724	keystroke_a	a	n/a
271.9225	0.1345	543845	keystroke_l	l	n/a
272.117	0.0605	544234	keystroke_Key.enter	Key.enter	n/a
272.183	5.9065	544366	prompt	n/a	banner chinese religions voters\n
272.8225	0.105	545645	keystroke_b	b	n/a
272.9875	0.1055	545975	keystroke_a	a	n/a
273.0625	0.1055	546125	keystroke_n	n	n/a
273.228	0.15	546456	keystroke_n	n	n/a
273.302	0.136	546604	keystroke_e	e	n/a
273.453	0.1195	546906	keystroke_r	r	n/a
273.5875	0.105	547175	keystroke_Key.space	Key.space	n/a
273.7375	0.1355	547475	keystroke_c	c	n/a
273.8125	0.09	547625	keystroke_h	h	n/a
273.9625	0.1205	547925	keystroke_i	i	n/a
274.1125	0.1795	548225	keystroke_n	n	n/a
274.248	0.074	548496	keystroke_e	e	n/a
274.428	0.089	548856	keystroke_s	s	n/a
274.6075	0.1055	549215	keystroke_e	e	n/a
274.742	0.12	549484	keystroke_Key.space	Key.space	n/a
274.9525	0.075	549905	keystroke_r	r	n/a
275.132	0.12	550264	keystroke_e	e	n/a
275.237	0.09	550474	keystroke_l	l	n/a
275.4025	0.166	550805	keystroke_i	i	n/a
275.569	0.0735	551138	keystroke_g	g	n/a
275.928	0.164	551856	keystroke_i	i	n/a
276.018	0.12	552036	keystroke_o	o	n/a
276.213	0.135	552426	keystroke_n	n	n/a
276.3185	0.1345	552637	keystroke_s	s	n/a
276.453	0.089	552906	keystroke_Key.space	Key.space	n/a
276.588	0.1045	553176	keystroke_v	v	n/a
276.7075	0.136	553415	keystroke_o	o	n/a
276.8275	0.136	553655	keystroke_t	t	n/a
277.0225	0.105	554045	keystroke_e	e	n/a
277.2775	0.09	554555	keystroke_r	r	n/a
277.5925	0.09	555185	keystroke_s	s	n/a
277.9525	0.135	555905	keystroke_Key.enter	Key.enter	n/a
278.0935	7.946	556187	prompt	n/a	metabolism equipment questionnaire estimates\n
278.793	0.1645	557586	keystroke_m	m	n/a
278.913	0.12	557826	keystroke_e	e	n/a
279.153	0.0895	558306	keystroke_t	t	n/a
279.4525	0.09	558905	keystroke_a	a	n/a
279.5275	0.075	559055	keystroke_b	b	n/a
279.723	0.089	559446	keystroke_o	o	n/a
279.887	0.091	559774	keystroke_l	l	n/a
280.082	0.0905	560164	keystroke_i	i	n/a
280.263	0.105	560526	keystroke_s	s	n/a
280.383	0.1045	560766	keystroke_m	m	n/a
280.562	0.135	561124	keystroke_Key.space	Key.space	n/a
280.8775	0.1055	561755	keystroke_e	e	n/a
281.0725	0.0755	562145	keystroke_q	q	n/a
281.118	0.1785	562236	keystroke_u	u	n/a
281.2225	0.135	562445	keystroke_i	i	n/a
281.448	0.1045	562896	keystroke_p	p	n/a
281.5375	0.12	563075	keystroke_e	e	n/a
281.6725	0.135	563345	keystroke_m	m	n/a
281.7625	0.12	563525	keystroke_e	e	n/a
281.8975	0.105	563795	keystroke_n	n	n/a
281.988	0.1345	563976	keystroke_t	t	n/a
282.1375	0.105	564275	keystroke_Key.space	Key.space	n/a
282.303	0.135	564606	keystroke_q	q	n/a
282.423	0.134	564846	keystroke_u	u	n/a
282.543	0.104	565086	keystroke_e	e	n/a
282.722	0.075	565444	keystroke_s	s	n/a
282.902	0.1205	565804	keystroke_t	t	n/a
282.977	0.196	565954	keystroke_i	i	n/a
283.0975	0.1045	566195	keystroke_o	o	n/a
283.307	0.135	566614	keystroke_n	n	n/a
283.6975	0.105	567395	keystroke_n	n	n/a
283.8475	0.1045	567695	keystroke_a	a	n/a
284.0875	0.1195	568175	keystroke_i	i	n/a
284.208	0.104	568416	keystroke_r	r	n/a
284.387	0.12	568774	keystroke_e	e	n/a
284.492	0.1355	568984	keystroke_Key.space	Key.space	n/a
284.628	0.105	569256	keystroke_e	e	n/a
284.837	0.061	569674	keystroke_s	s	n/a
285.018	0.1045	570036	keystroke_t	t	n/a
285.0925	0.075	570185	keystroke_i	i	n/a
285.2425	0.165	570485	keystroke_m	m	n/a
285.3325	0.09	570665	keystroke_a	a	n/a
285.5125	0.09	571025	keystroke_t	t	n/a
285.648	0.1045	571296	keystroke_e	e	n/a
285.843	0.0895	571686	keystroke_s	s	n/a
285.9475	0.09	571895	keystroke_Key.enter	Key.enter	n/a
286.0435	5.216	572087	prompt	n/a	achieved individual time graphs\n
286.7275	0.105	573455	keystroke_a	a	n/a
286.9075	0.12	573815	keystroke_c	c	n/a
286.9825	0.09	573965	keystroke_h	h	n/a
287.1325	0.12	574265	keystroke_i	i	n/a
287.2375	0.1205	574475	keystroke_e	e	n/a
287.4475	0.12	574895	keystroke_v	v	n/a
287.5525	0.105	575105	keystroke_e	e	n/a
287.7925	0.075	575585	keystroke_d	d	n/a
287.8825	0.09	575765	keystroke_Key.space	Key.space	n/a
287.9575	0.09	575915	keystroke_i	i	n/a
288.1075	0.105	576215	keystroke_n	n	n/a
288.198	0.1195	576396	keystroke_d	d	n/a
288.408	0.1345	576816	keystroke_i	i	n/a
288.7825	0.1055	577565	keystroke_v	v	n/a
288.903	0.1045	577806	keystroke_i	i	n/a
289.038	0.1495	578076	keystroke_d	d	n/a
289.1575	0.12	578315	keystroke_u	u	n/a
289.3225	0.09	578645	keystroke_a	a	n/a
289.427	0.0905	578854	keystroke_l	l	n/a
289.5775	0.1205	579155	keystroke_Key.space	Key.space	n/a
289.817	0.136	579634	keystroke_t	t	n/a
289.923	0.0895	579846	keystroke_i	i	n/a
290.073	0.119	580146	keystroke_m	m	n/a
290.162	0.091	580324	keystroke_e	e	n/a
290.3125	0.105	580625	keystroke_Key.space	Key.space	n/a
290.3725	0.105	580745	keystroke_g	g	n/a
290.5075	0.09	581015	keystroke_r	r	n/a
290.7175	0.09	581435	keystroke_a	a	n/a
290.748	0.1195	581496	keystroke_p	p	n/a
290.9135	0.1345	581827	keystroke_h	h	n/a
291.032	0.105	582064	keystroke_s	s	n/a
291.152	0.106	582304	keystroke_Key.enter	Key.enter	n/a
291.2635	6.0105	582527	prompt	n/a	supported genuine broad definition\n
291.933	0.105	583866	keystroke_s	s	n/a
292.023	0.09	584046	keystroke_u	u	n/a
292.218	0.105	584436	keystroke_p	p	n/a
292.383	0.2995	584766	keystroke_p	p	n/a
292.5025	0.1655	585005	keystroke_o	o	n/a
292.7575	0.1345	585515	keystroke_r	r	n/a
292.9675	0.1195	585935	keystroke_t	t	n/a
293.177	0.1055	586354	keystroke_e	e	n/a
293.4025	0.1205	586805	keystroke_d	d	n/a
293.4925	0.12	586985	keystroke_Key.space	Key.space	n/a
293.6725	0.09	587345	keystroke_g	g	n/a
293.8675	0.075	587735	keystroke_e	e	n/a
293.9275	0.09	587855	keystroke_n	n	n/a
294.2725	0.18	588545	keystroke_u	u	n/a
294.3925	0.135	588785	keystroke_i	i	n/a
294.618	0.089	589236	keystroke_n	n	n/a
294.692	0.1505	589384	keystroke_e	e	n/a
294.8275	0.09	589655	keystroke_Key.space	Key.space	n/a
294.9325	0.09	589865	keystroke_b	b	n/a
295.0825	0.105	590165	keystroke_r	r	n/a
295.2175	0.12	590435	keystroke_o	o	n/a
295.3525	0.0605	590705	keystroke_a	a	n/a
295.487	0.1205	590974	keystroke_d	d	n/a
295.5775	0.105	591155	keystroke_Key.space	Key.space	n/a
295.697	0.09	591394	keystroke_d	d	n/a
295.863	0.12	591726	keystroke_e	e	n/a
296.043	0.119	592086	keystroke_f	f	n/a
296.132	0.106	592264	keystroke_i	i	n/a
296.357	0.061	592714	keystroke_n	n	n/a
296.522	0.105	593044	keystroke_i	i	n/a
296.657	0.091	593314	keystroke_t	t	n/a
296.762	0.15	593524	keystroke_i	i	n/a
296.838	0.1345	593676	keystroke_o	o	n/a
297.003	0.104	594006	keystroke_n	n	n/a
297.1825	0.09	594365	keystroke_Key.enter	Key.enter	n/a
297.278	8.1265	594556	prompt	n/a	rover essential blend transaction\n
297.888	0.1195	595776	keystroke_r	r	n/a
297.9925	0.105	595985	keystroke_o	o	n/a
298.1275	0.105	596255	keystroke_v	v	n/a
298.3375	0.0905	596675	keystroke_e	e	n/a
298.4575	0.12	596915	keystroke_r	r	n/a
298.5625	0.135	597125	keystroke_Key.space	Key.space	n/a
298.6825	0.105	597365	keystroke_e	e	n/a
298.877	0.105	597754	keystroke_s	s	n/a
299.0575	0.165	598115	keystroke_s	s	n/a
299.2825	0.12	598565	keystroke_e	e	n/a
299.3875	0.135	598775	keystroke_n	n	n/a
299.5375	0.09	599075	keystroke_t	t	n/a
299.673	0.225	599346	keystroke_i	i	n/a
299.822	0.106	599644	keystroke_o	o	n/a
300.7075	0.1365	601415	keystroke_Key.backspace	Key.backspace	n/a
301.8025	0.12	603605	keystroke_a	a	n/a
301.9675	0.105	603935	keystroke_l	l	n/a
302.1925	0.09	604385	keystroke_Key.space	Key.space	n/a
302.3275	0.12	604655	keystroke_b	b	n/a
302.5825	0.09	605165	keystroke_l	l	n/a
302.658	0.119	605316	keystroke_e	e	n/a
302.8075	0.1205	605615	keystroke_n	n	n/a
302.943	0.0745	605886	keystroke_d	d	n/a
303.0475	0.12	606095	keystroke_Key.space	Key.space	n/a
303.1825	0.105	606365	keystroke_t	t	n/a
303.3175	0.105	606635	keystroke_r	r	n/a
303.4975	0.1055	606995	keystroke_a	a	n/a
303.678	0.105	607356	keystroke_n	n	n/a
304.0975	0.1045	608195	keystroke_s	s	n/a
304.413	0.0595	608826	keystroke_a	a	n/a
304.5625	0.0605	609125	keystroke_c	c	n/a
304.7725	0.1055	609545	keystroke_t	t	n/a
304.8325	0.165	609665	keystroke_i	i	n/a
304.9375	0.12	609875	keystroke_o	o	n/a
305.1325	0.09	610265	keystroke_n	n	n/a
305.2975	0.105	610595	keystroke_Key.enter	Key.enter	n/a
305.4085	6.312	610817	prompt	n/a	onto futures recommendation husband\n
306.018	0.0895	612036	keystroke_o	o	n/a
306.1975	0.0755	612395	keystroke_n	n	n/a
306.3025	0.1205	612605	keystroke_t	t	n/a
306.4075	0.0755	612815	keystroke_o	o	n/a
306.5115	0.121	613023	keystroke_Key.space	Key.space	n/a
306.648	0.0895	613296	keystroke_f	f	n/a
306.7675	0.09	613535	keystroke_u	u	n/a
306.8725	0.12	613745	keystroke_t	t	n/a
306.978	0.135	613956	keystroke_u	u	n/a
307.083	0.105	614166	keystroke_r	r	n/a
307.277	0.091	614554	keystroke_e	e	n/a
307.413	0.1345	614826	keystroke_s	s	n/a
307.533	0.0895	615066	keystroke_Key.space	Key.space	n/a
307.6525	0.09	615305	keystroke_r	r	n/a
307.7725	0.105	615545	keystroke_e	e	n/a
307.983	0.1045	615966	keystroke_c	c	n/a
308.1035	0.089	616207	keystroke_o	o	n/a
308.298	0.09	616596	keystroke_m	m	n/a
308.4475	0.1495	616895	keystroke_m	m	n/a
308.9275	0.135	617855	keystroke_e	e	n/a
309.138	0.135	618276	keystroke_n	n	n/a
309.5725	0.09	619145	keystroke_d	d	n/a
309.7675	0.06	619535	keystroke_a	a	n/a
309.948	0.1045	619896	keystroke_t	t	n/a
310.0225	0.165	620045	keystroke_i	i	n/a
310.0985	0.119	620197	keystroke_o	o	n/a
310.4275	0.1055	620855	keystroke_n	n	n/a
310.5475	0.09	621095	keystroke_Key.space	Key.space	n/a
310.653	0.15	621306	keystroke_h	h	n/a
310.788	0.12	621576	keystroke_u	u	n/a
310.878	0.149	621756	keystroke_s	s	n/a
311.0725	0.135	622145	keystroke_b	b	n/a
311.2975	0.09	622595	keystroke_a	a	n/a
311.373	0.1195	622746	keystroke_n	n	n/a
311.4775	0.105	622955	keystroke_d	d	n/a
311.6125	0.1055	623225	keystroke_Key.enter	Key.enter	n/a
311.7275	5.542	623455	prompt	n/a	guards certificate look industry\n
312.3175	0.12	624635	keystroke_g	g	n/a
312.467	0.136	624934	keystroke_u	u	n/a
312.588	0.074	625176	keystroke_a	a	n/a
312.7675	0.0895	625535	keystroke_r	r	n/a
312.962	0.106	625924	keystroke_d	d	n/a
313.1275	0.1055	626255	keystroke_s	s	n/a
313.2475	0.09	626495	keystroke_Key.space	Key.space	n/a
313.3225	0.06	626645	keystroke_c	c	n/a
313.5175	0.105	627035	keystroke_e	e	n/a
313.6825	0.09	627365	keystroke_r	r	n/a
313.8775	0.0905	627755	keystroke_t	t	n/a
313.9825	0.105	627965	keystroke_i	i	n/a
314.1175	0.09	628235	keystroke_f	f	n/a
314.2225	0.105	628445	keystroke_i	i	n/a
314.373	0.0895	628746	keystroke_c	c	n/a
314.5675	0.0755	629135	keystroke_a	a	n/a
314.748	0.09	629496	keystroke_t	t	n/a
314.913	0.1195	629826	keystroke_e	e	n/a
315.033	0.135	630066	keystroke_Key.space	Key.space	n/a
315.213	0.075	630426	keystroke_l	l	n/a
315.4075	0.075	630815	keystroke_o	o	n/a
315.5725	0.15	631145	keystroke_o	o	n/a
315.707	0.1205	631414	keystroke_k	k	n/a
315.9025	0.09	631805	keystroke_Key.space	Key.space	n/a
315.9625	0.09	631925	keystroke_i	i	n/a
316.1125	0.135	632225	keystroke_n	n	n/a
316.2625	0.135	632525	keystroke_d	d	n/a
316.398	0.135	632796	keystroke_u	u	n/a
316.578	0.075	633156	keystroke_s	s	n/a
316.788	0.104	633576	keystroke_t	t	n/a
316.953	0.075	633906	keystroke_r	r	n/a
316.968	0.09	633936	keystroke_y	y	n/a
317.148	0.119	634296	keystroke_Key.enter	Key.enter	n/a
317.2735	5.291	634547	prompt	n/a	already turner bigger movement\n
317.988	0.0745	635976	keystroke_a	a	n/a
318.0635	0.179	636127	keystroke_l	l	n/a
318.2435	0.074	636487	keystroke_r	r	n/a
318.3775	0.075	636755	keystroke_e	e	n/a
318.5575	0.075	637115	keystroke_a	a	n/a
318.692	0.1205	637384	keystroke_d	d	n/a
318.8275	0.09	637655	keystroke_y	y	n/a
318.902	0.1205	637804	keystroke_Key.space	Key.space	n/a
319.0525	0.105	638105	keystroke_t	t	n/a
319.1575	0.09	638315	keystroke_u	u	n/a
319.2775	0.1205	638555	keystroke_r	r	n/a
319.413	0.165	638826	keystroke_n	n	n/a
319.518	0.119	639036	keystroke_e	e	n/a
319.652	0.136	639304	keystroke_r	r	n/a
319.758	0.12	639516	keystroke_Key.space	Key.space	n/a
319.863	0.09	639726	keystroke_b	b	n/a
320.013	0.105	640026	keystroke_i	i	n/a
320.043	0.09	640086	keystroke_g	g	n/a
320.5675	0.0755	641135	keystroke_g	g	n/a
320.763	0.1045	641526	keystroke_e	e	n/a
320.9275	0.12	641855	keystroke_r	r	n/a
321.0625	0.075	642125	keystroke_Key.space	Key.space	n/a
321.3925	0.09	642785	keystroke_m	m	n/a
321.5725	0.105	643145	keystroke_o	o	n/a
321.693	0.1045	643386	keystroke_v	v	n/a
321.8875	0.135	643775	keystroke_e	e	n/a
321.9775	0.1055	643955	keystroke_m	m	n/a
322.1125	0.09	644225	keystroke_e	e	n/a
322.2175	0.106	644435	keystroke_n	n	n/a
322.3675	0.135	644735	keystroke_t	t	n/a
322.4875	0.075	644975	keystroke_Key.enter	Key.enter	n/a
322.5685	7.406	645137	prompt	n/a	tobago performed regard cadillac\n
323.2375	0.12	646475	keystroke_t	t	n/a
323.3425	0.09	646685	keystroke_o	o	n/a
324.3625	0.075	648725	keystroke_b	b	n/a
324.5575	0.09	649115	keystroke_a	a	n/a
324.7825	0.1205	649565	keystroke_g	g	n/a
324.8725	0.09	649745	keystroke_o	o	n/a
325.0525	0.12	650105	keystroke_Key.space	Key.space	n/a
325.3075	0.12	650615	keystroke_p	p	n/a
325.4125	0.1345	650825	keystroke_e	e	n/a
325.532	0.106	651064	keystroke_r	r	n/a
325.758	0.105	651516	keystroke_f	f	n/a
325.8775	0.0755	651755	keystroke_o	o	n/a
326.5675	0.1195	653135	keystroke_r	r	n/a
326.732	0.1055	653464	keystroke_m	m	n/a
327.0475	0.0755	654095	keystroke_e	e	n/a
327.2125	0.106	654425	keystroke_d	d	n/a
327.319	0.118	654638	keystroke_Key.space	Key.space	n/a
327.4535	0.105	654907	keystroke_r	r	n/a
327.5875	0.1355	655175	keystroke_e	e	n/a
327.782	0.076	655564	keystroke_g	g	n/a
327.993	0.06	655986	keystroke_a	a	n/a
328.173	0.075	656346	keystroke_r	r	n/a
328.337	0.1215	656674	keystroke_d	d	n/a
328.473	0.105	656946	keystroke_Key.space	Key.space	n/a
328.593	0.105	657186	keystroke_c	c	n/a
328.788	0.075	657576	keystroke_a	a	n/a
328.9225	0.105	657845	keystroke_d	d	n/a
329.0425	0.06	658085	keystroke_i	i	n/a
329.2075	0.075	658415	keystroke_l	l	n/a
329.3725	0.12	658745	keystroke_l	l	n/a
329.463	0.1045	658926	keystroke_a	a	n/a
329.6725	0.075	659345	keystroke_c	c	n/a
329.8825	0.09	659765	keystroke_Key.enter	Key.enter	n/a
329.981	5.003	659962	prompt	n/a	fund responded bridges miami\n
330.7525	0.09	661505	keystroke_f	f	n/a
330.8125	0.0905	661625	keystroke_u	u	n/a
331.0225	0.12	662045	keystroke_n	n	n/a
331.0975	0.105	662195	keystroke_d	d	n/a
331.2475	0.105	662495	keystroke_Key.space	Key.space	n/a
331.353	0.09	662706	keystroke_r	r	n/a
331.5025	0.09	663005	keystroke_e	e	n/a
331.6375	0.135	663275	keystroke_s	s	n/a
331.7575	0.1805	663515	keystroke_p	p	n/a
331.848	0.135	663696	keystroke_o	o	n/a
332.088	0.12	664176	keystroke_n	n	n/a
332.162	0.0905	664324	keystroke_d	d	n/a
332.358	0.075	664716	keystroke_e	e	n/a
332.538	0.105	665076	keystroke_d	d	n/a
332.627	0.09	665254	keystroke_Key.space	Key.space	n/a
332.7925	0.075	665585	keystroke_b	b	n/a
332.8825	0.12	665765	keystroke_r	r	n/a
333.0175	0.09	666035	keystroke_i	i	n/a
333.138	0.1055	666276	keystroke_d	d	n/a
333.2725	0.12	666545	keystroke_g	g	n/a
333.378	0.135	666756	keystroke_e	e	n/a
333.6935	0.1195	667387	keystroke_s	s	n/a
333.798	0.09	667596	keystroke_Key.space	Key.space	n/a
333.963	0.136	667926	keystroke_m	m	n/a
334.232	0.075	668464	keystroke_i	i	n/a
334.397	0.0905	668794	keystroke_a	a	n/a
334.5325	0.1195	669065	keystroke_m	m	n/a
334.698	0.104	669396	keystroke_i	i	n/a
334.877	0.1055	669754	keystroke_Key.enter	Key.enter	n/a
334.988	5.5015	669976	prompt	n/a	ships counted permissions intervals\n
335.643	0.1045	671286	keystroke_s	s	n/a
335.7325	0.1055	671465	keystroke_h	h	n/a
335.943	0.09	671886	keystroke_i	i	n/a
336.1375	0.09	672275	keystroke_p	p	n/a
336.2575	0.1045	672515	keystroke_s	s	n/a
336.3475	0.105	672695	keystroke_Key.space	Key.space	n/a
336.4975	0.105	672995	keystroke_c	c	n/a
336.587	0.0905	673174	keystroke_o	o	n/a
336.767	0.075	673534	keystroke_u	u	n/a
336.9475	0.15	673895	keystroke_n	n	n/a
337.0225	0.09	674045	keystroke_t	t	n/a
337.188	0.1045	674376	keystroke_e	e	n/a
337.3825	0.09	674765	keystroke_d	d	n/a
337.4575	0.0905	674915	keystroke_Key.space	Key.space	n/a
337.6075	0.121	675215	keystroke_p	p	n/a
337.713	0.105	675426	keystroke_e	e	n/a
337.833	0.12	675666	keystroke_r	r	n/a
337.923	0.105	675846	keystroke_m	m	n/a
338.103	0.1495	676206	keystroke_i	i	n/a
338.2375	0.075	676475	keystroke_s	s	n/a
338.433	0.0895	676866	keystroke_s	s	n/a
338.5375	0.18	677075	keystroke_i	i	n/a
338.6275	0.12	677255	keystroke_o	o	n/a
338.808	0.135	677616	keystroke_n	n	n/a
338.943	0.12	677886	keystroke_s	s	n/a
339.0775	0.09	678155	keystroke_Key.space	Key.space	n/a
339.1675	0.1205	678335	keystroke_i	i	n/a
339.318	0.1645	678636	keystroke_n	n	n/a
339.423	0.075	678846	keystroke_t	t	n/a
339.5875	0.091	679175	keystroke_e	e	n/a
339.6925	0.1355	679385	keystroke_r	r	n/a
339.843	0.12	679686	keystroke_v	v	n/a
339.9775	0.09	679955	keystroke_a	a	n/a
340.128	0.1195	680256	keystroke_l	l	n/a
340.2775	0.09	680555	keystroke_s	s	n/a
340.3825	0.105	680765	keystroke_Key.enter	Key.enter	n/a
340.4925	5.9065	680985	prompt	n/a	long game care centres\n
341.058	0.1195	682116	keystroke_l	l	n/a
341.2375	0.09	682475	keystroke_i	i	n/a
341.463	0.12	682926	keystroke_n	n	n/a
341.7025	0.075	683405	keystroke_g	g	n/a
341.9575	0.075	683915	keystroke_Key.backspace	Key.backspace	n/a
342.1375	0.06	684275	keystroke_Key.backspace	Key.backspace	n/a
342.2875	0.0455	684575	keystroke_Key.backspace	Key.backspace	n/a
342.678	0.075	685356	keystroke_o	o	n/a
342.902	0.1205	685804	keystroke_n	n	n/a
343.023	0.0895	686046	keystroke_g	g	n/a
343.158	0.119	686316	keystroke_Key.space	Key.space	n/a
343.322	0.12	686644	keystroke_g	g	n/a
343.533	0.105	687066	keystroke_a	a	n/a
343.608	0.105	687216	keystroke_m	m	n/a
343.728	0.09	687456	keystroke_e	e	n/a
343.832	0.12	687664	keystroke_Key.space	Key.space	n/a
343.954	0.074	687908	keystroke_c	c	n/a
344.132	0.076	688264	keystroke_a	a	n/a
344.267	0.135	688534	keystroke_r	r	n/a
344.418	0.105	688836	keystroke_e	e	n/a
344.538	0.105	689076	keystroke_Key.space	Key.space	n/a
344.658	0.09	689316	keystroke_c	c	n/a
344.868	0.1045	689736	keystroke_e	e	n/a
345.048	0.1195	690096	keystroke_n	n	n/a
345.558	0.09	691116	keystroke_t	t	n/a
345.948	0.105	691896	keystroke_r	r	n/a
346.068	0.1045	692136	keystroke_e	e	n/a
346.2175	0.12	692435	keystroke_s	s	n/a
346.3225	0.075	692645	keystroke_Key.enter	Key.enter	n/a
346.403	7.1965	692806	prompt	n/a	hamilton facilities symbol wearing\n
347.0275	0.09	694055	keystroke_h	h	n/a
347.1325	0.105	694265	keystroke_a	a	n/a
347.2525	0.09	694505	keystroke_m	m	n/a
347.4325	0.0755	694865	keystroke_i	i	n/a
347.628	0.075	695256	keystroke_l	l	n/a
347.7335	0.0895	695467	keystroke_t	t	n/a
348.588	0.075	697176	keystroke_o	o	n/a
348.7825	0.06	697565	keystroke_n	n	n/a
348.992	0.09	697984	keystroke_Key.space	Key.space	n/a
349.218	0.105	698436	keystroke_f	f	n/a
349.413	0.075	698826	keystroke_a	a	n/a
349.563	0.1195	699126	keystroke_c	c	n/a
349.667	0.1055	699334	keystroke_i	i	n/a
349.893	0.075	699786	keystroke_l	l	n/a
350.043	0.105	700086	keystroke_i	i	n/a
350.163	0.104	700326	keystroke_t	t	n/a
350.283	0.105	700566	keystroke_i	i	n/a
350.402	0.091	700804	keystroke_e	e	n/a
350.567	0.1055	701134	keystroke_s	s	n/a
350.6425	0.105	701285	keystroke_Key.space	Key.space	n/a
350.8525	0.105	701705	keystroke_s	s	n/a
350.9425	0.09	701885	keystroke_y	y	n/a
351.1675	0.1205	702335	keystroke_m	m	n/a
351.4075	0.045	702815	keystroke_v	v	n/a
351.843	0.105	703686	keystroke_Key.backspace	Key.backspace	n/a
351.949	0.0885	703898	keystroke_b	b	n/a
352.0385	0.1195	704077	keystroke_o	o	n/a
352.233	0.105	704466	keystroke_l	l	n/a
352.4275	0.15	704855	keystroke_Key.space	Key.space	n/a
352.562	0.12	705124	keystroke_w	w	n/a
352.698	0.119	705396	keystroke_e	e	n/a
352.893	0.075	705786	keystroke_a	a	n/a
353.073	0.1045	706146	keystroke_r	r	n/a
353.163	0.0745	706326	keystroke_i	i	n/a
353.2675	0.1355	706535	keystroke_n	n	n/a
353.3725	0.105	706745	keystroke_g	g	n/a
353.522	0.075	707044	keystroke_Key.enter	Key.enter	n/a
353.604	6.9705	707208	prompt	n/a	pope relevance acquisition jordan\n
354.2125	0.105	708425	keystroke_p	p	n/a
354.6025	0.1505	709205	keystroke_o	o	n/a
354.6925	0.1055	709385	keystroke_p	p	n/a
354.828	0.149	709656	keystroke_e	e	n/a
354.962	0.106	709924	keystroke_Key.space	Key.space	n/a
355.098	0.105	710196	keystroke_r	r	n/a
355.2475	0.09	710495	keystroke_e	e	n/a
355.2935	0.119	710587	keystroke_l	l	n/a
355.4725	0.09	710945	keystroke_e	e	n/a
355.817	0.0755	711634	keystroke_b	b	n/a
356.2825	0.1205	712565	keystroke_Key.backspace	Key.backspace	n/a
356.3575	0.09	712715	keystroke_v	v	n/a
356.552	0.0905	713104	keystroke_a	a	n/a
356.6725	0.135	713345	keystroke_n	n	n/a
356.823	0.09	713646	keystroke_c	c	n/a
357.017	0.12	714034	keystroke_e	e	n/a
357.122	0.09	714244	keystroke_Key.space	Key.space	n/a
357.408	0.09	714816	keystroke_a	a	n/a
357.588	0.1045	715176	keystroke_c	c	n/a
357.8275	0.1055	715655	keystroke_q	q	n/a
357.9175	0.18	715835	keystroke_u	u	n/a
358.0225	0.1505	716045	keystroke_i	i	n/a
358.1875	0.075	716375	keystroke_s	s	n/a
358.3225	0.106	716645	keystroke_i	i	n/a
358.7875	0.1355	717575	keystroke_t	t	n/a
358.8925	0.1795	717785	keystroke_i	i	n/a
358.968	0.1345	717936	keystroke_o	o	n/a
359.1775	0.135	718355	keystroke_n	n	n/a
359.343	0.1045	718686	keystroke_Key.space	Key.space	n/a
359.5375	0.1355	719075	keystroke_j	j	n/a
359.718	0.119	719436	keystroke_o	o	n/a
359.822	0.091	719644	keystroke_r	r	n/a
360.047	0.091	720094	keystroke_d	d	n/a
360.258	0.06	720516	keystroke_a	a	n/a
360.303	0.104	720606	keystroke_n	n	n/a
360.468	0.104	720936	keystroke_Key.enter	Key.enter	n/a
360.578	5.0515	721156	prompt	n/a	spots ugly menus statutes\n
361.173	0.12	722346	keystroke_s	s	n/a
361.308	0.24	722616	keystroke_p	p	n/a
361.428	0.165	722856	keystroke_o	o	n/a
361.578	0.09	723156	keystroke_t	t	n/a
361.7425	0.15	723485	keystroke_s	s	n/a
361.8625	0.0905	723725	keystroke_Key.space	Key.space	n/a
361.9375	0.135	723875	keystroke_u	u	n/a
362.118	0.1195	724236	keystroke_g	g	n/a
362.2675	0.1345	724535	keystroke_l	l	n/a
362.417	0.1355	724834	keystroke_y	y	n/a
362.568	0.0895	725136	keystroke_Key.space	Key.space	n/a
362.643	0.1045	725286	keystroke_m	m	n/a
362.762	0.1355	725524	keystroke_e	e	n/a
362.913	0.135	725826	keystroke_n	n	n/a
363.4075	0.075	726815	keystroke_u	u	n/a
363.5275	0.12	727055	keystroke_s	s	n/a
363.7075	0.1205	727415	keystroke_Key.space	Key.space	n/a
363.8425	0.075	727685	keystroke_s	s	n/a
364.0225	0.09	728045	keystroke_t	t	n/a
364.2175	0.0905	728435	keystroke_a	a	n/a
364.442	0.091	728884	keystroke_t	t	n/a
364.6825	0.1655	729365	keystroke_u	u	n/a
364.8935	0.1195	729787	keystroke_t	t	n/a
365.1925	0.1045	730385	keystroke_e	e	n/a
365.447	0.0905	730894	keystroke_s	s	n/a
365.5385	0.089	731077	keystroke_Key.enter	Key.enter	n/a
365.633	4.5565	731266	prompt	n/a	dayton drove ruth skirt\n
366.4825	0.1045	732965	keystroke_d	d	n/a
366.663	0.1045	733326	keystroke_a	a	n/a
366.7825	0.0905	733565	keystroke_y	y	n/a
366.9475	0.12	733895	keystroke_t	t	n/a
367.053	0.0895	734106	keystroke_o	o	n/a
367.2925	0.12	734585	keystroke_n	n	n/a
367.4275	0.135	734855	keystroke_Key.space	Key.space	n/a
367.5175	0.09	735035	keystroke_d	d	n/a
367.6825	0.1205	735365	keystroke_r	r	n/a
367.8325	0.09	735665	keystroke_o	o	n/a
367.9975	0.09	735995	keystroke_v	v	n/a
368.1925	0.105	736385	keystroke_e	e	n/a
368.3125	0.1195	736625	keystroke_Key.space	Key.space	n/a
368.5525	0.075	737105	keystroke_r	r	n/a
368.6725	0.105	737345	keystroke_u	u	n/a
368.9875	0.1055	737975	keystroke_t	t	n/a
369.0475	0.1505	738095	keystroke_h	h	n/a
369.2125	0.12	738425	keystroke_Key.space	Key.space	n/a
369.3625	0.09	738725	keystroke_s	s	n/a
369.513	0.1045	739026	keystroke_k	k	n/a
369.708	0.1345	739416	keystroke_i	i	n/a
369.7825	0.09	739565	keystroke_r	r	n/a
369.9175	0.135	739835	keystroke_t	t	n/a
370.0525	0.135	740105	keystroke_Key.enter	Key.enter	n/a
370.1945	9.941	740389	prompt	n/a	authorization fountain temporary jpeg\n
370.877	0.106	741754	keystroke_a	a	n/a
371.088	0.12	742176	keystroke_u	u	n/a
371.313	0.135	742626	keystroke_t	t	n/a
371.463	0.0895	742926	keystroke_h	h	n/a
371.642	0.121	743284	keystroke_o	o	n/a
371.7475	0.15	743495	keystroke_r	r	n/a
371.8825	0.12	743765	keystroke_i	i	n/a
372.108	0.0745	744216	keystroke_z	z	n/a
372.3025	0.0755	744605	keystroke_a	a	n/a
372.512	0.1205	745024	keystroke_t	t	n/a
372.603	0.1645	745206	keystroke_i	i	n/a
372.7375	0.195	745475	keystroke_o	o	n/a
372.963	0.1495	745926	keystroke_n	n	n/a
373.2625	0.09	746525	keystroke_Key.space	Key.space	n/a
373.3975	0.12	746795	keystroke_f	f	n/a
373.773	0.15	747546	keystroke_o	o	n/a
373.9075	0.105	747815	keystroke_u	u	n/a
374.1175	0.135	748235	keystroke_n	n	n/a
374.1925	0.075	748385	keystroke_t	t	n/a
374.388	0.0895	748776	keystroke_a	a	n/a
374.463	0.0745	748926	keystroke_i	i	n/a
374.5825	0.15	749165	keystroke_n	n	n/a
374.7175	0.105	749435	keystroke_Key.space	Key.space	n/a
374.8375	0.09	749675	keystroke_t	t	n/a
375.138	0.0895	750276	keystroke_e	e	n/a
375.333	0.0595	750666	keystroke_r	r	n/a
375.4685	0.104	750937	keystroke_m	m	n/a
375.6775	0.24	751355	keystroke_p	p	n/a
375.828	0.164	751656	keystroke_o	o	n/a
376.7275	0.12	753455	keystroke_Key.backspace	Key.backspace	n/a
376.9375	0.09	753875	keystroke_Key.backspace	Key.backspace	n/a
377.1175	0.105	754235	keystroke_Key.backspace	Key.backspace	n/a
377.2975	0.0905	754595	keystroke_Key.backspace	Key.backspace	n/a
377.5675	0.1205	755135	keystroke_m	m	n/a
377.8225	0.27	755645	keystroke_p	p	n/a
377.988	0.165	755976	keystroke_o	o	n/a
378.1825	0.1355	756365	keystroke_r	r	n/a
378.4375	0.09	756875	keystroke_a	a	n/a
378.633	0.1195	757266	keystroke_r	r	n/a
378.693	0.1345	757386	keystroke_y	y	n/a
378.7825	0.1205	757565	keystroke_Key.space	Key.space	n/a
379.0225	0.135	758045	keystroke_j	j	n/a
379.3525	0.12	758705	keystroke_p	p	n/a
379.5325	0.105	759065	keystroke_e	e	n/a
379.863	0.105	759726	keystroke_g	g	n/a
379.998	0.135	759996	keystroke_Key.enter	Key.enter	n/a
380.145	6.6195	760290	prompt	n/a	nickel museum accreditation who've\n
380.8975	0.075	761795	keystroke_n	n	n/a
381.077	0.091	762154	keystroke_i	i	n/a
381.153	0.1045	762306	keystroke_c	c	n/a
381.363	0.1495	762726	keystroke_k	k	n/a
381.4825	0.135	762965	keystroke_e	e	n/a
381.6025	0.0905	763205	keystroke_l	l	n/a
381.752	0.106	763504	keystroke_Key.space	Key.space	n/a
381.978	0.09	763956	keystroke_m	m	n/a
382.173	0.135	764346	keystroke_u	u	n/a
382.233	0.105	764466	keystroke_s	s	n/a
382.413	0.1195	764826	keystroke_e	e	n/a
382.518	0.105	765036	keystroke_u	u	n/a
382.742	0.136	765484	keystroke_m	m	n/a
382.893	0.1495	765786	keystroke_Key.space	Key.space	n/a
383.0435	0.074	766087	keystroke_a	a	n/a
383.2225	0.1205	766445	keystroke_c	c	n/a
383.433	0.1045	766866	keystroke_c	c	n/a
383.658	0.1195	767316	keystroke_r	r	n/a
383.808	0.1345	767616	keystroke_e	e	n/a
384.003	0.1045	768006	keystroke_d	d	n/a
384.1375	0.135	768275	keystroke_i	i	n/a
384.303	0.1195	768606	keystroke_t	t	n/a
384.5725	0.0905	769145	keystroke_a	a	n/a
384.782	0.091	769564	keystroke_t	t	n/a
384.858	0.15	769716	keystroke_i	i	n/a
384.9325	0.1345	769865	keystroke_o	o	n/a
385.188	0.105	770376	keystroke_n	n	n/a
385.277	0.135	770554	keystroke_Key.space	Key.space	n/a
385.3675	0.1205	770735	keystroke_w	w	n/a
385.5475	0.1055	771095	keystroke_h	h	n/a
385.743	0.09	771486	keystroke_o	o	n/a
386.087	0.151	772174	keystroke_'	'	n/a
386.223	0.12	772446	keystroke_v	v	n/a
386.448	0.0895	772896	keystroke_e	e	n/a
386.6725	0.09	773345	keystroke_Key.enter	Key.enter	n/a
386.7685	6.4455	773537	prompt	n/a	let's physician fail latex\n
387.798	0.15	775596	keystroke_l	l	n/a
387.873	0.09	775746	keystroke_e	e	n/a
388.053	0.104	776106	keystroke_t	t	n/a
388.233	0.075	776466	keystroke_'	'	n/a
388.3675	0.1355	776735	keystroke_s	s	n/a
388.487	0.1205	776974	keystroke_Key.space	Key.space	n/a
388.653	0.12	777306	keystroke_p	p	n/a
388.9225	0.1055	777845	keystroke_h	h	n/a
389.1475	0.105	778295	keystroke_y	y	n/a
389.328	0.1045	778656	keystroke_s	s	n/a
389.4475	0.12	778895	keystroke_i	i	n/a
389.628	0.1045	779256	keystroke_c	c	n/a
389.7475	0.09	779495	keystroke_i	i	n/a
389.943	0.0895	779886	keystroke_a	a	n/a
390.0175	0.1345	780035	keystroke_n	n	n/a
390.167	0.135	780334	keystroke_Key.space	Key.space	n/a
390.347	0.105	780694	keystroke_f	f	n/a
390.5875	0.1045	781175	keystroke_a	a	n/a
390.7375	0.1055	781475	keystroke_i	i	n/a
390.963	0.1055	781926	keystroke_l	l	n/a
391.142	0.09	782284	keystroke_Key.space	Key.space	n/a
391.337	0.136	782674	keystroke_l	l	n/a
391.4425	0.0745	782885	keystroke_e	e	n/a
391.652	0.0455	783304	keystroke_a	a	n/a
391.8175	0.09	783635	keystroke_Key.backspace	Key.backspace	n/a
392.0275	0.06	784055	keystroke_Key.backspace	Key.backspace	n/a
392.1025	0.045	784205	keystroke_a	a	n/a
392.283	0.0745	784566	keystroke_t	t	n/a
392.4475	0.09	784895	keystroke_e	e	n/a
392.7325	0.12	785465	keystroke_x	x	n/a
393.0925	0.12	786185	keystroke_Key.enter	Key.enter	n/a
393.219	5.59	786438	prompt	n/a	bestsellers beijing steam collapse\n
393.903	0.134	787806	keystroke_b	b	n/a
394.0075	0.09	788015	keystroke_e	e	n/a
394.172	0.06	788344	keystroke_s	s	n/a
394.3525	0.1055	788705	keystroke_t	t	n/a
394.6075	0.075	789215	keystroke_s	s	n/a
394.8175	0.105	789635	keystroke_e	e	n/a
394.9075	0.09	789815	keystroke_l	l	n/a
395.0875	0.09	790175	keystroke_l	l	n/a
395.1475	0.135	790295	keystroke_e	e	n/a
395.298	0.0895	790596	keystroke_r	r	n/a
395.4625	0.1055	790925	keystroke_s	s	n/a
395.537	0.1505	791074	keystroke_Key.space	Key.space	n/a
395.702	0.1205	791404	keystroke_b	b	n/a
395.8375	0.1205	791675	keystroke_e	e	n/a
395.9715	0.166	791943	keystroke_i	i	n/a
396.228	0.1195	792456	keystroke_j	j	n/a
396.3925	0.09	792785	keystroke_i	i	n/a
396.5425	0.135	793085	keystroke_n	n	n/a
396.6625	0.105	793325	keystroke_g	g	n/a
396.7825	0.105	793565	keystroke_Key.space	Key.space	n/a
396.918	0.09	793836	keystroke_s	s	n/a
397.1275	0.075	794255	keystroke_t	t	n/a
397.2925	0.0905	794585	keystroke_e	e	n/a
397.4575	0.105	794915	keystroke_a	a	n/a
397.5325	0.1355	795065	keystroke_m	m	n/a
397.668	0.0895	795336	keystroke_Key.space	Key.space	n/a
397.7125	0.105	795425	keystroke_c	c	n/a
397.8325	0.105	795665	keystroke_o	o	n/a
398.057	0.046	796114	keystroke_l	l	n/a
398.1775	0.1205	796355	keystroke_l	l	n/a
398.3125	0.12	796625	keystroke_a	a	n/a
398.4475	0.1505	796895	keystroke_p	p	n/a
398.612	0.105	797224	keystroke_s	s	n/a
398.718	0.089	797436	keystroke_Key.enter	Key.enter	n/a
398.8165	5.8275	797633	prompt	n/a	norton discussions teeth mating\n
399.723	0.0895	799446	keystroke_n	n	n/a
399.9175	0.12	799835	keystroke_o	o	n/a
400.068	0.075	800136	keystroke_r	r	n/a
400.2475	0.1055	800495	keystroke_t	t	n/a
400.3375	0.06	800675	keystroke_o	o	n/a
400.4875	0.1345	800975	keystroke_n	n	n/a
400.637	0.121	801274	keystroke_Key.space	Key.space	n/a
400.727	0.1355	801454	keystroke_d	d	n/a
400.8775	0.1355	801755	keystroke_i	i	n/a
400.9675	0.09	801935	keystroke_s	s	n/a
401.1325	0.105	802265	keystroke_c	c	n/a
401.2975	0.1055	802595	keystroke_u	u	n/a
401.5075	0.0905	803015	keystroke_s	s	n/a
401.7175	0.09	803435	keystroke_s	s	n/a
401.8225	0.225	803645	keystroke_i	i	n/a
401.928	0.1345	803856	keystroke_o	o	n/a
402.1675	0.1655	804335	keystroke_n	n	n/a
402.228	0.1345	804456	keystroke_s	s	n/a
402.422	0.135	804844	keystroke_Key.space	Key.space	n/a
402.528	0.0745	805056	keystroke_t	t	n/a
402.842	0.0905	805684	keystroke_e	e	n/a
403.0525	0.1055	806105	keystroke_e	e	n/a
403.337	0.105	806674	keystroke_t	t	n/a
403.4275	0.1045	806855	keystroke_h	h	n/a
403.623	0.09	807246	keystroke_Key.space	Key.space	n/a
403.818	0.105	807636	keystroke_m	m	n/a
403.893	0.059	807786	keystroke_a	a	n/a
404.087	0.091	808174	keystroke_t	t	n/a
404.193	0.06	808386	keystroke_i	i	n/a
404.327	0.12	808654	keystroke_n	n	n/a
404.463	0.075	808926	keystroke_g	g	n/a
404.553	0.0895	809106	keystroke_Key.enter	Key.enter	n/a
404.6485	11.4705	809297	prompt	n/a	gonna attitude greek entities\n
405.318	0.1645	810636	keystroke_g	g	n/a
405.4235	0.06	810847	keystroke_o	o	n/a
405.647	0.106	811294	keystroke_n	n	n/a
405.827	0.0755	811654	keystroke_n	n	n/a
405.932	0.106	811864	keystroke_a	a	n/a
406.052	0.12	812104	keystroke_Key.space	Key.space	n/a
406.1875	0.0605	812375	keystroke_a	a	n/a
406.353	0.06	812706	keystroke_t	t	n/a
406.5175	0.105	813035	keystroke_t	t	n/a
406.6525	0.135	813305	keystroke_i	i	n/a
406.8475	0.075	813695	keystroke_t	t	n/a
407.0275	0.105	814055	keystroke_u	u	n/a
407.5675	0.1205	815135	keystroke_d	d	n/a
407.7775	0.105	815555	keystroke_e	e	n/a
407.8825	0.12	815765	keystroke_Key.space	Key.space	n/a
408.0175	0.105	816035	keystroke_g	g	n/a
408.1825	0.09	816365	keystroke_r	r	n/a
408.378	0.0895	816756	keystroke_e	e	n/a
408.5275	0.135	817055	keystroke_e	e	n/a
408.6025	0.12	817205	keystroke_k	k	n/a
408.7375	0.165	817475	keystroke_Key.space	Key.space	n/a
408.9175	0.121	817835	keystroke_e	e	n/a
409.0235	0.09	818047	keystroke_n	n	n/a
409.1885	0.1035	818377	keystroke_t	t	n/a
409.307	0.136	818614	keystroke_i	i	n/a
410.163	0.1345	820326	keystroke_t	t	n/a
410.328	0.15	820656	keystroke_i	i	n/a
411.1675	0.1205	822335	keystroke_t	t	n/a
411.618	0.1045	823236	keystroke_i	i	n/a
411.7075	0.105	823415	keystroke_e	e	n/a
411.9475	0.075	823895	keystroke_s	s	n/a
412.9375	0.135	825875	keystroke_Key.backspace	Key.backspace	n/a
413.373	0.1345	826746	keystroke_Key.backspace	Key.backspace	n/a
413.823	0.18	827646	keystroke_Key.backspace	Key.backspace	n/a
414.393	0.134	828786	keystroke_Key.backspace	Key.backspace	n/a
414.8425	0.15	829685	keystroke_e	e	n/a
415.113	0.1045	830226	keystroke_s	s	n/a
416.012	0.105	832024	keystroke_Key.enter	Key.enter	n/a
416.122	10.7525	832244	prompt	n/a	acdbentity configuring pressure terminals\n
416.898	0.089	833796	keystroke_a	a	n/a
417.108	0.1045	834216	keystroke_c	c	n/a
417.512	0.121	835024	keystroke_d	d	n/a
417.768	0.135	835536	keystroke_b	b	n/a
417.888	0.09	835776	keystroke_e	e	n/a
418.053	0.1505	836106	keystroke_n	n	n/a
418.188	0.12	836376	keystroke_t	t	n/a
418.578	0.15	837156	keystroke_i	i	n/a
418.773	0.1055	837546	keystroke_t	t	n/a
418.938	0.1495	837876	keystroke_y	y	n/a
420.4075	0.1505	840815	keystroke_Key.space	Key.space	n/a
420.9775	0.18	841955	keystroke_c	c	n/a
421.128	0.1655	842256	keystroke_o	o	n/a
421.4285	0.164	842857	keystroke_n	n	n/a
422.298	0.135	844596	keystroke_f	f	n/a
422.613	0.2245	845226	keystroke_i	i	n/a
423.3175	0.0455	846635	keystroke_g	g	n/a
423.3475	0.106	846695	keystroke_u	u	n/a
423.4685	0.1195	846937	keystroke_r	r	n/a
423.573	0.089	847146	keystroke_i	i	n/a
423.753	0.09	847506	keystroke_n	n	n/a
423.888	0.09	847776	keystroke_g	g	n/a
423.963	0.12	847926	keystroke_Key.space	Key.space	n/a
424.443	0.12	848886	keystroke_p	p	n/a
424.533	0.105	849066	keystroke_r	r	n/a
424.698	0.09	849396	keystroke_e	e	n/a
424.8775	0.0755	849755	keystroke_s	s	n/a
425.058	0.1045	850116	keystroke_s	s	n/a
425.177	0.106	850354	keystroke_u	u	n/a
425.267	0.09	850534	keystroke_r	r	n/a
425.388	0.1205	850776	keystroke_e	e	n/a
425.5085	0.119	851017	keystroke_Key.space	Key.space	n/a
425.613	0.105	851226	keystroke_t	t	n/a
425.777	0.121	851554	keystroke_e	e	n/a
425.8835	0.1345	851767	keystroke_r	r	n/a
425.973	0.105	851946	keystroke_m	m	n/a
426.153	0.105	852306	keystroke_i	i	n/a
426.3335	0.0895	852667	keystroke_n	n	n/a
426.408	0.1045	852816	keystroke_a	a	n/a
426.558	0.105	853116	keystroke_l	l	n/a
426.678	0.0755	853356	keystroke_s	s	n/a
426.798	0.075	853596	keystroke_Key.enter	Key.enter	n/a
426.8785	4.721	853757	prompt	n/a	spread builders famous said\n
427.5035	0.1345	855007	keystroke_s	s	n/a
427.6075	0.1655	855215	keystroke_p	p	n/a
427.758	0.0905	855516	keystroke_r	r	n/a
427.893	0.1355	855786	keystroke_e	e	n/a
428.1185	0.0895	856237	keystroke_a	a	n/a
428.283	0.09	856566	keystroke_d	d	n/a
428.403	0.18	856806	keystroke_Key.space	Key.space	n/a
428.568	0.12	857136	keystroke_b	b	n/a
428.823	0.195	857646	keystroke_u	u	n/a
428.928	0.15	857856	keystroke_i	i	n/a
429.1975	0.12	858395	keystroke_l	l	n/a
429.2575	0.105	858515	keystroke_d	d	n/a
429.4525	0.12	858905	keystroke_e	e	n/a
429.603	0.105	859206	keystroke_r	r	n/a
429.813	0.09	859626	keystroke_s	s	n/a
429.873	0.1195	859746	keystroke_Key.space	Key.space	n/a
430.008	0.1045	860016	keystroke_f	f	n/a
430.1875	0.075	860375	keystroke_a	a	n/a
430.2325	0.135	860465	keystroke_m	m	n/a
430.443	0.1045	860886	keystroke_o	o	n/a
430.5775	0.12	861155	keystroke_u	u	n/a
430.6825	0.1355	861365	keystroke_s	s	n/a
430.803	0.15	861606	keystroke_Key.space	Key.space	n/a
430.9225	0.1055	861845	keystroke_s	s	n/a
431.1175	0.1055	862235	keystroke_a	a	n/a
431.208	0.074	862416	keystroke_i	i	n/a
431.298	0.1345	862596	keystroke_d	d	n/a
431.478	0.1195	862956	keystroke_Key.enter	Key.enter	n/a
431.604	6.6705	863208	prompt	n/a	circles render tonight surface\n
432.258	0.075	864516	keystroke_c	c	n/a
432.393	0.105	864786	keystroke_i	i	n/a
432.513	0.105	865026	keystroke_r	r	n/a
432.783	0.105	865566	keystroke_c	c	n/a
432.8885	0.1195	865777	keystroke_l	l	n/a
433.008	0.0905	866016	keystroke_e	e	n/a
433.173	0.105	866346	keystroke_s	s	n/a
433.2785	0.1485	866557	keystroke_Key.space	Key.space	n/a
433.397	0.091	866794	keystroke_r	r	n/a
433.548	0.12	867096	keystroke_e	e	n/a
433.683	0.0895	867366	keystroke_n	n	n/a
433.758	0.1045	867516	keystroke_d	d	n/a
433.9525	0.0905	867905	keystroke_e	e	n/a
434.058	0.12	868116	keystroke_r	r	n/a
434.163	0.1345	868326	keystroke_Key.space	Key.space	n/a
434.2375	0.09	868475	keystroke_o	o	n/a
434.5975	0.0905	869195	keystroke_Key.backspace	Key.backspace	n/a
434.7185	0.135	869437	keystroke_t	t	n/a
434.8075	0.1055	869615	keystroke_o	o	n/a
435.0175	0.136	870035	keystroke_n	n	n/a
435.3625	0.09	870725	keystroke_g	g	n/a
435.4835	0.0735	870967	keystroke_i	i	n/a
435.753	0.0895	871506	keystroke_Key.backspace	Key.backspace	n/a
435.9025	0.075	871805	keystroke_Key.backspace	Key.backspace	n/a
436.0075	0.1505	872015	keystroke_i	i	n/a
436.0975	0.166	872195	keystroke_g	g	n/a
436.2475	0.15	872495	keystroke_h	h	n/a
436.3525	0.1355	872705	keystroke_t	t	n/a
436.5025	0.12	873005	keystroke_Key.space	Key.space	n/a
436.6825	0.105	873365	keystroke_s	s	n/a
436.8025	0.1355	873605	keystroke_u	u	n/a
436.908	0.105	873816	keystroke_r	r	n/a
437.478	0.0895	874956	keystroke_f	f	n/a
437.688	0.09	875376	keystroke_a	a	n/a
437.853	0.1055	875706	keystroke_c	c	n/a
438.063	0.1205	876126	keystroke_e	e	n/a
438.138	0.1345	876276	keystroke_Key.enter	Key.enter	n/a
438.279	6.46	876558	prompt	n/a	knee oakland diagnostic checking\n
439.1425	0.1205	878285	keystroke_k	k	n/a
439.383	0.12	878766	keystroke_n	n	n/a
439.504	0.104	879008	keystroke_e	e	n/a
439.683	0.135	879366	keystroke_e	e	n/a
439.773	0.135	879546	keystroke_Key.space	Key.space	n/a
439.923	0.12	879846	keystroke_o	o	n/a
440.058	0.135	880116	keystroke_a	a	n/a
440.163	0.12	880326	keystroke_k	k	n/a
440.373	0.12	880746	keystroke_l	l	n/a
440.5075	0.105	881015	keystroke_a	a	n/a
