onset	duration	sample	value	key	prompt_text
3.056	10.333	6112	prompt	n/a	the quick brown fox jumps over a lazy dog\n
5.365	0.0125	10730	keystroke_t	t	n/a
5.4375	0.1045	10875	keystroke_h	h	n/a
5.555	0.0885	11110	keystroke_e	e	n/a
5.764	0.0595	11528	keystroke_Key.space	Key.space	n/a
6.1405	0.12	12281	keystroke_q	q	n/a
6.29	0.0905	12580	keystroke_u	u	n/a
6.4845	0.0755	12969	keystroke_i	i	n/a
6.636	0.104	13272	keystroke_c	c	n/a
6.711	0.074	13422	keystroke_k	k	n/a
6.89	0.0905	13780	keystroke_Key.space	Key.space	n/a
7.13	0.09	14260	keystroke_b	b	n/a
7.2955	0.0745	14591	keystroke_r	r	n/a
7.4455	0.104	14891	keystroke_o	o	n/a
7.625	0.1355	15250	keystroke_w	w	n/a
7.8205	0.045	15641	keystroke_n	n	n/a
7.985	0.0605	15970	keystroke_Key.space	Key.space	n/a
8.165	0.06	16330	keystroke_f	f	n/a
8.3	0.091	16600	keystroke_o	o	n/a
8.571	0.12	17142	keystroke_x	x	n/a
8.75	0.0755	17500	keystroke_Key.space	Key.space	n/a
9.08	0.1055	18160	keystroke_j	j	n/a
9.29	0.06	18580	keystroke_u	u	n/a
9.4855	0.1345	18971	keystroke_m	m	n/a
9.665	0.12	19330	keystroke_p	p	n/a
9.8605	0.0895	19721	keystroke_s	s	n/a
9.9655	0.12	19931	keystroke_Key.space	Key.space	n/a
10.2055	0.12	20411	keystroke_o	o	n/a
10.8805	0.105	21761	keystroke_v	v	n/a
11.091	0.134	22182	keystroke_e	e	n/a
11.24	0.06	22480	keystroke_r	r	n/a
11.345	0.1355	22690	keystroke_Key.space	Key.space	n/a
11.496	0.0895	22992	keystroke_a	a	n/a
11.645	0.0905	23290	keystroke_Key.space	Key.space	n/a
11.9155	0.12	23831	keystroke_l	l	n/a
12.05	0.0905	24100	keystroke_a	a	n/a
12.291	0.119	24582	keystroke_z	z	n/a
12.411	0.09	24822	keystroke_y	y	n/a
12.6055	0.12	25211	keystroke_Key.space	Key.space	n/a
12.7855	0.12	25571	keystroke_d	d	n/a
12.9355	0.105	25871	keystroke_o	o	n/a
13.1	0.0755	26200	keystroke_g	g	n/a
13.296	0.09	26592	keystroke_Key.enter	Key.enter	n/a
13.3945	8.258	26789	prompt	n/a	operating dell licence crazy\n
14.226	0.1195	28452	keystroke_o	o	n/a
14.42	0.0905	28840	keystroke_p	p	n/a
14.481	0.0895	28962	keystroke_e	e	n/a
14.616	0.1045	29232	keystroke_r	r	n/a
14.826	0.104	29652	keystroke_a	a	n/a
14.916	0.09	29832	keystroke_t	t	n/a
15.306	0.1345	30612	keystroke_i	i	n/a
15.4105	0.1355	30821	keystroke_n	n	n/a
15.5305	0.1045	31061	keystroke_g	g	n/a
15.6655	0.12	31331	keystroke_Key.space	Key.space	n/a
15.891	0.105	31782	keystroke_d	d	n/a
16.1	0.1055	32200	keystroke_e	e	n/a
16.1755	0.105	32351	keystroke_l	l	n/a
16.356	0.089	32712	keystroke_l	l	n/a
16.5205	0.1045	33041	keystroke_Key.space	Key.space	n/a
16.731	0.0895	33462	keystroke_l	l	n/a
16.9405	0.09	33881	keystroke_i	i	n/a
17.0455	0.0905	34091	keystroke_c	c	n/a
17.256	0.075	34512	keystroke_e	e	n/a
17.361	0.1195	34722	keystroke_n	n	n/a
17.736	0.12	35472	keystroke_c	c	n/a
17.93	0.091	35860	keystroke_e	e	n/a
18.066	0.089	36132	keystroke_Key.space	Key.space	n/a
20.407	0.044	40814	keystroke_c	c	n/a
20.6605	0.0755	41321	keystroke_r	r	n/a
20.9465	0.1195	41893	keystroke_a	a	n/a
21.186	0.119	42372	keystroke_z	z	n/a
21.26	0.12	42520	keystroke_y	y	n/a
21.5455	0.1055	43091	keystroke_Key.enter	Key.enter	n/a
21.656	7.557	43312	prompt	n/a	near add cardiovascular hung\n
22.551	0.1645	45102	keystroke_n	n	n/a
22.656	0.119	45312	keystroke_e	e	n/a
22.8055	0.2405	45611	keystroke_a	a	n/a
22.941	0.119	45882	keystroke_r	r	n/a
23.1355	0.12	46271	keystroke_Key.space	Key.space	n/a
23.675	0.121	47350	keystroke_a	a	n/a
23.871	0.0895	47742	keystroke_d	d	n/a
24.0365	0.104	48073	keystroke_d	d	n/a
24.2	0.0905	48400	keystroke_Key.space	Key.space	n/a
24.606	0.09	49212	keystroke_c	c	n/a
24.816	0.1945	49632	keystroke_a	a	n/a
25.026	0.09	50052	keystroke_r	r	n/a
25.266	0.09	50532	keystroke_d	d	n/a
25.4	0.225	50800	keystroke_i	i	n/a
25.566	0.1645	51132	keystroke_o	o	n/a
25.911	0.105	51822	keystroke_v	v	n/a
26.106	0.165	52212	keystroke_a	a	n/a
26.286	0.09	52572	keystroke_s	s	n/a
26.4805	0.1355	52961	keystroke_c	c	n/a
26.63	0.1055	53260	keystroke_u	u	n/a
26.8405	0.135	53681	keystroke_l	l	n/a
26.96	0.181	53920	keystroke_a	a	n/a
27.1705	0.091	54341	keystroke_r	r	n/a
27.3805	0.1055	54761	keystroke_Key.space	Key.space	n/a
28.296	0.09	56592	keystroke_h	h	n/a
28.521	0.0745	57042	keystroke_y	y	n/a
28.7905	0.1055	57581	keystroke_n	n	n/a
28.941	0.075	57882	keystroke_g	g	n/a
29.106	0.105	58212	keystroke_Key.enter	Key.enter	n/a
29.218	7.285	58436	prompt	n/a	correlation milan truly told\n
29.931	0.12	59862	keystroke_c	c	n/a
30.066	0.1205	60132	keystroke_o	o	n/a
30.26	0.0765	60520	keystroke_r	r	n/a
30.441	0.0895	60882	keystroke_r	r	n/a
30.696	0.12	61392	keystroke_e	e	n/a
30.98	0.121	61960	keystroke_l	l	n/a
31.116	0.105	62232	keystroke_a	a	n/a
31.311	0.105	62622	keystroke_t	t	n/a
31.401	0.18	62802	keystroke_i	i	n/a
31.521	0.1645	63042	keystroke_o	o	n/a
31.626	0.15	63252	keystroke_n	n	n/a
31.88	0.1055	63760	keystroke_Key.space	Key.space	n/a
32.106	0.105	64212	keystroke_m	m	n/a
32.346	0.0895	64692	keystroke_i	i	n/a
32.5415	0.1045	65083	keystroke_l	l	n/a
32.705	0.121	65410	keystroke_a	a	n/a
32.871	0.12	65742	keystroke_n	n	n/a
33.141	0.09	66282	keystroke_Key.space	Key.space	n/a
33.8155	0.075	67631	keystroke_t	t	n/a
34.0555	0.1205	68111	keystroke_r	r	n/a
34.446	0.09	68892	keystroke_u	u	n/a
34.67	0.136	69340	keystroke_l	l	n/a
34.896	0.06	69792	keystroke_y	y	n/a
35.09	0.0905	70180	keystroke_Key.space	Key.space	n/a
35.7065	0.09	71413	keystroke_t	t	n/a
35.8555	0.105	71711	keystroke_o	o	n/a
36.066	0.105	72132	keystroke_l	l	n/a
36.201	0.1505	72402	keystroke_d	d	n/a
36.396	0.104	72792	keystroke_Key.enter	Key.enter	n/a
36.506	10.408	73012	prompt	n/a	fabrics horizontal anderson candy\n
37.7005	0.105	75401	keystroke_f	f	n/a
37.911	0.105	75822	keystroke_a	a	n/a
38.241	0.105	76482	keystroke_b	b	n/a
38.406	0.09	76812	keystroke_r	r	n/a
38.556	0.135	77112	keystroke_i	i	n/a
38.7515	0.1195	77503	keystroke_c	c	n/a
38.976	0.105	77952	keystroke_s	s	n/a
39.111	0.12	78222	keystroke_Key.space	Key.space	n/a
39.696	0.09	79392	keystroke_h	h	n/a
39.891	0.1045	79782	keystroke_o	o	n/a
40.056	0.0895	80112	keystroke_r	r	n/a
40.341	0.1055	80682	keystroke_i	i	n/a
40.7755	0.135	81551	keystroke_z	z	n/a
40.881	0.1045	81762	keystroke_o	o	n/a
41.166	0.105	82332	keystroke_n	n	n/a
42.2305	0.1055	84461	keystroke_t	t	n/a
42.561	0.12	85122	keystroke_a	a	n/a
42.7255	0.106	85451	keystroke_l	l	n/a
42.9505	0.0905	85901	keystroke_Key.space	Key.space	n/a
43.221	0.105	86442	keystroke_a	a	n/a
43.341	0.12	86682	keystroke_n	n	n/a
43.446	0.09	86892	keystroke_d	d	n/a
43.7315	0.1645	87463	keystroke_e	e	n/a
43.836	0.135	87672	keystroke_r	r	n/a
44.1365	0.12	88273	keystroke_s	s	n/a
44.2255	0.0905	88451	keystroke_o	o	n/a
44.4355	0.105	88871	keystroke_n	n	n/a
44.6755	0.075	89351	keystroke_Key.space	Key.space	n/a
45.006	0.09	90012	keystroke_c	c	n/a
45.186	0.105	90372	keystroke_a	a	n/a
45.306	0.12	90612	keystroke_n	n	n/a
45.471	0.12	90942	keystroke_d	d	n/a
45.681	0.0755	91362	keystroke_y	y	n/a
46.806	0.105	93612	keystroke_Key.enter	Key.enter	n/a
46.918	6.3855	93836	prompt	n/a	profile photograph hour live\n
48.051	0.0745	96102	keystroke_p	p	n/a
48.231	0.1195	96462	keystroke_r	r	n/a
48.3805	0.136	96761	keystroke_o	o	n/a
48.5465	0.1195	97093	keystroke_f	f	n/a
48.6815	0.09	97363	keystroke_i	i	n/a
48.8755	0.121	97751	keystroke_l	l	n/a
49.0105	0.09	98021	keystroke_e	e	n/a
49.1605	0.121	98321	keystroke_Key.space	Key.space	n/a
49.461	0.0895	98922	keystroke_p	p	n/a
49.7015	0.06	99403	keystroke_h	h	n/a
49.896	0.045	99792	keystroke_o	o	n/a
49.986	0.105	99972	keystroke_t	t	n/a
50.136	0.135	100272	keystroke_o	o	n/a
50.361	0.09	100722	keystroke_g	g	n/a
50.616	0.09	101232	keystroke_r	r	n/a
50.871	0.165	101742	keystroke_a	a	n/a
50.991	0.09	101982	keystroke_p	p	n/a
51.201	0.105	102402	keystroke_h	h	n/a
51.4405	0.1055	102881	keystroke_Key.space	Key.space	n/a
51.711	0.105	103422	keystroke_h	h	n/a
51.861	0.18	103722	keystroke_o	o	n/a
51.966	0.1205	103932	keystroke_u	u	n/a
52.101	0.105	104202	keystroke_r	r	n/a
52.356	0.075	104712	keystroke_Key.space	Key.space	n/a
52.566	0.09	105132	keystroke_l	l	n/a
52.761	0.105	105522	keystroke_i	i	n/a
52.821	0.105	105642	keystroke_v	v	n/a
53.046	0.12	106092	keystroke_e	e	n/a
53.196	0.105	106392	keystroke_Key.enter	Key.enter	n/a
53.311	8.7235	106622	prompt	n/a	filters powered tongue vincent\n
54.651	0.09	109302	keystroke_f	f	n/a
54.846	0.075	109692	keystroke_i	i	n/a
55.0255	0.12	110051	keystroke_l	l	n/a
55.326	0.0745	110652	keystroke_t	t	n/a
55.551	0.165	111102	keystroke_e	e	n/a
55.6555	0.12	111311	keystroke_r	r	n/a
55.9405	0.12	111881	keystroke_s	s	n/a
56.0455	0.106	112091	keystroke_Key.space	Key.space	n/a
56.316	0.1045	112632	keystroke_p	p	n/a
56.466	0.165	112932	keystroke_o	o	n/a
56.601	0.06	113202	keystroke_w	w	n/a
56.766	0.1655	113532	keystroke_e	e	n/a
56.856	0.12	113712	keystroke_r	r	n/a
57.141	0.09	114282	keystroke_e	e	n/a
57.366	0.0905	114732	keystroke_d	d	n/a
57.501	0.075	115002	keystroke_Key.space	Key.space	n/a
58.4165	0.09	116833	keystroke_t	t	n/a
58.5515	0.075	117103	keystroke_o	o	n/a
58.761	0.09	117522	keystroke_n	n	n/a
58.9715	0.075	117943	keystroke_g	g	n/a
59.1515	0.12	118303	keystroke_u	u	n/a
59.3315	0.135	118663	keystroke_e	e	n/a
59.6315	0.09	119263	keystroke_Key.space	Key.space	n/a
60.3505	0.091	120701	keystroke_v	v	n/a
60.456	0.1055	120912	keystroke_i	i	n/a
60.6505	0.121	121301	keystroke_n	n	n/a
60.8165	0.044	121633	keystroke_c	c	n/a
60.9955	0.121	121991	keystroke_e	e	n/a
61.1305	0.1355	122261	keystroke_n	n	n/a
61.2815	0.105	122563	keystroke_t	t	n/a
61.896	0.1345	123792	keystroke_Key.enter	Key.enter	n/a
62.0385	9.4895	124077	prompt	n/a	lauderdale advantage handles heath\n
62.9155	0.135	125831	keystroke_l	l	n/a
63.0805	0.121	126161	keystroke_a	a	n/a
63.261	0.1205	126522	keystroke_u	u	n/a
63.411	0.105	126822	keystroke_d	d	n/a
63.621	0.18	127242	keystroke_e	e	n/a
63.786	0.15	127572	keystroke_r	r	n/a
64.161	0.135	128322	keystroke_d	d	n/a
64.4165	0.075	128833	keystroke_a	a	n/a
64.5665	0.135	129133	keystroke_l	l	n/a
64.7465	0.12	129493	keystroke_e	e	n/a
64.986	0.105	129972	keystroke_Key.space	Key.space	n/a
65.556	0.12	131112	keystroke_a	a	n/a
65.7955	0.105	131591	keystroke_d	d	n/a
66.021	0.1055	132042	keystroke_v	v	n/a
66.216	0.12	132432	keystroke_a	a	n/a
66.351	0.1355	132702	keystroke_n	n	n/a
66.5915	0.045	133183	keystroke_t	t	n/a
66.7715	0.135	133543	keystroke_a	a	n/a
67.0115	0.0595	134023	keystroke_g	g	n/a
67.146	0.075	134292	keystroke_e	e	n/a
67.311	0.045	134622	keystroke_Key.space	Key.space	n/a
67.476	0.1355	134952	keystroke_l	l	n/a
67.6115	0.1045	135223	keystroke_a	a	n/a
68.1655	0.1055	136331	keystroke_Key.backspace	Key.backspace	n/a
68.3315	0.0745	136663	keystroke_Key.backspace	Key.backspace	n/a
68.661	0.1355	137322	keystroke_h	h	n/a
68.8265	0.135	137653	keystroke_a	a	n/a
69.0515	0.105	138103	keystroke_n	n	n/a
69.3065	0.12	138613	keystroke_d	d	n/a
69.5615	0.09	139123	keystroke_l	l	n/a
69.6815	0.09	139363	keystroke_e	e	n/a
69.9215	0.105	139843	keystroke_s	s	n/a
70.0115	0.12	140023	keystroke_Key.space	Key.space	n/a
70.2815	0.105	140563	keystroke_h	h	n/a
70.3875	0.134	140775	keystroke_e	e	n/a
70.5365	0.165	141073	keystroke_a	a	n/a
70.8365	0.12	141673	keystroke_t	t	n/a
71.0015	0.09	142003	keystroke_h	h	n/a
71.4505	0.0755	142901	keystroke_Key.enter	Key.enter	n/a
71.5315	7.182	143063	prompt	n/a	staying drugs celebration oops\n
72.5615	0.12	145123	keystroke_s	s	n/a
72.8615	0.075	145723	keystroke_t	t	n/a
73.0555	0.151	146111	keystroke_a	a	n/a
73.131	0.1055	146262	keystroke_y	y	n/a
73.401	0.165	146802	keystroke_i	i	n/a
73.5515	0.15	147103	keystroke_n	n	n/a
73.6865	0.075	147373	keystroke_g	g	n/a
73.821	0.09	147642	keystroke_Key.space	Key.space	n/a
74.076	0.045	148152	keystroke_d	d	n/a
74.241	0.105	148482	keystroke_r	r	n/a
74.3615	0.12	148723	keystroke_u	u	n/a
74.571	0.0755	149142	keystroke_g	g	n/a
74.8865	0.1195	149773	keystroke_s	s	n/a
75.021	0.12	150042	keystroke_Key.space	Key.space	n/a
75.6365	0.1045	151273	keystroke_c	c	n/a
75.8615	0.0895	151723	keystroke_e	e	n/a
75.9815	0.1205	151963	keystroke_l	l	n/a
76.0865	0.075	152173	keystroke_e	e	n/a
76.3865	0.0745	152773	keystroke_b	b	n/a
76.4765	0.0895	152953	keystroke_r	r	n/a
76.716	0.135	153432	keystroke_a	a	n/a
76.941	0.09	153882	keystroke_t	t	n/a
77.0615	0.1945	154123	keystroke_i	i	n/a
77.1815	0.1495	154363	keystroke_o	o	n/a
77.271	0.1505	154542	keystroke_n	n	n/a
77.556	0.09	155112	keystroke_Key.space	Key.space	n/a
77.8265	0.1045	155653	keystroke_o	o	n/a
78.021	0.135	156042	keystroke_o	o	n/a
78.096	0.1355	156192	keystroke_p	p	n/a
78.366	0.1205	156732	keystroke_s	s	n/a
78.621	0.0905	157242	keystroke_Key.enter	Key.enter	n/a
78.7185	8.9795	157437	prompt	n/a	contract usual systematic debut\n
79.7755	0.106	159551	keystroke_c	c	n/a
79.8665	0.104	159733	keystroke_o	o	n/a
80.0765	0.15	160153	keystroke_n	n	n/a
80.2115	0.06	160423	keystroke_t	t	n/a
80.4065	0.09	160813	keystroke_r	r	n/a
80.6015	0.105	161203	keystroke_a	a	n/a
80.8415	0.105	161683	keystroke_c	c	n/a
81.2015	0.075	162403	keystroke_t	t	n/a
81.3365	0.06	162673	keystroke_Key.space	Key.space	n/a
81.591	0.1205	163182	keystroke_u	u	n/a
81.771	0.12	163542	keystroke_s	s	n/a
81.861	0.1055	163722	keystroke_u	u	n/a
82.0555	0.105	164111	keystroke_a	a	n/a
82.1915	0.105	164383	keystroke_l	l	n/a
82.4615	0.089	164923	keystroke_Key.space	Key.space	n/a
83.1805	0.09	166361	keystroke_s	s	n/a
83.2865	0.105	166573	keystroke_y	y	n/a
83.4065	0.12	166813	keystroke_s	s	n/a
83.6915	0.06	167383	keystroke_t	t	n/a
83.8565	0.075	167713	keystroke_e	e	n/a
83.9615	0.105	167923	keystroke_m	m	n/a
84.2165	0.075	168433	keystroke_a	a	n/a
84.4415	0.09	168883	keystroke_t	t	n/a
84.5765	0.1045	169153	keystroke_i	i	n/a
85.1015	0.075	170203	keystroke_c	c	n/a
85.2365	0.105	170473	keystroke_Key.space	Key.space	n/a
85.5815	0.075	171163	keystroke_d	d	n/a
86.5865	0.09	173173	keystroke_e	e	n/a
86.8415	0.105	173683	keystroke_b	b	n/a
87.0815	0.1195	174163	keystroke_u	u	n/a
87.186	0.075	174372	keystroke_t	t	n/a
87.5765	0.119	175153	keystroke_Key.enter	Key.enter	n/a
87.702	16.1955	175404	prompt	n/a	lloyd handheld albuquerque cameron\n
88.5665	0.1195	177133	keystroke_l	l	n/a
88.7765	0.06	177553	keystroke_l	l	n/a
88.9715	0.105	177943	keystroke_o	o	n/a
90.066	0.1205	180132	keystroke_y	y	n/a
90.2915	0.09	180583	keystroke_d	d	n/a
90.4255	0.12	180851	keystroke_Key.space	Key.space	n/a
91.1765	0.105	182353	keystroke_h	h	n/a
91.2965	0.105	182593	keystroke_a	a	n/a
91.4165	0.119	182833	keystroke_n	n	n/a
91.5665	0.12	183133	keystroke_d	d	n/a
92.5715	0.09	185143	keystroke_h	h	n/a
92.796	0.1055	185592	keystroke_e	e	n/a
92.916	0.15	185832	keystroke_l	l	n/a
93.2765	0.135	186553	keystroke_d	d	n/a
93.4565	0.105	186913	keystroke_Key.space	Key.space	n/a
93.8765	0.12	187753	keystroke_a	a	n/a
94.0265	0.09	188053	keystroke_l	l	n/a
94.2365	0.105	188473	keystroke_b	b	n/a
94.4915	0.105	188983	keystroke_u	u	n/a
96.9545	0	193909	keystroke_q	q	n/a
99.2635	0.043	198527	keystroke_u	u	n/a
99.4115	0.1945	198823	keystroke_e	e	n/a
99.591	0.1055	199182	keystroke_r	r	n/a
101.256	0.1205	202512	keystroke_q	q	n/a
101.4965	0.1045	202993	keystroke_u	u	n/a
101.616	0.09	203232	keystroke_e	e	n/a
101.811	0.105	203622	keystroke_Key.space	Key.space	n/a
102.561	0.12	205122	keystroke_c	c	n/a
102.8015	0.1045	205603	keystroke_a	a	n/a
102.966	0.12	205932	keystroke_m	m	n/a
103.071	0.1505	206142	keystroke_e	e	n/a
103.2515	0.0745	206503	keystroke_r	r	n/a
103.341	0.12	206682	keystroke_o	o	n/a
103.5515	0.1045	207103	keystroke_n	n	n/a
103.791	0.1055	207582	keystroke_Key.enter	Key.enter	n/a
103.901	9.147	207802	prompt	n/a	myth comprehensive flush editing\n
104.647	0.059	209294	keystroke_m	m	n/a
105.246	0.0905	210492	keystroke_y	y	n/a
105.3965	0.104	210793	keystroke_t	t	n/a
105.5465	0.09	211093	keystroke_h	h	n/a
105.7405	0.105	211481	keystroke_Key.space	Key.space	n/a
106.1305	0.0905	212261	keystroke_c	c	n/a
106.236	0.09	212472	keystroke_o	o	n/a
106.5515	0.1045	213103	keystroke_m	m	n/a
106.821	0.09	213642	keystroke_p	p	n/a
107.3165	0.06	214633	keystroke_r	r	n/a
107.4515	0.12	214903	keystroke_e	e	n/a
107.6615	0.1045	215323	keystroke_h	h	n/a
107.8715	0.12	215743	keystroke_e	e	n/a
108.171	0.1205	216342	keystroke_n	n	n/a
109.011	0.15	218022	keystroke_s	s	n/a
109.1755	0.105	218351	keystroke_i	i	n/a
109.4155	0.06	218831	keystroke_v	v	n/a
109.6565	0.1195	219313	keystroke_e	e	n/a
109.7905	0.1205	219581	keystroke_Key.space	Key.space	n/a
110.301	0.0755	220602	keystroke_f	f	n/a
110.5415	0.075	221083	keystroke_l	l	n/a
110.8415	0.104	221683	keystroke_u	u	n/a
110.9915	0.135	221983	keystroke_s	s	n/a
111.1405	0.076	222281	keystroke_h	h	n/a
111.3655	0.091	222731	keystroke_Key.space	Key.space	n/a
111.606	0.105	223212	keystroke_e	e	n/a
111.861	0.12	223722	keystroke_d	d	n/a
111.996	0.09	223992	keystroke_i	i	n/a
112.1315	0.1195	224263	keystroke_t	t	n/a
112.266	0.21	224532	keystroke_i	i	n/a
112.386	0.18	224772	keystroke_n	n	n/a
112.611	0.09	225222	keystroke_g	g	n/a
112.9565	0.0895	225913	keystroke_Key.enter	Key.enter	n/a
113.052	8.786	226104	prompt	n/a	seniors seeking shanghai cult\n
113.7665	0.12	227533	keystroke_s	s	n/a
114.0065	0.12	228013	keystroke_e	e	n/a
114.1115	0.105	228223	keystroke_n	n	n/a
114.3515	0.225	228703	keystroke_i	i	n/a
114.4715	0.165	228943	keystroke_o	o	n/a
114.5615	0.1045	229123	keystroke_r	r	n/a
114.876	0.105	229752	keystroke_s	s	n/a
115.026	0.1055	230052	keystroke_Key.space	Key.space	n/a
115.416	0.1355	230832	keystroke_s	s	n/a
115.686	0.03	231372	keystroke_e	e	n/a
115.8215	0.12	231643	keystroke_e	e	n/a
115.9115	0.105	231823	keystroke_k	k	n/a
116.121	0.1655	232242	keystroke_i	i	n/a
116.2405	0.1205	232481	keystroke_n	n	n/a
116.301	0.0755	232602	keystroke_g	g	n/a
116.496	0.1045	232992	keystroke_Key.space	Key.space	n/a
116.661	0.1055	233322	keystroke_s	s	n/a
116.7665	0.12	233533	keystroke_h	h	n/a
116.9165	0.119	233833	keystroke_a	a	n/a
117.0505	0.121	234101	keystroke_n	n	n/a
117.217	0.104	234434	keystroke_g	g	n/a
117.5615	0.1195	235123	keystroke_a	a	n/a
117.666	0.1055	235332	keystroke_i	i	n/a
118.311	0.0895	236622	keystroke_Key.backspace	Key.backspace	n/a
118.4755	0.091	236951	keystroke_Key.backspace	Key.backspace	n/a
119.406	0.075	238812	keystroke_h	h	n/a
119.6765	0.135	239353	keystroke_a	a	n/a
119.8265	0.12	239653	keystroke_i	i	n/a
120.0965	0.1195	240193	keystroke_Key.space	Key.space	n/a
121.0255	0.12	242051	keystroke_c	c	n/a
121.1615	0.075	242323	keystroke_u	u	n/a
121.3555	0.1205	242711	keystroke_l	l	n/a
121.506	0.0755	243012	keystroke_t	t	n/a
121.7315	0.1045	243463	keystroke_Key.enter	Key.enter	n/a
121.841	8.0525	243682	prompt	n/a	sussex emotional transform panic\n
122.5715	0.1195	245143	keystroke_s	s	n/a
122.7515	0.135	245503	keystroke_u	u	n/a
122.9765	0.0595	245953	keystroke_s	s	n/a
123.1265	0.12	246253	keystroke_s	s	n/a
123.3215	0.1045	246643	keystroke_e	e	n/a
123.651	0.1505	247302	keystroke_x	x	n/a
124.0715	0.1045	248143	keystroke_Key.space	Key.space	n/a
124.7155	0.121	249431	keystroke_e	e	n/a
124.896	0.0905	249792	keystroke_m	m	n/a
125.1205	0.076	250241	keystroke_o	o	n/a
125.2415	0.06	250483	keystroke_t	t	n/a
125.3615	0.224	250723	keystroke_i	i	n/a
125.5115	0.18	251023	keystroke_o	o	n/a
125.6015	0.179	251203	keystroke_n	n	n/a
125.8565	0.104	251713	keystroke_a	a	n/a
125.9465	0.105	251893	keystroke_l	l	n/a
126.1705	0.12	252341	keystroke_Key.space	Key.space	n/a
126.5465	0.074	253093	keystroke_t	t	n/a
126.7415	0.09	253483	keystroke_r	r	n/a
126.966	0.075	253932	keystroke_a	a	n/a
127.1015	0.12	254203	keystroke_n	n	n/a
127.326	0.045	254652	keystroke_s	s	n/a
128.0315	0.075	256063	keystroke_f	f	n/a
128.1955	0.091	256391	keystroke_o	o	n/a
128.3015	0.105	256603	keystroke_r	r	n/a
128.4665	0.12	256933	keystroke_m	m	n/a
128.7365	0.06	257473	keystroke_Key.space	Key.space	n/a
128.9915	0.12	257983	keystroke_p	p	n/a
129.1265	0.105	258253	keystroke_a	a	n/a
129.2015	0.12	258403	keystroke_n	n	n/a
129.3815	0.12	258763	keystroke_i	i	n/a
129.5765	0.105	259153	keystroke_c	c	n/a
129.7855	0.106	259571	keystroke_Key.enter	Key.enter	n/a
129.8965	12.012	259793	prompt	n/a	particular highs accessory room\n
130.6405	0.136	261281	keystroke_p	p	n/a
130.7765	0.165	261553	keystroke_a	a	n/a
130.9715	0.059	261943	keystroke_r	r	n/a
131.1515	0.075	262303	keystroke_t	t	n/a
132.0065	0.12	264013	keystroke_i	i	n/a
132.1865	0.164	264373	keystroke_c	c	n/a
132.3955	0.0755	264791	keystroke_u	u	n/a
132.6065	0.1055	265213	keystroke_l	l	n/a
132.712	0.1195	265424	keystroke_a	a	n/a
132.9215	0.075	265843	keystroke_r	r	n/a
133.086	0.0905	266172	keystroke_Key.space	Key.space	n/a
133.3715	0.1045	266743	keystroke_h	h	n/a
133.5065	0.12	267013	keystroke_i	i	n/a
133.6565	0.0895	267313	keystroke_g	g	n/a
133.866	0.1055	267732	keystroke_h	h	n/a
134.166	0.1055	268332	keystroke_s	s	n/a
134.3155	0.106	268631	keystroke_Key.space	Key.space	n/a
134.6915	0.12	269383	keystroke_a	a	n/a
135.0215	0.075	270043	keystroke_c	c	n/a
135.2015	0.075	270403	keystroke_c	c	n/a
135.4115	0.075	270823	keystroke_e	e	n/a
135.8915	0.15	271783	keystroke_s	s	n/a
136.0415	0.12	272083	keystroke_o	o	n/a
136.2215	0.15	272443	keystroke_r	r	n/a
136.476	0.12	272952	keystroke_y	y	n/a
136.7315	0.1195	273463	keystroke_Key.space	Key.space	n/a
138.0505	0.105	276101	keystroke_Key.backspace	Key.backspace	n/a
138.2605	0.09	276521	keystroke_Key.backspace	Key.backspace	n/a
138.4255	0.09	276851	keystroke_Key.backspace	Key.backspace	n/a
138.6065	0.075	277213	keystroke_Key.backspace	Key.backspace	n/a
138.9065	0.1195	277813	keystroke_s	s	n/a
140.1065	0.12	280213	keystroke_o	o	n/a
140.2715	0.059	280543	keystroke_r	r	n/a
140.4965	0.06	280993	keystroke_y	y	n/a
140.7215	0.09	281443	keystroke_Key.space	Key.space	n/a
140.9165	0.09	281833	keystroke_r	r	n/a
141.036	0.075	282072	keystroke_o	o	n/a
141.201	0.0905	282402	keystroke_o	o	n/a
141.336	0.105	282672	keystroke_m	m	n/a
141.831	0.0755	283662	keystroke_Key.enter	Key.enter	n/a
141.9135	7.5845	283827	prompt	n/a	corresponding amend bedrooms babies\n
142.8065	0.15	285613	keystroke_c	c	n/a
142.9715	0.0895	285943	keystroke_o	o	n/a
143.1515	0.075	286303	keystroke_r	r	n/a
143.3015	0.15	286603	keystroke_r	r	n/a
143.4515	0.135	286903	keystroke_e	e	n/a
143.7665	0.15	287533	keystroke_s	s	n/a
143.9015	0.135	287803	keystroke_p	p	n/a
144.0215	0.12	288043	keystroke_o	o	n/a
144.2465	0.12	288493	keystroke_n	n	n/a
144.4415	0.105	288883	keystroke_d	d	n/a
144.5165	0.149	289033	keystroke_i	i	n/a
144.6065	0.135	289213	keystroke_n	n	n/a
144.7715	0.0895	289543	keystroke_g	g	n/a
144.9065	0.1045	289813	keystroke_Key.space	Key.space	n/a
145.1315	0.1045	290263	keystroke_a	a	n/a
145.221	0.12	290442	keystroke_m	m	n/a
145.461	0.1205	290922	keystroke_e	e	n/a
145.641	0.12	291282	keystroke_n	n	n/a
145.9865	0.1045	291973	keystroke_d	d	n/a
146.1815	0.09	292363	keystroke_Key.space	Key.space	n/a
146.6315	0.09	293263	keystroke_b	b	n/a
146.7065	0.1045	293413	keystroke_e	e	n/a
146.9315	0.1195	293863	keystroke_d	d	n/a
147.1565	0.1045	294313	keystroke_r	r	n/a
147.2915	0.105	294583	keystroke_o	o	n/a
147.4715	0.0895	294943	keystroke_o	o	n/a
147.5765	0.1345	295153	keystroke_m	m	n/a
147.741	0.135	295482	keystroke_s	s	n/a
147.861	0.1055	295722	keystroke_Key.space	Key.space	n/a
148.1015	0.105	296203	keystroke_b	b	n/a
148.236	0.105	296472	keystroke_a	a	n/a
148.3565	0.0595	296713	keystroke_b	b	n/a
148.5515	0.12	297103	keystroke_i	i	n/a
148.6415	0.105	297283	keystroke_e	e	n/a
148.9115	0.075	297823	keystroke_s	s	n/a
149.3765	0.119	298753	keystroke_Key.enter	Key.enter	n/a
149.5025	7.5705	299005	prompt	n/a	tumor strong booking attached\n
151.1015	0.075	302203	keystroke_t	t	n/a
151.2965	0.09	302593	keystroke_u	u	n/a
151.4765	0.135	302953	keystroke_m	m	n/a
151.6865	0.0905	303373	keystroke_o	o	n/a
151.8215	0.09	303643	keystroke_r	r	n/a
152.0155	0.106	304031	keystroke_Key.space	Key.space	n/a
152.4965	0.1495	304993	keystroke_s	s	n/a
152.7665	0.09	305533	keystroke_t	t	n/a
152.9765	0.12	305953	keystroke_r	r	n/a
153.0515	0.09	306103	keystroke_o	o	n/a
153.2615	0.104	306523	keystroke_n	n	n/a
153.3815	0.059	306763	keystroke_g	g	n/a
153.5015	0.119	307003	keystroke_Key.space	Key.space	n/a
153.7565	0.075	307513	keystroke_b	b	n/a
153.9965	0.06	307993	keystroke_o	o	n/a
154.146	0.075	308292	keystroke_o	o	n/a
154.371	0.075	308742	keystroke_k	k	n/a
154.5965	0.195	309193	keystroke_i	i	n/a
154.7765	0.075	309553	keystroke_n	n	n/a
154.8655	0.121	309731	keystroke_g	g	n/a
155.0015	0.12	310003	keystroke_Key.space	Key.space	n/a
155.1665	0.18	310333	keystroke_a	a	n/a
155.631	0.12	311262	keystroke_t	t	n/a
155.856	0.105	311712	keystroke_t	t	n/a
156.0965	0.15	312193	keystroke_a	a	n/a
156.3515	0.105	312703	keystroke_c	c	n/a
156.4565	0.12	312913	keystroke_h	h	n/a
156.6065	0.105	313213	keystroke_e	e	n/a
156.7865	0.15	313573	keystroke_d	d	n/a
156.9665	0.105	313933	keystroke_Key.enter	Key.enter	n/a
157.077	10.5405	314154	prompt	n/a	zoloft gray considerations highland\n
158.4515	0.1495	316903	keystroke_z	z	n/a
158.616	0.075	317232	keystroke_o	o	n/a
158.8265	0.1045	317653	keystroke_l	l	n/a
159.036	0.1055	318072	keystroke_o	o	n/a
159.1265	0.12	318253	keystroke_f	f	n/a
159.381	0.09	318762	keystroke_t	t	n/a
159.576	0.105	319152	keystroke_Key.space	Key.space	n/a
159.9965	0.0605	319993	keystroke_r	r	n/a
161.256	0.1045	322512	keystroke_Key.backspace	Key.backspace	n/a
161.7365	0.0755	323473	keystroke_g	g	n/a
161.8405	0.0755	323681	keystroke_r	r	n/a
162.0365	0.12	324073	keystroke_a	a	n/a
162.1115	0.1195	324223	keystroke_y	y	n/a
162.3665	0.105	324733	keystroke_Key.space	Key.space	n/a
162.9965	0.104	325993	keystroke_c	c	n/a
163.1165	0.06	326233	keystroke_o	o	n/a
163.2815	0.105	326563	keystroke_n	n	n/a
163.4165	0.074	326833	keystroke_s	s	n/a
163.5065	0.135	327013	keystroke_i	i	n/a
163.6565	0.0455	327313	keystroke_d	d	n/a
163.8065	0.165	327613	keystroke_e	e	n/a
163.9715	0.165	327943	keystroke_r	r	n/a
164.2715	0.075	328543	keystroke_t	t	n/a
164.4655	0.121	328931	keystroke_a	a	n/a
164.631	0.0905	329262	keystroke_t	t	n/a
164.751	0.2405	329502	keystroke_i	i	n/a
164.8415	0.225	329683	keystroke_o	o	n/a
164.931	0.136	329862	keystroke_n	n	n/a
165.1265	0.1045	330253	keystroke_s	s	n/a
165.2915	0.12	330583	keystroke_Key.space	Key.space	n/a
165.8465	0.12	331693	keystroke_h	h	n/a
166.0265	0.12	332053	keystroke_i	i	n/a
166.1615	0.075	332323	keystroke_g	g	n/a
166.4015	0.12	332803	keystroke_h	h	n/a
167.0165	0.1345	334033	keystroke_l	l	n/a
167.136	0.1055	334272	keystroke_a	a	n/a
167.256	0.1205	334512	keystroke_n	n	n/a
167.361	0.12	334722	keystroke_d	d	n/a
167.511	0.1055	335022	keystroke_Key.enter	Key.enter	n/a
167.6285	1.52	335257	prompt	n/a	there'd remaining angry consulting\n
168.3655	0.105	336731	keystroke_t	t	n/a
168.4865	0.119	336973	keystroke_h	h	n/a
168.591	0.15	337182	keystroke_e	e	n/a
168.7255	0.1355	337451	keystroke_r	r	n/a
168.831	0.105	337662	keystroke_e	e	n/a
169.056	0.0905	338112	keystroke_Key.enter	Key.enter	n/a
169.1525	8.3355	338305	prompt	n/a	sponsored either apparently faster\n
171.653	0.058	343306	keystroke_s	s	n/a
171.756	0.1355	343512	keystroke_p	p	n/a
171.906	0.105	343812	keystroke_o	o	n/a
172.131	0.09	344262	keystroke_n	n	n/a
172.2665	0.1205	344533	keystroke_s	s	n/a
172.371	0.1655	344742	keystroke_o	o	n/a
172.551	0.0905	345102	keystroke_r	r	n/a
172.7015	0.09	345403	keystroke_e	e	n/a
172.911	0.0905	345822	keystroke_d	d	n/a
173.0015	0.1045	346003	keystroke_Key.space	Key.space	n/a
173.3165	0.105	346633	keystroke_e	e	n/a
173.437	0.0895	346874	keystroke_i	i	n/a
173.5565	0.09	347113	keystroke_t	t	n/a
173.6915	0.105	347383	keystroke_h	h	n/a
173.8115	0.09	347623	keystroke_e	e	n/a
173.8865	0.12	347773	keystroke_r	r	n/a
174.066	0.1205	348132	keystroke_Key.space	Key.space	n/a
174.2615	0.12	348523	keystroke_a	a	n/a
174.3965	0.0905	348793	keystroke_p	p	n/a
174.5615	0.135	349123	keystroke_p	p	n/a
174.6365	0.1945	349273	keystroke_a	a	n/a
174.801	0.105	349602	keystroke_r	r	n/a
175.056	0.1505	350112	keystroke_e	e	n/a
175.2505	0.06	350501	keystroke_n	n	n/a
175.3415	0.1645	350683	keystroke_t	t	n/a
175.4905	0.12	350981	keystroke_l	l	n/a
175.6265	0.1045	351253	keystroke_y	y	n/a
175.7755	0.121	351551	keystroke_Key.space	Key.space	n/a
176.0915	0.105	352183	keystroke_f	f	n/a
176.3615	0.195	352723	keystroke_a	a	n/a
176.4665	0.15	352933	keystroke_s	s	n/a
176.7515	0.09	353503	keystroke_t	t	n/a
176.9615	0.135	353923	keystroke_e	e	n/a
177.0815	0.105	354163	keystroke_r	r	n/a
177.396	0.09	354792	keystroke_Key.enter	Key.enter	n/a
177.492	8.231	354984	prompt	n/a	import profiles ctrl september\n
179.0015	0.0895	358003	keystroke_i	i	n/a
179.136	0.15	358272	keystroke_m	m	n/a
179.3465	0.1495	358693	keystroke_p	p	n/a
179.466	0.1505	358932	keystroke_o	o	n/a
179.631	0.09	359262	keystroke_r	r	n/a
179.841	0.0605	359682	keystroke_t	t	n/a
180.051	0.09	360102	keystroke_Key.space	Key.space	n/a
180.456	0.1055	360912	keystroke_p	p	n/a
180.5765	0.1045	361153	keystroke_r	r	n/a
180.756	0.0605	361512	keystroke_o	o	n/a
180.8915	0.0895	361783	keystroke_f	f	n/a
180.9965	0.1045	361993	keystroke_i	i	n/a
181.191	0.1355	362382	keystroke_l	l	n/a
181.296	0.0755	362592	keystroke_e	e	n/a
181.5215	0.105	363043	keystroke_s	s	n/a
181.776	0.09	363552	keystroke_Key.space	Key.space	n/a
182.0005	0.105	364001	keystroke_c	c	n/a
182.301	0.1045	364602	keystroke_t	t	n/a
182.5105	0.105	365021	keystroke_r	r	n/a
182.6005	0.195	365201	keystroke_i	i	n/a
182.8265	0.164	365653	keystroke_l	l	n/a
183.1565	0.12	366313	keystroke_Key.space	Key.space	n/a
183.5015	0.12	367003	keystroke_s	s	n/a
183.7565	0.12	367513	keystroke_e	e	n/a
184.0565	0.104	368113	keystroke_p	p	n/a
184.2215	0.105	368443	keystroke_t	t	n/a
184.8365	0.075	369673	keystroke_e	e	n/a
184.9565	0.09	369913	keystroke_m	m	n/a
185.1965	0.105	370393	keystroke_b	b	n/a
185.2855	0.165	370571	keystroke_e	e	n/a
185.4355	0.121	370871	keystroke_r	r	n/a
185.6155	0.105	371231	keystroke_Key.enter	Key.enter	n/a
185.727	6.0105	371454	prompt	n/a	paradise smaller exec montreal\n
186.6065	0.104	373213	keystroke_p	p	n/a
186.7865	0.105	373573	keystroke_a	a	n/a
186.9515	0.075	373903	keystroke_r	r	n/a
187.1015	0.06	374203	keystroke_a	a	n/a
187.2815	0.075	374563	keystroke_d	d	n/a
187.3715	0.12	374743	keystroke_i	i	n/a
187.5065	0.104	375013	keystroke_s	s	n/a
187.7315	0.075	375463	keystroke_e	e	n/a
187.8355	0.136	375671	keystroke_Key.space	Key.space	n/a
188.1215	0.09	376243	keystroke_s	s	n/a
188.2565	0.104	376513	keystroke_m	m	n/a
188.3765	0.134	376753	keystroke_a	a	n/a
188.4665	0.09	376933	keystroke_l	l	n/a
188.6605	0.0755	377321	keystroke_l	l	n/a
188.6905	0.135	377381	keystroke_e	e	n/a
188.8705	0.0455	377741	keystroke_r	r	n/a
188.9605	0.135	377921	keystroke_Key.space	Key.space	n/a
189.2165	0.1045	378433	keystroke_e	e	n/a
189.516	0.1355	379032	keystroke_x	x	n/a
189.786	0.06	379572	keystroke_e	e	n/a
189.997	0.1195	379994	keystroke_c	c	n/a
190.221	0.1055	380442	keystroke_Key.space	Key.space	n/a
190.491	0.12	380982	keystroke_m	m	n/a
190.671	0.09	381342	keystroke_o	o	n/a
190.881	0.1055	381762	keystroke_n	n	n/a
190.9715	0.075	381943	keystroke_t	t	n/a
191.1515	0.075	382303	keystroke_r	r	n/a
191.301	0.105	382602	keystroke_a	a	n/a
191.421	0.075	382842	keystroke_l	l	n/a
191.631	0.105	383262	keystroke_Key.enter	Key.enter	n/a
191.7415	10.0915	383483	prompt	n/a	becomes sphere calendars achieve\n
193.566	0.1055	387132	keystroke_b	b	n/a
193.6565	0.105	387313	keystroke_e	e	n/a
193.8515	0.12	387703	keystroke_c	c	n/a
194.0165	0.12	388033	keystroke_o	o	n/a
194.1515	0.135	388303	keystroke_m	m	n/a
194.2415	0.105	388483	keystroke_e	e	n/a
194.4665	0.12	388933	keystroke_s	s	n/a
194.6165	0.105	389233	keystroke_Key.space	Key.space	n/a
194.7665	0.149	389533	keystroke_s	s	n/a
196.3115	0.09	392623	keystroke_p	p	n/a
196.4915	0.105	392983	keystroke_h	h	n/a
196.6115	0.135	393223	keystroke_e	e	n/a
196.7615	0.18	393523	keystroke_r	r	n/a
196.9265	0.12	393853	keystroke_e	e	n/a
197.1215	0.1195	394243	keystroke_Key.space	Key.space	n/a
197.5715	0.0895	395143	keystroke_c	c	n/a
197.781	0.135	395562	keystroke_a	a	n/a
197.9015	0.1195	395803	keystroke_l	l	n/a
198.0515	0.1045	396103	keystroke_e	e	n/a
198.171	0.12	396342	keystroke_n	n	n/a
198.2765	0.1045	396553	keystroke_d	d	n/a
198.456	0.15	396912	keystroke_a	a	n/a
198.6215	0.1345	397243	keystroke_r	r	n/a
199.3265	0.105	398653	keystroke_s	s	n/a
199.4765	0.165	398953	keystroke_Key.space	Key.space	n/a
199.7015	0.15	399403	keystroke_a	a	n/a
199.9415	0.104	399883	keystroke_c	c	n/a
200.0765	0.105	400153	keystroke_h	h	n/a
200.4365	0.165	400873	keystroke_i	i	n/a
200.556	0.09	401112	keystroke_e	e	n/a
200.781	0.105	401562	keystroke_v	v	n/a
200.9915	0.1195	401983	keystroke_e	e	n/a
201.6965	0.1345	403393	keystroke_Key.enter	Key.enter	n/a
201.8365	9.0715	403673	prompt	n/a	monitor botswana immune exclusive\n
202.506	0.135	405012	keystroke_m	m	n/a
202.7005	0.105	405401	keystroke_o	o	n/a
202.911	0.105	405822	keystroke_n	n	n/a
203.076	0.135	406152	keystroke_i	i	n/a
203.2865	0.09	406573	keystroke_t	t	n/a
203.481	0.135	406962	keystroke_o	o	n/a
203.571	0.105	407142	keystroke_r	r	n/a
203.8415	0.15	407683	keystroke_Key.space	Key.space	n/a
204.7265	0.06	409453	keystroke_b	b	n/a
204.9365	0.09	409873	keystroke_o	o	n/a
205.0865	0.075	410173	keystroke_t	t	n/a
205.416	0.105	410832	keystroke_s	s	n/a
205.641	0.075	411282	keystroke_w	w	n/a
205.821	0.09	411642	keystroke_a	a	n/a
205.896	0.0905	411792	keystroke_n	n	n/a
206.0465	0.1045	412093	keystroke_a	a	n/a
206.181	0.1355	412362	keystroke_Key.space	Key.space	n/a
207.021	0.09	414042	keystroke_i	i	n/a
207.126	0.0155	414252	keystroke_m	m	n/a
207.1865	0.1195	414373	keystroke_m	m	n/a
207.561	0.135	415122	keystroke_u	u	n/a
207.831	0.12	415662	keystroke_n	n	n/a
208.146	0.12	416292	keystroke_e	e	n/a
208.326	0.0895	416652	keystroke_Key.space	Key.space	n/a
208.7165	0.075	417433	keystroke_e	e	n/a
209.151	0.1055	418302	keystroke_x	x	n/a
209.3315	0.1795	418663	keystroke_c	c	n/a
209.4815	0.104	418963	keystroke_l	l	n/a
209.676	0.12	419352	keystroke_u	u	n/a
209.9615	0.09	419923	keystroke_s	s	n/a
210.0965	0.12	420193	keystroke_i	i	n/a
210.2615	0.105	420523	keystroke_v	v	n/a
210.4865	0.1345	420973	keystroke_e	e	n/a
210.801	0.105	421602	keystroke_Key.enter	Key.enter	n/a
210.912	8.306	421824	prompt	n/a	archive robertson often going\n
211.686	0.121	423372	keystroke_a	a	n/a
212.9455	0.076	425891	keystroke_r	r	n/a
213.3365	0.1195	426673	keystroke_c	c	n/a
213.471	0.0905	426942	keystroke_h	h	n/a
213.621	0.135	427242	keystroke_i	i	n/a
213.726	0.09	427452	keystroke_v	v	n/a
213.951	0.135	427902	keystroke_e	e	n/a
214.1465	0.1195	428293	keystroke_Key.space	Key.space	n/a
214.701	0.075	429402	keystroke_r	r	n/a
214.791	0.09	429582	keystroke_o	o	n/a
215.0615	0.135	430123	keystroke_b	b	n/a
215.151	0.18	430302	keystroke_e	e	n/a
215.301	0.1055	430602	keystroke_r	r	n/a
215.7215	0.09	431443	keystroke_t	t	n/a
216.0215	0.105	432043	keystroke_s	s	n/a
216.1415	0.075	432283	keystroke_o	o	n/a
216.3365	0.075	432673	keystroke_n	n	n/a
216.5315	0.089	433063	keystroke_Key.space	Key.space	n/a
216.772	0.134	433544	keystroke_o	o	n/a
216.9665	0.0895	433933	keystroke_f	f	n/a
217.2365	0.09	434473	keystroke_t	t	n/a
217.4615	0.09	434923	keystroke_e	e	n/a
217.5365	0.09	435073	keystroke_n	n	n/a
217.7465	0.105	435493	keystroke_Key.space	Key.space	n/a
218.1515	0.105	436303	keystroke_g	g	n/a
218.2715	0.09	436543	keystroke_o	o	n/a
218.4965	0.15	436993	keystroke_i	i	n/a
218.5715	0.15	437143	keystroke_n	n	n/a
218.8715	0.09	437743	keystroke_g	g	n/a
219.0965	0.119	438193	keystroke_Key.enter	Key.enter	n/a
219.222	7.4065	438444	prompt	n/a	before leone landscapes contained\n
220.281	0.12	440562	keystroke_b	b	n/a
220.401	0.135	440802	keystroke_e	e	n/a
220.6115	0.1345	441223	keystroke_f	f	n/a
220.731	0.1055	441462	keystroke_o	o	n/a
220.8815	0.1645	441763	keystroke_r	r	n/a
221.001	0.135	442002	keystroke_e	e	n/a
221.151	0.105	442302	keystroke_Key.space	Key.space	n/a
221.4215	0.1195	442843	keystroke_l	l	n/a
222.1715	0.12	444343	keystroke_e	e	n/a
222.306	0.1055	444612	keystroke_o	o	n/a
222.501	0.105	445002	keystroke_n	n	n/a
222.6215	0.1045	445243	keystroke_e	e	n/a
222.741	0.1055	445482	keystroke_Key.space	Key.space	n/a
222.981	0.1055	445962	keystroke_l	l	n/a
223.101	0.105	446202	keystroke_a	a	n/a
223.266	0.105	446532	keystroke_n	n	n/a
223.416	0.1055	446832	keystroke_d	d	n/a
223.6415	0.105	447283	keystroke_s	s	n/a
223.8815	0.075	447763	keystroke_c	c	n/a
224.1215	0.045	448243	keystroke_a	a	n/a
224.4665	0.1345	448933	keystroke_p	p	n/a
224.571	0.0905	449142	keystroke_e	e	n/a
224.7965	0.1045	449593	keystroke_s	s	n/a
224.8865	0.135	449773	keystroke_Key.space	Key.space	n/a
225.2765	0.105	450553	keystroke_c	c	n/a
225.4265	0.09	450853	keystroke_o	o	n/a
225.5915	0.135	451183	keystroke_n	n	n/a
225.7115	0.075	451423	keystroke_t	t	n/a
225.8915	0.15	451783	keystroke_a	a	n/a
226.0115	0.135	452023	keystroke_i	i	n/a
226.1015	0.135	452203	keystroke_n	n	n/a
226.1765	0.1205	452353	keystroke_e	e	n/a
226.3865	0.09	452773	keystroke_d	d	n/a
226.5065	0.1195	453013	keystroke_Key.enter	Key.enter	n/a
226.635	7.748	453270	prompt	n/a	inclusion familiar millions expired\n
227.542	0.0895	455084	keystroke_i	i	n/a
227.7065	0.09	455413	keystroke_n	n	n/a
227.9015	0.105	455803	keystroke_c	c	n/a
227.9915	0.105	455983	keystroke_l	l	n/a
228.1865	0.09	456373	keystroke_u	u	n/a
228.3965	0.105	456793	keystroke_s	s	n/a
228.4715	0.21	456943	keystroke_i	i	n/a
228.5615	0.165	457123	keystroke_o	o	n/a
228.6365	0.12	457273	keystroke_n	n	n/a
228.8465	0.12	457693	keystroke_Key.space	Key.space	n/a
229.101	0.0905	458202	keystroke_f	f	n/a
229.296	0.135	458592	keystroke_a	a	n/a
229.446	0.105	458892	keystroke_m	m	n/a
229.6865	0.105	459373	keystroke_i	i	n/a
229.8965	0.1045	459793	keystroke_l	l	n/a
230.076	0.15	460152	keystroke_i	i	n/a
230.151	0.165	460302	keystroke_a	a	n/a
230.331	0.075	460662	keystroke_r	r	n/a
230.616	0.015	461232	keystroke_Key.space	Key.space	n/a
231.0965	0.15	462193	keystroke_m	m	n/a
231.336	0.12	462672	keystroke_i	i	n/a
231.531	0.0905	463062	keystroke_l	l	n/a
231.711	0.09	463422	keystroke_l	l	n/a
231.936	0.2255	463872	keystroke_i	i	n/a
232.056	0.1655	464112	keystroke_o	o	n/a
232.146	0.135	464292	keystroke_n	n	n/a
232.3415	0.1195	464683	keystroke_s	s	n/a
232.476	0.135	464952	keystroke_Key.space	Key.space	n/a
232.641	0.09	465282	keystroke_e	e	n/a
232.926	0.1655	465852	keystroke_x	x	n/a
233.0615	0.1045	466123	keystroke_p	p	n/a
233.5865	0.135	467173	keystroke_i	i	n/a
233.706	0.091	467412	keystroke_r	r	n/a
233.8715	0.09	467743	keystroke_e	e	n/a
234.081	0.165	468162	keystroke_d	d	n/a
234.2615	0.1195	468523	keystroke_Key.enter	Key.enter	n/a
234.3865	7.842	468773	prompt	n/a	doors major null earth\n
235.6115	0.165	471223	keystroke_d	d	n/a
235.9265	0.075	471853	keystroke_o	o	n/a
236.0765	0.105	472153	keystroke_o	o	n/a
236.1515	0.09	472303	keystroke_r	r	n/a
236.407	0.1045	472814	keystroke_s	s	n/a
236.526	0.0755	473052	keystroke_Key.space	Key.space	n/a
236.7515	0.1205	473503	keystroke_m	m	n/a
236.8865	0.15	473773	keystroke_a	a	n/a
237.0055	0.121	474011	keystroke_j	j	n/a
237.2015	0.135	474403	keystroke_o	o	n/a
237.3215	0.0895	474643	keystroke_r	r	n/a
237.5465	0.15	475093	keystroke_Key.space	Key.space	n/a
238.011	0.12	476022	keystroke_n	n	n/a
238.2665	0.0595	476533	keystroke_u	u	n/a
238.626	0.0905	477252	keystroke_l	l	n/a
238.8815	0.015	477763	keystroke_l	l	n/a
239.0315	0.105	478063	keystroke_Key.space	Key.space	n/a
239.2115	0.1205	478423	keystroke_e	e	n/a
239.4065	0.18	478813	keystroke_a	a	n/a
239.5415	0.1205	479083	keystroke_r	r	n/a
239.7515	0.075	479503	keystroke_h	h	n/a
240.2615	0.105	480523	keystroke_Key.backspace	Key.backspace	n/a
240.4115	0.06	480823	keystroke_t	t	n/a
240.6665	0.0145	481333	keystroke_j	j	n/a
241.3115	0.0745	482623	keystroke_Key.backspace	Key.backspace	n/a
241.8965	0.2095	483793	keystroke_h	h	n/a
242.1215	0.1045	484243	keystroke_Key.enter	Key.enter	n/a
242.232	8.6215	484464	prompt	n/a	julian saving trustees trademark\n
243.4555	0.1205	486911	keystroke_j	j	n/a
243.6805	0.091	487361	keystroke_u	u	n/a
243.892	0.0595	487784	keystroke_l	l	n/a
244.0415	0.0745	488083	keystroke_i	i	n/a
244.1915	0.1345	488383	keystroke_a	a	n/a
244.266	0.0755	488532	keystroke_n	n	n/a
244.4615	0.105	488923	keystroke_Key.space	Key.space	n/a
244.611	0.09	489222	keystroke_s	s	n/a
244.7615	0.1195	489523	keystroke_a	a	n/a
245.0615	0.12	490123	keystroke_v	v	n/a
245.2565	0.24	490513	keystroke_i	i	n/a
245.4065	0.135	490813	keystroke_n	n	n/a
246.7715	0.09	493543	keystroke_g	g	n/a
246.951	0.105	493902	keystroke_Key.space	Key.space	n/a
247.356	0.075	494712	keystroke_t	t	n/a
247.566	0.09	495132	keystroke_r	r	n/a
247.686	0.12	495372	keystroke_u	u	n/a
247.821	0.1505	495642	keystroke_s	s	n/a
248.121	0.105	496242	keystroke_t	t	n/a
248.376	0.075	496752	keystroke_e	e	n/a
248.526	0.105	497052	keystroke_e	e	n/a
248.751	0.0905	497502	keystroke_s	s	n/a
248.856	0.12	497712	keystroke_Key.space	Key.space	n/a
249.1865	0.075	498373	keystroke_t	t	n/a
249.3805	0.076	498761	keystroke_r	r	n/a
249.5615	0.12	499123	keystroke_a	a	n/a
249.7565	0.075	499513	keystroke_d	d	n/a
249.9665	0.075	499933	keystroke_e	e	n/a
250.1015	0.105	500203	keystroke_m	m	n/a
250.1915	0.12	500383	keystroke_a	a	n/a
250.341	0.1055	500682	keystroke_r	r	n/a
250.461	0.135	500922	keystroke_k	k	n/a
250.7615	0.0895	501523	keystroke_Key.enter	Key.enter	n/a
250.8575	12.3105	501715	prompt	n/a	right polyphonic nickel amounts\n
251.9915	0.09	503983	keystroke_r	r	n/a
252.1415	0.105	504283	keystroke_i	i	n/a
252.2765	0.06	504553	keystroke_g	g	n/a
252.4115	0.075	504823	keystroke_h	h	n/a
252.5015	0.12	505003	keystroke_t	t	n/a
252.6815	0.15	505363	keystroke_Key.space	Key.space	n/a
253.1165	0.0895	506233	keystroke_p	p	n/a
254.3165	0.089	508633	keystroke_o	o	n/a
254.6015	0.045	509203	keystroke_l	l	n/a
254.8415	0.09	509683	keystroke_y	y	n/a
255.831	0.0905	511662	keystroke_p	p	n/a
255.9665	0.1045	511933	keystroke_h	h	n/a
256.176	0.0605	512352	keystroke_o	o	n/a
256.341	0.1205	512682	keystroke_n	n	n/a
256.4915	0.1195	512983	keystroke_i	i	n/a
256.6555	0.121	513311	keystroke_c	c	n/a
256.821	0.1055	513642	keystroke_Key.space	Key.space	n/a
257.0765	0.105	514153	keystroke_n	n	n/a
257.2715	0.0895	514543	keystroke_i	i	n/a
257.361	0.12	514722	keystroke_c	c	n/a
257.541	0.1505	515082	keystroke_k	k	n/a
257.616	0.165	515232	keystroke_e	e	n/a
257.856	0.0905	515712	keystroke_t	t	n/a
258.3365	0.0895	516673	keystroke_Key.backspace	Key.backspace	n/a
258.636	0.105	517272	keystroke_;	;	n/a
258.9215	0.089	517843	keystroke_Key.space	Key.space	n/a
259.3555	0.105	518711	keystroke_Key.backspace	Key.backspace	n/a
259.521	0.1055	519042	keystroke_Key.backspace	Key.backspace	n/a
260.4515	0.119	520903	keystroke_;	;	n/a
260.8415	0.1045	521683	keystroke_Key.backspace	Key.backspace	n/a
261.171	0.105	522342	keystroke_l	l	n/a
261.3965	0.0895	522793	keystroke_Key.space	Key.space	n/a
262.027	0.0445	524054	keystroke_a	a	n/a
262.086	0.09	524172	keystroke_m	m	n/a
262.282	0.284	524564	keystroke_o	o	n/a
262.431	0.15	524862	keystroke_u	u	n/a
262.506	0.1495	525012	keystroke_n	n	n/a
262.641	0.0895	525282	keystroke_t	t	n/a
262.9115	0.09	525823	keystroke_s	s	n/a
263.046	0.12	526092	keystroke_Key.enter	Key.enter	n/a
263.172	12.251	526344	prompt	n/a	retailers lesson loads contributors\n
264.3515	0.014	528703	keystroke_r	r	n/a
264.3815	0.105	528763	keystroke_e	e	n/a
264.6065	0.075	529213	keystroke_t	t	n/a
264.9965	0.165	529993	keystroke_i	i	n/a
265.1465	0.119	530293	keystroke_l	l	n/a
265.2365	0.149	530473	keystroke_e	e	n/a
265.3565	0.105	530713	keystroke_r	r	n/a
265.6115	0.0745	531223	keystroke_s	s	n/a
265.7305	0.1055	531461	keystroke_Key.space	Key.space	n/a
266.2715	0.09	532543	keystroke_Key.backspace	Key.backspace	n/a
266.4665	0.0595	532933	keystroke_Key.backspace	Key.backspace	n/a
266.631	0.075	533262	keystroke_Key.backspace	Key.backspace	n/a
266.8115	0.0745	533623	keystroke_Key.backspace	Key.backspace	n/a
266.976	0.0905	533952	keystroke_Key.backspace	Key.backspace	n/a
267.336	0.075	534672	keystroke_Key.backspace	Key.backspace	n/a
267.606	0.1055	535212	keystroke_a	a	n/a
268.371	0.075	536742	keystroke_i	i	n/a
268.536	0.1055	537072	keystroke_l	l	n/a
268.626	0.1505	537252	keystroke_e	e	n/a
268.7615	0.12	537523	keystroke_r	r	n/a
269.0015	0.09	538003	keystroke_s	s	n/a
269.136	0.1055	538272	keystroke_Key.space	Key.space	n/a
269.5415	0.135	539083	keystroke_l	l	n/a
269.6455	0.106	539291	keystroke_e	e	n/a
269.8715	0.0595	539743	keystroke_s	s	n/a
270.036	0.09	540072	keystroke_s	s	n/a
270.0815	0.09	540163	keystroke_o	o	n/a
270.276	0.09	540552	keystroke_n	n	n/a
270.486	0.09	540972	keystroke_Key.space	Key.space	n/a
271.056	0.0905	542112	keystroke_l	l	n/a
271.252	0.104	542504	keystroke_o	o	n/a
271.3115	0.1045	542623	keystroke_a	a	n/a
271.491	0.075	542982	keystroke_d	d	n/a
271.716	0.105	543432	keystroke_s	s	n/a
271.851	0.135	543702	keystroke_Key.space	Key.space	n/a
272.241	0.105	544482	keystroke_c	c	n/a
272.346	0.105	544692	keystroke_o	o	n/a
272.5565	0.1195	545113	keystroke_n	n	n/a
272.6615	0.0895	545323	keystroke_t	t	n/a
272.8565	0.0895	545713	keystroke_r	r	n/a
272.961	0.06	545922	keystroke_i	i	n/a
273.096	0.1355	546192	keystroke_b	b	n/a
273.366	0.0905	546732	keystroke_u	u	n/a
273.546	0.075	547092	keystroke_t	t	n/a
273.756	0.09	547512	keystroke_o	o	n/a
273.9515	0.03	547903	keystroke_r	r	n/a
274.191	0.1055	548382	keystroke_s	s	n/a
274.356	0.1195	548712	keystroke_Key.space	Key.space	n/a
275.346	0.075	550692	keystroke_Key.enter	Key.enter	n/a
275.4265	17.862	550853	prompt	n/a	baghdad removable russell systematic\n
277.3565	0.12	554713	keystroke_b	b	n/a
277.6715	0.12	555343	keystroke_a	a	n/a
278.706	0.075	557412	keystroke_g	g	n/a
278.841	0.09	557682	keystroke_h	h	n/a
279.066	0.0905	558132	keystroke_d	d	n/a
279.276	0.0605	558552	keystroke_a	a	n/a
279.396	0.105	558792	keystroke_d	d	n/a
279.516	0.09	559032	keystroke_Key.space	Key.space	n/a
279.726	0.075	559452	keystroke_r	r	n/a
279.921	0.1205	559842	keystroke_e	e	n/a
280.056	0.12	560112	keystroke_m	m	n/a
280.5065	0.1045	561013	keystroke_o	o	n/a
281.0315	0.074	562063	keystroke_v	v	n/a
281.1955	0.151	562391	keystroke_a	a	n/a
281.3615	0.09	562723	keystroke_b	b	n/a
281.5555	0.121	563111	keystroke_l	l	n/a
281.661	0.0755	563322	keystroke_e	e	n/a
281.7955	0.106	563591	keystroke_Key.space	Key.space	n/a
282.0655	0.076	564131	keystroke_r	r	n/a
282.216	0.1355	564432	keystroke_u	u	n/a
282.4715	0.075	564943	keystroke_l	l	n/a
282.6215	0.134	565243	keystroke_l	l	n/a
282.7265	0.12	565453	keystroke_e	e	n/a
283.5215	0.09	567043	keystroke_l	l	n/a
283.7315	0.045	567463	keystroke_l	l	n/a
284.0915	0.075	568183	keystroke_Key.backspace	Key.backspace	n/a
284.271	0.075	568542	keystroke_Key.backspace	Key.backspace	n/a
284.436	0.0755	568872	keystroke_Key.backspace	Key.backspace	n/a
284.6015	0.0895	569203	keystroke_Key.backspace	Key.backspace	n/a
284.841	0.12	569682	keystroke_s	s	n/a
285.0665	0.075	570133	keystroke_Key.backspace	Key.backspace	n/a
285.216	0.12	570432	keystroke_Key.backspace	Key.backspace	n/a
285.396	0.135	570792	keystroke_s	s	n/a
287.151	0.165	574302	keystroke_e	e	n/a
287.331	0.0305	574662	keystroke_l	l	n/a
287.466	0.105	574932	keystroke_l	l	n/a
288.0515	0.075	576103	keystroke_Key.space	Key.space	n/a
288.4715	0.06	576943	keystroke_s	s	n/a
288.5915	0.12	577183	keystroke_y	y	n/a
288.7415	0.075	577483	keystroke_s	s	n/a
289.0115	0.075	578023	keystroke_t	t	n/a
290.0765	0.075	580153	keystroke_e	e	n/a
290.2565	0.12	580513	keystroke_m	m	n/a
290.616	0.1355	581232	keystroke_a	a	n/a
290.8415	0.105	581683	keystroke_t	t	n/a
290.9915	0.089	581983	keystroke_i	i	n/a
291.246	0.1205	582492	keystroke_c	c	n/a
293.196	0.0905	586392	keystroke_Key.enter	Key.enter	n/a
293.2955	9.4425	586591	prompt	n/a	amanda homes boulder drop\n
294.3665	0.1345	588733	keystroke_a	a	n/a
294.546	0.105	589092	keystroke_m	m	n/a
294.666	0.12	589332	keystroke_a	a	n/a
294.861	0.1205	589722	keystroke_n	n	n/a
295.0415	0.1045	590083	keystroke_d	d	n/a
295.2215	0.1495	590443	keystroke_a	a	n/a
295.4315	0.1045	590863	keystroke_Key.space	Key.space	n/a
296.2415	0.075	592483	keystroke_h	h	n/a
296.4965	0.075	592993	keystroke_o	o	n/a
296.6765	0.12	593353	keystroke_m	m	n/a
296.8265	0.075	593653	keystroke_e	e	n/a
297.0515	0.09	594103	keystroke_s	s	n/a
297.2015	0.105	594403	keystroke_Key.space	Key.space	n/a
298.2365	0.1195	596473	keystroke_b	b	n/a
298.461	0.195	596922	keystroke_o	o	n/a
298.5655	0.136	597131	keystroke_u	u	n/a
298.806	0.1205	597612	keystroke_l	l	n/a
298.9865	0.089	597973	keystroke_d	d	n/a
299.196	0.165	598392	keystroke_e	e	n/a
299.347	0.104	598694	keystroke_r	r	n/a
299.586	0.09	599172	keystroke_Key.space	Key.space	n/a
300.486	0.09	600972	keystroke_d	d	n/a
300.756	0.1055	601512	keystroke_r	r	n/a
300.966	0.15	601932	keystroke_o	o	n/a
301.086	0.09	602172	keystroke_p	p	n/a
302.646	0.09	605292	keystroke_Key.enter	Key.enter	n/a
302.741	9.312	605482	prompt	n/a	afghanistan it'll wright patient\n
303.756	0.12	607512	keystroke_a	a	n/a
304.011	0.09	608022	keystroke_f	f	n/a
304.3115	0.0745	608623	keystroke_g	g	n/a
304.506	0.106	609012	keystroke_h	h	n/a
304.686	0.1205	609372	keystroke_a	a	n/a
304.897	0.104	609794	keystroke_n	n	n/a
305.136	0.09	610272	keystroke_i	i	n/a
305.286	0.0755	610572	keystroke_s	s	n/a
305.556	0.0755	611112	keystroke_t	t	n/a
305.766	0.105	611532	keystroke_a	a	n/a
305.8565	0.1195	611713	keystroke_n	n	n/a
306.291	0.12	612582	keystroke_Key.space	Key.space	n/a
306.6065	0.12	613213	keystroke_i	i	n/a
306.7715	0.09	613543	keystroke_t	t	n/a
307.6565	0.1045	615313	keystroke_'	'	n/a
308.166	0.0755	616332	keystroke_l	l	n/a
308.3315	0.1045	616663	keystroke_l	l	n/a
308.5265	0.1045	617053	keystroke_Key.space	Key.space	n/a
308.962	0.0745	617924	keystroke_w	w	n/a
309.2015	0.105	618403	keystroke_r	r	n/a
309.3365	0.105	618673	keystroke_i	i	n/a
309.4715	0.12	618943	keystroke_g	g	n/a
309.636	0.0895	619272	keystroke_h	h	n/a
309.7415	0.09	619483	keystroke_t	t	n/a
309.891	0.1205	619782	keystroke_Key.space	Key.space	n/a
310.1765	0.105	620353	keystroke_p	p	n/a
310.2665	0.15	620533	keystroke_a	a	n/a
310.4765	0.045	620953	keystroke_t	t	n/a
310.5665	0.105	621133	keystroke_i	i	n/a
310.7015	0.12	621403	keystroke_e	e	n/a
310.8665	0.12	621733	keystroke_n	n	n/a
311.2715	0.12	622543	keystroke_t	t	n/a
311.9315	0.12	623863	keystroke_Key.enter	Key.enter	n/a
312.057	7.046	624114	prompt	n/a	options clan cole scanner\n
313.2215	0.1945	626443	keystroke_o	o	n/a
313.3415	0.135	626683	keystroke_p	p	n/a
313.4915	0.075	626983	keystroke_t	t	n/a
313.6265	0.24	627253	keystroke_i	i	n/a
313.7615	0.165	627523	keystroke_o	o	n/a
313.8215	0.15	627643	keystroke_n	n	n/a
313.9715	0.15	627943	keystroke_s	s	n/a
314.1365	0.105	628273	keystroke_Key.space	Key.space	n/a
314.3765	0.105	628753	keystroke_c	c	n/a
314.5715	0.075	629143	keystroke_l	l	n/a
314.6315	0.12	629263	keystroke_a	a	n/a
315.051	0.0905	630102	keystroke_n	n	n/a
315.2915	0.12	630583	keystroke_Key.space	Key.space	n/a
315.846	0.1055	631692	keystroke_c	c	n/a
315.996	0.0605	631992	keystroke_o	o	n/a
316.162	0.1045	632324	keystroke_l	l	n/a
316.4915	0.0895	632983	keystroke_e	e	n/a
316.731	0.105	633462	keystroke_Key.space	Key.space	n/a
317.121	0.1055	634242	keystroke_s	s	n/a
317.3765	0.09	634753	keystroke_c	c	n/a
317.5715	0.075	635143	keystroke_a	a	n/a
317.6615	0.075	635323	keystroke_n	n	n/a
317.8255	0.09	635651	keystroke_n	n	n/a
317.856	0.1505	635712	keystroke_e	e	n/a
318.0815	0.119	636163	keystroke_r	r	n/a
318.966	0.1345	637932	keystroke_Key.enter	Key.enter	n/a
319.106	8.1265	638212	prompt	n/a	workplace tramadol plots seed\n
319.8515	0.1195	639703	keystroke_w	w	n/a
320.0915	0.0745	640183	keystroke_o	o	n/a
320.181	0.091	640362	keystroke_r	r	n/a
320.316	0.1055	640632	keystroke_k	k	n/a
320.556	0.0745	641112	keystroke_p	p	n/a
320.7515	0.12	641503	keystroke_l	l	n/a
320.8265	0.075	641653	keystroke_a	a	n/a
320.9605	0.1355	641921	keystroke_c	c	n/a
321.156	0.1045	642312	keystroke_e	e	n/a
321.306	0.1195	642612	keystroke_Key.space	Key.space	n/a
321.636	0.0905	643272	keystroke_t	t	n/a
321.846	0.105	643692	keystroke_r	r	n/a
322.056	0.076	644112	keystroke_a	a	n/a
322.206	0.12	644412	keystroke_m	m	n/a
323.2855	0.091	646571	keystroke_a	a	n/a
323.541	0.1055	647082	keystroke_d	d	n/a
323.661	0.0895	647322	keystroke_o	o	n/a
323.8715	0.09	647743	keystroke_l	l	n/a
324.4855	0.09	648971	keystroke_Key.space	Key.space	n/a
324.7415	0.09	649483	keystroke_p	p	n/a
324.9655	0.1055	649931	keystroke_l	l	n/a
325.147	0.1195	650294	keystroke_o	o	n/a
325.236	0.09	650472	keystroke_t	t	n/a
325.581	0.1055	651162	keystroke_s	s	n/a
326.061	0.1055	652122	keystroke_Key.space	Key.space	n/a
326.256	0.09	652512	keystroke_s	s	n/a
326.481	0.09	652962	keystroke_e	e	n/a
326.661	0.105	653322	keystroke_e	e	n/a
326.8865	0.075	653773	keystroke_d	d	n/a
327.1265	0.105	654253	keystroke_Key.enter	Key.enter	n/a
327.236	17.937	654472	prompt	n/a	pounds coverage identification sectors\n
328.1315	0.105	656263	keystroke_p	p	n/a
328.656	0.105	657312	keystroke_o	o	n/a
328.851	0.0305	657702	keystroke_i	i	n/a
328.866	0.046	657732	keystroke_u	u	n/a
329.0315	0.1495	658063	keystroke_n	n	n/a
329.196	0.09	658392	keystroke_d	d	n/a
329.481	0.09	658962	keystroke_s	s	n/a
329.676	0.09	659352	keystroke_Key.space	Key.space	n/a
329.9465	0.1045	659893	keystroke_c	c	n/a
330.0665	0.1495	660133	keystroke_o	o	n/a
330.231	0.075	660462	keystroke_v	v	n/a
331.611	0.075	663222	keystroke_Key.backspace	Key.backspace	n/a
331.791	0.075	663582	keystroke_Key.backspace	Key.backspace	n/a
331.956	0.1055	663912	keystroke_Key.backspace	Key.backspace	n/a
332.151	0.09	664302	keystroke_Key.backspace	Key.backspace	n/a
332.331	0.09	664662	keystroke_Key.backspace	Key.backspace	n/a
333.156	0.09	666312	keystroke_u	u	n/a
333.352	0.134	666704	keystroke_n	n	n/a
333.471	0.0905	666942	keystroke_d	d	n/a
333.681	0.1055	667362	keystroke_s	s	n/a
333.846	0.105	667692	keystroke_Key.space	Key.space	n/a
334.191	0.135	668382	keystroke_c	c	n/a
334.341	0.1205	668682	keystroke_o	o	n/a
334.551	0.03	669102	keystroke_v	v	n/a
334.686	0.18	669372	keystroke_e	e	n/a
334.836	0.09	669672	keystroke_r	r	n/a
335.016	0.106	670032	keystroke_a	a	n/a
335.2115	0.09	670423	keystroke_g	g	n/a
335.347	0.09	670694	keystroke_e	e	n/a
335.466	0.0905	670932	keystroke_Key.space	Key.space	n/a
335.7515	0.12	671503	keystroke_i	i	n/a
336.096	0.075	672192	keystroke_d	d	n/a
336.291	0.1355	672582	keystroke_e	e	n/a
336.456	0.135	672912	keystroke_n	n	n/a
336.7115	0.0895	673423	keystroke_t	t	n/a
336.891	0.1205	673782	keystroke_i	i	n/a
337.2065	0.0595	674413	keystroke_f	f	n/a
337.341	0.105	674682	keystroke_i	i	n/a
337.476	0.075	674952	keystroke_c	c	n/a
337.641	0.1205	675282	keystroke_a	a	n/a
337.821	0.1055	675642	keystroke_t	t	n/a
337.956	0.1655	675912	keystroke_i	i	n/a
338.046	0.1805	676092	keystroke_o	o	n/a
338.1365	0.12	676273	keystroke_n	n	n/a
338.916	0.15	677832	keystroke_Key.space	Key.space	n/a
339.111	0.1355	678222	keystroke_d	d	n/a
339.366	0.1205	678732	keystroke_e	e	n/a
339.8765	0.0445	679753	keystroke_Key.backspace	Key.backspace	n/a
340.026	0.12	680052	keystroke_Key.backspace	Key.backspace	n/a
340.132	0.1045	680264	keystroke_s	s	n/a
340.356	0.075	680712	keystroke_e	e	n/a
340.536	0.075	681072	keystroke_c	c	n/a
340.8055	0.1055	681611	keystroke_t	t	n/a
340.9405	0.121	681881	keystroke_o	o	n/a
341.932	0.0595	683864	keystroke_r	r	n/a
342.1415	0.12	684283	keystroke_s	s	n/a
345.158	0.013	690316	keystroke_Key.enter	Key.enter	n/a
345.1785	7.525	690357	prompt	n/a	teach scenario answered technician\n
346.0715	0.12	692143	keystroke_t	t	n/a
346.2655	0.1055	692531	keystroke_e	e	n/a
346.4015	0.1345	692803	keystroke_a	a	n/a
346.626	0.09	693252	keystroke_c	c	n/a
346.761	0.09	693522	keystroke_h	h	n/a
347.001	0.1205	694002	keystroke_Key.space	Key.space	n/a
347.4365	0.105	694873	keystroke_s	s	n/a
347.6615	0.09	695323	keystroke_c	c	n/a
347.8715	0.105	695743	keystroke_e	e	n/a
348.0215	0.09	696043	keystroke_n	n	n/a
348.1265	0.12	696253	keystroke_a	a	n/a
348.2915	0.09	696583	keystroke_r	r	n/a
348.4115	0.21	696823	keystroke_i	i	n/a
348.5315	0.15	697063	keystroke_o	o	n/a
348.7565	0.15	697513	keystroke_Key.space	Key.space	n/a
348.9215	0.1505	697843	keystroke_a	a	n/a
349.1165	0.119	698233	keystroke_n	n	n/a
349.2515	0.09	698503	keystroke_s	s	n/a
349.4465	0.0895	698893	keystroke_w	w	n/a
349.612	0.149	699224	keystroke_e	e	n/a
349.7755	0.15	699551	keystroke_r	r	n/a
349.9115	0.105	699823	keystroke_e	e	n/a
350.1365	0.0745	700273	keystroke_d	d	n/a
350.256	0.1055	700512	keystroke_Key.space	Key.space	n/a
350.4965	0.09	700993	keystroke_t	t	n/a
350.7665	0.015	701533	keystroke_e	e	n/a
350.9315	0.089	701863	keystroke_c	c	n/a
351.0515	0.09	702103	keystroke_h	h	n/a
351.2615	0.105	702523	keystroke_n	n	n/a
351.4565	0.09	702913	keystroke_i	i	n/a
351.831	0.1055	703662	keystroke_c	c	n/a
352.011	0.1205	704022	keystroke_i	i	n/a
352.206	0.1505	704412	keystroke_a	a	n/a
352.341	0.09	704682	keystroke_n	n	n/a
352.5965	0.1045	705193	keystroke_Key.enter	Key.enter	n/a
352.707	7.6005	705414	prompt	n/a	physicians inquire weak membership\n
353.497	0.09	706994	keystroke_p	p	n/a
353.6905	0.105	707381	keystroke_h	h	n/a
353.9455	0.0605	707891	keystroke_y	y	n/a
354.126	0.0755	708252	keystroke_s	s	n/a
354.8465	0.135	709693	keystroke_i	i	n/a
355.0265	0.09	710053	keystroke_c	c	n/a
355.1615	0.075	710323	keystroke_i	i	n/a
355.2965	0.135	710593	keystroke_a	a	n/a
355.4465	0.105	710893	keystroke_n	n	n/a
355.5665	0.104	711133	keystroke_s	s	n/a
355.6865	0.1345	711373	keystroke_Key.space	Key.space	n/a
355.987	0.104	711974	keystroke_i	i	n/a
356.1515	0.1195	712303	keystroke_n	n	n/a
356.346	0.15	712692	keystroke_q	q	n/a
356.481	0.106	712962	keystroke_u	u	n/a
356.676	0.105	713352	keystroke_i	i	n/a
356.7515	0.1645	713503	keystroke_r	r	n/a
356.901	0.0755	713802	keystroke_e	e	n/a
357.021	0.12	714042	keystroke_Key.space	Key.space	n/a
357.306	0.075	714612	keystroke_w	w	n/a
357.486	0.0755	714972	keystroke_e	e	n/a
357.6365	0.1195	715273	keystroke_a	a	n/a
357.726	0.09	715452	keystroke_k	k	n/a
357.9515	0.0745	715903	keystroke_Key.space	Key.space	n/a
358.266	0.105	716532	keystroke_m	m	n/a
358.386	0.09	716772	keystroke_e	e	n/a
358.491	0.091	716982	keystroke_m	m	n/a
358.7005	0.121	717401	keystroke_b	b	n/a
359.197	0.134	718394	keystroke_e	e	n/a
359.316	0.0905	718632	keystroke_r	r	n/a
359.571	0.0905	719142	keystroke_s	s	n/a
359.631	0.135	719262	keystroke_h	h	n/a
359.767	0.134	719534	keystroke_i	i	n/a
359.856	0.15	719712	keystroke_p	p	n/a
360.216	0.09	720432	keystroke_Key.enter	Key.enter	n/a
360.3105	7.828	720621	prompt	n/a	signals proxy tree civilization\n
361.0565	0.12	722113	keystroke_s	s	n/a
361.1765	0.12	722353	keystroke_i	i	n/a
361.356	0.0905	722712	keystroke_g	g	n/a
361.431	0.1055	722862	keystroke_n	n	n/a
361.566	0.12	723132	keystroke_a	a	n/a
361.6715	0.1045	723343	keystroke_l	l	n/a
361.8515	0.1195	723703	keystroke_s	s	n/a
361.941	0.09	723882	keystroke_Key.space	Key.space	n/a
362.166	0.12	724332	keystroke_p	p	n/a
362.286	0.09	724572	keystroke_r	r	n/a
362.391	0.105	724782	keystroke_o	o	n/a
363.1115	0.15	726223	keystroke_x	x	n/a
363.3215	0.105	726643	keystroke_y	y	n/a
363.5755	0.105	727151	keystroke_Key.space	Key.space	n/a
364.0415	0.09	728083	keystroke_t	t	n/a
364.251	0.1205	728502	keystroke_r	r	n/a
364.4015	0.075	728803	keystroke_e	e	n/a
364.5515	0.0895	729103	keystroke_e	e	n/a
364.671	0.105	729342	keystroke_Key.space	Key.space	n/a
365.151	0.1055	730302	keystroke_c	c	n/a
365.301	0.1055	730602	keystroke_i	i	n/a
365.436	0.1195	730872	keystroke_v	v	n/a
365.5705	0.0905	731141	keystroke_i	i	n/a
365.7815	0.135	731563	keystroke_l	l	n/a
366.5605	0.121	733121	keystroke_i	i	n/a
367.0565	0.045	734113	keystroke_z	z	n/a
367.176	0.105	734352	keystroke_a	a	n/a
367.431	0.135	734862	keystroke_t	t	n/a
367.5515	0.1945	735103	keystroke_i	i	n/a
367.6115	0.1795	735223	keystroke_o	o	n/a
367.731	0.135	735462	keystroke_n	n	n/a
368.016	0.1205	736032	keystroke_Key.enter	Key.enter	n/a
368.142	5.456	736284	prompt	n/a	integrity stem ryan month\n
368.812	0.089	737624	keystroke_i	i	n/a
369.0065	0.12	738013	keystroke_n	n	n/a
369.1115	0.1045	738223	keystroke_t	t	n/a
369.276	0.1355	738552	keystroke_e	e	n/a
369.5315	0.0745	739063	keystroke_g	g	n/a
369.741	0.135	739482	keystroke_r	r	n/a
369.891	0.0605	739782	keystroke_i	i	n/a
370.026	0.091	740052	keystroke_t	t	n/a
370.341	0.105	740682	keystroke_y	y	n/a
370.7315	0.105	741463	keystroke_Key.space	Key.space	n/a
370.971	0.12	741942	keystroke_s	s	n/a
371.2115	0.1045	742423	keystroke_t	t	n/a
371.361	0.105	742722	keystroke_e	e	n/a
371.496	0.09	742992	keystroke_m	m	n/a
371.676	0.09	743352	keystroke_Key.space	Key.space	n/a
371.8115	0.0895	743623	keystroke_r	r	n/a
371.961	0.105	743922	keystroke_y	y	n/a
372.171	0.0905	744342	keystroke_a	a	n/a
372.201	0.1205	744402	keystroke_n	n	n/a
372.411	0.09	744822	keystroke_Key.space	Key.space	n/a
372.6065	0.1045	745213	keystroke_m	m	n/a
372.771	0.0905	745542	keystroke_o	o	n/a
373.056	0.015	746112	keystroke_n	n	n/a
373.0865	0.0895	746173	keystroke_t	t	n/a
373.191	0.12	746382	keystroke_h	h	n/a
373.4615	0.1345	746923	keystroke_Key.enter	Key.enter	n/a
373.601	8.2925	747202	prompt	n/a	contribution creating hints reporter\n
374.751	0.105	749502	keystroke_c	c	n/a
374.886	0.0755	749772	keystroke_o	o	n/a
375.052	0.1195	750104	keystroke_n	n	n/a
375.1565	0.075	750313	keystroke_t	t	n/a
375.336	0.0755	750672	keystroke_r	r	n/a
375.9205	0.091	751841	keystroke_i	i	n/a
376.3265	0.105	752653	keystroke_b	b	n/a
376.5055	0.0905	753011	keystroke_u	u	n/a
376.6115	0.0745	753223	keystroke_t	t	n/a
376.7615	0.2245	753523	keystroke_i	i	n/a
376.8965	0.165	753793	keystroke_o	o	n/a
376.9565	0.1345	753913	keystroke_n	n	n/a
377.1965	0.1195	754393	keystroke_Key.space	Key.space	n/a
377.5255	0.076	755051	keystroke_c	c	n/a
377.796	0.135	755592	keystroke_r	r	n/a
377.917	0.1195	755834	keystroke_e	e	n/a
378.051	0.135	756102	keystroke_a	a	n/a
378.201	0.09	756402	keystroke_t	t	n/a
378.306	0.15	756612	keystroke_i	i	n/a
378.366	0.151	756732	keystroke_n	n	n/a
378.501	0.09	757002	keystroke_g	g	n/a
378.621	0.12	757242	keystroke_Key.space	Key.space	n/a
379.3715	0.09	758743	keystroke_h	h	n/a
379.7015	0.09	759403	keystroke_i	i	n/a
379.8365	0.18	759673	keystroke_n	n	n/a
379.9115	0.075	759823	keystroke_t	t	n/a
380.2115	0.135	760423	keystroke_s	s	n/a
380.3915	0.105	760783	keystroke_Key.space	Key.space	n/a
380.5715	0.09	761143	keystroke_r	r	n/a
380.6765	0.12	761353	keystroke_e	e	n/a
380.8565	0.075	761713	keystroke_p	p	n/a
380.977	0.1345	761954	keystroke_o	o	n/a
381.0965	0.075	762193	keystroke_r	r	n/a
381.2915	0.09	762583	keystroke_t	t	n/a
381.4715	0.15	762943	keystroke_e	e	n/a
381.5765	0.105	763153	keystroke_r	r	n/a
381.7865	0.1045	763573	keystroke_Key.enter	Key.enter	n/a
381.8965	4.6765	763793	prompt	n/a	my million later ship\n
382.747	0.1345	765494	keystroke_m	m	n/a
383.0765	0.09	766153	keystroke_y	y	n/a
383.2715	0.09	766543	keystroke_Key.space	Key.space	n/a
383.4815	0.09	766963	keystroke_m	m	n/a
383.6465	0.09	767293	keystroke_i	i	n/a
383.8265	0.075	767653	keystroke_l	l	n/a
383.9765	0.105	767953	keystroke_l	l	n/a
384.1565	0.21	768313	keystroke_i	i	n/a
384.2915	0.15	768583	keystroke_o	o	n/a
384.352	0.1195	768704	keystroke_n	n	n/a
384.5765	0.12	769153	keystroke_Key.space	Key.space	n/a
384.7715	0.12	769543	keystroke_l	l	n/a
384.8615	0.15	769723	keystroke_a	a	n/a
385.0265	0.075	770053	keystroke_t	t	n/a
385.1615	0.165	770323	keystroke_e	e	n/a
385.2815	0.09	770563	keystroke_r	r	n/a
385.4315	0.135	770863	keystroke_Key.space	Key.space	n/a
385.836	0.12	771672	keystroke_s	s	n/a
385.942	0.104	771884	keystroke_h	h	n/a
386.092	0.164	772184	keystroke_i	i	n/a
386.242	0.119	772484	keystroke_p	p	n/a
386.4815	0.0895	772963	keystroke_Key.enter	Key.enter	n/a
386.576	10.8725	773152	prompt	n/a	artificial varies brian collected\n
387.322	0.12	774644	keystroke_a	a	n/a
387.771	0.075	775542	keystroke_r	r	n/a
387.982	0.0595	775964	keystroke_t	t	n/a
388.1615	0.1045	776323	keystroke_i	i	n/a
388.356	0.06	776712	keystroke_f	f	n/a
388.417	0.119	776834	keystroke_i	i	n/a
388.581	0.0905	777162	keystroke_c	c	n/a
388.9115	0.105	777823	keystroke_i	i	n/a
389.0615	0.105	778123	keystroke_a	a	n/a
389.1365	0.1055	778273	keystroke_l	l	n/a
389.3465	0.105	778693	keystroke_Key.space	Key.space	n/a
390.5465	0.075	781093	keystroke_v	v	n/a
390.7265	0.1345	781453	keystroke_a	a	n/a
390.906	0.075	781812	keystroke_r	r	n/a
391.0865	0.105	782173	keystroke_i	i	n/a
391.1765	0.0445	782353	keystroke_e	e	n/a
391.3565	0.09	782713	keystroke_s	s	n/a
391.5365	0.105	783073	keystroke_Key.space	Key.space	n/a
392.1065	0.12	784213	keystroke_b	b	n/a
392.2415	0.03	784483	keystroke_r	r	n/a
392.3165	0.104	784633	keystroke_i	i	n/a
392.4665	0.12	784933	keystroke_a	a	n/a
392.527	0.105	785054	keystroke_n	n	n/a
392.7205	0.12	785441	keystroke_Key.space	Key.space	n/a
392.8865	0.105	785773	keystroke_c	c	n/a
393.0515	0.12	786103	keystroke_o	o	n/a
393.861	0.1055	787722	keystroke_Key.backspace	Key.backspace	n/a
394.0565	0.089	788113	keystroke_Key.backspace	Key.backspace	n/a
394.236	0.0895	788472	keystroke_Key.backspace	Key.backspace	n/a
394.4165	0.075	788833	keystroke_Key.backspace	Key.backspace	n/a
394.6265	0.105	789253	keystroke_Key.backspace	Key.backspace	n/a
395.3165	0.075	790633	keystroke_a	a	n/a
395.4065	0.09	790813	keystroke_n	n	n/a
395.6165	0.09	791233	keystroke_Key.space	Key.space	n/a
395.8565	0.0755	791713	keystroke_c	c	n/a
395.9165	0.09	791833	keystroke_o	o	n/a
396.1415	0.045	792283	keystroke_l	l	n/a
396.2765	0.105	792553	keystroke_l	l	n/a
396.3815	0.12	792763	keystroke_e	e	n/a
396.5615	0.075	793123	keystroke_c	c	n/a
396.832	0.074	793664	keystroke_t	t	n/a
397.102	0.014	794204	keystroke_e	e	n/a
397.222	0.0295	794444	keystroke_d	d	n/a
397.3265	0.12	794653	keystroke_Key.enter	Key.enter	n/a
397.452	11.1565	794904	prompt	n/a	harold calculations people concentration\n
398.4965	0.09	796993	keystroke_h	h	n/a
398.6015	0.15	797203	keystroke_a	a	n/a
398.7515	0.09	797503	keystroke_r	r	n/a
398.857	0.0745	797714	keystroke_o	o	n/a
399.052	0.0745	798104	keystroke_l	l	n/a
399.1865	0.075	798373	keystroke_d	d	n/a
399.3365	0.1195	798673	keystroke_Key.space	Key.space	n/a
399.6215	0.12	799243	keystroke_c	c	n/a
399.906	0.1355	799812	keystroke_a	a	n/a
400.2355	0.0755	800471	keystroke_l	l	n/a
401.7205	0.091	803441	keystroke_c	c	n/a
402.291	0.045	804582	keystroke_u	u	n/a
402.561	0.121	805122	keystroke_l	l	n/a
402.6965	0.0895	805393	keystroke_a	a	n/a
402.9065	0.09	805813	keystroke_t	t	n/a
403.1015	0.18	806203	keystroke_i	i	n/a
403.2065	0.18	806413	keystroke_o	o	n/a
403.3265	0.105	806653	keystroke_n	n	n/a
403.4915	0.09	806983	keystroke_s	s	n/a
403.6115	0.135	807223	keystroke_Key.space	Key.space	n/a
403.9115	0.105	807823	keystroke_p	p	n/a
403.972	0.1195	807944	keystroke_e	e	n/a
404.1215	0.09	808243	keystroke_o	o	n/a
404.2265	0.1655	808453	keystroke_p	p	n/a
404.406	0.105	808812	keystroke_l	l	n/a
404.527	0.134	809054	keystroke_e	e	n/a
405.3065	0.075	810613	keystroke_Key.space	Key.space	n/a
405.607	0.1045	811214	keystroke_c	c	n/a
405.7715	0.0755	811543	keystroke_o	o	n/a
405.9515	0.12	811903	keystroke_n	n	n/a
406.1165	0.1055	812233	keystroke_c	c	n/a
406.2665	0.0905	812533	keystroke_e	e	n/a
406.357	0.12	812714	keystroke_n	n	n/a
406.477	0.1195	812954	keystroke_t	t	n/a
406.7015	0.075	813403	keystroke_r	r	n/a
406.852	0.12	813704	keystroke_a	a	n/a
407.0915	0.075	814183	keystroke_t	t	n/a
407.2115	0.21	814423	keystroke_i	i	n/a
407.3015	0.18	814603	keystroke_o	o	n/a
407.3915	0.165	814783	keystroke_n	n	n/a
407.616	0.15	815232	keystroke_s	s	n/a
408.2165	0.09	816433	keystroke_Key.backspace	Key.backspace	n/a
408.4715	0.135	816943	keystroke_Key.enter	Key.enter	n/a
408.612	5.936	817224	prompt	n/a	super brilliant peeing mapping\n
409.4465	0.165	818893	keystroke_s	s	n/a
409.5515	0.12	819103	keystroke_u	u	n/a
409.7315	0.135	819463	keystroke_p	p	n/a
409.7915	0.15	819583	keystroke_e	e	n/a
409.9565	0.075	819913	keystroke_r	r	n/a
410.0915	0.12	820183	keystroke_Key.space	Key.space	n/a
410.4365	0.09	820873	keystroke_b	b	n/a
410.6015	0.075	821203	keystroke_r	r	n/a
410.7215	0.105	821443	keystroke_i	i	n/a
410.9165	0.0905	821833	keystroke_l	l	n/a
411.0965	0.075	822193	keystroke_l	l	n/a
411.2165	0.105	822433	keystroke_i	i	n/a
411.3965	0.105	822793	keystroke_a	a	n/a
411.607	0.1045	823214	keystroke_n	n	n/a
411.772	0.0745	823544	keystroke_t	t	n/a
412.041	0.1055	824082	keystroke_Key.space	Key.space	n/a
412.3715	0.1055	824743	keystroke_p	p	n/a
412.522	0.044	825044	keystroke_e	e	n/a
412.671	0.1505	825342	keystroke_e	e	n/a
412.7765	0.1495	825553	keystroke_i	i	n/a
412.866	0.121	825732	keystroke_n	n	n/a
413.002	0.074	826004	keystroke_g	g	n/a
413.106	0.135	826212	keystroke_Key.space	Key.space	n/a
413.407	0.104	826814	keystroke_m	m	n/a
413.512	0.12	827024	keystroke_a	a	n/a
413.647	0.0595	827294	keystroke_p	p	n/a
413.782	0.105	827564	keystroke_p	p	n/a
414.0515	0.18	828103	keystroke_i	i	n/a
414.1865	0.135	828373	keystroke_n	n	n/a
414.3055	0.076	828611	keystroke_g	g	n/a
414.471	0.0745	828942	keystroke_Key.enter	Key.enter	n/a
414.5515	8.7265	829103	prompt	n/a	jelsoft deluxe festival point\n
415.807	0.0895	831614	keystroke_j	j	n/a
415.9115	0.119	831823	keystroke_e	e	n/a
416.0465	0.105	832093	keystroke_l	l	n/a
416.212	0.119	832424	keystroke_s	s	n/a
416.406	0.12	832812	keystroke_o	o	n/a
416.541	0.076	833082	keystroke_f	f	n/a
416.767	0.089	833534	keystroke_t	t	n/a
416.961	0.105	833922	keystroke_Key.space	Key.space	n/a
417.486	0.075	834972	keystroke_d	d	n/a
417.6815	0.1045	835363	keystroke_e	e	n/a
417.801	0.09	835602	keystroke_l	l	n/a
418.0715	0.1195	836143	keystroke_u	u	n/a
418.356	0.135	836712	keystroke_x	x	n/a
418.7765	0.12	837553	keystroke_e	e	n/a
418.9715	0.105	837943	keystroke_Key.space	Key.space	n/a
420.3965	0.1205	840793	keystroke_f	f	n/a
420.5465	0.075	841093	keystroke_e	e	n/a
420.741	0.09	841482	keystroke_s	s	n/a
421.0115	0.09	842023	keystroke_t	t	n/a
421.1465	0.135	842293	keystroke_i	i	n/a
421.2965	0.0595	842593	keystroke_v	v	n/a
421.5065	0.1195	843013	keystroke_a	a	n/a
421.5815	0.1045	843163	keystroke_l	l	n/a
421.851	0.105	843702	keystroke_Key.space	Key.space	n/a
422.466	0.09	844932	keystroke_p	p	n/a
422.5715	0.105	845143	keystroke_o	o	n/a
422.7815	0.165	845563	keystroke_i	i	n/a
422.9015	0.135	845803	keystroke_n	n	n/a
422.992	0.0745	845984	keystroke_t	t	n/a
423.156	0.1205	846312	keystroke_Key.enter	Key.enter	n/a
423.284	7.2995	846568	prompt	n/a	waiting thesis hydrogen mortgage\n
424.071	0.0605	848142	keystroke_w	w	n/a
424.221	0.105	848442	keystroke_a	a	n/a
424.341	0.1055	848682	keystroke_i	i	n/a
424.491	0.1055	848982	keystroke_t	t	n/a
424.5815	0.1795	849163	keystroke_i	i	n/a
424.656	0.1505	849312	keystroke_n	n	n/a
424.8215	0.0745	849643	keystroke_g	g	n/a
424.926	0.12	849852	keystroke_Key.space	Key.space	n/a
425.122	0.089	850244	keystroke_t	t	n/a
425.241	0.1505	850482	keystroke_h	h	n/a
425.3465	0.0895	850693	keystroke_e	e	n/a
425.5565	0.06	851113	keystroke_s	s	n/a
425.646	0.1055	851292	keystroke_i	i	n/a
425.736	0.09	851472	keystroke_s	s	n/a
425.901	0.1055	851802	keystroke_Key.space	Key.space	n/a
426.876	0.12	853752	keystroke_h	h	n/a
427.116	0.075	854232	keystroke_y	y	n/a
427.461	0.105	854922	keystroke_d	d	n/a
427.7165	0.0755	855433	keystroke_r	r	n/a
427.8365	0.12	855673	keystroke_o	o	n/a
428.1215	0.06	856243	keystroke_g	g	n/a
428.3465	0.12	856693	keystroke_e	e	n/a
428.4515	0.105	856903	keystroke_n	n	n/a
428.6915	0.09	857383	keystroke_Key.space	Key.space	n/a
428.9765	0.105	857953	keystroke_m	m	n/a
429.1415	0.1195	858283	keystroke_o	o	n/a
429.2465	0.0755	858493	keystroke_r	r	n/a
429.4405	0.061	858881	keystroke_t	t	n/a
429.8315	0.105	859663	keystroke_g	g	n/a
430.0115	0.09	860023	keystroke_a	a	n/a
430.1765	0.105	860353	keystroke_g	g	n/a
430.3265	0.105	860653	keystroke_e	e	n/a
430.4765	0.105	860953	keystroke_Key.enter	Key.enter	n/a
430.5865	7.6015	861173	prompt	n/a	connected internationally belly indians\n
431.5565	0.1205	863113	keystroke_c	c	n/a
431.6915	0.104	863383	keystroke_o	o	n/a
431.902	0.0895	863804	keystroke_n	n	n/a
432.0365	0.135	864073	keystroke_n	n	n/a
432.1415	0.135	864283	keystroke_e	e	n/a
432.2315	0.134	864463	keystroke_c	c	n/a
432.5165	0.135	865033	keystroke_t	t	n/a
432.6965	0.09	865393	keystroke_e	e	n/a
432.9055	0.061	865811	keystroke_d	d	n/a
433.0115	0.09	866023	keystroke_Key.space	Key.space	n/a
433.2665	0.075	866533	keystroke_i	i	n/a
433.537	0.059	867074	keystroke_n	n	n/a
433.5515	0.0295	867103	keystroke_t	t	n/a
433.6715	0.15	867343	keystroke_e	e	n/a
433.7765	0.0905	867553	keystroke_r	r	n/a
433.971	0.105	867942	keystroke_n	n	n/a
434.077	0.09	868154	keystroke_a	a	n/a
434.212	0.0895	868424	keystroke_t	t	n/a
434.287	0.2095	868574	keystroke_i	i	n/a
434.406	0.135	868812	keystroke_o	o	n/a
434.451	0.15	868902	keystroke_n	n	n/a
434.616	0.135	869232	keystroke_a	a	n/a
434.691	0.075	869382	keystroke_l	l	n/a
434.871	0.045	869742	keystroke_l	l	n/a
434.991	0.075	869982	keystroke_y	y	n/a
435.111	0.105	870222	keystroke_Key.space	Key.space	n/a
435.337	0.119	870674	keystroke_b	b	n/a
435.472	0.0745	870944	keystroke_e	e	n/a
435.786	0.21	871572	keystroke_l	l	n/a
436.357	0.0745	872714	keystroke_l	l	n/a
436.4765	0.0755	872953	keystroke_y	y	n/a
436.8215	0.06	873643	keystroke_Key.space	Key.space	n/a
437.1515	0.075	874303	keystroke_i	i	n/a
437.3315	0.075	874663	keystroke_n	n	n/a
437.4365	0.1355	874873	keystroke_d	d	n/a
437.572	0.1045	875144	keystroke_i	i	n/a
437.7215	0.12	875443	keystroke_a	a	n/a
437.8115	0.12	875623	keystroke_n	n	n/a
437.9465	0.12	875893	keystroke_s	s	n/a
438.0815	0.105	876163	keystroke_Key.enter	Key.enter	n/a
438.1915	9.132	876383	prompt	n/a	custom directive rugby instrument\n
439.1165	0.105	878233	keystroke_c	c	n/a
439.2665	0.1045	878533	keystroke_u	u	n/a
439.3265	0.105	878653	keystroke_s	s	n/a
439.581	0.075	879162	keystroke_t	t	n/a
439.746	0.075	879492	keystroke_o	o	n/a
439.761	0.15	879522	keystroke_m	m	n/a
440.046	0.1355	880092	keystroke_Key.space	Key.space	n/a
440.526	0.135	881052	keystroke_d	d	n/a
440.7665	0.135	881533	keystroke_i	i	n/a
440.8865	0.105	881773	keystroke_r	r	n/a
440.9765	0.06	881953	keystroke_e	e	n/a
441.1565	0.1205	882313	keystroke_c	c	n/a
441.4265	0.09	882853	keystroke_t	t	n/a
441.5315	0.12	883063	keystroke_i	i	n/a
441.6815	0.12	883363	keystroke_v	v	n/a
441.891	0.0905	883782	keystroke_e	e	n/a
441.9965	0.1345	883993	keystroke_Key.space	Key.space	n/a
443.7815	0.12	887563	keystroke_r	r	n/a
443.9315	0.105	887863	keystroke_u	u	n/a
444.096	0.0755	888192	keystroke_g	g	n/a
444.2465	0.105	888493	keystroke_b	b	n/a
444.6515	0.105	889303	keystroke_y	y	n/a
444.8765	0.105	889753	keystroke_Key.space	Key.space	n/a
445.3865	0.0595	890773	keystroke_i	i	n/a
445.7615	0.1355	891523	keystroke_n	n	n/a
445.9415	0.12	891883	keystroke_s	s	n/a
446.1965	0.06	892393	keystroke_t	t	n/a
446.3765	0.089	892753	keystroke_r	r	n/a
446.5115	0.09	893023	keystroke_u	u	n/a
446.7215	0.119	893443	keystroke_m	m	n/a
446.827	0.119	893654	keystroke_e	e	n/a
446.9615	0.1045	893923	keystroke_n	n	n/a
447.111	0.075	894222	keystroke_t	t	n/a
447.2015	0.1195	894403	keystroke_Key.enter	Key.enter	n/a
447.3265	5.5025	894653	prompt	n/a	french adapter ment gear\n
448.266	0.0905	896532	keystroke_f	f	n/a
448.506	0.105	897012	keystroke_r	r	n/a
448.6265	0.1045	897253	keystroke_e	e	n/a
448.8365	0.075	897673	keystroke_n	n	n/a
449.0315	0.12	898063	keystroke_c	c	n/a
449.1215	0.1055	898243	keystroke_h	h	n/a
449.3015	0.135	898603	keystroke_Key.space	Key.space	n/a
449.512	0.0745	899024	keystroke_a	a	n/a
449.6915	0.105	899383	keystroke_d	d	n/a
449.8565	0.135	899713	keystroke_a	a	n/a
449.9765	0.105	899953	keystroke_p	p	n/a
450.142	0.1045	900284	keystroke_t	t	n/a
450.3065	0.135	900613	keystroke_e	e	n/a
450.4115	0.09	900823	keystroke_r	r	n/a
450.5465	0.105	901093	keystroke_Key.space	Key.space	n/a
450.7715	0.105	901543	keystroke_m	m	n/a
450.861	0.12	901722	keystroke_e	e	n/a
451.251	0.0905	902502	keystroke_n	n	n/a
451.356	0.1205	902712	keystroke_t	t	n/a
451.5515	0.1345	903103	keystroke_Key.space	Key.space	n/a
451.912	0.0895	903824	keystroke_g	g	n/a
452.1215	0.1045	904243	keystroke_e	e	n/a
452.271	0.1795	904542	keystroke_a	a	n/a
452.4215	0.135	904843	keystroke_r	r	n/a
452.7215	0.1045	905443	keystroke_Key.enter	Key.enter	n/a
452.834	9.5345	905668	prompt	n/a	continued spots brand openings\n
453.862	0.044	907724	keystroke_s	s	n/a
454.386	0.0905	908772	keystroke_Key.backspace	Key.backspace	n/a
454.536	0.105	909072	keystroke_c	c	n/a
454.686	0.135	909372	keystroke_o	o	n/a
454.896	0.09	909792	keystroke_n	n	n/a
455.196	0.091	910392	keystroke_t	t	n/a
455.781	0.075	911562	keystroke_i	i	n/a
455.931	0.105	911862	keystroke_n	n	n/a
456.1415	0.15	912283	keystroke_u	u	n/a
456.2765	0.075	912553	keystroke_e	e	n/a
456.487	0.119	912974	keystroke_d	d	n/a
456.621	0.1205	913242	keystroke_Key.space	Key.space	n/a
456.8915	0.105	913783	keystroke_s	s	n/a
457.026	0.135	914052	keystroke_p	p	n/a
457.146	0.1205	914292	keystroke_o	o	n/a
457.371	0.075	914742	keystroke_t	t	n/a
457.671	0.09	915342	keystroke_s	s	n/a
457.866	0.09	915732	keystroke_Key.space	Key.space	n/a
458.5415	0.0895	917083	keystroke_b	b	n/a
458.647	0.09	917294	keystroke_r	r	n/a
458.8415	0.0895	917683	keystroke_a	a	n/a
458.902	0.1195	917804	keystroke_n	n	n/a
459.0665	0.105	918133	keystroke_d	d	n/a
459.2015	0.135	918403	keystroke_Key.space	Key.space	n/a
459.5005	0.166	919001	keystroke_o	o	n/a
459.6065	0.1495	919213	keystroke_p	p	n/a
459.7415	0.06	919483	keystroke_e	e	n/a
459.861	0.255	919722	keystroke_i	i	n/a
459.997	0.194	919994	keystroke_n	n	n/a
460.9265	0.06	921853	keystroke_Key.backspace	Key.backspace	n/a
461.0465	0.09	922093	keystroke_Key.backspace	Key.backspace	n/a
461.2865	0.0905	922573	keystroke_n	n	n/a
461.6015	0.15	923203	keystroke_i	i	n/a
461.7215	0.15	923443	keystroke_n	n	n/a
461.8115	0.075	923623	keystroke_g	g	n/a
462.0515	0.105	924103	keystroke_s	s	n/a
462.2315	0.135	924463	keystroke_Key.enter	Key.enter	n/a
462.372	9.716	924744	prompt	n/a	considerable equity socket zinc\n
463.2665	0.105	926533	keystroke_c	c	n/a
463.3865	0.075	926773	keystroke_o	o	n/a
463.5515	0.105	927103	keystroke_n	n	n/a
463.717	0.0595	927434	keystroke_s	s	n/a
463.8215	0.15	927643	keystroke_i	i	n/a
463.9265	0.06	927853	keystroke_d	d	n/a
464.1065	0.15	928213	keystroke_e	e	n/a
464.242	0.1045	928484	keystroke_r	r	n/a
464.4665	0.06	928933	keystroke_a	a	n/a
464.5715	0.045	929143	keystroke_b	b	n/a
465.1565	0.105	930313	keystroke_l	l	n/a
465.2765	0.105	930553	keystroke_e	e	n/a
465.3965	0.12	930793	keystroke_Key.space	Key.space	n/a
467.3165	0.105	934633	keystroke_e	e	n/a
467.4965	0.1345	934993	keystroke_q	q	n/a
467.661	0.075	935322	keystroke_u	u	n/a
467.841	0.105	935682	keystroke_i	i	n/a
467.977	0.0895	935954	keystroke_t	t	n/a
468.156	0.075	936312	keystroke_y	y	n/a
468.336	0.165	936672	keystroke_Key.space	Key.space	n/a
469.1465	0.09	938293	keystroke_s	s	n/a
469.252	0.1045	938504	keystroke_o	o	n/a
469.4165	0.075	938833	keystroke_c	c	n/a
469.537	0.104	939074	keystroke_k	k	n/a
469.626	0.105	939252	keystroke_e	e	n/a
469.806	0.06	939612	keystroke_t	t	n/a
469.941	0.1045	939882	keystroke_Key.space	Key.space	n/a
471.0365	0.12	942073	keystroke_z	z	n/a
471.2465	0.105	942493	keystroke_i	i	n/a
471.4565	0.12	942913	keystroke_n	n	n/a
471.742	0.119	943484	keystroke_c	c	n/a
471.996	0.09	943992	keystroke_Key.enter	Key.enter	n/a
472.091	6.7925	944182	prompt	n/a	saying cattle support occupations\n
473.016	0.09	946032	keystroke_s	s	n/a
473.181	0.105	946362	keystroke_a	a	n/a
473.2415	0.1045	946483	keystroke_y	y	n/a
473.481	0.18	946962	keystroke_i	i	n/a
473.5715	0.1495	947143	keystroke_n	n	n/a
473.706	0.0905	947412	keystroke_g	g	n/a
473.8415	0.1495	947683	keystroke_Key.space	Key.space	n/a
474.036	0.12	948072	keystroke_c	c	n/a
474.246	0.09	948492	keystroke_a	a	n/a
474.4715	0.105	948943	keystroke_t	t	n/a
474.696	0.06	949392	keystroke_t	t	n/a
474.816	0.09	949632	keystroke_l	l	n/a
474.921	0.09	949842	keystroke_e	e	n/a
475.0415	0.135	950083	keystroke_Key.space	Key.space	n/a
475.191	0.1355	950382	keystroke_s	s	n/a
475.356	0.075	950712	keystroke_u	u	n/a
475.5515	0.06	951103	keystroke_p	p	n/a
475.7015	0.1355	951403	keystroke_p	p	n/a
475.7915	0.15	951583	keystroke_o	o	n/a
475.8815	0.105	951763	keystroke_r	r	n/a
476.1065	0.075	952213	keystroke_t	t	n/a
476.3165	0.105	952633	keystroke_Key.space	Key.space	n/a
476.8715	0.09	953743	keystroke_o	o	n/a
477.0215	0.0755	954043	keystroke_c	c	n/a
477.2165	0.0745	954433	keystroke_c	c	n/a
477.322	0.1195	954644	keystroke_u	u	n/a
477.637	0.119	955274	keystroke_p	p	n/a
477.771	0.106	955542	keystroke_a	a	n/a
477.922	0.119	955844	keystroke_t	t	n/a
478.026	0.18	956052	keystroke_i	i	n/a
478.056	0.21	956112	keystroke_o	o	n/a
478.177	0.1645	956354	keystroke_n	n	n/a
478.4915	0.15	956983	keystroke_s	s	n/a
478.7765	0.105	957553	keystroke_Key.enter	Key.enter	n/a
478.8885	7.6905	957777	prompt	n/a	consoles pricing i'll movie\n
479.6765	0.09	959353	keystroke_c	c	n/a
479.811	0.045	959622	keystroke_o	o	n/a
479.9465	0.105	959893	keystroke_n	n	n/a
480.081	0.12	960162	keystroke_s	s	n/a
480.186	0.075	960372	keystroke_o	o	n/a
480.381	0.15	960762	keystroke_l	l	n/a
480.561	0.075	961122	keystroke_e	e	n/a
480.756	0.105	961512	keystroke_s	s	n/a
480.951	0.1205	961902	keystroke_Key.space	Key.space	n/a
481.627	0.089	963254	keystroke_p	p	n/a
481.731	0.12	963462	keystroke_r	r	n/a
481.8665	0.1195	963733	keystroke_i	i	n/a
482.047	0.105	964094	keystroke_c	c	n/a
482.1665	0.18	964333	keystroke_i	i	n/a
482.256	0.1505	964512	keystroke_n	n	n/a
482.3915	0.105	964783	keystroke_g	g	n/a
482.5415	0.105	965083	keystroke_Key.space	Key.space	n/a
482.827	0.119	965654	keystroke_i	i	n/a
484.521	0.135	969042	keystroke_'	'	n/a
484.867	0.089	969734	keystroke_l	l	n/a
485.0465	0.06	970093	keystroke_l	l	n/a
485.2715	0.105	970543	keystroke_Key.space	Key.space	n/a
485.6315	0.09	971263	keystroke_m	m	n/a
485.7965	0.12	971593	keystroke_o	o	n/a
485.9465	0.1055	971893	keystroke_v	v	n/a
486.0815	0.135	972163	keystroke_i	i	n/a
486.2615	0.135	972523	keystroke_e	e	n/a
486.4715	0.105	972943	keystroke_Key.enter	Key.enter	n/a
486.583	7.9305	973166	prompt	n/a	reno travesti knights hugh\n
487.372	0.089	974744	keystroke_r	r	n/a
487.521	0.1205	975042	keystroke_e	e	n/a
487.6415	0.0895	975283	keystroke_n	n	n/a
487.8665	0.075	975733	keystroke_o	o	n/a
488.061	0.135	976122	keystroke_Key.space	Key.space	n/a
488.287	0.074	976574	keystroke_t	t	n/a
488.482	0.075	976964	keystroke_r	r	n/a
488.6165	0.1195	977233	keystroke_a	a	n/a
488.8415	0.1045	977683	keystroke_v	v	n/a
489.066	0.076	978132	keystroke_e	e	n/a
489.2765	0.105	978553	keystroke_s	s	n/a
489.562	0.1045	979124	keystroke_t	t	n/a
489.771	0.106	979542	keystroke_i	i	n/a
490.0265	0.105	980053	keystroke_Key.space	Key.space	n/a
490.3865	0.12	980773	keystroke_k	k	n/a
490.5965	0.105	981193	keystroke_n	n	n/a
491.257	0.089	982514	keystroke_i	i	n/a
492.3215	0.075	984643	keystroke_g	g	n/a
492.442	0.15	984884	keystroke_h	h	n/a
492.5465	0.06	985093	keystroke_t	t	n/a
492.8015	0.12	985603	keystroke_s	s	n/a
492.9365	0.105	985873	keystroke_Key.space	Key.space	n/a
493.6865	0.0905	987373	keystroke_h	h	n/a
493.8815	0.06	987763	keystroke_u	u	n/a
493.9715	0.105	987943	keystroke_g	g	n/a
494.1065	0.105	988213	keystroke_h	h	n/a
494.4065	0.105	988813	keystroke_Key.enter	Key.enter	n/a
494.5175	7.9615	989035	prompt	n/a	drug safer curves writing\n
495.951	0.0305	991902	keystroke_g	g	n/a
497.1215	0.1045	994243	keystroke_Key.backspace	Key.backspace	n/a
497.3015	0.0905	994603	keystroke_d	d	n/a
497.5265	0.105	995053	keystroke_r	r	n/a
497.6315	0.135	995263	keystroke_u	u	n/a
498.022	0.1195	996044	keystroke_g	g	n/a
498.2915	0.105	996583	keystroke_Key.space	Key.space	n/a
498.5015	0.1205	997003	keystroke_s	s	n/a
498.7115	0.1495	997423	keystroke_a	a	n/a
498.877	0.1495	997754	keystroke_f	f	n/a
499.1015	0.135	998203	keystroke_e	e	n/a
499.2065	0.1055	998413	keystroke_r	r	n/a
499.4315	0.105	998863	keystroke_Key.space	Key.space	n/a
499.8065	0.09	999613	keystroke_c	c	n/a
499.9265	0.15	999853	keystroke_u	u	n/a
500.1815	0.075	1000363	keystroke_r	r	n/a
500.511	0.09	1001022	keystroke_v	v	n/a
500.7065	0.105	1001413	keystroke_e	e	n/a
500.9465	0.0895	1001893	keystroke_s	s	n/a
501.1265	0.1345	1002253	keystroke_Key.space	Key.space	n/a
501.457	0.0895	1002914	keystroke_w	w	n/a
501.6665	0.06	1003333	keystroke_r	r	n/a
501.742	0.0895	1003484	keystroke_i	i	n/a
501.8615	0.09	1003723	keystroke_t	t	n/a
501.9665	0.1805	1003933	keystroke_i	i	n/a
502.0715	0.15	1004143	keystroke_n	n	n/a
502.1915	0.075	1004383	keystroke_g	g	n/a
502.3565	0.12	1004713	keystroke_Key.enter	Key.enter	n/a
502.4835	8.4245	1004967	prompt	n/a	marcus triangle reaches budget\n
503.436	0.1505	1006872	keystroke_m	m	n/a
503.5565	0.1805	1007113	keystroke_a	a	n/a
503.6615	0.135	1007323	keystroke_r	r	n/a
503.9765	0.105	1007953	keystroke_c	c	n/a
504.0965	0.105	1008193	keystroke_u	u	n/a
504.2465	0.12	1008493	keystroke_s	s	n/a
504.4415	0.1645	1008883	keystroke_Key.space	Key.space	n/a
504.756	0.0605	1009512	keystroke_t	t	n/a
504.922	0.075	1009844	keystroke_r	r	n/a
505.0715	0.0895	1010143	keystroke_i	i	n/a
505.161	0.12	1010322	keystroke_a	a	n/a
505.447	0.15	1010894	keystroke_n	n	n/a
505.5815	0.075	1011163	keystroke_g	g	n/a
505.7765	0.09	1011553	keystroke_e	e	n/a
506.2715	0.075	1012543	keystroke_Key.backspace	Key.backspace	n/a
506.586	0.0905	1013172	keystroke_l	l	n/a
506.722	0.0745	1013444	keystroke_e	e	n/a
506.8715	0.1345	1013743	keystroke_Key.space	Key.space	n/a
507.366	0.105	1014732	keystroke_r	r	n/a
507.5015	0.0895	1015003	keystroke_e	e	n/a
507.607	0.1195	1015214	keystroke_a	a	n/a
507.8015	0.1355	1015603	keystroke_c	c	n/a
507.997	0.1045	1015994	keystroke_h	h	n/a
508.0415	0.1205	1016083	keystroke_e	e	n/a
508.282	0.105	1016564	keystroke_s	s	n/a
508.416	0.135	1016832	keystroke_Key.space	Key.space	n/a
508.746	0.091	1017492	keystroke_h	h	n/a
509.466	0.1055	1018932	keystroke_Key.backspace	Key.backspace	n/a
509.737	0.074	1019474	keystroke_b	b	n/a
509.931	0.0905	1019862	keystroke_u	u	n/a
510.0365	0.105	1020073	keystroke_d	d	n/a
510.246	0.0755	1020492	keystroke_g	g	n/a
510.3965	0.09	1020793	keystroke_e	e	n/a
510.6065	0.0745	1021213	keystroke_t	t	n/a
510.786	0.12	1021572	keystroke_Key.enter	Key.enter	n/a
510.9135	7.4195	1021827	prompt	n/a	ranks function secondary extend\n
511.746	0.0905	1023492	keystroke_r	r	n/a
511.911	0.15	1023822	keystroke_a	a	n/a
512.0015	0.1045	1024003	keystroke_n	n	n/a
512.211	0.105	1024422	keystroke_k	k	n/a
512.3465	0.0895	1024693	keystroke_s	s	n/a
512.5865	0.0895	1025173	keystroke_Key.space	Key.space	n/a
513.4865	0.0745	1026973	keystroke_f	f	n/a
513.621	0.1055	1027242	keystroke_u	u	n/a
513.816	0.12	1027632	keystroke_n	n	n/a
513.9215	0.1205	1027843	keystroke_c	c	n/a
514.221	0.0905	1028442	keystroke_t	t	n/a
514.3415	0.21	1028683	keystroke_i	i	n/a
514.491	0.1355	1028982	keystroke_o	o	n/a
514.5215	0.1645	1029043	keystroke_n	n	n/a
514.7915	0.1345	1029583	keystroke_Key.space	Key.space	n/a
515.1365	0.075	1030273	keystroke_s	s	n/a
515.3465	0.09	1030693	keystroke_e	e	n/a
515.4965	0.1205	1030993	keystroke_c	c	n/a
515.6765	0.06	1031353	keystroke_o	o	n/a
515.841	0.106	1031682	keystroke_n	n	n/a
515.916	0.0755	1031832	keystroke_d	d	n/a
516.081	0.166	1032162	keystroke_a	a	n/a
516.2015	0.1345	1032403	keystroke_r	r	n/a
516.4115	0.105	1032823	keystroke_y	y	n/a
516.621	0.121	1033242	keystroke_Key.space	Key.space	n/a
516.8915	0.0755	1033783	keystroke_e	e	n/a
517.267	0.1345	1034534	keystroke_x	x	n/a
517.582	0.09	1035164	keystroke_t	t	n/a
517.761	0.061	1035522	keystroke_e	e	n/a
517.9415	0.075	1035883	keystroke_n	n	n/a
518.0615	0.12	1036123	keystroke_d	d	n/a
518.2265	0.105	1036453	keystroke_Key.enter	Key.enter	n/a
518.3365	13.2265	1036673	prompt	n/a	brokers cool between sbjct\n
519.2915	0.06	1038583	keystroke_b	b	n/a
519.397	0.0595	1038794	keystroke_r	r	n/a
519.5315	0.105	1039063	keystroke_o	o	n/a
519.7565	0.135	1039513	keystroke_k	k	n/a
519.8165	0.21	1039633	keystroke_e	e	n/a
519.9515	0.1205	1039903	keystroke_r	r	n/a
520.2515	0.15	1040503	keystroke_s	s	n/a
520.5815	0.135	1041163	keystroke_Key.space	Key.space	n/a
521.4815	0.1055	1042963	keystroke_c	c	n/a
521.6315	0.09	1043263	keystroke_o	o	n/a
521.8115	0.105	1043623	keystroke_o	o	n/a
522.2915	0.075	1044583	keystroke_Key.space	Key.space	n/a
522.5015	0.1495	1045003	keystroke_b	b	n/a
522.8315	0.015	1045663	keystroke_w	w	n/a
523.4915	0.15	1046983	keystroke_Key.backspace	Key.backspace	n/a
523.5815	0.105	1047163	keystroke_e	e	n/a
524.6465	0.105	1049293	keystroke_t	t	n/a
524.9165	0.075	1049833	keystroke_w	w	n/a
525.0965	0.0755	1050193	keystroke_e	e	n/a
525.2165	0.165	1050433	keystroke_e	e	n/a
525.3665	0.12	1050733	keystroke_n	n	n/a
525.6215	0.1345	1051243	keystroke_Key.space	Key.space	n/a
526.941	0.166	1053882	keystroke_s	s	n/a
527.2865	0.0145	1054573	keystroke_b	b	n/a
527.407	0.0895	1054814	keystroke_j	j	n/a
527.572	0.1045	1055144	keystroke_t	t	n/a
530.243	0.0735	1060486	keystroke_Key.backspace	Key.backspace	n/a
530.976	0.06	1061952	keystroke_c	c	n/a
531.2615	0.0895	1062523	keystroke_t	t	n/a
531.486	0.0755	1062972	keystroke_Key.enter	Key.enter	n/a
531.567	8.0815	1063134	prompt	n/a	memorial webcams estonia halo\n
532.401	0.105	1064802	keystroke_m	m	n/a
532.476	0.105	1064952	keystroke_e	e	n/a
532.5965	0.09	1065193	keystroke_m	m	n/a
532.761	0.1355	1065522	keystroke_o	o	n/a
532.881	0.075	1065762	keystroke_r	r	n/a
532.986	0.1205	1065972	keystroke_i	i	n/a
533.1515	0.105	1066303	keystroke_a	a	n/a
533.2265	0.105	1066453	keystroke_l	l	n/a
533.4215	0.12	1066843	keystroke_Key.space	Key.space	n/a
533.6165	0.06	1067233	keystroke_w	w	n/a
533.7665	0.0905	1067533	keystroke_e	e	n/a
534.981	0.105	1069962	keystroke_b	b	n/a
535.101	0.1355	1070202	keystroke_c	c	n/a
535.326	0.1205	1070652	keystroke_a	a	n/a
535.462	0.074	1070924	keystroke_m	m	n/a
535.551	0.1355	1071102	keystroke_s	s	n/a
535.761	0.09	1071522	keystroke_Key.space	Key.space	n/a
536.422	0.104	1072844	keystroke_e	e	n/a
536.661	0.0905	1073322	keystroke_s	s	n/a
536.947	0.0745	1073894	keystroke_t	t	n/a
537.0665	0.1055	1074133	keystroke_o	o	n/a
537.2615	0.1055	1074523	keystroke_n	n	n/a
537.382	0.105	1074764	keystroke_i	i	n/a
537.547	0.0895	1075094	keystroke_a	a	n/a
537.6805	0.1215	1075361	keystroke_Key.space	Key.space	n/a
538.732	0.0745	1077464	keystroke_h	h	n/a
538.867	0.1345	1077734	keystroke_a	a	n/a
539.1065	0.075	1078213	keystroke_l	l	n/a
539.3015	0.1205	1078603	keystroke_o	o	n/a
539.5565	0.09	1079113	keystroke_Key.enter	Key.enter	n/a
539.653	7.3005	1079306	prompt	n/a	easy refurbished words round\n
540.322	0.09	1080644	keystroke_e	e	n/a
540.5165	0.1505	1081033	keystroke_a	a	n/a
540.621	0.1055	1081242	keystroke_s	s	n/a
540.742	0.105	1081484	keystroke_y	y	n/a
540.967	0.104	1081934	keystroke_Key.space	Key.space	n/a
541.4765	0.12	1082953	keystroke_r	r	n/a
541.6415	0.06	1083283	keystroke_e	e	n/a
542.212	0.1645	1084424	keystroke_f	f	n/a
542.3915	0.06	1084783	keystroke_u	u	n/a
542.4515	0.09	1084903	keystroke_r	r	n/a
542.6465	0.105	1085293	keystroke_b	b	n/a
542.8565	0.075	1085713	keystroke_i	i	n/a
542.947	0.09	1085894	keystroke_s	s	n/a
543.082	0.1045	1086164	keystroke_h	h	n/a
543.172	0.0745	1086344	keystroke_e	e	n/a
543.442	0.0745	1086884	keystroke_d	d	n/a
543.6215	0.09	1087243	keystroke_Key.space	Key.space	n/a
543.846	0.106	1087692	keystroke_w	w	n/a
543.982	0.12	1087964	keystroke_o	o	n/a
544.1165	0.0755	1088233	keystroke_r	r	n/a
544.3115	0.0905	1088623	keystroke_k	k	n/a
545.1365	0.105	1090273	keystroke_Key.backspace	Key.backspace	n/a
545.2265	0.09	1090453	keystroke_d	d	n/a
545.4065	0.105	1090813	keystroke_s	s	n/a
545.5715	0.09	1091143	keystroke_Key.space	Key.space	n/a
546.0365	0.09	1092073	keystroke_r	r	n/a
546.1415	0.2255	1092283	keystroke_o	o	n/a
546.2165	0.195	1092433	keystroke_u	u	n/a
546.3365	0.12	1092673	keystroke_n	n	n/a
546.5765	0.12	1093153	keystroke_d	d	n/a
546.8615	0.09	1093723	keystroke_Key.enter	Key.enter	n/a
546.9575	8.951	1093915	prompt	n/a	moisture perhaps featuring iraqi\n
547.6415	0.105	1095283	keystroke_m	m	n/a
547.987	0.089	1095974	keystroke_o	o	n/a
548.782	0.119	1097564	keystroke_i	i	n/a
548.917	0.089	1097834	keystroke_s	s	n/a
549.126	0.0905	1098252	keystroke_t	t	n/a
549.276	0.1205	1098552	keystroke_u	u	n/a
549.3965	0.12	1098793	keystroke_r	r	n/a
549.5315	0.0905	1099063	keystroke_e	e	n/a
549.6665	0.135	1099333	keystroke_Key.space	Key.space	n/a
550.0415	0.105	1100083	keystroke_p	p	n/a
550.1915	0.1195	1100383	keystroke_e	e	n/a
550.3265	0.105	1100653	keystroke_r	r	n/a
550.507	0.1045	1101014	keystroke_h	h	n/a
550.7015	0.0905	1101403	keystroke_a	a	n/a
550.7765	0.12	1101553	keystroke_p	p	n/a
550.8815	0.135	1101763	keystroke_s	s	n/a
551.0615	0.105	1102123	keystroke_Key.space	Key.space	n/a
552.2315	0.075	1104463	keystroke_f	f	n/a
552.4115	0.105	1104823	keystroke_e	e	n/a
552.5615	0.12	1105123	keystroke_a	a	n/a
552.7565	0.075	1105513	keystroke_t	t	n/a
552.8765	0.09	1105753	keystroke_u	u	n/a
552.9815	0.0905	1105963	keystroke_r	r	n/a
553.0865	0.1945	1106173	keystroke_i	i	n/a
553.192	0.135	1106384	keystroke_n	n	n/a
553.327	0.074	1106654	keystroke_g	g	n/a
553.461	0.12	1106922	keystroke_Key.space	Key.space	n/a
554.016	0.1205	1108032	keystroke_i	i	n/a
554.122	0.059	1108244	keystroke_r	r	n/a
554.3165	0.1495	1108633	keystroke_a	a	n/a
554.7215	0.165	1109443	keystroke_q	q	n/a
555.5615	0.0905	1111123	keystroke_i	i	n/a
555.831	0.075	1111662	keystroke_Key.enter	Key.enter	n/a
555.9125	7.6315	1111825	prompt	n/a	skype senators shoppers qualifying\n
556.8965	0.1055	1113793	keystroke_s	s	n/a
557.136	0.1355	1114272	keystroke_k	k	n/a
557.4365	0.0905	1114873	keystroke_y	y	n/a
557.706	0.105	1115412	keystroke_p	p	n/a
557.841	0.075	1115682	keystroke_e	e	n/a
558.0215	0.12	1116043	keystroke_Key.space	Key.space	n/a
558.3515	0.09	1116703	keystroke_s	s	n/a
558.5765	0.075	1117153	keystroke_e	e	n/a
558.6365	0.105	1117273	keystroke_n	n	n/a
558.7565	0.09	1117513	keystroke_a	a	n/a
558.9065	0.1195	1117813	keystroke_t	t	n/a
559.056	0.09	1118112	keystroke_o	o	n/a
559.177	0.075	1118354	keystroke_r	r	n/a
559.402	0.089	1118804	keystroke_s	s	n/a
559.5365	0.1195	1119073	keystroke_Key.space	Key.space	n/a
559.927	0.1195	1119854	keystroke_s	s	n/a
560.0315	0.1045	1120063	keystroke_h	h	n/a
560.271	0.106	1120542	keystroke_o	o	n/a
560.481	0.0605	1120962	keystroke_p	p	n/a
560.6165	0.1355	1121233	keystroke_p	p	n/a
560.661	0.1805	1121322	keystroke_e	e	n/a
560.826	0.12	1121652	keystroke_r	r	n/a
561.096	0.09	1122192	keystroke_s	s	n/a
561.261	0.09	1122522	keystroke_Key.space	Key.space	n/a
561.801	0.12	1123602	keystroke_q	q	n/a
561.981	0.12	1123962	keystroke_u	u	n/a
562.1465	0.1345	1124293	keystroke_a	a	n/a
562.2365	0.0895	1124473	keystroke_l	l	n/a
562.417	0.1045	1124834	keystroke_i	i	n/a
562.566	0.1205	1125132	keystroke_f	f	n/a
562.761	0.09	1125522	keystroke_y	y	n/a
562.9865	0.1945	1125973	keystroke_i	i	n/a
563.1215	0.1645	1126243	keystroke_n	n	n/a
563.301	0.075	1126602	keystroke_g	g	n/a
563.4665	0.075	1126933	keystroke_Key.enter	Key.enter	n/a
563.5465	11.217	1127093	prompt	n/a	precipitation referrals attempting florist\n
564.276	0.1205	1128552	keystroke_p	p	n/a
564.426	0.105	1128852	keystroke_r	r	n/a
564.5465	0.15	1129093	keystroke_e	e	n/a
564.9665	0.12	1129933	keystroke_c	c	n/a
565.1915	0.105	1130383	keystroke_i	i	n/a
565.416	0.09	1130832	keystroke_p	p	n/a
566.332	0.135	1132664	keystroke_i	i	n/a
566.481	0.076	1132962	keystroke_t	t	n/a
566.692	0.1195	1133384	keystroke_a	a	n/a
566.857	0.0895	1133714	keystroke_t	t	n/a
566.917	0.225	1133834	keystroke_i	i	n/a
567.0515	0.135	1134103	keystroke_o	o	n/a
567.1105	0.121	1134221	keystroke_n	n	n/a
567.3365	0.1195	1134673	keystroke_Key.space	Key.space	n/a
567.6065	0.134	1135213	keystroke_r	r	n/a
567.711	0.1045	1135422	keystroke_e	e	n/a
567.9515	0.09	1135903	keystroke_f	f	n/a
568.1305	0.1215	1136261	keystroke_e	e	n/a
568.3555	0.0305	1136711	keystroke_r	r	n/a
568.4765	0.075	1136953	keystroke_r	r	n/a
568.6865	0.09	1137373	keystroke_a	a	n/a
568.792	0.1045	1137584	keystroke_l	l	n/a
568.9415	0.135	1137883	keystroke_s	s	n/a
569.1065	0.105	1138213	keystroke_Key.space	Key.space	n/a
569.3015	0.09	1138603	keystroke_a	a	n/a
569.6765	0.045	1139353	keystroke_t	t	n/a
569.8265	0.0905	1139653	keystroke_t	t	n/a
570.0365	0.0905	1140073	keystroke_e	e	n/a
570.187	0.1045	1140374	keystroke_m	m	n/a
570.3665	0.0745	1140733	keystroke_p	p	n/a
570.457	0.09	1140914	keystroke_t	t	n/a
570.592	0.195	1141184	keystroke_i	i	n/a
570.6965	0.1655	1141393	keystroke_n	n	n/a
570.877	0.0895	1141754	keystroke_g	g	n/a
571.0115	0.12	1142023	keystroke_Key.space	Key.space	n/a
572.0915	0.0895	1144183	keystroke_f	f	n/a
572.1965	0.0895	1144393	keystroke_l	l	n/a
572.3615	0.1195	1144723	keystroke_o	o	n/a
572.526	0.0605	1145052	keystroke_r	r	n/a
572.6615	0.119	1145323	keystroke_i	i	n/a
572.796	0.1205	1145592	keystroke_s	s	n/a
573.067	0.089	1146134	keystroke_t	t	n/a
574.6565	0.105	1149313	keystroke_Key.enter	Key.enter	n/a
574.7675	12.686	1149535	prompt	n/a	journal edwards retailers antivirus\n
576.0815	0.0895	1152163	keystroke_j	j	n/a
576.3065	0.135	1152613	keystroke_o	o	n/a
576.351	0.15	1152702	keystroke_u	u	n/a
576.546	0.09	1153092	keystroke_r	r	n/a
576.6665	0.1195	1153333	keystroke_n	n	n/a
576.861	0.106	1153722	keystroke_a	a	n/a
576.921	0.091	1153842	keystroke_l	l	n/a
577.1465	0.1195	1154293	keystroke_Key.space	Key.space	n/a
577.281	0.09	1154562	keystroke_e	e	n/a
577.4915	0.1045	1154983	keystroke_d	d	n/a
577.7165	0.089	1155433	keystroke_w	w	n/a
577.8965	0.15	1155793	keystroke_a	a	n/a
578.0015	0.12	1156003	keystroke_r	r	n/a
578.3015	0.074	1156603	keystroke_d	d	n/a
578.482	0.105	1156964	keystroke_s	s	n/a
578.736	0.135	1157472	keystroke_Key.space	Key.space	n/a
579.081	0.151	1158162	keystroke_r	r	n/a
579.216	0.12	1158432	keystroke_e	e	n/a
579.4565	0.075	1158913	keystroke_t	t	n/a
579.6515	0.15	1159303	keystroke_a	a	n/a
579.8165	0.105	1159633	keystroke_i	i	n/a
579.9525	0.149	1159905	keystroke_l	l	n/a
581.031	0.1205	1162062	keystroke_r	r	n/a
581.6465	0.135	1163293	keystroke_Key.backspace	Key.backspace	n/a
581.766	0.1205	1163532	keystroke_e	e	n/a
581.901	0.09	1163802	keystroke_r	r	n/a
582.1715	0.105	1164343	keystroke_s	s	n/a
582.3515	0.09	1164703	keystroke_Key.space	Key.space	n/a
583.0265	0.12	1166053	keystroke_a	a	n/a
583.2515	0.12	1166503	keystroke_n	n	n/a
583.4315	0.09	1166863	keystroke_t	t	n/a
583.6415	0.105	1167283	keystroke_i	i	n/a
584.0465	0.1045	1168093	keystroke_v	v	n/a
584.5865	0.105	1169173	keystroke_i	i	n/a
584.7665	0.1045	1169533	keystroke_r	r	n/a
584.9615	0.0895	1169923	keystroke_u	u	n/a
585.5165	0.1495	1171033	keystroke_s	s	n/a
587.3465	0.105	1174693	keystroke_Key.enter	Key.enter	n/a
587.4565	9.7465	1174913	prompt	n/a	alberta hints teeth allocated\n
588.126	0.135	1176252	keystroke_a	a	n/a
588.3365	0.1045	1176673	keystroke_l	l	n/a
588.546	0.121	1177092	keystroke_b	b	n/a
588.636	0.15	1177272	keystroke_e	e	n/a
588.771	0.12	1177542	keystroke_r	r	n/a
589.0115	0.075	1178023	keystroke_t	t	n/a
589.2515	0.06	1178503	keystroke_a	a	n/a
589.4765	0.12	1178953	keystroke_Key.space	Key.space	n/a
590.4665	0.0905	1180933	keystroke_h	h	n/a
590.6315	0.12	1181263	keystroke_i	i	n/a
590.8115	0.15	1181623	keystroke_n	n	n/a
590.9165	0.09	1181833	keystroke_t	t	n/a
591.2315	0.105	1182463	keystroke_s	s	n/a
591.4715	0.12	1182943	keystroke_Key.space	Key.space	n/a
591.862	0.0595	1183724	keystroke_e	e	n/a
592.3405	0.121	1184681	keystroke_Key.backspace	Key.backspace	n/a
592.506	0.0755	1185012	keystroke_t	t	n/a
592.8215	0.1345	1185643	keystroke_e	e	n/a
593.0465	0.1345	1186093	keystroke_e	e	n/a
593.2565	0.0895	1186513	keystroke_t	t	n/a
593.391	0.106	1186782	keystroke_h	h	n/a
593.586	0.106	1187172	keystroke_Key.space	Key.space	n/a
593.7665	0.1045	1187533	keystroke_a	a	n/a
593.901	0.06	1187802	keystroke_l	l	n/a
594.067	0.09	1188134	keystroke_l	l	n/a
594.231	0.1055	1188462	keystroke_o	o	n/a
594.366	0.0905	1188732	keystroke_c	c	n/a
594.561	0.0905	1189122	keystroke_a	a	n/a
594.7715	0.12	1189543	keystroke_t	t	n/a
594.952	0.075	1189904	keystroke_e	e	n/a
595.221	0.1355	1190442	keystroke_d	d	n/a
597.1115	0.0895	1194223	keystroke_Key.enter	Key.enter	n/a
597.207	8.891	1194414	prompt	n/a	malawi collins ipaq explaining\n
597.952	0.089	1195904	keystroke_m	m	n/a
598.101	0.121	1196202	keystroke_a	a	n/a
598.236	0.1205	1196472	keystroke_l	l	n/a
598.3855	0.136	1196771	keystroke_a	a	n/a
598.5515	0.15	1197103	keystroke_w	w	n/a
598.7465	0.119	1197493	keystroke_i	i	n/a
599.0005	0.121	1198001	keystroke_Key.space	Key.space	n/a
599.2405	0.12	1198481	keystroke_c	c	n/a
599.3615	0.074	1198723	keystroke_o	o	n/a
599.5715	0.075	1199143	keystroke_l	l	n/a
599.7515	0.045	1199503	keystroke_l	l	n/a
600.1105	0.1055	1200221	keystroke_i	i	n/a
600.306	0.12	1200612	keystroke_n	n	n/a
600.516	0.135	1201032	keystroke_s	s	n/a
600.711	0.105	1201422	keystroke_Key.space	Key.space	n/a
601.747	0.104	1203494	keystroke_i	i	n/a
601.956	0.136	1203912	keystroke_p	p	n/a
602.136	0.045	1204272	keystroke_a	a	n/a
602.451	0.1345	1204902	keystroke_q	q	n/a
602.7065	0.12	1205413	keystroke_Key.space	Key.space	n/a
603.0365	0.12	1206073	keystroke_e	e	n/a
604.101	0.1355	1208202	keystroke_x	x	n/a
604.3115	0.0605	1208623	keystroke_p	p	n/a
604.492	0.12	1208984	keystroke_l	l	n/a
604.597	0.15	1209194	keystroke_a	a	n/a
604.731	0.135	1209462	keystroke_i	i	n/a
604.822	0.134	1209644	keystroke_n	n	n/a
605.031	0.165	1210062	keystroke_i	i	n/a
605.122	0.15	1210244	keystroke_n	n	n/a
605.2865	0.0745	1210573	keystroke_g	g	n/a
606.006	0.09	1212012	keystroke_Key.enter	Key.enter	n/a
