onset	duration	sample	value	key	prompt_text
2.9865	13.3025	5973	prompt	n/a	the quick brown fox jumps over a lazy dog\n
4.3055	0.0125	8611	keystroke_t	t	n/a
4.3785	0.0895	8757	keystroke_h	h	n/a
4.4985	0.06	8997	keystroke_e	e	n/a
4.648	0.0755	9296	keystroke_Key.space	Key.space	n/a
4.9455	0.1085	9891	keystroke_q	q	n/a
5.159	0.0895	10318	keystroke_y	y	n/a
5.5495	0.134	11099	keystroke_=	=	n/a
6.1035	0.06	12207	keystroke_Key.backspace	Key.backspace	n/a
6.3285	0.0145	12657	keystroke_Key.backspace	Key.backspace	n/a
6.4635	0.09	12927	keystroke_Key.backspace	Key.backspace	n/a
7.7335	0.0905	15467	keystroke_q	q	n/a
7.9145	0.045	15829	keystroke_u	u	n/a
8.0955	0.0895	16191	keystroke_i	i	n/a
8.29	0.075	16580	keystroke_c	c	n/a
8.38	0.076	16760	keystroke_k	k	n/a
8.6055	0.045	17211	keystroke_Key.space	Key.space	n/a
8.771	0.0745	17542	keystroke_b	b	n/a
8.89	0.075	17780	keystroke_r	r	n/a
9.01	0.0455	18020	keystroke_o	o	n/a
9.1155	0.09	18231	keystroke_w	w	n/a
9.311	0.074	18622	keystroke_n	n	n/a
10.0465	0.06	20093	keystroke_Key.space	Key.space	n/a
10.707	0.059	21414	keystroke_f	f	n/a
10.9015	0.09	21803	keystroke_o	o	n/a
11.156	0.0455	22312	keystroke_x	x	n/a
11.246	0.0595	22492	keystroke_Key.space	Key.space	n/a
11.4565	0.075	22913	keystroke_j	j	n/a
11.5765	0.0895	23153	keystroke_u	u	n/a
11.7865	0.06	23573	keystroke_m	m	n/a
11.966	0.075	23932	keystroke_p	p	n/a
12.086	0.0755	24172	keystroke_s	s	n/a
12.2065	0.059	24413	keystroke_Key.space	Key.space	n/a
12.4465	0.1195	24893	keystroke_o	o	n/a
12.7465	0.0445	25493	keystroke_v	v	n/a
12.8665	0.1205	25733	keystroke_e	e	n/a
12.971	0.0905	25942	keystroke_r	r	n/a
13.1365	0.089	26273	keystroke_Key.space	Key.space	n/a
13.316	0.045	26632	keystroke_a	a	n/a
13.3915	0.075	26783	keystroke_Key.space	Key.space	n/a
13.6465	0.075	27293	keystroke_l	l	n/a
13.7665	0.0755	27533	keystroke_a	a	n/a
14.0215	0.0455	28043	keystroke_z	z	n/a
14.1415	0.06	28283	keystroke_y	y	n/a
14.3515	0.075	28703	keystroke_Key.space	Key.space	n/a
15.687	0.0895	31374	keystroke_d	d	n/a
15.8665	0.1045	31733	keystroke_o	o	n/a
16.0315	0.0905	32063	keystroke_g	g	n/a
16.2415	0.045	32483	keystroke_Key.enter	Key.enter	n/a
16.294	7.7055	32588	prompt	n/a	zope hence celebs native\n
17.2615	0.0755	34523	keystroke_z	z	n/a
17.457	0.1045	34914	keystroke_o	o	n/a
17.576	0.12	35152	keystroke_p	p	n/a
17.7865	0.045	35573	keystroke_e	e	n/a
17.966	0.0605	35932	keystroke_Key.space	Key.space	n/a
18.536	0.0605	37072	keystroke_h	h	n/a
18.641	0.0755	37282	keystroke_e	e	n/a
18.7465	0.075	37493	keystroke_n	n	n/a
18.9405	0.106	37881	keystroke_c	c	n/a
19.1815	0.075	38363	keystroke_e	e	n/a
19.3315	0.0595	38663	keystroke_Key.space	Key.space	n/a
20.441	0.0905	40882	keystroke_c	c	n/a
20.6515	0.0905	41303	keystroke_e	e	n/a
21.3115	0.0895	42623	keystroke_l	l	n/a
21.4315	0.0895	42863	keystroke_e	e	n/a
21.896	0.061	43792	keystroke_b	b	n/a
21.972	0.074	43944	keystroke_s	s	n/a
22.136	0.0305	44272	keystroke_Key.space	Key.space	n/a
22.812	0.0885	45624	keystroke_n	n	n/a
22.9165	0.09	45833	keystroke_a	a	n/a
23.1715	0.0595	46343	keystroke_t	t	n/a
23.2915	0.0895	46583	keystroke_i	i	n/a
23.501	0.105	47002	keystroke_v	v	n/a
23.6815	0.0745	47363	keystroke_e	e	n/a
23.951	0.0455	47902	keystroke_Key.enter	Key.enter	n/a
24.0055	9.1125	48011	prompt	n/a	knew gloves systems substitute\n
24.8365	0.09	49673	keystroke_k	k	n/a
25.001	0.0905	50002	keystroke_n	n	n/a
25.1815	0.1505	50363	keystroke_e	e	n/a
25.271	0.0905	50542	keystroke_w	w	n/a
25.4215	0.075	50843	keystroke_Key.space	Key.space	n/a
25.9615	0.0445	51923	keystroke_g	g	n/a
26.0815	0.075	52163	keystroke_l	l	n/a
26.262	0.0745	52524	keystroke_o	o	n/a
26.5015	0.165	53003	keystroke_v	v	n/a
26.801	0.0905	53602	keystroke_e	e	n/a
27.026	0.046	54052	keystroke_s	s	n/a
27.1765	0.0745	54353	keystroke_Key.space	Key.space	n/a
27.5365	0.0895	55073	keystroke_s	s	n/a
27.747	0.06	55494	keystroke_y	y	n/a
27.8215	0.0895	55643	keystroke_s	s	n/a
27.956	0.06	55912	keystroke_t	t	n/a
28.1065	0.045	56213	keystroke_e	e	n/a
28.3315	0.09	56663	keystroke_m	m	n/a
28.4065	0.09	56813	keystroke_s	s	n/a
28.6315	0.0595	57263	keystroke_Key.space	Key.space	n/a
28.931	0.075	57862	keystroke_s	s	n/a
29.0665	0.075	58133	keystroke_u	u	n/a
29.247	0.075	58494	keystroke_b	b	n/a
29.3665	0.0755	58733	keystroke_s	s	n/a
29.5915	0.09	59183	keystroke_i	i	n/a
29.832	0.0595	59664	keystroke_t	t	n/a
30.3565	0.075	60713	keystroke_Key.backspace	Key.backspace	n/a
30.701	0.061	61402	keystroke_t	t	n/a
31.0015	0.09	62003	keystroke_Key.backspace	Key.backspace	n/a
31.151	0.105	62302	keystroke_Key.backspace	Key.backspace	n/a
31.2715	0.0905	62543	keystroke_t	t	n/a
31.901	0.0755	63802	keystroke_i	i	n/a
32.0665	0.06	64133	keystroke_t	t	n/a
32.1865	0.075	64373	keystroke_u	u	n/a
32.4565	0.075	64913	keystroke_t	t	n/a
32.622	0.075	65244	keystroke_e	e	n/a
33.041	0.0745	66082	keystroke_Key.enter	Key.enter	n/a
33.122	9.1325	66244	prompt	n/a	spanish northwest cottages brian\n
33.837	0.0595	67674	keystroke_s	s	n/a
34.616	0.0755	69232	keystroke_Key.backspace	Key.backspace	n/a
34.8565	0.0595	69713	keystroke_p	p	n/a
34.961	0.091	69922	keystroke_a	a	n/a
35.4415	0.0905	70883	keystroke_Key.backspace	Key.backspace	n/a
35.5915	0.105	71183	keystroke_Key.backspace	Key.backspace	n/a
35.7265	0.12	71453	keystroke_s	s	n/a
35.9215	0.0895	71843	keystroke_p	p	n/a
36.042	0.0745	72084	keystroke_a	a	n/a
36.2065	0.09	72413	keystroke_n	n	n/a
36.4765	0.09	72953	keystroke_i	i	n/a
36.6415	0.0905	73283	keystroke_s	s	n/a
36.7465	0.1355	73493	keystroke_h	h	n/a
37.1365	0.06	74273	keystroke_Key.space	Key.space	n/a
37.437	0.089	74874	keystroke_n	n	n/a
37.617	0.075	75234	keystroke_o	o	n/a
37.842	0.075	75684	keystroke_r	r	n/a
38.022	0.045	76044	keystroke_t	t	n/a
38.127	0.06	76254	keystroke_h	h	n/a
38.3215	0.105	76643	keystroke_w	w	n/a
38.561	0.0755	77122	keystroke_e	e	n/a
38.7565	0.09	77513	keystroke_s	s	n/a
38.9815	0.075	77963	keystroke_t	t	n/a
39.206	0.075	78412	keystroke_Key.space	Key.space	n/a
39.7775	0.045	79555	keystroke_c	c	n/a
40.002	0.059	80004	keystroke_o	o	n/a
40.1825	0.03	80365	keystroke_t	t	n/a
40.287	0.075	80574	keystroke_t	t	n/a
40.467	0.119	80934	keystroke_a	a	n/a
40.691	0.09	81382	keystroke_g	g	n/a
40.8265	0.0595	81653	keystroke_e	e	n/a
41.022	0.0605	82044	keystroke_s	s	n/a
41.2615	0.075	82523	keystroke_Key.space	Key.space	n/a
41.4875	0.059	82975	keystroke_b	b	n/a
41.6515	0.0905	83303	keystroke_r	r	n/a
41.787	0.09	83574	keystroke_i	i	n/a
41.892	0.0595	83784	keystroke_a	a	n/a
41.982	0.09	83964	keystroke_n	n	n/a
42.1765	0.0755	84353	keystroke_Key.enter	Key.enter	n/a
42.259	6.5195	84518	prompt	n/a	center textbook priced differ\n
42.971	0.076	85942	keystroke_c	c	n/a
43.136	0.09	86272	keystroke_e	e	n/a
43.2415	0.0745	86483	keystroke_n	n	n/a
43.346	0.121	86692	keystroke_t	t	n/a
43.452	0.1795	86904	keystroke_e	e	n/a
43.6015	0.0895	87203	keystroke_r	r	n/a
43.8265	0.0745	87653	keystroke_Key.space	Key.space	n/a
44.246	0.091	88492	keystroke_t	t	n/a
44.352	0.12	88704	keystroke_e	e	n/a
44.6965	0.0455	89393	keystroke_x	x	n/a
44.937	0.0445	89874	keystroke_t	t	n/a
45.222	0.075	90444	keystroke_b	b	n/a
45.417	0.044	90834	keystroke_o	o	n/a
45.537	0.135	91074	keystroke_o	o	n/a
45.6565	0.09	91313	keystroke_k	k	n/a
45.9715	0.075	91943	keystroke_Key.space	Key.space	n/a
46.3915	0.09	92783	keystroke_p	p	n/a
46.586	0.061	93172	keystroke_r	r	n/a
46.752	0.075	93504	keystroke_i	i	n/a
46.932	0.0755	93864	keystroke_c	c	n/a
47.082	0.09	94164	keystroke_e	e	n/a
47.217	0.1045	94434	keystroke_d	d	n/a
47.6065	0.075	95213	keystroke_Key.space	Key.space	n/a
47.922	0.0745	95844	keystroke_d	d	n/a
48.1015	0.06	96203	keystroke_i	i	n/a
48.2215	0.045	96443	keystroke_f	f	n/a
48.3265	0.0605	96653	keystroke_f	f	n/a
48.5065	0.1055	97013	keystroke_e	e	n/a
48.5965	0.0745	97193	keystroke_r	r	n/a
48.702	0.075	97404	keystroke_Key.enter	Key.enter	n/a
48.782	6.012	97564	prompt	n/a	savings so're some dublin\n
49.3915	0.075	98783	keystroke_s	s	n/a
49.542	0.0895	99084	keystroke_a	a	n/a
49.872	0.06	99744	keystroke_v	v	n/a
50.037	0.135	100074	keystroke_i	i	n/a
50.126	0.091	100252	keystroke_n	n	n/a
50.217	0.06	100434	keystroke_g	g	n/a
50.4415	0.075	100883	keystroke_s	s	n/a
51.0565	0.075	102113	keystroke_Key.space	Key.space	n/a
51.1915	0.09	102383	keystroke_s	s	n/a
51.4465	0.0155	102893	keystroke_o	o	n/a
51.7765	0.09	103553	keystroke_'	'	n/a
51.9565	0.1205	103913	keystroke_r	r	n/a
52.0465	0.0755	104093	keystroke_e	e	n/a
52.1365	0.06	104273	keystroke_Key.space	Key.space	n/a
52.5115	0.0755	105023	keystroke_s	s	n/a
52.7665	0.075	105533	keystroke_o	o	n/a
52.8265	0.12	105653	keystroke_m	m	n/a
52.9765	0.0755	105953	keystroke_e	e	n/a
53.1715	0.09	106343	keystroke_Key.space	Key.space	n/a
53.697	0.0745	107394	keystroke_d	d	n/a
53.847	0.1195	107694	keystroke_u	u	n/a
53.952	0.104	107904	keystroke_b	b	n/a
54.2075	0.0745	108415	keystroke_l	l	n/a
54.4015	0.1345	108803	keystroke_i	i	n/a
54.492	0.12	108984	keystroke_n	n	n/a
54.7165	0.0755	109433	keystroke_Key.enter	Key.enter	n/a
54.8	9.8815	109600	prompt	n/a	chance impact automation equally\n
55.722	0.075	111444	keystroke_c	c	n/a
55.827	0.075	111654	keystroke_h	h	n/a
55.917	0.09	111834	keystroke_a	a	n/a
56.037	0.075	112074	keystroke_n	n	n/a
56.247	0.0745	112494	keystroke_c	c	n/a
56.382	0.09	112764	keystroke_e	e	n/a
56.517	0.0745	113034	keystroke_Key.space	Key.space	n/a
56.9665	0.1355	113933	keystroke_i	i	n/a
57.147	0.089	114294	keystroke_m	m	n/a
57.3725	0.0895	114745	keystroke_p	p	n/a
57.492	0.089	114984	keystroke_a	a	n/a
57.687	0.12	115374	keystroke_c	c	n/a
58.0315	0.075	116063	keystroke_Key.backspace	Key.backspace	n/a
58.827	0.104	117654	keystroke_c	c	n/a
59.127	0.0745	118254	keystroke_t	t	n/a
59.457	0.06	118914	keystroke_Key.space	Key.space	n/a
60.7915	0.0755	121583	keystroke_a	a	n/a
61.2115	0.0755	122423	keystroke_u	u	n/a
61.362	0.06	122724	keystroke_t	t	n/a
61.512	0.09	123024	keystroke_o	o	n/a
61.767	0.075	123534	keystroke_m	m	n/a
61.827	0.09	123654	keystroke_a	a	n/a
62.007	0.06	124014	keystroke_t	t	n/a
62.097	0.1795	124194	keystroke_i	i	n/a
62.142	0.1205	124284	keystroke_o	o	n/a
62.2165	0.12	124433	keystroke_n	n	n/a
62.7115	0.0755	125423	keystroke_Key.space	Key.space	n/a
63.057	0.0745	126114	keystroke_e	e	n/a
63.6865	0.0605	127373	keystroke_q	q	n/a
63.851	0.06	127702	keystroke_u	u	n/a
63.957	0.0755	127914	keystroke_a	a	n/a
64.182	0.0455	128364	keystroke_l	l	n/a
64.3015	0.105	128603	keystroke_l	l	n/a
64.467	0.059	128934	keystroke_y	y	n/a
64.586	0.091	129172	keystroke_Key.enter	Key.enter	n/a
64.6885	6.53	129377	prompt	n/a	lasting publisher skype hughes\n
65.4565	0.075	130913	keystroke_l	l	n/a
65.5615	0.0605	131123	keystroke_a	a	n/a
65.6065	0.1205	131213	keystroke_s	s	n/a
65.862	0.045	131724	keystroke_t	t	n/a
65.9365	0.09	131873	keystroke_i	i	n/a
65.9965	0.1055	131993	keystroke_n	n	n/a
66.117	0.06	132234	keystroke_g	g	n/a
66.2815	0.0455	132563	keystroke_Key.space	Key.space	n/a
66.882	0.075	133764	keystroke_p	p	n/a
67.137	0.1195	134274	keystroke_u	u	n/a
67.2865	0.0755	134573	keystroke_b	b	n/a
67.5265	0.075	135053	keystroke_l	l	n/a
67.7375	0.0445	135475	keystroke_i	i	n/a
67.812	0.09	135624	keystroke_s	s	n/a
67.977	0.075	135954	keystroke_h	h	n/a
68.082	0.135	136164	keystroke_e	e	n/a
68.2315	0.075	136463	keystroke_r	r	n/a
68.457	0.06	136914	keystroke_Key.space	Key.space	n/a
68.7715	0.0745	137543	keystroke_s	s	n/a
68.922	0.0755	137844	keystroke_k	k	n/a
69.147	0.06	138294	keystroke_y	y	n/a
69.447	0.06	138894	keystroke_p	p	n/a
69.567	0.06	139134	keystroke_e	e	n/a
69.762	0.0745	139524	keystroke_Key.space	Key.space	n/a
70.212	0.06	140424	keystroke_h	h	n/a
70.3465	0.0905	140693	keystroke_u	u	n/a
70.557	0.06	141114	keystroke_g	g	n/a
70.662	0.0745	141324	keystroke_h	h	n/a
70.7815	0.0745	141563	keystroke_e	e	n/a
71.0065	0.0605	142013	keystroke_s	s	n/a
71.1565	0.06	142313	keystroke_Key.enter	Key.enter	n/a
71.223	9.9405	142446	prompt	n/a	laboratory stable comply hollywood\n
72.147	0.09	144294	keystroke_l	l	n/a
72.252	0.06	144504	keystroke_a	a	n/a
72.6415	0.0905	145283	keystroke_b	b	n/a
73.511	0.076	147022	keystroke_o	o	n/a
73.617	0.075	147234	keystroke_r	r	n/a
73.827	0.105	147654	keystroke_a	a	n/a
74.367	0.075	148734	keystroke_t	t	n/a
74.562	0.06	149124	keystroke_o	o	n/a
74.682	0.09	149364	keystroke_r	r	n/a
75.132	0.0595	150264	keystroke_y	y	n/a
75.612	0.0445	151224	keystroke_Key.space	Key.space	n/a
75.9265	0.0755	151853	keystroke_s	s	n/a
76.137	0.0895	152274	keystroke_t	t	n/a
76.287	0.09	152574	keystroke_a	a	n/a
76.422	0.0605	152844	keystroke_b	b	n/a
76.5865	0.075	153173	keystroke_l	l	n/a
76.6765	0.0755	153353	keystroke_e	e	n/a
76.8115	0.075	153623	keystroke_Key.space	Key.space	n/a
77.247	0.06	154494	keystroke_c	c	n/a
77.397	0.1055	154794	keystroke_o	o	n/a
77.472	0.0895	154944	keystroke_m	m	n/a
77.697	0.1195	155394	keystroke_p	p	n/a
77.787	0.0895	155574	keystroke_l	l	n/a
78.102	0.0595	156204	keystroke_y	y	n/a
78.327	0.06	156654	keystroke_Key.space	Key.space	n/a
78.762	0.0595	157524	keystroke_h	h	n/a
78.897	0.09	157794	keystroke_o	o	n/a
79.092	0.06	158184	keystroke_l	l	n/a
79.212	0.09	158424	keystroke_l	l	n/a
79.497	0.0595	158994	keystroke_y	y	n/a
79.707	0.0595	159414	keystroke_w	w	n/a
80.007	0.0295	160014	keystroke_o	o	n/a
80.1115	0.1055	160223	keystroke_o	o	n/a
80.247	0.1055	160494	keystroke_f	f	n/a
80.816	0.09	161632	keystroke_Key.backspace	Key.backspace	n/a
80.967	0.075	161934	keystroke_d	d	n/a
81.071	0.09	162142	keystroke_Key.enter	Key.enter	n/a
81.168	10.7205	162336	prompt	n/a	conversations calculated surgical incentive\n
82.122	0.089	164244	keystroke_c	c	n/a
82.362	0.0445	164724	keystroke_o	o	n/a
82.602	0.09	165204	keystroke_n	n	n/a
82.737	0.06	165474	keystroke_v	v	n/a
82.887	0.09	165774	keystroke_e	e	n/a
82.961	0.0605	165922	keystroke_r	r	n/a
83.142	0.06	166284	keystroke_s	s	n/a
83.532	0.09	167064	keystroke_a	a	n/a
83.727	0.06	167454	keystroke_t	t	n/a
83.862	0.21	167724	keystroke_i	i	n/a
83.981	0.0605	167962	keystroke_o	o	n/a
83.982	0.135	167964	keystroke_n	n	n/a
84.147	0.075	168294	keystroke_s	s	n/a
85.0015	0.0755	170003	keystroke_Key.space	Key.space	n/a
85.227	0.09	170454	keystroke_c	c	n/a
85.347	0.09	170694	keystroke_a	a	n/a
85.482	0.09	170964	keystroke_l	l	n/a
85.752	0.0755	171504	keystroke_c	c	n/a
86.172	0.06	172344	keystroke_u	u	n/a
86.502	0.075	173004	keystroke_l	l	n/a
86.5625	0.0745	173125	keystroke_a	a	n/a
86.772	0.0755	173544	keystroke_t	t	n/a
86.862	0.09	173724	keystroke_e	e	n/a
87.0565	0.09	174113	keystroke_d	d	n/a
87.432	0.0745	174864	keystroke_Key.space	Key.space	n/a
87.7315	0.0905	175463	keystroke_s	s	n/a
87.927	0.06	175854	keystroke_u	u	n/a
88.107	0.075	176214	keystroke_r	r	n/a
88.3465	0.0605	176693	keystroke_g	g	n/a
88.4825	0.0745	176965	keystroke_i	i	n/a
88.767	0.0595	177534	keystroke_g	g	n/a
89.247	0.0745	178494	keystroke_Key.backspace	Key.backspace	n/a
89.3515	0.1205	178703	keystroke_c	c	n/a
89.5015	0.1055	179003	keystroke_a	a	n/a
89.622	0.074	179244	keystroke_l	l	n/a
89.936	0.061	179872	keystroke_Key.space	Key.space	n/a
90.312	0.09	180624	keystroke_i	i	n/a
90.477	0.0895	180954	keystroke_n	n	n/a
90.612	0.06	181224	keystroke_c	c	n/a
90.7465	0.0905	181493	keystroke_e	e	n/a
91.047	0.075	182094	keystroke_n	n	n/a
91.197	0.089	182394	keystroke_t	t	n/a
91.347	0.06	182694	keystroke_i	i	n/a
91.5565	0.075	183113	keystroke_v	v	n/a
91.737	0.06	183474	keystroke_e	e	n/a
91.812	0.075	183624	keystroke_Key.enter	Key.enter	n/a
91.8935	6.73	183787	prompt	n/a	share expressions assume beatles\n
92.592	0.0745	185184	keystroke_s	s	n/a
92.7565	0.06	185513	keystroke_h	h	n/a
92.802	0.075	185604	keystroke_a	a	n/a
92.982	0.1355	185964	keystroke_r	r	n/a
93.087	0.0745	186174	keystroke_e	e	n/a
93.267	0.09	186534	keystroke_Key.space	Key.space	n/a
93.642	0.0595	187284	keystroke_e	e	n/a
93.8815	0.09	187763	keystroke_x	x	n/a
94.0615	0.075	188123	keystroke_p	p	n/a
94.1815	0.1205	188363	keystroke_r	r	n/a
94.2565	0.105	188513	keystroke_e	e	n/a
94.4965	0.045	188993	keystroke_s	s	n/a
94.6615	0.06	189323	keystroke_s	s	n/a
94.8265	0.1655	189653	keystroke_i	i	n/a
94.8865	0.1355	189773	keystroke_o	o	n/a
95.037	0.105	190074	keystroke_n	n	n/a
95.187	0.0895	190374	keystroke_s	s	n/a
95.5165	0.06	191033	keystroke_Key.space	Key.space	n/a
95.9365	0.075	191873	keystroke_a	a	n/a
96.326	0.076	192652	keystroke_s	s	n/a
96.4915	0.0745	192983	keystroke_s	s	n/a
96.552	0.0895	193104	keystroke_u	u	n/a
96.776	0.076	193552	keystroke_m	m	n/a
96.8665	0.075	193733	keystroke_e	e	n/a
97.032	0.0595	194064	keystroke_Key.space	Key.space	n/a
97.4815	0.0605	194963	keystroke_b	b	n/a
97.557	0.1345	195114	keystroke_e	e	n/a
97.661	0.106	195322	keystroke_a	a	n/a
97.887	0.0745	195774	keystroke_t	t	n/a
98.0515	0.0745	196103	keystroke_l	l	n/a
98.1715	0.12	196343	keystroke_e	e	n/a
98.4265	0.0755	196853	keystroke_s	s	n/a
98.5615	0.06	197123	keystroke_Key.enter	Key.enter	n/a
98.628	9.7005	197256	prompt	n/a	disco invision zambia markets\n
99.4915	0.06	198983	keystroke_d	d	n/a
99.6715	0.0445	199343	keystroke_i	i	n/a
99.747	0.06	199494	keystroke_s	s	n/a
100.017	0.045	200034	keystroke_c	c	n/a
100.197	0.0895	200394	keystroke_o	o	n/a
100.5415	0.075	201083	keystroke_Key.space	Key.space	n/a
100.8115	0.12	201623	keystroke_i	i	n/a
100.8865	0.09	201773	keystroke_n	n	n/a
101.4575	0.089	202915	keystroke_v	v	n/a
101.697	0.075	203394	keystroke_i	i	n/a
101.8615	0.0755	203723	keystroke_s	s	n/a
102.012	0.18	204024	keystroke_i	i	n/a
102.0575	0.1195	204115	keystroke_o	o	n/a
102.132	0.12	204264	keystroke_n	n	n/a
102.657	0.09	205314	keystroke_Key.space	Key.space	n/a
103.422	0.075	206844	keystroke_z	z	n/a
103.647	0.0745	207294	keystroke_a	a	n/a
103.796	0.09	207592	keystroke_m	m	n/a
104.5465	0.075	209093	keystroke_b	b	n/a
104.726	0.091	209452	keystroke_i	i	n/a
104.802	0.09	209604	keystroke_a	a	n/a
105.522	0.075	211044	keystroke_Key.space	Key.space	n/a
105.8965	0.135	211793	keystroke_a	a	n/a
106.5715	0.1195	213143	keystroke_Key.backspace	Key.backspace	n/a
106.9015	0.0745	213803	keystroke_m	m	n/a
106.946	0.1055	213892	keystroke_a	a	n/a
107.082	0.105	214164	keystroke_r	r	n/a
107.232	0.1045	214464	keystroke_k	k	n/a
107.457	0.089	214914	keystroke_e	e	n/a
107.667	0.0445	215334	keystroke_t	t	n/a
108.011	0.09	216022	keystroke_s	s	n/a
108.2515	0.0745	216503	keystroke_Key.enter	Key.enter	n/a
108.332	6.8665	216664	prompt	n/a	sleeps johnson beginning harvest\n
109.0465	0.0605	218093	keystroke_s	s	n/a
109.2115	0.075	218423	keystroke_l	l	n/a
109.3165	0.06	218633	keystroke_e	e	n/a
109.452	0.075	218904	keystroke_e	e	n/a
109.557	0.09	219114	keystroke_p	p	n/a
109.6625	0.0595	219325	keystroke_s	s	n/a
109.812	0.075	219624	keystroke_Key.space	Key.space	n/a
110.3075	0.1195	220615	keystroke_j	j	n/a
110.487	0.105	220974	keystroke_o	o	n/a
110.7115	0.0605	221423	keystroke_h	h	n/a
110.8915	0.0755	221783	keystroke_n	n	n/a
110.9965	0.09	221993	keystroke_s	s	n/a
111.1015	0.135	222203	keystroke_o	o	n/a
111.1915	0.105	222383	keystroke_n	n	n/a
111.4615	0.0755	222923	keystroke_Key.space	Key.space	n/a
111.867	0.045	223734	keystroke_b	b	n/a
111.9565	0.1055	223913	keystroke_e	e	n/a
112.1965	0.0755	224393	keystroke_g	g	n/a
112.287	0.119	224574	keystroke_i	i	n/a
112.377	0.1045	224754	keystroke_n	n	n/a
112.5725	0.075	225145	keystroke_n	n	n/a
112.781	0.106	225562	keystroke_i	i	n/a
112.841	0.12	225682	keystroke_n	n	n/a
112.992	0.0595	225984	keystroke_g	g	n/a
113.1865	0.0755	226373	keystroke_Key.space	Key.space	n/a
114.0415	0.0755	228083	keystroke_h	h	n/a
114.132	0.09	228264	keystroke_a	a	n/a
114.2965	0.075	228593	keystroke_r	r	n/a
114.4615	0.075	228923	keystroke_v	v	n/a
114.5815	0.09	229163	keystroke_e	e	n/a
114.7915	0.0605	229583	keystroke_s	s	n/a
115.0315	0.045	230063	keystroke_t	t	n/a
115.137	0.059	230274	keystroke_Key.enter	Key.enter	n/a
115.203	8.0505	230406	prompt	n/a	suggests caught difference animal\n
115.8565	0.0605	231713	keystroke_s	s	n/a
116.112	0.075	232224	keystroke_u	u	n/a
116.337	0.06	232674	keystroke_g	g	n/a
116.457	0.09	232914	keystroke_g	g	n/a
116.5775	0.074	233155	keystroke_e	e	n/a
116.907	0.06	233814	keystroke_s	s	n/a
117.4315	0.0905	234863	keystroke_t	t	n/a
117.8215	0.0895	235643	keystroke_s	s	n/a
118.032	0.059	236064	keystroke_Key.space	Key.space	n/a
118.602	0.0895	237204	keystroke_c	c	n/a
118.737	0.09	237474	keystroke_a	a	n/a
118.901	0.076	237802	keystroke_u	u	n/a
119.1715	0.09	238343	keystroke_g	g	n/a
119.3065	0.0755	238613	keystroke_h	h	n/a
119.3965	0.06	238793	keystroke_t	t	n/a
119.5765	0.06	239153	keystroke_Key.space	Key.space	n/a
119.937	0.0745	239874	keystroke_d	d	n/a
120.087	0.0745	240174	keystroke_i	i	n/a
120.2365	0.0605	240473	keystroke_f	f	n/a
120.3565	0.1055	240713	keystroke_f	f	n/a
120.4915	0.1205	240983	keystroke_e	e	n/a
120.597	0.09	241194	keystroke_r	r	n/a
120.717	0.06	241434	keystroke_e	e	n/a
120.822	0.0895	241644	keystroke_n	n	n/a
121.017	0.089	242034	keystroke_c	c	n/a
121.137	0.09	242274	keystroke_e	e	n/a
121.2415	0.09	242483	keystroke_Key.space	Key.space	n/a
121.962	0.0745	243924	keystroke_a	a	n/a
122.127	0.09	244254	keystroke_n	n	n/a
122.277	0.09	244554	keystroke_i	i	n/a
122.4565	0.0905	244913	keystroke_m	m	n/a
122.606	0.106	245212	keystroke_a	a	n/a
122.742	0.09	245484	keystroke_l	l	n/a
123.222	0.03	246444	keystroke_Key.enter	Key.enter	n/a
123.259	8.8895	246518	prompt	n/a	necessary form hotel modification\n
124.0165	0.09	248033	keystroke_n	n	n/a
124.1215	0.105	248243	keystroke_e	e	n/a
124.4065	0.06	248813	keystroke_c	c	n/a
124.557	0.075	249114	keystroke_e	e	n/a
124.932	0.044	249864	keystroke_s	s	n/a
125.067	0.0595	250134	keystroke_s	s	n/a
125.247	0.06	250494	keystroke_a	a	n/a
125.6515	0.0455	251303	keystroke_y	y	n/a
125.9665	0.075	251933	keystroke_Key.backspace	Key.backspace	n/a
126.0865	0.075	252173	keystroke_r	r	n/a
126.3415	0.075	252683	keystroke_y	y	n/a
126.822	0.06	253644	keystroke_Key.space	Key.space	n/a
127.332	0.0895	254664	keystroke_f	f	n/a
127.512	0.06	255024	keystroke_r	r	n/a
127.587	0.1045	255174	keystroke_o	o	n/a
127.6315	0.1055	255263	keystroke_m	m	n/a
127.8415	0.105	255683	keystroke_Key.space	Key.space	n/a
128.2325	0.059	256465	keystroke_h	h	n/a
128.3815	0.09	256763	keystroke_o	o	n/a
128.5765	0.075	257153	keystroke_t	t	n/a
128.741	0.076	257482	keystroke_e	e	n/a
128.861	0.06	257722	keystroke_l	l	n/a
129.1015	0.0755	258203	keystroke_Key.space	Key.space	n/a
129.6865	0.0755	259373	keystroke_m	m	n/a
129.8365	0.075	259673	keystroke_o	o	n/a
130.1815	0.075	260363	keystroke_d	d	n/a
130.3165	0.1055	260633	keystroke_i	i	n/a
130.467	0.045	260934	keystroke_f	f	n/a
130.5865	0.075	261173	keystroke_i	i	n/a
130.7815	0.12	261563	keystroke_c	c	n/a
131.097	0.075	262194	keystroke_a	a	n/a
131.337	0.0445	262674	keystroke_t	t	n/a
131.397	0.1795	262794	keystroke_i	i	n/a
131.457	0.1345	262914	keystroke_o	o	n/a
131.517	0.105	263034	keystroke_n	n	n/a
132.0715	0.075	264143	keystroke_Key.enter	Key.enter	n/a
132.1535	9.595	264307	prompt	n/a	changing carnival divisions estimate\n
132.807	0.0745	265614	keystroke_c	c	n/a
132.987	0.0595	265974	keystroke_h	h	n/a
133.0615	0.075	266123	keystroke_a	a	n/a
133.1965	0.09	266393	keystroke_n	n	n/a
133.3465	0.0755	266693	keystroke_g	g	n/a
133.452	0.135	266904	keystroke_i	i	n/a
133.557	0.105	267114	keystroke_n	n	n/a
133.647	0.074	267294	keystroke_g	g	n/a
134.412	0.0745	268824	keystroke_Key.space	Key.space	n/a
134.6965	0.09	269393	keystroke_c	c	n/a
134.8315	0.091	269663	keystroke_a	a	n/a
134.9975	0.074	269995	keystroke_r	r	n/a
135.2675	0.0745	270535	keystroke_n	n	n/a
135.507	0.0745	271014	keystroke_i	i	n/a
135.6875	0.0895	271375	keystroke_v	v	n/a
135.8665	0.075	271733	keystroke_a	a	n/a
135.987	0.0745	271974	keystroke_l	l	n/a
136.362	0.0595	272724	keystroke_Key.space	Key.space	n/a
136.767	0.075	273534	keystroke_d	d	n/a
136.9315	0.0755	273863	keystroke_i	i	n/a
137.157	0.06	274314	keystroke_v	v	n/a
137.292	0.074	274584	keystroke_i	i	n/a
137.442	0.0605	274884	keystroke_s	s	n/a
137.6215	0.03	275243	keystroke_i	i	n/a
138.4765	0.105	276953	keystroke_Key.backspace	Key.backspace	n/a
139.1515	0.165	278303	keystroke_i	i	n/a
139.1965	0.1505	278393	keystroke_o	o	n/a
139.3315	0.1055	278663	keystroke_n	n	n/a
139.5115	0.09	279023	keystroke_s	s	n/a
139.7215	0.06	279443	keystroke_Key.space	Key.space	n/a
140.201	0.091	280402	keystroke_e	e	n/a
140.4415	0.0755	280883	keystroke_s	s	n/a
140.682	0.0445	281364	keystroke_t	t	n/a
140.7865	0.1055	281573	keystroke_i	i	n/a
140.8925	0.134	281785	keystroke_m	m	n/a
140.9965	0.0905	281993	keystroke_a	a	n/a
141.2215	0.105	282443	keystroke_t	t	n/a
141.312	0.1045	282624	keystroke_e	e	n/a
141.6565	0.0905	283313	keystroke_Key.enter	Key.enter	n/a
141.7535	6.5645	283507	prompt	n/a	pickup closing cannon building\n
142.5265	0.0595	285053	keystroke_p	p	n/a
142.737	0.06	285474	keystroke_i	i	n/a
142.871	0.06	285742	keystroke_c	c	n/a
143.007	0.075	286014	keystroke_k	k	n/a
143.216	0.0755	286432	keystroke_u	u	n/a
143.441	0.0755	286882	keystroke_p	p	n/a
143.9215	0.06	287843	keystroke_Key.space	Key.space	n/a
144.207	0.06	288414	keystroke_c	c	n/a
144.327	0.0755	288654	keystroke_l	l	n/a
144.507	0.06	289014	keystroke_o	o	n/a
144.5815	0.0895	289163	keystroke_s	s	n/a
144.7315	0.1055	289463	keystroke_i	i	n/a
144.791	0.106	289582	keystroke_n	n	n/a
144.911	0.0755	289822	keystroke_g	g	n/a
145.211	0.0605	290422	keystroke_Key.space	Key.space	n/a
145.542	0.09	291084	keystroke_c	c	n/a
145.692	0.074	291384	keystroke_a	a	n/a
145.887	0.06	291774	keystroke_n	n	n/a
146.007	0.09	292014	keystroke_n	n	n/a
146.157	0.12	292314	keystroke_o	o	n/a
146.247	0.134	292494	keystroke_n	n	n/a
146.6215	0.075	293243	keystroke_Key.space	Key.space	n/a
146.8915	0.0755	293783	keystroke_b	b	n/a
147.086	0.0755	294172	keystroke_u	u	n/a
147.297	0.075	294594	keystroke_i	i	n/a
147.522	0.059	295044	keystroke_l	l	n/a
147.7015	0.075	295403	keystroke_d	d	n/a
147.807	0.105	295614	keystroke_i	i	n/a
147.852	0.1195	295704	keystroke_n	n	n/a
147.987	0.074	295974	keystroke_g	g	n/a
148.242	0.075	296484	keystroke_Key.enter	Key.enter	n/a
148.3225	8.2765	296645	prompt	n/a	alive enemies guatemala sterling\n
148.917	0.06	297834	keystroke_a	a	n/a
149.1565	0.06	298313	keystroke_l	l	n/a
149.3815	0.075	298763	keystroke_i	i	n/a
149.502	0.075	299004	keystroke_v	v	n/a
149.637	0.075	299274	keystroke_e	e	n/a
149.787	0.074	299574	keystroke_Key.space	Key.space	n/a
150.4165	0.0755	300833	keystroke_e	e	n/a
150.641	0.061	301282	keystroke_n	n	n/a
150.717	0.09	301434	keystroke_e	e	n/a
151.0315	0.0745	302063	keystroke_m	m	n/a
151.212	0.0595	302424	keystroke_i	i	n/a
151.3315	0.0755	302663	keystroke_e	e	n/a
151.542	0.06	303084	keystroke_s	s	n/a
151.812	0.06	303624	keystroke_Key.space	Key.space	n/a
152.3515	0.09	304703	keystroke_g	g	n/a
152.6065	0.061	305213	keystroke_u	u	n/a
152.727	0.0595	305454	keystroke_a	a	n/a
152.9665	0.0755	305933	keystroke_t	t	n/a
153.1475	0.0745	306295	keystroke_e	e	n/a
153.402	0.0895	306804	keystroke_m	m	n/a
153.672	0.075	307344	keystroke_a	a	n/a
154.2865	0.075	308573	keystroke_l	l	n/a
154.3765	0.09	308753	keystroke_a	a	n/a
154.8415	0.06	309683	keystroke_Key.space	Key.space	n/a
154.992	0.09	309984	keystroke_s	s	n/a
155.292	0.09	310584	keystroke_t	t	n/a
155.592	0.09	311184	keystroke_e	e	n/a
155.742	0.074	311484	keystroke_r	r	n/a
155.997	0.0745	311994	keystroke_l	l	n/a
156.177	0.1345	312354	keystroke_i	i	n/a
156.2525	0.119	312505	keystroke_n	n	n/a
156.3565	0.075	312713	keystroke_g	g	n/a
156.507	0.0895	313014	keystroke_Key.enter	Key.enter	n/a
156.603	9.7305	313206	prompt	n/a	putting vision finger steam\n
157.4215	0.1055	314843	keystroke_p	p	n/a
157.6915	0.06	315383	keystroke_u	u	n/a
157.8265	0.015	315653	keystroke_t	t	n/a
157.902	0.09	315804	keystroke_t	t	n/a
158.022	0.1195	316044	keystroke_i	i	n/a
158.0965	0.1205	316193	keystroke_n	n	n/a
158.233	0.059	316466	keystroke_f	f	n/a
158.8015	0.135	317603	keystroke_Key.backspace	Key.backspace	n/a
159.087	0.075	318174	keystroke_g	g	n/a
159.267	0.059	318534	keystroke_Key.space	Key.space	n/a
159.792	0.075	319584	keystroke_f	f	n/a
159.927	0.1345	319854	keystroke_i	i	n/a
160.0765	0.0455	320153	keystroke_n	n	n/a
160.1515	0.045	320303	keystroke_n	n	n/a
161.2015	0.06	322403	keystroke_Key.backspace	Key.backspace	n/a
161.351	0.0755	322702	keystroke_Key.backspace	Key.backspace	n/a
161.501	0.091	323002	keystroke_Key.backspace	Key.backspace	n/a
161.9815	0.135	323963	keystroke_Key.backspace	Key.backspace	n/a
163.077	0.0595	326154	keystroke_v	v	n/a
163.2265	0.0755	326453	keystroke_i	i	n/a
163.406	0.076	326812	keystroke_s	s	n/a
163.526	0.1805	327052	keystroke_i	i	n/a
163.587	0.105	327174	keystroke_o	o	n/a
163.631	0.121	327262	keystroke_n	n	n/a
163.9155	0.0755	327831	keystroke_Key.space	Key.space	n/a
164.3365	0.06	328673	keystroke_f	f	n/a
164.4265	0.1205	328853	keystroke_i	i	n/a
164.487	0.119	328974	keystroke_n	n	n/a
164.771	0.076	329542	keystroke_g	g	n/a
164.906	0.1355	329812	keystroke_e	e	n/a
165.026	0.06	330052	keystroke_r	r	n/a
165.2065	0.0745	330413	keystroke_Key.space	Key.space	n/a
165.567	0.0745	331134	keystroke_s	s	n/a
165.791	0.1055	331582	keystroke_t	t	n/a
165.897	0.164	331794	keystroke_e	e	n/a
166.0315	0.105	332063	keystroke_a	a	n/a
166.151	0.09	332302	keystroke_m	m	n/a
166.1815	0.045	332363	keystroke_n	n	n/a
166.257	0.074	332514	keystroke_Key.enter	Key.enter	n/a
166.3405	8.063	332681	prompt	n/a	integral imaging recreation themes\n
167.4115	0.0905	334823	keystroke_i	i	n/a
167.502	0.1045	335004	keystroke_n	n	n/a
167.7565	0.075	335513	keystroke_t	t	n/a
167.9515	0.12	335903	keystroke_e	e	n/a
168.342	0.0745	336684	keystroke_g	g	n/a
168.462	0.09	336924	keystroke_r	r	n/a
168.6565	0.0755	337313	keystroke_a	a	n/a
168.791	0.105	337582	keystroke_l	l	n/a
169.077	0.06	338154	keystroke_Key.space	Key.space	n/a
169.466	0.091	338932	keystroke_i	i	n/a
169.542	0.1045	339084	keystroke_m	m	n/a
169.7065	0.0755	339413	keystroke_a	a	n/a
169.976	0.076	339952	keystroke_g	g	n/a
170.082	0.119	340164	keystroke_i	i	n/a
170.171	0.105	340342	keystroke_n	n	n/a
170.456	0.061	340912	keystroke_g	g	n/a
170.636	0.075	341272	keystroke_Key.space	Key.space	n/a
171.252	0.105	342504	keystroke_r	r	n/a
171.312	0.119	342624	keystroke_e	e	n/a
171.5665	0.091	343133	keystroke_c	c	n/a
171.8365	0.03	343673	keystroke_r	r	n/a
172.0165	0.09	344033	keystroke_e	e	n/a
172.3465	0.0905	344693	keystroke_a	a	n/a
172.602	0.075	345204	keystroke_t	t	n/a
172.722	0.1795	345444	keystroke_i	i	n/a
172.782	0.1345	345564	keystroke_o	o	n/a
172.857	0.1195	345714	keystroke_n	n	n/a
173.186	0.075	346372	keystroke_Key.space	Key.space	n/a
173.457	0.09	346914	keystroke_t	t	n/a
173.5765	0.0905	347153	keystroke_h	h	n/a
173.6815	0.09	347363	keystroke_e	e	n/a
173.847	0.0895	347694	keystroke_m	m	n/a
173.982	0.0595	347964	keystroke_e	e	n/a
174.161	0.091	348322	keystroke_s	s	n/a
174.327	0.074	348654	keystroke_Key.enter	Key.enter	n/a
174.408	11.1405	348816	prompt	n/a	basement wiring there'll referral\n
175.1515	0.045	350303	keystroke_b	b	n/a
175.4065	0.105	350813	keystroke_a	a	n/a
175.7215	0.075	351443	keystroke_s	s	n/a
175.947	0.0445	351894	keystroke_e	e	n/a
176.1565	0.06	352313	keystroke_m	m	n/a
176.667	0.0595	353334	keystroke_e	e	n/a
176.787	0.1045	353574	keystroke_n	n	n/a
176.937	0.0895	353874	keystroke_t	t	n/a
177.447	0.0595	354894	keystroke_Key.space	Key.space	n/a
177.8065	0.075	355613	keystroke_w	w	n/a
178.1815	0.1055	356363	keystroke_i	i	n/a
178.317	0.09	356634	keystroke_r	r	n/a
178.451	0.105	356902	keystroke_i	i	n/a
178.586	0.046	357172	keystroke_g	g	n/a
178.676	0.0755	357352	keystroke_n	n	n/a
179.6815	0.09	359363	keystroke_Key.backspace	Key.backspace	n/a
180.596	0.075	361192	keystroke_Key.backspace	Key.backspace	n/a
181.077	0.0745	362154	keystroke_n	n	n/a
181.166	0.075	362332	keystroke_g	g	n/a
181.301	0.0605	362602	keystroke_Key.space	Key.space	n/a
181.856	0.0915	363712	keystroke_t	t	n/a
182.0065	0.06	364013	keystroke_h	h	n/a
182.111	0.136	364222	keystroke_e	e	n/a
182.2615	0.12	364523	keystroke_r	r	n/a
182.3665	0.0445	364733	keystroke_e	e	n/a
182.847	0.0745	365694	keystroke_'	'	n/a
183.086	0.061	366172	keystroke_l	l	n/a
183.191	0.09	366382	keystroke_l	l	n/a
183.492	0.074	366984	keystroke_Key.space	Key.space	n/a
183.762	0.105	367524	keystroke_r	r	n/a
183.8365	0.12	367673	keystroke_e	e	n/a
184.106	0.06	368212	keystroke_f	f	n/a
184.257	0.105	368514	keystroke_e	e	n/a
184.557	0.09	369114	keystroke_r	r	n/a
184.887	0.105	369774	keystroke_r	r	n/a
185.0965	0.075	370193	keystroke_a	a	n/a
185.2165	0.09	370433	keystroke_l	l	n/a
185.4715	0.075	370943	keystroke_Key.enter	Key.enter	n/a
185.553	6.3405	371106	prompt	n/a	theater looked madonna refer\n
186.2515	0.105	372503	keystroke_t	t	n/a
186.4015	0.0755	372803	keystroke_h	h	n/a
186.4465	0.12	372893	keystroke_e	e	n/a
186.792	0.1045	373584	keystroke_a	a	n/a
186.972	0.0895	373944	keystroke_t	t	n/a
187.0465	0.225	374093	keystroke_e	e	n/a
187.2265	0.105	374453	keystroke_r	r	n/a
187.6915	0.075	375383	keystroke_Key.space	Key.space	n/a
188.127	0.09	376254	keystroke_l	l	n/a
188.337	0.06	376674	keystroke_o	o	n/a
188.457	0.104	376914	keystroke_o	o	n/a
188.516	0.121	377032	keystroke_k	k	n/a
188.7115	0.1345	377423	keystroke_e	e	n/a
188.922	0.105	377844	keystroke_d	d	n/a
189.072	0.0745	378144	keystroke_Key.space	Key.space	n/a
189.3715	0.0755	378743	keystroke_m	m	n/a
189.597	0.075	379194	keystroke_a	a	n/a
189.822	0.0595	379644	keystroke_d	d	n/a
190.0915	0.1055	380183	keystroke_o	o	n/a
190.3315	0.045	380663	keystroke_n	n	n/a
190.4665	0.0905	380933	keystroke_n	n	n/a
190.6015	0.0755	381203	keystroke_a	a	n/a
190.7815	0.075	381563	keystroke_Key.space	Key.space	n/a
191.202	0.089	382404	keystroke_r	r	n/a
191.2775	0.1185	382555	keystroke_e	e	n/a
191.4415	0.0905	382883	keystroke_f	f	n/a
191.5615	0.165	383123	keystroke_e	e	n/a
191.6815	0.0605	383363	keystroke_r	r	n/a
191.787	0.1045	383574	keystroke_Key.enter	Key.enter	n/a
191.898	5.9655	383796	prompt	n/a	lane assault dialog ground\n
192.7615	0.0755	385523	keystroke_l	l	n/a
192.8515	0.09	385703	keystroke_a	a	n/a
193.0315	0.0905	386063	keystroke_n	n	n/a
193.1665	0.06	386333	keystroke_e	e	n/a
193.332	0.075	386664	keystroke_Key.space	Key.space	n/a
193.497	0.09	386994	keystroke_a	a	n/a
193.647	0.09	387294	keystroke_s	s	n/a
193.842	0.075	387684	keystroke_s	s	n/a
194.007	0.09	388014	keystroke_a	a	n/a
194.142	0.075	388284	keystroke_u	u	n/a
194.561	0.105	389122	keystroke_l	l	n/a
194.682	0.0895	389364	keystroke_t	t	n/a
195.0265	0.06	390053	keystroke_Key.space	Key.space	n/a
195.5215	0.0745	391043	keystroke_d	d	n/a
195.702	0.074	391404	keystroke_i	i	n/a
195.792	0.059	391584	keystroke_a	a	n/a
195.942	0.0745	391884	keystroke_l	l	n/a
196.137	0.09	392274	keystroke_o	o	n/a
196.346	0.046	392692	keystroke_g	g	n/a
196.5265	0.06	393053	keystroke_Key.space	Key.space	n/a
196.9915	0.0755	393983	keystroke_g	g	n/a
197.157	0.06	394314	keystroke_r	r	n/a
197.232	0.06	394464	keystroke_o	o	n/a
197.427	0.12	394854	keystroke_u	u	n/a
197.502	0.1195	395004	keystroke_n	n	n/a
197.637	0.09	395274	keystroke_d	d	n/a
197.771	0.0905	395542	keystroke_Key.enter	Key.enter	n/a
197.867	8.666	395734	prompt	n/a	determine beam stat moderator\n
198.687	0.104	397374	keystroke_f	f	n/a
199.091	0.105	398182	keystroke_Key.backspace	Key.backspace	n/a
199.242	0.09	398484	keystroke_d	d	n/a
199.362	0.135	398724	keystroke_e	e	n/a
199.557	0.089	399114	keystroke_t	t	n/a
199.691	0.181	399382	keystroke_e	e	n/a
199.8275	0.1035	399655	keystroke_r	r	n/a
200.0515	0.0605	400103	keystroke_m	m	n/a
200.201	0.121	400402	keystroke_i	i	n/a
200.262	0.135	400524	keystroke_n	n	n/a
200.366	0.105	400732	keystroke_e	e	n/a
200.8315	0.075	401663	keystroke_Key.space	Key.space	n/a
201.102	0.075	402204	keystroke_b	b	n/a
201.192	0.165	402384	keystroke_e	e	n/a
201.311	0.076	402622	keystroke_a	a	n/a
201.567	0.075	403134	keystroke_m	m	n/a
201.807	0.06	403614	keystroke_Key.space	Key.space	n/a
202.0775	0.0895	404155	keystroke_s	s	n/a
202.317	0.09	404634	keystroke_t	t	n/a
202.421	0.106	404842	keystroke_a	a	n/a
202.542	0.105	405084	keystroke_t	t	n/a
202.917	0.0745	405834	keystroke_Key.space	Key.space	n/a
203.172	0.0755	406344	keystroke_m	m	n/a
203.367	0.075	406734	keystroke_o	o	n/a
203.472	0.089	406944	keystroke_d	d	n/a
203.622	0.135	407244	keystroke_e	e	n/a
203.772	0.075	407544	keystroke_r	r	n/a
203.922	0.075	407844	keystroke_a	a	n/a
204.042	0.075	408084	keystroke_t	t	n/a
204.177	0.135	408354	keystroke_i	i	n/a
204.5375	0.0595	409075	keystroke_o	o	n/a
204.612	0.09	409224	keystroke_r	r	n/a
205.3015	0.09	410603	keystroke_Key.backspace	Key.backspace	n/a
205.4515	0.09	410903	keystroke_Key.backspace	Key.backspace	n/a
205.6165	0.09	411233	keystroke_Key.backspace	Key.backspace	n/a
206.2465	0.075	412493	keystroke_o	o	n/a
206.3365	0.06	412673	keystroke_r	r	n/a
206.441	0.09	412882	keystroke_Key.enter	Key.enter	n/a
206.537	10.8265	413074	prompt	n/a	necessary nicole strange reuters\n
207.3265	0.06	414653	keystroke_n	n	n/a
207.4165	0.1055	414833	keystroke_e	e	n/a
207.6565	0.06	415313	keystroke_c	c	n/a
207.821	0.09	415642	keystroke_e	e	n/a
208.7365	0.06	417473	keystroke_s	s	n/a
208.9015	0.0755	417803	keystroke_s	s	n/a
209.067	0.119	418134	keystroke_a	a	n/a
209.441	0.0755	418882	keystroke_r	r	n/a
209.562	0.0905	419124	keystroke_y	y	n/a
209.8915	0.0595	419783	keystroke_Key.space	Key.space	n/a
210.4615	0.09	420923	keystroke_n	n	n/a
210.567	0.1045	421134	keystroke_i	i	n/a
210.777	0.0595	421554	keystroke_c	c	n/a
211.0315	0.105	422063	keystroke_o	o	n/a
211.2115	0.105	422423	keystroke_l	l	n/a
211.3315	0.076	422663	keystroke_e	e	n/a
211.5265	0.06	423053	keystroke_Key.space	Key.space	n/a
211.7215	0.0755	423443	keystroke_s	s	n/a
211.9315	0.091	423863	keystroke_t	t	n/a
211.9765	0.1505	423953	keystroke_r	r	n/a
212.232	0.075	424464	keystroke_a	a	n/a
212.367	0.075	424734	keystroke_n	n	n/a
212.637	0.075	425274	keystroke_g	g	n/a
212.742	0.075	425484	keystroke_e	e	n/a
213.687	0.044	427374	keystroke_Key.space	Key.space	n/a
214.121	0.091	428242	keystroke_r	r	n/a
214.1815	0.1195	428363	keystroke_e	e	n/a
214.422	0.0745	428844	keystroke_t	t	n/a
214.692	0.105	429384	keystroke_u	u	n/a
215.0815	0.0755	430163	keystroke_Key.backspace	Key.backspace	n/a
215.2915	0.075	430583	keystroke_Key.backspace	Key.backspace	n/a
215.727	0.0595	431454	keystroke_u	u	n/a
215.8315	0.1055	431663	keystroke_t	t	n/a
215.9965	0.1955	431993	keystroke_e	e	n/a
216.1015	0.1205	432203	keystroke_r	r	n/a
217.017	0.09	434034	keystroke_s	s	n/a
217.257	0.105	434514	keystroke_Key.enter	Key.enter	n/a
217.3685	10.705	434737	prompt	n/a	dates what revealed disclosure\n
218.097	0.134	436194	keystroke_d	d	n/a
218.232	0.105	436464	keystroke_a	a	n/a
218.3965	0.105	436793	keystroke_t	t	n/a
218.5165	0.106	437033	keystroke_e	e	n/a
218.742	0.0895	437484	keystroke_s	s	n/a
218.8765	0.09	437753	keystroke_Key.space	Key.space	n/a
219.0415	0.105	438083	keystroke_w	w	n/a
219.177	0.09	438354	keystroke_h	h	n/a
219.2365	0.075	438473	keystroke_a	a	n/a
219.3565	0.075	438713	keystroke_t	t	n/a
219.4915	0.0605	438983	keystroke_Key.space	Key.space	n/a
219.6715	0.1055	439343	keystroke_r	r	n/a
219.7615	0.18	439523	keystroke_e	e	n/a
220.0615	0.0905	440123	keystroke_a	a	n/a
220.707	0.06	441414	keystroke_v	v	n/a
223.109	0.0275	446218	keystroke_Key.backspace	Key.backspace	n/a
223.2265	0.06	446453	keystroke_Key.backspace	Key.backspace	n/a
223.6915	0.105	447383	keystroke_Key.backspace	Key.backspace	n/a
224.382	0.091	448764	keystroke_e	e	n/a
224.802	0.1045	449604	keystroke_v	v	n/a
224.9215	0.195	449843	keystroke_e	e	n/a
225.057	0.105	450114	keystroke_a	a	n/a
225.192	0.089	450384	keystroke_l	l	n/a
225.386	0.0915	450772	keystroke_d	d	n/a
225.5215	0.075	451043	keystroke_Key.space	Key.space	n/a
226.2265	0.09	452453	keystroke_d	d	n/a
226.4215	0.0755	452843	keystroke_i	i	n/a
226.512	0.09	453024	keystroke_s	s	n/a
226.7215	0.075	453443	keystroke_c	c	n/a
226.931	0.0905	453862	keystroke_l	l	n/a
227.1415	0.0755	454283	keystroke_o	o	n/a
227.487	0.0595	454974	keystroke_s	s	n/a
227.621	0.1055	455242	keystroke_u	u	n/a
227.771	0.12	455542	keystroke_r	r	n/a
227.831	0.105	455662	keystroke_e	e	n/a
227.9815	0.09	455963	keystroke_Key.enter	Key.enter	n/a
228.078	9.355	456156	prompt	n/a	thousands wasn't rendered participants\n
228.807	0.105	457614	keystroke_t	t	n/a
228.942	0.0895	457884	keystroke_h	h	n/a
229.1065	0.0755	458213	keystroke_o	o	n/a
229.302	0.0745	458604	keystroke_u	u	n/a
229.407	0.075	458814	keystroke_s	s	n/a
229.6165	0.0755	459233	keystroke_a	a	n/a
229.7515	0.09	459503	keystroke_n	n	n/a
229.8725	0.105	459745	keystroke_d	d	n/a
230.1415	0.0755	460283	keystroke_s	s	n/a
230.6065	0.0745	461213	keystroke_Key.space	Key.space	n/a
230.802	0.105	461604	keystroke_w	w	n/a
230.9365	0.135	461873	keystroke_a	a	n/a
231.057	0.0895	462114	keystroke_s	s	n/a
231.2065	0.0745	462413	keystroke_n	n	n/a
231.596	0.106	463192	keystroke_'	'	n/a
231.8225	0.0745	463645	keystroke_t	t	n/a
232.001	0.075	464002	keystroke_Key.space	Key.space	n/a
232.5415	0.1205	465083	keystroke_r	r	n/a
232.6315	0.1345	465263	keystroke_e	e	n/a
233.021	0.06	466042	keystroke_n	n	n/a
233.186	0.121	466372	keystroke_d	d	n/a
233.336	0.15	466672	keystroke_e	e	n/a
233.502	0.105	467004	keystroke_r	r	n/a
233.608	0.208	467216	keystroke_e	e	n/a
233.756	0.106	467512	keystroke_d	d	n/a
234.296	0.075	468592	keystroke_Key.space	Key.space	n/a
234.6715	0.075	469343	keystroke_p	p	n/a
234.7765	0.105	469553	keystroke_a	a	n/a
235.167	0.075	470334	keystroke_r	r	n/a
235.377	0.059	470754	keystroke_t	t	n/a
235.632	0.074	471264	keystroke_i	i	n/a
236.021	0.0605	472042	keystroke_c	c	n/a
236.1415	0.09	472283	keystroke_i	i	n/a
236.546	0.076	473092	keystroke_p	p	n/a
236.681	0.045	473362	keystroke_a	a	n/a
236.8465	0.0745	473693	keystroke_n	n	n/a
236.9965	0.075	473993	keystroke_t	t	n/a
237.2065	0.045	474413	keystroke_s	s	n/a
237.3565	0.075	474713	keystroke_Key.enter	Key.enter	n/a
237.437	11.516	474874	prompt	n/a	porcelain hull sees undergraduate\n
238.392	0.06	476784	keystroke_p	p	n/a
238.8715	0.0755	477743	keystroke_o	o	n/a
238.9615	0.0895	477923	keystroke_r	r	n/a
239.292	0.0445	478584	keystroke_c	c	n/a
239.427	0.0745	478854	keystroke_e	e	n/a
240.5665	0.075	481133	keystroke_l	l	n/a
241.286	0.121	482572	keystroke_a	a	n/a
241.452	0.135	482904	keystroke_i	i	n/a
241.587	0.104	483174	keystroke_n	n	n/a
241.8415	0.06	483683	keystroke_Key.space	Key.space	n/a
242.4415	0.1505	484883	keystroke_h	h	n/a
242.577	0.1045	485154	keystroke_u	u	n/a
242.8625	0.0895	485725	keystroke_l	l	n/a
243.102	0.06	486204	keystroke_l	l	n/a
243.3565	0.075	486713	keystroke_Key.space	Key.space	n/a
243.4615	0.0605	486923	keystroke_s	s	n/a
243.6565	0.06	487313	keystroke_e	e	n/a
243.8215	0.06	487643	keystroke_e	e	n/a
244.062	0.0745	488124	keystroke_s	s	n/a
244.2265	0.0605	488453	keystroke_Key.space	Key.space	n/a
245.247	0.0745	490494	keystroke_u	u	n/a
245.412	0.0745	490824	keystroke_n	n	n/a
245.5465	0.075	491093	keystroke_d	d	n/a
245.6965	0.15	491393	keystroke_e	e	n/a
245.8165	0.075	491633	keystroke_r	r	n/a
246.0865	0.075	492173	keystroke_g	g	n/a
246.2965	0.075	492593	keystroke_r	r	n/a
246.4465	0.0905	492893	keystroke_a	a	n/a
246.6565	0.0605	493313	keystroke_t	t	n/a
246.7915	0.105	493583	keystroke_u	u	n/a
247.241	0.06	494482	keystroke_s	s	n/a
247.6165	0.1355	495233	keystroke_Key.backspace	Key.backspace	n/a
247.692	0.105	495384	keystroke_a	a	n/a
247.811	0.105	495622	keystroke_d	d	n/a
248.186	0.1055	496372	keystroke_Key.backspace	Key.backspace	n/a
248.306	0.1655	496612	keystroke_t	t	n/a
248.411	0.1505	496822	keystroke_e	e	n/a
248.876	0.0755	497752	keystroke_Key.enter	Key.enter	n/a
248.966	13.5775	497932	prompt	n/a	accept belfast bluetooth accreditation\n
249.7465	0.0595	499493	keystroke_a	a	n/a
249.941	0.03	499882	keystroke_c	c	n/a
250.062	0.0595	500124	keystroke_c	c	n/a
250.2415	0.075	500483	keystroke_e	e	n/a
250.3905	0.091	500781	keystroke_p	p	n/a
250.5715	0.075	501143	keystroke_t	t	n/a
250.7205	0.0605	501441	keystroke_Key.space	Key.space	n/a
251.172	0.059	502344	keystroke_b	b	n/a
251.276	0.076	502552	keystroke_e	e	n/a
251.4715	0.075	502943	keystroke_l	l	n/a
251.7115	0.075	503423	keystroke_f	f	n/a
251.8315	0.12	503663	keystroke_a	a	n/a
252.0715	0.1055	504143	keystroke_s	s	n/a
252.3415	0.075	504683	keystroke_t	t	n/a
252.5515	0.045	505103	keystroke_Key.space	Key.space	n/a
253.122	0.119	506244	keystroke_b	b	n/a
253.407	0.075	506814	keystroke_l	l	n/a
253.6615	0.105	507323	keystroke_u	u	n/a
253.7815	0.0755	507563	keystroke_e	e	n/a
253.9465	0.075	507893	keystroke_t	t	n/a
254.0815	0.0595	508163	keystroke_o	o	n/a
254.187	0.104	508374	keystroke_o	o	n/a
254.427	0.0735	508854	keystroke_t	t	n/a
254.5465	0.105	509093	keystroke_h	h	n/a
255.011	0.045	510022	keystroke_Key.space	Key.space	n/a
255.161	0.075	510322	keystroke_a	a	n/a
255.3565	0.045	510713	keystroke_c	c	n/a
255.4615	0.0595	510923	keystroke_c	c	n/a
255.762	0.1195	511524	keystroke_r	r	n/a
255.866	0.09	511732	keystroke_e	e	n/a
256.4515	0.06	512903	keystroke_d	d	n/a
256.6765	0.075	513353	keystroke_i	i	n/a
258.282	0.0745	516564	keystroke_t	t	n/a
258.402	0.104	516804	keystroke_a	a	n/a
258.5365	0.09	517073	keystroke_t	t	n/a
258.7165	0.03	517433	keystroke_t	t	n/a
259.3015	0.09	518603	keystroke_Key.backspace	Key.backspace	n/a
259.857	0.27	519714	keystroke_i	i	n/a
259.947	0.165	519894	keystroke_o	o	n/a
260.081	0.121	520162	keystroke_n	n	n/a
262.4985	0.0425	524997	keystroke_Key.enter	Key.enter	n/a
262.5485	10.255	525097	prompt	n/a	demand butterfly anderson cancelled\n
263.4865	0.0745	526973	keystroke_d	d	n/a
263.6515	0.0755	527303	keystroke_e	e	n/a
263.7865	0.0905	527573	keystroke_m	m	n/a
263.8915	0.1055	527783	keystroke_a	a	n/a
264.0115	0.0905	528023	keystroke_n	n	n/a
264.1615	0.09	528323	keystroke_d	d	n/a
264.2965	0.09	528593	keystroke_Key.space	Key.space	n/a
264.686	0.09	529372	keystroke_b	b	n/a
264.896	0.075	529792	keystroke_u	u	n/a
265.0465	0.075	530093	keystroke_t	t	n/a
265.1815	0.075	530363	keystroke_t	t	n/a
265.3315	0.12	530663	keystroke_e	e	n/a
265.4215	0.0755	530843	keystroke_r	r	n/a
265.7215	0.105	531443	keystroke_l	l	n/a
267.296	0.0605	534592	keystroke_Key.backspace	Key.backspace	n/a
267.5065	0.105	535013	keystroke_f	f	n/a
267.7765	0.0605	535553	keystroke_l	l	n/a
268.0165	0.015	536033	keystroke_y	y	n/a
268.1215	0.075	536243	keystroke_Key.space	Key.space	n/a
269.2015	0.075	538403	keystroke_a	a	n/a
269.6515	0.075	539303	keystroke_n	n	n/a
269.8615	0.135	539723	keystroke_d	d	n/a
270.0865	0.12	540173	keystroke_e	e	n/a
270.222	0.0445	540444	keystroke_r	r	n/a
270.3865	0.029	540773	keystroke_s	s	n/a
270.4915	0.134	540983	keystroke_o	o	n/a
270.5965	0.134	541193	keystroke_n	n	n/a
270.8655	0.076	541731	keystroke_Key.space	Key.space	n/a
271.1215	0.105	542243	keystroke_c	c	n/a
271.2415	0.075	542483	keystroke_a	a	n/a
271.3615	0.075	542723	keystroke_n	n	n/a
271.467	0.0745	542934	keystroke_c	c	n/a
271.7365	0.0905	543473	keystroke_e	e	n/a
271.8865	0.06	543773	keystroke_l	l	n/a
272.022	0.0745	544044	keystroke_l	l	n/a
272.2015	0.105	544403	keystroke_e	e	n/a
272.3505	0.106	544701	keystroke_d	d	n/a
272.7115	0.09	545423	keystroke_Key.enter	Key.enter	n/a
272.8095	9.8935	545619	prompt	n/a	nearby states holy products\n
273.627	0.0595	547254	keystroke_n	n	n/a
273.702	0.1195	547404	keystroke_e	e	n/a
273.7615	0.105	547523	keystroke_a	a	n/a
273.896	0.091	547792	keystroke_r	r	n/a
274.167	0.089	548334	keystroke_b	b	n/a
274.541	0.045	549082	keystroke_y	y	n/a
274.7965	0.0745	549593	keystroke_Key.space	Key.space	n/a
275.5915	0.105	551183	keystroke_s	s	n/a
275.8015	0.0755	551603	keystroke_t	t	n/a
275.8605	0.091	551721	keystroke_a	a	n/a
276.0115	0.075	552023	keystroke_t	t	n/a
276.1315	0.0905	552263	keystroke_s	s	n/a
276.3715	0.075	552743	keystroke_e	e	n/a
276.7015	0.06	553403	keystroke_Key.backspace	Key.backspace	n/a
276.8215	0.0895	553643	keystroke_Key.backspace	Key.backspace	n/a
276.896	0.0905	553792	keystroke_e	e	n/a
277.076	0.091	554152	keystroke_s	s	n/a
277.1815	0.0745	554363	keystroke_Key.space	Key.space	n/a
278.006	0.0755	556012	keystroke_h	h	n/a
278.216	0.0755	556432	keystroke_o	o	n/a
278.441	0.0605	556882	keystroke_l	l	n/a
278.561	0.0905	557122	keystroke_l	l	n/a
279.2515	0.1345	558503	keystroke_Key.backspace	Key.backspace	n/a
279.551	0.0755	559102	keystroke_y	y	n/a
279.7165	0.0595	559433	keystroke_Key.space	Key.space	n/a
280.661	0.075	561322	keystroke_p	p	n/a
280.8415	0.0755	561683	keystroke_r	r	n/a
280.946	0.09	561892	keystroke_o	o	n/a
281.231	0.0755	562462	keystroke_d	d	n/a
281.412	0.06	562824	keystroke_u	u	n/a
281.6515	0.1055	563303	keystroke_c	c	n/a
282.251	0.06	564502	keystroke_t	t	n/a
282.4915	0.0595	564983	keystroke_s	s	n/a
282.6565	0.0445	565313	keystroke_Key.enter	Key.enter	n/a
282.7075	7.7055	565415	prompt	n/a	elimination vegas slovakia copies\n
283.5265	0.044	567053	keystroke_e	e	n/a
283.6915	0.075	567383	keystroke_l	l	n/a
283.9015	0.0895	567803	keystroke_i	i	n/a
283.977	0.1485	567954	keystroke_m	m	n/a
284.157	0.135	568314	keystroke_i	i	n/a
284.4715	0.09	568943	keystroke_n	n	n/a
284.6515	0.0895	569303	keystroke_a	a	n/a
284.861	0.06	569722	keystroke_t	t	n/a
284.9965	0.195	569993	keystroke_i	i	n/a
285.0565	0.12	570113	keystroke_o	o	n/a
285.1315	0.12	570263	keystroke_n	n	n/a
285.521	0.0755	571042	keystroke_Key.space	Key.space	n/a
286.121	0.1055	572242	keystroke_v	v	n/a
286.301	0.0905	572602	keystroke_e	e	n/a
286.6605	0.0615	573321	keystroke_g	g	n/a
286.7515	0.1345	573503	keystroke_a	a	n/a
286.8705	0.091	573741	keystroke_s	s	n/a
287.021	0.075	574042	keystroke_Key.space	Key.space	n/a
287.3365	0.0745	574673	keystroke_s	s	n/a
287.456	0.09	574912	keystroke_l	l	n/a
287.652	0.074	575304	keystroke_o	o	n/a
287.847	0.059	575694	keystroke_v	v	n/a
288.0415	0.0745	576083	keystroke_a	a	n/a
288.296	0.0605	576592	keystroke_k	k	n/a
288.4765	0.0595	576953	keystroke_i	i	n/a
288.657	0.0745	577314	keystroke_a	a	n/a
288.821	0.075	577642	keystroke_Key.space	Key.space	n/a
289.2865	0.06	578573	keystroke_c	c	n/a
289.4505	0.046	578901	keystroke_o	o	n/a
289.632	0.06	579264	keystroke_p	p	n/a
289.871	0.075	579742	keystroke_i	i	n/a
289.9615	0.0895	579923	keystroke_e	e	n/a
290.172	0.074	580344	keystroke_s	s	n/a
290.351	0.0605	580702	keystroke_Key.enter	Key.enter	n/a
290.4185	11.6795	580837	prompt	n/a	curve theoretical colleagues caribbean\n
291.4165	0.075	582833	keystroke_c	c	n/a
291.596	0.0455	583192	keystroke_u	u	n/a
291.7315	0.0595	583463	keystroke_r	r	n/a
291.956	0.09	583912	keystroke_v	v	n/a
292.0915	0.06	584183	keystroke_e	e	n/a
292.2115	0.089	584423	keystroke_Key.space	Key.space	n/a
292.4665	0.075	584933	keystroke_t	t	n/a
292.617	0.0745	585234	keystroke_h	h	n/a
292.7515	0.09	585503	keystroke_e	e	n/a
292.9305	0.0915	585861	keystroke_o	o	n/a
293.7265	0.0755	587453	keystroke_r	r	n/a
294.207	0.0745	588414	keystroke_e	e	n/a
294.4015	0.06	588803	keystroke_t	t	n/a
294.5515	0.06	589103	keystroke_i	i	n/a
294.7165	0.09	589433	keystroke_c	c	n/a
294.8515	0.09	589703	keystroke_a	a	n/a
294.9415	0.075	589883	keystroke_l	l	n/a
295.5865	0.0295	591173	keystroke_Key.space	Key.space	n/a
295.8265	0.12	591653	keystroke_c	c	n/a
296.1265	0.09	592253	keystroke_o	o	n/a
296.4115	0.0595	592823	keystroke_l	l	n/a
296.5765	0.0745	593153	keystroke_l	l	n/a
297.2065	0.15	594413	keystroke_e	e	n/a
297.3265	0.105	594653	keystroke_a	a	n/a
297.6265	0.0595	595253	keystroke_g	g	n/a
297.7465	0.06	595493	keystroke_u	u	n/a
297.836	0.0905	595672	keystroke_e	e	n/a
298.0465	0.09	596093	keystroke_s	s	n/a
298.181	0.075	596362	keystroke_Key.space	Key.space	n/a
299.2915	0.075	598583	keystroke_c	c	n/a
299.4415	0.075	598883	keystroke_a	a	n/a
300.2965	0.045	600593	keystroke_r	r	n/a
300.506	0.09	601012	keystroke_i	i	n/a
300.926	0.045	601852	keystroke_b	b	n/a
301.016	0.0905	602032	keystroke_b	b	n/a
301.1965	0.075	602393	keystroke_e	e	n/a
301.436	0.075	602872	keystroke_a	a	n/a
301.752	0.0745	603504	keystroke_n	n	n/a
302.0065	0.09	604013	keystroke_Key.enter	Key.enter	n/a
302.1035	7.479	604207	prompt	n/a	jeremy calcium midlands msie\n
302.861	0.06	605722	keystroke_j	j	n/a
302.9515	0.075	605903	keystroke_e	e	n/a
303.1905	0.091	606381	keystroke_r	r	n/a
303.2955	0.106	606591	keystroke_e	e	n/a
303.4305	0.1055	606861	keystroke_m	m	n/a
304.091	0.076	608182	keystroke_y	y	n/a
304.376	0.0755	608752	keystroke_Key.space	Key.space	n/a
304.647	0.0895	609294	keystroke_c	c	n/a
304.8865	0.075	609773	keystroke_a	a	n/a
305.4115	0.0605	610823	keystroke_l	l	n/a
305.7555	0.076	611511	keystroke_c	c	n/a
305.9965	0.075	611993	keystroke_i	i	n/a
306.1615	0.075	612323	keystroke_u	u	n/a
306.3865	0.075	612773	keystroke_m	m	n/a
306.6115	0.06	613223	keystroke_Key.space	Key.space	n/a
306.9265	0.09	613853	keystroke_m	m	n/a
307.091	0.0755	614182	keystroke_i	i	n/a
307.332	0.074	614664	keystroke_d	d	n/a
307.481	0.0755	614962	keystroke_l	l	n/a
307.5865	0.075	615173	keystroke_a	a	n/a
307.752	0.0745	615504	keystroke_n	n	n/a
307.902	0.164	615804	keystroke_d	d	n/a
308.0965	0.075	616193	keystroke_s	s	n/a
308.3215	0.0745	616643	keystroke_Key.space	Key.space	n/a
308.801	0.09	617602	keystroke_m	m	n/a
309.1165	0.0745	618233	keystroke_s	s	n/a
309.251	0.06	618502	keystroke_i	i	n/a
309.3865	0.0745	618773	keystroke_e	e	n/a
309.506	0.0755	619012	keystroke_Key.enter	Key.enter	n/a
309.586	7.497	619172	prompt	n/a	church broader morgan works\n
310.3915	0.06	620783	keystroke_c	c	n/a
310.4965	0.075	620993	keystroke_h	h	n/a
310.6765	0.0895	621353	keystroke_u	u	n/a
310.8415	0.075	621683	keystroke_r	r	n/a
311.351	0.1205	622702	keystroke_c	c	n/a
311.562	0.074	623124	keystroke_h	h	n/a
311.771	0.0905	623542	keystroke_Key.space	Key.space	n/a
311.996	0.075	623992	keystroke_b	b	n/a
312.147	0.0895	624294	keystroke_r	r	n/a
312.4165	0.045	624833	keystroke_o	o	n/a
312.7765	0.075	625553	keystroke_a	a	n/a
312.9715	0.0745	625943	keystroke_d	d	n/a
313.451	0.1055	626902	keystroke_e	e	n/a
313.571	0.105	627142	keystroke_r	r	n/a
313.781	0.0605	627562	keystroke_Key.space	Key.space	n/a
314.1115	0.0745	628223	keystroke_m	m	n/a
314.231	0.1205	628462	keystroke_o	o	n/a
314.366	0.06	628732	keystroke_r	r	n/a
314.711	0.0605	629422	keystroke_g	g	n/a
314.8165	0.1045	629633	keystroke_a	a	n/a
314.966	0.0905	629932	keystroke_n	n	n/a
315.042	0.074	630084	keystroke_e	e	n/a
315.2505	0.06	630501	keystroke_Key.space	Key.space	n/a
315.626	0.0755	631252	keystroke_Key.backspace	Key.backspace	n/a
315.7615	0.09	631523	keystroke_Key.backspace	Key.backspace	n/a
316.0615	0.075	632123	keystroke_Key.space	Key.space	n/a
316.362	0.0895	632724	keystroke_w	w	n/a
316.4965	0.075	632993	keystroke_o	o	n/a
316.6465	0.0755	633293	keystroke_r	r	n/a
316.7665	0.089	633533	keystroke_k	k	n/a
316.931	0.075	633862	keystroke_s	s	n/a
316.9915	0.09	633983	keystroke_Key.enter	Key.enter	n/a
317.0875	7.5555	634175	prompt	n/a	railway vienna muslim constructed\n
317.9515	0.0745	635903	keystroke_r	r	n/a
318.191	0.0155	636382	keystroke_a	a	n/a
318.2665	0.06	636533	keystroke_i	i	n/a
318.462	0.075	636924	keystroke_l	l	n/a
318.6555	0.106	637311	keystroke_w	w	n/a
318.8665	0.075	637733	keystroke_a	a	n/a
319.0005	0.076	638001	keystroke_y	y	n/a
319.286	0.06	638572	keystroke_Key.space	Key.space	n/a
319.7805	0.06	639561	keystroke_v	v	n/a
319.9165	0.0755	639833	keystroke_i	i	n/a
320.0515	0.105	640103	keystroke_e	e	n/a
320.2305	0.061	640461	keystroke_n	n	n/a
320.3965	0.075	640793	keystroke_n	n	n/a
320.5005	0.076	641001	keystroke_a	a	n/a
320.6805	0.061	641361	keystroke_Key.space	Key.space	n/a
321.116	0.0755	642232	keystroke_m	m	n/a
321.3115	0.0755	642623	keystroke_u	u	n/a
321.447	0.074	642894	keystroke_s	s	n/a
321.6265	0.06	643253	keystroke_l	l	n/a
321.8065	0.09	643613	keystroke_i	i	n/a
321.9115	0.105	643823	keystroke_m	m	n/a
322.1665	0.075	644333	keystroke_Key.space	Key.space	n/a
322.5265	0.0755	645053	keystroke_c	c	n/a
322.6465	0.06	645293	keystroke_o	o	n/a
322.7815	0.075	645563	keystroke_n	n	n/a
322.9015	0.0905	645803	keystroke_s	s	n/a
323.1715	0.06	646343	keystroke_t	t	n/a
323.3665	0.06	646733	keystroke_r	r	n/a
323.5315	0.06	647063	keystroke_u	u	n/a
323.742	0.0895	647484	keystroke_c	c	n/a
323.9665	0.06	647933	keystroke_t	t	n/a
324.2515	0.135	648503	keystroke_e	e	n/a
324.387	0.1045	648774	keystroke_d	d	n/a
324.5505	0.09	649101	keystroke_Key.enter	Key.enter	n/a
324.647	7.991	649294	prompt	n/a	sauce automatic resistance news\n
325.3165	0.12	650633	keystroke_s	s	n/a
325.496	0.09	650992	keystroke_a	a	n/a
325.631	0.0605	651262	keystroke_u	u	n/a
325.841	0.09	651682	keystroke_c	c	n/a
325.9615	0.0895	651923	keystroke_e	e	n/a
326.111	0.06	652222	keystroke_Key.space	Key.space	n/a
326.5165	0.0745	653033	keystroke_a	a	n/a
326.831	0.0605	653662	keystroke_u	u	n/a
327.0715	0.0745	654143	keystroke_t	t	n/a
327.221	0.075	654442	keystroke_o	o	n/a
327.401	0.0755	654802	keystroke_m	m	n/a
327.477	0.0745	654954	keystroke_a	a	n/a
327.686	0.0605	655372	keystroke_t	t	n/a
327.7915	0.075	655583	keystroke_i	i	n/a
328.076	0.075	656152	keystroke_c	c	n/a
328.256	0.0755	656512	keystroke_Key.space	Key.space	n/a
328.871	0.075	657742	keystroke_r	r	n/a
329.006	0.0755	658012	keystroke_e	e	n/a
329.247	0.044	658494	keystroke_s	s	n/a
329.486	0.075	658972	keystroke_i	i	n/a
329.7715	0.0745	659543	keystroke_s	s	n/a
330.5955	0.046	661191	keystroke_t	t	n/a
330.776	0.0895	661552	keystroke_a	a	n/a
330.9265	0.0745	661853	keystroke_n	n	n/a
331.061	0.106	662122	keystroke_c	c	n/a
331.256	0.061	662512	keystroke_e	e	n/a
331.376	0.075	662752	keystroke_Key.space	Key.space	n/a
331.9165	0.06	663833	keystroke_n	n	n/a
332.006	0.075	664012	keystroke_e	e	n/a
332.2315	0.075	664463	keystroke_w	w	n/a
332.456	0.03	664912	keystroke_s	s	n/a
332.561	0.075	665122	keystroke_Key.enter	Key.enter	n/a
332.642	9.941	665284	prompt	n/a	expo discipline guardian metropolitan\n
333.537	0.0745	667074	keystroke_e	e	n/a
333.7915	0.06	667583	keystroke_x	x	n/a
334.002	0.0595	668004	keystroke_p	p	n/a
334.1815	0.0595	668363	keystroke_o	o	n/a
334.4505	0.075	668901	keystroke_Key.space	Key.space	n/a
334.947	0.0145	669894	keystroke_d	d	n/a
334.991	0.0755	669982	keystroke_i	i	n/a
335.126	0.0755	670252	keystroke_s	s	n/a
336.162	0.045	672324	keystroke_c	c	n/a
336.296	0.0755	672592	keystroke_i	i	n/a
336.5215	0.1345	673043	keystroke_p	p	n/a
336.597	0.134	673194	keystroke_l	l	n/a
336.927	0.104	673854	keystroke_i	i	n/a
337.2115	0.0905	674423	keystroke_n	n	n/a
337.361	0.0595	674722	keystroke_e	e	n/a
337.4655	0.0605	674931	keystroke_Key.space	Key.space	n/a
338.1865	0.0595	676373	keystroke_g	g	n/a
338.3215	0.06	676643	keystroke_u	u	n/a
338.396	0.09	676792	keystroke_a	a	n/a
338.531	0.09	677062	keystroke_r	r	n/a
339.0265	0.06	678053	keystroke_d	d	n/a
339.1015	0.075	678203	keystroke_i	i	n/a
339.2215	0.074	678443	keystroke_a	a	n/a
339.3265	0.074	678653	keystroke_n	n	n/a
339.5515	0.06	679103	keystroke_Key.space	Key.space	n/a
339.9715	0.0445	679943	keystroke_m	m	n/a
340.061	0.09	680122	keystroke_e	e	n/a
340.3015	0.0445	680603	keystroke_t	t	n/a
340.5265	0.06	681053	keystroke_r	r	n/a
340.6465	0.075	681293	keystroke_o	o	n/a
340.8855	0.091	681771	keystroke_p	p	n/a
341.2315	0.0605	682463	keystroke_o	o	n/a
341.456	0.0605	682912	keystroke_l	l	n/a
341.6365	0.075	683273	keystroke_i	i	n/a
341.832	0.074	683664	keystroke_t	t	n/a
342.0415	0.1205	684083	keystroke_a	a	n/a
342.2215	0.105	684443	keystroke_n	n	n/a
342.492	0.0885	684984	keystroke_Key.enter	Key.enter	n/a
342.5875	11.1105	685175	prompt	n/a	interference hierarchy savings mitchell\n
343.752	0.0745	687504	keystroke_i	i	n/a
343.9015	0.0895	687803	keystroke_n	n	n/a
344.0965	0.075	688193	keystroke_t	t	n/a
344.202	0.1345	688404	keystroke_e	e	n/a
344.3215	0.09	688643	keystroke_r	r	n/a
344.8315	0.045	689663	keystroke_f	f	n/a
345.342	0.09	690684	keystroke_e	e	n/a
345.4765	0.105	690953	keystroke_r	r	n/a
345.5665	0.105	691133	keystroke_e	e	n/a
345.7615	0.045	691523	keystroke_n	n	n/a
345.9265	0.075	691853	keystroke_c	c	n/a
346.0315	0.105	692063	keystroke_e	e	n/a
346.1515	0.059	692303	keystroke_Key.space	Key.space	n/a
346.946	0.075	693892	keystroke_h	h	n/a
347.112	0.074	694224	keystroke_i	i	n/a
347.322	0.104	694644	keystroke_e	e	n/a
347.592	0.074	695184	keystroke_r	r	n/a
348.356	0.09	696712	keystroke_a	a	n/a
348.837	0.074	697674	keystroke_r	r	n/a
349.1365	0.075	698273	keystroke_c	c	n/a
349.3015	0.075	698603	keystroke_h	h	n/a
349.4965	0.074	698993	keystroke_y	y	n/a
349.7505	0.076	699501	keystroke_Key.space	Key.space	n/a
350.456	0.105	700912	keystroke_s	s	n/a
350.711	0.076	701422	keystroke_a	a	n/a
351.0865	0.06	702173	keystroke_v	v	n/a
351.3115	0.12	702623	keystroke_i	i	n/a
351.417	0.1195	702834	keystroke_n	n	n/a
351.5515	0.06	703103	keystroke_g	g	n/a
351.8215	0.075	703643	keystroke_s	s	n/a
351.9865	0.075	703973	keystroke_Key.space	Key.space	n/a
352.2865	0.105	704573	keystroke_m	m	n/a
352.4515	0.09	704903	keystroke_i	i	n/a
352.5865	0.06	705173	keystroke_t	t	n/a
352.901	0.0755	705802	keystroke_c	c	n/a
352.991	0.0755	705982	keystroke_h	h	n/a
353.1565	0.0595	706313	keystroke_e	e	n/a
353.306	0.0605	706612	keystroke_l	l	n/a
353.4415	0.105	706883	keystroke_l	l	n/a
353.621	0.075	707242	keystroke_Key.enter	Key.enter	n/a
353.702	8.1585	707404	prompt	n/a	arrives march shanghai isolated\n
354.611	0.1505	709222	keystroke_a	a	n/a
354.8965	0.06	709793	keystroke_r	r	n/a
355.0605	0.061	710121	keystroke_r	r	n/a
355.1965	0.09	710393	keystroke_i	i	n/a
355.8115	0.135	711623	keystroke_v	v	n/a
355.9915	0.075	711983	keystroke_e	e	n/a
356.201	0.09	712402	keystroke_s	s	n/a
356.351	0.075	712702	keystroke_Key.space	Key.space	n/a
356.696	0.0305	713392	keystroke_m	m	n/a
356.756	0.0755	713512	keystroke_a	a	n/a
356.9215	0.075	713843	keystroke_r	r	n/a
357.146	0.075	714292	keystroke_c	c	n/a
357.2665	0.09	714533	keystroke_h	h	n/a
357.536	0.075	715072	keystroke_Key.space	Key.space	n/a
357.701	0.0755	715402	keystroke_s	s	n/a
357.791	0.09	715582	keystroke_h	h	n/a
357.9115	0.09	715823	keystroke_a	a	n/a
358.0615	0.075	716123	keystroke_n	n	n/a
358.286	0.0905	716572	keystroke_g	g	n/a
359.2015	0.075	718403	keystroke_h	h	n/a
359.3065	0.105	718613	keystroke_a	a	n/a
359.5015	0.075	719003	keystroke_i	i	n/a
359.7115	0.06	719423	keystroke_Key.space	Key.space	n/a
360.3565	0.06	720713	keystroke_i	i	n/a
360.536	0.0755	721072	keystroke_s	s	n/a
360.7765	0.06	721553	keystroke_o	o	n/a
360.956	0.0605	721912	keystroke_l	l	n/a
361.0765	0.105	722153	keystroke_a	a	n/a
361.3315	0.06	722663	keystroke_t	t	n/a
361.4665	0.134	722933	keystroke_e	e	n/a
361.6155	0.075	723231	keystroke_d	d	n/a
361.781	0.0745	723562	keystroke_Key.enter	Key.enter	n/a
361.871	6.3015	723742	prompt	n/a	lions song creates characters\n
362.6355	0.06	725271	keystroke_l	l	n/a
362.8765	0.06	725753	keystroke_i	i	n/a
363.0405	0.076	726081	keystroke_o	o	n/a
363.1915	0.105	726383	keystroke_n	n	n/a
363.3565	0.059	726713	keystroke_s	s	n/a
363.4905	0.0755	726981	keystroke_Key.space	Key.space	n/a
363.7455	0.061	727491	keystroke_s	s	n/a
363.9265	0.12	727853	keystroke_o	o	n/a
364.0765	0.105	728153	keystroke_n	n	n/a
364.3155	0.061	728631	keystroke_g	g	n/a
364.4955	0.075	728991	keystroke_Key.space	Key.space	n/a
364.8715	0.059	729743	keystroke_c	c	n/a
365.1115	0.12	730223	keystroke_r	r	n/a
365.1865	0.135	730373	keystroke_e	e	n/a
365.3515	0.105	730703	keystroke_a	a	n/a
365.4865	0.105	730973	keystroke_t	t	n/a
365.5765	0.105	731153	keystroke_e	e	n/a
365.8165	0.06	731633	keystroke_s	s	n/a
366.0255	0.06	732051	keystroke_Key.space	Key.space	n/a
366.266	0.075	732532	keystroke_c	c	n/a
366.3565	0.0895	732713	keystroke_h	h	n/a
366.461	0.12	732922	keystroke_a	a	n/a
366.671	0.075	733342	keystroke_r	r	n/a
366.836	0.09	733672	keystroke_a	a	n/a
367.3015	0.06	734603	keystroke_c	c	n/a
367.556	0.0755	735112	keystroke_t	t	n/a
367.676	0.12	735352	keystroke_e	e	n/a
367.781	0.105	735562	keystroke_r	r	n/a
367.9465	0.0745	735893	keystroke_s	s	n/a
368.081	0.09	736162	keystroke_Key.enter	Key.enter	n/a
368.18	6.3525	736360	prompt	n/a	candles fatal sells yeast\n
369.0105	0.0755	738021	keystroke_c	c	n/a
369.146	0.0895	738292	keystroke_a	a	n/a
369.296	0.075	738592	keystroke_n	n	n/a
369.491	0.045	738982	keystroke_c	c	n/a
369.776	0.105	739552	keystroke_Key.backspace	Key.backspace	n/a
369.911	0.105	739822	keystroke_d	d	n/a
370.076	0.075	740152	keystroke_l	l	n/a
370.1965	0.0895	740393	keystroke_e	e	n/a
370.4205	0.075	740841	keystroke_s	s	n/a
370.541	0.075	741082	keystroke_Key.space	Key.space	n/a
370.886	0.105	741772	keystroke_f	f	n/a
371.006	0.105	742012	keystroke_a	a	n/a
371.171	0.075	742342	keystroke_t	t	n/a
371.351	0.09	742702	keystroke_a	a	n/a
371.486	0.075	742972	keystroke_l	l	n/a
371.7715	0.06	743543	keystroke_Key.space	Key.space	n/a
371.9065	0.075	743813	keystroke_s	s	n/a
372.1315	0.045	744263	keystroke_e	e	n/a
372.3115	0.06	744623	keystroke_l	l	n/a
372.4455	0.06	744891	keystroke_l	l	n/a
372.5515	0.09	745103	keystroke_s	s	n/a
372.7305	0.0605	745461	keystroke_Key.space	Key.space	n/a
373.151	0.0905	746302	keystroke_y	y	n/a
373.256	0.06	746512	keystroke_e	e	n/a
373.661	0.0905	747322	keystroke_a	a	n/a
373.931	0.045	747862	keystroke_s	s	n/a
374.036	0.075	748072	keystroke_t	t	n/a
374.456	0.0745	748912	keystroke_Key.enter	Key.enter	n/a
374.538	12.13	749076	prompt	n/a	nomination unknown champagne accidents\n
375.4465	0.09	750893	keystroke_n	n	n/a
375.5665	0.135	751133	keystroke_o	o	n/a
375.7165	0.1195	751433	keystroke_m	m	n/a
375.8965	0.1045	751793	keystroke_i	i	n/a
375.986	0.105	751972	keystroke_n	n	n/a
376.106	0.09	752212	keystroke_a	a	n/a
376.301	0.075	752602	keystroke_t	t	n/a
376.391	0.1655	752782	keystroke_i	i	n/a
376.4365	0.09	752873	keystroke_o	o	n/a
376.4965	0.12	752993	keystroke_n	n	n/a
376.7215	0.0895	753443	keystroke_Key.space	Key.space	n/a
377.3515	0.0745	754703	keystroke_u	u	n/a
377.501	0.0905	755002	keystroke_n	n	n/a
377.831	0.0905	755662	keystroke_k	k	n/a
378.191	0.0605	756382	keystroke_n	n	n/a
378.3705	0.0755	756741	keystroke_o	o	n/a
378.5065	0.0745	757013	keystroke_w	w	n/a
378.6715	0.075	757343	keystroke_n	n	n/a
378.881	0.06	757762	keystroke_Key.space	Key.space	n/a
379.5265	0.09	759053	keystroke_c	c	n/a
379.6315	0.0595	759263	keystroke_h	h	n/a
379.706	0.075	759412	keystroke_a	a	n/a
379.9165	0.0595	759833	keystroke_m	m	n/a
380.081	0.1055	760162	keystroke_p	p	n/a
380.216	0.09	760432	keystroke_a	a	n/a
380.5315	0.0895	761063	keystroke_g	g	n/a
380.6515	0.1045	761303	keystroke_i	i	n/a
381.2965	0.075	762593	keystroke_n	n	n/a
382.346	0.0905	764692	keystroke_Key.backspace	Key.backspace	n/a
382.526	0.09	765052	keystroke_Key.backspace	Key.backspace	n/a
383.261	0.06	766522	keystroke_n	n	n/a
383.336	0.075	766672	keystroke_e	e	n/a
383.426	0.075	766852	keystroke_Key.space	Key.space	n/a
384.0865	0.0745	768173	keystroke_a	a	n/a
384.266	0.0455	768532	keystroke_c	c	n/a
384.4165	0.0595	768833	keystroke_c	c	n/a
384.5665	0.0595	769133	keystroke_i	i	n/a
385.226	0.06	770452	keystroke_d	d	n/a
385.361	0.105	770722	keystroke_e	e	n/a
385.646	0.0755	771292	keystroke_n	n	n/a
385.8555	0.031	771711	keystroke_t	t	n/a
386.1715	0.059	772343	keystroke_s	s	n/a
386.5755	0.091	773151	keystroke_Key.enter	Key.enter	n/a
386.672	4.8255	773344	prompt	n/a	brakes units park a\n
387.5065	0.06	775013	keystroke_b	b	n/a
387.6865	0.134	775373	keystroke_r	r	n/a
387.7765	0.18	775553	keystroke_e	e	n/a
387.926	0.0755	775852	keystroke_a	a	n/a
388.1365	0.075	776273	keystroke_k	k	n/a
388.2265	0.075	776453	keystroke_s	s	n/a
388.796	0.075	777592	keystroke_Key.space	Key.space	n/a
389.0965	0.0895	778193	keystroke_u	u	n/a
389.201	0.09	778402	keystroke_n	n	n/a
389.381	0.0755	778762	keystroke_i	i	n/a
389.5315	0.0745	779063	keystroke_t	t	n/a
389.7265	0.06	779453	keystroke_s	s	n/a
389.891	0.0595	779782	keystroke_Key.space	Key.space	n/a
390.2365	0.09	780473	keystroke_p	p	n/a
390.3265	0.075	780653	keystroke_a	a	n/a
390.4615	0.075	780923	keystroke_r	r	n/a
390.581	0.075	781162	keystroke_k	k	n/a
390.776	0.0755	781552	keystroke_Key.space	Key.space	n/a
390.8365	0.0745	781673	keystroke_a	a	n/a
391.1215	0.075	782243	keystroke_t	t	n/a
391.4215	0.075	782843	keystroke_Key.enter	Key.enter	n/a
391.503	8.8595	783006	prompt	n/a	tragedy sealed demanding technical\n
392.4115	0.1045	784823	keystroke_t	t	n/a
392.726	0.075	785452	keystroke_r	r	n/a
392.9505	0.0605	785901	keystroke_a	a	n/a
393.311	0.0605	786622	keystroke_g	g	n/a
393.4765	0.1195	786953	keystroke_e	e	n/a
393.716	0.1055	787432	keystroke_d	d	n/a
394.046	0.075	788092	keystroke_y	y	n/a
394.3015	0.0745	788603	keystroke_Key.space	Key.space	n/a
394.691	0.0605	789382	keystroke_s	s	n/a
394.8865	0.0445	789773	keystroke_e	e	n/a
395.0215	0.104	790043	keystroke_a	a	n/a
395.1565	0.09	790313	keystroke_l	l	n/a
395.366	0.12	790732	keystroke_e	e	n/a
395.5315	0.075	791063	keystroke_d	d	n/a
395.6505	0.06	791301	keystroke_Key.space	Key.space	n/a
396.7765	0.09	793553	keystroke_d	d	n/a
396.9415	0.075	793883	keystroke_e	e	n/a
397.091	0.09	794182	keystroke_m	m	n/a
397.181	0.075	794362	keystroke_a	a	n/a
397.376	0.06	794752	keystroke_n	n	n/a
397.616	0.06	795232	keystroke_d	d	n/a
397.706	0.12	795412	keystroke_i	i	n/a
397.781	0.1055	795562	keystroke_n	n	n/a
397.871	0.0755	795742	keystroke_g	g	n/a
398.051	0.075	796102	keystroke_Key.space	Key.space	n/a
398.6515	0.09	797303	keystroke_t	t	n/a
398.8915	0.0895	797783	keystroke_e	e	n/a
399.191	0.06	798382	keystroke_c	c	n/a
399.266	0.0755	798532	keystroke_h	h	n/a
399.476	0.0905	798952	keystroke_n	n	n/a
399.596	0.09	799192	keystroke_i	i	n/a
399.7755	0.09	799551	keystroke_c	c	n/a
399.896	0.0905	799792	keystroke_a	a	n/a
400.0165	0.089	800033	keystroke_l	l	n/a
400.2865	0.0745	800573	keystroke_Key.enter	Key.enter	n/a
400.369	7.6915	800738	prompt	n/a	additions party bank schools\n
401.2315	0.0745	802463	keystroke_a	a	n/a
401.471	0.0445	802942	keystroke_s	s	n/a
401.6355	0.06	803271	keystroke_d	d	n/a
402.2955	0.075	804591	keystroke_Key.backspace	Key.backspace	n/a
402.4455	0.1055	804891	keystroke_Key.backspace	Key.backspace	n/a
402.566	0.0755	805132	keystroke_d	d	n/a
402.7605	0.076	805521	keystroke_d	d	n/a
403.076	0.06	806152	keystroke_i	i	n/a
403.271	0.06	806542	keystroke_t	t	n/a
403.361	0.1655	806722	keystroke_i	i	n/a
403.406	0.105	806812	keystroke_o	o	n/a
403.481	0.1195	806962	keystroke_n	n	n/a
403.6465	0.09	807293	keystroke_s	s	n/a
403.9005	0.076	807801	keystroke_Key.space	Key.space	n/a
404.4715	0.0595	808943	keystroke_p	p	n/a
404.5155	0.0755	809031	keystroke_a	a	n/a
404.6815	0.075	809363	keystroke_r	r	n/a
405.011	0.075	810022	keystroke_t	t	n/a
405.101	0.105	810202	keystroke_y	y	n/a
405.416	0.0905	810832	keystroke_Key.space	Key.space	n/a
405.7615	0.03	811523	keystroke_b	b	n/a
405.8065	0.09	811613	keystroke_a	a	n/a
405.9265	0.075	811853	keystroke_n	n	n/a
406.1215	0.075	812243	keystroke_k	k	n/a
406.376	0.06	812752	keystroke_Key.space	Key.space	n/a
406.8705	0.0455	813741	keystroke_s	s	n/a
407.1265	0.0745	814253	keystroke_c	c	n/a
407.261	0.09	814522	keystroke_h	h	n/a
407.486	0.03	814972	keystroke_o	o	n/a
407.591	0.075	815182	keystroke_o	o	n/a
407.771	0.075	815542	keystroke_l	l	n/a
407.876	0.06	815752	keystroke_s	s	n/a
407.9815	0.0745	815963	keystroke_Key.enter	Key.enter	n/a
408.072	6.4355	816144	prompt	n/a	vanilla essentials blessed alex\n
408.926	0.0755	817852	keystroke_v	v	n/a
409.0605	0.09	818121	keystroke_a	a	n/a
409.1965	0.0895	818393	keystroke_n	n	n/a
409.361	0.075	818722	keystroke_i	i	n/a
409.616	0.06	819232	keystroke_l	l	n/a
409.766	0.0755	819532	keystroke_l	l	n/a
409.871	0.09	819742	keystroke_a	a	n/a
410.111	0.06	820222	keystroke_Key.space	Key.space	n/a
410.411	0.0755	820822	keystroke_e	e	n/a
410.6205	0.031	821241	keystroke_s	s	n/a
410.741	0.0595	821482	keystroke_s	s	n/a
410.9655	0.045	821931	keystroke_e	e	n/a
411.0705	0.075	822141	keystroke_n	n	n/a
411.2805	0.045	822561	keystroke_t	t	n/a
411.4015	0.0745	822803	keystroke_i	i	n/a
411.5205	0.076	823041	keystroke_a	a	n/a
411.6865	0.0595	823373	keystroke_l	l	n/a
411.8065	0.0595	823613	keystroke_s	s	n/a
411.9715	0.0595	823943	keystroke_Key.space	Key.space	n/a
412.361	0.0595	824722	keystroke_b	b	n/a
412.586	0.075	825172	keystroke_l	l	n/a
412.691	0.06	825382	keystroke_e	e	n/a
412.8865	0.059	825773	keystroke_s	s	n/a
413.0065	0.06	826013	keystroke_s	s	n/a
413.1865	0.0745	826373	keystroke_e	e	n/a
413.321	0.0755	826642	keystroke_d	d	n/a
413.426	0.09	826852	keystroke_Key.space	Key.space	n/a
413.756	0.09	827512	keystroke_a	a	n/a
413.9215	0.09	827843	keystroke_l	l	n/a
414.0865	0.06	828173	keystroke_e	e	n/a
414.3415	0.075	828683	keystroke_x	x	n/a
414.4315	0.075	828863	keystroke_Key.enter	Key.enter	n/a
414.5125	8.455	829025	prompt	n/a	contamination proof nations centuries\n
415.2715	0.0595	830543	keystroke_c	c	n/a
415.4215	0.1045	830843	keystroke_o	o	n/a
415.6015	0.0895	831203	keystroke_n	n	n/a
415.7815	0.0445	831563	keystroke_t	t	n/a
415.931	0.0905	831862	keystroke_a	a	n/a
416.096	0.09	832192	keystroke_m	m	n/a
416.261	0.1355	832522	keystroke_i	i	n/a
416.351	0.0905	832702	keystroke_n	n	n/a
416.5315	0.0895	833063	keystroke_a	a	n/a
416.711	0.075	833422	keystroke_t	t	n/a
416.846	0.1655	833692	keystroke_i	i	n/a
416.876	0.105	833752	keystroke_o	o	n/a
416.9365	0.1195	833873	keystroke_n	n	n/a
417.5065	0.06	835013	keystroke_Key.space	Key.space	n/a
417.7915	0.135	835583	keystroke_p	p	n/a
418.0165	0.045	836033	keystroke_r	r	n/a
418.4065	0.0745	836813	keystroke_o	o	n/a
418.556	0.09	837112	keystroke_o	o	n/a
419.0365	0.075	838073	keystroke_f	f	n/a
419.471	0.0595	838942	keystroke_Key.space	Key.space	n/a
419.9965	0.015	839993	keystroke_n	n	n/a
420.0265	0.015	840053	keystroke_a	a	n/a
420.146	0.06	840292	keystroke_t	t	n/a
420.2215	0.1945	840443	keystroke_i	i	n/a
420.296	0.1055	840592	keystroke_o	o	n/a
420.356	0.1355	840712	keystroke_n	n	n/a
420.806	0.0755	841612	keystroke_s	s	n/a
420.941	0.0755	841882	keystroke_Key.space	Key.space	n/a
421.3315	0.075	842663	keystroke_c	c	n/a
421.5265	0.089	843053	keystroke_e	e	n/a
421.6455	0.09	843291	keystroke_n	n	n/a
421.796	0.0905	843592	keystroke_t	t	n/a
422.0365	0.075	844073	keystroke_u	u	n/a
422.2615	0.06	844523	keystroke_r	r	n/a
422.4415	0.075	844883	keystroke_i	i	n/a
422.5315	0.09	845063	keystroke_e	e	n/a
422.7565	0.09	845513	keystroke_s	s	n/a
422.8915	0.074	845783	keystroke_Key.enter	Key.enter	n/a
422.973	8.3195	845946	prompt	n/a	throws mess officially array\n
423.761	0.09	847522	keystroke_t	t	n/a
423.8965	0.0895	847793	keystroke_h	h	n/a
424.0015	0.075	848003	keystroke_r	r	n/a
424.1215	0.105	848243	keystroke_o	o	n/a
424.3165	0.045	848633	keystroke_w	w	n/a
424.5265	0.045	849053	keystroke_s	s	n/a
424.676	0.09	849352	keystroke_Key.space	Key.space	n/a
425.426	0.06	850852	keystroke_Key.backspace	Key.backspace	n/a
425.561	0.0905	851122	keystroke_Key.backspace	Key.backspace	n/a
426.5365	0.045	853073	keystroke_s	s	n/a
426.6565	0.059	853313	keystroke_Key.space	Key.space	n/a
426.8805	0.076	853761	keystroke_m	m	n/a
426.9415	0.06	853883	keystroke_e	e	n/a
427.1365	0.0595	854273	keystroke_s	s	n/a
427.2865	0.059	854573	keystroke_s	s	n/a
427.451	0.0605	854902	keystroke_Key.space	Key.space	n/a
427.901	0.105	855802	keystroke_o	o	n/a
428.081	0.0605	856162	keystroke_f	f	n/a
428.246	0.0605	856492	keystroke_f	f	n/a
428.456	0.06	856912	keystroke_i	i	n/a
428.606	0.0755	857212	keystroke_c	c	n/a
428.741	0.075	857482	keystroke_i	i	n/a
428.846	0.105	857692	keystroke_a	a	n/a
428.9965	0.0745	857993	keystroke_l	l	n/a
429.161	0.075	858322	keystroke_l	l	n/a
429.701	0.0605	859402	keystroke_y	y	n/a
429.8355	0.09	859671	keystroke_Key.space	Key.space	n/a
430.3605	0.076	860721	keystroke_a	a	n/a
430.556	0.0605	861112	keystroke_r	r	n/a
430.6765	0.09	861353	keystroke_r	r	n/a
430.8865	0.06	861773	keystroke_a	a	n/a
430.991	0.075	861982	keystroke_y	y	n/a
431.2165	0.0745	862433	keystroke_Key.enter	Key.enter	n/a
431.298	10.54	862596	prompt	n/a	unity unit relaxation lotus\n
432.101	0.0605	864202	keystroke_u	u	n/a
432.222	0.089	864444	keystroke_n	n	n/a
432.3715	0.075	864743	keystroke_i	i	n/a
432.491	0.0755	864982	keystroke_t	t	n/a
432.701	0.0455	865402	keystroke_y	y	n/a
432.8505	0.091	865701	keystroke_Key.space	Key.space	n/a
433.6765	0.074	867353	keystroke_i	i	n/a
433.9005	0.075	867801	keystroke_n	n	n/a
434.171	0.045	868342	keystroke_t	t	n/a
434.3205	0.0605	868641	keystroke_Key.space	Key.space	n/a
434.906	0.075	869812	keystroke_Key.backspace	Key.backspace	n/a
435.191	0.0455	870382	keystroke_Key.backspace	Key.backspace	n/a
435.3115	0.09	870623	keystroke_Key.backspace	Key.backspace	n/a
435.536	0.045	871072	keystroke_Key.backspace	Key.backspace	n/a
436.076	0.0455	872152	keystroke_u	u	n/a
436.1965	0.0745	872393	keystroke_n	n	n/a
436.346	0.1055	872692	keystroke_i	i	n/a
436.511	0.0755	873022	keystroke_t	t	n/a
436.646	0.075	873292	keystroke_Key.space	Key.space	n/a
437.0365	0.135	874073	keystroke_r	r	n/a
437.1565	0.09	874313	keystroke_e	e	n/a
437.3215	0.0895	874643	keystroke_l	l	n/a
437.4265	0.12	874853	keystroke_a	a	n/a
437.816	0.0755	875632	keystroke_x	x	n/a
438.1615	0.0895	876323	keystroke_t	t	n/a
439.001	0.105	878002	keystroke_Key.backspace	Key.backspace	n/a
439.496	0.12	878992	keystroke_a	a	n/a
439.9465	0.0595	879893	keystroke_t	t	n/a
439.991	0.15	879982	keystroke_i	i	n/a
440.021	0.105	880042	keystroke_o	o	n/a
440.0815	0.12	880163	keystroke_n	n	n/a
440.4405	0.06	880881	keystroke_Key.space	Key.space	n/a
440.8155	0.0455	881631	keystroke_l	l	n/a
441.1315	0.12	882263	keystroke_o	o	n/a
441.356	0.0605	882712	keystroke_t	t	n/a
441.491	0.09	882982	keystroke_u	u	n/a
441.6115	0.0895	883223	keystroke_s	s	n/a
441.761	0.075	883522	keystroke_Key.enter	Key.enter	n/a
441.8455	6.0375	883691	prompt	n/a	correct parcel total studied\n
442.557	0.074	885114	keystroke_c	c	n/a
442.811	0.1055	885622	keystroke_o	o	n/a
442.976	0.0455	885952	keystroke_r	r	n/a
443.111	0.0755	886222	keystroke_r	r	n/a
443.231	0.105	886462	keystroke_e	e	n/a
443.426	0.1055	886852	keystroke_c	c	n/a
443.6515	0.075	887303	keystroke_t	t	n/a
443.906	0.0755	887812	keystroke_Key.space	Key.space	n/a
444.2065	0.09	888413	keystroke_p	p	n/a
444.3415	0.075	888683	keystroke_a	a	n/a
444.5215	0.075	889043	keystroke_r	r	n/a
444.7915	0.06	889583	keystroke_c	c	n/a
444.9265	0.089	889853	keystroke_e	e	n/a
445.0315	0.105	890063	keystroke_l	l	n/a
445.3005	0.06	890601	keystroke_Key.space	Key.space	n/a
445.6915	0.089	891383	keystroke_t	t	n/a
445.8555	0.076	891711	keystroke_o	o	n/a
445.9765	0.074	891953	keystroke_t	t	n/a
446.156	0.0755	892312	keystroke_a	a	n/a
446.2615	0.09	892523	keystroke_l	l	n/a
446.4865	0.089	892973	keystroke_Key.space	Key.space	n/a
446.6205	0.1655	893241	keystroke_s	s	n/a
446.9365	0.0445	893873	keystroke_t	t	n/a
447.041	0.0755	894082	keystroke_u	u	n/a
447.236	0.09	894472	keystroke_d	d	n/a
447.386	0.075	894772	keystroke_i	i	n/a
447.5665	0.1355	895133	keystroke_e	e	n/a
447.686	0.105	895372	keystroke_d	d	n/a
447.807	0.074	895614	keystroke_Key.enter	Key.enter	n/a
447.889	7.854	895778	prompt	n/a	lighter discussed concern titans\n
448.646	0.105	897292	keystroke_l	l	n/a
448.871	0.0895	897742	keystroke_i	i	n/a
449.0215	0.075	898043	keystroke_g	g	n/a
449.1115	0.075	898223	keystroke_h	h	n/a
449.2465	0.09	898493	keystroke_t	t	n/a
449.5005	0.121	899001	keystroke_e	e	n/a
449.5905	0.0905	899181	keystroke_r	r	n/a
449.7415	0.089	899483	keystroke_Key.space	Key.space	n/a
450.1315	0.09	900263	keystroke_d	d	n/a
450.2815	0.075	900563	keystroke_i	i	n/a
450.4005	0.076	900801	keystroke_s	s	n/a
450.6415	0.0745	901283	keystroke_c	c	n/a
450.851	0.06	901702	keystroke_u	u	n/a
451.3165	0.0745	902633	keystroke_s	s	n/a
451.4515	0.09	902903	keystroke_s	s	n/a
451.676	0.0905	903352	keystroke_e	e	n/a
451.9165	0.09	903833	keystroke_d	d	n/a
452.096	0.075	904192	keystroke_Key.space	Key.space	n/a
452.471	0.045	904942	keystroke_c	c	n/a
452.546	0.0905	905092	keystroke_o	o	n/a
452.696	0.09	905392	keystroke_n	n	n/a
452.8015	0.09	905603	keystroke_s	s	n/a
453.266	0.09	906532	keystroke_Key.backspace	Key.backspace	n/a
453.326	0.1055	906652	keystroke_c	c	n/a
453.4765	0.165	906953	keystroke_e	e	n/a
453.6715	0.09	907343	keystroke_r	r	n/a
453.9705	0.1205	907941	keystroke_n	n	n/a
454.421	0.075	908842	keystroke_Key.space	Key.space	n/a
454.766	0.0895	909532	keystroke_t	t	n/a
454.9155	0.06	909831	keystroke_i	i	n/a
455.0065	0.09	910013	keystroke_t	t	n/a
455.1715	0.105	910343	keystroke_a	a	n/a
455.2915	0.075	910583	keystroke_n	n	n/a
455.5465	0.075	911093	keystroke_s	s	n/a
455.6515	0.09	911303	keystroke_Key.enter	Key.enter	n/a
455.748	9.7895	911496	prompt	n/a	mask mysimon shouldn't reuters\n
456.4315	0.075	912863	keystroke_m	m	n/a
456.4915	0.075	912983	keystroke_a	a	n/a
456.5815	0.105	913163	keystroke_s	s	n/a
456.7305	0.091	913461	keystroke_k	k	n/a
456.9855	0.076	913971	keystroke_Key.space	Key.space	n/a
457.3765	0.09	914753	keystroke_m	m	n/a
457.796	0.06	915592	keystroke_y	y	n/a
457.946	0.075	915892	keystroke_s	s	n/a
458.156	0.105	916312	keystroke_i	i	n/a
459.6565	0.09	919313	keystroke_m	m	n/a
459.896	0.1205	919792	keystroke_o	o	n/a
459.986	0.1195	919972	keystroke_n	n	n/a
460.5565	0.045	921113	keystroke_Key.space	Key.space	n/a
460.7665	0.09	921533	keystroke_s	s	n/a
460.9315	0.075	921863	keystroke_h	h	n/a
461.0805	0.105	922161	keystroke_o	o	n/a
461.2615	0.0745	922523	keystroke_u	u	n/a
461.4865	0.0745	922973	keystroke_l	l	n/a
461.6215	0.0895	923243	keystroke_d	d	n/a
461.756	0.0755	923512	keystroke_n	n	n/a
462.0115	0.0745	924023	keystroke_'	'	n/a
462.2515	0.0595	924503	keystroke_t	t	n/a
462.386	0.0745	924772	keystroke_Key.space	Key.space	n/a
463.2715	0.09	926543	keystroke_r	r	n/a
463.3315	0.12	926663	keystroke_e	e	n/a
463.6615	0.075	927323	keystroke_t	t	n/a
464.051	0.1055	928102	keystroke_Key.backspace	Key.backspace	n/a
464.3665	0.135	928733	keystroke_u	u	n/a
464.5315	0.105	929063	keystroke_t	t	n/a
464.9365	0.165	929873	keystroke_e	e	n/a
465.0565	0.105	930113	keystroke_r	r	n/a
465.2665	0.09	930533	keystroke_s	s	n/a
465.4615	0.0745	930923	keystroke_Key.enter	Key.enter	n/a
465.543	6.28	931086	prompt	n/a	copies pressing contacts wonder\n
466.3455	0.0615	932691	keystroke_c	c	n/a
466.496	0.06	932992	keystroke_o	o	n/a
466.6615	0.06	933323	keystroke_p	p	n/a
466.8565	0.06	933713	keystroke_i	i	n/a
466.9315	0.0595	933863	keystroke_e	e	n/a
467.1115	0.0595	934223	keystroke_s	s	n/a
467.246	0.06	934492	keystroke_Key.space	Key.space	n/a
467.5315	0.1195	935063	keystroke_p	p	n/a
467.801	0.09	935602	keystroke_r	r	n/a
467.9965	0.075	935993	keystroke_e	e	n/a
468.206	0.0605	936412	keystroke_s	s	n/a
468.3565	0.06	936713	keystroke_s	s	n/a
468.4455	0.1205	936891	keystroke_i	i	n/a
468.5355	0.121	937071	keystroke_n	n	n/a
468.671	0.061	937342	keystroke_g	g	n/a
468.806	0.06	937612	keystroke_Key.space	Key.space	n/a
469.2865	0.0595	938573	keystroke_c	c	n/a
469.3615	0.0895	938723	keystroke_o	o	n/a
469.4365	0.105	938873	keystroke_n	n	n/a
469.5865	0.075	939173	keystroke_t	t	n/a
469.7515	0.1045	939503	keystroke_a	a	n/a
470.141	0.0755	940282	keystroke_c	c	n/a
470.3665	0.06	940733	keystroke_t	t	n/a
470.6515	0.075	941303	keystroke_s	s	n/a
470.831	0.06	941662	keystroke_Key.space	Key.space	n/a
471.1165	0.06	942233	keystroke_w	w	n/a
471.2065	0.09	942413	keystroke_o	o	n/a
471.3115	0.105	942623	keystroke_n	n	n/a
471.4315	0.06	942863	keystroke_d	d	n/a
471.5365	0.1345	943073	keystroke_e	e	n/a
471.641	0.105	943282	keystroke_r	r	n/a
471.731	0.09	943462	keystroke_Key.enter	Key.enter	n/a
471.829	7.246	943658	prompt	n/a	herself wiki washington quad\n
472.5265	0.0595	945053	keystroke_h	h	n/a
472.601	0.1055	945202	keystroke_e	e	n/a
472.707	0.074	945414	keystroke_r	r	n/a
472.9315	0.075	945863	keystroke_s	s	n/a
473.1265	0.06	946253	keystroke_e	e	n/a
473.2455	0.09	946491	keystroke_l	l	n/a
473.4705	0.0605	946941	keystroke_f	f	n/a
474.041	0.09	948082	keystroke_Key.space	Key.space	n/a
474.266	0.0905	948532	keystroke_w	w	n/a
474.401	0.075	948802	keystroke_i	i	n/a
474.566	0.075	949132	keystroke_k	k	n/a
474.701	0.075	949402	keystroke_i	i	n/a
474.956	0.06	949912	keystroke_Key.space	Key.space	n/a
475.391	0.06	950782	keystroke_w	w	n/a
475.5715	0.0895	951143	keystroke_a	a	n/a
475.916	0.0755	951832	keystroke_s	s	n/a
476.201	0.0755	952402	keystroke_h	h	n/a
476.321	0.105	952642	keystroke_i	i	n/a
476.531	0.09	953062	keystroke_n	n	n/a
477.2065	0.075	954413	keystroke_g	g	n/a
477.416	0.075	954832	keystroke_t	t	n/a
477.5065	0.06	955013	keystroke_o	o	n/a
477.6115	0.0895	955223	keystroke_n	n	n/a
477.836	0.075	955672	keystroke_Key.space	Key.space	n/a
478.331	0.09	956662	keystroke_q	q	n/a
478.496	0.075	956992	keystroke_u	u	n/a
478.6315	0.104	957263	keystroke_a	a	n/a
478.8415	0.074	957683	keystroke_d	d	n/a
478.9905	0.0755	957981	keystroke_Key.enter	Key.enter	n/a
479.079	6.7995	958158	prompt	n/a	routing indicate spaces climb\n
479.891	0.06	959782	keystroke_r	r	n/a
479.9965	0.0895	959993	keystroke_o	o	n/a
480.206	0.075	960412	keystroke_u	u	n/a
480.356	0.0755	960712	keystroke_t	t	n/a
480.446	0.1055	960892	keystroke_i	i	n/a
480.491	0.1055	960982	keystroke_n	n	n/a
480.6105	0.061	961221	keystroke_g	g	n/a
480.7315	0.075	961463	keystroke_Key.space	Key.space	n/a
481.2415	0.075	962483	keystroke_i	i	n/a
481.2865	0.09	962573	keystroke_n	n	n/a
481.4505	0.106	962901	keystroke_d	d	n/a
481.7815	0.075	963563	keystroke_i	i	n/a
481.9755	0.105	963951	keystroke_c	c	n/a
482.186	0.0905	964372	keystroke_a	a	n/a
482.4255	0.09	964851	keystroke_t	t	n/a
482.531	0.1055	965062	keystroke_e	e	n/a
482.8015	0.075	965603	keystroke_Key.space	Key.space	n/a
483.2215	0.075	966443	keystroke_s	s	n/a
483.3715	0.06	966743	keystroke_p	p	n/a
483.4165	0.105	966833	keystroke_a	a	n/a
483.6115	0.09	967223	keystroke_c	c	n/a
483.7615	0.09	967523	keystroke_e	e	n/a
484.0765	0.0745	968153	keystroke_s	s	n/a
484.481	0.075	968962	keystroke_Key.space	Key.space	n/a
484.841	0.075	969682	keystroke_c	c	n/a
484.961	0.09	969922	keystroke_l	l	n/a
485.1705	0.09	970341	keystroke_i	i	n/a
485.4405	0.0755	970881	keystroke_m	m	n/a
485.6355	0.045	971271	keystroke_b	b	n/a
485.801	0.075	971602	keystroke_Key.enter	Key.enter	n/a
485.8835	11.47	971767	prompt	n/a	surround altered relationships preliminary\n
486.656	0.09	973312	keystroke_s	s	n/a
487.3015	0.059	974603	keystroke_u	u	n/a
487.4815	0.0595	974963	keystroke_r	r	n/a
487.631	0.0755	975262	keystroke_r	r	n/a
487.751	0.09	975502	keystroke_o	o	n/a
487.9915	0.105	975983	keystroke_u	u	n/a
488.111	0.09	976222	keystroke_n	n	n/a
488.216	0.09	976432	keystroke_d	d	n/a
488.3655	0.0755	976731	keystroke_Key.space	Key.space	n/a
488.771	0.09	977542	keystroke_a	a	n/a
488.906	0.0755	977812	keystroke_l	l	n/a
489.131	0.0905	978262	keystroke_t	t	n/a
489.2665	0.12	978533	keystroke_e	e	n/a
489.401	0.12	978802	keystroke_r	r	n/a
489.5665	0.12	979133	keystroke_e	e	n/a
489.7465	0.09	979493	keystroke_d	d	n/a
490.1065	0.0595	980213	keystroke_Key.space	Key.space	n/a
490.586	0.1045	981172	keystroke_r	r	n/a
490.6755	0.136	981351	keystroke_e	e	n/a
491.4115	0.06	982823	keystroke_l	l	n/a
491.5015	0.105	983003	keystroke_a	a	n/a
491.7265	0.06	983453	keystroke_t	t	n/a
491.8465	0.165	983693	keystroke_i	i	n/a
491.9515	0.075	983903	keystroke_o	o	n/a
491.9815	0.105	983963	keystroke_n	n	n/a
492.1915	0.105	984383	keystroke_s	s	n/a
492.821	0.0745	985642	keystroke_h	h	n/a
492.9415	0.09	985883	keystroke_i	i	n/a
493.1815	0.075	986363	keystroke_p	p	n/a
493.3015	0.09	986603	keystroke_s	s	n/a
493.6165	0.075	987233	keystroke_Key.space	Key.space	n/a
494.0365	0.105	988073	keystroke_p	p	n/a
494.231	0.06	988462	keystroke_r	r	n/a
494.2615	0.1045	988523	keystroke_e	e	n/a
494.486	0.0905	988972	keystroke_l	l	n/a
494.696	0.09	989392	keystroke_i	i	n/a
494.8915	0.09	989783	keystroke_m	m	n/a
495.116	0.076	990232	keystroke_i	i	n/a
495.2965	0.0745	990593	keystroke_n	n	n/a
495.4165	0.09	990833	keystroke_a	a	n/a
495.9115	0.0745	991823	keystroke_r	r	n/a
497.1555	0.06	994311	keystroke_y	y	n/a
497.306	0.0445	994612	keystroke_Key.enter	Key.enter	n/a
497.3585	9.279	994717	prompt	n/a	describe these're game quilt\n
498.1465	0.0745	996293	keystroke_d	d	n/a
498.2665	0.1205	996533	keystroke_e	e	n/a
498.4765	0.059	996953	keystroke_s	s	n/a
498.6855	0.076	997371	keystroke_c	c	n/a
498.8665	0.0595	997733	keystroke_r	r	n/a
498.971	0.0605	997942	keystroke_i	i	n/a
499.1515	0.015	998303	keystroke_p	p	n/a
499.557	0.0895	999114	keystroke_Key.backspace	Key.backspace	n/a
499.8115	0.09	999623	keystroke_b	b	n/a
499.9165	0.105	999833	keystroke_e	e	n/a
500.0965	0.12	1000193	keystroke_d	d	n/a
500.2015	0.075	1000403	keystroke_Key.space	Key.space	n/a
501.101	0.075	1002202	keystroke_t	t	n/a
501.236	0.0755	1002472	keystroke_h	h	n/a
501.296	0.2105	1002592	keystroke_e	e	n/a
501.911	0.09	1003822	keystroke_Key.backspace	Key.backspace	n/a
502.136	0.09	1004272	keystroke_s	s	n/a
502.316	0.105	1004632	keystroke_e	e	n/a
503.216	0.0745	1006432	keystroke_'	'	n/a
503.4105	0.1655	1006821	keystroke_r	r	n/a
503.5605	0.106	1007121	keystroke_e	e	n/a
503.6215	0.075	1007243	keystroke_Key.space	Key.space	n/a
504.0865	0.119	1008173	keystroke_g	g	n/a
504.1905	0.136	1008381	keystroke_a	a	n/a
504.3265	0.09	1008653	keystroke_m	m	n/a
504.3855	0.075	1008771	keystroke_e	e	n/a
504.596	0.0745	1009192	keystroke_Key.space	Key.space	n/a
505.0165	0.12	1010033	keystroke_q	q	n/a
505.2715	0.06	1010543	keystroke_u	u	n/a
505.7065	0.135	1011413	keystroke_i	i	n/a
506.2465	0.0895	1012493	keystroke_l	l	n/a
506.456	0.0605	1012912	keystroke_t	t	n/a
506.5615	0.0745	1013123	keystroke_Key.enter	Key.enter	n/a
506.6415	6.011	1013283	prompt	n/a	necklace fields sticks tour\n
507.5965	0.059	1015193	keystroke_n	n	n/a
507.641	0.1045	1015282	keystroke_e	e	n/a
508.1505	0.06	1016301	keystroke_c	c	n/a
508.4815	0.06	1016963	keystroke_k	k	n/a
508.6905	0.0605	1017381	keystroke_l	l	n/a
508.7215	0.105	1017443	keystroke_a	a	n/a
508.991	0.06	1017982	keystroke_c	c	n/a
509.1265	0.0745	1018253	keystroke_e	e	n/a
509.396	0.075	1018792	keystroke_Key.space	Key.space	n/a
509.801	0.09	1019602	keystroke_f	f	n/a
509.951	0.0755	1019902	keystroke_i	i	n/a
510.0415	0.1195	1020083	keystroke_e	e	n/a
510.251	0.09	1020502	keystroke_l	l	n/a
510.4165	0.105	1020833	keystroke_d	d	n/a
510.6265	0.09	1021253	keystroke_s	s	n/a
510.776	0.075	1021552	keystroke_Key.space	Key.space	n/a
510.9715	0.09	1021943	keystroke_s	s	n/a
511.241	0.0595	1022482	keystroke_t	t	n/a
511.3765	0.09	1022753	keystroke_i	i	n/a
511.5555	0.0605	1023111	keystroke_c	c	n/a
511.661	0.0905	1023322	keystroke_k	k	n/a
511.7805	0.061	1023561	keystroke_s	s	n/a
511.901	0.0895	1023802	keystroke_Key.space	Key.space	n/a
512.0505	0.0615	1024101	keystroke_t	t	n/a
512.1265	0.075	1024253	keystroke_o	o	n/a
512.336	0.06	1024672	keystroke_u	u	n/a
512.486	0.06	1024972	keystroke_r	r	n/a
512.5755	0.076	1025151	keystroke_Key.enter	Key.enter	n/a
512.6555	8.2475	1025311	prompt	n/a	strategies formats uploaded british\n
513.3115	0.1045	1026623	keystroke_s	s	n/a
513.6415	0.12	1027283	keystroke_t	t	n/a
513.746	0.1205	1027492	keystroke_r	r	n/a
513.9865	0.09	1027973	keystroke_a	a	n/a
514.391	0.0755	1028782	keystroke_t	t	n/a
514.601	0.0905	1029202	keystroke_e	e	n/a
514.886	0.0605	1029772	keystroke_g	g	n/a
515.0665	0.045	1030133	keystroke_i	i	n/a
515.1565	0.09	1030313	keystroke_e	e	n/a
515.351	0.0755	1030702	keystroke_s	s	n/a
515.591	0.0605	1031182	keystroke_Key.space	Key.space	n/a
515.921	0.0905	1031842	keystroke_f	f	n/a
516.056	0.0755	1032112	keystroke_o	o	n/a
516.1465	0.0595	1032293	keystroke_r	r	n/a
516.311	0.075	1032622	keystroke_m	m	n/a
516.4015	0.105	1032803	keystroke_a	a	n/a
516.581	0.09	1033162	keystroke_t	t	n/a
516.806	0.075	1033612	keystroke_s	s	n/a
517.0905	0.0755	1034181	keystroke_Key.space	Key.space	n/a
517.436	0.075	1034872	keystroke_u	u	n/a
517.661	0.135	1035322	keystroke_p	p	n/a
517.7515	0.165	1035503	keystroke_l	l	n/a
518.0355	0.0755	1036071	keystroke_o	o	n/a
518.1705	0.106	1036341	keystroke_a	a	n/a
518.3655	0.0905	1036731	keystroke_d	d	n/a
518.531	0.1355	1037062	keystroke_e	e	n/a
518.651	0.135	1037302	keystroke_d	d	n/a
519.0255	0.0605	1038051	keystroke_Key.space	Key.space	n/a
519.416	0.075	1038832	keystroke_b	b	n/a
519.5505	0.0755	1039101	keystroke_r	r	n/a
519.671	0.1055	1039342	keystroke_i	i	n/a
519.9715	0.075	1039943	keystroke_t	t	n/a
520.1215	0.09	1040243	keystroke_i	i	n/a
520.3165	0.09	1040633	keystroke_s	s	n/a
520.601	0.091	1041202	keystroke_h	h	n/a
520.826	0.0745	1041652	keystroke_Key.enter	Key.enter	n/a
520.908	8.485	1041816	prompt	n/a	younger postings congressional several\n
521.6665	0.0595	1043333	keystroke_y	y	n/a
521.891	0.06	1043782	keystroke_o	o	n/a
522.086	0.075	1044172	keystroke_u	u	n/a
522.251	0.0905	1044502	keystroke_n	n	n/a
522.3865	0.09	1044773	keystroke_g	g	n/a
522.5205	0.136	1045041	keystroke_e	e	n/a
522.6415	0.089	1045283	keystroke_r	r	n/a
522.7605	0.091	1045521	keystroke_Key.space	Key.space	n/a
523.2255	0.0765	1046451	keystroke_p	p	n/a
523.4065	0.075	1046813	keystroke_o	o	n/a
523.617	0.0735	1047234	keystroke_s	s	n/a
523.826	0.0605	1047652	keystroke_t	t	n/a
523.9015	0.1045	1047803	keystroke_i	i	n/a
523.961	0.1055	1047922	keystroke_n	n	n/a
524.082	0.074	1048164	keystroke_g	g	n/a
524.261	0.0755	1048522	keystroke_s	s	n/a
524.441	0.075	1048882	keystroke_Key.space	Key.space	n/a
524.8765	0.074	1049753	keystroke_c	c	n/a
525.011	0.0755	1050022	keystroke_o	o	n/a
525.0715	0.105	1050143	keystroke_n	n	n/a
525.236	0.09	1050472	keystroke_g	g	n/a
525.4315	0.075	1050863	keystroke_r	r	n/a
525.6265	0.09	1051253	keystroke_e	e	n/a
525.8665	0.0145	1051733	keystroke_s	s	n/a
525.956	0.075	1051912	keystroke_s	s	n/a
526.166	0.21	1052332	keystroke_i	i	n/a
526.2415	0.1495	1052483	keystroke_o	o	n/a
526.3165	0.1045	1052633	keystroke_n	n	n/a
526.7515	0.0595	1053503	keystroke_a	a	n/a
526.8715	0.0895	1053743	keystroke_l	l	n/a
527.8905	0.06	1055781	keystroke_Key.space	Key.space	n/a
528.0865	0.075	1056173	keystroke_s	s	n/a
528.2815	0.09	1056563	keystroke_e	e	n/a
528.5215	0.045	1057043	keystroke_v	v	n/a
528.6265	0.135	1057253	keystroke_e	e	n/a
528.7465	0.075	1057493	keystroke_r	r	n/a
528.9415	0.06	1057883	keystroke_a	a	n/a
529.0465	0.0745	1058093	keystroke_l	l	n/a
529.316	0.075	1058632	keystroke_Key.enter	Key.enter	n/a
529.399	9.2185	1058798	prompt	n/a	metadata config arbor greensboro\n
530.186	0.0605	1060372	keystroke_m	m	n/a
530.2615	0.09	1060523	keystroke_e	e	n/a
530.5465	0.0595	1061093	keystroke_t	t	n/a
530.7265	0.075	1061453	keystroke_a	a	n/a
530.9965	0.0745	1061993	keystroke_d	d	n/a
531.146	0.09	1062292	keystroke_a	a	n/a
531.686	0.06	1063372	keystroke_t	t	n/a
531.9415	0.075	1063883	keystroke_a	a	n/a
532.376	0.075	1064752	keystroke_Key.space	Key.space	n/a
532.961	0.045	1065922	keystroke_c	c	n/a
533.051	0.1055	1066102	keystroke_o	o	n/a
533.141	0.105	1066282	keystroke_n	n	n/a
533.486	0.121	1066972	keystroke_f	f	n/a
533.666	0.09	1067332	keystroke_i	i	n/a
533.786	0.0755	1067572	keystroke_g	g	n/a
533.921	0.09	1067842	keystroke_Key.space	Key.space	n/a
534.551	0.1055	1069102	keystroke_a	a	n/a
534.731	0.0755	1069462	keystroke_r	r	n/a
534.971	0.0595	1069942	keystroke_b	b	n/a
535.166	0.09	1070332	keystroke_o	o	n/a
535.3605	0.061	1070721	keystroke_r	r	n/a
535.5555	0.06	1071111	keystroke_Key.space	Key.space	n/a
536.0065	0.074	1072013	keystroke_g	g	n/a
536.126	0.09	1072252	keystroke_r	r	n/a
536.336	0.06	1072672	keystroke_e	e	n/a
536.681	0.09	1073362	keystroke_e	e	n/a
536.8015	0.1045	1073603	keystroke_n	n	n/a
537.4615	0.09	1074923	keystroke_s	s	n/a
537.7015	0.0745	1075403	keystroke_b	b	n/a
537.9555	0.106	1075911	keystroke_o	o	n/a
538.1515	0.0745	1076303	keystroke_r	r	n/a
538.241	0.105	1076482	keystroke_o	o	n/a
538.556	0.06	1077112	keystroke_Key.enter	Key.enter	n/a
538.621	4.902	1077242	prompt	n/a	ghana dual level fibre\n
539.666	0.076	1079332	keystroke_g	g	n/a
539.7715	0.09	1079543	keystroke_h	h	n/a
539.8765	0.0895	1079753	keystroke_a	a	n/a
540.0415	0.104	1080083	keystroke_n	n	n/a
540.1605	0.0755	1080321	keystroke_a	a	n/a
540.2805	0.09	1080561	keystroke_Key.space	Key.space	n/a
540.821	0.0755	1081642	keystroke_d	d	n/a
540.8815	0.059	1081763	keystroke_u	u	n/a
541.0305	0.061	1082061	keystroke_a	a	n/a
541.1365	0.0595	1082273	keystroke_l	l	n/a
541.3455	0.0755	1082691	keystroke_Key.space	Key.space	n/a
541.6615	0.0745	1083323	keystroke_l	l	n/a
541.721	0.0905	1083442	keystroke_e	e	n/a
541.961	0.06	1083922	keystroke_v	v	n/a
542.081	0.1055	1084162	keystroke_e	e	n/a
542.2015	0.06	1084403	keystroke_l	l	n/a
542.456	0.075	1084912	keystroke_Key.space	Key.space	n/a
542.7565	0.0595	1085513	keystroke_f	f	n/a
542.9065	0.06	1085813	keystroke_i	i	n/a
543.0855	0.076	1086171	keystroke_b	b	n/a
543.2215	0.135	1086443	keystroke_r	r	n/a
543.3265	0.105	1086653	keystroke_e	e	n/a
543.4465	0.075	1086893	keystroke_Key.enter	Key.enter	n/a
543.527	6.934	1087054	prompt	n/a	loops period what've bridge\n
544.2415	0.09	1088483	keystroke_l	l	n/a
544.4215	0.06	1088843	keystroke_o	o	n/a
544.571	0.0755	1089142	keystroke_o	o	n/a
544.766	0.0755	1089532	keystroke_p	p	n/a
544.886	0.06	1089772	keystroke_s	s	n/a
545.0505	0.076	1090101	keystroke_Key.space	Key.space	n/a
545.3065	0.09	1090613	keystroke_p	p	n/a
545.4115	0.09	1090823	keystroke_e	e	n/a
545.5165	0.09	1091033	keystroke_r	r	n/a
545.7115	0.089	1091423	keystroke_i	i	n/a
545.9065	0.089	1091813	keystroke_o	o	n/a
546.4455	0.075	1092891	keystroke_d	d	n/a
546.5805	0.075	1093161	keystroke_Key.space	Key.space	n/a
546.7905	0.0915	1093581	keystroke_w	w	n/a
546.9715	0.0745	1093943	keystroke_h	h	n/a
547.0765	0.119	1094153	keystroke_a	a	n/a
547.301	0.09	1094602	keystroke_t	t	n/a
548.216	0.076	1096432	keystroke_'	'	n/a
548.3665	0.075	1096733	keystroke_v	v	n/a
548.501	0.075	1097002	keystroke_e	e	n/a
548.621	0.0605	1097242	keystroke_Key.space	Key.space	n/a
549.4015	0.074	1098803	keystroke_b	b	n/a
549.5055	0.06	1099011	keystroke_r	r	n/a
549.5965	0.09	1099193	keystroke_i	i	n/a
549.8515	0.105	1099703	keystroke_d	d	n/a
550.1365	0.075	1100273	keystroke_g	g	n/a
550.2415	0.0895	1100483	keystroke_e	e	n/a
550.3615	0.09	1100723	keystroke_Key.enter	Key.enter	n/a
550.4645	6.994	1100929	prompt	n/a	haven't abstracts tuesday me\n
551.3205	0.061	1102641	keystroke_h	h	n/a
551.3665	0.0295	1102733	keystroke_a	a	n/a
551.5315	0.074	1103063	keystroke_v	v	n/a
551.6965	0.044	1103393	keystroke_e	e	n/a
551.8605	0.0755	1103721	keystroke_n	n	n/a
552.2215	0.075	1104443	keystroke_'	'	n/a
552.386	0.0595	1104772	keystroke_t	t	n/a
552.596	0.015	1105192	keystroke_Key.space	Key.space	n/a
553.001	0.045	1106002	keystroke_a	a	n/a
553.1515	0.075	1106303	keystroke_b	b	n/a
553.3455	0.091	1106691	keystroke_s	s	n/a
553.5715	0.06	1107143	keystroke_t	t	n/a
553.7505	0.076	1107501	keystroke_r	r	n/a
553.9465	0.075	1107893	keystroke_a	a	n/a
554.231	0.075	1108462	keystroke_c	c	n/a
554.441	0.045	1108882	keystroke_t	t	n/a
554.6805	0.0755	1109361	keystroke_s	s	n/a
554.951	0.0755	1109902	keystroke_Key.space	Key.space	n/a
555.386	0.045	1110772	keystroke_t	t	n/a
555.506	0.0605	1111012	keystroke_u	u	n/a
555.5965	0.104	1111193	keystroke_e	e	n/a
555.836	0.09	1111672	keystroke_s	s	n/a
556.1655	0.0905	1112331	keystroke_d	d	n/a
556.316	0.0755	1112632	keystroke_a	a	n/a
556.511	0.075	1113022	keystroke_y	y	n/a
556.7215	0.0745	1113443	keystroke_Key.space	Key.space	n/a
557.141	0.075	1114282	keystroke_m	m	n/a
557.246	0.075	1114492	keystroke_e	e	n/a
557.366	0.09	1114732	keystroke_Key.enter	Key.enter	n/a
557.463	7.93	1114926	prompt	n/a	indonesian simulations allowed spec\n
558.341	0.105	1116682	keystroke_i	i	n/a
558.416	0.105	1116832	keystroke_n	n	n/a
558.6565	0.059	1117313	keystroke_d	d	n/a
558.8665	0.1045	1117733	keystroke_o	o	n/a
559.1355	0.09	1118271	keystroke_n	n	n/a
560.126	0.075	1120252	keystroke_e	e	n/a
560.336	0.06	1120672	keystroke_s	s	n/a
560.471	0.075	1120942	keystroke_i	i	n/a
560.666	0.0895	1121332	keystroke_a	a	n/a
560.9055	0.0755	1121811	keystroke_Key.space	Key.space	n/a
561.206	0.0595	1122412	keystroke_s	s	n/a
561.3255	0.075	1122651	keystroke_i	i	n/a
561.491	0.075	1122982	keystroke_m	m	n/a
561.6715	0.0595	1123343	keystroke_u	u	n/a
561.866	0.075	1123732	keystroke_l	l	n/a
561.911	0.075	1123822	keystroke_a	a	n/a
562.1065	0.0745	1124213	keystroke_t	t	n/a
562.166	0.195	1124332	keystroke_i	i	n/a
562.226	0.12	1124452	keystroke_o	o	n/a
562.3165	0.1195	1124633	keystroke_n	n	n/a
562.466	0.075	1124932	keystroke_s	s	n/a
562.631	0.09	1125262	keystroke_Key.space	Key.space	n/a
563.516	0.075	1127032	keystroke_a	a	n/a
563.666	0.06	1127332	keystroke_l	l	n/a
563.771	0.075	1127542	keystroke_l	l	n/a
563.951	0.075	1127902	keystroke_o	o	n/a
564.026	0.09	1128052	keystroke_w	w	n/a
564.1915	0.0745	1128383	keystroke_e	e	n/a
564.401	0.075	1128802	keystroke_d	d	n/a
564.536	0.075	1129072	keystroke_Key.space	Key.space	n/a
564.746	0.0755	1129492	keystroke_s	s	n/a
564.8655	0.09	1129731	keystroke_p	p	n/a
565.0455	0.075	1130091	keystroke_e	e	n/a
565.2265	0.0745	1130453	keystroke_c	c	n/a
565.3165	0.074	1130633	keystroke_Key.enter	Key.enter	n/a
565.3975	8.7105	1130795	prompt	n/a	secured apart nottingham australia\n
566.0065	0.074	1132013	keystroke_s	s	n/a
566.246	0.09	1132492	keystroke_e	e	n/a
566.471	0.09	1132942	keystroke_c	c	n/a
566.636	0.075	1133272	keystroke_u	u	n/a
566.771	0.105	1133542	keystroke_r	r	n/a
566.8465	0.12	1133693	keystroke_e	e	n/a
567.0415	0.09	1134083	keystroke_d	d	n/a
567.266	0.06	1134532	keystroke_Key.space	Key.space	n/a
567.461	0.06	1134922	keystroke_a	a	n/a
567.611	0.075	1135222	keystroke_p	p	n/a
568.001	0.1055	1136002	keystroke_a	a	n/a
568.241	0.075	1136482	keystroke_r	r	n/a
569.3055	0.06	1138611	keystroke_t	t	n/a
569.5465	0.045	1139093	keystroke_Key.space	Key.space	n/a
569.8915	0.09	1139783	keystroke_n	n	n/a
570.0415	0.105	1140083	keystroke_o	o	n/a
570.2515	0.0445	1140503	keystroke_t	t	n/a
570.401	0.0605	1140802	keystroke_t	t	n/a
570.521	0.135	1141042	keystroke_i	i	n/a
570.611	0.105	1141222	keystroke_n	n	n/a
571.3015	0.0745	1142603	keystroke_g	g	n/a
