onset	duration	sample	value	key	prompt_text
2.9865	13.3025	5973	prompt	n/a	the quick brown fox jumps over a lazy dog\n
4.3055	0.0125	8611	keystroke	t	n/a
4.3785	0.0895	8757	keystroke	h	n/a
4.4985	0.06	8997	keystroke	e	n/a
4.648	0.0755	9296	keystroke	Key.space	n/a
4.9455	0.1085	9891	keystroke	q	n/a
5.159	0.0895	10318	keystroke	y	n/a
5.5495	0.134	11099	keystroke	=	n/a
6.1035	0.06	12207	keystroke	Key.backspace	n/a
6.3285	0.0145	12657	keystroke	Key.backspace	n/a
6.4635	0.09	12927	keystroke	Key.backspace	n/a
7.7335	0.0905	15467	keystroke	q	n/a
7.9145	0.045	15829	keystroke	u	n/a
8.0955	0.0895	16191	keystroke	i	n/a
8.29	0.075	16580	keystroke	c	n/a
8.38	0.076	16760	keystroke	k	n/a
8.6055	0.045	17211	keystroke	Key.space	n/a
8.771	0.0745	17542	keystroke	b	n/a
8.89	0.075	17780	keystroke	r	n/a
9.01	0.0455	18020	keystroke	o	n/a
9.1155	0.09	18231	keystroke	w	n/a
9.311	0.074	18622	keystroke	n	n/a
10.0465	0.06	20093	keystroke	Key.space	n/a
10.707	0.059	21414	keystroke	f	n/a
10.9015	0.09	21803	keystroke	o	n/a
11.156	0.0455	22312	keystroke	x	n/a
11.246	0.0595	22492	keystroke	Key.space	n/a
11.4565	0.075	22913	keystroke	j	n/a
11.5765	0.0895	23153	keystroke	u	n/a
11.7865	0.06	23573	keystroke	m	n/a
11.966	0.075	23932	keystroke	p	n/a
12.086	0.0755	24172	keystroke	s	n/a
12.2065	0.059	24413	keystroke	Key.space	n/a
12.4465	0.1195	24893	keystroke	o	n/a
12.7465	0.0445	25493	keystroke	v	n/a
12.8665	0.1205	25733	keystroke	e	n/a
12.971	0.0905	25942	keystroke	r	n/a
13.1365	0.089	26273	keystroke	Key.space	n/a
13.316	0.045	26632	keystroke	a	n/a
13.3915	0.075	26783	keystroke	Key.space	n/a
13.6465	0.075	27293	keystroke	l	n/a
13.7665	0.0755	27533	keystroke	a	n/a
14.0215	0.0455	28043	keystroke	z	n/a
14.1415	0.06	28283	keystroke	y	n/a
14.3515	0.075	28703	keystroke	Key.space	n/a
15.687	0.0895	31374	keystroke	d	n/a
15.8665	0.1045	31733	keystroke	o	n/a
16.0315	0.0905	32063	keystroke	g	n/a
16.2415	0.045	32483	keystroke	Key.enter	n/a
16.294	7.7055	32588	prompt	n/a	zope hence celebs native\n
17.2615	0.0755	34523	keystroke	z	n/a
17.457	0.1045	34914	keystroke	o	n/a
17.576	0.12	35152	keystroke	p	n/a
17.7865	0.045	35573	keystroke	e	n/a
17.966	0.0605	35932	keystroke	Key.space	n/a
18.536	0.0605	37072	keystroke	h	n/a
18.641	0.0755	37282	keystroke	e	n/a
18.7465	0.075	37493	keystroke	n	n/a
18.9405	0.106	37881	keystroke	c	n/a
19.1815	0.075	38363	keystroke	e	n/a
19.3315	0.0595	38663	keystroke	Key.space	n/a
20.441	0.0905	40882	keystroke	c	n/a
20.6515	0.0905	41303	keystroke	e	n/a
21.3115	0.0895	42623	keystroke	l	n/a
21.4315	0.0895	42863	keystroke	e	n/a
21.896	0.061	43792	keystroke	b	n/a
21.972	0.074	43944	keystroke	s	n/a
22.136	0.0305	44272	keystroke	Key.space	n/a
22.812	0.0885	45624	keystroke	n	n/a
22.9165	0.09	45833	keystroke	a	n/a
23.1715	0.0595	46343	keystroke	t	n/a
23.2915	0.0895	46583	keystroke	i	n/a
23.501	0.105	47002	keystroke	v	n/a
23.6815	0.0745	47363	keystroke	e	n/a
23.951	0.0455	47902	keystroke	Key.enter	n/a
24.0055	9.1125	48011	prompt	n/a	knew gloves systems substitute\n
24.8365	0.09	49673	keystroke	k	n/a
25.001	0.0905	50002	keystroke	n	n/a
25.1815	0.1505	50363	keystroke	e	n/a
25.271	0.0905	50542	keystroke	w	n/a
25.4215	0.075	50843	keystroke	Key.space	n/a
25.9615	0.0445	51923	keystroke	g	n/a
26.0815	0.075	52163	keystroke	l	n/a
26.262	0.0745	52524	keystroke	o	n/a
26.5015	0.165	53003	keystroke	v	n/a
26.801	0.0905	53602	keystroke	e	n/a
27.026	0.046	54052	keystroke	s	n/a
27.1765	0.0745	54353	keystroke	Key.space	n/a
27.5365	0.0895	55073	keystroke	s	n/a
27.747	0.06	55494	keystroke	y	n/a
27.8215	0.0895	55643	keystroke	s	n/a
27.956	0.06	55912	keystroke	t	n/a
28.1065	0.045	56213	keystroke	e	n/a
28.3315	0.09	56663	keystroke	m	n/a
28.4065	0.09	56813	keystroke	s	n/a
28.6315	0.0595	57263	keystroke	Key.space	n/a
28.931	0.075	57862	keystroke	s	n/a
29.0665	0.075	58133	keystroke	u	n/a
29.247	0.075	58494	keystroke	b	n/a
29.3665	0.0755	58733	keystroke	s	n/a
29.5915	0.09	59183	keystroke	i	n/a
29.832	0.0595	59664	keystroke	t	n/a
30.3565	0.075	60713	keystroke	Key.backspace	n/a
30.701	0.061	61402	keystroke	t	n/a
31.0015	0.09	62003	keystroke	Key.backspace	n/a
31.151	0.105	62302	keystroke	Key.backspace	n/a
31.2715	0.0905	62543	keystroke	t	n/a
31.901	0.0755	63802	keystroke	i	n/a
32.0665	0.06	64133	keystroke	t	n/a
32.1865	0.075	64373	keystroke	u	n/a
32.4565	0.075	64913	keystroke	t	n/a
32.622	0.075	65244	keystroke	e	n/a
33.041	0.0745	66082	keystroke	Key.enter	n/a
33.122	9.1325	66244	prompt	n/a	spanish northwest cottages brian\n
33.837	0.0595	67674	keystroke	s	n/a
34.616	0.0755	69232	keystroke	Key.backspace	n/a
34.8565	0.0595	69713	keystroke	p	n/a
34.961	0.091	69922	keystroke	a	n/a
35.4415	0.0905	70883	keystroke	Key.backspace	n/a
35.5915	0.105	71183	keystroke	Key.backspace	n/a
35.7265	0.12	71453	keystroke	s	n/a
35.9215	0.0895	71843	keystroke	p	n/a
36.042	0.0745	72084	keystroke	a	n/a
36.2065	0.09	72413	keystroke	n	n/a
36.4765	0.09	72953	keystroke	i	n/a
36.6415	0.0905	73283	keystroke	s	n/a
36.7465	0.1355	73493	keystroke	h	n/a
37.1365	0.06	74273	keystroke	Key.space	n/a
37.437	0.089	74874	keystroke	n	n/a
37.617	0.075	75234	keystroke	o	n/a
37.842	0.075	75684	keystroke	r	n/a
38.022	0.045	76044	keystroke	t	n/a
38.127	0.06	76254	keystroke	h	n/a
38.3215	0.105	76643	keystroke	w	n/a
38.561	0.0755	77122	keystroke	e	n/a
38.7565	0.09	77513	keystroke	s	n/a
38.9815	0.075	77963	keystroke	t	n/a
39.206	0.075	78412	keystroke	Key.space	n/a
39.7775	0.045	79555	keystroke	c	n/a
40.002	0.059	80004	keystroke	o	n/a
40.1825	0.03	80365	keystroke	t	n/a
40.287	0.075	80574	keystroke	t	n/a
40.467	0.119	80934	keystroke	a	n/a
40.691	0.09	81382	keystroke	g	n/a
40.8265	0.0595	81653	keystroke	e	n/a
41.022	0.0605	82044	keystroke	s	n/a
41.2615	0.075	82523	keystroke	Key.space	n/a
41.4875	0.059	82975	keystroke	b	n/a
41.6515	0.0905	83303	keystroke	r	n/a
41.787	0.09	83574	keystroke	i	n/a
41.892	0.0595	83784	keystroke	a	n/a
41.982	0.09	83964	keystroke	n	n/a
42.1765	0.0755	84353	keystroke	Key.enter	n/a
42.259	6.5195	84518	prompt	n/a	center textbook priced differ\n
42.971	0.076	85942	keystroke	c	n/a
43.136	0.09	86272	keystroke	e	n/a
43.2415	0.0745	86483	keystroke	n	n/a
43.346	0.121	86692	keystroke	t	n/a
43.452	0.1795	86904	keystroke	e	n/a
43.6015	0.0895	87203	keystroke	r	n/a
43.8265	0.0745	87653	keystroke	Key.space	n/a
44.246	0.091	88492	keystroke	t	n/a
44.352	0.12	88704	keystroke	e	n/a
44.6965	0.0455	89393	keystroke	x	n/a
44.937	0.0445	89874	keystroke	t	n/a
45.222	0.075	90444	keystroke	b	n/a
45.417	0.044	90834	keystroke	o	n/a
45.537	0.135	91074	keystroke	o	n/a
45.6565	0.09	91313	keystroke	k	n/a
45.9715	0.075	91943	keystroke	Key.space	n/a
46.3915	0.09	92783	keystroke	p	n/a
46.586	0.061	93172	keystroke	r	n/a
46.752	0.075	93504	keystroke	i	n/a
46.932	0.0755	93864	keystroke	c	n/a
47.082	0.09	94164	keystroke	e	n/a
47.217	0.1045	94434	keystroke	d	n/a
47.6065	0.075	95213	keystroke	Key.space	n/a
47.922	0.0745	95844	keystroke	d	n/a
48.1015	0.06	96203	keystroke	i	n/a
48.2215	0.045	96443	keystroke	f	n/a
48.3265	0.0605	96653	keystroke	f	n/a
48.5065	0.1055	97013	keystroke	e	n/a
48.5965	0.0745	97193	keystroke	r	n/a
48.702	0.075	97404	keystroke	Key.enter	n/a
48.782	6.012	97564	prompt	n/a	savings so're some dublin\n
49.3915	0.075	98783	keystroke	s	n/a
49.542	0.0895	99084	keystroke	a	n/a
49.872	0.06	99744	keystroke	v	n/a
50.037	0.135	100074	keystroke	i	n/a
50.126	0.091	100252	keystroke	n	n/a
50.217	0.06	100434	keystroke	g	n/a
50.4415	0.075	100883	keystroke	s	n/a
51.0565	0.075	102113	keystroke	Key.space	n/a
51.1915	0.09	102383	keystroke	s	n/a
51.4465	0.0155	102893	keystroke	o	n/a
51.7765	0.09	103553	keystroke	'	n/a
51.9565	0.1205	103913	keystroke	r	n/a
52.0465	0.0755	104093	keystroke	e	n/a
52.1365	0.06	104273	keystroke	Key.space	n/a
52.5115	0.0755	105023	keystroke	s	n/a
52.7665	0.075	105533	keystroke	o	n/a
52.8265	0.12	105653	keystroke	m	n/a
52.9765	0.0755	105953	keystroke	e	n/a
53.1715	0.09	106343	keystroke	Key.space	n/a
53.697	0.0745	107394	keystroke	d	n/a
53.847	0.1195	107694	keystroke	u	n/a
53.952	0.104	107904	keystroke	b	n/a
54.2075	0.0745	108415	keystroke	l	n/a
54.4015	0.1345	108803	keystroke	i	n/a
54.492	0.12	108984	keystroke	n	n/a
54.7165	0.0755	109433	keystroke	Key.enter	n/a
54.8	9.8815	109600	prompt	n/a	chance impact automation equally\n
55.722	0.075	111444	keystroke	c	n/a
55.827	0.075	111654	keystroke	h	n/a
55.917	0.09	111834	keystroke	a	n/a
56.037	0.075	112074	keystroke	n	n/a
56.247	0.0745	112494	keystroke	c	n/a
56.382	0.09	112764	keystroke	e	n/a
56.517	0.0745	113034	keystroke	Key.space	n/a
56.9665	0.1355	113933	keystroke	i	n/a
57.147	0.089	114294	keystroke	m	n/a
57.3725	0.0895	114745	keystroke	p	n/a
57.492	0.089	114984	keystroke	a	n/a
57.687	0.12	115374	keystroke	c	n/a
58.0315	0.075	116063	keystroke	Key.backspace	n/a
58.827	0.104	117654	keystroke	c	n/a
59.127	0.0745	118254	keystroke	t	n/a
59.457	0.06	118914	keystroke	Key.space	n/a
60.7915	0.0755	121583	keystroke	a	n/a
61.2115	0.0755	122423	keystroke	u	n/a
61.362	0.06	122724	keystroke	t	n/a
61.512	0.09	123024	keystroke	o	n/a
61.767	0.075	123534	keystroke	m	n/a
61.827	0.09	123654	keystroke	a	n/a
62.007	0.06	124014	keystroke	t	n/a
62.097	0.1795	124194	keystroke	i	n/a
62.142	0.1205	124284	keystroke	o	n/a
62.2165	0.12	124433	keystroke	n	n/a
62.7115	0.0755	125423	keystroke	Key.space	n/a
63.057	0.0745	126114	keystroke	e	n/a
63.6865	0.0605	127373	keystroke	q	n/a
63.851	0.06	127702	keystroke	u	n/a
63.957	0.0755	127914	keystroke	a	n/a
64.182	0.0455	128364	keystroke	l	n/a
64.3015	0.105	128603	keystroke	l	n/a
64.467	0.059	128934	keystroke	y	n/a
64.586	0.091	129172	keystroke	Key.enter	n/a
64.6885	6.53	129377	prompt	n/a	lasting publisher skype hughes\n
65.4565	0.075	130913	keystroke	l	n/a
65.5615	0.0605	131123	keystroke	a	n/a
65.6065	0.1205	131213	keystroke	s	n/a
65.862	0.045	131724	keystroke	t	n/a
65.9365	0.09	131873	keystroke	i	n/a
65.9965	0.1055	131993	keystroke	n	n/a
66.117	0.06	132234	keystroke	g	n/a
66.2815	0.0455	132563	keystroke	Key.space	n/a
66.882	0.075	133764	keystroke	p	n/a
67.137	0.1195	134274	keystroke	u	n/a
67.2865	0.0755	134573	keystroke	b	n/a
67.5265	0.075	135053	keystroke	l	n/a
67.7375	0.0445	135475	keystroke	i	n/a
67.812	0.09	135624	keystroke	s	n/a
67.977	0.075	135954	keystroke	h	n/a
68.082	0.135	136164	keystroke	e	n/a
68.2315	0.075	136463	keystroke	r	n/a
68.457	0.06	136914	keystroke	Key.space	n/a
68.7715	0.0745	137543	keystroke	s	n/a
68.922	0.0755	137844	keystroke	k	n/a
69.147	0.06	138294	keystroke	y	n/a
69.447	0.06	138894	keystroke	p	n/a
69.567	0.06	139134	keystroke	e	n/a
69.762	0.0745	139524	keystroke	Key.space	n/a
70.212	0.06	140424	keystroke	h	n/a
70.3465	0.0905	140693	keystroke	u	n/a
70.557	0.06	141114	keystroke	g	n/a
70.662	0.0745	141324	keystroke	h	n/a
70.7815	0.0745	141563	keystroke	e	n/a
71.0065	0.0605	142013	keystroke	s	n/a
71.1565	0.06	142313	keystroke	Key.enter	n/a
71.223	9.9405	142446	prompt	n/a	laboratory stable comply hollywood\n
72.147	0.09	144294	keystroke	l	n/a
72.252	0.06	144504	keystroke	a	n/a
72.6415	0.0905	145283	keystroke	b	n/a
73.511	0.076	147022	keystroke	o	n/a
73.617	0.075	147234	keystroke	r	n/a
73.827	0.105	147654	keystroke	a	n/a
74.367	0.075	148734	keystroke	t	n/a
74.562	0.06	149124	keystroke	o	n/a
74.682	0.09	149364	keystroke	r	n/a
75.132	0.0595	150264	keystroke	y	n/a
75.612	0.0445	151224	keystroke	Key.space	n/a
75.9265	0.0755	151853	keystroke	s	n/a
76.137	0.0895	152274	keystroke	t	n/a
76.287	0.09	152574	keystroke	a	n/a
76.422	0.0605	152844	keystroke	b	n/a
76.5865	0.075	153173	keystroke	l	n/a
76.6765	0.0755	153353	keystroke	e	n/a
76.8115	0.075	153623	keystroke	Key.space	n/a
77.247	0.06	154494	keystroke	c	n/a
77.397	0.1055	154794	keystroke	o	n/a
77.472	0.0895	154944	keystroke	m	n/a
77.697	0.1195	155394	keystroke	p	n/a
77.787	0.0895	155574	keystroke	l	n/a
78.102	0.0595	156204	keystroke	y	n/a
78.327	0.06	156654	keystroke	Key.space	n/a
78.762	0.0595	157524	keystroke	h	n/a
78.897	0.09	157794	keystroke	o	n/a
79.092	0.06	158184	keystroke	l	n/a
79.212	0.09	158424	keystroke	l	n/a
79.497	0.0595	158994	keystroke	y	n/a
79.707	0.0595	159414	keystroke	w	n/a
80.007	0.0295	160014	keystroke	o	n/a
80.1115	0.1055	160223	keystroke	o	n/a
80.247	0.1055	160494	keystroke	f	n/a
80.816	0.09	161632	keystroke	Key.backspace	n/a
80.967	0.075	161934	keystroke	d	n/a
81.071	0.09	162142	keystroke	Key.enter	n/a
81.168	10.7205	162336	prompt	n/a	conversations calculated surgical incentive\n
82.122	0.089	164244	keystroke	c	n/a
82.362	0.0445	164724	keystroke	o	n/a
82.602	0.09	165204	keystroke	n	n/a
82.737	0.06	165474	keystroke	v	n/a
82.887	0.09	165774	keystroke	e	n/a
82.961	0.0605	165922	keystroke	r	n/a
83.142	0.06	166284	keystroke	s	n/a
83.532	0.09	167064	keystroke	a	n/a
83.727	0.06	167454	keystroke	t	n/a
83.862	0.21	167724	keystroke	i	n/a
83.981	0.0605	167962	keystroke	o	n/a
83.982	0.135	167964	keystroke	n	n/a
84.147	0.075	168294	keystroke	s	n/a
85.0015	0.0755	170003	keystroke	Key.space	n/a
85.227	0.09	170454	keystroke	c	n/a
85.347	0.09	170694	keystroke	a	n/a
85.482	0.09	170964	keystroke	l	n/a
85.752	0.0755	171504	keystroke	c	n/a
86.172	0.06	172344	keystroke	u	n/a
86.502	0.075	173004	keystroke	l	n/a
86.5625	0.0745	173125	keystroke	a	n/a
86.772	0.0755	173544	keystroke	t	n/a
86.862	0.09	173724	keystroke	e	n/a
87.0565	0.09	174113	keystroke	d	n/a
87.432	0.0745	174864	keystroke	Key.space	n/a
87.7315	0.0905	175463	keystroke	s	n/a
87.927	0.06	175854	keystroke	u	n/a
88.107	0.075	176214	keystroke	r	n/a
88.3465	0.0605	176693	keystroke	g	n/a
88.4825	0.0745	176965	keystroke	i	n/a
88.767	0.0595	177534	keystroke	g	n/a
89.247	0.0745	178494	keystroke	Key.backspace	n/a
89.3515	0.1205	178703	keystroke	c	n/a
89.5015	0.1055	179003	keystroke	a	n/a
89.622	0.074	179244	keystroke	l	n/a
89.936	0.061	179872	keystroke	Key.space	n/a
90.312	0.09	180624	keystroke	i	n/a
90.477	0.0895	180954	keystroke	n	n/a
90.612	0.06	181224	keystroke	c	n/a
90.7465	0.0905	181493	keystroke	e	n/a
91.047	0.075	182094	keystroke	n	n/a
91.197	0.089	182394	keystroke	t	n/a
91.347	0.06	182694	keystroke	i	n/a
91.5565	0.075	183113	keystroke	v	n/a
91.737	0.06	183474	keystroke	e	n/a
91.812	0.075	183624	keystroke	Key.enter	n/a
91.8935	6.73	183787	prompt	n/a	share expressions assume beatles\n
92.592	0.0745	185184	keystroke	s	n/a
92.7565	0.06	185513	keystroke	h	n/a
92.802	0.075	185604	keystroke	a	n/a
92.982	0.1355	185964	keystroke	r	n/a
93.087	0.0745	186174	keystroke	e	n/a
93.267	0.09	186534	keystroke	Key.space	n/a
93.642	0.0595	187284	keystroke	e	n/a
93.8815	0.09	187763	keystroke	x	n/a
94.0615	0.075	188123	keystroke	p	n/a
94.1815	0.1205	188363	keystroke	r	n/a
94.2565	0.105	188513	keystroke	e	n/a
94.4965	0.045	188993	keystroke	s	n/a
94.6615	0.06	189323	keystroke	s	n/a
94.8265	0.1655	189653	keystroke	i	n/a
94.8865	0.1355	189773	keystroke	o	n/a
95.037	0.105	190074	keystroke	n	n/a
95.187	0.0895	190374	keystroke	s	n/a
95.5165	0.06	191033	keystroke	Key.space	n/a
95.9365	0.075	191873	keystroke	a	n/a
96.326	0.076	192652	keystroke	s	n/a
96.4915	0.0745	192983	keystroke	s	n/a
96.552	0.0895	193104	keystroke	u	n/a
96.776	0.076	193552	keystroke	m	n/a
96.8665	0.075	193733	keystroke	e	n/a
97.032	0.0595	194064	keystroke	Key.space	n/a
97.4815	0.0605	194963	keystroke	b	n/a
97.557	0.1345	195114	keystroke	e	n/a
97.661	0.106	195322	keystroke	a	n/a
97.887	0.0745	195774	keystroke	t	n/a
98.0515	0.0745	196103	keystroke	l	n/a
98.1715	0.12	196343	keystroke	e	n/a
98.4265	0.0755	196853	keystroke	s	n/a
98.5615	0.06	197123	keystroke	Key.enter	n/a
98.628	9.7005	197256	prompt	n/a	disco invision zambia markets\n
99.4915	0.06	198983	keystroke	d	n/a
99.6715	0.0445	199343	keystroke	i	n/a
99.747	0.06	199494	keystroke	s	n/a
100.017	0.045	200034	keystroke	c	n/a
100.197	0.0895	200394	keystroke	o	n/a
100.5415	0.075	201083	keystroke	Key.space	n/a
100.8115	0.12	201623	keystroke	i	n/a
100.8865	0.09	201773	keystroke	n	n/a
101.4575	0.089	202915	keystroke	v	n/a
101.697	0.075	203394	keystroke	i	n/a
101.8615	0.0755	203723	keystroke	s	n/a
102.012	0.18	204024	keystroke	i	n/a
102.0575	0.1195	204115	keystroke	o	n/a
102.132	0.12	204264	keystroke	n	n/a
102.657	0.09	205314	keystroke	Key.space	n/a
103.422	0.075	206844	keystroke	z	n/a
103.647	0.0745	207294	keystroke	a	n/a
103.796	0.09	207592	keystroke	m	n/a
104.5465	0.075	209093	keystroke	b	n/a
104.726	0.091	209452	keystroke	i	n/a
104.802	0.09	209604	keystroke	a	n/a
105.522	0.075	211044	keystroke	Key.space	n/a
105.8965	0.135	211793	keystroke	a	n/a
106.5715	0.1195	213143	keystroke	Key.backspace	n/a
106.9015	0.0745	213803	keystroke	m	n/a
106.946	0.1055	213892	keystroke	a	n/a
107.082	0.105	214164	keystroke	r	n/a
107.232	0.1045	214464	keystroke	k	n/a
107.457	0.089	214914	keystroke	e	n/a
107.667	0.0445	215334	keystroke	t	n/a
108.011	0.09	216022	keystroke	s	n/a
108.2515	0.0745	216503	keystroke	Key.enter	n/a
108.332	6.8665	216664	prompt	n/a	sleeps johnson beginning harvest\n
109.0465	0.0605	218093	keystroke	s	n/a
109.2115	0.075	218423	keystroke	l	n/a
109.3165	0.06	218633	keystroke	e	n/a
109.452	0.075	218904	keystroke	e	n/a
109.557	0.09	219114	keystroke	p	n/a
109.6625	0.0595	219325	keystroke	s	n/a
109.812	0.075	219624	keystroke	Key.space	n/a
110.3075	0.1195	220615	keystroke	j	n/a
110.487	0.105	220974	keystroke	o	n/a
110.7115	0.0605	221423	keystroke	h	n/a
110.8915	0.0755	221783	keystroke	n	n/a
110.9965	0.09	221993	keystroke	s	n/a
111.1015	0.135	222203	keystroke	o	n/a
111.1915	0.105	222383	keystroke	n	n/a
111.4615	0.0755	222923	keystroke	Key.space	n/a
111.867	0.045	223734	keystroke	b	n/a
111.9565	0.1055	223913	keystroke	e	n/a
112.1965	0.0755	224393	keystroke	g	n/a
112.287	0.119	224574	keystroke	i	n/a
112.377	0.1045	224754	keystroke	n	n/a
112.5725	0.075	225145	keystroke	n	n/a
112.781	0.106	225562	keystroke	i	n/a
112.841	0.12	225682	keystroke	n	n/a
112.992	0.0595	225984	keystroke	g	n/a
113.1865	0.0755	226373	keystroke	Key.space	n/a
114.0415	0.0755	228083	keystroke	h	n/a
114.132	0.09	228264	keystroke	a	n/a
114.2965	0.075	228593	keystroke	r	n/a
114.4615	0.075	228923	keystroke	v	n/a
114.5815	0.09	229163	keystroke	e	n/a
114.7915	0.0605	229583	keystroke	s	n/a
115.0315	0.045	230063	keystroke	t	n/a
115.137	0.059	230274	keystroke	Key.enter	n/a
115.203	8.0505	230406	prompt	n/a	suggests caught difference animal\n
115.8565	0.0605	231713	keystroke	s	n/a
116.112	0.075	232224	keystroke	u	n/a
116.337	0.06	232674	keystroke	g	n/a
116.457	0.09	232914	keystroke	g	n/a
116.5775	0.074	233155	keystroke	e	n/a
116.907	0.06	233814	keystroke	s	n/a
117.4315	0.0905	234863	keystroke	t	n/a
117.8215	0.0895	235643	keystroke	s	n/a
118.032	0.059	236064	keystroke	Key.space	n/a
118.602	0.0895	237204	keystroke	c	n/a
118.737	0.09	237474	keystroke	a	n/a
118.901	0.076	237802	keystroke	u	n/a
119.1715	0.09	238343	keystroke	g	n/a
119.3065	0.0755	238613	keystroke	h	n/a
119.3965	0.06	238793	keystroke	t	n/a
119.5765	0.06	239153	keystroke	Key.space	n/a
119.937	0.0745	239874	keystroke	d	n/a
120.087	0.0745	240174	keystroke	i	n/a
120.2365	0.0605	240473	keystroke	f	n/a
120.3565	0.1055	240713	keystroke	f	n/a
120.4915	0.1205	240983	keystroke	e	n/a
120.597	0.09	241194	keystroke	r	n/a
120.717	0.06	241434	keystroke	e	n/a
120.822	0.0895	241644	keystroke	n	n/a
121.017	0.089	242034	keystroke	c	n/a
121.137	0.09	242274	keystroke	e	n/a
121.2415	0.09	242483	keystroke	Key.space	n/a
121.962	0.0745	243924	keystroke	a	n/a
122.127	0.09	244254	keystroke	n	n/a
122.277	0.09	244554	keystroke	i	n/a
122.4565	0.0905	244913	keystroke	m	n/a
122.606	0.106	245212	keystroke	a	n/a
122.742	0.09	245484	keystroke	l	n/a
123.222	0.03	246444	keystroke	Key.enter	n/a
123.259	8.8895	246518	prompt	n/a	necessary form hotel modification\n
124.0165	0.09	248033	keystroke	n	n/a
124.1215	0.105	248243	keystroke	e	n/a
124.4065	0.06	248813	keystroke	c	n/a
124.557	0.075	249114	keystroke	e	n/a
124.932	0.044	249864	keystroke	s	n/a
125.067	0.0595	250134	keystroke	s	n/a
125.247	0.06	250494	keystroke	a	n/a
125.6515	0.0455	251303	keystroke	y	n/a
125.9665	0.075	251933	keystroke	Key.backspace	n/a
126.0865	0.075	252173	keystroke	r	n/a
126.3415	0.075	252683	keystroke	y	n/a
126.822	0.06	253644	keystroke	Key.space	n/a
127.332	0.0895	254664	keystroke	f	n/a
127.512	0.06	255024	keystroke	r	n/a
127.587	0.1045	255174	keystroke	o	n/a
127.6315	0.1055	255263	keystroke	m	n/a
127.8415	0.105	255683	keystroke	Key.space	n/a
128.2325	0.059	256465	keystroke	h	n/a
128.3815	0.09	256763	keystroke	o	n/a
128.5765	0.075	257153	keystroke	t	n/a
128.741	0.076	257482	keystroke	e	n/a
128.861	0.06	257722	keystroke	l	n/a
129.1015	0.0755	258203	keystroke	Key.space	n/a
129.6865	0.0755	259373	keystroke	m	n/a
129.8365	0.075	259673	keystroke	o	n/a
130.1815	0.075	260363	keystroke	d	n/a
130.3165	0.1055	260633	keystroke	i	n/a
130.467	0.045	260934	keystroke	f	n/a
130.5865	0.075	261173	keystroke	i	n/a
130.7815	0.12	261563	keystroke	c	n/a
131.097	0.075	262194	keystroke	a	n/a
131.337	0.0445	262674	keystroke	t	n/a
131.397	0.1795	262794	keystroke	i	n/a
131.457	0.1345	262914	keystroke	o	n/a
131.517	0.105	263034	keystroke	n	n/a
132.0715	0.075	264143	keystroke	Key.enter	n/a
132.1535	9.595	264307	prompt	n/a	changing carnival divisions estimate\n
132.807	0.0745	265614	keystroke	c	n/a
132.987	0.0595	265974	keystroke	h	n/a
133.0615	0.075	266123	keystroke	a	n/a
133.1965	0.09	266393	keystroke	n	n/a
133.3465	0.0755	266693	keystroke	g	n/a
133.452	0.135	266904	keystroke	i	n/a
133.557	0.105	267114	keystroke	n	n/a
133.647	0.074	267294	keystroke	g	n/a
134.412	0.0745	268824	keystroke	Key.space	n/a
134.6965	0.09	269393	keystroke	c	n/a
134.8315	0.091	269663	keystroke	a	n/a
134.9975	0.074	269995	keystroke	r	n/a
135.2675	0.0745	270535	keystroke	n	n/a
135.507	0.0745	271014	keystroke	i	n/a
135.6875	0.0895	271375	keystroke	v	n/a
135.8665	0.075	271733	keystroke	a	n/a
135.987	0.0745	271974	keystroke	l	n/a
136.362	0.0595	272724	keystroke	Key.space	n/a
136.767	0.075	273534	keystroke	d	n/a
136.9315	0.0755	273863	keystroke	i	n/a
137.157	0.06	274314	keystroke	v	n/a
137.292	0.074	274584	keystroke	i	n/a
137.442	0.0605	274884	keystroke	s	n/a
137.6215	0.03	275243	keystroke	i	n/a
138.4765	0.105	276953	keystroke	Key.backspace	n/a
139.1515	0.165	278303	keystroke	i	n/a
139.1965	0.1505	278393	keystroke	o	n/a
139.3315	0.1055	278663	keystroke	n	n/a
139.5115	0.09	279023	keystroke	s	n/a
139.7215	0.06	279443	keystroke	Key.space	n/a
140.201	0.091	280402	keystroke	e	n/a
140.4415	0.0755	280883	keystroke	s	n/a
140.682	0.0445	281364	keystroke	t	n/a
140.7865	0.1055	281573	keystroke	i	n/a
140.8925	0.134	281785	keystroke	m	n/a
140.9965	0.0905	281993	keystroke	a	n/a
141.2215	0.105	282443	keystroke	t	n/a
141.312	0.1045	282624	keystroke	e	n/a
141.6565	0.0905	283313	keystroke	Key.enter	n/a
141.7535	6.5645	283507	prompt	n/a	pickup closing cannon building\n
142.5265	0.0595	285053	keystroke	p	n/a
142.737	0.06	285474	keystroke	i	n/a
142.871	0.06	285742	keystroke	c	n/a
143.007	0.075	286014	keystroke	k	n/a
143.216	0.0755	286432	keystroke	u	n/a
143.441	0.0755	286882	keystroke	p	n/a
143.9215	0.06	287843	keystroke	Key.space	n/a
144.207	0.06	288414	keystroke	c	n/a
144.327	0.0755	288654	keystroke	l	n/a
144.507	0.06	289014	keystroke	o	n/a
144.5815	0.0895	289163	keystroke	s	n/a
144.7315	0.1055	289463	keystroke	i	n/a
144.791	0.106	289582	keystroke	n	n/a
144.911	0.0755	289822	keystroke	g	n/a
145.211	0.0605	290422	keystroke	Key.space	n/a
145.542	0.09	291084	keystroke	c	n/a
145.692	0.074	291384	keystroke	a	n/a
145.887	0.06	291774	keystroke	n	n/a
146.007	0.09	292014	keystroke	n	n/a
146.157	0.12	292314	keystroke	o	n/a
146.247	0.134	292494	keystroke	n	n/a
146.6215	0.075	293243	keystroke	Key.space	n/a
146.8915	0.0755	293783	keystroke	b	n/a
147.086	0.0755	294172	keystroke	u	n/a
147.297	0.075	294594	keystroke	i	n/a
147.522	0.059	295044	keystroke	l	n/a
147.7015	0.075	295403	keystroke	d	n/a
147.807	0.105	295614	keystroke	i	n/a
147.852	0.1195	295704	keystroke	n	n/a
147.987	0.074	295974	keystroke	g	n/a
148.242	0.075	296484	keystroke	Key.enter	n/a
148.3225	8.2765	296645	prompt	n/a	alive enemies guatemala sterling\n
148.917	0.06	297834	keystroke	a	n/a
149.1565	0.06	298313	keystroke	l	n/a
149.3815	0.075	298763	keystroke	i	n/a
149.502	0.075	299004	keystroke	v	n/a
149.637	0.075	299274	keystroke	e	n/a
149.787	0.074	299574	keystroke	Key.space	n/a
150.4165	0.0755	300833	keystroke	e	n/a
150.641	0.061	301282	keystroke	n	n/a
150.717	0.09	301434	keystroke	e	n/a
151.0315	0.0745	302063	keystroke	m	n/a
151.212	0.0595	302424	keystroke	i	n/a
151.3315	0.0755	302663	keystroke	e	n/a
151.542	0.06	303084	keystroke	s	n/a
151.812	0.06	303624	keystroke	Key.space	n/a
152.3515	0.09	304703	keystroke	g	n/a
152.6065	0.061	305213	keystroke	u	n/a
152.727	0.0595	305454	keystroke	a	n/a
152.9665	0.0755	305933	keystroke	t	n/a
153.1475	0.0745	306295	keystroke	e	n/a
153.402	0.0895	306804	keystroke	m	n/a
153.672	0.075	307344	keystroke	a	n/a
154.2865	0.075	308573	keystroke	l	n/a
154.3765	0.09	308753	keystroke	a	n/a
154.8415	0.06	309683	keystroke	Key.space	n/a
154.992	0.09	309984	keystroke	s	n/a
155.292	0.09	310584	keystroke	t	n/a
155.592	0.09	311184	keystroke	e	n/a
155.742	0.074	311484	keystroke	r	n/a
155.997	0.0745	311994	keystroke	l	n/a
156.177	0.1345	312354	keystroke	i	n/a
156.2525	0.119	312505	keystroke	n	n/a
156.3565	0.075	312713	keystroke	g	n/a
156.507	0.0895	313014	keystroke	Key.enter	n/a
156.603	9.7305	313206	prompt	n/a	putting vision finger steam\n
157.4215	0.1055	314843	keystroke	p	n/a
157.6915	0.06	315383	keystroke	u	n/a
157.8265	0.015	315653	keystroke	t	n/a
157.902	0.09	315804	keystroke	t	n/a
158.022	0.1195	316044	keystroke	i	n/a
158.0965	0.1205	316193	keystroke	n	n/a
158.233	0.059	316466	keystroke	f	n/a
158.8015	0.135	317603	keystroke	Key.backspace	n/a
159.087	0.075	318174	keystroke	g	n/a
159.267	0.059	318534	keystroke	Key.space	n/a
159.792	0.075	319584	keystroke	f	n/a
159.927	0.1345	319854	keystroke	i	n/a
160.0765	0.0455	320153	keystroke	n	n/a
160.1515	0.045	320303	keystroke	n	n/a
161.2015	0.06	322403	keystroke	Key.backspace	n/a
161.351	0.0755	322702	keystroke	Key.backspace	n/a
161.501	0.091	323002	keystroke	Key.backspace	n/a
161.9815	0.135	323963	keystroke	Key.backspace	n/a
163.077	0.0595	326154	keystroke	v	n/a
163.2265	0.0755	326453	keystroke	i	n/a
163.406	0.076	326812	keystroke	s	n/a
163.526	0.1805	327052	keystroke	i	n/a
163.587	0.105	327174	keystroke	o	n/a
163.631	0.121	327262	keystroke	n	n/a
163.9155	0.0755	327831	keystroke	Key.space	n/a
164.3365	0.06	328673	keystroke	f	n/a
164.4265	0.1205	328853	keystroke	i	n/a
164.487	0.119	328974	keystroke	n	n/a
164.771	0.076	329542	keystroke	g	n/a
164.906	0.1355	329812	keystroke	e	n/a
165.026	0.06	330052	keystroke	r	n/a
165.2065	0.0745	330413	keystroke	Key.space	n/a
165.567	0.0745	331134	keystroke	s	n/a
165.791	0.1055	331582	keystroke	t	n/a
165.897	0.164	331794	keystroke	e	n/a
166.0315	0.105	332063	keystroke	a	n/a
166.151	0.09	332302	keystroke	m	n/a
166.1815	0.045	332363	keystroke	n	n/a
166.257	0.074	332514	keystroke	Key.enter	n/a
166.3405	8.063	332681	prompt	n/a	integral imaging recreation themes\n
167.4115	0.0905	334823	keystroke	i	n/a
167.502	0.1045	335004	keystroke	n	n/a
167.7565	0.075	335513	keystroke	t	n/a
167.9515	0.12	335903	keystroke	e	n/a
168.342	0.0745	336684	keystroke	g	n/a
168.462	0.09	336924	keystroke	r	n/a
168.6565	0.0755	337313	keystroke	a	n/a
168.791	0.105	337582	keystroke	l	n/a
169.077	0.06	338154	keystroke	Key.space	n/a
169.466	0.091	338932	keystroke	i	n/a
169.542	0.1045	339084	keystroke	m	n/a
169.7065	0.0755	339413	keystroke	a	n/a
169.976	0.076	339952	keystroke	g	n/a
170.082	0.119	340164	keystroke	i	n/a
170.171	0.105	340342	keystroke	n	n/a
170.456	0.061	340912	keystroke	g	n/a
170.636	0.075	341272	keystroke	Key.space	n/a
171.252	0.105	342504	keystroke	r	n/a
171.312	0.119	342624	keystroke	e	n/a
171.5665	0.091	343133	keystroke	c	n/a
171.8365	0.03	343673	keystroke	r	n/a
172.0165	0.09	344033	keystroke	e	n/a
172.3465	0.0905	344693	keystroke	a	n/a
172.602	0.075	345204	keystroke	t	n/a
172.722	0.1795	345444	keystroke	i	n/a
172.782	0.1345	345564	keystroke	o	n/a
172.857	0.1195	345714	keystroke	n	n/a
173.186	0.075	346372	keystroke	Key.space	n/a
173.457	0.09	346914	keystroke	t	n/a
173.5765	0.0905	347153	keystroke	h	n/a
173.6815	0.09	347363	keystroke	e	n/a
173.847	0.0895	347694	keystroke	m	n/a
173.982	0.0595	347964	keystroke	e	n/a
174.161	0.091	348322	keystroke	s	n/a
174.327	0.074	348654	keystroke	Key.enter	n/a
174.408	11.1405	348816	prompt	n/a	basement wiring there'll referral\n
175.1515	0.045	350303	keystroke	b	n/a
175.4065	0.105	350813	keystroke	a	n/a
175.7215	0.075	351443	keystroke	s	n/a
175.947	0.0445	351894	keystroke	e	n/a
176.1565	0.06	352313	keystroke	m	n/a
176.667	0.0595	353334	keystroke	e	n/a
176.787	0.1045	353574	keystroke	n	n/a
176.937	0.0895	353874	keystroke	t	n/a
177.447	0.0595	354894	keystroke	Key.space	n/a
177.8065	0.075	355613	keystroke	w	n/a
178.1815	0.1055	356363	keystroke	i	n/a
178.317	0.09	356634	keystroke	r	n/a
178.451	0.105	356902	keystroke	i	n/a
178.586	0.046	357172	keystroke	g	n/a
178.676	0.0755	357352	keystroke	n	n/a
179.6815	0.09	359363	keystroke	Key.backspace	n/a
180.596	0.075	361192	keystroke	Key.backspace	n/a
181.077	0.0745	362154	keystroke	n	n/a
181.166	0.075	362332	keystroke	g	n/a
181.301	0.0605	362602	keystroke	Key.space	n/a
181.856	0.0915	363712	keystroke	t	n/a
182.0065	0.06	364013	keystroke	h	n/a
182.111	0.136	364222	keystroke	e	n/a
182.2615	0.12	364523	keystroke	r	n/a
182.3665	0.0445	364733	keystroke	e	n/a
182.847	0.0745	365694	keystroke	'	n/a
183.086	0.061	366172	keystroke	l	n/a
183.191	0.09	366382	keystroke	l	n/a
183.492	0.074	366984	keystroke	Key.space	n/a
183.762	0.105	367524	keystroke	r	n/a
183.8365	0.12	367673	keystroke	e	n/a
184.106	0.06	368212	keystroke	f	n/a
184.257	0.105	368514	keystroke	e	n/a
184.557	0.09	369114	keystroke	r	n/a
184.887	0.105	369774	keystroke	r	n/a
185.0965	0.075	370193	keystroke	a	n/a
185.2165	0.09	370433	keystroke	l	n/a
185.4715	0.075	370943	keystroke	Key.enter	n/a
185.553	6.3405	371106	prompt	n/a	theater looked madonna refer\n
186.2515	0.105	372503	keystroke	t	n/a
186.4015	0.0755	372803	keystroke	h	n/a
186.4465	0.12	372893	keystroke	e	n/a
186.792	0.1045	373584	keystroke	a	n/a
186.972	0.0895	373944	keystroke	t	n/a
187.0465	0.225	374093	keystroke	e	n/a
187.2265	0.105	374453	keystroke	r	n/a
187.6915	0.075	375383	keystroke	Key.space	n/a
188.127	0.09	376254	keystroke	l	n/a
188.337	0.06	376674	keystroke	o	n/a
188.457	0.104	376914	keystroke	o	n/a
188.516	0.121	377032	keystroke	k	n/a
188.7115	0.1345	377423	keystroke	e	n/a
188.922	0.105	377844	keystroke	d	n/a
189.072	0.0745	378144	keystroke	Key.space	n/a
189.3715	0.0755	378743	keystroke	m	n/a
189.597	0.075	379194	keystroke	a	n/a
189.822	0.0595	379644	keystroke	d	n/a
190.0915	0.1055	380183	keystroke	o	n/a
190.3315	0.045	380663	keystroke	n	n/a
190.4665	0.0905	380933	keystroke	n	n/a
190.6015	0.0755	381203	keystroke	a	n/a
190.7815	0.075	381563	keystroke	Key.space	n/a
191.202	0.089	382404	keystroke	r	n/a
191.2775	0.1185	382555	keystroke	e	n/a
191.4415	0.0905	382883	keystroke	f	n/a
191.5615	0.165	383123	keystroke	e	n/a
191.6815	0.0605	383363	keystroke	r	n/a
191.787	0.1045	383574	keystroke	Key.enter	n/a
191.898	5.9655	383796	prompt	n/a	lane assault dialog ground\n
192.7615	0.0755	385523	keystroke	l	n/a
192.8515	0.09	385703	keystroke	a	n/a
193.0315	0.0905	386063	keystroke	n	n/a
193.1665	0.06	386333	keystroke	e	n/a
193.332	0.075	386664	keystroke	Key.space	n/a
193.497	0.09	386994	keystroke	a	n/a
193.647	0.09	387294	keystroke	s	n/a
193.842	0.075	387684	keystroke	s	n/a
194.007	0.09	388014	keystroke	a	n/a
194.142	0.075	388284	keystroke	u	n/a
194.561	0.105	389122	keystroke	l	n/a
194.682	0.0895	389364	keystroke	t	n/a
195.0265	0.06	390053	keystroke	Key.space	n/a
195.5215	0.0745	391043	keystroke	d	n/a
195.702	0.074	391404	keystroke	i	n/a
195.792	0.059	391584	keystroke	a	n/a
195.942	0.0745	391884	keystroke	l	n/a
196.137	0.09	392274	keystroke	o	n/a
196.346	0.046	392692	keystroke	g	n/a
196.5265	0.06	393053	keystroke	Key.space	n/a
196.9915	0.0755	393983	keystroke	g	n/a
197.157	0.06	394314	keystroke	r	n/a
197.232	0.06	394464	keystroke	o	n/a
197.427	0.12	394854	keystroke	u	n/a
197.502	0.1195	395004	keystroke	n	n/a
197.637	0.09	395274	keystroke	d	n/a
197.771	0.0905	395542	keystroke	Key.enter	n/a
197.867	8.666	395734	prompt	n/a	determine beam stat moderator\n
198.687	0.104	397374	keystroke	f	n/a
199.091	0.105	398182	keystroke	Key.backspace	n/a
199.242	0.09	398484	keystroke	d	n/a
199.362	0.135	398724	keystroke	e	n/a
199.557	0.089	399114	keystroke	t	n/a
199.691	0.181	399382	keystroke	e	n/a
199.8275	0.1035	399655	keystroke	r	n/a
200.0515	0.0605	400103	keystroke	m	n/a
200.201	0.121	400402	keystroke	i	n/a
200.262	0.135	400524	keystroke	n	n/a
200.366	0.105	400732	keystroke	e	n/a
200.8315	0.075	401663	keystroke	Key.space	n/a
201.102	0.075	402204	keystroke	b	n/a
201.192	0.165	402384	keystroke	e	n/a
201.311	0.076	402622	keystroke	a	n/a
201.567	0.075	403134	keystroke	m	n/a
201.807	0.06	403614	keystroke	Key.space	n/a
202.0775	0.0895	404155	keystroke	s	n/a
202.317	0.09	404634	keystroke	t	n/a
202.421	0.106	404842	keystroke	a	n/a
202.542	0.105	405084	keystroke	t	n/a
202.917	0.0745	405834	keystroke	Key.space	n/a
203.172	0.0755	406344	keystroke	m	n/a
203.367	0.075	406734	keystroke	o	n/a
203.472	0.089	406944	keystroke	d	n/a
203.622	0.135	407244	keystroke	e	n/a
203.772	0.075	407544	keystroke	r	n/a
203.922	0.075	407844	keystroke	a	n/a
204.042	0.075	408084	keystroke	t	n/a
204.177	0.135	408354	keystroke	i	n/a
204.5375	0.0595	409075	keystroke	o	n/a
204.612	0.09	409224	keystroke	r	n/a
205.3015	0.09	410603	keystroke	Key.backspace	n/a
205.4515	0.09	410903	keystroke	Key.backspace	n/a
205.6165	0.09	411233	keystroke	Key.backspace	n/a
206.2465	0.075	412493	keystroke	o	n/a
206.3365	0.06	412673	keystroke	r	n/a
206.441	0.09	412882	keystroke	Key.enter	n/a
206.537	10.8265	413074	prompt	n/a	necessary nicole strange reuters\n
207.3265	0.06	414653	keystroke	n	n/a
207.4165	0.1055	414833	keystroke	e	n/a
207.6565	0.06	415313	keystroke	c	n/a
207.821	0.09	415642	keystroke	e	n/a
208.7365	0.06	417473	keystroke	s	n/a
208.9015	0.0755	417803	keystroke	s	n/a
209.067	0.119	418134	keystroke	a	n/a
209.441	0.0755	418882	keystroke	r	n/a
209.562	0.0905	419124	keystroke	y	n/a
209.8915	0.0595	419783	keystroke	Key.space	n/a
210.4615	0.09	420923	keystroke	n	n/a
210.567	0.1045	421134	keystroke	i	n/a
210.777	0.0595	421554	keystroke	c	n/a
211.0315	0.105	422063	keystroke	o	n/a
211.2115	0.105	422423	keystroke	l	n/a
211.3315	0.076	422663	keystroke	e	n/a
211.5265	0.06	423053	keystroke	Key.space	n/a
211.7215	0.0755	423443	keystroke	s	n/a
211.9315	0.091	423863	keystroke	t	n/a
211.9765	0.1505	423953	keystroke	r	n/a
212.232	0.075	424464	keystroke	a	n/a
212.367	0.075	424734	keystroke	n	n/a
212.637	0.075	425274	keystroke	g	n/a
212.742	0.075	425484	keystroke	e	n/a
213.687	0.044	427374	keystroke	Key.space	n/a
214.121	0.091	428242	keystroke	r	n/a
214.1815	0.1195	428363	keystroke	e	n/a
214.422	0.0745	428844	keystroke	t	n/a
214.692	0.105	429384	keystroke	u	n/a
215.0815	0.0755	430163	keystroke	Key.backspace	n/a
215.2915	0.075	430583	keystroke	Key.backspace	n/a
215.727	0.0595	431454	keystroke	u	n/a
215.8315	0.1055	431663	keystroke	t	n/a
215.9965	0.1955	431993	keystroke	e	n/a
216.1015	0.1205	432203	keystroke	r	n/a
217.017	0.09	434034	keystroke	s	n/a
217.257	0.105	434514	keystroke	Key.enter	n/a
217.3685	10.705	434737	prompt	n/a	dates what revealed disclosure\n
218.097	0.134	436194	keystroke	d	n/a
218.232	0.105	436464	keystroke	a	n/a
218.3965	0.105	436793	keystroke	t	n/a
218.5165	0.106	437033	keystroke	e	n/a
218.742	0.0895	437484	keystroke	s	n/a
218.8765	0.09	437753	keystroke	Key.space	n/a
219.0415	0.105	438083	keystroke	w	n/a
219.177	0.09	438354	keystroke	h	n/a
219.2365	0.075	438473	keystroke	a	n/a
219.3565	0.075	438713	keystroke	t	n/a
219.4915	0.0605	438983	keystroke	Key.space	n/a
219.6715	0.1055	439343	keystroke	r	n/a
219.7615	0.18	439523	keystroke	e	n/a
220.0615	0.0905	440123	keystroke	a	n/a
220.707	0.06	441414	keystroke	v	n/a
223.109	0.0275	446218	keystroke	Key.backspace	n/a
223.2265	0.06	446453	keystroke	Key.backspace	n/a
223.6915	0.105	447383	keystroke	Key.backspace	n/a
224.382	0.091	448764	keystroke	e	n/a
224.802	0.1045	449604	keystroke	v	n/a
224.9215	0.195	449843	keystroke	e	n/a
225.057	0.105	450114	keystroke	a	n/a
225.192	0.089	450384	keystroke	l	n/a
225.386	0.0915	450772	keystroke	d	n/a
225.5215	0.075	451043	keystroke	Key.space	n/a
226.2265	0.09	452453	keystroke	d	n/a
226.4215	0.0755	452843	keystroke	i	n/a
226.512	0.09	453024	keystroke	s	n/a
226.7215	0.075	453443	keystroke	c	n/a
226.931	0.0905	453862	keystroke	l	n/a
227.1415	0.0755	454283	keystroke	o	n/a
227.487	0.0595	454974	keystroke	s	n/a
227.621	0.1055	455242	keystroke	u	n/a
227.771	0.12	455542	keystroke	r	n/a
227.831	0.105	455662	keystroke	e	n/a
227.9815	0.09	455963	keystroke	Key.enter	n/a
228.078	9.355	456156	prompt	n/a	thousands wasn't rendered participants\n
228.807	0.105	457614	keystroke	t	n/a
228.942	0.0895	457884	keystroke	h	n/a
229.1065	0.0755	458213	keystroke	o	n/a
229.302	0.0745	458604	keystroke	u	n/a
229.407	0.075	458814	keystroke	s	n/a
229.6165	0.0755	459233	keystroke	a	n/a
229.7515	0.09	459503	keystroke	n	n/a
229.8725	0.105	459745	keystroke	d	n/a
230.1415	0.0755	460283	keystroke	s	n/a
230.6065	0.0745	461213	keystroke	Key.space	n/a
230.802	0.105	461604	keystroke	w	n/a
230.9365	0.135	461873	keystroke	a	n/a
231.057	0.0895	462114	keystroke	s	n/a
231.2065	0.0745	462413	keystroke	n	n/a
231.596	0.106	463192	keystroke	'	n/a
231.8225	0.0745	463645	keystroke	t	n/a
232.001	0.075	464002	keystroke	Key.space	n/a
232.5415	0.1205	465083	keystroke	r	n/a
232.6315	0.1345	465263	keystroke	e	n/a
233.021	0.06	466042	keystroke	n	n/a
233.186	0.121	466372	keystroke	d	n/a
233.336	0.15	466672	keystroke	e	n/a
233.502	0.105	467004	keystroke	r	n/a
233.608	0.208	467216	keystroke	e	n/a
233.756	0.106	467512	keystroke	d	n/a
234.296	0.075	468592	keystroke	Key.space	n/a
234.6715	0.075	469343	keystroke	p	n/a
234.7765	0.105	469553	keystroke	a	n/a
235.167	0.075	470334	keystroke	r	n/a
235.377	0.059	470754	keystroke	t	n/a
235.632	0.074	471264	keystroke	i	n/a
236.021	0.0605	472042	keystroke	c	n/a
236.1415	0.09	472283	keystroke	i	n/a
236.546	0.076	473092	keystroke	p	n/a
236.681	0.045	473362	keystroke	a	n/a
236.8465	0.0745	473693	keystroke	n	n/a
236.9965	0.075	473993	keystroke	t	n/a
237.2065	0.045	474413	keystroke	s	n/a
237.3565	0.075	474713	keystroke	Key.enter	n/a
237.437	11.516	474874	prompt	n/a	porcelain hull sees undergraduate\n
238.392	0.06	476784	keystroke	p	n/a
238.8715	0.0755	477743	keystroke	o	n/a
238.9615	0.0895	477923	keystroke	r	n/a
239.292	0.0445	478584	keystroke	c	n/a
239.427	0.0745	478854	keystroke	e	n/a
240.5665	0.075	481133	keystroke	l	n/a
241.286	0.121	482572	keystroke	a	n/a
241.452	0.135	482904	keystroke	i	n/a
241.587	0.104	483174	keystroke	n	n/a
241.8415	0.06	483683	keystroke	Key.space	n/a
242.4415	0.1505	484883	keystroke	h	n/a
242.577	0.1045	485154	keystroke	u	n/a
242.8625	0.0895	485725	keystroke	l	n/a
243.102	0.06	486204	keystroke	l	n/a
243.3565	0.075	486713	keystroke	Key.space	n/a
243.4615	0.0605	486923	keystroke	s	n/a
243.6565	0.06	487313	keystroke	e	n/a
243.8215	0.06	487643	keystroke	e	n/a
244.062	0.0745	488124	keystroke	s	n/a
244.2265	0.0605	488453	keystroke	Key.space	n/a
245.247	0.0745	490494	keystroke	u	n/a
245.412	0.0745	490824	keystroke	n	n/a
245.5465	0.075	491093	keystroke	d	n/a
245.6965	0.15	491393	keystroke	e	n/a
245.8165	0.075	491633	keystroke	r	n/a
246.0865	0.075	492173	keystroke	g	n/a
246.2965	0.075	492593	keystroke	r	n/a
246.4465	0.0905	492893	keystroke	a	n/a
246.6565	0.0605	493313	keystroke	t	n/a
246.7915	0.105	493583	keystroke	u	n/a
247.241	0.06	494482	keystroke	s	n/a
247.6165	0.1355	495233	keystroke	Key.backspace	n/a
247.692	0.105	495384	keystroke	a	n/a
247.811	0.105	495622	keystroke	d	n/a
248.186	0.1055	496372	keystroke	Key.backspace	n/a
248.306	0.1655	496612	keystroke	t	n/a
248.411	0.1505	496822	keystroke	e	n/a
248.876	0.0755	497752	keystroke	Key.enter	n/a
248.966	13.5775	497932	prompt	n/a	accept belfast bluetooth accreditation\n
249.7465	0.0595	499493	keystroke	a	n/a
249.941	0.03	499882	keystroke	c	n/a
250.062	0.0595	500124	keystroke	c	n/a
250.2415	0.075	500483	keystroke	e	n/a
250.3905	0.091	500781	keystroke	p	n/a
250.5715	0.075	501143	keystroke	t	n/a
250.7205	0.0605	501441	keystroke	Key.space	n/a
251.172	0.059	502344	keystroke	b	n/a
251.276	0.076	502552	keystroke	e	n/a
251.4715	0.075	502943	keystroke	l	n/a
251.7115	0.075	503423	keystroke	f	n/a
251.8315	0.12	503663	keystroke	a	n/a
252.0715	0.1055	504143	keystroke	s	n/a
252.3415	0.075	504683	keystroke	t	n/a
252.5515	0.045	505103	keystroke	Key.space	n/a
253.122	0.119	506244	keystroke	b	n/a
253.407	0.075	506814	keystroke	l	n/a
253.6615	0.105	507323	keystroke	u	n/a
253.7815	0.0755	507563	keystroke	e	n/a
253.9465	0.075	507893	keystroke	t	n/a
254.0815	0.0595	508163	keystroke	o	n/a
254.187	0.104	508374	keystroke	o	n/a
254.427	0.0735	508854	keystroke	t	n/a
254.5465	0.105	509093	keystroke	h	n/a
255.011	0.045	510022	keystroke	Key.space	n/a
255.161	0.075	510322	keystroke	a	n/a
255.3565	0.045	510713	keystroke	c	n/a
255.4615	0.0595	510923	keystroke	c	n/a
255.762	0.1195	511524	keystroke	r	n/a
255.866	0.09	511732	keystroke	e	n/a
256.4515	0.06	512903	keystroke	d	n/a
256.6765	0.075	513353	keystroke	i	n/a
258.282	0.0745	516564	keystroke	t	n/a
258.402	0.104	516804	keystroke	a	n/a
258.5365	0.09	517073	keystroke	t	n/a
258.7165	0.03	517433	keystroke	t	n/a
259.3015	0.09	518603	keystroke	Key.backspace	n/a
259.857	0.27	519714	keystroke	i	n/a
259.947	0.165	519894	keystroke	o	n/a
260.081	0.121	520162	keystroke	n	n/a
262.4985	0.0425	524997	keystroke	Key.enter	n/a
262.5485	10.255	525097	prompt	n/a	demand butterfly anderson cancelled\n
263.4865	0.0745	526973	keystroke	d	n/a
263.6515	0.0755	527303	keystroke	e	n/a
263.7865	0.0905	527573	keystroke	m	n/a
263.8915	0.1055	527783	keystroke	a	n/a
264.0115	0.0905	528023	keystroke	n	n/a
264.1615	0.09	528323	keystroke	d	n/a
264.2965	0.09	528593	keystroke	Key.space	n/a
264.686	0.09	529372	keystroke	b	n/a
264.896	0.075	529792	keystroke	u	n/a
265.0465	0.075	530093	keystroke	t	n/a
265.1815	0.075	530363	keystroke	t	n/a
265.3315	0.12	530663	keystroke	e	n/a
265.4215	0.0755	530843	keystroke	r	n/a
265.7215	0.105	531443	keystroke	l	n/a
267.296	0.0605	534592	keystroke	Key.backspace	n/a
267.5065	0.105	535013	keystroke	f	n/a
267.7765	0.0605	535553	keystroke	l	n/a
268.0165	0.015	536033	keystroke	y	n/a
268.1215	0.075	536243	keystroke	Key.space	n/a
269.2015	0.075	538403	keystroke	a	n/a
269.6515	0.075	539303	keystroke	n	n/a
269.8615	0.135	539723	keystroke	d	n/a
270.0865	0.12	540173	keystroke	e	n/a
270.222	0.0445	540444	keystroke	r	n/a
270.3865	0.029	540773	keystroke	s	n/a
270.4915	0.134	540983	keystroke	o	n/a
270.5965	0.134	541193	keystroke	n	n/a
270.8655	0.076	541731	keystroke	Key.space	n/a
271.1215	0.105	542243	keystroke	c	n/a
271.2415	0.075	542483	keystroke	a	n/a
271.3615	0.075	542723	keystroke	n	n/a
271.467	0.0745	542934	keystroke	c	n/a
271.7365	0.0905	543473	keystroke	e	n/a
271.8865	0.06	543773	keystroke	l	n/a
272.022	0.0745	544044	keystroke	l	n/a
272.2015	0.105	544403	keystroke	e	n/a
272.3505	0.106	544701	keystroke	d	n/a
272.7115	0.09	545423	keystroke	Key.enter	n/a
272.8095	9.8935	545619	prompt	n/a	nearby states holy products\n
273.627	0.0595	547254	keystroke	n	n/a
273.702	0.1195	547404	keystroke	e	n/a
273.7615	0.105	547523	keystroke	a	n/a
273.896	0.091	547792	keystroke	r	n/a
274.167	0.089	548334	keystroke	b	n/a
274.541	0.045	549082	keystroke	y	n/a
274.7965	0.0745	549593	keystroke	Key.space	n/a
275.5915	0.105	551183	keystroke	s	n/a
275.8015	0.0755	551603	keystroke	t	n/a
275.8605	0.091	551721	keystroke	a	n/a
276.0115	0.075	552023	keystroke	t	n/a
276.1315	0.0905	552263	keystroke	s	n/a
276.3715	0.075	552743	keystroke	e	n/a
276.7015	0.06	553403	keystroke	Key.backspace	n/a
276.8215	0.0895	553643	keystroke	Key.backspace	n/a
276.896	0.0905	553792	keystroke	e	n/a
277.076	0.091	554152	keystroke	s	n/a
277.1815	0.0745	554363	keystroke	Key.space	n/a
278.006	0.0755	556012	keystroke	h	n/a
278.216	0.0755	556432	keystroke	o	n/a
278.441	0.0605	556882	keystroke	l	n/a
278.561	0.0905	557122	keystroke	l	n/a
279.2515	0.1345	558503	keystroke	Key.backspace	n/a
279.551	0.0755	559102	keystroke	y	n/a
279.7165	0.0595	559433	keystroke	Key.space	n/a
280.661	0.075	561322	keystroke	p	n/a
280.8415	0.0755	561683	keystroke	r	n/a
280.946	0.09	561892	keystroke	o	n/a
281.231	0.0755	562462	keystroke	d	n/a
281.412	0.06	562824	keystroke	u	n/a
281.6515	0.1055	563303	keystroke	c	n/a
282.251	0.06	564502	keystroke	t	n/a
282.4915	0.0595	564983	keystroke	s	n/a
282.6565	0.0445	565313	keystroke	Key.enter	n/a
282.7075	7.7055	565415	prompt	n/a	elimination vegas slovakia copies\n
283.5265	0.044	567053	keystroke	e	n/a
283.6915	0.075	567383	keystroke	l	n/a
283.9015	0.0895	567803	keystroke	i	n/a
283.977	0.1485	567954	keystroke	m	n/a
284.157	0.135	568314	keystroke	i	n/a
284.4715	0.09	568943	keystroke	n	n/a
284.6515	0.0895	569303	keystroke	a	n/a
284.861	0.06	569722	keystroke	t	n/a
284.9965	0.195	569993	keystroke	i	n/a
285.0565	0.12	570113	keystroke	o	n/a
285.1315	0.12	570263	keystroke	n	n/a
285.521	0.0755	571042	keystroke	Key.space	n/a
286.121	0.1055	572242	keystroke	v	n/a
286.301	0.0905	572602	keystroke	e	n/a
286.6605	0.0615	573321	keystroke	g	n/a
286.7515	0.1345	573503	keystroke	a	n/a
286.8705	0.091	573741	keystroke	s	n/a
287.021	0.075	574042	keystroke	Key.space	n/a
287.3365	0.0745	574673	keystroke	s	n/a
287.456	0.09	574912	keystroke	l	n/a
287.652	0.074	575304	keystroke	o	n/a
287.847	0.059	575694	keystroke	v	n/a
288.0415	0.0745	576083	keystroke	a	n/a
288.296	0.0605	576592	keystroke	k	n/a
288.4765	0.0595	576953	keystroke	i	n/a
288.657	0.0745	577314	keystroke	a	n/a
288.821	0.075	577642	keystroke	Key.space	n/a
289.2865	0.06	578573	keystroke	c	n/a
289.4505	0.046	578901	keystroke	o	n/a
289.632	0.06	579264	keystroke	p	n/a
289.871	0.075	579742	keystroke	i	n/a
289.9615	0.0895	579923	keystroke	e	n/a
290.172	0.074	580344	keystroke	s	n/a
290.351	0.0605	580702	keystroke	Key.enter	n/a
290.4185	11.6795	580837	prompt	n/a	curve theoretical colleagues caribbean\n
291.4165	0.075	582833	keystroke	c	n/a
291.596	0.0455	583192	keystroke	u	n/a
291.7315	0.0595	583463	keystroke	r	n/a
291.956	0.09	583912	keystroke	v	n/a
292.0915	0.06	584183	keystroke	e	n/a
292.2115	0.089	584423	keystroke	Key.space	n/a
292.4665	0.075	584933	keystroke	t	n/a
292.617	0.0745	585234	keystroke	h	n/a
292.7515	0.09	585503	keystroke	e	n/a
292.9305	0.0915	585861	keystroke	o	n/a
293.7265	0.0755	587453	keystroke	r	n/a
294.207	0.0745	588414	keystroke	e	n/a
294.4015	0.06	588803	keystroke	t	n/a
294.5515	0.06	589103	keystroke	i	n/a
294.7165	0.09	589433	keystroke	c	n/a
294.8515	0.09	589703	keystroke	a	n/a
294.9415	0.075	589883	keystroke	l	n/a
295.5865	0.0295	591173	keystroke	Key.space	n/a
295.8265	0.12	591653	keystroke	c	n/a
296.1265	0.09	592253	keystroke	o	n/a
296.4115	0.0595	592823	keystroke	l	n/a
296.5765	0.0745	593153	keystroke	l	n/a
297.2065	0.15	594413	keystroke	e	n/a
297.3265	0.105	594653	keystroke	a	n/a
297.6265	0.0595	595253	keystroke	g	n/a
297.7465	0.06	595493	keystroke	u	n/a
297.836	0.0905	595672	keystroke	e	n/a
298.0465	0.09	596093	keystroke	s	n/a
298.181	0.075	596362	keystroke	Key.space	n/a
299.2915	0.075	598583	keystroke	c	n/a
299.4415	0.075	598883	keystroke	a	n/a
300.2965	0.045	600593	keystroke	r	n/a
300.506	0.09	601012	keystroke	i	n/a
300.926	0.045	601852	keystroke	b	n/a
301.016	0.0905	602032	keystroke	b	n/a
301.1965	0.075	602393	keystroke	e	n/a
301.436	0.075	602872	keystroke	a	n/a
301.752	0.0745	603504	keystroke	n	n/a
302.0065	0.09	604013	keystroke	Key.enter	n/a
302.1035	7.479	604207	prompt	n/a	jeremy calcium midlands msie\n
302.861	0.06	605722	keystroke	j	n/a
302.9515	0.075	605903	keystroke	e	n/a
303.1905	0.091	606381	keystroke	r	n/a
303.2955	0.106	606591	keystroke	e	n/a
303.4305	0.1055	606861	keystroke	m	n/a
304.091	0.076	608182	keystroke	y	n/a
304.376	0.0755	608752	keystroke	Key.space	n/a
304.647	0.0895	609294	keystroke	c	n/a
304.8865	0.075	609773	keystroke	a	n/a
305.4115	0.0605	610823	keystroke	l	n/a
305.7555	0.076	611511	keystroke	c	n/a
305.9965	0.075	611993	keystroke	i	n/a
306.1615	0.075	612323	keystroke	u	n/a
306.3865	0.075	612773	keystroke	m	n/a
306.6115	0.06	613223	keystroke	Key.space	n/a
306.9265	0.09	613853	keystroke	m	n/a
307.091	0.0755	614182	keystroke	i	n/a
307.332	0.074	614664	keystroke	d	n/a
307.481	0.0755	614962	keystroke	l	n/a
307.5865	0.075	615173	keystroke	a	n/a
307.752	0.0745	615504	keystroke	n	n/a
307.902	0.164	615804	keystroke	d	n/a
308.0965	0.075	616193	keystroke	s	n/a
308.3215	0.0745	616643	keystroke	Key.space	n/a
308.801	0.09	617602	keystroke	m	n/a
309.1165	0.0745	618233	keystroke	s	n/a
309.251	0.06	618502	keystroke	i	n/a
309.3865	0.0745	618773	keystroke	e	n/a
309.506	0.0755	619012	keystroke	Key.enter	n/a
309.586	7.497	619172	prompt	n/a	church broader morgan works\n
310.3915	0.06	620783	keystroke	c	n/a
310.4965	0.075	620993	keystroke	h	n/a
310.6765	0.0895	621353	keystroke	u	n/a
310.8415	0.075	621683	keystroke	r	n/a
311.351	0.1205	622702	keystroke	c	n/a
311.562	0.074	623124	keystroke	h	n/a
311.771	0.0905	623542	keystroke	Key.space	n/a
311.996	0.075	623992	keystroke	b	n/a
312.147	0.0895	624294	keystroke	r	n/a
312.4165	0.045	624833	keystroke	o	n/a
312.7765	0.075	625553	keystroke	a	n/a
312.9715	0.0745	625943	keystroke	d	n/a
313.451	0.1055	626902	keystroke	e	n/a
313.571	0.105	627142	keystroke	r	n/a
313.781	0.0605	627562	keystroke	Key.space	n/a
314.1115	0.0745	628223	keystroke	m	n/a
314.231	0.1205	628462	keystroke	o	n/a
314.366	0.06	628732	keystroke	r	n/a
314.711	0.0605	629422	keystroke	g	n/a
314.8165	0.1045	629633	keystroke	a	n/a
314.966	0.0905	629932	keystroke	n	n/a
315.042	0.074	630084	keystroke	e	n/a
315.2505	0.06	630501	keystroke	Key.space	n/a
315.626	0.0755	631252	keystroke	Key.backspace	n/a
315.7615	0.09	631523	keystroke	Key.backspace	n/a
316.0615	0.075	632123	keystroke	Key.space	n/a
316.362	0.0895	632724	keystroke	w	n/a
316.4965	0.075	632993	keystroke	o	n/a
316.6465	0.0755	633293	keystroke	r	n/a
316.7665	0.089	633533	keystroke	k	n/a
316.931	0.075	633862	keystroke	s	n/a
316.9915	0.09	633983	keystroke	Key.enter	n/a
317.0875	7.5555	634175	prompt	n/a	railway vienna muslim constructed\n
317.9515	0.0745	635903	keystroke	r	n/a
318.191	0.0155	636382	keystroke	a	n/a
318.2665	0.06	636533	keystroke	i	n/a
318.462	0.075	636924	keystroke	l	n/a
318.6555	0.106	637311	keystroke	w	n/a
318.8665	0.075	637733	keystroke	a	n/a
319.0005	0.076	638001	keystroke	y	n/a
319.286	0.06	638572	keystroke	Key.space	n/a
319.7805	0.06	639561	keystroke	v	n/a
319.9165	0.0755	639833	keystroke	i	n/a
320.0515	0.105	640103	keystroke	e	n/a
320.2305	0.061	640461	keystroke	n	n/a
320.3965	0.075	640793	keystroke	n	n/a
320.5005	0.076	641001	keystroke	a	n/a
320.6805	0.061	641361	keystroke	Key.space	n/a
321.116	0.0755	642232	keystroke	m	n/a
321.3115	0.0755	642623	keystroke	u	n/a
321.447	0.074	642894	keystroke	s	n/a
321.6265	0.06	643253	keystroke	l	n/a
321.8065	0.09	643613	keystroke	i	n/a
321.9115	0.105	643823	keystroke	m	n/a
322.1665	0.075	644333	keystroke	Key.space	n/a
322.5265	0.0755	645053	keystroke	c	n/a
322.6465	0.06	645293	keystroke	o	n/a
322.7815	0.075	645563	keystroke	n	n/a
322.9015	0.0905	645803	keystroke	s	n/a
323.1715	0.06	646343	keystroke	t	n/a
323.3665	0.06	646733	keystroke	r	n/a
323.5315	0.06	647063	keystroke	u	n/a
323.742	0.0895	647484	keystroke	c	n/a
323.9665	0.06	647933	keystroke	t	n/a
324.2515	0.135	648503	keystroke	e	n/a
324.387	0.1045	648774	keystroke	d	n/a
324.5505	0.09	649101	keystroke	Key.enter	n/a
324.647	7.991	649294	prompt	n/a	sauce automatic resistance news\n
325.3165	0.12	650633	keystroke	s	n/a
325.496	0.09	650992	keystroke	a	n/a
325.631	0.0605	651262	keystroke	u	n/a
325.841	0.09	651682	keystroke	c	n/a
325.9615	0.0895	651923	keystroke	e	n/a
326.111	0.06	652222	keystroke	Key.space	n/a
326.5165	0.0745	653033	keystroke	a	n/a
326.831	0.0605	653662	keystroke	u	n/a
327.0715	0.0745	654143	keystroke	t	n/a
327.221	0.075	654442	keystroke	o	n/a
327.401	0.0755	654802	keystroke	m	n/a
327.477	0.0745	654954	keystroke	a	n/a
327.686	0.0605	655372	keystroke	t	n/a
327.7915	0.075	655583	keystroke	i	n/a
328.076	0.075	656152	keystroke	c	n/a
328.256	0.0755	656512	keystroke	Key.space	n/a
328.871	0.075	657742	keystroke	r	n/a
329.006	0.0755	658012	keystroke	e	n/a
329.247	0.044	658494	keystroke	s	n/a
329.486	0.075	658972	keystroke	i	n/a
329.7715	0.0745	659543	keystroke	s	n/a
330.5955	0.046	661191	keystroke	t	n/a
330.776	0.0895	661552	keystroke	a	n/a
330.9265	0.0745	661853	keystroke	n	n/a
331.061	0.106	662122	keystroke	c	n/a
331.256	0.061	662512	keystroke	e	n/a
331.376	0.075	662752	keystroke	Key.space	n/a
331.9165	0.06	663833	keystroke	n	n/a
332.006	0.075	664012	keystroke	e	n/a
332.2315	0.075	664463	keystroke	w	n/a
332.456	0.03	664912	keystroke	s	n/a
332.561	0.075	665122	keystroke	Key.enter	n/a
332.642	9.941	665284	prompt	n/a	expo discipline guardian metropolitan\n
333.537	0.0745	667074	keystroke	e	n/a
333.7915	0.06	667583	keystroke	x	n/a
334.002	0.0595	668004	keystroke	p	n/a
334.1815	0.0595	668363	keystroke	o	n/a
334.4505	0.075	668901	keystroke	Key.space	n/a
334.947	0.0145	669894	keystroke	d	n/a
334.991	0.0755	669982	keystroke	i	n/a
335.126	0.0755	670252	keystroke	s	n/a
336.162	0.045	672324	keystroke	c	n/a
336.296	0.0755	672592	keystroke	i	n/a
336.5215	0.1345	673043	keystroke	p	n/a
336.597	0.134	673194	keystroke	l	n/a
336.927	0.104	673854	keystroke	i	n/a
337.2115	0.0905	674423	keystroke	n	n/a
337.361	0.0595	674722	keystroke	e	n/a
337.4655	0.0605	674931	keystroke	Key.space	n/a
338.1865	0.0595	676373	keystroke	g	n/a
338.3215	0.06	676643	keystroke	u	n/a
338.396	0.09	676792	keystroke	a	n/a
338.531	0.09	677062	keystroke	r	n/a
339.0265	0.06	678053	keystroke	d	n/a
339.1015	0.075	678203	keystroke	i	n/a
339.2215	0.074	678443	keystroke	a	n/a
339.3265	0.074	678653	keystroke	n	n/a
339.5515	0.06	679103	keystroke	Key.space	n/a
339.9715	0.0445	679943	keystroke	m	n/a
340.061	0.09	680122	keystroke	e	n/a
340.3015	0.0445	680603	keystroke	t	n/a
340.5265	0.06	681053	keystroke	r	n/a
340.6465	0.075	681293	keystroke	o	n/a
340.8855	0.091	681771	keystroke	p	n/a
341.2315	0.0605	682463	keystroke	o	n/a
341.456	0.0605	682912	keystroke	l	n/a
341.6365	0.075	683273	keystroke	i	n/a
341.832	0.074	683664	keystroke	t	n/a
342.0415	0.1205	684083	keystroke	a	n/a
342.2215	0.105	684443	keystroke	n	n/a
342.492	0.0885	684984	keystroke	Key.enter	n/a
342.5875	11.1105	685175	prompt	n/a	interference hierarchy savings mitchell\n
343.752	0.0745	687504	keystroke	i	n/a
343.9015	0.0895	687803	keystroke	n	n/a
344.0965	0.075	688193	keystroke	t	n/a
344.202	0.1345	688404	keystroke	e	n/a
344.3215	0.09	688643	keystroke	r	n/a
344.8315	0.045	689663	keystroke	f	n/a
345.342	0.09	690684	keystroke	e	n/a
345.4765	0.105	690953	keystroke	r	n/a
345.5665	0.105	691133	keystroke	e	n/a
345.7615	0.045	691523	keystroke	n	n/a
345.9265	0.075	691853	keystroke	c	n/a
346.0315	0.105	692063	keystroke	e	n/a
346.1515	0.059	692303	keystroke	Key.space	n/a
346.946	0.075	693892	keystroke	h	n/a
347.112	0.074	694224	keystroke	i	n/a
347.322	0.104	694644	keystroke	e	n/a
347.592	0.074	695184	keystroke	r	n/a
348.356	0.09	696712	keystroke	a	n/a
348.837	0.074	697674	keystroke	r	n/a
349.1365	0.075	698273	keystroke	c	n/a
349.3015	0.075	698603	keystroke	h	n/a
349.4965	0.074	698993	keystroke	y	n/a
349.7505	0.076	699501	keystroke	Key.space	n/a
350.456	0.105	700912	keystroke	s	n/a
350.711	0.076	701422	keystroke	a	n/a
351.0865	0.06	702173	keystroke	v	n/a
351.3115	0.12	702623	keystroke	i	n/a
351.417	0.1195	702834	keystroke	n	n/a
351.5515	0.06	703103	keystroke	g	n/a
351.8215	0.075	703643	keystroke	s	n/a
351.9865	0.075	703973	keystroke	Key.space	n/a
352.2865	0.105	704573	keystroke	m	n/a
352.4515	0.09	704903	keystroke	i	n/a
352.5865	0.06	705173	keystroke	t	n/a
352.901	0.0755	705802	keystroke	c	n/a
352.991	0.0755	705982	keystroke	h	n/a
353.1565	0.0595	706313	keystroke	e	n/a
353.306	0.0605	706612	keystroke	l	n/a
353.4415	0.105	706883	keystroke	l	n/a
353.621	0.075	707242	keystroke	Key.enter	n/a
353.702	8.1585	707404	prompt	n/a	arrives march shanghai isolated\n
354.611	0.1505	709222	keystroke	a	n/a
354.8965	0.06	709793	keystroke	r	n/a
355.0605	0.061	710121	keystroke	r	n/a
355.1965	0.09	710393	keystroke	i	n/a
355.8115	0.135	711623	keystroke	v	n/a
355.9915	0.075	711983	keystroke	e	n/a
356.201	0.09	712402	keystroke	s	n/a
356.351	0.075	712702	keystroke	Key.space	n/a
356.696	0.0305	713392	keystroke	m	n/a
356.756	0.0755	713512	keystroke	a	n/a
356.9215	0.075	713843	keystroke	r	n/a
357.146	0.075	714292	keystroke	c	n/a
357.2665	0.09	714533	keystroke	h	n/a
357.536	0.075	715072	keystroke	Key.space	n/a
357.701	0.0755	715402	keystroke	s	n/a
357.791	0.09	715582	keystroke	h	n/a
357.9115	0.09	715823	keystroke	a	n/a
358.0615	0.075	716123	keystroke	n	n/a
358.286	0.0905	716572	keystroke	g	n/a
359.2015	0.075	718403	keystroke	h	n/a
359.3065	0.105	718613	keystroke	a	n/a
359.5015	0.075	719003	keystroke	i	n/a
359.7115	0.06	719423	keystroke	Key.space	n/a
360.3565	0.06	720713	keystroke	i	n/a
360.536	0.0755	721072	keystroke	s	n/a
360.7765	0.06	721553	keystroke	o	n/a
360.956	0.0605	721912	keystroke	l	n/a
361.0765	0.105	722153	keystroke	a	n/a
361.3315	0.06	722663	keystroke	t	n/a
361.4665	0.134	722933	keystroke	e	n/a
361.6155	0.075	723231	keystroke	d	n/a
361.781	0.0745	723562	keystroke	Key.enter	n/a
361.871	6.3015	723742	prompt	n/a	lions song creates characters\n
362.6355	0.06	725271	keystroke	l	n/a
362.8765	0.06	725753	keystroke	i	n/a
363.0405	0.076	726081	keystroke	o	n/a
363.1915	0.105	726383	keystroke	n	n/a
363.3565	0.059	726713	keystroke	s	n/a
363.4905	0.0755	726981	keystroke	Key.space	n/a
363.7455	0.061	727491	keystroke	s	n/a
363.9265	0.12	727853	keystroke	o	n/a
364.0765	0.105	728153	keystroke	n	n/a
364.3155	0.061	728631	keystroke	g	n/a
364.4955	0.075	728991	keystroke	Key.space	n/a
364.8715	0.059	729743	keystroke	c	n/a
365.1115	0.12	730223	keystroke	r	n/a
365.1865	0.135	730373	keystroke	e	n/a
365.3515	0.105	730703	keystroke	a	n/a
365.4865	0.105	730973	keystroke	t	n/a
365.5765	0.105	731153	keystroke	e	n/a
365.8165	0.06	731633	keystroke	s	n/a
366.0255	0.06	732051	keystroke	Key.space	n/a
366.266	0.075	732532	keystroke	c	n/a
366.3565	0.0895	732713	keystroke	h	n/a
366.461	0.12	732922	keystroke	a	n/a
366.671	0.075	733342	keystroke	r	n/a
366.836	0.09	733672	keystroke	a	n/a
367.3015	0.06	734603	keystroke	c	n/a
367.556	0.0755	735112	keystroke	t	n/a
367.676	0.12	735352	keystroke	e	n/a
367.781	0.105	735562	keystroke	r	n/a
367.9465	0.0745	735893	keystroke	s	n/a
368.081	0.09	736162	keystroke	Key.enter	n/a
368.18	6.3525	736360	prompt	n/a	candles fatal sells yeast\n
369.0105	0.0755	738021	keystroke	c	n/a
369.146	0.0895	738292	keystroke	a	n/a
369.296	0.075	738592	keystroke	n	n/a
369.491	0.045	738982	keystroke	c	n/a
369.776	0.105	739552	keystroke	Key.backspace	n/a
369.911	0.105	739822	keystroke	d	n/a
370.076	0.075	740152	keystroke	l	n/a
370.1965	0.0895	740393	keystroke	e	n/a
370.4205	0.075	740841	keystroke	s	n/a
370.541	0.075	741082	keystroke	Key.space	n/a
370.886	0.105	741772	keystroke	f	n/a
371.006	0.105	742012	keystroke	a	n/a
371.171	0.075	742342	keystroke	t	n/a
371.351	0.09	742702	keystroke	a	n/a
371.486	0.075	742972	keystroke	l	n/a
371.7715	0.06	743543	keystroke	Key.space	n/a
371.9065	0.075	743813	keystroke	s	n/a
372.1315	0.045	744263	keystroke	e	n/a
372.3115	0.06	744623	keystroke	l	n/a
372.4455	0.06	744891	keystroke	l	n/a
372.5515	0.09	745103	keystroke	s	n/a
372.7305	0.0605	745461	keystroke	Key.space	n/a
373.151	0.0905	746302	keystroke	y	n/a
373.256	0.06	746512	keystroke	e	n/a
373.661	0.0905	747322	keystroke	a	n/a
373.931	0.045	747862	keystroke	s	n/a
374.036	0.075	748072	keystroke	t	n/a
374.456	0.0745	748912	keystroke	Key.enter	n/a
374.538	12.13	749076	prompt	n/a	nomination unknown champagne accidents\n
375.4465	0.09	750893	keystroke	n	n/a
375.5665	0.135	751133	keystroke	o	n/a
375.7165	0.1195	751433	keystroke	m	n/a
375.8965	0.1045	751793	keystroke	i	n/a
375.986	0.105	751972	keystroke	n	n/a
376.106	0.09	752212	keystroke	a	n/a
376.301	0.075	752602	keystroke	t	n/a
376.391	0.1655	752782	keystroke	i	n/a
376.4365	0.09	752873	keystroke	o	n/a
376.4965	0.12	752993	keystroke	n	n/a
376.7215	0.0895	753443	keystroke	Key.space	n/a
377.3515	0.0745	754703	keystroke	u	n/a
377.501	0.0905	755002	keystroke	n	n/a
377.831	0.0905	755662	keystroke	k	n/a
378.191	0.0605	756382	keystroke	n	n/a
378.3705	0.0755	756741	keystroke	o	n/a
378.5065	0.0745	757013	keystroke	w	n/a
378.6715	0.075	757343	keystroke	n	n/a
378.881	0.06	757762	keystroke	Key.space	n/a
379.5265	0.09	759053	keystroke	c	n/a
379.6315	0.0595	759263	keystroke	h	n/a
379.706	0.075	759412	keystroke	a	n/a
379.9165	0.0595	759833	keystroke	m	n/a
380.081	0.1055	760162	keystroke	p	n/a
380.216	0.09	760432	keystroke	a	n/a
380.5315	0.0895	761063	keystroke	g	n/a
380.6515	0.1045	761303	keystroke	i	n/a
381.2965	0.075	762593	keystroke	n	n/a
382.346	0.0905	764692	keystroke	Key.backspace	n/a
382.526	0.09	765052	keystroke	Key.backspace	n/a
383.261	0.06	766522	keystroke	n	n/a
383.336	0.075	766672	keystroke	e	n/a
383.426	0.075	766852	keystroke	Key.space	n/a
384.0865	0.0745	768173	keystroke	a	n/a
384.266	0.0455	768532	keystroke	c	n/a
384.4165	0.0595	768833	keystroke	c	n/a
384.5665	0.0595	769133	keystroke	i	n/a
385.226	0.06	770452	keystroke	d	n/a
385.361	0.105	770722	keystroke	e	n/a
385.646	0.0755	771292	keystroke	n	n/a
385.8555	0.031	771711	keystroke	t	n/a
386.1715	0.059	772343	keystroke	s	n/a
386.5755	0.091	773151	keystroke	Key.enter	n/a
386.672	4.8255	773344	prompt	n/a	brakes units park a\n
387.5065	0.06	775013	keystroke	b	n/a
387.6865	0.134	775373	keystroke	r	n/a
387.7765	0.18	775553	keystroke	e	n/a
387.926	0.0755	775852	keystroke	a	n/a
388.1365	0.075	776273	keystroke	k	n/a
388.2265	0.075	776453	keystroke	s	n/a
388.796	0.075	777592	keystroke	Key.space	n/a
389.0965	0.0895	778193	keystroke	u	n/a
389.201	0.09	778402	keystroke	n	n/a
389.381	0.0755	778762	keystroke	i	n/a
389.5315	0.0745	779063	keystroke	t	n/a
389.7265	0.06	779453	keystroke	s	n/a
389.891	0.0595	779782	keystroke	Key.space	n/a
390.2365	0.09	780473	keystroke	p	n/a
390.3265	0.075	780653	keystroke	a	n/a
390.4615	0.075	780923	keystroke	r	n/a
390.581	0.075	781162	keystroke	k	n/a
390.776	0.0755	781552	keystroke	Key.space	n/a
390.8365	0.0745	781673	keystroke	a	n/a
391.1215	0.075	782243	keystroke	t	n/a
391.4215	0.075	782843	keystroke	Key.enter	n/a
391.503	8.8595	783006	prompt	n/a	tragedy sealed demanding technical\n
392.4115	0.1045	784823	keystroke	t	n/a
392.726	0.075	785452	keystroke	r	n/a
392.9505	0.0605	785901	keystroke	a	n/a
393.311	0.0605	786622	keystroke	g	n/a
393.4765	0.1195	786953	keystroke	e	n/a
393.716	0.1055	787432	keystroke	d	n/a
394.046	0.075	788092	keystroke	y	n/a
394.3015	0.0745	788603	keystroke	Key.space	n/a
394.691	0.0605	789382	keystroke	s	n/a
394.8865	0.0445	789773	keystroke	e	n/a
395.0215	0.104	790043	keystroke	a	n/a
395.1565	0.09	790313	keystroke	l	n/a
395.366	0.12	790732	keystroke	e	n/a
395.5315	0.075	791063	keystroke	d	n/a
395.6505	0.06	791301	keystroke	Key.space	n/a
396.7765	0.09	793553	keystroke	d	n/a
396.9415	0.075	793883	keystroke	e	n/a
397.091	0.09	794182	keystroke	m	n/a
397.181	0.075	794362	keystroke	a	n/a
397.376	0.06	794752	keystroke	n	n/a
397.616	0.06	795232	keystroke	d	n/a
397.706	0.12	795412	keystroke	i	n/a
397.781	0.1055	795562	keystroke	n	n/a
397.871	0.0755	795742	keystroke	g	n/a
398.051	0.075	796102	keystroke	Key.space	n/a
398.6515	0.09	797303	keystroke	t	n/a
398.8915	0.0895	797783	keystroke	e	n/a
399.191	0.06	798382	keystroke	c	n/a
399.266	0.0755	798532	keystroke	h	n/a
399.476	0.0905	798952	keystroke	n	n/a
399.596	0.09	799192	keystroke	i	n/a
399.7755	0.09	799551	keystroke	c	n/a
399.896	0.0905	799792	keystroke	a	n/a
400.0165	0.089	800033	keystroke	l	n/a
400.2865	0.0745	800573	keystroke	Key.enter	n/a
400.369	7.6915	800738	prompt	n/a	additions party bank schools\n
401.2315	0.0745	802463	keystroke	a	n/a
401.471	0.0445	802942	keystroke	s	n/a
401.6355	0.06	803271	keystroke	d	n/a
402.2955	0.075	804591	keystroke	Key.backspace	n/a
402.4455	0.1055	804891	keystroke	Key.backspace	n/a
402.566	0.0755	805132	keystroke	d	n/a
402.7605	0.076	805521	keystroke	d	n/a
403.076	0.06	806152	keystroke	i	n/a
403.271	0.06	806542	keystroke	t	n/a
403.361	0.1655	806722	keystroke	i	n/a
403.406	0.105	806812	keystroke	o	n/a
403.481	0.1195	806962	keystroke	n	n/a
403.6465	0.09	807293	keystroke	s	n/a
403.9005	0.076	807801	keystroke	Key.space	n/a
404.4715	0.0595	808943	keystroke	p	n/a
404.5155	0.0755	809031	keystroke	a	n/a
404.6815	0.075	809363	keystroke	r	n/a
405.011	0.075	810022	keystroke	t	n/a
405.101	0.105	810202	keystroke	y	n/a
405.416	0.0905	810832	keystroke	Key.space	n/a
405.7615	0.03	811523	keystroke	b	n/a
405.8065	0.09	811613	keystroke	a	n/a
405.9265	0.075	811853	keystroke	n	n/a
406.1215	0.075	812243	keystroke	k	n/a
406.376	0.06	812752	keystroke	Key.space	n/a
406.8705	0.0455	813741	keystroke	s	n/a
407.1265	0.0745	814253	keystroke	c	n/a
407.261	0.09	814522	keystroke	h	n/a
407.486	0.03	814972	keystroke	o	n/a
407.591	0.075	815182	keystroke	o	n/a
407.771	0.075	815542	keystroke	l	n/a
407.876	0.06	815752	keystroke	s	n/a
407.9815	0.0745	815963	keystroke	Key.enter	n/a
408.072	6.4355	816144	prompt	n/a	vanilla essentials blessed alex\n
408.926	0.0755	817852	keystroke	v	n/a
409.0605	0.09	818121	keystroke	a	n/a
409.1965	0.0895	818393	keystroke	n	n/a
409.361	0.075	818722	keystroke	i	n/a
409.616	0.06	819232	keystroke	l	n/a
409.766	0.0755	819532	keystroke	l	n/a
409.871	0.09	819742	keystroke	a	n/a
410.111	0.06	820222	keystroke	Key.space	n/a
410.411	0.0755	820822	keystroke	e	n/a
410.6205	0.031	821241	keystroke	s	n/a
410.741	0.0595	821482	keystroke	s	n/a
410.9655	0.045	821931	keystroke	e	n/a
411.0705	0.075	822141	keystroke	n	n/a
411.2805	0.045	822561	keystroke	t	n/a
411.4015	0.0745	822803	keystroke	i	n/a
411.5205	0.076	823041	keystroke	a	n/a
411.6865	0.0595	823373	keystroke	l	n/a
411.8065	0.0595	823613	keystroke	s	n/a
411.9715	0.0595	823943	keystroke	Key.space	n/a
412.361	0.0595	824722	keystroke	b	n/a
412.586	0.075	825172	keystroke	l	n/a
412.691	0.06	825382	keystroke	e	n/a
412.8865	0.059	825773	keystroke	s	n/a
413.0065	0.06	826013	keystroke	s	n/a
413.1865	0.0745	826373	keystroke	e	n/a
413.321	0.0755	826642	keystroke	d	n/a
413.426	0.09	826852	keystroke	Key.space	n/a
413.756	0.09	827512	keystroke	a	n/a
413.9215	0.09	827843	keystroke	l	n/a
414.0865	0.06	828173	keystroke	e	n/a
414.3415	0.075	828683	keystroke	x	n/a
414.4315	0.075	828863	keystroke	Key.enter	n/a
414.5125	8.455	829025	prompt	n/a	contamination proof nations centuries\n
415.2715	0.0595	830543	keystroke	c	n/a
415.4215	0.1045	830843	keystroke	o	n/a
415.6015	0.0895	831203	keystroke	n	n/a
415.7815	0.0445	831563	keystroke	t	n/a
415.931	0.0905	831862	keystroke	a	n/a
416.096	0.09	832192	keystroke	m	n/a
416.261	0.1355	832522	keystroke	i	n/a
416.351	0.0905	832702	keystroke	n	n/a
416.5315	0.0895	833063	keystroke	a	n/a
416.711	0.075	833422	keystroke	t	n/a
416.846	0.1655	833692	keystroke	i	n/a
416.876	0.105	833752	keystroke	o	n/a
416.9365	0.1195	833873	keystroke	n	n/a
417.5065	0.06	835013	keystroke	Key.space	n/a
417.7915	0.135	835583	keystroke	p	n/a
418.0165	0.045	836033	keystroke	r	n/a
418.4065	0.0745	836813	keystroke	o	n/a
418.556	0.09	837112	keystroke	o	n/a
419.0365	0.075	838073	keystroke	f	n/a
419.471	0.0595	838942	keystroke	Key.space	n/a
419.9965	0.015	839993	keystroke	n	n/a
420.0265	0.015	840053	keystroke	a	n/a
420.146	0.06	840292	keystroke	t	n/a
420.2215	0.1945	840443	keystroke	i	n/a
420.296	0.1055	840592	keystroke	o	n/a
420.356	0.1355	840712	keystroke	n	n/a
420.806	0.0755	841612	keystroke	s	n/a
420.941	0.0755	841882	keystroke	Key.space	n/a
421.3315	0.075	842663	keystroke	c	n/a
421.5265	0.089	843053	keystroke	e	n/a
421.6455	0.09	843291	keystroke	n	n/a
421.796	0.0905	843592	keystroke	t	n/a
422.0365	0.075	844073	keystroke	u	n/a
422.2615	0.06	844523	keystroke	r	n/a
422.4415	0.075	844883	keystroke	i	n/a
422.5315	0.09	845063	keystroke	e	n/a
422.7565	0.09	845513	keystroke	s	n/a
422.8915	0.074	845783	keystroke	Key.enter	n/a
422.973	8.3195	845946	prompt	n/a	throws mess officially array\n
423.761	0.09	847522	keystroke	t	n/a
423.8965	0.0895	847793	keystroke	h	n/a
424.0015	0.075	848003	keystroke	r	n/a
424.1215	0.105	848243	keystroke	o	n/a
424.3165	0.045	848633	keystroke	w	n/a
424.5265	0.045	849053	keystroke	s	n/a
424.676	0.09	849352	keystroke	Key.space	n/a
425.426	0.06	850852	keystroke	Key.backspace	n/a
425.561	0.0905	851122	keystroke	Key.backspace	n/a
426.5365	0.045	853073	keystroke	s	n/a
426.6565	0.059	853313	keystroke	Key.space	n/a
426.8805	0.076	853761	keystroke	m	n/a
426.9415	0.06	853883	keystroke	e	n/a
427.1365	0.0595	854273	keystroke	s	n/a
427.2865	0.059	854573	keystroke	s	n/a
427.451	0.0605	854902	keystroke	Key.space	n/a
427.901	0.105	855802	keystroke	o	n/a
428.081	0.0605	856162	keystroke	f	n/a
428.246	0.0605	856492	keystroke	f	n/a
428.456	0.06	856912	keystroke	i	n/a
428.606	0.0755	857212	keystroke	c	n/a
428.741	0.075	857482	keystroke	i	n/a
428.846	0.105	857692	keystroke	a	n/a
428.9965	0.0745	857993	keystroke	l	n/a
429.161	0.075	858322	keystroke	l	n/a
429.701	0.0605	859402	keystroke	y	n/a
429.8355	0.09	859671	keystroke	Key.space	n/a
430.3605	0.076	860721	keystroke	a	n/a
430.556	0.0605	861112	keystroke	r	n/a
430.6765	0.09	861353	keystroke	r	n/a
430.8865	0.06	861773	keystroke	a	n/a
430.991	0.075	861982	keystroke	y	n/a
431.2165	0.0745	862433	keystroke	Key.enter	n/a
431.298	10.54	862596	prompt	n/a	unity unit relaxation lotus\n
432.101	0.0605	864202	keystroke	u	n/a
432.222	0.089	864444	keystroke	n	n/a
432.3715	0.075	864743	keystroke	i	n/a
432.491	0.0755	864982	keystroke	t	n/a
432.701	0.0455	865402	keystroke	y	n/a
432.8505	0.091	865701	keystroke	Key.space	n/a
433.6765	0.074	867353	keystroke	i	n/a
433.9005	0.075	867801	keystroke	n	n/a
434.171	0.045	868342	keystroke	t	n/a
434.3205	0.0605	868641	keystroke	Key.space	n/a
434.906	0.075	869812	keystroke	Key.backspace	n/a
435.191	0.0455	870382	keystroke	Key.backspace	n/a
435.3115	0.09	870623	keystroke	Key.backspace	n/a
435.536	0.045	871072	keystroke	Key.backspace	n/a
436.076	0.0455	872152	keystroke	u	n/a
436.1965	0.0745	872393	keystroke	n	n/a
436.346	0.1055	872692	keystroke	i	n/a
436.511	0.0755	873022	keystroke	t	n/a
436.646	0.075	873292	keystroke	Key.space	n/a
437.0365	0.135	874073	keystroke	r	n/a
437.1565	0.09	874313	keystroke	e	n/a
437.3215	0.0895	874643	keystroke	l	n/a
437.4265	0.12	874853	keystroke	a	n/a
437.816	0.0755	875632	keystroke	x	n/a
438.1615	0.0895	876323	keystroke	t	n/a
439.001	0.105	878002	keystroke	Key.backspace	n/a
439.496	0.12	878992	keystroke	a	n/a
439.9465	0.0595	879893	keystroke	t	n/a
439.991	0.15	879982	keystroke	i	n/a
440.021	0.105	880042	keystroke	o	n/a
440.0815	0.12	880163	keystroke	n	n/a
440.4405	0.06	880881	keystroke	Key.space	n/a
440.8155	0.0455	881631	keystroke	l	n/a
441.1315	0.12	882263	keystroke	o	n/a
441.356	0.0605	882712	keystroke	t	n/a
441.491	0.09	882982	keystroke	u	n/a
441.6115	0.0895	883223	keystroke	s	n/a
441.761	0.075	883522	keystroke	Key.enter	n/a
441.8455	6.0375	883691	prompt	n/a	correct parcel total studied\n
442.557	0.074	885114	keystroke	c	n/a
442.811	0.1055	885622	keystroke	o	n/a
442.976	0.0455	885952	keystroke	r	n/a
443.111	0.0755	886222	keystroke	r	n/a
443.231	0.105	886462	keystroke	e	n/a
443.426	0.1055	886852	keystroke	c	n/a
443.6515	0.075	887303	keystroke	t	n/a
443.906	0.0755	887812	keystroke	Key.space	n/a
444.2065	0.09	888413	keystroke	p	n/a
444.3415	0.075	888683	keystroke	a	n/a
444.5215	0.075	889043	keystroke	r	n/a
444.7915	0.06	889583	keystroke	c	n/a
444.9265	0.089	889853	keystroke	e	n/a
445.0315	0.105	890063	keystroke	l	n/a
445.3005	0.06	890601	keystroke	Key.space	n/a
445.6915	0.089	891383	keystroke	t	n/a
445.8555	0.076	891711	keystroke	o	n/a
445.9765	0.074	891953	keystroke	t	n/a
446.156	0.0755	892312	keystroke	a	n/a
446.2615	0.09	892523	keystroke	l	n/a
446.4865	0.089	892973	keystroke	Key.space	n/a
446.6205	0.1655	893241	keystroke	s	n/a
446.9365	0.0445	893873	keystroke	t	n/a
447.041	0.0755	894082	keystroke	u	n/a
447.236	0.09	894472	keystroke	d	n/a
447.386	0.075	894772	keystroke	i	n/a
447.5665	0.1355	895133	keystroke	e	n/a
447.686	0.105	895372	keystroke	d	n/a
447.807	0.074	895614	keystroke	Key.enter	n/a
447.889	7.854	895778	prompt	n/a	lighter discussed concern titans\n
448.646	0.105	897292	keystroke	l	n/a
448.871	0.0895	897742	keystroke	i	n/a
449.0215	0.075	898043	keystroke	g	n/a
449.1115	0.075	898223	keystroke	h	n/a
449.2465	0.09	898493	keystroke	t	n/a
449.5005	0.121	899001	keystroke	e	n/a
449.5905	0.0905	899181	keystroke	r	n/a
449.7415	0.089	899483	keystroke	Key.space	n/a
450.1315	0.09	900263	keystroke	d	n/a
450.2815	0.075	900563	keystroke	i	n/a
450.4005	0.076	900801	keystroke	s	n/a
450.6415	0.0745	901283	keystroke	c	n/a
450.851	0.06	901702	keystroke	u	n/a
451.3165	0.0745	902633	keystroke	s	n/a
451.4515	0.09	902903	keystroke	s	n/a
451.676	0.0905	903352	keystroke	e	n/a
451.9165	0.09	903833	keystroke	d	n/a
452.096	0.075	904192	keystroke	Key.space	n/a
452.471	0.045	904942	keystroke	c	n/a
452.546	0.0905	905092	keystroke	o	n/a
452.696	0.09	905392	keystroke	n	n/a
452.8015	0.09	905603	keystroke	s	n/a
453.266	0.09	906532	keystroke	Key.backspace	n/a
453.326	0.1055	906652	keystroke	c	n/a
453.4765	0.165	906953	keystroke	e	n/a
453.6715	0.09	907343	keystroke	r	n/a
453.9705	0.1205	907941	keystroke	n	n/a
454.421	0.075	908842	keystroke	Key.space	n/a
454.766	0.0895	909532	keystroke	t	n/a
454.9155	0.06	909831	keystroke	i	n/a
455.0065	0.09	910013	keystroke	t	n/a
455.1715	0.105	910343	keystroke	a	n/a
455.2915	0.075	910583	keystroke	n	n/a
455.5465	0.075	911093	keystroke	s	n/a
455.6515	0.09	911303	keystroke	Key.enter	n/a
455.748	9.7895	911496	prompt	n/a	mask mysimon shouldn't reuters\n
456.4315	0.075	912863	keystroke	m	n/a
456.4915	0.075	912983	keystroke	a	n/a
456.5815	0.105	913163	keystroke	s	n/a
456.7305	0.091	913461	keystroke	k	n/a
456.9855	0.076	913971	keystroke	Key.space	n/a
457.3765	0.09	914753	keystroke	m	n/a
457.796	0.06	915592	keystroke	y	n/a
457.946	0.075	915892	keystroke	s	n/a
458.156	0.105	916312	keystroke	i	n/a
459.6565	0.09	919313	keystroke	m	n/a
459.896	0.1205	919792	keystroke	o	n/a
459.986	0.1195	919972	keystroke	n	n/a
460.5565	0.045	921113	keystroke	Key.space	n/a
460.7665	0.09	921533	keystroke	s	n/a
460.9315	0.075	921863	keystroke	h	n/a
461.0805	0.105	922161	keystroke	o	n/a
461.2615	0.0745	922523	keystroke	u	n/a
461.4865	0.0745	922973	keystroke	l	n/a
461.6215	0.0895	923243	keystroke	d	n/a
461.756	0.0755	923512	keystroke	n	n/a
462.0115	0.0745	924023	keystroke	'	n/a
462.2515	0.0595	924503	keystroke	t	n/a
462.386	0.0745	924772	keystroke	Key.space	n/a
463.2715	0.09	926543	keystroke	r	n/a
463.3315	0.12	926663	keystroke	e	n/a
463.6615	0.075	927323	keystroke	t	n/a
464.051	0.1055	928102	keystroke	Key.backspace	n/a
464.3665	0.135	928733	keystroke	u	n/a
464.5315	0.105	929063	keystroke	t	n/a
464.9365	0.165	929873	keystroke	e	n/a
465.0565	0.105	930113	keystroke	r	n/a
465.2665	0.09	930533	keystroke	s	n/a
465.4615	0.0745	930923	keystroke	Key.enter	n/a
465.543	6.28	931086	prompt	n/a	copies pressing contacts wonder\n
466.3455	0.0615	932691	keystroke	c	n/a
466.496	0.06	932992	keystroke	o	n/a
466.6615	0.06	933323	keystroke	p	n/a
466.8565	0.06	933713	keystroke	i	n/a
466.9315	0.0595	933863	keystroke	e	n/a
467.1115	0.0595	934223	keystroke	s	n/a
467.246	0.06	934492	keystroke	Key.space	n/a
467.5315	0.1195	935063	keystroke	p	n/a
467.801	0.09	935602	keystroke	r	n/a
467.9965	0.075	935993	keystroke	e	n/a
468.206	0.0605	936412	keystroke	s	n/a
468.3565	0.06	936713	keystroke	s	n/a
468.4455	0.1205	936891	keystroke	i	n/a
468.5355	0.121	937071	keystroke	n	n/a
468.671	0.061	937342	keystroke	g	n/a
468.806	0.06	937612	keystroke	Key.space	n/a
469.2865	0.0595	938573	keystroke	c	n/a
469.3615	0.0895	938723	keystroke	o	n/a
469.4365	0.105	938873	keystroke	n	n/a
469.5865	0.075	939173	keystroke	t	n/a
469.7515	0.1045	939503	keystroke	a	n/a
470.141	0.0755	940282	keystroke	c	n/a
470.3665	0.06	940733	keystroke	t	n/a
470.6515	0.075	941303	keystroke	s	n/a
470.831	0.06	941662	keystroke	Key.space	n/a
471.1165	0.06	942233	keystroke	w	n/a
471.2065	0.09	942413	keystroke	o	n/a
471.3115	0.105	942623	keystroke	n	n/a
471.4315	0.06	942863	keystroke	d	n/a
471.5365	0.1345	943073	keystroke	e	n/a
471.641	0.105	943282	keystroke	r	n/a
471.731	0.09	943462	keystroke	Key.enter	n/a
471.829	7.246	943658	prompt	n/a	herself wiki washington quad\n
472.5265	0.0595	945053	keystroke	h	n/a
472.601	0.1055	945202	keystroke	e	n/a
472.707	0.074	945414	keystroke	r	n/a
472.9315	0.075	945863	keystroke	s	n/a
473.1265	0.06	946253	keystroke	e	n/a
473.2455	0.09	946491	keystroke	l	n/a
473.4705	0.0605	946941	keystroke	f	n/a
474.041	0.09	948082	keystroke	Key.space	n/a
474.266	0.0905	948532	keystroke	w	n/a
474.401	0.075	948802	keystroke	i	n/a
474.566	0.075	949132	keystroke	k	n/a
474.701	0.075	949402	keystroke	i	n/a
474.956	0.06	949912	keystroke	Key.space	n/a
475.391	0.06	950782	keystroke	w	n/a
475.5715	0.0895	951143	keystroke	a	n/a
475.916	0.0755	951832	keystroke	s	n/a
476.201	0.0755	952402	keystroke	h	n/a
476.321	0.105	952642	keystroke	i	n/a
476.531	0.09	953062	keystroke	n	n/a
477.2065	0.075	954413	keystroke	g	n/a
477.416	0.075	954832	keystroke	t	n/a
477.5065	0.06	955013	keystroke	o	n/a
477.6115	0.0895	955223	keystroke	n	n/a
477.836	0.075	955672	keystroke	Key.space	n/a
478.331	0.09	956662	keystroke	q	n/a
478.496	0.075	956992	keystroke	u	n/a
478.6315	0.104	957263	keystroke	a	n/a
478.8415	0.074	957683	keystroke	d	n/a
478.9905	0.0755	957981	keystroke	Key.enter	n/a
479.079	6.7995	958158	prompt	n/a	routing indicate spaces climb\n
479.891	0.06	959782	keystroke	r	n/a
479.9965	0.0895	959993	keystroke	o	n/a
480.206	0.075	960412	keystroke	u	n/a
480.356	0.0755	960712	keystroke	t	n/a
480.446	0.1055	960892	keystroke	i	n/a
480.491	0.1055	960982	keystroke	n	n/a
480.6105	0.061	961221	keystroke	g	n/a
480.7315	0.075	961463	keystroke	Key.space	n/a
481.2415	0.075	962483	keystroke	i	n/a
481.2865	0.09	962573	keystroke	n	n/a
481.4505	0.106	962901	keystroke	d	n/a
481.7815	0.075	963563	keystroke	i	n/a
481.9755	0.105	963951	keystroke	c	n/a
482.186	0.0905	964372	keystroke	a	n/a
482.4255	0.09	964851	keystroke	t	n/a
482.531	0.1055	965062	keystroke	e	n/a
482.8015	0.075	965603	keystroke	Key.space	n/a
483.2215	0.075	966443	keystroke	s	n/a
483.3715	0.06	966743	keystroke	p	n/a
483.4165	0.105	966833	keystroke	a	n/a
483.6115	0.09	967223	keystroke	c	n/a
483.7615	0.09	967523	keystroke	e	n/a
484.0765	0.0745	968153	keystroke	s	n/a
484.481	0.075	968962	keystroke	Key.space	n/a
484.841	0.075	969682	keystroke	c	n/a
484.961	0.09	969922	keystroke	l	n/a
485.1705	0.09	970341	keystroke	i	n/a
485.4405	0.0755	970881	keystroke	m	n/a
485.6355	0.045	971271	keystroke	b	n/a
485.801	0.075	971602	keystroke	Key.enter	n/a
485.8835	11.47	971767	prompt	n/a	surround altered relationships preliminary\n
486.656	0.09	973312	keystroke	s	n/a
487.3015	0.059	974603	keystroke	u	n/a
487.4815	0.0595	974963	keystroke	r	n/a
487.631	0.0755	975262	keystroke	r	n/a
487.751	0.09	975502	keystroke	o	n/a
487.9915	0.105	975983	keystroke	u	n/a
488.111	0.09	976222	keystroke	n	n/a
488.216	0.09	976432	keystroke	d	n/a
488.3655	0.0755	976731	keystroke	Key.space	n/a
488.771	0.09	977542	keystroke	a	n/a
488.906	0.0755	977812	keystroke	l	n/a
489.131	0.0905	978262	keystroke	t	n/a
489.2665	0.12	978533	keystroke	e	n/a
489.401	0.12	978802	keystroke	r	n/a
489.5665	0.12	979133	keystroke	e	n/a
489.7465	0.09	979493	keystroke	d	n/a
490.1065	0.0595	980213	keystroke	Key.space	n/a
490.586	0.1045	981172	keystroke	r	n/a
490.6755	0.136	981351	keystroke	e	n/a
491.4115	0.06	982823	keystroke	l	n/a
491.5015	0.105	983003	keystroke	a	n/a
491.7265	0.06	983453	keystroke	t	n/a
491.8465	0.165	983693	keystroke	i	n/a
491.9515	0.075	983903	keystroke	o	n/a
491.9815	0.105	983963	keystroke	n	n/a
492.1915	0.105	984383	keystroke	s	n/a
492.821	0.0745	985642	keystroke	h	n/a
492.9415	0.09	985883	keystroke	i	n/a
493.1815	0.075	986363	keystroke	p	n/a
493.3015	0.09	986603	keystroke	s	n/a
493.6165	0.075	987233	keystroke	Key.space	n/a
494.0365	0.105	988073	keystroke	p	n/a
494.231	0.06	988462	keystroke	r	n/a
494.2615	0.1045	988523	keystroke	e	n/a
494.486	0.0905	988972	keystroke	l	n/a
494.696	0.09	989392	keystroke	i	n/a
494.8915	0.09	989783	keystroke	m	n/a
495.116	0.076	990232	keystroke	i	n/a
495.2965	0.0745	990593	keystroke	n	n/a
495.4165	0.09	990833	keystroke	a	n/a
495.9115	0.0745	991823	keystroke	r	n/a
497.1555	0.06	994311	keystroke	y	n/a
497.306	0.0445	994612	keystroke	Key.enter	n/a
497.3585	9.279	994717	prompt	n/a	describe these're game quilt\n
498.1465	0.0745	996293	keystroke	d	n/a
498.2665	0.1205	996533	keystroke	e	n/a
498.4765	0.059	996953	keystroke	s	n/a
498.6855	0.076	997371	keystroke	c	n/a
498.8665	0.0595	997733	keystroke	r	n/a
498.971	0.0605	997942	keystroke	i	n/a
499.1515	0.015	998303	keystroke	p	n/a
499.557	0.0895	999114	keystroke	Key.backspace	n/a
499.8115	0.09	999623	keystroke	b	n/a
499.9165	0.105	999833	keystroke	e	n/a
500.0965	0.12	1000193	keystroke	d	n/a
500.2015	0.075	1000403	keystroke	Key.space	n/a
501.101	0.075	1002202	keystroke	t	n/a
501.236	0.0755	1002472	keystroke	h	n/a
501.296	0.2105	1002592	keystroke	e	n/a
501.911	0.09	1003822	keystroke	Key.backspace	n/a
502.136	0.09	1004272	keystroke	s	n/a
502.316	0.105	1004632	keystroke	e	n/a
503.216	0.0745	1006432	keystroke	'	n/a
503.4105	0.1655	1006821	keystroke	r	n/a
503.5605	0.106	1007121	keystroke	e	n/a
503.6215	0.075	1007243	keystroke	Key.space	n/a
504.0865	0.119	1008173	keystroke	g	n/a
504.1905	0.136	1008381	keystroke	a	n/a
504.3265	0.09	1008653	keystroke	m	n/a
504.3855	0.075	1008771	keystroke	e	n/a
504.596	0.0745	1009192	keystroke	Key.space	n/a
505.0165	0.12	1010033	keystroke	q	n/a
505.2715	0.06	1010543	keystroke	u	n/a
505.7065	0.135	1011413	keystroke	i	n/a
506.2465	0.0895	1012493	keystroke	l	n/a
506.456	0.0605	1012912	keystroke	t	n/a
506.5615	0.0745	1013123	keystroke	Key.enter	n/a
506.6415	6.011	1013283	prompt	n/a	necklace fields sticks tour\n
507.5965	0.059	1015193	keystroke	n	n/a
507.641	0.1045	1015282	keystroke	e	n/a
508.1505	0.06	1016301	keystroke	c	n/a
508.4815	0.06	1016963	keystroke	k	n/a
508.6905	0.0605	1017381	keystroke	l	n/a
508.7215	0.105	1017443	keystroke	a	n/a
508.991	0.06	1017982	keystroke	c	n/a
509.1265	0.0745	1018253	keystroke	e	n/a
509.396	0.075	1018792	keystroke	Key.space	n/a
509.801	0.09	1019602	keystroke	f	n/a
509.951	0.0755	1019902	keystroke	i	n/a
510.0415	0.1195	1020083	keystroke	e	n/a
510.251	0.09	1020502	keystroke	l	n/a
510.4165	0.105	1020833	keystroke	d	n/a
510.6265	0.09	1021253	keystroke	s	n/a
510.776	0.075	1021552	keystroke	Key.space	n/a
510.9715	0.09	1021943	keystroke	s	n/a
511.241	0.0595	1022482	keystroke	t	n/a
511.3765	0.09	1022753	keystroke	i	n/a
511.5555	0.0605	1023111	keystroke	c	n/a
511.661	0.0905	1023322	keystroke	k	n/a
511.7805	0.061	1023561	keystroke	s	n/a
511.901	0.0895	1023802	keystroke	Key.space	n/a
512.0505	0.0615	1024101	keystroke	t	n/a
512.1265	0.075	1024253	keystroke	o	n/a
512.336	0.06	1024672	keystroke	u	n/a
512.486	0.06	1024972	keystroke	r	n/a
512.5755	0.076	1025151	keystroke	Key.enter	n/a
512.6555	8.2475	1025311	prompt	n/a	strategies formats uploaded british\n
513.3115	0.1045	1026623	keystroke	s	n/a
513.6415	0.12	1027283	keystroke	t	n/a
513.746	0.1205	1027492	keystroke	r	n/a
513.9865	0.09	1027973	keystroke	a	n/a
514.391	0.0755	1028782	keystroke	t	n/a
514.601	0.0905	1029202	keystroke	e	n/a
514.886	0.0605	1029772	keystroke	g	n/a
515.0665	0.045	1030133	keystroke	i	n/a
515.1565	0.09	1030313	keystroke	e	n/a
515.351	0.0755	1030702	keystroke	s	n/a
515.591	0.0605	1031182	keystroke	Key.space	n/a
515.921	0.0905	1031842	keystroke	f	n/a
516.056	0.0755	1032112	keystroke	o	n/a
516.1465	0.0595	1032293	keystroke	r	n/a
516.311	0.075	1032622	keystroke	m	n/a
516.4015	0.105	1032803	keystroke	a	n/a
516.581	0.09	1033162	keystroke	t	n/a
516.806	0.075	1033612	keystroke	s	n/a
517.0905	0.0755	1034181	keystroke	Key.space	n/a
517.436	0.075	1034872	keystroke	u	n/a
517.661	0.135	1035322	keystroke	p	n/a
517.7515	0.165	1035503	keystroke	l	n/a
518.0355	0.0755	1036071	keystroke	o	n/a
518.1705	0.106	1036341	keystroke	a	n/a
518.3655	0.0905	1036731	keystroke	d	n/a
518.531	0.1355	1037062	keystroke	e	n/a
518.651	0.135	1037302	keystroke	d	n/a
519.0255	0.0605	1038051	keystroke	Key.space	n/a
519.416	0.075	1038832	keystroke	b	n/a
519.5505	0.0755	1039101	keystroke	r	n/a
519.671	0.1055	1039342	keystroke	i	n/a
519.9715	0.075	1039943	keystroke	t	n/a
520.1215	0.09	1040243	keystroke	i	n/a
520.3165	0.09	1040633	keystroke	s	n/a
520.601	0.091	1041202	keystroke	h	n/a
520.826	0.0745	1041652	keystroke	Key.enter	n/a
520.908	8.485	1041816	prompt	n/a	younger postings congressional several\n
521.6665	0.0595	1043333	keystroke	y	n/a
521.891	0.06	1043782	keystroke	o	n/a
522.086	0.075	1044172	keystroke	u	n/a
522.251	0.0905	1044502	keystroke	n	n/a
522.3865	0.09	1044773	keystroke	g	n/a
522.5205	0.136	1045041	keystroke	e	n/a
522.6415	0.089	1045283	keystroke	r	n/a
522.7605	0.091	1045521	keystroke	Key.space	n/a
523.2255	0.0765	1046451	keystroke	p	n/a
523.4065	0.075	1046813	keystroke	o	n/a
523.617	0.0735	1047234	keystroke	s	n/a
523.826	0.0605	1047652	keystroke	t	n/a
523.9015	0.1045	1047803	keystroke	i	n/a
523.961	0.1055	1047922	keystroke	n	n/a
524.082	0.074	1048164	keystroke	g	n/a
524.261	0.0755	1048522	keystroke	s	n/a
524.441	0.075	1048882	keystroke	Key.space	n/a
524.8765	0.074	1049753	keystroke	c	n/a
525.011	0.0755	1050022	keystroke	o	n/a
525.0715	0.105	1050143	keystroke	n	n/a
525.236	0.09	1050472	keystroke	g	n/a
525.4315	0.075	1050863	keystroke	r	n/a
525.6265	0.09	1051253	keystroke	e	n/a
525.8665	0.0145	1051733	keystroke	s	n/a
525.956	0.075	1051912	keystroke	s	n/a
526.166	0.21	1052332	keystroke	i	n/a
526.2415	0.1495	1052483	keystroke	o	n/a
526.3165	0.1045	1052633	keystroke	n	n/a
526.7515	0.0595	1053503	keystroke	a	n/a
526.8715	0.0895	1053743	keystroke	l	n/a
527.8905	0.06	1055781	keystroke	Key.space	n/a
528.0865	0.075	1056173	keystroke	s	n/a
528.2815	0.09	1056563	keystroke	e	n/a
528.5215	0.045	1057043	keystroke	v	n/a
528.6265	0.135	1057253	keystroke	e	n/a
528.7465	0.075	1057493	keystroke	r	n/a
528.9415	0.06	1057883	keystroke	a	n/a
529.0465	0.0745	1058093	keystroke	l	n/a
529.316	0.075	1058632	keystroke	Key.enter	n/a
529.399	9.2185	1058798	prompt	n/a	metadata config arbor greensboro\n
530.186	0.0605	1060372	keystroke	m	n/a
530.2615	0.09	1060523	keystroke	e	n/a
530.5465	0.0595	1061093	keystroke	t	n/a
530.7265	0.075	1061453	keystroke	a	n/a
530.9965	0.0745	1061993	keystroke	d	n/a
531.146	0.09	1062292	keystroke	a	n/a
531.686	0.06	1063372	keystroke	t	n/a
531.9415	0.075	1063883	keystroke	a	n/a
532.376	0.075	1064752	keystroke	Key.space	n/a
532.961	0.045	1065922	keystroke	c	n/a
533.051	0.1055	1066102	keystroke	o	n/a
533.141	0.105	1066282	keystroke	n	n/a
533.486	0.121	1066972	keystroke	f	n/a
533.666	0.09	1067332	keystroke	i	n/a
533.786	0.0755	1067572	keystroke	g	n/a
533.921	0.09	1067842	keystroke	Key.space	n/a
534.551	0.1055	1069102	keystroke	a	n/a
534.731	0.0755	1069462	keystroke	r	n/a
534.971	0.0595	1069942	keystroke	b	n/a
535.166	0.09	1070332	keystroke	o	n/a
535.3605	0.061	1070721	keystroke	r	n/a
535.5555	0.06	1071111	keystroke	Key.space	n/a
536.0065	0.074	1072013	keystroke	g	n/a
536.126	0.09	1072252	keystroke	r	n/a
536.336	0.06	1072672	keystroke	e	n/a
536.681	0.09	1073362	keystroke	e	n/a
536.8015	0.1045	1073603	keystroke	n	n/a
537.4615	0.09	1074923	keystroke	s	n/a
537.7015	0.0745	1075403	keystroke	b	n/a
537.9555	0.106	1075911	keystroke	o	n/a
538.1515	0.0745	1076303	keystroke	r	n/a
538.241	0.105	1076482	keystroke	o	n/a
538.556	0.06	1077112	keystroke	Key.enter	n/a
538.621	4.902	1077242	prompt	n/a	ghana dual level fibre\n
539.666	0.076	1079332	keystroke	g	n/a
539.7715	0.09	1079543	keystroke	h	n/a
539.8765	0.0895	1079753	keystroke	a	n/a
540.0415	0.104	1080083	keystroke	n	n/a
540.1605	0.0755	1080321	keystroke	a	n/a
540.2805	0.09	1080561	keystroke	Key.space	n/a
540.821	0.0755	1081642	keystroke	d	n/a
540.8815	0.059	1081763	keystroke	u	n/a
541.0305	0.061	1082061	keystroke	a	n/a
541.1365	0.0595	1082273	keystroke	l	n/a
541.3455	0.0755	1082691	keystroke	Key.space	n/a
541.6615	0.0745	1083323	keystroke	l	n/a
541.721	0.0905	1083442	keystroke	e	n/a
541.961	0.06	1083922	keystroke	v	n/a
542.081	0.1055	1084162	keystroke	e	n/a
542.2015	0.06	1084403	keystroke	l	n/a
542.456	0.075	1084912	keystroke	Key.space	n/a
542.7565	0.0595	1085513	keystroke	f	n/a
542.9065	0.06	1085813	keystroke	i	n/a
543.0855	0.076	1086171	keystroke	b	n/a
543.2215	0.135	1086443	keystroke	r	n/a
543.3265	0.105	1086653	keystroke	e	n/a
543.4465	0.075	1086893	keystroke	Key.enter	n/a
543.527	6.934	1087054	prompt	n/a	loops period what've bridge\n
544.2415	0.09	1088483	keystroke	l	n/a
544.4215	0.06	1088843	keystroke	o	n/a
544.571	0.0755	1089142	keystroke	o	n/a
544.766	0.0755	1089532	keystroke	p	n/a
544.886	0.06	1089772	keystroke	s	n/a
545.0505	0.076	1090101	keystroke	Key.space	n/a
545.3065	0.09	1090613	keystroke	p	n/a
545.4115	0.09	1090823	keystroke	e	n/a
545.5165	0.09	1091033	keystroke	r	n/a
545.7115	0.089	1091423	keystroke	i	n/a
545.9065	0.089	1091813	keystroke	o	n/a
546.4455	0.075	1092891	keystroke	d	n/a
546.5805	0.075	1093161	keystroke	Key.space	n/a
546.7905	0.0915	1093581	keystroke	w	n/a
546.9715	0.0745	1093943	keystroke	h	n/a
547.0765	0.119	1094153	keystroke	a	n/a
547.301	0.09	1094602	keystroke	t	n/a
548.216	0.076	1096432	keystroke	'	n/a
548.3665	0.075	1096733	keystroke	v	n/a
548.501	0.075	1097002	keystroke	e	n/a
548.621	0.0605	1097242	keystroke	Key.space	n/a
549.4015	0.074	1098803	keystroke	b	n/a
549.5055	0.06	1099011	keystroke	r	n/a
549.5965	0.09	1099193	keystroke	i	n/a
549.8515	0.105	1099703	keystroke	d	n/a
550.1365	0.075	1100273	keystroke	g	n/a
550.2415	0.0895	1100483	keystroke	e	n/a
550.3615	0.09	1100723	keystroke	Key.enter	n/a
550.4645	6.994	1100929	prompt	n/a	haven't abstracts tuesday me\n
551.3205	0.061	1102641	keystroke	h	n/a
551.3665	0.0295	1102733	keystroke	a	n/a
551.5315	0.074	1103063	keystroke	v	n/a
551.6965	0.044	1103393	keystroke	e	n/a
551.8605	0.0755	1103721	keystroke	n	n/a
552.2215	0.075	1104443	keystroke	'	n/a
552.386	0.0595	1104772	keystroke	t	n/a
552.596	0.015	1105192	keystroke	Key.space	n/a
553.001	0.045	1106002	keystroke	a	n/a
553.1515	0.075	1106303	keystroke	b	n/a
553.3455	0.091	1106691	keystroke	s	n/a
553.5715	0.06	1107143	keystroke	t	n/a
553.7505	0.076	1107501	keystroke	r	n/a
553.9465	0.075	1107893	keystroke	a	n/a
554.231	0.075	1108462	keystroke	c	n/a
554.441	0.045	1108882	keystroke	t	n/a
554.6805	0.0755	1109361	keystroke	s	n/a
554.951	0.0755	1109902	keystroke	Key.space	n/a
555.386	0.045	1110772	keystroke	t	n/a
555.506	0.0605	1111012	keystroke	u	n/a
555.5965	0.104	1111193	keystroke	e	n/a
555.836	0.09	1111672	keystroke	s	n/a
556.1655	0.0905	1112331	keystroke	d	n/a
556.316	0.0755	1112632	keystroke	a	n/a
556.511	0.075	1113022	keystroke	y	n/a
556.7215	0.0745	1113443	keystroke	Key.space	n/a
557.141	0.075	1114282	keystroke	m	n/a
557.246	0.075	1114492	keystroke	e	n/a
557.366	0.09	1114732	keystroke	Key.enter	n/a
557.463	7.93	1114926	prompt	n/a	indonesian simulations allowed spec\n
558.341	0.105	1116682	keystroke	i	n/a
558.416	0.105	1116832	keystroke	n	n/a
558.6565	0.059	1117313	keystroke	d	n/a
558.8665	0.1045	1117733	keystroke	o	n/a
559.1355	0.09	1118271	keystroke	n	n/a
560.126	0.075	1120252	keystroke	e	n/a
560.336	0.06	1120672	keystroke	s	n/a
560.471	0.075	1120942	keystroke	i	n/a
560.666	0.0895	1121332	keystroke	a	n/a
560.9055	0.0755	1121811	keystroke	Key.space	n/a
561.206	0.0595	1122412	keystroke	s	n/a
561.3255	0.075	1122651	keystroke	i	n/a
561.491	0.075	1122982	keystroke	m	n/a
561.6715	0.0595	1123343	keystroke	u	n/a
561.866	0.075	1123732	keystroke	l	n/a
561.911	0.075	1123822	keystroke	a	n/a
562.1065	0.0745	1124213	keystroke	t	n/a
562.166	0.195	1124332	keystroke	i	n/a
562.226	0.12	1124452	keystroke	o	n/a
562.3165	0.1195	1124633	keystroke	n	n/a
562.466	0.075	1124932	keystroke	s	n/a
562.631	0.09	1125262	keystroke	Key.space	n/a
563.516	0.075	1127032	keystroke	a	n/a
563.666	0.06	1127332	keystroke	l	n/a
563.771	0.075	1127542	keystroke	l	n/a
563.951	0.075	1127902	keystroke	o	n/a
564.026	0.09	1128052	keystroke	w	n/a
564.1915	0.0745	1128383	keystroke	e	n/a
564.401	0.075	1128802	keystroke	d	n/a
564.536	0.075	1129072	keystroke	Key.space	n/a
564.746	0.0755	1129492	keystroke	s	n/a
564.8655	0.09	1129731	keystroke	p	n/a
565.0455	0.075	1130091	keystroke	e	n/a
565.2265	0.0745	1130453	keystroke	c	n/a
565.3165	0.074	1130633	keystroke	Key.enter	n/a
565.3975	8.7105	1130795	prompt	n/a	secured apart nottingham australia\n
566.0065	0.074	1132013	keystroke	s	n/a
566.246	0.09	1132492	keystroke	e	n/a
566.471	0.09	1132942	keystroke	c	n/a
566.636	0.075	1133272	keystroke	u	n/a
566.771	0.105	1133542	keystroke	r	n/a
566.8465	0.12	1133693	keystroke	e	n/a
567.0415	0.09	1134083	keystroke	d	n/a
567.266	0.06	1134532	keystroke	Key.space	n/a
567.461	0.06	1134922	keystroke	a	n/a
567.611	0.075	1135222	keystroke	p	n/a
568.001	0.1055	1136002	keystroke	a	n/a
568.241	0.075	1136482	keystroke	r	n/a
569.3055	0.06	1138611	keystroke	t	n/a
569.5465	0.045	1139093	keystroke	Key.space	n/a
569.8915	0.09	1139783	keystroke	n	n/a
570.0415	0.105	1140083	keystroke	o	n/a
570.2515	0.0445	1140503	keystroke	t	n/a
570.401	0.0605	1140802	keystroke	t	n/a
570.521	0.135	1141042	keystroke	i	n/a
570.611	0.105	1141222	keystroke	n	n/a
571.3015	0.0745	1142603	keystroke	g	n/a
571.4655	0.046	1142931	keystroke	h	n/a
571.5125	0.103	1143025	keystroke	a	n/a
571.7355	0.091	1143471	keystroke	m	n/a
572.0205	0.075	1144041	keystroke	Key.space	n/a
572.291	0.075	1144582	keystroke	a	n/a
572.6665	0.059	1145333	keystroke	u	n/a
572.756	0.0755	1145512	keystroke	s	n/a
572.996	0.0755	1145992	keystroke	t	n/a
573.1005	0.1055	1146201	keystroke	r	n/a
573.3115	0.06	1146623	keystroke	a	n/a
573.461	0.0905	1146922	keystroke	l	n/a
573.6565	0.075	1147313	keystroke	i	n/a
573.7465	0.09	1147493	keystroke	a	n/a
574.0455	0.06	1148091	keystroke	Key.enter	n/a
574.1125	6.34	1148225	prompt	n/a	funds contrast reject turkey\n
574.946	0.0605	1149892	keystroke	f	n/a
575.0365	0.1045	1150073	keystroke	u	n/a
575.1115	0.1045	1150223	keystroke	n	n/a
575.3215	0.1185	1150643	keystroke	d	n/a
575.4865	0.0745	1150973	keystroke	s	n/a
575.6515	0.075	1151303	keystroke	Key.space	n/a
576.011	0.0605	1152022	keystroke	c	n/a
576.101	0.105	1152202	keystroke	o	n/a
576.176	0.105	1152352	keystroke	n	n/a
576.386	0.075	1152772	keystroke	t	n/a
576.566	0.075	1153132	keystroke	r	n/a
576.731	0.105	1153462	keystroke	a	n/a
576.9255	0.09	1153851	keystroke	s	n/a
577.181	0.0605	1154362	keystroke	t	n/a
577.4365	0.0745	1154873	keystroke	Key.space	n/a
577.9465	0.105	1155893	keystroke	r	n/a
578.0215	0.12	1156043	keystroke	e	n/a
578.3355	0.09	1156671	keystroke	j	n/a
578.456	0.0905	1156912	keystroke	e	n/a
578.6815	0.0745	1157363	keystroke	c	n/a
578.876	0.06	1157752	keystroke	t	n/a
579.026	0.075	1158052	keystroke	Key.space	n/a
579.386	0.075	1158772	keystroke	t	n/a
579.5665	0.0745	1159133	keystroke	u	n/a
579.7465	0.0595	1159493	keystroke	r	n/a
579.9405	0.09	1159881	keystroke	k	n/a
580.0465	0.089	1160093	keystroke	e	n/a
580.2715	0.06	1160543	keystroke	y	n/a
580.3605	0.09	1160721	keystroke	Key.enter	n/a
580.456	6.027	1160912	prompt	n/a	fotos destiny the falls\n
581.321	0.06	1162642	keystroke	f	n/a
581.471	0.09	1162942	keystroke	o	n/a
581.666	0.0605	1163332	keystroke	t	n/a
581.8015	0.075	1163603	keystroke	o	n/a
581.9665	0.075	1163933	keystroke	s	n/a
582.1305	0.075	1164261	keystroke	Key.space	n/a
582.4455	0.09	1164891	keystroke	d	n/a
582.5815	0.0895	1165163	keystroke	e	n/a
582.776	0.075	1165552	keystroke	s	n/a
583.1815	0.06	1166363	keystroke	t	n/a
583.2565	0.09	1166513	keystroke	i	n/a
583.4215	0.105	1166843	keystroke	n	n/a
583.6465	0.059	1167293	keystroke	g	n/a
583.991	0.075	1167982	keystroke	Key.backspace	n/a
584.306	0.075	1168612	keystroke	t	n/a
584.6505	0.0605	1169301	keystroke	Key.backspace	n/a
584.757	0.074	1169514	keystroke	y	n/a
584.9515	0.0745	1169903	keystroke	Key.space	n/a
585.176	0.06	1170352	keystroke	t	n/a
585.251	0.0605	1170502	keystroke	h	n/a
585.401	0.045	1170802	keystroke	e	n/a
585.491	0.09	1170982	keystroke	Key.space	n/a
585.627	0.089	1171254	keystroke	f	n/a
585.7765	0.1045	1171553	keystroke	a	n/a
585.926	0.06	1171852	keystroke	l	n/a
586.061	0.105	1172122	keystroke	l	n/a
586.181	0.06	1172362	keystroke	s	n/a
586.376	0.105	1172752	keystroke	Key.enter	n/a
586.487	6.446	1172974	prompt	n/a	statute asus orlando beds\n
587.126	0.075	1174252	keystroke	s	n/a
587.366	0.0605	1174732	keystroke	t	n/a
587.4715	0.1195	1174943	keystroke	a	n/a
587.6065	0.0895	1175213	keystroke	t	n/a
587.996	0.0595	1175992	keystroke	u	n/a
588.1015	0.09	1176203	keystroke	e	n/a
588.7755	0.076	1177551	keystroke	Key.space	n/a
589.5715	0.075	1179143	keystroke	a	n/a
589.7505	0.076	1179501	keystroke	s	n/a
589.9605	0.076	1179921	keystroke	u	n/a
590.0815	0.075	1180163	keystroke	s	n/a
590.2015	0.09	1180403	keystroke	Key.space	n/a
590.7415	0.1045	1181483	keystroke	o	n/a
591.011	0.061	1182022	keystroke	r	n/a
591.221	0.075	1182442	keystroke	l	n/a
591.4305	0.076	1182861	keystroke	a	n/a
591.5665	0.09	1183133	keystroke	n	n/a
591.7315	0.075	1183463	keystroke	d	n/a
591.8515	0.09	1183703	keystroke	o	n/a
592.1065	0.089	1184213	keystroke	Key.space	n/a
592.376	0.0745	1184752	keystroke	b	n/a
592.4805	0.0915	1184961	keystroke	e	n/a
592.6305	0.151	1185261	keystroke	d	n/a
592.7515	0.1045	1185503	keystroke	s	n/a
592.8405	0.09	1185681	keystroke	Key.enter	n/a
592.9445	5.4785	1185889	prompt	n/a	one arrested recent specifically\n
593.8315	0.09	1187663	keystroke	o	n/a
594.041	0.075	1188082	keystroke	n	n/a
594.1465	0.045	1188293	keystroke	e	n/a
594.251	0.0745	1188502	keystroke	Key.space	n/a
594.341	0.0905	1188682	keystroke	a	n/a
594.5055	0.0605	1189011	keystroke	r	n/a
594.671	0.06	1189342	keystroke	r	n/a
594.7755	0.091	1189551	keystroke	e	n/a
594.9415	0.09	1189883	keystroke	s	n/a
595.1515	0.0895	1190303	keystroke	t	n/a
595.3015	0.165	1190603	keystroke	e	n/a
595.4365	0.105	1190873	keystroke	d	n/a
595.6165	0.074	1191233	keystroke	Key.space	n/a
596.021	0.06	1192042	keystroke	s	n/a
596.306	0.075	1192612	keystroke	p	n/a
596.441	0.105	1192882	keystroke	e	n/a
596.6655	0.106	1193331	keystroke	c	n/a
596.936	0.0745	1193872	keystroke	i	n/a
597.1915	0.074	1194383	keystroke	f	n/a
597.296	0.0895	1194592	keystroke	i	n/a
597.4915	0.074	1194983	keystroke	c	n/a
597.6855	0.0755	1195371	keystroke	a	n/a
597.821	0.0605	1195642	keystroke	l	n/a
597.941	0.09	1195882	keystroke	l	n/a
598.211	0.075	1196422	keystroke	y	n/a
598.3455	0.0755	1196691	keystroke	Key.enter	n/a
598.427	4.9455	1196854	prompt	n/a	lands address allowed logs\n
599.081	0.075	1198162	keystroke	l	n/a
599.216	0.0755	1198432	keystroke	a	n/a
599.336	0.0755	1198672	keystroke	n	n/a
599.501	0.12	1199002	keystroke	d	n/a
599.606	0.09	1199212	keystroke	s	n/a
599.771	0.075	1199542	keystroke	Key.space	n/a
599.936	0.1055	1199872	keystroke	a	n/a
600.161	0.075	1200322	keystroke	d	n/a
600.311	0.091	1200622	keystroke	d	n/a
600.506	0.105	1201012	keystroke	r	n/a
600.581	0.12	1201162	keystroke	e	n/a
600.821	0.045	1201642	keystroke	s	n/a
600.9555	0.0755	1201911	keystroke	s	n/a
601.1655	0.06	1202331	keystroke	Key.space	n/a
601.3015	0.09	1202603	keystroke	a	n/a
601.4655	0.045	1202931	keystroke	l	n/a
601.601	0.0605	1203202	keystroke	l	n/a
601.766	0.0755	1203532	keystroke	o	n/a
601.8565	0.075	1203713	keystroke	w	n/a
602.0815	0.06	1204163	keystroke	e	n/a
602.2315	0.09	1204463	keystroke	d	n/a
602.3365	0.075	1204673	keystroke	Key.space	n/a
602.5915	0.075	1205183	keystroke	l	n/a
602.7855	0.075	1205571	keystroke	o	n/a
602.951	0.06	1205902	keystroke	g	n/a
603.041	0.0745	1206082	keystroke	o	n/a
603.176	0.0905	1206352	keystroke	s	n/a
603.2955	0.0755	1206591	keystroke	Key.enter	n/a
603.3805	6.5925	1206761	prompt	n/a	vendor sagem arkansas onion\n
604.1665	0.0445	1208333	keystroke	v	n/a
604.3015	0.0895	1208603	keystroke	e	n/a
604.421	0.075	1208842	keystroke	n	n/a
604.706	0.09	1209412	keystroke	d	n/a
604.841	0.075	1209682	keystroke	o	n/a
605.0515	0.059	1210103	keystroke	r	n/a
605.2305	0.0605	1210461	keystroke	Key.space	n/a
605.576	0.0755	1211152	keystroke	s	n/a
605.7265	0.09	1211453	keystroke	a	n/a
606.3265	0.015	1212653	keystroke	g	n/a
606.4015	0.074	1212803	keystroke	e	n/a
606.5815	0.089	1213163	keystroke	m	n/a
606.8815	0.075	1213763	keystroke	Key.space	n/a
607.121	0.09	1214242	keystroke	a	n/a
607.4655	0.06	1214931	keystroke	r	n/a
607.7355	0.076	1215471	keystroke	k	n/a
607.8265	0.089	1215653	keystroke	a	n/a
607.9605	0.0755	1215921	keystroke	n	n/a
608.0955	0.09	1216191	keystroke	s	n/a
608.306	0.1645	1216612	keystroke	a	n/a
608.4555	0.091	1216911	keystroke	s	n/a
608.7105	0.0755	1217421	keystroke	Key.space	n/a
609.131	0.1055	1218262	keystroke	o	n/a
609.3115	0.075	1218623	keystroke	n	n/a
609.4755	0.061	1218951	keystroke	i	n/a
609.6565	0.105	1219313	keystroke	o	n/a
