onset	duration	sample	value	key	prompt_text
0.9905	15.0065	1981	prompt	n/a	the quick brown fox jumps over a lazy dog\n
6.3185	0.013	12637	keystroke_t	t	n/a
6.361	0.0765	12722	keystroke_h	h	n/a
6.5125	0.1205	13025	keystroke_e	e	n/a
6.6925	0.105	13385	keystroke_Key.space	Key.space	n/a
7.113	0.105	14226	keystroke_q	q	n/a
7.187	0.0605	14374	keystroke_u	u	n/a
7.5025	0.0605	15005	keystroke_i	i	n/a
7.6825	0.12	15365	keystroke_c	c	n/a
7.788	0.044	15576	keystroke_k	k	n/a
7.9075	0.06	15815	keystroke_Key.space	Key.space	n/a
8.493	0.0755	16986	keystroke_b	b	n/a
8.5535	0.105	17107	keystroke_r	r	n/a
8.673	0.0755	17346	keystroke_o	o	n/a
8.764	0.0745	17528	keystroke_w	w	n/a
8.8675	0.075	17735	keystroke_n	n	n/a
9.0775	0.12	18155	keystroke_Key.space	Key.space	n/a
9.1825	0.135	18365	keystroke_f	f	n/a
9.3025	0.075	18605	keystroke_o	o	n/a
9.4075	0.12	18815	keystroke_x	x	n/a
9.513	0.0745	19026	keystroke_Key.space	Key.space	n/a
10.308	0.075	20616	keystroke_j	j	n/a
10.4425	0.0605	20885	keystroke_u	u	n/a
10.623	0.105	21246	keystroke_m	m	n/a
10.803	0.09	21606	keystroke_p	p	n/a
11.073	0.1355	22146	keystroke_s	s	n/a
11.193	0.09	22386	keystroke_Key.space	Key.space	n/a
11.328	0.09	22656	keystroke_o	o	n/a
11.433	0.075	22866	keystroke_v	v	n/a
11.628	0.045	23256	keystroke_e	e	n/a
11.793	0.15	23586	keystroke_r	r	n/a
11.898	0.09	23796	keystroke_Key.space	Key.space	n/a
12.603	0.09	25206	keystroke_a	a	n/a
12.7685	0.105	25537	keystroke_Key.space	Key.space	n/a
13.158	0.0905	26316	keystroke_l	l	n/a
13.3085	0.0895	26617	keystroke_a	a	n/a
14.4485	0.105	28897	keystroke_z	z	n/a
14.928	0.105	29856	keystroke_y	y	n/a
15.108	0.1055	30216	keystroke_Key.space	Key.space	n/a
15.3335	0.1045	30667	keystroke_d	d	n/a
15.4685	0.075	30937	keystroke_o	o	n/a
15.603	0.06	31206	keystroke_g	g	n/a
15.8885	0.1045	31777	keystroke_Key.enter	Key.enter	n/a
16.0025	6.3235	32005	prompt	n/a	modification dose desired font\n
16.8485	0.1345	33697	keystroke_m	m	n/a
17.178	0.106	34356	keystroke_o	o	n/a
17.298	0.105	34596	keystroke_d	d	n/a
17.418	0.1205	34836	keystroke_i	i	n/a
17.7035	0.09	35407	keystroke_f	f	n/a
17.808	0.06	35616	keystroke_i	i	n/a
18.078	0.0905	36156	keystroke_c	c	n/a
18.198	0.1355	36396	keystroke_a	a	n/a
18.3485	0.0895	36697	keystroke_t	t	n/a
18.4085	0.0595	36817	keystroke_i	i	n/a
18.543	0.09	37086	keystroke_o	o	n/a
18.7085	0.1045	37417	keystroke_n	n	n/a
18.858	0.105	37716	keystroke_Key.space	Key.space	n/a
19.668	0.09	39336	keystroke_d	d	n/a
19.773	0.105	39546	keystroke_o	o	n/a
19.8935	0.1045	39787	keystroke_e	e	n/a
20.0585	0.1195	40117	keystroke_s	s	n/a
20.1635	0.075	40327	keystroke_Key.space	Key.space	n/a
20.373	0.075	40746	keystroke_d	d	n/a
20.538	0.075	41076	keystroke_e	e	n/a
20.643	0.12	41286	keystroke_s	s	n/a
20.764	0.089	41528	keystroke_i	i	n/a
20.8675	0.0605	41735	keystroke_r	r	n/a
21.0025	0.0755	42005	keystroke_e	e	n/a
21.1975	0.1055	42395	keystroke_d	d	n/a
21.273	0.12	42546	keystroke_Key.space	Key.space	n/a
21.708	0.09	43416	keystroke_f	f	n/a
21.813	0.06	43626	keystroke_o	o	n/a
21.9635	0.1195	43927	keystroke_n	n	n/a
22.0685	0.0895	44137	keystroke_t	t	n/a
22.203	0.12	44406	keystroke_Key.enter	Key.enter	n/a
22.3295	8.9055	44659	prompt	n/a	dinner cheapest office poverty\n
23.118	0.1195	46236	keystroke_d	d	n/a
23.2525	0.075	46505	keystroke_i	i	n/a
23.4935	0.0295	46987	keystroke_n	n	n/a
23.598	0.1205	47196	keystroke_n	n	n/a
23.7025	0.06	47405	keystroke_e	e	n/a
23.8525	0.09	47705	keystroke_r	r	n/a
23.898	0.1195	47796	keystroke_Key.space	Key.space	n/a
24.3335	0.104	48667	keystroke_c	c	n/a
24.4675	0.12	48935	keystroke_h	h	n/a
24.603	0.105	49206	keystroke_e	e	n/a
24.9625	0.12	49925	keystroke_a	a	n/a
25.158	0.0895	50316	keystroke_p	p	n/a
25.2775	0.1205	50555	keystroke_e	e	n/a
25.6375	0.12	51275	keystroke_s	s	n/a
26.0585	0.105	52117	keystroke_t	t	n/a
26.3575	0.09	52715	keystroke_Key.space	Key.space	n/a
27.6335	0.0895	55267	keystroke_o	o	n/a
27.7535	0.0745	55507	keystroke_f	f	n/a
27.9175	0.0755	55835	keystroke_f	f	n/a
28.008	0.105	56016	keystroke_i	i	n/a
28.128	0.12	56256	keystroke_c	c	n/a
28.3835	0.09	56767	keystroke_e	e	n/a
28.4575	0.135	56915	keystroke_Key.space	Key.space	n/a
29.328	0.12	58656	keystroke_p	p	n/a
29.598	0.12	59196	keystroke_o	o	n/a
29.778	0.06	59556	keystroke_v	v	n/a
30.0035	0.0755	60007	keystroke_e	e	n/a
30.1825	0.061	60365	keystroke_r	r	n/a
30.723	0.1205	61446	keystroke_t	t	n/a
30.9185	0.09	61837	keystroke_y	y	n/a
31.1285	0.105	62257	keystroke_Key.enter	Key.enter	n/a
31.239	7.721	62478	prompt	n/a	with considers staff equality\n
31.8635	0.12	63727	keystroke_w	w	n/a
31.9535	0.1055	63907	keystroke_i	i	n/a
32.0735	0.105	64147	keystroke_t	t	n/a
32.1485	0.09	64297	keystroke_h	h	n/a
32.2685	0.105	64537	keystroke_Key.space	Key.space	n/a
32.898	0.105	65796	keystroke_c	c	n/a
32.9885	0.075	65977	keystroke_o	o	n/a
33.1685	0.12	66337	keystroke_n	n	n/a
33.2735	0.12	66547	keystroke_s	s	n/a
33.3785	0.104	66757	keystroke_i	i	n/a
33.4685	0.075	66937	keystroke_d	d	n/a
33.6485	0.1205	67297	keystroke_e	e	n/a
33.859	0.089	67718	keystroke_r	r	n/a
33.978	0.15	67956	keystroke_s	s	n/a
34.143	0.1205	68286	keystroke_Key.space	Key.space	n/a
34.563	0.135	69126	keystroke_s	s	n/a
34.908	0.09	69816	keystroke_a	a	n/a
35.2685	0.06	70537	keystroke_Key.backspace	Key.backspace	n/a
35.3135	0.09	70627	keystroke_t	t	n/a
35.4485	0.075	70897	keystroke_a	a	n/a
35.6435	0.09	71287	keystroke_f	f	n/a
36.0785	0.105	72157	keystroke_f	f	n/a
36.3035	0.12	72607	keystroke_Key.space	Key.space	n/a
37.1135	0.075	74227	keystroke_e	e	n/a
37.5335	0.09	75067	keystroke_q	q	n/a
37.6385	0.12	75277	keystroke_u	u	n/a
38.0885	0.105	76177	keystroke_a	a	n/a
38.1785	0.165	76357	keystroke_l	l	n/a
38.2985	0.135	76597	keystroke_i	i	n/a
38.4035	0.12	76807	keystroke_t	t	n/a
38.6285	0.09	77257	keystroke_y	y	n/a
38.8385	0.12	77677	keystroke_Key.enter	Key.enter	n/a
38.9635	5.5925	77927	prompt	n/a	lady corners amazing guarantees\n
39.6335	0.105	79267	keystroke_l	l	n/a
39.709	0.1495	79418	keystroke_a	a	n/a
39.8435	0.09	79687	keystroke_d	d	n/a
40.084	0.1045	80168	keystroke_y	y	n/a
40.2035	0.09	80407	keystroke_Key.space	Key.space	n/a
40.4435	0.09	80887	keystroke_c	c	n/a
40.624	0.089	81248	keystroke_o	o	n/a
40.729	0.06	81458	keystroke_r	r	n/a
41.104	0.1045	82208	keystroke_n	n	n/a
41.1935	0.0895	82387	keystroke_e	e	n/a
41.373	0.105	82746	keystroke_r	r	n/a
41.464	0.134	82928	keystroke_s	s	n/a
41.613	0.09	83226	keystroke_Key.space	Key.space	n/a
41.869	0.105	83738	keystroke_a	a	n/a
41.959	0.1345	83918	keystroke_m	m	n/a
42.108	0.06	84216	keystroke_a	a	n/a
42.273	0.09	84546	keystroke_z	z	n/a
42.348	0.105	84696	keystroke_i	i	n/a
42.408	0.12	84816	keystroke_n	n	n/a
42.5135	0.0895	85027	keystroke_g	g	n/a
42.5885	0.1195	85177	keystroke_Key.space	Key.space	n/a
42.8885	0.0595	85777	keystroke_g	g	n/a
43.053	0.09	86106	keystroke_u	u	n/a
43.113	0.1055	86226	keystroke_r	r	n/a
43.278	0.12	86556	keystroke_a	a	n/a
43.5635	0.105	87127	keystroke_n	n	n/a
43.8185	0.105	87637	keystroke_t	t	n/a
44.0285	0.06	88057	keystroke_e	e	n/a
44.179	0.0595	88358	keystroke_e	e	n/a
44.2685	0.12	88537	keystroke_s	s	n/a
44.4335	0.119	88867	keystroke_Key.enter	Key.enter	n/a
44.561	7.269	89122	prompt	n/a	naples nutritional stop belt\n
45.3635	0.12	90727	keystroke_n	n	n/a
45.4985	0.12	90997	keystroke_a	a	n/a
45.6035	0.0605	91207	keystroke_p	p	n/a
45.7685	0.105	91537	keystroke_l	l	n/a
45.8585	0.105	91717	keystroke_e	e	n/a
45.9785	0.135	91957	keystroke_s	s	n/a
46.0985	0.135	92197	keystroke_Key.space	Key.space	n/a
46.3835	0.1345	92767	keystroke_n	n	n/a
47.389	0.1195	94778	keystroke_u	u	n/a
47.883	0.0755	95766	keystroke_t	t	n/a
48.0785	0.1045	96157	keystroke_r	r	n/a
48.663	0.105	97326	keystroke_i	i	n/a
49.489	0.134	98978	keystroke_t	t	n/a
49.578	0.076	99156	keystroke_i	i	n/a
49.729	0.09	99458	keystroke_o	o	n/a
49.863	0.1055	99726	keystroke_n	n	n/a
49.954	0.134	99908	keystroke_a	a	n/a
50.073	0.106	100146	keystroke_l	l	n/a
50.223	0.1355	100446	keystroke_Key.space	Key.space	n/a
50.508	0.105	101016	keystroke_s	s	n/a
50.643	0.136	101286	keystroke_t	t	n/a
50.733	0.1355	101466	keystroke_o	o	n/a
50.793	0.12	101586	keystroke_p	p	n/a
50.898	0.09	101796	keystroke_Key.space	Key.space	n/a
51.018	0.075	102036	keystroke_b	b	n/a
51.108	0.105	102216	keystroke_e	e	n/a
51.214	0.075	102428	keystroke_l	l	n/a
51.543	0.1505	103086	keystroke_t	t	n/a
51.7235	0.104	103447	keystroke_Key.enter	Key.enter	n/a
51.8365	6.774	103673	prompt	n/a	bradford invest stand rare\n
52.5485	0.075	105097	keystroke_b	b	n/a
52.609	0.1195	105218	keystroke_r	r	n/a
52.7585	0.135	105517	keystroke_a	a	n/a
52.8785	0.1505	105757	keystroke_d	d	n/a
53.3285	0.105	106657	keystroke_f	f	n/a
53.4185	0.1195	106837	keystroke_o	o	n/a
53.509	0.089	107018	keystroke_r	r	n/a
53.674	0.134	107348	keystroke_d	d	n/a
53.748	0.135	107496	keystroke_Key.space	Key.space	n/a
53.959	0.105	107918	keystroke_i	i	n/a
54.184	0.104	108368	keystroke_n	n	n/a
54.318	0.075	108636	keystroke_v	v	n/a
54.529	0.075	109058	keystroke_e	e	n/a
54.858	0.15	109716	keystroke_s	s	n/a
54.964	0.134	109928	keystroke_t	t	n/a
55.083	0.135	110166	keystroke_Key.space	Key.space	n/a
56.913	0.1355	113826	keystroke_s	s	n/a
57.1085	0.09	114217	keystroke_t	t	n/a
57.214	0.1645	114428	keystroke_a	a	n/a
57.2735	0.12	114547	keystroke_n	n	n/a
57.4085	0.135	114817	keystroke_d	d	n/a
57.513	0.15	115026	keystroke_Key.space	Key.space	n/a
57.9185	0.105	115837	keystroke_r	r	n/a
58.0985	0.1505	116197	keystroke_a	a	n/a
58.2325	0.0765	116465	keystroke_r	r	n/a
58.383	0.1055	116766	keystroke_e	e	n/a
58.5035	0.105	117007	keystroke_Key.enter	Key.enter	n/a
58.618	7.3275	117236	prompt	n/a	custom overall popular fare\n
59.2085	0.1055	118417	keystroke_s	s	n/a
59.434	0.1345	118868	keystroke_u	u	n/a
59.5825	0.076	119165	keystroke_t	t	n/a
60.063	0.0455	120126	keystroke_Key.backspace	Key.backspace	n/a
60.1985	0.014	120397	keystroke_Key.backspace	Key.backspace	n/a
60.2875	0.046	120575	keystroke_Key.backspace	Key.backspace	n/a
60.364	0.1045	120728	keystroke_c	c	n/a
60.3785	0.06	120757	keystroke_Key.backspace	Key.backspace	n/a
60.5885	0.12	121177	keystroke_u	u	n/a
60.6485	0.12	121297	keystroke_s	s	n/a
60.889	0.104	121778	keystroke_t	t	n/a
60.979	0.06	121958	keystroke_o	o	n/a
61.204	0.044	122408	keystroke_Key.backspace	Key.backspace	n/a
61.263	0.075	122526	keystroke_Key.backspace	Key.backspace	n/a
61.383	0.06	122766	keystroke_Key.backspace	Key.backspace	n/a
61.5185	0.0295	123037	keystroke_Key.backspace	Key.backspace	n/a
61.593	0.0755	123186	keystroke_Key.backspace	Key.backspace	n/a
61.6835	0.135	123367	keystroke_c	c	n/a
61.833	0.105	123666	keystroke_u	u	n/a
61.953	0.15	123906	keystroke_s	s	n/a
62.088	0.1205	124176	keystroke_t	t	n/a
62.178	0.105	124356	keystroke_o	o	n/a
62.254	0.119	124508	keystroke_m	m	n/a
62.448	0.1205	124896	keystroke_Key.space	Key.space	n/a
62.808	0.12	125616	keystroke_o	o	n/a
62.9435	0.0595	125887	keystroke_v	v	n/a
63.1085	0.0445	126217	keystroke_e	e	n/a
63.2435	0.1195	126487	keystroke_r	r	n/a
63.378	0.12	126756	keystroke_a	a	n/a
63.4835	0.0895	126967	keystroke_l	l	n/a
63.618	0.105	127236	keystroke_l	l	n/a
63.8585	0.1195	127717	keystroke_Key.space	Key.space	n/a
64.0085	0.0895	128017	keystroke_p	p	n/a
64.2185	0.09	128437	keystroke_o	o	n/a
64.3685	0.1045	128737	keystroke_p	p	n/a
64.6085	0.06	129217	keystroke_u	u	n/a
64.788	0.105	129576	keystroke_l	l	n/a
64.893	0.1505	129786	keystroke_a	a	n/a
65.013	0.12	130026	keystroke_r	r	n/a
65.1185	0.1195	130237	keystroke_Key.space	Key.space	n/a
65.2685	0.1195	130537	keystroke_f	f	n/a
65.4185	0.1495	130837	keystroke_a	a	n/a
65.539	0.06	131078	keystroke_r	r	n/a
65.689	0.105	131378	keystroke_e	e	n/a
65.808	0.1355	131616	keystroke_Key.enter	Key.enter	n/a
65.95	6.595	131900	prompt	n/a	memory fred detail mandatory\n
67.548	0.1205	135096	keystroke_m	m	n/a
67.654	0.09	135308	keystroke_e	e	n/a
67.804	0.135	135608	keystroke_m	m	n/a
67.879	0.1195	135758	keystroke_o	o	n/a
67.9835	0.09	135967	keystroke_r	r	n/a
68.1785	0.105	136357	keystroke_y	y	n/a
68.3285	0.12	136657	keystroke_Key.space	Key.space	n/a
68.6435	0.105	137287	keystroke_f	f	n/a
68.8535	0.045	137707	keystroke_r	r	n/a
69.0035	0.06	138007	keystroke_e	e	n/a
69.1985	0.1055	138397	keystroke_d	d	n/a
69.2125	0.151	138425	keystroke_Key.space	Key.space	n/a
69.798	0.075	139596	keystroke_d	d	n/a
69.948	0.09	139896	keystroke_e	e	n/a
70.143	0.0455	140286	keystroke_t	t	n/a
70.2185	0.1195	140437	keystroke_a	a	n/a
70.293	0.0755	140586	keystroke_i	i	n/a
70.4585	0.1345	140917	keystroke_l	l	n/a
70.578	0.09	141156	keystroke_Key.space	Key.space	n/a
70.848	0.1205	141696	keystroke_m	m	n/a
70.9385	0.135	141877	keystroke_a	a	n/a
71.0735	0.09	142147	keystroke_n	n	n/a
71.5685	0.135	143137	keystroke_d	d	n/a
71.718	0.1355	143436	keystroke_a	a	n/a
71.9285	0.1045	143857	keystroke_t	t	n/a
72.079	0.0595	144158	keystroke_o	o	n/a
72.1535	0.03	144307	keystroke_r	r	n/a
72.3185	0.0905	144637	keystroke_y	y	n/a
72.4235	0.12	144847	keystroke_Key.enter	Key.enter	n/a
72.55	7.3755	145100	prompt	n/a	citizens controlled hearts specialized\n
73.3685	0.09	146737	keystroke_c	c	n/a
73.609	0.0895	147218	keystroke_i	i	n/a
73.6825	0.1065	147365	keystroke_t	t	n/a
73.804	0.0745	147608	keystroke_i	i	n/a
73.8935	0.1195	147787	keystroke_z	z	n/a
73.9985	0.12	147997	keystroke_e	e	n/a
74.1335	0.1045	148267	keystroke_n	n	n/a
74.3435	0.135	148687	keystroke_s	s	n/a
74.5375	0.105	149075	keystroke_Key.space	Key.space	n/a
74.8535	0.09	149707	keystroke_c	c	n/a
74.9585	0.06	149917	keystroke_o	o	n/a
75.1385	0.09	150277	keystroke_n	n	n/a
75.2135	0.075	150427	keystroke_t	t	n/a
75.3635	0.12	150727	keystroke_r	r	n/a
75.4385	0.075	150877	keystroke_o	o	n/a
75.6185	0.045	151237	keystroke_l	l	n/a
75.738	0.106	151476	keystroke_l	l	n/a
75.813	0.0605	151626	keystroke_e	e	n/a
75.994	0.075	151988	keystroke_d	d	n/a
76.038	0.1055	152076	keystroke_Key.space	Key.space	n/a
76.519	0.074	153038	keystroke_h	h	n/a
76.563	0.15	153126	keystroke_e	e	n/a
76.683	0.181	153366	keystroke_a	a	n/a
76.8185	0.09	153637	keystroke_r	r	n/a
76.969	0.089	153938	keystroke_t	t	n/a
77.089	0.12	154178	keystroke_s	s	n/a
77.178	0.12	154356	keystroke_Key.space	Key.space	n/a
77.404	0.09	154808	keystroke_s	s	n/a
77.509	0.104	155018	keystroke_p	p	n/a
77.568	0.0755	155136	keystroke_e	e	n/a
77.778	0.12	155556	keystroke_c	c	n/a
77.9435	0.0455	155887	keystroke_i	i	n/a
78.528	0.135	157056	keystroke_a	a	n/a
78.6935	0.1355	157387	keystroke_l	l	n/a
78.9485	0.12	157897	keystroke_i	i	n/a
79.2935	0.12	158587	keystroke_z	z	n/a
79.429	0.0445	158858	keystroke_e	e	n/a
79.5935	0.075	159187	keystroke_d	d	n/a
79.7885	0.135	159577	keystroke_Key.enter	Key.enter	n/a
79.929	8.3965	159858	prompt	n/a	analyzes nascar wash pets\n
80.553	0.135	161106	keystroke_a	a	n/a
80.6585	0.1345	161317	keystroke_n	n	n/a
80.809	0.119	161618	keystroke_y	y	n/a
81.2585	0.075	162517	keystroke_Key.backspace	Key.backspace	n/a
81.3935	0.06	162787	keystroke_a	a	n/a
81.4835	0.075	162967	keystroke_l	l	n/a
82.0085	0.09	164017	keystroke_y	y	n/a
82.7135	0.105	165427	keystroke_z	z	n/a
82.834	0.1045	165668	keystroke_e	e	n/a
82.9985	0.12	165997	keystroke_s	s	n/a
83.0885	0.1195	166177	keystroke_Key.space	Key.space	n/a
83.403	0.12	166806	keystroke_n	n	n/a
83.508	0.1205	167016	keystroke_a	a	n/a
83.899	0.0895	167798	keystroke_s	s	n/a
84.243	0.106	168486	keystroke_c	c	n/a
84.739	0.104	169478	keystroke_a	a	n/a
84.858	0.106	169716	keystroke_r	r	n/a
85.053	0.09	170106	keystroke_Key.space	Key.space	n/a
85.354	0.089	170708	keystroke_w	w	n/a
85.504	0.089	171008	keystroke_a	a	n/a
85.6535	0.0905	171307	keystroke_s	s	n/a
85.759	0.09	171518	keystroke_h	h	n/a
85.953	0.121	171906	keystroke_Key.space	Key.space	n/a
87.663	0.09	175326	keystroke_p	p	n/a
87.693	0.12	175386	keystroke_e	e	n/a
87.948	0.075	175896	keystroke_t	t	n/a
88.083	0.135	176166	keystroke_s	s	n/a
88.203	0.12	176406	keystroke_Key.enter	Key.enter	n/a
88.336	8.224	176672	prompt	n/a	tiles courtesy lycos attachments\n
88.999	0.119	177998	keystroke_t	t	n/a
89.2235	0.1055	178447	keystroke_i	i	n/a
89.629	0.104	179258	keystroke_l	l	n/a
89.718	0.1055	179436	keystroke_e	e	n/a
89.8835	0.12	179767	keystroke_s	s	n/a
89.9585	0.135	179917	keystroke_Key.space	Key.space	n/a
90.2135	0.09	180427	keystroke_c	c	n/a
90.2885	0.06	180577	keystroke_o	o	n/a
90.4535	0.045	180907	keystroke_u	u	n/a
90.6035	0.105	181207	keystroke_n	n	n/a
91.3235	0.105	182647	keystroke_Key.backspace	Key.backspace	n/a
91.3685	0.105	182737	keystroke_r	r	n/a
91.9235	0.09	183847	keystroke_t	t	n/a
92.2385	0.105	184477	keystroke_e	e	n/a
92.3585	0.12	184717	keystroke_s	s	n/a
92.8385	0.105	185677	keystroke_y	y	n/a
93.1235	0.12	186247	keystroke_Key.space	Key.space	n/a
93.484	0.149	186968	keystroke_l	l	n/a
93.618	0.09	187236	keystroke_y	y	n/a
93.889	0.0895	187778	keystroke_c	c	n/a
93.9935	0.075	187987	keystroke_o	o	n/a
94.1125	0.136	188225	keystroke_s	s	n/a
94.2325	0.121	188465	keystroke_Key.space	Key.space	n/a
94.4285	0.15	188857	keystroke_a	a	n/a
94.563	0.1055	189126	keystroke_t	t	n/a
94.7435	0.09	189487	keystroke_t	t	n/a
94.8485	0.12	189697	keystroke_a	a	n/a
95.283	0.105	190566	keystroke_c	c	n/a
95.448	0.0905	190896	keystroke_h	h	n/a
95.673	0.09	191346	keystroke_m	m	n/a
95.6885	0.1495	191377	keystroke_e	e	n/a
95.883	0.12	191766	keystroke_n	n	n/a
95.988	0.075	191976	keystroke_t	t	n/a
96.153	0.076	192306	keystroke_s	s	n/a
96.468	0.0905	192936	keystroke_Key.enter	Key.enter	n/a
96.564	7.1815	193128	prompt	n/a	trunk guilty springs accommodate\n
97.5185	0.015	195037	keystroke_t	t	n/a
97.6085	0.105	195217	keystroke_r	r	n/a
97.6985	0.06	195397	keystroke_u	u	n/a
97.8335	0.105	195667	keystroke_c	c	n/a
97.8935	0.09	195787	keystroke_k	k	n/a
98.1185	0.1195	196237	keystroke_Key.space	Key.space	n/a
98.388	0.121	196776	keystroke_g	g	n/a
98.523	0.031	197046	keystroke_u	u	n/a
98.643	0.076	197286	keystroke_i	i	n/a
98.793	0.106	197586	keystroke_l	l	n/a
98.9135	0.0895	197827	keystroke_t	t	n/a
99.079	0.12	198158	keystroke_y	y	n/a
99.213	0.136	198426	keystroke_Key.space	Key.space	n/a
99.5585	0.1045	199117	keystroke_s	s	n/a
99.678	0.105	199356	keystroke_p	p	n/a
99.769	0.104	199538	keystroke_r	r	n/a
99.8585	0.1195	199717	keystroke_i	i	n/a
99.949	0.15	199898	keystroke_n	n	n/a
100.038	0.075	200076	keystroke_g	g	n/a
100.233	0.106	200466	keystroke_s	s	n/a
100.278	0.12	200556	keystroke_Key.space	Key.space	n/a
100.458	0.121	200916	keystroke_a	a	n/a
100.713	0.1055	201426	keystroke_c	c	n/a
101.0135	0.12	202027	keystroke_c	c	n/a
101.3585	0.12	202717	keystroke_o	o	n/a
101.614	0.1045	203228	keystroke_m	m	n/a
101.7635	0.135	203527	keystroke_a	a	n/a
102.4535	0.074	204907	keystroke_Key.backspace	Key.backspace	n/a
102.6635	0.1195	205327	keystroke_m	m	n/a
102.9335	0.0755	205867	keystroke_o	o	n/a
103.024	0.1345	206048	keystroke_d	d	n/a
103.1735	0.1345	206347	keystroke_a	a	n/a
103.294	0.075	206588	keystroke_t	t	n/a
103.488	0.106	206976	keystroke_e	e	n/a
103.623	0.12	207246	keystroke_Key.enter	Key.enter	n/a
103.7505	8.874	207501	prompt	n/a	familiar wishing relatively canada\n
104.569	0.105	209138	keystroke_f	f	n/a
104.749	0.1195	209498	keystroke_a	a	n/a
104.8835	0.1205	209767	keystroke_m	m	n/a
105.079	0.1045	210158	keystroke_i	i	n/a
105.3485	0.135	210697	keystroke_l	l	n/a
105.5135	0.12	211027	keystroke_a	a	n/a
105.978	0.0605	211956	keystroke_Key.backspace	Key.backspace	n/a
106.189	0.044	212378	keystroke_i	i	n/a
106.234	0.104	212468	keystroke_a	a	n/a
106.2785	0.1345	212557	keystroke_r	r	n/a
106.383	0.135	212766	keystroke_Key.space	Key.space	n/a
106.9825	0.075	213965	keystroke_w	w	n/a
107.0435	0.1195	214087	keystroke_i	i	n/a
107.178	0.105	214356	keystroke_s	s	n/a
107.284	0.089	214568	keystroke_h	h	n/a
107.343	0.09	214686	keystroke_i	i	n/a
107.493	0.105	214986	keystroke_n	n	n/a
107.553	0.12	215106	keystroke_g	g	n/a
107.6585	0.1195	215317	keystroke_Key.space	Key.space	n/a
107.988	0.075	215976	keystroke_r	r	n/a
108.1535	0.1045	216307	keystroke_e	e	n/a
108.243	0.1205	216486	keystroke_l	l	n/a
108.378	0.12	216756	keystroke_a	a	n/a
108.5135	0.1045	217027	keystroke_t	t	n/a
108.633	0.105	217266	keystroke_i	i	n/a
108.768	0.06	217536	keystroke_v	v	n/a
108.9335	0.15	217867	keystroke_e	e	n/a
109.0985	0.105	218197	keystroke_l	l	n/a
109.2635	0.089	218527	keystroke_y	y	n/a
109.3835	0.12	218767	keystroke_Key.space	Key.space	n/a
109.6535	0.06	219307	keystroke_c	c	n/a
109.849	0.0745	219698	keystroke_a	a	n/a
109.9975	0.12	219995	keystroke_n	n	n/a
110.523	0.0155	221046	keystroke_d	d	n/a
110.583	0.135	221166	keystroke_a	a	n/a
111.663	0.09	223326	keystroke_Key.backspace	Key.backspace	n/a
111.8285	0.1045	223657	keystroke_Key.backspace	Key.backspace	n/a
111.9775	0.136	223955	keystroke_a	a	n/a
112.1885	0.1195	224377	keystroke_d	d	n/a
112.323	0.09	224646	keystroke_a	a	n/a
112.503	0.1195	225006	keystroke_Key.enter	Key.enter	n/a
112.629	5.7865	225258	prompt	n/a	cottage lime paso focuses\n
113.2085	0.0745	226417	keystroke_c	c	n/a
113.3135	0.0895	226627	keystroke_o	o	n/a
113.418	0.06	226836	keystroke_t	t	n/a
113.553	0.09	227106	keystroke_t	t	n/a
113.6885	0.1045	227377	keystroke_a	a	n/a
113.853	0.06	227706	keystroke_g	g	n/a
114.063	0.06	228126	keystroke_e	e	n/a
114.1385	0.12	228277	keystroke_Key.space	Key.space	n/a
114.5885	0.135	229177	keystroke_l	l	n/a
114.7085	0.075	229417	keystroke_i	i	n/a
114.8885	0.105	229777	keystroke_m	m	n/a
114.9635	0.1355	229927	keystroke_e	e	n/a
115.0835	0.15	230167	keystroke_Key.space	Key.space	n/a
115.2185	0.12	230437	keystroke_p	p	n/a
115.3235	0.12	230647	keystroke_a	a	n/a
115.4135	0.12	230827	keystroke_s	s	n/a
115.5185	0.12	231037	keystroke_o	o	n/a
115.6985	0.12	231397	keystroke_Key.space	Key.space	n/a
115.8935	0.12	231787	keystroke_f	f	n/a
116.0285	0.09	232057	keystroke_o	o	n/a
116.1635	0.135	232327	keystroke_c	c	n/a
116.2835	0.105	232567	keystroke_u	u	n/a
116.6285	0.12	233257	keystroke_s	s	n/a
116.7035	0.165	233407	keystroke_e	e	n/a
116.8535	0.135	233707	keystroke_s	s	n/a
118.2935	0.119	236587	keystroke_Key.enter	Key.enter	n/a
118.4205	6.955	236841	prompt	n/a	oaks alerts prospects females\n
119.149	0.09	238298	keystroke_o	o	n/a
119.254	0.1495	238508	keystroke_a	a	n/a
119.3885	0.12	238777	keystroke_k	k	n/a
119.568	0.18	239136	keystroke_s	s	n/a
119.718	0.1205	239436	keystroke_Key.space	Key.space	n/a
119.9285	0.135	239857	keystroke_a	a	n/a
120.004	0.1195	240008	keystroke_l	l	n/a
120.1385	0.075	240277	keystroke_e	e	n/a
120.2885	0.09	240577	keystroke_r	r	n/a
120.4535	0.075	240907	keystroke_t	t	n/a
120.5885	0.135	241177	keystroke_s	s	n/a
120.6935	0.12	241387	keystroke_Key.space	Key.space	n/a
120.9485	0.09	241897	keystroke_p	p	n/a
121.1435	0.15	242287	keystroke_r	r	n/a
121.3085	0.12	242617	keystroke_o	o	n/a
121.5035	0.12	243007	keystroke_s	s	n/a
121.6985	0.105	243397	keystroke_p	p	n/a
121.7735	0.09	243547	keystroke_e	e	n/a
121.998	0.075	243996	keystroke_c	c	n/a
122.2085	0.1045	244417	keystroke_t	t	n/a
122.373	0.15	244746	keystroke_s	s	n/a
122.493	0.105	244986	keystroke_Key.space	Key.space	n/a
122.7635	0.075	245527	keystroke_f	f	n/a
122.943	0.09	245886	keystroke_e	e	n/a
123.0635	0.1195	246127	keystroke_m	m	n/a
123.198	0.1055	246396	keystroke_a	a	n/a
123.2885	0.15	246577	keystroke_l	l	n/a
123.4235	0.09	246847	keystroke_s	s	n/a
124.023	0.0905	248046	keystroke_Key.backspace	Key.backspace	n/a
124.054	0.1195	248108	keystroke_e	e	n/a
124.1435	0.135	248287	keystroke_s	s	n/a
125.2535	0.1195	250507	keystroke_Key.enter	Key.enter	n/a
125.3795	5.036	250759	prompt	n/a	ambient thai program lewis\n
126.018	0.075	252036	keystroke_a	a	n/a
126.153	0.1055	252306	keystroke_m	m	n/a
126.3785	0.0895	252757	keystroke_b	b	n/a
126.5885	0.1045	253177	keystroke_i	i	n/a
126.708	0.105	253416	keystroke_e	e	n/a
126.8285	0.0895	253657	keystroke_n	n	n/a
126.9335	0.105	253867	keystroke_t	t	n/a
127.0525	0.09	254105	keystroke_Key.space	Key.space	n/a
127.2035	0.1045	254407	keystroke_t	t	n/a
127.293	0.105	254586	keystroke_h	h	n/a
127.383	0.135	254766	keystroke_a	a	n/a
127.473	0.135	254946	keystroke_i	i	n/a
127.608	0.1055	255216	keystroke_Key.space	Key.space	n/a
127.728	0.1055	255456	keystroke_p	p	n/a
127.788	0.105	255576	keystroke_r	r	n/a
127.908	0.1205	255816	keystroke_o	o	n/a
127.9985	0.075	255997	keystroke_g	g	n/a
128.1485	0.12	256297	keystroke_r	r	n/a
128.2535	0.135	256507	keystroke_a	a	n/a
128.3735	0.12	256747	keystroke_m	m	n/a
128.8385	0.105	257677	keystroke_Key.space	Key.space	n/a
129.2285	0.135	258457	keystroke_l	l	n/a
129.3485	0.09	258697	keystroke_e	e	n/a
129.5435	0.075	259087	keystroke_i	i	n/a
129.9035	0.045	259807	keystroke_Key.backspace	Key.backspace	n/a
129.9635	0.09	259927	keystroke_w	w	n/a
130.0685	0.075	260137	keystroke_i	i	n/a
130.1735	0.09	260347	keystroke_s	s	n/a
130.2935	0.12	260587	keystroke_Key.enter	Key.enter	n/a
130.419	6.551	260838	prompt	n/a	clark convicted myspace switches\n
131.2085	0.119	262417	keystroke_c	c	n/a
131.3425	0.136	262685	keystroke_l	l	n/a
131.4185	0.134	262837	keystroke_a	a	n/a
131.5385	0.135	263077	keystroke_r	r	n/a
131.6575	0.1065	263315	keystroke_k	k	n/a
131.8535	0.105	263707	keystroke_Key.space	Key.space	n/a
132.228	0.12	264456	keystroke_c	c	n/a
132.333	0.1055	264666	keystroke_o	o	n/a
132.5285	0.1055	265057	keystroke_n	n	n/a
132.6485	0.1345	265297	keystroke_v	v	n/a
132.768	0.075	265536	keystroke_i	i	n/a
132.9485	0.104	265897	keystroke_c	c	n/a
133.2325	0.09	266465	keystroke_t	t	n/a
133.413	0.075	266826	keystroke_e	e	n/a
133.608	0.075	267216	keystroke_d	d	n/a
133.653	0.15	267306	keystroke_Key.space	Key.space	n/a
133.9985	0.1195	267997	keystroke_m	m	n/a
134.119	0.089	268238	keystroke_y	y	n/a
134.313	0.1355	268626	keystroke_s	s	n/a
134.449	0.104	268898	keystroke_p	p	n/a
134.568	0.045	269136	keystroke_e	e	n/a
134.883	0.0755	269766	keystroke_Key.backspace	Key.backspace	n/a
134.943	0.135	269886	keystroke_a	a	n/a
135.063	0.09	270126	keystroke_c	c	n/a
135.273	0.1055	270546	keystroke_e	e	n/a
135.348	0.105	270696	keystroke_Key.space	Key.space	n/a
135.723	0.075	271446	keystroke_s	s	n/a
135.889	0.119	271778	keystroke_w	w	n/a
135.993	0.15	271986	keystroke_i	i	n/a
136.1585	0.0895	272317	keystroke_t	t	n/a
136.398	0.1055	272796	keystroke_c	c	n/a
136.518	0.09	273036	keystroke_h	h	n/a
136.623	0.135	273246	keystroke_e	e	n/a
136.743	0.1355	273486	keystroke_s	s	n/a
136.848	0.12	273696	keystroke_Key.enter	Key.enter	n/a
136.9745	10.5555	273949	prompt	n/a	described whatever greatest assessment\n
138.0785	0.0745	276157	keystroke_d	d	n/a
138.303	0.105	276606	keystroke_e	e	n/a
138.588	0.105	277176	keystroke_s	s	n/a
138.8735	0.0895	277747	keystroke_c	c	n/a
139.083	0.0905	278166	keystroke_r	r	n/a
139.158	0.0905	278316	keystroke_i	i	n/a
139.353	0.12	278706	keystroke_b	b	n/a
139.4585	0.0745	278917	keystroke_e	e	n/a
139.668	0.0905	279336	keystroke_d	d	n/a
139.728	0.12	279456	keystroke_Key.space	Key.space	n/a
140.523	0.015	281046	keystroke_w	w	n/a
140.5535	0.0745	281107	keystroke_h	h	n/a
140.628	0.12	281256	keystroke_a	a	n/a
140.823	0.09	281646	keystroke_t	t	n/a
141.033	0.0755	282066	keystroke_e	e	n/a
141.303	0.1055	282606	keystroke_v	v	n/a
141.6485	0.09	283297	keystroke_e	e	n/a
141.8575	0.121	283715	keystroke_r	r	n/a
142.218	0.1655	284436	keystroke_Key.space	Key.space	n/a
142.9835	0.1045	285967	keystroke_g	g	n/a
143.2225	0.075	286445	keystroke_r	r	n/a
143.4175	0.106	286835	keystroke_e	e	n/a
143.7635	0.104	287527	keystroke_a	a	n/a
144.0175	0.1205	288035	keystroke_t	t	n/a
144.3335	0.12	288667	keystroke_e	e	n/a
144.4835	0.135	288967	keystroke_s	s	n/a
144.7385	0.09	289477	keystroke_t	t	n/a
144.9335	0.105	289867	keystroke_Key.space	Key.space	n/a
145.2785	0.105	290557	keystroke_a	a	n/a
145.503	0.0755	291006	keystroke_s	s	n/a
145.6835	0.075	291367	keystroke_s	s	n/a
145.863	0.0905	291726	keystroke_e	e	n/a
146.0585	0.075	292117	keystroke_s	s	n/a
146.2235	0.105	292447	keystroke_s	s	n/a
146.808	0.135	293616	keystroke_m	m	n/a
146.8985	0.1195	293797	keystroke_e	e	n/a
147.0335	0.105	294067	keystroke_n	n	n/a
147.1525	0.09	294305	keystroke_t	t	n/a
147.3925	0.1355	294785	keystroke_Key.enter	Key.enter	n/a
147.5365	11.874	295073	prompt	n/a	essex mechanics cove champagne\n
148.2325	0.106	296465	keystroke_e	e	n/a
148.6375	0.076	297275	keystroke_s	s	n/a
148.7885	0.1195	297577	keystroke_s	s	n/a
148.9675	0.091	297935	keystroke_e	e	n/a
149.1925	0.1055	298385	keystroke_x	x	n/a
149.373	0.135	298746	keystroke_Key.space	Key.space	n/a
150.003	0.135	300006	keystroke_m	m	n/a
150.1235	0.1045	300247	keystroke_e	e	n/a
151.2335	0.1045	302467	keystroke_c	c	n/a
152.523	0.105	305046	keystroke_h	h	n/a
152.6725	0.1355	305345	keystroke_a	a	n/a
152.823	0.09	305646	keystroke_n	n	n/a
152.973	0.12	305946	keystroke_i	i	n/a
153.153	0.1195	306306	keystroke_c	c	n/a
153.6175	0.0905	307235	keystroke_s	s	n/a
153.798	0.135	307596	keystroke_Key.space	Key.space	n/a
154.278	0.1045	308556	keystroke_c	c	n/a
154.399	0.1035	308798	keystroke_o	o	n/a
154.5175	0.075	309035	keystroke_v	v	n/a
154.7125	0.105	309425	keystroke_e	e	n/a
154.8325	0.12	309665	keystroke_Key.space	Key.space	n/a
155.388	0.105	310776	keystroke_c	c	n/a
155.943	0.1055	311886	keystroke_h	h	n/a
156.093	0.135	312186	keystroke_a	a	n/a
156.273	0.15	312546	keystroke_m	m	n/a
157.293	0.12	314586	keystroke_p	p	n/a
157.368	0.135	314736	keystroke_a	a	n/a
158.5985	0.119	317197	keystroke_g	g	n/a
158.9125	0.1205	317825	keystroke_n	n	n/a
159.0175	0.106	318035	keystroke_e	e	n/a
159.303	0.1045	318606	keystroke_Key.enter	Key.enter	n/a
159.416	7.0585	318832	prompt	n/a	healthcare detection highway irish\n
160.203	0.1195	320406	keystroke_h	h	n/a
160.2785	0.135	320557	keystroke_e	e	n/a
160.4585	0.12	320917	keystroke_a	a	n/a
160.593	0.09	321186	keystroke_l	l	n/a
160.848	0.105	321696	keystroke_t	t	n/a
160.908	0.12	321816	keystroke_h	h	n/a
161.133	0.09	322266	keystroke_Key.space	Key.space	n/a
161.448	0.09	322896	keystroke_Key.backspace	Key.backspace	n/a
161.4785	0.105	322957	keystroke_c	c	n/a
161.613	0.135	323226	keystroke_a	a	n/a
161.718	0.075	323436	keystroke_r	r	n/a
161.898	0.075	323796	keystroke_e	e	n/a
161.958	0.12	323916	keystroke_Key.space	Key.space	n/a
162.393	0.075	324786	keystroke_d	d	n/a
162.5735	0.0895	325147	keystroke_e	e	n/a
162.783	0.075	325566	keystroke_t	t	n/a
162.963	0.0305	325926	keystroke_e	e	n/a
163.158	0.105	326316	keystroke_c	c	n/a
163.368	0.105	326736	keystroke_t	t	n/a
163.413	0.03	326826	keystroke_i	i	n/a
163.533	0.12	327066	keystroke_o	o	n/a
163.638	0.15	327276	keystroke_n	n	n/a
163.818	0.12	327636	keystroke_Key.space	Key.space	n/a
164.013	0.105	328026	keystroke_h	h	n/a
164.088	0.105	328176	keystroke_i	i	n/a
164.1935	0.1195	328387	keystroke_g	g	n/a
164.298	0.105	328596	keystroke_h	h	n/a
164.778	0.075	329556	keystroke_w	w	n/a
164.913	0.105	329826	keystroke_a	a	n/a
165.123	0.09	330246	keystroke_y	y	n/a
165.4525	0.1205	330905	keystroke_Key.space	Key.space	n/a
165.723	0.1055	331446	keystroke_i	i	n/a
165.8125	0.105	331625	keystroke_r	r	n/a
165.9325	0.076	331865	keystroke_i	i	n/a
165.9925	0.12	331985	keystroke_s	s	n/a
166.0975	0.0905	332195	keystroke_h	h	n/a
166.353	0.12	332706	keystroke_Key.enter	Key.enter	n/a
166.479	4.4955	332958	prompt	n/a	hire traveler showed abuse\n
167.0735	0.0145	334147	keystroke_h	h	n/a
167.148	0.1205	334296	keystroke_i	i	n/a
167.238	0.06	334476	keystroke_r	r	n/a
167.4035	0.1045	334807	keystroke_e	e	n/a
167.463	0.135	334926	keystroke_Key.space	Key.space	n/a
167.628	0.075	335256	keystroke_t	t	n/a
167.778	0.075	335556	keystroke_r	r	n/a
167.8235	0.1195	335647	keystroke_a	a	n/a
168.063	0.045	336126	keystroke_v	v	n/a
168.213	0.105	336426	keystroke_e	e	n/a
168.423	0.09	336846	keystroke_l	l	n/a
168.633	0.09	337266	keystroke_e	e	n/a
168.813	0.1205	337626	keystroke_r	r	n/a
168.918	0.1195	337836	keystroke_Key.space	Key.space	n/a
169.0825	0.1205	338165	keystroke_s	s	n/a
169.173	0.0905	338346	keystroke_h	h	n/a
169.3225	0.15	338645	keystroke_o	o	n/a
169.4135	0.135	338827	keystroke_w	w	n/a
169.518	0.106	339036	keystroke_e	e	n/a
169.728	0.15	339456	keystroke_d	d	n/a
169.848	0.135	339696	keystroke_Key.space	Key.space	n/a
170.178	0.1205	340356	keystroke_a	a	n/a
170.3125	0.046	340625	keystroke_b	b	n/a
170.523	0.12	341046	keystroke_u	u	n/a
170.628	0.1505	341256	keystroke_s	s	n/a
170.688	0.15	341376	keystroke_e	e	n/a
170.838	0.135	341676	keystroke_Key.enter	Key.enter	n/a
170.9785	5.982	341957	prompt	n/a	whenever sponsors meant plain\n
171.6775	0.0455	343355	keystroke_w	w	n/a
171.7685	0.09	343537	keystroke_h	h	n/a
171.8735	0.1345	343747	keystroke_e	e	n/a
171.9935	0.104	343987	keystroke_n	n	n/a
172.3375	0.076	344675	keystroke_e	e	n/a
172.5635	0.0745	345127	keystroke_v	v	n/a
172.7285	0.0745	345457	keystroke_e	e	n/a
172.908	0.1055	345816	keystroke_r	r	n/a
172.983	0.1045	345966	keystroke_Key.space	Key.space	n/a
173.1325	0.1205	346265	keystroke_s	s	n/a
173.2385	0.105	346477	keystroke_p	p	n/a
173.4025	0.076	346805	keystroke_o	o	n/a
173.5685	0.104	347137	keystroke_n	n	n/a
173.6425	0.18	347285	keystroke_s	s	n/a
173.778	0.0895	347556	keystroke_o	o	n/a
173.9585	0.105	347917	keystroke_r	r	n/a
174.0925	0.165	348185	keystroke_s	s	n/a
174.2275	0.1055	348455	keystroke_Key.space	Key.space	n/a
174.4525	0.12	348905	keystroke_m	m	n/a
174.5575	0.166	349115	keystroke_e	e	n/a
174.678	0.1045	349356	keystroke_a	a	n/a
175.2175	0.105	350435	keystroke_n	n	n/a
175.3075	0.0905	350615	keystroke_t	t	n/a
175.818	0.105	351636	keystroke_Key.space	Key.space	n/a
176.208	0.075	352416	keystroke_p	p	n/a
176.388	0.075	352776	keystroke_l	l	n/a
176.464	0.119	352928	keystroke_a	a	n/a
176.538	0.075	353076	keystroke_i	i	n/a
176.658	0.075	353316	keystroke_n	n	n/a
176.838	0.12	353676	keystroke_Key.enter	Key.enter	n/a
176.9655	9.7145	353931	prompt	n/a	banana woman compile acne\n
177.633	0.075	355266	keystroke_b	b	n/a
177.723	0.105	355446	keystroke_a	a	n/a
177.813	0.06	355626	keystroke_n	n	n/a
177.9485	0.0895	355897	keystroke_n	n	n/a
178.038	0.15	356076	keystroke_a	a	n/a
178.8025	0.06	357605	keystroke_Key.backspace	Key.backspace	n/a
178.9225	0.09	357845	keystroke_Key.backspace	Key.backspace	n/a
179.0135	0.149	358027	keystroke_a	a	n/a
179.508	0.1045	359016	keystroke_n	n	n/a
179.583	0.165	359166	keystroke_a	a	n/a
179.733	0.135	359466	keystroke_Key.space	Key.space	n/a
179.8975	0.1205	359795	keystroke_w	w	n/a
180.003	0.0745	360006	keystroke_o	o	n/a
180.1675	0.075	360335	keystroke_m	m	n/a
180.2435	0.1495	360487	keystroke_a	a	n/a
180.3625	0.075	360725	keystroke_n	n	n/a
180.4825	0.105	360965	keystroke_Key.space	Key.space	n/a
180.9025	0.15	361805	keystroke_c	c	n/a
181.008	0.0905	362016	keystroke_o	o	n/a
181.2025	0.1055	362405	keystroke_m	m	n/a
181.623	0.06	363246	keystroke_p	p	n/a
181.803	0.18	363606	keystroke_l	l	n/a
181.938	0.105	363876	keystroke_i	i	n/a
182.343	0.165	364686	keystroke_e	e	n/a
182.478	0.1645	364956	keystroke_Key.space	Key.space	n/a
183.558	0.075	367116	keystroke_Key.backspace	Key.backspace	n/a
183.7085	0.0595	367417	keystroke_Key.backspace	Key.backspace	n/a
183.828	0.0595	367656	keystroke_Key.backspace	Key.backspace	n/a
183.9475	0.09	367895	keystroke_Key.backspace	Key.backspace	n/a
184.3385	0.089	368677	keystroke_i	i	n/a
184.533	0.0745	369066	keystroke_l	l	n/a
184.5775	0.106	369155	keystroke_e	e	n/a
184.8175	0.151	369635	keystroke_Key.space	Key.space	n/a
185.973	0.12	371946	keystroke_a	a	n/a
186.1375	0.0905	372275	keystroke_c	c	n/a
186.3175	0.1055	372635	keystroke_n	n	n/a
186.4675	0.0755	372935	keystroke_e	e	n/a
186.573	0.105	373146	keystroke_Key.enter	Key.enter	n/a
186.6935	8.176	373387	prompt	n/a	computational around standard bulgarian\n
187.3975	0.135	374795	keystroke_c	c	n/a
187.548	0.0745	375096	keystroke_o	o	n/a
187.8925	0.1055	375785	keystroke_m	m	n/a
188.118	0.09	376236	keystroke_p	p	n/a
188.328	0.105	376656	keystroke_u	u	n/a
188.598	0.105	377196	keystroke_t	t	n/a
188.958	0.15	377916	keystroke_a	a	n/a
189.093	0.12	378186	keystroke_t	t	n/a
189.183	0.09	378366	keystroke_i	i	n/a
189.333	0.09	378666	keystroke_o	o	n/a
189.498	0.105	378996	keystroke_n	n	n/a
189.618	0.105	379236	keystroke_a	a	n/a
189.708	0.09	379416	keystroke_l	l	n/a
189.828	0.105	379656	keystroke_Key.space	Key.space	n/a
189.993	0.1355	379986	keystroke_a	a	n/a
190.083	0.1055	380166	keystroke_r	r	n/a
190.173	0.075	380346	keystroke_o	o	n/a
190.353	0.045	380706	keystroke_u	u	n/a
190.503	0.0895	381006	keystroke_n	n	n/a
190.594	0.119	381188	keystroke_d	d	n/a
190.683	0.104	381366	keystroke_Key.space	Key.space	n/a
191.073	0.105	382146	keystroke_s	s	n/a
191.1635	0.0745	382327	keystroke_t	t	n/a
191.283	0.105	382566	keystroke_a	a	n/a
191.373	0.105	382746	keystroke_n	n	n/a
191.478	0.105	382956	keystroke_d	d	n/a
191.5985	0.1645	383197	keystroke_a	a	n/a
191.733	0.09	383466	keystroke_r	r	n/a
191.928	0.12	383856	keystroke_d	d	n/a
192.033	0.1495	384066	keystroke_Key.space	Key.space	n/a
192.378	0.09	384756	keystroke_b	b	n/a
192.603	0.0895	385206	keystroke_u	u	n/a
192.618	0.0595	385236	keystroke_i	i	n/a
193.2625	0.0905	386525	keystroke_Key.backspace	Key.backspace	n/a
193.488	0.09	386976	keystroke_l	l	n/a
193.803	0.12	387606	keystroke_g	g	n/a
194.013	0.105	388026	keystroke_a	a	n/a
194.208	0.105	388416	keystroke_r	r	n/a
194.298	0.105	388596	keystroke_i	i	n/a
194.433	0.12	388866	keystroke_a	a	n/a
194.538	0.075	389076	keystroke_n	n	n/a
194.7475	0.12	389495	keystroke_Key.enter	Key.enter	n/a
194.874	9.956	389748	prompt	n/a	navigator solving dome championship\n
195.6185	0.179	391237	keystroke_n	n	n/a
195.7825	0.03	391565	keystroke_a	a	n/a
195.8285	0.074	391657	keystroke_t	t	n/a
196.3825	0.0455	392765	keystroke_Key.backspace	Key.backspace	n/a
196.4285	0.0745	392857	keystroke_v	v	n/a
196.5625	0.0605	393125	keystroke_i	i	n/a
196.8775	0.09	393755	keystroke_g	g	n/a
197.553	0.12	395106	keystroke_a	a	n/a
198.213	0.09	396426	keystroke_t	t	n/a
198.288	0.12	396576	keystroke_o	o	n/a
198.513	0.09	397026	keystroke_r	r	n/a
198.753	0.105	397506	keystroke_Key.space	Key.space	n/a
198.903	0.12	397806	keystroke_s	s	n/a
198.993	0.09	397986	keystroke_o	o	n/a
199.1875	0.1355	398375	keystroke_l	l	n/a
199.323	0.105	398646	keystroke_v	v	n/a
199.5175	0.1505	399035	keystroke_i	i	n/a
199.623	0.1195	399246	keystroke_n	n	n/a
199.773	0.0745	399546	keystroke_g	g	n/a
199.983	0.12	399966	keystroke_Key.space	Key.space	n/a
200.1175	0.12	400235	keystroke_d	d	n/a
200.2375	0.1655	400475	keystroke_o	o	n/a
200.3275	0.1195	400655	keystroke_m	m	n/a
200.4625	0.1055	400925	keystroke_e	e	n/a
200.583	0.12	401166	keystroke_Key.space	Key.space	n/a
201.048	0.09	402096	keystroke_c	c	n/a
201.288	0.0745	402576	keystroke_h	h	n/a
201.9025	0.12	403805	keystroke_a	a	n/a
202.0675	0.121	404135	keystroke_m	m	n/a
202.2925	0.105	404585	keystroke_p	p	n/a
202.803	0.0745	405606	keystroke_i	i	n/a
202.9375	0.076	405875	keystroke_o	o	n/a
203.1025	0.105	406205	keystroke_n	n	n/a
203.193	0.105	406386	keystroke_s	s	n/a
203.3275	0.09	406655	keystroke_h	h	n/a
203.4925	0.0905	406985	keystroke_i	i	n/a
203.8225	0.075	407645	keystroke_o	o	n/a
204.363	0.045	408726	keystroke_Key.backspace	Key.backspace	n/a
204.558	0.045	409116	keystroke_p	p	n/a
204.723	0.104	409446	keystroke_Key.enter	Key.enter	n/a
204.835	5.0945	409670	prompt	n/a	perform oxford conf heating\n
205.533	0.105	411066	keystroke_p	p	n/a
205.593	0.075	411186	keystroke_e	e	n/a
205.728	0.074	411456	keystroke_r	r	n/a
205.923	0.074	411846	keystroke_f	f	n/a
206.073	0.12	412146	keystroke_o	o	n/a
206.222	0.091	412444	keystroke_r	r	n/a
206.387	0.1065	412774	keystroke_m	m	n/a
206.553	0.135	413106	keystroke_Key.space	Key.space	n/a
206.913	0.09	413826	keystroke_o	o	n/a
206.988	0.12	413976	keystroke_x	x	n/a
207.198	0.105	414396	keystroke_f	f	n/a
207.288	0.105	414576	keystroke_o	o	n/a
207.408	0.075	414816	keystroke_r	r	n/a
207.558	0.135	415116	keystroke_d	d	n/a
207.663	0.15	415326	keystroke_Key.space	Key.space	n/a
207.903	0.105	415806	keystroke_c	c	n/a
207.993	0.09	415986	keystroke_o	o	n/a
208.248	0.105	416496	keystroke_n	n	n/a
208.398	0.12	416796	keystroke_f	f	n/a
208.6225	0.105	417245	keystroke_Key.space	Key.space	n/a
208.8335	0.089	417667	keystroke_h	h	n/a
208.8775	0.12	417755	keystroke_e	e	n/a
208.9835	0.119	417967	keystroke_a	a	n/a
209.1185	0.105	418237	keystroke_t	t	n/a
209.177	0.1355	418354	keystroke_i	i	n/a
209.252	0.15	418504	keystroke_n	n	n/a
209.358	0.104	418716	keystroke_g	g	n/a
209.792	0.135	419584	keystroke_Key.enter	Key.enter	n/a
209.9335	9.881	419867	prompt	n/a	carey tanzania trucks arabic\n
210.768	0.104	421536	keystroke_c	c	n/a
210.9035	0.1635	421807	keystroke_a	a	n/a
211.052	0.076	422104	keystroke_r	r	n/a
211.233	0.0595	422466	keystroke_e	e	n/a
211.4875	0.075	422975	keystroke_y	y	n/a
211.6075	0.12	423215	keystroke_Key.space	Key.space	n/a
211.878	0.0905	423756	keystroke_g	g	n/a
212.0875	0.12	424175	keystroke_a	a	n/a
212.2525	0.091	424505	keystroke_n	n	n/a
212.673	0.135	425346	keystroke_a	a	n/a
213.858	0.0745	427716	keystroke_Key.backspace	Key.backspace	n/a
214.0075	0.06	428015	keystroke_Key.backspace	Key.backspace	n/a
214.1425	0.0605	428285	keystroke_Key.backspace	Key.backspace	n/a
214.2925	0.045	428585	keystroke_Key.backspace	Key.backspace	n/a
214.9375	0.0905	429875	keystroke_t	t	n/a
215.1175	0.135	430235	keystroke_a	a	n/a
215.223	0.105	430446	keystroke_n	n	n/a
215.538	0.1055	431076	keystroke_z	z	n/a
215.778	0.09	431556	keystroke_a	a	n/a
215.913	0.135	431826	keystroke_n	n	n/a
216.078	0.12	432156	keystroke_i	i	n/a
216.168	0.1055	432336	keystroke_a	a	n/a
216.333	0.12	432666	keystroke_Key.space	Key.space	n/a
216.543	0.045	433086	keystroke_t	t	n/a
216.6935	0.0895	433387	keystroke_r	r	n/a
216.783	0.105	433566	keystroke_u	u	n/a
217.113	0.12	434226	keystroke_c	c	n/a
217.188	0.1195	434376	keystroke_k	k	n/a
217.3375	0.151	434675	keystroke_s	s	n/a
217.4425	0.09	434885	keystroke_Key.space	Key.space	n/a
217.593	0.135	435186	keystroke_a	a	n/a
217.7125	0.106	435425	keystroke_r	r	n/a
217.9375	0.12	435875	keystroke_a	a	n/a
218.0425	0.105	436085	keystroke_b	b	n/a
218.313	0.12	436626	keystroke_c	c	n/a
218.388	0.135	436776	keystroke_i	i	n/a
219.0325	0.09	438065	keystroke_Key.backspace	Key.backspace	n/a
219.1825	0.0905	438365	keystroke_Key.backspace	Key.backspace	n/a
219.3935	0.105	438787	keystroke_i	i	n/a
219.4375	0.15	438875	keystroke_c	c	n/a
219.648	0.1345	439296	keystroke_Key.space	Key.space	n/a
219.6925	0.12	439385	keystroke_Key.enter	Key.enter	n/a
219.8195	5.9355	439639	prompt	n/a	cole supreme karma terminal\n
220.848	0.1055	441696	keystroke_c	c	n/a
220.938	0.075	441876	keystroke_o	o	n/a
221.1025	0.1205	442205	keystroke_l	l	n/a
221.178	0.1495	442356	keystroke_e	e	n/a
221.312	0.1205	442624	keystroke_Key.space	Key.space	n/a
221.507	0.106	443014	keystroke_s	s	n/a
221.613	0.1195	443226	keystroke_u	u	n/a
222.078	0.12	444156	keystroke_p	p	n/a
222.318	0.105	444636	keystroke_r	r	n/a
222.5575	0.105	445115	keystroke_e	e	n/a
222.7225	0.121	445445	keystroke_m	m	n/a
222.8125	0.12	445625	keystroke_e	e	n/a
222.9475	0.1205	445895	keystroke_Key.space	Key.space	n/a
223.1125	0.1055	446225	keystroke_k	k	n/a
223.2475	0.1205	446495	keystroke_a	a	n/a
223.353	0.12	446706	keystroke_r	r	n/a
223.623	0.1205	447246	keystroke_m	m	n/a
223.848	0.1955	447696	keystroke_a	a	n/a
224.058	0.135	448116	keystroke_Key.space	Key.space	n/a
224.208	0.09	448416	keystroke_t	t	n/a
224.403	0.06	448806	keystroke_e	e	n/a
224.538	0.1495	449076	keystroke_r	r	n/a
224.673	0.12	449346	keystroke_m	m	n/a
224.8825	0.061	449765	keystroke_i	i	n/a
225.0325	0.105	450065	keystroke_n	n	n/a
225.1075	0.15	450215	keystroke_a	a	n/a
225.228	0.105	450456	keystroke_l	l	n/a
225.738	0.015	451476	keystroke_Key.enter	Key.enter	n/a
225.7595	9.16	451519	prompt	n/a	toolkit documented filling expiration\n
226.6535	0.0745	453307	keystroke_t	t	n/a
226.878	0.045	453756	keystroke_o	o	n/a
227.028	0.06	454056	keystroke_o	o	n/a
227.2075	0.1055	454415	keystroke_l	l	n/a
227.448	0.0895	454896	keystroke_k	k	n/a
227.6125	0.12	455225	keystroke_i	i	n/a
227.718	0.1355	455436	keystroke_t	t	n/a
227.8375	0.12	455675	keystroke_Key.space	Key.space	n/a
228.123	0.1045	456246	keystroke_d	d	n/a
228.7825	0.1055	457565	keystroke_o	o	n/a
228.9175	0.1355	457835	keystroke_c	c	n/a
229.0375	0.1055	458075	keystroke_u	u	n/a
229.3525	0.1205	458705	keystroke_m	m	n/a
229.518	0.0905	459036	keystroke_e	e	n/a
229.6375	0.12	459275	keystroke_n	n	n/a
229.773	0.0895	459546	keystroke_t	t	n/a
229.9835	0.075	459967	keystroke_e	e	n/a
230.1785	0.0895	460357	keystroke_d	d	n/a
230.238	0.105	460476	keystroke_Key.space	Key.space	n/a
230.418	0.105	460836	keystroke_f	f	n/a
230.538	0.09	461076	keystroke_i	i	n/a
230.958	0.12	461916	keystroke_l	l	n/a
231.1835	0.105	462367	keystroke_l	l	n/a
231.3625	0.075	462725	keystroke_i	i	n/a
231.528	0.15	463056	keystroke_n	n	n/a
231.633	0.105	463266	keystroke_g	g	n/a
231.768	0.12	463536	keystroke_Key.space	Key.space	n/a
231.963	0.0905	463926	keystroke_e	e	n/a
232.158	0.105	464316	keystroke_x	x	n/a
232.2635	0.0895	464527	keystroke_p	p	n/a
233.2675	0.12	466535	keystroke_i	i	n/a
233.3425	0.105	466685	keystroke_r	r	n/a
233.6575	0.12	467315	keystroke_a	a	n/a
233.793	0.1355	467586	keystroke_t	t	n/a
233.8975	0.09	467795	keystroke_i	i	n/a
234.2875	0.075	468575	keystroke_o	o	n/a
234.4675	0.0755	468935	keystroke_n	n	n/a
234.798	0.1195	469596	keystroke_Key.enter	Key.enter	n/a
234.927	5.7535	469854	prompt	n/a	tags copy chip incentives\n
235.9835	0.104	471967	keystroke_t	t	n/a
236.1185	0.09	472237	keystroke_a	a	n/a
236.2685	0.089	472537	keystroke_g	g	n/a
236.5085	0.134	473017	keystroke_s	s	n/a
236.6275	0.105	473255	keystroke_Key.space	Key.space	n/a
236.8385	0.12	473677	keystroke_c	c	n/a
236.9875	0.0905	473975	keystroke_o	o	n/a
237.198	0.12	474396	keystroke_p	p	n/a
237.3325	0.075	474665	keystroke_y	y	n/a
237.4525	0.1205	474905	keystroke_Key.space	Key.space	n/a
237.798	0.1055	475596	keystroke_c	c	n/a
237.889	0.1035	475778	keystroke_h	h	n/a
237.9485	0.104	475897	keystroke_i	i	n/a
238.1875	0.091	476375	keystroke_p	p	n/a
238.3525	0.1205	476705	keystroke_Key.space	Key.space	n/a
238.6375	0.12	477275	keystroke_i	i	n/a
238.923	0.1045	477846	keystroke_n	n	n/a
239.073	0.1045	478146	keystroke_c	c	n/a
239.268	0.0895	478536	keystroke_e	e	n/a
239.3725	0.135	478745	keystroke_n	n	n/a
239.5385	0.149	479077	keystroke_t	t	n/a
239.7175	0.121	479435	keystroke_i	i	n/a
239.8675	0.105	479735	keystroke_v	v	n/a
240.1075	0.105	480215	keystroke_e	e	n/a
240.4375	0.015	480875	keystroke_s	s	n/a
240.5575	0.12	481115	keystroke_Key.enter	Key.enter	n/a
240.6845	8.26	481369	prompt	n/a	linking something's smallest discrete\n
241.6825	0.105	483365	keystroke_l	l	n/a
241.9385	0.105	483877	keystroke_i	i	n/a
242.193	0.1195	484386	keystroke_n	n	n/a
242.418	0.0895	484836	keystroke_k	k	n/a
242.583	0.1045	485166	keystroke_i	i	n/a
242.7625	0.12	485525	keystroke_n	n	n/a
242.8675	0.12	485735	keystroke_g	g	n/a
242.9725	0.12	485945	keystroke_Key.space	Key.space	n/a
243.2575	0.0455	486515	keystroke_c	c	n/a
243.573	0.06	487146	keystroke_Key.backspace	Key.backspace	n/a
243.618	0.105	487236	keystroke_s	s	n/a
243.768	0.045	487536	keystroke_o	o	n/a
243.903	0.0895	487806	keystroke_m	m	n/a
243.9785	0.074	487957	keystroke_e	e	n/a
244.1725	0.12	488345	keystroke_t	t	n/a
244.2325	0.12	488465	keystroke_h	h	n/a
244.323	0.105	488646	keystroke_i	i	n/a
244.503	0.1345	489006	keystroke_n	n	n/a
245.1775	0.121	490355	keystroke_g	g	n/a
245.523	0.1055	491046	keystroke_'	'	n/a
245.6725	0.1205	491345	keystroke_s	s	n/a
245.853	0.1345	491706	keystroke_Key.space	Key.space	n/a
246.1375	0.12	492275	keystroke_s	s	n/a
246.243	0.1355	492486	keystroke_m	m	n/a
246.3625	0.105	492725	keystroke_a	a	n/a
246.453	0.0445	492906	keystroke_l	l	n/a
246.573	0.1345	493146	keystroke_l	l	n/a
246.6325	0.106	493265	keystroke_e	e	n/a
246.858	0.135	493716	keystroke_s	s	n/a
246.978	0.1345	493956	keystroke_t	t	n/a
247.1275	0.105	494255	keystroke_Key.space	Key.space	n/a
247.4125	0.0905	494825	keystroke_d	d	n/a
247.5625	0.106	495125	keystroke_i	i	n/a
247.683	0.12	495366	keystroke_s	s	n/a
248.0125	0.105	496025	keystroke_c	c	n/a
248.238	0.0755	496476	keystroke_r	r	n/a
248.403	0.0895	496806	keystroke_e	e	n/a
248.5985	0.059	497197	keystroke_t	t	n/a
248.748	0.0895	497496	keystroke_e	e	n/a
248.823	0.12	497646	keystroke_Key.enter	Key.enter	n/a
248.948	5.5765	497896	prompt	n/a	started troy retirement dishes\n
249.4835	0.149	498967	keystroke_s	s	n/a
249.6335	0.089	499267	keystroke_t	t	n/a
249.7535	0.1645	499507	keystroke_a	a	n/a
249.828	0.0905	499656	keystroke_r	r	n/a
249.978	0.0895	499956	keystroke_t	t	n/a
250.173	0.0745	500346	keystroke_e	e	n/a
250.3075	0.105	500615	keystroke_Key.space	Key.space	n/a
250.4275	0.136	500855	keystroke_d	d	n/a
250.7425	0.015	501485	keystroke_Key.backspace	Key.backspace	n/a
250.8325	0.105	501665	keystroke_Key.backspace	Key.backspace	n/a
250.9385	0.089	501877	keystroke_d	d	n/a
250.9825	0.105	501965	keystroke_Key.space	Key.space	n/a
251.1475	0.1055	502295	keystroke_t	t	n/a
251.358	0.0905	502716	keystroke_r	r	n/a
251.463	0.09	502926	keystroke_o	o	n/a
251.642	0.091	503284	keystroke_y	y	n/a
251.7775	0.0905	503555	keystroke_Key.space	Key.space	n/a
251.9875	0.075	503975	keystroke_r	r	n/a
252.1525	0.105	504305	keystroke_e	e	n/a
252.363	0.105	504726	keystroke_t	t	n/a
252.4375	0.12	504875	keystroke_i	i	n/a
252.573	0.0595	505146	keystroke_r	r	n/a
252.7075	0.06	505415	keystroke_e	e	n/a
252.7825	0.075	505565	keystroke_m	m	n/a
252.8725	0.1055	505745	keystroke_e	e	n/a
252.9785	0.104	505957	keystroke_n	n	n/a
253.068	0.1195	506136	keystroke_t	t	n/a
253.1725	0.1055	506345	keystroke_Key.space	Key.space	n/a
253.308	0.105	506616	keystroke_d	d	n/a
253.428	0.105	506856	keystroke_i	i	n/a
253.758	0.12	507516	keystroke_s	s	n/a
253.863	0.09	507726	keystroke_h	h	n/a
253.938	0.12	507876	keystroke_e	e	n/a
254.103	0.15	508206	keystroke_s	s	n/a
254.403	0.12	508806	keystroke_Key.enter	Key.enter	n/a
254.5285	10.3625	509057	prompt	n/a	photography tongue individual enabling\n
255.4675	0.09	510935	keystroke_p	p	n/a
255.6625	0.0905	511325	keystroke_h	h	n/a
255.8725	0.12	511745	keystroke_o	o	n/a
255.9625	0.105	511925	keystroke_t	t	n/a
256.1125	0.105	512225	keystroke_o	o	n/a
256.3825	0.075	512765	keystroke_g	g	n/a
256.5475	0.09	513095	keystroke_r	r	n/a
256.6675	0.12	513335	keystroke_a	a	n/a
256.7575	0.09	513515	keystroke_p	p	n/a
256.9225	0.1055	513845	keystroke_h	h	n/a
257.3575	0.105	514715	keystroke_y	y	n/a
257.5225	0.1205	515045	keystroke_Key.space	Key.space	n/a
257.8225	0.075	515645	keystroke_t	t	n/a
257.8825	0.09	515765	keystroke_o	o	n/a
258.123	0.12	516246	keystroke_n	n	n/a
258.468	0.06	516936	keystroke_g	g	n/a
258.543	0.105	517086	keystroke_u	u	n/a
258.783	0.09	517566	keystroke_e	e	n/a
259.173	0.105	518346	keystroke_Key.space	Key.space	n/a
259.488	0.06	518976	keystroke_i	i	n/a
259.668	0.09	519336	keystroke_n	n	n/a
259.983	0.09	519966	keystroke_d	d	n/a
260.088	0.12	520176	keystroke_i	i	n/a
260.253	0.105	520506	keystroke_c	c	n/a
260.373	0.105	520746	keystroke_i	i	n/a
260.898	0.06	521796	keystroke_Key.backspace	Key.backspace	n/a
261.018	0.045	522036	keystroke_Key.backspace	Key.backspace	n/a
261.033	0.076	522066	keystroke_v	v	n/a
261.1975	0.0605	522395	keystroke_o	o	n/a
261.213	0.03	522426	keystroke_i	i	n/a
261.289	0.104	522578	keystroke_d	d	n/a
261.378	0.09	522756	keystroke_u	u	n/a
261.7075	0.045	523415	keystroke_Key.backspace	Key.backspace	n/a
261.8125	0.045	523625	keystroke_Key.backspace	Key.backspace	n/a
261.9175	0.075	523835	keystroke_Key.backspace	Key.backspace	n/a
262.2325	0.06	524465	keystroke_Key.backspace	Key.backspace	n/a
262.4275	0.075	524855	keystroke_i	i	n/a
262.6375	0.121	525275	keystroke_d	d	n/a
262.6825	0.105	525365	keystroke_u	u	n/a
262.8335	0.119	525667	keystroke_a	a	n/a
262.923	0.1195	525846	keystroke_l	l	n/a
263.1325	0.135	526265	keystroke_Key.space	Key.space	n/a
263.4025	0.09	526805	keystroke_e	e	n/a
263.4775	0.105	526955	keystroke_n	n	n/a
263.5975	0.135	527195	keystroke_a	a	n/a
263.703	0.0595	527406	keystroke_b	b	n/a
263.8825	0.135	527765	keystroke_l	l	n/a
264.1085	0.134	528217	keystroke_i	i	n/a
264.1975	0.105	528395	keystroke_n	n	n/a
264.288	0.0745	528576	keystroke_g	g	n/a
264.7525	0.135	529505	keystroke_Key.enter	Key.enter	n/a
264.9005	5.719	529801	prompt	n/a	urgent rising dispatch pumps\n
265.7425	0.105	531485	keystroke_u	u	n/a
265.8635	0.059	531727	keystroke_r	r	n/a
266.0425	0.075	532085	keystroke_g	g	n/a
266.2385	0.059	532477	keystroke_e	e	n/a
266.3125	0.121	532625	keystroke_n	n	n/a
266.4475	0.105	532895	keystroke_t	t	n/a
266.5675	0.1055	533135	keystroke_Key.space	Key.space	n/a
266.943	0.12	533886	keystroke_r	r	n/a
267.048	0.1195	534096	keystroke_i	i	n/a
267.1525	0.105	534305	keystroke_s	s	n/a
267.2725	0.105	534545	keystroke_i	i	n/a
267.3335	0.134	534667	keystroke_n	n	n/a
267.4525	0.0905	534905	keystroke_g	g	n/a
267.5275	0.12	535055	keystroke_Key.space	Key.space	n/a
267.933	0.105	535866	keystroke_d	d	n/a
268.053	0.1195	536106	keystroke_i	i	n/a
268.128	0.119	536256	keystroke_s	s	n/a
268.322	0.136	536644	keystroke_p	p	n/a
268.413	0.089	536826	keystroke_a	a	n/a
268.6225	0.0605	537245	keystroke_t	t	n/a
268.817	0.105	537634	keystroke_c	c	n/a
268.892	0.0915	537784	keystroke_h	h	n/a
269.0125	0.105	538025	keystroke_Key.space	Key.space	n/a
269.4925	0.136	538985	keystroke_p	p	n/a
269.7625	0.09	539525	keystroke_u	u	n/a
269.973	0.1045	539946	keystroke_m	m	n/a
270.1375	0.135	540275	keystroke_p	p	n/a
270.2275	0.1205	540455	keystroke_s	s	n/a
270.5125	0.105	541025	keystroke_Key.enter	Key.enter	n/a
270.6255	10.134	541251	prompt	n/a	objects physiology thickness durable\n
271.5325	0.105	543065	keystroke_o	o	n/a
272.2375	0.09	544475	keystroke_b	b	n/a
272.4475	0.1055	544895	keystroke_j	j	n/a
272.567	0.061	545134	keystroke_e	e	n/a
273.092	0.106	546184	keystroke_c	c	n/a
273.7835	0.1045	547567	keystroke_t	t	n/a
273.978	0.135	547956	keystroke_s	s	n/a
274.053	0.15	548106	keystroke_Key.space	Key.space	n/a
274.518	0.09	549036	keystroke_p	p	n/a
274.713	0.104	549426	keystroke_h	h	n/a
275.3285	0.0745	550657	keystroke_y	y	n/a
275.5975	0.1055	551195	keystroke_s	s	n/a
275.7175	0.1205	551435	keystroke_i	i	n/a
275.9585	0.12	551917	keystroke_o	o	n/a
276.183	0.134	552366	keystroke_l	l	n/a
276.287	0.136	552574	keystroke_o	o	n/a
276.363	0.075	552726	keystroke_g	g	n/a
276.5725	0.1055	553145	keystroke_y	y	n/a
276.7225	0.09	553445	keystroke_Key.space	Key.space	n/a
276.9925	0.1355	553985	keystroke_t	t	n/a
277.142	0.091	554284	keystroke_h	h	n/a
277.3535	0.089	554707	keystroke_i	i	n/a
277.5035	0.104	555007	keystroke_c	c	n/a
277.6225	0.09	555245	keystroke_k	k	n/a
278.0285	0.105	556057	keystroke_n	n	n/a
278.1475	0.135	556295	keystroke_e	e	n/a
278.6575	0.075	557315	keystroke_s	s	n/a
278.8225	0.1195	557645	keystroke_s	s	n/a
279.1675	0.105	558335	keystroke_Key.space	Key.space	n/a
279.3035	0.134	558607	keystroke_d	d	n/a
279.4385	0.134	558877	keystroke_u	u	n/a
279.5585	0.075	559117	keystroke_r	r	n/a
279.6625	0.12	559325	keystroke_a	a	n/a
279.7675	0.09	559535	keystroke_b	b	n/a
279.9785	0.119	559957	keystroke_l	l	n/a
280.1285	0.089	560257	keystroke_e	e	n/a
280.6375	0.12	561275	keystroke_Key.enter	Key.enter	n/a
280.765	5.8155	561530	prompt	n/a	easy listed congo essentially\n
281.4175	0.12	562835	keystroke_e	e	n/a
281.5675	0.136	563135	keystroke_a	a	n/a
281.6575	0.105	563315	keystroke_s	s	n/a
281.8975	0.105	563795	keystroke_y	y	n/a
282.0325	0.105	564065	keystroke_Key.space	Key.space	n/a
282.1525	0.195	564305	keystroke_l	l	n/a
282.3025	0.12	564605	keystroke_i	i	n/a
282.363	0.1345	564726	keystroke_s	s	n/a
282.4835	0.104	564967	keystroke_t	t	n/a
282.6925	0.045	565385	keystroke_e	e	n/a
282.8575	0.135	565715	keystroke_d	d	n/a
282.9475	0.12	565895	keystroke_Key.space	Key.space	n/a
283.2175	0.105	566435	keystroke_c	c	n/a
283.2785	0.089	566557	keystroke_o	o	n/a
283.4725	0.12	566945	keystroke_n	n	n/a
283.593	0.1045	567186	keystroke_g	g	n/a
283.683	0.104	567366	keystroke_o	o	n/a
283.907	0.121	567814	keystroke_Key.space	Key.space	n/a
284.2225	0.1055	568445	keystroke_e	e	n/a
284.4335	0.074	568867	keystroke_s	s	n/a
284.5525	0.106	569105	keystroke_s	s	n/a
284.6275	0.15	569255	keystroke_e	e	n/a
284.7625	0.135	569525	keystroke_n	n	n/a
284.9425	0.105	569885	keystroke_t	t	n/a
285.063	0.1195	570126	keystroke_i	i	n/a
285.1975	0.105	570395	keystroke_a	a	n/a
285.3175	0.045	570635	keystroke_l	l	n/a
285.437	0.1215	570874	keystroke_l	l	n/a
285.528	0.075	571056	keystroke_y	y	n/a
286.472	0.106	572944	keystroke_Key.enter	Key.enter	n/a
286.586	6.2485	573172	prompt	n/a	enclosure resort speeches doctor\n
287.283	0.089	574566	keystroke_e	e	n/a
287.388	0.1045	574776	keystroke_n	n	n/a
287.538	0.15	575076	keystroke_c	c	n/a
287.6725	0.1055	575345	keystroke_l	l	n/a
287.837	0.091	575674	keystroke_o	o	n/a
288.1225	0.135	576245	keystroke_s	s	n/a
288.2125	0.121	576425	keystroke_u	u	n/a
288.3175	0.075	576635	keystroke_r	r	n/a
288.4825	0.121	576965	keystroke_e	e	n/a
288.5725	0.12	577145	keystroke_Key.space	Key.space	n/a
288.7835	0.075	577567	keystroke_r	r	n/a
288.9625	0.0905	577925	keystroke_e	e	n/a
289.263	0.104	578526	keystroke_s	s	n/a
289.338	0.12	578676	keystroke_o	o	n/a
289.4725	0.0905	578945	keystroke_r	r	n/a
289.6825	0.12	579365	keystroke_t	t	n/a
289.8175	0.09	579635	keystroke_Key.space	Key.space	n/a
290.163	0.12	580326	keystroke_s	s	n/a
290.4175	0.105	580835	keystroke_p	p	n/a
290.9125	0.0605	581825	keystroke_e	e	n/a
291.0175	0.105	582035	keystroke_e	e	n/a
291.258	0.105	582516	keystroke_c	c	n/a
291.363	0.09	582726	keystroke_h	h	n/a
291.497	0.106	582994	keystroke_e	e	n/a
291.633	0.15	583266	keystroke_s	s	n/a
291.767	0.121	583534	keystroke_Key.space	Key.space	n/a
291.963	0.0895	583926	keystroke_d	d	n/a
292.0535	0.119	584107	keystroke_o	o	n/a
292.1875	0.075	584375	keystroke_c	c	n/a
292.3825	0.075	584765	keystroke_t	t	n/a
292.4725	0.12	584945	keystroke_o	o	n/a
292.5775	0.12	585155	keystroke_r	r	n/a
292.7125	0.12	585425	keystroke_Key.enter	Key.enter	n/a
292.8405	9.4735	585681	prompt	n/a	mistakes zimbabwe paste concerts\n
293.718	0.075	587436	keystroke_m	m	n/a
293.898	0.12	587796	keystroke_i	i	n/a
293.943	0.15	587886	keystroke_s	s	n/a
294.078	0.12	588156	keystroke_t	t	n/a
294.213	0.12	588426	keystroke_a	a	n/a
294.303	0.12	588606	keystroke_k	k	n/a
294.408	0.12	588816	keystroke_e	e	n/a
294.543	0.12	589086	keystroke_s	s	n/a
294.633	0.12	589266	keystroke_Key.space	Key.space	n/a
295.338	0.105	590676	keystroke_z	z	n/a
295.608	0.075	591216	keystroke_i	i	n/a
295.803	0.09	591606	keystroke_m	m	n/a
296.192	0.121	592384	keystroke_b	b	n/a
296.328	0.1495	592656	keystroke_a	a	n/a
297.917	0.12	595834	keystroke_b	b	n/a
298.052	0.12	596104	keystroke_w	w	n/a
298.1585	0.1495	596317	keystroke_e	e	n/a
298.6375	0.1045	597275	keystroke_Key.space	Key.space	n/a
298.787	0.121	597574	keystroke_p	p	n/a
298.877	0.135	597754	keystroke_a	a	n/a
298.967	0.1665	597934	keystroke_s	s	n/a
299.117	0.061	598234	keystroke_t	t	n/a
299.2975	0.1195	598595	keystroke_e	e	n/a
299.582	0.135	599164	keystroke_Key.space	Key.space	n/a
299.792	0.105	599584	keystroke_c	c	n/a
299.883	0.089	599766	keystroke_o	o	n/a
300.092	0.1055	600184	keystroke_n	n	n/a
300.1835	0.0585	600367	keystroke_c	c	n/a
300.362	0.09	600724	keystroke_e	e	n/a
300.558	0.09	601116	keystroke_r	r	n/a
300.752	0.06	601504	keystroke_t	t	n/a
300.8725	0.1195	601745	keystroke_s	s	n/a
302.208	0.104	604416	keystroke_Key.enter	Key.enter	n/a
302.321	5.468	604642	prompt	n/a	woman arrangement version ranging\n
302.988	0.104	605976	keystroke_w	w	n/a
303.108	0.045	606216	keystroke_o	o	n/a
303.273	0.075	606546	keystroke_m	m	n/a
303.362	0.121	606724	keystroke_a	a	n/a
303.453	0.119	606906	keystroke_n	n	n/a
303.557	0.1055	607114	keystroke_Key.space	Key.space	n/a
303.7075	0.135	607415	keystroke_a	a	n/a
303.8275	0.0905	607655	keystroke_r	r	n/a
303.9925	0.105	607985	keystroke_r	r	n/a
304.0825	0.15	608165	keystroke_a	a	n/a
304.1875	0.105	608375	keystroke_n	n	n/a
304.3225	0.075	608645	keystroke_g	g	n/a
304.5325	0.06	609065	keystroke_e	e	n/a
304.6075	0.0755	609215	keystroke_m	m	n/a
304.698	0.0745	609396	keystroke_e	e	n/a
304.8025	0.1055	609605	keystroke_n	n	n/a
304.8925	0.1045	609785	keystroke_t	t	n/a
305.012	0.105	610024	keystroke_Key.space	Key.space	n/a
305.387	0.091	610774	keystroke_v	v	n/a
305.597	0.061	611194	keystroke_e	e	n/a
305.748	0.0745	611496	keystroke_r	r	n/a
305.883	0.105	611766	keystroke_s	s	n/a
305.958	0.075	611916	keystroke_i	i	n/a
306.123	0.09	612246	keystroke_o	o	n/a
306.288	0.121	612576	keystroke_n	n	n/a
306.409	0.074	612818	keystroke_Key.space	Key.space	n/a
306.497	0.09	612994	keystroke_r	r	n/a
306.617	0.136	613234	keystroke_a	a	n/a
306.692	0.106	613384	keystroke_n	n	n/a
306.842	0.121	613684	keystroke_g	g	n/a
306.978	0.1345	613956	keystroke_i	i	n/a
307.053	0.134	614106	keystroke_n	n	n/a
307.173	0.089	614346	keystroke_g	g	n/a
307.6975	0.0895	615395	keystroke_Key.enter	Key.enter	n/a
307.796	12.818	615592	prompt	n/a	strategic like always thousand\n
308.463	0.1345	616926	keystroke_s	s	n/a
308.6875	0.075	617375	keystroke_t	t	n/a
308.9725	0.105	617945	keystroke_r	r	n/a
309.603	0.135	619206	keystroke_a	a	n/a
310.608	0.089	621216	keystroke_t	t	n/a
310.788	0.09	621576	keystroke_e	e	n/a
313.399	0.014	626798	keystroke_g	g	n/a
313.4	0.117	626800	keystroke_i	i	n/a
313.548	0.119	627096	keystroke_c	c	n/a
313.697	0.12	627394	keystroke_Key.space	Key.space	n/a
317.7045	0.029	635409	keystroke_l	l	n/a
317.8085	0.059	635617	keystroke_i	i	n/a
317.9735	0.089	635947	keystroke_k	k	n/a
318.0335	0.164	636067	keystroke_e	e	n/a
318.1675	0.12	636335	keystroke_Key.space	Key.space	n/a
318.5725	0.135	637145	keystroke_a	a	n/a
318.678	0.1045	637356	keystroke_l	l	n/a
318.8275	0.076	637655	keystroke_w	w	n/a
318.9175	0.105	637835	keystroke_a	a	n/a
319.1125	0.09	638225	keystroke_y	y	n/a
319.277	0.1355	638554	keystroke_s	s	n/a
319.3975	0.105	638795	keystroke_Key.space	Key.space	n/a
319.5175	0.12	639035	keystroke_t	t	n/a
319.6225	0.06	639245	keystroke_h	h	n/a
319.7725	0.045	639545	keystroke_o	o	n/a
319.9085	0.089	639817	keystroke_u	u	n/a
319.9525	0.12	639905	keystroke_s	s	n/a
320.0425	0.12	640085	keystroke_a	a	n/a
320.1475	0.105	640295	keystroke_n	n	n/a
320.2825	0.09	640565	keystroke_d	d	n/a
320.4925	0.12	640985	keystroke_Key.enter	Key.enter	n/a
320.627	8.0735	641254	prompt	n/a	required pollution formula harry\n
321.2875	0.075	642575	keystroke_r	r	n/a
321.4675	0.09	642935	keystroke_e	e	n/a
321.6325	0.1345	643265	keystroke_q	q	n/a
321.753	0.12	643506	keystroke_u	u	n/a
321.978	0.075	643956	keystroke_i	i	n/a
322.3975	0.1055	644795	keystroke_r	r	n/a
322.5785	0.0745	645157	keystroke_e	e	n/a
322.758	0.134	645516	keystroke_d	d	n/a
322.862	0.12	645724	keystroke_Key.space	Key.space	n/a
323.087	0.121	646174	keystroke_p	p	n/a
324.2275	0.045	648455	keystroke_o	o	n/a
324.4825	0.075	648965	keystroke_l	l	n/a
324.618	0.1195	649236	keystroke_l	l	n/a
324.8725	0.1205	649745	keystroke_u	u	n/a
325.0375	0.135	650075	keystroke_t	t	n/a
325.1585	0.104	650317	keystroke_i	i	n/a
325.3525	0.06	650705	keystroke_o	o	n/a
325.518	0.1045	651036	keystroke_n	n	n/a
325.6675	0.12	651335	keystroke_Key.space	Key.space	n/a
325.8775	0.12	651755	keystroke_f	f	n/a
326.012	0.105	652024	keystroke_o	o	n/a
326.118	0.09	652236	keystroke_r	r	n/a
326.462	0.092	652924	keystroke_m	m	n/a
326.703	0.089	653406	keystroke_u	u	n/a
326.9125	0.09	653825	keystroke_l	l	n/a
327.0175	0.15	654035	keystroke_a	a	n/a
327.2125	0.12	654425	keystroke_Key.space	Key.space	n/a
327.693	0.0445	655386	keystroke_h	h	n/a
327.7525	0.075	655505	keystroke_a	a	n/a
327.9475	0.06	655895	keystroke_r	r	n/a
328.0675	0.075	656135	keystroke_r	r	n/a
328.337	0.1215	656674	keystroke_y	y	n/a
328.5775	0.12	657155	keystroke_Key.enter	Key.enter	n/a
328.707	7.2385	657414	prompt	n/a	market posters delight describes\n
329.492	0.136	658984	keystroke_m	m	n/a
329.597	0.12	659194	keystroke_a	a	n/a
329.687	0.105	659374	keystroke_r	r	n/a
329.778	0.119	659556	keystroke_k	k	n/a
329.898	0.075	659796	keystroke_e	e	n/a
330.078	0.105	660156	keystroke_t	t	n/a
330.2125	0.1345	660425	keystroke_Key.space	Key.space	n/a
330.798	0.044	661596	keystroke_p	p	n/a
330.828	0.105	661656	keystroke_o	o	n/a
330.888	0.12	661776	keystroke_s	s	n/a
331.022	0.105	662044	keystroke_t	t	n/a
331.2325	0.075	662465	keystroke_e	e	n/a
331.3825	0.09	662765	keystroke_r	r	n/a
331.5025	0.105	663005	keystroke_s	s	n/a
331.6825	0.135	663365	keystroke_Key.space	Key.space	n/a
332.2525	0.03	664505	keystroke_d	d	n/a
332.3725	0.076	664745	keystroke_e	e	n/a
332.4625	0.15	664925	keystroke_l	l	n/a
332.5675	0.12	665135	keystroke_i	i	n/a
332.7025	0.09	665405	keystroke_g	g	n/a
332.8075	0.12	665615	keystroke_h	h	n/a
332.9125	0.09	665825	keystroke_t	t	n/a
333.0925	0.105	666185	keystroke_Key.space	Key.space	n/a
333.4975	0.09	666995	keystroke_d	d	n/a
333.6775	0.0755	667355	keystroke_e	e	n/a
333.933	0.1045	667866	keystroke_s	s	n/a
334.4725	0.09	668945	keystroke_c	c	n/a
334.6825	0.105	669365	keystroke_r	r	n/a
335.267	0.075	670534	keystroke_i	i	n/a
335.433	0.104	670866	keystroke_b	b	n/a
335.523	0.089	671046	keystroke_e	e	n/a
335.658	0.12	671316	keystroke_s	s	n/a
335.822	0.12	671644	keystroke_Key.enter	Key.enter	n/a
335.951	7.5835	671902	prompt	n/a	raised committed segments defensive\n
336.6175	0.105	673235	keystroke_r	r	n/a
337.0375	0.135	674075	keystroke_a	a	n/a
337.1875	0.105	674375	keystroke_i	i	n/a
337.3075	0.135	674615	keystroke_s	s	n/a
337.3825	0.12	674765	keystroke_e	e	n/a
337.5775	0.09	675155	keystroke_d	d	n/a
337.6525	0.15	675305	keystroke_Key.space	Key.space	n/a
337.9825	0.105	675965	keystroke_c	c	n/a
338.0875	0.0745	676175	keystroke_o	o	n/a
338.2825	0.03	676565	keystroke_m	m	n/a
338.4175	0.12	676835	keystroke_m	m	n/a
338.7625	0.0905	677525	keystroke_i	i	n/a
338.8375	0.0905	677675	keystroke_t	t	n/a
339.558	0.09	679116	keystroke_t	t	n/a
339.767	0.045	679534	keystroke_e	e	n/a
339.9325	0.075	679865	keystroke_d	d	n/a
339.9925	0.135	679985	keystroke_Key.space	Key.space	n/a
340.443	0.1345	680886	keystroke_s	s	n/a
340.5475	0.1205	681095	keystroke_e	e	n/a
340.818	0.1045	681636	keystroke_g	g	n/a
340.9825	0.1055	681965	keystroke_m	m	n/a
341.103	0.1045	682206	keystroke_e	e	n/a
341.2075	0.105	682415	keystroke_n	n	n/a
341.2975	0.06	682595	keystroke_t	t	n/a
341.418	0.1495	682836	keystroke_s	s	n/a
341.5525	0.12	683105	keystroke_Key.space	Key.space	n/a
341.6875	0.06	683375	keystroke_d	d	n/a
341.823	0.089	683646	keystroke_e	e	n/a
341.942	0.12	683884	keystroke_n	n	n/a
342.4225	0.075	684845	keystroke_Key.backspace	Key.backspace	n/a
342.467	0.09	684934	keystroke_f	f	n/a
342.662	0.075	685324	keystroke_e	e	n/a
342.7225	0.1345	685445	keystroke_n	n	n/a
342.917	0.1055	685834	keystroke_s	s	n/a
343.037	0.121	686074	keystroke_i	i	n/a
343.142	0.076	686284	keystroke_v	v	n/a
343.3075	0.1205	686615	keystroke_e	e	n/a
343.412	0.1205	686824	keystroke_Key.enter	Key.enter	n/a
343.5415	9.0225	687083	prompt	n/a	opening viewing forwarding affordable\n
344.178	0.075	688356	keystroke_o	o	n/a
344.3275	0.1045	688655	keystroke_p	p	n/a
344.387	0.1205	688774	keystroke_e	e	n/a
344.5075	0.1045	689015	keystroke_n	n	n/a
344.628	0.12	689256	keystroke_i	i	n/a
344.717	0.12	689434	keystroke_n	n	n/a
344.762	0.105	689524	keystroke_g	g	n/a
344.8225	0.1345	689645	keystroke_Key.space	Key.space	n/a
344.987	0.105	689974	keystroke_v	v	n/a
345.107	0.121	690214	keystroke_i	i	n/a
345.212	0.1205	690424	keystroke_e	e	n/a
345.4225	0.09	690845	keystroke_w	w	n/a
345.5275	0.135	691055	keystroke_i	i	n/a
345.6175	0.105	691235	keystroke_n	n	n/a
345.7075	0.105	691415	keystroke_g	g	n/a
345.7975	0.105	691595	keystroke_Key.space	Key.space	n/a
345.9775	0.105	691955	keystroke_o	o	n/a
346.0675	0.0755	692135	keystroke_f	f	n/a
346.472	0.045	692944	keystroke_Key.backspace	Key.backspace	n/a
346.5925	0.0445	693185	keystroke_Key.backspace	Key.backspace	n/a
346.607	0.105	693214	keystroke_f	f	n/a
346.7575	0.1045	693515	keystroke_o	o	n/a
346.848	0.164	693696	keystroke_r	r	n/a
346.998	0.104	693996	keystroke_w	w	n/a
347.1475	0.1055	694295	keystroke_a	a	n/a
347.223	0.075	694446	keystroke_r	r	n/a
347.387	0.106	694774	keystroke_d	d	n/a
347.448	0.119	694896	keystroke_i	i	n/a
347.523	0.119	695046	keystroke_n	n	n/a
347.598	0.12	695196	keystroke_g	g	n/a
347.673	0.134	695346	keystroke_Key.space	Key.space	n/a
348.213	0.09	696426	keystroke_a	a	n/a
348.318	0.075	696636	keystroke_f	f	n/a
348.482	0.091	696964	keystroke_f	f	n/a
348.557	0.105	697114	keystroke_o	o	n/a
348.678	0.075	697356	keystroke_r	r	n/a
348.7825	0.1055	697565	keystroke_a	a	n/a
350.4475	0.1045	700895	keystroke_Key.backspace	Key.backspace	n/a
350.612	0.0455	701224	keystroke_Key.backspace	Key.backspace	n/a
351.048	0.075	702096	keystroke_a	a	n/a
351.287	0.09	702574	keystroke_Key.backspace	Key.backspace	n/a
351.332	0.105	702664	keystroke_r	r	n/a
351.512	0.1055	703024	keystroke_d	d	n/a
351.707	0.09	703414	keystroke_a	a	n/a
351.812	0.09	703624	keystroke_b	b	n/a
351.947	0.121	703894	keystroke_l	l	n/a
352.023	0.105	704046	keystroke_e	e	n/a
352.472	0.09	704944	keystroke_Key.enter	Key.enter	n/a
352.57	8.769	705140	prompt	n/a	assessments disclaimer wiring footwear\n
353.3125	0.1195	706625	keystroke_a	a	n/a
353.4625	0.0895	706925	keystroke_s	s	n/a
353.6875	0.1205	707375	keystroke_s	s	n/a
353.852	0.121	707704	keystroke_e	e	n/a
353.987	0.106	707974	keystroke_s	s	n/a
354.1975	0.1205	708395	keystroke_s	s	n/a
354.3625	0.09	708725	keystroke_m	m	n/a
354.4375	0.075	708875	keystroke_e	e	n/a
354.5575	0.105	709115	keystroke_n	n	n/a
354.6475	0.06	709295	keystroke_t	t	n/a
354.7675	0.15	709535	keystroke_s	s	n/a
354.9175	0.09	709835	keystroke_Key.space	Key.space	n/a
355.0075	0.165	710015	keystroke_d	d	n/a
355.1575	0.105	710315	keystroke_i	i	n/a
355.2775	0.12	710555	keystroke_s	s	n/a
355.5925	0.0905	711185	keystroke_c	c	n/a
355.7275	0.135	711455	keystroke_l	l	n/a
355.8625	0.09	711725	keystroke_a	a	n/a
355.9675	0.105	711935	keystroke_m	m	n/a
356.133	0.1045	712266	keystroke_i	i	n/a
356.2075	0.105	712415	keystroke_e	e	n/a
356.4025	0.12	712805	keystroke_r	r	n/a
356.4925	0.15	712985	keystroke_Key.space	Key.space	n/a
356.973	0.0745	713946	keystroke_Key.backspace	Key.backspace	n/a
357.0925	0.045	714185	keystroke_Key.backspace	Key.backspace	n/a
357.1975	0.06	714395	keystroke_Key.backspace	Key.backspace	n/a
357.3165	0.045	714633	keystroke_Key.backspace	Key.backspace	n/a
357.4225	0.09	714845	keystroke_Key.backspace	Key.backspace	n/a
357.9165	0.076	715833	keystroke_i	i	n/a
358.1125	0.1205	716225	keystroke_m	m	n/a
358.1725	0.0745	716345	keystroke_e	e	n/a
358.337	0.121	716674	keystroke_r	r	n/a
358.3975	0.12	716795	keystroke_Key.space	Key.space	n/a
358.6975	0.09	717395	keystroke_w	w	n/a
359.0275	0.135	718055	keystroke_i	i	n/a
359.1775	0.12	718355	keystroke_r	r	n/a
359.3125	0.12	718625	keystroke_i	i	n/a
359.3725	0.135	718745	keystroke_n	n	n/a
359.7025	0.135	719405	keystroke_g	g	n/a
359.8525	0.12	719705	keystroke_Key.space	Key.space	n/a
360.078	0.075	720156	keystroke_f	f	n/a
360.228	0.09	720456	keystroke_o	o	n/a
360.437	0.121	720874	keystroke_o	o	n/a
360.543	0.075	721086	keystroke_t	t	n/a
360.723	0.105	721446	keystroke_w	w	n/a
360.903	0.105	721806	keystroke_e	e	n/a
361.023	0.135	722046	keystroke_a	a	n/a
361.098	0.15	722196	keystroke_r	r	n/a
361.233	0.104	722466	keystroke_Key.enter	Key.enter	n/a
361.3445	9.4595	722689	prompt	n/a	legitimate owns chevy zinc\n
362.253	0.12	724506	keystroke_l	l	n/a
362.537	0.091	725074	keystroke_e	e	n/a
362.973	0.105	725946	keystroke_g	g	n/a
363.108	0.105	726216	keystroke_i	i	n/a
363.498	0.089	726996	keystroke_t	t	n/a
363.588	0.12	727176	keystroke_i	i	n/a
363.828	0.134	727656	keystroke_m	m	n/a
363.917	0.12	727834	keystroke_a	a	n/a
364.023	0.089	728046	keystroke_t	t	n/a
364.248	0.119	728496	keystroke_e	e	n/a
364.412	0.1655	728824	keystroke_Key.space	Key.space	n/a
366.905	0.0575	733810	keystroke_o	o	n/a
366.9625	0.1205	733925	keystroke_w	w	n/a
367.112	0.135	734224	keystroke_n	n	n/a
367.2625	0.1045	734525	keystroke_s	s	n/a
367.607	0.12	735214	keystroke_Key.space	Key.space	n/a
367.892	0.106	735784	keystroke_c	c	n/a
368.012	0.09	736024	keystroke_h	h	n/a
368.117	0.105	736234	keystroke_e	e	n/a
368.402	0.09	736804	keystroke_v	v	n/a
369.0025	0.12	738005	keystroke_y	y	n/a
369.1975	0.105	738395	keystroke_Key.space	Key.space	n/a
369.4675	0.06	738935	keystroke_i	i	n/a
369.873	0.1045	739746	keystroke_Key.backspace	Key.backspace	n/a
369.9475	0.135	739895	keystroke_z	z	n/a
370.0975	0.075	740195	keystroke_i	i	n/a
370.2775	0.105	740555	keystroke_n	n	n/a
370.3975	0.135	740795	keystroke_c	c	n/a
370.6825	0.12	741365	keystroke_Key.enter	Key.enter	n/a
370.8095	6.4745	741619	prompt	n/a	wonder struct spirituality send\n
371.5525	0.12	743105	keystroke_w	w	n/a
371.747	0.06	743494	keystroke_o	o	n/a
371.9125	0.1195	743825	keystroke_n	n	n/a
372.017	0.061	744034	keystroke_d	d	n/a
372.197	0.0455	744394	keystroke_e	e	n/a
372.347	0.165	744694	keystroke_r	r	n/a
372.482	0.1205	744964	keystroke_Key.space	Key.space	n/a
372.662	0.136	745324	keystroke_s	s	n/a
372.782	0.075	745564	keystroke_t	t	n/a
372.9325	0.1045	745865	keystroke_r	r	n/a
373.0225	0.12	746045	keystroke_u	u	n/a
373.157	0.106	746314	keystroke_c	c	n/a
373.773	0.12	747546	keystroke_t	t	n/a
373.953	0.12	747906	keystroke_Key.space	Key.space	n/a
374.387	0.091	748774	keystroke_s	s	n/a
374.568	0.119	749136	keystroke_p	p	n/a
374.762	0.12	749524	keystroke_i	i	n/a
375.0475	0.15	750095	keystroke_r	r	n/a
375.2575	0.12	750515	keystroke_i	i	n/a
375.7375	0.09	751475	keystroke_t	t	n/a
375.7825	0.105	751565	keystroke_u	u	n/a
375.9325	0.1205	751865	keystroke_a	a	n/a
376.037	0.195	752074	keystroke_l	l	n/a
376.157	0.1355	752314	keystroke_i	i	n/a
376.278	0.119	752556	keystroke_t	t	n/a
376.503	0.0895	753006	keystroke_y	y	n/a
376.607	0.105	753214	keystroke_Key.space	Key.space	n/a
376.728	0.15	753456	keystroke_s	s	n/a
376.8175	0.1055	753635	keystroke_e	e	n/a
376.8925	0.1055	753785	keystroke_n	n	n/a
377.028	0.104	754056	keystroke_d	d	n/a
377.162	0.12	754324	keystroke_Key.enter	Key.enter	n/a
377.29	4.869	754580	prompt	n/a	locale marriage cause drops\n
378.0325	0.09	756065	keystroke_l	l	n/a
378.198	0.1345	756396	keystroke_o	o	n/a
378.3475	0.09	756695	keystroke_c	c	n/a
378.5425	0.135	757085	keystroke_a	a	n/a
378.6325	0.105	757265	keystroke_l	l	n/a
378.7525	0.12	757505	keystroke_e	e	n/a
378.8875	0.12	757775	keystroke_Key.space	Key.space	n/a
379.248	0.1195	758496	keystroke_m	m	n/a
379.2925	0.1355	758585	keystroke_a	a	n/a
379.428	0.0895	758856	keystroke_r	r	n/a
379.607	0.076	759214	keystroke_r	r	n/a
379.787	0.105	759574	keystroke_i	i	n/a
379.878	0.0895	759756	keystroke_a	a	n/a
380.013	0.0745	760026	keystroke_g	g	n/a
380.2075	0.1195	760415	keystroke_e	e	n/a
380.312	0.12	760624	keystroke_Key.space	Key.space	n/a
380.612	0.091	761224	keystroke_c	c	n/a
380.748	0.135	761496	keystroke_a	a	n/a
380.8675	0.1055	761735	keystroke_u	u	n/a
380.9425	0.1355	761885	keystroke_s	s	n/a
381.0175	0.1195	762035	keystroke_e	e	n/a
381.122	0.105	762244	keystroke_Key.space	Key.space	n/a
381.5125	0.06	763025	keystroke_d	d	n/a
381.6475	0.15	763295	keystroke_r	r	n/a
381.6925	0.195	763385	keystroke_o	o	n/a
381.7825	0.15	763565	keystroke_p	p	n/a
381.8725	0.075	763745	keystroke_s	s	n/a
382.0525	0.105	764105	keystroke_Key.enter	Key.enter	n/a
382.173	8.0265	764346	prompt	n/a	removable configuration norm decade\n
382.8925	0.06	765785	keystroke_r	r	n/a
383.0575	0.075	766115	keystroke_e	e	n/a
383.1775	0.09	766355	keystroke_m	m	n/a
383.3575	0.0755	766715	keystroke_o	o	n/a
383.6125	0.1045	767225	keystroke_v	v	n/a
383.8675	0.1055	767735	keystroke_a	a	n/a
384.3925	0.09	768785	keystroke_b	b	n/a
384.5875	0.12	769175	keystroke_l	l	n/a
384.6625	0.12	769325	keystroke_e	e	n/a
384.7675	0.135	769535	keystroke_Key.space	Key.space	n/a
385.0375	0.09	770075	keystroke_c	c	n/a
385.0975	0.09	770195	keystroke_o	o	n/a
385.2925	0.075	770585	keystroke_n	n	n/a
385.9975	0.15	771995	keystroke_f	f	n/a
386.1625	0.06	772325	keystroke_i	i	n/a
386.3275	0.12	772655	keystroke_g	g	n/a
386.462	0.1055	772924	keystroke_u	u	n/a
386.7025	0.1045	773405	keystroke_r	r	n/a
386.822	0.135	773644	keystroke_a	a	n/a
386.928	0.1195	773856	keystroke_t	t	n/a
387.017	0.0755	774034	keystroke_i	i	n/a
387.1975	0.075	774395	keystroke_o	o	n/a
387.4075	0.135	774815	keystroke_n	n	n/a
387.5275	0.1045	775055	keystroke_Key.space	Key.space	n/a
387.9925	0.075	775985	keystroke_n	n	n/a
388.142	0.106	776284	keystroke_o	o	n/a
388.2175	0.135	776435	keystroke_r	r	n/a
388.3525	0.12	776705	keystroke_m	m	n/a
388.5025	0.105	777005	keystroke_Key.space	Key.space	n/a
388.742	0.0755	777484	keystroke_d	d	n/a
388.892	0.0755	777784	keystroke_e	e	n/a
389.253	0.0145	778506	keystroke_c	c	n/a
389.3425	0.1355	778685	keystroke_a	a	n/a
389.687	0.06	779374	keystroke_d	d	n/a
389.837	0.091	779674	keystroke_e	e	n/a
390.077	0.1205	780154	keystroke_Key.enter	Key.enter	n/a
390.2055	7.8235	780411	prompt	n/a	devices relationship gerald baby\n
390.7975	0.09	781595	keystroke_d	d	n/a
390.9625	0.09	781925	keystroke_e	e	n/a
391.2475	0.12	782495	keystroke_v	v	n/a
391.3825	0.09	782765	keystroke_i	i	n/a
391.503	0.1045	783006	keystroke_c	c	n/a
391.7275	0.0895	783455	keystroke_e	e	n/a
391.862	0.15	783724	keystroke_s	s	n/a
392.027	0.105	784054	keystroke_Key.space	Key.space	n/a
392.207	0.105	784414	keystroke_r	r	n/a
392.687	0.105	785374	keystroke_e	e	n/a
392.882	0.1355	785764	keystroke_l	l	n/a
393.002	0.12	786004	keystroke_a	a	n/a
393.1075	0.1045	786215	keystroke_t	t	n/a
393.197	0.06	786394	keystroke_i	i	n/a
393.347	0.09	786694	keystroke_o	o	n/a
393.528	0.104	787056	keystroke_n	n	n/a
393.647	0.1205	787294	keystroke_s	s	n/a
393.768	0.104	787536	keystroke_h	h	n/a
393.947	0.105	787894	keystroke_i	i	n/a
394.158	0.0895	788316	keystroke_p	p	n/a
394.3215	0.106	788643	keystroke_Key.space	Key.space	n/a
394.6225	0.06	789245	keystroke_g	g	n/a
394.8175	0.105	789635	keystroke_e	e	n/a
395.2825	0.105	790565	keystroke_r	r	n/a
395.4925	0.09	790985	keystroke_a	a	n/a
395.5525	0.12	791105	keystroke_l	l	n/a
395.7175	0.12	791435	keystroke_d	d	n/a
395.8075	0.105	791615	keystroke_Key.space	Key.space	n/a
396.0325	0.075	792065	keystroke_b	b	n/a
396.1225	0.12	792245	keystroke_a	a	n/a
396.2425	0.105	792485	keystroke_b	b	n/a
396.4225	0.075	792845	keystroke_y	y	n/a
397.9075	0.12	795815	keystroke_Key.enter	Key.enter	n/a
398.034	5.486	796068	prompt	n/a	duration large healthy chocolate\n
398.583	0.1195	797166	keystroke_d	d	n/a
398.7325	0.12	797465	keystroke_u	u	n/a
398.8375	0.105	797675	keystroke_r	r	n/a
398.9275	0.151	797855	keystroke_a	a	n/a
399.0785	0.104	798157	keystroke_t	t	n/a
399.1225	0.075	798245	keystroke_i	i	n/a
399.2875	0.1345	798575	keystroke_o	o	n/a
399.4075	0.165	798815	keystroke_n	n	n/a
399.6175	0.135	799235	keystroke_Key.space	Key.space	n/a
399.7675	0.135	799535	keystroke_l	l	n/a
399.8575	0.135	799715	keystroke_a	a	n/a
399.9625	0.0745	799925	keystroke_r	r	n/a
400.157	0.0755	800314	keystroke_g	g	n/a
400.352	0.1055	800704	keystroke_e	e	n/a
400.4425	0.1345	800885	keystroke_Key.space	Key.space	n/a
400.637	0.1055	801274	keystroke_h	h	n/a
400.712	0.1205	801424	keystroke_e	e	n/a
400.787	0.135	801574	keystroke_a	a	n/a
400.877	0.12	801754	keystroke_l	l	n/a
401.012	0.1205	802024	keystroke_t	t	n/a
401.1175	0.105	802235	keystroke_h	h	n/a
401.252	0.1055	802504	keystroke_y	y	n/a
401.402	0.105	802804	keystroke_Key.space	Key.space	n/a
401.7325	0.1195	803465	keystroke_c	c	n/a
401.9425	0.09	803885	keystroke_h	h	n/a
402.1375	0.12	804275	keystroke_o	o	n/a
402.6175	0.1345	805235	keystroke_c	c	n/a
402.737	0.091	805474	keystroke_o	o	n/a
402.947	0.09	805894	keystroke_l	l	n/a
403.007	0.12	806014	keystroke_a	a	n/a
403.112	0.06	806224	keystroke_t	t	n/a
403.277	0.1055	806554	keystroke_e	e	n/a
403.397	0.12	806794	keystroke_Key.enter	Key.enter	n/a
403.5295	14.045	807059	prompt	n/a	saints sustainability edinburgh victoria\n
404.237	0.15	808474	keystroke_s	s	n/a
404.612	0.12	809224	keystroke_a	a	n/a
404.747	0.075	809494	keystroke_i	i	n/a
404.897	0.106	809794	keystroke_n	n	n/a
404.973	0.104	809946	keystroke_t	t	n/a
405.167	0.135	810334	keystroke_s	s	n/a
405.287	0.105	810574	keystroke_Key.space	Key.space	n/a
405.812	0.105	811624	keystroke_s	s	n/a
405.932	0.091	811864	keystroke_u	u	n/a
406.037	0.12	812074	keystroke_s	s	n/a
406.217	0.075	812434	keystroke_t	t	n/a
406.337	0.09	812674	keystroke_a	a	n/a
406.428	0.134	812856	keystroke_i	i	n/a
406.518	0.104	813036	keystroke_n	n	n/a
406.907	0.121	813814	keystroke_a	a	n/a
407.222	0.105	814444	keystroke_b	b	n/a
407.642	0.061	815284	keystroke_i	i	n/a
407.822	0.135	815644	keystroke_l	l	n/a
408.422	0.045	816844	keystroke_i	i	n/a
408.4375	0.0895	816875	keystroke_t	t	n/a
408.632	0.09	817264	keystroke_y	y	n/a
408.7825	0.1345	817565	keystroke_Key.space	Key.space	n/a
409.368	0.1045	818736	keystroke_e	e	n/a
409.4425	0.09	818885	keystroke_n	n	n/a
409.8775	0.104	819755	keystroke_Key.backspace	Key.backspace	n/a
409.9225	0.12	819845	keystroke_d	d	n/a
410.2975	0.12	820595	keystroke_i	i	n/a
410.7025	0.105	821405	keystroke_n	n	n/a
410.9865	0.106	821973	keystroke_b	b	n/a
411.1815	0.1055	822363	keystroke_u	u	n/a
411.737	0.1055	823474	keystroke_r	r	n/a
411.9775	0.059	823955	keystroke_g	g	n/a
412.128	0.1035	824256	keystroke_h	h	n/a
412.3975	0.105	824795	keystroke_Key.space	Key.space	n/a
412.6375	0.12	825275	keystroke_v	v	n/a
412.7425	0.105	825485	keystroke_i	i	n/a
412.8925	0.09	825785	keystroke_c	c	n/a
413.2225	0.12	826445	keystroke_t	t	n/a
413.3575	0.09	826715	keystroke_o	o	n/a
413.4625	0.105	826925	keystroke_r	r	n/a
413.5375	0.105	827075	keystroke_i	i	n/a
413.6575	0.12	827315	keystroke_a	a	n/a
417.5145	0.058	835029	keystroke_Key.enter	Key.enter	n/a
417.5795	5.875	835159	prompt	n/a	seat accept courage crash\n
418.3675	0.15	836735	keystroke_s	s	n/a
418.4725	0.12	836945	keystroke_e	e	n/a
418.5775	0.135	837155	keystroke_a	a	n/a
418.7425	0.075	837485	keystroke_t	t	n/a
418.9825	0.105	837965	keystroke_Key.space	Key.space	n/a
419.4325	0.12	838865	keystroke_a	a	n/a
419.657	0.0605	839314	keystroke_c	c	n/a
419.7935	0.074	839587	keystroke_c	c	n/a
420.0025	0.075	840005	keystroke_e	e	n/a
420.2125	0.105	840425	keystroke_p	p	n/a
420.347	0.106	840694	keystroke_t	t	n/a
420.6325	0.0895	841265	keystroke_Key.space	Key.space	n/a
420.9775	0.075	841955	keystroke_c	c	n/a
421.1275	0.075	842255	keystroke_o	o	n/a
421.3375	0.09	842675	keystroke_u	u	n/a
421.4425	0.09	842885	keystroke_r	r	n/a
421.5925	0.1055	843185	keystroke_a	a	n/a
421.7575	0.075	843515	keystroke_g	g	n/a
421.953	0.1345	843906	keystroke_e	e	n/a
422.1025	0.15	844205	keystroke_Key.space	Key.space	n/a
422.477	0.075	844954	keystroke_c	c	n/a
422.717	0.09	845434	keystroke_r	r	n/a
422.852	0.15	845704	keystroke_a	a	n/a
422.957	0.135	845914	keystroke_s	s	n/a
423.078	0.104	846156	keystroke_h	h	n/a
423.332	0.1205	846664	keystroke_Key.enter	Key.enter	n/a
423.4625	5.292	846925	prompt	n/a	placement rose many lighting\n
424.1275	0.075	848255	keystroke_p	p	n/a
424.3225	0.12	848645	keystroke_l	l	n/a
424.4125	0.105	848825	keystroke_a	a	n/a
424.5625	0.075	849125	keystroke_c	c	n/a
424.7425	0.09	849485	keystroke_e	e	n/a
424.8175	0.075	849635	keystroke_m	m	n/a
424.9375	0.075	849875	keystroke_e	e	n/a
425.0575	0.06	850115	keystroke_n	n	n/a
425.1325	0.105	850265	keystroke_t	t	n/a
425.2375	0.15	850475	keystroke_Key.space	Key.space	n/a
425.7025	0.09	851405	keystroke_r	r	n/a
425.8225	0.105	851645	keystroke_o	o	n/a
425.9425	0.12	851885	keystroke_s	s	n/a
426.0025	0.165	852005	keystroke_e	e	n/a
426.1365	0.091	852273	keystroke_Key.space	Key.space	n/a
426.273	0.1045	852546	keystroke_m	m	n/a
426.3625	0.1195	852725	keystroke_a	a	n/a
426.468	0.119	852936	keystroke_n	n	n/a
426.632	0.045	853264	keystroke_y	y	n/a
426.737	0.09	853474	keystroke_Key.space	Key.space	n/a
427.082	0.106	854164	keystroke_l	l	n/a
427.232	0.12	854464	keystroke_i	i	n/a
427.338	0.1195	854676	keystroke_g	g	n/a
427.458	0.105	854916	keystroke_h	h	n/a
427.6075	0.12	855215	keystroke_t	t	n/a
427.758	0.1345	855516	keystroke_i	i	n/a
427.8475	0.105	855695	keystroke_n	n	n/a
427.9975	0.0905	855995	keystroke_g	g	n/a
428.6275	0.12	857255	keystroke_Key.enter	Key.enter	n/a
428.755	6.0855	857510	prompt	n/a	require accreditation belkin damage\n
429.3775	0.09	858755	keystroke_r	r	n/a
429.5575	0.09	859115	keystroke_e	e	n/a
429.7075	0.15	859415	keystroke_q	q	n/a
429.8125	0.06	859625	keystroke_u	u	n/a
429.9775	0.09	859955	keystroke_i	i	n/a
430.0525	0.06	860105	keystroke_r	r	n/a
430.2025	0.135	860405	keystroke_e	e	n/a
430.3225	0.1345	860645	keystroke_Key.space	Key.space	n/a
430.682	0.12	861364	keystroke_a	a	n/a
430.923	0.0595	861846	keystroke_c	c	n/a
431.073	0.075	862146	keystroke_c	c	n/a
431.2675	0.06	862535	keystroke_r	r	n/a
431.402	0.0905	862804	keystroke_e	e	n/a
431.5825	0.09	863165	keystroke_d	d	n/a
431.6875	0.12	863375	keystroke_i	i	n/a
431.8375	0.09	863675	keystroke_t	t	n/a
431.9875	0.12	863975	keystroke_a	a	n/a
432.0775	0.12	864155	keystroke_t	t	n/a
432.1375	0.09	864275	keystroke_i	i	n/a
432.3025	0.135	864605	keystroke_o	o	n/a
432.4525	0.15	864905	keystroke_n	n	n/a
432.5875	0.12	865175	keystroke_Key.space	Key.space	n/a
432.7525	0.09	865505	keystroke_b	b	n/a
432.8725	0.105	865745	keystroke_e	e	n/a
433.113	0.105	866226	keystroke_l	l	n/a
433.293	0.059	866586	keystroke_k	k	n/a
433.442	0.106	866884	keystroke_i	i	n/a
433.517	0.151	867034	keystroke_n	n	n/a
433.6375	0.0895	867275	keystroke_Key.space	Key.space	n/a
433.878	0.089	867756	keystroke_d	d	n/a
434.012	0.1065	868024	keystroke_a	a	n/a
434.132	0.12	868264	keystroke_m	m	n/a
434.237	0.12	868474	keystroke_a	a	n/a
434.477	0.0605	868954	keystroke_g	g	n/a
434.642	0.1205	869284	keystroke_e	e	n/a
434.747	0.09	869494	keystroke_Key.enter	Key.enter	n/a
434.8455	7.1945	869691	prompt	n/a	education hydraulic wins recommendation\n
435.437	0.0755	870874	keystroke_e	e	n/a
435.632	0.06	871264	keystroke_d	d	n/a
436.1125	0.1195	872225	keystroke_u	u	n/a
436.217	0.106	872434	keystroke_c	c	n/a
436.352	0.135	872704	keystroke_a	a	n/a
436.457	0.135	872914	keystroke_t	t	n/a
436.517	0.09	873034	keystroke_i	i	n/a
436.698	0.075	873396	keystroke_o	o	n/a
436.8625	0.12	873725	keystroke_n	n	n/a
436.9675	0.105	873935	keystroke_Key.space	Key.space	n/a
437.1775	0.105	874355	keystroke_h	h	n/a
437.2975	0.075	874595	keystroke_y	y	n/a
437.6565	0.091	875313	keystroke_d	d	n/a
437.8525	0.075	875705	keystroke_r	r	n/a
437.9565	0.1365	875913	keystroke_a	a	n/a
438.107	0.076	876214	keystroke_u	u	n/a
438.318	0.15	876636	keystroke_l	l	n/a
438.423	0.1345	876846	keystroke_i	i	n/a
438.543	0.1495	877086	keystroke_c	c	n/a
438.6765	0.106	877353	keystroke_Key.space	Key.space	n/a
438.8125	0.1045	877625	keystroke_w	w	n/a
438.902	0.121	877804	keystroke_i	i	n/a
438.977	0.105	877954	keystroke_n	n	n/a
439.1125	0.1355	878225	keystroke_s	s	n/a
439.217	0.1205	878434	keystroke_Key.space	Key.space	n/a
439.457	0.06	878914	keystroke_r	r	n/a
439.6225	0.045	879245	keystroke_e	e	n/a
439.817	0.075	879634	keystroke_c	c	n/a
440.1175	0.09	880235	keystroke_o	o	n/a
440.4475	0.045	880895	keystroke_m	m	n/a
440.5675	0.12	881135	keystroke_m	m	n/a
440.7025	0.12	881405	keystroke_e	e	n/a
440.8375	0.12	881675	keystroke_n	n	n/a
440.9425	0.105	881885	keystroke_d	d	n/a
441.0625	0.135	882125	keystroke_a	a	n/a
441.2125	0.1355	882425	keystroke_t	t	n/a
441.273	0.09	882546	keystroke_i	i	n/a
441.437	0.211	882874	keystroke_o	o	n/a
441.557	0.15	883114	keystroke_n	n	n/a
441.977	0.0605	883954	keystroke_Key.enter	Key.enter	n/a
442.045	4.945	884090	prompt	n/a	chest payable wants thongs\n
442.8325	0.0895	885665	keystroke_c	c	n/a
442.952	0.105	885904	keystroke_h	h	n/a
443.042	0.1355	886084	keystroke_e	e	n/a
443.1625	0.165	886325	keystroke_s	s	n/a
443.2675	0.15	886535	keystroke_t	t	n/a
443.4025	0.12	886805	keystroke_Key.space	Key.space	n/a
443.6575	0.12	887315	keystroke_p	p	n/a
443.7625	0.075	887525	keystroke_a	a	n/a
443.9725	0.075	887945	keystroke_y	y	n/a
444.1225	0.12	888245	keystroke_a	a	n/a
444.2275	0.075	888455	keystroke_b	b	n/a
444.4075	0.105	888815	keystroke_l	l	n/a
444.513	0.1345	889026	keystroke_e	e	n/a
444.6625	0.09	889325	keystroke_Key.space	Key.space	n/a
444.7975	0.09	889595	keystroke_w	w	n/a
444.9325	0.09	889865	keystroke_a	a	n/a
445.1875	0.075	890375	keystroke_n	n	n/a
445.6375	0.09	891275	keystroke_t	t	n/a
445.7875	0.136	891575	keystroke_s	s	n/a
445.8925	0.1195	891785	keystroke_Key.space	Key.space	n/a
446.177	0.121	892354	keystroke_t	t	n/a
446.252	0.075	892504	keystroke_h	h	n/a
446.3875	0.105	892775	keystroke_o	o	n/a
446.5675	0.105	893135	keystroke_n	n	n/a
446.6425	0.06	893285	keystroke_g	g	n/a
446.7925	0.1195	893585	keystroke_s	s	n/a
446.8825	0.1045	893765	keystroke_Key.enter	Key.enter	n/a
446.9955	7.8695	893991	prompt	n/a	implied governor toolkit lectures\n
447.782	0.0755	895564	keystroke_i	i	n/a
448.3375	0.105	896675	keystroke_m	m	n/a
448.548	0.0745	897096	keystroke_p	p	n/a
448.7575	0.1655	897515	keystroke_l	l	n/a
448.863	0.12	897726	keystroke_i	i	n/a
448.953	0.1045	897906	keystroke_e	e	n/a
449.178	0.105	898356	keystroke_d	d	n/a
449.237	0.136	898474	keystroke_Key.space	Key.space	n/a
449.838	0.105	899676	keystroke_g	g	n/a
450.003	0.135	900006	keystroke_o	o	n/a
450.093	0.105	900186	keystroke_v	v	n/a
450.332	0.061	900664	keystroke_e	e	n/a
450.4825	0.1195	900965	keystroke_r	r	n/a
450.662	0.091	901324	keystroke_n	n	n/a
450.813	0.135	901626	keystroke_o	o	n/a
450.962	0.1055	901924	keystroke_r	r	n/a
451.2625	0.105	902525	keystroke_Key.space	Key.space	n/a
451.548	0.1045	903096	keystroke_t	t	n/a
451.7275	0.06	903455	keystroke_o	o	n/a
451.8925	0.075	903785	keystroke_o	o	n/a
452.192	0.1205	904384	keystroke_l	l	n/a
452.373	0.0895	904746	keystroke_k	k	n/a
452.552	0.09	905104	keystroke_i	i	n/a
452.657	0.121	905314	keystroke_t	t	n/a
452.912	0.09	905824	keystroke_Key.space	Key.space	n/a
453.423	0.134	906846	keystroke_l	l	n/a
453.498	0.089	906996	keystroke_e	e	n/a
453.752	0.075	907504	keystroke_c	c	n/a
454.023	0.119	908046	keystroke_t	t	n/a
454.157	0.12	908314	keystroke_u	u	n/a
454.263	0.075	908526	keystroke_r	r	n/a
454.442	0.106	908884	keystroke_e	e	n/a
454.562	0.106	909124	keystroke_s	s	n/a
454.7125	0.1495	909425	keystroke_Key.enter	Key.enter	n/a
454.87	6.2655	909740	prompt	n/a	moms specials alias helpful\n
455.538	0.089	911076	keystroke_m	m	n/a
455.702	0.106	911404	keystroke_o	o	n/a
456.0775	0.075	912155	keystroke_m	m	n/a
456.2125	0.15	912425	keystroke_s	s	n/a
456.3475	0.15	912695	keystroke_Key.space	Key.space	n/a
456.6175	0.12	913235	keystroke_s	s	n/a
456.7825	0.1205	913565	keystroke_p	p	n/a
456.8875	0.09	913775	keystroke_e	e	n/a
457.1125	0.135	914225	keystroke_c	c	n/a
457.2025	0.1045	914405	keystroke_i	i	n/a
457.308	0.134	914616	keystroke_a	a	n/a
457.5625	0.1195	915125	keystroke_l	l	n/a
457.667	0.18	915334	keystroke_s	s	n/a
457.848	0.134	915696	keystroke_Key.space	Key.space	n/a
458.282	0.12	916564	keystroke_a	a	n/a
458.7025	0.1045	917405	keystroke_l	l	n/a
458.898	0.089	917796	keystroke_i	i	n/a
459.017	0.1505	918034	keystroke_a	a	n/a
459.1375	0.195	918275	keystroke_s	s	n/a
459.2875	0.135	918575	keystroke_Key.space	Key.space	n/a
459.527	0.076	919054	keystroke_h	h	n/a
460.0975	0.105	920195	keystroke_e	e	n/a
460.2325	0.075	920465	keystroke_l	l	n/a
460.398	0.0895	920796	keystroke_p	p	n/a
460.4725	0.105	920945	keystroke_f	f	n/a
460.6075	0.06	921215	keystroke_u	u	n/a
460.7875	0.09	921575	keystroke_l	l	n/a
461.0125	0.1205	922025	keystroke_Key.enter	Key.enter	n/a
461.141	7.8985	922282	prompt	n/a	placement exploration rocky referred\n
461.9875	0.06	923975	keystroke_p	p	n/a
462.1825	0.105	924365	keystroke_l	l	n/a
462.2725	0.105	924545	keystroke_a	a	n/a
462.4225	0.075	924845	keystroke_c	c	n/a
462.6175	0.105	925235	keystroke_e	e	n/a
462.7225	0.105	925445	keystroke_m	m	n/a
462.8125	0.075	925625	keystroke_e	e	n/a
462.9175	0.09	925835	keystroke_n	n	n/a
463.0225	0.09	926045	keystroke_t	t	n/a
463.1725	0.12	926345	keystroke_Key.space	Key.space	n/a
463.5325	0.075	927065	keystroke_e	e	n/a
463.7275	0.09	927455	keystroke_x	x	n/a
463.8925	0.0905	927785	keystroke_p	p	n/a
464.1325	0.105	928265	keystroke_l	l	n/a
464.3125	0.09	928625	keystroke_o	o	n/a
464.4185	0.119	928837	keystroke_r	r	n/a
464.6125	0.135	929225	keystroke_a	a	n/a
464.7175	0.135	929435	keystroke_t	t	n/a
464.808	0.0595	929616	keystroke_i	i	n/a
464.9425	0.09	929885	keystroke_o	o	n/a
465.0925	0.105	930185	keystroke_n	n	n/a
465.1975	0.135	930395	keystroke_Key.space	Key.space	n/a
465.4975	0.09	930995	keystroke_r	r	n/a
465.5725	0.09	931145	keystroke_o	o	n/a
465.7225	0.075	931445	keystroke_c	c	n/a
465.8125	0.075	931625	keystroke_k	k	n/a
466.352	0.061	932704	keystroke_y	y	n/a
466.607	0.1205	933214	keystroke_Key.space	Key.space	n/a
466.818	0.089	933636	keystroke_r	r	n/a
466.997	0.091	933994	keystroke_e	e	n/a
467.252	0.091	934504	keystroke_f	f	n/a
467.507	0.106	935014	keystroke_e	e	n/a
468.213	0.075	936426	keystroke_r	r	n/a
468.378	0.0745	936756	keystroke_r	r	n/a
468.5275	0.0905	937055	keystroke_e	e	n/a
468.723	0.1045	937446	keystroke_d	d	n/a
468.9025	0.1345	937805	keystroke_Key.enter	Key.enter	n/a
469.045	6.234	938090	prompt	n/a	medical handle package needn't\n
469.8475	0.15	939695	keystroke_m	m	n/a
469.9375	0.09	939875	keystroke_e	e	n/a
470.1175	0.09	940235	keystroke_i	i	n/a
470.1625	0.105	940325	keystroke_d	d	n/a
470.7475	0.045	941495	keystroke_Key.backspace	Key.backspace	n/a
470.8525	0.09	941705	keystroke_Key.backspace	Key.backspace	n/a
470.9275	0.075	941855	keystroke_d	d	n/a
471.0475	0.1055	942095	keystroke_i	i	n/a
471.1375	0.075	942275	keystroke_c	c	n/a
471.2575	0.09	942515	keystroke_a	a	n/a
471.3475	0.09	942695	keystroke_l	l	n/a
471.497	0.12	942994	keystroke_Key.space	Key.space	n/a
471.842	0.075	943684	keystroke_h	h	n/a
471.903	0.135	943806	keystroke_a	a	n/a
472.023	0.09	944046	keystroke_n	n	n/a
472.082	0.091	944164	keystroke_d	d	n/a
472.2025	0.1045	944405	keystroke_l	l	n/a
472.323	0.18	944646	keystroke_e	e	n/a
472.4275	0.135	944855	keystroke_Key.space	Key.space	n/a
472.563	0.105	945126	keystroke_p	p	n/a
472.638	0.105	945276	keystroke_a	a	n/a
472.7875	0.105	945575	keystroke_c	c	n/a
472.8625	0.075	945725	keystroke_k	k	n/a
472.9675	0.105	945935	keystroke_a	a	n/a
473.1325	0.075	946265	keystroke_g	g	n/a
473.2975	0.135	946595	keystroke_e	e	n/a
473.4475	0.12	946895	keystroke_Key.space	Key.space	n/a
473.583	0.09	947166	keystroke_n	n	n/a
473.7175	0.06	947435	keystroke_e	e	n/a
473.8525	0.045	947705	keystroke_e	e	n/a
474.0325	0.09	948065	keystroke_d	d	n/a
474.2425	0.0755	948485	keystroke_n	n	n/a
474.648	0.0745	949296	keystroke_'	'	n/a
474.7525	0.09	949505	keystroke_t	t	n/a
475.1425	0.1345	950285	keystroke_Key.enter	Key.enter	n/a
475.283	6.732	950566	prompt	n/a	susan probably ment adequate\n
475.8775	0.12	951755	keystroke_s	s	n/a
476.0125	0.105	952025	keystroke_u	u	n/a
476.1025	0.105	952205	keystroke_s	s	n/a
476.1925	0.105	952385	keystroke_a	a	n/a
476.2825	0.12	952565	keystroke_n	n	n/a
476.4325	0.12	952865	keystroke_Key.space	Key.space	n/a
476.6425	0.075	953285	keystroke_p	p	n/a
476.6875	0.09	953375	keystroke_r	r	n/a
476.8225	0.12	953645	keystroke_o	o	n/a
477.7225	0.104	955445	keystroke_b	b	n/a
477.8125	0.1355	955625	keystroke_a	a	n/a
477.9625	0.075	955925	keystroke_b	b	n/a
478.1275	0.135	956255	keystroke_l	l	n/a
478.2475	0.1345	956495	keystroke_y	y	n/a
478.442	0.09	956884	keystroke_Key.space	Key.space	n/a
478.577	0.1205	957154	keystroke_m	m	n/a
478.637	0.135	957274	keystroke_e	e	n/a
478.757	0.12	957514	keystroke_a	a	n/a
479.237	0.1055	958474	keystroke_Key.backspace	Key.backspace	n/a
479.477	0.0755	958954	keystroke_n	n	n/a
479.5675	0.12	959135	keystroke_t	t	n/a
479.7325	0.105	959465	keystroke_Key.space	Key.space	n/a
480.0775	0.15	960155	keystroke_a	a	n/a
480.1825	0.0905	960365	keystroke_d	d	n/a
480.3625	0.075	960725	keystroke_e	e	n/a
480.6775	0.09	961355	keystroke_q	q	n/a
480.7825	0.09	961565	keystroke_u	u	n/a
481.082	0.106	962164	keystroke_a	a	n/a
481.142	0.09	962284	keystroke_t	t	n/a
481.352	0.105	962704	keystroke_e	e	n/a
481.8775	0.1345	963755	keystroke_Key.enter	Key.enter	n/a
482.0215	7.314	964043	prompt	n/a	butter resolve security reports\n
482.777	0.045	965554	keystroke_b	b	n/a
482.8825	0.0895	965765	keystroke_u	u	n/a
482.957	0.075	965914	keystroke_t	t	n/a
483.137	0.0755	966274	keystroke_t	t	n/a
483.317	0.09	966634	keystroke_e	e	n/a
483.497	0.1055	966994	keystroke_r	r	n/a
483.5725	0.1345	967145	keystroke_Key.space	Key.space	n/a
483.813	0.09	967626	keystroke_r	r	n/a
484.007	0.106	968014	keystroke_e	e	n/a
484.293	0.12	968586	keystroke_s	s	n/a
484.398	0.1045	968796	keystroke_o	o	n/a
484.713	0.119	969426	keystroke_l	l	n/a
484.847	0.09	969694	keystroke_v	v	n/a
485.073	0.1195	970146	keystroke_e	e	n/a
485.1625	0.12	970325	keystroke_Key.space	Key.space	n/a
485.4325	0.15	970865	keystroke_s	s	n/a
485.5525	0.105	971105	keystroke_e	e	n/a
485.9125	0.1045	971825	keystroke_c	c	n/a
486.0475	0.105	972095	keystroke_u	u	n/a
486.1675	0.1195	972335	keystroke_r	r	n/a
486.272	0.105	972544	keystroke_i	i	n/a
486.3925	0.045	972785	keystroke_t	t	n/a
486.8875	0.03	973775	keystroke_y	y	n/a
486.9475	0.135	973895	keystroke_Key.space	Key.space	n/a
487.802	0.075	975604	keystroke_r	r	n/a
487.982	0.0755	975964	keystroke_e	e	n/a
488.582	0.105	977164	keystroke_p	p	n/a
488.627	0.135	977254	keystroke_o	o	n/a
488.643	0.09	977286	keystroke_r	r	n/a
488.822	0.0605	977644	keystroke_t	t	n/a
488.912	0.135	977824	keystroke_s	s	n/a
489.212	0.12	978424	keystroke_Key.enter	Key.enter	n/a
489.34	6.4745	978680	prompt	n/a	priest alcohol inflation mike\n
489.977	0.12	979954	keystroke_p	p	n/a
490.127	0.12	980254	keystroke_r	r	n/a
490.2325	0.1345	980465	keystroke_i	i	n/a
490.593	0.089	981186	keystroke_c	c	n/a
491.147	0.0905	982294	keystroke_Key.backspace	Key.backspace	n/a
491.1925	0.09	982385	keystroke_e	e	n/a
491.3275	0.15	982655	keystroke_s	s	n/a
491.4475	0.15	982895	keystroke_t	t	n/a
491.5825	0.105	983165	keystroke_Key.space	Key.space	n/a
491.8075	0.105	983615	keystroke_a	a	n/a
491.8675	0.1505	983735	keystroke_l	l	n/a
492.032	0.0905	984064	keystroke_c	c	n/a
492.123	0.134	984246	keystroke_o	o	n/a
492.423	0.104	984846	keystroke_h	h	n/a
492.468	0.104	984936	keystroke_o	o	n/a
492.693	0.089	985386	keystroke_l	l	n/a
492.812	0.12	985624	keystroke_Key.space	Key.space	n/a
493.172	0.121	986344	keystroke_i	i	n/a
493.413	0.089	986826	keystroke_n	n	n/a
493.652	0.091	987304	keystroke_f	f	n/a
494.027	0.12	988054	keystroke_l	l	n/a
494.163	0.105	988326	keystroke_a	a	n/a
494.282	0.1205	988564	keystroke_t	t	n/a
494.373	0.0745	988746	keystroke_i	i	n/a
494.523	0.0895	989046	keystroke_o	o	n/a
494.687	0.121	989374	keystroke_n	n	n/a
494.792	0.12	989584	keystroke_Key.space	Key.space	n/a
495.167	0.105	990334	keystroke_m	m	n/a
495.333	0.0895	990666	keystroke_i	i	n/a
495.512	0.09	991024	keystroke_k	k	n/a
495.587	0.105	991174	keystroke_e	e	n/a
495.693	0.1195	991386	keystroke_Key.enter	Key.enter	n/a
495.82	8.4845	991640	prompt	n/a	ended charlotte vacancies effective\n
496.487	0.09	992974	keystroke_e	e	n/a
496.593	0.119	993186	keystroke_n	n	n/a
496.682	0.075	993364	keystroke_d	d	n/a
496.847	0.075	993694	keystroke_e	e	n/a
497.043	0.1345	994086	keystroke_d	d	n/a
497.147	0.1355	994294	keystroke_Key.space	Key.space	n/a
497.597	0.1055	995194	keystroke_c	c	n/a
497.703	0.104	995406	keystroke_h	h	n/a
497.808	0.1195	995616	keystroke_a	a	n/a
497.972	0.105	995944	keystroke_r	r	n/a
498.092	0.1355	996184	keystroke_l	l	n/a
498.287	0.12	996574	keystroke_o	o	n/a
498.377	0.091	996754	keystroke_t	t	n/a
498.5425	0.075	997085	keystroke_t	t	n/a
498.7375	0.12	997475	keystroke_e	e	n/a
498.8425	0.18	997685	keystroke_Key.space	Key.space	n/a
499.683	0.089	999366	keystroke_v	v	n/a
499.907	0.12	999814	keystroke_a	a	n/a
500.148	0.1045	1000296	keystroke_c	c	n/a
500.3875	0.09	1000775	keystroke_a	a	n/a
500.762	0.12	1001524	keystroke_n	n	n/a
501.062	0.075	1002124	keystroke_c	c	n/a
501.1525	0.12	1002305	keystroke_i	i	n/a
501.288	0.089	1002576	keystroke_e	e	n/a
501.437	0.151	1002874	keystroke_s	s	n/a
501.542	0.12	1003084	keystroke_Key.space	Key.space	n/a
501.872	0.09	1003744	keystroke_e	e	n/a
502.082	0.0455	1004164	keystroke_f	f	n/a
502.218	0.0595	1004436	keystroke_f	f	n/a
502.382	0.06	1004764	keystroke_e	e	n/a
502.5775	0.0445	1005155	keystroke_c	c	n/a
502.772	0.075	1005544	keystroke_t	t	n/a
502.862	0.105	1005724	keystroke_i	i	n/a
502.877	0.075	1005754	keystroke_o	o	n/a
502.982	0.075	1005964	keystroke_v	v	n/a
503.447	0.0455	1006894	keystroke_Key.backspace	Key.backspace	n/a
503.5525	0.0445	1007105	keystroke_Key.backspace	Key.backspace	n/a
503.868	0.0595	1007736	keystroke_v	v	n/a
504.047	0.09	1008094	keystroke_e	e	n/a
504.1825	0.12	1008365	keystroke_Key.enter	Key.enter	n/a
504.3085	10.5265	1008617	prompt	n/a	peter animation taylor aims\n
505.1275	0.1195	1010255	keystroke_p	p	n/a
505.1725	0.0895	1010345	keystroke_e	e	n/a
505.3675	0.075	1010735	keystroke_t	t	n/a
505.5475	0.045	1011095	keystroke_e	e	n/a
505.6825	0.12	1011365	keystroke_r	r	n/a
505.7425	0.12	1011485	keystroke_Key.space	Key.space	n/a
506.0575	0.105	1012115	keystroke_a	a	n/a
506.1625	0.075	1012325	keystroke_n	n	n/a
506.3275	0.06	1012655	keystroke_i	i	n/a
506.4775	0.1205	1012955	keystroke_m	m	n/a
506.5675	0.12	1013135	keystroke_a	a	n/a
506.6575	0.165	1013315	keystroke_t	t	n/a
506.7475	0.0895	1013495	keystroke_i	i	n/a
506.897	0.09	1013794	keystroke_o	o	n/a
507.0325	0.1345	1014065	keystroke_n	n	n/a
507.1525	0.135	1014305	keystroke_Key.space	Key.space	n/a
507.6325	0.105	1015265	keystroke_t	t	n/a
507.828	0.0895	1015656	keystroke_a	a	n/a
508.0375	0.075	1016075	keystroke_t	t	n/a
508.427	0.06	1016854	keystroke_Key.backspace	Key.backspace	n/a
508.473	0.074	1016946	keystroke_y	y	n/a
508.668	0.134	1017336	keystroke_l	l	n/a
508.817	0.105	1017634	keystroke_o	o	n/a
