onset	duration	sample	value	key	prompt_text
3.304	16.3275	6608	prompt	n/a	the quick brown fox jumps over a lazy dog\n
5.785	0.073	11570	keystroke_t	t	n/a
5.873	0.105	11746	keystroke_h	h	n/a
5.993	0.165	11986	keystroke_e	e	n/a
6.173	0.1065	12346	keystroke_Key.space	Key.space	n/a
6.3695	0.15	12739	keystroke_q	q	n/a
6.5645	0.0745	13129	keystroke_u	u	n/a
6.789	0.0605	13578	keystroke_i	i	n/a
6.9545	0.165	13909	keystroke_c	c	n/a
7.9445	0.105	15889	keystroke_k	k	n/a
8.1535	0.121	16307	keystroke_Key.space	Key.space	n/a
8.6495	0.09	17299	keystroke_b	b	n/a
8.7995	0.135	17599	keystroke_r	r	n/a
8.9495	0.09	17899	keystroke_o	o	n/a
9.0845	0.12	18169	keystroke_w	w	n/a
9.2345	0.06	18469	keystroke_n	n	n/a
9.3695	0.12	18739	keystroke_Key.space	Key.space	n/a
9.8485	0.075	19697	keystroke_b	b	n/a
9.9835	0.12	19967	keystroke_o	o	n/a
10.5085	0.015	21017	keystroke_Key.backspace	Key.backspace	n/a
10.614	0.06	21228	keystroke_Key.backspace	Key.backspace	n/a
10.854	0.12	21708	keystroke_f	f	n/a
11.064	0.105	22128	keystroke_o	o	n/a
11.259	0.135	22518	keystroke_x	x	n/a
11.424	0.12	22848	keystroke_Key.space	Key.space	n/a
11.724	0.1055	23448	keystroke_j	j	n/a
11.9045	0.09	23809	keystroke_u	u	n/a
12.1595	0.09	24319	keystroke_m	m	n/a
12.3395	0.09	24679	keystroke_p	p	n/a
12.4595	0.1345	24919	keystroke_s	s	n/a
12.6095	0.1045	25219	keystroke_Key.space	Key.space	n/a
12.774	0.105	25548	keystroke_o	o	n/a
12.924	0.1505	25848	keystroke_v	v	n/a
13.0445	0.15	26089	keystroke_e	e	n/a
13.1345	0.105	26269	keystroke_r	r	n/a
13.344	0.15	26688	keystroke_a	a	n/a
13.479	0.135	26958	keystroke_Key.space	Key.space	n/a
13.794	0.105	27588	keystroke_l	l	n/a
14.184	0.075	28368	keystroke_Key.backspace	Key.backspace	n/a
14.364	0.06	28728	keystroke_Key.backspace	Key.backspace	n/a
14.499	0.075	28998	keystroke_Key.backspace	Key.backspace	n/a
14.7695	0.105	29539	keystroke_Key.space	Key.space	n/a
14.9045	0.135	29809	keystroke_a	a	n/a
15.0695	0.135	30139	keystroke_Key.space	Key.space	n/a
15.4295	0.105	30859	keystroke_l	l	n/a
15.6245	0.1495	31249	keystroke_z	z	n/a
15.969	0.03	31938	keystroke_y	y	n/a
16.344	0.061	32688	keystroke_Key.backspace	Key.backspace	n/a
16.494	0.076	32988	keystroke_Key.backspace	Key.backspace	n/a
16.584	0.1055	33168	keystroke_a	a	n/a
16.8395	0.15	33679	keystroke_z	z	n/a
16.9745	0.09	33949	keystroke_y	y	n/a
17.184	0.105	34368	keystroke_Key.space	Key.space	n/a
17.4695	0.075	34939	keystroke_s	s	n/a
18.009	0.075	36018	keystroke_Key.backspace	Key.backspace	n/a
18.444	0.135	36888	keystroke_d	d	n/a
19.059	0.09	38118	keystroke_o	o	n/a
19.239	0.105	38478	keystroke_g	g	n/a
19.539	0.09	39078	keystroke_Key.enter	Key.enter	n/a
19.6355	6.7905	39271	prompt	n/a	simulations leads tape baker\n
20.4095	0.135	40819	keystroke_s	s	n/a
20.515	0.1045	41030	keystroke_i	i	n/a
20.7545	0.09	41509	keystroke_m	m	n/a
20.995	0.059	41990	keystroke_u	u	n/a
21.219	0.1055	42438	keystroke_l	l	n/a
21.3395	0.105	42679	keystroke_a	a	n/a
21.4895	0.105	42979	keystroke_t	t	n/a
21.609	0.2255	43218	keystroke_i	i	n/a
21.669	0.1505	43338	keystroke_o	o	n/a
21.759	0.1355	43518	keystroke_n	n	n/a
21.8645	0.15	43729	keystroke_s	s	n/a
21.9845	0.135	43969	keystroke_Key.space	Key.space	n/a
22.2995	0.09	44599	keystroke_l	l	n/a
22.4495	0.15	44899	keystroke_e	e	n/a
22.6145	0.12	45229	keystroke_a	a	n/a
22.7945	0.105	45589	keystroke_d	d	n/a
23.0195	0.105	46039	keystroke_s	s	n/a
23.2145	0.105	46429	keystroke_Key.space	Key.space	n/a
23.4845	0.12	46969	keystroke_a	a	n/a
23.9495	0.105	47899	keystroke_Key.backspace	Key.backspace	n/a
24.1145	0.135	48229	keystroke_t	t	n/a
24.5045	0.12	49009	keystroke_a	a	n/a
24.7595	0.09	49519	keystroke_p	p	n/a
25.0295	0.1195	50059	keystroke_e	e	n/a
25.164	0.12	50328	keystroke_Key.space	Key.space	n/a
25.449	0.09	50898	keystroke_b	b	n/a
25.675	0.105	51350	keystroke_a	a	n/a
25.84	0.105	51680	keystroke_k	k	n/a
25.99	0.1795	51980	keystroke_e	e	n/a
26.1245	0.12	52249	keystroke_r	r	n/a
26.3495	0.075	52699	keystroke_Key.enter	Key.enter	n/a
26.431	7.18	52862	prompt	n/a	i cookie suppliers tracked\n
27.0845	0.12	54169	keystroke_i	i	n/a
27.3395	0.135	54679	keystroke_Key.space	Key.space	n/a
27.6095	0.1345	55219	keystroke_c	c	n/a
27.759	0.075	55518	keystroke_o	o	n/a
27.924	0.075	55848	keystroke_o	o	n/a
28.135	0.089	56270	keystroke_k	k	n/a
28.914	0.1205	57828	keystroke_i	i	n/a
29.319	0.1805	58638	keystroke_e	e	n/a
29.5295	0.1345	59059	keystroke_Key.space	Key.space	n/a
29.814	0.165	59628	keystroke_s	s	n/a
29.934	0.105	59868	keystroke_u	u	n/a
30.279	0.075	60558	keystroke_p	p	n/a
30.429	0.075	60858	keystroke_p	p	n/a
30.624	0.09	61248	keystroke_l	l	n/a
30.804	0.105	61608	keystroke_i	i	n/a
30.999	0.195	61998	keystroke_e	e	n/a
31.12	0.135	62240	keystroke_r	r	n/a
31.27	0.149	62540	keystroke_s	s	n/a
31.389	0.12	62778	keystroke_Key.space	Key.space	n/a
31.764	0.061	63528	keystroke_t	t	n/a
31.93	0.149	63860	keystroke_r	r	n/a
32.109	0.12	64218	keystroke_a	a	n/a
32.4845	0.15	64969	keystroke_c	c	n/a
32.6945	0.12	65389	keystroke_k	k	n/a
32.9045	0.075	65809	keystroke_e	e	n/a
33.1	0.074	66200	keystroke_d	d	n/a
33.534	0.075	67068	keystroke_Key.enter	Key.enter	n/a
33.6145	9.117	67229	prompt	n/a	poor veterans corporations destination\n
34.419	0.09	68838	keystroke_p	p	n/a
34.704	0.06	69408	keystroke_o	o	n/a
34.855	0.074	69710	keystroke_o	o	n/a
35.034	0.135	70068	keystroke_r	r	n/a
35.5745	0.105	71149	keystroke_Key.space	Key.space	n/a
35.8295	0.09	71659	keystroke_v	v	n/a
36.0395	0.12	72079	keystroke_e	e	n/a
36.6245	0.105	73249	keystroke_t	t	n/a
36.7895	0.15	73579	keystroke_e	e	n/a
36.8945	0.135	73789	keystroke_r	r	n/a
37.2395	0.105	74479	keystroke_a	a	n/a
37.4195	0.09	74839	keystroke_n	n	n/a
37.5845	0.135	75169	keystroke_s	s	n/a
37.7945	0.12	75589	keystroke_Key.space	Key.space	n/a
38.1545	0.12	76309	keystroke_c	c	n/a
38.3795	0.12	76759	keystroke_o	o	n/a
38.5595	0.105	77119	keystroke_r	r	n/a
38.7545	0.075	77509	keystroke_p	p	n/a
38.9645	0.105	77929	keystroke_o	o	n/a
39.1145	0.18	78229	keystroke_r	r	n/a
39.3245	0.165	78649	keystroke_a	a	n/a
39.4745	0.15	78949	keystroke_t	t	n/a
39.6845	0.24	79369	keystroke_i	i	n/a
39.7595	0.15	79519	keystroke_o	o	n/a
39.8495	0.135	79699	keystroke_n	n	n/a
39.9695	0.135	79939	keystroke_s	s	n/a
40.0895	0.105	80179	keystroke_Key.space	Key.space	n/a
40.2695	0.075	80539	keystroke_d	d	n/a
40.4495	0.06	80899	keystroke_e	e	n/a
40.6445	0.12	81289	keystroke_s	s	n/a
41.1095	0.105	82219	keystroke_t	t	n/a
41.2145	0.075	82429	keystroke_i	i	n/a
41.4545	0.105	82909	keystroke_n	n	n/a
41.6195	0.1055	83239	keystroke_a	a	n/a
41.755	0.09	83510	keystroke_t	t	n/a
41.92	0.225	83840	keystroke_i	i	n/a
41.995	0.135	83990	keystroke_o	o	n/a
42.055	0.165	84110	keystroke_n	n	n/a
42.6545	0.075	85309	keystroke_Key.enter	Key.enter	n/a
42.734	6.192	85468	prompt	n/a	junior stones decide results\n
43.405	0.134	86810	keystroke_j	j	n/a
43.6	0.0895	87200	keystroke_u	u	n/a
43.8095	0.105	87619	keystroke_n	n	n/a
44.0345	0.09	88069	keystroke_i	i	n/a
44.2295	0.105	88459	keystroke_o	o	n/a
44.3945	0.15	88789	keystroke_r	r	n/a
44.5145	0.135	89029	keystroke_Key.space	Key.space	n/a
44.7845	0.06	89569	keystroke_s	s	n/a
45.1595	0.09	90319	keystroke_t	t	n/a
45.2945	0.165	90589	keystroke_o	o	n/a
45.4145	0.15	90829	keystroke_n	n	n/a
45.6095	0.1195	91219	keystroke_e	e	n/a
45.759	0.135	91518	keystroke_s	s	n/a
45.939	0.1205	91878	keystroke_Key.space	Key.space	n/a
46.2095	0.06	92419	keystroke_d	d	n/a
46.3745	0.045	92749	keystroke_e	e	n/a
46.5845	0.105	93169	keystroke_c	c	n/a
46.75	0.075	93500	keystroke_i	i	n/a
46.885	0.09	93770	keystroke_d	d	n/a
47.1095	0.06	94219	keystroke_e	e	n/a
47.2445	0.12	94489	keystroke_Key.space	Key.space	n/a
47.455	0.135	94910	keystroke_r	r	n/a
47.56	0.1645	95120	keystroke_e	e	n/a
47.8895	0.135	95779	keystroke_s	s	n/a
48.0395	0.075	96079	keystroke_u	u	n/a
48.25	0.09	96500	keystroke_l	l	n/a
48.37	0.105	96740	keystroke_t	t	n/a
48.61	0.1195	97220	keystroke_s	s	n/a
48.8495	0.075	97699	keystroke_Key.enter	Key.enter	n/a
48.9295	18.717	97859	prompt	n/a	she'll installed symposium initial\n
49.765	0.105	99530	keystroke_s	s	n/a
49.885	0.09	99770	keystroke_h	h	n/a
50.005	0.12	100010	keystroke_e	e	n/a
50.335	0.075	100670	keystroke_'	'	n/a
50.9645	0.075	101929	keystroke_l	l	n/a
51.0545	0.03	102109	keystroke_l	l	n/a
51.2045	0.105	102409	keystroke_Key.space	Key.space	n/a
51.3395	0.18	102679	keystroke_i	i	n/a
51.4445	0.15	102889	keystroke_n	n	n/a
51.6095	0.0905	103219	keystroke_s	s	n/a
51.7745	0.18	103549	keystroke_t	t	n/a
51.9095	0.12	103819	keystroke_a	a	n/a
52.0595	0.075	104119	keystroke_l	l	n/a
52.2245	0.0605	104449	keystroke_l	l	n/a
52.285	0.105	104570	keystroke_e	e	n/a
52.495	0.18	104990	keystroke_d	d	n/a
52.63	0.12	105260	keystroke_Key.space	Key.space	n/a
52.8395	0.135	105679	keystroke_s	s	n/a
53.0045	0.1055	106009	keystroke_u	u	n/a
53.485	0.104	106970	keystroke_m	m	n/a
53.905	0.075	107810	keystroke_p	p	n/a
54.115	0.09	108230	keystroke_o	o	n/a
54.46	0.12	108920	keystroke_s	s	n/a
54.625	0.105	109250	keystroke_i	i	n/a
54.909	0.091	109818	keystroke_u	u	n/a
55.315	0.09	110630	keystroke_m	m	n/a
56.4395	0.09	112879	keystroke_Key.space	Key.space	n/a
56.62	0.165	113240	keystroke_i	i	n/a
56.725	0.195	113450	keystroke_n	n	n/a
58.6445	0.045	117289	keystroke_Key.backspace	Key.backspace	n/a
58.8245	0.06	117649	keystroke_Key.backspace	Key.backspace	n/a
59.0345	0.045	118069	keystroke_Key.backspace	Key.backspace	n/a
59.2145	0.06	118429	keystroke_Key.backspace	Key.backspace	n/a
59.4095	0.045	118819	keystroke_Key.backspace	Key.backspace	n/a
59.5895	0.06	119179	keystroke_Key.backspace	Key.backspace	n/a
59.7695	0.06	119539	keystroke_Key.backspace	Key.backspace	n/a
59.9645	0.045	119929	keystroke_Key.backspace	Key.backspace	n/a
60.175	0.06	120350	keystroke_Key.backspace	Key.backspace	n/a
60.4	0.075	120800	keystroke_Key.backspace	Key.backspace	n/a
60.79	0.045	121580	keystroke_Key.backspace	Key.backspace	n/a
61.39	0.045	122780	keystroke_y	y	n/a
61.765	0.075	123530	keystroke_m	m	n/a
62.11	0.075	124220	keystroke_p	p	n/a
62.35	0.0745	124700	keystroke_o	o	n/a
63.52	0.105	127040	keystroke_s	s	n/a
63.85	0.09	127700	keystroke_i	i	n/a
64.09	0.06	128180	keystroke_u	u	n/a
64.45	0.075	128900	keystroke_m	m	n/a
64.795	0.135	129590	keystroke_Key.space	Key.space	n/a
65.1695	0.091	130339	keystroke_i	i	n/a
65.3645	0.09	130729	keystroke_n	n	n/a
65.6645	0.105	131329	keystroke_t	t	n/a
66.1145	0.075	132229	keystroke_Key.backspace	Key.backspace	n/a
66.3845	0.09	132769	keystroke_i	i	n/a
66.6405	0.15	133281	keystroke_t	t	n/a
66.8045	0.075	133609	keystroke_i	i	n/a
67.0295	0.105	134059	keystroke_a	a	n/a
67.1955	0.104	134391	keystroke_l	l	n/a
67.57	0.075	135140	keystroke_Key.enter	Key.enter	n/a
67.65	12.207	135300	prompt	n/a	battery account frequency progressive\n
68.4245	0.105	136849	keystroke_b	b	n/a
68.6195	0.09	137239	keystroke_e	e	n/a
69.0395	0.076	138079	keystroke_a	a	n/a
69.4895	0.075	138979	keystroke_Key.backspace	Key.backspace	n/a
69.6695	0.075	139339	keystroke_t	t	n/a
69.8045	0.1055	139609	keystroke_t	t	n/a
70.12	0.075	140240	keystroke_Key.backspace	Key.backspace	n/a
70.27	0.075	140540	keystroke_Key.backspace	Key.backspace	n/a
70.42	0.075	140840	keystroke_Key.backspace	Key.backspace	n/a
70.615	0.09	141230	keystroke_a	a	n/a
70.87	0.075	141740	keystroke_t	t	n/a
71.02	0.1045	142040	keystroke_t	t	n/a
71.1995	0.165	142399	keystroke_e	e	n/a
71.3195	0.135	142639	keystroke_r	r	n/a
71.5595	0.075	143119	keystroke_y	y	n/a
71.7695	0.105	143539	keystroke_Key.space	Key.space	n/a
71.905	0.09	143810	keystroke_a	a	n/a
72.115	0.105	144230	keystroke_c	c	n/a
72.31	0.105	144620	keystroke_c	c	n/a
72.46	0.225	144920	keystroke_o	o	n/a
72.52	0.21	145040	keystroke_u	u	n/a
72.61	0.15	145220	keystroke_n	n	n/a
72.715	0.15	145430	keystroke_t	t	n/a
72.85	0.135	145700	keystroke_Key.space	Key.space	n/a
73.51	0.105	147020	keystroke_f	f	n/a
73.7645	0.135	147529	keystroke_r	r	n/a
73.8695	0.165	147739	keystroke_e	e	n/a
74.2445	0.09	148489	keystroke_q	q	n/a
74.3945	0.075	148789	keystroke_u	u	n/a
74.5295	0.151	149059	keystroke_e	e	n/a
74.695	0.12	149390	keystroke_n	n	n/a
74.92	0.1195	149840	keystroke_c	c	n/a
75.01	0.0595	150020	keystroke_e	e	n/a
75.4595	0.075	150919	keystroke_Key.backspace	Key.backspace	n/a
75.775	0.045	151550	keystroke_y	y	n/a
76	0.1345	152000	keystroke_Key.space	Key.space	n/a
76.2245	0.09	152449	keystroke_p	p	n/a
76.4045	0.105	152809	keystroke_r	r	n/a
76.4945	0.09	152989	keystroke_o	o	n/a
76.7495	0.105	153499	keystroke_g	g	n/a
76.9895	0.135	153979	keystroke_r	r	n/a
77.2005	0.119	154401	keystroke_e	e	n/a
77.9795	0.165	155959	keystroke_s	s	n/a
78.2495	0.12	156499	keystroke_s	s	n/a
78.5795	0.075	157159	keystroke_i	i	n/a
78.775	0.164	157550	keystroke_v	v	n/a
78.895	0.135	157790	keystroke_e	e	n/a
79.7645	0.09	159529	keystroke_Key.enter	Key.enter	n/a
79.8615	13.7045	159723	prompt	n/a	relationships voyeurweb customer killed\n
80.7395	0.135	161479	keystroke_r	r	n/a
80.8145	0.135	161629	keystroke_e	e	n/a
81.0095	0.1205	162019	keystroke_l	l	n/a
81.175	0.09	162350	keystroke_a	a	n/a
81.28	0.135	162560	keystroke_t	t	n/a
81.43	0.1945	162860	keystroke_i	i	n/a
81.4895	0.105	162979	keystroke_o	o	n/a
81.5345	0.165	163069	keystroke_n	n	n/a
81.7005	0.119	163401	keystroke_s	s	n/a
81.8645	0.105	163729	keystroke_h	h	n/a
82.0895	0.075	164179	keystroke_o	o	n/a
82.9895	0.0595	165979	keystroke_Key.backspace	Key.backspace	n/a
83.335	0.075	166670	keystroke_i	i	n/a
83.529	0.09	167058	keystroke_p	p	n/a
83.679	0.165	167358	keystroke_s	s	n/a
83.874	0.15	167748	keystroke_Key.space	Key.space	n/a
84.729	0.15	169458	keystroke_v	v	n/a
84.895	0.1045	169790	keystroke_o	o	n/a
85.615	0.15	171230	keystroke_y	y	n/a
86.155	0.195	172310	keystroke_e	e	n/a
87.9395	0.105	175879	keystroke_u	u	n/a
88.2695	0.105	176539	keystroke_r	r	n/a
88.585	0.12	177170	keystroke_w	w	n/a
88.855	0.09	177710	keystroke_e	e	n/a
89.23	0.15	178460	keystroke_b	b	n/a
89.605	0.135	179210	keystroke_Key.space	Key.space	n/a
89.8745	0.165	179749	keystroke_c	c	n/a
90.1445	0.12	180289	keystroke_u	u	n/a
90.3395	0.105	180679	keystroke_s	s	n/a
90.5345	0.12	181069	keystroke_t	t	n/a
91.345	0.075	182690	keystroke_o	o	n/a
91.645	0.1345	183290	keystroke_m	m	n/a
91.7645	0.18	183529	keystroke_e	e	n/a
91.8545	0.165	183709	keystroke_r	r	n/a
91.9745	0.135	183949	keystroke_Key.space	Key.space	n/a
92.3195	0.0755	184639	keystroke_k	k	n/a
92.5	0.075	185000	keystroke_i	i	n/a
92.725	0.075	185450	keystroke_l	l	n/a
92.875	0.075	185750	keystroke_l	l	n/a
93.04	0.105	186080	keystroke_e	e	n/a
93.25	0.09	186500	keystroke_d	d	n/a
93.475	0.09	186950	keystroke_Key.enter	Key.enter	n/a
93.569	8.742	187138	prompt	n/a	farming declared students gulf\n
94.4495	0.0905	188899	keystroke_f	f	n/a
94.615	0.105	189230	keystroke_r	r	n/a
94.735	0.135	189470	keystroke_a	a	n/a
94.96	0.075	189920	keystroke_m	m	n/a
95.185	0.18	190370	keystroke_i	i	n/a
95.275	0.15	190550	keystroke_n	n	n/a
95.38	0.18	190760	keystroke_g	g	n/a
95.5745	0.12	191149	keystroke_Key.space	Key.space	n/a
95.8745	0.075	191749	keystroke_d	d	n/a
96.0545	0.06	192109	keystroke_e	e	n/a
96.49	0.105	192980	keystroke_l	l	n/a
96.91	0.06	193820	keystroke_Key.backspace	Key.backspace	n/a
97.045	0.15	194090	keystroke_c	c	n/a
97.18	0.12	194360	keystroke_l	l	n/a
97.285	0.09	194570	keystroke_a	a	n/a
97.45	0.09	194900	keystroke_r	r	n/a
97.66	0.09	195320	keystroke_e	e	n/a
97.9	0.0895	195800	keystroke_d	d	n/a
98.1545	0.1205	196309	keystroke_Key.space	Key.space	n/a
98.6045	0.105	197209	keystroke_s	s	n/a
98.8145	0.105	197629	keystroke_t	t	n/a
99.0245	0.09	198049	keystroke_u	u	n/a
99.189	0.105	198378	keystroke_d	d	n/a
99.37	0.104	198740	keystroke_e	e	n/a
99.519	0.105	199038	keystroke_n	n	n/a
99.64	0.105	199280	keystroke_t	t	n/a
99.834	0.181	199668	keystroke_s	s	n/a
99.9995	0.1345	199999	keystroke_Key.space	Key.space	n/a
100.9145	0.226	201829	keystroke_g	g	n/a
101.1555	0.014	202311	keystroke_u	u	n/a
101.1845	0.015	202369	keystroke_l	l	n/a
101.5595	0.075	203119	keystroke_h	h	n/a
102.235	0.075	204470	keystroke_Key.enter	Key.enter	n/a
102.314	11.0525	204628	prompt	n/a	yield who'll roommates stuck\n
104.3045	0.045	208609	keystroke_i	i	n/a
104.7095	0.075	209419	keystroke_Key.backspace	Key.backspace	n/a
105.025	0.0745	210050	keystroke_y	y	n/a
106.2245	0.075	212449	keystroke_i	i	n/a
106.4045	0.105	212809	keystroke_e	e	n/a
106.5995	0.09	213199	keystroke_l	l	n/a
106.8095	0.165	213619	keystroke_d	d	n/a
106.9895	0.0895	213979	keystroke_Key.space	Key.space	n/a
107.139	0.106	214278	keystroke_w	w	n/a
107.29	0.119	214580	keystroke_h	h	n/a
107.335	0.119	214670	keystroke_o	o	n/a
107.68	0.104	215360	keystroke_'	'	n/a
108.264	0.091	216528	keystroke_l	l	n/a
108.43	0.075	216860	keystroke_l	l	n/a
108.8045	0.135	217609	keystroke_Key.space	Key.space	n/a
109.345	0.135	218690	keystroke_r	r	n/a
109.51	0.105	219020	keystroke_o	o	n/a
109.765	0.105	219530	keystroke_o	o	n/a
110.05	0.0895	220100	keystroke_m	m	n/a
110.4545	0.12	220909	keystroke_m	m	n/a
110.6495	0.12	221299	keystroke_a	a	n/a
110.8145	0.165	221629	keystroke_t	t	n/a
110.9645	0.165	221929	keystroke_e	e	n/a
111.2345	0.15	222469	keystroke_s	s	n/a
111.6245	0.105	223249	keystroke_Key.space	Key.space	n/a
111.9545	0.105	223909	keystroke_s	s	n/a
112.1795	0.09	224359	keystroke_t	t	n/a
112.3295	0.09	224659	keystroke_u	u	n/a
112.5395	0.1355	225079	keystroke_c	c	n/a
112.93	0.075	225860	keystroke_k	k	n/a
113.275	0.09	226550	keystroke_Key.enter	Key.enter	n/a
113.3705	10.211	226741	prompt	n/a	expressed titans deadline definitions\n
114.055	0.105	228110	keystroke_e	e	n/a
114.28	0.1345	228560	keystroke_x	x	n/a
114.4295	0.12	228859	keystroke_p	p	n/a
114.6995	0.15	229399	keystroke_r	r	n/a
114.8945	0.12	229789	keystroke_e	e	n/a
115.1495	0.06	230299	keystroke_s	s	n/a
115.2995	0.09	230599	keystroke_s	s	n/a
115.555	0.06	231110	keystroke_e	e	n/a
115.765	0.15	231530	keystroke_d	d	n/a
116.2	0.075	232400	keystroke_Key.space	Key.space	n/a
116.725	0.105	233450	keystroke_t	t	n/a
116.965	0.105	233930	keystroke_i	i	n/a
117.37	0.15	234740	keystroke_t	t	n/a
117.595	0.135	235190	keystroke_a	a	n/a
118.27	0.105	236540	keystroke_n	n	n/a
118.54	0.06	237080	keystroke_i	i	n/a
118.96	0.075	237920	keystroke_Key.backspace	Key.backspace	n/a
119.095	0.135	238190	keystroke_s	s	n/a
119.26	0.12	238520	keystroke_Key.space	Key.space	n/a
119.44	0.075	238880	keystroke_d	d	n/a
119.6345	0.09	239269	keystroke_e	e	n/a
119.7095	0.18	239419	keystroke_a	a	n/a
119.8745	0.105	239749	keystroke_d	d	n/a
120.0095	0.135	240019	keystroke_l	l	n/a
120.1895	0.165	240379	keystroke_i	i	n/a
120.2495	0.18	240499	keystroke_n	n	n/a
120.4145	0.15	240829	keystroke_e	e	n/a
120.6695	0.135	241339	keystroke_Key.space	Key.space	n/a
121.1945	0.12	242389	keystroke_d	d	n/a
121.4045	0.09	242809	keystroke_e	e	n/a
121.6445	0.12	243289	keystroke_f	f	n/a
121.7795	0.105	243559	keystroke_i	i	n/a
122.0645	0.105	244129	keystroke_n	n	n/a
122.2445	0.09	244489	keystroke_i	i	n/a
122.65	0.105	245300	keystroke_t	t	n/a
122.785	0.24	245570	keystroke_i	i	n/a
122.905	0.1345	245810	keystroke_o	o	n/a
122.95	0.1345	245900	keystroke_n	n	n/a
123.1295	0.12	246259	keystroke_s	s	n/a
123.5045	0.075	247009	keystroke_Key.enter	Key.enter	n/a
123.5865	8.8445	247173	prompt	n/a	choices revenge platform why're\n
124.3445	0.1355	248689	keystroke_c	c	n/a
124.465	0.105	248930	keystroke_h	h	n/a
124.6	0.135	249200	keystroke_o	o	n/a
125.035	0.0895	250070	keystroke_i	i	n/a
125.2595	0.15	250519	keystroke_c	c	n/a
125.4245	0.12	250849	keystroke_e	e	n/a
125.6195	0.15	251239	keystroke_s	s	n/a
125.7995	0.105	251599	keystroke_Key.space	Key.space	n/a
126.025	0.12	252050	keystroke_r	r	n/a
126.1	0.12	252200	keystroke_e	e	n/a
126.385	0.135	252770	keystroke_v	v	n/a
126.595	0.09	253190	keystroke_e	e	n/a
126.715	0.12	253430	keystroke_n	n	n/a
126.895	0.105	253790	keystroke_g	g	n/a
127.09	0.195	254180	keystroke_e	e	n/a
127.8395	0.135	255679	keystroke_Key.space	Key.space	n/a
128.245	0.06	256490	keystroke_p	p	n/a
128.44	0.105	256880	keystroke_l	l	n/a
128.62	0.075	257240	keystroke_a	a	n/a
128.77	0.075	257540	keystroke_t	t	n/a
129.01	0.12	258020	keystroke_f	f	n/a
129.115	0.0895	258230	keystroke_o	o	n/a
129.2795	0.12	258559	keystroke_r	r	n/a
129.4595	0.09	258919	keystroke_m	m	n/a
129.8345	0.135	259669	keystroke_Key.space	Key.space	n/a
130.3595	0.135	260719	keystroke_w	w	n/a
130.51	0.1345	261020	keystroke_h	h	n/a
130.7795	0.09	261559	keystroke_y	y	n/a
131.7095	0.075	263419	keystroke_'	'	n/a
131.965	0.105	263930	keystroke_r	r	n/a
132.01	0.165	264020	keystroke_e	e	n/a
132.355	0.075	264710	keystroke_Key.enter	Key.enter	n/a
132.4345	10.4215	264869	prompt	n/a	explorer melbourne requires stations\n
133.3	0.09	266600	keystroke_e	e	n/a
133.54	0.12	267080	keystroke_x	x	n/a
133.72	0.09	267440	keystroke_p	p	n/a
133.915	0.09	267830	keystroke_l	l	n/a
134.125	0.09	268250	keystroke_o	o	n/a
134.545	0.0745	269090	keystroke_e	e	n/a
134.9945	0.0895	269989	keystroke_Key.backspace	Key.backspace	n/a
135.129	0.106	270258	keystroke_r	r	n/a
135.355	0.135	270710	keystroke_e	e	n/a
135.52	0.135	271040	keystroke_r	r	n/a
135.7295	0.135	271459	keystroke_Key.space	Key.space	n/a
136.0295	0.09	272059	keystroke_m	m	n/a
136.1645	0.135	272329	keystroke_e	e	n/a
136.3595	0.12	272719	keystroke_l	l	n/a
136.6895	0.105	273379	keystroke_b	b	n/a
137.0045	0.1205	274009	keystroke_o	o	n/a
137.335	0.075	274670	keystroke_u	u	n/a
137.68	0.1045	275360	keystroke_r	r	n/a
137.98	0.12	275960	keystroke_n	n	n/a
138.8045	0.015	277609	keystroke_e	e	n/a
139.18	0.09	278360	keystroke_Key.space	Key.space	n/a
139.6	0.1345	279200	keystroke_r	r	n/a
139.705	0.1645	279410	keystroke_e	e	n/a
139.9895	0.1355	279979	keystroke_q	q	n/a
140.2	0.105	280400	keystroke_u	u	n/a
140.41	0.09	280820	keystroke_i	i	n/a
140.605	0.1195	281210	keystroke_r	r	n/a
140.695	0.18	281390	keystroke_e	e	n/a
140.89	0.21	281780	keystroke_s	s	n/a
141.115	0.15	282230	keystroke_Key.space	Key.space	n/a
141.505	0.075	283010	keystroke_s	s	n/a
141.715	0.1345	283430	keystroke_t	t	n/a
141.924	0.15	283848	keystroke_a	a	n/a
142.104	0.135	284208	keystroke_t	t	n/a
142.3	0.24	284600	keystroke_i	i	n/a
142.344	0.181	284688	keystroke_o	o	n/a
142.405	0.18	284810	keystroke_n	n	n/a
142.57	0.105	285140	keystroke_s	s	n/a
142.7945	0.06	285589	keystroke_Key.enter	Key.enter	n/a
142.8595	5.9965	285719	prompt	n/a	cheat laser soma meat\n
143.635	0.135	287270	keystroke_c	c	n/a
143.755	0.1045	287510	keystroke_h	h	n/a
144.0995	0.0605	288199	keystroke_e	e	n/a
144.4	0.045	288800	keystroke_a	a	n/a
144.58	0.105	289160	keystroke_t	t	n/a
144.775	0.105	289550	keystroke_Key.space	Key.space	n/a
144.94	0.105	289880	keystroke_l	l	n/a
145.09	0.09	290180	keystroke_a	a	n/a
145.3	0.09	290600	keystroke_s	s	n/a
145.51	0.18	291020	keystroke_e	e	n/a
145.66	0.15	291320	keystroke_r	r	n/a
145.81	0.06	291620	keystroke_Key.space	Key.space	n/a
145.93	0.135	291860	keystroke_s	s	n/a
146.125	0.15	292250	keystroke_o	o	n/a
146.545	0.12	293090	keystroke_m	m	n/a
147.25	0.1345	294500	keystroke_a	a	n/a
147.6095	0.09	295219	keystroke_Key.space	Key.space	n/a
147.9845	0.09	295969	keystroke_m	m	n/a
148.1195	0.12	296239	keystroke_e	e	n/a
148.2245	0.1355	296449	keystroke_a	a	n/a
148.51	0.09	297020	keystroke_t	t	n/a
148.78	0.075	297560	keystroke_Key.enter	Key.enter	n/a
148.86	11.141	297720	prompt	n/a	receipt amounts facilities preparation\n
149.725	0.135	299450	keystroke_r	r	n/a
149.8	0.15	299600	keystroke_e	e	n/a
150.1	0.135	300200	keystroke_c	c	n/a
150.34	0.105	300680	keystroke_e	e	n/a
151.015	0.1655	302030	keystroke_i	i	n/a
151.2395	0.09	302479	keystroke_p	p	n/a
151.5095	0.105	303019	keystroke_t	t	n/a
151.8845	0.15	303769	keystroke_Key.space	Key.space	n/a
152.2895	0.135	304579	keystroke_a	a	n/a
152.5145	0.105	305029	keystroke_m	m	n/a
152.8145	0.1655	305629	keystroke_o	o	n/a
152.89	0.15	305780	keystroke_u	u	n/a
153.025	0.15	306050	keystroke_n	n	n/a
153.205	0.135	306410	keystroke_t	t	n/a
153.37	0.165	306740	keystroke_s	s	n/a
153.55	0.165	307100	keystroke_Key.space	Key.space	n/a
154.06	0.135	308120	keystroke_f	f	n/a
154.225	0.135	308450	keystroke_a	a	n/a
154.405	0.135	308810	keystroke_c	c	n/a
154.555	0.09	309110	keystroke_i	i	n/a
154.75	0.09	309500	keystroke_l	l	n/a
154.9	0.105	309800	keystroke_i	i	n/a
155.155	0.105	310310	keystroke_t	t	n/a
156.31	0.06	312620	keystroke_i	i	n/a
156.4755	0.119	312951	keystroke_e	e	n/a
156.6095	0.15	313219	keystroke_s	s	n/a
156.7895	0.15	313579	keystroke_Key.space	Key.space	n/a
157.405	0.09	314810	keystroke_p	p	n/a
157.78	0.135	315560	keystroke_r	r	n/a
157.855	0.18	315710	keystroke_e	e	n/a
158.155	0.09	316310	keystroke_p	p	n/a
158.305	0.12	316610	keystroke_a	a	n/a
158.5745	0.09	317149	keystroke_r	r	n/a
159.115	0.105	318230	keystroke_a	a	n/a
159.355	0.09	318710	keystroke_t	t	n/a
159.49	0.21	318980	keystroke_i	i	n/a
159.565	0.135	319130	keystroke_o	o	n/a
159.61	0.135	319220	keystroke_n	n	n/a
159.94	0.06	319880	keystroke_Key.enter	Key.enter	n/a
160.0045	10.077	320009	prompt	n/a	print administration navigator reuters\n
160.674	0.09	321348	keystroke_p	p	n/a
160.8545	0.106	321709	keystroke_r	r	n/a
160.9755	0.194	321951	keystroke_i	i	n/a
161.0655	0.179	322131	keystroke_n	n	n/a
161.2145	0.12	322429	keystroke_t	t	n/a
161.3195	0.135	322639	keystroke_Key.space	Key.space	n/a
161.5445	0.1505	323089	keystroke_a	a	n/a
161.725	0.149	323450	keystroke_d	d	n/a
162.0095	0.075	324019	keystroke_m	m	n/a
162.1595	0.0905	324319	keystroke_i	i	n/a
162.715	0.0895	325430	keystroke_n	n	n/a
163.1795	0.1055	326359	keystroke_i	i	n/a
163.435	0.105	326870	keystroke_s	s	n/a
163.6895	0.09	327379	keystroke_t	t	n/a
163.8545	0.195	327709	keystroke_r	r	n/a
164.0045	0.12	328009	keystroke_a	a	n/a
164.1845	0.12	328369	keystroke_t	t	n/a
164.3195	0.195	328639	keystroke_i	i	n/a
164.3645	0.135	328729	keystroke_o	o	n/a
164.4545	0.135	328909	keystroke_n	n	n/a
164.68	0.15	329360	keystroke_Key.space	Key.space	n/a
165.28	0.09	330560	keystroke_n	n	n/a
165.46	0.12	330920	keystroke_a	a	n/a
165.7745	0.12	331549	keystroke_v	v	n/a
166.4345	0.075	332869	keystroke_i	i	n/a
166.825	0.09	333650	keystroke_g	g	n/a
167.095	0.105	334190	keystroke_a	a	n/a
167.3495	0.105	334699	keystroke_t	t	n/a
167.559	0.106	335118	keystroke_o	o	n/a
167.77	0.12	335540	keystroke_r	r	n/a
167.935	0.15	335870	keystroke_Key.space	Key.space	n/a
168.265	0.15	336530	keystroke_r	r	n/a
168.37	0.18	336740	keystroke_e	e	n/a
168.88	0.075	337760	keystroke_u	u	n/a
169.2095	0.09	338419	keystroke_t	t	n/a
169.3005	0.224	338601	keystroke_e	e	n/a
169.4495	0.135	338899	keystroke_r	r	n/a
169.6145	0.165	339229	keystroke_s	s	n/a
169.9895	0.09	339979	keystroke_Key.enter	Key.enter	n/a
170.0845	9.6265	340169	prompt	n/a	sole retail lists trek\n
170.965	0.135	341930	keystroke_s	s	n/a
171.055	0.105	342110	keystroke_l	l	n/a
171.37	0.1345	342740	keystroke_e	e	n/a
171.759	0.06	343518	keystroke_Key.backspace	Key.backspace	n/a
171.88	0.075	343760	keystroke_Key.backspace	Key.backspace	n/a
172.15	0.074	344300	keystroke_i	i	n/a
172.405	0.09	344810	keystroke_l	l	n/a
172.555	0.135	345110	keystroke_e	e	n/a
172.659	0.106	345318	keystroke_Key.space	Key.space	n/a
172.8995	0.09	345799	keystroke_r	r	n/a
173.199	0.0605	346398	keystroke_Key.backspace	Key.backspace	n/a
173.3345	0.06	346669	keystroke_Key.backspace	Key.backspace	n/a
173.4995	0.06	346999	keystroke_Key.backspace	Key.backspace	n/a
173.695	0.0595	347390	keystroke_Key.backspace	Key.backspace	n/a
174.0395	0.0605	348079	keystroke_Key.backspace	Key.backspace	n/a
174.625	0.075	349250	keystroke_o	o	n/a
174.82	0.105	349640	keystroke_l	l	n/a
174.97	0.1495	349940	keystroke_e	e	n/a
175.0895	0.135	350179	keystroke_Key.space	Key.space	n/a
175.4345	0.135	350869	keystroke_r	r	n/a
175.4795	0.165	350959	keystroke_e	e	n/a
175.7795	0.15	351559	keystroke_t	t	n/a
175.9745	0.195	351949	keystroke_a	a	n/a
176.5145	0.06	353029	keystroke_i	i	n/a
176.7245	0.075	353449	keystroke_l	l	n/a
176.9345	0.105	353869	keystroke_Key.space	Key.space	n/a
177.2495	0.09	354499	keystroke_l	l	n/a
177.445	0.075	354890	keystroke_i	i	n/a
177.61	0.12	355220	keystroke_s	s	n/a
177.715	0.135	355430	keystroke_t	t	n/a
177.94	0.135	355880	keystroke_s	s	n/a
178.39	0.09	356780	keystroke_Key.space	Key.space	n/a
178.644	0.076	357288	keystroke_t	t	n/a
178.795	0.15	357590	keystroke_r	r	n/a
179.005	0.12	358010	keystroke_e	e	n/a
179.35	0.075	358700	keystroke_k	k	n/a
179.65	0.06	359300	keystroke_Key.enter	Key.enter	n/a
179.714	10.827	359428	prompt	n/a	merely substantial infections need\n
180.46	0.09	360920	keystroke_m	m	n/a
180.835	0.15	361670	keystroke_e	e	n/a
180.97	0.15	361940	keystroke_r	r	n/a
181.105	0.135	362210	keystroke_e	e	n/a
181.345	0.09	362690	keystroke_l	l	n/a
181.525	0.12	363050	keystroke_y	y	n/a
181.7795	0.15	363559	keystroke_Key.space	Key.space	n/a
182.2295	0.105	364459	keystroke_s	s	n/a
182.3495	0.105	364699	keystroke_u	u	n/a
182.4845	0.12	364969	keystroke_s	s	n/a
182.8445	0.09	365689	keystroke_b	b	n/a
184.074	0.06	368148	keystroke_Key.backspace	Key.backspace	n/a
184.225	0.0745	368450	keystroke_Key.backspace	Key.backspace	n/a
184.7795	0.06	369559	keystroke_n	n	n/a
185.0795	0.075	370159	keystroke_s	s	n/a
185.5595	0.12	371119	keystroke_t	t	n/a
185.7245	0.121	371449	keystroke_a	a	n/a
185.8745	0.12	371749	keystroke_n	n	n/a
186.3995	0.09	372799	keystroke_t	t	n/a
186.4745	0.075	372949	keystroke_i	i	n/a
186.7445	0.135	373489	keystroke_a	a	n/a
186.9995	0.0905	373999	keystroke_l	l	n/a
187.495	0.12	374990	keystroke_Key.space	Key.space	n/a
187.8545	0.18	375709	keystroke_i	i	n/a
187.9595	0.15	375919	keystroke_n	n	n/a
188.1545	0.12	376309	keystroke_f	f	n/a
188.3045	0.075	376609	keystroke_e	e	n/a
188.5145	0.09	377029	keystroke_c	c	n/a
188.7545	0.135	377509	keystroke_t	t	n/a
188.9945	0.255	377989	keystroke_i	i	n/a
189.0245	0.165	378049	keystroke_o	o	n/a
189.1445	0.15	378289	keystroke_n	n	n/a
189.3395	0.12	378679	keystroke_s	s	n/a
189.5045	0.165	379009	keystroke_Key.space	Key.space	n/a
189.7595	0.105	379519	keystroke_n	n	n/a
189.8795	0.12	379759	keystroke_e	e	n/a
190.0745	0.105	380149	keystroke_e	e	n/a
190.2395	0.165	380479	keystroke_d	d	n/a
190.4345	0.1055	380869	keystroke_Key.enter	Key.enter	n/a
190.5455	7.6305	381091	prompt	n/a	does meets lycos studios\n
191.29	0.135	382580	keystroke_d	d	n/a
191.44	0.075	382880	keystroke_o	o	n/a
191.62	0.1045	383240	keystroke_e	e	n/a
191.6945	0.195	383389	keystroke_s	s	n/a
191.9045	0.12	383809	keystroke_Key.space	Key.space	n/a
192.2195	0.075	384439	keystroke_n	n	n/a
192.6395	0.06	385279	keystroke_Key.backspace	Key.backspace	n/a
192.8945	0.075	385789	keystroke_m	m	n/a
193.1195	0.06	386239	keystroke_e	e	n/a
193.3	0.105	386600	keystroke_e	e	n/a
193.48	0.105	386960	keystroke_t	t	n/a
193.99	0.135	387980	keystroke_s	s	n/a
194.274	0.12	388548	keystroke_Key.space	Key.space	n/a
194.604	0.105	389208	keystroke_l	l	n/a
194.979	0.0755	389958	keystroke_y	y	n/a
195.1895	0.105	390379	keystroke_c	c	n/a
195.3845	0.09	390769	keystroke_o	o	n/a
195.6095	0.1055	391219	keystroke_s	s	n/a
196.1945	0.12	392389	keystroke_Key.space	Key.space	n/a
196.4195	0.09	392839	keystroke_s	s	n/a
196.6295	0.09	393259	keystroke_t	t	n/a
196.7645	0.105	393529	keystroke_u	u	n/a
196.9445	0.1205	393889	keystroke_d	d	n/a
197.095	0.09	394190	keystroke_i	i	n/a
197.335	0.075	394670	keystroke_o	o	n/a
197.845	0.09	395690	keystroke_s	s	n/a
198.1	0.075	396200	keystroke_Key.enter	Key.enter	n/a
198.1785	6.523	396357	prompt	n/a	msie where'd brooks hull\n
198.9545	0.09	397909	keystroke_m	m	n/a
199.3895	0.075	398779	keystroke_e	e	n/a
199.7045	0.0905	399409	keystroke_i	i	n/a
199.885	0.075	399770	keystroke_s	s	n/a
200.2895	0.105	400579	keystroke_Key.space	Key.space	n/a
200.59	0.135	401180	keystroke_w	w	n/a
200.71	0.075	401420	keystroke_h	h	n/a
200.83	0.15	401660	keystroke_e	e	n/a
200.965	0.1345	401930	keystroke_r	r	n/a
201.04	0.1495	402080	keystroke_e	e	n/a
201.2945	0.12	402589	keystroke_'	'	n/a
201.4295	0.15	402859	keystroke_d	d	n/a
201.6845	0.1355	403369	keystroke_Key.space	Key.space	n/a
202	0.074	404000	keystroke_b	b	n/a
202.134	0.121	404268	keystroke_r	r	n/a
202.375	0.075	404750	keystroke_o	o	n/a
202.51	0.09	405020	keystroke_o	o	n/a
202.72	0.09	405440	keystroke_k	k	n/a
203.2	0.135	406400	keystroke_s	s	n/a
203.44	0.135	406880	keystroke_Key.space	Key.space	n/a
203.77	0.075	407540	keystroke_h	h	n/a
203.965	0.075	407930	keystroke_u	u	n/a
204.2045	0.075	408409	keystroke_l	l	n/a
204.3695	0.06	408739	keystroke_l	l	n/a
204.6245	0.075	409249	keystroke_Key.enter	Key.enter	n/a
204.704	8.577	409408	prompt	n/a	awards carolina knitting finances\n
205.4345	0.105	410869	keystroke_a	a	n/a
205.7195	0.09	411439	keystroke_w	w	n/a
205.8845	0.136	411769	keystroke_a	a	n/a
206.1095	0.105	412219	keystroke_r	r	n/a
206.3495	0.135	412699	keystroke_d	d	n/a
206.6345	0.09	413269	keystroke_s	s	n/a
206.8745	0.12	413749	keystroke_Key.space	Key.space	n/a
207.415	0.105	414830	keystroke_c	c	n/a
207.64	0.075	415280	keystroke_a	a	n/a
207.865	0.105	415730	keystroke_r	r	n/a
208.15	0.105	416300	keystroke_o	o	n/a
208.42	0.075	416840	keystroke_l	l	n/a
208.6	0.075	417200	keystroke_i	i	n/a
208.78	0.105	417560	keystroke_n	n	n/a
208.945	0.105	417890	keystroke_a	a	n/a
209.02	0.1495	418040	keystroke_Key.space	Key.space	n/a
209.4245	0.03	418849	keystroke_k	k	n/a
209.7245	0.075	419449	keystroke_n	n	n/a
209.9195	0.075	419839	keystroke_i	i	n/a
210.1595	0.06	420319	keystroke_t	t	n/a
210.2945	0.0905	420589	keystroke_t	t	n/a
210.445	0.195	420890	keystroke_i	i	n/a
210.565	0.165	421130	keystroke_n	n	n/a
210.775	0.135	421550	keystroke_g	g	n/a
211.06	0.105	422120	keystroke_Key.space	Key.space	n/a
211.285	0.12	422570	keystroke_f	f	n/a
211.51	0.09	423020	keystroke_i	i	n/a
211.75	0.09	423500	keystroke_n	n	n/a
212.125	0.105	424250	keystroke_a	a	n/a
212.275	0.0895	424550	keystroke_n	n	n/a
212.5145	0.12	425029	keystroke_c	c	n/a
212.7545	0.075	425509	keystroke_e	e	n/a
212.9345	0.09	425869	keystroke_s	s	n/a
213.2195	0.06	426439	keystroke_Key.enter	Key.enter	n/a
213.284	8.068	426568	prompt	n/a	accent databases editorial glance\n
214.195	0.105	428390	keystroke_a	a	n/a
214.435	0.075	428870	keystroke_c	c	n/a
214.585	0.105	429170	keystroke_c	c	n/a
214.825	0.09	429650	keystroke_e	e	n/a
215.0795	0.105	430159	keystroke_n	n	n/a
215.2895	0.12	430579	keystroke_t	t	n/a
215.4545	0.135	430909	keystroke_Key.space	Key.space	n/a
215.9195	0.12	431839	keystroke_d	d	n/a
216.0695	0.135	432139	keystroke_a	a	n/a
216.3245	0.135	432649	keystroke_t	t	n/a
216.4445	0.12	432889	keystroke_a	a	n/a
216.7295	0.09	433459	keystroke_n	n	n/a
216.8645	0.12	433729	keystroke_a	a	n/a
217.0445	0.12	434089	keystroke_s	s	n/a
217.1495	0.105	434299	keystroke_e	e	n/a
217.3295	0.105	434659	keystroke_s	s	n/a
217.645	0.12	435290	keystroke_Key.space	Key.space	n/a
217.9	0.075	435800	keystroke_e	e	n/a
218.095	0.09	436190	keystroke_d	d	n/a
218.155	0.09	436310	keystroke_i	i	n/a
218.635	0.105	437270	keystroke_t	t	n/a
218.815	0.105	437630	keystroke_o	o	n/a
219.025	0.09	438050	keystroke_i	i	n/a
219.1895	0.135	438379	keystroke_r	r	n/a
219.3695	0.135	438739	keystroke_a	a	n/a
219.5495	0.0905	439099	keystroke_l	l	n/a
219.6995	0.1205	439399	keystroke_Key.space	Key.space	n/a
219.9995	0.135	439999	keystroke_g	g	n/a
220.195	0.0895	440390	keystroke_l	l	n/a
220.4495	0.1205	440899	keystroke_a	a	n/a
220.705	0.12	441410	keystroke_n	n	n/a
220.8995	0.1205	441799	keystroke_c	c	n/a
221.0045	0.15	442009	keystroke_e	e	n/a
221.2895	0.06	442579	keystroke_Key.enter	Key.enter	n/a
221.355	12.761	442710	prompt	n/a	specialists direct nominated headquarters\n
222.325	0.09	444650	keystroke_s	s	n/a
222.505	0.12	445010	keystroke_p	p	n/a
222.61	0.075	445220	keystroke_e	e	n/a
222.82	0.15	445640	keystroke_c	c	n/a
222.94	0.09	445880	keystroke_i	i	n/a
223.18	0.0895	446360	keystroke_a	a	n/a
224.335	0.09	448670	keystroke_l	l	n/a
224.56	0.0745	449120	keystroke_i	i	n/a
224.7545	0.105	449509	keystroke_s	s	n/a
224.9495	0.09	449899	keystroke_t	t	n/a
225.1895	0.09	450379	keystroke_s	s	n/a
225.954	0.151	451908	keystroke_Key.space	Key.space	n/a
226.36	0.09	452720	keystroke_d	d	n/a
226.69	0.075	453380	keystroke_i	i	n/a
226.975	0.12	453950	keystroke_r	r	n/a
227.17	0.105	454340	keystroke_e	e	n/a
227.4245	0.105	454849	keystroke_t	t	n/a
227.95	0.045	455900	keystroke_Key.backspace	Key.backspace	n/a
228.01	0.105	456020	keystroke_c	c	n/a
228.25	0.12	456500	keystroke_t	t	n/a
228.58	0.119	457160	keystroke_Key.space	Key.space	n/a
229.015	0.09	458030	keystroke_n	n	n/a
229.495	0.135	458990	keystroke_o	o	n/a
229.87	0.075	459740	keystroke_m	m	n/a
230.08	0.075	460160	keystroke_i	i	n/a
230.38	0.135	460760	keystroke_n	n	n/a
230.59	0.105	461180	keystroke_a	a	n/a
230.785	0.105	461570	keystroke_t	t	n/a
230.875	0.12	461750	keystroke_e	e	n/a
231.085	0.18	462170	keystroke_d	d	n/a
231.235	0.1645	462470	keystroke_Key.space	Key.space	n/a
231.4595	0.12	462919	keystroke_h	h	n/a
231.6245	0.06	463249	keystroke_e	e	n/a
231.6695	0.1955	463339	keystroke_a	a	n/a
231.88	0.15	463760	keystroke_d	d	n/a
232.419	0.121	464838	keystroke_q	q	n/a
232.555	0.105	465110	keystroke_u	u	n/a
232.734	0.1205	465468	keystroke_a	a	n/a
233.0645	0.12	466129	keystroke_r	r	n/a
233.3045	0.12	466609	keystroke_t	t	n/a
233.4395	0.165	466879	keystroke_e	e	n/a
233.5895	0.105	467179	keystroke_r	r	n/a
233.7395	0.135	467479	keystroke_s	s	n/a
234.0395	0.075	468079	keystroke_Key.enter	Key.enter	n/a
234.1195	16.107	468239	prompt	n/a	fujitsu aren't workshop guidance\n
235.1045	0.135	470209	keystroke_f	f	n/a
235.3295	0.105	470659	keystroke_u	u	n/a
236.68	0.075	473360	keystroke_j	j	n/a
236.83	0.105	473660	keystroke_i	i	n/a
237.265	0.12	474530	keystroke_s	s	n/a
237.73	0.09	475460	keystroke_Key.backspace	Key.backspace	n/a
237.8645	0.12	475729	keystroke_t	t	n/a
238.3895	0.15	476779	keystroke_s	s	n/a
238.5695	0.06	477139	keystroke_u	u	n/a
238.7795	0.12	477559	keystroke_Key.space	Key.space	n/a
238.9745	0.165	477949	keystroke_a	a	n/a
239.1545	0.12	478309	keystroke_r	r	n/a
239.1995	0.15	478399	keystroke_e	e	n/a
239.3945	0.09	478789	keystroke_n	n	n/a
239.6345	0.105	479269	keystroke_'	'	n/a
239.7995	0.135	479599	keystroke_y	y	n/a
240.4595	0.09	480919	keystroke_Key.backspace	Key.backspace	n/a
240.5795	0.195	481159	keystroke_t	t	n/a
240.9095	0.1205	481819	keystroke_Key.space	Key.space	n/a
241.4195	0.12	482839	keystroke_w	w	n/a
241.5695	0.075	483139	keystroke_o	o	n/a
241.6745	0.12	483349	keystroke_r	r	n/a
241.8095	0.105	483619	keystroke_k	k	n/a
242.0495	0.12	484099	keystroke_s	s	n/a
242.1995	0.1805	484399	keystroke_h	h	n/a
242.365	0.135	484730	keystroke_o	o	n/a
242.65	0.105	485300	keystroke_p	p	n/a
242.905	0.135	485810	keystroke_Key.space	Key.space	n/a
243.25	0.135	486500	keystroke_d	d	n/a
243.4	0.09	486800	keystroke_u	u	n/a
243.7145	0.06	487429	keystroke_i	i	n/a
243.9245	0.075	487849	keystroke_d	d	n/a
244.1345	0.09	488269	keystroke_e	e	n/a
244.7345	0.09	489469	keystroke_Key.backspace	Key.backspace	n/a
244.9295	0.06	489859	keystroke_Key.backspace	Key.backspace	n/a
245.08	0.059	490160	keystroke_Key.backspace	Key.backspace	n/a
245.229	0.06	490458	keystroke_Key.backspace	Key.backspace	n/a
245.349	0.09	490698	keystroke_Key.backspace	Key.backspace	n/a
246.34	0.045	492680	keystroke_g	g	n/a
246.5195	0.075	493039	keystroke_u	u	n/a
246.7295	0.075	493459	keystroke_i	i	n/a
246.9395	0.075	493879	keystroke_d	d	n/a
249.5975	0.057	499195	keystroke_a	a	n/a
249.6995	0.105	499399	keystroke_n	n	n/a
249.8645	0.105	499729	keystroke_c	c	n/a
249.9245	0.12	499849	keystroke_e	e	n/a
250.1795	0.045	500359	keystroke_Key.enter	Key.enter	n/a
250.2295	8.982	500459	prompt	n/a	originally tropical visiting their\n
250.975	0.1195	501950	keystroke_o	o	n/a
251.08	0.135	502160	keystroke_r	r	n/a
251.23	0.12	502460	keystroke_i	i	n/a
251.47	0.12	502940	keystroke_g	g	n/a
251.635	0.0745	503270	keystroke_i	i	n/a
251.8445	0.12	503689	keystroke_n	n	n/a
252.0095	0.12	504019	keystroke_a	a	n/a
252.1595	0.075	504319	keystroke_l	l	n/a
252.2945	0.09	504589	keystroke_l	l	n/a
252.3995	0.165	504799	keystroke_y	y	n/a
252.5795	0.09	505159	keystroke_Key.space	Key.space	n/a
253.2545	0.1055	506509	keystroke_t	t	n/a
253.42	0.15	506840	keystroke_r	r	n/a
254.6345	0.0905	509269	keystroke_o	o	n/a
254.905	0.105	509810	keystroke_p	p	n/a
255.52	0.075	511040	keystroke_i	i	n/a
255.76	0.15	511520	keystroke_c	c	n/a
255.925	0.089	511850	keystroke_a	a	n/a
256.029	0.121	512058	keystroke_l	l	n/a
256.284	0.09	512568	keystroke_Key.space	Key.space	n/a
256.66	0.104	513320	keystroke_v	v	n/a
256.779	0.091	513558	keystroke_i	i	n/a
256.9	0.119	513800	keystroke_s	s	n/a
257.11	0.09	514220	keystroke_i	i	n/a
257.334	0.091	514668	keystroke_t	t	n/a
257.499	0.2405	514998	keystroke_i	i	n/a
257.6205	0.179	515241	keystroke_n	n	n/a
257.755	0.135	515510	keystroke_g	g	n/a
257.8745	0.1205	515749	keystroke_Key.space	Key.space	n/a
258.2645	0.1195	516529	keystroke_t	t	n/a
258.339	0.09	516678	keystroke_h	h	n/a
258.52	0.105	517040	keystroke_e	e	n/a
258.6845	0.09	517369	keystroke_i	i	n/a
258.8495	0.105	517699	keystroke_r	r	n/a
259.1345	0.075	518269	keystroke_Key.enter	Key.enter	n/a
259.215	9.2065	518430	prompt	n/a	hong celebs efficiency days\n
259.93	0.1195	519860	keystroke_h	h	n/a
260.1845	0.12	520369	keystroke_o	o	n/a
260.2145	0.165	520429	keystroke_n	n	n/a
260.3645	0.195	520729	keystroke_g	g	n/a
260.5895	0.135	521179	keystroke_Key.space	Key.space	n/a
260.8895	0.105	521779	keystroke_c	c	n/a
261.115	0.105	522230	keystroke_e	e	n/a
261.295	0.1045	522590	keystroke_l	l	n/a
261.4445	0.09	522889	keystroke_e	e	n/a
261.925	0.09	523850	keystroke_b	b	n/a
262.165	0.105	524330	keystroke_s	s	n/a
262.945	0.1345	525890	keystroke_Key.space	Key.space	n/a
263.3195	0.1055	526639	keystroke_d	d	n/a
263.74	0.075	527480	keystroke_Key.backspace	Key.backspace	n/a
263.845	0.105	527690	keystroke_e	e	n/a
264.13	0.075	528260	keystroke_d	d	n/a
264.325	0.104	528650	keystroke_d	d	n/a
265.135	0.075	530270	keystroke_Key.backspace	Key.backspace	n/a
265.3	0.06	530600	keystroke_Key.backspace	Key.backspace	n/a
265.45	0.03	530900	keystroke_f	f	n/a
265.57	0.09	531140	keystroke_f	f	n/a
265.8095	0.09	531619	keystroke_i	i	n/a
266.0645	0.135	532129	keystroke_c	c	n/a
266.2155	0.089	532431	keystroke_i	i	n/a
266.6655	0.074	533331	keystroke_e	e	n/a
266.7555	0.119	533511	keystroke_n	n	n/a
266.9805	0.135	533961	keystroke_c	c	n/a
267.1745	0.106	534349	keystroke_y	y	n/a
267.3245	0.12	534649	keystroke_Key.space	Key.space	n/a
267.5045	0.181	535009	keystroke_d	d	n/a
267.6705	0.135	535341	keystroke_a	a	n/a
267.8195	0.091	535639	keystroke_y	y	n/a
268.0305	0.119	536061	keystroke_s	s	n/a
268.315	0.105	536630	keystroke_Key.enter	Key.enter	n/a
268.424	10.8125	536848	prompt	n/a	mothers shower toolkit solutions\n
269.095	0.105	538190	keystroke_m	m	n/a
269.305	0.09	538610	keystroke_o	o	n/a
269.5	0.15	539000	keystroke_t	t	n/a
269.665	0.18	539330	keystroke_e	e	n/a
269.695	0.12	539390	keystroke_h	h	n/a
269.86	0.15	539720	keystroke_r	r	n/a
270.505	0.06	541010	keystroke_Key.backspace	Key.backspace	n/a
270.64	0.075	541280	keystroke_Key.backspace	Key.backspace	n/a
270.775	0.105	541550	keystroke_Key.backspace	Key.backspace	n/a
271.075	0.105	542150	keystroke_h	h	n/a
271.225	0.1955	542450	keystroke_e	e	n/a
271.3455	0.165	542691	keystroke_r	r	n/a
271.7055	0.165	543411	keystroke_s	s	n/a
271.9145	0.166	543829	keystroke_Key.space	Key.space	n/a
272.3205	0.089	544641	keystroke_s	s	n/a
272.4105	0.18	544821	keystroke_h	h	n/a
272.4855	0.195	544971	keystroke_o	o	n/a
272.6355	0.119	545271	keystroke_w	w	n/a
272.7995	0.196	545599	keystroke_e	e	n/a
272.9045	0.1655	545809	keystroke_r	r	n/a
273.055	0.135	546110	keystroke_Key.space	Key.space	n/a
273.325	0.105	546650	keystroke_t	t	n/a
273.46	0.075	546920	keystroke_o	o	n/a
273.94	0.09	547880	keystroke_o	o	n/a
274.165	0.105	548330	keystroke_l	l	n/a
274.645	0.045	549290	keystroke_j	j	n/a
275.335	0.075	550670	keystroke_Key.backspace	Key.backspace	n/a
275.8155	0.075	551631	keystroke_k	k	n/a
276.0245	0.076	552049	keystroke_i	i	n/a
276.3705	0.119	552741	keystroke_t	t	n/a
276.6845	0.135	553369	keystroke_Key.space	Key.space	n/a
277.0755	0.134	554151	keystroke_c	c	n/a
277.1955	0.089	554391	keystroke_o	o	n/a
277.4645	0.09	554929	keystroke_l	l	n/a
278.0955	0.074	556191	keystroke_u	u	n/a
278.3945	0.121	556789	keystroke_t	t	n/a
278.5295	0.24	557059	keystroke_i	i	n/a
278.6205	0.164	557241	keystroke_o	o	n/a
278.6955	0.149	557391	keystroke_n	n	n/a
278.8745	0.12	557749	keystroke_s	s	n/a
279.1605	0.074	558321	keystroke_Key.enter	Key.enter	n/a
279.2395	7.3465	558479	prompt	n/a	that ment genius holder\n
279.9405	0.135	559881	keystroke_t	t	n/a
280.0455	0.15	560091	keystroke_h	h	n/a
280.1805	0.15	560361	keystroke_a	a	n/a
280.2855	0.15	560571	keystroke_t	t	n/a
280.4045	0.12	560809	keystroke_Key.space	Key.space	n/a
280.6745	0.09	561349	keystroke_m	m	n/a
280.8245	0.135	561649	keystroke_e	e	n/a
280.9745	0.09	561949	keystroke_n	n	n/a
281.1245	0.18	562249	keystroke_t	t	n/a
281.3195	0.12	562639	keystroke_Key.space	Key.space	n/a
281.7245	0.135	563449	keystroke_g	g	n/a
282.0395	0.12	564079	keystroke_e	e	n/a
282.3245	0.06	564649	keystroke_n	n	n/a
282.5645	0.09	565129	keystroke_u	u	n/a
283.8395	0.075	567679	keystroke_Key.backspace	Key.backspace	n/a
284.4995	0.075	568999	keystroke_i	i	n/a
284.6945	0.1055	569389	keystroke_u	u	n/a
284.845	0.15	569690	keystroke_s	s	n/a
284.965	0.165	569930	keystroke_Key.space	Key.space	n/a
285.415	0.165	570830	keystroke_h	h	n/a
285.55	0.105	571100	keystroke_o	o	n/a
285.775	0.09	571550	keystroke_l	l	n/a
285.9105	0.1045	571821	keystroke_d	d	n/a
286.135	0.195	572270	keystroke_e	e	n/a
286.255	0.15	572510	keystroke_r	r	n/a
286.57	0.015	573140	keystroke_Key.enter	Key.enter	n/a
286.589	10.287	573178	prompt	n/a	lifestyle lebanon opened relationship\n
287.3945	0.09	574789	keystroke_l	l	n/a
287.575	0.105	575150	keystroke_i	i	n/a
287.7105	0.1495	575421	keystroke_f	f	n/a
287.83	0.135	575660	keystroke_e	e	n/a
288.175	0.075	576350	keystroke_s	s	n/a
288.4	0.075	576800	keystroke_t	t	n/a
288.625	0.0745	577250	keystroke_y	y	n/a
288.8645	0.09	577729	keystroke_l	l	n/a
289.0145	0.1505	578029	keystroke_e	e	n/a
289.135	0.135	578270	keystroke_Key.space	Key.space	n/a
289.585	0.09	579170	keystroke_l	l	n/a
289.84	0.12	579680	keystroke_e	e	n/a
290.23	0.09	580460	keystroke_b	b	n/a
290.455	0.105	580910	keystroke_a	a	n/a
290.68	0.06	581360	keystroke_n	n	n/a
290.905	0.09	581810	keystroke_o	o	n/a
291.1145	0.105	582229	keystroke_n	n	n/a
291.3095	0.121	582619	keystroke_Key.space	Key.space	n/a
291.5655	0.105	583131	keystroke_o	o	n/a
291.7755	0.105	583551	keystroke_p	p	n/a
291.985	0.06	583970	keystroke_e	e	n/a
292.3605	0.0745	584721	keystroke_n	n	n/a
292.57	0.0755	585140	keystroke_e	e	n/a
292.78	0.12	585560	keystroke_d	d	n/a
292.9155	0.1045	585831	keystroke_Key.space	Key.space	n/a
293.215	0.15	586430	keystroke_r	r	n/a
293.305	0.165	586610	keystroke_e	e	n/a
293.5155	0.105	587031	keystroke_l	l	n/a
293.6805	0.105	587361	keystroke_a	a	n/a
293.8305	0.12	587661	keystroke_t	t	n/a
293.9955	0.2245	587991	keystroke_i	i	n/a
294.0855	0.1495	588171	keystroke_o	o	n/a
294.13	0.18	588260	keystroke_n	n	n/a
294.295	0.12	588590	keystroke_s	s	n/a
294.52	0.105	589040	keystroke_h	h	n/a
294.73	0.09	589460	keystroke_o	o	n/a
295.015	0.075	590030	keystroke_p	p	n/a
295.495	0.06	590990	keystroke_Key.backspace	Key.backspace	n/a
295.615	0.06	591230	keystroke_Key.backspace	Key.backspace	n/a
296.32	0.06	592640	keystroke_i	i	n/a
296.5	0.045	593000	keystroke_p	p	n/a
296.8305	0.045	593661	keystroke_Key.enter	Key.enter	n/a
296.8805	6.671	593761	prompt	n/a	urgent digit inform tourism\n
297.67	0.09	595340	keystroke_u	u	n/a
297.895	0.075	595790	keystroke_r	r	n/a
298.255	0.105	596510	keystroke_g	g	n/a
298.405	0.12	596810	keystroke_e	e	n/a
298.51	0.135	597020	keystroke_n	n	n/a
298.66	0.15	597320	keystroke_t	t	n/a
298.795	0.135	597590	keystroke_Key.space	Key.space	n/a
299.05	0.12	598100	keystroke_d	d	n/a
299.2	0.06	598400	keystroke_i	i	n/a
299.335	0.135	598670	keystroke_g	g	n/a
299.5	0.075	599000	keystroke_i	i	n/a
299.605	0.18	599210	keystroke_t	t	n/a
299.875	0.105	599750	keystroke_Key.space	Key.space	n/a
300.55	0.105	601100	keystroke_i	i	n/a
300.67	0.105	601340	keystroke_n	n	n/a
300.865	0.12	601730	keystroke_f	f	n/a
300.97	0.105	601940	keystroke_o	o	n/a
301.105	0.12	602210	keystroke_r	r	n/a
301.27	0.09	602540	keystroke_m	m	n/a
301.5105	0.119	603021	keystroke_Key.space	Key.space	n/a
301.9305	0.119	603861	keystroke_t	t	n/a
302.0645	0.225	604129	keystroke_o	o	n/a
302.1555	0.149	604311	keystroke_u	u	n/a
302.3195	0.12	604639	keystroke_r	r	n/a
302.6645	0.075	605329	keystroke_i	i	n/a
302.9195	0.135	605839	keystroke_s	s	n/a
303.1745	0.06	606349	keystroke_m	m	n/a
303.46	0.09	606920	keystroke_Key.enter	Key.enter	n/a
303.554	11.4275	607108	prompt	n/a	precious chaos deposit accessibility\n
304.375	0.09	608750	keystroke_p	p	n/a
304.675	0.135	609350	keystroke_r	r	n/a
304.765	0.12	609530	keystroke_e	e	n/a
305.1095	0.15	610219	keystroke_c	c	n/a
305.2445	0.09	610489	keystroke_i	i	n/a
305.5595	0.105	611119	keystroke_o	o	n/a
305.5745	0.105	611149	keystroke_u	u	n/a
305.7545	0.15	611509	keystroke_s	s	n/a
305.8595	0.12	611719	keystroke_Key.space	Key.space	n/a
306.2945	0.135	612589	keystroke_c	c	n/a
306.3995	0.105	612799	keystroke_h	h	n/a
306.5795	0.105	613159	keystroke_a	a	n/a
307.1355	0.105	614271	keystroke_o	o	n/a
307.3155	0.105	614631	keystroke_s	s	n/a
307.5845	0.121	615169	keystroke_Key.space	Key.space	n/a
307.8405	0.105	615681	keystroke_d	d	n/a
308.0505	0.0745	616101	keystroke_e	e	n/a
308.2	0.09	616400	keystroke_p	p	n/a
308.4105	0.075	616821	keystroke_o	o	n/a
308.6055	0.09	617211	keystroke_s	s	n/a
308.7405	0.09	617481	keystroke_i	i	n/a
308.9205	0.15	617841	keystroke_t	t	n/a
309.0995	0.12	618199	keystroke_Key.space	Key.space	n/a
309.4295	0.09	618859	keystroke_a	a	n/a
309.6695	0.075	619339	keystroke_c	c	n/a
309.8495	0.105	619699	keystroke_c	c	n/a
310.1655	0.105	620331	keystroke_e	e	n/a
310.5855	0.075	621171	keystroke_s	s	n/a
310.7345	0.091	621469	keystroke_s	s	n/a
311.7995	0.076	623599	keystroke_i	i	n/a
312.3255	0.119	624651	keystroke_b	b	n/a
313.7195	0.06	627439	keystroke_i	i	n/a
313.8995	0.09	627799	keystroke_l	l	n/a
314.2145	0.076	628429	keystroke_i	i	n/a
314.4095	0.105	628819	keystroke_t	t	n/a
314.59	0.06	629180	keystroke_y	y	n/a
314.905	0.075	629810	keystroke_Key.enter	Key.enter	n/a
314.9845	8.262	629969	prompt	n/a	franklin behavioral issued remark\n
315.775	0.135	631550	keystroke_f	f	n/a
315.97	0.15	631940	keystroke_r	r	n/a
316.165	0.165	632330	keystroke_a	a	n/a
316.48	0.105	632960	keystroke_n	n	n/a
316.75	0.09	633500	keystroke_k	k	n/a
317.005	0.09	634010	keystroke_l	l	n/a
317.215	0.09	634430	keystroke_i	i	n/a
317.5	0.12	635000	keystroke_n	n	n/a
317.71	0.15	635420	keystroke_Key.space	Key.space	n/a
317.935	0.105	635870	keystroke_b	b	n/a
318.07	0.135	636140	keystroke_e	e	n/a
318.31	0.1345	636620	keystroke_h	h	n/a
318.5495	0.12	637099	keystroke_a	a	n/a
318.9545	0.15	637909	keystroke_v	v	n/a
319.1645	0.12	638329	keystroke_i	i	n/a
319.4495	0.12	638899	keystroke_o	o	n/a
319.9455	0.119	639891	keystroke_r	r	n/a
320.3345	0.135	640669	keystroke_a	a	n/a
320.5295	0.106	641059	keystroke_l	l	n/a
320.7095	0.1205	641419	keystroke_Key.space	Key.space	n/a
320.89	0.075	641780	keystroke_i	i	n/a
321.07	0.0895	642140	keystroke_s	s	n/a
321.2345	0.1205	642469	keystroke_s	s	n/a
321.37	0.105	642740	keystroke_u	u	n/a
321.535	0.09	643070	keystroke_e	e	n/a
321.76	0.18	643520	keystroke_d	d	n/a
321.955	0.12	643910	keystroke_Key.space	Key.space	n/a
322.18	0.12	644360	keystroke_r	r	n/a
322.24	0.135	644480	keystroke_e	e	n/a
322.48	0.09	644960	keystroke_m	m	n/a
322.63	0.105	645260	keystroke_a	a	n/a
322.705	0.135	645410	keystroke_r	r	n/a
322.885	0.075	645770	keystroke_k	k	n/a
323.1545	0.09	646309	keystroke_Key.enter	Key.enter	n/a
323.249	6.6575	646498	prompt	n/a	exit associates jeans lucy\n
323.86	0.105	647720	keystroke_e	e	n/a
324.0845	0.135	648169	keystroke_x	x	n/a
324.2495	0.09	648499	keystroke_i	i	n/a
324.5205	0.15	649041	keystroke_t	t	n/a
324.7595	0.12	649519	keystroke_Key.space	Key.space	n/a
324.9995	0.121	649999	keystroke_a	a	n/a
325.3445	0.09	650689	keystroke_s	s	n/a
325.4955	0.134	650991	keystroke_s	s	n/a
325.7205	0.09	651441	keystroke_o	o	n/a
326.2605	0.164	652521	keystroke_c	c	n/a
326.4545	0.09	652909	keystroke_i	i	n/a
326.7105	0.074	653421	keystroke_a	a	n/a
326.935	0.075	653870	keystroke_t	t	n/a
326.965	0.135	653930	keystroke_e	e	n/a
327.19	0.135	654380	keystroke_s	s	n/a
327.43	0.12	654860	keystroke_Key.space	Key.space	n/a
327.7	0.105	655400	keystroke_j	j	n/a
327.895	0.09	655790	keystroke_e	e	n/a
328.03	0.135	656060	keystroke_a	a	n/a
328.2395	0.105	656479	keystroke_n	n	n/a
328.4495	0.1205	656899	keystroke_s	s	n/a
328.66	0.12	657320	keystroke_Key.space	Key.space	n/a
328.825	0.09	657650	keystroke_l	l	n/a
329.065	0.075	658130	keystroke_u	u	n/a
329.245	0.12	658490	keystroke_c	c	n/a
329.47	0.075	658940	keystroke_y	y	n/a
329.83	0.075	659660	keystroke_Key.enter	Key.enter	n/a
329.91	9.941	659820	prompt	n/a	advances junction ferrari clusters\n
330.52	0.105	661040	keystroke_a	a	n/a
330.685	0.135	661370	keystroke_d	d	n/a
331.105	0.135	662210	keystroke_v	v	n/a
331.285	0.135	662570	keystroke_a	a	n/a
331.48	0.12	662960	keystroke_n	n	n/a
331.645	0.105	663290	keystroke_c	c	n/a
331.735	0.15	663470	keystroke_e	e	n/a
331.915	0.18	663830	keystroke_s	s	n/a
332.125	0.15	664250	keystroke_Key.space	Key.space	n/a
332.44	0.12	664880	keystroke_j	j	n/a
332.62	0.075	665240	keystroke_u	u	n/a
332.8	0.09	665600	keystroke_n	n	n/a
332.98	0.135	665960	keystroke_c	c	n/a
333.265	0.09	666530	keystroke_t	t	n/a
333.43	0.21	666860	keystroke_i	i	n/a
333.49	0.1945	666980	keystroke_o	o	n/a
333.55	0.1795	667100	keystroke_n	n	n/a
333.7305	0.119	667461	keystroke_Key.space	Key.space	n/a
333.9545	0.12	667909	keystroke_f	f	n/a
334.1645	0.15	668329	keystroke_e	e	n/a
334.5095	0.09	669019	keystroke_r	r	n/a
334.6895	0.09	669379	keystroke_r	r	n/a
334.9445	0.12	669889	keystroke_a	a	n/a
335.2295	0.12	670459	keystroke_i	i	n/a
335.6495	0.075	671299	keystroke_Key.backspace	Key.backspace	n/a
335.7695	0.105	671539	keystroke_r	r	n/a
335.9345	0.09	671869	keystroke_i	i	n/a
336.4295	0.12	672859	keystroke_Key.space	Key.space	n/a
338.1245	0.15	676249	keystroke_c	c	n/a
338.4845	0.075	676969	keystroke_l	l	n/a
338.6945	0.09	677389	keystroke_u	u	n/a
338.8745	0.105	677749	keystroke_s	s	n/a
339.0695	0.105	678139	keystroke_t	t	n/a
339.1745	0.165	678349	keystroke_e	e	n/a
339.3095	0.135	678619	keystroke_r	r	n/a
339.4445	0.15	678889	keystroke_s	s	n/a
339.7745	0.075	679549	keystroke_Key.enter	Key.enter	n/a
339.855	6.5665	679710	prompt	n/a	concerning const albert door\n
340.6895	0.15	681379	keystroke_c	c	n/a
340.8545	0.15	681709	keystroke_o	o	n/a
340.9445	0.1655	681889	keystroke_n	n	n/a
341.6495	0.12	683299	keystroke_c	c	n/a
341.7995	0.1655	683599	keystroke_e	e	n/a
341.98	0.12	683960	keystroke_r	r	n/a
342.265	0.06	684530	keystroke_n	n	n/a
342.46	0.195	684920	keystroke_i	i	n/a
342.565	0.18	685130	keystroke_n	n	n/a
342.625	0.165	685250	keystroke_g	g	n/a
342.76	0.135	685520	keystroke_Key.space	Key.space	n/a
343.09	0.15	686180	keystroke_c	c	n/a
343.27	0.09	686540	keystroke_o	o	n/a
343.285	0.21	686570	keystroke_n	n	n/a
343.72	0.09	687440	keystroke_s	s	n/a
343.96	0.105	687920	keystroke_t	t	n/a
344.125	0.12	688250	keystroke_Key.space	Key.space	n/a
344.32	0.135	688640	keystroke_a	a	n/a
344.515	0.135	689030	keystroke_l	l	n/a
344.74	0.0745	689480	keystroke_b	b	n/a
344.965	0.1795	689930	keystroke_e	e	n/a
345.115	0.1195	690230	keystroke_r	r	n/a
345.3245	0.15	690649	keystroke_t	t	n/a
345.5045	0.12	691009	keystroke_Key.space	Key.space	n/a
345.7145	0.1355	691429	keystroke_d	d	n/a
345.8945	0.076	691789	keystroke_o	o	n/a
346.0455	0.075	692091	keystroke_o	o	n/a
346.1505	0.135	692301	keystroke_r	r	n/a
346.3305	0.09	692661	keystroke_Key.enter	Key.enter	n/a
346.4245	6.492	692849	prompt	n/a	stud weak third display\n
347.14	0.06	694280	keystroke_s	s	n/a
347.3205	0.105	694641	keystroke_t	t	n/a
347.7255	0.06	695451	keystroke_u	u	n/a
348.0105	0.105	696021	keystroke_d	d	n/a
348.3105	0.149	696621	keystroke_Key.space	Key.space	n/a
348.6255	0.105	697251	keystroke_w	w	n/a
348.7605	0.179	697521	keystroke_e	e	n/a
348.9105	0.15	697821	keystroke_a	a	n/a
349.1205	0.135	698241	keystroke_k	k	n/a
349.4955	0.135	698991	keystroke_Key.space	Key.space	n/a
350.0205	0.135	700041	keystroke_t	t	n/a
350.1705	0.074	700341	keystroke_h	h	n/a
350.2905	0.1045	700581	keystroke_i	i	n/a
350.44	0.105	700880	keystroke_r	r	n/a
350.71	0.165	701420	keystroke_d	d	n/a
350.89	0.105	701780	keystroke_Key.space	Key.space	n/a
351.085	0.09	702170	keystroke_d	d	n/a
351.715	0.105	703430	keystroke_i	i	n/a
351.82	0.12	703640	keystroke_s	s	n/a
352.075	0.06	704150	keystroke_p	p	n/a
352.255	0.075	704510	keystroke_l	l	n/a
352.375	0.09	704750	keystroke_a	a	n/a
352.57	0.06	705140	keystroke_y	y	n/a
352.8555	0.06	705711	keystroke_Key.enter	Key.enter	n/a
352.9195	10.1215	705839	prompt	n/a	explorer performing phrases flooring\n
353.6205	0.09	707241	keystroke_e	e	n/a
353.8305	0.18	707661	keystroke_x	x	n/a
354.0405	0.089	708081	keystroke_p	p	n/a
354.2495	0.075	708499	keystroke_l	l	n/a
354.4445	0.09	708889	keystroke_o	o	n/a
354.9245	0.09	709849	keystroke_r	r	n/a
355.1795	0.106	710359	keystroke_e	e	n/a
355.3905	0.135	710781	keystroke_r	r	n/a
355.5995	0.106	711199	keystroke_Key.space	Key.space	n/a
355.9005	0.1045	711801	keystroke_p	p	n/a
356.065	0.165	712130	keystroke_e	e	n/a
356.185	0.12	712370	keystroke_r	r	n/a
356.47	0.105	712940	keystroke_f	f	n/a
356.62	0.09	713240	keystroke_o	o	n/a
356.77	0.135	713540	keystroke_r	r	n/a
357.2045	0.1655	714409	keystroke_i	i	n/a
357.2945	0.1655	714589	keystroke_n	n	n/a
357.415	0.165	714830	keystroke_g	g	n/a
357.55	0.12	715100	keystroke_Key.space	Key.space	n/a
357.94	0.105	715880	keystroke_p	p	n/a
358.195	0.09	716390	keystroke_h	h	n/a
358.4795	0.12	716959	keystroke_r	r	n/a
358.6595	0.15	717319	keystroke_a	a	n/a
359.065	0.075	718130	keystroke_s	s	n/a
360.37	0.105	720740	keystroke_e	e	n/a
360.625	0.06	721250	keystroke_s	s	n/a
360.955	0.12	721910	keystroke_Key.space	Key.space	n/a
361.51	0.12	723020	keystroke_f	f	n/a
361.645	0.105	723290	keystroke_l	l	n/a
361.855	0.075	723710	keystroke_o	o	n/a
362.05	0.075	724100	keystroke_o	o	n/a
362.2	0.1495	724400	keystroke_r	r	n/a
362.4245	0.18	724849	keystroke_i	i	n/a
362.5295	0.15	725059	keystroke_n	n	n/a
362.6945	0.12	725389	keystroke_g	g	n/a
362.9645	0.0755	725929	keystroke_Key.enter	Key.enter	n/a
363.044	15.612	726088	prompt	n/a	outstanding ecology disaster merit\n
364.1795	0.24	728359	keystroke_o	o	n/a
364.2845	0.18	728569	keystroke_u	u	n/a
364.4345	0.135	728869	keystroke_t	t	n/a
364.6295	0.12	729259	keystroke_s	s	n/a
364.7945	0.15	729589	keystroke_t	t	n/a
366.895	0.12	733790	keystroke_a	a	n/a
367.03	0.12	734060	keystroke_n	n	n/a
367.135	0.135	734270	keystroke_d	d	n/a
367.3	0.21	734600	keystroke_i	i	n/a
367.39	0.165	734780	keystroke_n	n	n/a
367.48	0.165	734960	keystroke_g	g	n/a
367.615	0.105	735230	keystroke_Key.space	Key.space	n/a
367.8545	0.091	735709	keystroke_e	e	n/a
368.1105	0.12	736221	keystroke_c	c	n/a
368.2455	0.045	736491	keystroke_o	o	n/a
368.41	0.075	736820	keystroke_l	l	n/a
368.5905	0.075	737181	keystroke_o	o	n/a
368.7705	0.135	737541	keystroke_g	g	n/a
368.9205	0.09	737841	keystroke_y	y	n/a
369.13	0.105	738260	keystroke_Key.space	Key.space	n/a
369.385	0.105	738770	keystroke_d	d	n/a
369.475	0.075	738950	keystroke_i	i	n/a
369.595	0.105	739190	keystroke_s	s	n/a
370.045	0.105	740090	keystroke_a	a	n/a
370.645	0.15	741290	keystroke_t	t	n/a
370.87	0.18	741740	keystroke_e	e	n/a
371.08	0.135	742160	keystroke_r	r	n/a
372.22	0.075	744440	keystroke_Key.backspace	Key.backspace	n/a
372.37	0.09	744740	keystroke_Key.backspace	Key.backspace	n/a
372.52	0.09	745040	keystroke_Key.backspace	Key.backspace	n/a
372.73	0.105	745460	keystroke_s	s	n/a
373	0.135	746000	keystroke_t	t	n/a
373.15	0.195	746300	keystroke_e	e	n/a
373.27	0.135	746540	keystroke_r	r	n/a
374.92	0.135	749840	keystroke_Key.space	Key.space	n/a
375.07	0.105	750140	keystroke_n	n	n/a
375.19	0.12	750380	keystroke_e	e	n/a
375.34	0.135	750680	keystroke_r	r	n/a
375.505	0.105	751010	keystroke_i	i	n/a
375.955	0.06	751910	keystroke_t	t	n/a
376.375	0.0595	752750	keystroke_Key.backspace	Key.backspace	n/a
376.525	0.06	753050	keystroke_Key.backspace	Key.backspace	n/a
376.69	0.0595	753380	keystroke_Key.backspace	Key.backspace	n/a
376.8845	0.06	753769	keystroke_Key.backspace	Key.backspace	n/a
377.2445	0.061	754489	keystroke_Key.backspace	Key.backspace	n/a
377.695	0.075	755390	keystroke_m	m	n/a
377.86	0.1355	755720	keystroke_e	e	n/a
377.9805	0.135	755961	keystroke_r	r	n/a
378.175	0.075	756350	keystroke_i	i	n/a
378.355	0.105	756710	keystroke_t	t	n/a
378.58	0.075	757160	keystroke_Key.enter	Key.enter	n/a
378.6595	10.227	757319	prompt	n/a	commit joke groundwater savage\n
379.39	0.15	758780	keystroke_c	c	n/a
379.5555	0.0595	759111	keystroke_o	o	n/a
379.7655	0.045	759531	keystroke_m	m	n/a
379.8855	0.09	759771	keystroke_m	m	n/a
380.1105	0.06	760221	keystroke_i	i	n/a
380.3055	0.15	760611	keystroke_t	t	n/a
380.4555	0.09	760911	keystroke_Key.space	Key.space	n/a
380.7705	0.06	761541	keystroke_j	j	n/a
380.9955	0.0745	761991	keystroke_o	o	n/a
381.31	0.075	762620	keystroke_k	k	n/a
381.475	0.18	762950	keystroke_e	e	n/a
381.595	0.15	763190	keystroke_Key.space	Key.space	n/a
382.045	0.165	764090	keystroke_g	g	n/a
382.255	0.12	764510	keystroke_r	r	n/a
382.48	0.2255	764960	keystroke_o	o	n/a
382.54	0.2255	765080	keystroke_u	u	n/a
382.7805	0.15	765561	keystroke_d	d	n/a
383.305	0.075	766610	keystroke_Key.backspace	Key.backspace	n/a
383.83	0.075	767660	keystroke_n	n	n/a
384.1905	0.12	768381	keystroke_d	d	n/a
384.6845	0.12	769369	keystroke_w	w	n/a
384.8345	0.135	769669	keystroke_a	a	n/a
385.045	0.135	770090	keystroke_t	t	n/a
385.12	0.225	770240	keystroke_e	e	n/a
385.285	0.135	770570	keystroke_r	r	n/a
385.36	0.165	770720	keystroke_Key.space	Key.space	n/a
385.57	0.135	771140	keystroke_s	s	n/a
385.75	0.135	771500	keystroke_a	a	n/a
386.185	0.1045	772370	keystroke_a	a	n/a
386.4395	0.15	772879	keystroke_g	g	n/a
386.4995	0.165	772999	keystroke_e	e	n/a
386.8895	0.075	773779	keystroke_Key.backspace	Key.backspace	n/a
387.0545	0.06	774109	keystroke_Key.backspace	Key.backspace	n/a
387.2045	0.075	774409	keystroke_Key.backspace	Key.backspace	n/a
387.5045	0.105	775009	keystroke_a	a	n/a
387.8795	0.09	775759	keystroke_Key.backspace	Key.backspace	n/a
387.9845	0.135	775969	keystroke_v	v	n/a
388.1045	0.1355	776209	keystroke_a	a	n/a
388.435	0.12	776870	keystroke_g	g	n/a
388.51	0.165	777020	keystroke_e	e	n/a
388.81	0.075	777620	keystroke_Key.enter	Key.enter	n/a
388.8905	9.281	777781	prompt	n/a	oils varying warming pope\n
389.815	0.12	779630	keystroke_o	o	n/a
390.355	0.075	780710	keystroke_i	i	n/a
390.535	0.105	781070	keystroke_l	l	n/a
390.7	0.135	781400	keystroke_s	s	n/a
390.805	0.135	781610	keystroke_Key.space	Key.space	n/a
391.2255	0.12	782451	keystroke_v	v	n/a
391.3605	0.135	782721	keystroke_a	a	n/a
391.5555	0.135	783111	keystroke_r	r	n/a
391.8105	0.09	783621	keystroke_y	y	n/a
392.0655	0.2095	784131	keystroke_i	i	n/a
392.1555	0.1945	784311	keystroke_n	n	n/a
392.26	0.15	784520	keystroke_g	g	n/a
392.365	0.12	784730	keystroke_Key.space	Key.space	n/a
392.56	0.18	785120	keystroke_w	w	n/a
392.71	0.165	785420	keystroke_a	a	n/a
392.935	0.1205	785870	keystroke_r	r	n/a
393.1755	0.09	786351	keystroke_m	m	n/a
393.4305	0.194	786861	keystroke_i	i	n/a
393.5205	0.164	787041	keystroke_n	n	n/a
393.6395	0.135	787279	keystroke_g	g	n/a
394.0595	0.135	788119	keystroke_Key.space	Key.space	n/a
394.8105	0.089	789621	keystroke_p	p	n/a
396.2505	0.119	792501	keystroke_e	e	n/a
397.1495	0.06	794299	keystroke_Key.backspace	Key.backspace	n/a
397.4945	0.075	794989	keystroke_o	o	n/a
397.7195	0.075	795439	keystroke_p	p	n/a
397.8845	0.15	795769	keystroke_e	e	n/a
398.0795	0.09	796159	keystroke_Key.enter	Key.enter	n/a
398.1745	10.992	796349	prompt	n/a	month parade health could've\n
398.8295	0.09	797659	keystroke_m	m	n/a
398.9645	0.09	797929	keystroke_o	o	n/a
399.16	0.09	798320	keystroke_n	n	n/a
399.34	0.15	798680	keystroke_t	t	n/a
399.475	0.09	798950	keystroke_h	h	n/a
399.67	0.09	799340	keystroke_Key.space	Key.space	n/a
399.865	0.09	799730	keystroke_p	p	n/a
399.97	0.105	799940	keystroke_r	r	n/a
400.8995	0.06	801799	keystroke_Key.backspace	Key.backspace	n/a
400.9745	0.12	801949	keystroke_a	a	n/a
401.1845	0.1205	802369	keystroke_r	r	n/a
401.3805	0.1045	802761	keystroke_a	a	n/a
401.5905	0.09	803181	keystroke_d	d	n/a
402.2805	0.1045	804561	keystroke_e	e	n/a
402.5055	0.1195	805011	keystroke_Key.space	Key.space	n/a
402.82	0.09	805640	keystroke_h	h	n/a
402.9405	0.1345	805881	keystroke_e	e	n/a
403.0605	0.149	806121	keystroke_a	a	n/a
403.3295	0.09	806659	keystroke_l	l	n/a
403.5245	0.12	807049	keystroke_t	t	n/a
403.6455	0.119	807291	keystroke_h	h	n/a
403.8545	0.105	807709	keystroke_Key.space	Key.space	n/a
404.1245	0.1355	808249	keystroke_c	c	n/a
404.2745	0.21	808549	keystroke_o	o	n/a
404.3195	0.195	808639	keystroke_u	u	n/a
404.3945	0.135	808789	keystroke_n	n	n/a
405.0245	0.075	810049	keystroke_Key.backspace	Key.backspace	n/a
405.4445	0.06	810889	keystroke_;	;	n/a
406.1195	0.075	812239	keystroke_Key.backspace	Key.backspace	n/a
407.1695	0.1055	814339	keystroke_l	l	n/a
407.305	0.12	814610	keystroke_d	d	n/a
408.46	0.09	816920	keystroke_'	'	n/a
408.7	0.165	817400	keystroke_v	v	n/a
408.805	0.165	817610	keystroke_e	e	n/a
409.105	0.06	818210	keystroke_Key.enter	Key.enter	n/a
409.169	7.8875	818338	prompt	n/a	dennis believed warming wagner\n
410.0645	0.15	820129	keystroke_d	d	n/a
410.3945	0.121	820789	keystroke_e	e	n/a
410.5895	0.09	821179	keystroke_n	n	n/a
410.7395	0.09	821479	keystroke_n	n	n/a
410.9495	0.09	821899	keystroke_i	i	n/a
411.0995	0.181	822199	keystroke_s	s	n/a
411.2195	0.165	822439	keystroke_Key.space	Key.space	n/a
411.5045	0.075	823009	keystroke_b	b	n/a
411.6395	0.12	823279	keystroke_e	e	n/a
411.8045	0.09	823609	keystroke_l	l	n/a
411.9845	0.105	823969	keystroke_i	i	n/a
412.2555	0.119	824511	keystroke_e	e	n/a
412.5395	0.12	825079	keystroke_v	v	n/a
412.75	0.09	825500	keystroke_e	e	n/a
412.96	0.1205	825920	keystroke_d	d	n/a
413.0655	0.135	826131	keystroke_Key.space	Key.space	n/a
413.3655	0.225	826731	keystroke_w	w	n/a
413.5455	0.15	827091	keystroke_a	a	n/a
413.7105	0.12	827421	keystroke_r	r	n/a
413.9355	0.075	827871	keystroke_m	m	n/a
414.1755	0.195	828351	keystroke_i	i	n/a
414.2805	0.15	828561	keystroke_n	n	n/a
414.3705	0.15	828741	keystroke_g	g	n/a
414.4755	0.1495	828951	keystroke_Key.space	Key.space	n/a
414.715	0.135	829430	keystroke_w	w	n/a
414.835	0.24	829670	keystroke_a	a	n/a
415.18	0.105	830360	keystroke_n	n	n/a
415.87	0.075	831740	keystroke_Key.backspace	Key.backspace	n/a
416.095	0.12	832190	keystroke_g	g	n/a
416.35	0.075	832700	keystroke_n	n	n/a
416.59	0.15	833180	keystroke_e	e	n/a
416.695	0.1955	833390	keystroke_r	r	n/a
417.01	0.045	834020	keystroke_Key.enter	Key.enter	n/a
417.059	11.9675	834118	prompt	n/a	mistakes authorization helicopter continue\n
417.8055	0.09	835611	keystroke_m	m	n/a
417.9855	0.105	835971	keystroke_i	i	n/a
418.1505	0.09	836301	keystroke_s	s	n/a
418.3605	0.15	836721	keystroke_t	t	n/a
418.4955	0.1195	836991	keystroke_a	a	n/a
418.675	0.135	837350	keystroke_k	k	n/a
418.84	0.135	837680	keystroke_e	e	n/a
418.96	0.165	837920	keystroke_s	s	n/a
419.17	0.15	838340	keystroke_Key.space	Key.space	n/a
419.41	0.135	838820	keystroke_a	a	n/a
419.635	0.045	839270	keystroke_u	u	n/a
419.86	0.135	839720	keystroke_t	t	n/a
420.01	0.105	840020	keystroke_h	h	n/a
420.205	0.12	840410	keystroke_o	o	n/a
420.385	0.15	840770	keystroke_r	r	n/a
420.61	0.1045	841220	keystroke_i	i	n/a
420.8505	0.089	841701	keystroke_z	z	n/a
421.0755	0.104	842151	keystroke_a	a	n/a
421.3145	0.09	842629	keystroke_t	t	n/a
421.4645	0.271	842929	keystroke_i	i	n/a
421.5545	0.15	843109	keystroke_o	o	n/a
421.6295	0.15	843259	keystroke_n	n	n/a
421.7945	0.135	843589	keystroke_Key.space	Key.space	n/a
422.0045	0.09	844009	keystroke_h	h	n/a
422.1395	0.1355	844279	keystroke_e	e	n/a
422.995	0.0895	845990	keystroke_l	l	n/a
423.2195	0.075	846439	keystroke_i	i	n/a
424.51	0.12	849020	keystroke_c	c	n/a
424.795	0.105	849590	keystroke_o	o	n/a
425.035	0.09	850070	keystroke_p	p	n/a
425.26	0.15	850520	keystroke_t	t	n/a
425.425	0.15	850850	keystroke_e	e	n/a
425.545	0.15	851090	keystroke_r	r	n/a
425.9655	0.165	851931	keystroke_Key.space	Key.space	n/a
426.5205	0.075	853041	keystroke_c	c	n/a
426.5505	0.225	853101	keystroke_o	o	n/a
426.7155	0.195	853431	keystroke_n	n	n/a
427.24	0.135	854480	keystroke_t	t	n/a
427.495	0.105	854990	keystroke_i	i	n/a
428.4255	0.06	856851	keystroke_n	n	n/a
428.5905	0.075	857181	keystroke_u	u	n/a
428.7405	0.12	857481	keystroke_e	e	n/a
428.9655	0.06	857931	keystroke_Key.enter	Key.enter	n/a
429.0295	11.187	858059	prompt	n/a	seen multimedia casey coleman\n
429.82	0.105	859640	keystroke_s	s	n/a
430.075	0.075	860150	keystroke_e	e	n/a
430.225	0.15	860450	keystroke_e	e	n/a
430.39	0.12	860780	keystroke_n	n	n/a
430.54	0.12	861080	keystroke_Key.space	Key.space	n/a
430.78	0.09	861560	keystroke_l	l	n/a
431.02	0.0755	862040	keystroke_u	u	n/a
432.25	0.105	864500	keystroke_t	t	n/a
433.225	0.09	866450	keystroke_Key.backspace	Key.backspace	n/a
433.435	0.075	866870	keystroke_Key.backspace	Key.backspace	n/a
433.585	0.06	867170	keystroke_Key.backspace	Key.backspace	n/a
434.02	0.075	868040	keystroke_m	m	n/a
434.2445	0.06	868489	keystroke_u	u	n/a
434.4695	0.0905	868939	keystroke_l	l	n/a
434.755	0.135	869510	keystroke_t	t	n/a
434.98	0.09	869960	keystroke_i	i	n/a
435.91	0.075	871820	keystroke_m	m	n/a
436.06	0.075	872120	keystroke_e	e	n/a
436.225	0.15	872450	keystroke_d	d	n/a
436.36	0.12	872720	keystroke_i	i	n/a
436.481	0.119	872962	keystroke_a	a	n/a
436.57	0.12	873140	keystroke_Key.space	Key.space	n/a
437.125	0.135	874250	keystroke_c	c	n/a
437.29	0.135	874580	keystroke_a	a	n/a
437.92	0.09	875840	keystroke_s	s	n/a
438.13	0.09	876260	keystroke_e	e	n/a
438.385	0.075	876770	keystroke_y	y	n/a
438.595	0.105	877190	keystroke_Key.space	Key.space	n/a
438.82	0.135	877640	keystroke_c	c	n/a
438.955	0.09	877910	keystroke_o	o	n/a
439.195	0.0905	878390	keystroke_l	l	n/a
439.3455	0.134	878691	keystroke_e	e	n/a
439.5845	0.09	879169	keystroke_m	m	n/a
439.7045	0.121	879409	keystroke_a	a	n/a
439.8705	0.09	879741	keystroke_n	n	n/a
440.1545	0.061	880309	keystroke_Key.enter	Key.enter	n/a
440.22	9.3265	880440	prompt	n/a	partnerships differ brush endless\n
440.9955	0.1045	881991	keystroke_p	p	n/a
441.13	0.135	882260	keystroke_a	a	n/a
441.31	0.105	882620	keystroke_r	r	n/a
441.58	0.09	883160	keystroke_t	t	n/a
441.88	0.105	883760	keystroke_n	n	n/a
442.03	0.195	884060	keystroke_e	e	n/a
442.15	0.165	884300	keystroke_r	r	n/a
442.465	0.12	884930	keystroke_s	s	n/a
442.555	0.1955	885110	keystroke_h	h	n/a
442.7205	0.135	885441	keystroke_i	i	n/a
443.1555	0.105	886311	keystroke_p	p	n/a
443.5155	0.165	887031	keystroke_s	s	n/a
443.7255	0.15	887451	keystroke_Key.space	Key.space	n/a
444.1155	0.1495	888231	keystroke_d	d	n/a
444.25	0.075	888500	keystroke_i	i	n/a
444.46	0.06	888920	keystroke_f	f	n/a
444.61	0.12	889220	keystroke_f	f	n/a
444.85	0.165	889700	keystroke_e	e	n/a
444.955	0.1805	889910	keystroke_r	r	n/a
445.1205	0.135	890241	keystroke_Key.space	Key.space	n/a
446.3205	0.09	892641	keystroke_b	b	n/a
446.5455	0.12	893091	keystroke_r	r	n/a
446.965	0.09	893930	keystroke_u	u	n/a
447.175	0.135	894350	keystroke_s	s	n/a
447.325	0.135	894650	keystroke_h	h	n/a
447.475	0.15	894950	keystroke_Key.space	Key.space	n/a
447.85	0.105	895700	keystroke_e	e	n/a
448.09	0.1205	896180	keystroke_n	n	n/a
448.2855	0.15	896571	keystroke_d	d	n/a
448.6755	0.09	897351	keystroke_l	l	n/a
448.8705	0.09	897741	keystroke_e	e	n/a
449.0805	0.09	898161	keystroke_s	s	n/a
449.275	0.09	898550	keystroke_s	s	n/a
449.485	0.0605	898970	keystroke_Key.enter	Key.enter	n/a
449.5495	7.6925	899099	prompt	n/a	turner expect newer urge\n
450.4305	0.15	900861	keystroke_t	t	n/a
450.6255	0.12	901251	keystroke_h	h	n/a
451.0305	0.0595	902061	keystroke_Key.backspace	Key.backspace	n/a
451.27	0.105	902540	keystroke_u	u	n/a
451.645	0.135	903290	keystroke_r	r	n/a
451.87	0.105	903740	keystroke_n	n	n/a
452.065	0.2105	904130	keystroke_e	e	n/a
452.17	0.1805	904340	keystroke_r	r	n/a
452.3205	0.09	904641	keystroke_Key.space	Key.space	n/a
452.4705	0.105	904941	keystroke_e	e	n/a
452.7105	0.12	905421	keystroke_x	x	n/a
452.8905	0.105	905781	keystroke_p	p	n/a
453.0105	0.06	906021	keystroke_e	e	n/a
453.1905	0.105	906381	keystroke_c	c	n/a
453.4605	0.135	906921	keystroke_t	t	n/a
453.6405	0.15	907281	keystroke_Key.space	Key.space	n/a
453.8355	0.1645	907671	keystroke_e	e	n/a
454.3155	0.075	908631	keystroke_Key.backspace	Key.backspace	n/a
454.5855	0.105	909171	keystroke_n	n	n/a
454.7055	0.21	909411	keystroke_e	e	n/a
454.7805	0.21	909561	keystroke_w	w	n/a
455.2455	0.165	910491	keystroke_e	e	n/a
455.5005	0.15	911001	keystroke_r	r	n/a
456.0705	0.15	912141	keystroke_Key.space	Key.space	n/a
456.3705	0.105	912741	keystroke_u	u	n/a
456.5055	0.12	913011	keystroke_r	r	n/a
456.7455	0.165	913491	keystroke_g	g	n/a
456.8955	0.135	913791	keystroke_e	e	n/a
457.15	0.09	914300	keystroke_Key.enter	Key.enter	n/a
457.244	8.5025	914488	prompt	n/a	detroit excerpt score switches\n
457.93	0.09	915860	keystroke_d	d	n/a
458.125	0.09	916250	keystroke_e	e	n/a
458.365	0.105	916730	keystroke_t	t	n/a
458.56	0.1505	917120	keystroke_r	r	n/a
459.1455	0.075	918291	keystroke_o	o	n/a
459.34	0.105	918680	keystroke_i	i	n/a
459.535	0.15	919070	keystroke_t	t	n/a
459.73	0.15	919460	keystroke_Key.space	Key.space	n/a
460.105	0.105	920210	keystroke_e	e	n/a
460.345	0.1205	920690	keystroke_x	x	n/a
460.5855	0.165	921171	keystroke_c	c	n/a
460.7355	0.195	921471	keystroke_e	e	n/a
460.9455	0.1195	921891	keystroke_p	p	n/a
461.395	0.105	922790	keystroke_Key.backspace	Key.backspace	n/a
461.485	0.135	922970	keystroke_r	r	n/a
461.695	0.105	923390	keystroke_p	p	n/a
461.83	0.195	923660	keystroke_t	t	n/a
462.04	0.15	924080	keystroke_Key.space	Key.space	n/a
462.58	0.105	925160	keystroke_s	s	n/a
462.79	0.15	925580	keystroke_c	c	n/a
462.985	0.105	925970	keystroke_o	o	n/a
463.2695	0.165	926539	keystroke_r	r	n/a
463.3445	0.21	926689	keystroke_e	e	n/a
463.5245	0.15	927049	keystroke_Key.space	Key.space	n/a
463.8555	0.119	927711	keystroke_s	s	n/a
464.1555	0.105	928311	keystroke_w	w	n/a
464.3805	0.09	928761	keystroke_i	i	n/a
464.6355	0.089	929271	keystroke_t	t	n/a
464.9655	0.1495	929931	keystroke_c	c	n/a
465.07	0.09	930140	keystroke_h	h	n/a
465.25	0.1205	930500	keystroke_e	e	n/a
465.355	0.165	930710	keystroke_s	s	n/a
465.655	0.09	931310	keystroke_Key.enter	Key.enter	n/a
465.7495	15.5825	931499	prompt	n/a	recent egypt religion substance\n
466.585	0.165	933170	keystroke_r	r	n/a
466.69	0.15	933380	keystroke_e	e	n/a
466.945	0.135	933890	keystroke_c	c	n/a
467.05	0.15	934100	keystroke_e	e	n/a
467.185	0.135	934370	keystroke_n	n	n/a
467.305	0.165	934610	keystroke_t	t	n/a
467.44	0.165	934880	keystroke_Key.space	Key.space	n/a
468.13	0.12	936260	keystroke_g	g	n/a
470.23	0.09	940460	keystroke_q	q	n/a
470.755	0.06	941510	keystroke_Key.backspace	Key.backspace	n/a
471.1145	0.151	942229	keystroke_g	g	n/a
471.3245	0.12	942649	keystroke_y	y	n/a
472.1945	0.1355	944389	keystroke_t	t	n/a
472.96	0.06	945920	keystroke_Key.backspace	Key.backspace	n/a
473.11	0.045	946220	keystroke_Key.backspace	Key.backspace	n/a
473.245	0.075	946490	keystroke_Key.backspace	Key.backspace	n/a
473.365	0.105	946730	keystroke_Key.backspace	Key.backspace	n/a
474.1605	0.1045	948321	keystroke_e	e	n/a
474.52	0.12	949040	keystroke_g	g	n/a
474.82	0.06	949640	keystroke_y	y	n/a
475.2105	0.06	950421	keystroke_p	p	n/a
475.5105	0.105	951021	keystroke_t	t	n/a
476.6655	0.12	953331	keystroke_Key.space	Key.space	n/a
476.9505	0.135	953901	keystroke_r	r	n/a
477.0105	0.1795	954021	keystroke_e	e	n/a
477.205	0.075	954410	keystroke_l	l	n/a
477.385	0.09	954770	keystroke_i	i	n/a
477.52	0.135	955040	keystroke_g	g	n/a
477.82	0.27	955640	keystroke_i	i	n/a
477.955	0.15	955910	keystroke_o	o	n/a
478.045	0.18	956090	keystroke_n	n	n/a
478.255	0.15	956510	keystroke_Key.space	Key.space	n/a
478.63	0.09	957260	keystroke_s	s	n/a
478.735	0.105	957470	keystroke_u	u	n/a
479.305	0.06	958610	keystroke_s	s	n/a
479.7705	0.06	959541	keystroke_Key.backspace	Key.backspace	n/a
480.0255	0.075	960051	keystroke_b	b	n/a
480.1905	0.09	960381	keystroke_s	s	n/a
480.4605	0.1345	960921	keystroke_t	t	n/a
480.64	0.15	961280	keystroke_a	a	n/a
480.82	0.1205	961640	keystroke_n	n	n/a
480.9705	0.12	961941	keystroke_c	c	n/a
481.0305	0.15	962061	keystroke_e	e	n/a
481.2555	0.075	962511	keystroke_Key.enter	Key.enter	n/a
481.3355	13.3765	962671	prompt	n/a	humanitarian demonstration approve taxes\n
482.2005	0.15	964401	keystroke_h	h	n/a
482.3205	0.105	964641	keystroke_u	u	n/a
482.6655	0.135	965331	keystroke_m	m	n/a
483.685	0.135	967370	keystroke_a	a	n/a
483.835	0.105	967670	keystroke_n	n	n/a
484.18	0.135	968360	keystroke_t	t	n/a
485.005	0.0745	970010	keystroke_Key.backspace	Key.backspace	n/a
486.0255	0.105	972051	keystroke_i	i	n/a
486.9255	0.1495	973851	keystroke_t	t	n/a
487.105	0.15	974210	keystroke_a	a	n/a
487.36	0.105	974720	keystroke_r	r	n/a
487.525	0.135	975050	keystroke_i	i	n/a
488.005	0.075	976010	keystroke_Key.backspace	Key.backspace	n/a
488.695	0.075	977390	keystroke_i	i	n/a
488.905	0.12	977810	keystroke_a	a	n/a
489.0705	0.135	978141	keystroke_n	n	n/a
489.445	0.12	978890	keystroke_Key.space	Key.space	n/a
489.67	0.09	979340	keystroke_d	d	n/a
489.865	0.105	979730	keystroke_e	e	n/a
490.15	0.12	980300	keystroke_m	m	n/a
490.285	0.1505	980570	keystroke_o	o	n/a
490.4205	0.105	980841	keystroke_n	n	n/a
490.5555	0.105	981111	keystroke_s	s	n/a
490.7505	0.135	981501	keystroke_t	t	n/a
490.9005	0.15	981801	keystroke_r	r	n/a
491.065	0.1205	982130	keystroke_a	a	n/a
491.26	0.135	982520	keystroke_t	t	n/a
491.41	0.225	982820	keystroke_i	i	n/a
491.5	0.12	983000	keystroke_o	o	n/a
491.53	0.18	983060	keystroke_n	n	n/a
491.725	0.1355	983450	keystroke_Key.space	Key.space	n/a
492.0255	0.12	984051	keystroke_a	a	n/a
492.1755	0.075	984351	keystroke_p	p	n/a
492.3255	0.09	984651	keystroke_p	p	n/a
492.43	0.136	984860	keystroke_r	r	n/a
492.58	0.105	985160	keystroke_o	o	n/a
492.746	0.15	985492	keystroke_v	v	n/a
492.835	0.15	985670	keystroke_e	e	n/a
492.97	0.12	985940	keystroke_Key.space	Key.space	n/a
493.2705	0.135	986541	keystroke_t	t	n/a
493.4205	0.135	986841	keystroke_a	a	n/a
493.8405	0.12	987681	keystroke_x	x	n/a
494.1105	0.075	988221	keystroke_e	e	n/a
494.3205	0.075	988641	keystroke_s	s	n/a
494.6355	0.075	989271	keystroke_Key.enter	Key.enter	n/a
494.7185	9.8785	989437	prompt	n/a	amateur bradley institutional tool\n
495.5805	0.165	991161	keystroke_a	a	n/a
495.7755	0.1345	991551	keystroke_m	m	n/a
496.12	0.12	992240	keystroke_a	a	n/a
496.465	0.105	992930	keystroke_t	t	n/a
496.795	0.135	993590	keystroke_e	e	n/a
497.14	0.1055	994280	keystroke_u	u	n/a
497.2905	0.135	994581	keystroke_r	r	n/a
497.4105	0.135	994821	keystroke_Key.space	Key.space	n/a
497.7405	0.105	995481	keystroke_b	b	n/a
497.9355	0.135	995871	keystroke_r	r	n/a
498.2955	0.12	996591	keystroke_a	a	n/a
498.7755	0.105	997551	keystroke_d	d	n/a
499.075	0.075	998150	keystroke_l	l	n/a
499.225	0.12	998450	keystroke_e	e	n/a
499.42	0.075	998840	keystroke_y	y	n/a
499.6	0.105	999200	keystroke_Key.space	Key.space	n/a
499.825	0.1805	999650	keystroke_i	i	n/a
499.9455	0.135	999891	keystroke_n	n	n/a
500.2605	0.12	1000521	keystroke_s	s	n/a
500.4855	0.135	1000971	keystroke_i	i	n/a
501.071	0.074	1002142	keystroke_Key.backspace	Key.backspace	n/a
501.161	0.119	1002322	keystroke_t	t	n/a
501.325	0.09	1002650	keystroke_i	i	n/a
502.0605	0.12	1004121	keystroke_t	t	n/a
502.2105	0.105	1004421	keystroke_u	u	n/a
502.7805	0.2395	1005561	keystroke_i	i	n/a
502.87	0.135	1005740	keystroke_o	o	n/a
502.931	0.1645	1005862	keystroke_n	n	n/a
503.1105	0.12	1006221	keystroke_a	a	n/a
503.2455	0.105	1006491	keystroke_l	l	n/a
503.3955	0.15	1006791	keystroke_Key.space	Key.space	n/a
503.6805	0.075	1007361	keystroke_t	t	n/a
503.7705	0.075	1007541	keystroke_o	o	n/a
503.9355	0.06	1007871	keystroke_o	o	n/a
504.1155	0.09	1008231	keystroke_l	l	n/a
504.5205	0.075	1009041	keystroke_Key.enter	Key.enter	n/a
504.5995	13.512	1009199	prompt	n/a	discussing determined fiber brochure\n
505.4205	0.12	1010841	keystroke_d	d	n/a
505.5255	0.105	1011051	keystroke_i	i	n/a
505.6455	0.09	1011291	keystroke_s	s	n/a
505.8555	0.12	1011711	keystroke_c	c	n/a
506.0055	0.09	1012011	keystroke_u	u	n/a
506.2155	0.06	1012431	keystroke_s	s	n/a
506.3655	0.09	1012731	keystroke_s	s	n/a
506.5755	0.195	1013151	keystroke_i	i	n/a
506.6805	0.225	1013361	keystroke_n	n	n/a
506.8755	0.1795	1013751	keystroke_g	g	n/a
507.385	0.09	1014770	keystroke_Key.space	Key.space	n/a
507.85	0.12	1015700	keystroke_d	d	n/a
508.06	0.1205	1016120	keystroke_e	e	n/a
508.2855	0.12	1016571	keystroke_t	t	n/a
508.4055	0.18	1016811	keystroke_e	e	n/a
508.5105	0.195	1017021	keystroke_r	r	n/a
508.7205	0.105	1017441	keystroke_m	m	n/a
508.9005	0.135	1017801	keystroke_i	i	n/a
508.9905	0.135	1017981	keystroke_n	n	n/a
509.4255	0.12	1018851	keystroke_d	d	n/a
509.6655	0.06	1019331	keystroke_e	e	n/a
509.8455	0.15	1019691	keystroke_d	d	n/a
510.2205	0.18	1020441	keystroke_Key.space	Key.space	n/a
512.245	0.09	1024490	keystroke_Key.backspace	Key.backspace	n/a
512.425	0.06	1024850	keystroke_Key.backspace	Key.backspace	n/a
512.575	0.0595	1025150	keystroke_Key.backspace	Key.backspace	n/a
512.7255	0.104	1025451	keystroke_Key.backspace	Key.backspace	n/a
513.9705	0.09	1027941	keystroke_e	e	n/a
514.1505	0.135	1028301	keystroke_d	d	n/a
514.4355	0.12	1028871	keystroke_Key.space	Key.space	n/a
515.245	0.135	1030490	keystroke_f	f	n/a
515.41	0.075	1030820	keystroke_i	i	n/a
515.696	0.089	1031392	keystroke_b	b	n/a
515.845	0.1805	1031690	keystroke_e	e	n/a
515.9805	0.195	1031961	keystroke_r	r	n/a
516.1605	0.18	1032321	keystroke_Key.space	Key.space	n/a
516.5505	0.075	1033101	keystroke_b	b	n/a
516.6705	0.15	1033341	keystroke_r	r	n/a
516.8655	0.12	1033731	keystroke_o	o	n/a
517.1955	0.15	1034391	keystroke_c	c	n/a
517.3305	0.165	1034661	keystroke_h	h	n/a
517.4355	0.2245	1034871	keystroke_u	u	n/a
517.69	0.15	1035380	keystroke_r	r	n/a
517.765	0.165	1035530	keystroke_e	e	n/a
518.035	0.075	1036070	keystroke_Key.enter	Key.enter	n/a
518.114	9.9725	1036228	prompt	n/a	pole actively officially surname\n
518.815	0.106	1037630	keystroke_p	p	n/a
519.0855	0.045	1038171	keystroke_o	o	n/a
519.3105	0.105	1038621	keystroke_l	l	n/a
519.4605	0.165	1038921	keystroke_e	e	n/a
519.5655	0.135	1039131	keystroke_Key.space	Key.space	n/a
519.8955	0.0145	1039791	keystroke_a	a	n/a
519.97	0.12	1039940	keystroke_c	c	n/a
520.24	0.135	1040480	keystroke_t	t	n/a
520.465	0.105	1040930	keystroke_i	i	n/a
520.78	0.121	1041560	keystroke_v	v	n/a
520.855	0.12	1041710	keystroke_e	e	n/a
521.11	0.105	1042220	keystroke_l	l	n/a
521.245	0.18	1042490	keystroke_y	y	n/a
521.485	0.12	1042970	keystroke_Key.space	Key.space	n/a
522.055	0.075	1044110	keystroke_o	o	n/a
522.19	0.045	1044380	keystroke_f	f	n/a
522.31	0.12	1044620	keystroke_f	f	n/a
522.49	0.1055	1044980	keystroke_i	i	n/a
522.6555	0.15	1045311	keystroke_c	c	n/a
522.8055	0.075	1045611	keystroke_i	i	n/a
522.9255	0.105	1045851	keystroke_a	a	n/a
523.0455	0.075	1046091	keystroke_l	l	n/a
523.2105	0.075	1046421	keystroke_l	l	n/a
523.3455	0.15	1046691	keystroke_y	y	n/a
523.6005	0.15	1047201	keystroke_Key.space	Key.space	n/a
524.56	0.165	1049120	keystroke_s	s	n/a
524.59	0.075	1049180	keystroke_u	u	n/a
525.28	0.12	1050560	keystroke_r	r	n/a
525.76	0.09	1051520	keystroke_n	n	n/a
525.91	0.105	1051820	keystroke_a	a	n/a
526.045	0.09	1052090	keystroke_n	n	n/a
526.15	0.12	1052300	keystroke_e	e	n/a
526.63	0.06	1053260	keystroke_Key.backspace	Key.backspace	n/a
526.78	0.06	1053560	keystroke_Key.backspace	Key.backspace	n/a
527.395	0.12	1054790	keystroke_m	m	n/a
527.74	0.15	1055480	keystroke_e	e	n/a
528.01	0.075	1056020	keystroke_Key.enter	Key.enter	n/a
528.0895	8.367	1056179	prompt	n/a	recently england underlying added\n
528.85	0.15	1057700	keystroke_r	r	n/a
528.91	0.1655	1057820	keystroke_e	e	n/a
529.1355	0.165	1058271	keystroke_c	c	n/a
529.2705	0.195	1058541	keystroke_e	e	n/a
529.4505	0.135	1058901	keystroke_n	n	n/a
529.6155	0.165	1059231	keystroke_t	t	n/a
529.9155	0.1045	1059831	keystroke_l	l	n/a
530.05	0.135	1060100	keystroke_y	y	n/a
530.335	0.135	1060670	keystroke_Key.space	Key.space	n/a
530.77	0.12	1061540	keystroke_e	e	n/a
530.935	0.1505	1061870	keystroke_n	n	n/a
531.7305	0.075	1063461	keystroke_g	g	n/a
531.8805	0.075	1063761	keystroke_l	l	n/a
532.0005	0.075	1064001	keystroke_a	a	n/a
532.0905	0.12	1064181	keystroke_n	n	n/a
532.2255	0.18	1064451	keystroke_d	d	n/a
532.3755	0.135	1064751	keystroke_Key.space	Key.space	n/a
532.6905	0.105	1065381	keystroke_u	u	n/a
533.305	0.075	1066610	keystroke_n	n	n/a
533.425	0.09	1066850	keystroke_d	d	n/a
533.62	0.21	1067240	keystroke_e	e	n/a
533.755	0.18	1067510	keystroke_r	r	n/a
534.2505	0.09	1068501	keystroke_l	l	n/a
534.5055	0.075	1069011	keystroke_y	y	n/a
534.7305	0.15	1069461	keystroke_i	i	n/a
534.8055	0.21	1069611	keystroke_n	n	n/a
534.9405	0.18	1069881	keystroke_g	g	n/a
535.1055	0.12	1070211	keystroke_Key.space	Key.space	n/a
535.3305	0.12	1070661	keystroke_a	a	n/a
535.5255	0.075	1071051	keystroke_d	d	n/a
535.7655	0.075	1071531	keystroke_d	d	n/a
535.9905	0.06	1071981	keystroke_e	e	n/a
536.1705	0.105	1072341	keystroke_d	d	n/a
536.4105	0.045	1072821	keystroke_Key.enter	Key.enter	n/a
536.46	9.6715	1072920	prompt	n/a	encourages indoor bringing apple\n
537.1905	0.12	1074381	keystroke_e	e	n/a
537.4905	0.09	1074981	keystroke_n	n	n/a
537.8205	0.15	1075641	keystroke_c	c	n/a
537.9855	0.1795	1075971	keystroke_o	o	n/a
538.0455	0.1495	1076091	keystroke_u	u	n/a
538.21	0.105	1076420	keystroke_r	r	n/a
538.66	0.12	1077320	keystroke_a	a	n/a
538.885	0.1655	1077770	keystroke_g	g	n/a
539.0205	0.135	1078041	keystroke_e	e	n/a
539.2305	0.1645	1078461	keystroke_s	s	n/a
539.44	0.1055	1078880	keystroke_Key.space	Key.space	n/a
539.7105	0.12	1079421	keystroke_i	i	n/a
539.8005	0.12	1079601	keystroke_n	n	n/a
540.19	0.105	1080380	keystroke_d	d	n/a
540.355	0.09	1080710	keystroke_o	o	n/a
540.52	0.0905	1081040	keystroke_o	o	n/a
540.64	0.18	1081280	keystroke_r	r	n/a
540.79	0.15	1081580	keystroke_Key.space	Key.space	n/a
541.5105	0.06	1083021	keystroke_b	b	n/a
542.305	0.12	1084610	keystroke_r	r	n/a
542.545	0.135	1085090	keystroke_i	i	n/a
542.755	0.075	1085510	keystroke_n	n	n/a
543.6405	0.12	1087281	keystroke_g	g	n/a
544.4955	0.15	1088991	keystroke_i	i	n/a
544.5405	0.18	1089081	keystroke_n	n	n/a
544.7055	0.195	1089411	keystroke_g	g	n/a
544.8855	0.135	1089771	keystroke_Key.space	Key.space	n/a
545.0805	0.12	1090161	keystroke_a	a	n/a
545.335	0.075	1090670	keystroke_p	p	n/a
545.485	0.06	1090970	keystroke_p	p	n/a
545.665	0.12	1091330	keystroke_l	l	n/a
545.845	0.12	1091690	keystroke_e	e	n/a
546.085	0.045	1092170	keystroke_Key.enter	Key.enter	n/a
546.1345	9.5225	1092269	prompt	n/a	recordings merchandise cloud rand\n
546.865	0.105	1093730	keystroke_r	r	n/a
546.91	0.12	1093820	keystroke_e	e	n/a
547.1805	0.15	1094361	keystroke_c	c	n/a
547.3155	0.12	1094631	keystroke_o	o	n/a
547.5705	0.09	1095141	keystroke_r	r	n/a
547.8705	0.105	1095741	keystroke_d	d	n/a
548.0505	0.15	1096101	keystroke_i	i	n/a
548.1105	0.18	1096221	keystroke_n	n	n/a
548.2155	0.195	1096431	keystroke_g	g	n/a
548.3805	0.1795	1096761	keystroke_s	s	n/a
548.7855	0.12	1097571	keystroke_Key.space	Key.space	n/a
549.445	0.195	1098890	keystroke_e	e	n/a
549.61	0.09	1099220	keystroke_r	r	n/a
549.895	0.1805	1099790	keystroke_c	c	n/a
550.0305	0.09	1100061	keystroke_h	h	n/a
550.5405	0.105	1101081	keystroke_a	a	n/a
550.6605	0.12	1101321	keystroke_n	n	n/a
550.8405	0.105	1101681	keystroke_d	d	n/a
551.0055	0.12	1102011	keystroke_i	i	n/a
551.1705	0.195	1102341	keystroke_s	s	n/a
551.3505	0.18	1102701	keystroke_e	e	n/a
551.4855	0.165	1102971	keystroke_Key.space	Key.space	n/a
551.83	0.165	1103660	keystroke_c	c	n/a
552.025	0.225	1104050	keystroke_o	o	n/a
552.115	0.12	1104230	keystroke_u	u	n/a
552.535	0.045	1105070	keystroke_Key.backspace	Key.backspace	n/a
552.655	0.075	1105310	keystroke_Key.backspace	Key.backspace	n/a
552.91	0.09	1105820	keystroke_l	l	n/a
553.225	0.21	1106450	keystroke_o	o	n/a
553.33	0.15	1106660	keystroke_u	u	n/a
553.555	0.18	1107110	keystroke_d	d	n/a
553.825	0.135	1107650	keystroke_Key.space	Key.space	n/a
554.6955	0.135	1109391	keystroke_r	r	n/a
554.8605	0.165	1109721	keystroke_a	a	n/a
555.0705	0.12	1110141	keystroke_n	n	n/a
555.2655	0.135	1110531	keystroke_d	d	n/a
555.5805	0.075	1111161	keystroke_Key.enter	Key.enter	n/a
555.6595	11.6825	1111319	prompt	n/a	exterior boolean publishing sent\n
556.3155	0.135	1112631	keystroke_e	e	n/a
556.5705	0.12	1113141	keystroke_x	x	n/a
556.9005	0.105	1113801	keystroke_t	t	n/a
556.9905	0.1945	1113981	keystroke_e	e	n/a
557.1255	0.135	1114251	keystroke_r	r	n/a
557.2755	0.075	1114551	keystroke_i	i	n/a
557.4555	0.134	1114911	keystroke_o	o	n/a
557.6055	0.195	1115211	keystroke_r	r	n/a
557.7405	0.149	1115481	keystroke_Key.space	Key.space	n/a
558.5205	0.105	1117041	keystroke_b	b	n/a
558.7605	0.075	1117521	keystroke_o	o	n/a
558.8955	0.105	1117791	keystroke_o	o	n/a
559.3455	0.09	1118691	keystroke_l	l	n/a
559.8255	0.165	1119651	keystroke_e	e	n/a
559.9605	0.164	1119921	keystroke_a	a	n/a
560.1405	0.119	1120281	keystroke_n	n	n/a
560.3345	0.136	1120669	keystroke_Key.space	Key.space	n/a
560.6055	0.105	1121211	keystroke_p	p	n/a
560.8745	0.121	1121749	keystroke_u	u	n/a
564.117	0.043	1128234	keystroke_b	b	n/a
565.2855	0.105	1130571	keystroke_i	i	n/a
565.6455	0.15	1131291	keystroke_s	s	n/a
565.7805	0.105	1131561	keystroke_h	h	n/a
565.9005	0.195	1131801	keystroke_i	i	n/a
566.0055	0.1795	1132011	keystroke_n	n	n/a
566.1255	0.1795	1132251	keystroke_g	g	n/a
566.245	0.12	1132490	keystroke_Key.space	Key.space	n/a
566.62	0.136	1133240	keystroke_s	s	n/a
566.8	0.165	1133600	keystroke_e	e	n/a
566.905	0.136	1133810	keystroke_n	n	n/a
567.0855	0.12	1134171	keystroke_t	t	n/a
567.2805	0.06	1134561	keystroke_Key.enter	Key.enter	n/a
567.3445	9.0875	1134689	prompt	n/a	anywhere bedrooms invest powell\n
568.466	0.179	1136932	keystroke_a	a	n/a
568.705	0.106	1137410	keystroke_n	n	n/a
568.946	0.105	1137892	keystroke_y	y	n/a
569.291	0.165	1138582	keystroke_w	w	n/a
569.4705	0.09	1138941	keystroke_h	h	n/a
569.5455	0.165	1139091	keystroke_e	e	n/a
569.6655	0.15	1139331	keystroke_r	r	n/a
569.7555	0.21	1139511	keystroke_e	e	n/a
570.145	0.12	1140290	keystroke_Key.space	Key.space	n/a
570.595	0.06	1141190	keystroke_b	b	n/a
570.8805	0.075	1141761	keystroke_e	e	n/a
571.075	0.12	1142150	keystroke_d	d	n/a
571.33	0.105	1142660	keystroke_r	r	n/a
571.555	0.09	1143110	keystroke_o	o	n/a
571.705	0.09	1143410	keystroke_o	o	n/a
571.9	0.105	1143800	keystroke_m	m	n/a
572.125	0.165	1144250	keystroke_s	s	n/a
572.26	0.165	1144520	keystroke_Key.space	Key.space	n/a
572.605	0.15	1145210	keystroke_i	i	n/a
572.695	0.15	1145390	keystroke_n	n	n/a
572.875	0.135	1145750	keystroke_v	v	n/a
573.085	0.21	1146170	keystroke_e	e	n/a
573.16	0.18	1146320	keystroke_s	s	n/a
573.325	0.165	1146650	keystroke_t	t	n/a
573.535	0.135	1147070	keystroke_Key.space	Key.space	n/a
573.835	0.075	1147670	keystroke_p	p	n/a
574.045	0.105	1148090	keystroke_o	o	n/a
574.225	0.15	1148450	keystroke_w	w	n/a
574.3	0.165	1148600	keystroke_e	e	n/a
574.42	0.12	1148840	keystroke_r	r	n/a
574.66	0.06	1149320	keystroke_l	l	n/a
574.795	0.075	1149590	keystroke_l	l	n/a
575.3055	0.045	1150611	keystroke_Key.backspace	Key.backspace	n/a
575.4405	0.06	1150881	keystroke_Key.backspace	Key.backspace	n/a
575.5755	0.06	1151151	keystroke_Key.backspace	Key.backspace	n/a
575.9655	0.06	1151931	keystroke_l	l	n/a
576.1155	0.045	1152231	keystroke_l	l	n/a
576.3705	0.0595	1152741	keystroke_Key.enter	Key.enter	n/a
576.4345	6.642	1152869	prompt	n/a	vice rated interface touched\n
577.21	0.135	1154420	keystroke_v	v	n/a
577.315	0.135	1154630	keystroke_i	i	n/a
577.51	0.166	1155020	keystroke_c	c	n/a
577.646	0.165	1155292	keystroke_e	e	n/a
577.781	0.135	1155562	keystroke_Key.space	Key.space	n/a
578.006	0.135	1156012	keystroke_r	r	n/a
578.156	0.12	1156312	keystroke_a	a	n/a
578.426	0.045	1156852	keystroke_e	e	n/a
578.951	0.0745	1157902	keystroke_Key.backspace	Key.backspace	n/a
579.0105	0.1655	1158021	keystroke_t	t	n/a
579.101	0.1795	1158202	keystroke_e	e	n/a
579.401	0.1645	1158802	keystroke_d	d	n/a
579.551	0.1495	1159102	keystroke_Key.space	Key.space	n/a
580.331	0.15	1160662	keystroke_i	i	n/a
580.391	0.195	1160782	keystroke_n	n	n/a
580.586	0.135	1161172	keystroke_t	t	n/a
580.676	0.21	1161352	keystroke_e	e	n/a
580.811	0.119	1161622	keystroke_r	r	n/a
581.0655	0.135	1162131	keystroke_f	f	n/a
581.2155	0.135	1162431	keystroke_a	a	n/a
581.3655	0.135	1162731	keystroke_c	c	n/a
581.4705	0.195	1162941	keystroke_e	e	n/a
581.6205	0.1345	1163241	keystroke_Key.space	Key.space	n/a
582.01	0.03	1164020	keystroke_t	t	n/a
582.025	0.1955	1164050	keystroke_o	o	n/a
582.1	0.1355	1164200	keystroke_u	u	n/a
582.3105	0.135	1164621	keystroke_c	c	n/a
582.4305	0.09	1164861	keystroke_h	h	n/a
582.6105	0.06	1165221	keystroke_e	e	n/a
582.7905	0.09	1165581	keystroke_d	d	n/a
583.0155	0.06	1166031	keystroke_Key.enter	Key.enter	n/a
583.0795	14.5325	1166159	prompt	n/a	resources analyze stories aerospace\n
583.8855	0.1355	1167771	keystroke_r	r	n/a
583.931	0.1495	1167862	keystroke_e	e	n/a
584.3055	0.15	1168611	keystroke_s	s	n/a
584.5605	0.255	1169121	keystroke_o	o	n/a
584.6355	0.165	1169271	keystroke_u	u	n/a
584.8755	0.15	1169751	keystroke_r	r	n/a
585.325	0.136	1170650	keystroke_c	c	n/a
585.446	0.15	1170892	keystroke_e	e	n/a
585.611	0.1645	1171222	keystroke_s	s	n/a
585.835	0.12	1171670	keystroke_Key.space	Key.space	n/a
586.076	0.119	1172152	keystroke_a	a	n/a
586.136	0.134	1172272	keystroke_n	n	n/a
586.331	0.119	1172662	keystroke_a	a	n/a
586.601	0.074	1173202	keystroke_l	l	n/a
586.871	0.045	1173742	keystroke_y	y	n/a
587.14	0.1055	1174280	keystroke_z	z	n/a
587.3355	0.135	1174671	keystroke_e	e	n/a
587.5305	0.135	1175061	keystroke_Key.space	Key.space	n/a
587.8755	0.12	1175751	keystroke_s	s	n/a
588.0105	0.12	1176021	keystroke_o	o	n/a
588.2055	0.165	1176411	keystroke_t	t	n/a
588.4605	0.165	1176921	keystroke_r	r	n/a
588.6105	0.105	1177221	keystroke_i	i	n/a
588.7905	0.165	1177581	keystroke_e	e	n/a
588.9105	0.2105	1177821	keystroke_s	s	n/a
589.6	0.06	1179200	keystroke_Key.backspace	Key.backspace	n/a
589.8255	0.015	1179651	keystroke_Key.backspace	Key.backspace	n/a
589.8855	0.075	1179771	keystroke_Key.backspace	Key.backspace	n/a
590.05	0.06	1180100	keystroke_Key.backspace	Key.backspace	n/a
590.2	0.06	1180400	keystroke_Key.backspace	Key.backspace	n/a
590.5305	0.09	1181061	keystroke_Key.backspace	Key.backspace	n/a
590.8305	0.12	1181661	keystroke_t	t	n/a
591.1455	0.135	1182291	keystroke_o	o	n/a
591.4455	0.1195	1182891	keystroke_r	r	n/a
591.685	0.136	1183370	keystroke_i	i	n/a
591.956	0.135	1183912	keystroke_e	e	n/a
592.2255	0.12	1184451	keystroke_s	s	n/a
592.4805	0.15	1184961	keystroke_Key.space	Key.space	n/a
592.6905	0.135	1185381	keystroke_a	a	n/a
593.3805	0.15	1186761	keystroke_e	e	n/a
593.8755	0.1345	1187751	keystroke_r	r	n/a
595.406	0.09	1190812	keystroke_o	o	n/a
595.616	0.105	1191232	keystroke_s	s	n/a
595.811	0.09	1191622	keystroke_p	p	n/a
596.126	0.135	1192252	keystroke_a	a	n/a
596.771	0.15	1193542	keystroke_c	c	n/a
596.951	0.1345	1193902	keystroke_e	e	n/a
597.5205	0.09	1195041	keystroke_Key.enter	Key.enter	n/a
597.617	8.005	1195234	prompt	n/a	elephant sandra sciences oregon\n
598.4655	0.09	1196931	keystroke_e	e	n/a
598.6305	0.09	1197261	keystroke_l	l	n/a
598.7355	0.135	1197471	keystroke_e	e	n/a
599.0355	0.075	1198071	keystroke_p	p	n/a
599.2605	0.075	1198521	keystroke_h	h	n/a
599.3805	0.1195	1198761	keystroke_a	a	n/a
599.53	0.09	1199060	keystroke_n	n	n/a
599.725	0.135	1199450	keystroke_t	t	n/a
599.905	0.09	1199810	keystroke_Key.space	Key.space	n/a
600.7005	0.1195	1201401	keystroke_s	s	n/a
600.85	0.135	1201700	keystroke_a	a	n/a
601.031	0.105	1202062	keystroke_n	n	n/a
601.226	0.075	1202452	keystroke_d	d	n/a
601.466	0.105	1202932	keystroke_r	r	n/a
601.676	0.12	1203352	keystroke_a	a	n/a
601.856	0.09	1203712	keystroke_Key.space	Key.space	n/a
602.186	0.12	1204372	keystroke_s	s	n/a
602.486	0.15	1204972	keystroke_c	c	n/a
602.681	0.09	1205362	keystroke_i	i	n/a
602.921	0.1195	1205842	keystroke_e	e	n/a
603.0705	0.105	1206141	keystroke_n	n	n/a
603.3405	0.135	1206681	keystroke_c	c	n/a
603.4905	0.12	1206981	keystroke_e	e	n/a
603.6255	0.18	1207251	keystroke_s	s	n/a
603.8355	0.12	1207671	keystroke_Key.space	Key.space	n/a
604.0005	0.15	1208001	keystroke_o	o	n/a
604.1655	0.165	1208331	keystroke_r	r	n/a
604.6155	0.1205	1209231	keystroke_e	e	n/a
604.885	0.105	1209770	keystroke_g	g	n/a
605.0505	0.075	1210101	keystroke_o	o	n/a
605.2605	0.075	1210521	keystroke_n	n	n/a
605.5755	0.045	1211151	keystroke_Key.enter	Key.enter	n/a
605.625	8.667	1211250	prompt	n/a	drugs beta supposed papers\n
606.4	0.075	1212800	keystroke_d	d	n/a
606.61	0.105	1213220	keystroke_r	r	n/a
606.761	0.089	1213522	keystroke_u	u	n/a
607.465	0.09	1214930	keystroke_g	g	n/a
607.6905	0.09	1215381	keystroke_s	s	n/a
607.9605	0.12	1215921	keystroke_Key.space	Key.space	n/a
608.4255	0.09	1216851	keystroke_e	e	n/a
608.8305	0.075	1217661	keystroke_Key.backspace	Key.backspace	n/a
609.235	0.075	1218470	keystroke_b	b	n/a
609.445	0.105	1218890	keystroke_e	e	n/a
609.67	0.18	1219340	keystroke_t	t	n/a
609.805	0.195	1219610	keystroke_a	a	n/a
610.015	0.1505	1220030	keystroke_Key.space	Key.space	n/a
610.5855	0.135	1221171	keystroke_s	s	n/a
610.6905	0.105	1221381	keystroke_u	u	n/a
610.99	0.061	1221980	keystroke_p	p	n/a
611.1255	0.09	1222251	keystroke_p	p	n/a
611.321	0.1045	1222642	keystroke_o	o	n/a
611.4705	0.12	1222941	keystroke_s	s	n/a
611.6355	0.18	1223271	keystroke_t	t	n/a
612.2655	0.0755	1224531	keystroke_Key.backspace	Key.backspace	n/a
612.3555	0.105	1224711	keystroke_e	e	n/a
612.5805	0.135	1225161	keystroke_d	d	n/a
612.7605	0.135	1225521	keystroke_Key.space	Key.space	n/a
613.256	0.09	1226512	keystroke_p	p	n/a
613.391	0.135	1226782	keystroke_a	a	n/a
613.556	0.105	1227112	keystroke_p	p	n/a
613.75	0.225	1227500	keystroke_e	e	n/a
613.915	0.12	1227830	keystroke_r	r	n/a
614.05	0.12	1228100	keystroke_s	s	n/a
614.245	0.045	1228490	keystroke_Key.enter	Key.enter	n/a
614.295	6.4015	1228590	prompt	n/a	muslim beauty gather french\n
615.1005	0.09	1230201	keystroke_m	m	n/a
615.3555	0.075	1230711	keystroke_u	u	n/a
615.7	0.105	1231400	keystroke_s	s	n/a
615.925	0.0755	1231850	keystroke_l	l	n/a
616.106	0.0745	1232212	keystroke_i	i	n/a
616.316	0.0895	1232632	keystroke_m	m	n/a
616.5105	0.135	1233021	keystroke_Key.space	Key.space	n/a
616.7205	0.105	1233441	keystroke_b	b	n/a
616.8405	0.105	1233681	keystroke_e	e	n/a
616.9905	0.135	1233981	keystroke_a	a	n/a
617.35	0.105	1234700	keystroke_u	u	n/a
617.56	0.135	1235120	keystroke_t	t	n/a
617.7555	0.09	1235511	keystroke_y	y	n/a
617.9505	0.12	1235901	keystroke_Key.space	Key.space	n/a
618.1905	0.105	1236381	keystroke_g	g	n/a
618.3255	0.105	1236651	keystroke_a	a	n/a
618.5655	0.15	1237131	keystroke_t	t	n/a
618.6705	0.105	1237341	keystroke_h	h	n/a
618.8055	0.1795	1237611	keystroke_e	e	n/a
618.925	0.15	1237850	keystroke_r	r	n/a
619.03	0.15	1238060	keystroke_Key.space	Key.space	n/a
619.285	0.09	1238570	keystroke_f	f	n/a
619.51	0.12	1239020	keystroke_r	r	n/a
619.645	0.1505	1239290	keystroke_e	e	n/a
619.8255	0.105	1239651	keystroke_n	n	n/a
620.0205	0.1795	1240041	keystroke_c	c	n/a
620.185	0.09	1240370	keystroke_h	h	n/a
620.62	0.075	1241240	keystroke_Key.enter	Key.enter	n/a
620.7	6.762	1241400	prompt	n/a	sell luggage listings dealt\n
621.3405	0.105	1242681	keystroke_s	s	n/a
621.5355	0.135	1243071	keystroke_e	e	n/a
621.7005	0.1055	1243401	keystroke_l	l	n/a
621.851	0.09	1243702	keystroke_l	l	n/a
621.971	0.12	1243942	keystroke_Key.space	Key.space	n/a
622.331	0.075	1244662	keystroke_l	l	n/a
622.556	0.075	1245112	keystroke_u	u	n/a
622.736	0.06	1245472	keystroke_g	g	n/a
622.886	0.075	1245772	keystroke_g	g	n/a
623.096	0.09	1246192	keystroke_a	a	n/a
623.246	0.12	1246492	keystroke_g	g	n/a
623.336	0.165	1246672	keystroke_e	e	n/a
623.515	0.136	1247030	keystroke_Key.space	Key.space	n/a
623.726	0.06	1247452	keystroke_l	l	n/a
623.891	0.0895	1247782	keystroke_i	i	n/a
624.0255	0.09	1248051	keystroke_s	s	n/a
624.1755	0.12	1248351	keystroke_t	t	n/a
624.3105	0.1645	1248621	keystroke_i	i	n/a
624.3405	0.18	1248681	keystroke_n	n	n/a
624.5055	0.1195	1249011	keystroke_g	g	n/a
624.64	0.255	1249280	keystroke_s	s	n/a
625.2105	0.06	1250421	keystroke_Key.backspace	Key.backspace	n/a
625.3905	0.15	1250781	keystroke_s	s	n/a
625.6755	0.135	1251351	keystroke_Key.space	Key.space	n/a
626.2005	0.09	1252401	keystroke_d	d	n/a
626.3805	0.09	1252761	keystroke_e	e	n/a
626.5755	0.1355	1253151	keystroke_a	a	n/a
626.846	0.105	1253692	keystroke_l	l	n/a
627.1305	0.105	1254261	keystroke_t	t	n/a
627.3855	0.075	1254771	keystroke_Key.enter	Key.enter	n/a
627.4645	13.4825	1254929	prompt	n/a	deny handhelds continually somewhere\n
628.496	0.0745	1256992	keystroke_d	d	n/a
628.6755	0.09	1257351	keystroke_e	e	n/a
628.8555	0.09	1257711	keystroke_n	n	n/a
629.0955	0.075	1258191	keystroke_y	y	n/a
629.2605	0.12	1258521	keystroke_Key.space	Key.space	n/a
629.62	0.075	1259240	keystroke_h	h	n/a
630.04	0.1055	1260080	keystroke_a	a	n/a
630.2955	0.0895	1260591	keystroke_n	n	n/a
