onset	duration	sample	value	key	prompt_text
26.965	0.1175	53930	keystroke_m	m	n/a
27.0285	0.1405	54057	keystroke_i	i	n/a
27.153	0.109	54306	keystroke_n	n	n/a
27.263	0.069	54526	keystroke_a	a	n/a
27.3315	0.1785	54663	keystroke_f	f	n/a
27.409	0.102	54818	keystroke_a	a	n/a
27.51	0.048	55020	keystroke_h	h	n/a
27.6685	0.134	55337	keystroke_m	m	n/a
27.724	0.102	55448	keystroke_i	i	n/a
27.853	0.095	55706	keystroke_Key.tab	Key.tab	n/a
29.1715	0.134	58343	keystroke_Key.down	Key.down	n/a
29.7175	0.0545	59435	keystroke_Key.down	Key.down	n/a
30.303	0.12	60606	keystroke_Key.tab	Key.tab	n/a
34.2125	0.127	68425	keystroke_o	o	n/a
34.377	0.0875	68754	keystroke_n	n	n/a
34.7005	0.3715	69401	keystroke_Key.shift_r	Key.shift_r	n/a
34.943	0.103	69886	keystroke__	_	n/a
35.236	0.102	70472	keystroke_k	k	n/a
35.3745	0.1025	70749	keystroke_e	e	n/a
35.5085	0.079	71017	keystroke_y	y	n/a
35.6755	0.103	71351	keystroke_b	b	n/a
35.7985	0.109	71597	keystroke_o	o	n/a
35.8895	0.1175	71779	keystroke_a	a	n/a
35.953	0.094	71906	keystroke_r	r	n/a
36.124	0.121	72248	keystroke_d	d	n/a
36.244	0.079	72488	keystroke_Key.space	Key.space	n/a
36.473	0.0785	72946	keystroke_p	p	n/a
36.602	0.111	73204	keystroke_r	r	n/a
36.729	0.117	73458	keystroke_o	o	n/a
36.846	0.086	73692	keystroke_t	t	n/a
36.985	0.0795	73970	keystroke_o	o	n/a
37.108	0.118	74216	keystroke_c	c	n/a
37.205	0.086	74410	keystroke_o	o	n/a
37.3775	0.1025	74755	keystroke_l	l	n/a
37.687	0.087	75374	keystroke_Key.space	Key.space	n/a
38.6265	0.127	77253	keystroke_6	6	n/a
39.038	0.1185	78076	keystroke_.	.	n/a
39.9365	0.0945	79873	keystroke_3	3	n/a
67.369	17.006	134738	prompt	n/a	the quick brown fox jumps over a lazy dog\n
76.0335	0.043	152067	keystroke_t	t	n/a
77.5765	0.106	155153	keystroke_h	h	n/a
77.6525	0.104	155305	keystroke_e	e	n/a
77.817	0.0895	155634	keystroke_Key.space	Key.space	n/a
77.9815	0.091	155963	keystroke_q	q	n/a
78.102	0.1055	156204	keystroke_u	u	n/a
78.297	0.075	156594	keystroke_i	i	n/a
78.402	0.15	156804	keystroke_c	c	n/a
78.537	0.1355	157074	keystroke_k	k	n/a
78.6865	0.076	157373	keystroke_Key.space	Key.space	n/a
78.867	0.0755	157734	keystroke_b	b	n/a
79.0465	0.09	158093	keystroke_r	r	n/a
79.152	0.1045	158304	keystroke_o	o	n/a
79.287	0.06	158574	keystroke_w	w	n/a
79.377	0.105	158754	keystroke_n	n	n/a
79.572	0.0745	159144	keystroke_Key.space	Key.space	n/a
79.6915	0.09	159383	keystroke_f	f	n/a
79.8415	0.09	159683	keystroke_o	o	n/a
80.007	0.12	160014	keystroke_x	x	n/a
80.187	0.0745	160374	keystroke_Key.space	Key.space	n/a
80.3665	0.09	160733	keystroke_f	f	n/a
80.712	0.075	161424	keystroke_Key.backspace	Key.backspace	n/a
80.907	0.1205	161814	keystroke_j	j	n/a
81.1315	0.091	162263	keystroke_u	u	n/a
81.357	0.09	162714	keystroke_m	m	n/a
81.5075	0.104	163015	keystroke_p	p	n/a
81.657	0.0905	163314	keystroke_s	s	n/a
81.7775	0.075	163555	keystroke_Key.space	Key.space	n/a
81.9725	0.089	163945	keystroke_o	o	n/a
82.0915	0.105	164183	keystroke_v	v	n/a
82.3165	0.106	164633	keystroke_e	e	n/a
82.4975	0.104	164995	keystroke_r	r	n/a
82.6475	0.089	165295	keystroke_Key.space	Key.space	n/a
82.7965	0.106	165593	keystroke_a	a	n/a
82.9315	0.0755	165863	keystroke_Key.space	Key.space	n/a
83.127	0.0905	166254	keystroke_l	l	n/a
83.187	0.0905	166374	keystroke_a	a	n/a
83.4275	0.0745	166855	keystroke_z	z	n/a
83.517	0.0605	167034	keystroke_y	y	n/a
83.667	0.075	167334	keystroke_Key.space	Key.space	n/a
83.817	0.12	167634	keystroke_d	d	n/a
83.967	0.075	167934	keystroke_o	o	n/a
84.1475	0.074	168295	keystroke_g	g	n/a
84.3275	0.0445	168655	keystroke_Key.enter	Key.enter	n/a
84.38	6.6385	168760	prompt	n/a	monaco forge pennsylvania hayes\n
85.137	0.0745	170274	keystroke_m	m	n/a
85.3465	0.075	170693	keystroke_o	o	n/a
85.527	0.09	171054	keystroke_n	n	n/a
85.677	0.0905	171354	keystroke_a	a	n/a
85.9025	0.105	171805	keystroke_c	c	n/a
86.0825	0.0745	172165	keystroke_o	o	n/a
86.2925	0.075	172585	keystroke_Key.space	Key.space	n/a
86.532	0.12	173064	keystroke_f	f	n/a
86.682	0.0895	173364	keystroke_o	o	n/a
86.787	0.105	173574	keystroke_r	r	n/a
87.0275	0.1345	174055	keystroke_g	g	n/a
87.132	0.12	174264	keystroke_e	e	n/a
87.3125	0.075	174625	keystroke_Key.space	Key.space	n/a
87.4915	0.105	174983	keystroke_p	p	n/a
87.6565	0.106	175313	keystroke_e	e	n/a
87.8215	0.1055	175643	keystroke_n	n	n/a
88.047	0.075	176094	keystroke_n	n	n/a
88.2415	0.09	176483	keystroke_s	s	n/a
88.5725	0.06	177145	keystroke_y	y	n/a
88.782	0.1045	177564	keystroke_l	l	n/a
89.022	0.1195	178044	keystroke_v	v	n/a
89.2165	0.09	178433	keystroke_a	a	n/a
89.4415	0.06	178883	keystroke_n	n	n/a
89.637	0.0745	179274	keystroke_i	i	n/a
89.757	0.09	179514	keystroke_a	a	n/a
89.9525	0.0445	179905	keystroke_Key.space	Key.space	n/a
90.1465	0.09	180293	keystroke_h	h	n/a
90.252	0.12	180504	keystroke_a	a	n/a
90.4315	0.0755	180863	keystroke_y	y	n/a
90.612	0.06	181224	keystroke_e	e	n/a
90.777	0.075	181554	keystroke_s	s	n/a
90.972	0.045	181944	keystroke_Key.enter	Key.enter	n/a
91.0235	5.5005	182047	prompt	n/a	sarah speaks fatty drivers\n
91.737	0.075	183474	keystroke_s	s	n/a
91.9465	0.1055	183893	keystroke_a	a	n/a
92.127	0.105	184254	keystroke_r	r	n/a
92.2915	0.09	184583	keystroke_a	a	n/a
92.4865	0.076	184973	keystroke_h	h	n/a
92.6675	0.089	185335	keystroke_Key.space	Key.space	n/a
92.8175	0.0895	185635	keystroke_s	s	n/a
92.967	0.09	185934	keystroke_p	p	n/a
93.132	0.09	186264	keystroke_e	e	n/a
93.3265	0.1355	186653	keystroke_a	a	n/a
93.507	0.12	187014	keystroke_k	k	n/a
93.687	0.105	187374	keystroke_s	s	n/a
93.882	0.0905	187764	keystroke_Key.space	Key.space	n/a
94.0775	0.074	188155	keystroke_f	f	n/a
94.2565	0.106	188513	keystroke_a	a	n/a
94.4975	0.06	188995	keystroke_t	t	n/a
94.6615	0.09	189323	keystroke_t	t	n/a
94.872	0.09	189744	keystroke_y	y	n/a
95.0375	0.074	190075	keystroke_Key.space	Key.space	n/a
95.217	0.09	190434	keystroke_d	d	n/a
95.427	0.075	190854	keystroke_r	r	n/a
95.592	0.105	191184	keystroke_i	i	n/a
95.727	0.0895	191454	keystroke_v	v	n/a
95.9515	0.0605	191903	keystroke_e	e	n/a
96.0865	0.0905	192173	keystroke_r	r	n/a
96.282	0.0605	192564	keystroke_s	s	n/a
96.4625	0.059	192925	keystroke_Key.enter	Key.enter	n/a
96.529	6.115	193058	prompt	n/a	investing thirty exam explained\n
97.2575	0.1045	194515	keystroke_i	i	n/a
97.4815	0.106	194963	keystroke_n	n	n/a
97.6025	0.104	195205	keystroke_v	v	n/a
97.8125	0.09	195625	keystroke_e	e	n/a
98.007	0.0905	196014	keystroke_s	s	n/a
98.217	0.075	196434	keystroke_t	t	n/a
98.352	0.075	196704	keystroke_i	i	n/a
98.547	0.105	197094	keystroke_n	n	n/a
98.667	0.09	197334	keystroke_g	g	n/a
98.922	0.075	197844	keystroke_Key.space	Key.space	n/a
99.1315	0.075	198263	keystroke_t	t	n/a
99.2365	0.0755	198473	keystroke_h	h	n/a
99.4315	0.1205	198863	keystroke_i	i	n/a
99.537	0.1045	199074	keystroke_r	r	n/a
99.777	0.06	199554	keystroke_t	t	n/a
99.867	0.1355	199734	keystroke_y	y	n/a
99.987	0.0595	199974	keystroke_Key.space	Key.space	n/a
100.1365	0.061	200273	keystroke_e	e	n/a
100.3765	0.1055	200753	keystroke_x	x	n/a
100.587	0.09	201174	keystroke_a	a	n/a
100.707	0.075	201414	keystroke_m	m	n/a
100.902	0.09	201804	keystroke_Key.space	Key.space	n/a
101.022	0.045	202044	keystroke_e	e	n/a
101.232	0.105	202464	keystroke_x	x	n/a
101.322	0.09	202644	keystroke_p	p	n/a
101.547	0.105	203094	keystroke_l	l	n/a
101.668	0.104	203336	keystroke_a	a	n/a
101.8625	0.09	203725	keystroke_i	i	n/a
102.072	0.12	204144	keystroke_n	n	n/a
102.207	0.075	204414	keystroke_e	e	n/a
102.4015	0.1055	204803	keystroke_d	d	n/a
102.597	0.045	205194	keystroke_Key.enter	Key.enter	n/a
102.649	9.099	205298	prompt	n/a	disorder england boating medication\n
103.362	0.0745	206724	keystroke_d	d	n/a
103.5415	0.075	207083	keystroke_i	i	n/a
103.961	0.076	207922	keystroke_Key.backspace	Key.backspace	n/a
104.202	0.09	208404	keystroke_Key.backspace	Key.backspace	n/a
105.0565	0.0905	210113	keystroke_d	d	n/a
105.192	0.09	210384	keystroke_i	i	n/a
105.327	0.09	210654	keystroke_s	s	n/a
105.522	0.075	211044	keystroke_o	o	n/a
105.612	0.105	211224	keystroke_r	r	n/a
105.822	0.0745	211644	keystroke_d	d	n/a
106.0615	0.1355	212123	keystroke_e	e	n/a
106.212	0.1045	212424	keystroke_r	r	n/a
106.481	0.106	212962	keystroke_Key.space	Key.space	n/a
106.662	0.075	213324	keystroke_e	e	n/a
106.812	0.09	213624	keystroke_n	n	n/a
106.932	0.105	213864	keystroke_g	g	n/a
107.112	0.089	214224	keystroke_l	l	n/a
107.232	0.104	214464	keystroke_a	a	n/a
107.4575	0.089	214915	keystroke_n	n	n/a
107.6065	0.15	215213	keystroke_d	d	n/a
107.8165	0.09	215633	keystroke_Key.space	Key.space	n/a
108.0865	0.09	216173	keystroke_b	b	n/a
108.2665	0.09	216533	keystroke_o	o	n/a
108.3715	0.105	216743	keystroke_a	a	n/a
108.5965	0.0755	217193	keystroke_t	t	n/a
108.792	0.0895	217584	keystroke_i	i	n/a
109.0015	0.105	218003	keystroke_n	n	n/a
109.0765	0.09	218153	keystroke_g	g	n/a
109.3465	0.06	218693	keystroke_Key.space	Key.space	n/a
109.707	0.1045	219414	keystroke_m	m	n/a
109.842	0.075	219684	keystroke_e	e	n/a
110.0515	0.135	220103	keystroke_d	d	n/a
110.1875	0.074	220375	keystroke_i	i	n/a
110.3365	0.12	220673	keystroke_c	c	n/a
110.5615	0.105	221123	keystroke_a	a	n/a
110.787	0.06	221574	keystroke_t	t	n/a
111.012	0.09	222024	keystroke_i	i	n/a
111.207	0.09	222414	keystroke_o	o	n/a
111.417	0.075	222834	keystroke_n	n	n/a
111.672	0.0745	223344	keystroke_Key.enter	Key.enter	n/a
111.7545	14.7695	223509	prompt	n/a	distribution your config rachel\n
113.848	0.044	227696	keystroke_Key.f10	Key.f10	n/a
114.026	0.0755	228052	keystroke_Key.f10	Key.f10	n/a
114.2365	0.105	228473	keystroke_Key.f10	Key.f10	n/a
114.6865	0.12	229373	keystroke_Key.f10	Key.f10	n/a
115.1065	0.09	230213	keystroke_Key.f10	Key.f10	n/a
115.437	0.0895	230874	keystroke_Key.f10	Key.f10	n/a
117.3415	0.1355	234683	keystroke_Key.f11	Key.f11	n/a
117.9265	0.1195	235853	keystroke_Key.f11	Key.f11	n/a
119.7415	0.136	239483	keystroke_Key.f11	Key.f11	n/a
121.077	0.09	242154	keystroke_d	d	n/a
121.227	0.12	242454	keystroke_i	i	n/a
121.362	0.09	242724	keystroke_s	s	n/a
121.571	0.061	243142	keystroke_t	t	n/a
121.6915	0.1205	243383	keystroke_r	r	n/a
121.842	0.12	243684	keystroke_i	i	n/a
122.022	0.105	244044	keystroke_b	b	n/a
122.172	0.105	244344	keystroke_u	u	n/a
122.322	0.09	244644	keystroke_t	t	n/a
122.517	0.09	245034	keystroke_i	i	n/a
122.712	0.075	245424	keystroke_o	o	n/a
123.0115	0.075	246023	keystroke_n	n	n/a
123.1915	0.09	246383	keystroke_Key.space	Key.space	n/a
123.4015	0.0905	246803	keystroke_y	y	n/a
123.597	0.1045	247194	keystroke_o	o	n/a
123.8075	0.0895	247615	keystroke_u	u	n/a
123.957	0.09	247914	keystroke_r	r	n/a
124.092	0.09	248184	keystroke_Key.space	Key.space	n/a
124.332	0.12	248664	keystroke_c	c	n/a
124.437	0.09	248874	keystroke_o	o	n/a
124.632	0.105	249264	keystroke_n	n	n/a
124.782	0.105	249564	keystroke_f	f	n/a
124.917	0.12	249834	keystroke_i	i	n/a
125.082	0.105	250164	keystroke_g	g	n/a
125.202	0.075	250404	keystroke_Key.space	Key.space	n/a
125.3665	0.105	250733	keystroke_r	r	n/a
125.5765	0.105	251153	keystroke_a	a	n/a
125.7565	0.12	251513	keystroke_c	c	n/a
125.9065	0.1055	251813	keystroke_h	h	n/a
126.057	0.09	252114	keystroke_e	e	n/a
126.192	0.09	252384	keystroke_l	l	n/a
126.4465	0.075	252893	keystroke_Key.enter	Key.enter	n/a
126.532	13.4175	253064	prompt	n/a	views processed dollars attention\n
133.649	0.029	267298	keystroke_v	v	n/a
133.767	0.105	267534	keystroke_i	i	n/a
133.8875	0.105	267775	keystroke_e	e	n/a
134.0975	0.075	268195	keystroke_w	w	n/a
134.3075	0.09	268615	keystroke_s	s	n/a
134.4725	0.09	268945	keystroke_Key.space	Key.space	n/a
134.6675	0.105	269335	keystroke_p	p	n/a
134.787	0.09	269574	keystroke_r	r	n/a
134.967	0.0755	269934	keystroke_o	o	n/a
135.102	0.12	270204	keystroke_c	c	n/a
135.358	0.044	270716	keystroke_e	e	n/a
135.523	0.074	271046	keystroke_s	s	n/a
135.7025	0.105	271405	keystroke_s	s	n/a
135.912	0.0605	271824	keystroke_e	e	n/a
136.092	0.1055	272184	keystroke_d	d	n/a
136.2275	0.1055	272455	keystroke_Key.space	Key.space	n/a
136.4225	0.12	272845	keystroke_d	d	n/a
136.5875	0.09	273175	keystroke_o	o	n/a
136.812	0.061	273624	keystroke_l	l	n/a
137.008	0.089	274016	keystroke_l	l	n/a
137.1125	0.1045	274225	keystroke_a	a	n/a
137.3825	0.03	274765	keystroke_r	r	n/a
137.548	0.1045	275096	keystroke_s	s	n/a
137.757	0.0755	275514	keystroke_Key.space	Key.space	n/a
137.9075	0.1345	275815	keystroke_a	a	n/a
138.1775	0.0895	276355	keystroke_t	t	n/a
138.402	0.09	276804	keystroke_t	t	n/a
138.5825	0.12	277165	keystroke_e	e	n/a
138.718	0.0895	277436	keystroke_n	n	n/a
138.897	0.06	277794	keystroke_t	t	n/a
139.092	0.105	278184	keystroke_i	i	n/a
139.303	0.089	278606	keystroke_o	o	n/a
139.497	0.105	278994	keystroke_n	n	n/a
139.872	0.075	279744	keystroke_Key.enter	Key.enter	n/a
139.9535	6.881	279907	prompt	n/a	drive beliefs brunette centres\n
140.5475	0.09	281095	keystroke_d	d	n/a
140.7575	0.09	281515	keystroke_r	r	n/a
140.8925	0.12	281785	keystroke_i	i	n/a
141.0575	0.12	282115	keystroke_v	v	n/a
141.2825	0.09	282565	keystroke_e	e	n/a
141.4175	0.12	282835	keystroke_Key.space	Key.space	n/a
141.658	0.0895	283316	keystroke_b	b	n/a
141.8525	0.12	283705	keystroke_e	e	n/a
142.0775	0.1055	284155	keystroke_l	l	n/a
142.242	0.106	284484	keystroke_e	e	n/a
142.602	0.075	285204	keystroke_Key.backspace	Key.backspace	n/a
142.813	0.1195	285626	keystroke_i	i	n/a
142.9625	0.1045	285925	keystroke_e	e	n/a
143.158	0.105	286316	keystroke_f	f	n/a
143.368	0.0745	286736	keystroke_s	s	n/a
143.5475	0.0905	287095	keystroke_Key.space	Key.space	n/a
143.818	0.0745	287636	keystroke_b	b	n/a
144.013	0.09	288026	keystroke_r	r	n/a
144.147	0.1055	288294	keystroke_u	u	n/a
144.3875	0.12	288775	keystroke_n	n	n/a
144.492	0.105	288984	keystroke_e	e	n/a
144.7325	0.06	289465	keystroke_t	t	n/a
144.9275	0.075	289855	keystroke_t	t	n/a
145.123	0.1195	290246	keystroke_e	e	n/a
145.303	0.0745	290606	keystroke_Key.space	Key.space	n/a
145.4525	0.12	290905	keystroke_c	c	n/a
145.677	0.1205	291354	keystroke_e	e	n/a
145.827	0.12	291654	keystroke_n	n	n/a
145.9925	0.075	291985	keystroke_t	t	n/a
146.1875	0.0895	292375	keystroke_r	r	n/a
146.367	0.09	292734	keystroke_e	e	n/a
146.578	0.075	293156	keystroke_s	s	n/a
146.787	0.0455	293574	keystroke_Key.enter	Key.enter	n/a
146.839	7.1505	293678	prompt	n/a	auctions capital immediately lisa\n
147.492	0.135	294984	keystroke_a	a	n/a
147.732	0.1055	295464	keystroke_u	u	n/a
147.9425	0.135	295885	keystroke_c	c	n/a
148.243	0.06	296486	keystroke_t	t	n/a
148.4525	0.09	296905	keystroke_i	i	n/a
148.648	0.105	297296	keystroke_o	o	n/a
148.8575	0.0905	297715	keystroke_n	n	n/a
149.008	0.104	298016	keystroke_s	s	n/a
149.142	0.0755	298284	keystroke_Key.space	Key.space	n/a
149.3225	0.135	298645	keystroke_c	c	n/a
149.5325	0.105	299065	keystroke_a	a	n/a
149.6675	0.1045	299335	keystroke_p	p	n/a
149.9675	0.09	299935	keystroke_i	i	n/a
150.1025	0.0895	300205	keystroke_t	t	n/a
150.312	0.0755	300624	keystroke_a	a	n/a
150.4625	0.09	300925	keystroke_l	l	n/a
150.6725	0.075	301345	keystroke_Key.space	Key.space	n/a
150.883	0.09	301766	keystroke_i	i	n/a
151.0925	0.09	302185	keystroke_m	m	n/a
151.3025	0.1055	302605	keystroke_m	m	n/a
151.527	0.09	303054	keystroke_e	e	n/a
151.752	0.121	303504	keystroke_d	d	n/a
151.887	0.12	303774	keystroke_i	i	n/a
152.0375	0.105	304075	keystroke_a	a	n/a
152.218	0.119	304436	keystroke_t	t	n/a
152.322	0.105	304644	keystroke_e	e	n/a
152.5325	0.105	305065	keystroke_l	l	n/a
152.803	0.0895	305606	keystroke_y	y	n/a
153.0275	0.06	306055	keystroke_Key.space	Key.space	n/a
153.2225	0.105	306445	keystroke_l	l	n/a
153.4325	0.12	306865	keystroke_i	i	n/a
153.5525	0.075	307105	keystroke_s	s	n/a
153.748	0.1045	307496	keystroke_a	a	n/a
153.9575	0.03	307915	keystroke_Key.enter	Key.enter	n/a
153.9945	6.145	307989	prompt	n/a	curve rope that'd wired\n
154.677	0.1505	309354	keystroke_c	c	n/a
154.9325	0.075	309865	keystroke_u	u	n/a
155.1275	0.105	310255	keystroke_r	r	n/a
155.383	0.0895	310766	keystroke_v	v	n/a
155.6075	0.09	311215	keystroke_e	e	n/a
155.7875	0.075	311575	keystroke_Key.space	Key.space	n/a
156.117	0.09	312234	keystroke_r	r	n/a
156.298	0.0905	312596	keystroke_o	o	n/a
156.4925	0.105	312985	keystroke_p	p	n/a
156.643	0.1045	313286	keystroke_e	e	n/a
156.8225	0.09	313645	keystroke_Key.space	Key.space	n/a
157.077	0.0905	314154	keystroke_t	t	n/a
157.243	0.105	314486	keystroke_h	h	n/a
157.407	0.121	314814	keystroke_a	a	n/a
157.6025	0.0745	315205	keystroke_t	t	n/a
158.308	0.075	316616	keystroke_'	'	n/a
158.428	0.12	316856	keystroke_d	d	n/a
158.757	0.105	317514	keystroke_Key.space	Key.space	n/a
159.043	0.119	318086	keystroke_w	w	n/a
159.3275	0.1205	318655	keystroke_i	i	n/a
159.4925	0.12	318985	keystroke_r	r	n/a
159.7175	0.06	319435	keystroke_e	e	n/a
159.8825	0.0895	319765	keystroke_d	d	n/a
160.0775	0.06	320155	keystroke_Key.enter	Key.enter	n/a
160.1445	7.045	320289	prompt	n/a	stronger lucas distinct in\n
160.917	0.135	321834	keystroke_s	s	n/a
161.187	0.0755	322374	keystroke_t	t	n/a
161.353	0.104	322706	keystroke_r	r	n/a
161.532	0.12	323064	keystroke_o	o	n/a
161.788	0.1045	323576	keystroke_n	n	n/a
161.9375	0.09	323875	keystroke_g	g	n/a
162.193	0.09	324386	keystroke_e	e	n/a
162.388	0.089	324776	keystroke_r	r	n/a
162.582	0.09	325164	keystroke_Key.space	Key.space	n/a
162.778	0.0895	325556	keystroke_l	l	n/a
163.0325	0.09	326065	keystroke_u	u	n/a
163.153	0.1195	326306	keystroke_c	c	n/a
163.377	0.0905	326754	keystroke_a	a	n/a
163.5875	0.0745	327175	keystroke_s	s	n/a
163.782	0.09	327564	keystroke_Key.space	Key.space	n/a
163.992	0.1205	327984	keystroke_d	d	n/a
164.338	0.104	328676	keystroke_i	i	n/a
164.502	0.106	329004	keystroke_s	s	n/a
164.7875	0.0905	329575	keystroke_t	t	n/a
165.403	0.105	330806	keystroke_i	i	n/a
165.6275	0.0895	331255	keystroke_n	n	n/a
165.732	0.1505	331464	keystroke_c	c	n/a
166.0475	0.075	332095	keystroke_t	t	n/a
166.318	0.0745	332636	keystroke_Key.space	Key.space	n/a
166.6025	0.105	333205	keystroke_i	i	n/a
166.827	0.1055	333654	keystroke_n	n	n/a
167.112	0.075	334224	keystroke_Key.enter	Key.enter	n/a
167.1935	8.0805	334387	prompt	n/a	shipping skins depth creativity\n
167.9225	0.12	335845	keystroke_s	s	n/a
168.1775	0.105	336355	keystroke_h	h	n/a
168.4025	0.105	336805	keystroke_i	i	n/a
168.628	0.089	337256	keystroke_p	p	n/a
168.8825	0.09	337765	keystroke_i	i	n/a
169.272	0.075	338544	keystroke_Key.backspace	Key.backspace	n/a
169.558	0.105	339116	keystroke_p	p	n/a
169.812	0.091	339624	keystroke_i	i	n/a
170.007	0.106	340014	keystroke_n	n	n/a
170.2025	0.0905	340405	keystroke_g	g	n/a
170.338	0.1045	340676	keystroke_Key.space	Key.space	n/a
170.5175	0.1055	341035	keystroke_s	s	n/a
170.758	0.09	341516	keystroke_k	k	n/a
170.968	0.089	341936	keystroke_i	i	n/a
171.178	0.105	342356	keystroke_n	n	n/a
171.328	0.1045	342656	keystroke_s	s	n/a
171.5375	0.06	343075	keystroke_Key.space	Key.space	n/a
171.8225	0.0905	343645	keystroke_d	d	n/a
172.0325	0.135	344065	keystroke_e	e	n/a
172.258	0.105	344516	keystroke_p	p	n/a
172.422	0.1065	344844	keystroke_t	t	n/a
172.6775	0.0905	345355	keystroke_h	h	n/a
172.888	0.0745	345776	keystroke_Key.space	Key.space	n/a
173.0975	0.12	346195	keystroke_c	c	n/a
173.4725	0.09	346945	keystroke_r	r	n/a
173.6675	0.075	347335	keystroke_e	e	n/a
173.8625	0.135	347725	keystroke_a	a	n/a
174.102	0.1055	348204	keystroke_t	t	n/a
174.313	0.119	348626	keystroke_i	i	n/a
174.433	0.1045	348866	keystroke_v	v	n/a
174.6425	0.12	349285	keystroke_i	i	n/a
174.7775	0.0755	349555	keystroke_t	t	n/a
174.973	0.09	349946	keystroke_y	y	n/a
175.228	0.0445	350456	keystroke_Key.enter	Key.enter	n/a
175.279	9.9255	350558	prompt	n/a	tired whereas advertisements acdbentity\n
176.0225	0.075	352045	keystroke_t	t	n/a
176.293	0.105	352586	keystroke_i	i	n/a
176.428	0.09	352856	keystroke_r	r	n/a
176.638	0.0595	353276	keystroke_e	e	n/a
176.8175	0.105	353635	keystroke_d	d	n/a
177.0125	0.105	354025	keystroke_Key.space	Key.space	n/a
177.1775	0.1205	354355	keystroke_w	w	n/a
177.463	0.09	354926	keystroke_h	h	n/a
177.627	0.1205	355254	keystroke_e	e	n/a
177.8675	0.12	355735	keystroke_r	r	n/a
178.093	0.075	356186	keystroke_e	e	n/a
178.348	0.104	356696	keystroke_a	a	n/a
178.573	0.075	357146	keystroke_s	s	n/a
178.753	0.09	357506	keystroke_Key.space	Key.space	n/a
178.933	0.12	357866	keystroke_a	a	n/a
179.188	0.135	358376	keystroke_d	d	n/a
179.473	0.119	358946	keystroke_v	v	n/a
179.7125	0.0895	359425	keystroke_e	e	n/a
179.892	0.105	359784	keystroke_r	r	n/a
180.1175	0.0905	360235	keystroke_t	t	n/a
180.357	0.105	360714	keystroke_i	i	n/a
180.492	0.091	360984	keystroke_s	s	n/a
180.717	0.076	361434	keystroke_e	e	n/a
180.9425	0.12	361885	keystroke_m	m	n/a
181.0925	0.12	362185	keystroke_e	e	n/a
181.3475	0.09	362695	keystroke_n	n	n/a
181.4975	0.105	362995	keystroke_t	t	n/a
181.708	0.0895	363416	keystroke_s	s	n/a
181.9325	0.075	363865	keystroke_Key.space	Key.space	n/a
182.0975	0.105	364195	keystroke_a	a	n/a
182.4275	0.1205	364855	keystroke_c	c	n/a
182.848	0.09	365696	keystroke_b	b	n/a
183.1925	0.0895	366385	keystroke_Key.backspace	Key.backspace	n/a
183.3125	0.1355	366625	keystroke_d	d	n/a
183.643	0.074	367286	keystroke_b	b	n/a
183.8525	0.1055	367705	keystroke_e	e	n/a
184.0025	0.135	368005	keystroke_n	n	n/a
184.3325	0.0755	368665	keystroke_t	t	n/a
184.5135	0.1495	369027	keystroke_i	i	n/a
184.678	0.0895	369356	keystroke_t	t	n/a
184.8575	0.09	369715	keystroke_y	y	n/a
185.1275	0.075	370255	keystroke_Key.enter	Key.enter	n/a
185.2085	9.387	370417	prompt	n/a	salvador tsunami acknowledge binding\n
185.9525	0.09	371905	keystroke_s	s	n/a
186.2225	0.0605	372445	keystroke_a	a	n/a
186.3275	0.12	372655	keystroke_l	l	n/a
186.5675	0.1205	373135	keystroke_v	v	n/a
186.7475	0.12	373495	keystroke_a	a	n/a
186.9725	0.15	373945	keystroke_d	d	n/a
187.1675	0.1055	374335	keystroke_o	o	n/a
187.3625	0.0905	374725	keystroke_r	r	n/a
187.633	0.0895	375266	keystroke_Key.space	Key.space	n/a
187.9175	0.06	375835	keystroke_t	t	n/a
188.1875	0.1205	376375	keystroke_s	s	n/a
188.473	0.0895	376946	keystroke_u	u	n/a
188.7125	0.105	377425	keystroke_n	n	n/a
188.8625	0.12	377725	keystroke_a	a	n/a
189.1185	0.0895	378237	keystroke_m	m	n/a
189.3425	0.075	378685	keystroke_i	i	n/a
189.5675	0.0755	379135	keystroke_Key.space	Key.space	n/a
189.718	0.149	379436	keystroke_a	a	n/a
189.973	0.1645	379946	keystroke_c	c	n/a
190.2275	0.105	380455	keystroke_k	k	n/a
190.6925	0.09	381385	keystroke_n	n	n/a
190.9325	0.09	381865	keystroke_o	o	n/a
191.1575	0.105	382315	keystroke_w	w	n/a
191.3975	0.105	382795	keystroke_l	l	n/a
191.548	0.089	383096	keystroke_e	e	n/a
191.743	0.135	383486	keystroke_d	d	n/a
192.043	0.09	384086	keystroke_g	g	n/a
192.238	0.1355	384476	keystroke_e	e	n/a
192.478	0.104	384956	keystroke_Key.space	Key.space	n/a
192.688	0.104	385376	keystroke_b	b	n/a
192.927	0.121	385854	keystroke_i	i	n/a
193.603	0.0895	387206	keystroke_n	n	n/a
193.7675	0.165	387535	keystroke_d	d	n/a
193.9625	0.075	387925	keystroke_i	i	n/a
194.1275	0.09	388255	keystroke_n	n	n/a
194.2775	0.105	388555	keystroke_g	g	n/a
194.518	0.0745	389036	keystroke_Key.enter	Key.enter	n/a
194.601	6.1435	389202	prompt	n/a	gazette lambda check specs\n
195.283	0.12	390566	keystroke_g	g	n/a
195.448	0.135	390896	keystroke_a	a	n/a
195.688	0.1045	391376	keystroke_z	z	n/a
195.9425	0.135	391885	keystroke_e	e	n/a
196.198	0.075	392396	keystroke_t	t	n/a
196.393	0.105	392786	keystroke_t	t	n/a
196.617	0.106	393234	keystroke_e	e	n/a
196.797	0.105	393594	keystroke_Key.space	Key.space	n/a
197.052	0.0905	394104	keystroke_l	l	n/a
197.1125	0.1195	394225	keystroke_a	a	n/a
197.3525	0.12	394705	keystroke_m	m	n/a
197.5475	0.12	395095	keystroke_b	b	n/a
197.8175	0.12	395635	keystroke_d	d	n/a
198.0425	0.105	396085	keystroke_a	a	n/a
198.3125	0.075	396625	keystroke_Key.space	Key.space	n/a
198.5525	0.1205	397105	keystroke_c	c	n/a
198.7325	0.105	397465	keystroke_h	h	n/a
198.868	0.1195	397736	keystroke_e	e	n/a
199.1075	0.12	398215	keystroke_c	c	n/a
199.2725	0.105	398545	keystroke_k	k	n/a
199.4825	0.075	398965	keystroke_Key.space	Key.space	n/a
199.6775	0.106	399355	keystroke_s	s	n/a
199.873	0.09	399746	keystroke_p	p	n/a
200.008	0.09	400016	keystroke_e	e	n/a
200.2325	0.1055	400465	keystroke_c	c	n/a
200.443	0.0595	400886	keystroke_s	s	n/a
200.6975	0.045	401395	keystroke_Key.enter	Key.enter	n/a
200.7495	7.78	401499	prompt	n/a	clinic linux mistress terrorists\n
201.433	0.1345	402866	keystroke_c	c	n/a
201.6275	0.12	403255	keystroke_l	l	n/a
201.8975	0.09	403795	keystroke_i	i	n/a
202.137	0.075	404274	keystroke_n	n	n/a
202.3775	0.09	404755	keystroke_i	i	n/a
202.5875	0.1205	405175	keystroke_c	c	n/a
202.8575	0.0745	405715	keystroke_Key.space	Key.space	n/a
203.127	0.106	406254	keystroke_l	l	n/a
203.428	0.015	406856	keystroke_i	i	n/a
203.563	0.12	407126	keystroke_n	n	n/a
203.862	0.09	407724	keystroke_u	u	n/a
203.998	0.1345	407996	keystroke_x	x	n/a
204.253	0.06	408506	keystroke_Key.space	Key.space	n/a
204.493	0.1045	408986	keystroke_m	m	n/a
204.7175	0.1055	409435	keystroke_i	i	n/a
204.8235	0.1045	409647	keystroke_s	s	n/a
205.093	0.09	410186	keystroke_t	t	n/a
205.3325	0.105	410665	keystroke_r	r	n/a
205.5575	0.06	411115	keystroke_e	e	n/a
205.7975	0.06	411595	keystroke_s	s	n/a
206.0075	0.1055	412015	keystroke_s	s	n/a
206.248	0.09	412496	keystroke_Key.space	Key.space	n/a
206.458	0.09	412916	keystroke_t	t	n/a
206.683	0.105	413366	keystroke_e	e	n/a
206.922	0.0755	413844	keystroke_r	r	n/a
207.133	0.1045	414266	keystroke_r	r	n/a
207.3725	0.12	414745	keystroke_o	o	n/a
207.5225	0.1205	415045	keystroke_r	r	n/a
207.7625	0.12	415525	keystroke_i	i	n/a
207.838	0.1045	415676	keystroke_s	s	n/a
208.1075	0.0305	416215	keystroke_t	t	n/a
208.2425	0.075	416485	keystroke_s	s	n/a
208.4525	0.075	416905	keystroke_Key.enter	Key.enter	n/a
208.5335	8.231	417067	prompt	n/a	hypothetical familiar officials tiffany\n
209.188	0.1345	418376	keystroke_h	h	n/a
209.4275	0.06	418855	keystroke_y	y	n/a
209.5935	0.089	419187	keystroke_p	p	n/a
209.803	0.1045	419606	keystroke_o	o	n/a
210.013	0.0895	420026	keystroke_t	t	n/a
210.148	0.105	420296	keystroke_h	h	n/a
210.3275	0.1505	420655	keystroke_e	e	n/a
210.5375	0.0895	421075	keystroke_t	t	n/a
210.688	0.1045	421376	keystroke_i	i	n/a
210.8825	0.105	421765	keystroke_c	c	n/a
211.078	0.09	422156	keystroke_a	a	n/a
211.2425	0.1055	422485	keystroke_l	l	n/a
211.453	0.09	422906	keystroke_Key.space	Key.space	n/a
211.5875	0.12	423175	keystroke_f	f	n/a
211.7525	0.12	423505	keystroke_a	a	n/a
211.9925	0.075	423985	keystroke_m	m	n/a
212.218	0.09	424436	keystroke_i	i	n/a
212.443	0.1195	424886	keystroke_l	l	n/a
212.6675	0.1205	425335	keystroke_i	i	n/a
212.8625	0.1055	425725	keystroke_a	a	n/a
213.0725	0.09	426145	keystroke_r	r	n/a
213.2375	0.0745	426475	keystroke_Key.space	Key.space	n/a
213.5075	0.12	427015	keystroke_o	o	n/a
213.6725	0.0905	427345	keystroke_f	f	n/a
213.868	0.09	427736	keystroke_f	f	n/a
214.0925	0.105	428185	keystroke_i	i	n/a
214.2425	0.12	428485	keystroke_c	c	n/a
214.393	0.1195	428786	keystroke_i	i	n/a
214.6325	0.105	429265	keystroke_a	a	n/a
214.7825	0.1355	429565	keystroke_l	l	n/a
214.9785	0.119	429957	keystroke_s	s	n/a
215.1575	0.075	430315	keystroke_Key.space	Key.space	n/a
215.3975	0.075	430795	keystroke_t	t	n/a
215.5475	0.1355	431095	keystroke_i	i	n/a
215.728	0.045	431456	keystroke_f	f	n/a
215.8925	0.09	431785	keystroke_f	f	n/a
216.0875	0.105	432175	keystroke_a	a	n/a
216.2525	0.1205	432505	keystroke_n	n	n/a
216.523	0.0895	433046	keystroke_y	y	n/a
216.7175	0.045	433435	keystroke_Key.enter	Key.enter	n/a
216.769	7.6455	433538	prompt	n/a	dealers circumstances norton mailman\n
217.3925	0.075	434785	keystroke_d	d	n/a
217.5875	0.1055	435175	keystroke_e	e	n/a
217.754	0.149	435508	keystroke_a	a	n/a
217.933	0.12	435866	keystroke_l	l	n/a
218.113	0.09	436226	keystroke_e	e	n/a
218.3075	0.105	436615	keystroke_r	r	n/a
218.503	0.075	437006	keystroke_s	s	n/a
218.683	0.09	437366	keystroke_Key.space	Key.space	n/a
218.863	0.12	437726	keystroke_c	c	n/a
219.043	0.1345	438086	keystroke_i	i	n/a
219.1925	0.075	438385	keystroke_r	r	n/a
219.4325	0.1355	438865	keystroke_c	c	n/a
219.553	0.075	439106	keystroke_u	u	n/a
219.793	0.09	439586	keystroke_m	m	n/a
219.9725	0.09	439945	keystroke_s	s	n/a
220.1675	0.1045	440335	keystroke_t	t	n/a
220.3625	0.105	440725	keystroke_a	a	n/a
220.5425	0.0745	441085	keystroke_n	n	n/a
220.7225	0.09	441445	keystroke_c	c	n/a
220.947	0.0455	441894	keystroke_e	e	n/a
221.113	0.1195	442226	keystroke_s	s	n/a
221.308	0.105	442616	keystroke_Key.space	Key.space	n/a
221.548	0.089	443096	keystroke_n	n	n/a
221.7575	0.1045	443515	keystroke_o	o	n/a
221.938	0.135	443876	keystroke_r	r	n/a
222.2075	0.075	444415	keystroke_t	t	n/a
222.3725	0.0905	444745	keystroke_o	o	n/a
222.5675	0.0905	445135	keystroke_n	n	n/a
222.7775	0.0755	445555	keystroke_Key.space	Key.space	n/a
223.0025	0.0755	446005	keystroke_m	m	n/a
223.1525	0.1205	446305	keystroke_a	a	n/a
223.3185	0.1045	446637	keystroke_i	i	n/a
223.543	0.1045	447086	keystroke_l	l	n/a
223.753	0.12	447506	keystroke_m	m	n/a
223.933	0.1195	447866	keystroke_a	a	n/a
224.113	0.1045	448226	keystroke_n	n	n/a
224.368	0.045	448736	keystroke_Key.enter	Key.enter	n/a
224.426	6.618	448852	prompt	n/a	play registrar geneva candles\n
225.118	0.09	450236	keystroke_p	p	n/a
225.3275	0.135	450655	keystroke_l	l	n/a
225.4775	0.1355	450955	keystroke_a	a	n/a
225.703	0.059	451406	keystroke_y	y	n/a
225.9125	0.09	451825	keystroke_Key.space	Key.space	n/a
226.1075	0.09	452215	keystroke_r	r	n/a
226.2725	0.09	452545	keystroke_e	e	n/a
226.543	0.09	453086	keystroke_g	g	n/a
226.6925	0.12	453385	keystroke_i	i	n/a
226.8585	0.1195	453717	keystroke_s	s	n/a
227.0975	0.0755	454195	keystroke_t	t	n/a
227.2475	0.105	454495	keystroke_r	r	n/a
227.518	0.09	455036	keystroke_a	a	n/a
227.713	0.09	455426	keystroke_r	r	n/a
227.878	0.09	455756	keystroke_Key.space	Key.space	n/a
228.042	0.105	456084	keystroke_g	g	n/a
228.2675	0.0755	456535	keystroke_e	e	n/a
228.4325	0.12	456865	keystroke_n	n	n/a
228.598	0.09	457196	keystroke_e	e	n/a
228.8075	0.1205	457615	keystroke_v	v	n/a
229.003	0.09	458006	keystroke_a	a	n/a
229.197	0.09	458394	keystroke_Key.space	Key.space	n/a
229.633	0.135	459266	keystroke_c	c	n/a
229.7975	0.12	459595	keystroke_a	a	n/a
230.008	0.1195	460016	keystroke_n	n	n/a
230.2325	0.105	460465	keystroke_d	d	n/a
230.4425	0.1355	460885	keystroke_l	l	n/a
230.592	0.0905	461184	keystroke_e	e	n/a
230.788	0.09	461576	keystroke_s	s	n/a
230.967	0.075	461934	keystroke_Key.enter	Key.enter	n/a
231.049	9.2355	462098	prompt	n/a	agreements keyboards artwork paste\n
231.7325	0.1055	463465	keystroke_a	a	n/a
231.9575	0.09	463915	keystroke_g	g	n/a
232.1675	0.1045	464335	keystroke_r	r	n/a
232.407	0.076	464814	keystroke_e	e	n/a
232.632	0.091	465264	keystroke_e	e	n/a
232.8125	0.135	465625	keystroke_m	m	n/a
232.9775	0.135	465955	keystroke_e	e	n/a
233.1725	0.1355	466345	keystroke_n	n	n/a
233.2925	0.105	466585	keystroke_t	t	n/a
233.5175	0.0755	467035	keystroke_s	s	n/a
233.6525	0.0905	467305	keystroke_Key.space	Key.space	n/a
233.8775	0.12	467755	keystroke_k	k	n/a
234.028	0.135	468056	keystroke_e	e	n/a
234.208	0.09	468416	keystroke_y	y	n/a
234.4925	0.09	468985	keystroke_b	b	n/a
234.703	0.104	469406	keystroke_o	o	n/a
234.868	0.134	469736	keystroke_a	a	n/a
235.062	0.1055	470124	keystroke_r	r	n/a
235.3025	0.1495	470605	keystroke_d	d	n/a
235.558	0.0745	471116	keystroke_s	s	n/a
235.7525	0.075	471505	keystroke_Key.space	Key.space	n/a
235.9625	0.12	471925	keystroke_a	a	n/a
236.2025	0.075	472405	keystroke_r	r	n/a
236.4125	0.06	472825	keystroke_t	t	n/a
236.4275	0.03	472855	keystroke_r	r	n/a
237.057	0.12	474114	keystroke_Key.backspace	Key.backspace	n/a
237.312	0.105	474624	keystroke_Key.backspace	Key.backspace	n/a
237.9575	0.1055	475915	keystroke_t	t	n/a
238.1675	0.09	476335	keystroke_w	w	n/a
238.3475	0.105	476695	keystroke_o	o	n/a
238.4675	0.075	476935	keystroke_r	r	n/a
238.6775	0.09	477355	keystroke_k	k	n/a
238.8725	0.075	477745	keystroke_Key.space	Key.space	n/a
239.0825	0.075	478165	keystroke_p	p	n/a
239.3075	0.12	478615	keystroke_a	a	n/a
239.517	0.106	479034	keystroke_s	s	n/a
239.7875	0.0895	479575	keystroke_t	t	n/a
240.0275	0.075	480055	keystroke_e	e	n/a
240.2225	0.06	480445	keystroke_Key.enter	Key.enter	n/a
240.2915	6.173	480583	prompt	n/a	cases speed towards debate\n
241.003	0.105	482006	keystroke_c	c	n/a
241.228	0.12	482456	keystroke_a	a	n/a
241.4375	0.1055	482875	keystroke_s	s	n/a
241.663	0.06	483326	keystroke_e	e	n/a
241.843	0.074	483686	keystroke_s	s	n/a
242.023	0.105	484046	keystroke_Key.space	Key.space	n/a
242.443	0.1045	484886	keystroke_s	s	n/a
242.6525	0.09	485305	keystroke_p	p	n/a
242.818	0.045	485636	keystroke_e	e	n/a
242.998	0.075	485996	keystroke_e	e	n/a
243.208	0.134	486416	keystroke_d	d	n/a
243.372	0.075	486744	keystroke_Key.space	Key.space	n/a
243.522	0.1055	487044	keystroke_t	t	n/a
243.7175	0.105	487435	keystroke_o	o	n/a
243.7775	0.105	487555	keystroke_w	w	n/a
243.9875	0.135	487975	keystroke_a	a	n/a
244.228	0.0745	488456	keystroke_r	r	n/a
244.5125	0.1055	489025	keystroke_d	d	n/a
244.723	0.075	489446	keystroke_s	s	n/a
244.887	0.0905	489774	keystroke_Key.space	Key.space	n/a
245.158	0.075	490316	keystroke_d	d	n/a
245.323	0.105	490646	keystroke_e	e	n/a
245.608	0.06	491216	keystroke_b	b	n/a
245.788	0.105	491576	keystroke_a	a	n/a
245.998	0.075	491996	keystroke_t	t	n/a
246.178	0.075	492356	keystroke_e	e	n/a
246.387	0.075	492774	keystroke_Key.enter	Key.enter	n/a
246.469	5.9355	492938	prompt	n/a	taxi optional crash advisors\n
247.2425	0.105	494485	keystroke_t	t	n/a
247.4075	0.09	494815	keystroke_a	a	n/a
247.678	0.105	495356	keystroke_x	x	n/a
247.798	0.09	495596	keystroke_i	i	n/a
248.068	0.09	496136	keystroke_Key.space	Key.space	n/a
248.4425	0.09	496885	keystroke_o	o	n/a
248.623	0.1045	497246	keystroke_p	p	n/a
248.758	0.1045	497516	keystroke_t	t	n/a
248.9385	0.1035	497877	keystroke_i	i	n/a
249.132	0.105	498264	keystroke_o	o	n/a
249.3125	0.1055	498625	keystroke_n	n	n/a
249.4475	0.1355	498895	keystroke_a	a	n/a
249.5675	0.1045	499135	keystroke_l	l	n/a
249.7025	0.1205	499405	keystroke_Key.space	Key.space	n/a
249.868	0.105	499736	keystroke_c	c	n/a
250.078	0.09	500156	keystroke_r	r	n/a
250.2425	0.12	500485	keystroke_a	a	n/a
250.4675	0.0755	500935	keystroke_s	s	n/a
250.603	0.105	501206	keystroke_h	h	n/a
250.768	0.09	501536	keystroke_Key.space	Key.space	n/a
250.903	0.135	501806	keystroke_a	a	n/a
251.143	0.09	502286	keystroke_d	d	n/a
251.383	0.09	502766	keystroke_v	v	n/a
251.518	0.105	503036	keystroke_i	i	n/a
251.653	0.075	503306	keystroke_s	s	n/a
251.788	0.105	503576	keystroke_o	o	n/a
251.923	0.075	503846	keystroke_r	r	n/a
252.133	0.075	504266	keystroke_s	s	n/a
252.343	0.06	504686	keystroke_Key.enter	Key.enter	n/a
252.409	6.5505	504818	prompt	n/a	paragraphs conferences no marks\n
253.078	0.1045	506156	keystroke_p	p	n/a
253.2425	0.12	506485	keystroke_a	a	n/a
253.4375	0.105	506875	keystroke_r	r	n/a
253.6025	0.15	507205	keystroke_a	a	n/a
253.8275	0.06	507655	keystroke_g	g	n/a
254.023	0.09	508046	keystroke_r	r	n/a
254.233	0.09	508466	keystroke_a	a	n/a
254.413	0.09	508826	keystroke_p	p	n/a
254.623	0.12	509246	keystroke_h	h	n/a
254.788	0.105	509576	keystroke_s	s	n/a
254.953	0.075	509906	keystroke_Key.space	Key.space	n/a
255.148	0.135	510296	keystroke_c	c	n/a
255.283	0.135	510566	keystroke_o	o	n/a
255.613	0.015	511226	keystroke_n	n	n/a
255.7325	0.105	511465	keystroke_f	f	n/a
255.928	0.09	511856	keystroke_e	e	n/a
256.1525	0.075	512305	keystroke_r	r	n/a
256.3475	0.09	512695	keystroke_e	e	n/a
256.4975	0.1205	512995	keystroke_n	n	n/a
256.6475	0.105	513295	keystroke_c	c	n/a
256.8585	0.0595	513717	keystroke_e	e	n/a
257.0375	0.0755	514075	keystroke_s	s	n/a
257.188	0.0895	514376	keystroke_Key.space	Key.space	n/a
257.413	0.0895	514826	keystroke_n	n	n/a
257.5925	0.075	515185	keystroke_o	o	n/a
257.7425	0.0605	515485	keystroke_Key.space	Key.space	n/a
257.998	0.0895	515996	keystroke_m	m	n/a
258.1775	0.1355	516355	keystroke_a	a	n/a
258.373	0.09	516746	keystroke_r	r	n/a
258.523	0.1195	517046	keystroke_k	k	n/a
258.6875	0.0755	517375	keystroke_s	s	n/a
258.8985	0.059	517797	keystroke_Key.enter	Key.enter	n/a
258.9645	6.43	517929	prompt	n/a	modular laws drops portions\n
259.5585	0.104	519117	keystroke_m	m	n/a
259.767	0.121	519534	keystroke_o	o	n/a
259.9475	0.15	519895	keystroke_d	d	n/a
260.128	0.0895	520256	keystroke_u	u	n/a
260.338	0.0895	520676	keystroke_l	l	n/a
260.5325	0.105	521065	keystroke_a	a	n/a
260.7275	0.09	521455	keystroke_r	r	n/a
260.8925	0.075	521785	keystroke_Key.space	Key.space	n/a
261.0875	0.135	522175	keystroke_l	l	n/a
261.327	0.121	522654	keystroke_w	w	n/a
261.657	0.06	523314	keystroke_Key.backspace	Key.backspace	n/a
261.822	0.106	523644	keystroke_a	a	n/a
262.0475	0.09	524095	keystroke_w	w	n/a
262.273	0.105	524546	keystroke_s	s	n/a
262.453	0.105	524906	keystroke_Key.space	Key.space	n/a
262.6485	0.1195	525297	keystroke_d	d	n/a
262.873	0.09	525746	keystroke_r	r	n/a
263.023	0.09	526046	keystroke_o	o	n/a
263.218	0.12	526436	keystroke_p	p	n/a
263.458	0.104	526916	keystroke_s	s	n/a
263.592	0.091	527184	keystroke_Key.space	Key.space	n/a
263.7575	0.12	527515	keystroke_p	p	n/a
263.9975	0.105	527995	keystroke_o	o	n/a
264.1325	0.1055	528265	keystroke_r	r	n/a
264.3725	0.0905	528745	keystroke_t	t	n/a
264.553	0.0895	529106	keystroke_i	i	n/a
264.763	0.0905	529526	keystroke_o	o	n/a
264.9575	0.1055	529915	keystroke_n	n	n/a
265.093	0.105	530186	keystroke_s	s	n/a
265.332	0.06	530664	keystroke_Key.enter	Key.enter	n/a
265.4	8.9945	530800	prompt	n/a	code plugins negotiation ceremony\n
267.78	0.058	535560	keystroke_c	c	n/a
267.8675	0.09	535735	keystroke_o	o	n/a
268.048	0.09	536096	keystroke_d	d	n/a
268.258	0.105	536516	keystroke_e	e	n/a
268.422	0.075	536844	keystroke_Key.space	Key.space	n/a
268.633	0.105	537266	keystroke_p	p	n/a
268.828	0.135	537656	keystroke_l	l	n/a
269.1435	0.119	538287	keystroke_u	u	n/a
269.3085	0.1045	538617	keystroke_g	g	n/a
269.503	0.075	539006	keystroke_i	i	n/a
269.728	0.105	539456	keystroke_n	n	n/a
269.8475	0.1205	539695	keystroke_s	s	n/a
270.028	0.1045	540056	keystroke_Key.space	Key.space	n/a
270.268	0.1045	540536	keystroke_n	n	n/a
270.418	0.1195	540836	keystroke_e	e	n/a
270.6875	0.1055	541375	keystroke_g	g	n/a
270.853	0.0895	541706	keystroke_o	o	n/a
271.0175	0.0905	542035	keystroke_t	t	n/a
271.228	0.12	542456	keystroke_i	i	n/a
271.407	0.121	542814	keystroke_a	a	n/a
271.618	0.089	543236	keystroke_t	t	n/a
271.798	0.1195	543596	keystroke_i	i	n/a
272.0075	0.1055	544015	keystroke_o	o	n/a
272.262	0.0915	544524	keystroke_n	n	n/a
272.457	0.075	544914	keystroke_Key.space	Key.space	n/a
272.6375	0.1205	545275	keystroke_c	c	n/a
272.833	0.1205	545666	keystroke_e	e	n/a
273.0425	0.09	546085	keystroke_r	r	n/a
273.2535	0.104	546507	keystroke_e	e	n/a
273.4625	0.105	546925	keystroke_m	m	n/a
273.7025	0.0755	547405	keystroke_o	o	n/a
273.883	0.09	547766	keystroke_n	n	n/a
274.123	0.075	548246	keystroke_y	y	n/a
274.333	0.059	548666	keystroke_Key.enter	Key.enter	n/a
274.3985	6.5955	548797	prompt	n/a	flight dimension risk quickly\n
275.023	0.1195	550046	keystroke_f	f	n/a
275.2025	0.12	550405	keystroke_l	l	n/a
275.4275	0.12	550855	keystroke_i	i	n/a
275.6225	0.12	551245	keystroke_g	g	n/a
275.7425	0.12	551485	keystroke_h	h	n/a
275.9375	0.1055	551875	keystroke_t	t	n/a
276.1325	0.0755	552265	keystroke_Key.space	Key.space	n/a
276.493	0.1195	552986	keystroke_d	d	n/a
276.6275	0.0905	553255	keystroke_i	i	n/a
276.8225	0.1205	553645	keystroke_m	m	n/a
276.972	0.075	553944	keystroke_e	e	n/a
277.243	0.09	554486	keystroke_n	n	n/a
277.393	0.104	554786	keystroke_s	s	n/a
277.588	0.0895	555176	keystroke_i	i	n/a
277.7835	0.0895	555567	keystroke_o	o	n/a
278.008	0.09	556016	keystroke_n	n	n/a
278.203	0.09	556406	keystroke_Key.space	Key.space	n/a
278.383	0.075	556766	keystroke_r	r	n/a
278.548	0.09	557096	keystroke_i	i	n/a
278.7125	0.105	557425	keystroke_s	s	n/a
278.9525	0.1205	557905	keystroke_k	k	n/a
279.178	0.1045	558356	keystroke_Key.space	Key.space	n/a
279.3125	0.09	558625	keystroke_q	q	n/a
279.5675	0.105	559135	keystroke_u	u	n/a
279.8225	0.105	559645	keystroke_i	i	n/a
279.9875	0.12	559975	keystroke_c	c	n/a
280.198	0.09	560396	keystroke_k	k	n/a
280.4375	0.1205	560875	keystroke_l	l	n/a
280.708	0.075	561416	keystroke_y	y	n/a
280.933	0.06	561866	keystroke_Key.enter	Key.enter	n/a
280.999	8.1405	561998	prompt	n/a	element providence subscribe placement\n
281.668	0.105	563336	keystroke_e	e	n/a
281.863	0.09	563726	keystroke_l	l	n/a
282.088	0.119	564176	keystroke_e	e	n/a
282.3125	0.135	564625	keystroke_m	m	n/a
282.673	0.135	565346	keystroke_e	e	n/a
282.808	0.105	565616	keystroke_n	n	n/a
282.973	0.09	565946	keystroke_t	t	n/a
283.138	0.09	566276	keystroke_Key.space	Key.space	n/a
283.333	0.1195	566666	keystroke_p	p	n/a
283.4375	0.105	566875	keystroke_r	r	n/a
283.618	0.075	567236	keystroke_o	o	n/a
283.813	0.09	567626	keystroke_v	v	n/a
283.933	0.12	567866	keystroke_i	i	n/a
284.068	0.105	568136	keystroke_d	d	n/a
284.308	0.09	568616	keystroke_e	e	n/a
284.4875	0.075	568975	keystroke_n	n	n/a
284.623	0.09	569246	keystroke_c	c	n/a
284.8175	0.0755	569635	keystroke_e	e	n/a
284.9675	0.0605	569935	keystroke_Key.space	Key.space	n/a
285.1025	0.105	570205	keystroke_s	s	n/a
285.3425	0.1055	570685	keystroke_u	u	n/a
285.4925	0.075	570985	keystroke_b	b	n/a
285.7475	0.0755	571495	keystroke_s	s	n/a
285.9425	0.105	571885	keystroke_c	c	n/a
286.1675	0.075	572335	keystroke_r	r	n/a
286.303	0.12	572606	keystroke_i	i	n/a
286.468	0.06	572936	keystroke_b	b	n/a
286.6935	0.089	573387	keystroke_e	e	n/a
286.8875	0.06	573775	keystroke_Key.space	Key.space	n/a
287.188	0.105	574376	keystroke_p	p	n/a
287.4275	0.105	574855	keystroke_l	l	n/a
287.578	0.1355	575156	keystroke_a	a	n/a
287.8325	0.1055	575665	keystroke_c	c	n/a
288.0575	0.09	576115	keystroke_e	e	n/a
288.373	0.1345	576746	keystroke_m	m	n/a
288.5225	0.1205	577045	keystroke_e	e	n/a
288.703	0.105	577406	keystroke_n	n	n/a
288.853	0.09	577706	keystroke_t	t	n/a
289.0775	0.06	578155	keystroke_Key.enter	Key.enter	n/a
289.144	6.1905	578288	prompt	n/a	parks madrid install oxygen\n
289.798	0.12	579596	keystroke_p	p	n/a
289.9925	0.106	579985	keystroke_a	a	n/a
290.188	0.0745	580376	keystroke_r	r	n/a
290.458	0.015	580916	keystroke_k	k	n/a
290.488	0.075	580976	keystroke_s	s	n/a
290.668	0.075	581336	keystroke_Key.space	Key.space	n/a
290.9385	0.104	581877	keystroke_m	m	n/a
291.1185	0.105	582237	keystroke_a	a	n/a
291.3575	0.12	582715	keystroke_d	d	n/a
291.598	0.09	583196	keystroke_r	r	n/a
291.808	0.105	583616	keystroke_i	i	n/a
292.033	0.1055	584066	keystroke_d	d	n/a
292.1975	0.075	584395	keystroke_Key.space	Key.space	n/a
292.468	0.105	584936	keystroke_i	i	n/a
292.693	0.12	585386	keystroke_n	n	n/a
292.783	0.1355	585566	keystroke_s	s	n/a
293.0385	0.089	586077	keystroke_t	t	n/a
293.2325	0.075	586465	keystroke_a	a	n/a
293.4275	0.06	586855	keystroke_l	l	n/a
293.6225	0.061	587245	keystroke_l	l	n/a
293.8025	0.06	587605	keystroke_Key.space	Key.space	n/a
294.0135	0.119	588027	keystroke_o	o	n/a
294.178	0.165	588356	keystroke_x	x	n/a
294.463	0.075	588926	keystroke_y	y	n/a
294.6425	0.09	589285	keystroke_g	g	n/a
294.8225	0.0905	589645	keystroke_e	e	n/a
295.003	0.075	590006	keystroke_n	n	n/a
295.258	0.075	590516	keystroke_Key.enter	Key.enter	n/a
295.3395	6.2805	590679	prompt	n/a	task tricks legends destiny\n
296.2335	0.105	592467	keystroke_t	t	n/a
296.4285	0.1345	592857	keystroke_a	a	n/a
296.638	0.105	593276	keystroke_s	s	n/a
296.8175	0.105	593635	keystroke_k	k	n/a
297.0425	0.09	594085	keystroke_Key.space	Key.space	n/a
297.2525	0.06	594505	keystroke_t	t	n/a
297.403	0.09	594806	keystroke_r	r	n/a
297.5975	0.091	595195	keystroke_i	i	n/a
297.7635	0.0745	595527	keystroke_c	c	n/a
297.928	0.105	595856	keystroke_k	k	n/a
298.063	0.105	596126	keystroke_s	s	n/a
298.213	0.075	596426	keystroke_Key.space	Key.space	n/a
298.4375	0.135	596875	keystroke_l	l	n/a
298.5425	0.12	597085	keystroke_e	e	n/a
298.7675	0.09	597535	keystroke_g	g	n/a
298.9325	0.091	597865	keystroke_e	e	n/a
299.203	0.09	598406	keystroke_n	n	n/a
299.4125	0.105	598825	keystroke_d	d	n/a
299.623	0.0595	599246	keystroke_s	s	n/a
299.8175	0.075	599635	keystroke_Key.space	Key.space	n/a
300.0275	0.091	600055	keystroke_d	d	n/a
300.2375	0.0905	600475	keystroke_e	e	n/a
300.463	0.105	600926	keystroke_s	s	n/a
300.718	0.075	601436	keystroke_t	t	n/a
300.883	0.0895	601766	keystroke_i	i	n/a
301.0925	0.0905	602185	keystroke_n	n	n/a
301.3185	0.074	602637	keystroke_y	y	n/a
301.5425	0.0755	603085	keystroke_Key.enter	Key.enter	n/a
301.624	7.1805	603248	prompt	n/a	gilbert sees political colleague\n
302.2325	0.105	604465	keystroke_g	g	n/a
302.488	0.0745	604976	keystroke_i	i	n/a
302.698	0.06	605396	keystroke_l	l	n/a
302.818	0.09	605636	keystroke_b	b	n/a
303.0425	0.0905	606085	keystroke_e	e	n/a
303.2225	0.106	606445	keystroke_r	r	n/a
303.4035	0.104	606807	keystroke_t	t	n/a
303.6125	0.09	607225	keystroke_Key.space	Key.space	n/a
303.793	0.0895	607586	keystroke_s	s	n/a
304.0175	0.06	608035	keystroke_e	e	n/a
304.2275	0.0905	608455	keystroke_e	e	n/a
304.4675	0.0755	608935	keystroke_s	s	n/a
304.6025	0.075	609205	keystroke_Key.space	Key.space	n/a
304.813	0.0895	609626	keystroke_p	p	n/a
305.053	0.0895	610106	keystroke_o	o	n/a
305.2925	0.075	610585	keystroke_l	l	n/a
305.5335	0.119	611067	keystroke_i	i	n/a
305.6975	0.075	611395	keystroke_t	t	n/a
305.9075	0.105	611815	keystroke_i	i	n/a
306.0275	0.15	612055	keystroke_c	c	n/a
306.2525	0.0755	612505	keystroke_a	a	n/a
306.4325	0.105	612865	keystroke_l	l	n/a
306.643	0.075	613286	keystroke_Key.space	Key.space	n/a
306.808	0.12	613616	keystroke_c	c	n/a
306.958	0.09	613916	keystroke_o	o	n/a
307.1975	0.075	614395	keystroke_l	l	n/a
307.408	0.09	614816	keystroke_l	l	n/a
307.543	0.1045	615086	keystroke_e	e	n/a
307.7375	0.1205	615475	keystroke_a	a	n/a
307.9785	0.0745	615957	keystroke_g	g	n/a
308.218	0.1195	616436	keystroke_u	u	n/a
308.4875	0.076	616975	keystroke_e	e	n/a
308.728	0.075	617456	keystroke_Key.enter	Key.enter	n/a
308.8105	7.179	617621	prompt	n/a	hydrogen closure tribute italiano\n
309.4625	0.075	618925	keystroke_h	h	n/a
309.6725	0.0755	619345	keystroke_y	y	n/a
309.823	0.12	619646	keystroke_d	d	n/a
310.0175	0.09	620035	keystroke_r	r	n/a
310.1525	0.12	620305	keystroke_o	o	n/a
310.2875	0.151	620575	keystroke_g	g	n/a
310.468	0.1195	620936	keystroke_e	e	n/a
310.6325	0.09	621265	keystroke_n	n	n/a
310.858	0.105	621716	keystroke_Key.space	Key.space	n/a
310.993	0.1345	621986	keystroke_c	c	n/a
311.1425	0.0755	622285	keystroke_l	l	n/a
311.353	0.0745	622706	keystroke_o	o	n/a
311.5325	0.09	623065	keystroke_s	s	n/a
311.7285	0.1045	623457	keystroke_u	u	n/a
312.058	0.105	624116	keystroke_r	r	n/a
312.268	0.135	624536	keystroke_e	e	n/a
312.418	0.075	624836	keystroke_Key.space	Key.space	n/a
312.598	0.06	625196	keystroke_t	t	n/a
312.763	0.1055	625526	keystroke_r	r	n/a
313.0325	0.105	626065	keystroke_i	i	n/a
313.2135	0.0895	626427	keystroke_b	b	n/a
313.3785	0.12	626757	keystroke_u	u	n/a
313.5425	0.09	627085	keystroke_t	t	n/a
313.7535	0.089	627507	keystroke_e	e	n/a
313.9475	0.0755	627895	keystroke_Key.space	Key.space	n/a
314.218	0.12	628436	keystroke_i	i	n/a
314.4585	0.089	628917	keystroke_t	t	n/a
314.638	0.105	629276	keystroke_a	a	n/a
314.848	0.09	629696	keystroke_l	l	n/a
315.0725	0.12	630145	keystroke_i	i	n/a
315.2225	0.105	630445	keystroke_a	a	n/a
315.463	0.075	630926	keystroke_n	n	n/a
315.703	0.06	631406	keystroke_o	o	n/a
315.943	0.045	631886	keystroke_Key.enter	Key.enter	n/a
315.997	7.2075	631994	prompt	n/a	agreement switzerland loss strength\n
316.603	0.105	633206	keystroke_a	a	n/a
316.843	0.0755	633686	keystroke_g	g	n/a
317.068	0.09	634136	keystroke_r	r	n/a
317.263	0.075	634526	keystroke_e	e	n/a
317.4735	0.105	634947	keystroke_e	e	n/a
317.7425	0.1055	635485	keystroke_m	m	n/a
317.953	0.12	635906	keystroke_e	e	n/a
318.1035	0.0895	636207	keystroke_n	n	n/a
318.2525	0.09	636505	keystroke_t	t	n/a
318.3875	0.06	636775	keystroke_Key.space	Key.space	n/a
318.6125	0.106	637225	keystroke_s	s	n/a
318.838	0.105	637676	keystroke_w	w	n/a
319.0485	0.105	638097	keystroke_i	i	n/a
319.228	0.0755	638456	keystroke_t	t	n/a
319.4235	0.105	638847	keystroke_z	z	n/a
319.6625	0.121	639325	keystroke_e	e	n/a
319.873	0.075	639746	keystroke_r	r	n/a
320.038	0.105	640076	keystroke_l	l	n/a
320.188	0.105	640376	keystroke_a	a	n/a
320.353	0.09	640706	keystroke_n	n	n/a
320.503	0.12	641006	keystroke_d	d	n/a
320.638	0.06	641276	keystroke_Key.space	Key.space	n/a
320.8325	0.0455	641665	keystroke_l	l	n/a
320.998	0.105	641996	keystroke_o	o	n/a
321.133	0.06	642266	keystroke_s	s	n/a
321.313	0.12	642626	keystroke_s	s	n/a
321.463	0.0745	642926	keystroke_Key.space	Key.space	n/a
321.6125	0.1205	643225	keystroke_s	s	n/a
321.883	0.06	643766	keystroke_t	t	n/a
322.0925	0.105	644185	keystroke_r	r	n/a
322.303	0.09	644606	keystroke_e	e	n/a
322.468	0.105	644936	keystroke_n	n	n/a
322.603	0.0895	645206	keystroke_g	g	n/a
322.7975	0.075	645595	keystroke_t	t	n/a
322.9325	0.075	645865	keystroke_h	h	n/a
323.1425	0.06	646285	keystroke_Key.enter	Key.enter	n/a
323.211	5.079	646422	prompt	n/a	hans daisy trembl menus\n
323.908	0.09	647816	keystroke_h	h	n/a
324.0125	0.105	648025	keystroke_a	a	n/a
324.1625	0.1205	648325	keystroke_n	n	n/a
324.328	0.09	648656	keystroke_s	s	n/a
324.478	0.0755	648956	keystroke_Key.space	Key.space	n/a
324.7625	0.105	649525	keystroke_d	d	n/a
324.958	0.09	649916	keystroke_a	a	n/a
325.0785	0.1045	650157	keystroke_i	i	n/a
325.243	0.12	650486	keystroke_s	s	n/a
325.484	0.104	650968	keystroke_y	y	n/a
325.678	0.0595	651356	keystroke_Key.space	Key.space	n/a
325.9175	0.061	651835	keystroke_t	t	n/a
326.1135	0.09	652227	keystroke_r	r	n/a
326.3075	0.091	652615	keystroke_e	e	n/a
326.4575	0.105	652915	keystroke_m	m	n/a
326.6825	0.09	653365	keystroke_b	b	n/a
326.8475	0.0905	653695	keystroke_l	l	n/a
327.073	0.0895	654146	keystroke_Key.space	Key.space	n/a
327.298	0.12	654596	keystroke_m	m	n/a
327.463	0.105	654926	keystroke_e	e	n/a
327.598	0.09	655196	keystroke_n	n	n/a
327.853	0.09	655706	keystroke_u	u	n/a
328.033	0.1045	656066	keystroke_s	s	n/a
328.213	0.075	656426	keystroke_Key.enter	Key.enter	n/a
328.294	6.071	656588	prompt	n/a	exhaust wishing absent solve\n
328.9785	0.044	657957	keystroke_e	e	n/a
329.2175	0.1355	658435	keystroke_x	x	n/a
329.4725	0.0905	658945	keystroke_h	h	n/a
329.623	0.1045	659246	keystroke_a	a	n/a
329.818	0.09	659636	keystroke_u	u	n/a
329.968	0.135	659936	keystroke_s	s	n/a
330.253	0.09	660506	keystroke_t	t	n/a
330.4325	0.0605	660865	keystroke_Key.space	Key.space	n/a
330.643	0.09	661286	keystroke_w	w	n/a
330.748	0.12	661496	keystroke_i	i	n/a
330.988	0.0905	661976	keystroke_s	s	n/a
331.1835	0.1045	662367	keystroke_h	h	n/a
331.4085	0.074	662817	keystroke_i	i	n/a
331.6325	0.121	663265	keystroke_n	n	n/a
331.8585	0.0745	663717	keystroke_g	g	n/a
331.978	0.0595	663956	keystroke_Key.space	Key.space	n/a
332.098	0.105	664196	keystroke_a	a	n/a
332.353	0.06	664706	keystroke_b	b	n/a
332.5625	0.0605	665125	keystroke_s	s	n/a
332.7585	0.09	665517	keystroke_e	e	n/a
332.9235	0.0895	665847	keystroke_n	n	n/a
333.0575	0.075	666115	keystroke_t	t	n/a
333.208	0.0895	666416	keystroke_Key.space	Key.space	n/a
333.3725	0.106	666745	keystroke_s	s	n/a
333.5225	0.09	667045	keystroke_o	o	n/a
333.7775	0.1205	667555	keystroke_l	l	n/a
333.913	0.1045	667826	keystroke_v	v	n/a
334.1375	0.076	668275	keystroke_e	e	n/a
334.303	0.0605	668606	keystroke_Key.enter	Key.enter	n/a
334.3715	5.814	668743	prompt	n/a	operator song twins course\n
335.1275	0.09	670255	keystroke_o	o	n/a
335.338	0.105	670676	keystroke_p	p	n/a
335.533	0.12	671066	keystroke_e	e	n/a
335.7585	0.059	671517	keystroke_r	r	n/a
335.9075	0.1065	671815	keystroke_a	a	n/a
336.134	0.089	672268	keystroke_t	t	n/a
336.343	0.09	672686	keystroke_o	o	n/a
336.493	0.105	672986	keystroke_r	r	n/a
336.658	0.075	673316	keystroke_Key.space	Key.space	n/a
336.823	0.105	673646	keystroke_s	s	n/a
337.003	0.0895	674006	keystroke_o	o	n/a
337.2125	0.1055	674425	keystroke_n	n	n/a
337.408	0.076	674816	keystroke_g	g	n/a
337.528	0.0745	675056	keystroke_Key.space	Key.space	n/a
337.7225	0.0755	675445	keystroke_t	t	n/a
337.918	0.105	675836	keystroke_w	w	n/a
338.1125	0.075	676225	keystroke_i	i	n/a
338.323	0.09	676646	keystroke_n	n	n/a
338.458	0.09	676916	keystroke_s	s	n/a
338.608	0.0895	677216	keystroke_Key.space	Key.space	n/a
338.8475	0.135	677695	keystroke_c	c	n/a
339.058	0.1045	678116	keystroke_o	o	n/a
339.2975	0.105	678595	keystroke_u	u	n/a
339.4775	0.075	678955	keystroke_r	r	n/a
339.688	0.0745	679376	keystroke_s	s	n/a
339.898	0.0605	679796	keystroke_e	e	n/a
340.0935	0.09	680187	keystroke_Key.enter	Key.enter	n/a
340.192	8.2725	680384	prompt	n/a	successfully then notification britain\n
340.7975	0.1205	681595	keystroke_s	s	n/a
341.023	0.075	682046	keystroke_u	u	n/a
341.143	0.045	682286	keystroke_c	c	n/a
341.323	0.09	682646	keystroke_c	c	n/a
341.563	0.045	683126	keystroke_e	e	n/a
341.728	0.075	683456	keystroke_s	s	n/a
341.9375	0.105	683875	keystroke_s	s	n/a
342.193	0.06	684386	keystroke_f	f	n/a
342.388	0.075	684776	keystroke_u	u	n/a
342.6135	0.06	685227	keystroke_l	l	n/a
342.793	0.06	685586	keystroke_l	l	n/a
343.018	0.09	686036	keystroke_y	y	n/a
343.228	0.06	686456	keystroke_Key.space	Key.space	n/a
343.4375	0.076	686875	keystroke_t	t	n/a
343.6475	0.091	687295	keystroke_h	h	n/a
343.7975	0.12	687595	keystroke_e	e	n/a
343.9025	0.0905	687805	keystroke_n	n	n/a
344.0975	0.075	688195	keystroke_Key.space	Key.space	n/a
344.3225	0.105	688645	keystroke_n	n	n/a
344.5625	0.12	689125	keystroke_o	o	n/a
344.7425	0.0905	689485	keystroke_t	t	n/a
344.983	0.1205	689966	keystroke_i	i	n/a
345.118	0.0895	690236	keystroke_f	f	n/a
345.3275	0.1205	690655	keystroke_i	i	n/a
345.433	0.105	690866	keystroke_c	c	n/a
345.628	0.12	691256	keystroke_a	a	n/a
345.8375	0.075	691675	keystroke_t	t	n/a
346.0325	0.1055	692065	keystroke_i	i	n/a
346.2435	0.06	692487	keystroke_o	o	n/a
346.4385	0.0745	692877	keystroke_n	n	n/a
346.632	0.0605	693264	keystroke_Key.space	Key.space	n/a
346.8435	0.075	693687	keystroke_b	b	n/a
347.0385	0.105	694077	keystroke_r	r	n/a
347.4425	0.12	694885	keystroke_i	i	n/a
347.6385	0.104	695277	keystroke_t	t	n/a
347.8325	0.0905	695665	keystroke_a	a	n/a
347.9685	0.104	695937	keystroke_i	i	n/a
348.1625	0.09	696325	keystroke_n	n	n/a
348.403	0.06	696806	keystroke_Key.enter	Key.enter	n/a
348.47	6.595	696940	prompt	n/a	innocent saints gordon output\n
348.9875	0.105	697975	keystroke_i	i	n/a
349.1975	0.0905	698395	keystroke_n	n	n/a
349.4675	0.075	698935	keystroke_n	n	n/a
349.6475	0.105	699295	keystroke_o	o	n/a
349.7975	0.12	699595	keystroke_c	c	n/a
350.0225	0.12	700045	keystroke_e	e	n/a
350.203	0.0895	700406	keystroke_n	n	n/a
350.323	0.09	700646	keystroke_t	t	n/a
350.518	0.09	701036	keystroke_Key.space	Key.space	n/a
350.683	0.09	701366	keystroke_s	s	n/a
350.863	0.12	701726	keystroke_a	a	n/a
351.013	0.09	702026	keystroke_i	i	n/a
351.223	0.1195	702446	keystroke_n	n	n/a
351.4625	0.06	702925	keystroke_t	t	n/a
351.643	0.06	703286	keystroke_s	s	n/a
351.838	0.0895	703676	keystroke_Key.space	Key.space	n/a
352.0325	0.09	704065	keystroke_g	g	n/a
352.2275	0.09	704455	keystroke_o	o	n/a
352.3325	0.0755	704665	keystroke_r	r	n/a
352.5735	0.104	705147	keystroke_d	d	n/a
352.693	0.1195	705386	keystroke_o	o	n/a
352.948	0.0905	705896	keystroke_n	n	n/a
353.173	0.0895	706346	keystroke_Key.space	Key.space	n/a
353.4125	0.12	706825	keystroke_o	o	n/a
353.6525	0.09	707305	keystroke_u	u	n/a
353.893	0.06	707786	keystroke_t	t	n/a
354.0275	0.105	708055	keystroke_p	p	n/a
354.2675	0.105	708535	keystroke_u	u	n/a
354.447	0.0905	708894	keystroke_t	t	n/a
354.9875	0.0755	709975	keystroke_Key.enter	Key.enter	n/a
355.0705	5.484	710141	prompt	n/a	true cluster spatial rocks\n
355.7685	0.0595	711537	keystroke_t	t	n/a
355.963	0.09	711926	keystroke_r	r	n/a
356.1275	0.09	712255	keystroke_u	u	n/a
356.2475	0.135	712495	keystroke_e	e	n/a
356.3975	0.075	712795	keystroke_Key.space	Key.space	n/a
356.5625	0.12	713125	keystroke_c	c	n/a
356.7125	0.09	713425	keystroke_l	l	n/a
356.9675	0.0605	713935	keystroke_u	u	n/a
357.0725	0.105	714145	keystroke_s	s	n/a
357.3135	0.075	714627	keystroke_t	t	n/a
357.5375	0.075	715075	keystroke_e	e	n/a
357.7175	0.09	715435	keystroke_r	r	n/a
357.8975	0.0755	715795	keystroke_Key.space	Key.space	n/a
358.048	0.1195	716096	keystroke_s	s	n/a
358.243	0.09	716486	keystroke_p	p	n/a
358.618	0.12	717236	keystroke_a	a	n/a
358.828	0.075	717656	keystroke_t	t	n/a
358.933	0.12	717866	keystroke_i	i	n/a
359.068	0.12	718136	keystroke_a	a	n/a
359.278	0.075	718556	keystroke_l	l	n/a
359.4875	0.0755	718975	keystroke_Key.space	Key.space	n/a
359.638	0.09	719276	keystroke_r	r	n/a
359.788	0.105	719576	keystroke_o	o	n/a
359.998	0.0755	719996	keystroke_c	c	n/a
360.1475	0.1205	720295	keystroke_k	k	n/a
360.269	0.089	720538	keystroke_s	s	n/a
360.4785	0.0745	720957	keystroke_Key.enter	Key.enter	n/a
360.5595	7.7505	721119	prompt	n/a	palmer dream pursuant specialties\n
361.348	0.09	722696	keystroke_p	p	n/a
361.558	0.1045	723116	keystroke_a	a	n/a
361.6775	0.12	723355	keystroke_l	l	n/a
361.978	0.1205	723956	keystroke_m	m	n/a
362.233	0.1045	724466	keystroke_e	e	n/a
362.443	0.105	724886	keystroke_r	r	n/a
362.593	0.1055	725186	keystroke_Key.space	Key.space	n/a
362.8625	0.121	725725	keystroke_d	d	n/a
363.0735	0.1495	726147	keystroke_r	r	n/a
363.328	0.09	726656	keystroke_e	e	n/a
363.523	0.135	727046	keystroke_a	a	n/a
363.733	0.1055	727466	keystroke_m	m	n/a
363.9125	0.1205	727825	keystroke_Key.space	Key.space	n/a
364.183	0.0905	728366	keystroke_p	p	n/a
364.423	0.105	728846	keystroke_u	u	n/a
364.558	0.075	729116	keystroke_r	r	n/a
364.783	0.09	729566	keystroke_s	s	n/a
364.918	0.09	729836	keystroke_u	u	n/a
365.068	0.1195	730136	keystroke_a	a	n/a
365.2775	0.135	730555	keystroke_n	n	n/a
365.4585	0.074	730917	keystroke_t	t	n/a
365.668	0.09	731336	keystroke_Key.space	Key.space	n/a
365.8785	0.12	731757	keystroke_s	s	n/a
366.0725	0.135	732145	keystroke_p	p	n/a
366.2225	0.12	732445	keystroke_e	e	n/a
366.4625	0.106	732925	keystroke_c	c	n/a
366.5535	0.135	733107	keystroke_i	i	n/a
366.7185	0.12	733437	keystroke_a	a	n/a
366.8835	0.1495	733767	keystroke_l	l	n/a
367.1535	0.105	734307	keystroke_i	i	n/a
367.3035	0.09	734607	keystroke_t	t	n/a
367.4385	0.1345	734877	keystroke_i	i	n/a
367.588	0.09	735176	keystroke_e	e	n/a
367.783	0.075	735566	keystroke_s	s	n/a
368.2325	0.075	736465	keystroke_Key.enter	Key.enter	n/a
368.315	7.1345	736630	prompt	n/a	zdnet carpet performing enlarge\n
369.0875	0.1205	738175	keystroke_z	z	n/a
369.463	0.1055	738926	keystroke_d	d	n/a
369.703	0.12	739406	keystroke_n	n	n/a
369.913	0.1195	739826	keystroke_e	e	n/a
370.138	0.09	740276	keystroke_t	t	n/a
370.3475	0.09	740695	keystroke_Key.space	Key.space	n/a
370.513	0.105	741026	keystroke_c	c	n/a
370.738	0.105	741476	keystroke_a	a	n/a
370.933	0.105	741866	keystroke_r	r	n/a
371.098	0.12	742196	keystroke_p	p	n/a
371.308	0.105	742616	keystroke_e	e	n/a
371.503	0.09	743006	keystroke_t	t	n/a
371.653	0.075	743306	keystroke_Key.space	Key.space	n/a
371.908	0.105	743816	keystroke_p	p	n/a
372.103	0.105	744206	keystroke_e	e	n/a
372.2975	0.061	744595	keystroke_r	r	n/a
372.4935	0.104	744987	keystroke_f	f	n/a
372.7635	0.074	745527	keystroke_o	o	n/a
372.9575	0.06	745915	keystroke_r	r	n/a
373.1075	0.075	746215	keystroke_m	m	n/a
373.3475	0.06	746695	keystroke_i	i	n/a
373.5425	0.09	747085	keystroke_n	n	n/a
373.6925	0.075	747385	keystroke_g	g	n/a
373.8425	0.075	747685	keystroke_Key.space	Key.space	n/a
374.0375	0.09	748075	keystroke_e	e	n/a
374.2175	0.09	748435	keystroke_n	n	n/a
374.428	0.135	748856	keystroke_l	l	n/a
374.668	0.105	749336	keystroke_a	a	n/a
374.8335	0.1045	749667	keystroke_r	r	n/a
375.0585	0.09	750117	keystroke_g	g	n/a
375.2535	0.075	750507	keystroke_e	e	n/a
375.3725	0.075	750745	keystroke_Key.enter	Key.enter	n/a
375.4535	8.2465	750907	prompt	n/a	conditioning republic creatures shorts\n
376.288	0.135	752576	keystroke_c	c	n/a
376.483	0.105	752966	keystroke_o	o	n/a
376.663	0.135	753326	keystroke_n	n	n/a
376.813	0.15	753626	keystroke_d	d	n/a
377.143	0.105	754286	keystroke_i	i	n/a
377.293	0.09	754586	keystroke_t	t	n/a
377.473	0.1195	754946	keystroke_i	i	n/a
377.6675	0.135	755335	keystroke_o	o	n/a
377.9075	0.12	755815	keystroke_n	n	n/a
378.148	0.12	756296	keystroke_i	i	n/a
378.373	0.12	756746	keystroke_n	n	n/a
378.5375	0.1055	757075	keystroke_g	g	n/a
378.733	0.105	757466	keystroke_Key.space	Key.space	n/a
378.883	0.105	757766	keystroke_r	r	n/a
379.078	0.135	758156	keystroke_e	e	n/a
379.198	0.1355	758396	keystroke_p	p	n/a
379.4525	0.1055	758905	keystroke_u	u	n/a
379.633	0.075	759266	keystroke_b	b	n/a
379.828	0.1055	759656	keystroke_l	l	n/a
380.0375	0.1205	760075	keystroke_i	i	n/a
380.173	0.135	760346	keystroke_c	c	n/a
380.323	0.09	760646	keystroke_Key.space	Key.space	n/a
380.503	0.12	761006	keystroke_c	c	n/a
380.788	0.075	761576	keystroke_r	r	n/a
380.9535	0.09	761907	keystroke_e	e	n/a
381.1335	0.1195	762267	keystroke_a	a	n/a
381.3275	0.09	762655	keystroke_t	t	n/a
381.568	0.105	763136	keystroke_u	u	n/a
381.688	0.09	763376	keystroke_r	r	n/a
381.8975	0.075	763795	keystroke_e	e	n/a
382.0925	0.075	764185	keystroke_s	s	n/a
382.2725	0.06	764545	keystroke_Key.space	Key.space	n/a
382.453	0.135	764906	keystroke_s	s	n/a
382.723	0.09	765446	keystroke_h	h	n/a
382.933	0.09	765866	keystroke_o	o	n/a
383.053	0.105	766106	keystroke_r	r	n/a
383.278	0.0905	766556	keystroke_t	t	n/a
383.458	0.075	766916	keystroke_s	s	n/a
383.6535	0.0445	767307	keystroke_Key.enter	Key.enter	n/a
383.705	8.425	767410	prompt	n/a	palmer widescreen enters peas\n
384.3575	0.09	768715	keystroke_p	p	n/a
384.5385	0.09	769077	keystroke_a	a	n/a
384.6735	0.104	769347	keystroke_l	l	n/a
384.913	0.1195	769826	keystroke_m	m	n/a
385.078	0.165	770156	keystroke_e	e	n/a
385.258	0.105	770516	keystroke_r	r	n/a
385.438	0.105	770876	keystroke_Key.space	Key.space	n/a
385.588	0.0905	771176	keystroke_w	w	n/a
385.7835	0.1195	771567	keystroke_i	i	n/a
385.963	0.105	771926	keystroke_d	d	n/a
386.143	0.12	772286	keystroke_e	e	n/a
386.398	0.075	772796	keystroke_s	s	n/a
386.5485	0.1045	773097	keystroke_c	c	n/a
386.788	0.105	773576	keystroke_r	r	n/a
387.043	0.075	774086	keystroke_e	e	n/a
387.433	0.105	774866	keystroke_e	e	n/a
387.598	0.075	775196	keystroke_n	n	n/a
387.808	0.09	775616	keystroke_Key.space	Key.space	n/a
388.198	0.1345	776396	keystroke_e	e	n/a
388.708	0.075	777416	keystroke_Key.backspace	Key.backspace	n/a
388.888	0.105	777776	keystroke_Key.backspace	Key.backspace	n/a
389.6975	0.0755	779395	keystroke_Key.space	Key.space	n/a
389.908	0.1055	779816	keystroke_e	e	n/a
390.043	0.1195	780086	keystroke_n	n	n/a
390.1775	0.106	780355	keystroke_t	t	n/a
390.388	0.1055	780776	keystroke_e	e	n/a
390.5975	0.0755	781195	keystroke_r	r	n/a
390.778	0.12	781556	keystroke_s	s	n/a
390.958	0.0895	781916	keystroke_Key.space	Key.space	n/a
391.2275	0.12	782455	keystroke_p	p	n/a
391.3625	0.1205	782725	keystroke_e	e	n/a
391.603	0.09	783206	keystroke_a	a	n/a
391.813	0.075	783626	keystroke_s	s	n/a
392.0675	0.06	784135	keystroke_Key.enter	Key.enter	n/a
392.1345	7.3235	784269	prompt	n/a	urgent popular exclusion strongly\n
392.773	0.105	785546	keystroke_u	u	n/a
392.9525	0.091	785905	keystroke_r	r	n/a
393.178	0.0745	786356	keystroke_g	g	n/a
393.3725	0.1205	786745	keystroke_e	e	n/a
393.598	0.105	787196	keystroke_n	n	n/a
393.868	0.015	787736	keystroke_t	t	n/a
393.913	0.075	787826	keystroke_Key.space	Key.space	n/a
394.138	0.09	788276	keystroke_p	p	n/a
394.393	0.09	788786	keystroke_o	o	n/a
394.6035	0.104	789207	keystroke_p	p	n/a
394.8125	0.1055	789625	keystroke_u	u	n/a
395.038	0.12	790076	keystroke_l	l	n/a
395.263	0.105	790526	keystroke_a	a	n/a
395.503	0.075	791006	keystroke_r	r	n/a
395.638	0.09	791276	keystroke_Key.space	Key.space	n/a
395.833	0.075	791666	keystroke_e	e	n/a
396.058	0.12	792116	keystroke_x	x	n/a
396.253	0.135	792506	keystroke_c	c	n/a
396.418	0.09	792836	keystroke_l	l	n/a
396.6285	0.0895	793257	keystroke_u	u	n/a
396.7475	0.0905	793495	keystroke_s	s	n/a
396.973	0.06	793946	keystroke_i	i	n/a
397.1525	0.1055	794305	keystroke_o	o	n/a
397.378	0.105	794756	keystroke_n	n	n/a
397.603	0.0905	795206	keystroke_Key.space	Key.space	n/a
397.7385	0.105	795477	keystroke_s	s	n/a
398.0225	0.06	796045	keystroke_t	t	n/a
398.1725	0.1055	796345	keystroke_r	r	n/a
398.3375	0.135	796675	keystroke_o	o	n/a
398.5775	0.105	797155	keystroke_n	n	n/a
398.773	0.0895	797546	keystroke_g	g	n/a
398.9375	0.09	797875	keystroke_l	l	n/a
399.1625	0.0905	798325	keystroke_y	y	n/a
399.388	0.06	798776	keystroke_Key.enter	Key.enter	n/a
399.4625	7.788	798925	prompt	n/a	activation guam consultant batteries\n
400.063	0.1045	800126	keystroke_a	a	n/a
400.2875	0.1205	800575	keystroke_c	c	n/a
400.5275	0.0755	801055	keystroke_t	t	n/a
400.6775	0.105	801355	keystroke_i	i	n/a
400.7975	0.105	801595	keystroke_v	v	n/a
401.008	0.1045	802016	keystroke_a	a	n/a
401.1875	0.12	802375	keystroke_t	t	n/a
401.4275	0.105	802855	keystroke_i	i	n/a
401.6225	0.1205	803245	keystroke_o	o	n/a
401.833	0.1045	803666	keystroke_n	n	n/a
402.0725	0.06	804145	keystroke_Key.space	Key.space	n/a
402.2075	0.09	804415	keystroke_g	g	n/a
402.3425	0.105	804685	keystroke_u	u	n/a
402.508	0.1355	805016	keystroke_a	a	n/a
402.733	0.12	805466	keystroke_m	m	n/a
402.958	0.075	805916	keystroke_Key.space	Key.space	n/a
403.1985	0.15	806397	keystroke_c	c	n/a
403.2735	0.134	806547	keystroke_o	o	n/a
403.483	0.1045	806966	keystroke_n	n	n/a
403.678	0.1355	807356	keystroke_s	s	n/a
403.828	0.105	807656	keystroke_u	u	n/a
404.0685	0.1495	808137	keystroke_l	l	n/a
404.308	0.0605	808616	keystroke_t	t	n/a
404.4735	0.135	808947	keystroke_a	a	n/a
404.668	0.12	809336	keystroke_n	n	n/a
404.8335	0.089	809667	keystroke_t	t	n/a
405.0275	0.09	810055	keystroke_Key.space	Key.space	n/a
405.2225	0.105	810445	keystroke_b	b	n/a
405.4475	0.075	810895	keystroke_a	a	n/a
405.673	0.0745	811346	keystroke_t	t	n/a
405.868	0.09	811736	keystroke_t	t	n/a
406.093	0.135	812186	keystroke_e	e	n/a
406.348	0.075	812696	keystroke_r	r	n/a
406.543	0.12	813086	keystroke_i	i	n/a
406.678	0.075	813356	keystroke_e	e	n/a
406.858	0.09	813716	keystroke_s	s	n/a
407.158	0.09	814316	keystroke_Key.enter	Key.enter	n/a
407.255	7.195	814510	prompt	n/a	startup affair sustainable airlines\n
407.893	0.1505	815786	keystroke_s	s	n/a
408.148	0.0745	816296	keystroke_t	t	n/a
408.4025	0.1205	816805	keystroke_a	a	n/a
408.643	0.06	817286	keystroke_r	r	n/a
408.838	0.075	817676	keystroke_t	t	n/a
409.033	0.12	818066	keystroke_u	u	n/a
409.2575	0.1055	818515	keystroke_p	p	n/a
409.423	0.0895	818846	keystroke_Key.space	Key.space	n/a
409.5575	0.0905	819115	keystroke_a	a	n/a
409.783	0.075	819566	keystroke_f	f	n/a
409.9475	0.106	819895	keystroke_f	f	n/a
410.1425	0.105	820285	keystroke_a	a	n/a
410.3075	0.136	820615	keystroke_i	i	n/a
410.4885	0.104	820977	keystroke_r	r	n/a
410.683	0.09	821366	keystroke_Key.space	Key.space	n/a
410.893	0.06	821786	keystroke_s	s	n/a
411.163	0.12	822326	keystroke_u	u	n/a
411.253	0.105	822506	keystroke_s	s	n/a
411.478	0.09	822956	keystroke_t	t	n/a
411.658	0.135	823316	keystroke_a	a	n/a
411.808	0.12	823616	keystroke_i	i	n/a
412.0175	0.12	824035	keystroke_n	n	n/a
412.1525	0.06	824305	keystroke_a	a	n/a
412.3475	0.09	824695	keystroke_b	b	n/a
412.4525	0.1055	824905	keystroke_l	l	n/a
412.6025	0.09	825205	keystroke_e	e	n/a
412.7525	0.06	825505	keystroke_Key.space	Key.space	n/a
412.9625	0.135	825925	keystroke_a	a	n/a
413.1425	0.135	826285	keystroke_i	i	n/a
413.3385	0.1195	826677	keystroke_r	r	n/a
413.488	0.12	826976	keystroke_l	l	n/a
413.6835	0.089	827367	keystroke_i	i	n/a
413.8635	0.1195	827727	keystroke_n	n	n/a
413.998	0.075	827996	keystroke_e	e	n/a
414.178	0.09	828356	keystroke_s	s	n/a
414.343	0.105	828686	keystroke_Key.enter	Key.enter	n/a
414.4545	7.96	828909	prompt	n/a	alive thursday counsel recognized\n
415.153	0.15	830306	keystroke_a	a	n/a
415.7675	0.1205	831535	keystroke_l	l	n/a
416.143	0.1195	832286	keystroke_i	i	n/a
416.293	0.09	832586	keystroke_v	v	n/a
416.488	0.06	832976	keystroke_e	e	n/a
416.608	0.09	833216	keystroke_Key.space	Key.space	n/a
416.8625	0.0755	833725	keystroke_t	t	n/a
416.953	0.1195	833906	keystroke_h	h	n/a
417.1925	0.12	834385	keystroke_u	u	n/a
417.3425	0.09	834685	keystroke_r	r	n/a
417.5225	0.12	835045	keystroke_s	s	n/a
417.7475	0.135	835495	keystroke_d	d	n/a
417.9425	0.105	835885	keystroke_a	a	n/a
418.0775	0.075	836155	keystroke_y	y	n/a
418.302	0.0905	836604	keystroke_Key.space	Key.space	n/a
418.4675	0.135	836935	keystroke_c	c	n/a
418.8425	0.12	837685	keystroke_o	o	n/a
419.0675	0.121	838135	keystroke_u	u	n/a
419.3075	0.1055	838615	keystroke_n	n	n/a
419.428	0.105	838856	keystroke_s	s	n/a
419.773	0.1045	839546	keystroke_e	e	n/a
419.938	0.12	839876	keystroke_l	l	n/a
420.1925	0.09	840385	keystroke_Key.space	Key.space	n/a
420.388	0.1045	840776	keystroke_r	r	n/a
420.5975	0.12	841195	keystroke_e	e	n/a
420.823	0.149	841646	keystroke_c	c	n/a
421.003	0.1205	842006	keystroke_o	o	n/a
421.1975	0.105	842395	keystroke_g	g	n/a
421.3475	0.165	842695	keystroke_n	n	n/a
421.4075	0.15	842815	keystroke_i	i	n/a
421.633	0.12	843266	keystroke_z	z	n/a
421.858	0.105	843716	keystroke_e	e	n/a
422.068	0.165	844136	keystroke_d	d	n/a
422.323	0.09	844646	keystroke_Key.enter	Key.enter	n/a
422.4205	6.1295	844841	prompt	n/a	slightly towns evaluate julie\n
423.088	0.12	846176	keystroke_s	s	n/a
423.2525	0.105	846505	keystroke_l	l	n/a
423.493	0.12	846986	keystroke_i	i	n/a
423.6725	0.105	847345	keystroke_g	g	n/a
423.7925	0.09	847585	keystroke_h	h	n/a
423.9875	0.09	847975	keystroke_t	t	n/a
424.1225	0.105	848245	keystroke_l	l	n/a
424.3925	0.0755	848785	keystroke_y	y	n/a
424.5875	0.075	849175	keystroke_Key.space	Key.space	n/a
424.7675	0.105	849535	keystroke_t	t	n/a
424.9775	0.091	849955	keystroke_o	o	n/a
425.128	0.09	850256	keystroke_w	w	n/a
425.323	0.12	850646	keystroke_n	n	n/a
425.458	0.0905	850916	keystroke_s	s	n/a
425.592	0.091	851184	keystroke_Key.space	Key.space	n/a
425.773	0.1355	851546	keystroke_e	e	n/a
426.0275	0.135	852055	keystroke_v	v	n/a
426.2225	0.1355	852445	keystroke_a	a	n/a
426.403	0.0895	852806	keystroke_l	l	n/a
426.6125	0.105	853225	keystroke_u	u	n/a
426.7185	0.149	853437	keystroke_a	a	n/a
426.943	0.075	853886	keystroke_t	t	n/a
427.138	0.09	854276	keystroke_e	e	n/a
427.2725	0.0605	854545	keystroke_Key.space	Key.space	n/a
427.468	0.105	854936	keystroke_j	j	n/a
427.6925	0.0905	855385	keystroke_u	u	n/a
427.9025	0.105	855805	keystroke_l	l	n/a
428.1125	0.12	856225	keystroke_i	i	n/a
428.3235	0.0745	856647	keystroke_e	e	n/a
428.4735	0.0745	856947	keystroke_Key.enter	Key.enter	n/a
428.555	6.835	857110	prompt	n/a	forth train computer subsequently\n
429.193	0.1045	858386	keystroke_f	f	n/a
429.418	0.105	858836	keystroke_o	o	n/a
429.538	0.09	859076	keystroke_r	r	n/a
429.748	0.075	859496	keystroke_t	t	n/a
429.943	0.105	859886	keystroke_h	h	n/a
430.1225	0.09	860245	keystroke_Key.space	Key.space	n/a
430.273	0.075	860546	keystroke_t	t	n/a
430.438	0.12	860876	keystroke_r	r	n/a
430.678	0.105	861356	keystroke_a	a	n/a
430.8285	0.0895	861657	keystroke_i	i	n/a
431.0235	0.104	862047	keystroke_n	n	n/a
431.218	0.0745	862436	keystroke_Key.space	Key.space	n/a
431.443	0.12	862886	keystroke_c	c	n/a
431.5775	0.1055	863155	keystroke_o	o	n/a
431.8025	0.135	863605	keystroke_m	m	n/a
432.0425	0.0905	864085	keystroke_p	p	n/a
432.283	0.12	864566	keystroke_u	u	n/a
432.448	0.075	864896	keystroke_t	t	n/a
432.658	0.0755	865316	keystroke_e	e	n/a
432.8535	0.0895	865707	keystroke_r	r	n/a
432.9875	0.091	865975	keystroke_Key.space	Key.space	n/a
433.153	0.0905	866306	keystroke_s	s	n/a
433.3625	0.105	866725	keystroke_u	u	n/a
433.4825	0.06	866965	keystroke_b	b	n/a
433.6635	0.1045	867327	keystroke_s	s	n/a
433.888	0.0755	867776	keystroke_e	e	n/a
434.0835	0.045	868167	keystroke_q	q	n/a
434.2185	0.09	868437	keystroke_u	u	n/a
434.3835	0.12	868767	keystroke_e	e	n/a
434.4885	0.09	868977	keystroke_n	n	n/a
434.668	0.06	869336	keystroke_t	t	n/a
434.818	0.105	869636	keystroke_l	l	n/a
435.058	0.075	870116	keystroke_y	y	n/a
435.3125	0.075	870625	keystroke_Key.enter	Key.enter	n/a
435.395	8.11	870790	prompt	n/a	functionality specialist ages larger\n
436.063	0.1195	872126	keystroke_f	f	n/a
436.273	0.105	872546	keystroke_u	u	n/a
436.5125	0.12	873025	keystroke_n	n	n/a
436.6925	0.121	873385	keystroke_c	c	n/a
436.933	0.1055	873866	keystroke_t	t	n/a
437.0535	0.1195	874107	keystroke_i	i	n/a
437.293	0.1045	874586	keystroke_o	o	n/a
437.4725	0.105	874945	keystroke_n	n	n/a
437.6525	0.12	875305	keystroke_a	a	n/a
437.8185	0.1345	875637	keystroke_l	l	n/a
438.028	0.105	876056	keystroke_i	i	n/a
438.2525	0.0755	876505	keystroke_t	t	n/a
438.3425	0.1055	876685	keystroke_y	y	n/a
438.553	0.075	877106	keystroke_Key.space	Key.space	n/a
438.688	0.12	877376	keystroke_s	s	n/a
438.898	0.09	877796	keystroke_p	p	n/a
439.003	0.12	878006	keystroke_e	e	n/a
439.258	0.09	878516	keystroke_c	c	n/a
439.408	0.1195	878816	keystroke_i	i	n/a
439.5285	0.1195	879057	keystroke_a	a	n/a
439.7225	0.135	879445	keystroke_l	l	n/a
439.963	0.105	879926	keystroke_i	i	n/a
440.127	0.0765	880254	keystroke_z	z	n/a
440.698	0.12	881396	keystroke_Key.backspace	Key.backspace	n/a
440.773	0.12	881546	keystroke_s	s	n/a
440.998	0.09	881996	keystroke_t	t	n/a
441.403	0.0905	882806	keystroke_Key.space	Key.space	n/a
441.5375	0.1205	883075	keystroke_a	a	n/a
441.718	0.1205	883436	keystroke_g	g	n/a
441.9435	0.09	883887	keystroke_e	e	n/a
442.1235	0.104	884247	keystroke_s	s	n/a
442.2425	0.09	884485	keystroke_Key.space	Key.space	n/a
442.4375	0.12	884875	keystroke_l	l	n/a
442.5275	0.1355	885055	keystroke_a	a	n/a
442.708	0.0905	885416	keystroke_r	r	n/a
442.918	0.075	885836	keystroke_g	g	n/a
443.1135	0.075	886227	keystroke_e	e	n/a
443.2775	0.12	886555	keystroke_r	r	n/a
443.4575	0.045	886915	keystroke_Key.enter	Key.enter	n/a
443.51	8.7395	887020	prompt	n/a	parallel trouble implementing biotechnology\n
444.1775	0.106	888355	keystroke_p	p	n/a
444.3425	0.0905	888685	keystroke_a	a	n/a
444.493	0.12	888986	keystroke_r	r	n/a
444.643	0.1195	889286	keystroke_a	a	n/a
444.8235	0.074	889647	keystroke_l	l	n/a
445.033	0.09	890066	keystroke_l	l	n/a
445.168	0.0895	890336	keystroke_e	e	n/a
445.3185	0.089	890637	keystroke_l	l	n/a
445.4675	0.1055	890935	keystroke_Key.space	Key.space	n/a
445.693	0.06	891386	keystroke_t	t	n/a
445.828	0.12	891656	keystroke_r	r	n/a
445.978	0.09	891956	keystroke_o	o	n/a
446.188	0.09	892376	keystroke_u	u	n/a
446.308	0.09	892616	keystroke_b	b	n/a
446.443	0.105	892886	keystroke_l	l	n/a
446.563	0.12	893126	keystroke_e	e	n/a
446.713	0.0445	893426	keystroke_Key.space	Key.space	n/a
446.9375	0.076	893875	keystroke_i	i	n/a
447.1335	0.119	894267	keystroke_m	m	n/a
447.358	0.09	894716	keystroke_p	p	n/a
447.5675	0.106	895135	keystroke_l	l	n/a
447.6885	0.105	895377	keystroke_e	e	n/a
447.8235	0.134	895647	keystroke_m	m	n/a
448.0185	0.134	896037	keystroke_e	e	n/a
448.1825	0.1355	896365	keystroke_n	n	n/a
448.423	0.0895	896846	keystroke_t	t	n/a
448.5425	0.1055	897085	keystroke_i	i	n/a
448.768	0.09	897536	keystroke_n	n	n/a
448.888	0.135	897776	keystroke_g	g	n/a
449.053	0.06	898106	keystroke_Key.space	Key.space	n/a
449.428	0.0905	898856	keystroke_b	b	n/a
449.6075	0.1205	899215	keystroke_i	i	n/a
449.818	0.1205	899636	keystroke_o	o	n/a
450.118	0.075	900236	keystroke_t	t	n/a
450.313	0.09	900626	keystroke_e	e	n/a
450.508	0.12	901016	keystroke_c	c	n/a
450.748	0.09	901496	keystroke_h	h	n/a
450.973	0.09	901946	keystroke_n	n	n/a
451.198	0.075	902396	keystroke_o	o	n/a
451.3785	0.09	902757	keystroke_l	l	n/a
451.5735	0.075	903147	keystroke_o	o	n/a
451.7985	0.09	903597	keystroke_g	g	n/a
451.9485	0.105	903897	keystroke_y	y	n/a
452.173	0.075	904346	keystroke_Key.enter	Key.enter	n/a
452.255	7.885	904510	prompt	n/a	repeated adaptor online bristol\n
452.9085	0.074	905817	keystroke_r	r	n/a
453.103	0.09	906206	keystroke_e	e	n/a
453.268	0.12	906536	keystroke_p	p	n/a
453.388	0.0905	906776	keystroke_e	e	n/a
453.598	0.165	907196	keystroke_a	a	n/a
453.823	0.105	907646	keystroke_t	t	n/a
454.003	0.09	908006	keystroke_e	e	n/a
454.1835	0.119	908367	keystroke_d	d	n/a
454.3475	0.105	908695	keystroke_Key.space	Key.space	n/a
454.5125	0.1205	909025	keystroke_a	a	n/a
454.738	0.105	909476	keystroke_d	d	n/a
454.9635	0.12	909927	keystroke_a	a	n/a
455.1585	0.1195	910317	keystroke_p	p	n/a
455.6835	0.104	911367	keystroke_t	t	n/a
455.8785	0.104	911757	keystroke_o	o	n/a
455.9985	0.075	911997	keystroke_r	r	n/a
456.1475	0.1055	912295	keystroke_Key.space	Key.space	n/a
456.373	0.1195	912746	keystroke_o	o	n/a
456.6725	0.105	913345	keystroke_l	l	n/a
457.1075	0.09	914215	keystroke_Key.backspace	Key.backspace	n/a
457.3325	0.12	914665	keystroke_n	n	n/a
457.5575	0.1205	915115	keystroke_l	l	n/a
457.768	0.0895	915536	keystroke_i	i	n/a
457.9625	0.105	915925	keystroke_n	n	n/a
458.0825	0.105	916165	keystroke_e	e	n/a
458.2325	0.09	916465	keystroke_Key.space	Key.space	n/a
458.7725	0.09	917545	keystroke_b	b	n/a
458.953	0.1055	917906	keystroke_r	r	n/a
459.1635	0.1045	918327	keystroke_i	i	n/a
459.283	0.105	918566	keystroke_s	s	n/a
459.463	0.105	918926	keystroke_t	t	n/a
459.598	0.09	919196	keystroke_o	o	n/a
459.808	0.105	919616	keystroke_l	l	n/a
460.078	0.06	920156	keystroke_Key.enter	Key.enter	n/a
460.145	6.19	920290	prompt	n/a	hist inform sociology session\n
460.813	0.12	921626	keystroke_h	h	n/a
461.008	0.1205	922016	keystroke_i	i	n/a
461.173	0.165	922346	keystroke_s	s	n/a
461.4435	0.09	922887	keystroke_t	t	n/a
461.6675	0.075	923335	keystroke_Key.space	Key.space	n/a
461.8635	0.1345	923727	keystroke_i	i	n/a
462.0585	0.134	924117	keystroke_n	n	n/a
462.223	0.15	924446	keystroke_f	f	n/a
462.4185	0.1045	924837	keystroke_o	o	n/a
462.5985	0.1045	925197	keystroke_r	r	n/a
462.718	0.1195	925436	keystroke_m	m	n/a
462.8975	0.0905	925795	keystroke_Key.space	Key.space	n/a
463.0485	0.12	926097	keystroke_s	s	n/a
463.2135	0.134	926427	keystroke_o	o	n/a
463.3635	0.12	926727	keystroke_c	c	n/a
463.4675	0.135	926935	keystroke_i	i	n/a
463.708	0.105	927416	keystroke_o	o	n/a
463.933	0.09	927866	keystroke_l	l	n/a
464.113	0.105	928226	keystroke_o	o	n/a
464.2785	0.105	928557	keystroke_g	g	n/a
464.3985	0.059	928797	keystroke_y	y	n/a
464.5475	0.075	929095	keystroke_Key.space	Key.space	n/a
464.833	0.0755	929666	keystroke_s	s	n/a
465.028	0.045	930056	keystroke_e	e	n/a
465.208	0.06	930416	keystroke_s	s	n/a
465.4035	0.105	930807	keystroke_s	s	n/a
465.6435	0.12	931287	keystroke_i	i	n/a
465.8225	0.106	931645	keystroke_o	o	n/a
466.0035	0.075	932007	keystroke_n	n	n/a
466.2575	0.0755	932515	keystroke_Key.enter	Key.enter	n/a
466.3385	7.961	932677	prompt	n/a	medicine volunteers incidence class\n
466.9785	0.1345	933957	keystroke_m	m	n/a
467.1875	0.091	934375	keystroke_e	e	n/a
467.3835	0.135	934767	keystroke_d	d	n/a
467.5635	0.09	935127	keystroke_i	i	n/a
467.6385	0.164	935277	keystroke_c	c	n/a
467.863	0.1505	935726	keystroke_i	i	n/a
468.0285	0.12	936057	keystroke_n	n	n/a
468.1785	0.105	936357	keystroke_e	e	n/a
468.3425	0.075	936685	keystroke_Key.space	Key.space	n/a
468.7485	0.105	937497	keystroke_v	v	n/a
468.8685	0.15	937737	keystroke_o	o	n/a
469.153	0.1205	938306	keystroke_l	l	n/a
469.3785	0.0905	938757	keystroke_u	u	n/a
469.588	0.105	939176	keystroke_n	n	n/a
469.8425	0.061	939685	keystroke_t	t	n/a
470.0385	0.075	940077	keystroke_e	e	n/a
470.233	0.105	940466	keystroke_e	e	n/a
470.428	0.075	940856	keystroke_r	r	n/a
470.608	0.075	941216	keystroke_s	s	n/a
470.863	0.0145	941726	keystroke_Key.space	Key.space	n/a
470.9825	0.091	941965	keystroke_i	i	n/a
471.208	0.0895	942416	keystroke_n	n	n/a
471.853	0.105	943706	keystroke_v	v	n/a
472.0775	0.1205	944155	keystroke_i	i	n/a
472.1985	0.0895	944397	keystroke_d	d	n/a
472.3935	0.104	944787	keystroke_e	e	n/a
472.573	0.1045	945146	keystroke_n	n	n/a
472.708	0.1055	945416	keystroke_c	c	n/a
472.9325	0.09	945865	keystroke_e	e	n/a
473.0675	0.0905	946135	keystroke_Key.space	Key.space	n/a
473.248	0.09	946496	keystroke_c	c	n/a
473.398	0.105	946796	keystroke_l	l	n/a
473.518	0.09	947036	keystroke_a	a	n/a
473.743	0.09	947486	keystroke_s	s	n/a
473.923	0.1045	947846	keystroke_s	s	n/a
474.2225	0.075	948445	keystroke_Key.enter	Key.enter	n/a
474.304	5.7855	948608	prompt	n/a	solaris sick scroll atlanta\n
474.8675	0.1205	949735	keystroke_s	s	n/a
475.033	0.105	950066	keystroke_o	o	n/a
475.243	0.105	950486	keystroke_l	l	n/a
475.393	0.12	950786	keystroke_a	a	n/a
475.573	0.09	951146	keystroke_r	r	n/a
475.708	0.12	951416	keystroke_i	i	n/a
475.8435	0.09	951687	keystroke_s	s	n/a
475.9775	0.075	951955	keystroke_Key.space	Key.space	n/a
476.1875	0.09	952375	keystroke_s	s	n/a
476.383	0.105	952766	keystroke_i	i	n/a
476.548	0.135	953096	keystroke_c	c	n/a
476.7575	0.09	953515	keystroke_k	k	n/a
476.938	0.105	953876	keystroke_Key.space	Key.space	n/a
477.253	0.09	954506	keystroke_s	s	n/a
477.388	0.12	954776	keystroke_c	c	n/a
477.613	0.105	955226	keystroke_r	r	n/a
477.793	0.0895	955586	keystroke_o	o	n/a
478.0325	0.075	956065	keystroke_l	l	n/a
478.258	0.09	956516	keystroke_l	l	n/a
478.498	0.09	956996	keystroke_Key.space	Key.space	n/a
478.828	0.12	957656	keystroke_a	a	n/a
479.053	0.105	958106	keystroke_t	t	n/a
479.248	0.12	958496	keystroke_l	l	n/a
479.3385	0.1195	958677	keystroke_a	a	n/a
479.518	0.1055	959036	keystroke_n	n	n/a
479.6535	0.075	959307	keystroke_t	t	n/a
479.8335	0.0895	959667	keystroke_a	a	n/a
480.043	0.045	960086	keystroke_Key.enter	Key.enter	n/a
480.0955	6.039	960191	prompt	n/a	dream there'd songs secured\n
480.733	0.1345	961466	keystroke_d	d	n/a
480.9575	0.1205	961915	keystroke_r	r	n/a
481.183	0.09	962366	keystroke_e	e	n/a
481.378	0.135	962756	keystroke_a	a	n/a
481.588	0.105	963176	keystroke_m	m	n/a
481.768	0.105	963536	keystroke_Key.space	Key.space	n/a
481.9485	0.0895	963897	keystroke_t	t	n/a
482.128	0.1055	964256	keystroke_h	h	n/a
482.3385	0.09	964677	keystroke_e	e	n/a
482.4435	0.15	964887	keystroke_r	r	n/a
482.5335	0.134	965067	keystroke_e	e	n/a
482.7575	0.105	965515	keystroke_'	'	n/a
483.0435	0.119	966087	keystroke_d	d	n/a
483.298	0.075	966596	keystroke_Key.space	Key.space	n/a
483.553	0.09	967106	keystroke_s	s	n/a
483.718	0.09	967436	keystroke_o	o	n/a
483.958	0.12	967916	keystroke_n	n	n/a
484.108	0.12	968216	keystroke_g	g	n/a
484.318	0.105	968636	keystroke_s	s	n/a
484.438	0.105	968876	keystroke_Key.space	Key.space	n/a
484.603	0.09	969206	keystroke_s	s	n/a
484.843	0.0755	969686	keystroke_e	e	n/a
485.0535	0.12	970107	keystroke_c	c	n/a
485.263	0.12	970526	keystroke_u	u	n/a
485.473	0.105	970946	keystroke_r	r	n/a
485.653	0.09	971306	keystroke_e	e	n/a
485.848	0.105	971696	keystroke_d	d	n/a
486.058	0.075	972116	keystroke_Key.enter	Key.enter	n/a
486.139	6.2805	972278	prompt	n/a	education boys eight stamps\n
486.808	0.075	973616	keystroke_e	e	n/a
486.9735	0.135	973947	keystroke_d	d	n/a
487.1525	0.105	974305	keystroke_u	u	n/a
487.2725	0.1205	974545	keystroke_c	c	n/a
487.513	0.1205	975026	keystroke_a	a	n/a
487.7535	0.09	975507	keystroke_t	t	n/a
487.9325	0.106	975865	keystroke_i	i	n/a
488.143	0.09	976286	keystroke_o	o	n/a
488.353	0.075	976706	keystroke_n	n	n/a
488.5175	0.075	977035	keystroke_Key.space	Key.space	n/a
488.773	0.075	977546	keystroke_b	b	n/a
488.878	0.105	977756	keystroke_o	o	n/a
489.103	0.105	978206	keystroke_y	y	n/a
489.3735	0.105	978747	keystroke_s	s	n/a
489.508	0.0905	979016	keystroke_Key.space	Key.space	n/a
489.853	0.12	979706	keystroke_e	e	n/a
490.048	0.105	980096	keystroke_i	i	n/a
490.2575	0.105	980515	keystroke_g	g	n/a
490.453	0.12	980906	keystroke_h	h	n/a
490.6785	0.075	981357	keystroke_t	t	n/a
490.8585	0.059	981717	keystroke_Key.space	Key.space	n/a
490.9775	0.105	981955	keystroke_s	s	n/a
491.1875	0.09	982375	keystroke_t	t	n/a
491.4125	0.091	982825	keystroke_a	a	n/a
491.5925	0.105	983185	keystroke_m	m	n/a
491.8035	0.074	983607	keystroke_p	p	n/a
492.0135	0.105	984027	keystroke_l	l	n/a
492.1475	0.076	984295	keystroke_s	s	n/a
492.3575	0.06	984715	keystroke_Key.enter	Key.enter	n/a
492.427	8.273	984854	prompt	n/a	contribution developed omaha solomon\n
493.198	0.165	986396	keystroke_c	c	n/a
493.378	0.105	986756	keystroke_o	o	n/a
493.573	0.105	987146	keystroke_n	n	n/a
493.7685	0.059	987537	keystroke_t	t	n/a
493.948	0.09	987896	keystroke_r	r	n/a
494.1885	0.104	988377	keystroke_i	i	n/a
494.4725	0.105	988945	keystroke_b	b	n/a
494.5625	0.09	989125	keystroke_u	u	n/a
494.818	0.0895	989636	keystroke_t	t	n/a
495.058	0.121	990116	keystroke_i	i	n/a
495.2535	0.104	990507	keystroke_o	o	n/a
495.5075	0.076	991015	keystroke_n	n	n/a
495.7025	0.0905	991405	keystroke_Key.space	Key.space	n/a
495.8385	0.09	991677	keystroke_d	d	n/a
496.0335	0.12	992067	keystroke_e	e	n/a
496.2725	0.106	992545	keystroke_v	v	n/a
496.4675	0.1205	992935	keystroke_e	e	n/a
496.633	0.105	993266	keystroke_l	l	n/a
496.858	0.0755	993716	keystroke_o	o	n/a
497.038	0.1205	994076	keystroke_p	p	n/a
497.203	0.0905	994406	keystroke_e	e	n/a
497.3975	0.135	994795	keystroke_d	d	n/a
497.6075	0.09	995215	keystroke_Key.space	Key.space	n/a
497.9985	0.0745	995997	keystroke_o	o	n/a
498.2085	0.12	996417	keystroke_m	m	n/a
498.4485	0.075	996897	keystroke_a	a	n/a
498.628	0.1055	997256	keystroke_h	h	n/a
498.8075	0.091	997615	keystroke_a	a	n/a
498.9425	0.075	997885	keystroke_Key.space	Key.space	n/a
499.153	0.105	998306	keystroke_s	s	n/a
499.273	0.09	998546	keystroke_o	o	n/a
499.498	0.105	998996	keystroke_l	l	n/a
499.7825	0.0755	999565	keystroke_o	o	n/a
499.993	0.105	999986	keystroke_m	m	n/a
500.233	0.105	1000466	keystroke_o	o	n/a
500.398	0.105	1000796	keystroke_n	n	n/a
500.638	0.06	1001276	keystroke_Key.enter	Key.enter	n/a
500.7045	8.3965	1001409	prompt	n/a	disorder interface wilderness religious\n
501.358	0.105	1002716	keystroke_d	d	n/a
501.5085	0.1195	1003017	keystroke_i	i	n/a
501.673	0.1505	1003346	keystroke_s	s	n/a
501.9725	0.1205	1003945	keystroke_o	o	n/a
502.153	0.09	1004306	keystroke_r	r	n/a
502.363	0.0755	1004726	keystroke_d	d	n/a
502.663	0.105	1005326	keystroke_e	e	n/a
502.903	0.075	1005806	keystroke_r	r	n/a
503.083	0.06	1006166	keystroke_Key.space	Key.space	n/a
503.308	0.075	1006616	keystroke_i	i	n/a
503.5025	0.136	1007005	keystroke_n	n	n/a
503.713	0.09	1007426	keystroke_t	t	n/a
503.938	0.105	1007876	keystroke_e	e	n/a
504.133	0.0745	1008266	keystroke_r	r	n/a
504.313	0.105	1008626	keystroke_f	f	n/a
504.493	0.12	1008986	keystroke_a	a	n/a
504.718	0.09	1009436	keystroke_c	c	n/a
504.913	0.075	1009826	keystroke_e	e	n/a
505.0625	0.09	1010125	keystroke_Key.space	Key.space	n/a
505.1975	0.076	1010395	keystroke_w	w	n/a
505.3325	0.0905	1010665	keystroke_i	i	n/a
505.543	0.09	1011086	keystroke_l	l	n/a
505.634	0.134	1011268	keystroke_d	d	n/a
505.9175	0.15	1011835	keystroke_e	e	n/a
506.0375	0.12	1012075	keystroke_r	r	n/a
506.2925	0.12	1012585	keystroke_n	n	n/a
506.4875	0.075	1012975	keystroke_e	e	n/a
506.683	0.075	1013366	keystroke_s	s	n/a
506.9225	0.09	1013845	keystroke_s	s	n/a
507.1175	0.0755	1014235	keystroke_Key.space	Key.space	n/a
507.298	0.12	1014596	keystroke_r	r	n/a
507.538	0.12	1015076	keystroke_e	e	n/a
507.703	0.105	1015406	keystroke_l	l	n/a
507.883	0.105	1015766	keystroke_g	g	n/a
508.063	0.12	1016126	keystroke_i	i	n/a
508.303	0.1345	1016606	keystroke_o	o	n/a
508.6185	0.09	1017237	keystroke_u	u	n/a
508.7985	0.1045	1017597	keystroke_s	s	n/a
509.0385	0.06	1018077	keystroke_Key.enter	Key.enter	n/a
509.106	5.8885	1018212	prompt	n/a	see honda locks instruments\n
509.743	0.09	1019486	keystroke_s	s	n/a
509.968	0.06	1019936	keystroke_e	e	n/a
510.133	0.1195	1020266	keystroke_e	e	n/a
510.3725	0.061	1020745	keystroke_Key.space	Key.space	n/a
510.5975	0.1055	1021195	keystroke_h	h	n/a
510.7775	0.091	1021555	keystroke_o	o	n/a
510.973	0.1205	1021946	keystroke_n	n	n/a
511.153	0.0905	1022306	keystroke_d	d	n/a
511.3485	0.074	1022697	keystroke_a	a	n/a
511.513	0.0755	1023026	keystroke_Key.space	Key.space	n/a
511.7225	0.09	1023445	keystroke_l	l	n/a
511.9475	0.106	1023895	keystroke_o	o	n/a
512.0825	0.0905	1024165	keystroke_c	c	n/a
512.263	0.1055	1024526	keystroke_k	k	n/a
512.3975	0.12	1024795	keystroke_s	s	n/a
512.5625	0.0755	1025125	keystroke_Key.space	Key.space	n/a
512.7885	0.0745	1025577	keystroke_i	i	n/a
512.998	0.09	1025996	keystroke_n	n	n/a
513.148	0.12	1026296	keystroke_s	s	n/a
513.4185	0.0745	1026837	keystroke_t	t	n/a
513.613	0.0905	1027226	keystroke_r	r	n/a
513.8685	0.0595	1027737	keystroke_u	u	n/a
514.093	0.1205	1028186	keystroke_m	m	n/a
514.2275	0.105	1028455	keystroke_e	e	n/a
514.4075	0.1355	1028815	keystroke_n	n	n/a
514.5585	0.0595	1029117	keystroke_t	t	n/a
514.7375	0.045	1029475	keystroke_s	s	n/a
514.933	0.06	1029866	keystroke_Key.enter	Key.enter	n/a
514.999	6.2365	1029998	prompt	n/a	icons major directories vendor\n
515.578	0.09	1031156	keystroke_i	i	n/a
515.8335	0.105	1031667	keystroke_c	c	n/a
515.983	0.09	1031966	keystroke_o	o	n/a
516.208	0.09	1032416	keystroke_n	n	n/a
516.343	0.105	1032686	keystroke_s	s	n/a
516.523	0.075	1033046	keystroke_Key.space	Key.space	n/a
516.748	0.105	1033496	keystroke_m	m	n/a
516.9585	0.089	1033917	keystroke_a	a	n/a
517.0775	0.105	1034155	keystroke_j	j	n/a
517.2725	0.076	1034545	keystroke_o	o	n/a
517.408	0.0745	1034816	keystroke_r	r	n/a
517.5735	0.0745	1035147	keystroke_Key.space	Key.space	n/a
517.813	0.1055	1035626	keystroke_d	d	n/a
517.9635	0.12	1035927	keystroke_i	i	n/a
518.218	0.0895	1036436	keystroke_r	r	n/a
518.398	0.105	1036796	keystroke_e	e	n/a
518.5935	0.105	1037187	keystroke_c	c	n/a
518.893	0.0605	1037786	keystroke_t	t	n/a
519.073	0.105	1038146	keystroke_o	o	n/a
519.2525	0.076	1038505	keystroke_r	r	n/a
519.403	0.12	1038806	keystroke_i	i	n/a
519.508	0.09	1039016	keystroke_e	e	n/a
519.733	0.075	1039466	keystroke_s	s	n/a
519.898	0.09	1039796	keystroke_Key.space	Key.space	n/a
520.093	0.075	1040186	keystroke_v	v	n/a
520.303	0.0895	1040606	keystroke_e	e	n/a
520.4685	0.0895	1040937	keystroke_n	n	n/a
520.633	0.105	1041266	keystroke_d	d	n/a
520.768	0.1205	1041536	keystroke_o	o	n/a
520.9635	0.075	1041927	keystroke_r	r	n/a
521.1735	0.06	1042347	keystroke_Key.enter	Key.enter	n/a
521.24	6.9395	1042480	prompt	n/a	search parental trips departments\n
521.848	0.0755	1043696	keystroke_s	s	n/a
522.0585	0.075	1044117	keystroke_e	e	n/a
522.2525	0.12	1044505	keystroke_a	a	n/a
522.4785	0.059	1044957	keystroke_r	r	n/a
522.703	0.105	1045406	keystroke_c	c	n/a
522.778	0.105	1045556	keystroke_h	h	n/a
522.988	0.0905	1045976	keystroke_Key.space	Key.space	n/a
523.1835	0.1195	1046367	keystroke_p	p	n/a
523.333	0.09	1046666	keystroke_a	a	n/a
523.528	0.09	1047056	keystroke_r	r	n/a
523.693	0.12	1047386	keystroke_e	e	n/a
523.843	0.105	1047686	keystroke_n	n	n/a
524.023	0.12	1048046	keystroke_t	t	n/a
524.233	0.075	1048466	keystroke_a	a	n/a
524.368	0.09	1048736	keystroke_l	l	n/a
524.533	0.105	1049066	keystroke_Key.space	Key.space	n/a
524.713	0.06	1049426	keystroke_t	t	n/a
524.893	0.12	1049786	keystroke_r	r	n/a
525.133	0.105	1050266	keystroke_i	i	n/a
525.358	0.105	1050716	keystroke_p	p	n/a
525.553	0.09	1051106	keystroke_s	s	n/a
525.748	0.105	1051496	keystroke_Key.space	Key.space	n/a
525.973	0.075	1051946	keystroke_d	d	n/a
526.183	0.09	1052366	keystroke_e	e	n/a
526.333	0.1655	1052666	keystroke_p	p	n/a
526.558	0.105	1053116	keystroke_a	a	n/a
526.7685	0.0745	1053537	keystroke_r	r	n/a
526.948	0.09	1053896	keystroke_t	t	n/a
527.143	0.12	1054286	keystroke_m	m	n/a
527.293	0.1205	1054586	keystroke_e	e	n/a
527.5035	0.119	1055007	keystroke_n	n	n/a
527.668	0.105	1055336	keystroke_t	t	n/a
527.908	0.0745	1055816	keystroke_s	s	n/a
528.1175	0.06	1056235	keystroke_Key.enter	Key.enter	n/a
528.1845	5.0505	1056369	prompt	n/a	goals bird camps oscar\n
528.8675	0.09	1057735	keystroke_g	g	n/a
529.0925	0.1055	1058185	keystroke_o	o	n/a
529.288	0.12	1058576	keystroke_a	a	n/a
529.4535	0.1195	1058907	keystroke_l	l	n/a
529.6475	0.0755	1059295	keystroke_s	s	n/a
529.7525	0.075	1059505	keystroke_Key.space	Key.space	n/a
530.0085	0.0745	1060017	keystroke_b	b	n/a
530.188	0.1205	1060376	keystroke_i	i	n/a
530.293	0.0755	1060586	keystroke_r	r	n/a
530.533	0.1195	1061066	keystroke_d	d	n/a
530.7275	0.075	1061455	keystroke_Key.space	Key.space	n/a
530.9235	0.104	1061847	keystroke_c	c	n/a
531.1635	0.059	1062327	keystroke_a	a	n/a
531.2985	0.1195	1062597	keystroke_m	m	n/a
531.523	0.1045	1063046	keystroke_p	p	n/a
531.7625	0.0755	1063525	keystroke_s	s	n/a
531.928	0.09	1063856	keystroke_Key.space	Key.space	n/a
532.198	0.1205	1064396	keystroke_o	o	n/a
532.3775	0.106	1064755	keystroke_s	s	n/a
532.5885	0.105	1065177	keystroke_c	c	n/a
532.7835	0.105	1065567	keystroke_a	a	n/a
533.023	0.076	1066046	keystroke_r	r	n/a
533.188	0.045	1066376	keystroke_Key.enter	Key.enter	n/a
533.2395	7.4355	1066479	prompt	n/a	commentary medication stylus people\n
533.9375	0.12	1067875	keystroke_c	c	n/a
534.118	0.0905	1068236	keystroke_o	o	n/a
534.3585	0.075	1068717	keystroke_m	m	n/a
534.5685	0.0895	1069137	keystroke_m	m	n/a
534.778	0.1055	1069556	keystroke_e	e	n/a
534.8985	0.0895	1069797	keystroke_n	n	n/a
535.063	0.075	1070126	keystroke_t	t	n/a
535.3035	0.135	1070607	keystroke_a	a	n/a
535.513	0.0755	1071026	keystroke_r	r	n/a
535.6935	0.105	1071387	keystroke_y	y	n/a
535.8135	0.0595	1071627	keystroke_Key.space	Key.space	n/a
536.0385	0.1195	1072077	keystroke_m	m	n/a
536.203	0.06	1072406	keystroke_e	e	n/a
536.4135	0.135	1072827	keystroke_d	d	n/a
536.5035	0.1045	1073007	keystroke_i	i	n/a
536.728	0.12	1073456	keystroke_c	c	n/a
536.908	0.1205	1073816	keystroke_a	a	n/a
537.1335	0.1045	1074267	keystroke_t	t	n/a
537.313	0.0895	1074626	keystroke_i	i	n/a
537.5075	0.106	1075015	keystroke_o	o	n/a
537.7335	0.0745	1075467	keystroke_n	n	n/a
537.913	0.09	1075826	keystroke_Key.space	Key.space	n/a
538.048	0.1205	1076096	keystroke_s	s	n/a
538.3185	0.1045	1076637	keystroke_t	t	n/a
538.453	0.105	1076906	keystroke_y	y	n/a
538.693	0.09	1077386	keystroke_l	l	n/a
538.903	0.121	1077806	keystroke_u	u	n/a
539.0685	0.0895	1078137	keystroke_s	s	n/a
539.218	0.06	1078436	keystroke_Key.space	Key.space	n/a
539.4435	0.12	1078887	keystroke_p	p	n/a
539.653	0.075	1079306	keystroke_e	e	n/a
539.833	0.09	1079666	keystroke_o	o	n/a
540.028	0.0905	1080056	keystroke_p	p	n/a
540.2535	0.1045	1080507	keystroke_l	l	n/a
540.418	0.1205	1080836	keystroke_e	e	n/a
540.5985	0.0745	1081197	keystroke_Key.enter	Key.enter	n/a
540.68	6.865	1081360	prompt	n/a	operated tested tagged alto\n
541.363	0.09	1082726	keystroke_o	o	n/a
541.573	0.135	1083146	keystroke_p	p	n/a
541.798	0.1055	1083596	keystroke_e	e	n/a
542.0085	0.06	1084017	keystroke_r	r	n/a
542.1735	0.135	1084347	keystroke_a	a	n/a
542.3825	0.09	1084765	keystroke_t	t	n/a
542.6075	0.0605	1085215	keystroke_e	e	n/a
542.7885	0.105	1085577	keystroke_d	d	n/a
542.9235	0.0895	1085847	keystroke_Key.space	Key.space	n/a
543.193	0.09	1086386	keystroke_t	t	n/a
543.388	0.075	1086776	keystroke_e	e	n/a
543.583	0.09	1087166	keystroke_s	s	n/a
543.8085	0.074	1087617	keystroke_t	t	n/a
544.0025	0.076	1088005	keystroke_e	e	n/a
544.1975	0.136	1088395	keystroke_d	d	n/a
544.3625	0.1205	1088725	keystroke_Key.space	Key.space	n/a
544.573	0.0895	1089146	keystroke_t	t	n/a
544.7535	0.1195	1089507	keystroke_a	a	n/a
544.963	0.0605	1089926	keystroke_g	g	n/a
545.2035	0.074	1090407	keystroke_g	g	n/a
545.3985	0.1045	1090797	keystroke_e	e	n/a
545.833	0.135	1091666	keystroke_d	d	n/a
546.058	0.09	1092116	keystroke_Key.space	Key.space	n/a
546.7325	0.136	1093465	keystroke_a	a	n/a
546.9435	0.1045	1093887	keystroke_l	l	n/a
547.0935	0.075	1094187	keystroke_t	t	n/a
547.2435	0.075	1094487	keystroke_o	o	n/a
547.4825	0.0605	1094965	keystroke_Key.enter	Key.enter	n/a
547.549	12.716	1095098	prompt	n/a	mercedes interventions laboratory connected\n
548.2185	0.1495	1096437	keystroke_m	m	n/a
548.353	0.105	1096706	keystroke_e	e	n/a
548.6385	0.0745	1097277	keystroke_r	r	n/a
548.863	0.0895	1097726	keystroke_c	c	n/a
549.0575	0.0755	1098115	keystroke_e	e	n/a
549.253	0.0905	1098506	keystroke_d	d	n/a
549.463	0.06	1098926	keystroke_e	e	n/a
549.659	0.089	1099318	keystroke_s	s	n/a
549.8385	0.075	1099677	keystroke_Key.space	Key.space	n/a
550.0335	0.1045	1100067	keystroke_i	i	n/a
550.2575	0.105	1100515	keystroke_n	n	n/a
550.4535	0.089	1100907	keystroke_v	v	n/a
550.7985	0.105	1101597	keystroke_Key.backspace	Key.backspace	n/a
550.9335	0.105	1101867	keystroke_t	t	n/a
551.233	0.1355	1102466	keystroke_e	e	n/a
551.4735	0.09	1102947	keystroke_r	r	n/a
551.6835	0.1045	1103367	keystroke_v	v	n/a
551.8925	0.121	1103785	keystroke_e	e	n/a
552.1485	0.1195	1104297	keystroke_n	n	n/a
552.313	0.09	1104626	keystroke_t	t	n/a
552.553	0.105	1105106	keystroke_i	i	n/a
552.7475	0.105	1105495	keystroke_o	o	n/a
552.9575	0.091	1105915	keystroke_n	n	n/a
553.123	0.09	1106246	keystroke_s	s	n/a
553.243	0.075	1106486	keystroke_Key.space	Key.space	n/a
553.468	0.075	1106936	keystroke_l	l	n/a
553.603	0.075	1107206	keystroke_a	a	n/a
554.143	0.105	1108286	keystroke_b	b	n/a
554.368	0.09	1108736	keystroke_o	o	n/a
554.533	0.135	1109066	keystroke_a	a	n/a
554.743	0.105	1109486	keystroke_r	r	n/a
555.058	0.075	1110116	keystroke_Key.backspace	Key.backspace	n/a
555.2375	0.121	1110475	keystroke_Key.backspace	Key.backspace	n/a
556.1535	0.1045	1112307	keystroke_r	r	n/a
556.363	0.1205	1112726	keystroke_a	a	n/a
556.6035	0.075	1113207	keystroke_t	t	n/a
556.7985	0.1045	1113597	keystroke_o	o	n/a
556.963	0.09	1113926	keystroke_r	r	n/a
557.098	0.135	1114196	keystroke_y	y	n/a
557.4125	0.1205	1114825	keystroke_c	c	n/a
557.608	0.06	1115216	keystroke_Key.space	Key.space	n/a
557.893	0.075	1115786	keystroke_Key.backspace	Key.backspace	n/a
558.073	0.09	1116146	keystroke_Key.backspace	Key.backspace	n/a
558.223	0.105	1116446	keystroke_Key.space	Key.space	n/a
558.4485	0.12	1116897	keystroke_c	c	n/a
558.6285	0.074	1117257	keystroke_o	o	n/a
558.8685	0.074	1117737	keystroke_n	n	n/a
559.0625	0.105	1118125	keystroke_n	n	n/a
559.1825	0.075	1118365	keystroke_e	e	n/a
559.3625	0.12	1118725	keystroke_c	c	n/a
559.6485	0.044	1119297	keystroke_t	t	n/a
559.843	0.0755	1119686	keystroke_e	e	n/a
560.0235	0.1195	1120047	keystroke_d	d	n/a
560.2025	0.06	1120405	keystroke_Key.enter	Key.enter	n/a
560.2695	7.105	1120539	prompt	n/a	keyboards trembl heard islamic\n
560.939	0.119	1121878	keystroke_k	k	n/a
561.043	0.105	1122086	keystroke_e	e	n/a
561.253	0.06	1122506	keystroke_y	y	n/a
561.4625	0.061	1122925	keystroke_b	b	n/a
561.673	0.0895	1123346	keystroke_o	o	n/a
561.7925	0.1205	1123585	keystroke_a	a	n/a
561.973	0.075	1123946	keystroke_r	r	n/a
562.1985	0.104	1124397	keystroke_d	d	n/a
562.4085	0.06	1124817	keystroke_s	s	n/a
562.573	0.045	1125146	keystroke_Key.space	Key.space	n/a
562.843	0.0595	1125686	keystroke_t	t	n/a
563.0075	0.1355	1126015	keystroke_r	r	n/a
563.173	0.12	1126346	keystroke_e	e	n/a
563.338	0.12	1126676	keystroke_m	m	n/a
563.488	0.075	1126976	keystroke_b	b	n/a
563.668	0.09	1127336	keystroke_l	l	n/a
563.893	0.06	1127786	keystroke_Key.space	Key.space	n/a
564.0885	0.089	1128177	keystroke_h	h	n/a
564.1625	0.105	1128325	keystroke_e	e	n/a
564.3585	0.12	1128717	keystroke_a	a	n/a
564.5225	0.091	1129045	keystroke_r	r	n/a
564.7325	0.1055	1129465	keystroke_d	d	n/a
564.868	0.06	1129736	keystroke_Key.space	Key.space	n/a
565.078	0.075	1130156	keystroke_i	i	n/a
565.408	0.12	1130816	keystroke_s	s	n/a
565.528	0.1045	1131056	keystroke_l	l	n/a
565.7835	0.105	1131567	keystroke_a	a	n/a
566.1735	0.0745	1132347	keystroke_i	i	n/a
566.4725	0.076	1132945	keystroke_Key.backspace	Key.backspace	n/a
566.7135	0.1045	1133427	keystroke_m	m	n/a
566.983	0.075	1133966	keystroke_i	i	n/a
567.103	0.105	1134206	keystroke_c	c	n/a
567.298	0.075	1134596	keystroke_Key.enter	Key.enter	n/a
567.379	8.096	1134758	prompt	n/a	european imported acoustic ecological\n
567.988	0.1205	1135976	keystroke_e	e	n/a
568.1985	0.09	1136397	keystroke_u	u	n/a
568.3635	0.089	1136727	keystroke_r	r	n/a
568.4685	0.12	1136937	keystroke_o	o	n/a
568.678	0.1195	1137356	keystroke_p	p	n/a
568.9185	0.0895	1137837	keystroke_e	e	n/a
569.0975	0.1055	1138195	keystroke_a	a	n/a
569.293	0.09	1138586	keystroke_n	n	n/a
569.518	0.0745	1139036	keystroke_Key.space	Key.space	n/a
569.7135	0.09	1139427	keystroke_i	i	n/a
569.9675	0.09	1139935	keystroke_m	m	n/a
570.208	0.0755	1140416	keystroke_p	p	n/a
570.388	0.135	1140776	keystroke_o	o	n/a
570.5835	0.09	1141167	keystroke_r	r	n/a
570.808	0.09	1141616	keystroke_t	t	n/a
571.018	0.075	1142036	keystroke_e	e	n/a
571.198	0.105	1142396	keystroke_d	d	n/a
571.333	0.1205	1142666	keystroke_Key.space	Key.space	n/a
571.4985	0.0745	1142997	keystroke_a	a	n/a
571.723	0.105	1143446	keystroke_c	c	n/a
571.918	0.1055	1143836	keystroke_o	o	n/a
572.1125	0.1055	1144225	keystroke_u	u	n/a
572.278	0.105	1144556	keystroke_s	s	n/a
572.5335	0.06	1145067	keystroke_t	t	n/a
572.6835	0.104	1145367	keystroke_i	i	n/a
572.8035	0.1195	1145607	keystroke_c	c	n/a
572.953	0.06	1145906	keystroke_Key.space	Key.space	n/a
573.238	0.075	1146476	keystroke_e	e	n/a
573.448	0.1205	1146896	keystroke_c	c	n/a
573.673	0.075	1147346	keystroke_o	o	n/a
573.853	0.091	1147706	keystroke_l	l	n/a
574.123	0.105	1148246	keystroke_o	o	n/a
574.348	0.09	1148696	keystroke_g	g	n/a
574.4685	0.1345	1148937	keystroke_i	i	n/a
574.633	0.18	1149266	keystroke_c	c	n/a
574.783	0.135	1149566	keystroke_a	a	n/a
575.1275	0.106	1150255	keystroke_l	l	n/a
575.3975	0.075	1150795	keystroke_Key.enter	Key.enter	n/a
575.479	7.601	1150958	prompt	n/a	incidents charging facilitate guides\n
576.058	0.0905	1152116	keystroke_i	i	n/a
576.2535	0.105	1152507	keystroke_n	n	n/a
576.433	0.12	1152866	keystroke_c	c	n/a
576.584	0.119	1153168	keystroke_i	i	n/a
576.7175	0.0755	1153435	keystroke_d	d	n/a
576.9135	0.1195	1153827	keystroke_e	e	n/a
577.3185	0.1195	1154637	keystroke_n	n	n/a
