onset	duration	sample	value	key	prompt_text
2.1235	13.183	4247	prompt	n/a	the quick brown fox jumps over a lazy dog\n
4.1625	0.028	8325	keystroke	t	n/a
4.2505	0.075	8501	keystroke	h	n/a
4.3105	0.09	8621	keystroke	e	n/a
4.43	0.105	8860	keystroke	Key.space	n/a
4.881	0.104	9762	keystroke	q	n/a
5.121	0.1345	10242	keystroke	u	n/a
5.3455	0.15	10691	keystroke	c	n/a
5.5405	0.105	11081	keystroke	i	n/a
6.1055	0.0455	12211	keystroke	Key.backspace	n/a
6.226	0.075	12452	keystroke	Key.backspace	n/a
6.4975	0.06	12995	keystroke	i	n/a
6.6025	0.09	13205	keystroke	c	n/a
6.7375	0.075	13475	keystroke	k	n/a
6.872	0.12	13744	keystroke	Key.space	n/a
7.6225	0.0595	15245	keystroke	b	n/a
7.862	0.12	15724	keystroke	r	n/a
7.997	0.075	15994	keystroke	o	n/a
8.132	0.12	16264	keystroke	w	n/a
8.267	0.075	16534	keystroke	n	n/a
8.8675	0.15	17735	keystroke	Key.space	n/a
9.0775	0.12	18155	keystroke	f	n/a
9.2125	0.075	18425	keystroke	o	n/a
9.3325	0.12	18665	keystroke	x	n/a
9.5275	0.135	19055	keystroke	Key.space	n/a
9.9925	0.106	19985	keystroke	j	n/a
10.1875	0.0905	20375	keystroke	u	n/a
10.398	0.1945	20796	keystroke	m	n/a
10.5475	0.12	21095	keystroke	p	n/a
10.7575	0.105	21515	keystroke	s	n/a
11.1625	0.1205	22325	keystroke	Key.space	n/a
11.343	0.09	22686	keystroke	o	n/a
11.448	0.135	22896	keystroke	v	n/a
11.567	0.15	23134	keystroke	e	n/a
11.702	0.106	23404	keystroke	r	n/a
12.467	0.075	24934	keystroke	Key.space	n/a
12.587	0.136	25174	keystroke	a	n/a
12.797	0.09	25594	keystroke	Key.space	n/a
13.713	0.09	27426	keystroke	l	n/a
13.818	0.105	27636	keystroke	a	n/a
14.088	0.149	28176	keystroke	z	n/a
14.2975	0.075	28595	keystroke	y	n/a
14.4625	0.135	28925	keystroke	Key.space	n/a
14.7325	0.165	29465	keystroke	d	n/a
14.8825	0.09	29765	keystroke	o	n/a
15.0025	0.12	30005	keystroke	g	n/a
15.2125	0.09	30425	keystroke	Key.enter	n/a
15.315	11.1495	30630	prompt	n/a	borough means senegal prospect\n
16.1575	0.105	32315	keystroke	b	n/a
16.5175	0.105	33035	keystroke	o	n/a
16.9375	0.15	33875	keystroke	r	n/a
17.358	0.105	34716	keystroke	o	n/a
17.5075	0.0905	35015	keystroke	u	n/a
17.6875	0.0905	35375	keystroke	g	n/a
17.778	0.09	35556	keystroke	h	n/a
17.943	0.12	35886	keystroke	Key.space	n/a
18.183	0.12	36366	keystroke	m	n/a
18.288	0.1495	36576	keystroke	e	n/a
18.4225	0.045	36845	keystroke	a	n/a
18.4825	0.075	36965	keystroke	n	n/a
18.6325	0.105	37265	keystroke	s	n/a
18.8125	0.09	37625	keystroke	Key.space	n/a
19.577	0.076	39154	keystroke	s	n/a
19.787	0.105	39574	keystroke	e	n/a
19.952	0.105	39904	keystroke	n	n/a
20.492	0.09	40984	keystroke	e	n/a
21.2425	0.12	42485	keystroke	g	n/a
21.4225	0.1195	42845	keystroke	a	n/a
21.572	0.12	43144	keystroke	l	n/a
21.722	0.15	43444	keystroke	Key.space	n/a
23.178	0.104	46356	keystroke	p	n/a
24.3325	0.12	48665	keystroke	r	n/a
24.4975	0.09	48995	keystroke	o	n/a
24.7075	0.1045	49415	keystroke	s	n/a
25.2175	0.09	50435	keystroke	p	n/a
25.772	0.105	51544	keystroke	e	n/a
25.998	0.134	51996	keystroke	c	n/a
26.208	0.119	52416	keystroke	t	n/a
26.372	0.09	52744	keystroke	Key.enter	n/a
26.471	8.153	52942	prompt	n/a	bathrooms librarian ball vacations\n
27.272	0.12	54544	keystroke	b	n/a
27.377	0.105	54754	keystroke	a	n/a
27.572	0.0905	55144	keystroke	t	n/a
27.7075	0.09	55415	keystroke	h	n/a
27.9325	0.12	55865	keystroke	r	n/a
28.0825	0.06	56165	keystroke	o	n/a
28.2025	0.105	56405	keystroke	o	n/a
28.3825	0.105	56765	keystroke	m	n/a
28.9525	0.12	57905	keystroke	s	n/a
29.0875	0.135	58175	keystroke	Key.space	n/a
29.4325	0.105	58865	keystroke	l	n/a
29.5525	0.0595	59105	keystroke	i	n/a
29.6725	0.105	59345	keystroke	b	n/a
30.782	0.1205	61564	keystroke	r	n/a
31.1575	0.15	62315	keystroke	a	n/a
31.3225	0.105	62645	keystroke	r	n/a
31.6675	0.075	63335	keystroke	i	n/a
31.8175	0.105	63635	keystroke	a	n/a
31.9075	0.12	63815	keystroke	n	n/a
32.0425	0.12	64085	keystroke	Key.space	n/a
32.2675	0.105	64535	keystroke	b	n/a
32.3575	0.105	64715	keystroke	a	n/a
32.4925	0.075	64985	keystroke	l	n/a
32.6275	0.12	65255	keystroke	l	n/a
32.8675	0.105	65735	keystroke	Key.space	n/a
33.183	0.164	66366	keystroke	v	n/a
33.303	0.104	66606	keystroke	a	n/a
33.602	0.135	67204	keystroke	c	n/a
33.782	0.12	67564	keystroke	a	n/a
33.962	0.105	67924	keystroke	t	n/a
34.083	0.2095	68166	keystroke	i	n/a
34.157	0.1355	68314	keystroke	o	n/a
34.262	0.1055	68524	keystroke	n	n/a
34.3675	0.105	68735	keystroke	s	n/a
34.5475	0.0755	69095	keystroke	Key.enter	n/a
34.631	11.4385	69262	prompt	n/a	researcher numerous demo township\n
35.568	0.104	71136	keystroke	r	n/a
35.643	0.104	71286	keystroke	e	n/a
35.837	0.1205	71674	keystroke	s	n/a
36.5425	0.165	73085	keystroke	e	n/a
36.6475	0.165	73295	keystroke	a	n/a
36.7975	0.1195	73595	keystroke	r	n/a
37.082	0.135	74164	keystroke	c	n/a
37.232	0.0905	74464	keystroke	h	n/a
37.5925	0.135	75185	keystroke	e	n/a
37.7125	0.105	75425	keystroke	r	n/a
37.8775	0.12	75755	keystroke	Key.space	n/a
38.5975	0.1045	77195	keystroke	n	n/a
38.807	0.045	77614	keystroke	u	n/a
39.617	0.105	79234	keystroke	m	n/a
40.3975	0.075	80795	keystroke	b	n/a
41.0125	0.06	82025	keystroke	Key.backspace	n/a
41.1325	0.12	82265	keystroke	e	n/a
41.448	0.105	82896	keystroke	r	n/a
41.778	0.149	83556	keystroke	o	n/a
41.913	0.075	83826	keystroke	u	n/a
42.0475	0.09	84095	keystroke	s	n/a
42.2425	0.1195	84485	keystroke	Key.space	n/a
42.887	0.09	85774	keystroke	d	n/a
43.067	0.09	86134	keystroke	e	n/a
43.217	0.21	86434	keystroke	m	n/a
43.412	0.12	86824	keystroke	o	n/a
43.6675	0.09	87335	keystroke	Key.space	n/a
44.5225	0.105	89045	keystroke	t	n/a
44.6425	0.1055	89285	keystroke	o	n/a
44.763	0.105	89526	keystroke	w	n/a
44.883	0.105	89766	keystroke	n	n/a
45.138	0.119	90276	keystroke	s	n/a
45.273	0.1945	90546	keystroke	h	n/a
45.407	0.1355	90814	keystroke	i	n/a
45.4975	0.12	90995	keystroke	p	n/a
45.9775	0.09	91955	keystroke	Key.enter	n/a
46.075	9.8945	92150	prompt	n/a	yukon read knowing variance\n
47.058	0.104	94116	keystroke	y	n/a
47.792	0.076	95584	keystroke	u	n/a
48.227	0.12	96454	keystroke	k	n/a
48.437	0.135	96874	keystroke	o	n/a
48.767	0.075	97534	keystroke	n	n/a
49.352	0.12	98704	keystroke	Key.space	n/a
49.7575	0.135	99515	keystroke	r	n/a
49.8325	0.135	99665	keystroke	e	n/a
49.9225	0.195	99845	keystroke	a	n/a
50.1025	0.09	100205	keystroke	d	n/a
50.8075	0.12	101615	keystroke	Key.space	n/a
51.1825	0.18	102365	keystroke	k	n/a
51.5425	0.105	103085	keystroke	o	n/a
52.1875	0.06	104375	keystroke	Key.backspace	n/a
52.4275	0.15	104855	keystroke	n	n/a
52.5475	0.09	105095	keystroke	o	n/a
52.6675	0.135	105335	keystroke	w	n/a
52.7725	0.12	105545	keystroke	i	n/a
52.8625	0.105	105725	keystroke	n	n/a
52.9975	0.105	105995	keystroke	g	n/a
53.1175	0.075	106235	keystroke	Key.space	n/a
53.987	0.195	107974	keystroke	v	n/a
54.137	0.12	108274	keystroke	a	n/a
54.422	0.076	108844	keystroke	r	n/a
54.903	0.074	109806	keystroke	i	n/a
55.0375	0.12	110075	keystroke	a	n/a
55.278	0.074	110556	keystroke	n	n/a
55.472	0.105	110944	keystroke	c	n/a
55.682	0.075	111364	keystroke	e	n/a
55.907	0.06	111814	keystroke	Key.enter	n/a
55.974	8.336	111948	prompt	n/a	swiss conversion actors disagree\n
56.8525	0.105	113705	keystroke	s	n/a
57.1225	0.105	114245	keystroke	w	n/a
57.3025	0.075	114605	keystroke	i	n/a
57.7675	0.015	115535	keystroke	s	n/a
57.8425	0.075	115685	keystroke	s	n/a
58.1125	0.135	116225	keystroke	Key.space	n/a
58.3375	0.135	116675	keystroke	c	n/a
58.4425	0.105	116885	keystroke	o	n/a
58.5175	0.105	117035	keystroke	n	n/a
58.7725	0.135	117545	keystroke	v	n/a
58.9375	0.15	117875	keystroke	e	n/a
59.0725	0.075	118145	keystroke	r	n/a
59.2825	0.09	118565	keystroke	s	n/a
59.3575	0.21	118715	keystroke	i	n/a
59.4625	0.12	118925	keystroke	o	n/a
59.5525	0.18	119105	keystroke	n	n/a
59.7175	0.1195	119435	keystroke	Key.space	n/a
60.392	0.105	120784	keystroke	a	n/a
60.632	0.1505	121264	keystroke	c	n/a
60.9315	0.1205	121863	keystroke	t	n/a
61.172	0.091	122344	keystroke	o	n/a
61.277	0.105	122554	keystroke	r	n/a
61.502	0.0895	123004	keystroke	Key.space	n/a
62.177	0.105	124354	keystroke	d	n/a
62.357	0.09	124714	keystroke	i	n/a
62.462	0.09	124924	keystroke	s	n/a
62.807	0.09	125614	keystroke	a	n/a
63.002	0.12	126004	keystroke	g	n/a
63.2415	0.09	126483	keystroke	r	n/a
63.4665	0.075	126933	keystroke	e	n/a
63.632	0.09	127264	keystroke	e	n/a
64.2325	0.075	128465	keystroke	Key.enter	n/a
64.3185	9.756	128637	prompt	n/a	voyuer inch volumes colonial\n
65.1015	0.151	130203	keystroke	v	n/a
65.2665	0.075	130533	keystroke	o	n/a
65.6115	0.0605	131223	keystroke	y	n/a
66.032	0.06	132064	keystroke	u	n/a
66.497	0.1505	132994	keystroke	e	n/a
66.6325	0.12	133265	keystroke	r	n/a
66.8725	0.15	133745	keystroke	Key.space	n/a
67.1125	0.12	134225	keystroke	i	n/a
67.2175	0.135	134435	keystroke	n	n/a
67.6075	0.1195	135215	keystroke	s	n/a
68.537	0.0745	137074	keystroke	Key.backspace	n/a
68.672	0.12	137344	keystroke	c	n/a
68.837	0.075	137674	keystroke	h	n/a
69.4065	0.105	138813	keystroke	Key.space	n/a
69.6325	0.15	139265	keystroke	v	n/a
69.7975	0.075	139595	keystroke	o	n/a
69.992	0.12	139984	keystroke	l	n/a
70.262	0.06	140524	keystroke	u	n/a
70.487	0.09	140974	keystroke	m	n/a
71.057	0.105	142114	keystroke	e	n/a
71.297	0.0745	142594	keystroke	s	n/a
71.5215	0.15	143043	keystroke	Key.space	n/a
72.0765	0.136	144153	keystroke	c	n/a
72.2725	0.09	144545	keystroke	o	n/a
72.5125	0.105	145025	keystroke	l	n/a
72.752	0.09	145504	keystroke	o	n/a
72.962	0.09	145924	keystroke	n	n/a
73.292	0.105	146584	keystroke	i	n/a
73.487	0.105	146974	keystroke	a	n/a
73.607	0.1195	147214	keystroke	l	n/a
73.9965	0.076	147993	keystroke	Key.enter	n/a
74.0815	15.2185	148163	prompt	n/a	forgot exempt reflection bullet\n
74.972	0.12	149944	keystroke	f	n/a
75.107	0.06	150214	keystroke	o	n/a
75.272	0.1195	150544	keystroke	g	n/a
75.947	0.09	151894	keystroke	Key.backspace	n/a
76.052	0.12	152104	keystroke	r	n/a
76.217	0.075	152434	keystroke	o	n/a
76.307	0.12	152614	keystroke	g	n/a
76.442	0.075	152884	keystroke	o	n/a
76.532	0.1055	153064	keystroke	t	n/a
77.1025	0.06	154205	keystroke	Key.backspace	n/a
77.2525	0.045	154505	keystroke	Key.backspace	n/a
77.3725	0.06	154745	keystroke	Key.backspace	n/a
77.5075	0.09	155015	keystroke	Key.backspace	n/a
78.2275	0.12	156455	keystroke	g	n/a
78.3325	0.075	156665	keystroke	o	n/a
78.4965	0.075	156993	keystroke	t	n/a
78.5865	0.105	157173	keystroke	Key.space	n/a
78.9025	0.104	157805	keystroke	e	n/a
79.1415	0.151	158283	keystroke	x	n/a
79.4265	0.09	158853	keystroke	a	n/a
79.9075	0.06	159815	keystroke	Key.backspace	n/a
79.9825	0.105	159965	keystroke	e	n/a
80.1325	0.18	160265	keystroke	m	n/a
80.3575	0.135	160715	keystroke	p	n/a
80.6575	0.09	161315	keystroke	t	n/a
81.182	0.15	162364	keystroke	Key.space	n/a
81.572	0.135	163144	keystroke	r	n/a
81.677	0.105	163354	keystroke	e	n/a
81.827	0.09	163654	keystroke	l	n/a
82.127	0.06	164254	keystroke	f	n/a
83.402	0.06	166804	keystroke	Key.backspace	n/a
83.537	0.075	167074	keystroke	Key.backspace	n/a
83.6265	0.15	167253	keystroke	f	n/a
83.8065	0.09	167613	keystroke	l	n/a
83.9415	0.135	167883	keystroke	e	n/a
84.3015	0.15	168603	keystroke	x	n/a
84.617	0.105	169234	keystroke	t	n/a
84.707	0.18	169414	keystroke	i	n/a
84.812	0.12	169624	keystroke	o	n/a
84.902	0.12	169804	keystroke	n	n/a
85.352	0.06	170704	keystroke	Key.backspace	n/a
85.502	0.06	171004	keystroke	Key.backspace	n/a
85.6515	0.06	171303	keystroke	Key.backspace	n/a
85.7865	0.075	171573	keystroke	Key.backspace	n/a
85.9515	0.06	171903	keystroke	Key.backspace	n/a
85.9975	0.075	171995	keystroke	c	n/a
86.5825	0.105	173165	keystroke	t	n/a
86.6575	0.225	173315	keystroke	i	n/a
86.7625	0.135	173525	keystroke	o	n/a
86.8665	0.136	173733	keystroke	n	n/a
87.0175	0.09	174035	keystroke	Key.space	n/a
87.332	0.135	174664	keystroke	b	n/a
87.452	0.1505	174904	keystroke	u	n/a
87.617	0.135	175234	keystroke	i	n/a
88.2025	0.075	176405	keystroke	Key.backspace	n/a
88.4425	0.075	176885	keystroke	l	n/a
88.5775	0.09	177155	keystroke	l	n/a
88.8625	0.12	177725	keystroke	e	n/a
89.0125	0.12	178025	keystroke	t	n/a
89.2225	0.075	178445	keystroke	Key.enter	n/a
89.3065	13.312	178613	prompt	n/a	florence around columns magnitude\n
90.1075	0.15	180215	keystroke	f	n/a
90.2875	0.09	180575	keystroke	o	n/a
90.5425	0.12	181085	keystroke	r	n/a
91.0825	0.06	182165	keystroke	Key.backspace	n/a
91.2325	0.0745	182465	keystroke	Key.backspace	n/a
91.457	0.075	182914	keystroke	l	n/a
91.6675	0.06	183335	keystroke	o	n/a
92.252	0.1055	184504	keystroke	r	n/a
92.5675	0.105	185135	keystroke	e	n/a
92.8075	0.105	185615	keystroke	n	n/a
92.9575	0.105	185915	keystroke	c	n/a
93.1675	0.0745	186335	keystroke	e	n/a
93.377	0.1205	186754	keystroke	Key.space	n/a
93.9315	0.136	187863	keystroke	a	n/a
94.2015	0.12	188403	keystroke	r	n/a
94.3065	0.135	188613	keystroke	o	n/a
94.4115	0.09	188823	keystroke	u	n/a
94.667	0.075	189334	keystroke	n	n/a
94.8315	0.105	189663	keystroke	d	n/a
97.5345	0.042	195069	keystroke	Key.space	n/a
97.7125	0.165	195425	keystroke	c	n/a
97.8925	0.075	195785	keystroke	o	n/a
98.0875	0.105	196175	keystroke	l	n/a
98.2975	0.06	196595	keystroke	u	n/a
98.5525	0.135	197105	keystroke	m	n/a
98.9875	0.075	197975	keystroke	n	n/a
99.2275	0.09	198455	keystroke	s	n/a
99.5725	0.134	199145	keystroke	Key.space	n/a
99.9475	0.135	199895	keystroke	m	n/a
100.0675	0.105	200135	keystroke	a	n/a
100.5475	0.105	201095	keystroke	g	n/a
101.267	0.105	202534	keystroke	n	n/a
101.507	0.09	203014	keystroke	i	n/a
101.7625	0.09	203525	keystroke	t	n/a
102.0475	0.06	204095	keystroke	u	n/a
102.1675	0.0895	204335	keystroke	d	n/a
102.347	0.105	204694	keystroke	e	n/a
102.542	0.075	205084	keystroke	Key.enter	n/a
102.6235	12.9555	205247	prompt	n/a	walker continuing grove removable\n
103.5025	0.15	207005	keystroke	w	n/a
103.6225	0.15	207245	keystroke	a	n/a
103.7875	0.105	207575	keystroke	l	n/a
103.8775	0.09	207755	keystroke	k	n/a
103.9525	0.15	207905	keystroke	e	n/a
104.0725	0.12	208145	keystroke	r	n/a
104.2375	0.105	208475	keystroke	Key.space	n/a
105.0325	0.135	210065	keystroke	c	n/a
105.2575	0.06	210515	keystroke	o	n/a
105.4975	0.075	210995	keystroke	n	n/a
105.9325	0.105	211865	keystroke	t	n/a
106.1875	0.09	212375	keystroke	i	n/a
106.2925	0.105	212585	keystroke	n	n/a
106.8625	0.045	213725	keystroke	u	n/a
107.0425	0.135	214085	keystroke	i	n/a
107.1625	0.09	214325	keystroke	n	n/a
107.312	0.09	214624	keystroke	g	n/a
107.537	0.09	215074	keystroke	Key.space	n/a
108.2415	0.105	216483	keystroke	g	n/a
108.4665	0.1205	216933	keystroke	r	n/a
108.617	0.075	217234	keystroke	o	n/a
108.767	0.165	217534	keystroke	v	n/a
108.992	0.105	217984	keystroke	e	n/a
109.247	0.09	218494	keystroke	Key.space	n/a
109.6365	0.105	219273	keystroke	r	n/a
109.7265	0.09	219453	keystroke	e	n/a
109.8915	0.166	219783	keystroke	m	n/a
110.0275	0.149	220055	keystroke	v	n/a
110.0415	0.076	220083	keystroke	o	n/a
110.1625	0.09	220325	keystroke	e	n/a
111.797	0.06	223594	keystroke	Key.backspace	n/a
111.962	0.0595	223924	keystroke	Key.backspace	n/a
112.1565	0.09	224313	keystroke	e	n/a
112.9675	0.059	225935	keystroke	Key.backspace	n/a
113.1165	0.075	226233	keystroke	Key.backspace	n/a
113.8365	0.061	227673	keystroke	o	n/a
113.9415	0.166	227883	keystroke	v	n/a
114.0775	0.105	228155	keystroke	e	n/a
114.5265	0.091	229053	keystroke	a	n/a
115.0365	0.09	230073	keystroke	b	n/a
115.1415	0.09	230283	keystroke	l	n/a
115.2765	0.1055	230553	keystroke	e	n/a
115.517	0.06	231034	keystroke	Key.enter	n/a
115.584	13.6455	231168	prompt	n/a	combine hardwood compatibility projectors\n
116.417	0.15	232834	keystroke	c	n/a
116.582	0.09	233164	keystroke	o	n/a
116.717	0.165	233434	keystroke	m	n/a
117.137	0.105	234274	keystroke	b	n/a
117.227	0.09	234454	keystroke	i	n/a
117.3465	0.12	234693	keystroke	n	n/a
117.5115	0.106	235023	keystroke	e	n/a
117.7815	0.12	235563	keystroke	Key.space	n/a
118.1875	0.06	236375	keystroke	h	n/a
118.2925	0.119	236585	keystroke	a	n/a
118.4875	0.119	236975	keystroke	r	n/a
118.7125	0.135	237425	keystroke	d	n/a
119.0275	0.119	238055	keystroke	w	n/a
119.642	0.075	239284	keystroke	o	n/a
119.792	0.075	239584	keystroke	o	n/a
119.927	0.09	239854	keystroke	d	n/a
120.047	0.12	240094	keystroke	Key.space	n/a
120.662	0.15	241324	keystroke	c	n/a
120.782	0.15	241564	keystroke	o	n/a
120.902	0.15	241804	keystroke	m	n/a
121.172	0.09	242344	keystroke	p	n/a
121.412	0.12	242824	keystroke	a	n/a
121.712	0.105	243424	keystroke	t	n/a
121.892	0.105	243784	keystroke	i	n/a
122.117	0.105	244234	keystroke	b	n/a
122.447	0.105	244894	keystroke	l	n/a
122.912	0.075	245824	keystroke	i	n/a
123.647	0.06	247294	keystroke	Key.backspace	n/a
123.797	0.06	247594	keystroke	Key.backspace	n/a
124.037	0.09	248074	keystroke	i	n/a
124.217	0.045	248434	keystroke	l	n/a
124.382	0.105	248764	keystroke	i	n/a
124.607	0.09	249214	keystroke	t	n/a
124.772	0.075	249544	keystroke	y	n/a
124.967	0.12	249934	keystroke	Key.space	n/a
125.897	0.135	251794	keystroke	p	n/a
126.092	0.12	252184	keystroke	r	n/a
126.152	0.135	252304	keystroke	o	n/a
126.272	0.12	252544	keystroke	j	n/a
126.422	0.135	252844	keystroke	e	n/a
126.677	0.165	253354	keystroke	c	n/a
127.502	0.105	255004	keystroke	t	n/a
127.9375	0.0445	255875	keystroke	o	n/a
128.357	0.12	256714	keystroke	r	n/a
128.627	0.105	257254	keystroke	s	n/a
129.167	0.06	258334	keystroke	Key.enter	n/a
129.2345	7.0145	258469	prompt	n/a	wooden zero anyone 'tis\n
130.053	0.12	260106	keystroke	w	n/a
130.233	0.0595	260466	keystroke	o	n/a
130.3525	0.09	260705	keystroke	o	n/a
130.4575	0.134	260915	keystroke	d	n/a
130.7415	0.105	261483	keystroke	e	n/a
130.8625	0.089	261725	keystroke	n	n/a
131.0125	0.1345	262025	keystroke	Key.space	n/a
131.4175	0.105	262835	keystroke	z	n/a
131.7325	0.135	263465	keystroke	e	n/a
131.8525	0.12	263705	keystroke	r	n/a
131.9875	0.09	263975	keystroke	o	n/a
132.1675	0.135	264335	keystroke	Key.space	n/a
132.6475	0.09	265295	keystroke	a	n/a
132.7525	0.105	265505	keystroke	n	n/a
133.0225	0.105	266045	keystroke	y	n/a
133.2325	0.15	266465	keystroke	o	n/a
133.3675	0.105	266735	keystroke	n	n/a
133.4425	0.105	266885	keystroke	e	n/a
133.5925	0.105	267185	keystroke	Key.space	n/a
134.6875	0.12	269375	keystroke	'	n/a
134.9725	0.12	269945	keystroke	t	n/a
135.512	0.09	271024	keystroke	i	n/a
135.662	0.09	271324	keystroke	s	n/a
136.1565	0.0905	272313	keystroke	Key.enter	n/a
136.2535	9.6255	272507	prompt	n/a	java fellowship directed accessible\n
137.177	0.12	274354	keystroke	j	n/a
137.297	0.135	274594	keystroke	a	n/a
137.492	0.18	274984	keystroke	v	n/a
137.6575	0.1045	275315	keystroke	a	n/a
137.867	0.105	275734	keystroke	Key.space	n/a
138.392	0.15	276784	keystroke	f	n/a
138.5575	0.0895	277115	keystroke	e	n/a
138.752	0.06	277504	keystroke	l	n/a
138.887	0.075	277774	keystroke	l	n/a
139.067	0.045	278134	keystroke	o	n/a
139.127	0.09	278254	keystroke	w	n/a
140.2375	0.12	280475	keystroke	s	n/a
141.0025	0.075	282005	keystroke	h	n/a
141.2425	0.21	282485	keystroke	i	n/a
141.4375	0.09	282875	keystroke	p	n/a
141.6775	0.12	283355	keystroke	Key.space	n/a
142.2025	0.1045	284405	keystroke	d	n/a
142.337	0.105	284674	keystroke	i	n/a
142.547	0.135	285094	keystroke	r	n/a
142.652	0.105	285304	keystroke	e	n/a
142.892	0.1195	285784	keystroke	c	n/a
143.1015	0.136	286203	keystroke	t	n/a
143.4765	0.091	286953	keystroke	e	n/a
143.672	0.09	287344	keystroke	d	n/a
143.792	0.12	287584	keystroke	Key.space	n/a
144.062	0.12	288124	keystroke	a	n/a
144.392	0.06	288784	keystroke	c	n/a
144.557	0.075	289114	keystroke	c	n/a
144.737	0.09	289474	keystroke	e	n/a
144.977	0.06	289954	keystroke	s	n/a
145.112	0.075	290224	keystroke	s	n/a
145.262	0.09	290524	keystroke	i	n/a
145.382	0.075	290764	keystroke	b	n/a
145.517	0.075	291034	keystroke	l	n/a
145.607	0.075	291214	keystroke	e	n/a
145.817	0.06	291634	keystroke	Key.enter	n/a
145.8855	9.2985	291771	prompt	n/a	think wednesday movies conferencing\n
146.792	0.135	293584	keystroke	t	n/a
146.897	0.09	293794	keystroke	h	n/a
146.972	0.105	293944	keystroke	i	n/a
147.107	0.12	294214	keystroke	n	n/a
147.197	0.105	294394	keystroke	k	n/a
147.287	0.12	294574	keystroke	Key.space	n/a
147.8425	0.1195	295685	keystroke	w	n/a
148.067	0.105	296134	keystroke	e	n/a
148.292	0.075	296584	keystroke	d	n/a
148.907	0.09	297814	keystroke	n	n/a
149.057	0.0905	298114	keystroke	e	n/a
149.2815	0.09	298563	keystroke	s	n/a
149.6425	0.18	299285	keystroke	d	n/a
149.7925	0.12	299585	keystroke	a	n/a
150.0775	0.06	300155	keystroke	y	n/a
150.2425	0.15	300485	keystroke	Key.space	n/a
150.6025	0.12	301205	keystroke	m	n/a
150.7525	0.09	301505	keystroke	o	n/a
150.9175	0.105	301835	keystroke	v	n/a
151.9975	0.06	303995	keystroke	i	n/a
152.2215	0.076	304443	keystroke	e	n/a
152.4175	0.075	304835	keystroke	s	n/a
152.5825	0.135	305165	keystroke	Key.space	n/a
152.7925	0.135	305585	keystroke	c	n/a
152.8975	0.09	305795	keystroke	o	n/a
152.9575	0.105	305915	keystroke	n	n/a
153.3625	0.105	306725	keystroke	f	n/a
153.6325	0.15	307265	keystroke	e	n/a
153.7825	0.105	307565	keystroke	r	n/a
154.1725	0.105	308345	keystroke	e	n/a
154.3075	0.075	308615	keystroke	n	n/a
154.4875	0.1055	308975	keystroke	c	n/a
154.697	0.12	309394	keystroke	i	n/a
154.787	0.12	309574	keystroke	n	n/a
154.922	0.09	309844	keystroke	g	n/a
155.102	0.075	310204	keystroke	Key.enter	n/a
155.1935	9.585	310387	prompt	n/a	ethnic budget processes railway\n
156.1525	0.12	312305	keystroke	e	n/a
156.4975	0.105	312995	keystroke	t	n/a
156.6625	0.09	313325	keystroke	h	n/a
157.037	0.135	314074	keystroke	n	n/a
157.157	0.075	314314	keystroke	i	n/a
157.292	0.135	314584	keystroke	c	n/a
157.472	0.105	314944	keystroke	Key.space	n/a
157.8475	0.105	315695	keystroke	b	n/a
158.1625	0.06	316325	keystroke	u	n/a
158.5225	0.12	317045	keystroke	d	n/a
159.1975	0.135	318395	keystroke	g	n/a
159.3925	0.1495	318785	keystroke	e	n/a
159.572	0.12	319144	keystroke	t	n/a
159.797	0.12	319594	keystroke	Key.space	n/a
160.247	0.12	320494	keystroke	p	n/a
160.412	0.12	320824	keystroke	r	n/a
160.517	0.09	321034	keystroke	o	n/a
160.727	0.105	321454	keystroke	c	n/a
160.952	0.075	321904	keystroke	e	n/a
161.177	0.06	322354	keystroke	s	n/a
161.327	0.135	322654	keystroke	s	n/a
162.407	0.105	324814	keystroke	e	n/a
162.617	0.09	325234	keystroke	s	n/a
162.812	0.12	325624	keystroke	Key.space	n/a
163.247	0.165	326494	keystroke	r	n/a
163.427	0.09	326854	keystroke	a	n/a
163.637	0.135	327274	keystroke	i	n/a
163.772	0.12	327544	keystroke	l	n/a
164.057	0.15	328114	keystroke	w	n/a
164.192	0.135	328384	keystroke	a	n/a
164.447	0.045	328894	keystroke	y	n/a
164.672	0.105	329344	keystroke	Key.enter	n/a
164.7845	7.7195	329569	prompt	n/a	vinyl cage directive graphic\n
165.6025	0.165	331205	keystroke	v	n/a
165.7825	0.105	331565	keystroke	i	n/a
165.9775	0.12	331955	keystroke	n	n/a
167.1175	0.09	334235	keystroke	y	n/a
167.3575	0.09	334715	keystroke	l	n/a
167.6575	0.135	335315	keystroke	Key.space	n/a
167.9125	0.165	335825	keystroke	c	n/a
168.0325	0.12	336065	keystroke	a	n/a
168.4825	0.12	336965	keystroke	g	n/a
168.5725	0.105	337145	keystroke	e	n/a
168.7825	0.075	337565	keystroke	Key.space	n/a
169.0975	0.15	338195	keystroke	d	n/a
169.2775	0.105	338555	keystroke	i	n/a
169.4275	0.1495	338855	keystroke	r	n/a
169.547	0.105	339094	keystroke	e	n/a
169.757	0.12	339514	keystroke	c	n/a
169.982	0.09	339964	keystroke	t	n/a
170.102	0.075	340204	keystroke	i	n/a
170.207	0.1355	340414	keystroke	v	n/a
170.3125	0.105	340625	keystroke	e	n/a
170.4325	0.12	340865	keystroke	Key.space	n/a
170.8225	0.09	341645	keystroke	g	n/a
171.0465	0.21	342093	keystroke	r	n/a
171.2125	0.12	342425	keystroke	a	n/a
171.5125	0.105	343025	keystroke	p	n/a
171.8575	0.1645	343715	keystroke	h	n/a
172.007	0.105	344014	keystroke	i	n/a
172.157	0.1505	344314	keystroke	c	n/a
172.4275	0.075	344855	keystroke	Key.enter	n/a
172.5095	18.43	345019	prompt	n/a	failing worldwide roland cameras\n
173.3125	0.12	346625	keystroke	f	n/a
173.6275	0.105	347255	keystroke	a	n/a
174.3625	0.15	348725	keystroke	i	n/a
174.5425	0.105	349085	keystroke	l	n/a
174.6625	0.195	349325	keystroke	i	n/a
175.637	0.06	351274	keystroke	Key.backspace	n/a
175.877	0.12	351754	keystroke	l	n/a
176.057	0.12	352114	keystroke	i	n/a
176.162	0.105	352324	keystroke	n	n/a
176.3125	0.074	352625	keystroke	g	n/a
176.3565	0.09	352713	keystroke	Key.space	n/a
181.2325	0.075	362465	keystroke	Key.backspace	n/a
181.3975	0.075	362795	keystroke	Key.backspace	n/a
181.5625	0.0745	363125	keystroke	Key.backspace	n/a
181.742	0.075	363484	keystroke	Key.backspace	n/a
182.012	0.03	364024	keystroke	Key.backspace	n/a
183.257	0.135	366514	keystroke	i	n/a
183.377	0.075	366754	keystroke	n	n/a
183.527	0.06	367054	keystroke	g	n/a
183.602	0.0605	367204	keystroke	Key.space	n/a
184.4875	0.135	368975	keystroke	w	n/a
184.6375	0.105	369275	keystroke	o	n/a
184.8025	0.105	369605	keystroke	r	n/a
184.9675	0.105	369935	keystroke	l	n/a
185.2525	0.105	370505	keystroke	d	n/a
186.0025	0.12	372005	keystroke	w	n/a
186.1375	0.075	372275	keystroke	i	n/a
186.2575	0.105	372515	keystroke	d	n/a
186.4525	0.075	372905	keystroke	e	n/a
186.5725	0.15	373145	keystroke	Key.space	n/a
187.0075	0.105	374015	keystroke	r	n/a
187.0975	0.075	374195	keystroke	o	n/a
187.3225	0.105	374645	keystroke	l	n/a
187.4725	0.09	374945	keystroke	a	n/a
187.6075	0.075	375215	keystroke	n	n/a
187.7115	0.106	375423	keystroke	d	n/a
187.9215	0.106	375843	keystroke	Key.space	n/a
189.407	0.165	378814	keystroke	c	n/a
189.527	0.1205	379054	keystroke	a	n/a
189.7075	0.15	379415	keystroke	m	n/a
190.0225	0.18	380045	keystroke	e	n/a
190.1875	0.075	380375	keystroke	r	n/a
190.4425	0.105	380885	keystroke	a	n/a
190.6525	0.09	381305	keystroke	s	n/a
190.877	0.06	381754	keystroke	Key.enter	n/a
190.9445	11.9495	381889	prompt	n/a	mounted we've genuine antonio\n
191.8675	0.165	383735	keystroke	m	n/a
192.0625	0.165	384125	keystroke	o	n/a
192.9015	0.061	385803	keystroke	u	n/a
193.1115	0.076	386223	keystroke	n	n/a
193.3215	0.136	386643	keystroke	t	n/a
193.532	0.1055	387064	keystroke	e	n/a
193.7575	0.09	387515	keystroke	d	n/a
193.8925	0.135	387785	keystroke	Key.space	n/a
194.3575	0.15	388715	keystroke	w	n/a
194.4925	0.12	388985	keystroke	e	n/a
194.9125	0.105	389825	keystroke	'	n/a
195.0625	0.15	390125	keystroke	v	n/a
195.1975	0.105	390395	keystroke	e	n/a
195.3775	0.09	390755	keystroke	Key.space	n/a
196.097	0.09	392194	keystroke	g	n/a
196.217	0.105	392434	keystroke	e	n/a
196.382	0.09	392764	keystroke	n	n/a
198.3775	0.09	396755	keystroke	u	n/a
198.6475	0.0895	397295	keystroke	i	n/a
198.842	0.09	397684	keystroke	n	n/a
199.022	0.075	398044	keystroke	e	n/a
199.157	0.105	398314	keystroke	Key.space	n/a
199.487	0.0905	398974	keystroke	a	n/a
199.6825	0.105	399365	keystroke	n	n/a
199.8775	0.105	399755	keystroke	t	n/a
200.1025	0.105	400205	keystroke	o	n/a
201.302	0.12	402604	keystroke	n	n/a
201.662	0.21	403324	keystroke	i	n/a
201.857	0.1045	403714	keystroke	o	n/a
202.817	0.075	405634	keystroke	Key.enter	n/a
202.905	9.604	405810	prompt	n/a	submission birthday vegetarian power\n
203.627	0.12	407254	keystroke	s	n/a
203.822	0.105	407644	keystroke	u	n/a
204.227	0.09	408454	keystroke	b	n/a
204.722	0.135	409444	keystroke	m	n/a
204.917	0.09	409834	keystroke	i	n/a
205.112	0.075	410224	keystroke	s	n/a
205.277	0.09	410554	keystroke	s	n/a
205.397	0.21	410794	keystroke	i	n/a
205.532	0.12	411064	keystroke	o	n/a
205.592	0.15	411184	keystroke	n	n/a
205.727	0.135	411454	keystroke	Key.space	n/a
205.982	0.12	411964	keystroke	b	n/a
206.3575	0.075	412715	keystroke	i	n/a
206.5075	0.089	413015	keystroke	r	n/a
206.6725	0.104	413345	keystroke	t	n/a
206.7775	0.06	413555	keystroke	h	n/a
207.0175	0.18	414035	keystroke	d	n/a
207.1515	0.106	414303	keystroke	a	n/a
207.3325	0.09	414665	keystroke	y	n/a
207.4815	0.091	414963	keystroke	Key.space	n/a
208.232	0.165	416464	keystroke	v	n/a
208.382	0.105	416764	keystroke	e	n/a
208.652	0.09	417304	keystroke	g	n/a
209.507	0.105	419014	keystroke	e	n/a
209.957	0.105	419914	keystroke	t	n/a
210.527	0.075	421054	keystroke	a	n/a
210.827	0.105	421654	keystroke	r	n/a
211.082	0.075	422164	keystroke	i	n/a
211.232	0.09	422464	keystroke	a	n/a
211.337	0.135	422674	keystroke	n	n/a
211.487	0.135	422974	keystroke	Key.space	n/a
211.847	0.09	423694	keystroke	p	n/a
211.952	0.135	423904	keystroke	o	n/a
212.057	0.15	424114	keystroke	w	n/a
212.162	0.135	424324	keystroke	e	n/a
212.267	0.1195	424534	keystroke	r	n/a
212.4165	0.09	424833	keystroke	Key.enter	n/a
212.515	14.319	425030	prompt	n/a	specify paxil privileges extraordinary\n
213.482	0.135	426964	keystroke	s	n/a
213.737	0.105	427474	keystroke	p	n/a
213.887	0.135	427774	keystroke	e	n/a
214.172	0.12	428344	keystroke	c	n/a
214.337	0.09	428674	keystroke	i	n/a
214.982	0.15	429964	keystroke	f	n/a
215.222	0.09	430444	keystroke	y	n/a
215.357	0.12	430714	keystroke	Key.space	n/a
215.7625	0.089	431525	keystroke	p	n/a
215.8965	0.121	431793	keystroke	a	n/a
216.1965	0.135	432393	keystroke	x	n/a
216.4815	0.09	432963	keystroke	i	n/a
216.6315	0.106	433263	keystroke	l	n/a
216.8425	0.089	433685	keystroke	Key.space	n/a
217.2475	0.105	434495	keystroke	p	n/a
217.4425	0.12	434885	keystroke	r	n/a
217.6225	0.075	435245	keystroke	i	n/a
217.9375	0.105	435875	keystroke	v	n/a
218.1325	0.105	436265	keystroke	i	n/a
218.3875	0.09	436775	keystroke	l	n/a
218.582	0.09	437164	keystroke	e	n/a
219.632	0.15	439264	keystroke	d	n/a
220.4725	0.059	440945	keystroke	Key.backspace	n/a
220.5625	0.135	441125	keystroke	g	n/a
220.6525	0.135	441305	keystroke	e	n/a
220.9675	0.105	441935	keystroke	s	n/a
221.2515	0.12	442503	keystroke	Key.space	n/a
221.5825	0.1195	443165	keystroke	e	n/a
221.807	0.135	443614	keystroke	x	n/a
222.122	0.06	444244	keystroke	t	n/a
223.2175	0.15	446435	keystroke	r	n/a
223.4265	0.106	446853	keystroke	a	n/a
224.7025	0.045	449405	keystroke	o	n/a
224.9865	0.106	449973	keystroke	r	n/a
225.4665	0.105	450933	keystroke	d	n/a
225.7665	0.09	451533	keystroke	i	n/a
225.8865	0.135	451773	keystroke	n	n/a
226.0665	0.12	452133	keystroke	a	n/a
226.3215	0.105	452643	keystroke	r	n/a
226.4725	0.074	452945	keystroke	y	n/a
226.7415	0.0905	453483	keystroke	Key.enter	n/a
226.8405	7.478	453681	prompt	n/a	herald technical charts deeper\n
227.747	0.105	455494	keystroke	h	n/a
227.987	0.135	455974	keystroke	e	n/a
228.9475	0.165	457895	keystroke	r	n/a
229.0975	0.12	458195	keystroke	a	n/a
229.2475	0.09	458495	keystroke	l	n/a
229.4425	0.1045	458885	keystroke	d	n/a
229.622	0.105	459244	keystroke	Key.space	n/a
230.282	0.09	460564	keystroke	t	n/a
230.357	0.12	460714	keystroke	e	n/a
230.642	0.105	461284	keystroke	c	n/a
230.777	0.075	461554	keystroke	h	n/a
231.392	0.12	462784	keystroke	n	n/a
231.557	0.1045	463114	keystroke	i	n/a
231.7675	0.149	463535	keystroke	c	n/a
232.0215	0.061	464043	keystroke	a	n/a
232.1575	0.075	464315	keystroke	l	n/a
232.5015	0.09	465003	keystroke	Key.space	n/a
232.9075	0.135	465815	keystroke	c	n/a
233.0275	0.075	466055	keystroke	h	n/a
233.1325	0.12	466265	keystroke	a	n/a
233.3875	0.105	466775	keystroke	r	n/a
233.8375	0.105	467675	keystroke	t	n/a
234.0625	0.09	468125	keystroke	s	n/a
234.2575	0.06	468515	keystroke	Key.enter	n/a
234.326	13.178	468652	prompt	n/a	of protective homeless previously\n
235.8625	0.075	471725	keystroke	o	n/a
235.9975	0.12	471995	keystroke	f	n/a
236.1325	0.12	472265	keystroke	Key.space	n/a
236.642	0.075	473284	keystroke	p	n/a
236.882	0.12	473764	keystroke	r	n/a
237.8715	0.06	475743	keystroke	o	n/a
237.9615	0.12	475923	keystroke	t	n/a
239.342	0.105	478684	keystroke	e	n/a
239.597	0.105	479194	keystroke	c	n/a
239.822	0.09	479644	keystroke	t	n/a
239.942	0.075	479884	keystroke	i	n/a
240.077	0.135	480154	keystroke	v	n/a
240.182	0.105	480364	keystroke	e	n/a
240.332	0.0895	480664	keystroke	Key.space	n/a
241.1725	0.12	482345	keystroke	h	n/a
241.3225	0.135	482645	keystroke	o	n/a
241.8465	0.12	483693	keystroke	m	n/a
242.1015	0.105	484203	keystroke	e	n/a
242.4315	0.075	484863	keystroke	l	n/a
242.8375	0.105	485675	keystroke	e	n/a
243.1065	0.0755	486213	keystroke	s	n/a
243.302	0.06	486604	keystroke	s	n/a
243.437	0.12	486874	keystroke	Key.space	n/a
243.7975	0.06	487595	keystroke	p	n/a
244.1125	0.15	488225	keystroke	r	n/a
244.2775	0.09	488555	keystroke	e	n/a
244.577	0.1195	489154	keystroke	v	n/a
245.1475	0.18	490295	keystroke	i	n/a
245.2815	0.18	490563	keystroke	o	n/a
245.4465	0.076	490893	keystroke	u	n/a
245.5965	0.105	491193	keystroke	s	n/a
246.1075	0.105	492215	keystroke	l	n/a
246.3625	0.075	492725	keystroke	y	n/a
247.442	0.06	494884	keystroke	Key.enter	n/a
247.5095	9.879	495019	prompt	n/a	property suffer membrane they\n
248.4325	0.06	496865	keystroke	p	n/a
248.8375	0.09	497675	keystroke	r	n/a
248.9575	0.15	497915	keystroke	o	n/a
249.1825	0.135	498365	keystroke	p	n/a
249.6625	0.165	499325	keystroke	e	n/a
249.8725	0.0895	499745	keystroke	r	n/a
250.067	0.105	500134	keystroke	t	n/a
250.307	0.075	500614	keystroke	y	n/a
250.427	0.135	500854	keystroke	Key.space	n/a
250.832	0.105	501664	keystroke	s	n/a
250.982	0.09	501964	keystroke	u	n/a
251.147	0.075	502294	keystroke	f	n/a
251.327	0.12	502654	keystroke	f	n/a
251.477	0.15	502954	keystroke	e	n/a
251.597	0.12	503194	keystroke	r	n/a
251.807	0.12	503614	keystroke	Key.space	n/a
252.362	0.135	504724	keystroke	m	n/a
252.482	0.12	504964	keystroke	e	n/a
252.603	0.119	505206	keystroke	m	n/a
253.232	0.045	506464	keystroke	b	n/a
253.607	0.0755	507214	keystroke	r	n/a
253.8475	0.12	507695	keystroke	a	n/a
254.072	0.09	508144	keystroke	n	n/a
254.297	0.12	508594	keystroke	c	n/a
255.4665	0.061	510933	keystroke	Key.backspace	n/a
255.5125	0.105	511025	keystroke	e	n/a
256.2475	0.135	512495	keystroke	Key.space	n/a
256.6075	0.12	513215	keystroke	t	n/a
256.787	0.09	513574	keystroke	h	n/a
256.892	0.09	513784	keystroke	e	n/a
257.012	0.0605	514024	keystroke	y	n/a
257.2975	0.09	514595	keystroke	Key.enter	n/a
257.394	13.63	514788	prompt	n/a	extensions realty neutral challenging\n
258.182	0.12	516364	keystroke	e	n/a
258.407	0.135	516814	keystroke	x	n/a
258.632	0.15	517264	keystroke	t	n/a
259.352	0.12	518704	keystroke	e	n/a
259.6065	0.075	519213	keystroke	n	n/a
259.8015	0.12	519603	keystroke	s	n/a
260.2965	0.24	520593	keystroke	i	n/a
260.4015	0.121	520803	keystroke	o	n/a
260.4915	0.135	520983	keystroke	n	n/a
260.8375	0.09	521675	keystroke	s	n/a
261.0915	0.105	522183	keystroke	Key.space	n/a
261.4825	0.135	522965	keystroke	r	n/a
261.5875	0.1345	523175	keystroke	e	n/a
261.812	0.09	523624	keystroke	a	n/a
262.247	0.06	524494	keystroke	l	n/a
262.712	0.09	525424	keystroke	t	n/a
262.862	0.075	525724	keystroke	y	n/a
263.012	0.1195	526024	keystroke	Key.space	n/a
263.912	0.105	527824	keystroke	n	n/a
264.032	0.075	528064	keystroke	e	n/a
264.392	0.06	528784	keystroke	u	n/a
264.872	0.06	529744	keystroke	r	n/a
265.367	0.075	530734	keystroke	Key.backspace	n/a
265.487	0.09	530974	keystroke	t	n/a
265.8465	0.166	531693	keystroke	r	n/a
266.0275	0.105	532055	keystroke	a	n/a
266.2225	0.089	532445	keystroke	l	n/a
266.7765	0.105	533553	keystroke	Key.space	n/a
267.1815	0.121	534363	keystroke	c	n/a
268.187	0.075	536374	keystroke	h	n/a
268.592	0.105	537184	keystroke	a	n/a
269.4315	0.06	538863	keystroke	l	n/a
269.582	0.06	539164	keystroke	l	n/a
269.732	0.09	539464	keystroke	e	n/a
269.837	0.075	539674	keystroke	n	n/a
270.332	0.1205	540664	keystroke	g	n/a
270.4675	0.105	540935	keystroke	i	n/a
270.5425	0.12	541085	keystroke	n	n/a
270.7075	0.105	541415	keystroke	g	n/a
270.9475	0.075	541895	keystroke	Key.enter	n/a
271.0305	11.858	542061	prompt	n/a	resorts spencer exclusion waiver\n
271.9675	0.135	543935	keystroke	r	n/a
272.0575	0.105	544115	keystroke	e	n/a
272.2665	0.091	544533	keystroke	s	n/a
272.5225	0.074	545045	keystroke	o	n/a
272.7015	0.075	545403	keystroke	r	n/a
272.8665	0.09	545733	keystroke	t	n/a
273.0765	0.076	546153	keystroke	s	n/a
273.1965	0.09	546393	keystroke	Key.space	n/a
274.0215	0.12	548043	keystroke	s	n/a
274.2615	0.12	548523	keystroke	p	n/a
274.7115	0.12	549423	keystroke	e	n/a
274.8615	0.0905	549723	keystroke	n	n/a
275.0875	0.0445	550175	keystroke	s	n/a
275.5815	0.06	551163	keystroke	Key.backspace	n/a
275.6865	0.105	551373	keystroke	c	n/a
276.0765	0.18	552153	keystroke	e	n/a
276.4665	0.135	552933	keystroke	r	n/a
276.7815	0.12	553563	keystroke	Key.space	n/a
277.127	0.1195	554254	keystroke	e	n/a
277.7565	0.121	555513	keystroke	x	n/a
278.0115	0.121	556023	keystroke	c	n/a
278.702	0.15	557404	keystroke	l	n/a
279.032	0.06	558064	keystroke	u	n/a
279.197	0.12	558394	keystroke	s	n/a
279.302	0.21	558604	keystroke	i	n/a
279.422	0.12	558844	keystroke	o	n/a
279.527	0.0895	559054	keystroke	n	n/a
280.1715	0.105	560343	keystroke	Key.space	n/a
280.487	0.195	560974	keystroke	w	n/a
280.652	0.135	561304	keystroke	a	n/a
281.7465	0.091	563493	keystroke	i	n/a
281.8815	0.181	563763	keystroke	v	n/a
282.1075	0.165	564215	keystroke	e	n/a
282.2415	0.136	564483	keystroke	r	n/a
282.8115	0.075	565623	keystroke	Key.enter	n/a
282.894	11.1995	565788	prompt	n/a	quilt wallpaper adopt equipped\n
283.787	0.12	567574	keystroke	q	n/a
284.1465	0.15	568293	keystroke	u	n/a
284.3865	0.15	568773	keystroke	i	n/a
284.5065	0.121	569013	keystroke	l	n/a
284.8215	0.12	569643	keystroke	t	n/a
284.9715	0.135	569943	keystroke	Key.space	n/a
285.3475	0.254	570695	keystroke	w	n/a
285.5575	0.1345	571115	keystroke	a	n/a
286.067	0.075	572134	keystroke	l	n/a
286.202	0.09	572404	keystroke	l	n/a
287.012	0.105	574024	keystroke	p	n/a
287.6425	0.12	575285	keystroke	a	n/a
287.8225	0.105	575645	keystroke	p	n/a
288.0325	0.1645	576065	keystroke	e	n/a
288.182	0.15	576364	keystroke	r	n/a
288.7815	0.135	577563	keystroke	Key.space	n/a
289.0965	0.076	578193	keystroke	a	n/a
289.2765	0.09	578553	keystroke	d	n/a
289.5615	0.135	579123	keystroke	o	n/a
289.6665	0.09	579333	keystroke	p	n/a
289.9365	0.075	579873	keystroke	t	n/a
290.0715	0.09	580143	keystroke	Key.space	n/a
291.317	0.165	582634	keystroke	e	n/a
291.587	0.09	583174	keystroke	q	n/a
292.142	0.1205	584284	keystroke	u	n/a
292.4575	0.195	584915	keystroke	i	n/a
292.6825	0.089	585365	keystroke	p	n/a
292.9975	0.09	585995	keystroke	p	n/a
293.597	0.105	587194	keystroke	e	n/a
293.822	0.09	587644	keystroke	d	n/a
294.017	0.075	588034	keystroke	Key.enter	n/a
294.0985	9.985	588197	prompt	n/a	attached anthony homepage mechanism\n
294.872	0.105	589744	keystroke	a	n/a
295.112	0.075	590224	keystroke	t	n/a
295.277	0.105	590554	keystroke	t	n/a
295.502	0.1355	591004	keystroke	a	n/a
295.7865	0.09	591573	keystroke	c	n/a
296.2965	0.075	592593	keystroke	h	n/a
296.5065	0.075	593013	keystroke	e	n/a
296.7015	0.105	593403	keystroke	d	n/a
296.7915	0.12	593583	keystroke	Key.space	n/a
296.9715	0.09	593943	keystroke	a	n/a
297.1515	0.09	594303	keystroke	n	n/a
297.3615	0.09	594723	keystroke	t	n/a
297.5115	0.1045	595023	keystroke	h	n/a
297.9465	0.075	595893	keystroke	o	n/a
298.1115	0.12	596223	keystroke	n	n/a
298.4265	0.06	596853	keystroke	y	n/a
298.6815	0.105	597363	keystroke	Key.space	n/a
299.0715	0.09	598143	keystroke	h	n/a
299.3115	0.135	598623	keystroke	o	n/a
299.4315	0.12	598863	keystroke	m	n/a
300.287	0.09	600574	keystroke	e	n/a
300.602	0.09	601204	keystroke	p	n/a
300.752	0.105	601504	keystroke	a	n/a
300.902	0.09	601804	keystroke	g	n/a
300.977	0.105	601954	keystroke	e	n/a
301.142	0.089	602284	keystroke	Key.space	n/a
301.6225	0.105	603245	keystroke	m	n/a
301.7575	0.09	603515	keystroke	e	n/a
302.0575	0.09	604115	keystroke	c	n/a
302.2975	0.045	604595	keystroke	h	n/a
303.0915	0.0905	606183	keystroke	a	n/a
303.227	0.1045	606454	keystroke	n	n/a
303.482	0.06	606964	keystroke	i	n/a
303.572	0.09	607144	keystroke	s	n/a
303.722	0.135	607444	keystroke	m	n/a
304.022	0.06	608044	keystroke	Key.enter	n/a
304.088	10.3005	608176	prompt	n/a	folding burlington tone withdrawal\n
304.862	0.135	609724	keystroke	f	n/a
305.087	0.09	610174	keystroke	o	n/a
305.312	0.09	610624	keystroke	l	n/a
305.447	0.135	610894	keystroke	d	n/a
305.567	0.1045	611134	keystroke	i	n/a
305.8225	0.074	611645	keystroke	g	n/a
306.2865	0.045	612573	keystroke	Key.backspace	n/a
306.5265	0.06	613053	keystroke	n	n/a
306.6915	0.075	613383	keystroke	g	n/a
306.7965	0.075	613593	keystroke	Key.space	n/a
307.7415	0.12	615483	keystroke	b	n/a
307.9515	0.105	615903	keystroke	u	n/a
308.2365	0.105	616473	keystroke	r	n/a
308.4165	0.105	616833	keystroke	l	n/a
308.5965	0.136	617193	keystroke	i	n/a
308.7015	0.135	617403	keystroke	n	n/a
308.8515	0.09	617703	keystroke	g	n/a
309.1225	0.089	618245	keystroke	t	n/a
309.1965	0.105	618393	keystroke	o	n/a
309.2865	0.135	618573	keystroke	n	n/a
309.4365	0.09	618873	keystroke	Key.space	n/a
310.2015	0.1055	620403	keystroke	t	n/a
310.277	0.09	620554	keystroke	o	n/a
310.352	0.105	620704	keystroke	n	n/a
310.472	0.105	620944	keystroke	e	n/a
310.547	0.09	621094	keystroke	Key.space	n/a
311.252	0.09	622504	keystroke	w	n/a
311.342	0.105	622684	keystroke	i	n/a
311.5075	0.0895	623015	keystroke	t	n/a
311.5825	0.0445	623165	keystroke	h	n/a
311.912	0.105	623824	keystroke	d	n/a
312.107	0.15	624214	keystroke	r	n/a
312.7215	0.09	625443	keystroke	a	n/a
313.3065	0.105	626613	keystroke	w	n/a
313.8615	0.105	627723	keystroke	a	n/a
314.087	0.12	628174	keystroke	l	n/a
314.327	0.06	628654	keystroke	Key.enter	n/a
314.397	11.422	628794	prompt	n/a	persistent maintains bank tahoe\n
315.362	0.09	630724	keystroke	p	n/a
315.587	0.1495	631174	keystroke	e	n/a
315.7215	0.12	631443	keystroke	r	n/a
316.0215	0.135	632043	keystroke	s	n/a
316.3365	0.0755	632673	keystroke	i	n/a
316.5015	0.12	633003	keystroke	s	n/a
316.847	0.075	633694	keystroke	t	n/a
317.057	0.105	634114	keystroke	e	n/a
317.192	0.075	634384	keystroke	n	n/a
317.357	0.0905	634714	keystroke	t	n/a
317.4915	0.105	634983	keystroke	Key.space	n/a
317.9715	0.1355	635943	keystroke	m	n/a
318.122	0.105	636244	keystroke	a	n/a
318.242	0.12	636484	keystroke	i	n/a
318.332	0.12	636664	keystroke	n	n/a
318.6915	0.09	637383	keystroke	t	n/a
321.109	0.058	642218	keystroke	a	n/a
321.377	0.15	642754	keystroke	i	n/a
321.752	0.12	643504	keystroke	n	n/a
322.2775	0.09	644555	keystroke	s	n/a
322.5925	0.135	645185	keystroke	Key.space	n/a
322.8925	0.12	645785	keystroke	b	n/a
323.0275	0.12	646055	keystroke	a	n/a
323.2675	0.15	646535	keystroke	n	n/a
323.3875	0.1495	646775	keystroke	k	n/a
323.5075	0.1345	647015	keystroke	Key.space	n/a
323.822	0.135	647644	keystroke	t	n/a
323.957	0.12	647914	keystroke	a	n/a
324.272	0.195	648544	keystroke	h	n/a
324.452	0.09	648904	keystroke	o	n/a
325.502	0.105	651004	keystroke	e	n/a
325.742	0.075	651484	keystroke	Key.enter	n/a
325.827	8.422	651654	prompt	n/a	relief indices brooklyn orders\n
326.7765	0.12	653553	keystroke	r	n/a
326.8665	0.105	653733	keystroke	e	n/a
327.2265	0.09	654453	keystroke	l	n/a
327.4215	0.06	654843	keystroke	i	n/a
327.9175	0.119	655835	keystroke	e	n/a
328.1125	0.12	656225	keystroke	f	n/a
328.4265	0.09	656853	keystroke	Key.space	n/a
328.8465	0.12	657693	keystroke	i	n/a
328.9525	0.105	657905	keystroke	n	n/a
329.2965	0.121	658593	keystroke	d	n/a
329.6125	0.0895	659225	keystroke	i	n/a
329.822	0.12	659644	keystroke	c	n/a
330.062	0.09	660124	keystroke	e	n/a
330.302	0.0745	660604	keystroke	s	n/a
330.4515	0.105	660903	keystroke	Key.space	n/a
330.7065	0.09	661413	keystroke	b	n/a
330.9465	0.105	661893	keystroke	r	n/a
331.1715	0.046	662343	keystroke	o	n/a
331.2915	0.09	662583	keystroke	o	n/a
331.4715	0.15	662943	keystroke	k	n/a
331.5915	0.135	663183	keystroke	l	n/a
331.7715	0.105	663543	keystroke	y	n/a
332.0115	0.12	664023	keystroke	n	n/a
332.1315	0.12	664263	keystroke	Key.space	n/a
332.4615	0.075	664923	keystroke	o	n/a
332.5965	0.135	665193	keystroke	r	n/a
332.8065	0.12	665613	keystroke	d	n/a
333.0465	0.09	666093	keystroke	e	n/a
333.1065	0.105	666213	keystroke	r	n/a
333.932	0.105	667864	keystroke	s	n/a
334.172	0.0755	668344	keystroke	Key.enter	n/a
334.254	15.715	668508	prompt	n/a	cameroon solution forwarding diabetes\n
335.117	0.18	670234	keystroke	c	n/a
335.252	0.135	670504	keystroke	a	n/a
336.167	0.135	672334	keystroke	m	n/a
336.437	0.105	672874	keystroke	e	n/a
336.887	0.09	673774	keystroke	r	n/a
337.127	0.0595	674254	keystroke	o	n/a
337.2615	0.09	674523	keystroke	o	n/a
337.4265	0.15	674853	keystroke	m	n/a
337.5915	0.135	675183	keystroke	Key.space	n/a
338.927	0.06	677854	keystroke	Key.backspace	n/a
339.062	0.075	678124	keystroke	Key.backspace	n/a
339.332	0.09	678664	keystroke	n	n/a
339.497	0.09	678994	keystroke	Key.space	n/a
339.887	0.12	679774	keystroke	s	n/a
340.5925	0.06	681185	keystroke	o	n/a
341.1165	0.09	682233	keystroke	l	n/a
341.402	0.045	682804	keystroke	u	n/a
341.672	0.105	683344	keystroke	t	n/a
341.732	0.27	683464	keystroke	i	n/a
341.897	0.09	683794	keystroke	o	n/a
341.972	0.105	683944	keystroke	n	n/a
342.737	0.12	685474	keystroke	Key.space	n/a
343.022	0.135	686044	keystroke	f	n/a
343.127	0.09	686254	keystroke	o	n/a
343.307	0.165	686614	keystroke	r	n/a
343.502	0.195	687004	keystroke	w	n/a
343.682	0.12	687364	keystroke	a	n/a
343.832	0.135	687664	keystroke	r	n/a
344.117	0.12	688234	keystroke	d	n/a
344.672	0.135	689344	keystroke	i	n/a
344.762	0.135	689524	keystroke	n	n/a
344.927	0.075	689854	keystroke	g	n/a
344.972	0.105	689944	keystroke	Key.space	n/a
345.902	0.105	691804	keystroke	d	n/a
346.067	0.075	692134	keystroke	i	n/a
346.202	0.105	692404	keystroke	a	n/a
346.442	0.105	692884	keystroke	b	n/a
346.7565	0.105	693513	keystroke	e	n/a
346.9515	0.15	693903	keystroke	t	n/a
347.1165	0.045	694233	keystroke	4	n/a
347.912	0.075	695824	keystroke	Key.backspace	n/a
348.0915	0.105	696183	keystroke	e	n/a
348.7515	0.09	697503	keystroke	s	n/a
349.9065	0.06	699813	keystroke	Key.enter	n/a
349.973	13.0155	699946	prompt	n/a	money growth efficiently plates\n
354.079	0.058	708158	keystroke	m	n/a
354.137	0.12	708274	keystroke	o	n/a
354.227	0.12	708454	keystroke	n	n/a
354.377	0.075	708754	keystroke	e	n/a
354.497	0.075	708994	keystroke	y	n/a
354.632	0.105	709264	keystroke	Key.space	n/a
355.427	0.09	710854	keystroke	g	n/a
355.622	0.135	711244	keystroke	r	n/a
355.832	0.09	711664	keystroke	o	n/a
355.937	0.105	711874	keystroke	w	n/a
356.132	0.105	712264	keystroke	t	n/a
356.222	0.09	712444	keystroke	h	n/a
356.432	0.12	712864	keystroke	Key.space	n/a
356.897	0.105	713794	keystroke	e	n/a
357.122	0.075	714244	keystroke	f	n/a
357.272	0.12	714544	keystroke	f	n/a
357.482	0.075	714964	keystroke	i	n/a
357.812	0.135	715624	keystroke	c	n/a
359.6875	0.089	719375	keystroke	i	n/a
360.3765	0.121	720753	keystroke	e	n/a
360.6315	0.09	721263	keystroke	n	n/a
360.7815	0.091	721563	keystroke	t	n/a
361.0365	0.105	722073	keystroke	l	n/a
361.2765	0.06	722553	keystroke	y	n/a
361.3815	0.18	722763	keystroke	Key.space	n/a
361.8015	0.105	723603	keystroke	p	n/a
361.9525	0.134	723905	keystroke	l	n/a
362.0715	0.135	724143	keystroke	a	n/a
362.2965	0.09	724593	keystroke	t	n/a
362.3565	0.105	724713	keystroke	e	n/a
362.5965	0.105	725193	keystroke	s	n/a
362.9115	0.075	725823	keystroke	Key.enter	n/a
362.9935	10.4655	725987	prompt	n/a	body containers reproduction advertiser\n
363.8265	0.105	727653	keystroke	b	n/a
363.9465	0.0755	727893	keystroke	o	n/a
364.112	0.09	728224	keystroke	d	n/a
364.262	0.075	728524	keystroke	y	n/a
364.382	0.09	728764	keystroke	Key.space	n/a
365.057	0.135	730114	keystroke	c	n/a
365.237	0.09	730474	keystroke	o	n/a
365.387	0.09	730774	keystroke	n	n/a
365.6865	0.12	731373	keystroke	t	n/a
365.8965	0.09	731793	keystroke	a	n/a
366.032	0.12	732064	keystroke	i	n/a
366.137	0.12	732274	keystroke	n	n/a
366.392	0.15	732784	keystroke	e	n/a
366.512	0.105	733024	keystroke	r	n/a
366.752	0.09	733504	keystroke	s	n/a
366.932	0.105	733864	keystroke	Key.space	n/a
367.667	0.12	735334	keystroke	r	n/a
367.757	0.105	735514	keystroke	e	n/a
368.087	0.105	736174	keystroke	p	n/a
368.732	0.12	737464	keystroke	r	n/a
368.822	0.09	737644	keystroke	o	n/a
369.137	0.09	738274	keystroke	d	n/a
369.7215	0.105	739443	keystroke	u	n/a
369.8565	0.1655	739713	keystroke	c	n/a
370.292	0.105	740584	keystroke	t	n/a
370.652	0.15	741304	keystroke	i	n/a
370.757	0.12	741514	keystroke	o	n/a
370.832	0.18	741664	keystroke	n	n/a
371.027	0.09	742054	keystroke	Key.space	n/a
371.2525	0.1045	742505	keystroke	a	n/a
371.477	0.105	742954	keystroke	d	n/a
371.7315	0.18	743463	keystroke	v	n/a
372.0015	0.18	744003	keystroke	e	n/a
372.1665	0.12	744333	keystroke	r	n/a
372.4815	0.105	744963	keystroke	t	n/a
372.6465	0.09	745293	keystroke	i	n/a
372.7965	0.135	745593	keystroke	s	n/a
373.0815	0.15	746163	keystroke	e	n/a
373.2015	0.121	746403	keystroke	r	n/a
373.3815	0.075	746763	keystroke	Key.enter	n/a
373.464	14.4245	746928	prompt	n/a	dictionaries premier argue province\n
374.2965	0.135	748593	keystroke	d	n/a
374.4165	0.09	748833	keystroke	i	n/a
374.8665	0.135	749733	keystroke	c	n/a
375.4365	0.105	750873	keystroke	t	n/a
375.6165	0.12	751233	keystroke	i	n/a
375.9015	0.166	751803	keystroke	o	n/a
376.0965	0.121	752193	keystroke	n	n/a
377.0265	0.12	754053	keystroke	a	n/a
377.522	0.105	755044	keystroke	r	n/a
377.732	0.075	755464	keystroke	i	n/a
377.882	0.12	755764	keystroke	e	n/a
378.122	0.06	756244	keystroke	s	n/a
378.242	0.105	756484	keystroke	Key.space	n/a
378.692	0.045	757384	keystroke	p	n/a
379.142	0.15	758284	keystroke	r	n/a
379.277	0.105	758554	keystroke	e	n/a
379.577	0.12	759154	keystroke	m	n/a
379.877	0.09	759754	keystroke	i	n/a
380.087	0.12	760174	keystroke	e	n/a
380.192	0.135	760384	keystroke	r	n/a
380.417	0.105	760834	keystroke	Key.space	n/a
381.0465	0.09	762093	keystroke	a	n/a
381.4065	0.075	762813	keystroke	g	n/a
382.5175	0.089	765035	keystroke	u	n/a
383.1775	0.164	766355	keystroke	Key.backspace	n/a
383.3575	0.044	766715	keystroke	Key.backspace	n/a
383.792	0.105	767584	keystroke	r	n/a
385.1415	0.105	770283	keystroke	g	n/a
385.6215	0.09	771243	keystroke	u	n/a
385.7565	0.09	771513	keystroke	e	n/a
385.9515	0.1505	771903	keystroke	Key.space	n/a
386.297	0.12	772594	keystroke	p	n/a
386.462	0.135	772924	keystroke	r	n/a
386.612	0.075	773224	keystroke	o	n/a
386.792	0.12	773584	keystroke	v	n/a
387.062	0.15	774124	keystroke	i	n/a
387.182	0.1345	774364	keystroke	n	n/a
387.4215	0.106	774843	keystroke	c	n/a
387.6325	0.075	775265	keystroke	e	n/a
387.7825	0.104	775565	keystroke	Key.enter	n/a
387.9065	11.607	775813	prompt	n/a	shortcuts vbulletin pleasant sender\n
388.5925	0.134	777185	keystroke	s	n/a
388.7715	0.165	777543	keystroke	h	n/a
388.8915	0.0905	777783	keystroke	o	n/a
389.027	0.105	778054	keystroke	r	n/a
389.192	0.09	778384	keystroke	t	n/a
389.507	0.15	779014	keystroke	c	n/a
389.687	0.075	779374	keystroke	u	n/a
389.852	0.09	779704	keystroke	t	n/a
390.167	0.09	780334	keystroke	s	n/a
390.3765	0.105	780753	keystroke	Key.space	n/a
391.0365	0.105	782073	keystroke	v	n/a
391.772	0.09	783544	keystroke	b	n/a
392.192	0.12	784384	keystroke	u	n/a
392.492	0.075	784984	keystroke	l	n/a
392.627	0.06	785254	keystroke	l	n/a
393.092	0.045	786184	keystroke	e	n/a
393.257	0.09	786514	keystroke	t	n/a
393.407	0.135	786814	keystroke	i	n/a
393.527	0.15	787054	keystroke	n	n/a
393.692	0.135	787384	keystroke	Key.space	n/a
394.817	0.105	789634	keystroke	p	n/a
395.012	0.09	790024	keystroke	l	n/a
395.462	0.12	790924	keystroke	e	n/a
395.551	0.1655	791102	keystroke	a	n/a
395.7615	0.12	791523	keystroke	s	n/a
396.707	0.09	793414	keystroke	a	n/a
396.872	0.09	793744	keystroke	n	n/a
397.036	0.091	794072	keystroke	t	n/a
397.2465	0.075	794493	keystroke	Key.space	n/a
397.652	0.12	795304	keystroke	s	n/a
397.847	0.075	795694	keystroke	n	n/a
398.5365	0.045	797073	keystroke	Key.backspace	n/a
398.6265	0.105	797253	keystroke	e	n/a
398.7915	0.075	797583	keystroke	n	n/a
398.8965	0.105	797793	keystroke	d	n/a
399.1065	0.135	798213	keystroke	e	n/a
399.2265	0.105	798453	keystroke	r	n/a
399.4065	0.105	798813	keystroke	Key.enter	n/a
399.52	8.3045	799040	prompt	n/a	respond offensive shell shaved\n
400.4865	0.135	800973	keystroke	r	n/a
400.5765	0.105	801153	keystroke	e	n/a
400.8165	0.12	801633	keystroke	s	n/a
401.0115	0.09	802023	keystroke	p	n/a
401.177	0.15	802354	keystroke	o	n/a
401.297	0.105	802594	keystroke	n	n/a
401.507	0.09	803014	keystroke	d	n/a
401.8965	0.135	803793	keystroke	Key.space	n/a
402.1815	0.075	804363	keystroke	o	n/a
402.2865	0.075	804573	keystroke	f	n/a
402.4365	0.105	804873	keystroke	f	n/a
403.0215	0.09	806043	keystroke	e	n/a
403.1415	0.075	806283	keystroke	n	n/a
403.6065	0.1055	807213	keystroke	s	n/a
403.727	0.075	807454	keystroke	i	n/a
403.877	0.135	807754	keystroke	v	n/a
403.982	0.105	807964	keystroke	e	n/a
404.807	0.075	809614	keystroke	Key.space	n/a
404.927	0.12	809854	keystroke	s	n/a
405.077	0.075	810154	keystroke	h	n/a
405.242	0.1045	810484	keystroke	e	n/a
405.4365	0.075	810873	keystroke	l	n/a
405.8115	0.075	811623	keystroke	l	n/a
406.0525	0.104	812105	keystroke	Key.space	n/a
406.4565	0.1045	812913	keystroke	s	n/a
406.607	0.0755	813214	keystroke	h	n/a
406.8025	0.135	813605	keystroke	a	n/a
406.9525	0.105	813905	keystroke	v	n/a
407.0275	0.105	814055	keystroke	e	n/a
407.3575	0.09	814715	keystroke	d	n/a
407.7315	0.091	815463	keystroke	Key.enter	n/a
407.8295	10.839	815659	prompt	n/a	recommendation adoption naturally tubes\n
408.7825	0.134	817565	keystroke	r	n/a
408.8715	0.12	817743	keystroke	e	n/a
409.1715	0.12	818343	keystroke	c	n/a
409.2925	0.09	818585	keystroke	o	n/a
409.4865	0.09	818973	keystroke	m	n/a
409.667	0.075	819334	keystroke	m	n/a
410.312	0.12	820624	keystroke	e	n/a
410.477	0.075	820954	keystroke	n	n/a
410.657	0.1495	821314	keystroke	d	n/a
410.8365	0.075	821673	keystroke	a	n/a
411.0165	0.075	822033	keystroke	t	n/a
411.1065	0.195	822213	keystroke	i	n/a
411.1815	0.1355	822363	keystroke	o	n/a
411.2865	0.1055	822573	keystroke	n	n/a
411.677	0.06	823354	keystroke	Key.space	n/a
412.322	0.075	824644	keystroke	a	n/a
412.517	0.075	825034	keystroke	d	n/a
412.982	0.075	825964	keystroke	o	n/a
413.687	0.075	827374	keystroke	p	n/a
413.837	0.09	827674	keystroke	t	n/a
413.972	0.18	827944	keystroke	i	n/a
414.047	0.15	828094	keystroke	o	n/a
414.182	0.09	828364	keystroke	n	n/a
414.482	0.075	828964	keystroke	Key.space	n/a
415.0065	0.09	830013	keystroke	n	n/a
415.1415	0.1055	830283	keystroke	a	n/a
415.367	0.105	830734	keystroke	t	n/a
415.562	0.0755	831124	keystroke	u	n/a
415.7115	0.1195	831423	keystroke	r	n/a
415.9375	0.09	831875	keystroke	a	n/a
416.117	0.06	832234	keystroke	l	n/a
416.237	0.105	832474	keystroke	l	n/a
416.492	0.06	832984	keystroke	y	n/a
417.302	0.12	834604	keystroke	Key.space	n/a
417.6775	0.104	835355	keystroke	t	n/a
417.8415	0.06	835683	keystroke	u	n/a
417.9465	0.105	835893	keystroke	b	n/a
418.1715	0.09	836343	keystroke	e	n/a
418.3815	0.075	836763	keystroke	s	n/a
418.592	0.075	837184	keystroke	Key.enter	n/a
418.6735	16.6895	837347	prompt	n/a	syndication message ralph limitations\n
419.537	0.09	839074	keystroke	s	n/a
419.822	0.09	839644	keystroke	y	n/a
420.107	0.09	840214	keystroke	n	n/a
420.3315	0.0905	840663	keystroke	d	n/a
420.587	0.0745	841174	keystroke	i	n/a
421.0825	0.195	842165	keystroke	c	n/a
422.012	0.12	844024	keystroke	a	n/a
422.297	0.105	844594	keystroke	t	n/a
422.387	0.18	844774	keystroke	i	n/a
422.477	0.135	844954	keystroke	o	n/a
422.552	0.12	845104	keystroke	n	n/a
422.717	0.105	845434	keystroke	Key.space	n/a
423.047	0.105	846094	keystroke	m	n/a
423.197	0.105	846394	keystroke	e	n/a
423.467	0.06	846934	keystroke	s	n/a
423.6315	0.105	847263	keystroke	s	n/a
423.7965	0.165	847593	keystroke	a	n/a
423.9765	0.09	847953	keystroke	g	n/a
424.0365	0.09	848073	keystroke	e	n/a
424.8775	0.119	849755	keystroke	Key.space	n/a
425.1625	0.15	850325	keystroke	r	n/a
425.2815	0.135	850563	keystroke	a	n/a
425.6275	0.194	851255	keystroke	l	n/a
425.8075	0.119	851615	keystroke	p	n/a
425.9725	0.074	851945	keystroke	h	n/a
426.3615	0.075	852723	keystroke	Key.space	n/a
426.9015	0.105	853803	keystroke	l	n/a
427.0515	0.06	854103	keystroke	i	n/a
427.2165	0.166	854433	keystroke	m	n/a
427.3665	0.09	854733	keystroke	i	n/a
428.027	0.12	856054	keystroke	a	n/a
428.282	0.09	856564	keystroke	t	n/a
428.5065	0.225	857013	keystroke	i	n/a
428.6415	0.105	857283	keystroke	o	n/a
428.7615	0.03	857523	keystroke	n	n/a
429.9315	0.06	859863	keystroke	Key.backspace	n/a
430.082	0.0745	860164	keystroke	Key.backspace	n/a
430.2315	0.075	860463	keystroke	Key.backspace	n/a
430.3815	0.09	860763	keystroke	Key.backspace	n/a
431.627	0.09	863254	keystroke	Key.backspace	n/a
432.407	0.09	864814	keystroke	t	n/a
433.2015	0.076	866403	keystroke	a	n/a
433.3825	0.074	866765	keystroke	t	n/a
433.5015	0.27	867003	keystroke	i	n/a
433.7425	0.134	867485	keystroke	n	n/a
434.4765	0.06	868953	keystroke	Key.backspace	n/a
434.6715	0.135	869343	keystroke	o	n/a
434.7765	0.106	869553	keystroke	n	n/a
434.9115	0.09	869823	keystroke	s	n/a
435.287	0.075	870574	keystroke	Key.enter	n/a
435.371	8.3935	870742	prompt	n/a	generic henderson wings ncaa\n
436.322	0.105	872644	keystroke	g	n/a
436.472	0.105	872944	keystroke	e	n/a
436.622	0.075	873244	keystroke	n	n/a
436.727	0.165	873454	keystroke	e	n/a
436.877	0.105	873754	keystroke	r	n/a
437.087	0.075	874174	keystroke	i	n/a
437.222	0.12	874444	keystroke	c	n/a
437.387	0.075	874774	keystroke	Key.space	n/a
438.362	0.06	876724	keystroke	h	n/a
438.482	0.09	876964	keystroke	e	n/a
438.617	0.075	877234	keystroke	n	n/a
438.722	0.105	877444	keystroke	d	n/a
439.067	0.135	878134	keystroke	e	n/a
439.187	0.045	878374	keystroke	r	n/a
439.382	0.075	878764	keystroke	s	n/a
439.517	0.18	879034	keystroke	o	n/a
439.682	0.105	879364	keystroke	n	n/a
440.087	0.09	880174	keystroke	Key.space	n/a
440.387	0.105	880774	keystroke	w	n/a
440.477	0.105	880954	keystroke	i	n/a
440.552	0.105	881104	keystroke	n	n/a
440.717	0.0895	881434	keystroke	g	n/a
440.9265	0.075	881853	keystroke	s	n/a
441.4365	0.12	882873	keystroke	Key.space	n/a
442.0365	0.075	884073	keystroke	n	n/a
442.2915	0.091	884583	keystroke	c	n/a
442.4415	0.105	884883	keystroke	c	n/a
443.1015	0.06	886203	keystroke	Key.backspace	n/a
443.3265	0.09	886653	keystroke	a	n/a
443.5065	0.091	887013	keystroke	a	n/a
443.6715	0.09	887343	keystroke	Key.enter	n/a
443.775	11.599	887550	prompt	n/a	beautifully performance knew warrior\n
444.7065	0.12	889413	keystroke	b	n/a
444.8565	0.15	889713	keystroke	e	n/a
444.9915	0.09	889983	keystroke	a	n/a
445.4565	0.09	890913	keystroke	u	n/a
445.6965	0.105	891393	keystroke	t	n/a
445.8465	0.09	891693	keystroke	i	n/a
446.0265	0.105	892053	keystroke	f	n/a
446.3265	0.09	892653	keystroke	l	n/a
446.9265	0.09	893853	keystroke	Key.backspace	n/a
447.1965	0.06	894393	keystroke	u	n/a
447.4515	0.075	894903	keystroke	l	n/a
447.5715	0.105	895143	keystroke	l	n/a
447.7965	0.075	895593	keystroke	y	n/a
447.9465	0.105	895893	keystroke	Key.space	n/a
448.3815	0.105	896763	keystroke	p	n/a
448.5015	0.12	897003	keystroke	e	n/a
448.6065	0.105	897213	keystroke	r	n/a
449.3265	0.12	898653	keystroke	f	n/a
449.4915	0.06	898983	keystroke	o	n/a
449.6715	0.105	899343	keystroke	r	n/a
450.0165	0.135	900033	keystroke	m	n/a
450.1365	0.12	900273	keystroke	a	n/a
450.3025	0.074	900605	keystroke	n	n/a
450.4215	0.09	900843	keystroke	c	n/a
450.6165	0.06	901233	keystroke	e	n/a
450.7365	0.12	901473	keystroke	Key.space	n/a
450.9615	0.12	901923	keystroke	k	n/a
451.0965	0.195	902193	keystroke	e	n/a
451.712	0.059	903424	keystroke	Key.backspace	n/a
451.922	0.075	903844	keystroke	n	n/a
451.997	0.165	903994	keystroke	e	n/a
452.102	0.12	904204	keystroke	w	n/a
452.237	0.075	904474	keystroke	Key.space	n/a
452.657	0.1645	905314	keystroke	w	n/a
452.8515	0.15	905703	keystroke	a	n/a
453.1815	0.06	906363	keystroke	r	n/a
453.3465	0.105	906693	keystroke	r	n/a
453.5565	0.135	907113	keystroke	o	n/a
454.2315	0.06	908463	keystroke	Key.backspace	n/a
454.4565	0.15	908913	keystroke	i	n/a
454.6215	0.09	909243	keystroke	o	n/a
454.7865	0.105	909573	keystroke	r	n/a
455.2815	0.09	910563	keystroke	Key.enter	n/a
455.38	14.0635	910760	prompt	n/a	confirmed made generation titled\n
459.784	0.073	919568	keystroke	c	n/a
459.872	0.12	919744	keystroke	o	n/a
459.962	0.12	919924	keystroke	n	n/a
460.787	0.135	921574	keystroke	f	n/a
460.952	0.105	921904	keystroke	i	n/a
461.147	0.1045	922294	keystroke	r	n/a
461.2665	0.15	922533	keystroke	m	n/a
461.536	0.1065	923072	keystroke	e	n/a
461.7475	0.1045	923495	keystroke	d	n/a
461.896	0.106	923792	keystroke	Key.space	n/a
462.272	0.15	924544	keystroke	m	n/a
462.362	0.105	924724	keystroke	a	n/a
462.542	0.105	925084	keystroke	d	n/a
462.722	0.105	925444	keystroke	e	n/a
462.902	0.09	925804	keystroke	Key.space	n/a
463.457	0.165	926914	keystroke	g	n/a
463.607	0.105	927214	keystroke	e	n/a
464.432	0.09	928864	keystroke	n	n/a
464.702	0.165	929404	keystroke	e	n/a
464.897	0.195	929794	keystroke	r	n/a
465.242	0.105	930484	keystroke	t	n/a
465.9175	0.074	931835	keystroke	Key.backspace	n/a
466.6215	0.1205	933243	keystroke	a	n/a
466.802	0.105	933604	keystroke	t	n/a
466.877	0.165	933754	keystroke	i	n/a
466.982	0.12	933964	keystroke	o	n/a
467.087	0.135	934174	keystroke	n	n/a
467.237	0.09	934474	keystroke	Key.space	n/a
467.567	0.12	935134	keystroke	t	n/a
467.747	0.09	935494	keystroke	i	n/a
467.927	0.1195	935854	keystroke	t	n/a
468.0915	0.105	936183	keystroke	l	n/a
468.4065	0.12	936813	keystroke	e	n/a
468.7065	0.105	937413	keystroke	d	n/a
469.3665	0.075	938733	keystroke	Key.enter	n/a
469.449	9.1345	938898	prompt	n/a	bowling metal scheduling pond\n
470.2365	0.12	940473	keystroke	b	n/a
470.5215	0.075	941043	keystroke	o	n/a
470.6565	0.12	941313	keystroke	w	n/a
470.8815	0.105	941763	keystroke	l	n/a
471.1065	0.135	942213	keystroke	i	n/a
471.2115	0.12	942423	keystroke	n	n/a
471.3465	0.105	942693	keystroke	g	n/a
471.4215	0.105	942843	keystroke	Key.space	n/a
471.7665	0.135	943533	keystroke	m	n/a
471.8865	0.105	943773	keystroke	e	n/a
472.0815	0.1055	944163	keystroke	t	n/a
472.502	0.105	945004	keystroke	a	n/a
472.652	0.135	945304	keystroke	l	n/a
472.771	0.135	945542	keystroke	Key.space	n/a
473.0715	0.12	946143	keystroke	s	n/a
473.3415	0.1345	946683	keystroke	c	n/a
473.4615	0.1055	946923	keystroke	h	n/a
474.3015	0.1055	948603	keystroke	d	n/a
474.9315	0.075	949863	keystroke	Key.backspace	n/a
475.0365	0.09	950073	keystroke	e	n/a
475.2465	0.12	950493	keystroke	d	n/a
475.4115	0.075	950823	keystroke	u	n/a
475.6065	0.1355	951213	keystroke	l	n/a
475.787	0.15	951574	keystroke	i	n/a
475.907	0.105	951814	keystroke	n	n/a
476.027	0.075	952054	keystroke	g	n/a
476.402	0.105	952804	keystroke	p	n/a
476.552	0.15	953104	keystroke	o	n/a
476.672	0.09	953344	keystroke	n	n/a
476.971	0.061	953942	keystroke	Key.backspace	n/a
477.137	0.06	954274	keystroke	Key.backspace	n/a
477.256	0.076	954512	keystroke	Key.backspace	n/a
477.511	0.075	955022	keystroke	Key.space	n/a
477.871	0.105	955742	keystroke	p	n/a
478.067	0.12	956134	keystroke	o	n/a
478.156	0.091	956312	keystroke	n	n/a
478.352	0.089	956704	keystroke	d	n/a
478.501	0.075	957002	keystroke	Key.enter	n/a
478.5835	9.04	957167	prompt	n/a	clause football select session\n
479.417	0.1345	958834	keystroke	c	n/a
479.5665	0.075	959133	keystroke	l	n/a
479.6715	0.105	959343	keystroke	a	n/a
480.616	0.12	961232	keystroke	u	n/a
480.751	0.21	961502	keystroke	s	n/a
480.9175	0.1485	961835	keystroke	e	n/a
481.6665	0.15	963333	keystroke	Key.space	n/a
481.8915	0.15	963783	keystroke	f	n/a
482.0865	0.06	964173	keystroke	o	n/a
482.2065	0.075	964413	keystroke	o	n/a
482.5215	0.105	965043	keystroke	t	n/a
482.7915	0.135	965583	keystroke	b	n/a
482.9115	0.1205	965823	keystroke	a	n/a
483.0765	0.075	966153	keystroke	l	n/a
483.2115	0.09	966423	keystroke	l	n/a
483.3615	0.12	966723	keystroke	Key.space	n/a
484.0215	0.1205	968043	keystroke	s	n/a
484.157	0.165	968314	keystroke	e	n/a
484.682	0.09	969364	keystroke	l	n/a
484.817	0.12	969634	keystroke	e	n/a
485.072	0.135	970144	keystroke	c	n/a
485.312	0.12	970624	keystroke	t	n/a
485.582	0.119	971164	keystroke	Key.space	n/a
486.121	0.106	972242	keystroke	s	n/a
486.316	0.106	972632	keystroke	e	n/a
486.646	0.075	973292	keystroke	s	n/a
486.811	0.106	973622	keystroke	s	n/a
487.036	0.2555	974072	keystroke	i	n/a
487.1715	0.15	974343	keystroke	o	n/a
487.2625	0.134	974525	keystroke	n	n/a
487.5615	0.06	975123	keystroke	Key.enter	n/a
487.6295	24.714	975259	prompt	n/a	preparation consequence essays modify\n
488.416	0.12	976832	keystroke	p	n/a
488.896	0.15	977792	keystroke	r	n/a
489.016	0.105	978032	keystroke	e	n/a
489.7215	0.09	979443	keystroke	p	n/a
489.9615	0.15	979923	keystroke	a	n/a
490.1415	0.105	980283	keystroke	r	n/a
490.3365	0.105	980673	keystroke	t	n/a
490.4265	0.18	980853	keystroke	i	n/a
490.5315	0.12	981063	keystroke	o	n/a
490.6215	0.1055	981243	keystroke	n	n/a
491.386	0.075	982772	keystroke	Key.space	n/a
491.732	0.12	983464	keystroke	c	n/a
491.807	0.074	983614	keystroke	o	n/a
491.866	0.09	983732	keystroke	n	n/a
494.659	0.012	989318	keystroke	Key.backspace	n/a
494.746	0.075	989492	keystroke	Key.backspace	n/a
494.911	0.075	989822	keystroke	Key.backspace	n/a
495.091	0.045	990182	keystroke	Key.backspace	n/a
495.226	0.06	990452	keystroke	Key.backspace	n/a
495.362	0.075	990724	keystroke	Key.backspace	n/a
495.512	0.06	991024	keystroke	Key.backspace	n/a
495.647	0.09	991294	keystroke	Key.backspace	n/a
496.022	0.09	992044	keystroke	a	n/a
496.277	0.09	992554	keystroke	t	n/a
496.397	0.21	992794	keystroke	i	n/a
496.517	0.135	993034	keystroke	o	n/a
496.622	0.0895	993244	keystroke	n	n/a
496.7565	0.075	993513	keystroke	Key.space	n/a
497.641	0.165	995282	keystroke	c	n/a
497.761	0.075	995522	keystroke	o	n/a
497.821	0.106	995642	keystroke	n	n/a
498.136	0.106	996272	keystroke	s	n/a
498.452	0.135	996904	keystroke	q	n/a
499.651	0.075	999302	keystroke	Key.backspace	n/a
499.966	0.031	999932	keystroke	w	n/a
500.446	0.06	1000892	keystroke	Key.backspace	n/a
500.462	0.03	1000924	keystroke	=	n/a
500.537	0.104	1001074	keystroke	e	n/a
503.134	0.028	1006268	keystroke	Key.backspace	n/a
503.297	0.075	1006594	keystroke	Key.backspace	n/a
504.752	0.1345	1009504	keystroke	e	n/a
505.0065	0.09	1010013	keystroke	q	n/a
505.3665	0.09	1010733	keystroke	u	n/a
506.5815	0.12	1013163	keystroke	e	n/a
506.7465	0.105	1013493	keystroke	n	n/a
506.8965	0.105	1013793	keystroke	c	n/a
507.1215	0.045	1014243	keystroke	e	n/a
507.2415	0.12	1014483	keystroke	Key.space	n/a
507.6015	0.105	1015203	keystroke	e	n/a
507.8715	0.09	1015743	keystroke	s	n/a
508.0365	0.105	1016073	keystroke	s	n/a
508.6515	0.12	1017303	keystroke	a	n/a
509.1315	0.06	1018263	keystroke	y	n/a
509.2665	0.105	1018533	keystroke	s	n/a
510.1065	0.12	1020213	keystroke	Key.space	n/a
510.3765	0.165	1020753	keystroke	m	n/a
510.5265	0.075	1021053	keystroke	o	n/a
510.7215	0.105	1021443	keystroke	d	n/a
511.547	0.075	1023094	keystroke	i	n/a
511.667	0.105	1023334	keystroke	f	n/a
511.982	0.075	1023964	keystroke	y	n/a
512.252	0.09	1024504	keystroke	Key.enter	n/a
512.349	15.7595	1024698	prompt	n/a	distributed quarterly container elevation\n
513.107	0.135	1026214	keystroke	d	n/a
513.227	0.0745	1026454	keystroke	i	n/a
513.3765	0.135	1026753	keystroke	s	n/a
513.6465	0.105	1027293	keystroke	t	n/a
513.8715	0.135	1027743	keystroke	r	n/a
514.0215	0.105	1028043	keystroke	i	n/a
514.2765	0.105	1028553	keystroke	b	n/a
514.457	0.06	1028914	keystroke	u	n/a
515.057	0.1195	1030114	keystroke	t	n/a
515.2965	0.1055	1030593	keystroke	e	n/a
515.522	0.09	1031044	keystroke	d	n/a
515.642	0.1345	1031284	keystroke	Key.space	n/a
515.9565	0.09	1031913	keystroke	q	n/a
516.1965	0.075	1032393	keystroke	u	n/a
516.5565	0.105	1033113	keystroke	a	n/a
517.0065	0.12	1034013	keystroke	t	n/a
517.6065	0.12	1035213	keystroke	e	n/a
517.9065	0.12	1035813	keystroke	r	n/a
518.4465	0.06	1036893	keystroke	Key.backspace	n/a
518.5815	0.075	1037163	keystroke	Key.backspace	n/a
518.7315	0.075	1037463	keystroke	Key.backspace	n/a
518.9715	0.12	1037943	keystroke	r	n/a
519.5415	0.1055	1039083	keystroke	t	n/a
519.8865	0.12	1039773	keystroke	e	n/a
520.0215	0.1045	1040043	keystroke	r	n/a
520.231	0.12	1040462	keystroke	l	n/a
520.456	0.09	1040912	keystroke	y	n/a
520.606	0.09	1041212	keystroke	Key.space	n/a
521.221	0.15	1042442	keystroke	c	n/a
521.311	0.105	1042622	keystroke	o	n/a
521.401	0.09	1042802	keystroke	n	n/a
521.942	0.09	1043884	keystroke	t	n/a
522.392	0.09	1044784	keystroke	a	n/a
522.6315	0.09	1045263	keystroke	i	n/a
522.7665	0.105	1045533	keystroke	n	n/a
523.0965	0.135	1046193	keystroke	e	n/a
523.2015	0.12	1046403	keystroke	r	n/a
523.3965	0.135	1046793	keystroke	Key.space	n/a
523.652	0.12	1047304	keystroke	e	n/a
524.027	0.135	1048054	keystroke	v	n/a
524.672	0.06	1049344	keystroke	Key.backspace	n/a
524.882	0.075	1049764	keystroke	l	n/a
525.002	0.15	1050004	keystroke	v	n/a
525.197	0.1495	1050394	keystroke	e	n/a
525.8715	0.075	1051743	keystroke	Key.backspace	n/a
526.0215	0.09	1052043	keystroke	Key.backspace	n/a
526.1415	0.12	1052283	keystroke	e	n/a
526.3215	0.135	1052643	keystroke	v	n/a
527.2665	0.105	1054533	keystroke	a	n/a
527.5065	0.075	1055013	keystroke	t	n/a
527.5665	0.225	1055133	keystroke	i	n/a
527.6565	0.15	1055313	keystroke	o	n/a
527.7615	0.105	1055523	keystroke	n	n/a
528.0465	0.06	1056093	keystroke	Key.enter	n/a
528.1135	8.725	1056227	prompt	n/a	everywhere whether assume reform\n
528.9015	0.1205	1057803	keystroke	e	n/a
529.082	0.135	1058164	keystroke	v	n/a
529.202	0.165	1058404	keystroke	e	n/a
529.337	0.12	1058674	keystroke	r	n/a
529.532	0.12	1059064	keystroke	y	n/a
529.892	0.12	1059784	keystroke	w	n/a
530.027	0.06	1060054	keystroke	h	n/a
530.162	0.12	1060324	keystroke	e	n/a
530.252	0.165	1060504	keystroke	r	n/a
530.372	0.09	1060744	keystroke	e	n/a
530.927	0.105	1061854	keystroke	Key.space	n/a
531.197	0.15	1062394	keystroke	w	n/a
531.8265	0.075	1063653	keystroke	h	n/a
532.0065	0.15	1064013	keystroke	e	n/a
532.5015	0.12	1065003	keystroke	t	n/a
532.6665	0.075	1065333	keystroke	h	n/a
532.7265	0.12	1065453	keystroke	e	n/a
532.8165	0.135	1065633	keystroke	r	n/a
532.9815	0.09	1065963	keystroke	Key.space	n/a
533.582	0.09	1067164	keystroke	a	n/a
533.822	0.06	1067644	keystroke	s	n/a
533.987	0.105	1067974	keystroke	s	n/a
534.197	0.09	1068394	keystroke	u	n/a
534.497	0.1645	1068994	keystroke	m	n/a
534.9465	0.09	1069893	keystroke	e	n/a
535.1865	0.12	1070373	keystroke	Key.space	n/a
535.6365	0.105	1071273	keystroke	r	n/a
535.7265	0.09	1071453	keystroke	e	n/a
536.0565	0.015	1072113	keystroke	f	n/a
536.0865	0.06	1072173	keystroke	o	n/a
536.1915	0.12	1072383	keystroke	r	n/a
536.3265	0.09	1072653	keystroke	m	n/a
536.7615	0.075	1073523	keystroke	Key.enter	n/a
536.8445	13.779	1073689	prompt	n/a	preservation column appeal marijuana\n
537.751	0.09	1075502	keystroke	p	n/a
538.066	0.12	1076132	keystroke	r	n/a
538.156	0.105	1076312	keystroke	e	n/a
538.876	0.075	1077752	keystroke	s	n/a
539.102	0.165	1078204	keystroke	e	n/a
539.236	0.12	1078472	keystroke	r	n/a
539.537	0.164	1079074	keystroke	v	n/a
539.746	0.135	1079492	keystroke	a	n/a
539.957	0.089	1079914	keystroke	t	n/a
540.091	0.21	1080182	keystroke	i	n/a
540.196	0.121	1080392	keystroke	o	n/a
540.286	0.12	1080572	keystroke	n	n/a
540.751	0.135	1081502	keystroke	Key.space	n/a
541.067	0.134	1082134	keystroke	c	n/a
541.321	0.09	1082642	keystroke	o	n/a
541.7565	0.12	1083513	keystroke	l	n/a
542.0275	0.06	1084055	keystroke	u	n/a
542.3415	0.09	1084683	keystroke	m	n/a
542.5815	0.075	1085163	keystroke	n	n/a
542.7915	0.09	1085583	keystroke	Key.space	n/a
543.256	0.12	1086512	keystroke	a	n/a
543.556	0.075	1087112	keystroke	p	n/a
544.111	0.09	1088222	keystroke	p	n/a
544.4415	0.135	1088883	keystroke	e	n/a
544.607	0.15	1089214	keystroke	a	n/a
544.817	0.105	1089634	keystroke	l	n/a
545.117	0.104	1090234	keystroke	Key.space	n/a
545.522	0.1345	1091044	keystroke	m	n/a
545.6865	0.12	1091373	keystroke	a	n/a
546.1065	0.105	1092213	keystroke	r	n/a
546.9165	0.075	1093833	keystroke	i	n/a
547.1715	0.09	1094343	keystroke	j	n/a
547.5315	0.075	1095063	keystroke	u	n/a
548.1465	0.075	1096293	keystroke	n	n/a
549.5265	0.09	1099053	keystroke	Key.backspace	n/a
549.9915	0.075	1099983	keystroke	a	n/a
550.1265	0.09	1100253	keystroke	n	n/a
550.3215	0.105	1100643	keystroke	a	n/a
550.5315	0.09	1101063	keystroke	Key.enter	n/a
550.6295	9.339	1101259	prompt	n/a	is petition infants i've\n
551.5365	0.1205	1103073	keystroke	i	n/a
551.762	0.09	1103524	keystroke	n	n/a
552.257	0.06	1104514	keystroke	Key.backspace	n/a
552.377	0.09	1104754	keystroke	s	n/a
552.497	0.0895	1104994	keystroke	Key.space	n/a
552.9765	0.09	1105953	keystroke	p	n/a
553.3065	0.0895	1106613	keystroke	e	n/a
553.546	0.0905	1107092	keystroke	t	n/a
553.8015	0.075	1107603	keystroke	i	n/a
553.9515	0.09	1107903	keystroke	t	n/a
554.6865	0.3445	1109373	keystroke	i	n/a
554.8365	0.1795	1109673	keystroke	o	n/a
555.001	0.12	1110002	keystroke	n	n/a
555.527	0.135	1111054	keystroke	Key.space	n/a
555.707	0.135	1111414	keystroke	i	n/a
555.812	0.12	1111624	keystroke	n	n/a
556.142	0.12	1112284	keystroke	f	n/a
556.382	0.12	1112764	keystroke	a	n/a
556.532	0.075	1113064	keystroke	n	n/a
557.312	0.09	1114624	keystroke	t	n/a
557.507	0.105	1115014	keystroke	s	n/a
558.046	0.09	1116092	keystroke	Key.space	n/a
558.511	0.075	1117022	keystroke	i	n/a
558.811	0.105	1117622	keystroke	'	n/a
558.976	0.165	1117952	keystroke	v	n/a
559.397	0.104	1118794	keystroke	e	n/a
559.891	0.075	1119782	keystroke	Key.enter	n/a
559.977	10.506	1119954	prompt	n/a	layout launches destiny enzyme\n
560.8965	0.12	1121793	keystroke	l	n/a
561.0315	0.135	1122063	keystroke	a	n/a
561.2265	0.06	1122453	keystroke	y	n/a
561.4665	0.15	1122933	keystroke	o	n/a
561.5865	0.09	1123173	keystroke	u	n/a
561.7065	0.09	1123413	keystroke	t	n/a
561.8115	0.12	1123623	keystroke	Key.space	n/a
562.6065	0.09	1125213	keystroke	l	n/a
562.8165	0.075	1125633	keystroke	a	n/a
563.717	0.075	1127434	keystroke	u	n/a
563.956	0.091	1127912	keystroke	n	n/a
564.137	0.105	1128274	keystroke	c	n/a
564.227	0.059	1128454	keystroke	h	n/a
564.452	0.105	1128904	keystroke	e	n/a
565.052	0.089	1130104	keystroke	s	n/a
565.216	0.15	1130432	keystroke	Key.space	n/a
565.502	0.09	1131004	keystroke	d	n/a
565.696	0.06	1131392	keystroke	e	n/a
565.966	0.075	1131932	keystroke	s	n/a
566.266	0.105	1132532	keystroke	t	n/a
566.551	0.105	1133102	keystroke	i	n/a
566.761	0.12	1133522	keystroke	n	n/a
567.346	0.06	1134692	keystroke	y	n/a
567.526	0.12	1135052	keystroke	Key.space	n/a
568.202	0.09	1136404	keystroke	e	n/a
568.382	0.089	1136764	keystroke	n	n/a
568.981	0.105	1137962	keystroke	z	n/a
569.492	0.105	1138984	keystroke	y	n/a
570.0015	0.15	1140003	keystroke	m	n/a
570.1665	0.105	1140333	keystroke	e	n/a
570.4215	0.06	1140843	keystroke	Key.enter	n/a
570.4875	8.9365	1140975	prompt	n/a	shelf parcel lanka manager\n
571.2465	0.12	1142493	keystroke	s	n/a
571.3815	0.105	1142763	keystroke	h	n/a
572.0115	0.105	1144023	keystroke	e	n/a
572.2065	0.075	1144413	keystroke	l	n/a
572.3715	0.135	1144743	keystroke	f	n/a
572.5815	0.105	1145163	keystroke	Key.space	n/a
573.0765	0.09	1146153	keystroke	p	n/a
573.2715	0.12	1146543	keystroke	a	n/a
573.5265	0.09	1147053	keystroke	r	n/a
574.3065	0.105	1148613	keystroke	c	n/a
574.5615	0.09	1149123	keystroke	e	n/a
574.7115	0.09	1149423	keystroke	l	n/a
574.9815	0.045	1149963	keystroke	Key.space	n/a
575.2215	0.09	1150443	keystroke	l	n/a
575.3565	0.09	1150713	keystroke	a	n/a
575.657	0.18	1151314	keystroke	n	n/a
575.807	0.105	1151614	keystroke	k	n/a
576.872	0.075	1153744	keystroke	a	n/a
577.2015	0.105	1154403	keystroke	Key.space	n/a
577.4715	0.12	1154943	keystroke	m	n/a
577.5765	0.105	1155153	keystroke	a	n/a
577.7265	0.09	1155453	keystroke	n	n/a
578.4165	0.12	1156833	keystroke	a	n/a
578.7315	0.195	1157463	keystroke	g	n/a
578.9565	0.24	1157913	keystroke	e	n/a
579.1665	0.1355	1158333	keystroke	r	n/a
579.3315	0.09	1158663	keystroke	Key.enter	n/a
579.429	10.0745	1158858	prompt	n/a	exercise column paypal helpful\n
580.1865	0.135	1160373	keystroke	e	n/a
580.4865	0.1205	1160973	keystroke	x	n/a
580.892	0.12	1161784	keystroke	e	n/a
582.181	0.12	1164362	keystroke	r	n/a
582.526	0.135	1165052	keystroke	c	n/a
582.752	0.06	1165504	keystroke	i	n/a
582.872	0.135	1165744	keystroke	s	n/a
583.081	0.106	1166162	keystroke	e	n/a
583.336	0.121	1166672	keystroke	Key.space	n/a
583.592	0.15	1167184	keystroke	c	n/a
583.711	0.075	1167422	keystroke	o	n/a
583.891	0.121	1167782	keystroke	l	n/a
584.236	0.046	1168472	keystroke	u	n/a
584.837	0.075	1169674	keystroke	m	n/a
585.002	0.089	1170004	keystroke	n	n/a
585.226	0.0755	1170452	keystroke	Key.space	n/a
585.7065	0.09	1171413	keystroke	p	n/a
585.9465	0.105	1171893	keystroke	a	n/a
586.3665	0.06	1172733	keystroke	y	n/a
586.5915	0.12	1173183	keystroke	p	n/a
586.8465	0.105	1173693	keystroke	a	n/a
586.9665	0.105	1173933	keystroke	l	n/a
587.2965	0.12	1174593	keystroke	Key.space	n/a
587.7015	0.075	1175403	keystroke	h	n/a
587.8365	0.105	1175673	keystroke	e	n/a
587.8815	0.18	1175763	keystroke	l	n/a
588.0615	0.075	1176123	keystroke	p	n/a
588.5715	0.135	1177143	keystroke	f	n/a
588.7365	0.105	1177473	keystroke	u	n/a
589.0065	0.09	1178013	keystroke	l	n/a
589.1565	0.105	1178313	keystroke	l	n/a
589.4265	0.075	1178853	keystroke	Key.enter	n/a
589.5115	27.127	1179023	prompt	n/a	clothes belize homes presentation\n
590.7465	0.18	1181493	keystroke	c	n/a
590.9115	0.075	1181823	keystroke	l	n/a
591.0915	0.06	1182183	keystroke	o	n/a
591.2865	0.03	1182573	keystroke	s	n/a
591.916	0.045	1183832	keystroke	Key.backspace	n/a
592.0215	0.105	1184043	keystroke	t	n/a
592.2165	0.06	1184433	keystroke	h	n/a
592.3665	0.105	1184733	keystroke	e	n/a
592.5915	0.09	1185183	keystroke	s	n/a
592.7115	0.105	1185423	keystroke	Key.space	n/a
593.3865	0.09	1186773	keystroke	b	n/a
593.6115	0.09	1187223	keystroke	e	n/a
593.971	0.075	1187942	keystroke	i	n/a
594.136	0.105	1188272	keystroke	l	n/a
594.482	0.104	1188964	keystroke	z	n/a
594.751	0.09	1189502	keystroke	e	n/a
595.021	0.105	1190042	keystroke	Key.space	n/a
595.5015	0.105	1191003	keystroke	h	n/a
595.6215	0.135	1191243	keystroke	o	n/a
595.7265	0.12	1191453	keystroke	m	n/a
595.8765	0.09	1191753	keystroke	e	n/a
596.0115	0.075	1192023	keystroke	Key.space	n/a
596.8665	0.0895	1193733	keystroke	p	n/a
597.106	0.135	1194212	keystroke	r	n/a
597.211	0.09	1194422	keystroke	e	n/a
597.451	0.0905	1194902	keystroke	s	n/a
598.2465	0.12	1196493	keystroke	e	n/a
598.5465	0.075	1197093	keystroke	n	n/a
598.8465	0.12	1197693	keystroke	t	n/a
599.0865	0.15	1198173	keystroke	a	n/a
599.2215	0.105	1198443	keystroke	t	n/a
599.3115	0.27	1198623	keystroke	i	n/a
599.4015	0.165	1198803	keystroke	o	n/a
599.5215	0.135	1199043	keystroke	n	n/a
604.533	0	1209066	keystroke	Key.backspace	n/a
604.621	0.06	1209242	keystroke	Key.backspace	n/a
604.786	0.06	1209572	keystroke	Key.backspace	n/a
604.936	0.06	1209872	keystroke	Key.backspace	n/a
605.086	0.06	1210172	keystroke	Key.backspace	n/a
605.2365	0.045	1210473	keystroke	Key.backspace	n/a
605.3865	0.045	1210773	keystroke	Key.backspace	n/a
605.5065	0.06	1211013	keystroke	Key.backspace	n/a
605.656	0.06	1211312	keystroke	Key.backspace	n/a
605.806	0.06	1211612	keystroke	Key.backspace	n/a
605.956	0.06	1211912	keystroke	Key.backspace	n/a
606.106	0.06	1212212	keystroke	Key.backspace	n/a
606.271	0.045	1212542	keystroke	Key.backspace	n/a
606.436	0.03	1212872	keystroke	Key.backspace	n/a
606.7215	0.06	1213443	keystroke	Key.backspace	n/a
606.9015	0.045	1213803	keystroke	Key.backspace	n/a
607.0515	0.0595	1214103	keystroke	Key.backspace	n/a
607.216	0.045	1214432	keystroke	Key.backspace	n/a
607.366	0.06	1214732	keystroke	Key.backspace	n/a
607.516	0.06	1215032	keystroke	Key.backspace	n/a
607.9065	0.105	1215813	keystroke	Key.backspace	n/a
608.386	0.061	1216772	keystroke	Key.backspace	n/a
609.871	0.09	1219742	keystroke	l	n/a
610.546	0.06	1221092	keystroke	i	n/a
611.027	0.134	1222054	keystroke	z	n/a
611.386	0.12	1222772	keystroke	e	n/a
611.776	0.12	1223552	keystroke	Key.space	n/a
612.121	0.09	1224242	keystroke	h	n/a
612.212	0.149	1224424	keystroke	o	n/a
612.331	0.12	1224662	keystroke	m	n/a
612.466	0.075	1224932	keystroke	e	n/a
612.556	0.06	1225112	keystroke	Key.space	n/a
613.531	0.03	1227062	keystroke	p	n/a
613.666	0.15	1227332	keystroke	r	n/a
613.771	0.09	1227542	keystroke	e	n/a
613.966	0.135	1227932	keystroke	s	n/a
614.731	0.12	1229462	keystroke	e	n/a
614.881	0.075	1229762	keystroke	n	n/a
615.511	0.09	1231022	keystroke	t	n/a
615.676	0.135	1231352	keystroke	a	n/a
615.781	0.105	1231562	keystroke	t	n/a
615.886	0.195	1231772	keystroke	i	n/a
615.961	0.135	1231922	keystroke	o	n/a
616.051	0.12	1232102	keystroke	n	n/a
616.561	0.0755	1233122	keystroke	Key.enter	n/a
616.6445	8.5285	1233289	prompt	n/a	placed wake stopping seriously\n
617.7315	0.12	1235463	keystroke	p	n/a
617.9865	0.09	1235973	keystroke	l	n/a
618.1365	0.1205	1236273	keystroke	a	n/a
618.391	0.091	1236782	keystroke	c	n/a
618.586	0.076	1237172	keystroke	e	n/a
618.826	0.091	1237652	keystroke	d	n/a
619.037	0.104	1238074	keystroke	Key.space	n/a
619.307	0.1645	1238614	keystroke	w	n/a
619.4415	0.15	1238883	keystroke	a	n/a
619.6365	0.075	1239273	keystroke	k	n/a
619.7565	0.09	1239513	keystroke	e	n/a
619.9065	0.105	1239813	keystroke	Key.space	n/a
620.4315	0.105	1240863	keystroke	s	n/a
620.5965	0.12	1241193	keystroke	t	n/a
620.7315	0.135	1241463	keystroke	o	n/a
621.1665	0.075	1242333	keystroke	p	n/a
621.3165	0.075	1242633	keystroke	p	n/a
621.5275	0.134	1243055	keystroke	i	n/a
621.6315	0.105	1243263	keystroke	n	n/a
621.7815	0.09	1243563	keystroke	g	n/a
621.8865	0.09	1243773	keystroke	Key.space	n/a
622.3215	0.09	1244643	keystroke	s	n/a
622.6965	0.15	1245393	keystroke	e	n/a
622.8765	0.12	1245753	keystroke	r	n/a
623.3115	0.135	1246623	keystroke	i	n/a
623.6115	0.135	1247223	keystroke	o	n/a
623.7615	0.09	1247523	keystroke	u	n/a
623.9565	0.12	1247913	keystroke	s	n/a
624.2115	0.075	1248423	keystroke	l	n/a
624.7515	0.06	1249503	keystroke	y	n/a
625.0965	0.075	1250193	keystroke	Key.enter	n/a
625.1775	10.0605	1250355	prompt	n/a	hack builders jeans thing\n
625.9815	0.075	1251963	keystroke	h	n/a
626.0865	0.135	1252173	keystroke	a	n/a
626.3265	0.105	1252653	keystroke	c	n/a
626.4315	0.105	1252863	keystroke	k	n/a
626.8215	0.12	1253643	keystroke	b	n/a
626.9265	0.135	1253853	keystroke	u	n/a
627.0465	0.18	1254093	keystroke	i	n/a
627.1965	0.105	1254393	keystroke	l	n/a
627.3465	0.12	1254693	keystroke	d	n/a
627.5865	0.12	1255173	keystroke	e	n/a
627.6765	0.105	1255353	keystroke	r	n/a
627.9165	0.09	1255833	keystroke	s	n/a
628.4715	0.045	1256943	keystroke	Key.backspace	n/a
628.6365	0.06	1257273	keystroke	Key.backspace	n/a
628.8015	0.06	1257603	keystroke	Key.backspace	n/a
628.951	0.06	1257902	keystroke	Key.backspace	n/a
629.116	0.075	1258232	keystroke	Key.backspace	n/a
629.296	0.075	1258592	keystroke	Key.backspace	n/a
629.506	0.0755	1259012	keystroke	Key.backspace	n/a
629.7915	0.06	1259583	keystroke	Key.backspace	n/a
630.2115	0.0595	1260423	keystroke	Key.space	n/a
630.721	0.09	1261442	keystroke	b	n/a
630.9915	0.12	1261983	keystroke	u	n/a
631.1565	0.165	1262313	keystroke	i	n/a
631.3815	0.135	1262763	keystroke	l	n/a
631.8015	0.105	1263603	keystroke	d	n/a
632.0415	0.135	1264083	keystroke	e	n/a
632.1615	0.105	1264323	keystroke	r	n/a
632.3865	0.09	1264773	keystroke	s	n/a
632.5215	0.12	1265043	keystroke	Key.space	n/a
633.016	0.12	1266032	keystroke	j	n/a
633.121	0.12	1266242	keystroke	e	n/a
633.181	0.15	1266362	keystroke	a	n/a
633.392	0.09	1266784	keystroke	n	n/a
633.571	0.09	1267142	keystroke	s	n/a
634.231	0.105	1268462	keystroke	Key.space	n/a
634.576	0.12	1269152	keystroke	t	n/a
634.636	0.09	1269272	keystroke	h	n/a
634.711	0.165	1269422	keystroke	i	n/a
634.831	0.12	1269662	keystroke	n	n/a
634.952	0.104	1269904	keystroke	g	n/a
635.161	0.075	1270322	keystroke	Key.enter	n/a
635.244	9.474	1270488	prompt	n/a	pieces warning breath contain\n
636.346	0.09	1272692	keystroke	p	n/a
636.571	0.06	1273142	keystroke	i	n/a
637.4565	0.105	1274913	keystroke	e	n/a
637.7565	0.12	1275513	keystroke	c	n/a
638.0415	0.09	1276083	keystroke	e	n/a
638.2665	0.06	1276533	keystroke	s	n/a
638.372	0.1195	1276744	keystroke	Key.space	n/a
638.6265	0.15	1277253	keystroke	w	n/a
638.7465	0.15	1277493	keystroke	a	n/a
639.0165	0.12	1278033	keystroke	r	n/a
639.3765	0.105	1278753	keystroke	n	n/a
639.5115	0.105	1279023	keystroke	i	n/a
639.6015	0.105	1279203	keystroke	n	n/a
639.7215	0.09	1279443	keystroke	g	n/a
639.8415	0.06	1279683	keystroke	Key.space	n/a
640.2615	0.09	1280523	keystroke	b	n/a
641.2515	0.165	1282503	keystroke	r	n/a
641.3715	0.21	1282743	keystroke	e	n/a
641.5365	0.105	1283073	keystroke	a	n/a
641.8065	0.09	1283613	keystroke	t	n/a
641.9415	0.075	1283883	keystroke	h	n/a
642.0765	0.135	1284153	keystroke	Key.space	n/a
642.3915	0.15	1284783	keystroke	c	n/a
642.5265	0.06	1285053	keystroke	o	n/a
642.6015	0.105	1285203	keystroke	n	n/a
642.9765	0.105	1285953	keystroke	t	n/a
643.7415	0.075	1287483	keystroke	a	n/a
644.1615	0.135	1288323	keystroke	i	n/a
644.3115	0.15	1288623	keystroke	n	n/a
644.641	0.075	1289282	keystroke	Key.enter	n/a
644.7245	9.8935	1289449	prompt	n/a	cash bound score how'll\n
645.466	0.135	1290932	keystroke	c	n/a
646.862	0.09	1293724	keystroke	a	n/a
647.117	0.105	1294234	keystroke	s	n/a
647.312	0.09	1294624	keystroke	h	n/a
647.431	0.136	1294862	keystroke	Key.space	n/a
647.7465	0.09	1295493	keystroke	b	n/a
647.8515	0.09	1295703	keystroke	o	n/a
648.6465	0.015	1297293	keystroke	u	n/a
648.7515	0.06	1297503	keystroke	n	n/a
648.8715	0.075	1297743	keystroke	d	n/a
648.9765	0.12	1297953	keystroke	Key.space	n/a
649.3365	0.09	1298673	keystroke	s	n/a
649.682	0.105	1299364	keystroke	c	n/a
650.252	0.075	1300504	keystroke	o	n/a
650.537	0.09	1301074	keystroke	r	n/a
650.582	0.105	1301164	keystroke	e	n/a
650.792	0.105	1301584	keystroke	Key.space	n/a
651.032	0.12	1302064	keystroke	h	n/a
651.137	0.075	1302274	keystroke	o	n/a
651.227	0.09	1302454	keystroke	w	n/a
651.737	0.12	1303474	keystroke	;	n/a
652.951	0.045	1305902	keystroke	Key.backspace	n/a
653.252	0.059	1306504	keystroke	'	n/a
653.6415	0.09	1307283	keystroke	l	n/a
653.7915	0.06	1307583	keystroke	l	n/a
654.542	0.074	1309084	keystroke	Key.enter	n/a
654.6235	8.125	1309247	prompt	n/a	in presence plain streets\n
655.547	0.0745	1311094	keystroke	i	n/a
655.651	0.15	1311302	keystroke	n	n/a
655.816	0.105	1311632	keystroke	Key.space	n/a
656.2965	0.09	1312593	keystroke	p	n/a
656.671	0.1355	1313342	keystroke	r	n/a
656.821	0.1055	1313642	keystroke	e	n/a
657.0915	0.09	1314183	keystroke	s	n/a
657.3465	0.105	1314693	keystroke	e	n/a
657.5865	0.076	1315173	keystroke	n	n/a
657.8265	0.105	1315653	keystroke	c	n/a
658.0215	0.075	1316043	keystroke	e	n/a
658.7415	0.09	1317483	keystroke	Key.space	n/a
659.372	0.135	1318744	keystroke	p	n/a
659.717	0.105	1319434	keystroke	l	n/a
659.987	0.12	1319974	keystroke	a	n/a
660.137	0.105	1320274	keystroke	i	n/a
660.272	0.104	1320544	keystroke	n	n/a
660.601	0.09	1321202	keystroke	Key.space	n/a
660.991	0.121	1321982	keystroke	s	n/a
661.202	0.105	1322404	keystroke	t	n/a
661.427	0.104	1322854	keystroke	r	n/a
661.7865	0.09	1323573	keystroke	e	n/a
661.9665	0.105	1323933	keystroke	e	n/a
662.1765	0.105	1324353	keystroke	t	n/a
662.4465	0.06	1324893	keystroke	s	n/a
662.6715	0.075	1325343	keystroke	Key.enter	n/a
662.756	8.5875	1325512	prompt	n/a	terror queue partially more\n
663.8715	0.165	1327743	keystroke	t	n/a
664.0515	0.015	1328103	keystroke	e	n/a
664.2315	0.075	1328463	keystroke	r	n/a
664.4115	0.045	1328823	keystroke	r	n/a
665.6115	0.09	1331223	keystroke	o	n/a
665.761	0.075	1331522	keystroke	r	n/a
665.866	0.09	1331732	keystroke	Key.space	n/a
666.886	0.0905	1333772	keystroke	q	n/a
667.171	0.105	1334342	keystroke	u	n/a
667.472	0.089	1334944	keystroke	e	n/a
667.7865	0.075	1335573	keystroke	u	n/a
667.9665	0.105	1335933	keystroke	e	n/a
668.2665	0.105	1336533	keystroke	Key.space	n/a
668.837	0.075	1337674	keystroke	p	n/a
668.987	0.15	1337974	keystroke	a	n/a
669.167	0.105	1338334	keystroke	r	n/a
669.377	0.09	1338754	keystroke	t	n/a
669.6165	0.1055	1339233	keystroke	i	n/a
669.872	0.105	1339744	keystroke	a	n/a
670.037	0.075	1340074	keystroke	l	n/a
670.187	0.09	1340374	keystroke	l	n/a
670.412	0.075	1340824	keystroke	y	n/a
670.546	0.136	1341092	keystroke	Key.space	n/a
670.787	0.15	1341574	keystroke	m	n/a
670.906	0.091	1341812	keystroke	o	n/a
671.012	0.12	1342024	keystroke	r	n/a
671.087	0.0895	1342174	keystroke	e	n/a
671.2665	0.075	1342533	keystroke	Key.enter	n/a
671.352	10.431	1342704	prompt	n/a	found calculators pieces problems\n
672.211	0.135	1344422	keystroke	f	n/a
672.331	0.106	1344662	keystroke	o	n/a
672.406	0.075	1344812	keystroke	u	n/a
672.617	0.075	1345234	keystroke	n	n/a
672.752	0.09	1345504	keystroke	d	n/a
672.826	0.09	1345652	keystroke	Key.space	n/a
673.502	0.18	1347004	keystroke	c	n/a
673.637	0.105	1347274	keystroke	a	n/a
673.862	0.074	1347724	keystroke	l	n/a
674.6565	0.12	1349313	keystroke	c	n/a
674.9265	0.06	1349853	keystroke	u	n/a
675.1815	0.09	1350363	keystroke	l	n/a
675.4215	0.135	1350843	keystroke	a	n/a
675.6765	0.12	1351353	keystroke	t	n/a
675.9315	0.105	1351863	keystroke	o	n/a
676.3515	0.12	1352703	keystroke	r	n/a
676.7565	0.06	1353513	keystroke	s	n/a
676.9065	0.105	1353813	keystroke	Key.space	n/a
677.266	0.075	1354532	keystroke	p	n/a
677.401	0.09	1354802	keystroke	i	n/a
677.941	0.1055	1355882	keystroke	e	n/a
678.3765	0.12	1356753	keystroke	c	n/a
678.7065	0.105	1357413	keystroke	e	n/a
678.9465	0.075	1357893	keystroke	s	n/a
679.1115	0.105	1358223	keystroke	Key.space	n/a
679.4715	0.105	1358943	keystroke	p	n/a
679.6815	0.12	1359363	keystroke	r	n/a
679.7715	0.075	1359543	keystroke	o	n/a
680.0265	0.105	1360053	keystroke	b	n/a
680.2515	0.105	1360503	keystroke	l	n/a
680.4015	0.105	1360803	keystroke	e	n/a
680.5815	0.1055	1361163	keystroke	m	n/a
681.482	0.12	1362964	keystroke	s	n/a
681.7065	0.075	1363413	keystroke	Key.enter	n/a
681.789	8.8745	1363578	prompt	n/a	angels majority narrow default\n
682.576	0.105	1365152	keystroke	a	n/a
682.711	0.12	1365422	keystroke	n	n/a
682.876	0.15	1365752	keystroke	g	n/a
682.996	0.12	1365992	keystroke	e	n/a
683.146	0.075	1366292	keystroke	l	n/a
683.686	0.015	1367372	keystroke	s	n/a
684.016	0.09	1368032	keystroke	Key.space	n/a
684.301	0.135	1368602	keystroke	m	n/a
684.437	0.104	1368874	keystroke	a	n/a
684.676	0.105	1369352	keystroke	j	n/a
684.856	0.09	1369712	keystroke	o	n/a
685.036	0.105	1370072	keystroke	r	n/a
685.501	0.09	1371002	keystroke	i	n/a
685.667	0.105	1371334	keystroke	t	n/a
685.817	0.059	1371634	keystroke	y	n/a
685.981	0.106	1371962	keystroke	Key.space	n/a
686.731	0.09	1373462	keystroke	n	n/a
686.881	0.12	1373762	keystroke	a	n/a
687.151	0.045	1374302	keystroke	r	n/a
687.301	0.075	1374602	keystroke	r	n/a
687.736	0.105	1375472	keystroke	o	n/a
687.901	0.075	1375802	keystroke	w	n/a
688.021	0.105	1376042	keystroke	Key.space	n/a
688.531	0.0905	1377062	keystroke	d	n/a
688.7115	0.09	1377423	keystroke	e	n/a
688.9665	0.06	1377933	keystroke	f	n/a
689.372	0.09	1378744	keystroke	a	n/a
689.687	0.075	1379374	keystroke	u	n/a
689.912	0.105	1379824	keystroke	l	n/a
690.212	0.0895	1380424	keystroke	t	n/a
690.5865	0.075	1381173	keystroke	Key.enter	n/a
690.67	7.6885	1381340	prompt	n/a	series spring trans rear\n
691.486	0.1205	1382972	keystroke	s	n/a
691.7415	0.12	1383483	keystroke	e	n/a
691.8615	0.135	1383723	keystroke	r	n/a
692.1615	0.09	1384323	keystroke	i	n/a
692.282	0.105	1384564	keystroke	e	n/a
692.5065	0.09	1385013	keystroke	s	n/a
692.6415	0.12	1385283	keystroke	Key.space	n/a
692.9865	0.12	1385973	keystroke	p	n/a
693.1365	0.12	1386273	keystroke	s	n/a
693.6765	0.045	1387353	keystroke	Key.backspace	n/a
693.7815	0.075	1387563	keystroke	Key.backspace	n/a
693.9765	0.105	1387953	keystroke	s	n/a
694.1715	0.105	1388343	keystroke	p	n/a
694.4565	0.12	1388913	keystroke	r	n/a
694.5765	0.135	1389153	keystroke	i	n/a
694.6965	0.09	1389393	keystroke	n	n/a
694.8465	0.09	1389693	keystroke	g	n/a
694.9515	0.105	1389903	keystroke	Key.space	n/a
695.4165	0.105	1390833	keystroke	t	n/a
695.6565	0.165	1391313	keystroke	r	n/a
695.8665	0.12	1391733	keystroke	a	n/a
696.0765	0.09	1392153	keystroke	n	n/a
696.3465	0.075	1392693	keystroke	s	n/a
696.7065	0.105	1393413	keystroke	Key.space	n/a
697.366	0.12	1394732	keystroke	r	n/a
697.561	0.15	1395122	keystroke	e	n/a
697.786	0.165	1395572	keystroke	a	n/a
697.966	0.105	1395932	keystroke	r	n/a
698.2815	0.075	1396563	keystroke	Key.enter	n/a
698.3645	10.074	1396729	prompt	n/a	onto weighted damaged ventures\n
699.3165	0.075	1398633	keystroke	o	n/a
699.3765	0.12	1398753	keystroke	n	n/a
699.6465	0.135	1399293	keystroke	t	n/a
699.7665	0.12	1399533	keystroke	o	n/a
699.9015	0.134	1399803	keystroke	Key.space	n/a
700.3815	0.18	1400763	keystroke	w	n/a
700.5465	0.105	1401093	keystroke	e	n/a
701.1165	0.075	1402233	keystroke	i	n/a
701.3715	0.15	1402743	keystroke	g	n/a
701.5665	0.0755	1403133	keystroke	h	n/a
701.687	0.075	1403374	keystroke	t	n/a
702.017	0.105	1404034	keystroke	e	n/a
702.2415	0.105	1404483	keystroke	d	n/a
702.4065	0.075	1404813	keystroke	Key.space	n/a
703.261	0.15	1406522	keystroke	d	n/a
703.441	0.135	1406882	keystroke	a	n/a
703.891	0.09	1407782	keystroke	m	n/a
704.086	0.135	1408172	keystroke	a	n/a
704.341	0.09	1408682	keystroke	g	n/a
704.416	0.12	1408832	keystroke	e	n/a
705.796	0.105	1411592	keystroke	d	n/a
705.991	0.105	1411982	keystroke	Key.space	n/a
706.351	0.135	1412702	keystroke	v	n/a
706.456	0.12	1412912	keystroke	e	n/a
706.621	0.105	1413242	keystroke	n	n/a
706.801	0.105	1413602	keystroke	t	n/a
707.176	0.09	1414352	keystroke	u	n/a
707.371	0.151	1414742	keystroke	r	n/a
707.536	0.1355	1415072	keystroke	e	n/a
707.8215	0.105	1415643	keystroke	s	n/a
708.346	0.09	1416692	keystroke	Key.enter	n/a
708.444	8.154	1416888	prompt	n/a	marine inline asbestos techno\n
709.277	0.134	1418554	keystroke	m	n/a
709.426	0.135	1418852	keystroke	a	n/a
709.636	0.1205	1419272	keystroke	r	n/a
709.8015	0.12	1419603	keystroke	i	n/a
709.9365	0.12	1419873	keystroke	n	n/a
710.0865	0.105	1420173	keystroke	e	n/a
710.2065	0.15	1420413	keystroke	Key.space	n/a
710.6115	0.09	1421223	keystroke	i	n/a
710.7615	0.165	1421523	keystroke	n	n/a
710.8965	0.105	1421793	keystroke	l	n/a
710.9865	0.12	1421973	keystroke	i	n/a
711.0765	0.105	1422153	keystroke	n	n/a
711.2265	0.09	1422453	keystroke	e	n/a
711.3915	0.03	1422783	keystroke	Key.space	n/a
711.6765	0.105	1423353	keystroke	a	n/a
712.0515	0.09	1424103	keystroke	s	n/a
712.7415	0.09	1425483	keystroke	b	n/a
713.1015	0.09	1426203	keystroke	e	n/a
713.3115	0.12	1426623	keystroke	s	n/a
713.5215	0.1195	1427043	keystroke	t	n/a
714.331	0.075	1428662	keystroke	o	n/a
714.421	0.105	1428842	keystroke	s	n/a
714.556	0.105	1429112	keystroke	Key.space	n/a
714.976	0.105	1429952	keystroke	t	n/a
715.066	0.105	1430132	keystroke	e	n/a
715.321	0.135	1430642	keystroke	c	n/a
715.771	0.09	1431542	keystroke	h	n/a
716.116	0.1505	1432232	keystroke	n	n/a
716.236	0.1355	1432472	keystroke	o	n/a
716.5065	0.09	1433013	keystroke	Key.enter	n/a
716.602	13.3005	1433204	prompt	n/a	wisconsin education illinois almost\n
717.421	0.1205	1434842	keystroke	w	n/a
717.5715	0.075	1435143	keystroke	i	n/a
717.7215	0.105	1435443	keystroke	s	n/a
718.1115	0.135	1436223	keystroke	c	n/a
718.2615	0.105	1436523	keystroke	o	n/a
718.3365	0.12	1436673	keystroke	n	n/a
718.5615	0.09	1437123	keystroke	s	n/a
718.6965	0.09	1437393	keystroke	i	n/a
718.936	0.105	1437872	keystroke	n	n/a
719.101	0.12	1438202	keystroke	Key.space	n/a
719.416	0.105	1438832	keystroke	e	n/a
719.671	0.105	1439342	keystroke	d	n/a
719.836	0.09	1439672	keystroke	u	n/a
719.956	0.15	1439912	keystroke	c	n/a
720.121	0.075	1440242	keystroke	a	n/a
720.256	0.09	1440512	keystroke	t	n/a
720.331	0.18	1440662	keystroke	i	n/a
720.406	0.12	1440812	keystroke	o	n/a
720.496	0.105	1440992	keystroke	n	n/a
721.2905	0.12	1442581	keystroke	Key.space	n/a
721.4565	0.12	1442913	keystroke	i	n/a
721.7565	0.059	1443513	keystroke	l	n/a
721.9205	0.046	1443841	keystroke	l	n/a
722.731	0.135	1445462	keystroke	n	n/a
724.576	0.09	1449152	keystroke	Key.backspace	n/a
724.921	0.105	1449842	keystroke	i	n/a
725.761	0.18	1451522	keystroke	n	n/a
725.971	0.105	1451942	keystroke	o	n/a
726.526	0.075	1453052	keystroke	i	n/a
726.6755	0.135	1453351	keystroke	s	n/a
727.7115	0.0895	1455423	keystroke	Key.space	n/a
728.1765	0.12	1456353	keystroke	a	n/a
729.031	0.165	1458062	keystroke	l	n/a
729.181	0.195	1458362	keystroke	m	n/a
729.361	0.09	1458722	keystroke	o	n/a
729.481	0.1505	1458962	keystroke	s	n/a
729.6615	0.12	1459323	keystroke	t	n/a
729.8115	0.09	1459623	keystroke	Key.enter	n/a
729.908	9.295	1459816	prompt	n/a	chicks mumbai oaks edgar\n
730.801	0.18	1461602	keystroke	c	n/a
731.341	0.135	1462682	keystroke	h	n/a
731.461	0.105	1462922	keystroke	i	n/a
731.626	0.15	1463252	keystroke	c	n/a
731.761	0.09	1463522	keystroke	k	n/a
732.196	0.09	1464392	keystroke	s	n/a
732.361	0.12	1464722	keystroke	Key.space	n/a
732.751	0.12	1465502	keystroke	n	n/a
733.336	0.075	1466672	keystroke	Key.backspace	n/a
733.576	0.075	1467152	keystroke	m	n/a
733.786	0.06	1467572	keystroke	u	n/a
734.326	0.075	1468652	keystroke	m	n/a
734.791	0.045	1469582	keystroke	b	n/a
735.181	0.03	1470362	keystroke	a	n/a
735.256	0.075	1470512	keystroke	i	n/a
735.421	0.105	1470842	keystroke	Key.space	n/a
736.021	0.12	1472042	keystroke	o	n/a
736.231	0.09	1472462	keystroke	a	n/a
736.351	0.09	1472702	keystroke	k	n/a
736.6355	0.09	1473271	keystroke	s	n/a
736.8605	0.105	1473721	keystroke	Key.space	n/a
737.4005	0.09	1474801	keystroke	e	n/a
737.791	0.09	1475582	keystroke	d	n/a
738.451	0.1345	1476902	keystroke	g	n/a
738.6305	0.135	1477261	keystroke	a	n/a
738.8705	0.121	1477741	keystroke	r	n/a
739.1115	0.089	1478223	keystroke	Key.enter	n/a
739.2085	8.9645	1478417	prompt	n/a	strong backed diagnostic take\n
740.1315	0.135	1480263	keystroke	s	n/a
740.3265	0.075	1480653	keystroke	t	n/a
740.5215	0.15	1481043	keystroke	r	n/a
740.6865	0.044	1481373	keystroke	o	n/a
740.7015	0.119	1481403	keystroke	n	n/a
740.9115	0.09	1481823	keystroke	g	n/a
742.2915	0.105	1484583	keystroke	Key.space	n/a
742.9815	0.135	1485963	keystroke	b	n/a
743.1015	0.135	1486203	keystroke	a	n/a
743.2965	0.135	1486593	keystroke	c	n/a
743.4455	0.091	1486891	keystroke	k	n/a
743.6115	0.0895	1487223	keystroke	e	n/a
743.821	0.105	1487642	keystroke	d	n/a
743.941	0.105	1487882	keystroke	Key.space	n/a
744.481	0.105	1488962	keystroke	d	n/a
744.616	0.075	1489232	keystroke	i	n/a
744.736	0.105	1489472	keystroke	a	n/a
745.066	0.075	1490132	keystroke	g	n/a
745.621	0.105	1491242	keystroke	n	n/a
745.801	0.105	1491602	keystroke	o	n/a
746.041	0.12	1492082	keystroke	s	n/a
746.311	0.09	1492622	keystroke	t	n/a
746.416	0.075	1492832	keystroke	i	n/a
746.626	0.12	1493252	keystroke	c	n/a
746.911	0.09	1493822	keystroke	Key.space	n/a
747.4655	0.135	1494931	keystroke	t	n/a
747.6155	0.135	1495231	keystroke	a	n/a
747.7805	0.105	1495561	keystroke	k	n/a
747.9005	0.105	1495801	keystroke	e	n/a
748.0955	0.075	1496191	keystroke	Key.enter	n/a
748.178	10.45	1496356	prompt	n/a	networks angeles distances radiation\n
748.9815	0.105	1497963	keystroke	n	n/a
749.1015	0.12	1498203	keystroke	e	n/a
749.2665	0.18	1498533	keystroke	t	n/a
749.4015	0.15	1498803	keystroke	w	n/a
749.5815	0.075	1499163	keystroke	o	n/a
749.6865	0.105	1499373	keystroke	r	n/a
749.8065	0.09	1499613	keystroke	k	n/a
750.3615	0.104	1500723	keystroke	s	n/a
750.5255	0.135	1501051	keystroke	Key.space	n/a
750.9455	0.12	1501891	keystroke	a	n/a
751.0805	0.105	1502161	keystroke	n	n/a
751.2465	0.179	1502493	keystroke	g	n/a
751.4105	0.15	1502821	keystroke	e	n/a
752.011	0.09	1504022	keystroke	l	n/a
752.416	0.105	1504832	keystroke	e	n/a
752.641	0.1055	1505282	keystroke	s	n/a
752.8515	0.105	1505703	keystroke	Key.space	n/a
753.1665	0.12	1506333	keystroke	d	n/a
753.3315	0.06	1506663	keystroke	i	n/a
753.5115	0.09	1507023	keystroke	s	n/a
754.126	0.075	1508252	keystroke	t	n/a
754.396	0.12	1508792	keystroke	a	n/a
754.546	0.0905	1509092	keystroke	n	n/a
754.7105	0.106	1509421	keystroke	c	n/a
754.9355	0.091	1509871	keystroke	e	n/a
755.1605	0.075	1510321	keystroke	s	n/a
755.2955	0.12	1510591	keystroke	Key.space	n/a
755.6555	0.15	1511311	keystroke	r	n/a
755.7905	0.135	1511581	keystroke	a	n/a
755.9705	0.105	1511941	keystroke	d	n/a
757.0065	0.075	1514013	keystroke	i	n/a
757.1265	0.12	1514253	keystroke	a	n/a
757.3215	0.105	1514643	keystroke	t	n/a
757.3965	0.225	1514793	keystroke	i	n/a
757.5015	0.135	1515003	keystroke	o	n/a
757.5915	0.12	1515183	keystroke	n	n/a
757.7715	0.075	1515543	keystroke	s	n/a
758.3255	0.075	1516651	keystroke	Key.backspace	n/a
758.5655	0.06	1517131	keystroke	Key.enter	n/a
758.6355	15.2625	1517271	prompt	n/a	greensboro slots parks pregnant\n
759.5405	0.1515	1519081	keystroke	g	n/a
759.676	0.105	1519352	keystroke	e	n/a
760.021	0.09	1520042	keystroke	r	n/a
760.531	0.045	1521062	keystroke	Key.backspace	n/a
760.636	0.06	1521272	keystroke	Key.backspace	n/a
761.071	0.09	1522142	keystroke	r	n/a
761.341	0.06	1522682	keystroke	e	n/a
761.506	0.075	1523012	keystroke	e	n/a
761.671	0.075	1523342	keystroke	n	n/a
761.881	0.075	1523762	keystroke	Key.space	n/a
762.466	0.075	1524932	keystroke	Key.backspace	n/a
763.111	0.09	1526222	keystroke	s	n/a
763.351	0.105	1526702	keystroke	b	n/a
764.071	0.075	1528142	keystroke	o	n/a
764.161	0.06	1528322	keystroke	r	n/a
764.251	0.075	1528502	keystroke	o	n/a
764.506	0.075	1529012	keystroke	Key.space	n/a
765.196	0.105	1530392	keystroke	s	n/a
765.346	0.06	1530692	keystroke	o	n/a
765.826	0.06	1531652	keystroke	Key.backspace	n/a
766.081	0.03	1532162	keystroke	l	n/a
766.231	0.03	1532462	keystroke	o	n/a
766.366	0.0755	1532732	keystroke	t	n/a
767.2665	0.1195	1534533	keystroke	Key.space	n/a
768.556	0.075	1537112	keystroke	Key.backspace	n/a
769.006	0.045	1538012	keystroke	s	n/a
769.201	0.135	1538402	keystroke	Key.space	n/a
769.576	0.105	1539152	keystroke	p	n/a
769.726	0.09	1539452	keystroke	a	n/a
769.906	0.12	1539812	keystroke	r	n/a
770.356	0.105	1540712	keystroke	k	n/a
770.566	0.09	1541132	keystroke	s	n/a
770.821	0.105	1541642	keystroke	Key.space	n/a
771.346	0.075	1542692	keystroke	p	n/a
771.496	0.15	1542992	keystroke	r	n/a
