onset	duration	sample	value	key	prompt_text
3.0605	9.198	6121	prompt	n/a	the quick brown fox jumps over a lazy dog\n
5.06	0.041	10120	keystroke_t	t	n/a
5.131	0.105	10262	keystroke_h	h	n/a
5.251	0.105	10502	keystroke_e	e	n/a
5.341	0.135	10682	keystroke_Key.space	Key.space	n/a
5.462	0.104	10924	keystroke_q	q	n/a
5.657	0.119	11314	keystroke_u	u	n/a
5.717	0.134	11434	keystroke_i	i	n/a
5.866	0.09	11732	keystroke_c	c	n/a
5.986	0.18	11972	keystroke_k	k	n/a
6.106	0.12	12212	keystroke_Key.space	Key.space	n/a
6.631	0.09	13262	keystroke_b	b	n/a
6.871	0.09	13742	keystroke_r	r	n/a
7.021	0.105	14042	keystroke_o	o	n/a
7.141	0.075	14282	keystroke_w	w	n/a
7.276	0.135	14552	keystroke_n	n	n/a
7.367	0.119	14734	keystroke_Key.space	Key.space	n/a
7.606	0.09	15212	keystroke_f	f	n/a
7.711	0.09	15422	keystroke_o	o	n/a
7.861	0.135	15722	keystroke_x	x	n/a
8.011	0.105	16022	keystroke_Key.space	Key.space	n/a
8.131	0.09	16262	keystroke_j	j	n/a
8.311	0.06	16622	keystroke_u	u	n/a
8.521	0.105	17042	keystroke_m	m	n/a
8.581	0.135	17162	keystroke_p	p	n/a
8.701	0.135	17402	keystroke_s	s	n/a
8.896	0.105	17792	keystroke_Key.space	Key.space	n/a
9.272	0.089	18544	keystroke_o	o	n/a
9.346	0.105	18692	keystroke_v	v	n/a
9.436	0.18	18872	keystroke_e	e	n/a
9.601	0.105	19202	keystroke_r	r	n/a
9.766	0.1355	19532	keystroke_Key.space	Key.space	n/a
9.9915	0.12	19983	keystroke_a	a	n/a
10.1865	0.105	20373	keystroke_Key.space	Key.space	n/a
10.6365	0.135	21273	keystroke_l	l	n/a
10.8165	0.09	21633	keystroke_a	a	n/a
11.0565	0.12	22113	keystroke_z	z	n/a
11.1915	0.135	22383	keystroke_y	y	n/a
11.3115	0.105	22623	keystroke_Key.space	Key.space	n/a
11.7015	0.1045	23403	keystroke_d	d	n/a
11.836	0.105	23672	keystroke_o	o	n/a
11.986	0.09	23972	keystroke_g	g	n/a
12.181	0.075	24362	keystroke_Key.enter	Key.enter	n/a
12.264	8.1545	24528	prompt	n/a	containing applied powerful total\n
13.0365	0.105	26073	keystroke_c	c	n/a
13.1265	0.1355	26253	keystroke_o	o	n/a
13.1865	0.1505	26373	keystroke_n	n	n/a
13.442	0.105	26884	keystroke_t	t	n/a
13.562	0.18	27124	keystroke_i	i	n/a
13.757	0.149	27514	keystroke_a	a	n/a
14.296	0.075	28592	keystroke_Key.backspace	Key.backspace	n/a
14.4615	0.09	28923	keystroke_Key.backspace	Key.backspace	n/a
14.6115	0.15	29223	keystroke_a	a	n/a
14.8215	0.135	29643	keystroke_i	i	n/a
14.9115	0.135	29823	keystroke_n	n	n/a
15.0765	0.165	30153	keystroke_i	i	n/a
15.1815	0.135	30363	keystroke_n	n	n/a
15.3615	0.105	30723	keystroke_g	g	n/a
15.571	0.12	31142	keystroke_Key.space	Key.space	n/a
16.0065	0.12	32013	keystroke_a	a	n/a
16.1275	0.074	32255	keystroke_p	p	n/a
16.2615	0.09	32523	keystroke_p	p	n/a
16.4715	0.15	32943	keystroke_l	l	n/a
16.5615	0.12	33123	keystroke_i	i	n/a
16.6665	0.075	33333	keystroke_e	e	n/a
16.8915	0.09	33783	keystroke_d	d	n/a
17.0265	0.09	34053	keystroke_Key.space	Key.space	n/a
17.5815	0.09	35163	keystroke_p	p	n/a
17.8965	0.135	35793	keystroke_o	o	n/a
18.1065	0.18	36213	keystroke_w	w	n/a
18.481	0.136	36962	keystroke_e	e	n/a
18.601	0.1055	37202	keystroke_r	r	n/a
18.8865	0.135	37773	keystroke_f	f	n/a
19.0065	0.105	38013	keystroke_u	u	n/a
19.0815	0.18	38163	keystroke_l	l	n/a
19.1865	0.135	38373	keystroke_Key.space	Key.space	n/a
19.4865	0.09	38973	keystroke_t	t	n/a
19.5765	0.09	39153	keystroke_o	o	n/a
19.7565	0.0745	39513	keystroke_t	t	n/a
19.9515	0.15	39903	keystroke_a	a	n/a
20.0865	0.105	40173	keystroke_l	l	n/a
20.3415	0.075	40683	keystroke_Key.enter	Key.enter	n/a
20.4305	12.663	40861	prompt	n/a	migration montreal hate thumbzilla\n
21.107	0.15	42214	keystroke_m	m	n/a
21.227	0.12	42454	keystroke_i	i	n/a
21.557	0.06	43114	keystroke_g	g	n/a
21.737	0.1195	43474	keystroke_r	r	n/a
21.8415	0.12	43683	keystroke_a	a	n/a
22.0965	0.09	44193	keystroke_t	t	n/a
22.2015	0.09	44403	keystroke_i	i	n/a
22.2765	0.2105	44553	keystroke_o	o	n/a
22.352	0.164	44704	keystroke_n	n	n/a
22.456	0.15	44912	keystroke_Key.space	Key.space	n/a
23.191	0.105	46382	keystroke_m	m	n/a
23.297	0.134	46594	keystroke_o	o	n/a
23.401	0.091	46802	keystroke_n	n	n/a
23.551	0.0905	47102	keystroke_t	t	n/a
23.7765	0.1055	47553	keystroke_r	r	n/a
23.852	0.15	47704	keystroke_e	e	n/a
23.972	0.15	47944	keystroke_a	a	n/a
24.152	0.15	48304	keystroke_l	l	n/a
24.241	0.106	48482	keystroke_Key.space	Key.space	n/a
24.662	0.075	49324	keystroke_h	h	n/a
24.752	0.105	49504	keystroke_a	a	n/a
24.947	0.105	49894	keystroke_t	t	n/a
25.247	0.12	50494	keystroke_e	e	n/a
25.637	0.105	51274	keystroke_Key.space	Key.space	n/a
26.372	0.075	52744	keystroke_t	t	n/a
26.432	0.09	52864	keystroke_h	h	n/a
26.837	0.06	53674	keystroke_u	u	n/a
27.032	0.09	54064	keystroke_m	m	n/a
27.4965	0.09	54993	keystroke_b	b	n/a
28.622	0.15	57244	keystroke_x	x	n/a
28.847	0.135	57694	keystroke_i	i	n/a
29.5215	0.06	59043	keystroke_Key.backspace	Key.backspace	n/a
29.6715	0.06	59343	keystroke_Key.backspace	Key.backspace	n/a
29.7165	0.12	59433	keystroke_z	z	n/a
29.8815	0.105	59763	keystroke_i	i	n/a
30.3615	0.09	60723	keystroke_a	a	n/a
30.4365	0.09	60873	keystroke_l	l	n/a
30.7515	0.06	61503	keystroke_Key.backspace	Key.backspace	n/a
30.8865	0.06	61773	keystroke_Key.backspace	Key.backspace	n/a
31.1115	0.09	62223	keystroke_l	l	n/a
31.2765	0.105	62553	keystroke_l	l	n/a
31.3965	0.15	62793	keystroke_a	a	n/a
32.987	0.105	65974	keystroke_Key.enter	Key.enter	n/a
33.0995	8.0655	66199	prompt	n/a	apartment limits workstation pizza\n
33.752	0.12	67504	keystroke_a	a	n/a
33.857	0.09	67714	keystroke_p	p	n/a
34.067	0.12	68134	keystroke_a	a	n/a
34.172	0.075	68344	keystroke_r	r	n/a
34.337	0.09	68674	keystroke_t	t	n/a
34.502	0.12	69004	keystroke_m	m	n/a
34.562	0.164	69124	keystroke_e	e	n/a
34.802	0.105	69604	keystroke_n	n	n/a
34.937	0.09	69874	keystroke_t	t	n/a
35.057	0.089	70114	keystroke_Key.space	Key.space	n/a
35.192	0.135	70384	keystroke_l	l	n/a
35.282	0.135	70564	keystroke_i	i	n/a
35.402	0.165	70804	keystroke_m	m	n/a
35.522	0.135	71044	keystroke_i	i	n/a
35.642	0.09	71284	keystroke_t	t	n/a
35.807	0.09	71614	keystroke_e	e	n/a
36.271	0.06	72542	keystroke_Key.backspace	Key.backspace	n/a
36.362	0.104	72724	keystroke_s	s	n/a
36.511	0.136	73022	keystroke_Key.space	Key.space	n/a
36.931	0.106	73862	keystroke_w	w	n/a
37.021	0.091	74042	keystroke_o	o	n/a
37.127	0.09	74254	keystroke_r	r	n/a
37.232	0.1345	74464	keystroke_k	k	n/a
37.5465	0.12	75093	keystroke_s	s	n/a
38.087	0.09	76174	keystroke_t	t	n/a
38.207	0.12	76414	keystroke_a	a	n/a
38.312	0.09	76624	keystroke_t	t	n/a
38.477	0.06	76954	keystroke_i	i	n/a
38.522	0.165	77044	keystroke_o	o	n/a
38.597	0.15	77194	keystroke_n	n	n/a
38.702	0.12	77404	keystroke_Key.space	Key.space	n/a
39.242	0.15	78484	keystroke_p	p	n/a
39.362	0.12	78724	keystroke_i	i	n/a
39.647	0.09	79294	keystroke_z	z	n/a
39.827	0.104	79654	keystroke_z	z	n/a
40.126	0.045	80252	keystroke_e	e	n/a
40.351	0.0905	80702	keystroke_a	a	n/a
40.6065	0.015	81213	keystroke_Key.backspace	Key.backspace	n/a
40.7115	0.105	81423	keystroke_Key.backspace	Key.backspace	n/a
40.8765	0.15	81753	keystroke_a	a	n/a
41.0415	0.12	82083	keystroke_Key.enter	Key.enter	n/a
41.17	11.1535	82340	prompt	n/a	decision suddenly mountain freebsd\n
41.8065	0.075	83613	keystroke_d	d	n/a
41.957	0.075	83914	keystroke_e	e	n/a
42.227	0.0895	84454	keystroke_c	c	n/a
42.302	0.0745	84604	keystroke_i	i	n/a
42.437	0.119	84874	keystroke_s	s	n/a
42.497	0.15	84994	keystroke_i	i	n/a
42.617	0.15	85234	keystroke_o	o	n/a
42.676	0.166	85352	keystroke_n	n	n/a
42.782	0.149	85564	keystroke_Key.space	Key.space	n/a
43.051	0.121	86102	keystroke_s	s	n/a
43.142	0.09	86284	keystroke_u	u	n/a
43.367	0.075	86734	keystroke_d	d	n/a
43.547	0.09	87094	keystroke_d	d	n/a
44.2815	0.105	88563	keystroke_n	n	n/a
44.4015	0.105	88803	keystroke_e	e	n/a
44.7165	0.06	89433	keystroke_Key.backspace	Key.backspace	n/a
44.8515	0.105	89703	keystroke_Key.backspace	Key.backspace	n/a
44.9715	0.09	89943	keystroke_e	e	n/a
45.0765	0.105	90153	keystroke_n	n	n/a
45.1665	0.21	90333	keystroke_l	l	n/a
45.3315	0.105	90663	keystroke_y	y	n/a
45.4065	0.075	90813	keystroke_Key.space	Key.space	n/a
45.6765	0.12	91353	keystroke_m	m	n/a
45.7665	0.1655	91533	keystroke_o	o	n/a
45.947	0.09	91894	keystroke_u	u	n/a
46.292	0.045	92584	keystroke_Key.backspace	Key.backspace	n/a
46.442	0.06	92884	keystroke_Key.backspace	Key.backspace	n/a
46.787	0.135	93574	keystroke_o	o	n/a
46.892	0.09	93784	keystroke_u	u	n/a
47.132	0.105	94264	keystroke_n	n	n/a
47.3865	0.135	94773	keystroke_t	t	n/a
47.4915	0.15	94983	keystroke_a	a	n/a
47.6115	0.15	95223	keystroke_i	i	n/a
47.6715	0.195	95343	keystroke_n	n	n/a
47.8365	0.135	95673	keystroke_Key.space	Key.space	n/a
48.482	0.105	96964	keystroke_f	f	n/a
48.572	0.105	97144	keystroke_e	e	n/a
48.827	0.09	97654	keystroke_r	r	n/a
49.172	0.06	98344	keystroke_Key.backspace	Key.backspace	n/a
49.292	0.105	98584	keystroke_Key.backspace	Key.backspace	n/a
49.382	0.105	98764	keystroke_r	r	n/a
49.487	0.105	98974	keystroke_e	e	n/a
49.607	0.12	99214	keystroke_e	e	n/a
51.0775	0.0895	102155	keystroke_b	b	n/a
51.3925	0.105	102785	keystroke_s	s	n/a
51.632	0.105	103264	keystroke_d	d	n/a
52.2015	0.12	104403	keystroke_Key.enter	Key.enter	n/a
52.3295	7.585	104659	prompt	n/a	democratic storage workshops vienna\n
52.8925	0.12	105785	keystroke_d	d	n/a
53.1175	0.09	106235	keystroke_e	e	n/a
53.2375	0.15	106475	keystroke_m	m	n/a
53.3575	0.119	106715	keystroke_o	o	n/a
53.6725	0.0895	107345	keystroke_c	c	n/a
53.8975	0.119	107795	keystroke_r	r	n/a
53.9865	0.135	107973	keystroke_a	a	n/a
54.1965	0.09	108393	keystroke_t	t	n/a
54.3465	0.12	108693	keystroke_i	i	n/a
54.5115	0.12	109023	keystroke_c	c	n/a
54.7515	0.105	109503	keystroke_Key.space	Key.space	n/a
55.0665	0.12	110133	keystroke_s	s	n/a
55.2165	0.09	110433	keystroke_t	t	n/a
55.4265	0.09	110853	keystroke_o	o	n/a
55.7415	0.135	111483	keystroke_r	r	n/a
55.8615	0.15	111723	keystroke_a	a	n/a
56.0565	0.135	112113	keystroke_g	g	n/a
56.1765	0.09	112353	keystroke_e	e	n/a
56.3565	0.09	112713	keystroke_Key.space	Key.space	n/a
56.5665	0.09	113133	keystroke_w	w	n/a
56.6715	0.09	113343	keystroke_o	o	n/a
56.7465	0.09	113493	keystroke_r	r	n/a
56.8815	0.12	113763	keystroke_k	k	n/a
57.0165	0.12	114033	keystroke_s	s	n/a
57.1665	0.165	114333	keystroke_h	h	n/a
57.3165	0.15	114633	keystroke_o	o	n/a
57.5875	0.105	115175	keystroke_p	p	n/a
57.7065	0.12	115413	keystroke_s	s	n/a
57.9315	0.1055	115863	keystroke_Key.space	Key.space	n/a
58.352	0.135	116704	keystroke_v	v	n/a
58.502	0.075	117004	keystroke_i	i	n/a
58.622	0.105	117244	keystroke_e	e	n/a
58.862	0.075	117724	keystroke_m	m	n/a
59.192	0.075	118384	keystroke_Key.backspace	Key.backspace	n/a
59.387	0.075	118774	keystroke_n	n	n/a
59.537	0.09	119074	keystroke_n	n	n/a
59.687	0.135	119374	keystroke_a	a	n/a
59.837	0.075	119674	keystroke_Key.enter	Key.enter	n/a
59.9205	7.3275	119841	prompt	n/a	settled birds buy treasures\n
60.722	0.09	121444	keystroke_s	s	n/a
60.917	0.09	121834	keystroke_e	e	n/a
61.187	0.075	122374	keystroke_t	t	n/a
61.3675	0.0745	122735	keystroke_t	t	n/a
61.517	0.135	123034	keystroke_l	l	n/a
61.772	0.09	123544	keystroke_e	e	n/a
62.012	0.1045	124024	keystroke_d	d	n/a
62.1615	0.105	124323	keystroke_Key.space	Key.space	n/a
62.417	0.075	124834	keystroke_b	b	n/a
62.552	0.105	125104	keystroke_i	i	n/a
62.672	0.075	125344	keystroke_r	r	n/a
62.942	0.09	125884	keystroke_d	d	n/a
63.227	0.12	126454	keystroke_s	s	n/a
63.512	0.075	127024	keystroke_Key.space	Key.space	n/a
63.857	0.09	127714	keystroke_b	b	n/a
63.962	0.0745	127924	keystroke_u	u	n/a
64.0965	0.105	128193	keystroke_s	s	n/a
64.4715	0.075	128943	keystroke_Key.backspace	Key.backspace	n/a
64.7265	0.105	129453	keystroke_y	y	n/a
64.7715	0.15	129543	keystroke_Key.space	Key.space	n/a
65.2215	0.075	130443	keystroke_t	t	n/a
65.4165	0.105	130833	keystroke_r	r	n/a
65.4765	0.105	130953	keystroke_e	e	n/a
65.5515	0.135	131103	keystroke_a	a	n/a
65.8815	0.105	131763	keystroke_s	s	n/a
66.0175	0.089	132035	keystroke_u	u	n/a
66.1225	0.104	132245	keystroke_r	r	n/a
66.1965	0.15	132393	keystroke_e	e	n/a
66.3765	0.121	132753	keystroke_s	s	n/a
67.156	0.09	134312	keystroke_Key.enter	Key.enter	n/a
67.2555	9.4285	134511	prompt	n/a	circuits retirement alan highly\n
67.952	0.105	135904	keystroke_c	c	n/a
68.297	0.105	136594	keystroke_i	i	n/a
68.492	0.09	136984	keystroke_r	r	n/a
68.822	0.12	137644	keystroke_c	c	n/a
69.002	0.09	138004	keystroke_u	u	n/a
69.287	0.105	138574	keystroke_i	i	n/a
69.512	0.075	139024	keystroke_t	t	n/a
69.722	0.12	139444	keystroke_s	s	n/a
70.006	0.1065	140012	keystroke_Key.space	Key.space	n/a
70.3665	0.105	140733	keystroke_r	r	n/a
70.4265	0.135	140853	keystroke_e	e	n/a
70.6515	0.09	141303	keystroke_t	t	n/a
70.8765	0.09	141753	keystroke_i	i	n/a
70.9215	0.135	141843	keystroke_r	r	n/a
71.8815	0.135	143763	keystroke_m	m	n/a
72.272	0.0595	144544	keystroke_Key.backspace	Key.backspace	n/a
72.408	0.1035	144816	keystroke_Key.backspace	Key.backspace	n/a
72.5865	0.06	145173	keystroke_Key.backspace	Key.backspace	n/a
73.1875	0.089	146375	keystroke_i	i	n/a
73.3375	0.119	146675	keystroke_r	r	n/a
73.7715	0.12	147543	keystroke_e	e	n/a
74.0265	0.105	148053	keystroke_m	m	n/a
74.1165	0.105	148233	keystroke_e	e	n/a
74.2815	0.12	148563	keystroke_n	n	n/a
74.3715	0.0905	148743	keystroke_t	t	n/a
74.507	0.12	149014	keystroke_Key.space	Key.space	n/a
74.747	0.12	149494	keystroke_a	a	n/a
74.882	0.09	149764	keystroke_l	l	n/a
75.017	0.09	150034	keystroke_a	a	n/a
75.167	0.15	150334	keystroke_n	n	n/a
75.302	0.09	150604	keystroke_Key.space	Key.space	n/a
75.497	0.135	150994	keystroke_h	h	n/a
75.572	0.12	151144	keystroke_i	i	n/a
75.677	0.09	151354	keystroke_g	g	n/a
75.812	0.105	151624	keystroke_h	h	n/a
75.977	0.21	151954	keystroke_l	l	n/a
76.127	0.12	152254	keystroke_y	y	n/a
76.5765	0.105	153153	keystroke_Key.enter	Key.enter	n/a
76.6915	13.432	153383	prompt	n/a	that rehabilitation certain vienna\n
77.3865	0.09	154773	keystroke_t	t	n/a
77.4615	0.09	154923	keystroke_h	h	n/a
77.6265	0.105	155253	keystroke_a	a	n/a
77.6865	0.105	155373	keystroke_t	t	n/a
77.8065	0.12	155613	keystroke_Key.space	Key.space	n/a
78.0165	0.09	156033	keystroke_r	r	n/a
78.0765	0.12	156153	keystroke_e	e	n/a
78.2565	0.12	156513	keystroke_h	h	n/a
78.3915	0.1055	156783	keystroke_a	a	n/a
78.677	0.12	157354	keystroke_b	b	n/a
78.812	0.09	157624	keystroke_i	i	n/a
79.217	0.165	158434	keystroke_l	l	n/a
79.367	0.12	158734	keystroke_i	i	n/a
79.547	0.21	159094	keystroke_t	t	n/a
80.117	0.075	160234	keystroke_Key.backspace	Key.backspace	n/a
80.267	0.105	160534	keystroke_Key.backspace	Key.backspace	n/a
83.285	0.147	166570	keystroke_l	l	n/a
83.642	0.075	167284	keystroke_Key.backspace	Key.backspace	n/a
83.852	0.105	167704	keystroke_i	i	n/a
84.6015	0.135	169203	keystroke_t	t	n/a
84.7215	0.105	169443	keystroke_a	a	n/a
84.8415	0.09	169683	keystroke_t	t	n/a
84.9915	0.195	169983	keystroke_o	o	n/a
85.1115	0.15	170223	keystroke_n	n	n/a
85.2015	0.135	170403	keystroke_Key.space	Key.space	n/a
85.5315	0.105	171063	keystroke_c	c	n/a
85.7725	0.149	171545	keystroke_e	e	n/a
86.327	0.06	172654	keystroke_Key.backspace	Key.backspace	n/a
86.492	0.06	172984	keystroke_Key.backspace	Key.backspace	n/a
86.657	0.06	173314	keystroke_Key.backspace	Key.backspace	n/a
86.822	0.045	173644	keystroke_Key.backspace	Key.backspace	n/a
86.957	0.09	173914	keystroke_Key.backspace	Key.backspace	n/a
87.3625	0.089	174725	keystroke_i	i	n/a
87.4525	0.164	174905	keystroke_o	o	n/a
87.5575	0.135	175115	keystroke_n	n	n/a
87.6465	0.166	175293	keystroke_Key.space	Key.space	n/a
87.8875	0.105	175775	keystroke_c	c	n/a
88.127	0.105	176254	keystroke_e	e	n/a
88.217	0.09	176434	keystroke_r	r	n/a
88.442	0.135	176884	keystroke_t	t	n/a
88.562	0.15	177124	keystroke_a	a	n/a
88.682	0.165	177364	keystroke_i	i	n/a
88.757	0.12	177514	keystroke_n	n	n/a
88.848	0.119	177696	keystroke_Key.space	Key.space	n/a
89.117	0.09	178234	keystroke_v	v	n/a
89.222	0.105	178444	keystroke_i	i	n/a
89.342	0.09	178684	keystroke_e	e	n/a
89.552	0.09	179104	keystroke_n	n	n/a
89.717	0.105	179434	keystroke_n	n	n/a
89.867	0.15	179734	keystroke_a	a	n/a
90.032	0.09	180064	keystroke_Key.enter	Key.enter	n/a
90.1285	10.72	180257	prompt	n/a	england highlights chronicle therapeutic\n
90.797	0.09	181594	keystroke_e	e	n/a
90.872	0.12	181744	keystroke_n	n	n/a
91.067	0.105	182134	keystroke_g	g	n/a
91.247	0.15	182494	keystroke_l	l	n/a
91.952	0.135	183904	keystroke_a	a	n/a
92.102	0.12	184204	keystroke_h	h	n/a
92.237	0.15	184474	keystroke_d	d	n/a
92.567	0.06	185134	keystroke_Key.backspace	Key.backspace	n/a
92.687	0.09	185374	keystroke_Key.backspace	Key.backspace	n/a
92.897	0.075	185794	keystroke_n	n	n/a
93.017	0.12	186034	keystroke_d	d	n/a
93.152	0.12	186304	keystroke_Key.space	Key.space	n/a
93.422	0.15	186844	keystroke_h	h	n/a
93.527	0.135	187054	keystroke_i	i	n/a
93.677	0.12	187354	keystroke_g	g	n/a
93.782	0.09	187564	keystroke_h	h	n/a
94.172	0.09	188344	keystroke_t	t	n/a
94.652	0.06	189304	keystroke_Key.backspace	Key.backspace	n/a
94.892	0.105	189784	keystroke_l	l	n/a
94.937	0.135	189874	keystroke_i	i	n/a
95.027	0.09	190054	keystroke_g	g	n/a
95.192	0.105	190384	keystroke_h	h	n/a
95.342	0.09	190684	keystroke_t	t	n/a
95.507	0.195	191014	keystroke_s	s	n/a
95.747	0.12	191494	keystroke_Key.space	Key.space	n/a
96.2425	0.12	192485	keystroke_c	c	n/a
96.3325	0.135	192665	keystroke_h	h	n/a
96.5275	0.09	193055	keystroke_r	r	n/a
97.1275	0.09	194255	keystroke_o	o	n/a
97.337	0.165	194674	keystroke_n	n	n/a
97.487	0.105	194974	keystroke_i	i	n/a
97.622	0.15	195244	keystroke_c	c	n/a
98.027	0.135	196054	keystroke_l	l	n/a
98.2075	0.09	196415	keystroke_e	e	n/a
98.3415	0.135	196683	keystroke_Key.space	Key.space	n/a
98.5975	0.105	197195	keystroke_t	t	n/a
98.7025	0.105	197405	keystroke_h	h	n/a
98.8225	0.105	197645	keystroke_e	e	n/a
99.0775	0.09	198155	keystroke_r	r	n/a
99.257	0.105	198514	keystroke_a	a	n/a
99.407	0.135	198814	keystroke_p	p	n/a
99.737	0.1055	199474	keystroke_e	e	n/a
99.857	0.105	199714	keystroke_u	u	n/a
100.2165	0.075	200433	keystroke_t	t	n/a
100.3515	0.1205	200703	keystroke_i	i	n/a
100.577	0.12	201154	keystroke_c	c	n/a
100.742	0.105	201484	keystroke_Key.enter	Key.enter	n/a
100.8535	7.69	201707	prompt	n/a	organizations newspaper surge halloween\n
101.537	0.12	203074	keystroke_o	o	n/a
101.672	0.075	203344	keystroke_r	r	n/a
101.927	0.12	203854	keystroke_g	g	n/a
102.017	0.105	204034	keystroke_a	a	n/a
102.137	0.1195	204274	keystroke_n	n	n/a
102.2115	0.1505	204423	keystroke_i	i	n/a
102.377	0.135	204754	keystroke_z	z	n/a
102.737	0.09	205474	keystroke_a	a	n/a
102.887	0.09	205774	keystroke_t	t	n/a
103.037	0.075	206074	keystroke_i	i	n/a
103.097	0.18	206194	keystroke_o	o	n/a
103.202	0.135	206404	keystroke_n	n	n/a
103.292	0.135	206584	keystroke_s	s	n/a
103.472	0.12	206944	keystroke_Key.space	Key.space	n/a
103.907	0.105	207814	keystroke_n	n	n/a
104.162	0.1345	208324	keystroke_e	e	n/a
104.2515	0.136	208503	keystroke_w	w	n/a
104.5365	0.105	209073	keystroke_s	s	n/a
104.6865	0.106	209373	keystroke_p	p	n/a
105.0175	0.135	210035	keystroke_a	a	n/a
105.1975	0.105	210395	keystroke_p	p	n/a
105.3325	0.12	210665	keystroke_e	e	n/a
105.4075	0.135	210815	keystroke_r	r	n/a
105.6475	0.105	211295	keystroke_Key.space	Key.space	n/a
105.9025	0.12	211805	keystroke_s	s	n/a
106.0075	0.09	212015	keystroke_u	u	n/a
106.1125	0.09	212225	keystroke_r	r	n/a
106.3365	0.09	212673	keystroke_g	g	n/a
106.3965	0.135	212793	keystroke_e	e	n/a
106.5465	0.135	213093	keystroke_Key.space	Key.space	n/a
106.8765	0.09	213753	keystroke_h	h	n/a
106.9825	0.149	213965	keystroke_a	a	n/a
107.1615	0.09	214323	keystroke_l	l	n/a
107.327	0.09	214654	keystroke_l	l	n/a
107.522	0.09	215044	keystroke_o	o	n/a
107.627	0.12	215254	keystroke_w	w	n/a
107.822	0.135	215644	keystroke_e	e	n/a
108.062	0.105	216124	keystroke_e	e	n/a
108.212	0.1355	216424	keystroke_n	n	n/a
108.4075	0.134	216815	keystroke_Key.enter	Key.enter	n/a
108.5515	8.332	217103	prompt	n/a	novel appointment mauritius wearing\n
109.1565	0.135	218313	keystroke_n	n	n/a
109.2465	0.15	218493	keystroke_o	o	n/a
109.4575	0.134	218915	keystroke_v	v	n/a
109.5925	0.134	219185	keystroke_e	e	n/a
109.7565	0.15	219513	keystroke_l	l	n/a
109.8465	0.12	219693	keystroke_Key.space	Key.space	n/a
110.0565	0.15	220113	keystroke_a	a	n/a
110.1765	0.075	220353	keystroke_p	p	n/a
110.3265	0.105	220653	keystroke_p	p	n/a
110.567	0.15	221134	keystroke_o	o	n/a
110.792	0.21	221584	keystroke_i	i	n/a
110.972	0.15	221944	keystroke_n	n	n/a
111.167	0.12	222334	keystroke_t	t	n/a
111.5115	0.09	223023	keystroke_m	m	n/a
111.6325	0.164	223265	keystroke_e	e	n/a
111.7515	0.12	223503	keystroke_n	n	n/a
111.8865	0.105	223773	keystroke_t	t	n/a
112.0215	0.12	224043	keystroke_Key.space	Key.space	n/a
112.4715	0.09	224943	keystroke_n	n	n/a
112.7575	0.059	225515	keystroke_Key.backspace	Key.backspace	n/a
112.9515	0.09	225903	keystroke_m	m	n/a
113.0565	0.1355	226113	keystroke_a	a	n/a
113.462	0.12	226924	keystroke_u	u	n/a
114.2575	0.105	228515	keystroke_r	r	n/a
114.3775	0.135	228755	keystroke_i	i	n/a
114.8725	0.105	229745	keystroke_t	t	n/a
115.0225	0.135	230045	keystroke_i	i	n/a
115.1425	0.105	230285	keystroke_u	u	n/a
115.2775	0.135	230555	keystroke_s	s	n/a
115.5015	0.106	231003	keystroke_Key.space	Key.space	n/a
115.8025	0.09	231605	keystroke_w	w	n/a
115.8775	0.165	231755	keystroke_e	e	n/a
116.0275	0.09	232055	keystroke_a	a	n/a
116.0725	0.135	232145	keystroke_r	r	n/a
116.2225	0.179	232445	keystroke_i	i	n/a
116.2975	0.18	232595	keystroke_n	n	n/a
116.4475	0.12	232895	keystroke_g	g	n/a
116.7625	0.119	233525	keystroke_Key.enter	Key.enter	n/a
116.888	7.8255	233776	prompt	n/a	seattle kept offer rats\n
117.632	0.15	235264	keystroke_s	s	n/a
117.752	0.105	235504	keystroke_e	e	n/a
118.022	0.09	236044	keystroke_a	a	n/a
118.157	0.1055	236314	keystroke_t	t	n/a
118.3075	0.104	236615	keystroke_l	l	n/a
118.5015	0.12	237003	keystroke_l	l	n/a
118.5465	0.105	237093	keystroke_e	e	n/a
118.7115	0.121	237423	keystroke_Key.space	Key.space	n/a
119.0265	0.12	238053	keystroke_k	k	n/a
119.1325	0.089	238265	keystroke_e	e	n/a
119.2665	0.105	238533	keystroke_p	p	n/a
119.4175	0.074	238835	keystroke_t	t	n/a
119.6565	0.135	239313	keystroke_Key.space	Key.space	n/a
120.4365	0.135	240873	keystroke_o	o	n/a
120.6315	0.09	241263	keystroke_f	f	n/a
120.8265	0.105	241653	keystroke_f	f	n/a
123.4705	0.087	246941	keystroke_e	e	n/a
123.5125	0.134	247025	keystroke_r	r	n/a
123.7215	0.12	247443	keystroke_Key.space	Key.space	n/a
124.0215	0.121	248043	keystroke_r	r	n/a
124.1125	0.134	248225	keystroke_a	a	n/a
124.2615	0.105	248523	keystroke_t	t	n/a
124.3815	0.135	248763	keystroke_s	s	n/a
124.5765	0.135	249153	keystroke_Key.enter	Key.enter	n/a
124.718	9.4155	249436	prompt	n/a	carnival clients given surrounding\n
125.4615	0.12	250923	keystroke_c	c	n/a
125.6415	0.12	251283	keystroke_a	a	n/a
125.7765	0.12	251553	keystroke_r	r	n/a
125.9715	0.15	251943	keystroke_n	n	n/a
126.0615	0.15	252123	keystroke_i	i	n/a
126.3625	0.134	252725	keystroke_a	a	n/a
126.557	0.195	253114	keystroke_l	l	n/a
126.766	0.12	253532	keystroke_Key.space	Key.space	n/a
127.066	0.075	254132	keystroke_Key.backspace	Key.backspace	n/a
127.2165	0.0905	254433	keystroke_Key.backspace	Key.backspace	n/a
127.352	0.12	254704	keystroke_Key.backspace	Key.backspace	n/a
127.412	0.135	254824	keystroke_v	v	n/a
127.517	0.135	255034	keystroke_a	a	n/a
127.637	0.15	255274	keystroke_l	l	n/a
127.727	0.135	255454	keystroke_Key.space	Key.space	n/a
128.927	0.12	257854	keystroke_c	c	n/a
128.987	0.15	257974	keystroke_l	l	n/a
129.077	0.135	258154	keystroke_i	i	n/a
129.182	0.105	258364	keystroke_e	e	n/a
129.347	0.15	258694	keystroke_n	n	n/a
129.482	0.09	258964	keystroke_t	t	n/a
129.647	0.12	259294	keystroke_s	s	n/a
129.841	0.09	259682	keystroke_Key.space	Key.space	n/a
130.112	0.06	260224	keystroke_g	g	n/a
130.187	0.09	260374	keystroke_i	i	n/a
130.307	0.1045	260614	keystroke_v	v	n/a
130.3965	0.12	260793	keystroke_e	e	n/a
130.4865	0.15	260973	keystroke_n	n	n/a
130.5765	0.135	261153	keystroke_Key.space	Key.space	n/a
130.9375	0.104	261875	keystroke_s	s	n/a
131.3415	0.09	262683	keystroke_u	u	n/a
131.6865	0.09	263373	keystroke_r	r	n/a
131.8515	0.075	263703	keystroke_r	r	n/a
131.9565	0.12	263913	keystroke_o	o	n/a
132.0015	0.105	264003	keystroke_u	u	n/a
132.2565	0.1055	264513	keystroke_d	d	n/a
132.842	0.09	265684	keystroke_Key.backspace	Key.backspace	n/a
133.082	0.15	266164	keystroke_n	n	n/a
133.517	0.135	267034	keystroke_d	d	n/a
133.667	0.15	267334	keystroke_i	i	n/a
133.742	0.15	267484	keystroke_n	n	n/a
133.847	0.09	267694	keystroke_g	g	n/a
134.027	0.105	268054	keystroke_Key.enter	Key.enter	n/a
134.138	6.866	268276	prompt	n/a	generating maldives shall airlines\n
134.8365	0.12	269673	keystroke_g	g	n/a
134.9115	0.105	269823	keystroke_e	e	n/a
135.0015	0.12	270003	keystroke_n	n	n/a
135.1365	0.09	270273	keystroke_e	e	n/a
135.2575	0.149	270515	keystroke_r	r	n/a
135.4215	0.12	270843	keystroke_a	a	n/a
135.5265	0.09	271053	keystroke_t	t	n/a
135.6315	0.165	271263	keystroke_i	i	n/a
135.7215	0.165	271443	keystroke_n	n	n/a
135.8565	0.105	271713	keystroke_g	g	n/a
135.9465	0.135	271893	keystroke_Key.space	Key.space	n/a
136.1875	0.1345	272375	keystroke_m	m	n/a
136.3515	0.1205	272703	keystroke_a	a	n/a
136.487	0.105	272974	keystroke_l	l	n/a
137.057	0.105	274114	keystroke_d	d	n/a
137.192	0.1345	274384	keystroke_i	i	n/a
137.7915	0.15	275583	keystroke_v	v	n/a
138.0165	0.09	276033	keystroke_e	e	n/a
138.2415	0.1355	276483	keystroke_s	s	n/a
138.4665	0.105	276933	keystroke_Key.space	Key.space	n/a
138.6315	0.121	277263	keystroke_s	s	n/a
138.7215	0.09	277443	keystroke_h	h	n/a
138.8865	0.12	277773	keystroke_a	a	n/a
139.0365	0.09	278073	keystroke_l	l	n/a
139.2165	0.15	278433	keystroke_l	l	n/a
139.3065	0.105	278613	keystroke_Key.space	Key.space	n/a
139.5615	0.12	279123	keystroke_a	a	n/a
139.6965	0.09	279393	keystroke_i	i	n/a
139.8315	0.09	279663	keystroke_r	r	n/a
139.9225	0.149	279845	keystroke_l	l	n/a
140.0565	0.135	280113	keystroke_i	i	n/a
140.2965	0.12	280593	keystroke_n	n	n/a
140.4615	0.135	280923	keystroke_e	e	n/a
140.582	0.119	281164	keystroke_s	s	n/a
140.896	0.1055	281792	keystroke_Key.enter	Key.enter	n/a
141.009	8.7395	282018	prompt	n/a	jury eagle currencies buddy\n
141.617	0.09	283234	keystroke_j	j	n/a
141.812	0.089	283624	keystroke_u	u	n/a
141.916	0.15	283832	keystroke_l	l	n/a
142.246	0.076	284492	keystroke_Key.backspace	Key.backspace	n/a
142.3665	0.09	284733	keystroke_r	r	n/a
142.5015	0.12	285003	keystroke_y	y	n/a
142.5765	0.12	285153	keystroke_Key.space	Key.space	n/a
142.9815	0.135	285963	keystroke_e	e	n/a
143.1765	0.105	286353	keystroke_a	a	n/a
143.5665	0.09	287133	keystroke_g	g	n/a
143.7015	0.12	287403	keystroke_l	l	n/a
143.8065	0.09	287613	keystroke_e	e	n/a
143.9565	0.15	287913	keystroke_Key.space	Key.space	n/a
144.677	0.135	289354	keystroke_c	c	n/a
144.827	0.075	289654	keystroke_u	u	n/a
144.992	0.045	289984	keystroke_r	r	n/a
145.157	0.135	290314	keystroke_r	r	n/a
145.247	0.105	290494	keystroke_e	e	n/a
145.367	0.15	290734	keystroke_e	e	n/a
145.532	0.105	291064	keystroke_n	n	n/a
145.8015	0.0905	291603	keystroke_c	c	n/a
145.922	0.12	291844	keystroke_i	i	n/a
146.087	0.12	292174	keystroke_e	e	n/a
146.192	0.15	292384	keystroke_s	s	n/a
146.552	0.075	293104	keystroke_Key.backspace	Key.backspace	n/a
146.717	0.075	293434	keystroke_Key.backspace	Key.backspace	n/a
146.867	0.075	293734	keystroke_Key.backspace	Key.backspace	n/a
147.032	0.06	294064	keystroke_Key.backspace	Key.backspace	n/a
147.167	0.105	294334	keystroke_Key.backspace	Key.backspace	n/a
147.7365	0.075	295473	keystroke_Key.backspace	Key.backspace	n/a
147.9615	0.09	295923	keystroke_n	n	n/a
148.1565	0.12	296313	keystroke_c	c	n/a
148.2615	0.12	296523	keystroke_i	i	n/a
148.427	0.105	296854	keystroke_e	e	n/a
148.517	0.134	297034	keystroke_s	s	n/a
148.696	0.106	297392	keystroke_Key.space	Key.space	n/a
148.952	0.09	297904	keystroke_b	b	n/a
149.027	0.09	298054	keystroke_u	u	n/a
149.162	0.09	298324	keystroke_d	d	n/a
149.357	0.12	298714	keystroke_d	d	n/a
149.432	0.105	298864	keystroke_y	y	n/a
149.642	0.104	299284	keystroke_Key.enter	Key.enter	n/a
149.7535	12.4595	299507	prompt	n/a	materials colon possibility proteins\n
150.362	0.12	300724	keystroke_m	m	n/a
150.496	0.12	300992	keystroke_a	a	n/a
150.662	0.09	301324	keystroke_t	t	n/a
150.767	0.165	301534	keystroke_e	e	n/a
150.886	0.106	301772	keystroke_r	r	n/a
151.036	0.105	302072	keystroke_i	i	n/a
151.171	0.12	302342	keystroke_a	a	n/a
151.351	0.151	302702	keystroke_l	l	n/a
151.471	0.151	302942	keystroke_Key.space	Key.space	n/a
151.861	0.075	303722	keystroke_Key.backspace	Key.backspace	n/a
151.951	0.12	303902	keystroke_s	s	n/a
152.086	0.12	304172	keystroke_Key.space	Key.space	n/a
152.417	0.135	304834	keystroke_c	c	n/a
152.477	0.09	304954	keystroke_o	o	n/a
152.687	0.09	305374	keystroke_l	l	n/a
152.882	0.165	305764	keystroke_o	o	n/a
153.017	0.165	306034	keystroke_n	n	n/a
153.167	0.12	306334	keystroke_Key.space	Key.space	n/a
153.332	0.18	306664	keystroke_p	p	n/a
153.467	0.135	306934	keystroke_o	o	n/a
153.632	0.09	307264	keystroke_s	s	n/a
153.767	0.09	307534	keystroke_s	s	n/a
153.872	0.09	307744	keystroke_i	i	n/a
154.022	0.09	308044	keystroke_b	b	n/a
154.037	0.18	308074	keystroke_l	l	n/a
154.187	0.12	308374	keystroke_i	i	n/a
154.4265	0.09	308853	keystroke_t	t	n/a
154.6365	0.135	309273	keystroke_y	y	n/a
154.7415	0.12	309483	keystroke_Key.space	Key.space	n/a
155.3565	0.075	310713	keystroke_Key.backspace	Key.backspace	n/a
155.5215	0.075	311043	keystroke_Key.backspace	Key.backspace	n/a
155.6715	0.09	311343	keystroke_Key.backspace	Key.backspace	n/a
155.8515	0.075	311703	keystroke_Key.backspace	Key.backspace	n/a
156.0165	0.09	312033	keystroke_Key.backspace	Key.backspace	n/a
156.1965	0.09	312393	keystroke_Key.backspace	Key.backspace	n/a
157.517	0.105	315034	keystroke_i	i	n/a
158.312	0.06	316624	keystroke_Key.backspace	Key.backspace	n/a
158.4315	0.12	316863	keystroke_b	b	n/a
158.5665	0.105	317133	keystroke_i	i	n/a
158.7015	0.18	317403	keystroke_l	l	n/a
158.8215	0.12	317643	keystroke_i	i	n/a
158.9565	0.105	317913	keystroke_t	t	n/a
159.1665	0.15	318333	keystroke_y	y	n/a
159.3165	0.105	318633	keystroke_Key.space	Key.space	n/a
159.9465	0.12	319893	keystroke_p	p	n/a
160.2165	0.06	320433	keystroke_r	r	n/a
160.2915	0.105	320583	keystroke_o	o	n/a
160.4715	0.135	320943	keystroke_t	t	n/a
160.5765	0.135	321153	keystroke_e	e	n/a
161.1165	0.12	322233	keystroke_a	a	n/a
161.4615	0.06	322923	keystroke_Key.backspace	Key.backspace	n/a
161.6575	0.1635	323315	keystroke_i	i	n/a
161.746	0.135	323492	keystroke_n	n	n/a
161.866	0.136	323732	keystroke_s	s	n/a
162.196	0.015	324392	keystroke_Key.enter	Key.enter	n/a
162.218	8.8305	324436	prompt	n/a	minimal solaris sony y'all\n
162.7815	0.135	325563	keystroke_m	m	n/a
162.9615	0.135	325923	keystroke_i	i	n/a
163.0665	0.18	326133	keystroke_n	n	n/a
163.2015	0.15	326403	keystroke_i	i	n/a
163.5465	0.12	327093	keystroke_a	a	n/a
163.8915	0.075	327783	keystroke_Key.backspace	Key.backspace	n/a
164.0715	0.105	328143	keystroke_m	m	n/a
164.1915	0.135	328383	keystroke_a	a	n/a
164.3415	0.12	328683	keystroke_l	l	n/a
164.3865	0.135	328773	keystroke_Key.space	Key.space	n/a
164.8065	0.105	329613	keystroke_s	s	n/a
164.8965	0.105	329793	keystroke_o	o	n/a
165.1215	0.135	330243	keystroke_l	l	n/a
165.3015	0.15	330603	keystroke_a	a	n/a
165.4515	0.12	330903	keystroke_r	r	n/a
165.5865	0.135	331173	keystroke_i	i	n/a
165.7515	0.135	331503	keystroke_s	s	n/a
166.0215	0.105	332043	keystroke_Key.space	Key.space	n/a
166.4715	0.105	332943	keystroke_s	s	n/a
166.5615	0.135	333123	keystroke_o	o	n/a
167.0115	0.12	334023	keystroke_n	n	n/a
167.372	0.12	334744	keystroke_y	y	n/a
167.477	0.119	334954	keystroke_Key.space	Key.space	n/a
168.062	0.075	336124	keystroke_y	y	n/a
168.272	0.135	336544	keystroke_'	'	n/a
168.571	0.136	337142	keystroke_a	a	n/a
168.691	0.091	337382	keystroke_l	l	n/a
168.857	0.119	337714	keystroke_l	l	n/a
170.926	0.12	341852	keystroke_Key.enter	Key.enter	n/a
171.055	8.048	342110	prompt	n/a	occurred careers aware arrested\n
171.871	0.105	343742	keystroke_o	o	n/a
172.141	0.09	344282	keystroke_c	c	n/a
172.276	0.106	344552	keystroke_c	c	n/a
172.457	0.089	344914	keystroke_u	u	n/a
173.117	0.09	346234	keystroke_r	r	n/a
173.372	0.165	346744	keystroke_r	r	n/a
173.747	0.075	347494	keystroke_e	e	n/a
173.987	0.12	347974	keystroke_d	d	n/a
174.3015	0.12	348603	keystroke_Key.space	Key.space	n/a
174.4815	0.135	348963	keystroke_a	a	n/a
174.8265	0.09	349653	keystroke_Key.backspace	Key.backspace	n/a
174.8715	0.12	349743	keystroke_c	c	n/a
174.9765	0.0755	349953	keystroke_a	a	n/a
175.1715	0.075	350343	keystroke_r	r	n/a
175.3815	0.0905	350763	keystroke_e	e	n/a
175.5765	0.165	351153	keystroke_e	e	n/a
175.7115	0.105	351423	keystroke_r	r	n/a
175.877	0.1195	351754	keystroke_s	s	n/a
176.1015	0.135	352203	keystroke_Key.space	Key.space	n/a
176.3565	0.09	352713	keystroke_a	a	n/a
176.6415	0.165	353283	keystroke_w	w	n/a
176.7465	0.135	353493	keystroke_a	a	n/a
176.8365	0.135	353673	keystroke_r	r	n/a
177.1365	0.091	354273	keystroke_e	e	n/a
177.452	0.119	354904	keystroke_Key.space	Key.space	n/a
177.797	0.119	355594	keystroke_a	a	n/a
177.991	0.075	355982	keystroke_r	r	n/a
178.157	0.104	356314	keystroke_r	r	n/a
178.246	0.135	356492	keystroke_e	e	n/a
178.366	0.12	356732	keystroke_s	s	n/a
178.5015	0.105	357003	keystroke_t	t	n/a
178.6215	0.075	357243	keystroke_e	e	n/a
178.8165	0.12	357633	keystroke_d	d	n/a
178.9965	0.105	357993	keystroke_Key.enter	Key.enter	n/a
179.1085	11.65	358217	prompt	n/a	finances proceedings headquarters scanners\n
179.8065	0.12	359613	keystroke_f	f	n/a
179.9415	0.135	359883	keystroke_i	i	n/a
180.0165	0.135	360033	keystroke_n	n	n/a
180.2565	0.075	360513	keystroke_n	n	n/a
180.3015	0.075	360603	keystroke_a	a	n/a
180.7215	0.06	361443	keystroke_Key.backspace	Key.backspace	n/a
180.8415	0.105	361683	keystroke_Key.backspace	Key.backspace	n/a
180.9465	0.105	361893	keystroke_a	a	n/a
181.0965	0.075	362193	keystroke_n	n	n/a
181.1865	0.09	362373	keystroke_c	c	n/a
181.4115	0.105	362823	keystroke_e	e	n/a
181.5765	0.135	363153	keystroke_s	s	n/a
181.7715	0.12	363543	keystroke_Key.space	Key.space	n/a
182.0565	0.105	364113	keystroke_p	p	n/a
182.1915	0.075	364383	keystroke_r	r	n/a
182.2815	0.09	364563	keystroke_o	o	n/a
182.5215	0.09	365043	keystroke_c	c	n/a
182.7465	0.06	365493	keystroke_e	e	n/a
182.8965	0.06	365793	keystroke_e	e	n/a
183.0465	0.105	366093	keystroke_s	s	n/a
183.4965	0.06	366993	keystroke_Key.backspace	Key.backspace	n/a
183.5715	0.09	367143	keystroke_d	d	n/a
183.6915	0.165	367383	keystroke_i	i	n/a
183.7815	0.15	367563	keystroke_n	n	n/a
183.8865	0.105	367773	keystroke_g	g	n/a
184.1115	0.105	368223	keystroke_Key.space	Key.space	n/a
184.4265	0.075	368853	keystroke_Key.backspace	Key.backspace	n/a
184.4865	0.1205	368973	keystroke_s	s	n/a
184.651	0.121	369302	keystroke_Key.space	Key.space	n/a
185.296	0.075	370592	keystroke_Key.backspace	Key.backspace	n/a
185.821	0.105	371642	keystroke_Key.space	Key.space	n/a
186.047	0.105	372094	keystroke_h	h	n/a
186.166	0.12	372332	keystroke_e	e	n/a
186.257	0.104	372514	keystroke_a	a	n/a
186.422	0.134	372844	keystroke_d	d	n/a
186.841	0.12	373682	keystroke_q	q	n/a
186.946	0.105	373892	keystroke_u	u	n/a
187.141	0.09	374282	keystroke_a	a	n/a
187.712	0.075	375424	keystroke_r	r	n/a
187.9815	0.09	375963	keystroke_t	t	n/a
188.1015	0.135	376203	keystroke_e	e	n/a
188.2215	0.075	376443	keystroke_r	r	n/a
188.3715	0.1205	376743	keystroke_s	s	n/a
188.581	0.106	377162	keystroke_Key.space	Key.space	n/a
189.062	0.09	378124	keystroke_s	s	n/a
189.287	0.12	378574	keystroke_c	c	n/a
189.362	0.12	378724	keystroke_a	a	n/a
189.512	0.09	379024	keystroke_n	n	n/a
189.721	0.09	379442	keystroke_n	n	n/a
189.872	0.135	379744	keystroke_e	e	n/a
189.977	0.12	379954	keystroke_r	r	n/a
190.187	0.105	380374	keystroke_s	s	n/a
190.652	0.105	381304	keystroke_Key.enter	Key.enter	n/a
190.764	10.299	381528	prompt	n/a	aviation hopefully agricultural acrobat\n
191.462	0.1045	382924	keystroke_a	a	n/a
191.6415	0.1505	383283	keystroke_v	v	n/a
191.822	0.0895	383644	keystroke_i	i	n/a
192.0315	0.1205	384063	keystroke_a	a	n/a
192.197	0.09	384394	keystroke_t	t	n/a
192.3165	0.09	384633	keystroke_i	i	n/a
192.3915	0.225	384783	keystroke_o	o	n/a
192.467	0.2545	384934	keystroke_n	n	n/a
192.8565	0.12	385713	keystroke_Key.space	Key.space	n/a
193.1415	0.135	386283	keystroke_h	h	n/a
193.2315	0.105	386463	keystroke_o	o	n/a
193.4865	0.105	386973	keystroke_p	p	n/a
193.7265	0.076	387453	keystroke_e	e	n/a
193.9365	0.105	387873	keystroke_f	f	n/a
194.0265	0.105	388053	keystroke_u	u	n/a
194.1015	0.315	388203	keystroke_l	l	n/a
194.5065	0.18	389013	keystroke_l	l	n/a
194.7015	0.12	389403	keystroke_y	y	n/a
194.7465	0.135	389493	keystroke_Key.space	Key.space	n/a
194.9865	0.135	389973	keystroke_a	a	n/a
195.3915	0.0895	390783	keystroke_Key.backspace	Key.backspace	n/a
195.511	0.105	391022	keystroke_g	g	n/a
196.186	0.075	392372	keystroke_Key.backspace	Key.backspace	n/a
196.232	0.134	392464	keystroke_a	a	n/a
196.336	0.1055	392672	keystroke_g	g	n/a
196.666	0.106	393332	keystroke_r	r	n/a
196.802	0.105	393604	keystroke_i	i	n/a
197.851	0.15	395702	keystroke_c	c	n/a
197.956	0.105	395912	keystroke_u	u	n/a
198.031	0.135	396062	keystroke_l	l	n/a
198.121	0.09	396242	keystroke_t	t	n/a
198.271	0.105	396542	keystroke_u	u	n/a
198.391	0.135	396782	keystroke_r	r	n/a
198.616	0.15	397232	keystroke_a	a	n/a
198.781	0.181	397562	keystroke_l	l	n/a
198.901	0.135	397802	keystroke_Key.space	Key.space	n/a
199.4415	0.105	398883	keystroke_a	a	n/a
199.6515	0.09	399303	keystroke_c	c	n/a
199.8315	0.09	399663	keystroke_r	r	n/a
199.9815	0.135	399963	keystroke_o	o	n/a
200.3265	0.105	400653	keystroke_b	b	n/a
200.4165	0.1195	400833	keystroke_a	a	n/a
200.7465	0.09	401493	keystroke_t	t	n/a
200.9415	0.12	401883	keystroke_Key.enter	Key.enter	n/a
201.0695	9.2185	402139	prompt	n/a	relationships sheet firewall gays\n
201.7815	0.075	403563	keystroke_r	r	n/a
201.8415	0.105	403683	keystroke_e	e	n/a
202.0215	0.15	404043	keystroke_l	l	n/a
202.1565	0.12	404313	keystroke_a	a	n/a
202.2615	0.1055	404523	keystroke_t	t	n/a
202.382	0.105	404764	keystroke_i	i	n/a
202.457	0.179	404914	keystroke_o	o	n/a
202.562	0.134	405124	keystroke_n	n	n/a
202.696	0.12	405392	keystroke_s	s	n/a
202.906	0.135	405812	keystroke_h	h	n/a
202.966	0.12	405932	keystroke_i	i	n/a
203.011	0.21	406022	keystroke_p	p	n/a
203.341	0.15	406682	keystroke_Key.space	Key.space	n/a
203.716	0.09	407432	keystroke_Key.backspace	Key.backspace	n/a
203.821	0.105	407642	keystroke_s	s	n/a
203.911	0.135	407822	keystroke_Key.space	Key.space	n/a
204.121	0.135	408242	keystroke_s	s	n/a
204.226	0.15	408452	keystroke_e	e	n/a
204.6165	0.075	409233	keystroke_Key.backspace	Key.backspace	n/a
204.8265	0.09	409653	keystroke_h	h	n/a
204.9165	0.075	409833	keystroke_e	e	n/a
205.0965	0.075	410193	keystroke_e	e	n/a
205.3365	0.075	410673	keystroke_Key.space	Key.space	n/a
205.6665	0.075	411333	keystroke_Key.backspace	Key.backspace	n/a
205.7565	0.075	411513	keystroke_t	t	n/a
205.8915	0.105	411783	keystroke_Key.space	Key.space	n/a
206.2365	0.105	412473	keystroke_d	d	n/a
206.4615	0.105	412923	keystroke_i	i	n/a
206.5365	0.0905	413073	keystroke_f	f	n/a
206.8515	0.06	413703	keystroke_Key.backspace	Key.backspace	n/a
207.0015	0.09	414003	keystroke_Key.backspace	Key.backspace	n/a
207.1515	0.09	414303	keystroke_Key.backspace	Key.backspace	n/a
207.2565	0.0895	414513	keystroke_f	f	n/a
207.376	0.09	414752	keystroke_i	i	n/a
207.481	0.12	414962	keystroke_r	r	n/a
207.556	0.105	415112	keystroke_e	e	n/a
207.886	0.151	415772	keystroke_w	w	n/a
208.037	0.104	416074	keystroke_a	a	n/a
208.096	0.105	416192	keystroke_r	r	n/a
208.261	0.09	416522	keystroke_l	l	n/a
208.426	0.15	416852	keystroke_l	l	n/a
208.7415	0.06	417483	keystroke_Key.backspace	Key.backspace	n/a
208.8765	0.09	417753	keystroke_Key.backspace	Key.backspace	n/a
209.0265	0.075	418053	keystroke_Key.backspace	Key.backspace	n/a
209.2815	0.06	418563	keystroke_l	l	n/a
209.4465	0.135	418893	keystroke_l	l	n/a
209.5065	0.12	419013	keystroke_Key.space	Key.space	n/a
209.6415	0.135	419283	keystroke_g	g	n/a
209.7615	0.09	419523	keystroke_a	a	n/a
209.8815	0.1045	419763	keystroke_y	y	n/a
210.001	0.1205	420002	keystroke_s	s	n/a
210.166	0.12	420332	keystroke_Key.enter	Key.enter	n/a
210.2925	7.1505	420585	prompt	n/a	fully makers satellite channel\n
210.9315	0.12	421863	keystroke_f	f	n/a
211.0365	0.105	422073	keystroke_u	u	n/a
211.1265	0.09	422253	keystroke_l	l	n/a
211.2915	0.15	422583	keystroke_l	l	n/a
211.4265	0.09	422853	keystroke_y	y	n/a
211.4715	0.09	422943	keystroke_Key.space	Key.space	n/a
211.7115	0.105	423423	keystroke_m	m	n/a
211.8165	0.12	423633	keystroke_a	a	n/a
211.9515	0.105	423903	keystroke_k	k	n/a
212.0415	0.12	424083	keystroke_e	e	n/a
212.1465	0.12	424293	keystroke_r	r	n/a
212.311	0.165	424622	keystroke_s	s	n/a
212.536	0.105	425072	keystroke_Key.space	Key.space	n/a
212.8365	0.06	425673	keystroke_s	s	n/a
213.0915	0.105	426183	keystroke_a	a	n/a
213.2565	0.12	426513	keystroke_t	t	n/a
213.5115	0.105	427023	keystroke_e	e	n/a
213.7965	0.105	427593	keystroke_l	l	n/a
214.0515	0.165	428103	keystroke_l	l	n/a
214.1865	0.15	428373	keystroke_i	i	n/a
214.4115	0.105	428823	keystroke_t	t	n/a
214.5615	0.1345	429123	keystroke_e	e	n/a
215.027	0.089	430054	keystroke_Key.space	Key.space	n/a
215.161	0.121	430322	keystroke_c	c	n/a
215.297	0.09	430594	keystroke_h	h	n/a
215.507	0.12	431014	keystroke_e	e	n/a
215.671	0.106	431342	keystroke_l	l	n/a
216.151	0.075	432302	keystroke_Key.backspace	Key.backspace	n/a
216.436	0.075	432872	keystroke_Key.backspace	Key.backspace	n/a
216.541	0.135	433082	keystroke_a	a	n/a
216.691	0.075	433382	keystroke_n	n	n/a
216.856	0.075	433712	keystroke_n	n	n/a
216.961	0.12	433922	keystroke_e	e	n/a
217.096	0.105	434192	keystroke_l	l	n/a
217.3515	0.09	434703	keystroke_Key.enter	Key.enter	n/a
217.449	6.7135	434898	prompt	n/a	harmful creates listed attitudes\n
218.1765	0.075	436353	keystroke_h	h	n/a
218.3115	0.12	436623	keystroke_a	a	n/a
218.3565	0.105	436713	keystroke_r	r	n/a
218.4765	0.1195	436953	keystroke_m	m	n/a
218.8965	0.105	437793	keystroke_f	f	n/a
219.0015	0.135	438003	keystroke_u	u	n/a
219.0765	0.21	438153	keystroke_l	l	n/a
219.2715	0.12	438543	keystroke_Key.space	Key.space	n/a
219.6765	0.09	439353	keystroke_c	c	n/a
219.8865	0.09	439773	keystroke_r	r	n/a
219.9765	0.075	439953	keystroke_e	e	n/a
220.0365	0.255	440073	keystroke_a	a	n/a
220.1565	0.105	440313	keystroke_t	t	n/a
220.2465	0.135	440493	keystroke_e	e	n/a
220.5765	0.135	441153	keystroke_s	s	n/a
220.831	0.105	441662	keystroke_Key.space	Key.space	n/a
221.386	0.15	442772	keystroke_l	l	n/a
221.476	0.15	442952	keystroke_i	i	n/a
221.611	0.135	443222	keystroke_s	s	n/a
221.731	0.12	443462	keystroke_t	t	n/a
221.866	0.0905	443732	keystroke_e	e	n/a
222.076	0.09	444152	keystroke_d	d	n/a
222.196	0.105	444392	keystroke_Key.space	Key.space	n/a
222.601	0.135	445202	keystroke_a	a	n/a
222.751	0.06	445502	keystroke_t	t	n/a
222.916	0.075	445832	keystroke_t	t	n/a
223.036	0.135	446072	keystroke_i	i	n/a
223.216	0.105	446432	keystroke_t	t	n/a
223.336	0.12	446672	keystroke_u	u	n/a
223.457	0.089	446914	keystroke_d	d	n/a
223.651	0.09	447302	keystroke_e	e	n/a
223.846	0.135	447692	keystroke_s	s	n/a
224.026	0.135	448052	keystroke_Key.enter	Key.enter	n/a
224.169	7.584	448338	prompt	n/a	vessels reprints pledge pink\n
224.8515	0.12	449703	keystroke_v	v	n/a
224.9565	0.105	449913	keystroke_e	e	n/a
225.1815	0.075	450363	keystroke_s	s	n/a
225.3465	0.12	450693	keystroke_s	s	n/a
225.4515	0.105	450903	keystroke_e	e	n/a
225.6165	0.15	451233	keystroke_l	l	n/a
225.7515	0.135	451503	keystroke_s	s	n/a
226.0215	0.12	452043	keystroke_Key.space	Key.space	n/a
226.5015	0.09	453003	keystroke_r	r	n/a
226.5615	0.12	453123	keystroke_e	e	n/a
226.816	0.105	453632	keystroke_r	r	n/a
227.221	0.0905	454442	keystroke_=	=	n/a
227.7015	0.06	455403	keystroke_Key.backspace	Key.backspace	n/a
227.8515	0.09	455703	keystroke_Key.backspace	Key.backspace	n/a
228.1665	0.12	456333	keystroke_p	p	n/a
228.3465	0.105	456693	keystroke_r	r	n/a
228.7515	0.134	457503	keystroke_i	i	n/a
228.8415	0.149	457683	keystroke_n	n	n/a
228.9605	0.075	457921	keystroke_t	t	n/a
229.1265	0.119	458253	keystroke_s	s	n/a
229.3505	0.106	458701	keystroke_Key.space	Key.space	n/a
229.8765	0.075	459753	keystroke_p	p	n/a
230.0705	0.12	460141	keystroke_l	l	n/a
230.1305	0.076	460261	keystroke_e	e	n/a
230.3855	0.091	460771	keystroke_d	d	n/a
230.5805	0.09	461161	keystroke_g	g	n/a
230.6265	0.1345	461253	keystroke_e	e	n/a
230.851	0.09	461702	keystroke_Key.space	Key.space	n/a
231.031	0.12	462062	keystroke_p	p	n/a
231.166	0.12	462332	keystroke_i	i	n/a
231.241	0.165	462482	keystroke_n	n	n/a
231.377	0.164	462754	keystroke_k	k	n/a
231.661	0.09	463322	keystroke_Key.enter	Key.enter	n/a
231.758	7.2545	463516	prompt	n/a	sword date classroom occurs\n
232.3965	0.06	464793	keystroke_s	s	n/a
232.6215	0.1345	465243	keystroke_w	w	n/a
232.7415	0.0895	465483	keystroke_a	a	n/a
232.786	0.105	465572	keystroke_r	r	n/a
233.251	0.075	466502	keystroke_Key.backspace	Key.backspace	n/a
233.416	0.045	466832	keystroke_Key.backspace	Key.backspace	n/a
233.641	0.045	467282	keystroke_o	o	n/a
233.731	0.09	467462	keystroke_r	r	n/a
233.941	0.135	467882	keystroke_d	d	n/a
234.181	0.075	468362	keystroke_Key.space	Key.space	n/a
234.361	0.135	468722	keystroke_d	d	n/a
234.511	0.105	469022	keystroke_a	a	n/a
234.601	0.12	469202	keystroke_t	t	n/a
234.691	0.1355	469382	keystroke_e	e	n/a
234.8565	0.135	469713	keystroke_Key.space	Key.space	n/a
235.351	0.15	470702	keystroke_c	c	n/a
235.531	0.15	471062	keystroke_l	l	n/a
235.651	0.075	471302	keystroke_a	a	n/a
235.711	0.091	471422	keystroke_s	s	n/a
235.891	0.105	471782	keystroke_s	s	n/a
236.296	0.075	472592	keystroke_r	r	n/a
236.401	0.105	472802	keystroke_o	o	n/a
236.566	0.181	473132	keystroke_o	o	n/a
236.671	0.12	473342	keystroke_m	m	n/a
236.761	0.135	473522	keystroke_Key.space	Key.space	n/a
237.091	0.105	474182	keystroke_c	c	n/a
237.166	0.105	474332	keystroke_o	o	n/a
237.4515	0.075	474903	keystroke_Key.backspace	Key.backspace	n/a
237.5855	0.075	475171	keystroke_Key.backspace	Key.backspace	n/a
237.7965	0.075	475593	keystroke_o	o	n/a
237.8865	0.09	475773	keystroke_c	c	n/a
238.0665	0.09	476133	keystroke_c	c	n/a
238.2015	0.105	476403	keystroke_u	u	n/a
238.3815	0.135	476763	keystroke_r	r	n/a
238.5315	0.195	477063	keystroke_s	s	n/a
238.906	0.105	477812	keystroke_Key.enter	Key.enter	n/a
239.0175	17.995	478035	prompt	n/a	unsubscribe subscriptions tapes aerospace\n
239.762	0.074	479524	keystroke_u	u	n/a
239.971	0.105	479942	keystroke_n	n	n/a
240.181	0.075	480362	keystroke_s	s	n/a
240.646	0.09	481292	keystroke_u	u	n/a
241.051	0.075	482102	keystroke_b	b	n/a
241.411	0.09	482822	keystroke_s	s	n/a
241.681	0.09	483362	keystroke_c	c	n/a
241.891	0.075	483782	keystroke_r	r	n/a
242.011	0.12	484022	keystroke_i	i	n/a
242.161	0.12	484322	keystroke_b	b	n/a
242.282	0.1195	484564	keystroke_e	e	n/a
242.5065	0.12	485013	keystroke_Key.space	Key.space	n/a
242.8215	0.089	485643	keystroke_s	s	n/a
242.9265	0.089	485853	keystroke_u	u	n/a
243.0765	0.09	486153	keystroke_b	b	n/a
243.3465	0.105	486693	keystroke_s	s	n/a
243.6905	0.091	487381	keystroke_c	c	n/a
243.8265	0.165	487653	keystroke_i	i	n/a
244.0065	0.149	488013	keystroke_p	p	n/a
244.6955	0.1205	489391	keystroke_Key.backspace	Key.backspace	n/a
245.491	0.12	490982	keystroke_p	p	n/a
245.776	0.105	491552	keystroke_t	t	n/a
245.896	0.12	491792	keystroke_i	i	n/a
246.002	0.149	492004	keystroke_o	o	n/a
246.091	0.165	492182	keystroke_n	n	n/a
246.226	0.15	492452	keystroke_s	s	n/a
246.421	0.12	492842	keystroke_Key.space	Key.space	n/a
246.631	0.135	493262	keystroke_t	t	n/a
246.781	0.09	493562	keystroke_a	a	n/a
246.856	0.12	493712	keystroke_p	p	n/a
247.036	0.135	494072	keystroke_e	e	n/a
247.186	0.1655	494372	keystroke_s	s	n/a
248.6855	0.075	497371	keystroke_Key.backspace	Key.backspace	n/a
248.866	0.075	497732	keystroke_Key.backspace	Key.backspace	n/a
249.046	0.06	498092	keystroke_Key.backspace	Key.backspace	n/a
251.1815	0.039	502363	keystroke_c	c	n/a
251.327	0.1035	502654	keystroke_r	r	n/a
251.4765	0.15	502953	keystroke_i	i	n/a
251.6105	0.12	503221	keystroke_p	p	n/a
251.7605	0.1055	503521	keystroke_t	t	n/a
251.8805	0.09	503761	keystroke_i	i	n/a
251.9565	0.195	503913	keystroke_o	o	n/a
252.0905	0.1655	504181	keystroke_n	n	n/a
252.2265	0.12	504453	keystroke_s	s	n/a
252.3915	0.12	504783	keystroke_Key.space	Key.space	n/a
252.901	0.12	505802	keystroke_t	t	n/a
253.006	0.105	506012	keystroke_a	a	n/a
253.096	0.12	506192	keystroke_p	p	n/a
253.261	0.105	506522	keystroke_e	e	n/a
253.351	0.12	506702	keystroke_s	s	n/a
253.501	0.135	507002	keystroke_Key.space	Key.space	n/a
253.711	0.105	507422	keystroke_a	a	n/a
254.296	0.03	508592	keystroke_e	e	n/a
254.5665	0.105	509133	keystroke_s	s	n/a
254.9415	0.075	509883	keystroke_Key.backspace	Key.backspace	n/a
255.0315	0.09	510063	keystroke_r	r	n/a
255.1665	0.12	510333	keystroke_o	o	n/a
255.781	0.105	511562	keystroke_s	s	n/a
255.916	0.09	511832	keystroke_p	p	n/a
256.126	0.1355	512252	keystroke_a	a	n/a
256.4715	0.12	512943	keystroke_c	c	n/a
256.7415	0.075	513483	keystroke_e	e	n/a
256.906	0.105	513812	keystroke_Key.enter	Key.enter	n/a
257.018	10.5395	514036	prompt	n/a	kenneth workplace installations strength\n
257.6265	0.134	515253	keystroke_k	k	n/a
257.7305	0.135	515461	keystroke_e	e	n/a
257.8805	0.0755	515761	keystroke_n	n	n/a
258.0605	0.075	516121	keystroke_n	n	n/a
258.1655	0.12	516331	keystroke_e	e	n/a
258.3305	0.1065	516661	keystroke_t	t	n/a
258.766	0.09	517532	keystroke_Key.space	Key.space	n/a
259.036	0.09	518072	keystroke_Key.backspace	Key.backspace	n/a
259.261	0.1355	518522	keystroke_h	h	n/a
259.351	0.12	518702	keystroke_Key.space	Key.space	n/a
259.816	0.09	519632	keystroke_w	w	n/a
259.891	0.09	519782	keystroke_o	o	n/a
259.996	0.09	519992	keystroke_r	r	n/a
260.116	0.09	520232	keystroke_k	k	n/a
260.311	0.09	520622	keystroke_p	p	n/a
260.4905	0.136	520981	keystroke_l	l	n/a
260.6105	0.09	521221	keystroke_a	a	n/a
260.8205	0.1055	521641	keystroke_Key.space	Key.space	n/a
261.076	0.09	522152	keystroke_e	e	n/a
261.526	0.105	523052	keystroke_Key.space	Key.space	n/a
261.856	0.075	523712	keystroke_Key.backspace	Key.backspace	n/a
262.006	0.075	524012	keystroke_Key.backspace	Key.backspace	n/a
262.156	0.09	524312	keystroke_Key.backspace	Key.backspace	n/a
262.231	0.0905	524462	keystroke_c	c	n/a
262.4715	0.09	524943	keystroke_e	e	n/a
262.6065	0.12	525213	keystroke_Key.space	Key.space	n/a
262.8465	0.1355	525693	keystroke_i	i	n/a
262.921	0.135	525842	keystroke_n	n	n/a
263.026	0.105	526052	keystroke_s	s	n/a
263.236	0.105	526472	keystroke_t	t	n/a
263.371	0.105	526742	keystroke_a	a	n/a
263.506	0.075	527012	keystroke_l	l	n/a
263.671	0.15	527342	keystroke_l	l	n/a
263.896	0.105	527792	keystroke_a	a	n/a
264.076	0.09	528152	keystroke_t	t	n/a
264.181	0.09	528362	keystroke_i	i	n/a
264.241	0.18	528482	keystroke_o	o	n/a
264.332	0.149	528664	keystroke_n	n	n/a
264.496	0.09	528992	keystroke_s	s	n/a
264.631	0.09	529262	keystroke_Key.space	Key.space	n/a
264.856	0.105	529712	keystroke_s	s	n/a
264.946	0.0905	529892	keystroke_t	t	n/a
265.1415	0.0895	530283	keystroke_r	r	n/a
265.186	0.15	530372	keystroke_e	e	n/a
265.681	0.09	531362	keystroke_n	n	n/a
265.996	0.09	531992	keystroke_g	g	n/a
266.1465	0.1045	532293	keystroke_h	h	n/a
266.296	0.09	532592	keystroke_t	t	n/a
266.9265	0.075	533853	keystroke_Key.backspace	Key.backspace	n/a
267.0465	0.105	534093	keystroke_Key.backspace	Key.backspace	n/a
267.1365	0.105	534273	keystroke_t	t	n/a
267.2715	0.0895	534543	keystroke_h	h	n/a
267.451	0.105	534902	keystroke_Key.enter	Key.enter	n/a
267.563	7.255	535126	prompt	n/a	atmospheric empire bosnia ride\n
268.141	0.135	536282	keystroke_a	a	n/a
268.426	0.09	536852	keystroke_t	t	n/a
268.861	0.12	537722	keystroke_m	m	n/a
268.936	0.135	537872	keystroke_o	o	n/a
269.101	0.105	538202	keystroke_s	s	n/a
269.296	0.165	538592	keystroke_p	p	n/a
269.462	0.119	538924	keystroke_h	h	n/a
269.851	0.165	539702	keystroke_e	e	n/a
270.001	0.12	540002	keystroke_r	r	n/a
270.166	0.12	540332	keystroke_i	i	n/a
270.316	0.135	540632	keystroke_c	c	n/a
270.496	0.105	540992	keystroke_Key.space	Key.space	n/a
270.691	0.105	541382	keystroke_e	e	n/a
270.811	0.1355	541622	keystroke_m	m	n/a
271.1565	0.105	542313	keystroke_p	p	n/a
271.3665	0.09	542733	keystroke_i	i	n/a
271.4865	0.105	542973	keystroke_r	r	n/a
271.5615	0.135	543123	keystroke_e	e	n/a
271.7415	0.12	543483	keystroke_Key.space	Key.space	n/a
272.1915	0.1195	544383	keystroke_b	b	n/a
272.326	0.105	544652	keystroke_o	o	n/a
272.446	0.15	544892	keystroke_s	s	n/a
272.806	0.1355	545612	keystroke_i	i	n/a
273.1815	0.075	546363	keystroke_Key.backspace	Key.backspace	n/a
273.3915	0.12	546783	keystroke_n	n	n/a
273.4665	0.135	546933	keystroke_i	i	n/a
273.5715	0.12	547143	keystroke_a	a	n/a
273.7065	0.105	547413	keystroke_Key.space	Key.space	n/a
273.9615	0.075	547923	keystroke_r	r	n/a
274.0665	0.09	548133	keystroke_i	i	n/a
274.2915	0.12	548583	keystroke_d	d	n/a
274.5315	0.105	549063	keystroke_e	e	n/a
274.6815	0.135	549363	keystroke_Key.enter	Key.enter	n/a
274.824	7.1635	549648	prompt	n/a	proposal operators qualifications edge\n
275.416	0.105	550832	keystroke_p	p	n/a
275.581	0.105	551162	keystroke_r	r	n/a
275.671	0.06	551342	keystroke_o	o	n/a
275.851	0.18	551702	keystroke_p	p	n/a
276.016	0.12	552032	keystroke_o	o	n/a
276.151	0.15	552302	keystroke_s	s	n/a
276.271	0.18	552542	keystroke_a	a	n/a
276.436	0.195	552872	keystroke_l	l	n/a
276.706	0.105	553412	keystroke_Key.space	Key.space	n/a
276.901	0.165	553802	keystroke_o	o	n/a
277.051	0.135	554102	keystroke_p	p	n/a
277.201	0.1495	554402	keystroke_e	e	n/a
277.3055	0.15	554611	keystroke_r	r	n/a
277.4565	0.134	554913	keystroke_a	a	n/a
277.5755	0.12	555151	keystroke_t	t	n/a
277.8905	0.12	555781	keystroke_o	o	n/a
278.0555	0.105	556111	keystroke_r	r	n/a
278.2655	0.135	556531	keystroke_s	s	n/a
278.4905	0.135	556981	keystroke_Key.space	Key.space	n/a
279.046	0.0905	558092	keystroke_q	q	n/a
279.1365	0.09	558273	keystroke_u	u	n/a
279.3015	0.09	558603	keystroke_a	a	n/a
279.3765	0.1345	558753	keystroke_l	l	n/a
279.451	0.1205	558902	keystroke_i	i	n/a
279.586	0.075	559172	keystroke_f	f	n/a
279.706	0.0905	559412	keystroke_i	i	n/a
279.841	0.135	559682	keystroke_c	c	n/a
279.946	0.105	559892	keystroke_a	a	n/a
280.096	0.105	560192	keystroke_t	t	n/a
280.246	0.0605	560492	keystroke_i	i	n/a
280.276	0.33	560552	keystroke_o	o	n/a
280.396	0.255	560792	keystroke_n	n	n/a
280.666	0.12	561332	keystroke_s	s	n/a
280.936	0.1205	561872	keystroke_Key.space	Key.space	n/a
281.1465	0.06	562293	keystroke_e	e	n/a
281.3715	0.105	562743	keystroke_d	d	n/a
281.5965	0.12	563193	keystroke_g	g	n/a
281.6865	0.135	563373	keystroke_e	e	n/a
281.8665	0.12	563733	keystroke_Key.enter	Key.enter	n/a
281.9925	9.1305	563985	prompt	n/a	tied hydrocodone stat quality\n
282.7365	0.09	565473	keystroke_t	t	n/a
282.8565	0.12	565713	keystroke_i	i	n/a
283.0055	0.075	566011	keystroke_e	e	n/a
283.2465	0.105	566493	keystroke_d	d	n/a
283.3655	0.105	566731	keystroke_Key.space	Key.space	n/a
283.4865	0.149	566973	keystroke_h	h	n/a
283.7715	0.119	567543	keystroke_y	y	n/a
284.2665	0.074	568533	keystroke_d	d	n/a
284.4305	0.09	568861	keystroke_r	r	n/a
284.5505	0.136	569101	keystroke_o	o	n/a
285.616	0.135	571232	keystroke_c	c	n/a
285.721	0.09	571442	keystroke_o	o	n/a
286.261	0.075	572522	keystroke_d	d	n/a
286.351	0.1795	572702	keystroke_o	o	n/a
286.4405	0.165	572881	keystroke_n	n	n/a
286.5755	0.12	573151	keystroke_e	e	n/a
286.8005	0.105	573601	keystroke_Key.space	Key.space	n/a
287.101	0.135	574202	keystroke_s	s	n/a
287.221	0.1055	574442	keystroke_t	t	n/a
287.3715	0.225	574743	keystroke_s	s	n/a
287.9105	0.09	575821	keystroke_Key.backspace	Key.backspace	n/a
288.0755	0.12	576151	keystroke_t	t	n/a
288.4655	0.075	576931	keystroke_Key.backspace	Key.backspace	n/a
288.5415	0.119	577083	keystroke_a	a	n/a
288.6455	0.105	577291	keystroke_t	t	n/a
289.126	0.12	578252	keystroke_Key.space	Key.space	n/a
289.816	0.09	579632	keystroke_q	q	n/a
289.936	0.09	579872	keystroke_u	u	n/a
290.086	0.12	580172	keystroke_a	a	n/a
290.221	0.15	580442	keystroke_l	l	n/a
290.311	0.1505	580622	keystroke_i	i	n/a
290.431	0.1045	580862	keystroke_t	t	n/a
290.5955	0.106	581191	keystroke_y	y	n/a
291.0155	0.105	582031	keystroke_Key.enter	Key.enter	n/a
291.128	7.4345	582256	prompt	n/a	kilometers paths suspected vendor\n
291.8855	0.105	583771	keystroke_k	k	n/a
292.0805	0.105	584161	keystroke_i	i	n/a
292.1705	0.151	584341	keystroke_l	l	n/a
292.4415	0.105	584883	keystroke_o	o	n/a
292.6365	0.12	585273	keystroke_m	m	n/a
293.2505	0.12	586501	keystroke_e	e	n/a
293.4755	0.12	586951	keystroke_t	t	n/a
293.5805	0.15	587161	keystroke_e	e	n/a
293.7015	0.104	587403	keystroke_r	r	n/a
293.8505	0.135	587701	keystroke_s	s	n/a
294.0605	0.12	588121	keystroke_Key.space	Key.space	n/a
294.2555	0.105	588511	keystroke_p	p	n/a
294.3765	0.104	588753	keystroke_a	a	n/a
294.4815	0.104	588963	keystroke_t	t	n/a
294.6605	0.105	589321	keystroke_h	h	n/a
294.9465	0.089	589893	keystroke_s	s	n/a
295.066	0.165	590132	keystroke_Key.space	Key.space	n/a
295.456	0.09	590912	keystroke_s	s	n/a
295.531	0.09	591062	keystroke_u	u	n/a
295.651	0.105	591302	keystroke_s	s	n/a
295.846	0.105	591692	keystroke_p	p	n/a
295.996	0.105	591992	keystroke_e	e	n/a
296.236	0.09	592472	keystroke_t	t	n/a
296.611	0.09	593222	keystroke_Key.backspace	Key.backspace	n/a
296.686	0.09	593372	keystroke_c	c	n/a
296.881	0.09	593762	keystroke_t	t	n/a
296.956	0.105	593912	keystroke_e	e	n/a
297.181	0.09	594362	keystroke_d	d	n/a
297.316	0.12	594632	keystroke_Key.space	Key.space	n/a
297.601	0.12	595202	keystroke_v	v	n/a
297.736	0.09	595472	keystroke_e	e	n/a
297.841	0.105	595682	keystroke_n	n	n/a
297.976	0.075	595952	keystroke_d	d	n/a
298.156	0.105	596312	keystroke_o	o	n/a
298.276	0.12	596552	keystroke_r	r	n/a
298.456	0.105	596912	keystroke_Key.enter	Key.enter	n/a
298.569	8.4835	597138	prompt	n/a	moderators reset construction effect\n
299.2055	0.12	598411	keystroke_m	m	n/a
299.2955	0.12	598591	keystroke_o	o	n/a
299.5355	0.06	599071	keystroke_d	d	n/a
299.7305	0.12	599461	keystroke_e	e	n/a
299.8205	0.135	599641	keystroke_r	r	n/a
300.0455	0.12	600091	keystroke_a	a	n/a
300.1805	0.09	600361	keystroke_t	t	n/a
300.2855	0.09	600571	keystroke_i	i	n/a
300.3605	0.195	600721	keystroke_o	o	n/a
300.7505	0.06	601501	keystroke_Key.backspace	Key.backspace	n/a
300.8855	0.075	601771	keystroke_Key.backspace	Key.backspace	n/a
301.1105	0.09	602221	keystroke_o	o	n/a
301.1705	0.105	602341	keystroke_r	r	n/a
301.3205	0.135	602641	keystroke_s	s	n/a
301.4855	0.12	602971	keystroke_Key.space	Key.space	n/a
301.7715	0.089	603543	keystroke_r	r	n/a
301.8455	0.105	603691	keystroke_e	e	n/a
302.0405	0.165	604081	keystroke_s	s	n/a
302.1755	0.12	604351	keystroke_e	e	n/a
302.3415	0.09	604683	keystroke_t	t	n/a
302.4905	0.105	604981	keystroke_Key.space	Key.space	n/a
302.7765	0.105	605553	keystroke_c	c	n/a
302.8505	0.181	605701	keystroke_o	o	n/a
302.9265	0.15	605853	keystroke_n	n	n/a
303.0615	0.104	606123	keystroke_s	s	n/a
303.2855	0.075	606571	keystroke_t	t	n/a
303.4655	0.075	606931	keystroke_r	r	n/a
303.5855	0.075	607171	keystroke_u	u	n/a
303.7205	0.12	607441	keystroke_c	c	n/a
303.9455	0.075	607891	keystroke_t	t	n/a
304.0505	0.09	608101	keystroke_i	i	n/a
304.1255	0.195	608251	keystroke_o	o	n/a
304.2005	0.165	608401	keystroke_n	n	n/a
304.4405	0.135	608881	keystroke_Key.space	Key.space	n/a
304.7705	0.12	609541	keystroke_e	e	n/a
305.0255	0.0905	610051	keystroke_f	f	n/a
305.191	0.09	610382	keystroke_f	f	n/a
305.386	0.12	610772	keystroke_c	c	n/a
305.656	0.075	611312	keystroke_e	e	n/a
306.166	0.075	612332	keystroke_Key.backspace	Key.backspace	n/a
306.316	0.105	612632	keystroke_Key.backspace	Key.backspace	n/a
306.361	0.075	612722	keystroke_e	e	n/a
306.571	0.09	613142	keystroke_c	c	n/a
306.781	0.075	613562	keystroke_t	t	n/a
306.931	0.12	613862	keystroke_Key.enter	Key.enter	n/a
307.0575	6.505	614115	prompt	n/a	ruby lifetime mandatory appearing\n
307.7415	0.074	615483	keystroke_r	r	n/a
307.8305	0.09	615661	keystroke_u	u	n/a
308.0855	0.09	616171	keystroke_b	b	n/a
308.281	0.0895	616562	keystroke_y	y	n/a
308.3255	0.12	616651	keystroke_Key.space	Key.space	n/a
308.5055	0.1955	617011	keystroke_l	l	n/a
308.5955	0.135	617191	keystroke_i	i	n/a
308.7455	0.1505	617491	keystroke_f	f	n/a
308.9105	0.09	617821	keystroke_e	e	n/a
309.391	0.075	618782	keystroke_t	t	n/a
309.496	0.165	618992	keystroke_i	i	n/a
309.601	0.15	619202	keystroke_m	m	n/a
309.766	0.105	619532	keystroke_e	e	n/a
309.931	0.105	619862	keystroke_Key.space	Key.space	n/a
310.546	0.105	621092	keystroke_m	m	n/a
310.666	0.105	621332	keystroke_a	a	n/a
310.786	0.09	621572	keystroke_n	n	n/a
310.951	0.09	621902	keystroke_d	d	n/a
311.1605	0.09	622321	keystroke_a	a	n/a
311.5205	0.09	623041	keystroke_t	t	n/a
311.6555	0.12	623311	keystroke_o	o	n/a
311.7905	0.09	623581	keystroke_r	r	n/a
311.9255	0.15	623851	keystroke_y	y	n/a
312.0305	0.135	624061	keystroke_Key.space	Key.space	n/a
312.4065	0.104	624813	keystroke_a	a	n/a
312.5115	0.104	625023	keystroke_p	p	n/a
312.6605	0.12	625321	keystroke_p	p	n/a
312.7505	0.166	625501	keystroke_e	e	n/a
312.8855	0.075	625771	keystroke_a	a	n/a
312.9305	0.105	625861	keystroke_r	r	n/a
313.0955	0.1055	626191	keystroke_i	i	n/a
313.141	0.165	626282	keystroke_n	n	n/a
313.261	0.12	626522	keystroke_g	g	n/a
313.441	0.12	626882	keystroke_Key.enter	Key.enter	n/a
313.568	7.014	627136	prompt	n/a	improved urgent setting buttons\n
314.191	0.09	628382	keystroke_i	i	n/a
314.236	0.165	628472	keystroke_m	m	n/a
314.356	0.12	628712	keystroke_p	p	n/a
314.491	0.075	628982	keystroke_r	r	n/a
314.5955	0.105	629191	keystroke_o	o	n/a
314.7155	0.105	629431	keystroke_v	v	n/a
314.806	0.1195	629612	keystroke_e	e	n/a
315.0455	0.105	630091	keystroke_d	d	n/a
315.181	0.12	630362	keystroke_Key.space	Key.space	n/a
315.586	0.09	631172	keystroke_u	u	n/a
315.691	0.045	631382	keystroke_d	d	n/a
315.841	0.09	631682	keystroke_r	r	n/a
316.126	0.09	632252	keystroke_g	g	n/a
316.186	0.165	632372	keystroke_e	e	n/a
316.336	0.075	632672	keystroke_t	t	n/a
316.4855	0.09	632971	keystroke_Key.backspace	Key.backspace	n/a
316.6655	0.075	633331	keystroke_Key.backspace	Key.backspace	n/a
316.8155	0.06	633631	keystroke_Key.backspace	Key.backspace	n/a
316.9655	0.075	633931	keystroke_Key.backspace	Key.backspace	n/a
317.1005	0.09	634201	keystroke_Key.backspace	Key.backspace	n/a
317.1305	0.121	634261	keystroke_r	r	n/a
317.3405	0.106	634681	keystroke_g	g	n/a
317.401	0.12	634802	keystroke_e	e	n/a
317.581	0.06	635162	keystroke_n	n	n/a
317.641	0.09	635282	keystroke_t	t	n/a
317.776	0.135	635552	keystroke_Key.space	Key.space	n/a
318.121	0.15	636242	keystroke_s	s	n/a
318.256	0.15	636512	keystroke_e	e	n/a
318.4965	0.089	636993	keystroke_t	t	n/a
318.6755	0.075	637351	keystroke_t	t	n/a
318.7815	0.179	637563	keystroke_i	i	n/a
318.9005	0.165	637801	keystroke_n	n	n/a
319.0215	0.119	638043	keystroke_g	g	n/a
319.1555	0.105	638311	keystroke_Key.space	Key.space	n/a
319.5305	0.091	639061	keystroke_b	b	n/a
319.6065	0.09	639213	keystroke_u	u	n/a
319.8465	0.014	639693	keystroke_t	t	n/a
319.9505	0.075	639901	keystroke_t	t	n/a
320.0265	0.134	640053	keystroke_o	o	n/a
320.1005	0.151	640201	keystroke_n	n	n/a
320.2515	0.119	640503	keystroke_s	s	n/a
320.566	0.015	641132	keystroke_Key.enter	Key.enter	n/a
320.587	6.685	641174	prompt	n/a	failed asking opportunities outer\n
321.226	0.12	642452	keystroke_f	f	n/a
321.466	0.105	642932	keystroke_a	a	n/a
321.586	0.12	643172	keystroke_i	i	n/a
321.661	0.165	643322	keystroke_l	l	n/a
321.841	0.075	643682	keystroke_e	e	n/a
322.051	0.105	644102	keystroke_d	d	n/a
322.201	0.12	644402	keystroke_Key.space	Key.space	n/a
322.546	0.045	645092	keystroke_s	s	n/a
322.681	0.105	645362	keystroke_a	a	n/a
322.891	0.06	645782	keystroke_Key.backspace	Key.backspace	n/a
323.026	0.105	646052	keystroke_Key.backspace	Key.backspace	n/a
323.146	0.09	646292	keystroke_a	a	n/a
323.206	0.15	646412	keystroke_s	s	n/a
323.341	0.105	646682	keystroke_k	k	n/a
323.551	0.18	647102	keystroke_i	i	n/a
323.641	0.165	647282	keystroke_n	n	n/a
323.776	0.09	647552	keystroke_g	g	n/a
323.881	0.105	647762	keystroke_Key.space	Key.space	n/a
324.076	0.135	648152	keystroke_o	o	n/a
324.256	0.075	648512	keystroke_p	p	n/a
324.436	0.135	648872	keystroke_p	p	n/a
324.586	0.105	649172	keystroke_o	o	n/a
324.631	0.135	649262	keystroke_r	r	n/a
325.336	0.105	650672	keystroke_t	t	n/a
325.426	0.09	650852	keystroke_u	u	n/a
325.636	0.12	651272	keystroke_n	n	n/a
325.711	0.105	651422	keystroke_i	i	n/a
325.846	0.105	651692	keystroke_t	t	n/a
325.936	0.105	651872	keystroke_i	i	n/a
326.086	0.105	652172	keystroke_e	e	n/a
326.146	0.15	652292	keystroke_s	s	n/a
326.281	0.105	652562	keystroke_Key.space	Key.space	n/a
326.356	0.165	652712	keystroke_o	o	n/a
326.476	0.12	652952	keystroke_u	u	n/a
326.596	0.105	653192	keystroke_t	t	n/a
326.896	0.15	653792	keystroke_e	e	n/a
327.016	0.12	654032	keystroke_r	r	n/a
327.151	0.12	654302	keystroke_Key.enter	Key.enter	n/a
327.2765	8.606	654553	prompt	n/a	outreach permissions blood execution\n
328.006	0.18	656012	keystroke_o	o	n/a
328.126	0.135	656252	keystroke_u	u	n/a
328.216	0.09	656432	keystroke_t	t	n/a
328.591	0.09	657182	keystroke_r	r	n/a
328.666	0.09	657332	keystroke_e	e	n/a
328.726	0.105	657452	keystroke_a	a	n/a
328.951	0.12	657902	keystroke_d	d	n/a
329.3705	0.075	658741	keystroke_Key.backspace	Key.backspace	n/a
329.4605	0.12	658921	keystroke_c	c	n/a
329.5955	0.135	659191	keystroke_h	h	n/a
329.6855	0.105	659371	keystroke_Key.space	Key.space	n/a
329.9105	0.105	659821	keystroke_p	p	n/a
330.0165	0.149	660033	keystroke_e	e	n/a
330.1355	0.105	660271	keystroke_r	r	n/a
330.3465	0.149	660693	keystroke_m	m	n/a
330.4655	0.12	660931	keystroke_i	i	n/a
330.6305	0.075	661261	keystroke_s	s	n/a
330.8105	0.09	661621	keystroke_s	s	n/a
330.8855	0.18	661771	keystroke_o	o	n/a
331.0055	0.18	662011	keystroke_n	n	n/a
331.2165	0.134	662433	keystroke_s	s	n/a
331.4855	0.045	662971	keystroke_Key.backspace	Key.backspace	n/a
331.6355	0.075	663271	keystroke_Key.backspace	Key.backspace	n/a
331.7705	0.105	663541	keystroke_Key.backspace	Key.backspace	n/a
332.0555	0.135	664111	keystroke_i	i	n/a
332.1605	0.1805	664321	keystroke_o	o	n/a
332.2505	0.151	664501	keystroke_n	n	n/a
332.3715	0.135	664743	keystroke_s	s	n/a
332.5505	0.1045	665101	keystroke_Key.space	Key.space	n/a
333.0165	0.0895	666033	keystroke_b	b	n/a
333.061	0.105	666122	keystroke_l	l	n/a
333.271	0.09	666542	keystroke_o	o	n/a
333.691	0.09	667382	keystroke_o	o	n/a
333.841	0.105	667682	keystroke_d	d	n/a
334.006	0.12	668012	keystroke_Key.space	Key.space	n/a
334.261	0.075	668522	keystroke_e	e	n/a
334.471	0.12	668942	keystroke_x	x	n/a
334.666	0.09	669332	keystroke_e	e	n/a
334.891	0.075	669782	keystroke_c	c	n/a
335.071	0.075	670142	keystroke_u	u	n/a
335.176	0.09	670352	keystroke_t	t	n/a
335.341	0.12	670682	keystroke_i	i	n/a
335.446	0.12	670892	keystroke_o	o	n/a
335.506	0.18	671012	keystroke_n	n	n/a
335.791	0.09	671582	keystroke_Key.enter	Key.enter	n/a
335.8875	9.52	671775	prompt	n/a	connecting antibodies physically carter\n
336.691	0.18	673382	keystroke_c	c	n/a
336.766	0.12	673532	keystroke_o	o	n/a
336.856	0.075	673712	keystroke_n	n	n/a
336.976	0.105	673952	keystroke_n	n	n/a
337.156	0.105	674312	keystroke_n	n	n/a
337.3355	0.09	674671	keystroke_e	e	n/a
337.5905	0.015	675181	keystroke_c	c	n/a
337.6955	0.075	675391	keystroke_Key.backspace	Key.backspace	n/a
337.8305	0.105	675661	keystroke_Key.backspace	Key.backspace	n/a
338.0105	0.105	676021	keystroke_Key.backspace	Key.backspace	n/a
338.1005	0.075	676201	keystroke_e	e	n/a
338.2955	0.09	676591	keystroke_c	c	n/a
338.4605	0.09	676921	keystroke_t	t	n/a
338.581	0.1495	677162	keystroke_i	i	n/a
338.6405	0.165	677281	keystroke_n	n	n/a
338.7905	0.105	677581	keystroke_g	g	n/a
338.9105	0.12	677821	keystroke_Key.space	Key.space	n/a
339.2565	0.104	678513	keystroke_a	a	n/a
339.3465	0.105	678693	keystroke_n	n	n/a
339.7815	0.09	679563	keystroke_t	t	n/a
339.9165	0.135	679833	keystroke_i	i	n/a
340.6955	0.076	681391	keystroke_b	b	n/a
340.7865	0.089	681573	keystroke_o	o	n/a
340.9355	0.09	681871	keystroke_d	d	n/a
341.0105	0.105	682021	keystroke_i	i	n/a
341.1755	0.12	682351	keystroke_e	e	n/a
341.2655	0.135	682531	keystroke_s	s	n/a
341.4755	0.12	682951	keystroke_Key.space	Key.space	n/a
341.6855	0.105	683371	keystroke_s	s	n/a
342.1655	0.075	684331	keystroke_Key.backspace	Key.backspace	n/a
342.391	0.1795	684782	keystroke_p	p	n/a
342.5115	0.105	685023	keystroke_h	h	n/a
342.7215	0.089	685443	keystroke_y	y	n/a
342.9305	0.091	685861	keystroke_s	s	n/a
343.0505	0.121	686101	keystroke_i	i	n/a
343.2455	0.18	686491	keystroke_c	c	n/a
343.3805	0.135	686761	keystroke_a	a	n/a
343.5005	0.075	687001	keystroke_l	l	n/a
343.6655	0.165	687331	keystroke_l	l	n/a
343.8155	0.12	687631	keystroke_y	y	n/a
343.8905	0.135	687781	keystroke_Key.space	Key.space	n/a
344.4305	0.06	688861	keystroke_c	c	n/a
344.476	0.2095	688952	keystroke_a	a	n/a
344.6705	0.105	689341	keystroke_r	r	n/a
344.881	0.1045	689762	keystroke_t	t	n/a
345.0305	0.15	690061	keystroke_e	e	n/a
345.1355	0.151	690271	keystroke_r	r	n/a
345.287	0.119	690574	keystroke_Key.enter	Key.enter	n/a
345.412	5.56	690824	prompt	n/a	sims closed shoe hugo\n
346.096	0.12	692192	keystroke_s	s	n/a
346.246	0.15	692492	keystroke_i	i	n/a
346.351	0.135	692702	keystroke_m	m	n/a
346.5605	0.135	693121	keystroke_s	s	n/a
346.7255	0.135	693451	keystroke_Key.space	Key.space	n/a
347.1305	0.15	694261	keystroke_c	c	n/a
347.2205	0.045	694441	keystroke_o	o	n/a
347.386	0.09	694772	keystroke_l	l	n/a
347.641	0.09	695282	keystroke_Key.backspace	Key.backspace	n/a
347.791	0.059	695582	keystroke_Key.backspace	Key.backspace	n/a
347.986	0.09	695972	keystroke_l	l	n/a
348.181	0.105	696362	keystroke_o	o	n/a
348.301	0.105	696602	keystroke_s	s	n/a
348.361	0.12	696722	keystroke_e	e	n/a
348.601	0.105	697202	keystroke_d	d	n/a
348.751	0.105	697502	keystroke_Key.space	Key.space	n/a
348.961	0.12	697922	keystroke_s	s	n/a
349.066	0.105	698132	keystroke_h	h	n/a
349.126	0.15	698252	keystroke_o	o	n/a
349.291	0.0905	698582	keystroke_e	e	n/a
349.9655	0.105	699931	keystroke_Key.space	Key.space	n/a
350.1155	0.106	700231	keystroke_h	h	n/a
350.3555	0.075	700711	keystroke_u	u	n/a
350.5515	0.089	701103	keystroke_g	g	n/a
350.6415	0.119	701283	keystroke_o	o	n/a
350.8655	0.105	701731	keystroke_Key.enter	Key.enter	n/a
350.9825	7.79	701965	prompt	n/a	diagnosis promoting respondents acute\n
351.691	0.105	703382	keystroke_d	d	n/a
351.811	0.09	703622	keystroke_i	i	n/a
351.946	0.105	703892	keystroke_a	a	n/a
352.411	0.12	704822	keystroke_g	g	n/a
352.621	0.15	705242	keystroke_n	n	n/a
352.726	0.225	705452	keystroke_o	o	n/a
353.4005	0.091	706801	keystroke_s	s	n/a
353.5055	0.09	707011	keystroke_i	i	n/a
353.6105	0.09	707221	keystroke_s	s	n/a
353.7455	0.135	707491	keystroke_Key.space	Key.space	n/a
354.1655	0.09	708331	keystroke_p	p	n/a
354.2855	0.09	708571	keystroke_r	r	n/a
354.3905	0.09	708781	keystroke_o	o	n/a
354.5705	0.105	709141	keystroke_m	m	n/a
354.6455	0.121	709291	keystroke_o	o	n/a
354.7955	0.105	709591	keystroke_t	t	n/a
354.9155	0.195	709831	keystroke_i	i	n/a
355.0355	0.18	710071	keystroke_n	n	n/a
355.1855	0.09	710371	keystroke_g	g	n/a
355.2765	0.104	710553	keystroke_Key.space	Key.space	n/a
355.6505	0.09	711301	keystroke_r	r	n/a
355.7255	0.135	711451	keystroke_e	e	n/a
355.8455	0.15	711691	keystroke_s	s	n/a
355.9655	0.135	711931	keystroke_p	p	n/a
356.0555	0.18	712111	keystroke_o	o	n/a
356.1605	0.15	712321	keystroke_n	n	n/a
356.5205	0.075	713041	keystroke_d	d	n/a
356.7005	0.075	713401	keystroke_e	e	n/a
356.8355	0.105	713671	keystroke_n	n	n/a
356.9705	0.12	713941	keystroke_t	t	n/a
357.1805	0.135	714361	keystroke_s	s	n/a
357.376	0.105	714752	keystroke_Key.space	Key.space	n/a
357.826	0.075	715652	keystroke_a	a	n/a
358.021	0.09	716042	keystroke_c	c	n/a
358.186	0.12	716372	keystroke_u	u	n/a
358.336	0.135	716672	keystroke_t	t	n/a
358.486	0.135	716972	keystroke_e	e	n/a
358.651	0.12	717302	keystroke_Key.enter	Key.enter	n/a
358.781	9.216	717562	prompt	n/a	modification metabolism followed cooked\n
359.416	0.119	718832	keystroke_m	m	n/a
359.505	0.121	719010	keystroke_o	o	n/a
359.641	0.135	719282	keystroke_d	d	n/a
359.76	0.106	719520	keystroke_i	i	n/a
360.21	0.075	720420	keystroke_f	f	n/a
360.316	0.09	720632	keystroke_i	i	n/a
360.436	0.105	720872	keystroke_c	c	n/a
360.525	0.151	721050	keystroke_a	a	n/a
360.676	0.12	721352	keystroke_t	t	n/a
360.751	0.074	721502	keystroke_i	i	n/a
360.81	0.256	721620	keystroke_o	o	n/a
360.931	0.164	721862	keystroke_n	n	n/a
361.035	0.165	722070	keystroke_Key.space	Key.space	n/a
361.3955	0.121	722791	keystroke_m	m	n/a
361.5005	0.075	723001	keystroke_o	o	n/a
361.6355	0.09	723271	keystroke_e	e	n/a
361.8305	0.06	723661	keystroke_Key.backspace	Key.backspace	n/a
361.9655	0.12	723931	keystroke_Key.backspace	Key.backspace	n/a
362.2205	0.1055	724441	keystroke_e	e	n/a
362.581	0.15	725162	keystroke_t	t	n/a
362.716	0.12	725432	keystroke_a	a	n/a
363.151	0.105	726302	keystroke_b	b	n/a
363.376	0.09	726752	keystroke_o	o	n/a
363.586	0.135	727172	keystroke_l	l	n/a
363.661	0.135	727322	keystroke_i	i	n/a
363.825	0.121	727650	keystroke_s	s	n/a
364.035	0.106	728070	keystroke_s	s	n/a
364.186	0.15	728372	keystroke_m	m	n/a
364.485	0.075	728970	keystroke_Key.backspace	Key.backspace	n/a
364.605	0.09	729210	keystroke_Key.backspace	Key.backspace	n/a
364.816	0.119	729632	keystroke_m	m	n/a
364.891	0.149	729782	keystroke_Key.space	Key.space	n/a
365.281	0.1495	730562	keystroke_f	f	n/a
365.4155	0.075	730831	keystroke_o	o	n/a
365.5955	0.09	731191	keystroke_l	l	n/a
365.7455	0.09	731491	keystroke_l	l	n/a
365.9555	0.12	731911	keystroke_o	o	n/a
366.1955	0.105	732391	keystroke_w	w	n/a
366.3155	0.12	732631	keystroke_e	e	n/a
366.6005	0.12	733201	keystroke_d	d	n/a
366.7805	0.12	733561	keystroke_Key.space	Key.space	n/a
367.1405	0.105	734281	keystroke_c	c	n/a
367.2005	0.075	734401	keystroke_o	o	n/a
367.3505	0.105	734701	keystroke_o	o	n/a
367.4105	0.15	734821	keystroke_k	k	n/a
367.5755	0.075	735151	keystroke_e	e	n/a
367.7705	0.105	735541	keystroke_d	d	n/a
367.8755	0.12	735751	keystroke_Key.enter	Key.enter	n/a
368.0015	5.6505	736003	prompt	n/a	album played liked beaches\n
368.6555	0.135	737311	keystroke_a	a	n/a
368.7605	0.12	737521	keystroke_l	l	n/a
369.0755	0.105	738151	keystroke_b	b	n/a
369.1655	0.09	738331	keystroke_u	u	n/a
369.4205	0.135	738841	keystroke_m	m	n/a
369.5255	0.151	739051	keystroke_Key.space	Key.space	n/a
370.0505	0.0905	740101	keystroke_p	p	n/a
370.26	0.12	740520	keystroke_l	l	n/a
370.395	0.105	740790	keystroke_a	a	n/a
370.485	0.105	740970	keystroke_y	y	n/a
370.635	0.075	741270	keystroke_e	e	n/a
370.86	0.09	741720	keystroke_d	d	n/a
370.965	0.12	741930	keystroke_Key.space	Key.space	n/a
371.25	0.135	742500	keystroke_l	l	n/a
371.34	0.1215	742680	keystroke_i	i	n/a
371.5355	0.12	743071	keystroke_k	k	n/a
371.6565	0.059	743313	keystroke_e	e	n/a
371.8655	0.075	743731	keystroke_d	d	n/a
371.9105	0.105	743821	keystroke_Key.space	Key.space	n/a
372.436	0.105	744872	keystroke_b	b	n/a
372.526	0.135	745052	keystroke_e	e	n/a
372.646	0.105	745292	keystroke_a	a	n/a
372.871	0.09	745742	keystroke_c	c	n/a
372.991	0.09	745982	keystroke_h	h	n/a
373.156	0.165	746312	keystroke_e	e	n/a
373.306	0.1495	746612	keystroke_s	s	n/a
373.5455	0.105	747091	keystroke_Key.enter	Key.enter	n/a
373.6565	9.7905	747313	prompt	n/a	baby commissioner maritime organisations\n
374.4155	0.12	748831	keystroke_b	b	n/a
374.5365	0.119	749073	keystroke_a	a	n/a
374.6855	0.105	749371	keystroke_b	b	n/a
375.0005	0.166	750001	keystroke_y	y	n/a
375.1355	0.12	750271	keystroke_Key.space	Key.space	n/a
375.6455	0.135	751291	keystroke_c	c	n/a
375.7055	0.105	751411	keystroke_o	o	n/a
375.7655	0.105	751531	keystroke_m	m	n/a
375.9455	0.105	751891	keystroke_m	m	n/a
376.1255	0.135	752251	keystroke_i	i	n/a
376.8015	0.089	753603	keystroke_s	s	n/a
377.0105	0.075	754021	keystroke_s	s	n/a
377.2055	0.1055	754411	keystroke_i	i	n/a
377.2805	0.2095	754561	keystroke_o	o	n/a
377.386	0.164	754772	keystroke_n	n	n/a
377.715	0.135	755430	keystroke_e	e	n/a
377.82	0.135	755640	keystroke_r	r	n/a
377.985	0.12	755970	keystroke_Key.space	Key.space	n/a
378.495	0.105	756990	keystroke_m	m	n/a
378.585	0.135	757170	keystroke_a	a	n/a
378.675	0.09	757350	keystroke_r	r	n/a
378.795	0.09	757590	keystroke_i	i	n/a
378.975	0.105	757950	keystroke_t	t	n/a
379.185	0.15	758370	keystroke_i	i	n/a
379.275	0.1955	758550	keystroke_n	n	n/a
379.4555	0.105	758911	keystroke_e	e	n/a
379.9655	0.06	759931	keystroke_Key.backspace	Key.backspace	n/a
380.0855	0.09	760171	keystroke_Key.backspace	Key.backspace	n/a
380.2805	0.12	760561	keystroke_m	m	n/a
380.4155	0.105	760831	keystroke_e	e	n/a
380.6255	0.135	761251	keystroke_Key.space	Key.space	n/a
381.1205	0.09	762241	keystroke_o	o	n/a
381.2255	0.091	762451	keystroke_r	r	n/a
381.4955	0.105	762991	keystroke_g	g	n/a
381.5855	0.105	763171	keystroke_a	a	n/a
381.6915	0.119	763383	keystroke_n	n	n/a
381.7655	0.15	763531	keystroke_i	i	n/a
381.9605	0.09	763921	keystroke_z	z	n/a
382.396	0.074	764792	keystroke_Key.backspace	Key.backspace	n/a
382.441	0.119	764882	keystroke_s	s	n/a
382.605	0.105	765210	keystroke_a	a	n/a
382.755	0.106	765510	keystroke_t	t	n/a
382.876	0.089	765752	keystroke_i	i	n/a
382.935	0.135	765870	keystroke_o	o	n/a
382.995	0.15	765990	keystroke_n	n	n/a
383.116	0.119	766232	keystroke_s	s	n/a
383.341	0.104	766682	keystroke_Key.enter	Key.enter	n/a
383.4515	8.4865	766903	prompt	n/a	square articles lamp azerbaijan\n
384.1505	0.075	768301	keystroke_s	s	n/a
384.3905	0.12	768781	keystroke_q	q	n/a
384.5255	0.105	769051	keystroke_u	u	n/a
384.6905	0.121	769381	keystroke_a	a	n/a
384.7805	0.12	769561	keystroke_r	r	n/a
384.8555	0.135	769711	keystroke_e	e	n/a
385.1405	0.09	770281	keystroke_Key.space	Key.space	n/a
385.4255	0.105	770851	keystroke_s	s	n/a
385.9355	0.105	771871	keystroke_Key.backspace	Key.backspace	n/a
386.0255	0.075	772051	keystroke_a	a	n/a
386.0555	0.09	772111	keystroke_r	r	n/a
386.2655	0.075	772531	keystroke_t	t	n/a
386.4005	0.09	772801	keystroke_i	i	n/a
386.5505	0.12	773101	keystroke_c	c	n/a
386.6855	0.135	773371	keystroke_l	l	n/a
386.8215	0.119	773643	keystroke_e	e	n/a
386.9105	0.165	773821	keystroke_s	s	n/a
387.1355	0.12	774271	keystroke_Key.space	Key.space	n/a
387.3005	0.12	774601	keystroke_l	l	n/a
387.4205	0.135	774841	keystroke_a	a	n/a
387.9155	0.15	775831	keystroke_m	m	n/a
388.0355	0.15	776071	keystroke_p	p	n/a
388.4105	0.12	776821	keystroke_Key.space	Key.space	n/a
388.6955	0.09	777391	keystroke_a	a	n/a
389.0405	0.105	778081	keystroke_z	z	n/a
389.5955	0.075	779191	keystroke_e	e	n/a
389.7905	0.12	779581	keystroke_r	r	n/a
390.6605	0.105	781321	keystroke_b	b	n/a
390.7955	0.135	781591	keystroke_a	a	n/a
391.0205	0.135	782041	keystroke_j	j	n/a
391.3055	0.135	782611	keystroke_a	a	n/a
391.561	0.12	783122	keystroke_n	n	n/a
391.831	0.104	783662	keystroke_Key.enter	Key.enter	n/a
391.943	7.735	783886	prompt	n/a	controversial residents she's reserved\n
392.611	0.12	785222	keystroke_c	c	n/a
392.686	0.135	785372	keystroke_o	o	n/a
392.761	0.165	785522	keystroke_n	n	n/a
392.941	0.06	785882	keystroke_t	t	n/a
393.091	0.075	786182	keystroke_r	r	n/a
393.181	0.105	786362	keystroke_o	o	n/a
393.376	0.105	786752	keystroke_v	v	n/a
393.5105	0.165	787021	keystroke_e	e	n/a
393.6455	0.09	787291	keystroke_r	r	n/a
393.9155	0.09	787831	keystroke_s	s	n/a
394.0505	0.09	788101	keystroke_i	i	n/a
394.1705	0.15	788341	keystroke_a	a	n/a
394.3055	0.18	788611	keystroke_l	l	n/a
394.4405	0.12	788881	keystroke_Key.space	Key.space	n/a
394.9055	0.105	789811	keystroke_r	r	n/a
394.9805	0.105	789961	keystroke_e	e	n/a
395.2055	0.12	790411	keystroke_s	s	n/a
395.3705	0.105	790741	keystroke_i	i	n/a
395.4605	0.075	790921	keystroke_d	d	n/a
395.6555	0.09	791311	keystroke_e	e	n/a
395.7905	0.12	791581	keystroke_n	n	n/a
396.0755	0.075	792151	keystroke_t	t	n/a
396.2405	0.15	792481	keystroke_s	s	n/a
396.9605	0.105	793921	keystroke_Key.space	Key.space	n/a
397.1105	0.12	794221	keystroke_s	s	n/a
397.2455	0.1195	794491	keystroke_h	h	n/a
397.485	0.0905	794970	keystroke_e	e	n/a
397.6205	0.12	795241	keystroke_'	'	n/a
397.7705	0.105	795541	keystroke_s	s	n/a
397.9205	0.105	795841	keystroke_Key.space	Key.space	n/a
398.1605	0.135	796321	keystroke_r	r	n/a
398.2655	0.12	796531	keystroke_e	e	n/a
398.5055	0.165	797011	keystroke_s	s	n/a
398.6255	0.135	797251	keystroke_e	e	n/a
398.7155	0.09	797431	keystroke_r	r	n/a
398.9705	0.09	797941	keystroke_v	v	n/a
399.0455	0.105	798091	keystroke_e	e	n/a
399.2855	0.12	798571	keystroke_d	d	n/a
399.5855	0.09	799171	keystroke_Key.enter	Key.enter	n/a
399.683	4.644	799366	prompt	n/a	must've mart bang elder\n
400.426	0.1045	800852	keystroke_m	m	n/a
400.6655	0.075	801331	keystroke_u	u	n/a
400.7855	0.195	801571	keystroke_s	s	n/a
400.9655	0.1055	801931	keystroke_t	t	n/a
401.1005	0.135	802201	keystroke_'	'	n/a
401.3255	0.0905	802651	keystroke_v	v	n/a
401.4005	0.1505	802801	keystroke_e	e	n/a
401.655	0.135	803310	keystroke_Key.space	Key.space	n/a
402.076	0.045	804152	keystroke_m	m	n/a
402.136	0.119	804272	keystroke_a	a	n/a
402.166	0.12	804332	keystroke_r	r	n/a
402.3905	0.075	804781	keystroke_t	t	n/a
402.5105	0.105	805021	keystroke_Key.space	Key.space	n/a
402.6605	0.105	805321	keystroke_b	b	n/a
402.7665	0.104	805533	keystroke_a	a	n/a
402.8855	0.12	805771	keystroke_n	n	n/a
403.0355	0.09	806071	keystroke_g	g	n/a
403.1405	0.12	806281	keystroke_Key.space	Key.space	n/a
403.3655	0.09	806731	keystroke_e	e	n/a
403.4705	0.12	806941	keystroke_l	l	n/a
403.6805	0.105	807361	keystroke_d	d	n/a
403.9055	0.09	807811	keystroke_e	e	n/a
403.9655	0.15	807931	keystroke_r	r	n/a
404.2055	0.12	808411	keystroke_Key.enter	Key.enter	n/a
404.3325	9.4905	808665	prompt	n/a	bicycle prescription also spam\n
405.0155	0.09	810031	keystroke_b	b	n/a
405.1355	0.09	810271	keystroke_y	y	n/a
405.2705	0.075	810541	keystroke_b	b	n/a
405.556	0.075	811112	keystroke_Key.backspace	Key.backspace	n/a
405.691	0.09	811382	keystroke_Key.backspace	Key.backspace	n/a
405.871	0.075	811742	keystroke_i	i	n/a
405.991	0.09	811982	keystroke_b	b	n/a
406.186	0.105	812372	keystroke_y	y	n/a
406.501	0.15	813002	keystroke_c	c	n/a
406.666	0.075	813332	keystroke_l	l	n/a
406.906	0.06	813812	keystroke_Key.backspace	Key.backspace	n/a
407.071	0.075	814142	keystroke_Key.backspace	Key.backspace	n/a
407.251	0.045	814502	keystroke_Key.backspace	Key.backspace	n/a
407.3855	0.09	814771	keystroke_Key.backspace	Key.backspace	n/a
407.4605	0.12	814921	keystroke_c	c	n/a
407.6405	0.075	815281	keystroke_y	y	n/a
408.0455	0.09	816091	keystroke_c	c	n/a
408.5705	0.105	817141	keystroke_l	l	n/a
408.8705	0.105	817741	keystroke_Key.space	Key.space	n/a
409.2755	0.09	818551	keystroke_Key.backspace	Key.backspace	n/a
409.891	0.15	819782	keystroke_e	e	n/a
410.025	0.106	820050	keystroke_Key.space	Key.space	n/a
410.146	0.12	820292	keystroke_p	p	n/a
410.251	0.09	820502	keystroke_r	r	n/a
410.311	0.105	820622	keystroke_e	e	n/a
410.566	0.195	821132	keystroke_s	s	n/a
411.016	0.105	822032	keystroke_c	c	n/a
411.271	0.075	822542	keystroke_r	r	n/a
411.376	0.12	822752	keystroke_i	i	n/a
411.436	0.105	822872	keystroke_p	p	n/a
411.556	0.09	823112	keystroke_t	t	n/a
411.675	0.106	823350	keystroke_i	i	n/a
411.72	0.241	823440	keystroke_o	o	n/a
411.9	0.195	823800	keystroke_n	n	n/a
412.336	0.089	824672	keystroke_Key.space	Key.space	n/a
412.486	0.135	824972	keystroke_a	a	n/a
412.651	0.105	825302	keystroke_l	l	n/a
412.726	0.12	825452	keystroke_s	s	n/a
412.876	0.12	825752	keystroke_o	o	n/a
412.935	0.135	825870	keystroke_Key.space	Key.space	n/a
413.086	0.105	826172	keystroke_s	s	n/a
413.221	0.09	826442	keystroke_p	p	n/a
413.326	0.15	826652	keystroke_a	a	n/a
413.461	0.149	826922	keystroke_m	m	n/a
413.716	0.104	827432	keystroke_Key.enter	Key.enter	n/a
413.829	7.464	827658	prompt	n/a	conflicts cars adapted assigned\n
414.451	0.119	828902	keystroke_c	c	n/a
414.511	0.135	829022	keystroke_o	o	n/a
414.586	0.15	829172	keystroke_n	n	n/a
414.796	0.089	829592	keystroke_f	f	n/a
414.901	0.15	829802	keystroke_l	l	n/a
414.991	0.135	829982	keystroke_i	i	n/a
415.095	0.136	830190	keystroke_c	c	n/a
415.395	0.075	830790	keystroke_t	t	n/a
415.575	0.166	831150	keystroke_s	s	n/a
415.755	0.1055	831510	keystroke_Key.space	Key.space	n/a
416.175	0.135	832350	keystroke_c	c	n/a
416.325	0.135	832650	keystroke_a	a	n/a
416.505	0.105	833010	keystroke_r	r	n/a
416.7	0.15	833400	keystroke_s	s	n/a
416.94	0.105	833880	keystroke_Key.space	Key.space	n/a
417.3	0.076	834600	keystroke_s	s	n/a
417.361	0.18	834722	keystroke_a	a	n/a
417.6755	0.06	835351	keystroke_Key.backspace	Key.backspace	n/a
417.8105	0.105	835621	keystroke_Key.backspace	Key.backspace	n/a
417.8855	0.12	835771	keystroke_a	a	n/a
417.9605	0.135	835921	keystroke_d	d	n/a
418.395	0.15	836790	keystroke_p	p	n/a
418.86	0.075	837720	keystroke_Key.backspace	Key.backspace	n/a
419.025	0.121	838050	keystroke_a	a	n/a
419.116	0.12	838232	keystroke_p	p	n/a
419.28	0.121	838560	keystroke_t	t	n/a
419.386	0.105	838772	keystroke_e	e	n/a
419.6255	0.0895	839251	keystroke_d	d	n/a
419.745	0.105	839490	keystroke_Key.space	Key.space	n/a
420.045	0.105	840090	keystroke_a	a	n/a
420.21	0.09	840420	keystroke_s	s	n/a
420.375	0.09	840750	keystroke_s	s	n/a
420.48	0.12	840960	keystroke_i	i	n/a
420.615	0.09	841230	keystroke_g	g	n/a
420.735	0.105	841470	keystroke_n	n	n/a
420.855	0.075	841710	keystroke_e	e	n/a
421.05	0.135	842100	keystroke_d	d	n/a
421.17	0.12	842340	keystroke_Key.enter	Key.enter	n/a
421.2975	7.9	842595	prompt	n/a	authentic natural pilot hitachi\n
421.9055	0.12	843811	keystroke_a	a	n/a
422.0105	0.105	844021	keystroke_u	u	n/a
422.1755	0.105	844351	keystroke_t	t	n/a
422.2955	0.0745	844591	keystroke_h	h	n/a
422.386	0.119	844772	keystroke_e	e	n/a
422.565	0.12	845130	keystroke_n	n	n/a
422.986	0.074	845972	keystroke_t	t	n/a
423.105	0.09	846210	keystroke_i	i	n/a
423.225	0.12	846450	keystroke_c	c	n/a
423.45	0.105	846900	keystroke_Key.space	Key.space	n/a
423.7355	0.105	847471	keystroke_n	n	n/a
423.8705	0.135	847741	keystroke_a	a	n/a
424.0205	0.105	848041	keystroke_t	t	n/a
424.1855	0.09	848371	keystroke_u	u	n/a
424.3205	0.15	848641	keystroke_r	r	n/a
424.4555	0.165	848911	keystroke_a	a	n/a
424.6055	0.135	849211	keystroke_l	l	n/a
424.7105	0.105	849421	keystroke_Key.space	Key.space	n/a
425.2655	0.135	850531	keystroke_p	p	n/a
425.3705	0.105	850741	keystroke_i	i	n/a
425.4905	0.06	850981	keystroke_c	c	n/a
425.67	0.135	851340	keystroke_l	l	n/a
426.24	0.06	852480	keystroke_Key.backspace	Key.backspace	n/a
426.375	0.075	852750	keystroke_Key.backspace	Key.backspace	n/a
426.6	0.105	853200	keystroke_l	l	n/a
426.811	0.089	853622	keystroke_o	o	n/a
426.916	0.104	853832	keystroke_t	t	n/a
427.291	0.1045	854582	keystroke_Key.space	Key.space	n/a
427.6505	0.12	855301	keystroke_h	h	n/a
427.7405	0.135	855481	keystroke_i	i	n/a
428.1455	0.12	856291	keystroke_t	t	n/a
428.2955	0.12	856591	keystroke_a	a	n/a
428.6555	0.135	857311	keystroke_c	c	n/a
428.7605	0.12	857521	keystroke_h	h	n/a
428.8355	0.105	857671	keystroke_i	i	n/a
429.0905	0.105	858181	keystroke_Key.enter	Key.enter	n/a
429.203	6.309	858406	prompt	n/a	soil onto bedroom contained\n
429.7955	0.18	859591	keystroke_s	s	n/a
429.9005	0.135	859801	keystroke_o	o	n/a
430.1405	0.045	860281	keystroke_l	l	n/a
430.1555	0.18	860311	keystroke_i	i	n/a
430.8905	0.06	861781	keystroke_Key.backspace	Key.backspace	n/a
431.0105	0.09	862021	keystroke_Key.backspace	Key.backspace	n/a
431.2655	0.135	862531	keystroke_i	i	n/a
431.3555	0.18	862711	keystroke_l	l	n/a
431.5505	0.105	863101	keystroke_Key.space	Key.space	n/a
431.76	0.135	863520	keystroke_o	o	n/a
431.85	0.136	863700	keystroke_n	n	n/a
432.016	0.105	864032	keystroke_t	t	n/a
432.105	0.2105	864210	keystroke_o	o	n/a
432.27	0.1205	864540	keystroke_Key.space	Key.space	n/a
432.5555	0.105	865111	keystroke_b	b	n/a
432.6455	0.105	865291	keystroke_e	e	n/a
432.8705	0.105	865741	keystroke_d	d	n/a
433.2455	0.105	866491	keystroke_r	r	n/a
433.4255	0.06	866851	keystroke_o	o	n/a
433.5755	0.1355	867151	keystroke_o	o	n/a
433.6505	0.1495	867301	keystroke_m	m	n/a
433.77	0.135	867540	keystroke_Key.space	Key.space	n/a
434.22	0.135	868440	keystroke_c	c	n/a
434.311	0.134	868622	keystroke_o	o	n/a
434.386	0.15	868772	keystroke_n	n	n/a
434.611	0.119	869222	keystroke_t	t	n/a
434.716	0.12	869432	keystroke_a	a	n/a
434.85	0.136	869700	keystroke_i	i	n/a
434.911	0.135	869822	keystroke_n	n	n/a
435.03	0.076	870060	keystroke_e	e	n/a
435.255	0.12	870510	keystroke_d	d	n/a
435.406	0.104	870812	keystroke_Key.enter	Key.enter	n/a
435.519	11.1685	871038	prompt	n/a	accounting notification lightbox compound\n
436.2305	0.105	872461	keystroke_a	a	n/a
436.4405	0.09	872881	keystroke_c	c	n/a
436.6055	0.105	873211	keystroke_c	c	n/a
436.6955	0.12	873391	keystroke_o	o	n/a
436.7555	0.105	873511	keystroke_u	u	n/a
436.9805	0.105	873961	keystroke_n	n	n/a
437.1155	0.06	874231	keystroke_t	t	n/a
437.2355	0.1805	874471	keystroke_i	i	n/a
437.326	0.24	874652	keystroke_n	n	n/a
437.446	0.09	874892	keystroke_g	g	n/a
437.551	0.12	875102	keystroke_Key.space	Key.space	n/a
437.701	0.1495	875402	keystroke_n	n	n/a
437.7905	0.135	875581	keystroke_o	o	n/a
437.9405	0.09	875881	keystroke_t	t	n/a
438.0455	0.075	876091	keystroke_i	i	n/a
438.2415	0.059	876483	keystroke_f	f	n/a
438.2855	0.09	876571	keystroke_i	i	n/a
438.4355	0.09	876871	keystroke_c	c	n/a
438.4955	0.135	876991	keystroke_a	a	n/a
438.6755	0.12	877351	keystroke_i	i	n/a
438.7205	0.105	877441	keystroke_t	t	n/a
438.7805	0.165	877561	keystroke_o	o	n/a
438.8855	0.195	877771	keystroke_n	n	n/a
439.0955	0.165	878191	keystroke_Key.space	Key.space	n/a
439.7405	0.015	879481	keystroke_Key.backspace	Key.backspace	n/a
439.7855	0.075	879571	keystroke_Key.backspace	Key.backspace	n/a
439.9355	0.09	879871	keystroke_Key.backspace	Key.backspace	n/a
440.1155	0.075	880231	keystroke_Key.backspace	Key.backspace	n/a
440.2955	0.075	880591	keystroke_Key.backspace	Key.backspace	n/a
440.4455	0.09	880891	keystroke_Key.backspace	Key.backspace	n/a
440.6255	0.075	881251	keystroke_Key.backspace	Key.backspace	n/a
440.7905	0.06	881581	keystroke_Key.backspace	Key.backspace	n/a
440.9405	0.09	881881	keystroke_Key.backspace	Key.backspace	n/a
441.5855	0.075	883171	keystroke_f	f	n/a
441.6755	0.1055	883351	keystroke_i	i	n/a
441.826	0.105	883652	keystroke_c	c	n/a
441.946	0.12	883892	keystroke_a	a	n/a
442.066	0.105	884132	keystroke_t	t	n/a
442.156	0.105	884312	keystroke_i	i	n/a
442.231	0.2095	884462	keystroke_o	o	n/a
442.3205	0.165	884641	keystroke_n	n	n/a
442.4555	0.12	884911	keystroke_Key.space	Key.space	n/a
442.7405	0.15	885481	keystroke_l	l	n/a
442.8755	0.12	885751	keystroke_i	i	n/a
443.0105	0.09	886021	keystroke_g	g	n/a
443.1005	0.105	886201	keystroke_h	h	n/a
443.2355	0.09	886471	keystroke_t	t	n/a
444.196	0.105	888392	keystroke_b	b	n/a
444.331	0.12	888662	keystroke_o	o	n/a
444.676	0.105	889352	keystroke_x	x	n/a
445.081	0.105	890162	keystroke_Key.space	Key.space	n/a
445.276	0.15	890552	keystroke_c	c	n/a
445.396	0.075	890792	keystroke_o	o	n/a
445.441	0.12	890882	keystroke_m	m	n/a
445.591	0.149	891182	keystroke_p	p	n/a
445.935	0.12	891870	keystroke_o	o	n/a
445.995	0.105	891990	keystroke_u	u	n/a
446.235	0.09	892470	keystroke_n	n	n/a
446.595	0.09	893190	keystroke_Key.enter	Key.enter	n/a
446.61	0.12	893220	keystroke_d	d	n/a
446.6915	5.6355	893383	prompt	n/a	biblical sick we've cord\n
447.78	0.105	895560	keystroke_b	b	n/a
447.87	0.09	895740	keystroke_i	i	n/a
448.11	0.136	896220	keystroke_b	b	n/a
448.59	0.165	897180	keystroke_l	l	n/a
448.725	0.135	897450	keystroke_i	i	n/a
448.92	0.135	897840	keystroke_c	c	n/a
449.07	0.12	898140	keystroke_a	a	n/a
449.22	0.15	898440	keystroke_l	l	n/a
449.325	0.15	898650	keystroke_Key.space	Key.space	n/a
449.64	0.121	899280	keystroke_s	s	n/a
449.776	0.074	899552	keystroke_i	i	n/a
449.911	0.105	899822	keystroke_c	c	n/a
450.046	0.134	900092	keystroke_k	k	n/a
450.12	0.12	900240	keystroke_Key.space	Key.space	n/a
450.361	0.164	900722	keystroke_w	w	n/a
450.496	0.134	900992	keystroke_e	e	n/a
450.645	0.136	901290	keystroke_'	'	n/a
450.826	0.135	901652	keystroke_v	v	n/a
450.946	0.105	901892	keystroke_e	e	n/a
451.095	0.105	902190	keystroke_Key.space	Key.space	n/a
451.546	0.105	903092	keystroke_c	c	n/a
451.666	0.1045	903332	keystroke_o	o	n/a
451.8455	0.06	903691	keystroke_r	r	n/a
452.0405	0.195	904081	keystroke_d	d	n/a
452.2205	0.1045	904441	keystroke_Key.enter	Key.enter	n/a
452.333	14.289	904666	prompt	n/a	flavor tool listprice juvenile\n
453.016	0.104	906032	keystroke_f	f	n/a
453.121	0.119	906242	keystroke_l	l	n/a
453.285	0.09	906570	keystroke_a	a	n/a
453.465	0.105	906930	keystroke_v	v	n/a
453.6	0.12	907200	keystroke_o	o	n/a
453.7955	0.0895	907591	keystroke_r	r	n/a
454.08	0.12	908160	keystroke_Key.space	Key.space	n/a
454.485	0.09	908970	keystroke_t	t	n/a
454.576	0.074	909152	keystroke_o	o	n/a
454.785	0.06	909570	keystroke_o	o	n/a
455.13	0.15	910260	keystroke_l	l	n/a
455.22	0.12	910440	keystroke_Key.space	Key.space	n/a
455.58	0.135	911160	keystroke_l	l	n/a
455.67	0.1505	911340	keystroke_i	i	n/a
455.9405	0.12	911881	keystroke_p	p	n/a
456.2555	0.09	912511	keystroke_Key.backspace	Key.backspace	n/a
456.3305	0.135	912661	keystroke_s	s	n/a
456.5705	0.165	913141	keystroke_p	p	n/a
456.9605	0.075	913921	keystroke_Key.backspace	Key.backspace	n/a
457.0655	0.105	914131	keystroke_t	t	n/a
457.395	0.105	914790	keystroke_p	p	n/a
457.965	0.076	915930	keystroke_r	r	n/a
458.055	0.106	916110	keystroke_i	i	n/a
458.191	0.12	916382	keystroke_c	c	n/a
458.416	0.09	916832	keystroke_e	e	n/a
458.506	0.164	917012	keystroke_Key.space	Key.space	n/a
458.656	0.105	917312	keystroke_j	j	n/a
458.85	0.091	917700	keystroke_u	u	n/a
459.091	0.09	918182	keystroke_n	n	n/a
459.165	0.121	918330	keystroke_e	e	n/a
459.585	0.09	919170	keystroke_Key.backspace	Key.backspace	n/a
459.75	0.105	919500	keystroke_Key.backspace	Key.backspace	n/a
459.901	0.134	919802	keystroke_e	e	n/a
460.05	0.15	920100	keystroke_n	n	n/a
460.651	0.135	921302	keystroke_v	v	n/a
461.1	0.09	922200	keystroke_Key.backspace	Key.backspace	n/a
461.685	0.12	923370	keystroke_i	i	n/a
461.91	0.18	923820	keystroke_l	l	n/a
462.4055	0.075	924811	keystroke_Key.backspace	Key.backspace	n/a
462.5705	0.06	925141	keystroke_Key.backspace	Key.backspace	n/a
462.7055	0.12	925411	keystroke_Key.backspace	Key.backspace	n/a
463.2605	0.105	926521	keystroke_Key.backspace	Key.backspace	n/a
463.8	0.03	927600	keystroke_v	v	n/a
463.95	0.12	927900	keystroke_v	v	n/a
464.355	0.09	928710	keystroke_Key.backspace	Key.backspace	n/a
464.491	0.12	928982	keystroke_e	e	n/a
464.625	0.105	929250	keystroke_n	n	n/a
464.971	0.119	929942	keystroke_i	i	n/a
465.105	0.165	930210	keystroke_l	l	n/a
465.285	0.09	930570	keystroke_e	e	n/a
466.4855	0.134	932971	keystroke_Key.enter	Key.enter	n/a
466.627	10.885	933254	prompt	n/a	initiative ballot physics ready\n
467.325	0.135	934650	keystroke_i	i	n/a
467.43	0.1655	934860	keystroke_n	n	n/a
467.58	0.1205	935160	keystroke_i	i	n/a
467.7905	0.1345	935581	keystroke_t	t	n/a
467.94	0.135	935880	keystroke_a	a	n/a
468.135	0.105	936270	keystroke_t	t	n/a
468.27	0.12	936540	keystroke_i	i	n/a
468.405	0.135	936810	keystroke_v	v	n/a
468.496	0.15	936992	keystroke_e	e	n/a
468.705	0.135	937410	keystroke_Key.space	Key.space	n/a
469.095	0.106	938190	keystroke_b	b	n/a
469.23	0.12	938460	keystroke_l	l	n/a
469.8	0.045	939600	keystroke_Key.backspace	Key.backspace	n/a
469.86	0.075	939720	keystroke_a	a	n/a
469.965	0.09	939930	keystroke_l	l	n/a
470.115	0.09	940230	keystroke_l	l	n/a
470.295	0.091	940590	keystroke_o	o	n/a
470.415	0.076	940830	keystroke_t	t	n/a
470.565	0.12	941130	keystroke_Key.space	Key.space	n/a
470.79	0.105	941580	keystroke_p	p	n/a
471.075	0.075	942150	keystroke_h	h	n/a
471.285	0.075	942570	keystroke_y	y	n/a
471.585	0.09	943170	keystroke_s	s	n/a
471.69	0.105	943380	keystroke_i	i	n/a
471.8405	0.075	943681	keystroke_c	c	n/a
472.0205	0.105	944041	keystroke_s	s	n/a
472.3055	0.1195	944611	keystroke_Key.space	Key.space	n/a
472.561	0.074	945122	keystroke_r	r	n/a
472.606	0.104	945212	keystroke_e	e	n/a
472.665	0.105	945330	keystroke_a	a	n/a
472.83	0.195	945660	keystroke_d	d	n/a
472.965	0.135	945930	keystroke_y	y	n/a
477.4535	0.057	954907	keystroke_Key.enter	Key.enter	n/a
477.518	7.0545	955036	prompt	n/a	vatican reduces ports control\n
478.2605	0.135	956521	keystroke_v	v	n/a
478.3655	0.15	956731	keystroke_a	a	n/a
478.6955	0.135	957391	keystroke_i	i	n/a
479.1905	0.06	958381	keystroke_Key.backspace	Key.backspace	n/a
479.2805	0.09	958561	keystroke_t	t	n/a
479.4155	0.105	958831	keystroke_i	i	n/a
479.5805	0.15	959161	keystroke_c	c	n/a
479.6705	0.135	959341	keystroke_a	a	n/a
479.8205	0.12	959641	keystroke_n	n	n/a
479.8955	0.12	959791	keystroke_Key.space	Key.space	n/a
480.2855	0.09	960571	keystroke_r	r	n/a
480.3455	0.105	960691	keystroke_e	e	n/a
480.5855	0.09	961171	keystroke_d	d	n/a
480.7055	0.105	961411	keystroke_u	u	n/a
480.8555	0.12	961711	keystroke_c	c	n/a
481.3805	0.09	962761	keystroke_e	e	n/a
481.5605	0.135	963121	keystroke_s	s	n/a
481.7705	0.12	963541	keystroke_Key.space	Key.space	n/a
482.1755	0.1355	964351	keystroke_p	p	n/a
482.2805	0.1345	964561	keystroke_o	o	n/a
482.4	0.09	964800	keystroke_r	r	n/a
482.595	0.09	965190	keystroke_t	t	n/a
482.775	0.105	965550	keystroke_s	s	n/a
482.91	0.105	965820	keystroke_Key.space	Key.space	n/a
483.136	0.104	966272	keystroke_c	c	n/a
483.165	0.15	966330	keystroke_o	o	n/a
483.27	0.135	966540	keystroke_n	n	n/a
483.42	0.075	966840	keystroke_t	t	n/a
483.615	0.09	967230	keystroke_r	r	n/a
483.735	0.105	967470	keystroke_o	o	n/a
484.2	0.106	968400	keystroke_l	l	n/a
484.485	0.075	968970	keystroke_Key.enter	Key.enter	n/a
484.581	5.696	969162	prompt	n/a	foto as identifier edward\n
485.206	0.09	970412	keystroke_f	f	n/a
485.281	0.09	970562	keystroke_o	o	n/a
485.43	0.09	970860	keystroke_t	t	n/a
485.506	0.105	971012	keystroke_o	o	n/a
485.715	0.105	971430	keystroke_Key.space	Key.space	n/a
485.836	0.15	971672	keystroke_a	a	n/a
485.926	0.134	971852	keystroke_s	s	n/a
486.075	0.075	972150	keystroke_Key.space	Key.space	n/a
486.225	0.12	972450	keystroke_i	i	n/a
486.361	0.044	972722	keystroke_d	d	n/a
486.525	0.075	973050	keystroke_e	e	n/a
486.615	0.12	973230	keystroke_n	n	n/a
486.81	0.12	973620	keystroke_t	t	n/a
487.17	0.1355	974340	keystroke_i	i	n/a
487.8455	0.105	975691	keystroke_f	f	n/a
487.9655	0.09	975931	keystroke_i	i	n/a
488.2205	0.15	976441	keystroke_e	e	n/a
488.3555	0.105	976711	keystroke_r	r	n/a
488.5205	0.105	977041	keystroke_Key.space	Key.space	n/a
488.7905	0.09	977581	keystroke_e	e	n/a
489.0455	0.075	978091	keystroke_d	d	n/a
489.5105	0.165	979021	keystroke_w	w	n/a
489.6305	0.12	979261	keystroke_a	a	n/a
489.6905	0.09	979381	keystroke_r	r	n/a
489.8705	0.12	979741	keystroke_d	d	n/a
490.1705	0.105	980341	keystroke_Key.enter	Key.enter	n/a
490.2815	7.0905	980563	prompt	n/a	adaptor staying particles addition\n
491.0405	0.12	982081	keystroke_a	a	n/a
491.1455	0.135	982291	keystroke_d	d	n/a
491.6105	0.105	983221	keystroke_a	a	n/a
491.7905	0.105	983581	keystroke_p	p	n/a
491.941	0.09	983882	keystroke_t	t	n/a
492.9755	0.12	985951	keystroke_o	o	n/a
493.1555	0.075	986311	keystroke_r	r	n/a
493.2755	0.105	986551	keystroke_Key.space	Key.space	n/a
493.4255	0.135	986851	keystroke_s	s	n/a
493.6205	0.12	987241	keystroke_t	t	n/a
493.7255	0.15	987451	keystroke_a	a	n/a
493.8605	0.1055	987721	keystroke_y	y	n/a
494.131	0.15	988262	keystroke_i	i	n/a
494.221	0.15	988442	keystroke_n	n	n/a
494.296	0.075	988592	keystroke_g	g	n/a
494.4	0.12	988800	keystroke_Key.space	Key.space	n/a
494.506	0.105	989012	keystroke_p	p	n/a
494.596	0.105	989192	keystroke_a	a	n/a
494.641	0.105	989282	keystroke_r	r	n/a
494.851	0.075	989702	keystroke_t	t	n/a
494.986	0.09	989972	keystroke_i	i	n/a
495.091	0.12	990182	keystroke_c	c	n/a
495.271	0.104	990542	keystroke_l	l	n/a
495.406	0.135	990812	keystroke_e	e	n/a
495.511	0.135	991022	keystroke_s	s	n/a
495.811	0.104	991622	keystroke_Key.space	Key.space	n/a
496.2005	0.09	992401	keystroke_a	a	n/a
496.3505	0.075	992701	keystroke_d	d	n/a
496.5005	0.075	993001	keystroke_d	d	n/a
496.6205	0.075	993241	keystroke_i	i	n/a
496.7705	0.075	993541	keystroke_t	t	n/a
496.8305	0.12	993661	keystroke_i	i	n/a
496.9355	0.135	993871	keystroke_o	o	n/a
496.9955	0.18	993991	keystroke_n	n	n/a
497.2505	0.12	994501	keystroke_Key.enter	Key.enter	n/a
497.3775	7.0445	994755	prompt	n/a	presentations urgent cylinder dining\n
498	0.106	996000	keystroke_p	p	n/a
498.12	0.105	996240	keystroke_r	r	n/a
498.195	0.165	996390	keystroke_e	e	n/a
498.346	0.164	996692	keystroke_s	s	n/a
498.465	0.105	996930	keystroke_e	e	n/a
498.585	0.121	997170	keystroke_n	n	n/a
498.72	0.091	997440	keystroke_t	t	n/a
498.811	0.134	997622	keystroke_a	a	n/a
498.931	0.104	997862	keystroke_t	t	n/a
499.065	0.091	998130	keystroke_i	i	n/a
499.14	0.1955	998280	keystroke_o	o	n/a
499.2605	0.15	998521	keystroke_n	n	n/a
499.3955	0.12	998791	keystroke_s	s	n/a
499.6805	0.105	999361	keystroke_Key.space	Key.space	n/a
499.996	0.06	999992	keystroke_u	u	n/a
500.086	0.09	1000172	keystroke_r	r	n/a
500.341	0.075	1000682	keystroke_g	g	n/a
500.401	0.135	1000802	keystroke_e	e	n/a
500.641	0.18	1001282	keystroke_n	n	n/a
500.836	0.105	1001672	keystroke_t	t	n/a
501.075	0.106	1002150	keystroke_Key.space	Key.space	n/a
501.721	0.135	1003442	keystroke_c	c	n/a
501.901	0.134	1003802	keystroke_y	y	n/a
502.5455	0.06	1005091	keystroke_l	l	n/a
502.5905	0.09	1005181	keystroke_i	i	n/a
