onset	duration	sample	value	key	prompt_text
7.4015	21.916	14803	prompt	n/a	the quick brown fox jumps over a lazy dog\n
9.4865	0	18973	keystroke	t	n/a
9.6485	0.1205	19297	keystroke	h	n/a
9.844	0.0595	19688	keystroke	e	n/a
9.9935	0.12	19987	keystroke	Key.space	n/a
10.3845	0.0595	20769	keystroke	w	n/a
10.519	0.089	21038	keystroke	u	n/a
10.564	0.15	21128	keystroke	i	n/a
10.7585	0.075	21517	keystroke	c	n/a
10.8785	0.1505	21757	keystroke	k	n/a
10.9685	0.105	21937	keystroke	Key.space	n/a
11.1935	0.061	22387	keystroke	b	n/a
11.4045	0.0895	22809	keystroke	r	n/a
11.5085	0.15	23017	keystroke	o	n/a
11.629	0.105	23258	keystroke	w	n/a
11.7485	0.181	23497	keystroke	n	n/a
11.914	0.1645	23828	keystroke	Key.space	n/a
12.1835	0.105	24367	keystroke	f	n/a
12.319	0.1645	24638	keystroke	o	n/a
12.784	0.09	25568	keystroke	x	n/a
12.9185	0.1355	25837	keystroke	Key.space	n/a
13.3235	0.0755	26647	keystroke	j	n/a
13.384	0.195	26768	keystroke	o	n/a
13.593	0.0305	27186	keystroke	o	n/a
13.609	0.105	27218	keystroke	m	n/a
13.7885	0.166	27577	keystroke	p	n/a
14.0285	0.0605	28057	keystroke	s	n/a
14.149	0.0895	28298	keystroke	Key.space	n/a
14.2535	0.151	28507	keystroke	o	n/a
14.4345	0.0895	28869	keystroke	v	n/a
16.369	0.0895	32738	keystroke	Key.backspace	n/a
16.984	0.0745	33968	keystroke	Key.backspace	n/a
17.2085	0.075	34417	keystroke	Key.backspace	n/a
18.259	0.0595	36518	keystroke	Key.backspace	n/a
18.4535	0.1055	36907	keystroke	Key.backspace	n/a
19.2495	0.074	38499	keystroke	q	n/a
19.504	0.0595	39008	keystroke	u	n/a
19.519	0.18	39038	keystroke	i	n/a
19.7135	0.075	39427	keystroke	c	n/a
19.8345	0.1645	39669	keystroke	k	n/a
20.1335	0.135	40267	keystroke	Key.space	n/a
20.8395	0.0585	41679	keystroke	f	n/a
21.2735	0.09	42547	keystroke	Key.backspace	n/a
21.3485	0.0455	42697	keystroke	b	n/a
21.559	0.0755	43118	keystroke	r	n/a
21.6495	0.12	43299	keystroke	o	n/a
22.324	0.0595	44648	keystroke	w	n/a
22.4135	0.1055	44827	keystroke	n	n/a
22.594	0.0895	45188	keystroke	Key.space	n/a
23.0885	0.076	46177	keystroke	f	n/a
23.209	0.135	46418	keystroke	o	n/a
23.4795	0.044	46959	keystroke	x	n/a
24.184	0.09	48368	keystroke	Key.space	n/a
24.334	0.0745	48668	keystroke	j	n/a
24.574	0.075	49148	keystroke	u	n/a
24.919	0.12	49838	keystroke	m	n/a
25.1745	0.075	50349	keystroke	p	n/a
25.3385	0.0605	50677	keystroke	s	n/a
25.4585	0.0755	50917	keystroke	Key.space	n/a
25.549	0.1345	51098	keystroke	o	n/a
25.654	0.0755	51308	keystroke	v	n/a
25.849	0.09	51698	keystroke	e	n/a
26.044	0.075	52088	keystroke	r	n/a
26.134	0.089	52268	keystroke	Key.space	n/a
26.2695	0.1045	52539	keystroke	a	n/a
26.389	0.0745	52778	keystroke	Key.space	n/a
26.5535	0.1505	53107	keystroke	l	n/a
26.6585	0.0905	53317	keystroke	a	n/a
26.9595	0.0895	53919	keystroke	z	n/a
27.139	0.09	54278	keystroke	y	n/a
27.379	0.09	54758	keystroke	Key.space	n/a
28.294	0.06	56588	keystroke	d	n/a
28.444	0.135	56888	keystroke	o	n/a
28.564	0.0745	57128	keystroke	g	n/a
29.209	0.105	58418	keystroke	Key.enter	n/a
29.323	10.343	58646	prompt	n/a	gray allergy location threshold\n
30.6495	0.0745	61299	keystroke	g	n/a
31.0535	0.12	62107	keystroke	r	n/a
31.189	0.18	62378	keystroke	a	n/a
31.3535	0.1355	62707	keystroke	y	n/a
31.474	0.105	62948	keystroke	Key.space	n/a
31.699	0.1205	63398	keystroke	l	n/a
31.8795	0.1045	63759	keystroke	a	n/a
32.479	0.0755	64958	keystroke	Key.backspace	n/a
32.673	0.106	65346	keystroke	Key.backspace	n/a
32.944	0.075	65888	keystroke	a	n/a
33.063	0.0765	66126	keystroke	l	n/a
33.229	0.134	66458	keystroke	l	n/a
33.319	0.075	66638	keystroke	e	n/a
33.5135	0.0755	67027	keystroke	r	n/a
33.7685	0.091	67537	keystroke	g	n/a
33.9935	0.165	67987	keystroke	y	n/a
34.1285	0.09	68257	keystroke	Key.space	n/a
34.4435	0.09	68887	keystroke	l	n/a
34.6695	0.104	69339	keystroke	o	n/a
35.0445	0.0445	70089	keystroke	c	n/a
35.419	0.075	70838	keystroke	a	n/a
35.779	0.06	71558	keystroke	t	n/a
35.914	0.18	71828	keystroke	i	n/a
36.034	0.135	72068	keystroke	o	n/a
36.199	0.135	72398	keystroke	n	n/a
36.409	0.105	72818	keystroke	Key.space	n/a
36.649	0.0755	73298	keystroke	t	n/a
36.7085	0.12	73417	keystroke	h	n/a
37.744	0.105	75488	keystroke	r	n/a
37.9245	0.0895	75849	keystroke	e	n/a
38.179	0.06	76358	keystroke	s	n/a
38.359	0.15	76718	keystroke	h	n/a
38.434	0.21	76868	keystroke	o	n/a
39.109	0.1345	78218	keystroke	l	n/a
39.304	0.06	78608	keystroke	d	n/a
39.574	0.0895	79148	keystroke	Key.enter	n/a
39.6695	9.9265	79339	prompt	n/a	picks lesbian smithsonian supporting\n
40.4135	0.105	80827	keystroke	p	n/a
40.6395	0.1045	81279	keystroke	i	n/a
40.954	0.06	81908	keystroke	c	n/a
41.044	0.135	82088	keystroke	k	n/a
41.239	0.09	82478	keystroke	s	n/a
41.434	0.09	82868	keystroke	Key.space	n/a
41.899	0.165	83798	keystroke	l	n/a
42.019	0.075	84038	keystroke	e	n/a
42.723	0.0905	85446	keystroke	s	n/a
43.009	0.075	86018	keystroke	b	n/a
43.129	0.135	86258	keystroke	i	n/a
43.249	0.105	86498	keystroke	a	n/a
43.879	0.06	87758	keystroke	n	n/a
44.089	0.105	88178	keystroke	Key.space	n/a
44.3435	0.09	88687	keystroke	s	n/a
44.4485	0.09	88897	keystroke	m	n/a
44.659	0.1045	89318	keystroke	i	n/a
45.064	0.0895	90128	keystroke	t	n/a
45.169	0.1045	90338	keystroke	h	n/a
45.4685	0.075	90937	keystroke	s	n/a
45.679	0.1045	91358	keystroke	o	n/a
46.2195	0.089	92439	keystroke	n	n/a
46.459	0.1205	92918	keystroke	i	n/a
46.7295	0.0885	93459	keystroke	a	n/a
47.104	0.105	94208	keystroke	n	n/a
47.359	0.09	94718	keystroke	Key.space	n/a
47.7335	0.075	95467	keystroke	s	n/a
47.8395	0.104	95679	keystroke	u	n/a
48.0035	0.075	96007	keystroke	p	n/a
48.169	0.1045	96338	keystroke	p	n/a
48.349	0.1505	96698	keystroke	o	n/a
48.559	0.09	97118	keystroke	r	n/a
48.7695	0.0745	97539	keystroke	t	n/a
48.8745	0.105	97749	keystroke	i	n/a
49.0845	0.1345	98169	keystroke	n	n/a
49.234	0.09	98468	keystroke	g	n/a
49.504	0.09	99008	keystroke	Key.enter	n/a
49.6005	17.546	99201	prompt	n/a	jump utility affiliated accurate\n
50.314	0.09	100628	keystroke	j	n/a
50.554	0.075	101108	keystroke	u	n/a
51.1685	0.121	102337	keystroke	m	n/a
51.4385	0.1205	102877	keystroke	p	n/a
51.769	0.0745	103538	keystroke	Key.space	n/a
52.129	0.1195	104258	keystroke	u	n/a
52.9535	0.0605	105907	keystroke	t	n/a
52.9985	0.106	105997	keystroke	i	n/a
53.179	0.1495	106358	keystroke	l	n/a
53.314	0.1045	106628	keystroke	i	n/a
53.5085	0.09	107017	keystroke	t	n/a
55.1885	0.105	110377	keystroke	y	n/a
55.339	0.1345	110678	keystroke	Key.space	n/a
55.6235	0.106	111247	keystroke	a	n/a
56.1645	0.074	112329	keystroke	f	n/a
56.299	0.0905	112598	keystroke	f	n/a
56.4795	0.1495	112959	keystroke	i	n/a
56.6585	0.0905	113317	keystroke	a	n/a
57.6335	0.1055	115267	keystroke	Key.backspace	n/a
62.181	0.118	124362	keystroke	l	n/a
62.854	0.09	125708	keystroke	i	n/a
63.619	0.0895	127238	keystroke	a	n/a
63.9035	0.09	127807	keystroke	t	n/a
64.0845	0.074	128169	keystroke	e	n/a
64.2785	0.061	128557	keystroke	d	n/a
64.4585	0.0905	128917	keystroke	Key.space	n/a
64.9385	0.09	129877	keystroke	a	n/a
65.1935	0.06	130387	keystroke	c	n/a
65.3435	0.075	130687	keystroke	c	n/a
65.704	0.105	131408	keystroke	u	n/a
65.989	0.09	131978	keystroke	r	n/a
66.169	0.15	132338	keystroke	a	n/a
66.454	0.075	132908	keystroke	t	n/a
66.6795	0.074	133359	keystroke	e	n/a
67.0685	0.0755	134137	keystroke	Key.enter	n/a
67.152	8.455	134304	prompt	n/a	appeals they'll deleted tobago\n
68.0145	0.0895	136029	keystroke	a	n/a
68.209	0.06	136418	keystroke	p	n/a
68.3295	0.1505	136659	keystroke	p	n/a
68.5095	0.1195	137019	keystroke	e	n/a
68.7045	0.1345	137409	keystroke	a	n/a
68.8995	0.15	137799	keystroke	l	n/a
69.079	0.105	138158	keystroke	s	n/a
69.228	0.121	138456	keystroke	Key.space	n/a
69.469	0.074	138938	keystroke	t	n/a
69.5595	0.1195	139119	keystroke	h	n/a
69.694	0.1195	139388	keystroke	e	n/a
69.934	0.1055	139868	keystroke	y	n/a
70.248	0.0915	140496	keystroke	;	n/a
70.8195	0.075	141639	keystroke	Key.backspace	n/a
71.0745	0.104	142149	keystroke	'	n/a
71.6585	0.09	143317	keystroke	l	n/a
71.8535	0.106	143707	keystroke	l	n/a
71.9735	0.076	143947	keystroke	Key.space	n/a
72.1545	0.089	144309	keystroke	d	n/a
72.3795	0.09	144759	keystroke	e	n/a
72.5135	0.12	145027	keystroke	l	n/a
72.6195	0.089	145239	keystroke	e	n/a
72.889	0.0895	145778	keystroke	t	n/a
73.0985	0.0755	146197	keystroke	e	n/a
73.3385	0.12	146677	keystroke	d	n/a
73.4885	0.0905	146977	keystroke	Key.space	n/a
73.8185	0.09	147637	keystroke	t	n/a
73.879	0.1645	147758	keystroke	o	n/a
74.2085	0.1055	148417	keystroke	b	n/a
74.4185	0.1055	148837	keystroke	a	n/a
75.139	0.1045	150278	keystroke	g	n/a
75.244	0.119	150488	keystroke	o	n/a
75.514	0.089	151028	keystroke	Key.enter	n/a
75.612	8.6945	151224	prompt	n/a	personally countries regular chocolate\n
76.4145	0.119	152829	keystroke	p	n/a
76.6085	0.075	153217	keystroke	e	n/a
76.8035	0.09	153607	keystroke	r	n/a
77.089	0.0895	154178	keystroke	s	n/a
77.2085	0.121	154417	keystroke	o	n/a
77.4335	0.166	154867	keystroke	n	n/a
77.6735	0.1055	155347	keystroke	a	n/a
77.8085	0.0905	155617	keystroke	l	n/a
77.9735	0.09	155947	keystroke	l	n/a
78.229	0.12	156458	keystroke	y	n/a
78.334	0.104	156668	keystroke	Key.space	n/a
78.574	0.105	157148	keystroke	c	n/a
78.5895	0.1635	157179	keystroke	o	n/a
78.739	0.134	157478	keystroke	u	n/a
79.023	0.1205	158046	keystroke	n	n/a
79.3085	0.076	158617	keystroke	t	n/a
79.5645	0.0895	159129	keystroke	r	n/a
79.924	0.1055	159848	keystroke	i	n/a
80.044	0.0755	160088	keystroke	e	n/a
80.299	0.0905	160598	keystroke	s	n/a
80.434	0.12	160868	keystroke	Key.space	n/a
80.734	0.09	161468	keystroke	r	n/a
80.869	0.12	161738	keystroke	e	n/a
81.139	0.1195	162278	keystroke	g	n/a
81.2735	0.09	162547	keystroke	u	n/a
81.529	0.18	163058	keystroke	l	n/a
81.739	0.12	163478	keystroke	a	n/a
82.039	0.09	164078	keystroke	r	n/a
82.234	0.09	164468	keystroke	Key.space	n/a
82.459	0.0905	164918	keystroke	c	n/a
82.6085	0.136	165217	keystroke	h	n/a
82.6845	0.195	165369	keystroke	o	n/a
82.9695	0.12	165939	keystroke	c	n/a
83.0445	0.135	166089	keystroke	o	n/a
83.3135	0.135	166627	keystroke	l	n/a
83.4345	0.1195	166869	keystroke	a	n/a
83.7495	0.0895	167499	keystroke	t	n/a
83.974	0.105	167948	keystroke	e	n/a
84.199	0.105	168398	keystroke	Key.enter	n/a
84.3135	10.012	168627	prompt	n/a	mutual estimates univ tend\n
84.9335	0.09	169867	keystroke	m	n/a
85.2035	0.105	170407	keystroke	u	n/a
85.5035	0.09	171007	keystroke	t	n/a
85.6995	0.09	171399	keystroke	i	n/a
85.714	0.0595	171428	keystroke	u	n/a
86.0585	0.075	172117	keystroke	a	n/a
86.3885	0.075	172777	keystroke	Key.backspace	n/a
86.554	0.12	173108	keystroke	Key.backspace	n/a
86.824	0.105	173648	keystroke	Key.backspace	n/a
87.934	0.089	175868	keystroke	u	n/a
88.5935	0.09	177187	keystroke	a	n/a
88.7135	0.135	177427	keystroke	l	n/a
88.879	0.0745	177758	keystroke	Key.space	n/a
89.119	0.09	178238	keystroke	e	n/a
89.644	0.075	179288	keystroke	s	n/a
89.959	0.075	179918	keystroke	t	n/a
90.049	0.09	180098	keystroke	i	n/a
90.274	0.105	180548	keystroke	m	n/a
90.454	0.105	180908	keystroke	a	n/a
91.0085	0.0905	182017	keystroke	t	n/a
91.2345	0.0895	182469	keystroke	e	n/a
91.503	0.0755	183006	keystroke	s	n/a
91.654	0.0895	183308	keystroke	Key.space	n/a
92.1345	0.089	184269	keystroke	u	n/a
92.7795	0.119	185559	keystroke	n	n/a
92.9135	0.135	185827	keystroke	i	n/a
93.109	0.0745	186218	keystroke	v	n/a
93.2435	0.09	186487	keystroke	Key.space	n/a
93.514	0.075	187028	keystroke	t	n/a
93.694	0.09	187388	keystroke	e	n/a
93.829	0.12	187658	keystroke	n	n/a
94.009	0.075	188018	keystroke	d	n/a
94.249	0.075	188498	keystroke	Key.enter	n/a
94.332	7.0435	188664	prompt	n/a	zoning signing lone reverse\n
95.134	0.0895	190268	keystroke	z	n/a
95.2535	0.12	190507	keystroke	o	n/a
95.824	0.045	191648	keystroke	n	n/a
96.0035	0.0895	192007	keystroke	i	n/a
96.199	0.105	192398	keystroke	n	n/a
96.319	0.09	192638	keystroke	g	n/a
96.499	0.104	192998	keystroke	Key.space	n/a
96.769	0.075	193538	keystroke	s	n/a
96.859	0.12	193718	keystroke	i	n/a
97.263	0.076	194526	keystroke	g	n/a
97.459	0.0895	194918	keystroke	n	n/a
97.669	0.0895	195338	keystroke	i	n/a
97.8635	0.1205	195727	keystroke	n	n/a
98.074	0.0745	196148	keystroke	g	n/a
98.2385	0.09	196477	keystroke	Key.space	n/a
98.449	0.105	196898	keystroke	l	n/a
98.764	0.135	197528	keystroke	o	n/a
99.2285	0.105	198457	keystroke	n	n/a
99.379	0.0745	198758	keystroke	e	n/a
99.4985	0.1205	198997	keystroke	Key.space	n/a
99.7235	0.15	199447	keystroke	r	n/a
99.8585	0.12	199717	keystroke	e	n/a
100.1135	0.12	200227	keystroke	v	n/a
100.3385	0.1055	200677	keystroke	e	n/a
100.5485	0.1055	201097	keystroke	r	n/a
100.789	0.1195	201578	keystroke	s	n/a
101.044	0.075	202088	keystroke	e	n/a
101.2985	0.075	202597	keystroke	Key.enter	n/a
101.3795	8.6515	202759	prompt	n/a	suited machine digital children\n
102.049	0.075	204098	keystroke	s	n/a
102.289	0.0895	204578	keystroke	u	n/a
102.4085	0.1655	204817	keystroke	i	n/a
102.664	0.1045	205328	keystroke	t	n/a
102.889	0.0745	205778	keystroke	e	n/a
103.114	0.09	206228	keystroke	d	n/a
103.3835	0.105	206767	keystroke	Key.space	n/a
103.669	0.15	207338	keystroke	m	n/a
103.8335	0.1055	207667	keystroke	a	n/a
104.1195	0.074	208239	keystroke	c	n/a
104.2985	0.121	208597	keystroke	h	n/a
104.3735	0.195	208747	keystroke	i	n/a
104.6435	0.1655	209287	keystroke	n	n/a
104.8535	0.075	209707	keystroke	e	n/a
105.9635	0.09	211927	keystroke	Key.space	n/a
106.2335	0.075	212467	keystroke	d	n/a
106.3095	0.1495	212619	keystroke	i	n/a
106.5635	0.0905	213127	keystroke	g	n/a
106.6685	0.1805	213337	keystroke	i	n/a
106.9835	0.1045	213967	keystroke	t	n/a
107.2245	0.104	214449	keystroke	a	n/a
107.4345	0.1195	214869	keystroke	l	n/a
107.659	0.075	215318	keystroke	Key.space	n/a
108.094	0.075	216188	keystroke	c	n/a
108.2135	0.1505	216427	keystroke	h	n/a
108.319	0.15	216638	keystroke	i	n/a
108.5735	0.165	217147	keystroke	l	n/a
108.724	0.075	217448	keystroke	d	n/a
108.9785	0.1055	217957	keystroke	r	n/a
109.1885	0.091	218377	keystroke	e	n/a
109.4285	0.09	218857	keystroke	n	n/a
109.939	0.09	219878	keystroke	Key.enter	n/a
110.0365	10.9605	220073	prompt	n/a	gives enabling thank characteristic\n
111.229	0.075	222458	keystroke	g	n/a
111.3485	0.1505	222697	keystroke	i	n/a
111.4385	0.105	222877	keystroke	v	n/a
111.694	0.0895	223388	keystroke	e	n/a
111.964	0.1045	223928	keystroke	s	n/a
112.129	0.105	224258	keystroke	Key.space	n/a
112.5645	0.0745	225129	keystroke	e	n/a
112.669	0.105	225338	keystroke	n	n/a
112.8195	0.1045	225639	keystroke	a	n/a
113.538	0.076	227076	keystroke	b	n/a
113.644	0.0895	227288	keystroke	l	n/a
113.794	0.12	227588	keystroke	i	n/a
114.019	0.1505	228038	keystroke	n	n/a
114.244	0.09	228488	keystroke	g	n/a
114.454	0.074	228908	keystroke	Key.space	n/a
114.7695	0.0895	229539	keystroke	t	n/a
114.874	0.12	229748	keystroke	h	n/a
115.0095	0.1045	230019	keystroke	a	n/a
115.2785	0.1055	230557	keystroke	n	n/a
115.5035	0.1055	231007	keystroke	k	n/a
115.7135	0.09	231427	keystroke	Key.space	n/a
116.029	0.09	232058	keystroke	c	n/a
116.134	0.105	232268	keystroke	h	n/a
116.299	0.09	232598	keystroke	a	n/a
116.6735	0.09	233347	keystroke	r	n/a
116.869	0.1195	233738	keystroke	a	n/a
117.2285	0.075	234457	keystroke	c	n/a
117.6635	0.0605	235327	keystroke	t	n/a
117.8885	0.075	235777	keystroke	e	n/a
118.099	0.0755	236198	keystroke	r	n/a
119.494	0.089	238988	keystroke	i	n/a
119.7335	0.09	239467	keystroke	s	n/a
120.004	0.0745	240008	keystroke	t	n/a
120.4385	0.1205	240877	keystroke	i	n/a
120.574	0.075	241148	keystroke	c	n/a
120.918	0.075	241836	keystroke	Key.enter	n/a
121.0005	9.01	242001	prompt	n/a	throughout cialis anybody worn\n
121.849	0.09	243698	keystroke	t	n/a
122.449	0.105	244898	keystroke	h	n/a
122.689	0.09	245378	keystroke	r	n/a
122.809	0.12	245618	keystroke	o	n/a
122.913	0.136	245826	keystroke	u	n/a
123.889	0.075	247778	keystroke	g	n/a
123.994	0.12	247988	keystroke	h	n/a
124.8335	0.1505	249667	keystroke	o	n/a
124.938	0.166	249876	keystroke	u	n/a
125.238	0.075	250476	keystroke	t	n/a
125.418	0.106	250836	keystroke	Key.space	n/a
125.6585	0.0745	251317	keystroke	c	n/a
125.7485	0.1505	251497	keystroke	i	n/a
125.943	0.106	251886	keystroke	a	n/a
126.094	0.12	252188	keystroke	l	n/a
126.274	0.12	252548	keystroke	i	n/a
126.5435	0.075	253087	keystroke	s	n/a
126.6635	0.12	253327	keystroke	Key.space	n/a
126.9195	0.105	253839	keystroke	a	n/a
127.039	0.09	254078	keystroke	n	n/a
127.294	0.09	254588	keystroke	y	n/a
128.044	0.09	256088	keystroke	b	n/a
128.119	0.135	256238	keystroke	o	n/a
128.299	0.09	256598	keystroke	d	n/a
128.494	0.105	256988	keystroke	y	n/a
128.704	0.09	257408	keystroke	Key.space	n/a
129.094	0.0895	258188	keystroke	w	n/a
129.169	0.15	258338	keystroke	o	n/a
129.499	0.1045	258998	keystroke	r	n/a
129.649	0.12	259298	keystroke	n	n/a
129.904	0.105	259808	keystroke	Key.enter	n/a
130.0145	10.005	260029	prompt	n/a	colon brooks told quote\n
130.6835	0.0905	261367	keystroke	c	n/a
130.7585	0.1055	261517	keystroke	o	n/a
130.9835	0.09	261967	keystroke	l	n/a
131.1785	0.106	262357	keystroke	o	n/a
131.3735	0.105	262747	keystroke	n	n/a
131.614	0.09	263228	keystroke	Key.space	n/a
131.869	0.06	263738	keystroke	b	n/a
132.499	0.075	264998	keystroke	r	n/a
132.619	0.075	265238	keystroke	o	n/a
132.7835	0.1205	265567	keystroke	o	n/a
132.994	0.1195	265988	keystroke	k	n/a
133.279	0.06	266558	keystroke	s	n/a
133.443	0.1055	266886	keystroke	Key.space	n/a
133.7895	0.029	267579	keystroke	t	n/a
133.8335	0.1055	267667	keystroke	o	n/a
134.0745	0.1345	268149	keystroke	l	n/a
134.359	0.0745	268718	keystroke	d	n/a
134.5685	0.105	269137	keystroke	Key.space	n/a
135.2885	0.09	270577	keystroke	q	n/a
135.634	0.12	271268	keystroke	u	n/a
136.234	0.1205	272468	keystroke	o	n/a
136.489	0.075	272978	keystroke	t	n/a
136.669	0.0895	273338	keystroke	e	n/a
140.016	0.0005	280032	keystroke	Key.enter	n/a
140.024	6.908	280048	prompt	n/a	dealers filled tons species\n
140.7645	0.0595	281529	keystroke	d	n/a
140.989	0.0895	281978	keystroke	e	n/a
141.1085	0.1355	282217	keystroke	a	n/a
141.364	0.12	282728	keystroke	l	n/a
142.054	0.075	284108	keystroke	e	n/a
142.279	0.09	284558	keystroke	r	n/a
142.5345	0.0745	285069	keystroke	s	n/a
142.729	0.09	285458	keystroke	Key.space	n/a
143.194	0.0745	286388	keystroke	f	n/a
143.2995	0.089	286599	keystroke	i	n/a
143.5095	0.074	287019	keystroke	l	n/a
143.674	0.1045	287348	keystroke	l	n/a
143.8385	0.076	287677	keystroke	e	n/a
144.064	0.09	288128	keystroke	d	n/a
144.184	0.1045	288368	keystroke	Key.space	n/a
144.4395	0.09	288879	keystroke	t	n/a
144.544	0.149	289088	keystroke	o	n/a
144.769	0.12	289538	keystroke	n	n/a
144.979	0.0745	289958	keystroke	s	n/a
145.114	0.105	290228	keystroke	Key.space	n/a
145.399	0.1195	290798	keystroke	s	n/a
145.4895	0.15	290979	keystroke	p	n/a
145.774	0.075	291548	keystroke	e	n/a
146.044	0.06	292088	keystroke	c	n/a
146.194	0.135	292388	keystroke	i	n/a
146.344	0.075	292688	keystroke	e	n/a
146.5835	0.106	293167	keystroke	s	n/a
146.8385	0.09	293677	keystroke	Key.enter	n/a
146.9365	12.504	293873	prompt	n/a	coming horror calculation city\n
147.6345	0.0595	295269	keystroke	c	n/a
147.7095	0.135	295419	keystroke	o	n/a
148.144	0.105	296288	keystroke	i	n/a
148.339	0.104	296678	keystroke	n	n/a
148.833	0.106	297666	keystroke	Key.backspace	n/a
149.0735	0.076	298147	keystroke	m	n/a
149.4485	0.075	298897	keystroke	Key.backspace	n/a
149.7035	0.0905	299407	keystroke	Key.backspace	n/a
149.989	0.105	299978	keystroke	m	n/a
150.364	0.09	300728	keystroke	i	n/a
150.5745	0.1045	301149	keystroke	n	n/a
150.799	0.0755	301598	keystroke	g	n/a
151.084	0.0895	302168	keystroke	Key.space	n/a
151.8335	0.1355	303667	keystroke	h	n/a
151.9235	0.1505	303847	keystroke	o	n/a
152.194	0.06	304388	keystroke	r	n/a
152.3445	0.0895	304689	keystroke	r	n/a
153.334	0.105	306668	keystroke	o	n/a
153.634	0.075	307268	keystroke	r	n/a
153.769	0.09	307538	keystroke	Key.space	n/a
154.174	0.075	308348	keystroke	c	n/a
154.399	0.09	308798	keystroke	a	n/a
154.519	0.135	309038	keystroke	l	n/a
154.834	0.075	309668	keystroke	c	n/a
154.939	0.119	309878	keystroke	u	n/a
156.0485	0.0905	312097	keystroke	l	n/a
156.154	0.075	312308	keystroke	a	n/a
156.799	0.09	313598	keystroke	t	n/a
157.039	0.165	314078	keystroke	i	n/a
157.144	0.165	314288	keystroke	o	n/a
157.384	0.12	314768	keystroke	n	n/a
157.608	0.12	315216	keystroke	Key.space	n/a
157.9085	0.075	315817	keystroke	c	n/a
157.9985	0.135	315997	keystroke	i	n/a
158.299	0.0745	316598	keystroke	t	n/a
158.4495	0.104	316899	keystroke	y	n/a
159.3485	0.09	318697	keystroke	Key.enter	n/a
159.446	7.5845	318892	prompt	n/a	stories stats figures jerusalem\n
160.488	0.075	320976	keystroke	s	n/a
160.7735	0.0595	321547	keystroke	t	n/a
160.9385	0.12	321877	keystroke	o	n/a
161.3585	0.09	322717	keystroke	r	n/a
161.494	0.1795	322988	keystroke	i	n/a
161.554	0.09	323108	keystroke	e	n/a
161.794	0.09	323588	keystroke	s	n/a
161.899	0.09	323798	keystroke	Key.space	n/a
162.079	0.0745	324158	keystroke	s	n/a
162.3935	0.1055	324787	keystroke	t	n/a
162.589	0.119	325178	keystroke	a	n/a
162.8735	0.09	325747	keystroke	t	n/a
163.1135	0.1205	326227	keystroke	s	n/a
163.2785	0.105	326557	keystroke	Key.space	n/a
163.5485	0.0755	327097	keystroke	f	n/a
163.669	0.1495	327338	keystroke	i	n/a
163.909	0.089	327818	keystroke	g	n/a
164.028	0.1205	328056	keystroke	u	n/a
164.403	0.075	328806	keystroke	r	n/a
164.583	0.076	329166	keystroke	e	n/a
164.824	0.0745	329648	keystroke	s	n/a
164.988	0.0755	329976	keystroke	Key.space	n/a
165.243	0.09	330486	keystroke	j	n/a
165.438	0.0605	330876	keystroke	e	n/a
165.664	0.075	331328	keystroke	r	n/a
165.7685	0.135	331537	keystroke	u	n/a
165.994	0.1645	331988	keystroke	s	n/a
166.1285	0.1355	332257	keystroke	a	n/a
166.2485	0.135	332497	keystroke	l	n/a
166.4435	0.075	332887	keystroke	e	n/a
166.6535	0.135	333307	keystroke	m	n/a
166.9535	0.0755	333907	keystroke	Key.enter	n/a
167.0355	8.4555	334071	prompt	n/a	fuji keno sept mary\n
167.7785	0.075	335557	keystroke	j	n/a
167.974	0.09	335948	keystroke	u	n/a
168.7985	0.075	337597	keystroke	Key.backspace	n/a
168.9635	0.12	337927	keystroke	Key.backspace	n/a
169.7895	0.0735	339579	keystroke	f	n/a
169.894	0.104	339788	keystroke	u	n/a
170.118	0.091	340236	keystroke	j	n/a
170.344	0.134	340688	keystroke	i	n/a
170.493	0.09	340986	keystroke	Key.space	n/a
170.6735	0.1355	341347	keystroke	k	n/a
170.8535	0.0605	341707	keystroke	e	n/a
171.048	0.0905	342096	keystroke	n	n/a
171.2435	0.1205	342487	keystroke	o	n/a
171.3935	0.1205	342787	keystroke	Key.space	n/a
171.6335	0.105	343267	keystroke	s	n/a
171.709	0.135	343418	keystroke	p	n/a
171.8885	0.105	343777	keystroke	e	n/a
172.2335	0.09	344467	keystroke	t	n/a
172.7735	0.06	345547	keystroke	Key.backspace	n/a
172.9535	0.09	345907	keystroke	Key.backspace	n/a
173.1635	0.105	346327	keystroke	Key.backspace	n/a
173.4035	0.075	346807	keystroke	e	n/a
173.6135	0.1345	347227	keystroke	p	n/a
173.9285	0.09	347857	keystroke	t	n/a
174.244	0.0745	348488	keystroke	Key.space	n/a
174.574	0.1195	349148	keystroke	m	n/a
174.7235	0.1055	349447	keystroke	a	n/a
175.024	0.089	350048	keystroke	r	n/a
175.1285	0.075	350257	keystroke	y	n/a
175.384	0.105	350768	keystroke	Key.enter	n/a
175.495	7.8105	350990	prompt	n/a	peeing chances tucson startup\n
176.224	0.1195	352448	keystroke	p	n/a
176.3885	0.0595	352777	keystroke	e	n/a
176.5535	0.075	353107	keystroke	e	n/a
176.7335	0.09	353467	keystroke	i	n/a
176.929	0.12	353858	keystroke	n	n/a
177.169	0.075	354338	keystroke	g	n/a
177.274	0.105	354548	keystroke	Key.space	n/a
177.469	0.105	354938	keystroke	c	n/a
177.588	0.106	355176	keystroke	h	n/a
177.754	0.12	355508	keystroke	a	n/a
177.8885	0.1055	355777	keystroke	n	n/a
178.0385	0.09	356077	keystroke	c	n/a
178.3085	0.0605	356617	keystroke	e	n/a
178.548	0.105	357096	keystroke	s	n/a
178.758	0.09	357516	keystroke	Key.space	n/a
179.1335	0.0905	358267	keystroke	t	n/a
179.5235	0.09	359047	keystroke	u	n/a
179.7335	0.06	359467	keystroke	c	n/a
180.0035	0.0755	360007	keystroke	s	n/a
180.109	0.1495	360218	keystroke	o	n/a
180.349	0.105	360698	keystroke	n	n/a
180.5135	0.104	361027	keystroke	Key.space	n/a
180.724	0.09	361448	keystroke	s	n/a
181.009	0.09	362018	keystroke	t	n/a
181.294	0.12	362588	keystroke	a	n/a
181.6085	0.0755	363217	keystroke	r	n/a
181.894	0.1045	363788	keystroke	t	n/a
182.1785	0.1345	364357	keystroke	u	n/a
182.898	0.0905	365796	keystroke	p	n/a
183.2285	0.075	366457	keystroke	Key.enter	n/a
183.3105	13.0595	366621	prompt	n/a	bands thousand submission developmental\n
184.414	0.0595	368828	keystroke	b	n/a
184.6385	0.075	369277	keystroke	a	n/a
186.138	0.106	372276	keystroke	n	n/a
186.244	0.089	372488	keystroke	d	n/a
186.469	0.0745	372938	keystroke	s	n/a
186.6485	0.105	373297	keystroke	Key.space	n/a
187.203	0.0755	374406	keystroke	t	n/a
187.3545	0.1045	374709	keystroke	h	n/a
187.429	0.179	374858	keystroke	o	n/a
187.654	0.119	375308	keystroke	u	n/a
187.983	0.106	375966	keystroke	s	n/a
188.029	0.179	376058	keystroke	a	n/a
188.254	0.135	376508	keystroke	n	n/a
188.448	0.0905	376896	keystroke	d	n/a
188.643	0.106	377286	keystroke	Key.space	n/a
188.959	0.105	377918	keystroke	s	n/a
189.064	0.12	378128	keystroke	u	n/a
189.484	0.09	378968	keystroke	m	n/a
189.963	0.106	379926	keystroke	Key.backspace	n/a
190.1135	0.076	380227	keystroke	b	n/a
190.609	0.0895	381218	keystroke	m	n/a
191.5835	0.1045	383167	keystroke	i	n/a
191.928	0.0605	383856	keystroke	s	n/a
192.123	0.06	384246	keystroke	s	n/a
192.3785	0.1495	384757	keystroke	i	n/a
192.4685	0.1655	384937	keystroke	o	n/a
192.708	0.1355	385416	keystroke	n	n/a
193.3535	0.0745	386707	keystroke	Key.space	n/a
193.578	0.075	387156	keystroke	d	n/a
193.7885	0.0745	387577	keystroke	e	n/a
193.9985	0.09	387997	keystroke	v	n/a
194.1935	0.0895	388387	keystroke	e	n/a
194.388	0.12	388776	keystroke	l	n/a
194.659	0.104	389318	keystroke	o	n/a
194.838	0.1055	389676	keystroke	p	n/a
195.0785	0.12	390157	keystroke	m	n/a
195.259	0.0745	390518	keystroke	e	n/a
195.4085	0.105	390817	keystroke	n	n/a
195.558	0.1055	391116	keystroke	t	n/a
195.784	0.1045	391568	keystroke	a	n/a
195.993	0.12	391986	keystroke	l	n/a
196.323	0.045	392646	keystroke	Key.enter	n/a
196.3755	9.79	392751	prompt	n/a	vermont athletic buddy lower\n
197.1485	0.09	394297	keystroke	v	n/a
197.344	0.0895	394688	keystroke	e	n/a
197.5685	0.105	395137	keystroke	r	n/a
197.6585	0.105	395317	keystroke	m	n/a
197.8235	0.12	395647	keystroke	o	n/a
198.004	0.1495	396008	keystroke	n	n/a
198.2585	0.1205	396517	keystroke	t	n/a
198.603	0.06	397206	keystroke	Key.space	n/a
199.2035	0.105	398407	keystroke	a	n/a
199.5785	0.09	399157	keystroke	t	n/a
199.6835	0.1205	399367	keystroke	h	n/a
200.7485	0.1505	401497	keystroke	l	n/a
200.853	0.0755	401706	keystroke	e	n/a
201.1685	0.105	402337	keystroke	t	n/a
201.364	0.1495	402728	keystroke	i	n/a
201.6035	0.06	403207	keystroke	c	n/a
201.7085	0.105	403417	keystroke	Key.space	n/a
201.919	0.089	403838	keystroke	b	n/a
202.068	0.121	404136	keystroke	u	n/a
202.219	0.0895	404438	keystroke	d	n/a
202.443	0.09	404886	keystroke	e	n/a
202.728	0.135	405456	keystroke	y	n/a
203.5985	0.0745	407197	keystroke	Key.backspace	n/a
203.7935	0.1195	407587	keystroke	Key.backspace	n/a
204.138	0.075	408276	keystroke	d	n/a
204.4235	0.09	408847	keystroke	y	n/a
204.648	0.0905	409296	keystroke	Key.space	n/a
204.888	0.0755	409776	keystroke	l	n/a
205.098	0.106	410196	keystroke	o	n/a
205.219	0.075	410438	keystroke	w	n/a
205.398	0.091	410796	keystroke	e	n/a
205.6535	0.09	411307	keystroke	r	n/a
206.088	0.076	412176	keystroke	Key.enter	n/a
206.173	11.4975	412346	prompt	n/a	closing remark need opportunity\n
206.9285	0.09	413857	keystroke	c	n/a
207.0335	0.075	414067	keystroke	l	n/a
207.2285	0.1205	414457	keystroke	o	n/a
207.394	0.105	414788	keystroke	s	n/a
207.483	0.121	414966	keystroke	i	n/a
207.724	0.12	415448	keystroke	n	n/a
207.963	0.09	415926	keystroke	g	n/a
208.173	0.09	416346	keystroke	Key.space	n/a
208.429	0.105	416858	keystroke	r	n/a
208.564	0.12	417128	keystroke	e	n/a
208.834	0.1345	417668	keystroke	m	n/a
209.044	0.105	418088	keystroke	a	n/a
209.4785	0.09	418957	keystroke	r	n/a
209.5685	0.1505	419137	keystroke	k	n/a
209.7935	0.075	419587	keystroke	Key.space	n/a
209.989	0.1045	419978	keystroke	n	n/a
210.108	0.0605	420216	keystroke	e	n/a
210.3035	0.06	420607	keystroke	e	n/a
210.559	0.0745	421118	keystroke	d	n/a
210.739	0.075	421478	keystroke	Key.space	n/a
211.3835	0.105	422767	keystroke	o	n/a
211.6085	0.045	423217	keystroke	o	n/a
211.6235	0.03	423247	keystroke	p	n/a
211.7585	0.105	423517	keystroke	p	n/a
211.9685	0.1205	423937	keystroke	o	n/a
212.4935	0.06	424987	keystroke	Key.backspace	n/a
212.6435	0.09	425287	keystroke	Key.backspace	n/a
212.8085	0.105	425617	keystroke	Key.backspace	n/a
212.974	0.0895	425948	keystroke	Key.backspace	n/a
214.503	0.091	429006	keystroke	p	n/a
214.9685	0.12	429937	keystroke	p	n/a
215.4485	0.105	430897	keystroke	o	n/a
215.9435	0.06	431887	keystroke	r	n/a
216.1235	0.0905	432247	keystroke	t	n/a
216.229	0.1195	432458	keystroke	u	n/a
216.484	0.12	432968	keystroke	n	n/a
216.619	0.15	433238	keystroke	i	n/a
216.859	0.075	433718	keystroke	t	n/a
217.039	0.09	434078	keystroke	y	n/a
217.579	0.09	435158	keystroke	Key.enter	n/a
217.675	9.2645	435350	prompt	n/a	responded before shopzilla machine\n
218.449	0.164	436898	keystroke	r	n/a
218.568	0.121	437136	keystroke	e	n/a
218.8235	0.0905	437647	keystroke	s	n/a
219.618	0.135	439236	keystroke	p	n/a
219.694	0.195	439388	keystroke	o	n/a
219.979	0.105	439958	keystroke	n	n/a
220.204	0.075	440408	keystroke	d	n/a
220.413	0.075	440826	keystroke	e	n/a
220.654	0.105	441308	keystroke	d	n/a
220.773	0.075	441546	keystroke	Key.space	n/a
220.968	0.0905	441936	keystroke	b	n/a
221.2085	0.06	442417	keystroke	e	n/a
221.4635	0.075	442927	keystroke	f	n/a
221.779	0.119	443558	keystroke	o	n/a
221.973	0.09	443946	keystroke	r	n/a
222.168	0.0755	444336	keystroke	e	n/a
222.349	0.0895	444698	keystroke	Key.space	n/a
222.619	0.06	445238	keystroke	s	n/a
222.8885	0.1195	445777	keystroke	h	n/a
223.339	0.12	446678	keystroke	o	n/a
223.5785	0.12	447157	keystroke	p	n/a
224.059	0.074	448118	keystroke	z	n/a
224.148	0.1505	448296	keystroke	i	n/a
224.373	0.0905	448746	keystroke	l	n/a
224.5235	0.12	449047	keystroke	l	n/a
224.7185	0.09	449437	keystroke	a	n/a
224.8535	0.09	449707	keystroke	Key.space	n/a
225.0935	0.1505	450187	keystroke	m	n/a
225.198	0.1055	450396	keystroke	a	n/a
225.483	0.091	450966	keystroke	c	n/a
226.1285	0.105	452257	keystroke	h	n/a
226.1885	0.1795	452377	keystroke	i	n/a
226.4135	0.164	452827	keystroke	n	n/a
226.6235	0.09	453247	keystroke	e	n/a
226.8335	0.105	453667	keystroke	Key.enter	n/a
226.943	7.4375	453886	prompt	n/a	bytes cart cheapest forever\n
227.6885	0.075	455377	keystroke	b	n/a
227.8985	0.105	455797	keystroke	y	n/a
228.1535	0.105	456307	keystroke	t	n/a
228.3635	0.0745	456727	keystroke	e	n/a
228.618	0.09	457236	keystroke	s	n/a
228.768	0.0905	457536	keystroke	Key.space	n/a
228.9635	0.075	457927	keystroke	c	n/a
229.159	0.09	458318	keystroke	a	n/a
229.444	0.044	458888	keystroke	r	n/a
229.743	0.0755	459486	keystroke	t	n/a
229.9835	0.075	459967	keystroke	Key.space	n/a
230.1935	0.0755	460387	keystroke	c	n/a
230.2985	0.12	460597	keystroke	h	n/a
230.5085	0.075	461017	keystroke	e	n/a
230.734	0.105	461468	keystroke	a	n/a
230.9285	0.15	461857	keystroke	p	n/a
231.093	0.091	462186	keystroke	e	n/a
231.349	0.105	462698	keystroke	s	n/a
231.619	0.075	463238	keystroke	t	n/a
231.7975	0.091	463595	keystroke	Key.space	n/a
232.098	0.0745	464196	keystroke	f	n/a
232.2785	0.1055	464557	keystroke	o	n/a
232.833	0.121	465666	keystroke	r	n/a
232.9835	0.09	465967	keystroke	e	n/a
233.208	0.106	466416	keystroke	v	n/a
233.418	0.09	466836	keystroke	e	n/a
233.6285	0.105	467257	keystroke	r	n/a
234.2735	0.105	468547	keystroke	Key.enter	n/a
234.3855	6.3995	468771	prompt	n/a	park flyer fastest urls\n
235.0685	0.135	470137	keystroke	p	n/a
235.1585	0.105	470317	keystroke	a	n/a
235.4735	0.09	470947	keystroke	r	n/a
235.6685	0.18	471337	keystroke	k	n/a
235.8785	0.105	471757	keystroke	Key.space	n/a
236.208	0.076	472416	keystroke	f	n/a
236.298	0.151	472596	keystroke	l	n/a
236.584	0.1195	473168	keystroke	y	n/a
236.824	0.0745	473648	keystroke	e	n/a
237.2285	0.06	474457	keystroke	r	n/a
237.4385	0.075	474877	keystroke	Key.space	n/a
237.829	0.0895	475658	keystroke	f	n/a
238.024	0.0895	476048	keystroke	a	n/a
238.2335	0.09	476467	keystroke	s	n/a
238.4885	0.0905	476977	keystroke	t	n/a
238.699	0.104	477398	keystroke	e	n/a
238.968	0.1055	477936	keystroke	r	n/a
239.2385	0.0895	478477	keystroke	s	n/a
239.463	0.09	478926	keystroke	Key.space	n/a
239.8385	0.135	479677	keystroke	u	n/a
240.1085	0.0905	480217	keystroke	r	n/a
240.2885	0.135	480577	keystroke	l	n/a
240.4385	0.075	480877	keystroke	s	n/a
240.6935	0.0895	481387	keystroke	Key.enter	n/a
240.789	13.1065	481578	prompt	n/a	subsidiary bunch greater breathing\n
241.6995	0.074	483399	keystroke	s	n/a
241.879	0.1195	483758	keystroke	u	n/a
242.779	0.06	485558	keystroke	b	n/a
243.9785	0.075	487957	keystroke	s	n/a
244.1135	0.135	488227	keystroke	i	n/a
244.7585	0.06	489517	keystroke	d	n/a
244.8635	0.135	489727	keystroke	i	n/a
244.9985	0.09	489997	keystroke	a	n/a
245.268	0.09	490536	keystroke	r	n/a
245.4035	0.1955	490807	keystroke	u	n/a
245.448	0.0305	490896	keystroke	y	n/a
245.5535	0.135	491107	keystroke	Key.space	n/a
246.123	0.075	492246	keystroke	Key.backspace	n/a
246.289	0.1345	492578	keystroke	Key.backspace	n/a
246.753	0.121	493506	keystroke	Key.backspace	n/a
247.414	0.0895	494828	keystroke	y	n/a
247.5935	0.12	495187	keystroke	Key.space	n/a
247.849	0.105	495698	keystroke	b	n/a
247.9985	0.06	495997	keystroke	u	n/a
248.194	0.1195	496388	keystroke	n	n/a
248.3735	0.075	496747	keystroke	c	n/a
248.5985	0.105	497197	keystroke	h	n/a
248.8385	0.0745	497677	keystroke	Key.space	n/a
249.7995	0.074	499599	keystroke	g	n/a
250.0385	0.135	500077	keystroke	r	n/a
250.143	0.1955	500286	keystroke	e	n/a
250.3085	0.135	500617	keystroke	a	n/a
250.5935	0.105	501187	keystroke	t	n/a
250.819	0.075	501638	keystroke	e	n/a
251.0885	0.075	502177	keystroke	r	n/a
251.314	0.0745	502628	keystroke	Key.space	n/a
251.9735	0.0755	503947	keystroke	b	n/a
252.2435	0.15	504487	keystroke	r	n/a
252.349	0.1795	504698	keystroke	e	n/a
252.5435	0.15	505087	keystroke	a	n/a
252.8735	0.105	505747	keystroke	t	n/a
253.0235	0.1355	506047	keystroke	h	n/a
253.1435	0.15	506287	keystroke	i	n/a
253.3685	0.135	506737	keystroke	n	n/a
253.564	0.0895	507128	keystroke	g	n/a
253.8035	0.09	507607	keystroke	Key.enter	n/a
253.9005	12.5195	507801	prompt	n/a	enforcement arise agreement renaissance\n
254.779	0.0595	509558	keystroke	e	n/a
254.883	0.105	509766	keystroke	n	n/a
255.1985	0.075	510397	keystroke	f	n/a
255.3335	0.15	510667	keystroke	o	n/a
255.5285	0.0755	511057	keystroke	r	n/a
255.934	0.0745	511868	keystroke	c	n/a
256.189	0.06	512378	keystroke	e	n/a
256.399	0.1345	512798	keystroke	m	n/a
256.548	0.091	513096	keystroke	e	n/a
256.714	0.089	513428	keystroke	n	n/a
256.863	0.0905	513726	keystroke	t	n/a
257.149	0.075	514298	keystroke	s	n/a
257.868	0.105	515736	keystroke	Key.backspace	n/a
258.0335	0.0755	516067	keystroke	Key.space	n/a
258.499	0.09	516998	keystroke	a	n/a
258.784	0.09	517568	keystroke	r	n/a
258.964	0.12	517928	keystroke	i	n/a
259.159	0.09	518318	keystroke	s	n/a
259.399	0.0595	518798	keystroke	e	n/a
259.518	0.106	519036	keystroke	Key.space	n/a
259.699	0.089	519398	keystroke	a	n/a
259.9835	0.0745	519967	keystroke	g	n/a
260.283	0.076	520566	keystroke	r	n/a
260.4335	0.09	520867	keystroke	e	n/a
260.6285	0.0905	521257	keystroke	e	n/a
260.868	0.1205	521736	keystroke	m	n/a
261.0035	0.075	522007	keystroke	e	n/a
261.229	0.104	522458	keystroke	n	n/a
261.408	0.076	522816	keystroke	t	n/a
262.083	0.0755	524166	keystroke	Key.space	n/a
262.458	0.165	524916	keystroke	r	n/a
262.609	0.089	525218	keystroke	e	n/a
263.164	0.075	526328	keystroke	a	n/a
263.9285	0.09	527857	keystroke	Key.backspace	n/a
264.1535	0.12	528307	keystroke	n	n/a
264.304	0.1045	528608	keystroke	a	n/a
264.5885	0.105	529177	keystroke	i	n/a
265.2335	0.075	530467	keystroke	s	n/a
265.4135	0.105	530827	keystroke	s	n/a
265.5935	0.1505	531187	keystroke	a	n/a
265.804	0.1045	531608	keystroke	n	n/a
265.894	0.0745	531788	keystroke	c	n/a
266.133	0.075	532266	keystroke	e	n/a
266.3285	0.0895	532657	keystroke	Key.enter	n/a
266.4235	10.1515	532847	prompt	n/a	marathon lying jaguar ships\n
267.094	0.12	534188	keystroke	m	n/a
267.229	0.104	534458	keystroke	a	n/a
267.499	0.104	534998	keystroke	r	n/a
267.694	0.105	535388	keystroke	a	n/a
268.488	0.0905	536976	keystroke	t	n/a
268.714	0.135	537428	keystroke	h	n/a
268.789	0.18	537578	keystroke	o	n/a
269.0435	0.1205	538087	keystroke	n	n/a
269.2385	0.1195	538477	keystroke	Key.space	n/a
269.449	0.134	538898	keystroke	l	n/a
271.865	0.0435	543730	keystroke	y	n/a
272.073	0.1205	544146	keystroke	i	n/a
272.283	0.12	544566	keystroke	n	n/a
272.4785	0.0745	544957	keystroke	g	n/a
272.6435	0.12	545287	keystroke	Key.space	n/a
272.914	0.1185	545828	keystroke	j	n/a
273.0785	0.09	546157	keystroke	a	n/a
273.4385	0.09	546877	keystroke	g	n/a
273.5885	0.135	547177	keystroke	u	n/a
273.9195	0.089	547839	keystroke	a	n/a
274.729	0.06	549458	keystroke	r	n/a
274.879	0.1045	549758	keystroke	Key.space	n/a
275.119	0.09	550238	keystroke	s	n/a
275.283	0.151	550566	keystroke	h	n/a
275.8835	0.105	551767	keystroke	i	n/a
276.0935	0.1645	552187	keystroke	p	n/a
276.243	0.06	552486	keystroke	s	n/a
276.483	0.09	552966	keystroke	Key.enter	n/a
276.58	7.015	553160	prompt	n/a	some keeping becoming discounts\n
277.428	0.0755	554856	keystroke	s	n/a
277.488	0.1355	554976	keystroke	o	n/a
277.713	0.1055	555426	keystroke	m	n/a
277.8635	0.09	555727	keystroke	e	n/a
277.983	0.075	555966	keystroke	Key.space	n/a
278.1185	0.1345	556237	keystroke	k	n/a
278.3735	0.045	556747	keystroke	e	n/a
278.523	0.0905	557046	keystroke	e	n/a
278.793	0.12	557586	keystroke	p	n/a
278.974	0.104	557948	keystroke	i	n/a
279.198	0.076	558396	keystroke	n	n/a
279.333	0.075	558666	keystroke	g	n/a
279.483	0.09	558966	keystroke	Key.space	n/a
279.7085	0.0745	559417	keystroke	b	n/a
279.9185	0.075	559837	keystroke	e	n/a
280.1735	0.075	560347	keystroke	c	n/a
280.2935	0.135	560587	keystroke	o	n/a
280.6985	0.105	561397	keystroke	m	n/a
280.9535	0.105	561907	keystroke	i	n/a
281.1335	0.1055	562267	keystroke	n	n/a
281.343	0.09	562686	keystroke	g	n/a
281.538	0.105	563076	keystroke	Key.space	n/a
281.808	0.09	563616	keystroke	d	n/a
281.913	0.091	563826	keystroke	i	n/a
282.0485	0.09	564097	keystroke	s	n/a
282.288	0.105	564576	keystroke	c	n/a
282.4235	0.1345	564847	keystroke	o	n/a
282.5285	0.1495	565057	keystroke	u	n/a
282.8285	0.15	565657	keystroke	n	n/a
282.9935	0.0905	565987	keystroke	t	n/a
283.2485	0.105	566497	keystroke	s	n/a
283.5185	0.074	567037	keystroke	Key.enter	n/a
283.5985	10.812	567197	prompt	n/a	ecuador chapel accurately metal\n
284.703	0.0755	569406	keystroke	e	n/a
285.423	0.0455	570846	keystroke	c	n/a
286.7135	0.09	573427	keystroke	u	n/a
286.8485	0.09	573697	keystroke	a	n/a
287.2685	0.0595	574537	keystroke	d	n/a
287.448	0.121	574896	keystroke	o	n/a
287.5835	0.0895	575167	keystroke	r	n/a
287.958	0.09	575916	keystroke	Key.space	n/a
288.3935	0.075	576787	keystroke	c	n/a
288.4535	0.12	576907	keystroke	h	n/a
289.113	0.015	578226	keystroke	a	n/a
289.2485	0.1345	578497	keystroke	p	n/a
289.473	0.0605	578946	keystroke	e	n/a
289.7585	0.194	579517	keystroke	l	n/a
290.0435	0.105	580087	keystroke	Key.space	n/a
290.4035	0.075	580807	keystroke	a	n/a
290.6135	0.06	581227	keystroke	c	n/a
290.749	0.0745	581498	keystroke	c	n/a
291.063	0.0905	582126	keystroke	u	n/a
291.3935	0.15	582787	keystroke	r	n/a
291.5135	0.1655	583027	keystroke	a	n/a
291.7685	0.105	583537	keystroke	t	n/a
291.9485	0.105	583897	keystroke	e	n/a
292.0985	0.105	584197	keystroke	l	n/a
292.3535	0.1195	584707	keystroke	y	n/a
292.518	0.105	585036	keystroke	Key.space	n/a
292.7885	0.135	585577	keystroke	m	n/a
292.938	0.09	585876	keystroke	e	n/a
293.2085	0.1045	586417	keystroke	a	n/a
293.598	0.105	587196	keystroke	Key.backspace	n/a
293.6735	0.1045	587347	keystroke	t	n/a
293.8685	0.105	587737	keystroke	a	n/a
294.0035	0.15	588007	keystroke	l	n/a
294.3335	0.075	588667	keystroke	Key.enter	n/a
294.414	10.016	588828	prompt	n/a	need charming nomination baptist\n
295.219	0.1045	590438	keystroke	n	n/a
295.3835	0.0745	590767	keystroke	e	n/a
295.5335	0.0895	591067	keystroke	e	n/a
295.804	0.074	591608	keystroke	d	n/a
295.953	0.0905	591906	keystroke	Key.space	n/a
296.1935	0.0745	592387	keystroke	c	n/a
296.298	0.135	592596	keystroke	h	n/a
296.418	0.1055	592836	keystroke	a	n/a
296.7185	0.105	593437	keystroke	r	n/a
297.0335	0.09	594067	keystroke	m	n/a
297.3035	0.0755	594607	keystroke	u	n/a
297.9335	0.105	595867	keystroke	Key.backspace	n/a
298.1585	0.0905	596317	keystroke	i	n/a
298.3235	0.12	596647	keystroke	n	n/a
298.5035	0.09	597007	keystroke	g	n/a
298.998	0.0905	597996	keystroke	Key.space	n/a
299.2685	0.105	598537	keystroke	n	n/a
299.3585	0.134	598717	keystroke	o	n/a
299.5825	0.09	599165	keystroke	m	n/a
300.0935	0.09	600187	keystroke	i	n/a
300.3635	0.09	600727	keystroke	n	n/a
300.5435	0.09	601087	keystroke	a	n/a
300.9185	0.104	601837	keystroke	t	n/a
301.0675	0.195	602135	keystroke	i	n/a
301.1875	0.165	602375	keystroke	o	n/a
301.4425	0.121	602885	keystroke	n	n/a
301.6825	0.075	603365	keystroke	Key.space	n/a
301.998	0.0905	603996	keystroke	b	n/a
302.1925	0.09	604385	keystroke	a	n/a
302.838	0.1055	605676	keystroke	p	n/a
303.2135	0.09	606427	keystroke	t	n/a
303.3485	0.135	606697	keystroke	i	n/a
303.4985	0.12	606997	keystroke	s	n/a
304.1435	0.075	608287	keystroke	t	n/a
304.323	0.105	608646	keystroke	Key.enter	n/a
304.435	7.6745	608870	prompt	n/a	appreciate lynn comprehensive trail\n
305.1485	0.105	610297	keystroke	a	n/a
305.2835	0.09	610567	keystroke	p	n/a
305.4485	0.135	610897	keystroke	p	n/a
305.6135	0.195	611227	keystroke	r	n/a
305.7635	0.105	611527	keystroke	e	n/a
306.048	0.0895	612096	keystroke	c	n/a
306.2135	0.1205	612427	keystroke	i	n/a
306.3485	0.09	612697	keystroke	a	n/a
306.6175	0.09	613235	keystroke	t	n/a
306.8435	0.105	613687	keystroke	e	n/a
306.9935	0.09	613987	keystroke	Key.space	n/a
307.1735	0.12	614347	keystroke	l	n/a
307.4285	0.0895	614857	keystroke	y	n/a
307.6985	0.0445	615397	keystroke	n	n/a
307.8185	0.1045	615637	keystroke	n	n/a
308.028	0.06	616056	keystroke	Key.space	n/a
308.344	0.0745	616688	keystroke	c	n/a
308.4335	0.1345	616867	keystroke	o	n/a
308.6425	0.1055	617285	keystroke	m	n/a
308.8835	0.105	617767	keystroke	p	n/a
309.1835	0.2095	618367	keystroke	r	n/a
309.3785	0.1045	618757	keystroke	e	n/a
309.603	0.121	619206	keystroke	h	n/a
309.7385	0.0745	619477	keystroke	e	n/a
309.903	0.1355	619806	keystroke	n	n/a
310.113	0.1055	620226	keystroke	s	n/a
310.233	0.12	620466	keystroke	i	n/a
310.368	0.0905	620736	keystroke	v	n/a
310.5635	0.1195	621127	keystroke	e	n/a
310.698	0.105	621396	keystroke	Key.space	n/a
310.9085	0.09	621817	keystroke	t	n/a
311.119	0.1045	622238	keystroke	r	n/a
311.3435	0.12	622687	keystroke	a	n/a
311.4935	0.1195	622987	keystroke	i	n/a
311.734	0.1345	623468	keystroke	l	n/a
312.0175	0.09	624035	keystroke	Key.enter	n/a
312.1155	8.5295	624231	prompt	n/a	christine signatures member laugh\n
312.8135	0.075	625627	keystroke	c	n/a
313.0235	0.1195	626047	keystroke	h	n/a
313.6385	0.0745	627277	keystroke	r	n/a
313.758	0.135	627516	keystroke	i	n/a
313.878	0.1055	627756	keystroke	s	n/a
314.1785	0.105	628357	keystroke	t	n/a
314.2685	0.12	628537	keystroke	i	n/a
314.4785	0.135	628957	keystroke	n	n/a
314.7035	0.09	629407	keystroke	e	n/a
314.8535	0.12	629707	keystroke	Key.space	n/a
315.0335	0.105	630067	keystroke	s	n/a
315.1685	0.12	630337	keystroke	i	n/a
315.3635	0.105	630727	keystroke	g	n/a
315.4685	0.135	630937	keystroke	n	n/a
315.6185	0.12	631237	keystroke	a	n/a
315.9785	0.09	631957	keystroke	t	n/a
316.0985	0.105	632197	keystroke	u	n/a
316.8035	0.15	633607	keystroke	r	n/a
316.9575	0.1155	633915	keystroke	e	n/a
317.238	0.0905	634476	keystroke	s	n/a
317.343	0.09	634686	keystroke	Key.space	n/a
317.5535	0.105	635107	keystroke	m	n/a
317.6735	0.074	635347	keystroke	e	n/a
317.7935	0.1645	635587	keystroke	m	n/a
317.9725	0.076	635945	keystroke	e	n/a
318.453	0.1045	636906	keystroke	Key.backspace	n/a
318.5135	0.09	637027	keystroke	b	n/a
318.7235	0.09	637447	keystroke	e	n/a
318.933	0.105	637866	keystroke	r	n/a
319.128	0.075	638256	keystroke	Key.space	n/a
319.6075	0.135	639215	keystroke	l	n/a
319.6985	0.119	639397	keystroke	a	n/a
319.9085	0.12	639817	keystroke	u	n/a
320.1185	0.105	640237	keystroke	g	n/a
320.2525	0.09	640505	keystroke	h	n/a
320.5535	0.09	641107	keystroke	Key.enter	n/a
320.649	7.332	641298	prompt	n/a	term working correctly emerald\n
321.378	0.09	642756	keystroke	t	n/a
321.5735	0.09	643147	keystroke	e	n/a
321.828	0.1055	643656	keystroke	r	n/a
321.9485	0.1495	643897	keystroke	m	n/a
322.113	0.1205	644226	keystroke	Key.space	n/a
322.3685	0.0745	644737	keystroke	w	n/a
322.458	0.1655	644916	keystroke	o	n/a
322.683	0.105	645366	keystroke	r	n/a
322.788	0.1205	645576	keystroke	k	n/a
323.0425	0.1355	646085	keystroke	i	n/a
323.2375	0.1505	646475	keystroke	n	n/a
323.463	0.091	646926	keystroke	g	n/a
323.5835	0.1195	647167	keystroke	Key.space	n/a
323.793	0.0905	647586	keystroke	c	n/a
323.9585	0.135	647917	keystroke	o	n/a
324.1985	0.075	648397	keystroke	r	n/a
324.3635	0.09	648727	keystroke	r	n/a
324.6185	0.09	649237	keystroke	e	n/a
325.2935	0.045	650587	keystroke	c	n/a
325.8485	0.075	651697	keystroke	t	n/a
325.9235	0.15	651847	keystroke	l	n/a
326.2235	0.12	652447	keystroke	y	n/a
326.4035	0.09	652807	keystroke	Key.space	n/a
326.7485	0.0595	653497	keystroke	e	n/a
326.838	0.135	653676	keystroke	m	n/a
326.988	0.06	653976	keystroke	e	n/a
327.1985	0.1045	654397	keystroke	r	n/a
327.408	0.12	654816	keystroke	a	n/a
327.543	0.151	655086	keystroke	l	n/a
327.708	0.06	655416	keystroke	d	n/a
327.9025	0.076	655805	keystroke	Key.enter	n/a
327.9855	7.66	655971	prompt	n/a	reverse late rwanda michelle\n
328.593	0.0905	657186	keystroke	t	n/a
329.193	0.0905	658386	keystroke	Key.backspace	n/a
329.313	0.1055	658626	keystroke	r	n/a
329.4785	0.0895	658957	keystroke	e	n/a
329.688	0.105	659376	keystroke	v	n/a
329.868	0.1055	659736	keystroke	e	n/a
330.048	0.105	660096	keystroke	r	n/a
330.288	0.12	660576	keystroke	s	n/a
330.5135	0.075	661027	keystroke	e	n/a
330.6775	0.076	661355	keystroke	Key.space	n/a
330.8735	0.119	661747	keystroke	l	n/a
330.9175	0.0905	661835	keystroke	a	n/a
331.2185	0.075	662437	keystroke	t	n/a
331.4275	0.076	662855	keystroke	e	n/a
331.6235	0.074	663247	keystroke	Key.space	n/a
332.073	0.0605	664146	keystroke	r	n/a
332.2835	0.105	664567	keystroke	w	n/a
332.4775	0.12	664955	keystroke	a	n/a
332.763	0.105	665526	keystroke	n	n/a
332.884	0.074	665768	keystroke	d	n/a
333.1235	0.0595	666247	keystroke	e	n/a
333.318	0.075	666636	keystroke	Key.space	n/a
333.5585	0.09	667117	keystroke	m	n/a
333.753	0.045	667506	keystroke	e	n/a
334.218	0.075	668436	keystroke	Key.backspace	n/a
334.443	0.1205	668886	keystroke	i	n/a
334.593	0.0755	669186	keystroke	c	n/a
334.7135	0.12	669427	keystroke	h	n/a
334.9235	0.075	669847	keystroke	e	n/a
335.0885	0.09	670177	keystroke	l	n/a
335.2835	0.09	670567	keystroke	l	n/a
335.5535	0.09	671107	keystroke	Key.enter	n/a
335.649	7.046	671298	prompt	n/a	leaf exclude floor firmware\n
336.4385	0.1195	672877	keystroke	l	n/a
336.543	0.0905	673086	keystroke	e	n/a
336.7235	0.135	673447	keystroke	a	n/a
337.0385	0.075	674077	keystroke	f	n/a
337.2335	0.075	674467	keystroke	Key.space	n/a
337.4585	0.089	674917	keystroke	e	n/a
337.7435	0.09	675487	keystroke	x	n/a
338.0435	0.105	676087	keystroke	c	n/a
338.1035	0.1205	676207	keystroke	l	n/a
338.3735	0.12	676747	keystroke	u	n/a
338.5235	0.0595	677047	keystroke	d	n/a
338.7635	0.0745	677527	keystroke	e	n/a
338.9735	0.075	677947	keystroke	Key.space	n/a
339.2735	0.075	678547	keystroke	f	n/a
339.3635	0.105	678727	keystroke	l	n/a
339.6035	0.075	679207	keystroke	o	n/a
339.7985	0.12	679597	keystroke	o	n/a
340.0385	0.105	680077	keystroke	r	n/a
340.2335	0.1045	680467	keystroke	Key.space	n/a
340.5635	0.075	681127	keystroke	f	n/a
340.743	0.12	681486	keystroke	i	n/a
340.998	0.0755	681996	keystroke	r	n/a
341.088	0.121	682176	keystroke	m	n/a
341.4935	0.075	682987	keystroke	w	n/a
341.688	0.1355	683376	keystroke	a	n/a
342.1235	0.089	684247	keystroke	r	n/a
342.333	0.0905	684666	keystroke	e	n/a
342.5875	0.1055	685175	keystroke	Key.enter	n/a
342.6985	10.6915	685397	prompt	n/a	purpose shooting submit connecticut\n
343.5035	0.1195	687007	keystroke	p	n/a
343.758	0.09	687516	keystroke	u	n/a
343.983	0.09	687966	keystroke	r	n/a
344.1785	0.165	688357	keystroke	p	n/a
344.283	0.21	688566	keystroke	o	n/a
344.494	0.089	688988	keystroke	s	n/a
344.733	0.0605	689466	keystroke	e	n/a
344.8985	0.1195	689797	keystroke	Key.space	n/a
345.183	0.0905	690366	keystroke	s	n/a
345.3485	0.1195	690697	keystroke	h	n/a
345.468	0.0155	690936	keystroke	o	n/a
345.5885	0.15	691177	keystroke	o	n/a
345.8885	0.089	691777	keystroke	t	n/a
346.338	0.0745	692676	keystroke	i	n/a
346.5175	0.105	693035	keystroke	n	n/a
346.6835	0.06	693367	keystroke	g	n/a
346.8325	0.105	693665	keystroke	Key.space	n/a
347.0435	0.1195	694087	keystroke	s	n/a
347.1485	0.1045	694297	keystroke	u	n/a
347.4935	0.105	694987	keystroke	m	n/a
347.958	0.1055	695916	keystroke	Key.backspace	n/a
348.4685	0.09	696937	keystroke	b	n/a
348.5435	0.089	697087	keystroke	m	n/a
348.8135	0.12	697627	keystroke	i	n/a
349.0535	0.075	698107	keystroke	t	n/a
349.6085	0.075	699217	keystroke	Key.space	n/a
349.9085	0.075	699817	keystroke	c	n/a
349.9985	0.12	699997	keystroke	o	n/a
350.2235	0.06	700447	keystroke	n	n/a
350.3435	0.09	700687	keystroke	n	n/a
350.5235	0.06	701047	keystroke	e	n/a
350.7485	0.075	701497	keystroke	c	n/a
351.8135	0.0595	703627	keystroke	t	n/a
351.9185	0.1355	703837	keystroke	i	n/a
352.1135	0.089	704227	keystroke	c	n/a
352.248	0.0905	704496	keystroke	u	n/a
352.518	0.075	705036	keystroke	t	n/a
353.2975	0.09	706595	keystroke	Key.enter	n/a
353.393	10.137	706786	prompt	n/a	checking isn't both hepatitis\n
354.138	0.075	708276	keystroke	c	n/a
354.228	0.135	708456	keystroke	h	n/a
354.4235	0.0745	708847	keystroke	e	n/a
354.6635	0.0895	709327	keystroke	c	n/a
355.6835	0.089	711367	keystroke	k	n/a
355.9085	0.075	711817	keystroke	i	n/a
356.058	0.1205	712116	keystroke	n	n/a
356.2085	0.09	712417	keystroke	g	n/a
356.613	0.0755	713226	keystroke	Key.space	n/a
356.808	0.105	713616	keystroke	i	n/a
356.958	0.105	713916	keystroke	s	n/a
357.153	0.09	714306	keystroke	n	n/a
357.333	0.1355	714666	keystroke	'	n/a
357.6325	0.075	715265	keystroke	t	n/a
357.8285	0.0745	715657	keystroke	Key.space	n/a
358.473	0.06	716946	keystroke	b	n/a
358.608	0.12	717216	keystroke	o	n/a
358.818	0.075	717636	keystroke	t	n/a
358.938	0.1205	717876	keystroke	h	n/a
359.118	0.09	718236	keystroke	Key.space	n/a
359.268	0.1205	718536	keystroke	p	n/a
359.7035	0.0745	719407	keystroke	Key.backspace	n/a
359.913	0.075	719826	keystroke	h	n/a
360.993	0.0455	721986	keystroke	e	n/a
361.6685	0.12	723337	keystroke	p	n/a
361.8635	0.09	723727	keystroke	a	n/a
362.403	0.06	724806	keystroke	t	n/a
362.5085	0.105	725017	keystroke	i	n/a
362.628	0.105	725256	keystroke	t	n/a
362.733	0.12	725466	keystroke	i	n/a
363.108	0.075	726216	keystroke	s	n/a
363.4235	0.105	726847	keystroke	Key.enter	n/a
363.5335	6.5815	727067	prompt	n/a	perl training bobby brake\n
364.2485	0.135	728497	keystroke	p	n/a
364.3685	0.075	728737	keystroke	e	n/a
364.5935	0.09	729187	keystroke	r	n/a
364.7135	0.15	729427	keystroke	l	n/a
364.848	0.1045	729696	keystroke	Key.space	n/a
365.1635	0.075	730327	keystroke	t	n/a
365.3575	0.09	730715	keystroke	r	n/a
366.3935	0.089	732787	keystroke	a	n/a
366.6175	0.091	733235	keystroke	i	n/a
366.8435	0.1045	733687	keystroke	n	n/a
366.9935	0.1045	733987	keystroke	i	n/a
367.203	0.106	734406	keystroke	n	n/a
367.3835	0.075	734767	keystroke	g	n/a
367.6385	0.075	735277	keystroke	Key.space	n/a
367.9085	0.06	735817	keystroke	b	n/a
368.0435	0.12	736087	keystroke	o	n/a
368.2835	0.045	736567	keystroke	b	n/a
368.4185	0.075	736837	keystroke	b	n/a
368.5535	0.1345	737107	keystroke	y	n/a
368.748	0.1055	737496	keystroke	Key.space	n/a
369.0485	0.06	738097	keystroke	b	n/a
369.3035	0.165	738607	keystroke	r	n/a
369.4535	0.15	738907	keystroke	a	n/a
369.6485	0.15	739297	keystroke	k	n/a
369.8135	0.075	739627	keystroke	e	n/a
370.0235	0.0895	740047	keystroke	Key.enter	n/a
370.1205	15.459	740241	prompt	n/a	developmental composition sales plaintiff\n
371.4935	0.0745	742987	keystroke	d	n/a
371.7335	0.075	743467	keystroke	e	n/a
371.9585	0.0745	743917	keystroke	v	n/a
372.1385	0.06	744277	keystroke	e	n/a
372.4085	0.105	744817	keystroke	l	n/a
372.6485	0.105	745297	keystroke	p	n/a
373.4585	0.089	746917	keystroke	Key.backspace	n/a
373.7275	0.09	747455	keystroke	o	n/a
373.9085	0.12	747817	keystroke	p	n/a
374.8385	0.105	749677	keystroke	m	n/a
375.0035	0.06	750007	keystroke	w	n/a
375.0185	0.045	750037	keystroke	e	n/a
375.7225	0.076	751445	keystroke	Key.backspace	n/a
375.9025	0.12	751805	keystroke	Key.backspace	n/a
376.4285	0.075	752857	keystroke	e	n/a
376.683	0.0905	753366	keystroke	n	n/a
376.9535	0.105	753907	keystroke	t	n/a
377.1785	0.105	754357	keystroke	a	n/a
377.4335	0.105	754867	keystroke	l	n/a
377.6425	0.076	755285	keystroke	Key.space	n/a
377.8685	0.075	755737	keystroke	c	n/a
378.0035	0.135	756007	keystroke	o	n/a
378.1985	0.105	756397	keystroke	m	n/a
378.4385	0.104	756877	keystroke	p	n/a
379.0835	0.105	758167	keystroke	o	n/a
379.3385	0.06	758677	keystroke	s	n/a
379.4585	0.135	758917	keystroke	i	n/a
379.788	0.0905	759576	keystroke	t	n/a
379.9685	0.165	759937	keystroke	i	n/a
380.059	0.1945	760118	keystroke	o	n/a
380.2985	0.165	760597	keystroke	n	n/a
380.5385	0.105	761077	keystroke	Key.space	n/a
380.8085	0.165	761617	keystroke	s	n/a
380.9135	0.1795	761827	keystroke	a	n/a
381.1085	0.165	762217	keystroke	l	n/a
381.2585	0.105	762517	keystroke	e	n/a
381.5135	0.1055	763027	keystroke	s	n/a
381.603	0.105	763206	keystroke	Key.space	n/a
381.904	0.1345	763808	keystroke	p	n/a
382.1285	0.165	764257	keystroke	l	n/a
382.4435	0.09	764887	keystroke	a	n/a
382.5635	0.105	765127	keystroke	i	n/a
383.493	0.105	766986	keystroke	n	n/a
384.6335	0.075	769267	keystroke	t	n/a
384.7685	0.12	769537	keystroke	i	n/a
385.0685	0.059	770137	keystroke	f	n/a
385.2175	0.09	770435	keystroke	f	n/a
385.488	0.09	770976	keystroke	Key.enter	n/a
385.583	6.0115	771166	prompt	n/a	tips dame child capacity\n
386.478	0.09	772956	keystroke	t	n/a
386.583	0.1055	773166	keystroke	i	n/a
386.763	0.15	773526	keystroke	p	n/a
387.033	0.0605	774066	keystroke	s	n/a
387.1385	0.1055	774277	keystroke	Key.space	n/a
387.3035	0.15	774607	keystroke	d	n/a
387.3785	0.15	774757	keystroke	a	n/a
387.558	0.15	775116	keystroke	m	n/a
387.7835	0.0745	775567	keystroke	e	n/a
387.9935	0.105	775987	keystroke	Key.space	n/a
388.2485	0.075	776497	keystroke	c	n/a
388.3835	0.089	776767	keystroke	h	n/a
388.4135	0.135	776827	keystroke	i	n/a
388.6685	0.165	777337	keystroke	l	n/a
388.9085	0.06	777817	keystroke	d	n/a
389.073	0.0895	778146	keystroke	Key.space	n/a
389.2985	0.0595	778597	keystroke	c	n/a
389.853	0.0755	779706	keystroke	a	n/a
390.123	0.135	780246	keystroke	p	n/a
390.258	0.1055	780516	keystroke	a	n/a
390.7385	0.075	781477	keystroke	c	n/a
390.8585	0.12	781717	keystroke	i	n/a
391.0535	0.105	782107	keystroke	t	n/a
391.2335	0.105	782467	keystroke	y	n/a
391.5035	0.089	783007	keystroke	Key.enter	n/a
391.5985	9.5065	783197	prompt	n/a	advantages tract defend siemens\n
392.328	0.09	784656	keystroke	a	n/a
392.5535	0.0745	785107	keystroke	d	n/a
393.183	0.1055	786366	keystroke	v	n/a
393.243	0.1355	786486	keystroke	a	n/a
393.393	0.0905	786786	keystroke	n	n/a
393.8135	0.074	787627	keystroke	t	n/a
394.1435	0.09	788287	keystroke	a	n/a
395.0135	0.105	790027	keystroke	g	n/a
395.1635	0.075	790327	keystroke	e	n/a
395.4035	0.0745	790807	keystroke	s	n/a
395.6125	0.0905	791225	keystroke	Key.space	n/a
395.989	0.059	791978	keystroke	t	n/a
396.213	0.1055	792426	keystroke	r	n/a
396.3635	0.12	792727	keystroke	a	n/a
396.618	0.0755	793236	keystroke	c	n/a
397.2175	0.076	794435	keystroke	t	n/a
397.4875	0.09	794975	keystroke	Key.space	n/a
397.8925	0.09	795785	keystroke	d	n/a
398.133	0.075	796266	keystroke	e	n/a
398.388	0.09	796776	keystroke	f	n/a
398.583	0.075	797166	keystroke	e	n/a
398.7935	0.089	797587	keystroke	n	n/a
398.8985	0.0745	797797	keystroke	d	n/a
399.093	0.09	798186	keystroke	Key.space	n/a
399.378	0.09	798756	keystroke	s	n/a
399.5125	0.105	799025	keystroke	i	n/a
399.7835	0.0595	799567	keystroke	e	n/a
399.9335	0.18	799867	keystroke	m	n/a
400.128	0.0745	800256	keystroke	e	n/a
400.2925	0.136	800585	keystroke	n	n/a
400.818	0.0605	801636	keystroke	s	n/a
401.0125	0.09	802025	keystroke	Key.enter	n/a
401.1095	12.0555	802219	prompt	n/a	chronicles counters manufactured accessed\n
402.0485	0.0595	804097	keystroke	c	n/a
402.3335	0.135	804667	keystroke	h	n/a
402.4375	0.151	804875	keystroke	o	n/a
402.4985	0.104	804997	keystroke	r	n/a
403.0825	0.046	806165	keystroke	Key.backspace	n/a
403.2325	0.09	806465	keystroke	Key.backspace	n/a
403.4285	0.074	806857	keystroke	r	n/a
403.5185	0.149	807037	keystroke	o	n/a
403.7875	0.0905	807575	keystroke	n	n/a
404.0135	0.0895	808027	keystroke	i	n/a
404.118	0.075	808236	keystroke	c	n/a
404.238	0.165	808476	keystroke	l	n/a
404.388	0.075	808776	keystroke	e	n/a
404.6435	0.09	809287	keystroke	s	n/a
404.763	0.09	809526	keystroke	Key.space	n/a
405.033	0.09	810066	keystroke	c	n/a
405.1085	0.1495	810217	keystroke	o	n/a
405.228	0.12	810456	keystroke	u	n/a
405.513	0.12	811026	keystroke	n	n/a
405.6485	0.09	811297	keystroke	t	n/a
405.8435	0.105	811687	keystroke	e	n/a
406.0675	0.105	812135	keystroke	r	n/a
406.323	0.105	812646	keystroke	s	n/a
406.5175	0.075	813035	keystroke	Key.space	n/a
406.7575	0.1355	813515	keystroke	m	n/a
406.9535	0.104	813907	keystroke	a	n/a
407.118	0.0745	814236	keystroke	n	n/a
407.3425	0.091	814685	keystroke	u	n/a
407.5825	0.106	815165	keystroke	f	n/a
407.733	0.12	815466	keystroke	a	n/a
407.9885	0.075	815977	keystroke	c	n/a
408.3635	0.0895	816727	keystroke	t	n/a
408.543	0.1055	817086	keystroke	u	n/a
409.323	0.075	818646	keystroke	r	n/a
409.5935	0.06	819187	keystroke	e	n/a
409.8635	0.074	819727	keystroke	d	n/a
410.1475	0.0905	820295	keystroke	Key.space	n/a
410.5385	0.0745	821077	keystroke	a	n/a
410.9285	0.0595	821857	keystroke	c	n/a
411.048	0.0745	822096	keystroke	c	n/a
411.4525	0.0905	822905	keystroke	e	n/a
411.888	0.0595	823776	keystroke	s	n/a
412.0235	0.1045	824047	keystroke	s	n/a
412.278	0.0605	824556	keystroke	e	n/a
412.818	0.0455	825636	keystroke	d	n/a
413.088	0.075	826176	keystroke	Key.enter	n/a
413.1725	9.8925	826345	prompt	n/a	arrival steve conversion protest\n
414.0025	0.09	828005	keystroke	a	n/a
414.3335	0.059	828667	keystroke	r	n/a
414.453	0.0755	828906	keystroke	r	n/a
414.963	0.0905	829926	keystroke	i	n/a
415.5625	0.0755	831125	keystroke	v	n/a
416.433	0.09	832866	keystroke	a	n/a
416.553	0.1355	833106	keystroke	l	n/a
416.658	0.12	833316	keystroke	Key.space	n/a
416.883	0.075	833766	keystroke	s	n/a
417.1075	0.106	834215	keystroke	t	n/a
417.3475	0.076	834695	keystroke	e	n/a
417.8735	0.0895	835747	keystroke	v	n/a
418.023	0.09	836046	keystroke	e	n/a
418.173	0.12	836346	keystroke	Key.space	n/a
418.413	0.075	836826	keystroke	c	n/a
418.563	0.12	837126	keystroke	o	n/a
418.773	0.12	837546	keystroke	n	n/a
419.5235	0.075	839047	keystroke	v	n/a
419.7475	0.075	839495	keystroke	e	n/a
419.9585	0.075	839917	keystroke	r	n/a
420.228	0.0905	840456	keystroke	s	n/a
420.408	0.1055	840816	keystroke	i	n/a
420.453	0.18	840906	keystroke	o	n/a
420.6925	0.12	841385	keystroke	n	n/a
420.8725	0.075	841745	keystroke	Key.space	n/a
421.1885	0.1045	842377	keystroke	p	n/a
421.398	0.075	842796	keystroke	r	n/a
421.488	0.1205	842976	keystroke	o	n/a
421.6235	0.1195	843247	keystroke	s	n/a
422.028	0.075	844056	keystroke	Key.backspace	n/a
422.133	0.075	844266	keystroke	t	n/a
422.328	0.075	844656	keystroke	e	n/a
422.538	0.105	845076	keystroke	s	n/a
422.808	0.105	845616	keystroke	t	n/a
422.973	0.09	845946	keystroke	Key.enter	n/a
423.069	15.821	846138	prompt	n/a	subcommittee interface curtis armstrong\n
424.0985	0.0895	848197	keystroke	s	n/a
424.2335	0.119	848467	keystroke	u	n/a
425.1035	0.06	850207	keystroke	b	n/a
425.4185	0.075	850837	keystroke	c	n/a
425.5385	0.1195	851077	keystroke	o	n/a
425.7925	0.09	851585	keystroke	m	n/a
425.9435	0.1045	851887	keystroke	m	n/a
426.408	0.045	852816	keystroke	e	n/a
427.008	0.0755	854016	keystroke	t	n/a
427.1285	0.074	854257	keystroke	t	n/a
427.3985	0.06	854797	keystroke	e	n/a
427.5485	0.06	855097	keystroke	e	n/a
427.9235	0.06	855847	keystroke	Key.backspace	n/a
428.0875	0.075	856175	keystroke	Key.backspace	n/a
428.238	0.075	856476	keystroke	Key.backspace	n/a
428.403	0.1045	856806	keystroke	Key.backspace	n/a
428.8975	0.0905	857795	keystroke	Key.backspace	n/a
429.543	0.12	859086	keystroke	i	n/a
431.028	0.045	862056	keystroke	t	n/a
431.1635	0.09	862327	keystroke	t	n/a
431.403	0.0605	862806	keystroke	e	n/a
431.538	0.09	863076	keystroke	e	n/a
432.0935	0.075	864187	keystroke	Key.space	n/a
432.408	0.0755	864816	keystroke	i	n/a
432.558	0.105	865116	keystroke	n	n/a
432.723	0.075	865446	keystroke	t	n/a
432.9035	0.1195	865807	keystroke	e	n/a
433.128	0.075	866256	keystroke	r	n/a
433.368	0.09	866736	keystroke	f	n/a
433.5785	0.0895	867157	keystroke	a	n/a
433.788	0.06	867576	keystroke	c	n/a
434.013	0.0605	868026	keystroke	e	n/a
434.163	0.09	868326	keystroke	Key.space	n/a
434.568	0.0605	869136	keystroke	c	n/a
434.913	0.1055	869826	keystroke	u	n/a
435.183	0.075	870366	keystroke	r	n/a
435.393	0.0755	870786	keystroke	t	n/a
435.648	0.1205	871296	keystroke	i	n/a
436.188	0.0745	872376	keystroke	s	n/a
436.3825	0.0905	872765	keystroke	Key.space	n/a
436.6835	0.0895	873367	keystroke	a	n/a
436.9685	0.075	873937	keystroke	r	n/a
437.118	0.12	874236	keystroke	m	n/a
437.493	0.075	874986	keystroke	s	n/a
437.763	0.075	875526	keystroke	t	n/a
437.9885	0.0895	875977	keystroke	r	n/a
438.123	0.1205	876246	keystroke	o	n/a
438.348	0.1205	876696	keystroke	n	n/a
438.573	0.075	877146	keystroke	g	n/a
438.783	0.105	877566	keystroke	Key.enter	n/a
438.895	11.9645	877790	prompt	n/a	enclosed president cents squad\n
439.7125	0.1205	879425	keystroke	a	n/a
440.2825	0.09	880565	keystroke	Key.backspace	n/a
440.4485	0.059	880897	keystroke	e	n/a
440.553	0.105	881106	keystroke	n	n/a
440.733	0.105	881466	keystroke	c	n/a
440.8235	0.0895	881647	keystroke	l	n/a
441.033	0.12	882066	keystroke	o	n/a
441.318	0.075	882636	keystroke	s	n/a
441.528	0.06	883056	keystroke	e	n/a
441.7385	0.0895	883477	keystroke	d	n/a
441.903	0.09	883806	keystroke	Key.space	n/a
442.248	0.105	884496	keystroke	p	n/a
442.4725	0.091	884945	keystroke	r	n/a
442.9825	0.105	885965	keystroke	i	n/a
443.7625	0.1205	887525	keystroke	Key.backspace	n/a
443.8525	0.061	887705	keystroke	e	n/a
444.3475	0.0905	888695	keystroke	s	n/a
444.4535	0.1195	888907	keystroke	i	n/a
445.0075	0.076	890015	keystroke	d	n/a
445.218	0.075	890436	keystroke	e	n/a
445.323	0.105	890646	keystroke	n	n/a
445.473	0.09	890946	keystroke	t	n/a
446.148	0.09	892296	keystroke	Key.space	n/a
446.493	0.0745	892986	keystroke	c	n/a
446.778	0.045	893556	keystroke	e	n/a
447.018	0.0905	894036	keystroke	n	n/a
447.1235	0.09	894247	keystroke	t	n/a
447.3785	0.06	894757	keystroke	s	n/a
447.5285	0.105	895057	keystroke	Key.space	n/a
448.113	0.045	896226	keystroke	s	n/a
448.668	0.075	897336	keystroke	q	n/a
449.9285	0.074	899857	keystroke	u	n/a
450.0325	0.0755	900065	keystroke	a	n/a
450.273	0.075	900546	keystroke	d	n/a
450.783	0.075	901566	keystroke	Key.enter	n/a
450.8625	10.4225	901725	prompt	n/a	andrews reliable boulevard enhance\n
451.638	0.09	903276	keystroke	a	n/a
451.7435	0.089	903487	keystroke	n	n/a
451.8625	0.0755	903725	keystroke	d	n/a
452.208	0.0895	904416	keystroke	r	n/a
453.033	0.165	906066	keystroke	e	n/a
453.138	0.12	906276	keystroke	w	n/a
453.4375	0.076	906875	keystroke	s	n/a
453.783	0.0745	907566	keystroke	Key.space	n/a
454.263	0.0755	908526	keystroke	r	n/a
454.383	0.089	908766	keystroke	e	n/a
454.7435	0.104	909487	keystroke	l	n/a
454.9685	0.1045	909937	keystroke	i	n/a
455.0435	0.089	910087	keystroke	a	n/a
455.343	0.0745	910686	keystroke	b	n/a
455.7185	0.135	911437	keystroke	l	n/a
455.8385	0.074	911677	keystroke	e	n/a
456.0775	0.075	912155	keystroke	Key.space	n/a
457.264	0.0585	914528	keystroke	b	n/a
457.443	0.135	914886	keystroke	o	n/a
457.5485	0.1195	915097	keystroke	u	n/a
457.788	0.1345	915576	keystroke	l	n/a
458.0425	0.076	916085	keystroke	e	n/a
458.6735	0.059	917347	keystroke	v	n/a
458.9425	0.09	917885	keystroke	a	n/a
459.228	0.0595	918456	keystroke	r	n/a
459.4835	0.074	918967	keystroke	d	n/a
459.7075	0.075	919415	keystroke	Key.space	n/a
460.0075	0.075	920015	keystroke	a	n/a
460.0835	0.1045	920167	keystroke	n	n/a
460.398	0.09	920796	keystroke	h	n/a
460.519	0.104	921038	keystroke	a	n/a
460.653	0.135	921306	keystroke	n	n/a
460.773	0.045	921546	keystroke	c	n/a
461.0135	0.059	922027	keystroke	e	n/a
461.2085	0.0745	922417	keystroke	Key.enter	n/a
461.2895	10.3305	922579	prompt	n/a	mate browse leonard comparative\n
461.928	0.1345	923856	keystroke	m	n/a
462.0325	0.12	924065	keystroke	a	n/a
462.3185	0.0745	924637	keystroke	t	n/a
462.528	0.075	925056	keystroke	e	n/a
462.693	0.075	925386	keystroke	Key.space	n/a
462.948	0.06	925896	keystroke	v	n/a
463.8475	0.1055	927695	keystroke	Key.backspace	n/a
463.9235	0.09	927847	keystroke	b	n/a
464.508	0.075	929016	keystroke	r	n/a
465.1235	0.1045	930247	keystroke	o	n/a
465.4835	0.0595	930967	keystroke	w	n/a
465.6935	0.0895	931387	keystroke	s	n/a
465.948	0.06	931896	keystroke	e	n/a
467.118	0.075	934236	keystroke	Key.space	n/a
467.3135	0.1345	934627	keystroke	l	n/a
467.418	0.12	934836	keystroke	e	n/a
468.003	0.1055	936006	keystroke	o	n/a
468.1985	0.1195	936397	keystroke	n	n/a
468.3335	0.0895	936667	keystroke	a	n/a
468.6185	0.075	937237	keystroke	r	n/a
468.8735	0.074	937747	keystroke	d	n/a
469.0225	0.1355	938045	keystroke	Key.space	n/a
469.338	0.0295	938676	keystroke	c	n/a
469.3525	0.106	938705	keystroke	o	n/a
469.5025	0.1205	939005	keystroke	m	n/a
469.7575	0.12	939515	keystroke	p	n/a
469.9975	0.105	939995	keystroke	a	n/a
470.3435	0.12	940687	keystroke	r	n/a
470.5075	0.12	941015	keystroke	a	n/a
470.793	0.09	941586	keystroke	t	n/a
470.884	0.164	941768	keystroke	i	n/a
471.033	0.12	942066	keystroke	v	n/a
471.3035	0.0745	942607	keystroke	e	n/a
471.513	0.105	943026	keystroke	Key.enter	n/a
471.6245	12.895	943249	prompt	n/a	procurement exist artificial twisted\n
472.323	0.1345	944646	keystroke	p	n/a
472.9375	0.075	945875	keystroke	r	n/a
473.0275	0.1355	946055	keystroke	o	n/a
473.223	0.0745	946446	keystroke	c	n/a
473.3135	0.1195	946627	keystroke	u	n/a
473.5535	0.1195	947107	keystroke	r	n/a
473.7175	0.12	947435	keystroke	e	n/a
474.063	0.1495	948126	keystroke	m	n/a
474.2275	0.075	948455	keystroke	e	n/a
474.3475	0.15	948695	keystroke	n	n/a
474.558	0.1055	949116	keystroke	t	n/a
474.8275	0.0905	949655	keystroke	Key.space	n/a
475.1135	0.0895	950227	keystroke	e	n/a
475.353	0.089	950706	keystroke	x	n/a
475.502	0.12	951004	keystroke	i	n/a
475.743	0.105	951486	keystroke	s	n/a
476.042	0.091	952084	keystroke	t	n/a
476.222	0.0755	952444	keystroke	Key.space	n/a
476.703	0.075	953406	keystroke	e	n/a
476.928	0.075	953856	keystroke	r	n/a
477.438	0.0595	954876	keystroke	t	n/a
477.5425	0.135	955085	keystroke	i	n/a
477.7675	0.075	955535	keystroke	f	n/a
477.8575	0.105	955715	keystroke	i	n/a
478.0835	0.0895	956167	keystroke	c	n/a
480.32	0.043	960640	keystroke	i	n/a
481.203	0.075	962406	keystroke	a	n/a
481.338	0.09	962676	keystroke	l	n/a
481.863	0.09	963726	keystroke	Key.space	n/a
482.5085	0.059	965017	keystroke	t	n/a
482.9585	0.075	965917	keystroke	w	n/a
483.0775	0.1205	966155	keystroke	i	n/a
483.183	0.09	966366	keystroke	s	n/a
483.438	0.105	966876	keystroke	t	n/a
483.663	0.06	967326	keystroke	e	n/a
484.203	0.06	968406	keystroke	d	n/a
484.428	0.09	968856	keystroke	Key.enter	n/a
484.5235	6.776	969047	prompt	n/a	belt planned initiatives flavor\n
485.253	0.075	970506	keystroke	b	n/a
485.448	0.09	970896	keystroke	e	n/a
485.583	0.12	971166	keystroke	l	n/a
485.733	0.09	971466	keystroke	t	n/a
485.883	0.09	971766	keystroke	Key.space	n/a
486.107	0.09	972214	keystroke	p	n/a
486.3035	0.1795	972607	keystroke	l	n/a
486.467	0.09	972934	keystroke	a	n/a
486.872	0.06	973744	keystroke	n	n/a
487.038	0.12	974076	keystroke	n	n/a
487.143	0.0745	974286	keystroke	e	n/a
487.382	0.075	974764	keystroke	d	n/a
487.533	0.044	975066	keystroke	Key.space	n/a
487.683	0.0755	975366	keystroke	i	n/a
487.8625	0.1205	975725	keystroke	n	n/a
488.013	0.135	976026	keystroke	i	n/a
488.313	0.105	976626	keystroke	t	n/a
488.388	0.135	976776	keystroke	i	n/a
488.538	0.15	977076	keystroke	a	n/a
488.838	0.1055	977676	keystroke	t	n/a
488.9575	0.1355	977915	keystroke	i	n/a
489.138	0.075	978276	keystroke	v	n/a
489.3625	0.0755	978725	keystroke	e	n/a
489.5425	0.0905	979085	keystroke	Key.space	n/a
489.7825	0.105	979565	keystroke	f	n/a
489.933	0.135	979866	keystroke	l	n/a
489.993	0.119	979986	keystroke	a	n/a
490.3685	0.0895	980737	keystroke	v	n/a
490.908	0.1205	981816	keystroke	o	n/a
490.998	0.075	981996	keystroke	r	n/a
491.223	0.075	982446	keystroke	Key.enter	n/a
491.304	10.5715	982608	prompt	n/a	screens developing crafts banned\n
492.048	0.075	984096	keystroke	c	n/a
492.333	0.06	984666	keystroke	r	n/a
492.797	0.076	985594	keystroke	Key.backspace	n/a
492.963	0.12	985926	keystroke	Key.backspace	n/a
493.2335	0.074	986467	keystroke	s	n/a
493.4275	0.076	986855	keystroke	c	n/a
493.6825	0.09	987365	keystroke	r	n/a
493.8625	0.075	987725	keystroke	e	n/a
494.0125	0.075	988025	keystroke	e	n/a
494.238	0.105	988476	keystroke	n	n/a
494.448	0.075	988896	keystroke	s	n/a
494.643	0.09	989286	keystroke	Key.space	n/a
494.943	0.09	989886	keystroke	d	n/a
495.183	0.06	990366	keystroke	e	n/a
495.573	0.09	991146	keystroke	v	n/a
495.8575	0.0595	991715	keystroke	e	n/a
496.0375	0.0905	992075	keystroke	l	n/a
496.308	0.1195	992616	keystroke	o	n/a
496.548	0.0895	993096	keystroke	p	n/a
496.757	0.106	993514	keystroke	i	n/a
496.953	0.119	993906	keystroke	n	n/a
497.1035	0.074	994207	keystroke	g	n/a
497.222	0.09	994444	keystroke	Key.space	n/a
497.388	0.0895	994776	keystroke	c	n/a
497.687	0.0905	995374	keystroke	r	n/a
497.8375	0.12	995675	keystroke	a	n/a
498.589	0.059	997178	keystroke	f	n/a
498.753	0.0905	997506	keystroke	t	n/a
499.008	0.12	998016	keystroke	s	n/a
499.308	0.075	998616	keystroke	Key.space	n/a
499.908	0.09	999816	keystroke	n	n/a
500.298	0.12	1000596	keystroke	Key.backspace	n/a
500.778	0.1345	1001556	keystroke	b	n/a
500.853	0.1495	1001706	keystroke	a	n/a
501.0475	0.075	1002095	keystroke	n	n/a
501.1975	0.1205	1002395	keystroke	n	n/a
501.3625	0.075	1002725	keystroke	e	n/a
501.5885	0.075	1003177	keystroke	d	n/a
501.7835	0.089	1003567	keystroke	Key.enter	n/a
501.88	11.5295	1003760	prompt	n/a	nurses understand developer mins\n
502.6085	0.119	1005217	keystroke	m	n/a
502.8925	0.106	1005785	keystroke	u	n/a
503.073	0.0755	1006146	keystroke	r	n/a
503.763	0.075	1007526	keystroke	Key.backspace	n/a
503.913	0.1195	1007826	keystroke	Key.backspace	n/a
504.152	0.12	1008304	keystroke	Key.backspace	n/a
504.5275	0.0905	1009055	keystroke	n	n/a
504.768	0.09	1009536	keystroke	u	n/a
505.0075	0.075	1010015	keystroke	r	n/a
505.248	0.09	1010496	keystroke	s	n/a
505.488	0.09	1010976	keystroke	e	n/a
505.728	0.09	1011456	keystroke	s	n/a
506.358	0.075	1012716	keystroke	Key.space	n/a
506.628	0.0745	1013256	keystroke	u	n/a
506.8375	0.1055	1013675	keystroke	n	n/a
506.9575	0.075	1013915	keystroke	d	n/a
507.1835	0.0895	1014367	keystroke	r	n/a
507.4535	0.0745	1014907	keystroke	s	n/a
507.693	0.165	1015386	keystroke	t	n/a
507.843	0.12	1015686	keystroke	a	n/a
508.098	0.105	1016196	keystroke	n	n/a
508.713	0.06	1017426	keystroke	d	n/a
508.953	0.075	1017906	keystroke	Key.space	n/a
509.5675	0.03	1019135	keystroke	d	n/a
509.733	0.075	1019466	keystroke	e	n/a
509.943	0.165	1019886	keystroke	v	n/a
510.0925	0.075	1020185	keystroke	e	n/a
510.3025	0.09	1020605	keystroke	l	n/a
510.5125	0.1045	1021025	keystroke	o	n/a
510.6635	0.1645	1021327	keystroke	p	n/a
510.813	0.0905	1021626	keystroke	e	n/a
511.052	0.0755	1022104	keystroke	r	n/a
511.173	0.105	1022346	keystroke	Key.space	n/a
511.683	0.09	1023366	keystroke	m	n/a
511.9075	0.09	1023815	keystroke	i	n/a
512.0725	0.1205	1024145	keystroke	n	n/a
512.2375	0.091	1024475	keystroke	g	n/a
512.913	0.12	1025826	keystroke	Key.backspace	n/a
513.093	0.0745	1026186	keystroke	s	n/a
513.318	0.09	1026636	keystroke	Key.enter	n/a
513.4125	10.4225	1026825	prompt	n/a	rome toilet register ranging\n
514.308	0.09	1028616	keystroke	r	n/a
514.368	0.135	1028736	keystroke	o	n/a
514.578	0.1505	1029156	keystroke	m	n/a
514.7735	0.104	1029547	keystroke	e	n/a
514.908	0.089	1029816	keystroke	Key.space	n/a
515.4775	0.09	1030955	keystroke	t	n/a
515.583	0.1495	1031166	keystroke	o	n/a
515.703	0.1045	1031406	keystroke	i	n/a
515.898	0.15	1031796	keystroke	l	n/a
516.078	0.075	1032156	keystroke	e	n/a
516.333	0.075	1032666	keystroke	t	n/a
516.468	0.075	1032936	keystroke	Key.space	n/a
517.353	0.0745	1034706	keystroke	r	n/a
519.6195	0.0015	1039239	keystroke	e	n/a
519.753	0.06	1039506	keystroke	g	n/a
519.858	0.12	1039716	keystroke	i	n/a
520.173	0.075	1040346	keystroke	s	n/a
520.398	0.09	1040796	keystroke	t	n/a
520.577	0.0915	1041154	keystroke	e	n/a
520.803	0.09	1041606	keystroke	r	n/a
521.013	0.075	1042026	keystroke	Key.space	n/a
521.522	0.166	1043044	keystroke	r	n/a
521.658	0.164	1043316	keystroke	a	n/a
521.838	0.09	1043676	keystroke	n	n/a
522.7975	0.0455	1045595	keystroke	g	n/a
522.888	0.12	1045776	keystroke	i	n/a
523.0825	0.1805	1046165	keystroke	n	n/a
523.2785	0.074	1046557	keystroke	g	n/a
523.758	0.0745	1047516	keystroke	Key.enter	n/a
523.8395	10.75	1047679	prompt	n/a	harbor assignments fever arcade\n
524.628	0.09	1049256	keystroke	h	n/a
524.733	0.09	1049466	keystroke	a	n/a
524.958	0.075	1049916	keystroke	r	n/a
525.2125	0.06	1050425	keystroke	b	n/a
525.333	0.1355	1050666	keystroke	o	n/a
525.4835	0.09	1050967	keystroke	r	n/a
525.737	0.09	1051474	keystroke	Key.space	n/a
526.293	0.075	1052586	keystroke	a	n/a
526.5175	0.045	1053035	keystroke	s	n/a
526.653	0.1045	1053306	keystroke	s	n/a
526.8325	0.1205	1053665	keystroke	i	n/a
527.553	0.075	1055106	keystroke	g	n/a
527.673	0.105	1055346	keystroke	n	n/a
528.4235	0.09	1056847	keystroke	m	n/a
528.5575	0.06	1057115	keystroke	e	n/a
529.083	0.09	1058166	keystroke	n	n/a
529.953	0.0605	1059906	keystroke	t	n/a
530.193	0.0745	1060386	keystroke	s	n/a
530.4025	0.0595	1060805	keystroke	Key.space	n/a
530.613	0.12	1061226	keystroke	f	n/a
530.7635	0.0895	1061527	keystroke	e	n/a
531.3785	0.0735	1062757	keystroke	v	n/a
531.5585	0.0745	1063117	keystroke	e	n/a
531.738	0.075	1063476	keystroke	r	n/a
531.9335	0.0745	1063867	keystroke	Key.space	n/a
532.353	0.1195	1064706	keystroke	a	n/a
532.863	0.06	1065726	keystroke	r	n/a
533.133	0.06	1066266	keystroke	c	n/a
533.373	0.0755	1066746	keystroke	a	n/a
533.9575	0.1505	1067915	keystroke	d	n/a
534.2875	0.06	1068575	keystroke	e	n/a
534.5125	0.0755	1069025	keystroke	Key.enter	n/a
534.5945	12.3995	1069189	prompt	n/a	insects serves believed podcast\n
535.8035	0.0605	1071607	keystroke	e	n/a
536.223	0.105	1072446	keystroke	Key.backspace	n/a
536.4775	0.0755	1072955	keystroke	i	n/a
536.6275	0.09	1073255	keystroke	n	n/a
537.168	0.0745	1074336	keystroke	s	n/a
537.6475	0.0755	1075295	keystroke	e	n/a
539.5075	0.06	1079015	keystroke	c	n/a
539.808	0.075	1079616	keystroke	t	n/a
540.0475	0.06	1080095	keystroke	s	n/a
540.213	0.075	1080426	keystroke	Key.space	n/a
540.483	0.09	1080966	keystroke	s	n/a
540.678	0.09	1081356	keystroke	e	n/a
540.8725	0.0605	1081745	keystroke	r	n/a
541.383	0.074	1082766	keystroke	v	n/a
541.562	0.075	1083124	keystroke	e	n/a
542.268	0.059	1084536	keystroke	s	n/a
542.477	0.016	1084954	keystroke	Key.space	n/a
542.673	0.0595	1085346	keystroke	b	n/a
542.8825	0.0595	1085765	keystroke	e	n/a
543.483	0.09	1086966	keystroke	l	n/a
543.663	0.1045	1087326	keystroke	i	n/a
543.782	0.0755	1087564	keystroke	e	n/a
544.068	0.075	1088136	keystroke	v	n/a
544.2475	0.0755	1088495	keystroke	e	n/a
544.5175	0.061	1089035	keystroke	d	n/a
544.743	0.0745	1089486	keystroke	Key.space	n/a
545.043	0.24	1090086	keystroke	p	n/a
545.163	0.225	1090326	keystroke	o	n/a
545.613	0.06	1091226	keystroke	d	n/a
545.8675	0.1355	1091735	keystroke	c	n/a
546.017	0.105	1092034	keystroke	a	n/a
546.303	0.089	1092606	keystroke	s	n/a
546.5725	0.075	1093145	keystroke	t	n/a
546.918	0.0745	1093836	keystroke	Key.enter	n/a
547.002	10.7175	1094004	prompt	n/a	exotic survivor african hispanic\n
547.907	0.075	1095814	keystroke	e	n/a
548.1625	0.075	1096325	keystroke	x	n/a
549.093	0.075	1098186	keystroke	o	n/a
549.498	0.09	1098996	keystroke	t	n/a
549.648	0.105	1099296	keystroke	i	n/a
549.753	0.105	1099506	keystroke	c	n/a
549.918	0.09	1099836	keystroke	Key.space	n/a
550.1125	0.12	1100225	keystroke	s	n/a
550.2925	0.135	1100585	keystroke	u	n/a
550.4575	0.09	1100915	keystroke	r	n/a
550.7425	0.06	1101485	keystroke	v	n/a
550.908	0.0895	1101816	keystroke	i	n/a
551.1925	0.06	1102385	keystroke	v	n/a
551.358	0.1195	1102716	keystroke	o	n/a
551.568	0.06	1103136	keystroke	r	n/a
552.183	0.09	1104366	keystroke	Key.space	n/a
552.513	0.075	1105026	keystroke	a	n/a
553.203	0.075	1106406	keystroke	f	n/a
553.458	0.075	1106916	keystroke	r	n/a
553.803	0.105	1107606	keystroke	i	n/a
553.968	0.15	1107936	keystroke	c	n/a
554.133	0.105	1108266	keystroke	a	n/a
554.463	0.105	1108926	keystroke	n	n/a
555.1075	0.075	1110215	keystroke	Key.space	n/a
555.633	0.12	1111266	keystroke	h	n/a
555.708	0.15	1111416	keystroke	i	n/a
556.008	0.075	1112016	keystroke	s	n/a
556.098	0.135	1112196	keystroke	p	n/a
556.293	0.135	1112586	keystroke	a	n/a
556.728	0.09	1113456	keystroke	n	n/a
556.923	0.134	1113846	keystroke	i	n/a
557.493	0.045	1114986	keystroke	c	n/a
557.613	0.105	1115226	keystroke	Key.enter	n/a
557.7245	9.446	1115449	prompt	n/a	somewhere saturday meet painting\n
558.452	0.195	1116904	keystroke	s	n/a
558.603	0.1195	1117206	keystroke	o	n/a
558.7975	0.1345	1117595	keystroke	m	n/a
558.963	0.0445	1117926	keystroke	e	n/a
559.788	0.075	1119576	keystroke	w	n/a
559.982	0.0905	1119964	keystroke	h	n/a
560.538	0.0895	1121076	keystroke	e	n/a
560.717	0.106	1121434	keystroke	r	n/a
560.8825	0.09	1121765	keystroke	e	n/a
561.0325	0.09	1122065	keystroke	Key.space	n/a
561.243	0.135	1122486	keystroke	s	n/a
561.318	0.165	1122636	keystroke	a	n/a
561.827	0.076	1123654	keystroke	t	n/a
561.978	0.12	1123956	keystroke	u	n/a
562.173	0.09	1124346	keystroke	d	n/a
562.6525	0.105	1125305	keystroke	Key.backspace	n/a
562.698	0.075	1125396	keystroke	r	n/a
563.462	0.121	1126924	keystroke	d	n/a
563.552	0.121	1127104	keystroke	a	n/a
563.7175	0.09	1127435	keystroke	y	n/a
563.8675	0.09	1127735	keystroke	Key.space	n/a
564.048	0.1345	1128096	keystroke	m	n/a
564.1535	0.075	1128307	keystroke	e	n/a
564.3175	0.09	1128635	keystroke	e	n/a
564.6175	0.09	1129235	keystroke	t	n/a
565.0525	0.0895	1130105	keystroke	Key.space	n/a
565.278	0.12	1130556	keystroke	p	n/a
565.7125	0.09	1131425	keystroke	a	n/a
565.788	0.1045	1131576	keystroke	i	n/a
565.998	0.105	1131996	keystroke	n	n/a
566.4325	0.06	1132865	keystroke	t	n/a
566.4775	0.12	1132955	keystroke	i	n/a
566.643	0.1495	1133286	keystroke	n	n/a
566.8075	0.061	1133615	keystroke	g	n/a
567.0775	0.0905	1134155	keystroke	Key.enter	n/a
567.1755	7.449	1134351	prompt	n/a	horrible header operators jeff\n
567.873	0.104	1135746	keystroke	h	n/a
568.4275	0.1195	1136855	keystroke	o	n/a
568.637	0.045	1137274	keystroke	r	n/a
568.742	0.09	1137484	keystroke	r	n/a
568.878	0.1195	1137756	keystroke	i	n/a
569.013	0.0745	1138026	keystroke	b	n/a
569.178	0.15	1138356	keystroke	l	n/a
569.343	0.075	1138686	keystroke	e	n/a
569.478	0.09	1138956	keystroke	Key.space	n/a
569.688	0.105	1139376	keystroke	h	n/a
569.808	0.15	1139616	keystroke	e	n/a
569.928	0.15	1139856	keystroke	a	n/a
570.198	0.09	1140396	keystroke	d	n/a
570.483	0.075	1140966	keystroke	e	n/a
570.738	0.075	1141476	keystroke	r	n/a
571.038	0.075	1142076	keystroke	Key.space	n/a
571.293	0.12	1142586	keystroke	o	n/a
571.458	0.135	1142916	keystroke	p	n/a
571.877	0.0755	1143754	keystroke	e	n/a
572.088	0.1045	1144176	keystroke	r	n/a
572.237	0.135	1144474	keystroke	a	n/a
572.5975	0.0755	1145195	keystroke	t	n/a
572.733	0.1345	1145466	keystroke	o	n/a
572.883	0.0895	1145766	keystroke	r	n/a
573.1975	0.075	1146395	keystroke	s	n/a
573.4225	0.075	1146845	keystroke	Key.space	n/a
573.6475	0.12	1147295	keystroke	j	n/a
573.752	0.06	1147504	keystroke	e	n/a
574.082	0.061	1148164	keystroke	f	n/a
574.247	0.0905	1148494	keystroke	f	n/a
574.532	0.0905	1149064	keystroke	Key.enter	n/a
574.6285	9.056	1149257	prompt	n/a	sunglasses thousands cooper increased\n
575.463	0.06	1150926	keystroke	s	n/a
575.5525	0.0905	1151105	keystroke	u	n/a
575.793	0.12	1151586	keystroke	n	n/a
575.958	0.089	1151916	keystroke	g	n/a
576.108	0.15	1152216	keystroke	l	n/a
576.227	0.106	1152454	keystroke	a	n/a
576.513	0.06	1153026	keystroke	s	n/a
576.663	0.09	1153326	keystroke	s	n/a
576.932	0.1055	1153864	keystroke	e	n/a
577.203	0.089	1154406	keystroke	s	n/a
577.4275	0.105	1154855	keystroke	Key.space	n/a
577.818	0.075	1155636	keystroke	t	n/a
577.953	0.1645	1155906	keystroke	h	n/a
578.058	0.224	1156116	keystroke	o	n/a
578.313	0.149	1156626	keystroke	u	n/a
578.613	0.15	1157226	keystroke	s	n/a
578.7025	0.1805	1157405	keystroke	a	n/a
578.913	0.15	1157826	keystroke	n	n/a
579.048	0.1045	1158096	keystroke	d	n/a
579.302	0.1055	1158604	keystroke	s	n/a
579.5125	0.0905	1159025	keystroke	Key.space	n/a
579.767	0.076	1159534	keystroke	c	n/a
579.857	0.105	1159714	keystroke	o	n/a
580.083	0.105	1160166	keystroke	o	n/a
580.278	0.12	1160556	keystroke	p	n/a
580.488	0.075	1160976	keystroke	e	n/a
580.743	0.09	1161486	keystroke	d	n/a
580.908	0.075	1161816	keystroke	Key.space	n/a
581.073	0.105	1162146	keystroke	i	n/a
581.253	0.1345	1162506	keystroke	n	n/a
581.4335	0.0895	1162867	keystroke	c	n/a
581.748	0.12	1163496	keystroke	r	n/a
582.168	0.075	1164336	keystroke	e	n/a
582.483	0.12	1164966	keystroke	a	n/a
582.783	0.09	1165566	keystroke	s	n/a
583.024	0.059	1166048	keystroke	e	n/a
583.218	0.075	1166436	keystroke	d	n/a
583.5775	0.105	1167155	keystroke	Key.enter	n/a
583.689	10.3755	1167378	prompt	n/a	terrain hadn't firefox exists\n
584.8225	0.045	1169645	keystroke	t	n/a
584.9725	0.09	1169945	keystroke	e	n/a
585.2425	0.06	1170485	keystroke	r	n/a
585.3925	0.0745	1170785	keystroke	r	n/a
585.707	0.106	1171414	keystroke	a	n/a
585.9325	0.1045	1171865	keystroke	i	n/a
586.113	0.119	1172226	keystroke	n	n/a
586.3375	0.09	1172675	keystroke	Key.space	n/a
586.6225	0.1195	1173245	keystroke	h	n/a
587.013	0.1195	1174026	keystroke	a	n/a
587.553	0.0595	1175106	keystroke	d	n/a
587.6725	0.105	1175345	keystroke	n	n/a
587.897	0.136	1175794	keystroke	'	n/a
588.153	0.0895	1176306	keystroke	t	n/a
588.363	0.0895	1176726	keystroke	Key.space	n/a
588.6625	0.0895	1177325	keystroke	f	n/a
588.7675	0.1205	1177535	keystroke	i	n/a
589.9825	0.09	1179965	keystroke	r	n/a
590.1625	0.09	1180325	keystroke	e	n/a
590.748	0.0895	1181496	keystroke	f	n/a
590.8825	0.1205	1181765	keystroke	o	n/a
591.348	0.0595	1182696	keystroke	x	n/a
591.7525	0.0905	1183505	keystroke	Key.space	n/a
592.248	0.075	1184496	keystroke	e	n/a
592.473	0.075	1184946	keystroke	x	n/a
592.803	0.1045	1185606	keystroke	i	n/a
593.0125	0.0755	1186025	keystroke	s	n/a
593.3425	0.075	1186685	keystroke	t	n/a
593.5975	0.09	1187195	keystroke	s	n/a
593.9725	0.09	1187945	keystroke	Key.enter	n/a
594.0695	9.0995	1188139	prompt	n/a	sick accuracy designation bands\n
594.9325	0.09	1189865	keystroke	s	n/a
595.143	0.09	1190286	keystroke	i	n/a
595.292	0.091	1190584	keystroke	c	n/a
595.442	0.151	1190884	keystroke	k	n/a
595.607	0.075	1191214	keystroke	Key.space	n/a
595.998	0.105	1191996	keystroke	a	n/a
596.268	0.06	1192536	keystroke	c	n/a
596.403	0.0745	1192806	keystroke	c	n/a
596.628	0.1195	1193256	keystroke	u	n/a
596.822	0.1355	1193644	keystroke	r	n/a
596.9425	0.1645	1193885	keystroke	a	n/a
597.257	0.105	1194514	keystroke	c	n/a
597.4225	0.135	1194845	keystroke	y	n/a
597.542	0.1655	1195084	keystroke	Key.space	n/a
597.872	0.075	1195744	keystroke	d	n/a
598.533	0.105	1197066	keystroke	i	n/a
599.013	0.0745	1198026	keystroke	s	n/a
599.1175	0.135	1198235	keystroke	i	n/a
599.3575	0.076	1198715	keystroke	g	n/a
599.4635	0.104	1198927	keystroke	n	n/a
599.5685	0.119	1199137	keystroke	a	n/a
599.9725	0.075	1199945	keystroke	t	n/a
600.213	0.1645	1200426	keystroke	i	n/a
600.3325	0.165	1200665	keystroke	o	n/a
600.603	0.105	1201206	keystroke	n	n/a
600.828	0.074	1201656	keystroke	Key.space	n/a
601.9975	0.15	1203995	keystroke	b	n/a
602.1025	0.1645	1204205	keystroke	a	n/a
602.312	0.1055	1204624	keystroke	n	n/a
602.432	0.15	1204864	keystroke	d	n/a
602.567	0.165	1205134	keystroke	s	n/a
603.077	0.0905	1206154	keystroke	Key.enter	n/a
603.174	12.206	1206348	prompt	n/a	professional cube empty sustainability\n
603.9775	0.12	1207955	keystroke	p	n/a
604.2175	0.09	1208435	keystroke	r	n/a
604.2925	0.135	1208585	keystroke	o	n/a
604.4875	0.09	1208975	keystroke	f	n/a
604.6975	0.0905	1209395	keystroke	e	n/a
605.4175	0.0755	1210835	keystroke	s	n/a
605.598	0.1055	1211196	keystroke	s	n/a
605.7475	0.1355	1211495	keystroke	i	n/a
605.822	0.1655	1211644	keystroke	o	n/a
606.0325	0.135	1212065	keystroke	n	n/a
606.2425	0.12	1212485	keystroke	a	n/a
606.4225	0.195	1212845	keystroke	l	n/a
606.6025	0.09	1213205	keystroke	Key.space	n/a
607.5625	0.06	1215125	keystroke	c	n/a
607.7725	0.09	1215545	keystroke	u	n/a
607.9375	0.09	1215875	keystroke	b	n/a
608.1775	0.075	1216355	keystroke	e	n/a
608.4325	0.105	1216865	keystroke	Key.space	n/a
609.032	0.0605	1218064	keystroke	e	n/a
609.1375	0.12	1218275	keystroke	m	n/a
609.4675	0.09	1218935	keystroke	p	n/a
609.8575	0.09	1219715	keystroke	t	n/a
609.962	0.1055	1219924	keystroke	y	n/a
610.1275	0.09	1220255	keystroke	Key.space	n/a
610.5925	0.06	1221185	keystroke	s	n/a
610.6675	0.12	1221335	keystroke	u	n/a
610.9375	0.09	1221875	keystroke	s	n/a
611.2375	0.075	1222475	keystroke	t	n/a
611.523	0.09	1223046	keystroke	a	n/a
611.957	0.106	1223914	keystroke	i	n/a
612.1975	0.105	1224395	keystroke	n	n/a
612.5425	0.0895	1225085	keystroke	a	n/a
613.3825	0.075	1226765	keystroke	b	n/a
613.4875	0.09	1226975	keystroke	i	n/a
613.668	0.1345	1227336	keystroke	l	n/a
614.298	0.104	1228596	keystroke	i	n/a
614.837	0.075	1229674	keystroke	t	n/a
614.942	0.091	1229884	keystroke	y	n/a
615.2875	0.09	1230575	keystroke	Key.enter	n/a
615.3845	8.5745	1230769	prompt	n/a	paint gates decision filter\n
616.3075	0.0745	1232615	keystroke	p	n/a
616.547	0.09	1233094	keystroke	a	n/a
616.622	0.12	1233244	keystroke	i	n/a
616.818	0.134	1233636	keystroke	n	n/a
617.042	0.09	1234084	keystroke	g	n/a
617.627	0.09	1235254	keystroke	Key.backspace	n/a
617.763	0.059	1235526	keystroke	t	n/a
617.897	0.0905	1235794	keystroke	Key.space	n/a
618.6475	0.135	1237295	keystroke	g	n/a
618.7525	0.135	1237505	keystroke	a	n/a
619.0075	0.135	1238015	keystroke	t	n/a
619.2325	0.09	1238465	keystroke	e	n/a
619.5025	0.1045	1239005	keystroke	s	n/a
619.682	0.0905	1239364	keystroke	Key.space	n/a
620.2075	0.075	1240415	keystroke	d	n/a
620.4775	0.075	1240955	keystroke	e	n/a
620.733	0.09	1241466	keystroke	c	n/a
620.8675	0.12	1241735	keystroke	i	n/a
621.107	0.106	1242214	keystroke	s	n/a
621.2725	0.105	1242545	keystroke	i	n/a
621.3625	0.1655	1242725	keystroke	o	n/a
621.633	0.1045	1243266	keystroke	n	n/a
621.8575	0.12	1243715	keystroke	Key.space	n/a
622.592	0.075	1245184	keystroke	f	n/a
622.682	0.105	1245364	keystroke	i	n/a
622.892	0.165	1245784	keystroke	l	n/a
623.118	0.09	1246236	keystroke	t	n/a
623.312	0.09	1246624	keystroke	e	n/a
623.612	0.0755	1247224	keystroke	r	n/a
623.867	0.0905	1247734	keystroke	Key.enter	n/a
623.9645	12.3695	1247929	prompt	n/a	pumps bean environmental feeds\n
624.6775	0.12	1249355	keystroke	p	n/a
624.8875	0.0905	1249775	keystroke	u	n/a
625.3075	0.12	1250615	keystroke	p	n/a
625.4725	0.0895	1250945	keystroke	s	n/a
625.637	0.0755	1251274	keystroke	Key.space	n/a
626.4625	0.09	1252925	keystroke	Key.backspace	n/a
626.657	0.105	1253314	keystroke	Key.backspace	n/a
626.882	0.1205	1253764	keystroke	Key.backspace	n/a
627.557	0.12	1255114	keystroke	m	n/a
627.8425	0.12	1255685	keystroke	p	n/a
628.0075	0.075	1256015	keystroke	s	n/a
628.187	0.09	1256374	keystroke	Key.space	n/a
628.5465	0.091	1257093	keystroke	b	n/a
628.7725	0.09	1257545	keystroke	e	n/a
628.9515	0.1215	1257903	keystroke	a	n/a
629.1175	0.105	1258235	keystroke	n	n/a
629.2975	0.075	1258595	keystroke	Key.space	n/a
629.5375	0.09	1259075	keystroke	i	n/a
629.7925	0.105	1259585	keystroke	n	n/a
630.1075	0.075	1260215	keystroke	Key.backspace	n/a
630.2425	0.12	1260485	keystroke	Key.backspace	n/a
630.4075	0.075	1260815	keystroke	e	n/a
630.5425	0.1205	1261085	keystroke	n	n/a
630.6925	0.061	1261385	keystroke	v	n/a
631.232	0.09	1262464	keystroke	i	n/a
631.382	0.09	1262764	keystroke	r	n/a
631.502	0.135	1263004	keystroke	o	n/a
632.223	0.0895	1264446	keystroke	n	n/a
632.6575	0.1055	1265315	keystroke	m	n/a
632.8075	0.075	1265615	keystroke	e	n/a
632.9575	0.12	1265915	keystroke	n	n/a
633.1225	0.105	1266245	keystroke	t	n/a
633.3625	0.1045	1266725	keystroke	a	n/a
633.588	0.119	1267176	keystroke	l	n/a
633.8425	0.0745	1267685	keystroke	Key.space	n/a
635.058	0.0745	1270116	keystroke	f	n/a
635.2375	0.075	1270475	keystroke	e	n/a
635.388	0.0895	1270776	keystroke	e	n/a
635.6575	0.06	1271315	keystroke	d	n/a
635.898	0.0745	1271796	keystroke	s	n/a
636.257	0.075	1272514	keystroke	Key.enter	n/a
636.3385	10.7505	1272677	prompt	n/a	upon implications coordinate sizes\n
637.457	0.105	1274914	keystroke	u	n/a
637.623	0.1495	1275246	keystroke	p	n/a
637.742	0.18	1275484	keystroke	o	n/a
638.027	0.1055	1276054	keystroke	n	n/a
638.252	0.0905	1276504	keystroke	Key.space	n/a
638.387	0.105	1276774	keystroke	i	n/a
638.598	0.104	1277196	keystroke	m	n/a
638.777	0.105	1277554	keystroke	p	n/a
639.002	0.1205	1278004	keystroke	l	n/a
639.212	0.09	1278424	keystroke	i	n/a
639.422	0.06	1278844	keystroke	c	n/a
639.497	0.21	1278994	keystroke	a	n/a
640.382	0.09	1280764	keystroke	t	n/a
640.547	0.18	1281094	keystroke	i	n/a
640.6525	0.1945	1281305	keystroke	o	n/a
640.9675	0.12	1281935	keystroke	n	n/a
641.3275	0.0745	1282655	keystroke	s	n/a
641.5225	0.0745	1283045	keystroke	Key.space	n/a
641.777	0.0455	1283554	keystroke	c	n/a
641.852	0.045	1283704	keystroke	o	n/a
641.942	0.0455	1283884	keystroke	c	n/a
642.602	0.09	1285204	keystroke	Key.backspace	n/a
642.8575	0.105	1285715	keystroke	o	n/a
643.262	0.0755	1286524	keystroke	r	n/a
643.953	0.059	1287906	keystroke	d	n/a
644.0275	0.12	1288055	keystroke	i	n/a
644.9275	0.1045	1289855	keystroke	n	n/a
645.017	0.105	1290034	keystroke	a	n/a
645.3025	0.0895	1290605	keystroke	t	n/a
645.527	0.075	1291054	keystroke	e	n/a
645.7375	0.0895	1291475	keystroke	Key.space	n/a
646.0225	0.06	1292045	keystroke	s	n/a
646.112	0.12	1292224	keystroke	i	n/a
646.2625	0.1045	1292525	keystroke	z	n/a
646.5625	0.0745	1293125	keystroke	e	n/a
646.787	0.0755	1293574	keystroke	s	n/a
646.9975	0.09	1293995	keystroke	Key.enter	n/a
647.0925	12.672	1294185	prompt	n/a	performances exemption journalists part\n
647.942	0.1505	1295884	keystroke	p	n/a
648.6625	0.09	1297325	keystroke	e	n/a
648.8875	0.075	1297775	keystroke	r	n/a
649.1275	0.09	1298255	keystroke	f	n/a
649.2475	0.15	1298495	keystroke	o	n/a
649.5175	0.0895	1299035	keystroke	r	n/a
649.7425	0.105	1299485	keystroke	m	n/a
649.8625	0.105	1299725	keystroke	a	n/a
650.0125	0.12	1300025	keystroke	n	n/a
650.1475	0.075	1300295	keystroke	c	n/a
650.3725	0.075	1300745	keystroke	e	n/a
650.5975	0.09	1301195	keystroke	s	n/a
650.7625	0.0745	1301525	keystroke	Key.space	n/a
651.0175	0.075	1302035	keystroke	e	n/a
651.2425	0.074	1302485	keystroke	x	n/a
651.528	0.0745	1303056	keystroke	e	n/a
651.8425	0.105	1303685	keystroke	p	n/a
653.7775	0.0895	1307555	keystroke	Key.backspace	n/a
653.9875	0.0905	1307975	keystroke	m	n/a
654.182	0.091	1308364	keystroke	p	n/a
655.322	0.016	1310644	keystroke	t	n/a
655.367	0.18	1310734	keystroke	i	n/a
655.4725	0.1795	1310945	keystroke	o	n/a
655.697	0.135	1311394	keystroke	n	n/a
655.9675	0.075	1311935	keystroke	Key.space	n/a
656.522	0.105	1313044	keystroke	j	n/a
656.747	0.1205	1313494	keystroke	o	n/a
656.837	0.135	1313674	keystroke	u	n/a
657.122	0.091	1314244	keystroke	r	n/a
657.227	0.1205	1314454	keystroke	n	n/a
657.4075	0.1195	1314815	keystroke	a	n/a
657.573	0.1035	1315146	keystroke	l	n/a
657.723	0.119	1315446	keystroke	i	n/a
657.857	0.09	1315714	keystroke	s	n/a
658.1275	0.09	1316255	keystroke	t	n/a
658.3675	0.105	1316735	keystroke	s	n/a
658.4875	0.105	1316975	keystroke	Key.space	n/a
658.6975	0.165	1317395	keystroke	p	n/a
658.8025	0.135	1317605	keystroke	a	n/a
659.0875	0.0745	1318175	keystroke	r	n/a
659.312	0.075	1318624	keystroke	t	n/a
659.6875	0.0745	1319375	keystroke	Key.enter	n/a
659.769	8.275	1319538	prompt	n/a	nepal sword deserve trigger\n
660.528	0.1045	1321056	keystroke	n	n/a
660.648	0.075	1321296	keystroke	e	n/a
660.7825	0.149	1321565	keystroke	p	n/a
661.053	0.105	1322106	keystroke	a	n/a
661.203	0.149	1322406	keystroke	l	n/a
661.353	0.104	1322706	keystroke	Key.space	n/a
661.6525	0.0905	1323305	keystroke	w	n/a
662.4475	0.09	1324895	keystroke	Key.backspace	n/a
663.0175	0.059	1326035	keystroke	s	n/a
663.2425	0.0905	1326485	keystroke	w	n/a
663.363	0.1345	1326726	keystroke	o	n/a
663.603	0.0895	1327206	keystroke	r	n/a
663.9025	0.0895	1327805	keystroke	d	n/a
664.1425	0.0745	1328285	keystroke	Key.space	n/a
664.473	0.06	1328946	keystroke	d	n/a
664.652	0.075	1329304	keystroke	e	n/a
664.877	0.106	1329754	keystroke	s	n/a
665.117	0.0905	1330234	keystroke	e	n/a
665.343	0.059	1330686	keystroke	r	n/a
665.5825	0.09	1331165	keystroke	v	n/a
665.807	0.06	1331614	keystroke	e	n/a
666.0175	0.075	1332035	keystroke	Key.space	n/a
666.3475	0.06	1332695	keystroke	t	n/a
666.5575	0.075	1333115	keystroke	r	n/a
666.6915	0.121	1333383	keystroke	i	n/a
667.1865	0.061	1334373	keystroke	g	n/a
667.3075	0.105	1334615	keystroke	g	n/a
667.4875	0.12	1334975	keystroke	e	n/a
667.728	0.1045	1335456	keystroke	r	n/a
667.9675	0.0745	1335935	keystroke	Key.enter	n/a
668.0525	7.9565	1336105	prompt	n/a	jade i've announces mailed\n
668.8825	0.12	1337765	keystroke	j	n/a
669.0325	0.0605	1338065	keystroke	e	n/a
669.6625	0.105	1339325	keystroke	Key.backspace	n/a
669.7975	0.09	1339595	keystroke	a	n/a
669.992	0.0605	1339984	keystroke	d	n/a
670.2025	0.075	1340405	keystroke	e	n/a
670.3225	0.09	1340645	keystroke	Key.space	n/a
670.5175	0.12	1341035	keystroke	i	n/a
670.7125	0.12	1341425	keystroke	'	n/a
671.0575	0.09	1342115	keystroke	v	n/a
671.268	0.0595	1342536	keystroke	e	n/a
671.5375	0.09	1343075	keystroke	Key.space	n/a
672.1075	0.091	1344215	keystroke	a	n/a
672.3925	0.045	1344785	keystroke	n	n/a
672.5275	0.105	1345055	keystroke	n	n/a
672.692	0.105	1345384	keystroke	o	n/a
672.843	0.104	1345686	keystroke	u	n/a
673.1125	0.1055	1346225	keystroke	n	n/a
673.323	0.0745	1346646	keystroke	c	n/a
673.5625	0.06	1347125	keystroke	e	n/a
673.788	0.0895	1347576	keystroke	s	n/a
673.9675	0.075	1347935	keystroke	Key.space	n/a
674.177	0.0905	1348354	keystroke	n	n/a
674.5825	0.0895	1349165	keystroke	Key.backspace	n/a
674.7925	0.105	1349585	keystroke	m	n/a
674.913	0.1195	1349826	keystroke	a	n/a
675.0625	0.105	1350125	keystroke	i	n/a
675.2875	0.1345	1350575	keystroke	l	n/a
675.528	0.0595	1351056	keystroke	e	n/a
675.738	0.075	1351476	keystroke	d	n/a
675.887	0.12	1351774	keystroke	Key.enter	n/a
676.014	9.25	1352028	prompt	n/a	hybrid bytes comic played\n
677.0875	0.0755	1354175	keystroke	h	n/a
677.282	0.09	1354564	keystroke	y	n/a
677.537	0.0755	1355074	keystroke	b	n/a
677.7775	0.089	1355555	keystroke	r	n/a
677.8825	0.135	1355765	keystroke	i	n/a
678.0175	0.0895	1356035	keystroke	d	n/a
678.2575	0.075	1356515	keystroke	Key.space	n/a
678.5425	0.0895	1357085	keystroke	b	n/a
678.6625	0.1045	1357325	keystroke	u	n/a
678.917	0.105	1357834	keystroke	t	n/a
679.142	0.075	1358284	keystroke	e	n/a
679.4125	0.0745	1358825	keystroke	s	n/a
679.802	0.06	1359604	keystroke	Key.backspace	n/a
679.967	0.06	1359934	keystroke	Key.backspace	n/a
680.162	0.09	1360324	keystroke	Key.backspace	n/a
680.4025	0.1195	1360805	keystroke	Key.backspace	n/a
680.9875	0.0745	1361975	keystroke	y	n/a
681.302	0.105	1362604	keystroke	t	n/a
681.482	0.075	1362964	keystroke	e	n/a
681.7375	0.0595	1363475	keystroke	s	n/a
681.932	0.075	1363864	keystroke	Key.space	n/a
682.307	0.076	1364614	keystroke	c	n/a
682.367	0.12	1364734	keystroke	o	n/a
682.563	0.104	1365126	keystroke	m	n/a
682.802	0.1055	1365604	keystroke	i	n/a
682.952	0.075	1365904	keystroke	c	n/a
683.117	0.09	1366234	keystroke	Key.space	n/a
683.9275	0.089	1367855	keystroke	p	n/a
684.1365	0.1365	1368273	keystroke	l	n/a
684.273	0.0895	1368546	keystroke	a	n/a
684.497	0.1205	1368994	keystroke	y	n/a
684.7515	0.0765	1369503	keystroke	e	n/a
684.978	0.075	1369956	keystroke	d	n/a
685.187	0.0755	1370374	keystroke	Key.enter	n/a
685.268	9.146	1370536	prompt	n/a	conference worst workstation chat\n
685.998	0.074	1371996	keystroke	c	n/a
686.0575	0.12	1372115	keystroke	o	n/a
686.238	0.1345	1372476	keystroke	n	n/a
686.9425	0.09	1373885	keystroke	f	n/a
687.1375	0.0905	1374275	keystroke	e	n/a
687.333	0.0895	1374666	keystroke	r	n/a
687.5125	0.09	1375025	keystroke	e	n/a
687.8425	0.105	1375685	keystroke	n	n/a
687.9325	0.075	1375865	keystroke	c	n/a
688.217	0.06	1376434	keystroke	e	n/a
688.413	0.119	1376826	keystroke	Key.space	n/a
688.7725	0.09	1377545	keystroke	w	n/a
688.8775	0.135	1377755	keystroke	o	n/a
689.2825	0.09	1378565	keystroke	r	n/a
689.5225	0.135	1379045	keystroke	s	n/a
689.8525	0.105	1379705	keystroke	t	n/a
690.0925	0.105	1380185	keystroke	Key.space	n/a
690.4675	0.1045	1380935	keystroke	w	n/a
690.557	0.135	1381114	keystroke	o	n/a
690.7675	0.0895	1381535	keystroke	r	n/a
690.8875	0.12	1381775	keystroke	k	n/a
691.0975	0.0905	1382195	keystroke	s	n/a
691.3825	0.1045	1382765	keystroke	t	n/a
691.607	0.105	1383214	keystroke	a	n/a
691.967	0.075	1383934	keystroke	t	n/a
692.267	0.165	1384534	keystroke	i	n/a
692.3875	0.1645	1384775	keystroke	o	n/a
692.657	0.105	1385314	keystroke	n	n/a
692.9125	0.09	1385825	keystroke	Key.space	n/a
693.4375	0.075	1386875	keystroke	c	n/a
693.5575	0.12	1387115	keystroke	h	n/a
693.6785	0.074	1387357	keystroke	a	n/a
693.963	0.0895	1387926	keystroke	t	n/a
694.3225	0.09	1388645	keystroke	Key.enter	n/a
694.417	9.3875	1388834	prompt	n/a	ferrari eagle secured accounting\n
695.4025	0.075	1390805	keystroke	f	n/a
695.582	0.076	1391164	keystroke	e	n/a
695.8375	0.059	1391675	keystroke	r	n/a
695.9575	0.09	1391915	keystroke	r	n/a
696.1825	0.09	1392365	keystroke	a	n/a
696.4825	0.105	1392965	keystroke	r	n/a
696.6175	0.135	1393235	keystroke	i	n/a
696.6925	0.09	1393385	keystroke	Key.space	n/a
696.9625	0.1505	1393925	keystroke	e	n/a
697.0975	0.15	1394195	keystroke	a	n/a
697.967	0.091	1395934	keystroke	g	n/a
698.072	0.121	1396144	keystroke	l	n/a
698.208	0.09	1396416	keystroke	e	n/a
698.417	0.09	1396834	keystroke	Key.space	n/a
698.7775	0.0755	1397555	keystroke	c	n/a
699.0625	0.075	1398125	keystroke	e	n/a
699.7675	0.045	1399535	keystroke	Key.backspace	n/a
699.8875	0.105	1399775	keystroke	Key.backspace	n/a
699.978	0.0895	1399956	keystroke	s	n/a
700.202	0.061	1400404	keystroke	e	n/a
700.428	0.0745	1400856	keystroke	c	n/a
700.6065	0.091	1401213	keystroke	u	n/a
700.9065	0.076	1401813	keystroke	r	n/a
701.0865	0.076	1402173	keystroke	e	n/a
701.327	0.0605	1402654	keystroke	d	n/a
701.4915	0.076	1402983	keystroke	Key.space	n/a
701.823	0.0895	1403646	keystroke	a	n/a
702.0625	0.06	1404125	keystroke	c	n/a
702.2275	0.06	1404455	keystroke	c	n/a
702.3025	0.135	1404605	keystroke	o	n/a
702.4225	0.12	1404845	keystroke	u	n/a
702.6775	0.1345	1405355	keystroke	n	n/a
702.992	0.076	1405984	keystroke	t	n/a
703.082	0.106	1406164	keystroke	i	n/a
703.247	0.15	1406494	keystroke	n	n/a
703.457	0.09	1406914	keystroke	g	n/a
703.712	0.09	1407424	keystroke	Key.enter	n/a
703.809	9.76	1407618	prompt	n/a	exhibition individuals dangerous lessons\n
704.567	0.045	1409134	keystroke	e	n/a
704.777	0.09	1409554	keystroke	x	n/a
705.0325	0.1345	1410065	keystroke	h	n/a
705.092	0.165	1410184	keystroke	i	n/a
705.422	0.09	1410844	keystroke	b	n/a
705.573	0.134	1411146	keystroke	i	n/a
705.9325	0.075	1411865	keystroke	t	n/a
706.1275	0.21	1412255	keystroke	i	n/a
706.3225	0.18	1412645	keystroke	o	n/a
706.5175	0.135	1413035	keystroke	n	n/a
706.7725	0.0745	1413545	keystroke	Key.space	n/a
706.953	0.1045	1413906	keystroke	i	n/a
707.163	0.119	1414326	keystroke	n	n/a
707.4325	0.0595	1414865	keystroke	d	n/a
707.553	0.134	1415106	keystroke	i	n/a
707.852	0.1055	1415704	keystroke	v	n/a
707.958	0.149	1415916	keystroke	i	n/a
708.303	0.059	1416606	keystroke	d	n/a
708.527	0.106	1417054	keystroke	u	n/a
708.8275	0.09	1417655	keystroke	a	n/a
709.0825	0.105	1418165	keystroke	l	n/a
709.247	0.0755	1418494	keystroke	s	n/a
709.442	0.075	1418884	keystroke	Key.space	n/a
709.7125	0.0595	1419425	keystroke	d	n/a
709.982	0.09	1419964	keystroke	a	n/a
710.087	0.09	1420174	keystroke	n	n/a
710.433	0.0595	1420866	keystroke	g	n/a
710.6275	0.09	1421255	keystroke	e	n/a
710.8675	0.0895	1421735	keystroke	r	n/a
710.9875	0.1645	1421975	keystroke	o	n/a
711.137	0.18	1422274	keystroke	u	n/a
711.3925	0.075	1422785	keystroke	s	n/a
711.527	0.0905	1423054	keystroke	Key.space	n/a
