onset	duration	sample	value	key	prompt_text
1.0895	13.713	2179	prompt	n/a	the quick brown fox jumps over a lazy dog\n
7.196	0.0435	14392	keystroke_t	t	n/a
7.21	0.0745	14420	keystroke_h	h	n/a
7.6	0.06	15200	keystroke_e	e	n/a
7.7945	0.0905	15589	keystroke_Key.space	Key.space	n/a
7.87	0.089	15740	keystroke_q	q	n/a
8.0045	0.105	16009	keystroke_u	u	n/a
8.0945	0.075	16189	keystroke_i	i	n/a
8.2	0.1055	16400	keystroke_c	c	n/a
8.334	0.1205	16668	keystroke_k	k	n/a
8.4695	0.105	16939	keystroke_Key.space	Key.space	n/a
8.7545	0.0605	17509	keystroke_b	b	n/a
8.905	0.0595	17810	keystroke_r	r	n/a
9.0095	0.091	18019	keystroke_o	o	n/a
9.1295	0.0755	18259	keystroke_w	w	n/a
9.2495	0.1355	18499	keystroke_n	n	n/a
9.3695	0.135	18739	keystroke_Key.space	Key.space	n/a
9.64	0.0595	19280	keystroke_f	f	n/a
9.8795	0.1055	19759	keystroke_o	o	n/a
10.0305	0.089	20061	keystroke_x	x	n/a
10.2095	0.09	20419	keystroke_Key.space	Key.space	n/a
10.3445	0.0755	20689	keystroke_j	j	n/a
11.155	0.0745	22310	keystroke_u	u	n/a
11.3795	0.1045	22759	keystroke_m	m	n/a
11.5295	0.09	23059	keystroke_p	p	n/a
11.6945	0.0755	23389	keystroke_s	s	n/a
11.8145	0.135	23629	keystroke_Key.space	Key.space	n/a
11.904	0.135	23808	keystroke_o	o	n/a
12.1895	0.09	24379	keystroke_v	v	n/a
12.385	0.135	24770	keystroke_e	e	n/a
12.4745	0.0905	24949	keystroke_r	r	n/a
12.5795	0.1495	25159	keystroke_Key.space	Key.space	n/a
12.8795	0.075	25759	keystroke_a	a	n/a
13.044	0.1055	26088	keystroke_Key.space	Key.space	n/a
13.12	0.1045	26240	keystroke_l	l	n/a
13.165	0.045	26330	keystroke_a	a	n/a
13.345	0.09	26690	keystroke_z	z	n/a
13.5395	0.12	27079	keystroke_y	y	n/a
14.05	0.1045	28100	keystroke_Key.space	Key.space	n/a
14.245	0.075	28490	keystroke_d	d	n/a
14.3495	0.105	28699	keystroke_o	o	n/a
14.485	0.0745	28970	keystroke_g	g	n/a
14.71	0.0895	29420	keystroke_Key.enter	Key.enter	n/a
14.807	12.67	29614	prompt	n/a	material theories receiving reserves\n
15.414	0.076	30828	keystroke_m	m	n/a
15.565	0.06	31130	keystroke_a	a	n/a
15.745	0.0595	31490	keystroke_t	t	n/a
15.8795	0.1055	31759	keystroke_e	e	n/a
15.9555	0.0745	31911	keystroke_r	r	n/a
16.06	0.0745	32120	keystroke_i	i	n/a
16.2245	0.045	32449	keystroke_a	a	n/a
16.3295	0.1055	32659	keystroke_l	l	n/a
16.4495	0.135	32899	keystroke_Key.space	Key.space	n/a
16.5995	0.076	33199	keystroke_t	t	n/a
16.645	0.0745	33290	keystroke_h	h	n/a
16.8995	0.1655	33799	keystroke_e	e	n/a
17.2295	0.075	34459	keystroke_r	r	n/a
18.4745	0.1195	36949	keystroke_Key.backspace	Key.backspace	n/a
18.684	0.1205	37368	keystroke_o	o	n/a
18.8345	0.075	37669	keystroke_r	r	n/a
18.9545	0.1045	37909	keystroke_i	i	n/a
19.045	0.075	38090	keystroke_e	e	n/a
19.24	0.0895	38480	keystroke_s	s	n/a
19.509	0.105	39018	keystroke_Key.space	Key.space	n/a
19.7345	0.1055	39469	keystroke_r	r	n/a
19.8555	0.0595	39711	keystroke_e	e	n/a
20.0645	0.09	40129	keystroke_c	c	n/a
20.5895	0.0605	41179	keystroke_e	e	n/a
20.8595	0.075	41719	keystroke_i	i	n/a
21.085	0.045	42170	keystroke_e	e	n/a
22.2395	0.105	44479	keystroke_Key.backspace	Key.backspace	n/a
22.8245	0.0755	45649	keystroke_v	v	n/a
22.93	0.0745	45860	keystroke_i	i	n/a
23.17	0.0895	46340	keystroke_n	n	n/a
23.3195	0.0755	46639	keystroke_g	g	n/a
23.559	0.0905	47118	keystroke_Key.space	Key.space	n/a
23.7695	0.105	47539	keystroke_r	r	n/a
23.9495	0.076	47899	keystroke_e	e	n/a
24.2045	0.06	48409	keystroke_s	s	n/a
24.3845	0.1355	48769	keystroke_e	e	n/a
24.49	0.0605	48980	keystroke_r	r	n/a
24.76	0.0595	49520	keystroke_v	v	n/a
24.955	0.0745	49910	keystroke_e	e	n/a
25.1495	0.0595	50299	keystroke_s	s	n/a
27.4165	0.058	54833	keystroke_Key.enter	Key.enter	n/a
27.4805	8.2315	54961	prompt	n/a	houston very windows employment\n
28.4495	0.09	56899	keystroke_h	h	n/a
28.6295	0.165	57259	keystroke_o	o	n/a
28.81	0.1205	57620	keystroke_u	u	n/a
28.9755	0.0895	57951	keystroke_s	s	n/a
29.1845	0.0755	58369	keystroke_t	t	n/a
29.335	0.0745	58670	keystroke_o	o	n/a
29.62	0.074	59240	keystroke_n	n	n/a
29.965	0.105	59930	keystroke_Key.space	Key.space	n/a
30.205	0.06	60410	keystroke_v	v	n/a
30.415	0.135	60830	keystroke_e	e	n/a
30.534	0.0755	61068	keystroke_r	r	n/a
30.8645	0.165	61729	keystroke_y	y	n/a
32.095	0.1345	64190	keystroke_Key.space	Key.space	n/a
32.8295	0.075	65659	keystroke_w	w	n/a
32.9645	0.0755	65929	keystroke_i	i	n/a
33.1145	0.075	66229	keystroke_n	n	n/a
33.2195	0.0755	66439	keystroke_d	d	n/a
33.3545	0.1055	66709	keystroke_o	o	n/a
33.4895	0.06	66979	keystroke_w	w	n/a
33.6845	0.06	67369	keystroke_s	s	n/a
33.82	0.09	67640	keystroke_Key.space	Key.space	n/a
33.9555	0.045	67911	keystroke_e	e	n/a
34.0145	0.075	68029	keystroke_m	m	n/a
34.165	0.1495	68330	keystroke_p	p	n/a
34.3005	0.075	68601	keystroke_l	l	n/a
34.4795	0.075	68959	keystroke_o	o	n/a
34.7345	0.0605	69469	keystroke_y	y	n/a
34.9005	0.075	69801	keystroke_m	m	n/a
35.0505	0.104	70101	keystroke_e	e	n/a
35.2295	0.075	70459	keystroke_n	n	n/a
35.3795	0.0605	70759	keystroke_t	t	n/a
35.635	0.0745	71270	keystroke_Key.enter	Key.enter	n/a
35.715	7.0915	71430	prompt	n/a	fingers autos december howto\n
36.445	0.12	72890	keystroke_f	f	n/a
36.55	0.105	73100	keystroke_i	i	n/a
36.715	0.09	73430	keystroke_n	n	n/a
36.79	0.075	73580	keystroke_g	g	n/a
36.94	0.135	73880	keystroke_e	e	n/a
37.045	0.075	74090	keystroke_r	r	n/a
37.24	0.075	74480	keystroke_s	s	n/a
37.375	0.09	74750	keystroke_Key.space	Key.space	n/a
37.45	0.06	74900	keystroke_a	a	n/a
37.585	0.105	75170	keystroke_u	u	n/a
37.765	0.075	75530	keystroke_t	t	n/a
37.915	0.105	75830	keystroke_o	o	n/a
38.485	0.045	76970	keystroke_s	s	n/a
38.665	0.12	77330	keystroke_Key.space	Key.space	n/a
38.965	0.03	77930	keystroke_d	d	n/a
39.1	0.06	78200	keystroke_e	e	n/a
39.31	0.0755	78620	keystroke_c	c	n/a
39.46	0.075	78920	keystroke_e	e	n/a
39.595	0.105	79190	keystroke_m	m	n/a
39.76	0.075	79520	keystroke_b	b	n/a
39.955	0.12	79910	keystroke_e	e	n/a
40.06	0.06	80120	keystroke_r	r	n/a
40.225	0.105	80450	keystroke_Key.space	Key.space	n/a
40.3905	0.1045	80781	keystroke_h	h	n/a
40.585	0.105	81170	keystroke_o	o	n/a
40.735	0.075	81470	keystroke_w	w	n/a
41.485	0.06	82970	keystroke_t	t	n/a
41.68	0.09	83360	keystroke_o	o	n/a
42.73	0.075	85460	keystroke_Key.enter	Key.enter	n/a
42.8095	5.022	85619	prompt	n/a	seeing shorts paypal sega\n
43.495	0.075	86990	keystroke_s	s	n/a
43.72	0.045	87440	keystroke_e	e	n/a
43.84	0.09	87680	keystroke_e	e	n/a
43.945	0.1045	87890	keystroke_i	i	n/a
44.14	0.1045	88280	keystroke_n	n	n/a
44.26	0.0895	88520	keystroke_g	g	n/a
44.4395	0.0905	88879	keystroke_Key.space	Key.space	n/a
44.5895	0.075	89179	keystroke_s	s	n/a
44.6645	0.135	89329	keystroke_h	h	n/a
44.785	0.1495	89570	keystroke_o	o	n/a
44.9355	0.149	89871	keystroke_r	r	n/a
45.0545	0.0905	90109	keystroke_t	t	n/a
45.3545	0.0605	90709	keystroke_s	s	n/a
45.5345	0.1205	91069	keystroke_Key.space	Key.space	n/a
45.6845	0.1055	91369	keystroke_p	p	n/a
45.8195	0.06	91639	keystroke_a	a	n/a
45.9695	0.091	91939	keystroke_y	y	n/a
46.1945	0.121	92389	keystroke_p	p	n/a
46.359	0.0765	92718	keystroke_a	a	n/a
46.51	0.119	93020	keystroke_l	l	n/a
46.689	0.12	93378	keystroke_Key.space	Key.space	n/a
46.8405	0.0435	93681	keystroke_s	s	n/a
47.05	0.075	94100	keystroke_e	e	n/a
47.259	0.075	94518	keystroke_g	g	n/a
47.545	0.06	95090	keystroke_a	a	n/a
47.7555	0.074	95511	keystroke_Key.enter	Key.enter	n/a
47.8345	13.527	95669	prompt	n/a	ordered hospitals uncertainty unlikely\n
48.6705	0.105	97341	keystroke_o	o	n/a
48.8505	0.06	97701	keystroke_r	r	n/a
49.0455	0.059	98091	keystroke_d	d	n/a
49.2105	0.1195	98421	keystroke_e	e	n/a
49.3455	0.089	98691	keystroke_r	r	n/a
49.4795	0.075	98959	keystroke_e	e	n/a
49.69	0.0605	99380	keystroke_d	d	n/a
49.87	0.1055	99740	keystroke_Key.space	Key.space	n/a
50.005	0.0895	100010	keystroke_h	h	n/a
50.3045	0.016	100609	keystroke_o	o	n/a
50.3505	0.06	100701	keystroke_s	s	n/a
50.6505	0.089	101301	keystroke_p	p	n/a
50.9045	0.076	101809	keystroke_i	i	n/a
51.0705	0.059	102141	keystroke_t	t	n/a
51.3845	0.06	102769	keystroke_a	a	n/a
51.5495	0.09	103099	keystroke_l	l	n/a
51.7595	0.046	103519	keystroke_s	s	n/a
51.9095	0.105	103819	keystroke_Key.space	Key.space	n/a
52.0755	0.075	104151	keystroke_u	u	n/a
52.3455	0.074	104691	keystroke_n	n	n/a
52.675	0.12	105350	keystroke_v	v	n/a
52.93	0.165	105860	keystroke_e	e	n/a
53.08	0.105	106160	keystroke_r	r	n/a
53.815	0.075	107630	keystroke_Key.backspace	Key.backspace	n/a
53.995	0.045	107990	keystroke_Key.backspace	Key.backspace	n/a
54.145	0.075	108290	keystroke_Key.backspace	Key.backspace	n/a
54.865	0.09	109730	keystroke_c	c	n/a
55.105	0.135	110210	keystroke_e	e	n/a
55.3	0.06	110600	keystroke_r	r	n/a
55.7195	0.045	111439	keystroke_t	t	n/a
56.0345	0.0755	112069	keystroke_a	a	n/a
56.1695	0.075	112339	keystroke_i	i	n/a
56.3945	0.0905	112789	keystroke_n	n	n/a
57.6845	0.105	115369	keystroke_t	t	n/a
57.865	0.0895	115730	keystroke_y	y	n/a
58.2095	0.075	116419	keystroke_Key.space	Key.space	n/a
58.4195	0.06	116839	keystroke_u	u	n/a
59.2145	0.09	118429	keystroke_n	n	n/a
59.47	0.1045	118940	keystroke_l	l	n/a
59.6495	0.075	119299	keystroke_i	i	n/a
59.8595	0.075	119719	keystroke_k	k	n/a
60.0995	0.09	120199	keystroke_e	e	n/a
60.2945	0.105	120589	keystroke_l	l	n/a
60.5495	0.075	121099	keystroke_y	y	n/a
61.255	0.1045	122510	keystroke_Key.enter	Key.enter	n/a
61.368	6.834	122736	prompt	n/a	missing minds feeling analyst\n
62.005	0.1195	124010	keystroke_m	m	n/a
62.1845	0.09	124369	keystroke_i	i	n/a
62.305	0.0445	124610	keystroke_s	s	n/a
62.4395	0.06	124879	keystroke_s	s	n/a
62.515	0.0595	125030	keystroke_i	i	n/a
62.6645	0.09	125329	keystroke_n	n	n/a
62.7845	0.09	125569	keystroke_g	g	n/a
62.98	0.1195	125960	keystroke_Key.space	Key.space	n/a
63.115	0.1195	126230	keystroke_m	m	n/a
63.2795	0.105	126559	keystroke_i	i	n/a
63.4145	0.105	126829	keystroke_n	n	n/a
63.565	0.0745	127130	keystroke_d	d	n/a
63.7895	0.061	127579	keystroke_s	s	n/a
63.9995	0.075	127999	keystroke_Key.space	Key.space	n/a
64.1945	0.075	128389	keystroke_f	f	n/a
64.3595	0.061	128719	keystroke_e	e	n/a
64.5095	0.061	129019	keystroke_e	e	n/a
64.5845	0.1205	129169	keystroke_l	l	n/a
64.7645	0.06	129529	keystroke_i	i	n/a
64.9755	0.089	129951	keystroke_n	n	n/a
65.0945	0.076	130189	keystroke_g	g	n/a
65.2295	0.12	130459	keystroke_Key.space	Key.space	n/a
65.4095	0.06	130819	keystroke_a	a	n/a
65.4995	0.076	130999	keystroke_n	n	n/a
65.635	0.045	131270	keystroke_a	a	n/a
65.74	0.075	131480	keystroke_l	l	n/a
65.98	0.075	131960	keystroke_y	y	n/a
66.0995	0.105	132199	keystroke_s	s	n/a
66.3545	0.0605	132709	keystroke_t	t	n/a
68.08	0.1205	136160	keystroke_Key.enter	Key.enter	n/a
68.206	5.741	136412	prompt	n/a	email basket forum able\n
68.89	0.075	137780	keystroke_e	e	n/a
69.025	0.105	138050	keystroke_m	m	n/a
69.19	0.075	138380	keystroke_a	a	n/a
69.355	0.09	138710	keystroke_i	i	n/a
69.565	0.09	139130	keystroke_l	l	n/a
69.79	0.12	139580	keystroke_Key.space	Key.space	n/a
70.015	0.075	140030	keystroke_b	b	n/a
70.27	0.059	140540	keystroke_a	a	n/a
70.4645	0.0755	140929	keystroke_s	s	n/a
70.6	0.105	141200	keystroke_k	k	n/a
70.75	0.075	141500	keystroke_e	e	n/a
70.96	0.075	141920	keystroke_t	t	n/a
71.994	0.1205	143988	keystroke_Key.space	Key.space	n/a
72.16	0.075	144320	keystroke_f	f	n/a
72.295	0.09	144590	keystroke_o	o	n/a
72.595	0.06	145190	keystroke_r	r	n/a
72.729	0.091	145458	keystroke_u	u	n/a
73	0.105	146000	keystroke_m	m	n/a
73.135	0.105	146270	keystroke_Key.space	Key.space	n/a
73.225	0.06	146450	keystroke_a	a	n/a
73.465	0.06	146930	keystroke_b	b	n/a
73.57	0.09	147140	keystroke_l	l	n/a
73.705	0.075	147410	keystroke_e	e	n/a
73.885	0.06	147770	keystroke_Key.enter	Key.enter	n/a
73.9505	5.6665	147901	prompt	n/a	advisor afraid meanwhile gene\n
74.6495	0.045	149299	keystroke_a	a	n/a
74.8445	0.06	149689	keystroke_d	d	n/a
75.055	0.06	150110	keystroke_v	v	n/a
75.2045	0.06	150409	keystroke_i	i	n/a
75.4745	0.045	150949	keystroke_s	s	n/a
75.6845	0.09	151369	keystroke_o	o	n/a
75.8205	0.059	151641	keystroke_r	r	n/a
75.9395	0.105	151879	keystroke_Key.space	Key.space	n/a
76.0895	0.06	152179	keystroke_a	a	n/a
76.2695	0.09	152539	keystroke_f	f	n/a
76.4645	0.045	152929	keystroke_r	r	n/a
76.6595	0.0455	153319	keystroke_a	a	n/a
76.7795	0.09	153559	keystroke_i	i	n/a
76.93	0.075	153860	keystroke_d	d	n/a
77.0495	0.09	154099	keystroke_Key.space	Key.space	n/a
77.2445	0.075	154489	keystroke_m	m	n/a
77.38	0.075	154760	keystroke_e	e	n/a
77.665	0.0595	155330	keystroke_a	a	n/a
77.8595	0.06	155719	keystroke_n	n	n/a
78.19	0.075	156380	keystroke_w	w	n/a
78.325	0.12	156650	keystroke_h	h	n/a
78.43	0.09	156860	keystroke_i	i	n/a
78.685	0.06	157370	keystroke_l	l	n/a
78.76	0.06	157520	keystroke_e	e	n/a
78.88	0.12	157760	keystroke_Key.space	Key.space	n/a
79	0.075	158000	keystroke_g	g	n/a
79.165	0.06	158330	keystroke_e	e	n/a
79.255	0.075	158510	keystroke_n	n	n/a
79.375	0.075	158750	keystroke_e	e	n/a
79.555	0.06	159110	keystroke_Key.enter	Key.enter	n/a
79.6205	6.7015	159241	prompt	n/a	from indicator brick accessories\n
80.26	0.15	160520	keystroke_f	f	n/a
80.425	0.09	160850	keystroke_r	r	n/a
80.5	0.075	161000	keystroke_o	o	n/a
80.665	0.09	161330	keystroke_m	m	n/a
80.785	0.135	161570	keystroke_Key.space	Key.space	n/a
80.905	0.06	161810	keystroke_i	i	n/a
80.995	0.09	161990	keystroke_n	n	n/a
81.19	0.09	162380	keystroke_d	d	n/a
81.355	0.075	162710	keystroke_i	i	n/a
81.46	0.06	162920	keystroke_c	c	n/a
81.64	0.075	163280	keystroke_a	a	n/a
81.835	0.075	163670	keystroke_t	t	n/a
81.97	0.09	163940	keystroke_o	o	n/a
82.075	0.075	164150	keystroke_r	r	n/a
82.195	0.12	164390	keystroke_Key.space	Key.space	n/a
82.465	0.075	164930	keystroke_r	r	n/a
82.81	0.09	165620	keystroke_Key.backspace	Key.backspace	n/a
82.885	0.06	165770	keystroke_b	b	n/a
83.02	0.06	166040	keystroke_r	r	n/a
83.095	0.09	166190	keystroke_i	i	n/a
83.2445	0.0755	166489	keystroke_c	c	n/a
83.365	0.075	166730	keystroke_k	k	n/a
83.8	0.075	167600	keystroke_Key.space	Key.space	n/a
83.979	0.06	167958	keystroke_a	a	n/a
84.2345	0.0455	168469	keystroke_c	c	n/a
84.354	0.075	168708	keystroke_c	c	n/a
84.55	0.06	169100	keystroke_e	e	n/a
84.714	0.031	169428	keystroke_s	s	n/a
84.8345	0.0605	169669	keystroke_s	s	n/a
84.9395	0.1205	169879	keystroke_o	o	n/a
85.1795	0.016	170359	keystroke_r	r	n/a
85.7055	0.1035	171411	keystroke_i	i	n/a
85.839	0.046	171678	keystroke_e	e	n/a
86.004	0.046	172008	keystroke_s	s	n/a
86.2595	0.06	172519	keystroke_Key.enter	Key.enter	n/a
86.325	10.002	172650	prompt	n/a	stands votes vietnam exhibitions\n
87.055	0.0895	174110	keystroke_s	s	n/a
87.2345	0.075	174469	keystroke_t	t	n/a
87.4145	0.0605	174829	keystroke_a	a	n/a
87.5195	0.09	175039	keystroke_n	n	n/a
87.6395	0.075	175279	keystroke_d	d	n/a
88.2245	0.075	176449	keystroke_s	s	n/a
88.315	0.1345	176630	keystroke_Key.space	Key.space	n/a
88.4945	0.15	176989	keystroke_n	n	n/a
88.93	0.075	177860	keystroke_Key.backspace	Key.backspace	n/a
89.05	0.0595	178100	keystroke_v	v	n/a
89.155	0.0895	178310	keystroke_o	o	n/a
89.305	0.075	178610	keystroke_t	t	n/a
89.5445	0.09	179089	keystroke_e	e	n/a
89.86	0.0595	179720	keystroke_s	s	n/a
90.0245	0.12	180049	keystroke_Key.space	Key.space	n/a
90.34	0.0745	180680	keystroke_v	v	n/a
90.5195	0.09	181039	keystroke_i	i	n/a
90.6545	0.09	181309	keystroke_e	e	n/a
90.8495	0.06	181699	keystroke_t	t	n/a
90.9995	0.105	181999	keystroke_n	n	n/a
91.1645	0.075	182329	keystroke_a	a	n/a
91.3145	0.075	182629	keystroke_m	m	n/a
91.8845	0.075	183769	keystroke_Key.space	Key.space	n/a
92.14	0.045	184280	keystroke_e	e	n/a
92.514	0.076	185028	keystroke_x	x	n/a
92.965	0.105	185930	keystroke_h	h	n/a
93.25	0.135	186500	keystroke_i	i	n/a
93.6995	0.105	187399	keystroke_b	b	n/a
94.4645	0.076	188929	keystroke_i	i	n/a
94.5705	0.075	189141	keystroke_t	t	n/a
95.0355	0.149	190071	keystroke_i	i	n/a
95.1855	0.089	190371	keystroke_o	o	n/a
95.395	0.09	190790	keystroke_n	n	n/a
95.515	0.075	191030	keystroke_s	s	n/a
96.205	0.1195	192410	keystroke_Key.enter	Key.enter	n/a
96.33	7.9465	192660	prompt	n/a	planet illinois amino stood\n
96.94	0.105	193880	keystroke_p	p	n/a
97.12	0.104	194240	keystroke_l	l	n/a
97.27	0.09	194540	keystroke_a	a	n/a
97.51	0.089	195020	keystroke_n	n	n/a
97.63	0.06	195260	keystroke_e	e	n/a
97.87	0.059	195740	keystroke_t	t	n/a
98.11	0.105	196220	keystroke_Key.space	Key.space	n/a
98.29	0.09	196580	keystroke_i	i	n/a
98.545	0.075	197090	keystroke_l	l	n/a
98.725	0.105	197450	keystroke_l	l	n/a
99.01	0.105	198020	keystroke_i	i	n/a
99.145	0.105	198290	keystroke_o	o	n/a
99.715	0.12	199430	keystroke_n	n	n/a
100.465	0.06	200930	keystroke_Key.backspace	Key.backspace	n/a
100.615	0.09	201230	keystroke_Key.backspace	Key.backspace	n/a
100.9	0.075	201800	keystroke_n	n	n/a
101.065	0.09	202130	keystroke_o	o	n/a
101.35	0.105	202700	keystroke_i	i	n/a
101.59	0.075	203180	keystroke_s	s	n/a
101.77	0.089	203540	keystroke_Key.space	Key.space	n/a
101.92	0.06	203840	keystroke_a	a	n/a
102.055	0.09	204110	keystroke_m	m	n/a
102.31	0.105	204620	keystroke_i	i	n/a
102.475	0.09	204950	keystroke_n	n	n/a
102.67	0.09	205340	keystroke_o	o	n/a
102.835	0.1195	205670	keystroke_Key.space	Key.space	n/a
102.9695	0.06	205939	keystroke_s	s	n/a
103.1345	0.075	206269	keystroke_t	t	n/a
103.2395	0.0755	206479	keystroke_o	o	n/a
103.3895	0.09	206779	keystroke_o	o	n/a
103.5095	0.09	207019	keystroke_d	d	n/a
104.1695	0.105	208339	keystroke_Key.enter	Key.enter	n/a
104.2795	8.5205	208559	prompt	n/a	creation bufing learners kenya\n
104.9795	0.075	209959	keystroke_c	c	n/a
105.1895	0.106	210379	keystroke_r	r	n/a
105.28	0.0745	210560	keystroke_e	e	n/a
105.5045	0.075	211009	keystroke_a	a	n/a
105.7295	0.0605	211459	keystroke_t	t	n/a
105.82	0.105	211640	keystroke_i	i	n/a
105.895	0.09	211790	keystroke_o	o	n/a
106.105	0.105	212210	keystroke_n	n	n/a
106.211	0.134	212422	keystroke_Key.space	Key.space	n/a
106.36	0.075	212720	keystroke_b	b	n/a
106.495	0.105	212990	keystroke_u	u	n/a
106.705	0.09	213410	keystroke_d	d	n/a
107.245	0.075	214490	keystroke_Key.backspace	Key.backspace	n/a
107.35	0.075	214700	keystroke_f	f	n/a
107.47	0.06	214940	keystroke_i	i	n/a
107.68	0.075	215360	keystroke_n	n	n/a
107.875	0.075	215750	keystroke_g	g	n/a
108.22	0.09	216440	keystroke_Key.space	Key.space	n/a
108.565	0.135	217130	keystroke_l	l	n/a
109.315	0.0745	218630	keystroke_e	e	n/a
109.555	0.0595	219110	keystroke_a	a	n/a
110.0795	0.0755	220159	keystroke_r	r	n/a
110.26	0.09	220520	keystroke_n	n	n/a
110.3805	0.2095	220761	keystroke_e	e	n/a
110.56	0.09	221120	keystroke_r	r	n/a
110.8	0.075	221600	keystroke_s	s	n/a
110.98	0.0895	221960	keystroke_Key.space	Key.space	n/a
111.2345	0.1055	222469	keystroke_k	k	n/a
111.355	0.09	222710	keystroke_e	e	n/a
111.895	0.1045	223790	keystroke_n	n	n/a
112.2695	0.0905	224539	keystroke_y	y	n/a
112.3895	0.0755	224779	keystroke_a	a	n/a
112.7045	0.09	225409	keystroke_Key.enter	Key.enter	n/a
112.8	7.842	225600	prompt	n/a	signs absolute sims acquire\n
113.3945	0.045	226789	keystroke_s	s	n/a
113.5	0.1045	227000	keystroke_i	i	n/a
113.6945	0.06	227389	keystroke_g	g	n/a
113.8145	0.09	227629	keystroke_n	n	n/a
114.0095	0.06	228019	keystroke_s	s	n/a
114.3095	0.09	228619	keystroke_Key.space	Key.space	n/a
114.6545	0.06	229309	keystroke_a	a	n/a
115.1205	0.0595	230241	keystroke_b	b	n/a
115.3745	0.0605	230749	keystroke_s	s	n/a
115.5695	0.076	231139	keystroke_o	o	n/a
115.7495	0.105	231499	keystroke_l	l	n/a
115.9745	0.075	231949	keystroke_u	u	n/a
116.155	0.105	232310	keystroke_t	t	n/a
116.395	0.075	232790	keystroke_e	e	n/a
116.62	0.104	233240	keystroke_Key.space	Key.space	n/a
117.01	0.06	234020	keystroke_s	s	n/a
117.085	0.089	234170	keystroke_i	i	n/a
117.2955	0.089	234591	keystroke_m	m	n/a
117.46	0.075	234920	keystroke_s	s	n/a
117.7	0.075	235400	keystroke_Key.space	Key.space	n/a
117.865	0.06	235730	keystroke_s	s	n/a
118.4045	0.09	236809	keystroke_Key.backspace	Key.backspace	n/a
118.465	0.06	236930	keystroke_a	a	n/a
118.6895	0.0755	237379	keystroke_c	c	n/a
118.9595	0.0755	237919	keystroke_q	q	n/a
119.784	0.1805	239568	keystroke_u	u	n/a
119.9205	0.1045	239841	keystroke_i	i	n/a
120.085	0.089	240170	keystroke_r	r	n/a
120.235	0.089	240470	keystroke_e	e	n/a
120.564	0.0755	241128	keystroke_Key.enter	Key.enter	n/a
120.6445	11.487	241289	prompt	n/a	factors following aluminum soundtrack\n
121.2995	0.0755	242599	keystroke_f	f	n/a
121.5395	0.0455	243079	keystroke_a	a	n/a
122.1545	0.09	244309	keystroke_c	c	n/a
122.3945	0.06	244789	keystroke_t	t	n/a
122.5145	0.09	245029	keystroke_o	o	n/a
122.6195	0.0605	245239	keystroke_r	r	n/a
122.83	0.0595	245660	keystroke_s	s	n/a
122.935	0.1045	245870	keystroke_Key.space	Key.space	n/a
123.0695	0.06	246139	keystroke_f	f	n/a
123.1895	0.09	246379	keystroke_o	o	n/a
123.4	0.075	246800	keystroke_l	l	n/a
123.535	0.075	247070	keystroke_l	l	n/a
123.745	0.075	247490	keystroke_o	o	n/a
123.85	0.06	247700	keystroke_w	w	n/a
123.97	0.12	247940	keystroke_i	i	n/a
124.075	0.105	248150	keystroke_n	n	n/a
124.21	0.06	248420	keystroke_g	g	n/a
124.33	0.105	248660	keystroke_Key.space	Key.space	n/a
124.48	0.06	248960	keystroke_a	a	n/a
124.585	0.09	249170	keystroke_l	l	n/a
124.84	0.09	249680	keystroke_u	u	n/a
125.14	0.075	250280	keystroke_m	m	n/a
125.59	0.074	251180	keystroke_i	i	n/a
125.889	0.09	251778	keystroke_n	n	n/a
126.22	0.045	252440	keystroke_u	u	n/a
126.415	0.089	252830	keystroke_m	m	n/a
126.999	0.045	253998	keystroke_Key.space	Key.space	n/a
127.24	0.059	254480	keystroke_a	a	n/a
127.704	0.076	255408	keystroke_Key.backspace	Key.backspace	n/a
127.81	0.06	255620	keystroke_s	s	n/a
127.899	0.075	255798	keystroke_o	o	n/a
128.11	0.074	256220	keystroke_u	u	n/a
128.32	0.074	256640	keystroke_n	n	n/a
128.529	0.06	257058	keystroke_t	t	n/a
128.604	0.076	257208	keystroke_r	r	n/a
128.845	0.075	257690	keystroke_a	a	n/a
129.054	0.076	258108	keystroke_c	c	n/a
129.174	0.09	258348	keystroke_k	k	n/a
129.624	0.06	259248	keystroke_Key.backspace	Key.backspace	n/a
129.774	0.075	259548	keystroke_Key.backspace	Key.backspace	n/a
129.924	0.0905	259848	keystroke_Key.backspace	Key.backspace	n/a
130.104	0.061	260208	keystroke_Key.backspace	Key.backspace	n/a
130.3445	0.1055	260689	keystroke_Key.backspace	Key.backspace	n/a
130.51	0.0745	261020	keystroke_d	d	n/a
130.8095	0.12	261619	keystroke_t	t	n/a
130.9145	0.06	261829	keystroke_r	r	n/a
131.14	0.0745	262280	keystroke_a	a	n/a
131.3645	0.0605	262729	keystroke_c	c	n/a
131.5	0.0605	263000	keystroke_k	k	n/a
132.04	0.089	264080	keystroke_Key.enter	Key.enter	n/a
132.135	10.752	264270	prompt	n/a	distributed advisory printers informational\n
133.0145	0.06	266029	keystroke_d	d	n/a
133.1645	0.09	266329	keystroke_i	i	n/a
133.6	0.09	267200	keystroke_s	s	n/a
133.855	0.15	267710	keystroke_t	t	n/a
133.96	0.075	267920	keystroke_r	r	n/a
134.155	0.135	268310	keystroke_i	i	n/a
134.335	0.075	268670	keystroke_b	b	n/a
134.47	0.075	268940	keystroke_u	u	n/a
134.575	0.075	269150	keystroke_t	t	n/a
134.8	0.045	269600	keystroke_e	e	n/a
135.025	0.075	270050	keystroke_d	d	n/a
135.175	0.12	270350	keystroke_Key.space	Key.space	n/a
135.325	0.06	270650	keystroke_a	a	n/a
135.55	0.075	271100	keystroke_d	d	n/a
135.745	0.06	271490	keystroke_i	i	n/a
136.33	0.09	272660	keystroke_Key.backspace	Key.backspace	n/a
136.465	0.075	272930	keystroke_v	v	n/a
136.615	0.075	273230	keystroke_i	i	n/a
136.75	0.075	273500	keystroke_s	s	n/a
137.35	0.12	274700	keystroke_o	o	n/a
137.53	0.045	275060	keystroke_r	r	n/a
137.725	0.09	275450	keystroke_y	y	n/a
137.935	0.135	275870	keystroke_Key.space	Key.space	n/a
138.145	0.09	276290	keystroke_p	p	n/a
138.295	0.0295	276590	keystroke_r	r	n/a
138.4295	0.075	276859	keystroke_i	i	n/a
138.7445	0.075	277489	keystroke_n	n	n/a
139.0145	0.045	278029	keystroke_t	t	n/a
139.2405	0.15	278481	keystroke_e	e	n/a
139.375	0.0745	278750	keystroke_r	r	n/a
139.6155	0.075	279231	keystroke_s	s	n/a
139.8545	0.09	279709	keystroke_Key.space	Key.space	n/a
140.0345	0.105	280069	keystroke_i	i	n/a
140.1845	0.09	280369	keystroke_n	n	n/a
140.3345	0.075	280669	keystroke_f	f	n/a
140.4695	0.09	280939	keystroke_o	o	n/a
140.6195	0.046	281239	keystroke_r	r	n/a
140.7545	0.075	281509	keystroke_m	m	n/a
140.9195	0.076	281839	keystroke_a	a	n/a
141.1295	0.075	282259	keystroke_t	t	n/a
141.2195	0.105	282439	keystroke_i	i	n/a
141.31	0.0745	282620	keystroke_o	o	n/a
141.4895	0.075	282979	keystroke_n	n	n/a
141.5945	0.075	283189	keystroke_a	a	n/a
141.7145	0.09	283429	keystroke_l	l	n/a
142.75	0.135	285500	keystroke_Key.enter	Key.enter	n/a
142.8895	8.9225	285779	prompt	n/a	livestock amendment communicate musical\n
143.6795	0.105	287359	keystroke_l	l	n/a
143.8445	0.09	287689	keystroke_i	i	n/a
143.95	0.0745	287900	keystroke_v	v	n/a
144.1145	0.0605	288229	keystroke_e	e	n/a
144.2795	0.075	288559	keystroke_s	s	n/a
144.444	0.075	288888	keystroke_t	t	n/a
144.55	0.104	289100	keystroke_o	o	n/a
144.715	0.089	289430	keystroke_c	c	n/a
144.849	0.136	289698	keystroke_k	k	n/a
144.9995	0.1045	289999	keystroke_Key.space	Key.space	n/a
145.149	0.076	290298	keystroke_a	a	n/a
145.3	0.0895	290600	keystroke_m	m	n/a
145.4645	0.0755	290929	keystroke_e	e	n/a
145.63	0.09	291260	keystroke_n	n	n/a
145.81	0.06	291620	keystroke_d	d	n/a
146.185	0.09	292370	keystroke_m	m	n/a
146.32	0.06	292640	keystroke_e	e	n/a
146.5	0.075	293000	keystroke_n	n	n/a
146.68	0.03	293360	keystroke_t	t	n/a
147.2045	0.105	294409	keystroke_Key.space	Key.space	n/a
147.415	0.075	294830	keystroke_c	c	n/a
147.52	0.0895	295040	keystroke_o	o	n/a
147.744	0.0605	295488	keystroke_m	m	n/a
147.879	0.075	295758	keystroke_m	m	n/a
148.135	0.074	296270	keystroke_u	u	n/a
148.299	0.091	296598	keystroke_n	n	n/a
148.69	0.075	297380	keystroke_i	i	n/a
148.9145	0.0755	297829	keystroke_c	c	n/a
149.1245	0.06	298249	keystroke_a	a	n/a
149.35	0.06	298700	keystroke_t	t	n/a
149.515	0.06	299030	keystroke_e	e	n/a
149.665	0.105	299330	keystroke_Key.space	Key.space	n/a
149.845	0.06	299690	keystroke_m	m	n/a
150.13	0.045	300260	keystroke_u	u	n/a
150.28	0.075	300560	keystroke_s	s	n/a
150.415	0.105	300830	keystroke_i	i	n/a
150.6395	0.06	301279	keystroke_c	c	n/a
150.8645	0.0605	301729	keystroke_a	a	n/a
151.0145	0.0905	302029	keystroke_l	l	n/a
151.72	0.09	303440	keystroke_Key.enter	Key.enter	n/a
151.817	9.684	303634	prompt	n/a	circulation memory graduated vintage\n
152.5	0.06	305000	keystroke_c	c	n/a
152.665	0.09	305330	keystroke_i	i	n/a
152.965	0.075	305930	keystroke_c	c	n/a
153.475	0.135	306950	keystroke_Key.backspace	Key.backspace	n/a
153.595	0.06	307190	keystroke_r	r	n/a
153.8645	0.075	307729	keystroke_c	c	n/a
154.0145	0.105	308029	keystroke_u	u	n/a
154.3595	0.1205	308719	keystroke_l	l	n/a
154.4645	0.09	308929	keystroke_a	a	n/a
154.735	0.0595	309470	keystroke_t	t	n/a
154.8395	0.135	309679	keystroke_i	i	n/a
154.9445	0.12	309889	keystroke_o	o	n/a
155.2145	0.09	310429	keystroke_n	n	n/a
155.4395	0.12	310879	keystroke_Key.space	Key.space	n/a
155.6495	0.075	311299	keystroke_m	m	n/a
155.8145	0.09	311629	keystroke_e	e	n/a
155.9495	0.0605	311899	keystroke_m	m	n/a
156.0845	0.105	312169	keystroke_o	o	n/a
156.2345	0.06	312469	keystroke_r	r	n/a
156.7295	0.1055	313459	keystroke_y	y	n/a
156.91	0.18	313820	keystroke_Key.space	Key.space	n/a
157.075	0.075	314150	keystroke_g	g	n/a
157.27	0.075	314540	keystroke_r	r	n/a
157.51	0.06	315020	keystroke_a	a	n/a
157.72	0.075	315440	keystroke_d	d	n/a
157.93	0.06	315860	keystroke_u	u	n/a
158.125	0.06	316250	keystroke_a	a	n/a
158.395	0.075	316790	keystroke_t	t	n/a
158.59	0.06	317180	keystroke_e	e	n/a
158.815	0.06	317630	keystroke_d	d	n/a
159.025	0.12	318050	keystroke_Key.space	Key.space	n/a
159.235	0.06	318470	keystroke_v	v	n/a
159.52	0.09	319040	keystroke_i	i	n/a
159.805	0.105	319610	keystroke_n	n	n/a
160.015	0.075	320030	keystroke_t	t	n/a
160.27	0.075	320540	keystroke_a	a	n/a
160.555	0.06	321110	keystroke_g	g	n/a
160.75	0.074	321500	keystroke_e	e	n/a
161.394	0.105	322788	keystroke_Key.enter	Key.enter	n/a
161.505	10.391	323010	prompt	n/a	spanking element modes delegation\n
162.16	0.119	324320	keystroke_s	s	n/a
162.399	0.12	324798	keystroke_p	p	n/a
162.76	0.0895	325520	keystroke_a	a	n/a
163.059	0.09	326118	keystroke_n	n	n/a
163.239	0.09	326478	keystroke_k	k	n/a
163.449	0.075	326898	keystroke_i	i	n/a
163.615	0.104	327230	keystroke_n	n	n/a
163.7795	0.0595	327559	keystroke_g	g	n/a
163.989	0.075	327978	keystroke_Key.space	Key.space	n/a
164.3045	0.09	328609	keystroke_e	e	n/a
164.499	0.12	328998	keystroke_l	l	n/a
164.694	0.061	329388	keystroke_e	e	n/a
164.8295	0.075	329659	keystroke_m	m	n/a
164.9345	0.0745	329869	keystroke_e	e	n/a
165.115	0.075	330230	keystroke_n	n	n/a
165.28	0.044	330560	keystroke_t	t	n/a
165.519	0.12	331038	keystroke_Key.space	Key.space	n/a
165.819	0.121	331638	keystroke_m	m	n/a
165.954	0.12	331908	keystroke_o	o	n/a
166.059	0.0755	332118	keystroke_d	d	n/a
166.404	0.075	332808	keystroke_e	e	n/a
166.974	0.09	333948	keystroke_Key.space	Key.space	n/a
167.319	0.0905	334638	keystroke_Key.backspace	Key.backspace	n/a
167.515	0.059	335030	keystroke_s	s	n/a
167.679	0.105	335358	keystroke_Key.space	Key.space	n/a
167.9795	0.075	335959	keystroke_d	d	n/a
168.19	0.075	336380	keystroke_e	e	n/a
168.354	0.075	336708	keystroke_l	l	n/a
168.774	0.105	337548	keystroke_e	e	n/a
169.0595	0.075	338119	keystroke_g	g	n/a
169.494	0.075	338988	keystroke_a	a	n/a
169.854	0.076	339708	keystroke_t	t	n/a
170.0045	0.1345	340009	keystroke_i	i	n/a
170.124	0.091	340248	keystroke_o	o	n/a
170.349	0.076	340698	keystroke_n	n	n/a
171.789	0.105	343578	keystroke_Key.enter	Key.enter	n/a
171.899	10.0625	343798	prompt	n/a	lessons numerical heath developmental\n
172.4945	0.1055	344989	keystroke_l	l	n/a
172.614	0.061	345228	keystroke_e	e	n/a
172.794	0.06	345588	keystroke_s	s	n/a
172.929	0.06	345858	keystroke_s	s	n/a
173.244	0.075	346488	keystroke_o	o	n/a
173.4845	0.0745	346969	keystroke_n	n	n/a
173.65	0.0595	347300	keystroke_s	s	n/a
173.77	0.1195	347540	keystroke_Key.space	Key.space	n/a
173.9045	0.06	347809	keystroke_m	m	n/a
174.519	0.0605	349038	keystroke_Key.backspace	Key.backspace	n/a
174.744	0.09	349488	keystroke_n	n	n/a
174.879	0.0755	349758	keystroke_u	u	n/a
175.1345	0.075	350269	keystroke_m	m	n/a
175.3	0.1345	350600	keystroke_e	e	n/a
175.404	0.076	350808	keystroke_r	r	n/a
175.4945	0.1045	350989	keystroke_i	i	n/a
175.974	0.06	351948	keystroke_c	c	n/a
176.184	0.046	352368	keystroke_a	a	n/a
176.274	0.0905	352548	keystroke_l	l	n/a
176.4845	0.075	352969	keystroke_Key.space	Key.space	n/a
176.6345	0.105	353269	keystroke_h	h	n/a
176.7545	0.06	353509	keystroke_e	e	n/a
176.9495	0.06	353899	keystroke_a	a	n/a
178.209	0.181	356418	keystroke_t	t	n/a
178.3595	0.0895	356719	keystroke_h	h	n/a
178.734	0.105	357468	keystroke_Key.space	Key.space	n/a
178.944	0.0605	357888	keystroke_d	d	n/a
179.14	0.0445	358280	keystroke_e	e	n/a
179.319	0.06	358638	keystroke_v	v	n/a
179.484	0.06	358968	keystroke_e	e	n/a
179.619	0.0905	359238	keystroke_l	l	n/a
179.844	0.165	359688	keystroke_o	o	n/a
179.994	0.075	359988	keystroke_p	p	n/a
180.219	0.06	360438	keystroke_m	m	n/a
180.309	0.06	360618	keystroke_e	e	n/a
180.474	0.0605	360948	keystroke_n	n	n/a
180.595	0.06	361190	keystroke_t	t	n/a
180.91	0.06	361820	keystroke_a	a	n/a
181.09	0.075	362180	keystroke_l	l	n/a
181.8695	0.09	363739	keystroke_Key.enter	Key.enter	n/a
181.9645	10.587	363929	prompt	n/a	she'll sheffield moments citizen\n
182.5145	0.06	365029	keystroke_s	s	n/a
182.6645	0.0905	365329	keystroke_h	h	n/a
182.7845	0.075	365569	keystroke_e	e	n/a
182.9795	0.06	365959	keystroke_'	'	n/a
183.205	0.0595	366410	keystroke_l	l	n/a
183.3395	0.075	366679	keystroke_l	l	n/a
183.5795	0.09	367159	keystroke_Key.space	Key.space	n/a
183.6845	0.075	367369	keystroke_s	s	n/a
184.09	0.09	368180	keystroke_h	h	n/a
184.2245	0.075	368449	keystroke_e	e	n/a
184.4645	0.06	368929	keystroke_f	f	n/a
184.5995	0.09	369199	keystroke_f	f	n/a
184.8845	0.105	369769	keystroke_i	i	n/a
185.1095	0.09	370219	keystroke_e	e	n/a
185.35	0.1045	370700	keystroke_l	l	n/a
185.5445	0.0605	371089	keystroke_d	d	n/a
185.7995	0.105	371599	keystroke_Key.space	Key.space	n/a
186.265	0.059	372530	keystroke_m	m	n/a
186.474	0.06	372948	keystroke_o	o	n/a
189.461	0.0885	378922	keystroke_m	m	n/a
189.595	0.075	379190	keystroke_e	e	n/a
189.82	0.104	379640	keystroke_n	n	n/a
189.94	0.074	379880	keystroke_t	t	n/a
190.209	0.0605	380418	keystroke_s	s	n/a
190.329	0.15	380658	keystroke_Key.space	Key.space	n/a
190.494	0.076	380988	keystroke_c	c	n/a
191.035	0.0895	382070	keystroke_i	i	n/a
191.185	0.075	382370	keystroke_t	t	n/a
191.364	0.0455	382728	keystroke_i	i	n/a
191.5445	0.0745	383089	keystroke_z	z	n/a
191.77	0.074	383540	keystroke_e	e	n/a
191.904	0.09	383808	keystroke_n	n	n/a
192.459	0.09	384918	keystroke_Key.enter	Key.enter	n/a
192.556	8.35	385112	prompt	n/a	metric observation latter literary\n
193.2855	0.089	386571	keystroke_m	m	n/a
193.4195	0.091	386839	keystroke_e	e	n/a
193.6	0.1195	387200	keystroke_t	t	n/a
193.7045	0.075	387409	keystroke_r	r	n/a
193.8405	0.075	387681	keystroke_i	i	n/a
194.005	0.0595	388010	keystroke_c	c	n/a
194.1395	0.1055	388279	keystroke_Key.space	Key.space	n/a
194.3045	0.105	388609	keystroke_o	o	n/a
194.4395	0.0605	388879	keystroke_b	b	n/a
194.8	0.1645	389600	keystroke_e	e	n/a
196.195	0.0895	392390	keystroke_Key.backspace	Key.backspace	n/a
196.33	0.0445	392660	keystroke_s	s	n/a
196.5245	0.135	393049	keystroke_e	e	n/a
196.6295	0.045	393259	keystroke_r	r	n/a
196.87	0.0455	393740	keystroke_v	v	n/a
197.05	0.075	394100	keystroke_a	a	n/a
197.275	0.044	394550	keystroke_t	t	n/a
197.35	0.135	394700	keystroke_i	i	n/a
197.454	0.091	394908	keystroke_o	o	n/a
197.65	0.075	395300	keystroke_n	n	n/a
197.74	0.149	395480	keystroke_Key.space	Key.space	n/a
197.86	0.09	395720	keystroke_l	l	n/a
198.069	0.061	396138	keystroke_a	a	n/a
198.265	0.0595	396530	keystroke_t	t	n/a
198.895	0.0595	397790	keystroke_t	t	n/a
199.0445	0.165	398089	keystroke_e	e	n/a
199.1945	0.075	398389	keystroke_r	r	n/a
199.33	0.1495	398660	keystroke_Key.space	Key.space	n/a
199.4945	0.09	398989	keystroke_l	l	n/a
199.7045	0.105	399409	keystroke_i	i	n/a
199.8245	0.075	399649	keystroke_t	t	n/a
200.0045	0.135	400009	keystroke_e	e	n/a
200.1095	0.075	400219	keystroke_r	r	n/a
200.3045	0.0755	400609	keystroke_a	a	n/a
200.4995	0.0455	400999	keystroke_r	r	n/a
200.5595	0.1055	401119	keystroke_y	y	n/a
200.8445	0.06	401689	keystroke_Key.enter	Key.enter	n/a
200.909	8.1875	401818	prompt	n/a	evident viewed quilt fourth\n
201.475	0.075	402950	keystroke_e	e	n/a
201.7	0.045	403400	keystroke_v	v	n/a
202.195	0.075	404390	keystroke_i	i	n/a
202.315	0.075	404630	keystroke_d	d	n/a
202.51	0.075	405020	keystroke_e	e	n/a
202.66	0.075	405320	keystroke_n	n	n/a
202.81	0.075	405620	keystroke_t	t	n/a
202.93	0.105	405860	keystroke_Key.space	Key.space	n/a
203.05	0.075	406100	keystroke_v	v	n/a
203.185	0.075	406370	keystroke_i	i	n/a
203.305	0.06	406610	keystroke_e	e	n/a
203.4845	0.06	406969	keystroke_w	w	n/a
203.6795	0.06	407359	keystroke_e	e	n/a
203.8295	0.06	407659	keystroke_d	d	n/a
203.95	0.0895	407900	keystroke_Key.space	Key.space	n/a
204.37	0.0745	408740	keystroke_q	q	n/a
204.5195	0.09	409039	keystroke_u	u	n/a
205.8995	0.1055	411799	keystroke_i	i	n/a
206.1245	0.0905	412249	keystroke_l	l	n/a
206.3345	0.0905	412669	keystroke_t	t	n/a
206.8895	0.06	413779	keystroke_Key.space	Key.space	n/a
207.5195	0.0605	415039	keystroke_f	f	n/a
207.6545	0.105	415309	keystroke_o	o	n/a
207.8645	0.075	415729	keystroke_u	u	n/a
208.0295	0.09	416059	keystroke_r	r	n/a
208.2245	0.12	416449	keystroke_t	t	n/a
208.3145	0.1055	416629	keystroke_h	h	n/a
208.9895	0.105	417979	keystroke_Key.enter	Key.enter	n/a
209.099	7.722	418198	prompt	n/a	responding valuation worcester clara\n
209.7845	0.12	419569	keystroke_r	r	n/a
209.9195	0.0605	419839	keystroke_e	e	n/a
210.0995	0.09	420199	keystroke_s	s	n/a
210.1745	0.105	420349	keystroke_o	o	n/a
210.7145	0.09	421429	keystroke_Key.backspace	Key.backspace	n/a
210.88	0.0745	421760	keystroke_p	p	n/a
211.0595	0.075	422119	keystroke_o	o	n/a
211.2995	0.105	422599	keystroke_n	n	n/a
211.45	0.0745	422900	keystroke_d	d	n/a
211.5545	0.135	423109	keystroke_i	i	n/a
211.6745	0.105	423349	keystroke_n	n	n/a
211.84	0.0445	423680	keystroke_g	g	n/a
212.02	0.089	424040	keystroke_Key.space	Key.space	n/a
212.3645	0.0595	424729	keystroke_v	v	n/a
212.5595	0.075	425119	keystroke_a	a	n/a
212.6645	0.1055	425329	keystroke_l	l	n/a
212.8595	0.09	425719	keystroke_u	u	n/a
213.0245	0.075	426049	keystroke_a	a	n/a
213.22	0.0745	426440	keystroke_t	t	n/a
213.31	0.12	426620	keystroke_i	i	n/a
213.399	0.076	426798	keystroke_o	o	n/a
213.58	0.089	427160	keystroke_n	n	n/a
213.685	0.12	427370	keystroke_Key.space	Key.space	n/a
213.819	0.075	427638	keystroke_w	w	n/a
214.014	0.106	428028	keystroke_o	o	n/a
214.18	0.075	428360	keystroke_r	r	n/a
214.45	0.075	428900	keystroke_c	c	n/a
214.63	0.0595	429260	keystroke_e	e	n/a
214.7795	0.075	429559	keystroke_s	s	n/a
214.9445	0.075	429889	keystroke_t	t	n/a
215.0945	0.15	430189	keystroke_e	e	n/a
215.2145	0.075	430429	keystroke_r	r	n/a
215.365	0.1195	430730	keystroke_Key.space	Key.space	n/a
215.515	0.0445	431030	keystroke_s	s	n/a
215.8595	0.09	431719	keystroke_Key.backspace	Key.backspace	n/a
215.9645	0.0605	431929	keystroke_c	c	n/a
216.0695	0.09	432139	keystroke_l	l	n/a
216.1895	0.0905	432379	keystroke_a	a	n/a
216.3845	0.0605	432769	keystroke_r	r	n/a
216.535	0.075	433070	keystroke_a	a	n/a
216.744	0.075	433488	keystroke_Key.enter	Key.enter	n/a
216.824	5.5025	433648	prompt	n/a	presents estimated spencer walt\n
217.4345	0.075	434869	keystroke_p	p	n/a
217.5545	0.06	435109	keystroke_r	r	n/a
217.7345	0.06	435469	keystroke_e	e	n/a
217.8845	0.075	435769	keystroke_s	s	n/a
218.065	0.0595	436130	keystroke_e	e	n/a
218.2145	0.075	436429	keystroke_n	n	n/a
218.32	0.06	436640	keystroke_t	t	n/a
218.59	0.0445	437180	keystroke_s	s	n/a
218.7545	0.075	437509	keystroke_Key.space	Key.space	n/a
218.9345	0.06	437869	keystroke_e	e	n/a
219.145	0.0895	438290	keystroke_s	s	n/a
219.3545	0.06	438709	keystroke_t	t	n/a
219.4595	0.075	438919	keystroke_i	i	n/a
219.5945	0.09	439189	keystroke_m	m	n/a
219.7295	0.09	439459	keystroke_a	a	n/a
219.9395	0.06	439879	keystroke_t	t	n/a
220.014	0.075	440028	keystroke_e	e	n/a
220.21	0.059	440420	keystroke_d	d	n/a
220.314	0.105	440628	keystroke_Key.space	Key.space	n/a
220.449	0.075	440898	keystroke_s	s	n/a
220.585	0.104	441170	keystroke_p	p	n/a
220.749	0.06	441498	keystroke_e	e	n/a
220.929	0.0905	441858	keystroke_n	n	n/a
221.124	0.075	442248	keystroke_c	c	n/a
221.335	0.134	442670	keystroke_e	e	n/a
221.485	0.045	442970	keystroke_r	r	n/a
221.619	0.105	443238	keystroke_Key.space	Key.space	n/a
221.7255	0.029	443451	keystroke_w	w	n/a
221.874	0.061	443748	keystroke_a	a	n/a
221.965	0.089	443930	keystroke_i	i	n/a
222.1145	0.075	444229	keystroke_t	t	n/a
222.2495	0.075	444499	keystroke_Key.enter	Key.enter	n/a
222.329	7.797	444658	prompt	n/a	standing disaster farmer nonprofit\n
222.9095	0.075	445819	keystroke_s	s	n/a
223.0895	0.06	446179	keystroke_t	t	n/a
223.2845	0.075	446569	keystroke_a	a	n/a
223.3745	0.09	446749	keystroke_n	n	n/a
223.4945	0.0755	446989	keystroke_d	d	n/a
223.5995	0.1205	447199	keystroke_i	i	n/a
223.7045	0.09	447409	keystroke_n	n	n/a
223.8395	0.06	447679	keystroke_g	g	n/a
223.9595	0.1055	447919	keystroke_Key.space	Key.space	n/a
224.0945	0.075	448189	keystroke_d	d	n/a
224.2145	0.075	448429	keystroke_i	i	n/a
224.3795	0.06	448759	keystroke_s	s	n/a
224.74	0.0595	449480	keystroke_a	a	n/a
225.5045	0.0605	451009	keystroke_s	s	n/a
225.805	0.075	451610	keystroke_t	t	n/a
225.97	0.135	451940	keystroke_e	e	n/a
226.09	0.06	452180	keystroke_r	r	n/a
226.24	0.105	452480	keystroke_Key.space	Key.space	n/a
226.375	0.075	452750	keystroke_f	f	n/a
226.6	0.06	453200	keystroke_a	a	n/a
226.765	0.045	453530	keystroke_r	r	n/a
226.854	0.091	453708	keystroke_m	m	n/a
226.975	0.149	453950	keystroke_e	e	n/a
227.11	0.0595	454220	keystroke_r	r	n/a
227.199	0.09	454398	keystroke_Key.space	Key.space	n/a
227.35	0.0895	454700	keystroke_n	n	n/a
227.514	0.091	455028	keystroke_o	o	n/a
227.635	0.104	455270	keystroke_n	n	n/a
227.875	0.075	455750	keystroke_p	p	n/a
227.994	0.061	455988	keystroke_r	r	n/a
228.099	0.076	456198	keystroke_o	o	n/a
228.22	0.0895	456440	keystroke_d	d	n/a
228.3545	0.0745	456709	keystroke_i	i	n/a
228.489	0.0905	456978	keystroke_t	t	n/a
228.834	0.075	457668	keystroke_Key.backspace	Key.backspace	n/a
228.984	0.105	457968	keystroke_Key.backspace	Key.backspace	n/a
229.149	0.09	458298	keystroke_f	f	n/a
229.4045	0.0595	458809	keystroke_Key.backspace	Key.backspace	n/a
229.524	0.09	459048	keystroke_Key.backspace	Key.backspace	n/a
229.6295	0.0605	459259	keystroke_f	f	n/a
229.7195	0.09	459439	keystroke_i	i	n/a
229.855	0.0745	459710	keystroke_t	t	n/a
230.0645	0.0605	460129	keystroke_Key.enter	Key.enter	n/a
230.1295	7.917	460259	prompt	n/a	beginning ross frames featuring\n
230.9945	0.0595	461989	keystroke_b	b	n/a
231.175	0.075	462350	keystroke_e	e	n/a
231.355	0.075	462710	keystroke_g	g	n/a
231.474	0.075	462948	keystroke_i	i	n/a
231.684	0.0455	463368	keystroke_n	n	n/a
231.834	0.076	463668	keystroke_n	n	n/a
231.9995	0.1045	463999	keystroke_i	i	n/a
232.089	0.106	464178	keystroke_n	n	n/a
232.224	0.06	464448	keystroke_g	g	n/a
232.3745	0.1045	464749	keystroke_Key.space	Key.space	n/a
232.495	0.09	464990	keystroke_r	r	n/a
232.615	0.06	465230	keystroke_o	o	n/a
232.78	0.06	465560	keystroke_s	s	n/a
232.915	0.075	465830	keystroke_s	s	n/a
233.05	0.12	466100	keystroke_Key.space	Key.space	n/a
233.155	0.0745	466310	keystroke_f	f	n/a
233.365	0.075	466730	keystroke_r	r	n/a
233.575	0.075	467150	keystroke_a	a	n/a
233.71	0.0745	467420	keystroke_m	m	n/a
233.7995	0.0755	467599	keystroke_e	e	n/a
233.995	0.06	467990	keystroke_s	s	n/a
234.1	0.105	468200	keystroke_Key.space	Key.space	n/a
234.265	0.045	468530	keystroke_f	f	n/a
234.46	0.059	468920	keystroke_e	e	n/a
234.64	0.045	469280	keystroke_a	a	n/a
234.805	0.075	469610	keystroke_t	t	n/a
234.955	0.089	469910	keystroke_u	u	n/a
235.285	0.06	470570	keystroke_r	r	n/a
235.9895	0.105	471979	keystroke_i	i	n/a
236.2445	0.1055	472489	keystroke_n	n	n/a
236.4545	0.0755	472909	keystroke_g	g	n/a
237.9245	0.12	475849	keystroke_Key.enter	Key.enter	n/a
238.051	9.1755	476102	prompt	n/a	reconstruction animals siemens burke\n
239.0795	0.09	478159	keystroke_r	r	n/a
239.26	0.0745	478520	keystroke_e	e	n/a
239.4695	0.09	478939	keystroke_c	c	n/a
239.59	0.1045	479180	keystroke_o	o	n/a
239.8595	0.0905	479719	keystroke_n	n	n/a
239.9945	0.075	479989	keystroke_s	s	n/a
240.2045	0.1205	480409	keystroke_t	t	n/a
240.3095	0.105	480619	keystroke_r	r	n/a
240.49	0.1195	480980	keystroke_u	u	n/a
240.6245	0.0605	481249	keystroke_c	c	n/a
240.82	0.075	481640	keystroke_t	t	n/a
240.955	0.12	481910	keystroke_i	i	n/a
241.09	0.09	482180	keystroke_o	o	n/a
241.375	0.09	482750	keystroke_n	n	n/a
241.63	0.09	483260	keystroke_Key.space	Key.space	n/a
241.9595	0.0605	483919	keystroke_a	a	n/a
242.065	0.1495	484130	keystroke_n	n	n/a
242.2	0.06	484400	keystroke_i	i	n/a
242.3945	0.09	484789	keystroke_m	m	n/a
242.5445	0.075	485089	keystroke_a	a	n/a
242.665	0.0895	485330	keystroke_l	l	n/a
242.7995	0.06	485599	keystroke_s	s	n/a
242.9345	0.105	485869	keystroke_Key.space	Key.space	n/a
243.0545	0.045	486109	keystroke_s	s	n/a
243.3995	0.0905	486799	keystroke_i	i	n/a
243.5645	0.045	487129	keystroke_e	e	n/a
243.82	0.0895	487640	keystroke_m	m	n/a
244.0745	0.075	488149	keystroke_e	e	n/a
244.2995	0.06	488599	keystroke_s	s	n/a
244.6745	0.06	489349	keystroke_Key.backspace	Key.backspace	n/a
244.8845	0.09	489769	keystroke_n	n	n/a
245.0045	0.06	490009	keystroke_s	s	n/a
245.2295	0.075	490459	keystroke_Key.space	Key.space	n/a
245.649	0.076	491298	keystroke_b	b	n/a
245.785	0.09	491570	keystroke_u	u	n/a
245.9195	0.06	491839	keystroke_r	r	n/a
246.0695	0.105	492139	keystroke_k	k	n/a
246.235	0.0595	492470	keystroke_e	e	n/a
247.1045	0.12	494209	keystroke_Key.enter	Key.enter	n/a
247.2295	5.9365	494459	prompt	n/a	brave ignored marvel gained\n
247.9595	0.045	495919	keystroke_b	b	n/a
248.1095	0.0605	496219	keystroke_r	r	n/a
248.3345	0.06	496669	keystroke_a	a	n/a
248.5295	0.09	497059	keystroke_c	c	n/a
248.6945	0.075	497389	keystroke_e	e	n/a
248.8445	0.12	497689	keystroke_Key.space	Key.space	n/a
249.31	0.104	498620	keystroke_i	i	n/a
249.535	0.059	499070	keystroke_g	g	n/a
249.6695	0.1045	499339	keystroke_n	n	n/a
249.819	0.135	499638	keystroke_o	o	n/a
249.985	0.089	499970	keystroke_r	r	n/a
250.1195	0.0755	500239	keystroke_e	e	n/a
250.314	0.046	500628	keystroke_d	d	n/a
250.419	0.135	500838	keystroke_Key.space	Key.space	n/a
250.569	0.091	501138	keystroke_m	m	n/a
250.705	0.075	501410	keystroke_a	a	n/a
250.885	0.059	501770	keystroke_r	r	n/a
251.139	0.06	502278	keystroke_v	v	n/a
251.319	0.061	502638	keystroke_e	e	n/a
251.439	0.091	502878	keystroke_l	l	n/a
251.604	0.15	503208	keystroke_Key.space	Key.space	n/a
251.725	0.06	503450	keystroke_g	g	n/a
251.935	0.059	503870	keystroke_a	a	n/a
252.01	0.12	504020	keystroke_i	i	n/a
252.115	0.104	504230	keystroke_n	n	n/a
252.25	0.044	504500	keystroke_e	e	n/a
252.4445	0.0605	504889	keystroke_d	d	n/a
253.059	0.105	506118	keystroke_Key.enter	Key.enter	n/a
253.169	9.777	506338	prompt	n/a	nail automatically geological affiliates\n
253.855	0.089	507710	keystroke_n	n	n/a
253.989	0.075	507978	keystroke_a	a	n/a
254.0945	0.0755	508189	keystroke_i	i	n/a
254.334	0.075	508668	keystroke_l	l	n/a
254.485	0.104	508970	keystroke_Key.space	Key.space	n/a
254.619	0.075	509238	keystroke_a	a	n/a
254.739	0.091	509478	keystroke_u	u	n/a
254.95	0.06	509900	keystroke_t	t	n/a
255.04	0.074	510080	keystroke_o	o	n/a
255.19	0.104	510380	keystroke_m	m	n/a
255.744	0.0455	511488	keystroke_a	a	n/a
255.969	0.03	511938	keystroke_t	t	n/a
256.0745	0.0895	512149	keystroke_i	i	n/a
256.225	0.06	512450	keystroke_c	c	n/a
256.404	0.06	512808	keystroke_a	a	n/a
256.51	0.059	513020	keystroke_l	l	n/a
256.644	0.091	513288	keystroke_l	l	n/a
256.764	0.075	513528	keystroke_y	y	n/a
256.974	0.0905	513948	keystroke_Key.space	Key.space	n/a
257.169	0.06	514338	keystroke_g	g	n/a
257.334	0.076	514668	keystroke_e	e	n/a
257.484	0.075	514968	keystroke_o	o	n/a
257.694	0.061	515388	keystroke_l	l	n/a
257.859	0.0905	515718	keystroke_o	o	n/a
258.099	0.045	516198	keystroke_g	g	n/a
258.234	0.105	516468	keystroke_i	i	n/a
258.384	0.046	516768	keystroke_c	c	n/a
258.699	0.0605	517398	keystroke_a	a	n/a
258.864	0.105	517728	keystroke_l	l	n/a
258.9995	0.1045	517999	keystroke_Key.space	Key.space	n/a
259.134	0.0605	518268	keystroke_a	a	n/a
259.3895	0.06	518779	keystroke_f	f	n/a
260.0195	0.075	520039	keystroke_f	f	n/a
260.2745	0.075	520549	keystroke_i	i	n/a
260.649	0.075	521298	keystroke_l	l	n/a
260.8745	0.0745	521749	keystroke_i	i	n/a
261.024	0.0905	522048	keystroke_a	a	n/a
261.294	0.06	522588	keystroke_t	t	n/a
261.714	0.06	523428	keystroke_e	e	n/a
261.924	0.075	523848	keystroke_s	s	n/a
262.8395	0.105	525679	keystroke_Key.enter	Key.enter	n/a
262.949	7.962	525898	prompt	n/a	april reads indigenous eight\n
263.5895	0.06	527179	keystroke_a	a	n/a
263.6945	0.0895	527389	keystroke_p	p	n/a
264.639	0.045	529278	keystroke_r	r	n/a
264.759	0.075	529518	keystroke_i	i	n/a
264.969	0.09	529938	keystroke_l	l	n/a
265.1045	0.12	530209	keystroke_Key.space	Key.space	n/a
265.2095	0.12	530419	keystroke_r	r	n/a
265.3145	0.075	530629	keystroke_e	e	n/a
265.5245	0.045	531049	keystroke_a	a	n/a
266.2445	0.045	532489	keystroke_d	d	n/a
266.5145	0.045	533029	keystroke_s	s	n/a
266.7245	0.09	533449	keystroke_Key.space	Key.space	n/a
266.9045	0.075	533809	keystroke_i	i	n/a
267.2045	0.06	534409	keystroke_n	n	n/a
267.3995	0.06	534799	keystroke_d	d	n/a
267.6245	0.105	535249	keystroke_i	i	n/a
267.834	0.045	535668	keystroke_g	g	n/a
268.0745	0.0595	536149	keystroke_e	e	n/a
268.2245	0.075	536449	keystroke_n	n	n/a
268.6895	0.2245	537379	keystroke_o	o	n/a
268.8995	0.12	537799	keystroke_u	u	n/a
269.0495	0.1045	538099	keystroke_s	s	n/a
269.289	0.1055	538578	keystroke_Key.space	Key.space	n/a
269.6345	0.075	539269	keystroke_e	e	n/a
269.754	0.075	539508	keystroke_i	i	n/a
269.934	0.165	539868	keystroke_g	g	n/a
270.054	0.135	540108	keystroke_h	h	n/a
270.264	0.075	540528	keystroke_t	t	n/a
270.7745	0.1345	541549	keystroke_Key.enter	Key.enter	n/a
270.914	8.202	541828	prompt	n/a	grammar convert laptops newman\n
271.6745	0.1045	543349	keystroke_g	g	n/a
271.809	0.076	543618	keystroke_r	r	n/a
272.0645	0.0745	544129	keystroke_a	a	n/a
272.26	0.059	544520	keystroke_m	m	n/a
272.4245	0.0895	544849	keystroke_m	m	n/a
272.634	0.09	545268	keystroke_a	a	n/a
272.8895	0.0745	545779	keystroke_r	r	n/a
273.069	0.09	546138	keystroke_Key.space	Key.space	n/a
273.1895	0.0895	546379	keystroke_c	c	n/a
273.3245	0.06	546649	keystroke_o	o	n/a
273.519	0.09	547038	keystroke_n	n	n/a
273.5945	0.0745	547189	keystroke_v	v	n/a
273.774	0.135	547548	keystroke_e	e	n/a
273.894	0.1055	547788	keystroke_r	r	n/a
274.134	0.0605	548268	keystroke_t	t	n/a
274.314	0.1055	548628	keystroke_Key.space	Key.space	n/a
274.554	0.105	549108	keystroke_l	l	n/a
274.749	0.075	549498	keystroke_a	a	n/a
274.884	0.105	549768	keystroke_p	p	n/a
275.154	0.06	550308	keystroke_t	t	n/a
275.2895	0.135	550579	keystroke_o	o	n/a
275.3945	0.135	550789	keystroke_p	p	n/a
275.5895	0.06	551179	keystroke_s	s	n/a
275.7995	0.09	551599	keystroke_Key.space	Key.space	n/a
276.0095	0.105	552019	keystroke_n	n	n/a
276.1445	0.075	552289	keystroke_e	e	n/a
276.3545	0.06	552709	keystroke_w	w	n/a
276.5345	0.075	553069	keystroke_m	m	n/a
276.6545	0.075	553309	keystroke_a	a	n/a
276.7895	0.09	553579	keystroke_n	n	n/a
279.0705	0.044	558141	keystroke_Key.enter	Key.enter	n/a
279.1195	7.3615	558239	prompt	n/a	acid earned over roughly\n
279.8795	0.09	559759	keystroke_a	a	n/a
280.1645	0.06	560329	keystroke_c	c	n/a
280.3445	0.075	560689	keystroke_i	i	n/a
280.4795	0.06	560959	keystroke_d	d	n/a
280.7645	0.015	561529	keystroke_Key.space	Key.space	n/a
280.8845	0.075	561769	keystroke_e	e	n/a
281.1395	0.075	562279	keystroke_a	a	n/a
281.4095	0.06	562819	keystroke_r	r	n/a
281.5445	0.0895	563089	keystroke_n	n	n/a
281.709	0.06	563418	keystroke_e	e	n/a
281.9195	0.045	563839	keystroke_d	d	n/a
282.039	0.1355	564078	keystroke_Key.space	Key.space	n/a
282.2195	0.0895	564439	keystroke_o	o	n/a
282.2945	0.0605	564589	keystroke_v	v	n/a
282.474	0.165	564948	keystroke_e	e	n/a
282.5945	0.105	565189	keystroke_r	r	n/a
282.8195	0.1045	565639	keystroke_Key.space	Key.space	n/a
283.18	0.074	566360	keystroke_r	r	n/a
283.284	0.1805	566568	keystroke_o	o	n/a
283.434	0.121	566868	keystroke_u	u	n/a
283.584	0.196	567168	keystroke_g	g	n/a
283.7495	0.1055	567499	keystroke_h	h	n/a
284.0495	0.0595	568099	keystroke_t	t	n/a
284.259	0.105	568518	keystroke_l	l	n/a
284.679	0.06	569358	keystroke_Key.backspace	Key.backspace	n/a
284.7995	0.1045	569599	keystroke_Key.backspace	Key.backspace	n/a
285.024	0.12	570048	keystroke_l	l	n/a
285.204	0.06	570408	keystroke_y	y	n/a
286.3145	0.165	572629	keystroke_Key.enter	Key.enter	n/a
286.484	7.4225	572968	prompt	n/a	fort bank surrey nails\n
287.3495	0.09	574699	keystroke_f	f	n/a
287.485	0.089	574970	keystroke_o	o	n/a
287.589	0.165	575178	keystroke_r	r	n/a
287.769	0.045	575538	keystroke_t	t	n/a
287.919	0.105	575838	keystroke_Key.space	Key.space	n/a
288.055	0.074	576110	keystroke_b	b	n/a
288.339	0.075	576678	keystroke_a	a	n/a
288.444	0.21	576888	keystroke_n	n	n/a
288.594	0.12	577188	keystroke_k	k	n/a
288.699	0.12	577398	keystroke_Key.space	Key.space	n/a
288.834	0.06	577668	keystroke_s	s	n/a
288.984	0.105	577968	keystroke_u	u	n/a
289.149	0.045	578298	keystroke_r	r	n/a
289.269	0.06	578538	keystroke_r	r	n/a
289.4645	0.075	578929	keystroke_e	e	n/a
289.629	0.0905	579258	keystroke_y	y	n/a
289.7945	0.1045	579589	keystroke_Key.space	Key.space	n/a
290.049	0.06	580098	keystroke_n	n	n/a
290.469	0.075	580938	keystroke_a	a	n/a
290.68	0.075	581360	keystroke_i	i	n/a
291.0095	0.0745	582019	keystroke_l	l	n/a
291.219	0.03	582438	keystroke_s	s	n/a
293.831	0.073	587662	keystroke_Key.enter	Key.enter	n/a
293.91	7.5115	587820	prompt	n/a	hire discovered crowd consult\n
294.834	0.135	589668	keystroke_h	h	n/a
295.03	0.0895	590060	keystroke_i	i	n/a
295.1495	0.0745	590299	keystroke_r	r	n/a
295.3445	0.0755	590689	keystroke_e	e	n/a
295.479	0.1055	590958	keystroke_Key.space	Key.space	n/a
295.629	0.09	591258	keystroke_d	d	n/a
295.779	0.0605	591558	keystroke_i	i	n/a
295.974	0.0755	591948	keystroke_s	s	n/a
296.2745	0.0745	592549	keystroke_c	c	n/a
296.424	0.105	592848	keystroke_o	o	n/a
296.5745	0.075	593149	keystroke_v	v	n/a
296.7695	0.105	593539	keystroke_e	e	n/a
296.8595	0.105	593719	keystroke_r	r	n/a
296.9945	0.09	593989	keystroke_e	e	n/a
297.2495	0.06	594499	keystroke_d	d	n/a
297.4295	0.105	594859	keystroke_Key.space	Key.space	n/a
297.5345	0.075	595069	keystroke_c	c	n/a
297.7595	0.06	595519	keystroke_r	r	n/a
297.895	0.0895	595790	keystroke_o	o	n/a
298.135	0.0745	596270	keystroke_w	w	n/a
298.6445	0.045	597289	keystroke_d	d	n/a
298.8995	0.075	597799	keystroke_Key.space	Key.space	n/a
299.0795	0.075	598159	keystroke_c	c	n/a
299.1695	0.075	598339	keystroke_o	o	n/a
299.3645	0.075	598729	keystroke_n	n	n/a
299.5145	0.075	599029	keystroke_s	s	n/a
299.7095	0.06	599419	keystroke_u	u	n/a
299.8745	0.105	599749	keystroke_l	l	n/a
300.2195	0.045	600439	keystroke_t	t	n/a
301.329	0.09	602658	keystroke_Key.enter	Key.enter	n/a
301.424	9.6725	602848	prompt	n/a	recipe trauma released maintain\n
302.1245	0.0605	604249	keystroke_r	r	n/a
302.3045	0.075	604609	keystroke_e	e	n/a
302.5445	0.0905	605089	keystroke_c	c	n/a
302.68	0.1045	605360	keystroke_i	i	n/a
302.8745	0.105	605749	keystroke_p	p	n/a
303.0395	0.075	606079	keystroke_e	e	n/a
303.2045	0.09	606409	keystroke_Key.space	Key.space	n/a
303.3845	0.075	606769	keystroke_t	t	n/a
303.6395	0.06	607279	keystroke_r	r	n/a
303.9845	0.105	607969	keystroke_a	a	n/a
304.195	0.075	608390	keystroke_u	u	n/a
304.4795	0.075	608959	keystroke_m	m	n/a
304.6595	0.045	609319	keystroke_a	a	n/a
304.84	0.075	609680	keystroke_Key.space	Key.space	n/a
305.0795	0.045	610159	keystroke_r	r	n/a
305.2595	0.06	610519	keystroke_e	e	n/a
305.3795	0.09	610759	keystroke_l	l	n/a
305.4845	0.075	610969	keystroke_e	e	n/a
305.6945	0.0595	611389	keystroke_a	a	n/a
305.769	0.075	611538	keystroke_s	s	n/a
305.9945	0.0755	611989	keystroke_e	e	n/a
306.2045	0.0605	612409	keystroke_d	d	n/a
306.3995	0.09	612799	keystroke_Key.space	Key.space	n/a
306.6395	0.0755	613279	keystroke_m	m	n/a
306.76	0.0745	613520	keystroke_a	a	n/a
306.955	0.09	613910	keystroke_i	i	n/a
307.165	0.075	614330	keystroke_n	n	n/a
307.2995	0.06	614599	keystroke_t	t	n/a
307.5545	0.075	615109	keystroke_a	a	n/a
307.6445	0.135	615289	keystroke_i	i	n/a
307.7945	0.075	615589	keystroke_n	n	n/a
311.0215	0.0735	622043	keystroke_Key.enter	Key.enter	n/a
311.0995	10.4365	622199	prompt	n/a	conversion bankruptcy emergency week\n
311.7695	0.09	623539	keystroke_c	c	n/a
311.92	0.0895	623840	keystroke_o	o	n/a
312.16	0.075	624320	keystroke_n	n	n/a
312.2795	0.06	624559	keystroke_v	v	n/a
312.49	0.15	624980	keystroke_e	e	n/a
312.954	0.06	625908	keystroke_r	r	n/a
313.374	0.091	626748	keystroke_s	s	n/a
313.8095	0.0755	627619	keystroke_i	i	n/a
313.944	0.106	627888	keystroke_o	o	n/a
314.229	0.0905	628458	keystroke_n	n	n/a
314.4395	0.09	628879	keystroke_Key.space	Key.space	n/a
314.7845	0.12	629569	keystroke_b	b	n/a
315.0545	0.075	630109	keystroke_a	a	n/a
315.1745	0.165	630349	keystroke_n	n	n/a
315.3545	0.09	630709	keystroke_k	k	n/a
315.94	0.075	631880	keystroke_r	r	n/a
316.225	0.135	632450	keystroke_u	u	n/a
316.525	0.12	633050	keystroke_p	p	n/a
316.989	0.061	633978	keystroke_t	t	n/a
317.4845	0.075	634969	keystroke_i	i	n/a
317.7995	0.12	635599	keystroke_Key.backspace	Key.backspace	n/a
317.8595	0.075	635719	keystroke_c	c	n/a
318.1745	0.075	636349	keystroke_y	y	n/a
318.4595	0.0605	636919	keystroke_Key.space	Key.space	n/a
318.7595	0.075	637519	keystroke_e	e	n/a
318.8945	0.09	637789	keystroke_m	m	n/a
319.045	0.1195	638090	keystroke_e	e	n/a
319.1795	0.09	638359	keystroke_r	r	n/a
319.4495	0.06	638899	keystroke_g	g	n/a
319.6595	0.045	639319	keystroke_e	e	n/a
319.81	0.09	639620	keystroke_n	n	n/a
320.035	0.09	640070	keystroke_c	c	n/a
320.185	0.12	640370	keystroke_y	y	n/a
320.425	0.105	640850	keystroke_Key.space	Key.space	n/a
320.635	0.06	641270	keystroke_w	w	n/a
320.845	0.045	641690	keystroke_e	e	n/a
320.965	0.06	641930	keystroke_e	e	n/a
321.115	0.075	642230	keystroke_k	k	n/a
321.475	0.0595	642950	keystroke_Key.enter	Key.enter	n/a
321.541	11.77	643082	prompt	n/a	develops wayne keeps psychiatry\n
322.2845	0.1055	644569	keystroke_d	d	n/a
322.6295	0.0605	645259	keystroke_e	e	n/a
322.8845	0.0755	645769	keystroke_v	v	n/a
323.065	0.0595	646130	keystroke_e	e	n/a
323.1995	0.09	646399	keystroke_l	l	n/a
323.4695	0.18	646939	keystroke_o	o	n/a
323.6045	0.105	647209	keystroke_p	p	n/a
323.8295	0.09	647659	keystroke_s	s	n/a
324.0995	0.09	648199	keystroke_Key.space	Key.space	n/a
324.2645	0.075	648529	keystroke_w	w	n/a
324.4745	0.075	648949	keystroke_a	a	n/a
324.6095	0.09	649219	keystroke_y	y	n/a
324.9245	0.0905	649849	keystroke_n	n	n/a
325.0745	0.075	650149	keystroke_e	e	n/a
325.3145	0.09	650629	keystroke_Key.space	Key.space	n/a
325.5845	0.09	651169	keystroke_k	k	n/a
325.7045	0.06	651409	keystroke_e	e	n/a
325.8545	0.0595	651709	keystroke_e	e	n/a
326.079	0.075	652158	keystroke_p	p	n/a
327.0095	0.045	654019	keystroke_s	s	n/a
327.2345	0.09	654469	keystroke_Key.space	Key.space	n/a
327.4745	0.06	654949	keystroke_p	p	n/a
327.9245	0.105	655849	keystroke_h	h	n/a
328.4495	0.105	656899	keystroke_Key.backspace	Key.backspace	n/a
328.5995	0.075	657199	keystroke_s	s	n/a
328.7945	0.06	657589	keystroke_y	y	n/a
329.4545	0.09	658909	keystroke_c	c	n/a
329.6495	0.0605	659299	keystroke_h	h	n/a
329.9195	0.075	659839	keystroke_i	i	n/a
330.0995	0.0905	660199	keystroke_a	a	n/a
330.3845	0.0605	660769	keystroke_r	r	n/a
330.61	0.06	661220	keystroke_t	t	n/a
330.9845	0.0605	661969	keystroke_Key.backspace	Key.backspace	n/a
331.119	0.12	662238	keystroke_Key.backspace	Key.backspace	n/a
331.225	0.059	662450	keystroke_t	t	n/a
331.39	0.09	662780	keystroke_r	r	n/a
331.614	0.076	663228	keystroke_y	y	n/a
333.19	0.12	666380	keystroke_Key.enter	Key.enter	n/a
333.3145	7.2265	666629	prompt	n/a	pumps copy interpretation potato\n
333.939	0.105	667878	keystroke_p	p	n/a
334.195	0.089	668390	keystroke_u	u	n/a
334.72	0.089	669440	keystroke_m	m	n/a
334.93	0.09	669860	keystroke_p	p	n/a
335.109	0.0755	670218	keystroke_s	s	n/a
335.6045	0.06	671209	keystroke_Key.space	Key.space	n/a
335.6945	0.09	671389	keystroke_c	c	n/a
335.8895	0.1205	671779	keystroke_o	o	n/a
336.01	0.12	672020	keystroke_p	p	n/a
336.175	0.075	672350	keystroke_y	y	n/a
336.355	0.135	672710	keystroke_Key.space	Key.space	n/a
336.46	0.12	672920	keystroke_i	i	n/a
336.595	0.1045	673190	keystroke_n	n	n/a
336.7295	0.06	673459	keystroke_t	t	n/a
336.9695	0.1655	673939	keystroke_e	e	n/a
337.1045	0.09	674209	keystroke_r	r	n/a
337.315	0.0745	674630	keystroke_p	p	n/a
337.4795	0.105	674959	keystroke_r	r	n/a
337.5695	0.09	675139	keystroke_e	e	n/a
337.7795	0.06	675559	keystroke_t	t	n/a
338.0045	0.0605	676009	keystroke_a	a	n/a
338.2145	0.045	676429	keystroke_t	t	n/a
338.2895	0.12	676579	keystroke_i	i	n/a
338.3945	0.09	676789	keystroke_o	o	n/a
338.6045	0.105	677209	keystroke_n	n	n/a
338.7245	0.1345	677449	keystroke_Key.space	Key.space	n/a
338.935	0.119	677870	keystroke_p	p	n/a
339.115	0.105	678230	keystroke_o	o	n/a
339.37	0.044	678740	keystroke_t	t	n/a
339.61	0.0445	679220	keystroke_a	a	n/a
339.8045	0.06	679609	keystroke_t	t	n/a
339.9695	0.075	679939	keystroke_o	o	n/a
340.4495	0.09	680899	keystroke_Key.enter	Key.enter	n/a
340.544	8.248	681088	prompt	n/a	faces wallace pitch experimental\n
341.1095	0.09	682219	keystroke_f	f	n/a
341.3345	0.075	682669	keystroke_a	a	n/a
341.56	0.06	683120	keystroke_c	c	n/a
341.71	0.075	683420	keystroke_e	e	n/a
341.905	0.059	683810	keystroke_s	s	n/a
342.0395	0.105	684079	keystroke_Key.space	Key.space	n/a
342.1895	0.075	684379	keystroke_w	w	n/a
342.384	0.0755	684768	keystroke_a	a	n/a
342.534	0.075	685068	keystroke_l	l	n/a
342.684	0.106	685368	keystroke_l	l	n/a
343.1495	0.0605	686299	keystroke_a	a	n/a
343.3745	0.075	686749	keystroke_c	c	n/a
343.5995	0.06	687199	keystroke_e	e	n/a
343.7195	0.105	687439	keystroke_Key.space	Key.space	n/a
344.7245	0.09	689449	keystroke_p	p	n/a
344.8755	0.104	689751	keystroke_i	i	n/a
344.9945	0.075	689989	keystroke_t	t	n/a
345.2195	0.09	690439	keystroke_c	c	n/a
345.3395	0.1205	690679	keystroke_h	h	n/a
345.4605	0.1045	690921	keystroke_Key.space	Key.space	n/a
345.5795	0.09	691159	keystroke_e	e	n/a
345.804	0.076	691608	keystroke_x	x	n/a
345.925	0.09	691850	keystroke_p	p	n/a
346.09	0.165	692180	keystroke_e	e	n/a
346.239	0.061	692478	keystroke_r	r	n/a
346.375	0.075	692750	keystroke_i	i	n/a
346.6	0.075	693200	keystroke_m	m	n/a
346.69	0.075	693380	keystroke_e	e	n/a
346.84	0.074	693680	keystroke_n	n	n/a
346.945	0.06	693890	keystroke_t	t	n/a
347.2	0.075	694400	keystroke_a	a	n/a
347.365	0.09	694730	keystroke_l	l	n/a
348.654	0.136	697308	keystroke_Key.enter	Key.enter	n/a
348.795	5.8765	697590	prompt	n/a	electric easier candle application\n
349.45	0.06	698900	keystroke_e	e	n/a
349.5845	0.1055	699169	keystroke_l	l	n/a
349.779	0.075	699558	keystroke_e	e	n/a
350.05	0.059	700100	keystroke_c	c	n/a
350.29	0.135	700580	keystroke_t	t	n/a
350.4095	0.0595	700819	keystroke_r	r	n/a
350.545	0.074	701090	keystroke_i	i	n/a
350.709	0.06	701418	keystroke_c	c	n/a
350.814	0.12	701628	keystroke_Key.space	Key.space	n/a
350.95	0.0595	701900	keystroke_e	e	n/a
351.129	0.1055	702258	keystroke_a	a	n/a
351.219	0.0755	702438	keystroke_s	s	n/a
351.3545	0.075	702709	keystroke_i	i	n/a
351.474	0.1355	702948	keystroke_e	e	n/a
351.5795	0.06	703159	keystroke_r	r	n/a
351.699	0.105	703398	keystroke_Key.space	Key.space	n/a
351.82	0.0595	703640	keystroke_c	c	n/a
352	0.045	704000	keystroke_a	a	n/a
352.089	0.075	704178	keystroke_n	n	n/a
352.209	0.0755	704418	keystroke_d	d	n/a
352.375	0.075	704750	keystroke_l	l	n/a
352.48	0.075	704960	keystroke_e	e	n/a
352.6	0.089	705200	keystroke_Key.space	Key.space	n/a
352.704	0.076	705408	keystroke_a	a	n/a
352.795	0.059	705590	keystroke_p	p	n/a
352.93	0.105	705860	keystroke_p	p	n/a
353.004	0.075	706008	keystroke_l	l	n/a
353.2	0.075	706400	keystroke_i	i	n/a
353.259	0.061	706518	keystroke_c	c	n/a
353.4095	0.0905	706819	keystroke_a	a	n/a
353.605	0.074	707210	keystroke_t	t	n/a
353.695	0.105	707390	keystroke_i	i	n/a
353.784	0.106	707568	keystroke_o	o	n/a
353.979	0.091	707958	keystroke_n	n	n/a
354.595	0.074	709190	keystroke_Key.enter	Key.enter	n/a
354.674	19.677	709348	prompt	n/a	chem moral browsers zimbabwe\n
355.329	0.075	710658	keystroke_c	c	n/a
355.495	0.0895	710990	keystroke_h	h	n/a
355.659	0.075	711318	keystroke_e	e	n/a
355.824	0.076	711648	keystroke_m	m	n/a
356.0645	0.075	712129	keystroke_Key.space	Key.space	n/a
356.3345	0.1055	712669	keystroke_m	m	n/a
356.425	0.089	712850	keystroke_o	o	n/a
356.56	0.045	713120	keystroke_r	r	n/a
356.754	0.0755	713508	keystroke_a	a	n/a
356.8595	0.1195	713719	keystroke_l	l	n/a
356.964	0.12	713928	keystroke_Key.space	Key.space	n/a
357.19	0.075	714380	keystroke_b	b	n/a
357.355	0.075	714710	keystroke_r	r	n/a
357.475	0.075	714950	keystroke_o	o	n/a
357.6095	0.1195	715219	keystroke_w	w	n/a
357.745	0.075	715490	keystroke_e	e	n/a
357.939	0.061	715878	keystroke_r	r	n/a
358.12	0.044	716240	keystroke_s	s	n/a
358.269	0.105	716538	keystroke_Key.space	Key.space	n/a
358.479	0.06	716958	keystroke_z	z	n/a
358.66	0.06	717320	keystroke_i	i	n/a
358.87	0.075	717740	keystroke_m	m	n/a
359.3945	0.06	718789	keystroke_b	b	n/a
359.7395	0.06	719479	keystroke_a	a	n/a
361.5545	0.015	723109	keystroke_b	b	n/a
362.2895	0.045	724579	keystroke_q	q	n/a
363.1745	0.135	726349	keystroke_Key.backspace	Key.backspace	n/a
363.3245	0.105	726649	keystroke_w	w	n/a
363.4445	0.075	726889	keystroke_e	e	n/a
365.469	0.06	730938	keystroke_Key.backspace	Key.backspace	n/a
365.649	0.06	731298	keystroke_Key.backspace	Key.backspace	n/a
365.799	0.075	731598	keystroke_Key.backspace	Key.backspace	n/a
365.949	0.06	731898	keystroke_Key.backspace	Key.backspace	n/a
366.084	0.06	732168	keystroke_Key.backspace	Key.backspace	n/a
366.234	0.06	732468	keystroke_Key.backspace	Key.backspace	n/a
366.369	0.075	732738	keystroke_Key.backspace	Key.backspace	n/a
366.504	0.0755	733008	keystroke_Key.backspace	Key.backspace	n/a
366.6395	0.075	733279	keystroke_Key.backspace	Key.backspace	n/a
366.7895	0.075	733579	keystroke_Key.backspace	Key.backspace	n/a
367.5395	0.075	735079	keystroke_Key.backspace	Key.backspace	n/a
368.0345	0.0745	736069	keystroke_Key.backspace	Key.backspace	n/a
368.334	0.076	736668	keystroke_s	s	n/a
368.559	0.1505	737118	keystroke_e	e	n/a
368.6795	0.09	737359	keystroke_r	r	n/a
369.819	0.06	739638	keystroke_s	s	n/a
369.999	0.09	739998	keystroke_Key.space	Key.space	n/a
370.5845	0.0595	741169	keystroke_i	i	n/a
370.899	0.09	741798	keystroke_Key.backspace	Key.backspace	n/a
371.034	0.075	742068	keystroke_z	z	n/a
371.139	0.076	742278	keystroke_i	i	n/a
371.3345	0.0895	742669	keystroke_m	m	n/a
371.545	0.074	743090	keystroke_b	b	n/a
371.844	0.09	743688	keystroke_a	a	n/a
372.549	0.075	745098	keystroke_b	b	n/a
373.164	0.106	746328	keystroke_w	w	n/a
373.39	0.089	746780	keystroke_e	e	n/a
374.259	0.09	748518	keystroke_Key.enter	Key.enter	n/a
374.354	11.5925	748708	prompt	n/a	depends received contributor child\n
375.295	0.089	750590	keystroke_d	d	n/a
375.549	0.06	751098	keystroke_e	e	n/a
375.6845	0.075	751369	keystroke_p	p	n/a
375.8195	0.075	751639	keystroke_e	e	n/a
376.0445	0.09	752089	keystroke_n	n	n/a
376.1945	0.075	752389	keystroke_d	d	n/a
376.4045	0.06	752809	keystroke_s	s	n/a
376.5545	0.105	753109	keystroke_Key.space	Key.space	n/a
376.9445	0.06	753889	keystroke_r	r	n/a
377.0645	0.0755	754129	keystroke_e	e	n/a
377.2745	0.075	754549	keystroke_c	c	n/a
377.4695	0.06	754939	keystroke_i	i	n/a
377.5595	0.06	755119	keystroke_e	e	n/a
377.7695	0.045	755539	keystroke_v	v	n/a
378.0695	0.075	756139	keystroke_e	e	n/a
378.5795	0.0745	757159	keystroke_Key.backspace	Key.backspace	n/a
378.759	0.0905	757518	keystroke_Key.backspace	Key.backspace	n/a
378.9695	0.09	757939	keystroke_Key.backspace	Key.backspace	n/a
380.0195	0.09	760039	keystroke_Key.backspace	Key.backspace	n/a
380.2895	0.09	760579	keystroke_e	e	n/a
380.4095	0.09	760819	keystroke_i	i	n/a
381.219	0.076	762438	keystroke_v	v	n/a
381.699	0.09	763398	keystroke_e	e	n/a
381.924	0.075	763848	keystroke_d	d	n/a
382.119	0.105	764238	keystroke_Key.space	Key.space	n/a
382.254	0.09	764508	keystroke_c	c	n/a
382.3745	0.09	764749	keystroke_o	o	n/a
382.584	0.1055	765168	keystroke_n	n	n/a
382.704	0.12	765408	keystroke_t	t	n/a
382.8395	0.075	765679	keystroke_r	r	n/a
383.0045	0.06	766009	keystroke_i	i	n/a
383.124	0.09	766248	keystroke_b	b	n/a
383.274	0.0905	766548	keystroke_u	u	n/a
383.439	0.0755	766878	keystroke_t	t	n/a
383.844	0.121	767688	keystroke_o	o	n/a
384.009	0.076	768018	keystroke_r	r	n/a
384.22	0.0895	768440	keystroke_Key.space	Key.space	n/a
384.324	0.091	768648	keystroke_c	c	n/a
384.445	0.105	768890	keystroke_h	h	n/a
384.64	0.09	769280	keystroke_i	i	n/a
384.9395	0.03	769879	keystroke_l	l	n/a
385.2695	0.075	770539	keystroke_d	d	n/a
385.8695	0.075	771739	keystroke_Key.enter	Key.enter	n/a
385.95	12.4915	771900	prompt	n/a	porsche takes triumph amber\n
386.62	0.1345	773240	keystroke_p	p	n/a
386.8145	0.105	773629	keystroke_o	o	n/a
386.9945	0.075	773989	keystroke_r	r	n/a
387.819	0.075	775638	keystroke_a	a	n/a
388.434	0.09	776868	keystroke_Key.backspace	Key.backspace	n/a
388.554	0.0605	777108	keystroke_s	s	n/a
388.719	0.09	777438	keystroke_c	c	n/a
388.854	0.105	777708	keystroke_h	h	n/a
389.0345	0.0745	778069	keystroke_e	e	n/a
389.229	0.0755	778458	keystroke_Key.space	Key.space	n/a
389.394	0.03	778788	keystroke_t	t	n/a
389.604	0.075	779208	keystroke_a	a	n/a
389.769	0.09	779538	keystroke_k	k	n/a
390.624	0.075	781248	keystroke_e	e	n/a
390.9245	0.0895	781849	keystroke_s	s	n/a
391.119	0.09	782238	keystroke_Key.space	Key.space	n/a
391.314	0.0905	782628	keystroke_t	t	n/a
391.434	0.075	782868	keystroke_r	r	n/a
391.584	0.1055	783168	keystroke_u	u	n/a
392.124	0.1055	784248	keystroke_m	m	n/a
392.4545	0.09	784909	keystroke_Key.backspace	Key.backspace	n/a
392.6495	0.12	785299	keystroke_Key.backspace	Key.backspace	n/a
392.8145	0.106	785629	keystroke_i	i	n/a
393.1145	0.09	786229	keystroke_m	m	n/a
393.3395	0.105	786679	keystroke_p	p	n/a
393.8645	0.09	787729	keystroke_Key.backspace	Key.backspace	n/a
394.0445	0.09	788089	keystroke_Key.backspace	Key.backspace	n/a
394.5095	0.0895	789019	keystroke_u	u	n/a
394.8395	0.09	789679	keystroke_m	m	n/a
395.3495	0.075	790699	keystroke_p	p	n/a
395.6195	0.105	791239	keystroke_h	h	n/a
395.8445	0.09	791689	keystroke_Key.space	Key.space	n/a
395.9945	0.06	791989	keystroke_a	a	n/a
396.0845	0.075	792169	keystroke_m	m	n/a
396.3995	0.075	792799	keystroke_b	b	n/a
396.6095	0.15	793219	keystroke_e	e	n/a
396.7445	0.075	793489	keystroke_r	r	n/a
398.3195	0.12	796639	keystroke_Key.enter	Key.enter	n/a
398.444	7.3175	796888	prompt	n/a	apart acid gods youth\n
399.0695	0.09	798139	keystroke_a	a	n/a
399.2045	0.09	798409	keystroke_p	p	n/a
399.3245	0.06	798649	keystroke_a	a	n/a
399.4595	0.0905	798919	keystroke_r	r	n/a
399.6695	0.06	799339	keystroke_t	t	n/a
399.8045	0.135	799609	keystroke_Key.space	Key.space	n/a
399.9545	0.0305	799909	keystroke_a	a	n/a
400.1495	0.09	800299	keystroke_c	c	n/a
400.539	0.09	801078	keystroke_i	i	n/a
400.689	0.09	801378	keystroke_d	d	n/a
400.899	0.0905	801798	keystroke_Key.space	Key.space	n/a
401.094	0.06	802188	keystroke_g	g	n/a
401.229	0.09	802458	keystroke_o	o	n/a
401.4395	0.045	802879	keystroke_s	s	n/a
401.9795	0.09	803959	keystroke_Key.backspace	Key.backspace	n/a
402.0545	0.06	804109	keystroke_d	d	n/a
402.2495	0.075	804499	keystroke_s	s	n/a
402.5495	0.09	805099	keystroke_Key.space	Key.space	n/a
403.735	0.074	807470	keystroke_y	y	n/a
403.855	0.18	807710	keystroke_o	o	n/a
404.02	0.029	808040	keystroke_u	u	n/a
404.079	0.12	808158	keystroke_t	t	n/a
404.215	0.075	808430	keystroke_h	h	n/a
405.6245	0.135	811249	keystroke_Key.enter	Key.enter	n/a
405.7645	7.7665	811529	prompt	n/a	recommendations talked skirt deleted\n
406.4795	0.09	812959	keystroke_r	r	n/a
406.5845	0.0905	813169	keystroke_e	e	n/a
406.795	0.0895	813590	keystroke_c	c	n/a
406.8995	0.06	813799	keystroke_o	o	n/a
407.0795	0.06	814159	keystroke_m	m	n/a
407.244	0.075	814488	keystroke_m	m	n/a
407.4245	0.1045	814849	keystroke_e	e	n/a
407.649	0.0605	815298	keystroke_n	n	n/a
407.799	0.06	815598	keystroke_d	d	n/a
407.994	0.075	815988	keystroke_a	a	n/a
408.219	0.045	816438	keystroke_t	t	n/a
408.294	0.1055	816588	keystroke_i	i	n/a
408.3695	0.105	816739	keystroke_o	o	n/a
408.5945	0.09	817189	keystroke_n	n	n/a
408.7145	0.075	817429	keystroke_s	s	n/a
408.8645	0.09	817729	keystroke_Key.space	Key.space	n/a
408.9695	0.045	817939	keystroke_t	t	n/a
409.1795	0.075	818359	keystroke_a	a	n/a
409.3745	0.15	818749	keystroke_l	l	n/a
409.5095	0.1045	819019	keystroke_k	k	n/a
409.659	0.075	819318	keystroke_e	e	n/a
409.899	0.045	819798	keystroke_d	d	n/a
410.079	0.075	820158	keystroke_Key.space	Key.space	n/a
410.2295	0.0595	820459	keystroke_s	s	n/a
410.3495	0.0745	820699	keystroke_k	k	n/a
410.544	0.09	821088	keystroke_i	i	n/a
410.739	0.151	821478	keystroke_r	r	n/a
410.874	0.09	821748	keystroke_t	t	n/a
411.0845	0.0595	822169	keystroke_Key.space	Key.space	n/a
411.189	0.06	822378	keystroke_d	d	n/a
411.369	0.06	822738	keystroke_e	e	n/a
411.699	0.09	823398	keystroke_l	l	n/a
412.254	0.0755	824508	keystroke_e	e	n/a
412.464	0.045	824928	keystroke_t	t	n/a
412.629	0.0605	825258	keystroke_e	e	n/a
412.824	0.06	825648	keystroke_d	d	n/a
413.4395	0.09	826879	keystroke_Key.enter	Key.enter	n/a
413.534	14.0375	827068	prompt	n/a	royalty toronto movie reunion\n
414.1145	0.105	828229	keystroke_r	r	n/a
414.294	0.1055	828588	keystroke_o	o	n/a
414.4595	0.0595	828919	keystroke_y	y	n/a
414.715	0.059	829430	keystroke_a	a	n/a
414.8345	0.12	829669	keystroke_l	l	n/a
414.985	0.089	829970	keystroke_i	i	n/a
415.134	0.1355	830268	keystroke_t	t	n/a
415.24	0.0895	830480	keystroke_y	y	n/a
415.404	0.09	830808	keystroke_Key.space	Key.space	n/a
415.645	0.059	831290	keystroke_t	t	n/a
415.794	0.1055	831588	keystroke_o	o	n/a
416.379	0.075	832758	keystroke_Key.backspace	Key.backspace	n/a
416.559	0.06	833118	keystroke_Key.backspace	Key.backspace	n/a
416.724	0.06	833448	keystroke_Key.backspace	Key.backspace	n/a
416.8745	0.0895	833749	keystroke_Key.backspace	Key.backspace	n/a
417.6245	0.075	835249	keystroke_Key.backspace	Key.backspace	n/a
417.789	0.09	835578	keystroke_Key.backspace	Key.backspace	n/a
418.314	0.0905	836628	keystroke_y	y	n/a
419.1245	0.105	838249	keystroke_Key.backspace	Key.backspace	n/a
419.3795	0.075	838759	keystroke_t	t	n/a
419.5745	0.06	839149	keystroke_y	y	n/a
420.1295	0.09	840259	keystroke_Key.space	Key.space	n/a
420.3845	0.075	840769	keystroke_r	r	n/a
420.6845	0.105	841369	keystroke_Key.backspace	Key.backspace	n/a
420.8195	0.06	841639	keystroke_t	t	n/a
420.9245	0.09	841849	keystroke_o	o	n/a
421.0595	0.09	842119	keystroke_r	r	n/a
421.2995	0.1045	842599	keystroke_n	n	n/a
421.494	0.091	842988	keystroke_o	o	n/a
422.514	0.075	845028	keystroke_Key.backspace	Key.backspace	n/a
422.694	0.09	845388	keystroke_Key.backspace	Key.backspace	n/a
422.874	0.09	845748	keystroke_Key.backspace	Key.backspace	n/a
423.414	0.091	846828	keystroke_r	r	n/a
423.579	0.09	847158	keystroke_o	o	n/a
423.849	0.09	847698	keystroke_n	n	n/a
424.27	0.059	848540	keystroke_t	t	n/a
424.419	0.09	848838	keystroke_o	o	n/a
424.6445	0.105	849289	keystroke_Key.space	Key.space	n/a
424.734	0.135	849468	keystroke_m	m	n/a
424.854	0.1055	849708	keystroke_o	o	n/a
424.929	0.105	849858	keystroke_v	v	n/a
425.109	0.105	850218	keystroke_i	i	n/a
425.514	0.075	851028	keystroke_e	e	n/a
425.859	0.105	851718	keystroke_Key.space	Key.space	n/a
426.174	0.09	852348	keystroke_r	r	n/a
426.3095	0.0895	852619	keystroke_e	e	n/a
426.549	0.09	853098	keystroke_u	u	n/a
426.7445	0.075	853489	keystroke_n	n	n/a
426.9395	0.12	853879	keystroke_i	i	n/a
427.0295	0.105	854059	keystroke_o	o	n/a
427.1945	0.105	854389	keystroke_n	n	n/a
427.495	0.0745	854990	keystroke_Key.enter	Key.enter	n/a
427.576	10.916	855152	prompt	n/a	scheme import introduce north\n
428.1995	0.075	856399	keystroke_s	s	n/a
428.394	0.076	856788	keystroke_c	c	n/a
428.484	0.106	856968	keystroke_h	h	n/a
428.604	0.06	857208	keystroke_e	e	n/a
428.769	0.09	857538	keystroke_m	m	n/a
428.9195	0.075	857839	keystroke_e	e	n/a
429.0395	0.12	858079	keystroke_Key.space	Key.space	n/a
429.1595	0.075	858319	keystroke_i	i	n/a
429.3395	0.075	858679	keystroke_m	m	n/a
429.4895	0.165	858979	keystroke_p	p	n/a
429.6245	0.12	859249	keystroke_o	o	n/a
429.7595	0.12	859519	keystroke_r	r	n/a
429.8645	0.075	859729	keystroke_t	t	n/a
430.329	0.105	860658	keystroke_Key.space	Key.space	n/a
430.614	0.0605	861228	keystroke_i	i	n/a
430.8095	0.0745	861619	keystroke_n	n	n/a
431.034	0.1205	862068	keystroke_t	t	n/a
431.124	0.105	862248	keystroke_r	r	n/a
431.3335	0.09	862667	keystroke_u	u	n/a
432.024	0.045	864048	keystroke_Key.backspace	Key.backspace	n/a
432.159	0.09	864318	keystroke_Key.backspace	Key.backspace	n/a
432.715	0.075	865430	keystroke_r	r	n/a
432.865	0.119	865730	keystroke_o	o	n/a
433.089	0.0905	866178	keystroke_d	d	n/a
433.315	0.089	866630	keystroke_u	u	n/a
433.4495	0.0745	866899	keystroke_c	c	n/a
433.674	0.061	867348	keystroke_e	e	n/a
433.8845	0.0595	867769	keystroke_Key.space	Key.space	n/a
434.304	0.0755	868608	keystroke_n	n	n/a
434.499	0.09	868998	keystroke_o	o	n/a
434.604	0.06	869208	keystroke_r	r	n/a
434.799	0.15	869598	keystroke_t	t	n/a
434.919	0.12	869838	keystroke_h	h	n/a
438.4315	0.058	876863	keystroke_Key.enter	Key.enter	n/a
438.495	14.0665	876990	prompt	n/a	detail desire mapping ipod\n
439.1945	0.09	878389	keystroke_d	d	n/a
439.36	0.0895	878720	keystroke_e	e	n/a
439.5845	0.045	879169	keystroke_t	t	n/a
439.84	0.06	879680	keystroke_a	a	n/a
440.5745	0.0745	881149	keystroke_i	i	n/a
440.8295	0.09	881659	keystroke_l	l	n/a
441.084	0.106	882168	keystroke_Key.space	Key.space	n/a
441.22	0.074	882440	keystroke_d	d	n/a
441.474	0.046	882948	keystroke_e	e	n/a
441.669	0.0755	883338	keystroke_s	s	n/a
441.8495	0.075	883699	keystroke_i	i	n/a
442.0145	0.06	884029	keystroke_r	r	n/a
442.2545	0.06	884509	keystroke_e	e	n/a
442.4495	0.09	884899	keystroke_Key.space	Key.space	n/a
442.7045	0.09	885409	keystroke_m	m	n/a
442.8395	0.075	885679	keystroke_a	a	n/a
443.1845	0.075	886369	keystroke_p	p	n/a
443.3495	0.105	886699	keystroke_p	p	n/a
443.6045	0.0605	887209	keystroke_i	i	n/a
443.829	0.076	887658	keystroke_n	n	n/a
443.98	0.09	887960	keystroke_g	g	n/a
444.145	0.104	888290	keystroke_Key.space	Key.space	n/a
444.28	0.105	888560	keystroke_i	i	n/a
444.52	0.149	889040	keystroke_p	p	n/a
444.73	0.105	889460	keystroke_o	o	n/a
444.925	0.09	889850	keystroke_d	d	n/a
452.4865	0.073	904973	keystroke_Key.enter	Key.enter	n/a
452.5645	12.192	905129	prompt	n/a	coupon segment lights blair\n
453.415	0.075	906830	keystroke_c	c	n/a
453.625	0.09	907250	keystroke_o	o	n/a
454.555	0.105	909110	keystroke_u	u	n/a
454.93	0.09	909860	keystroke_p	p	n/a
455.11	0.075	910220	keystroke_o	o	n/a
455.455	0.12	910910	keystroke_n	n	n/a
455.845	0.09	911690	keystroke_Key.space	Key.space	n/a
456.025	0.075	912050	keystroke_s	s	n/a
456.28	0.075	912560	keystroke_e	e	n/a
456.5045	0.0605	913009	keystroke_g	g	n/a
456.6845	0.0755	913369	keystroke_m	m	n/a
456.8045	0.075	913609	keystroke_e	e	n/a
456.9695	0.09	913939	keystroke_n	n	n/a
457.1345	0.06	914269	keystroke_t	t	n/a
457.3145	0.105	914629	keystroke_Key.space	Key.space	n/a
457.4945	0.105	914989	keystroke_l	l	n/a
457.6295	0.12	915259	keystroke_i	i	n/a
457.78	0.1495	915560	keystroke_g	g	n/a
457.915	0.0745	915830	keystroke_h	h	n/a
458.1395	0.06	916279	keystroke_t	t	n/a
458.5595	0.075	917119	keystroke_s	s	n/a
458.9795	0.0905	917959	keystroke_Key.space	Key.space	n/a
459.189	0.075	918378	keystroke_b	b	n/a
459.519	0.075	919038	keystroke_l	l	n/a
459.774	0.076	919548	keystroke_a	a	n/a
459.999	0.09	919998	keystroke_i	i	n/a
460.2695	0.06	920539	keystroke_r	r	n/a
464.6665	0.088	929333	keystroke_Key.enter	Key.enter	n/a
464.7595	10.168	929519	prompt	n/a	athletes their only beings\n
465.535	0.09	931070	keystroke_a	a	n/a
465.97	0.15	931940	keystroke_t	t	n/a
466.075	0.105	932150	keystroke_h	h	n/a
466.855	0.12	933710	keystroke_l	l	n/a
467.05	0.075	934100	keystroke_e	e	n/a
467.38	0.075	934760	keystroke_t	t	n/a
467.605	0.075	935210	keystroke_e	e	n/a
467.815	0.06	935630	keystroke_s	s	n/a
467.995	0.075	935990	keystroke_Key.space	Key.space	n/a
468.16	0.09	936320	keystroke_t	t	n/a
468.235	0.06	936470	keystroke_h	h	n/a
468.52	0.06	937040	keystroke_e	e	n/a
468.7	0.075	937400	keystroke_i	i	n/a
468.865	0.06	937730	keystroke_r	r	n/a
469.03	0.1195	938060	keystroke_Key.space	Key.space	n/a
469.1505	0.089	938301	keystroke_o	o	n/a
469.33	0.0745	938660	keystroke_n	n	n/a
469.555	0.1045	939110	keystroke_l	l	n/a
469.705	0.0295	939410	keystroke_y	y	n/a
470.0195	0.09	940039	keystroke_Key.space	Key.space	n/a
470.1545	0.0755	940309	keystroke_b	b	n/a
470.4545	0.0755	940909	keystroke_e	e	n/a
470.8595	0.075	941719	keystroke_i	i	n/a
471.0245	0.0905	942049	keystroke_n	n	n/a
471.13	0.075	942260	keystroke_g	g	n/a
471.445	0.075	942890	keystroke_s	s	n/a
474.836	0.089	949672	keystroke_Key.enter	Key.enter	n/a
474.93	9.6115	949860	prompt	n/a	italia technique source signal\n
476.1095	0.075	952219	keystroke_i	i	n/a
476.2895	0.09	952579	keystroke_t	t	n/a
476.7245	0.09	953449	keystroke_a	a	n/a
476.904	0.135	953808	keystroke_l	l	n/a
477.085	0.104	954170	keystroke_i	i	n/a
477.264	0.091	954528	keystroke_a	a	n/a
477.4295	0.1045	954859	keystroke_Key.space	Key.space	n/a
477.579	0.075	955158	keystroke_t	t	n/a
477.7595	0.0905	955519	keystroke_e	e	n/a
478	0.075	956000	keystroke_c	c	n/a
478.135	0.0895	956270	keystroke_h	h	n/a
478.39	0.0895	956780	keystroke_n	n	n/a
478.5845	0.075	957169	keystroke_i	i	n/a
478.915	0.105	957830	keystroke_q	q	n/a
479.125	0.12	958250	keystroke_u	u	n/a
479.29	0.075	958580	keystroke_e	e	n/a
479.755	0.09	959510	keystroke_Key.space	Key.space	n/a
479.95	0.06	959900	keystroke_s	s	n/a
480.085	0.15	960170	keystroke_o	o	n/a
480.25	0.105	960500	keystroke_u	u	n/a
480.37	0.075	960740	keystroke_r	r	n/a
480.61	0.075	961220	keystroke_c	c	n/a
480.835	0.06	961670	keystroke_e	e	n/a
480.97	0.12	961940	keystroke_Key.space	Key.space	n/a
481.12	0.075	962240	keystroke_s	s	n/a
481.21	0.09	962420	keystroke_i	i	n/a
481.72	0.075	963440	keystroke_g	g	n/a
481.855	0.09	963710	keystroke_n	n	n/a
482.11	0.06	964220	keystroke_a	a	n/a
482.23	0.105	964460	keystroke_l	l	n/a
484.482	0.0575	968964	keystroke_Key.enter	Key.enter	n/a
484.5445	10.962	969089	prompt	n/a	shut dividend alliance browser\n
485.245	0.09	970490	keystroke_s	s	n/a
485.44	0.12	970880	keystroke_h	h	n/a
485.545	0.12	971090	keystroke_u	u	n/a
485.68	0.105	971360	keystroke_t	t	n/a
485.905	0.12	971810	keystroke_Key.space	Key.space	n/a
486.1	0.075	972200	keystroke_d	d	n/a
486.25	0.105	972500	keystroke_i	i	n/a
486.415	0.09	972830	keystroke_v	v	n/a
487.5245	0.09	975049	keystroke_d	d	n/a
488.5295	0.0455	977059	keystroke_Key.backspace	Key.backspace	n/a
488.77	0.09	977540	keystroke_i	i	n/a
488.92	0.075	977840	keystroke_d	d	n/a
489.16	0.075	978320	keystroke_e	e	n/a
489.28	0.105	978560	keystroke_n	n	n/a
489.46	0.09	978920	keystroke_d	d	n/a
489.715	0.12	979430	keystroke_Key.space	Key.space	n/a
489.94	0.0745	979880	keystroke_a	a	n/a
490.1495	0.075	980299	keystroke_l	l	n/a
490.3295	0.075	980659	keystroke_l	l	n/a
490.6745	0.09	981349	keystroke_i	i	n/a
490.915	0.06	981830	keystroke_a	a	n/a
491.0345	0.105	982069	keystroke_n	n	n/a
491.245	0.075	982490	keystroke_c	c	n/a
491.4545	0.075	982909	keystroke_e	e	n/a
491.6645	0.075	983329	keystroke_Key.space	Key.space	n/a
491.7995	0.075	983599	keystroke_b	b	n/a
491.9795	0.045	983959	keystroke_r	r	n/a
492.0695	0.075	984139	keystroke_o	o	n/a
492.205	0.06	984410	keystroke_w	w	n/a
492.4	0.09	984800	keystroke_e	e	n/a
492.64	0.045	985280	keystroke_r	r	n/a
493.1045	0.06	986209	keystroke_Key.backspace	Key.backspace	n/a
493.3	0.075	986600	keystroke_Key.backspace	Key.backspace	n/a
493.5395	0.0755	987079	keystroke_Key.backspace	Key.backspace	n/a
494.6495	0.0455	989299	keystroke_w	w	n/a
494.83	0.074	989660	keystroke_s	s	n/a
495.0395	0.135	990079	keystroke_e	e	n/a
495.159	0.076	990318	keystroke_r	r	n/a
495.429	0.076	990858	keystroke_Key.enter	Key.enter	n/a
495.5095	9.627	991019	prompt	n/a	cloth emphasis many acquire\n
496.135	0.0895	992270	keystroke_c	c	n/a
496.285	0.059	992570	keystroke_l	l	n/a
496.464	0.121	992928	keystroke_o	o	n/a
496.569	0.12	993138	keystroke_t	t	n/a
496.644	0.075	993288	keystroke_h	h	n/a
496.84	0.075	993680	keystroke_Key.space	Key.space	n/a
496.99	0.06	993980	keystroke_e	e	n/a
497.11	0.06	994220	keystroke_m	m	n/a
497.365	0.075	994730	keystroke_p	p	n/a
497.65	0.075	995300	keystroke_h	h	n/a
497.86	0.06	995720	keystroke_a	a	n/a
498.115	0.075	996230	keystroke_s	s	n/a
498.28	0.075	996560	keystroke_i	i	n/a
498.445	0.09	996890	keystroke_s	s	n/a
498.73	0.045	997460	keystroke_Key.space	Key.space	n/a
498.955	0.06	997910	keystroke_m	m	n/a
499.06	0.045	998120	keystroke_a	a	n/a
499.21	0.075	998420	keystroke_n	n	n/a
499.375	0.075	998750	keystroke_y	y	n/a
499.585	0.075	999170	keystroke_Key.space	Key.space	n/a
499.945	0.045	999890	keystroke_s	s	n/a
500.23	0.09	1000460	keystroke_Key.backspace	Key.backspace	n/a
500.275	0.06	1000550	keystroke_a	a	n/a
500.8	0.0755	1001600	keystroke_c	c	n/a
501.445	0.12	1002890	keystroke_q	q	n/a
502.3595	0.06	1004719	keystroke_y	y	n/a
502.765	0.1045	1005530	keystroke_Key.backspace	Key.backspace	n/a
503.065	0.1795	1006130	keystroke_u	u	n/a
503.1845	0.12	1006369	keystroke_i	i	n/a
503.3345	0.06	1006669	keystroke_r	r	n/a
503.5595	0.075	1007119	keystroke_e	e	n/a
504.9545	0.18	1009909	keystroke_Key.enter	Key.enter	n/a
505.1395	11.262	1010279	prompt	n/a	rounds soup helen market\n
505.915	0.1045	1011830	keystroke_r	r	n/a
506.11	0.1495	1012220	keystroke_i	i	n/a
506.47	0.12	1012940	keystroke_y	y	n/a
506.965	0.06	1013930	keystroke_Key.backspace	Key.backspace	n/a
507.1	0.12	1014200	keystroke_Key.backspace	Key.backspace	n/a
507.19	0.105	1014380	keystroke_o	o	n/a
507.475	0.09	1014950	keystroke_u	u	n/a
507.745	0.09	1015490	keystroke_n	n	n/a
507.865	0.06	1015730	keystroke_d	d	n/a
508.09	0.06	1016180	keystroke_s	s	n/a
508.375	0.09	1016750	keystroke_Key.space	Key.space	n/a
508.63	0.105	1017260	keystroke_s	s	n/a
509.425	0.12	1018850	keystroke_o	o	n/a
509.65	0.075	1019300	keystroke_u	u	n/a
509.935	0.06	1019870	keystroke_p	p	n/a
510.25	0.075	1020500	keystroke_Key.space	Key.space	n/a
510.43	0.09	1020860	keystroke_h	h	n/a
510.61	0.075	1021220	keystroke_e	e	n/a
510.775	0.075	1021550	keystroke_l	l	n/a
510.94	0.09	1021880	keystroke_e	e	n/a
511.15	0.045	1022300	keystroke_m	m	n/a
511.48	0.045	1022960	keystroke_Key.backspace	Key.backspace	n/a
511.705	0.09	1023410	keystroke_n	n	n/a
512.425	0.105	1024850	keystroke_Key.space	Key.space	n/a
512.605	0.075	1025210	keystroke_m	m	n/a
512.785	0.105	1025570	keystroke_a	a	n/a
513.115	0.09	1026230	keystroke_r	r	n/a
513.31	0.075	1026620	keystroke_k	k	n/a
513.625	0.09	1027250	keystroke_e	e	n/a
513.865	0.075	1027730	keystroke_t	t	n/a
516.3565	0.043	1032713	keystroke_Key.enter	Key.enter	n/a
516.404	11.337	1032808	prompt	n/a	fridge interview greenhouse saver\n
517.1795	0.075	1034359	keystroke_d	d	n/a
518.0345	0.105	1036069	keystroke_Key.backspace	Key.backspace	n/a
518.1695	0.0905	1036339	keystroke_f	f	n/a
518.32	0.0895	1036640	keystroke_r	r	n/a
518.5295	0.075	1037059	keystroke_i	i	n/a
518.68	0.075	1037360	keystroke_d	d	n/a
518.89	0.06	1037780	keystroke_g	g	n/a
519.115	0.045	1038230	keystroke_e	e	n/a
519.43	0.09	1038860	keystroke_Key.space	Key.space	n/a
519.58	0.075	1039160	keystroke_i	i	n/a
519.715	0.105	1039430	keystroke_n	n	n/a
519.835	0.045	1039670	keystroke_t	t	n/a
519.955	0.105	1039910	keystroke_e	e	n/a
520.015	0.075	1040030	keystroke_r	r	n/a
520.24	0.105	1040480	keystroke_v	v	n/a
520.405	0.075	1040810	keystroke_i	i	n/a
520.525	0.075	1041050	keystroke_e	e	n/a
520.765	0.06	1041530	keystroke_w	w	n/a
521.589	0.105	1043178	keystroke_Key.space	Key.space	n/a
521.9795	0.0745	1043959	keystroke_g	g	n/a
522.114	0.0755	1044228	keystroke_r	r	n/a
522.3245	0.06	1044649	keystroke_e	e	n/a
522.504	0.0455	1045008	keystroke_e	e	n/a
522.775	0.075	1045550	keystroke_n	n	n/a
523.33	0.09	1046660	keystroke_h	h	n/a
523.495	0.15	1046990	keystroke_o	o	n/a
523.615	0.075	1047230	keystroke_u	u	n/a
523.72	0.075	1047440	keystroke_s	s	n/a
523.96	0.06	1047920	keystroke_e	e	n/a
524.125	0.075	1048250	keystroke_Key.space	Key.space	n/a
524.215	0.045	1048430	keystroke_s	s	n/a
524.38	0.045	1048760	keystroke_a	a	n/a
524.605	0.06	1049210	keystroke_v	v	n/a
524.77	0.12	1049540	keystroke_e	e	n/a
524.875	0.075	1049750	keystroke_r	r	n/a
527.637	0.102	1055274	keystroke_Key.enter	Key.enter	n/a
527.744	7.1225	1055488	prompt	n/a	jackie attacks indoor peer\n
528.7595	0.0905	1057519	keystroke_j	j	n/a
528.8345	0.09	1057669	keystroke_a	a	n/a
529.0295	0.0905	1058059	keystroke_c	c	n/a
529.1495	0.0755	1058299	keystroke_k	k	n/a
529.3445	0.0905	1058689	keystroke_i	i	n/a
529.5095	0.075	1059019	keystroke_e	e	n/a
529.6295	0.105	1059259	keystroke_Key.space	Key.space	n/a
529.7645	0.045	1059529	keystroke_a	a	n/a
529.9595	0.03	1059919	keystroke_t	t	n/a
530.0645	0.06	1060129	keystroke_t	t	n/a
530.3045	0.06	1060609	keystroke_a	a	n/a
530.5295	0.075	1061059	keystroke_c	c	n/a
530.7995	0.0605	1061599	keystroke_k	k	n/a
531.099	0.06	1062198	keystroke_s	s	n/a
531.279	0.15	1062558	keystroke_Key.space	Key.space	n/a
531.4445	0.0605	1062889	keystroke_i	i	n/a
531.58	0.104	1063160	keystroke_n	n	n/a
531.775	0.074	1063550	keystroke_d	d	n/a
531.925	0.06	1063850	keystroke_o	o	n/a
532.06	0.09	1064120	keystroke_o	o	n/a
532.24	0.06	1064480	keystroke_r	r	n/a
532.435	0.075	1064870	keystroke_Key.space	Key.space	n/a
532.615	0.06	1065230	keystroke_p	p	n/a
532.885	0.075	1065770	keystroke_e	e	n/a
533.08	0.075	1066160	keystroke_e	e	n/a
533.305	0.06	1066610	keystroke_r	r	n/a
534.775	0.09	1069550	keystroke_Key.enter	Key.enter	n/a
534.871	9.085	1069742	prompt	n/a	long nerve womens benchmark\n
535.5855	0.0895	1071171	keystroke_l	l	n/a
535.795	0.06	1071590	keystroke_o	o	n/a
536.005	0.075	1072010	keystroke_n	n	n/a
536.14	0.075	1072280	keystroke_g	g	n/a
536.32	0.12	1072640	keystroke_Key.space	Key.space	n/a
536.4695	0.105	1072939	keystroke_n	n	n/a
536.6045	0.165	1073209	keystroke_e	e	n/a
536.7705	0.059	1073541	keystroke_r	r	n/a
537.0395	0.06	1074079	keystroke_v	v	n/a
537.2495	0.075	1074499	keystroke_e	e	n/a
537.4745	0.06	1074949	keystroke_Key.space	Key.space	n/a
537.5945	0.075	1075189	keystroke_w	w	n/a
537.7755	0.0885	1075551	keystroke_o	o	n/a
537.9845	0.075	1075969	keystroke_m	m	n/a
538.134	0.075	1076268	keystroke_e	e	n/a
538.27	0.105	1076540	keystroke_n	n	n/a
538.63	0.075	1077260	keystroke_s	s	n/a
538.884	0.09	1077768	keystroke_Key.space	Key.space	n/a
539.409	0.046	1078818	keystroke_b	b	n/a
539.605	0.075	1079210	keystroke_r	r	n/a
539.83	0.075	1079660	keystroke_e	e	n/a
540.235	0.06	1080470	keystroke_Key.backspace	Key.backspace	n/a
540.355	0.105	1080710	keystroke_Key.backspace	Key.backspace	n/a
540.4895	0.075	1080979	keystroke_e	e	n/a
540.6695	0.09	1081339	keystroke_n	n	n/a
540.9245	0.075	1081849	keystroke_c	c	n/a
541.1345	0.075	1082269	keystroke_h	h	n/a
541.4945	0.06	1082989	keystroke_m	m	n/a
541.57	0.0895	1083140	keystroke_a	a	n/a
541.825	0.06	1083650	keystroke_r	r	n/a
541.975	0.075	1083950	keystroke_k	k	n/a
543.834	0.12	1087668	keystroke_Key.enter	Key.enter	n/a
543.96	11.2165	1087920	prompt	n/a	hold recommendations financing not\n
544.795	0.0895	1089590	keystroke_h	h	n/a
544.9295	0.0755	1089859	keystroke_o	o	n/a
545.1545	0.06	1090309	keystroke_l	l	n/a
545.2745	0.075	1090549	keystroke_d	d	n/a
545.4095	0.1205	1090819	keystroke_Key.space	Key.space	n/a
545.5145	0.075	1091029	keystroke_r	r	n/a
545.665	0.0745	1091330	keystroke_e	e	n/a
545.8445	0.0905	1091689	keystroke_c	c	n/a
545.92	0.06	1091840	keystroke_o	o	n/a
546.1	0.06	1092200	keystroke_m	m	n/a
546.235	0.09	1092470	keystroke_m	m	n/a
546.355	0.09	1092710	keystroke_e	e	n/a
546.52	0.075	1093040	keystroke_n	n	n/a
546.61	0.06	1093220	keystroke_d	d	n/a
546.805	0.06	1093610	keystroke_a	a	n/a
547	0.059	1094000	keystroke_t	t	n/a
547.12	0.089	1094240	keystroke_i	i	n/a
547.5245	0.09	1095049	keystroke_o	o	n/a
547.7645	0.075	1095529	keystroke_n	n	n/a
547.9145	0.075	1095829	keystroke_s	s	n/a
548.1695	0.09	1096339	keystroke_Key.space	Key.space	n/a
548.3945	0.06	1096789	keystroke_f	f	n/a
548.5295	0.075	1097059	keystroke_i	i	n/a
548.7995	0.12	1097599	keystroke_n	n	n/a
550.18	0.074	1100360	keystroke_a	a	n/a
550.404	0.135	1100808	keystroke_n	n	n/a
550.885	0.06	1101770	keystroke_c	c	n/a
551.0645	0.0755	1102129	keystroke_i	i	n/a
551.214	0.105	1102428	keystroke_n	n	n/a
551.409	0.0455	1102818	keystroke_g	g	n/a
551.6495	0.105	1103299	keystroke_Key.space	Key.space	n/a
552.5195	0.195	1105039	keystroke_n	n	n/a
552.6395	0.165	1105279	keystroke_o	o	n/a
552.835	0.0595	1105670	keystroke_t	t	n/a
555.087	0.0875	1110174	keystroke_Key.enter	Key.enter	n/a
555.179	11.862	1110358	prompt	n/a	parameter checking honolulu brief\n
555.834	0.105	1111668	keystroke_p	p	n/a
556.135	0.0745	1112270	keystroke_a	a	n/a
556.4795	0.06	1112959	keystroke_r	r	n/a
556.8245	0.09	1113649	keystroke_a	a	n/a
557.079	0.09	1114158	keystroke_m	m	n/a
557.214	0.0755	1114428	keystroke_e	e	n/a
557.4245	0.06	1114849	keystroke_t	t	n/a
557.6045	0.12	1115209	keystroke_e	e	n/a
557.6945	0.0755	1115389	keystroke_r	r	n/a
557.83	0.1045	1115660	keystroke_Key.space	Key.space	n/a
557.919	0.09	1115838	keystroke_c	c	n/a
558.039	0.09	1116078	keystroke_h	h	n/a
558.159	0.0605	1116318	keystroke_e	e	n/a
558.294	0.09	1116588	keystroke_c	c	n/a
558.399	0.075	1116798	keystroke_k	k	n/a
558.579	0.135	1117158	keystroke_i	i	n/a
558.699	0.105	1117398	keystroke_n	n	n/a
558.8495	0.0745	1117699	keystroke_g	g	n/a
559.044	0.0905	1118088	keystroke_Key.space	Key.space	n/a
559.4495	0.06	1118899	keystroke_n	n	n/a
559.6895	0.06	1119379	keystroke_o	o	n/a
559.9895	0.06	1119979	keystroke_Key.backspace	Key.backspace	n/a
560.1095	0.075	1120219	keystroke_Key.backspace	Key.backspace	n/a
560.2745	0.09	1120549	keystroke_k	k	n/a
560.8745	0.075	1121749	keystroke_Key.backspace	Key.backspace	n/a
561.0845	0.075	1122169	keystroke_h	h	n/a
561.3845	0.075	1122769	keystroke_o	o	n/a
561.5795	0.105	1123159	keystroke_n	n	n/a
561.82	0.0745	1123640	keystroke_o	o	n/a
562.0745	0.09	1124149	keystroke_l	l	n/a
562.329	0.06	1124658	keystroke_u	u	n/a
562.479	0.15	1124958	keystroke_l	l	n/a
562.6445	0.1045	1125289	keystroke_u	u	n/a
563.124	0.06	1126248	keystroke_Key.space	Key.space	n/a
563.334	0.12	1126668	keystroke_b	b	n/a
563.9345	0.0895	1127869	keystroke_r	r	n/a
564.549	0.09	1129098	keystroke_i	i	n/a
564.684	0.0755	1129368	keystroke_e	e	n/a
564.894	0.06	1129788	keystroke_f	f	n/a
566.9045	0.135	1133809	keystroke_Key.enter	Key.enter	n/a
567.044	22.962	1134088	prompt	n/a	deutschland strategies findarticles brave\n
567.894	0.075	1135788	keystroke_d	d	n/a
568.089	0.075	1136178	keystroke_e	e	n/a
568.3	0.075	1136600	keystroke_s	s	n/a
569.3195	0.075	1138639	keystroke_Key.backspace	Key.backspace	n/a
569.5595	0.09	1139119	keystroke_u	u	n/a
570.5345	0.045	1141069	keystroke_t	t	n/a
571.2545	0.075	1142509	keystroke_s	s	n/a
571.5845	0.09	1143169	keystroke_c	c	n/a
571.7345	0.09	1143469	keystroke_h	h	n/a
572.0795	0.09	1144159	keystroke_l	l	n/a
572.2145	0.06	1144429	keystroke_a	a	n/a
572.4095	0.075	1144819	keystroke_n	n	n/a
572.6195	0.06	1145239	keystroke_d	d	n/a
572.9345	0.075	1145869	keystroke_Key.space	Key.space	n/a
573.204	0.075	1146408	keystroke_s	s	n/a
573.414	0.12	1146828	keystroke_t	t	n/a
573.549	0.075	1147098	keystroke_r	r	n/a
575.545	0.06	1151090	keystroke_a	a	n/a
576.3845	0.0745	1152769	keystroke_t	t	n/a
576.595	0.074	1153190	keystroke_e	e	n/a
576.774	0.075	1153548	keystroke_g	g	n/a
577.059	0.15	1154118	keystroke_i	i	n/a
577.1945	0.0895	1154389	keystroke_e	e	n/a
577.4345	0.0745	1154869	keystroke_s	s	n/a
577.584	0.09	1155168	keystroke_Key.space	Key.space	n/a
577.809	0.075	1155618	keystroke_f	f	n/a
577.974	0.075	1155948	keystroke_i	i	n/a
578.229	0.09	1156458	keystroke_n	n	n/a
578.65	0.059	1157300	keystroke_a	a	n/a
578.904	0.0605	1157808	keystroke_r	r	n/a
579.099	0.06	1158198	keystroke_t	t	n/a
579.234	0.09	1158468	keystroke_i	i	n/a
579.369	0.0755	1158738	keystroke_c	c	n/a
579.504	0.105	1159008	keystroke_l	l	n/a
579.639	0.0755	1159278	keystroke_e	e	n/a
579.849	0.06	1159698	keystroke_s	s	n/a
580.9295	0.06	1161859	keystroke_Key.backspace	Key.backspace	n/a
581.1095	0.075	1162219	keystroke_Key.backspace	Key.backspace	n/a
581.2895	0.06	1162579	keystroke_Key.backspace	Key.backspace	n/a
581.454	0.06	1162908	keystroke_Key.backspace	Key.backspace	n/a
581.6195	0.075	1163239	keystroke_Key.backspace	Key.backspace	n/a
581.814	0.075	1163628	keystroke_Key.backspace	Key.backspace	n/a
582.0995	0.105	1164199	keystroke_Key.backspace	Key.backspace	n/a
582.4295	0.075	1164859	keystroke_Key.backspace	Key.backspace	n/a
582.6245	0.06	1165249	keystroke_d	d	n/a
583.404	0.075	1166808	keystroke_a	a	n/a
583.689	0.0305	1167378	keystroke_r	r	n/a
583.869	0.06	1167738	keystroke_t	t	n/a
584.004	0.075	1168008	keystroke_i	i	n/a
584.139	0.061	1168278	keystroke_c	c	n/a
584.8	0.089	1169600	keystroke_l	l	n/a
584.9045	0.0895	1169809	keystroke_e	e	n/a
585.129	0.06	1170258	keystroke_s	s	n/a
585.309	0.105	1170618	keystroke_Key.space	Key.space	n/a
585.595	0.0595	1171190	keystroke_b	b	n/a
585.7445	0.075	1171489	keystroke_r	r	n/a
585.9695	0.06	1171939	keystroke_a	a	n/a
586.6745	0.06	1173349	keystroke_c	c	n/a
586.9135	0.075	1173827	keystroke_e	e	n/a
588.264	0.045	1176528	keystroke_Key.backspace	Key.backspace	n/a
588.414	0.0905	1176828	keystroke_Key.backspace	Key.backspace	n/a
588.7445	0.12	1177489	keystroke_v	v	n/a
589.1945	0.075	1178389	keystroke_e	e	n/a
589.884	0.12	1179768	keystroke_Key.enter	Key.enter	n/a
590.009	11.802	1180018	prompt	n/a	suggests would've manufacturer combining\n
590.739	0.09	1181478	keystroke_s	s	n/a
590.919	0.0905	1181838	keystroke_u	u	n/a
591.084	0.06	1182168	keystroke_g	g	n/a
591.219	0.06	1182438	keystroke_g	g	n/a
591.399	0.06	1182798	keystroke_e	e	n/a
591.579	0.06	1183158	keystroke_s	s	n/a
591.834	0.0605	1183668	keystroke_t	t	n/a
592.0445	0.045	1184089	keystroke_s	s	n/a
592.1945	0.12	1184389	keystroke_Key.space	Key.space	n/a
592.3595	0.06	1184719	keystroke_w	w	n/a
592.4645	0.12	1184929	keystroke_o	o	n/a
592.5845	0.09	1185169	keystroke_u	u	n/a
592.7945	0.075	1185589	keystroke_l	l	n/a
592.9295	0.09	1185859	keystroke_d	d	n/a
593.1095	0.075	1186219	keystroke_'	'	n/a
593.2595	0.075	1186519	keystroke_v	v	n/a
593.4695	0.075	1186939	keystroke_e	e	n/a
593.7545	0.09	1187509	keystroke_Key.space	Key.space	n/a
594.0695	0.105	1188139	keystroke_m	m	n/a
594.2045	0.075	1188409	keystroke_a	a	n/a
594.3245	0.09	1188649	keystroke_n	n	n/a
594.5795	0.09	1189159	keystroke_u	u	n/a
594.8795	0.045	1189759	keystroke_f	f	n/a
595.1195	0.06	1190239	keystroke_a	a	n/a
595.3145	0.075	1190629	keystroke_c	c	n/a
595.5695	0.06	1191139	keystroke_t	t	n/a
595.7495	0.105	1191499	keystroke_u	u	n/a
596.2445	0.06	1192489	keystroke_r	r	n/a
596.4245	0.135	1192849	keystroke_e	e	n/a
596.6045	0.105	1193209	keystroke_r	r	n/a
597.3535	0.121	1194707	keystroke_Key.space	Key.space	n/a
597.6545	0.075	1195309	keystroke_c	c	n/a
597.8345	0.09	1195669	keystroke_o	o	n/a
598.1045	0.09	1196209	keystroke_m	m	n/a
598.4045	0.06	1196809	keystroke_b	b	n/a
598.5995	0.075	1197199	keystroke_i	i	n/a
598.7945	0.105	1197589	keystroke_n	n	n/a
600.2945	0.135	1200589	keystroke_i	i	n/a
600.4295	0.105	1200859	keystroke_n	n	n/a
600.5495	0.06	1201099	keystroke_g	g	n/a
601.7045	0.105	1203409	keystroke_Key.enter	Key.enter	n/a
601.814	8.2025	1203628	prompt	n/a	spread divided murder wrist\n
602.5295	0.0595	1205059	keystroke_s	s	n/a
602.7245	0.105	1205449	keystroke_p	p	n/a
602.889	0.12	1205778	keystroke_r	r	n/a
602.979	0.075	1205958	keystroke_e	e	n/a
603.204	0.075	1206408	keystroke_a	a	n/a
603.444	0.0755	1206888	keystroke_d	d	n/a
603.609	0.09	1207218	keystroke_Key.space	Key.space	n/a
603.804	0.0755	1207608	keystroke_d	d	n/a
603.969	0.0905	1207938	keystroke_i	i	n/a
604.1195	0.09	1208239	keystroke_v	v	n/a
604.2845	0.0595	1208569	keystroke_i	i	n/a
605.484	0.06	1210968	keystroke_d	d	n/a
605.829	0.046	1211658	keystroke_e	e	n/a
606.009	0.045	1212018	keystroke_d	d	n/a
606.204	0.09	1212408	keystroke_Key.space	Key.space	n/a
606.519	0.075	1213038	keystroke_m	m	n/a
606.714	0.105	1213428	keystroke_u	u	n/a
606.834	0.045	1213668	keystroke_r	r	n/a
607.014	0.06	1214028	keystroke_d	d	n/a
607.194	0.1805	1214388	keystroke_e	e	n/a
607.3595	0.09	1214719	keystroke_r	r	n/a
607.6445	0.09	1215289	keystroke_Key.space	Key.space	n/a
607.9595	0.09	1215919	keystroke_w	w	n/a
608.1845	0.045	1216369	keystroke_r	r	n/a
608.2895	0.075	1216579	keystroke_i	i	n/a
608.4095	0.09	1216819	keystroke_s	s	n/a
609.0545	0.105	1218109	keystroke_t	t	n/a
609.8795	0.135	1219759	keystroke_Key.enter	Key.enter	n/a
610.019	9.5975	1220038	prompt	n/a	pulse eyed out internship\n
611.5595	0.09	1223119	keystroke_p	p	n/a
611.8595	0.06	1223719	keystroke_u	u	n/a
612.13	0.0745	1224260	keystroke_l	l	n/a
612.5345	0.09	1225069	keystroke_s	s	n/a
612.8495	0.06	1225699	keystroke_e	e	n/a
613.0295	0.105	1226059	keystroke_Key.space	Key.space	n/a
613.2245	0.06	1226449	keystroke_e	e	n/a
613.4495	0.135	1226899	keystroke_y	y	n/a
613.5995	0.09	1227199	keystroke_e	e	n/a
613.8695	0.075	1227739	keystroke_d	d	n/a
614.35	0.104	1228700	keystroke_Key.space	Key.space	n/a
614.485	0.194	1228970	keystroke_o	o	n/a
614.65	0.089	1229300	keystroke_u	u	n/a
614.784	0.075	1229568	keystroke_t	t	n/a
615.039	0.03	1230078	keystroke_Key.space	Key.space	n/a
615.054	0.1055	1230108	keystroke_i	i	n/a
615.204	0.121	1230408	keystroke_n	n	n/a
615.355	0.045	1230710	keystroke_t	t	n/a
615.5045	0.21	1231009	keystroke_e	e	n/a
615.6695	0.1055	1231339	keystroke_r	r	n/a
615.8495	0.105	1231699	keystroke_n	n	n/a
616.0595	0.075	1232119	keystroke_s	s	n/a
616.3295	0.045	1232659	keystroke_h	h	n/a
616.45	0.1645	1232900	keystroke_i	i	n/a
616.63	0.1045	1233260	keystroke_p	p	n/a
619.5715	0.043	1239143	keystroke_Key.enter	Key.enter	n/a
619.619	6.1175	1239238	prompt	n/a	spoke charger grill hate\n
620.275	0.1045	1240550	keystroke_s	s	n/a
620.5595	0.15	1241119	keystroke_p	p	n/a
620.6945	0.075	1241389	keystroke_o	o	n/a
620.9195	0.075	1241839	keystroke_k	k	n/a
621.1295	0.0905	1242259	keystroke_e	e	n/a
621.6995	0.105	1243399	keystroke_Key.space	Key.space	n/a
621.8795	0.045	1243759	keystroke_c	c	n/a
622.0145	0.075	1244029	keystroke_h	h	n/a
622.1495	0.06	1244299	keystroke_a	a	n/a
622.3445	0.075	1244689	keystroke_r	r	n/a
622.5695	0.06	1245139	keystroke_g	g	n/a
622.7495	0.135	1245499	keystroke_e	e	n/a
622.8695	0.09	1245739	keystroke_r	r	n/a
623.0495	0.135	1246099	keystroke_Key.space	Key.space	n/a
623.1695	0.09	1246339	keystroke_g	g	n/a
623.2895	0.09	1246579	keystroke_r	r	n/a
623.4245	0.075	1246849	keystroke_i	i	n/a
623.6795	0.03	1247359	keystroke_l	l	n/a
623.8145	0.09	1247629	keystroke_l	l	n/a
624.0695	0.15	1248139	keystroke_Key.space	Key.space	n/a
624.1895	0.12	1248379	keystroke_h	h	n/a
624.3245	0.075	1248649	keystroke_a	a	n/a
624.5495	0.06	1249099	keystroke_t	t	n/a
624.6995	0.075	1249399	keystroke_e	e	n/a
625.5845	0.15	1251169	keystroke_Key.enter	Key.enter	n/a
625.7395	9.7315	1251479	prompt	n/a	spas keep replacement chairman\n
