onset	duration	sample	value	key	prompt_text
5.3695	21.067	10739	prompt	n/a	the quick brown fox jumps over a lazy dog\n
8.57	0.0575	17140	keystroke_t	t	n/a
8.6425	0.076	17285	keystroke_h	h	n/a
8.8375	0.1205	17675	keystroke_e	e	n/a
9.0025	0.1505	18005	keystroke_Key.space	Key.space	n/a
9.453	0.15	18906	keystroke_q	q	n/a
10.713	0.1045	21426	keystroke_u	u	n/a
10.953	0.09	21906	keystroke_i	i	n/a
11.1625	0.1355	22325	keystroke_c	c	n/a
11.492	0.136	22984	keystroke_k	k	n/a
11.8525	0.165	23705	keystroke_Key.space	Key.space	n/a
12.2275	0.105	24455	keystroke_b	b	n/a
12.4975	0.15	24995	keystroke_r	r	n/a
13.473	0.12	26946	keystroke_o	o	n/a
13.6225	0.1495	27245	keystroke_w	w	n/a
15.078	0.2095	30156	keystroke_n	n	n/a
15.2725	0.1495	30545	keystroke_Key.space	Key.space	n/a
15.4825	0.09	30965	keystroke_f	f	n/a
15.587	0.0905	31174	keystroke_o	o	n/a
15.828	0.165	31656	keystroke_x	x	n/a
16.2475	0.165	32495	keystroke_Key.space	Key.space	n/a
16.458	0.0895	32916	keystroke_j	j	n/a
17.4335	0.074	34867	keystroke_u	u	n/a
18.4375	0.06	36875	keystroke_m	m	n/a
18.872	0.151	37744	keystroke_p	p	n/a
19.203	0.165	38406	keystroke_s	s	n/a
19.353	0.135	38706	keystroke_Key.space	Key.space	n/a
19.533	0.1495	39066	keystroke_o	o	n/a
20.268	0.165	40536	keystroke_v	v	n/a
20.6125	0.1955	41225	keystroke_e	e	n/a
20.868	0.1345	41736	keystroke_r	r	n/a
21.033	0.1345	42066	keystroke_Key.space	Key.space	n/a
21.198	0.18	42396	keystroke_a	a	n/a
21.303	0.12	42606	keystroke_Key.space	Key.space	n/a
21.497	0.1805	42994	keystroke_l	l	n/a
21.603	0.1045	43206	keystroke_a	a	n/a
22.053	0.0745	44106	keystroke_y	y	n/a
23.223	0.0895	46446	keystroke_Key.backspace	Key.backspace	n/a
23.4635	0.104	46927	keystroke_a	a	n/a
24.588	0.09	49176	keystroke_Key.backspace	Key.backspace	n/a
24.8135	0.1495	49627	keystroke_z	z	n/a
25.173	0.105	50346	keystroke_y	y	n/a
25.458	0.1195	50916	keystroke_Key.space	Key.space	n/a
25.683	0.194	51366	keystroke_d	d	n/a
25.818	0.1205	51636	keystroke_o	o	n/a
26.043	0.105	52086	keystroke_g	g	n/a
26.343	0.09	52686	keystroke_Key.enter	Key.enter	n/a
26.443	13.402	52886	prompt	n/a	liberty homework gothic orlando\n
27.407	0.151	54814	keystroke_l	l	n/a
27.633	0.09	55266	keystroke_i	i	n/a
27.783	0.15	55566	keystroke_b	b	n/a
28.023	0.315	56046	keystroke_e	e	n/a
28.188	0.105	56376	keystroke_r	r	n/a
28.5775	0.1355	57155	keystroke_t	t	n/a
28.7275	0.0755	57455	keystroke_y	y	n/a
28.9525	0.1355	57905	keystroke_Key.space	Key.space	n/a
29.163	0.1055	58326	keystroke_h	h	n/a
29.3275	0.1055	58655	keystroke_o	o	n/a
29.6125	0.09	59225	keystroke_m	m	n/a
29.8525	0.1205	59705	keystroke_e	e	n/a
30.123	0.1655	60246	keystroke_w	w	n/a
30.228	0.12	60456	keystroke_o	o	n/a
30.408	0.1345	60816	keystroke_r	r	n/a
30.558	0.1645	61116	keystroke_k	k	n/a
30.6925	0.1655	61385	keystroke_Key.space	Key.space	n/a
31.098	0.1355	62196	keystroke_g	g	n/a
31.2625	0.12	62525	keystroke_o	o	n/a
31.4725	0.12	62945	keystroke_t	t	n/a
31.623	0.09	63246	keystroke_h	h	n/a
31.8925	0.0755	63785	keystroke_i	i	n/a
32.133	0.195	64266	keystroke_c	c	n/a
32.418	0.12	64836	keystroke_Key.space	Key.space	n/a
32.673	0.135	65346	keystroke_o	o	n/a
33.138	0.12	66276	keystroke_r	r	n/a
33.557	0.1515	67114	keystroke_a	a	n/a
34.1425	0.1055	68285	keystroke_Key.backspace	Key.backspace	n/a
34.518	0.1495	69036	keystroke_k	k	n/a
35.3575	0.075	70715	keystroke_Key.backspace	Key.backspace	n/a
35.8825	0.0755	71765	keystroke_k	k	n/a
36.5575	0.075	73115	keystroke_Key.backspace	Key.backspace	n/a
37.293	0.1645	74586	keystroke_l	l	n/a
37.5475	0.1355	75095	keystroke_a	a	n/a
37.6835	0.0895	75367	keystroke_n	n	n/a
37.878	0.15	75756	keystroke_d	d	n/a
37.9985	0.1045	75997	keystroke_o	o	n/a
39.723	0.1195	79446	keystroke_Key.enter	Key.enter	n/a
39.8495	17.0205	79699	prompt	n/a	community creator show show\n
40.6525	0.225	81305	keystroke_c	c	n/a
41.1775	0.12	82355	keystroke_o	o	n/a
41.478	0.075	82956	keystroke_m	m	n/a
41.658	0.075	83316	keystroke_m	m	n/a
41.9725	0.075	83945	keystroke_u	u	n/a
42.7075	0.0305	85415	keystroke_i	i	n/a
43.143	0.075	86286	keystroke_Key.backspace	Key.backspace	n/a
43.5035	0.1195	87007	keystroke_n	n	n/a
43.728	0.15	87456	keystroke_i	i	n/a
44.358	0.135	88716	keystroke_t	t	n/a
44.508	0.1045	89016	keystroke_y	y	n/a
44.808	0.12	89616	keystroke_Key.space	Key.space	n/a
45.048	0.1355	90096	keystroke_c	c	n/a
45.363	0.135	90726	keystroke_r	r	n/a
45.453	0.18	90906	keystroke_e	e	n/a
45.813	0.2095	91626	keystroke_a	a	n/a
46.2475	0.135	92495	keystroke_o	o	n/a
46.473	0.1355	92946	keystroke_r	r	n/a
46.7125	0.1355	93425	keystroke_Key.space	Key.space	n/a
46.938	0.18	93876	keystroke_s	s	n/a
47.103	0.075	94206	keystroke_h	h	n/a
47.283	0.105	94566	keystroke_o	o	n/a
48.4075	0.06	96815	keystroke_Key.backspace	Key.backspace	n/a
48.6175	0.045	97235	keystroke_Key.backspace	Key.backspace	n/a
48.8125	0.075	97625	keystroke_Key.backspace	Key.backspace	n/a
49.0225	0.0905	98045	keystroke_Key.backspace	Key.backspace	n/a
49.233	0.0745	98466	keystroke_Key.backspace	Key.backspace	n/a
49.9375	0.0755	99875	keystroke_Key.backspace	Key.backspace	n/a
50.282	0.076	100564	keystroke_t	t	n/a
50.2975	0.0155	100595	keystroke_y	y	n/a
50.388	0.09	100776	keystroke_o	o	n/a
51.093	0.0745	102186	keystroke_Key.backspace	Key.backspace	n/a
51.272	0.09	102544	keystroke_Key.backspace	Key.backspace	n/a
52.413	0.119	104826	keystroke_o	o	n/a
52.548	0.12	105096	keystroke_r	r	n/a
52.8025	0.15	105605	keystroke_Key.space	Key.space	n/a
53.193	0.0295	106386	keystroke_s	s	n/a
53.7625	0.09	107525	keystroke_h	h	n/a
53.9575	0.1355	107915	keystroke_o	o	n/a
54.213	0.15	108426	keystroke_w	w	n/a
54.348	0.12	108696	keystroke_Key.space	Key.space	n/a
54.528	0.1645	109056	keystroke_s	s	n/a
54.603	0.1045	109206	keystroke_h	h	n/a
54.7825	0.135	109565	keystroke_o	o	n/a
54.9475	0.136	109895	keystroke_w	w	n/a
55.278	0.0895	110556	keystroke_]	]	n/a
56.2525	0.09	112505	keystroke_Key.backspace	Key.backspace	n/a
56.8075	0.06	113615	keystroke_Key.enter	Key.enter	n/a
56.875	23.59	113750	prompt	n/a	mistakes reached shakespeare graduation\n
58.518	0.1345	117036	keystroke_m	m	n/a
58.7875	0.135	117575	keystroke_i	i	n/a
58.953	0.1945	117906	keystroke_s	s	n/a
59.283	0.1045	118566	keystroke_t	t	n/a
59.8825	0.1505	119765	keystroke_a	a	n/a
60.123	0.105	120246	keystroke_k	k	n/a
60.3025	0.1055	120605	keystroke_e	e	n/a
60.5425	0.135	121085	keystroke_s	s	n/a
60.6625	0.15	121325	keystroke_Key.space	Key.space	n/a
60.9475	0.1495	121895	keystroke_r	r	n/a
61.0225	0.27	122045	keystroke_e	e	n/a
61.5325	0.1055	123065	keystroke_a	a	n/a
61.773	0.21	123546	keystroke_c	c	n/a
62.778	0.165	125556	keystroke_Key.left	Key.left	n/a
62.943	0.104	125886	keystroke_h	h	n/a
63.182	0.09	126364	keystroke_e	e	n/a
63.498	0.1205	126996	keystroke_d	d	n/a
63.693	0.149	127386	keystroke_Key.space	Key.space	n/a
63.903	0.0595	127806	keystroke_s	s	n/a
65.088	0.089	130176	keystroke_Key.backspace	Key.backspace	n/a
65.283	0.0745	130566	keystroke_Key.backspace	Key.backspace	n/a
65.4775	0.06	130955	keystroke_Key.backspace	Key.backspace	n/a
65.6575	0.06	131315	keystroke_Key.backspace	Key.backspace	n/a
65.8375	0.075	131675	keystroke_Key.backspace	Key.backspace	n/a
66.257	0.076	132514	keystroke_Key.backspace	Key.backspace	n/a
67.698	0.0895	135396	keystroke_a	a	n/a
73.804	0.013	147608	keystroke_h	h	n/a
73.847	0.09	147694	keystroke_e	e	n/a
74.1025	0.1495	148205	keystroke_d	d	n/a
74.297	0.1205	148594	keystroke_Key.space	Key.space	n/a
74.5675	0.1345	149135	keystroke_s	s	n/a
74.733	0.1045	149466	keystroke_h	h	n/a
74.8825	0.1795	149765	keystroke_a	a	n/a
75.123	0.119	150246	keystroke_k	k	n/a
75.287	0.106	150574	keystroke_e	e	n/a
75.5425	0.1345	151085	keystroke_s	s	n/a
75.798	0.135	151596	keystroke_p	p	n/a
75.977	0.12	151954	keystroke_e	e	n/a
76.2325	0.225	152465	keystroke_a	a	n/a
76.5475	0.2105	153095	keystroke_r	r	n/a
76.788	0.1645	153576	keystroke_e	e	n/a
77.7325	0.1345	155465	keystroke_Key.space	Key.space	n/a
77.973	0.104	155946	keystroke_g	g	n/a
78.212	0.18	156424	keystroke_r	r	n/a
78.422	0.165	156844	keystroke_a	a	n/a
78.663	0.21	157326	keystroke_d	d	n/a
78.992	0.121	157984	keystroke_u	u	n/a
79.172	0.195	158344	keystroke_a	a	n/a
79.487	0.1205	158974	keystroke_t	t	n/a
79.592	0.105	159184	keystroke_i	i	n/a
79.9675	0.015	159935	keystroke_o	o	n/a
79.9975	0.1195	159995	keystroke_n	n	n/a
80.372	0.09	160744	keystroke_Key.enter	Key.enter	n/a
80.4685	11.0205	160937	prompt	n/a	garden bahamas foundation poverty\n
81.363	0.119	162726	keystroke_g	g	n/a
81.5435	0.2685	163087	keystroke_a	a	n/a
81.783	0.119	163566	keystroke_r	r	n/a
82.067	0.15	164134	keystroke_d	d	n/a
82.352	0.135	164704	keystroke_e	e	n/a
83.2825	0.135	166565	keystroke_n	n	n/a
83.5225	0.1645	167045	keystroke_Key.space	Key.space	n/a
83.717	0.15	167434	keystroke_b	b	n/a
83.9125	0.225	167825	keystroke_a	a	n/a
84.1665	0.1215	168333	keystroke_h	h	n/a
84.348	0.164	168696	keystroke_a	a	n/a
84.8425	0.12	169685	keystroke_m	m	n/a
85.023	0.1945	170046	keystroke_a	a	n/a
85.292	0.18	170584	keystroke_s	s	n/a
85.502	0.1505	171004	keystroke_Key.space	Key.space	n/a
85.8175	0.1645	171635	keystroke_f	f	n/a
85.9975	0.2095	171995	keystroke_o	o	n/a
86.1775	0.104	172355	keystroke_u	u	n/a
86.4315	0.121	172863	keystroke_n	n	n/a
86.597	0.1645	173194	keystroke_d	d	n/a
86.8225	0.195	173645	keystroke_a	a	n/a
87.1225	0.12	174245	keystroke_t	t	n/a
87.2575	0.135	174515	keystroke_i	i	n/a
87.4375	0.15	174875	keystroke_o	o	n/a
87.6775	0.195	175355	keystroke_n	n	n/a
87.9325	0.134	175865	keystroke_Key.space	Key.space	n/a
88.1875	0.1495	176375	keystroke_p	p	n/a
88.6065	0.151	177213	keystroke_o	o	n/a
88.892	0.18	177784	keystroke_v	v	n/a
89.162	0.3005	178324	keystroke_e	e	n/a
89.5065	0.136	179013	keystroke_r	r	n/a
89.9865	0.076	179973	keystroke_y	y	n/a
90.527	0.074	181054	keystroke_Key.backspace	Key.backspace	n/a
90.8115	0.106	181623	keystroke_t	t	n/a
91.0225	0.075	182045	keystroke_y	y	n/a
91.3965	0.0905	182793	keystroke_Key.enter	Key.enter	n/a
91.4935	8.8615	182987	prompt	n/a	engines steven clay colleague\n
92.4925	0.1045	184985	keystroke_e	e	n/a
92.657	0.1055	185314	keystroke_n	n	n/a
92.8825	0.1495	185765	keystroke_g	g	n/a
93.047	0.075	186094	keystroke_i	i	n/a
93.257	0.1205	186514	keystroke_n	n	n/a
93.4225	0.104	186845	keystroke_e	e	n/a
93.662	0.1355	187324	keystroke_s	s	n/a
93.7975	0.134	187595	keystroke_Key.space	Key.space	n/a
93.9925	0.12	187985	keystroke_s	s	n/a
94.2325	0.1205	188465	keystroke_t	t	n/a
94.4575	0.135	188915	keystroke_e	e	n/a
94.757	0.1345	189514	keystroke_v	v	n/a
95.027	0.1655	190054	keystroke_e	e	n/a
95.222	0.2245	190444	keystroke_n	n	n/a
95.4165	0.1505	190833	keystroke_Key.space	Key.space	n/a
95.627	0.21	191254	keystroke_c	c	n/a
96.4065	0.151	192813	keystroke_l	l	n/a
96.6475	0.164	193295	keystroke_a	a	n/a
96.9165	0.06	193833	keystroke_y	y	n/a
97.1565	0.1505	194313	keystroke_Key.space	Key.space	n/a
97.4265	0.1655	194853	keystroke_c	c	n/a
97.5765	0.106	195153	keystroke_o	o	n/a
97.877	0.09	195754	keystroke_l	l	n/a
98.087	0.12	196174	keystroke_l	l	n/a
98.222	0.1355	196444	keystroke_e	e	n/a
98.4625	0.18	196925	keystroke_a	a	n/a
98.7025	0.12	197405	keystroke_g	g	n/a
98.882	0.12	197764	keystroke_u	u	n/a
99.0615	0.1505	198123	keystroke_e	e	n/a
100.277	0.0755	200554	keystroke_Key.enter	Key.enter	n/a
100.361	12.5025	200722	prompt	n/a	theaters sanyo aggressive routines\n
101.402	0.1355	202804	keystroke_t	t	n/a
101.5525	0.12	203105	keystroke_h	h	n/a
101.777	0.12	203554	keystroke_e	e	n/a
102.0015	0.195	204003	keystroke_a	a	n/a
102.2565	0.136	204513	keystroke_t	t	n/a
102.4515	0.2105	204903	keystroke_e	e	n/a
103.547	0.09	207094	keystroke_r	r	n/a
103.802	0.135	207604	keystroke_s	s	n/a
103.952	0.135	207904	keystroke_Key.space	Key.space	n/a
104.132	0.105	208264	keystroke_s	s	n/a
104.297	0.18	208594	keystroke_a	a	n/a
104.447	0.075	208894	keystroke_n	n	n/a
104.822	0.1055	209644	keystroke_y	y	n/a
105.092	0.135	210184	keystroke_o	o	n/a
105.347	0.1645	210694	keystroke_Key.space	Key.space	n/a
105.542	0.18	211084	keystroke_a	a	n/a
105.7665	0.1205	211533	keystroke_g	g	n/a
106.0375	0.1045	212075	keystroke_g	g	n/a
106.697	0.15	213394	keystroke_r	r	n/a
106.877	0.165	213754	keystroke_e	e	n/a
107.1775	0.1045	214355	keystroke_s	s	n/a
107.3865	0.1355	214773	keystroke_s	s	n/a
107.537	0.1505	215074	keystroke_i	i	n/a
107.7775	0.18	215555	keystroke_v	v	n/a
108.062	0.195	216124	keystroke_e	e	n/a
108.497	0.135	216994	keystroke_Key.space	Key.space	n/a
108.902	0.1355	217804	keystroke_r	r	n/a
110.2075	0.149	220415	keystroke_o	o	n/a
110.4765	0.1055	220953	keystroke_u	u	n/a
110.7465	0.166	221493	keystroke_t	t	n/a
110.8675	0.074	221735	keystroke_i	i	n/a
111.2265	0.0755	222453	keystroke_e	e	n/a
111.752	0.09	223504	keystroke_Key.backspace	Key.backspace	n/a
112.082	0.1205	224164	keystroke_n	n	n/a
112.2615	0.105	224523	keystroke_e	e	n/a
112.487	0.1345	224974	keystroke_s	s	n/a
112.7415	0.1205	225483	keystroke_Key.enter	Key.enter	n/a
112.873	7.8055	225746	prompt	n/a	compression central sara gang\n
113.5965	0.18	227193	keystroke_c	c	n/a
113.8665	0.135	227733	keystroke_o	o	n/a
114.1065	0.1355	228213	keystroke_m	m	n/a
114.377	0.165	228754	keystroke_p	p	n/a
114.557	0.195	229114	keystroke_r	r	n/a
114.692	0.18	229384	keystroke_e	e	n/a
115.022	0.09	230044	keystroke_s	s	n/a
115.232	0.165	230464	keystroke_s	s	n/a
115.352	0.18	230704	keystroke_i	i	n/a
115.502	0.1795	231004	keystroke_o	o	n/a
115.742	0.1345	231484	keystroke_n	n	n/a
115.9665	0.165	231933	keystroke_Key.space	Key.space	n/a
116.116	0.1815	232232	keystroke_c	c	n/a
116.4465	0.195	232893	keystroke_e	e	n/a
116.657	0.105	233314	keystroke_n	n	n/a
116.8815	0.09	233763	keystroke_t	t	n/a
117.107	0.104	234214	keystroke_r	r	n/a
117.302	0.194	234604	keystroke_a	a	n/a
117.8875	0.119	235775	keystroke_l	l	n/a
118.111	0.165	236222	keystroke_Key.space	Key.space	n/a
118.291	0.1055	236582	keystroke_s	s	n/a
118.4865	0.15	236973	keystroke_a	a	n/a
118.712	0.1045	237424	keystroke_r	r	n/a
118.906	0.165	237812	keystroke_a	a	n/a
119.0565	0.1495	238113	keystroke_Key.space	Key.space	n/a
119.4765	0.105	238953	keystroke_g	g	n/a
119.672	0.1945	239344	keystroke_a	a	n/a
119.837	0.0895	239674	keystroke_n	n	n/a
120.1965	0.105	240393	keystroke_g	g	n/a
120.571	0.1055	241142	keystroke_Key.enter	Key.enter	n/a
120.6835	9.955	241367	prompt	n/a	valuable followed sponsorship minolta\n
121.532	0.1645	243064	keystroke_v	v	n/a
121.7415	0.195	243483	keystroke_a	a	n/a
121.9665	0.135	243933	keystroke_l	l	n/a
122.222	0.1045	244444	keystroke_u	u	n/a
122.3715	0.165	244743	keystroke_a	a	n/a
122.5965	0.1345	245193	keystroke_b	b	n/a
123.181	0.12	246362	keystroke_l	l	n/a
123.496	0.1355	246992	keystroke_e	e	n/a
123.766	0.106	247532	keystroke_Key.space	Key.space	n/a
123.9915	0.1505	247983	keystroke_f	f	n/a
124.172	0.1345	248344	keystroke_o	o	n/a
124.4865	0.075	248973	keystroke_l	l	n/a
124.667	0.104	249334	keystroke_l	l	n/a
124.952	0.1645	249904	keystroke_o	o	n/a
125.161	0.2105	250322	keystroke_w	w	n/a
125.416	0.106	250832	keystroke_e	e	n/a
125.687	0.18	251374	keystroke_d	d	n/a
125.836	0.165	251672	keystroke_Key.space	Key.space	n/a
126.076	0.166	252152	keystroke_s	s	n/a
126.362	0.24	252724	keystroke_p	p	n/a
126.586	0.135	253172	keystroke_o	o	n/a
126.826	0.12	253652	keystroke_n	n	n/a
127.0365	0.1645	254073	keystroke_s	s	n/a
127.1265	0.1495	254253	keystroke_o	o	n/a
127.3815	0.1045	254763	keystroke_r	r	n/a
127.652	0.209	255304	keystroke_s	s	n/a
127.741	0.1055	255482	keystroke_h	h	n/a
127.966	0.106	255932	keystroke_i	i	n/a
128.161	0.1505	256322	keystroke_p	p	n/a
128.416	0.1355	256832	keystroke_Key.space	Key.space	n/a
128.656	0.0905	257312	keystroke_m	m	n/a
128.867	0.089	257734	keystroke_i	i	n/a
129.076	0.12	258152	keystroke_n	n	n/a
129.286	0.1055	258572	keystroke_o	o	n/a
129.826	0.135	259652	keystroke_l	l	n/a
130.006	0.105	260012	keystroke_t	t	n/a
130.2315	0.18	260463	keystroke_a	a	n/a
130.532	0.104	261064	keystroke_Key.enter	Key.enter	n/a
130.6425	6.731	261285	prompt	n/a	order claim socks kent\n
131.447	0.1495	262894	keystroke_o	o	n/a
131.686	0.1055	263372	keystroke_r	r	n/a
131.9115	0.12	263823	keystroke_d	d	n/a
132.1515	0.195	264303	keystroke_e	e	n/a
132.3165	0.135	264633	keystroke_r	r	n/a
132.4965	0.1345	264993	keystroke_Key.space	Key.space	n/a
132.676	0.1805	265352	keystroke_c	c	n/a
132.841	0.105	265682	keystroke_l	l	n/a
133.036	0.196	266072	keystroke_a	a	n/a
133.172	0.0745	266344	keystroke_i	i	n/a
133.576	0.1655	267152	keystroke_Key.space	Key.space	n/a
134.3565	0.075	268713	keystroke_Key.backspace	Key.backspace	n/a
134.686	0.121	269372	keystroke_m	m	n/a
134.926	0.1655	269852	keystroke_Key.space	Key.space	n/a
135.1215	0.165	270243	keystroke_s	s	n/a
135.3015	0.105	270603	keystroke_o	o	n/a
135.4665	0.195	270933	keystroke_c	c	n/a
135.6465	0.075	271293	keystroke_k	k	n/a
135.8415	0.165	271683	keystroke_s	s	n/a
135.9615	0.135	271923	keystroke_Key.space	Key.space	n/a
136.1865	0.1055	272373	keystroke_k	k	n/a
136.322	0.134	272644	keystroke_e	e	n/a
136.471	0.091	272942	keystroke_n	n	n/a
137.0115	0.105	274023	keystroke_t	t	n/a
137.2665	0.105	274533	keystroke_Key.enter	Key.enter	n/a
137.3785	6.16	274757	prompt	n/a	tropical coins deep fetish\n
138.302	0.075	276604	keystroke_t	t	n/a
138.482	0.105	276964	keystroke_r	r	n/a
138.6315	0.135	277263	keystroke_o	o	n/a
138.8865	0.12	277773	keystroke_p	p	n/a
139.0965	0.1055	278193	keystroke_i	i	n/a
139.2765	0.165	278553	keystroke_c	c	n/a
139.5165	0.1805	279033	keystroke_a	a	n/a
139.6065	0.225	279213	keystroke_l	l	n/a
139.7715	0.165	279543	keystroke_Key.space	Key.space	n/a
139.952	0.18	279904	keystroke_c	c	n/a
140.0865	0.09	280173	keystroke_o	o	n/a
140.282	0.075	280564	keystroke_i	i	n/a
140.4765	0.105	280953	keystroke_n	n	n/a
140.612	0.12	281224	keystroke_s	s	n/a
140.792	0.135	281584	keystroke_Key.space	Key.space	n/a
140.942	0.15	281884	keystroke_d	d	n/a
141.4215	0.0895	282843	keystroke_e	e	n/a
141.632	0.12	283264	keystroke_e	e	n/a
141.7525	0.119	283505	keystroke_p	p	n/a
141.976	0.166	283952	keystroke_Key.space	Key.space	n/a
142.157	0.135	284314	keystroke_f	f	n/a
142.3815	0.1645	284763	keystroke_e	e	n/a
142.652	0.105	285304	keystroke_t	t	n/a
142.742	0.12	285484	keystroke_i	i	n/a
142.922	0.18	285844	keystroke_s	s	n/a
143.057	0.075	286114	keystroke_h	h	n/a
143.4315	0.1045	286863	keystroke_Key.enter	Key.enter	n/a
143.5425	11.141	287085	prompt	n/a	emotional bald increases viral\n
144.3775	0.1195	288755	keystroke_e	e	n/a
144.542	0.105	289084	keystroke_m	m	n/a
144.797	0.135	289594	keystroke_o	o	n/a
145.0515	0.135	290103	keystroke_t	t	n/a
145.172	0.15	290344	keystroke_i	i	n/a
145.277	0.18	290554	keystroke_o	o	n/a
145.382	0.165	290764	keystroke_n	n	n/a
145.622	0.195	291244	keystroke_a	a	n/a
145.712	0.21	291424	keystroke_l	l	n/a
145.877	0.165	291754	keystroke_Key.space	Key.space	n/a
146.087	0.105	292174	keystroke_b	b	n/a
146.2965	0.225	292593	keystroke_a	a	n/a
146.4165	0.106	292833	keystroke_l	l	n/a
146.6565	0.1355	293313	keystroke_k	k	n/a
146.941	0.1355	293882	keystroke_Key.space	Key.space	n/a
147.437	0.0445	294874	keystroke_Key.backspace	Key.backspace	n/a
147.6315	0.045	295263	keystroke_Key.backspace	Key.backspace	n/a
148.0075	0.1645	296015	keystroke_d	d	n/a
148.2315	0.135	296463	keystroke_Key.space	Key.space	n/a
148.4415	0.09	296883	keystroke_i	i	n/a
148.637	0.1045	297274	keystroke_n	n	n/a
148.7715	0.18	297543	keystroke_c	c	n/a
149.1165	0.15	298233	keystroke_r	r	n/a
149.2365	0.12	298473	keystroke_e	e	n/a
150.047	0.165	300094	keystroke_a	a	n/a
150.2565	0.135	300513	keystroke_s	s	n/a
150.527	0.1345	301054	keystroke_e	e	n/a
150.7665	0.1655	301533	keystroke_s	s	n/a
150.917	0.134	301834	keystroke_Key.space	Key.space	n/a
151.322	0.03	302644	keystroke_i	i	n/a
152.342	0.104	304684	keystroke_Key.backspace	Key.backspace	n/a
152.612	0.1645	305224	keystroke_v	v	n/a
152.8365	0.1055	305673	keystroke_i	i	n/a
153.0465	0.105	306093	keystroke_r	r	n/a
153.2265	0.18	306453	keystroke_a	a	n/a
153.3465	0.106	306693	keystroke_l	l	n/a
154.5765	0.1055	309153	keystroke_Key.enter	Key.enter	n/a
154.688	11.006	309376	prompt	n/a	decorating antarctica mozilla dennis\n
155.4025	0.105	310805	keystroke_d	d	n/a
155.642	0.1195	311284	keystroke_e	e	n/a
155.9575	0.194	311915	keystroke_c	c	n/a
156.167	0.149	312334	keystroke_o	o	n/a
156.362	0.105	312724	keystroke_r	r	n/a
156.557	0.2095	313114	keystroke_a	a	n/a
156.812	0.1345	313624	keystroke_t	t	n/a
156.9615	0.091	313923	keystroke_i	i	n/a
157.1565	0.1355	314313	keystroke_n	n	n/a
157.3215	0.135	314643	keystroke_g	g	n/a
157.4865	0.135	314973	keystroke_Key.space	Key.space	n/a
157.652	0.1955	315304	keystroke_a	a	n/a
157.7865	0.1055	315573	keystroke_n	n	n/a
158.0265	0.12	316053	keystroke_t	t	n/a
158.222	0.2245	316444	keystroke_a	a	n/a
159.137	0.0895	318274	keystroke_r	r	n/a
159.4215	0.18	318843	keystroke_c	c	n/a
159.8565	0.105	319713	keystroke_t	t	n/a
160.0675	0.1195	320135	keystroke_i	i	n/a
160.277	0.15	320554	keystroke_c	c	n/a
160.5465	0.1655	321093	keystroke_a	a	n/a
160.7125	0.1195	321425	keystroke_Key.space	Key.space	n/a
160.952	0.105	321904	keystroke_m	m	n/a
161.146	0.166	322292	keystroke_o	o	n/a
161.327	0.15	322654	keystroke_z	z	n/a
161.507	0.075	323014	keystroke_i	i	n/a
161.717	0.09	323434	keystroke_l	l	n/a
161.9565	0.075	323913	keystroke_l	l	n/a
162.0315	0.15	324063	keystroke_a	a	n/a
162.1965	0.15	324393	keystroke_Key.space	Key.space	n/a
162.4975	0.1195	324995	keystroke_e	e	n/a
163.442	0.12	326884	keystroke_Key.backspace	Key.backspace	n/a
163.607	0.1195	327214	keystroke_d	d	n/a
163.877	0.15	327754	keystroke_e	e	n/a
163.9965	0.1055	327993	keystroke_n	n	n/a
164.177	0.12	328354	keystroke_n	n	n/a
164.357	0.1355	328714	keystroke_i	i	n/a
164.537	0.12	329074	keystroke_s	s	n/a
165.587	0.105	331174	keystroke_Key.enter	Key.enter	n/a
165.6985	8.7105	331397	prompt	n/a	length mineral denver dialog\n
166.5325	0.1195	333065	keystroke_l	l	n/a
166.712	0.15	333424	keystroke_e	e	n/a
166.832	0.105	333664	keystroke_n	n	n/a
167.3875	0.1195	334775	keystroke_g	g	n/a
167.7165	0.136	335433	keystroke_t	t	n/a
167.867	0.0605	335734	keystroke_h	h	n/a
168.092	0.1345	336184	keystroke_Key.space	Key.space	n/a
168.4815	0.075	336963	keystroke_i	i	n/a
168.991	0.121	337982	keystroke_Key.backspace	Key.backspace	n/a
169.337	0.1205	338674	keystroke_m	m	n/a
169.592	0.089	339184	keystroke_i	i	n/a
169.787	0.105	339574	keystroke_n	n	n/a
169.997	0.2095	339994	keystroke_e	e	n/a
170.2215	0.1055	340443	keystroke_r	r	n/a
170.432	0.1655	340864	keystroke_a	a	n/a
170.5225	0.21	341045	keystroke_l	l	n/a
170.6865	0.18	341373	keystroke_Key.space	Key.space	n/a
170.8225	0.149	341645	keystroke_d	d	n/a
171.1065	0.151	342213	keystroke_e	e	n/a
171.2125	0.09	342425	keystroke_n	n	n/a
171.4225	0.1495	342845	keystroke_v	v	n/a
171.692	0.225	343384	keystroke_e	e	n/a
171.857	0.165	343714	keystroke_r	r	n/a
172.052	0.1495	344104	keystroke_Key.space	Key.space	n/a
172.2165	0.1655	344433	keystroke_d	d	n/a
172.337	0.1195	344674	keystroke_i	i	n/a
172.4865	0.18	344973	keystroke_a	a	n/a
172.682	0.09	345364	keystroke_l	l	n/a
172.9225	0.1495	345845	keystroke_o	o	n/a
173.0725	0.1045	346145	keystroke_g	g	n/a
174.272	0.135	348544	keystroke_Key.enter	Key.enter	n/a
174.4135	9.0105	348827	prompt	n/a	formed quote legacy warrior\n
175.2325	0.1495	350465	keystroke_f	f	n/a
176.3725	0.165	352745	keystroke_o	o	n/a
176.6575	0.105	353315	keystroke_r	r	n/a
176.8515	0.106	353703	keystroke_m	m	n/a
176.9865	0.121	353973	keystroke_e	e	n/a
177.2865	0.135	354573	keystroke_d	d	n/a
177.4365	0.135	354873	keystroke_Key.space	Key.space	n/a
177.902	0.1355	355804	keystroke_q	q	n/a
178.0225	0.104	356045	keystroke_u	u	n/a
178.232	0.15	356464	keystroke_o	o	n/a
178.4125	0.105	356825	keystroke_t	t	n/a
178.637	0.135	357274	keystroke_e	e	n/a
178.832	0.135	357664	keystroke_Key.space	Key.space	n/a
179.027	0.165	358054	keystroke_l	l	n/a
179.162	0.135	358324	keystroke_e	e	n/a
179.417	0.1355	358834	keystroke_g	g	n/a
179.583	0.149	359166	keystroke_a	a	n/a
179.837	0.2105	359674	keystroke_c	c	n/a
180.482	0.12	360964	keystroke_y	y	n/a
180.782	0.135	361564	keystroke_Key.space	Key.space	n/a
180.977	0.1205	361954	keystroke_w	w	n/a
181.247	0.1945	362494	keystroke_a	a	n/a
181.487	0.0895	362974	keystroke_r	r	n/a
181.6815	0.1055	363363	keystroke_r	r	n/a
181.817	0.105	363634	keystroke_i	i	n/a
181.9965	0.1655	363993	keystroke_o	o	n/a
182.207	0.105	364414	keystroke_r	r	n/a
183.302	0.12	366604	keystroke_Key.enter	Key.enter	n/a
183.429	13.975	366858	prompt	n/a	protocol unsubscribe semiconductor paragraph\n
184.412	0.12	368824	keystroke_p	p	n/a
184.8015	0.1355	369603	keystroke_r	r	n/a
184.967	0.135	369934	keystroke_o	o	n/a
185.162	0.105	370324	keystroke_t	t	n/a
185.387	0.1355	370774	keystroke_o	o	n/a
185.612	0.1805	371224	keystroke_c	c	n/a
185.8065	0.06	371613	keystroke_o	o	n/a
186.0165	0.136	372033	keystroke_l	l	n/a
186.3765	0.1355	372753	keystroke_Key.space	Key.space	n/a
187.3525	0.075	374705	keystroke_u	u	n/a
187.5925	0.1195	375185	keystroke_n	n	n/a
187.877	0.12	375754	keystroke_s	s	n/a
188.0425	0.1045	376085	keystroke_u	u	n/a
188.357	0.15	376714	keystroke_b	b	n/a
188.957	0.135	377914	keystroke_s	s	n/a
189.182	0.21	378364	keystroke_c	c	n/a
189.5425	0.18	379085	keystroke_r	r	n/a
189.707	0.1205	379414	keystroke_i	i	n/a
190.007	0.15	380014	keystroke_b	b	n/a
190.277	0.195	380554	keystroke_e	e	n/a
190.502	0.135	381004	keystroke_Key.space	Key.space	n/a
190.892	0.1345	381784	keystroke_s	s	n/a
191.1015	0.211	382203	keystroke_e	e	n/a
191.267	0.105	382534	keystroke_m	m	n/a
191.597	0.105	383194	keystroke_i	i	n/a
191.8525	0.18	383705	keystroke_c	c	n/a
192.332	0.15	384664	keystroke_o	o	n/a
192.587	0.1055	385174	keystroke_n	n	n/a
192.842	0.12	385684	keystroke_d	d	n/a
193.0815	0.0605	386163	keystroke_u	u	n/a
193.307	0.1805	386614	keystroke_c	c	n/a
193.6385	0.1485	387277	keystroke_t	t	n/a
193.8175	0.1345	387635	keystroke_o	o	n/a
194.012	0.12	388024	keystroke_r	r	n/a
194.207	0.195	388414	keystroke_Key.space	Key.space	n/a
194.5665	0.1955	389133	keystroke_p	p	n/a
195.452	0.18	390904	keystroke_a	a	n/a
195.6625	0.1345	391325	keystroke_r	r	n/a
195.842	0.1655	391684	keystroke_a	a	n/a
196.0665	0.15	392133	keystroke_g	g	n/a
196.337	0.1355	392674	keystroke_r	r	n/a
196.5025	0.209	393005	keystroke_a	a	n/a
196.697	0.1195	393394	keystroke_p	p	n/a
196.9225	0.1045	393845	keystroke_h	h	n/a
197.312	0.09	394624	keystroke_Key.enter	Key.enter	n/a
197.4085	10.06	394817	prompt	n/a	reporter towns hamilton bernard\n
198.2565	0.166	396513	keystroke_r	r	n/a
198.4365	0.151	396873	keystroke_e	e	n/a
198.7365	0.18	397473	keystroke_p	p	n/a
198.8865	0.211	397773	keystroke_o	o	n/a
199.0975	0.104	398195	keystroke_r	r	n/a
199.3375	0.149	398675	keystroke_t	t	n/a
199.517	0.1955	399034	keystroke_e	e	n/a
199.8015	0.135	399603	keystroke_r	r	n/a
199.967	0.1205	399934	keystroke_Key.space	Key.space	n/a
200.162	0.135	400324	keystroke_t	t	n/a
200.312	0.105	400624	keystroke_o	o	n/a
200.4775	0.164	400955	keystroke_w	w	n/a
201.107	0.09	402214	keystroke_n	n	n/a
201.287	0.15	402574	keystroke_s	s	n/a
201.497	0.1195	402994	keystroke_Key.space	Key.space	n/a
201.767	0.075	403534	keystroke_h	h	n/a
202.007	0.21	404014	keystroke_a	a	n/a
202.1425	0.0895	404285	keystroke_m	m	n/a
202.3525	0.0745	404705	keystroke_i	i	n/a
202.5625	0.104	405125	keystroke_l	l	n/a
202.862	0.105	405724	keystroke_t	t	n/a
202.982	0.0755	405964	keystroke_o	o	n/a
203.8365	0.1355	407673	keystroke_n	n	n/a
204.092	0.165	408184	keystroke_Key.space	Key.space	n/a
204.617	0.1205	409234	keystroke_b	b	n/a
204.977	0.195	409954	keystroke_e	e	n/a
205.247	0.1355	410494	keystroke_r	r	n/a
205.547	0.12	411094	keystroke_n	n	n/a
205.6975	0.21	411395	keystroke_a	a	n/a
205.8775	0.134	411755	keystroke_r	r	n/a
206.1465	0.1505	412293	keystroke_d	d	n/a
207.362	0.105	414724	keystroke_Key.enter	Key.enter	n/a
207.4725	9.8365	414945	prompt	n/a	studios worthy sword browser\n
208.2175	0.1345	416435	keystroke_s	s	n/a
208.472	0.135	416944	keystroke_t	t	n/a
208.652	0.0895	417304	keystroke_u	u	n/a
208.8165	0.2105	417633	keystroke_d	d	n/a
208.9815	0.076	417963	keystroke_i	i	n/a
209.867	0.15	419734	keystroke_o	o	n/a
210.0625	0.1495	420125	keystroke_s	s	n/a
210.287	0.135	420574	keystroke_Key.space	Key.space	n/a
210.557	0.165	421114	keystroke_w	w	n/a
210.722	0.1355	421444	keystroke_o	o	n/a
210.872	0.0895	421744	keystroke_r	r	n/a
211.127	0.1055	422254	keystroke_t	t	n/a
211.2325	0.09	422465	keystroke_h	h	n/a
211.622	0.075	423244	keystroke_y	y	n/a
211.832	0.15	423664	keystroke_Key.space	Key.space	n/a
212.087	0.06	424174	keystroke_s	s	n/a
212.372	0.135	424744	keystroke_w	w	n/a
212.5515	0.1355	425103	keystroke_o	o	n/a
212.747	0.105	425494	keystroke_r	r	n/a
213.032	0.165	426064	keystroke_d	d	n/a
213.182	0.1645	426364	keystroke_Key.space	Key.space	n/a
213.7525	0.119	427505	keystroke_b	b	n/a
214.127	0.1195	428254	keystroke_r	r	n/a
214.6975	0.1195	429395	keystroke_o	o	n/a
215.027	0.135	430054	keystroke_w	w	n/a
215.402	0.15	430804	keystroke_s	s	n/a
215.657	0.195	431314	keystroke_e	e	n/a
216.8565	0.105	433713	keystroke_r	r	n/a
217.2315	0.075	434463	keystroke_Key.enter	Key.enter	n/a
217.3135	5.9805	434627	prompt	n/a	feature pill does owned\n
217.982	0.105	435964	keystroke_f	f	n/a
218.177	0.105	436354	keystroke_e	e	n/a
218.387	0.1795	436774	keystroke_a	a	n/a
218.657	0.0905	437314	keystroke_t	t	n/a
218.807	0.1205	437614	keystroke_u	u	n/a
218.957	0.15	437914	keystroke_r	r	n/a
219.062	0.195	438124	keystroke_e	e	n/a
219.377	0.165	438754	keystroke_Key.space	Key.space	n/a
219.602	0.15	439204	keystroke_p	p	n/a
219.857	0.09	439714	keystroke_i	i	n/a
220.083	0.1045	440166	keystroke_l	l	n/a
220.337	0.2405	440674	keystroke_l	l	n/a
220.4875	0.194	440975	keystroke_Key.space	Key.space	n/a
220.6665	0.1805	441333	keystroke_d	d	n/a
220.8325	0.119	441665	keystroke_o	o	n/a
220.9965	0.1065	441993	keystroke_e	e	n/a
221.2075	0.164	442415	keystroke_s	s	n/a
221.3565	0.1505	442713	keystroke_Key.space	Key.space	n/a
221.822	0.15	443644	keystroke_o	o	n/a
222.107	0.06	444214	keystroke_w	w	n/a
222.392	0.135	444784	keystroke_n	n	n/a
222.572	0.12	445144	keystroke_e	e	n/a
222.842	0.135	445684	keystroke_d	d	n/a
223.172	0.12	446344	keystroke_Key.enter	Key.enter	n/a
223.302	13.327	446604	prompt	n/a	aboriginal armstrong totally underlying\n
224.237	0.18	448474	keystroke_a	a	n/a
224.552	0.15	449104	keystroke_b	b	n/a
224.792	0.135	449584	keystroke_o	o	n/a
225.017	0.135	450034	keystroke_r	r	n/a
225.227	0.105	450454	keystroke_i	i	n/a
225.422	0.15	450844	keystroke_g	g	n/a
225.5725	0.1045	451145	keystroke_i	i	n/a
225.827	0.12	451654	keystroke_n	n	n/a
226.007	0.21	452014	keystroke_a	a	n/a
226.367	0.135	452734	keystroke_Key.space	Key.space	n/a
226.967	0.105	453934	keystroke_Key.backspace	Key.backspace	n/a
227.3265	0.1205	454653	keystroke_l	l	n/a
227.567	0.165	455134	keystroke_Key.space	Key.space	n/a
227.837	0.2105	455674	keystroke_a	a	n/a
228.077	0.105	456154	keystroke_m	m	n/a
228.677	0.105	457354	keystroke_Key.backspace	Key.backspace	n/a
229.187	0.12	458374	keystroke_r	r	n/a
229.382	0.12	458764	keystroke_m	m	n/a
229.577	0.21	459154	keystroke_s	s	n/a
229.907	0.075	459814	keystroke_t	t	n/a
230.102	0.12	460204	keystroke_r	r	n/a
230.252	0.105	460504	keystroke_o	o	n/a
230.4475	0.1195	460895	keystroke_n	n	n/a
230.627	0.164	461254	keystroke_g	g	n/a
230.822	0.135	461644	keystroke_Key.space	Key.space	n/a
231.002	0.135	462004	keystroke_t	t	n/a
231.122	0.135	462244	keystroke_o	o	n/a
231.437	0.09	462874	keystroke_t	t	n/a
231.647	0.195	463294	keystroke_a	a	n/a
231.827	0.075	463654	keystroke_l	l	n/a
232.037	0.09	464074	keystroke_l	l	n/a
232.291	0.076	464582	keystroke_y	y	n/a
232.502	0.165	465004	keystroke_Key.space	Key.space	n/a
232.937	0.09	465874	keystroke_u	u	n/a
233.222	0.12	466444	keystroke_n	n	n/a
233.402	0.135	466804	keystroke_d	d	n/a
233.642	0.195	467284	keystroke_e	e	n/a
233.7925	0.15	467585	keystroke_r	r	n/a
234.032	0.15	468064	keystroke_l	l	n/a
234.347	0.1045	468694	keystroke_y	y	n/a
234.932	0.1045	469864	keystroke_i	i	n/a
235.202	0.12	470404	keystroke_n	n	n/a
235.4415	0.12	470883	keystroke_g	g	n/a
236.5215	0.105	473043	keystroke_Key.enter	Key.enter	n/a
236.6345	8.3205	473269	prompt	n/a	readers ment isn't stationery\n
237.377	0.165	474754	keystroke_r	r	n/a
237.557	0.1795	475114	keystroke_e	e	n/a
237.782	0.1345	475564	keystroke_a	a	n/a
237.9915	0.1205	475983	keystroke_d	d	n/a
238.232	0.195	476464	keystroke_e	e	n/a
238.412	0.1345	476824	keystroke_r	r	n/a
238.727	0.1495	477454	keystroke_s	s	n/a
238.8915	0.12	477783	keystroke_Key.space	Key.space	n/a
239.1465	0.1205	478293	keystroke_m	m	n/a
239.327	0.195	478654	keystroke_e	e	n/a
239.4765	0.105	478953	keystroke_n	n	n/a
239.687	0.105	479374	keystroke_t	t	n/a
239.837	0.15	479674	keystroke_Key.space	Key.space	n/a
240.0925	0.104	480185	keystroke_i	i	n/a
240.212	0.2095	480424	keystroke_s	s	n/a
240.4065	0.105	480813	keystroke_n	n	n/a
240.752	0.0895	481504	keystroke_'	'	n/a
241.0225	0.0885	482045	keystroke_t	t	n/a
241.351	0.151	482702	keystroke_Key.space	Key.space	n/a
241.876	0.166	483752	keystroke_s	s	n/a
242.162	0.089	484324	keystroke_t	t	n/a
242.312	0.1795	484624	keystroke_a	a	n/a
242.5665	0.136	485133	keystroke_t	t	n/a
242.7175	0.1045	485435	keystroke_i	i	n/a
242.897	0.1045	485794	keystroke_o	o	n/a
243.1065	0.105	486213	keystroke_n	n	n/a
243.2715	0.1655	486543	keystroke_e	e	n/a
243.452	0.12	486904	keystroke_r	r	n/a
244.4265	0.0905	488853	keystroke_y	y	n/a
244.8315	0.12	489663	keystroke_Key.enter	Key.enter	n/a
244.9615	9.1715	489923	prompt	n/a	constraint arnold largest useful\n
245.9265	0.18	491853	keystroke_c	c	n/a
246.1215	0.121	492243	keystroke_o	o	n/a
246.332	0.1345	492664	keystroke_n	n	n/a
246.5415	0.18	493083	keystroke_s	s	n/a
246.812	0.1045	493624	keystroke_t	t	n/a
247.037	0.1195	494074	keystroke_r	r	n/a
247.2175	0.224	494435	keystroke_a	a	n/a
247.367	0.1045	494734	keystroke_i	i	n/a
247.5915	0.12	495183	keystroke_n	n	n/a
247.8165	0.1355	495633	keystroke_t	t	n/a
248.027	0.1495	496054	keystroke_Key.space	Key.space	n/a
248.2365	0.21	496473	keystroke_a	a	n/a
248.5515	0.1055	497103	keystroke_r	r	n/a
248.732	0.12	497464	keystroke_n	n	n/a
248.927	0.09	497854	keystroke_o	o	n/a
249.152	0.1195	498304	keystroke_l	l	n/a
249.3315	0.135	498663	keystroke_d	d	n/a
249.4815	0.1655	498963	keystroke_Key.space	Key.space	n/a
249.9465	0.12	499893	keystroke_l	l	n/a
250.0815	0.24	500163	keystroke_a	a	n/a
250.3365	0.0755	500673	keystroke_r	r	n/a
250.577	0.1345	501154	keystroke_g	g	n/a
250.772	0.149	501544	keystroke_e	e	n/a
251.1315	0.1805	502263	keystroke_s	s	n/a
251.432	0.1045	502864	keystroke_t	t	n/a
251.597	0.135	503194	keystroke_Key.space	Key.space	n/a
251.867	0.105	503734	keystroke_u	u	n/a
251.987	0.1495	503974	keystroke_s	s	n/a
252.1965	0.18	504393	keystroke_e	e	n/a
252.452	0.15	504904	keystroke_f	f	n/a
252.587	0.105	505174	keystroke_u	u	n/a
252.8415	0.1045	505683	keystroke_l	l	n/a
254.027	0.1045	508054	keystroke_Key.enter	Key.enter	n/a
254.1365	10.107	508273	prompt	n/a	bool textile puzzles ideas\n
254.897	0.12	509794	keystroke_b	b	n/a
255.122	0.105	510244	keystroke_o	o	n/a
255.332	0.075	510664	keystroke_o	o	n/a
255.557	0.255	511114	keystroke_l	l	n/a
255.7365	0.1805	511473	keystroke_Key.space	Key.space	n/a
255.932	0.135	511864	keystroke_t	t	n/a
256.142	0.135	512284	keystroke_e	e	n/a
257.762	0.12	515524	keystroke_s	s	n/a
258.587	0.089	517174	keystroke_Key.backspace	Key.backspace	n/a
259.6375	0.164	519275	keystroke_x	x	n/a
260.0415	0.105	520083	keystroke_t	t	n/a
260.1915	0.09	520383	keystroke_i	i	n/a
260.4165	0.12	520833	keystroke_l	l	n/a
260.552	0.12	521104	keystroke_e	e	n/a
260.7015	0.1505	521403	keystroke_Key.space	Key.space	n/a
260.9415	0.12	521883	keystroke_p	p	n/a
261.631	0.1055	523262	keystroke_u	u	n/a
261.8415	0.1205	523683	keystroke_z	z	n/a
262.052	0.1495	524104	keystroke_z	z	n/a
262.1865	0.1355	524373	keystroke_l	l	n/a
262.367	0.1195	524734	keystroke_e	e	n/a
262.607	0.1495	525214	keystroke_s	s	n/a
262.727	0.1345	525454	keystroke_Key.space	Key.space	n/a
262.9065	0.12	525813	keystroke_i	i	n/a
263.057	0.12	526114	keystroke_d	d	n/a
263.3415	0.106	526683	keystroke_e	e	n/a
263.5375	0.149	527075	keystroke_a	a	n/a
263.7915	0.1655	527583	keystroke_s	s	n/a
264.137	0.104	528274	keystroke_Key.enter	Key.enter	n/a
264.247	8.9215	528494	prompt	n/a	comparative stevens fishing mounted\n
265.052	0.165	530104	keystroke_c	c	n/a
265.2315	0.12	530463	keystroke_o	o	n/a
265.4715	0.1355	530943	keystroke_m	m	n/a
265.712	0.149	531424	keystroke_p	p	n/a
265.832	0.24	531664	keystroke_a	a	n/a
266.056	0.136	532112	keystroke_r	r	n/a
266.252	0.195	532504	keystroke_a	a	n/a
266.5515	0.09	533103	keystroke_t	t	n/a
266.6565	0.1195	533313	keystroke_i	i	n/a
266.866	0.135	533732	keystroke_v	v	n/a
267.092	0.21	534184	keystroke_e	e	n/a
267.766	0.1355	535532	keystroke_Key.space	Key.space	n/a
267.962	0.165	535924	keystroke_s	s	n/a
268.217	0.12	536434	keystroke_t	t	n/a
269.086	0.136	538172	keystroke_e	e	n/a
269.3425	0.134	538685	keystroke_v	v	n/a
269.5815	0.1505	539163	keystroke_e	e	n/a
269.7165	0.1055	539433	keystroke_n	n	n/a
269.8965	0.15	539793	keystroke_s	s	n/a
270.0165	0.135	540033	keystroke_Key.space	Key.space	n/a
270.1965	0.135	540393	keystroke_f	f	n/a
270.362	0.105	540724	keystroke_i	i	n/a
270.5115	0.165	541023	keystroke_s	s	n/a
270.6465	0.091	541293	keystroke_h	h	n/a
270.8415	0.1055	541683	keystroke_i	i	n/a
270.9765	0.1495	541953	keystroke_n	n	n/a
271.216	0.121	542432	keystroke_g	g	n/a
271.5315	0.1495	543063	keystroke_Key.space	Key.space	n/a
271.772	0.119	543544	keystroke_m	m	n/a
272.132	0.045	544264	keystroke_o	o	n/a
272.147	0.06	544294	keystroke_u	u	n/a
272.327	0.135	544654	keystroke_n	n	n/a
272.492	0.165	544984	keystroke_t	t	n/a
272.642	0.1645	545284	keystroke_e	e	n/a
272.927	0.1045	545854	keystroke_d	d	n/a
273.077	0.0895	546154	keystroke_Key.enter	Key.enter	n/a
273.173	13.6305	546346	prompt	n/a	julie mysql therapist chrysler\n
273.9765	0.09	547953	keystroke_j	j	n/a
274.201	0.091	548402	keystroke_u	u	n/a
274.412	0.12	548824	keystroke_l	l	n/a
274.607	0.105	549214	keystroke_i	i	n/a
275.027	0.135	550054	keystroke_e	e	n/a
275.191	0.151	550382	keystroke_Key.space	Key.space	n/a
275.582	0.105	551164	keystroke_m	m	n/a
275.8515	0.105	551703	keystroke_u	u	n/a
276.0015	0.1505	552003	keystroke_s	s	n/a
276.7675	0.09	553535	keystroke_u	u	n/a
277.9665	0.135	555933	keystroke_Key.backspace	Key.backspace	n/a
278.1165	0.135	556233	keystroke_Key.backspace	Key.backspace	n/a
278.4765	0.15	556953	keystroke_Key.backspace	Key.backspace	n/a
279.152	0.105	558304	keystroke_y	y	n/a
279.347	0.1495	558694	keystroke_s	s	n/a
280.007	0.1495	560014	keystroke_q	q	n/a
280.442	0.12	560884	keystroke_l	l	n/a
280.8165	0.1355	561633	keystroke_Key.space	Key.space	n/a
281.027	0.12	562054	keystroke_t	t	n/a
281.192	0.075	562384	keystroke_h	h	n/a
281.327	0.2095	562654	keystroke_e	e	n/a
281.551	0.106	563102	keystroke_r	r	n/a
281.717	0.18	563434	keystroke_a	a	n/a
281.926	0.09	563852	keystroke_p	p	n/a
282.121	0.09	564242	keystroke_i	i	n/a
282.242	0.149	564484	keystroke_s	s	n/a
283.097	0.015	566194	keystroke_t	t	n/a
283.127	0.09	566254	keystroke_Key.space	Key.space	n/a
283.3215	0.195	566643	keystroke_c	c	n/a
283.487	0.0905	566974	keystroke_h	h	n/a
283.742	0.15	567484	keystroke_r	r	n/a
283.952	0.09	567904	keystroke_y	y	n/a
284.1765	0.18	568353	keystroke_s	s	n/a
284.4615	0.105	568923	keystroke_l	l	n/a
284.657	0.2245	569314	keystroke_e	e	n/a
284.9115	0.1355	569823	keystroke_r	r	n/a
285.302	0.1195	570604	keystroke_\	\	n/a
286.3515	0.0755	572703	keystroke_Key.backspace	Key.backspace	n/a
286.727	0.075	573454	keystroke_Key.enter	Key.enter	n/a
286.808	8.215	573616	prompt	n/a	mpeg adult allocated milk\n
288.3315	0.1205	576663	keystroke_m	m	n/a
288.6465	0.1495	577293	keystroke_p	p	n/a
288.8115	0.1055	577623	keystroke_e	e	n/a
289.3365	0.1355	578673	keystroke_g	g	n/a
289.5165	0.1805	579033	keystroke_Key.space	Key.space	n/a
289.652	0.1495	579304	keystroke_a	a	n/a
289.861	0.2105	579722	keystroke_d	d	n/a
290.1765	0.09	580353	keystroke_u	u	n/a
290.402	0.1345	580804	keystroke_l	l	n/a
290.6265	0.12	581253	keystroke_t	t	n/a
290.8515	0.135	581703	keystroke_Key.space	Key.space	n/a
291.017	0.134	582034	keystroke_a	a	n/a
291.286	0.09	582572	keystroke_l	l	n/a
291.482	0.09	582964	keystroke_l	l	n/a
291.7215	0.1355	583443	keystroke_o	o	n/a
291.887	0.149	583774	keystroke_c	c	n/a
292.142	0.2545	584284	keystroke_a	a	n/a
292.3975	0.179	584795	keystroke_t	t	n/a
292.5915	0.0895	585183	keystroke_e	e	n/a
292.802	0.1345	585604	keystroke_d	d	n/a
292.8915	0.1355	585783	keystroke_Key.space	Key.space	n/a
293.146	0.106	586292	keystroke_m	m	n/a
293.416	0.0755	586832	keystroke_i	i	n/a
293.6115	0.105	587223	keystroke_l	l	n/a
293.822	0.09	587644	keystroke_k	k	n/a
294.947	0.075	589894	keystroke_Key.enter	Key.enter	n/a
295.04	10.543	590080	prompt	n/a	concerts mirror amazon angel\n
295.832	0.119	591664	keystroke_c	c	n/a
295.997	0.105	591994	keystroke_o	o	n/a
296.2215	0.105	592443	keystroke_n	n	n/a
296.357	0.1045	592714	keystroke_c	c	n/a
296.6715	0.2095	593343	keystroke_e	e	n/a
296.8515	0.1195	593703	keystroke_r	r	n/a
297.1065	0.1045	594213	keystroke_t	t	n/a
297.3465	0.1355	594693	keystroke_s	s	n/a
297.5115	0.12	595023	keystroke_Key.space	Key.space	n/a
297.7515	0.075	595503	keystroke_m	m	n/a
297.9615	0.105	595923	keystroke_i	i	n/a
298.1865	0.06	596373	keystroke_r	r	n/a
298.337	0.075	596674	keystroke_r	r	n/a
298.4715	0.12	596943	keystroke_o	o	n/a
298.6965	0.105	597393	keystroke_r	r	n/a
298.8315	0.135	597663	keystroke_Key.space	Key.space	n/a
299.0265	0.165	598053	keystroke_a	a	n/a
299.177	0.0745	598354	keystroke_m	m	n/a
299.3865	0.105	598773	keystroke_a	a	n/a
299.671	0.075	599342	keystroke_z	z	n/a
299.762	0.104	599524	keystroke_o	o	n/a
300.796	0.105	601592	keystroke_o	o	n/a
301.0215	0.15	602043	keystroke_n	n	n/a
301.3065	0.135	602613	keystroke_Key.space	Key.space	n/a
301.4715	0.195	602943	keystroke_a	a	n/a
301.6065	0.1045	603213	keystroke_n	n	n/a
302.161	0.075	604322	keystroke_Key.backspace	Key.backspace	n/a
302.3415	0.0745	604683	keystroke_Key.backspace	Key.backspace	n/a
302.521	0.06	605042	keystroke_Key.backspace	Key.backspace	n/a
302.7015	0.075	605403	keystroke_Key.backspace	Key.backspace	n/a
303.3165	0.0895	606633	keystroke_Key.backspace	Key.backspace	n/a
303.631	0.09	607262	keystroke_n	n	n/a
303.826	0.18	607652	keystroke_Key.space	Key.space	n/a
304.022	0.179	608044	keystroke_a	a	n/a
304.216	0.0905	608432	keystroke_n	n	n/a
304.3965	0.1045	608793	keystroke_g	g	n/a
304.6065	0.135	609213	keystroke_e	e	n/a
305.0865	0.105	610173	keystroke_l	l	n/a
305.492	0.0885	610984	keystroke_Key.enter	Key.enter	n/a
305.586	13.4075	611172	prompt	n/a	buck responsibility graphical electron\n
306.5265	0.105	613053	keystroke_b	b	n/a
306.706	0.106	613412	keystroke_u	u	n/a
306.947	0.15	613894	keystroke_c	c	n/a
307.111	0.076	614222	keystroke_k	k	n/a
307.306	0.1655	614612	keystroke_Key.space	Key.space	n/a
307.517	0.12	615034	keystroke_r	r	n/a
307.607	0.1795	615214	keystroke_e	e	n/a
308.0415	0.135	616083	keystroke_s	s	n/a
308.6565	0.1505	617313	keystroke_p	p	n/a
308.9865	0.1195	617973	keystroke_o	o	n/a
309.2865	0.12	618573	keystroke_n	n	n/a
309.5115	0.15	619023	keystroke_s	s	n/a
309.7215	0.105	619443	keystroke_i	i	n/a
310.0205	0.166	620041	keystroke_b	b	n/a
310.232	0.06	620464	keystroke_i	i	n/a
310.5165	0.135	621033	keystroke_l	l	n/a
310.7565	0.1055	621513	keystroke_i	i	n/a
310.996	0.1055	621992	keystroke_t	t	n/a
311.701	0.09	623402	keystroke_y	y	n/a
311.9415	0.15	623883	keystroke_Key.space	Key.space	n/a
312.1065	0.06	624213	keystroke_g	g	n/a
312.3165	0.1205	624633	keystroke_r	r	n/a
312.4515	0.1955	624903	keystroke_a	a	n/a
312.6315	0.105	625263	keystroke_p	p	n/a
312.8115	0.09	625623	keystroke_h	h	n/a
313.0065	0.105	626013	keystroke_i	i	n/a
313.3215	0.165	626643	keystroke_c	c	n/a
313.591	0.151	627182	keystroke_a	a	n/a
313.6965	0.1655	627393	keystroke_l	l	n/a
313.846	0.1805	627692	keystroke_Key.space	Key.space	n/a
314.0415	0.1045	628083	keystroke_e	e	n/a
314.1315	0.12	628263	keystroke_l	l	n/a
314.4915	0.2105	628983	keystroke_c	c	n/a
314.8515	0.1205	629703	keystroke_t	t	n/a
316.951	0.0605	633902	keystroke_Key.backspace	Key.backspace	n/a
317.1165	0.1195	634233	keystroke_Key.backspace	Key.backspace	n/a
317.266	0.09	634532	keystroke_e	e	n/a
317.551	0.1955	635102	keystroke_c	c	n/a
317.911	0.09	635822	keystroke_t	t	n/a
318.121	0.1055	636242	keystroke_r	r	n/a
318.241	0.105	636482	keystroke_o	o	n/a
318.481	0.106	636962	keystroke_n	n	n/a
318.8865	0.105	637773	keystroke_Key.enter	Key.enter	n/a
318.998	10.84	637996	prompt	n/a	denmark chrysler pleased glad\n
319.741	0.1055	639482	keystroke_d	d	n/a
319.966	0.15	639932	keystroke_e	e	n/a
320.1315	0.0745	640263	keystroke_n	n	n/a
320.3715	0.1205	640743	keystroke_m	m	n/a
320.507	0.2245	641014	keystroke_a	a	n/a
320.7015	0.12	641403	keystroke_r	r	n/a
320.8815	0.0905	641763	keystroke_k	k	n/a
321.1215	0.1495	642243	keystroke_Key.space	Key.space	n/a
321.4665	0.1945	642933	keystroke_c	c	n/a
321.856	0.09	643712	keystroke_y	y	n/a
322.771	0.075	645542	keystroke_Key.backspace	Key.backspace	n/a
323.687	0.1045	647374	keystroke_h	h	n/a
324.0765	0.1205	648153	keystroke_r	r	n/a
324.3015	0.075	648603	keystroke_y	y	n/a
324.526	0.1055	649052	keystroke_s	s	n/a
324.7515	0.105	649503	keystroke_l	l	n/a
324.902	0.1645	649804	keystroke_e	e	n/a
325.2765	0.119	650553	keystroke_r	r	n/a
325.4265	0.149	650853	keystroke_Key.space	Key.space	n/a
326.0265	0.135	652053	keystroke_p	p	n/a
326.3115	0.15	652623	keystroke_l	l	n/a
326.4765	0.09	652953	keystroke_e	e	n/a
326.7765	0.1795	653553	keystroke_a	a	n/a
327.046	0.106	654092	keystroke_s	s	n/a
327.271	0.0895	654542	keystroke_e	e	n/a
327.4965	0.105	654993	keystroke_d	d	n/a
327.721	0.1495	655442	keystroke_Key.space	Key.space	n/a
328.096	0.1205	656192	keystroke_g	g	n/a
328.246	0.135	656492	keystroke_l	l	n/a
328.382	0.134	656764	keystroke_a	a	n/a
328.576	0.18	657152	keystroke_d	d	n/a
329.7615	0.075	659523	keystroke_Key.enter	Key.enter	n/a
329.8435	11.2145	659687	prompt	n/a	medline second veteran luxury\n
330.8265	0.12	661653	keystroke_m	m	n/a
330.991	0.0905	661982	keystroke_e	e	n/a
331.261	0.106	662522	keystroke_d	d	n/a
331.726	0.076	663452	keystroke_i	i	n/a
332.341	0.105	664682	keystroke_Key.backspace	Key.backspace	n/a
333.497	0.119	666994	keystroke_l	l	n/a
333.7515	0.0905	667503	keystroke_i	i	n/a
334.621	0.1055	669242	keystroke_n	n	n/a
334.8465	0.15	669693	keystroke_e	e	n/a
335.0415	0.1505	670083	keystroke_Key.space	Key.space	n/a
335.3115	0.1345	670623	keystroke_s	s	n/a
335.5365	0.0905	671073	keystroke_e	e	n/a
335.837	0.119	671674	keystroke_c	c	n/a
335.9715	0.12	671943	keystroke_o	o	n/a
336.1665	0.12	672333	keystroke_n	n	n/a
336.331	0.1355	672662	keystroke_d	d	n/a
336.4965	0.149	672993	keystroke_Key.space	Key.space	n/a
336.8415	0.135	673683	keystroke_v	v	n/a
337.1265	0.18	674253	keystroke_e	e	n/a
337.4415	0.12	674883	keystroke_t	t	n/a
337.6665	0.2255	675333	keystroke_e	e	n/a
337.936	0.12	675872	keystroke_r	r	n/a
338.1765	0.1805	676353	keystroke_a	a	n/a
338.3715	0.1045	676743	keystroke_n	n	n/a
338.5655	0.121	677131	keystroke_Key.space	Key.space	n/a
338.777	0.1195	677554	keystroke_l	l	n/a
339.077	0.089	678154	keystroke_u	u	n/a
339.436	0.121	678872	keystroke_x	x	n/a
339.7365	0.1195	679473	keystroke_u	u	n/a
340.4115	0.15	680823	keystroke_r	r	n/a
340.5465	0.06	681093	keystroke_y	y	n/a
340.9515	0.105	681903	keystroke_Key.enter	Key.enter	n/a
341.063	7.3595	682126	prompt	n/a	enables deals roster manor\n
341.9565	0.135	683913	keystroke_e	e	n/a
342.0765	0.075	684153	keystroke_n	n	n/a
342.211	0.1655	684422	keystroke_a	a	n/a
342.4815	0.1345	684963	keystroke_b	b	n/a
342.631	0.1205	685262	keystroke_l	l	n/a
342.7955	0.121	685591	keystroke_e	e	n/a
343.021	0.15	686042	keystroke_s	s	n/a
343.156	0.15	686312	keystroke_Key.space	Key.space	n/a
343.291	0.1055	686582	keystroke_d	d	n/a
343.5465	0.09	687093	keystroke_e	e	n/a
343.7555	0.136	687511	keystroke_a	a	n/a
343.8615	0.12	687723	keystroke_l	l	n/a
344.0265	0.21	688053	keystroke_s	s	n/a
344.2215	0.105	688443	keystroke_Key.space	Key.space	n/a
344.6415	0.1045	689283	keystroke_r	r	n/a
344.7765	0.1645	689553	keystroke_o	o	n/a
344.9715	0.0595	689943	keystroke_s	s	n/a
345.541	0.1205	691082	keystroke_t	t	n/a
345.8565	0.1345	691713	keystroke_e	e	n/a
346.111	0.12	692222	keystroke_r	r	n/a
346.276	0.1355	692552	keystroke_Key.space	Key.space	n/a
346.516	0.09	693032	keystroke_m	m	n/a
346.636	0.165	693272	keystroke_a	a	n/a
346.7865	0.09	693573	keystroke_n	n	n/a
347.0115	0.1195	694023	keystroke_o	o	n/a
347.1915	0.1205	694383	keystroke_r	r	n/a
348.2865	0.135	696573	keystroke_Key.enter	Key.enter	n/a
348.4255	9.342	696851	prompt	n/a	workout skin johnny paintings\n
349.321	0.15	698642	keystroke_w	w	n/a
349.9065	0.1345	699813	keystroke_o	o	n/a
350.1015	0.0895	700203	keystroke_r	r	n/a
350.281	0.12	700562	keystroke_k	k	n/a
350.536	0.225	701072	keystroke_o	o	n/a
350.686	0.2105	701372	keystroke_u	u	n/a
350.9865	0.0905	701973	keystroke_t	t	n/a
351.166	0.15	702332	keystroke_Key.space	Key.space	n/a
351.3315	0.18	702663	keystroke_s	s	n/a
351.5265	0.09	703053	keystroke_k	k	n/a
352.7565	0.105	705513	keystroke_i	i	n/a
353.0115	0.1645	706023	keystroke_n	n	n/a
353.2955	0.1355	706591	keystroke_Key.space	Key.space	n/a
353.5965	0.0915	707193	keystroke_j	j	n/a
353.7615	0.1205	707523	keystroke_o	o	n/a
353.971	0.076	707942	keystroke_h	h	n/a
354.2565	0.06	708513	keystroke_n	n	n/a
354.4065	0.075	708813	keystroke_n	n	n/a
354.6915	0.1045	709383	keystroke_y	y	n/a
355.141	0.12	710282	keystroke_Key.space	Key.space	n/a
355.3215	0.18	710643	keystroke_p	p	n/a
355.5315	0.2105	711063	keystroke_a	a	n/a
355.6815	0.075	711363	keystroke_i	i	n/a
355.8915	0.09	711783	keystroke_n	n	n/a
356.1465	0.105	712293	keystroke_t	t	n/a
356.2815	0.0895	712563	keystroke_i	i	n/a
356.491	0.091	712982	keystroke_n	n	n/a
356.656	0.12	713312	keystroke_g	g	n/a
356.911	0.1355	713822	keystroke_s	s	n/a
357.676	0.09	715352	keystroke_Key.enter	Key.enter	n/a
357.772	11.786	715544	prompt	n/a	answered packaging muscle trailers\n
358.5765	0.1345	717153	keystroke_a	a	n/a
358.726	0.105	717452	keystroke_n	n	n/a
358.906	0.12	717812	keystroke_s	s	n/a
359.236	0.2255	718472	keystroke_w	w	n/a
359.8365	0.12	719673	keystroke_e	e	n/a
360.092	0.1945	720184	keystroke_r	r	n/a
360.2705	0.1515	720541	keystroke_e	e	n/a
360.572	0.135	721144	keystroke_d	d	n/a
361.0655	0.1505	722131	keystroke_Key.space	Key.space	n/a
361.3065	0.179	722613	keystroke_p	p	n/a
361.532	0.1195	723064	keystroke_a	a	n/a
361.801	0.18	723602	keystroke_c	c	n/a
362.686	0.105	725372	keystroke_k	k	n/a
363.001	0.15	726002	keystroke_a	a	n/a
363.4215	0.15	726843	keystroke_g	g	n/a
363.6465	0.105	727293	keystroke_i	i	n/a
363.887	0.1045	727774	keystroke_n	n	n/a
364.066	0.1055	728132	keystroke_g	g	n/a
364.2315	0.1495	728463	keystroke_Key.space	Key.space	n/a
364.517	0.09	729034	keystroke_m	m	n/a
364.8165	0.12	729633	keystroke_u	u	n/a
365.056	0.1355	730112	keystroke_s	s	n/a
365.311	0.165	730622	keystroke_c	c	n/a
365.5665	0.09	731133	keystroke_l	l	n/a
365.761	0.195	731522	keystroke_e	e	n/a
365.8965	0.1645	731793	keystroke_Key.space	Key.space	n/a
366.436	0.1055	732872	keystroke_r	r	n/a
367.4705	0.1205	734941	keystroke_Key.backspace	Key.backspace	n/a
367.801	0.075	735602	keystroke_t	t	n/a
368.0415	0.105	736083	keystroke_r	r	n/a
368.2365	0.2105	736473	keystroke_a	a	n/a
368.401	0.0755	736802	keystroke_i	i	n/a
368.6415	0.1345	737283	keystroke_l	l	n/a
368.761	0.195	737522	keystroke_e	e	n/a
368.9415	0.1195	737883	keystroke_r	r	n/a
369.2115	0.12	738423	keystroke_s	s	n/a
369.4215	0.134	738843	keystroke_Key.enter	Key.enter	n/a
369.563	7.615	739126	prompt	n/a	scotland lion flux measuring\n
370.3965	0.1055	740793	keystroke_s	s	n/a
370.5915	0.225	741183	keystroke_c	c	n/a
370.787	0.1195	741574	keystroke_o	o	n/a
371.0415	0.1205	742083	keystroke_t	t	n/a
371.267	0.1045	742534	keystroke_l	l	n/a
371.4315	0.179	742863	keystroke_a	a	n/a
371.5665	0.1045	743133	keystroke_n	n	n/a
371.701	0.1805	743402	keystroke_d	d	n/a
372.1065	0.18	744213	keystroke_Key.space	Key.space	n/a
372.3465	0.105	744693	keystroke_l	l	n/a
372.6015	0.0755	745203	keystroke_i	i	n/a
372.7515	0.09	745503	keystroke_o	o	n/a
372.9765	0.09	745953	keystroke_n	n	n/a
373.2465	0.135	746493	keystroke_Key.space	Key.space	n/a
373.486	0.135	746972	keystroke_f	f	n/a
373.636	0.09	747272	keystroke_l	l	n/a
373.861	0.1055	747722	keystroke_u	u	n/a
373.996	0.15	747992	keystroke_x	x	n/a
374.3115	0.135	748623	keystroke_Key.space	Key.space	n/a
374.5655	0.106	749131	keystroke_m	m	n/a
374.701	0.1355	749402	keystroke_e	e	n/a
374.9265	0.1345	749853	keystroke_a	a	n/a
375.2115	0.18	750423	keystroke_s	s	n/a
375.9015	0.1195	751803	keystroke_u	u	n/a
376.156	0.121	752312	keystroke_r	r	n/a
376.336	0.09	752672	keystroke_i	i	n/a
376.531	0.1205	753062	keystroke_n	n	n/a
376.7115	0.12	753423	keystroke_g	g	n/a
377.0565	0.1195	754113	keystroke_Key.enter	Key.enter	n/a
377.1835	23.5445	754367	prompt	n/a	preserve randy models nutritional\n
377.9415	0.18	755883	keystroke_p	p	n/a
378.1665	0.105	756333	keystroke_e	e	n/a
378.6005	0.121	757201	keystroke_Key.backspace	Key.backspace	n/a
378.841	0.1655	757682	keystroke_r	r	n/a
378.961	0.1505	757922	keystroke_e	e	n/a
379.246	0.2105	758492	keystroke_s	s	n/a
379.5015	0.1645	759003	keystroke_e	e	n/a
379.727	0.074	759454	keystroke_r	r	n/a
380.0415	0.12	760083	keystroke_v	v	n/a
380.2815	0.165	760563	keystroke_e	e	n/a
380.6565	0.134	761313	keystroke_Key.space	Key.space	n/a
380.8655	0.121	761731	keystroke_f	f	n/a
381.3465	0.105	762693	keystroke_Key.backspace	Key.backspace	n/a
381.5115	0.105	763023	keystroke_r	r	n/a
381.7215	0.164	763443	keystroke_a	a	n/a
381.8415	0.09	763683	keystroke_n	n	n/a
382.036	0.21	764072	keystroke_d	d	n/a
382.261	0.106	764522	keystroke_y	y	n/a
382.486	0.135	764972	keystroke_Key.space	Key.space	n/a
382.726	0.106	765452	keystroke_m	m	n/a
382.9065	0.1645	765813	keystroke_o	o	n/a
383.041	0.15	766082	keystroke_d	d	n/a
383.311	0.136	766622	keystroke_e	e	n/a
383.611	0.195	767222	keystroke_s	s	n/a
384.451	0.1055	768902	keystroke_Key.backspace	Key.backspace	n/a
384.826	0.135	769652	keystroke_l	l	n/a
385.006	0.15	770012	keystroke_s	s	n/a
385.171	0.1655	770342	keystroke_Key.space	Key.space	n/a
385.4415	0.105	770883	keystroke_n	n	n/a
385.741	0.1205	771482	keystroke_u	u	n/a
386.146	0.0905	772292	keystroke_t	t	n/a
386.386	0.105	772772	keystroke_r	r	n/a
386.5065	0.0905	773013	keystroke_i	i	n/a
386.806	0.1055	773612	keystroke_t	t	n/a
388.141	0.09	776282	keystroke_o	o	n/a
388.3665	0.09	776733	keystroke_n	n	n/a
388.531	0.1655	777062	keystroke_a	a	n/a
388.681	0.12	777362	keystroke_l	l	n/a
393.5745	0.0265	787149	keystroke_Key.backspace	Key.backspace	n/a
393.7355	0.045	787471	keystroke_Key.backspace	Key.backspace	n/a
394.0655	0.0755	788131	keystroke_Key.backspace	Key.backspace	n/a
394.2905	0.076	788581	keystroke_Key.backspace	Key.backspace	n/a
396.828	0.043	793656	keystroke_Key.backspace	Key.backspace	n/a
398.161	0.135	796322	keystroke_t	t	n/a
398.3715	0.1495	796743	keystroke_i	i	n/a
398.536	0.1055	797072	keystroke_o	o	n/a
398.746	0.1345	797492	keystroke_n	n	n/a
398.8965	0.135	797793	keystroke_a	a	n/a
399.0015	0.1345	798003	keystroke_l	l	n/a
400.606	0.1205	801212	keystroke_Key.enter	Key.enter	n/a
400.733	13.045	801466	prompt	n/a	sims elite reunion deeper\n
401.7615	0.165	803523	keystroke_s	s	n/a
401.9115	0.075	803823	keystroke_i	i	n/a
402.136	0.09	804272	keystroke_m	m	n/a
402.316	0.12	804632	keystroke_e	e	n/a
402.466	0.135	804932	keystroke_Key.space	Key.space	n/a
402.691	0.1205	805382	keystroke_s	s	n/a
402.781	0.12	805562	keystroke_l	l	n/a
403.0215	0.0895	806043	keystroke_i	i	n/a
403.2165	0.1345	806433	keystroke_t	t	n/a
403.456	0.1655	806912	keystroke_e	e	n/a
403.6355	0.1205	807271	keystroke_Key.space	Key.space	n/a
403.9965	0.1495	807993	keystroke_r	r	n/a
404.131	0.24	808262	keystroke_e	e	n/a
405.421	0.075	810842	keystroke_Key.backspace	Key.backspace	n/a
405.6315	0.0595	811263	keystroke_Key.backspace	Key.backspace	n/a
405.811	0.06	811622	keystroke_Key.backspace	Key.backspace	n/a
405.9905	0.061	811981	keystroke_Key.backspace	Key.backspace	n/a
406.1705	0.0605	812341	keystroke_Key.backspace	Key.backspace	n/a
406.336	0.0445	812672	keystroke_Key.backspace	Key.backspace	n/a
406.5305	0.0305	813061	keystroke_Key.backspace	Key.backspace	n/a
406.7715	0.0895	813543	keystroke_Key.backspace	Key.backspace	n/a
406.9815	0.0745	813963	keystroke_Key.backspace	Key.backspace	n/a
407.776	0.1045	815552	keystroke_Key.backspace	Key.backspace	n/a
408.1215	0.134	816243	keystroke_s	s	n/a
408.421	0.1345	816842	keystroke_Key.space	Key.space	n/a
408.6905	0.1655	817381	keystroke_e	e	n/a
408.841	0.12	817682	keystroke_l	l	n/a
409.096	0.105	818192	keystroke_i	i	n/a
409.351	0.12	818702	keystroke_t	t	n/a
409.591	0.165	819182	keystroke_e	e	n/a
409.786	0.135	819572	keystroke_Key.space	Key.space	n/a
409.981	0.12	819962	keystroke_r	r	n/a
410.221	0.1655	820442	keystroke_e	e	n/a
410.551	0.09	821102	keystroke_u	u	n/a
410.8065	0.1195	821613	keystroke_n	n	n/a
411.076	0.1055	822152	keystroke_i	i	n/a
411.256	0.1495	822512	keystroke_o	o	n/a
411.496	0.135	822992	keystroke_n	n	n/a
411.736	0.1645	823472	keystroke_Key.space	Key.space	n/a
411.916	0.1205	823832	keystroke_d	d	n/a
412.6365	0.075	825273	keystroke_e	e	n/a
412.8315	0.089	825663	keystroke_e	e	n/a
412.9505	0.1205	825901	keystroke_p	p	n/a
413.116	0.18	826232	keystroke_e	e	n/a
413.356	0.12	826712	keystroke_r	r	n/a
413.671	0.105	827342	keystroke_Key.enter	Key.enter	n/a
413.7825	9.2505	827565	prompt	n/a	medicaid mayor weblogs silence\n
414.976	0.1355	829952	keystroke_m	m	n/a
415.126	0.09	830252	keystroke_e	e	n/a
415.381	0.105	830762	keystroke_d	d	n/a
415.516	0.1205	831032	keystroke_i	i	n/a
415.681	0.12	831362	keystroke_c	c	n/a
415.891	0.1505	831782	keystroke_a	a	n/a
416.0415	0.0745	832083	keystroke_i	i	n/a
416.176	0.1945	832352	keystroke_d	d	n/a
416.3555	0.12	832711	keystroke_Key.space	Key.space	n/a
416.611	0.1195	833222	keystroke_m	m	n/a
416.7615	0.179	833523	keystroke_a	a	n/a
417.0765	0.074	834153	keystroke_y	y	n/a
417.3615	0.119	834723	keystroke_o	o	n/a
417.5705	0.106	835141	keystroke_r	r	n/a
417.6905	0.135	835381	keystroke_Key.space	Key.space	n/a
417.9165	0.21	835833	keystroke_w	w	n/a
418.096	0.1955	836192	keystroke_e	e	n/a
418.501	0.1195	837002	keystroke_b	b	n/a
418.711	0.105	837422	keystroke_l	l	n/a
418.966	0.135	837932	keystroke_o	o	n/a
419.5215	0.1195	839043	keystroke_g	g	n/a
419.761	0.15	839522	keystroke_s	s	n/a
419.971	0.135	839942	keystroke_Key.space	Key.space	n/a
420.2265	0.1495	840453	keystroke_s	s	n/a
420.391	0.09	840782	keystroke_i	i	n/a
420.6165	0.1195	841233	keystroke_l	l	n/a
420.916	0.12	841832	keystroke_e	e	n/a
421.021	0.09	842042	keystroke_n	n	n/a
421.561	0.165	843122	keystroke_c	c	n/a
421.966	0.12	843932	keystroke_e	e	n/a
422.941	0.09	845882	keystroke_Key.enter	Key.enter	n/a
423.038	16.78	846076	prompt	n/a	bookmark frozen hartford estates\n
423.9015	0.1195	847803	keystroke_b	b	n/a
424.0665	0.1045	848133	keystroke_o	o	n/a
424.2755	0.091	848551	keystroke_o	o	n/a
425.386	0.0905	850772	keystroke_k	k	n/a
425.611	0.12	851222	keystroke_m	m	n/a
425.761	0.24	851522	keystroke_a	a	n/a
426.016	0.12	852032	keystroke_r	r	n/a
426.1965	0.1045	852393	keystroke_k	k	n/a
426.4965	0.134	852993	keystroke_Key.space	Key.space	n/a
426.6915	0.119	853383	keystroke_f	f	n/a
426.9305	0.136	853861	keystroke_r	r	n/a
427.2465	0.165	854493	keystroke_o	o	n/a
427.531	0.165	855062	keystroke_z	z	n/a
427.816	0.165	855632	keystroke_e	e	n/a
428.161	0.1495	856322	keystroke_n	n	n/a
428.281	0.1495	856562	keystroke_Key.space	Key.space	n/a
428.506	0.12	857012	keystroke_h	h	n/a
428.6105	0.2555	857221	keystroke_a	a	n/a
429.5705	0.105	859141	keystroke_Key.backspace	Key.backspace	n/a
429.7815	0.105	859563	keystroke_Key.backspace	Key.backspace	n/a
430.171	0.12	860342	keystroke_h	h	n/a
430.321	0.24	860642	keystroke_a	a	n/a
430.591	0.105	861182	keystroke_r	r	n/a
430.861	0.09	861722	keystroke_t	t	n/a
431.491	0.105	862982	keystroke_o	o	n/a
432.976	0.045	865952	keystroke_Key.backspace	Key.backspace	n/a
433.1415	0.119	866283	keystroke_f	f	n/a
433.3665	0.104	866733	keystroke_o	o	n/a
433.5165	0.105	867033	keystroke_r	r	n/a
433.7865	0.195	867573	keystroke_d	d	n/a
434.1015	0.149	868203	keystroke_Key.space	Key.space	n/a
434.3415	0.104	868683	keystroke_e	e	n/a
434.5355	0.211	869071	keystroke_s	s	n/a
435.0005	0.105	870001	keystroke_t	t	n/a
435.2115	0.2395	870423	keystroke_a	a	n/a
435.496	0.12	870992	keystroke_t	t	n/a
435.721	0.12	871442	keystroke_e	e	n/a
435.946	0.1345	871892	keystroke_s	s	n/a
439.697	0.119	879394	keystroke_Key.enter	Key.enter	n/a
439.8225	9.8955	879645	prompt	n/a	coat jury sexuality degrees\n
440.5965	0.195	881193	keystroke_c	c	n/a
441.1965	0.15	882393	keystroke_o	o	n/a
441.406	0.1955	882812	keystroke_a	a	n/a
441.7065	0.104	883413	keystroke_t	t	n/a
441.9015	0.149	883803	keystroke_Key.space	Key.space	n/a
442.1555	0.09	884311	keystroke_j	j	n/a
442.3965	0.0895	884793	keystroke_u	u	n/a
442.5765	0.12	885153	keystroke_r	r	n/a
442.741	0.09	885482	keystroke_y	y	n/a
442.951	0.15	885902	keystroke_Key.space	Key.space	n/a
443.146	0.1205	886292	keystroke_s	s	n/a
443.3855	0.09	886771	keystroke_e	e	n/a
444.796	0.165	889592	keystroke_x	x	n/a
445.3065	0.1345	890613	keystroke_u	u	n/a
445.5155	0.1655	891031	keystroke_a	a	n/a
445.9665	0.089	891933	keystroke_l	l	n/a
446.2065	0.12	892413	keystroke_l	l	n/a
446.5215	0.075	893043	keystroke_y	y	n/a
446.7005	0.1505	893401	keystroke_Key.space	Key.space	n/a
446.881	0.105	893762	keystroke_d	d	n/a
447.106	0.135	894212	keystroke_e	e	n/a
447.391	0.105	894782	keystroke_g	g	n/a
447.6165	0.2545	895233	keystroke_r	r	n/a
447.811	0.15	895622	keystroke_e	e	n/a
448.081	0.09	896162	keystroke_e	e	n/a
448.291	0.1655	896582	keystroke_s	s	n/a
449.596	0.12	899192	keystroke_Key.enter	Key.enter	n/a
449.723	15.7145	899446	prompt	n/a	population comic syndrome adams\n
450.556	0.165	901112	keystroke_p	p	n/a
450.796	0.12	901592	keystroke_o	o	n/a
451.036	0.1655	902072	keystroke_p	p	n/a
451.261	0.1055	902522	keystroke_u	u	n/a
451.516	0.15	903032	keystroke_l	l	n/a
451.786	0.135	903572	keystroke_a	a	n/a
452.056	0.105	904112	keystroke_t	t	n/a
452.236	0.0905	904472	keystroke_i	i	n/a
452.417	0.09	904834	keystroke_o	o	n/a
452.6265	0.179	905253	keystroke_n	n	n/a
452.8505	0.135	905701	keystroke_Key.space	Key.space	n/a
453.0765	0.21	906153	keystroke_c	c	n/a
453.2865	0.09	906573	keystroke_o	o	n/a
453.4805	0.121	906961	keystroke_m	m	n/a
453.751	0.0455	907502	keystroke_i	i	n/a
453.946	0.195	907892	keystroke_c	c	n/a
454.351	0.18	908702	keystroke_Key.space	Key.space	n/a
454.831	0.1195	909662	keystroke_s	s	n/a
455.3715	0.0895	910743	keystroke_n	n	n/a
455.986	0.09	911972	keystroke_Key.backspace	Key.backspace	n/a
456.3755	0.031	912751	keystroke_y	y	n/a
457.156	0.1205	914312	keystroke_n	n	n/a
457.3665	0.1645	914733	keystroke_d	d	n/a
457.666	0.1355	915332	keystroke_r	r	n/a
458.0555	0.09	916111	keystroke_m	m	n/a
458.7765	0.044	917553	keystroke_Key.backspace	Key.backspace	n/a
459.121	0.105	918242	keystroke_o	o	n/a
459.5115	0.105	919023	keystroke_e	e	n/a
459.631	0.165	919262	keystroke_Key.space	Key.space	n/a
460.126	0.075	920252	keystroke_Key.backspace	Key.backspace	n/a
460.321	0.075	920642	keystroke_Key.backspace	Key.backspace	n/a
460.9355	0.105	921871	keystroke_e	e	n/a
462.436	0.135	924872	keystroke_Key.backspace	Key.backspace	n/a
462.931	0.075	925862	keystroke_m	m	n/a
463.14	0.1055	926280	keystroke_e	e	n/a
463.306	0.1495	926612	keystroke_Key.space	Key.space	n/a
463.471	0.1795	926942	keystroke_a	a	n/a
463.6665	0.1645	927333	keystroke_d	d	n/a
463.8915	0.1495	927783	keystroke_a	a	n/a
464.041	0.09	928082	keystroke_m	m	n/a
464.2205	0.12	928441	keystroke_s	s	n/a
465.346	0.0895	930692	keystroke_Key.enter	Key.enter	n/a
465.4425	7	930885	prompt	n/a	cartoon nuts tone cheers\n
466.2455	0.18	932491	keystroke_c	c	n/a
466.5155	0.1805	933031	keystroke_a	a	n/a
466.7705	0.1205	933541	keystroke_r	r	n/a
467.0855	0.1195	934171	keystroke_t	t	n/a
467.295	0.075	934590	keystroke_o	o	n/a
467.49	0.09	934980	keystroke_o	o	n/a
467.7	0.1205	935400	keystroke_n	n	n/a
467.896	0.165	935792	keystroke_Key.space	Key.space	n/a
468.301	0.09	936602	keystroke_n	n	n/a
468.556	0.105	937112	keystroke_u	u	n/a
468.781	0.0895	937562	keystroke_t	t	n/a
469.006	0.165	938012	keystroke_s	s	n/a
469.231	0.12	938462	keystroke_Key.space	Key.space	n/a
469.456	0.12	938912	keystroke_t	t	n/a
469.591	0.075	939182	keystroke_o	o	n/a
469.7855	0.09	939571	keystroke_n	n	n/a
469.981	0.1055	939962	keystroke_e	e	n/a
470.131	0.135	940262	keystroke_Key.space	Key.space	n/a
470.371	0.12	940742	keystroke_c	c	n/a
470.626	0.0755	941252	keystroke_h	h	n/a
470.8655	0.0905	941731	keystroke_e	e	n/a
471.061	0.1345	942122	keystroke_e	e	n/a
471.301	0.09	942602	keystroke_r	r	n/a
471.5265	0.1795	943053	keystroke_s	s	n/a
472.3505	0.09	944701	keystroke_Key.enter	Key.enter	n/a
472.4505	11.3015	944901	prompt	n/a	terror importantly suggested cities\n
473.521	0.135	947042	keystroke_t	t	n/a
473.716	0.42	947432	keystroke_e	e	n/a
474.331	0.105	948662	keystroke_r	r	n/a
474.541	0.105	949082	keystroke_r	r	n/a
474.691	0.15	949382	keystroke_o	o	n/a
474.976	0.105	949952	keystroke_r	r	n/a
475.156	0.12	950312	keystroke_Key.space	Key.space	n/a
475.3965	0.0745	950793	keystroke_i	i	n/a
475.6365	0.0895	951273	keystroke_m	m	n/a
475.981	0.105	951962	keystroke_p	p	n/a
476.086	0.18	952172	keystroke_o	o	n/a
476.461	0.12	952922	keystroke_r	r	n/a
476.7455	0.1195	953491	keystroke_t	t	n/a
476.941	0.195	953882	keystroke_a	a	n/a
477.1505	0.1205	954301	keystroke_n	n	n/a
477.406	0.12	954812	keystroke_t	t	n/a
477.616	0.1205	955232	keystroke_l	l	n/a
477.931	0.105	955862	keystroke_y	y	n/a
478.1555	0.195	956311	keystroke_Key.space	Key.space	n/a
478.4565	0.1195	956913	keystroke_s	s	n/a
478.591	0.0755	957182	keystroke_u	u	n/a
478.786	0.09	957572	keystroke_g	g	n/a
478.996	0.105	957992	keystroke_g	g	n/a
479.2065	0.1495	958413	keystroke_e	e	n/a
479.85	0.181	959700	keystroke_s	s	n/a
480.1665	0.1495	960333	keystroke_t	t	n/a
480.3005	0.1805	960601	keystroke_e	e	n/a
480.646	0.135	961292	keystroke_d	d	n/a
480.9755	0.165	961951	keystroke_Key.space	Key.space	n/a
481.6205	0.1505	963241	keystroke_c	c	n/a
481.8905	0.09	963781	keystroke_i	i	n/a
482.176	0.12	964352	keystroke_t	t	n/a
482.4165	0.0895	964833	keystroke_i	i	n/a
482.551	0.1355	965102	keystroke_e	e	n/a
482.7605	0.15	965521	keystroke_s	s	n/a
483.6605	0.0905	967321	keystroke_Key.enter	Key.enter	n/a
483.756	9.8665	967512	prompt	n/a	thermal kentucky investing soil\n
484.6365	0.0895	969273	keystroke_t	t	n/a
484.7855	0.1055	969571	keystroke_h	h	n/a
484.9655	0.18	969931	keystroke_e	e	n/a
485.1755	0.12	970351	keystroke_r	r	n/a
485.4305	0.076	970861	keystroke_m	m	n/a
485.611	0.2095	971222	keystroke_a	a	n/a
485.7605	0.195	971521	keystroke_l	l	n/a
485.9405	0.12	971881	keystroke_Key.space	Key.space	n/a
486.166	0.0755	972332	keystroke_k	k	n/a
486.3455	0.1505	972691	keystroke_e	e	n/a
486.4805	0.1055	972961	keystroke_n	n	n/a
486.7805	0.09	973561	keystroke_t	t	n/a
486.991	0.105	973982	keystroke_u	u	n/a
487.3355	0.21	974671	keystroke_c	c	n/a
488.131	0.1195	976262	keystroke_k	k	n/a
488.401	0.09	976802	keystroke_y	y	n/a
488.7005	0.15	977401	keystroke_Key.space	Key.space	n/a
488.9105	0.09	977821	keystroke_i	i	n/a
489.451	0.09	978902	keystroke_n	n	n/a
489.661	0.165	979322	keystroke_v	v	n/a
489.916	0.12	979832	keystroke_e	e	n/a
490.141	0.18	980282	keystroke_s	s	n/a
490.471	0.09	980942	keystroke_t	t	n/a
490.606	0.1045	981212	keystroke_i	i	n/a
490.8165	0.089	981633	keystroke_n	n	n/a
491.011	0.1195	982022	keystroke_g	g	n/a
491.161	0.1645	982322	keystroke_Key.space	Key.space	n/a
491.3855	0.165	982771	keystroke_s	s	n/a
491.5515	0.105	983103	keystroke_o	o	n/a
491.7755	0.12	983551	keystroke_l	l	n/a
492.39	0.09	984780	keystroke_Key.backspace	Key.backspace	n/a
492.7655	0.09	985531	keystroke_i	i	n/a
493.065	0.1205	986130	keystroke_l	l	n/a
493.5305	0.09	987061	keystroke_Key.enter	Key.enter	n/a
493.627	11.6355	987254	prompt	n/a	strings calculated where've kernel\n
494.521	0.1505	989042	keystroke_s	s	n/a
494.8355	0.09	989671	keystroke_t	t	n/a
495.0605	0.1355	990121	keystroke_r	r	n/a
495.2405	0.0755	990481	keystroke_i	i	n/a
495.4505	0.09	990901	keystroke_n	n	n/a
495.646	0.12	991292	keystroke_g	g	n/a
495.901	0.1655	991802	keystroke_s	s	n/a
496.081	0.105	992162	keystroke_Key.space	Key.space	n/a
496.216	0.2105	992432	keystroke_c	c	n/a
496.666	0.135	993332	keystroke_a	a	n/a
496.936	0.105	993872	keystroke_l	l	n/a
497.251	0.21	994502	keystroke_c	c	n/a
497.4455	0.091	994891	keystroke_u	u	n/a
497.7005	0.1505	995401	keystroke_l	l	n/a
497.8655	0.211	995731	keystroke_a	a	n/a
498.151	0.1645	996302	keystroke_t	t	n/a
498.345	0.1205	996690	keystroke_e	e	n/a
498.7355	0.15	997471	keystroke_d	d	n/a
498.9305	0.165	997861	keystroke_Key.space	Key.space	n/a
499.231	0.135	998462	keystroke_w	w	n/a
499.3965	0.0895	998793	keystroke_h	h	n/a
499.561	0.195	999122	keystroke_e	e	n/a
499.801	0.1345	999602	keystroke_r	r	n/a
500.6565	0.104	1001313	keystroke_e	e	n/a
500.8965	0.0895	1001793	keystroke_'	'	n/a
501.256	0.105	1002512	keystroke_v	v	n/a
501.496	0.15	1002992	keystroke_e	e	n/a
501.81	0.1505	1003620	keystroke_Key.space	Key.space	n/a
502.231	0.1205	1004462	keystroke_k	k	n/a
502.455	0.1215	1004910	keystroke_e	e	n/a
502.756	0.105	1005512	keystroke_r	r	n/a
502.9515	0.09	1005903	keystroke_n	n	n/a
503.2665	0.0745	1006533	keystroke_a	a	n/a
503.7155	0.0905	1007431	keystroke_Key.backspace	Key.backspace	n/a
504.0605	0.09	1008121	keystroke_e	e	n/a
504.2255	0.121	1008451	keystroke_l	l	n/a
505.171	0.09	1010342	keystroke_Key.enter	Key.enter	n/a
505.2675	8.35	1010535	prompt	n/a	faqs eugene corn ericsson\n
506.341	0.134	1012682	keystroke_f	f	n/a
506.491	0.105	1012982	keystroke_a	a	n/a
506.8965	0.119	1013793	keystroke_q	q	n/a
507.3005	0.1355	1014601	keystroke_s	s	n/a
507.5555	0.1655	1015111	keystroke_Key.space	Key.space	n/a
507.8265	0.1195	1015653	keystroke_e	e	n/a
508.096	0.09	1016192	keystroke_u	u	n/a
508.321	0.1045	1016642	keystroke_g	g	n/a
508.5155	0.166	1017031	keystroke_e	e	n/a
508.7105	0.0755	1017421	keystroke_n	n	n/a
509.1315	0.1045	1018263	keystroke_e	e	n/a
509.5205	0.15	1019041	keystroke_Key.space	Key.space	n/a
509.8355	0.2105	1019671	keystroke_c	c	n/a
510.0305	0.1205	1020061	keystroke_o	o	n/a
510.286	0.105	1020572	keystroke_r	r	n/a
510.4805	0.09	1020961	keystroke_n	n	n/a
510.69	0.151	1021380	keystroke_Key.space	Key.space	n/a
510.886	0.165	1021772	keystroke_e	e	n/a
511.156	0.105	1022312	keystroke_r	r	n/a
511.321	0.104	1022642	keystroke_i	i	n/a
511.576	0.135	1023152	keystroke_c	c	n/a
511.861	0.09	1023722	keystroke_s	s	n/a
512.086	0.1195	1024172	keystroke_s	s	n/a
512.1905	0.1055	1024381	keystroke_o	o	n/a
512.4005	0.1055	1024801	keystroke_n	n	n/a
513.5405	0.0755	1027081	keystroke_Key.enter	Key.enter	n/a
513.6225	11.5	1027245	prompt	n/a	trailer them individual minimum\n
515.1165	0.09	1030233	keystroke_t	t	n/a
515.341	0.12	1030682	keystroke_r	r	n/a
515.521	0.195	1031042	keystroke_a	a	n/a
515.701	0.09	1031402	keystroke_i	i	n/a
515.941	0.12	1031882	keystroke_l	l	n/a
516.076	0.195	1032152	keystroke_e	e	n/a
516.3315	0.1045	1032663	keystroke_r	r	n/a
516.48	0.1355	1032960	keystroke_Key.space	Key.space	n/a
516.676	0.105	1033352	keystroke_t	t	n/a
516.826	0.0745	1033652	keystroke_h	h	n/a
516.9915	0.1195	1033983	keystroke_e	e	n/a
517.186	0.0745	1034372	keystroke_m	m	n/a
517.426	0.1645	1034852	keystroke_Key.space	Key.space	n/a
517.816	0.075	1035632	keystroke_i	i	n/a
518.07	0.106	1036140	keystroke_n	n	n/a
518.2505	0.135	1036501	keystroke_d	d	n/a
519.031	0.1055	1038062	keystroke_i	i	n/a
519.75	0.031	1039500	keystroke_i	i	n/a
520.261	0.0745	1040522	keystroke_Key.backspace	Key.backspace	n/a
521.326	0.12	1042652	keystroke_v	v	n/a
521.566	0.1055	1043132	keystroke_i	i	n/a
521.731	0.1795	1043462	keystroke_d	d	n/a
521.9105	0.0905	1043821	keystroke_u	u	n/a
522.106	0.18	1044212	keystroke_a	a	n/a
522.241	0.1645	1044482	keystroke_l	l	n/a
522.4505	0.1505	1044901	keystroke_Key.space	Key.space	n/a
522.691	0.1045	1045382	keystroke_m	m	n/a
522.9155	0.0755	1045831	keystroke_i	i	n/a
523.1405	0.105	1046281	keystroke_n	n	n/a
523.3655	0.0745	1046731	keystroke_i	i	n/a
523.606	0.1045	1047212	keystroke_m	m	n/a
523.9055	0.0755	1047811	keystroke_u	u	n/a
524.296	0.105	1048592	keystroke_m	m	n/a
525.0305	0.09	1050061	keystroke_Key.enter	Key.enter	n/a
525.126	9.8815	1050252	prompt	n/a	container reduce pants reached\n
525.9305	0.21	1051861	keystroke_c	c	n/a
526.2905	0.1055	1052581	keystroke_o	o	n/a
526.5005	0.105	1053001	keystroke_n	n	n/a
526.7105	0.1045	1053421	keystroke_t	t	n/a
526.9355	0.18	1053871	keystroke_a	a	n/a
527.1305	0.0755	1054261	keystroke_i	i	n/a
527.3405	0.105	1054681	keystroke_n	n	n/a
527.5205	0.165	1055041	keystroke_e	e	n/a
527.7905	0.09	1055581	keystroke_r	r	n/a
528.0605	0.15	1056121	keystroke_Key.space	Key.space	n/a
528.601	0.135	1057202	keystroke_r	r	n/a
528.796	0.15	1057592	keystroke_e	e	n/a
529.156	0.1495	1058312	keystroke_d	d	n/a
529.3655	0.075	1058731	keystroke_u	u	n/a
529.5605	0.136	1059121	keystroke_c	c	n/a
529.861	0.165	1059722	keystroke_e	e	n/a
530.041	0.135	1060082	keystroke_Key.space	Key.space	n/a
530.266	0.15	1060532	keystroke_p	p	n/a
530.596	0.06	1061192	keystroke_n	n	n/a
531.196	0.0895	1062392	keystroke_Key.backspace	Key.backspace	n/a
531.406	0.15	1062812	keystroke_a	a	n/a
531.525	0.121	1063050	keystroke_n	n	n/a
532.231	0.09	1064462	keystroke_t	t	n/a
532.471	0.15	1064942	keystroke_s	s	n/a
532.681	0.135	1065362	keystroke_Key.space	Key.space	n/a
532.906	0.149	1065812	keystroke_r	r	n/a
533.025	0.195	1066050	keystroke_e	e	n/a
533.326	0.105	1066652	keystroke_a	a	n/a
533.566	0.15	1067132	keystroke_c	c	n/a
533.731	0.075	1067462	keystroke_h	h	n/a
533.895	0.121	1067790	keystroke_e	e	n/a
534.3005	0.0905	1068601	keystroke_d	d	n/a
534.9155	0.09	1069831	keystroke_Key.enter	Key.enter	n/a
535.012	10.0605	1070024	prompt	n/a	euros diane fridge node\n
535.7405	0.1205	1071481	keystroke_e	e	n/a
535.966	0.105	1071932	keystroke_u	u	n/a
536.146	0.105	1072292	keystroke_r	r	n/a
536.2805	0.136	1072561	keystroke_o	o	n/a
536.4455	0.135	1072891	keystroke_s	s	n/a
536.5955	0.15	1073191	keystroke_Key.space	Key.space	n/a
536.7755	0.1955	1073551	keystroke_d	d	n/a
536.926	0.09	1073852	keystroke_i	i	n/a
537.106	0.1345	1074212	keystroke_a	a	n/a
537.2105	0.09	1074421	keystroke_n	n	n/a
537.3905	0.1655	1074781	keystroke_e	e	n/a
537.6905	0.1205	1075381	keystroke_Key.space	Key.space	n/a
542.328	0.043	1084656	keystroke_f	f	n/a
542.5215	0.1195	1085043	keystroke_r	r	n/a
542.7455	0.1055	1085491	keystroke_i	i	n/a
542.881	0.1345	1085762	keystroke_d	d	n/a
543.316	0.03	1086632	keystroke_g	g	n/a
543.421	0.165	1086842	keystroke_e	e	n/a
543.646	0.135	1087292	keystroke_Key.space	Key.space	n/a
543.856	0.105	1087712	keystroke_n	n	n/a
544.036	0.12	1088072	keystroke_o	o	n/a
544.231	0.165	1088462	keystroke_d	d	n/a
544.531	0.12	1089062	keystroke_e	e	n/a
544.9955	0.075	1089991	keystroke_Key.enter	Key.enter	n/a
545.077	8.3065	1090154	prompt	n/a	civil clearing that pollution\n
545.8815	0.1495	1091763	keystroke_c	c	n/a
546.181	0.0895	1092362	keystroke_i	i	n/a
546.421	0.135	1092842	keystroke_v	v	n/a
546.5855	0.075	1093171	keystroke_i	i	n/a
546.8255	0.18	1093651	keystroke_l	l	n/a
547.0355	0.18	1094071	keystroke_Key.space	Key.space	n/a
547.306	0.1945	1094612	keystroke_c	c	n/a
547.5155	0.1055	1095031	keystroke_l	l	n/a
547.6955	0.1355	1095391	keystroke_e	e	n/a
547.9365	0.194	1095873	keystroke_a	a	n/a
548.2215	0.1195	1096443	keystroke_r	r	n/a
548.3865	0.1035	1096773	keystroke_i	i	n/a
548.611	0.09	1097222	keystroke_n	n	n/a
548.761	0.105	1097522	keystroke_g	g	n/a
548.9255	0.1505	1097851	keystroke_Key.space	Key.space	n/a
549.256	0.12	1098512	keystroke_t	t	n/a
549.406	0.075	1098812	keystroke_h	h	n/a
549.661	0.135	1099322	keystroke_a	a	n/a
549.976	0.105	1099952	keystroke_t	t	n/a
550.14	0.181	1100280	keystroke_Key.space	Key.space	n/a
550.4565	0.134	1100913	keystroke_p	p	n/a
551.326	0.1045	1102652	keystroke_o	o	n/a
551.5955	0.075	1103191	keystroke_l	l	n/a
551.776	0.0895	1103552	keystroke_l	l	n/a
552.046	0.12	1104092	keystroke_u	u	n/a
552.4205	0.09	1104841	keystroke_t	t	n/a
552.571	0.105	1105142	keystroke_i	i	n/a
552.736	0.135	1105472	keystroke_o	o	n/a
552.931	0.089	1105862	keystroke_n	n	n/a
553.2755	0.1055	1106551	keystroke_Key.enter	Key.enter	n/a
553.387	13.4955	1106774	prompt	n/a	estimation flowers describing mattress\n
554.326	0.09	1108652	keystroke_e	e	n/a
554.5655	0.1955	1109131	keystroke_s	s	n/a
554.9105	0.1205	1109821	keystroke_t	t	n/a
555.5255	0.105	1111051	keystroke_i	i	n/a
556.1565	0.12	1112313	keystroke_m	m	n/a
557.236	0.195	1114472	keystroke_a	a	n/a
557.5665	0.0895	1115133	keystroke_t	t	n/a
557.686	0.12	1115372	keystroke_i	i	n/a
557.911	0.105	1115822	keystroke_o	o	n/a
558.1655	0.195	1116331	keystroke_n	n	n/a
558.3155	0.135	1116631	keystroke_Key.space	Key.space	n/a
558.526	0.1645	1117052	keystroke_f	f	n/a
558.6755	0.031	1117351	keystroke_l	l	n/a
558.8855	0.1055	1117771	keystroke_o	o	n/a
559.0955	0.136	1118191	keystroke_w	w	n/a
559.3365	0.1495	1118673	keystroke_e	e	n/a
559.5755	0.0905	1119151	keystroke_r	r	n/a
559.8005	0.1655	1119601	keystroke_s	s	n/a
559.9805	0.1355	1119961	keystroke_Key.space	Key.space	n/a
560.2205	0.031	1120441	keystroke_e	e	n/a
560.611	0.1195	1121222	keystroke_Key.backspace	Key.backspace	n/a
560.761	0.1045	1121522	keystroke_d	d	n/a
561.031	0.1045	1122062	keystroke_e	e	n/a
561.271	0.15	1122542	keystroke_s	s	n/a
561.586	0.18	1123172	keystroke_c	c	n/a
561.9455	0.135	1123891	keystroke_r	r	n/a
562.171	0.09	1124342	keystroke_i	i	n/a
562.4555	0.1505	1124911	keystroke_b	b	n/a
562.6505	0.075	1125301	keystroke_i	i	n/a
563.3705	0.2405	1126741	keystroke_n	n	n/a
563.626	0.0145	1127252	keystroke_g	g	n/a
563.6555	0.105	1127311	keystroke_Key.space	Key.space	n/a
563.8655	0.091	1127731	keystroke_m	m	n/a
564.346	0.165	1128692	keystroke_a	a	n/a
564.8555	0.06	1129711	keystroke_t	t	n/a
565.0965	0.104	1130193	keystroke_t	t	n/a
565.396	0.18	1130792	keystroke_r	r	n/a
565.531	0.21	1131062	keystroke_e	e	n/a
565.8905	0.12	1131781	keystroke_s	s	n/a
566.1005	0.105	1132201	keystroke_s	s	n/a
566.791	0.0895	1133582	keystroke_Key.enter	Key.enter	n/a
566.887	8.5905	1133774	prompt	n/a	bend codes useful excel\n
567.7655	0.12	1135531	keystroke_b	b	n/a
568.0205	0.135	1136041	keystroke_e	e	n/a
568.1705	0.09	1136341	keystroke_n	n	n/a
568.3955	0.1505	1136791	keystroke_d	d	n/a
568.591	0.1495	1137182	keystroke_Key.space	Key.space	n/a
568.786	0.1495	1137572	keystroke_c	c	n/a
568.9505	0.1355	1137901	keystroke_o	o	n/a
569.176	0.075	1138352	keystroke_d	d	n/a
569.3865	0.089	1138773	keystroke_e	e	n/a
569.581	0.165	1139162	keystroke_s	s	n/a
569.731	0.12	1139462	keystroke_Key.space	Key.space	n/a
569.941	0.12	1139882	keystroke_u	u	n/a
570.076	0.12	1140152	keystroke_s	s	n/a
570.331	0.1645	1140662	keystroke_e	e	n/a
571.4705	0.1205	1142941	keystroke_f	f	n/a
571.6505	0.09	1143301	keystroke_u	u	n/a
571.9355	0.15	1143871	keystroke_l	l	n/a
572.1605	0.165	1144321	keystroke_Key.space	Key.space	n/a
572.5805	0.0905	1145161	keystroke_e	e	n/a
573.315	0.121	1146630	keystroke_c	c	n/a
573.7505	0.12	1147501	keystroke_Key.backspace	Key.backspace	n/a
573.991	0.1645	1147982	keystroke_x	x	n/a
574.3065	0.1645	1148613	keystroke_c	c	n/a
574.8155	0.1055	1149631	keystroke_e	e	n/a
574.996	0.1195	1149992	keystroke_l	l	n/a
575.3705	0.1055	1150741	keystroke_Key.enter	Key.enter	n/a
575.4825	10.51	1150965	prompt	n/a	romania residence dinner abstract\n
576.661	0.135	1153322	keystroke_r	r	n/a
576.781	0.119	1153562	keystroke_o	o	n/a
577.216	0.195	1154432	keystroke_a	a	n/a
577.366	0.105	1154732	keystroke_n	n	n/a
577.876	0.0745	1155752	keystroke_Key.backspace	Key.backspace	n/a
578.1455	0.105	1156291	keystroke_Key.backspace	Key.backspace	n/a
578.941	0.1355	1157882	keystroke_m	m	n/a
579.136	0.15	1158272	keystroke_a	a	n/a
579.331	0.1055	1158662	keystroke_n	n	n/a
579.556	0.105	1159112	keystroke_i	i	n/a
579.691	0.1495	1159382	keystroke_a	a	n/a
579.8105	0.15	1159621	keystroke_Key.space	Key.space	n/a
580.201	0.1495	1160402	keystroke_r	r	n/a
580.291	0.1645	1160582	keystroke_e	e	n/a
580.561	0.18	1161122	keystroke_s	s	n/a
580.7105	0.1195	1161421	keystroke_i	i	n/a
580.89	0.1655	1161780	keystroke_d	d	n/a
581.175	0.151	1162350	keystroke_e	e	n/a
581.295	0.0905	1162590	keystroke_n	n	n/a
581.505	0.151	1163010	keystroke_c	c	n/a
581.8055	0.1645	1163611	keystroke_e	e	n/a
582	0.165	1164000	keystroke_Key.space	Key.space	n/a
582.1805	0.1795	1164361	keystroke_d	d	n/a
582.345	0.091	1164690	keystroke_i	i	n/a
582.57	0.0755	1165140	keystroke_n	n	n/a
582.7655	0.075	1165531	keystroke_n	n	n/a
582.8705	0.2255	1165741	keystroke_e	e	n/a
583.186	0.105	1166372	keystroke_r	r	n/a
583.3055	0.165	1166611	keystroke_Key.space	Key.space	n/a
583.576	0.1495	1167152	keystroke_a	a	n/a
583.8155	0.09	1167631	keystroke_b	b	n/a
584.1305	0.1805	1168261	keystroke_s	s	n/a
584.43	0.1055	1168860	keystroke_t	t	n/a
584.6855	0.1055	1169371	keystroke_r	r	n/a
584.8505	0.135	1169701	keystroke_a	a	n/a
585.166	0.1645	1170332	keystroke_c	c	n/a
585.4955	0.105	1170991	keystroke_t	t	n/a
585.93	0.06	1171860	keystroke_Key.enter	Key.enter	n/a
586.0005	6.9075	1172001	prompt	n/a	utah desk cialis stat\n
586.9505	0.105	1173901	keystroke_u	u	n/a
587.2355	0.105	1174471	keystroke_t	t	n/a
587.4155	0.165	1174831	keystroke_a	a	n/a
587.715	0.09	1175430	keystroke_h	h	n/a
587.925	0.1355	1175850	keystroke_Key.space	Key.space	n/a
588.181	0.075	1176362	keystroke_d	d	n/a
588.406	0.09	1176812	keystroke_e	e	n/a
588.586	0.1645	1177172	keystroke_s	s	n/a
588.871	0.089	1177742	keystroke_k	k	n/a
589.02	0.166	1178040	keystroke_Key.space	Key.space	n/a
589.261	0.18	1178522	keystroke_c	c	n/a
589.455	0.106	1178910	keystroke_i	i	n/a
590.146	0.15	1180292	keystroke_a	a	n/a
590.341	0.1505	1180682	keystroke_l	l	n/a
590.61	0.0905	1181220	keystroke_i	i	n/a
590.806	0.12	1181612	keystroke_s	s	n/a
591.0165	0.149	1182033	keystroke_Key.space	Key.space	n/a
591.226	0.1945	1182452	keystroke_s	s	n/a
591.5405	0.0755	1183081	keystroke_t	t	n/a
592.261	0.165	1184522	keystroke_a	a	n/a
592.501	0.074	1185002	keystroke_t	t	n/a
592.7855	0.1195	1185571	keystroke_Key.enter	Key.enter	n/a
592.912	7.961	1185824	prompt	n/a	style hope negotiation main\n
594.1955	0.12	1188391	keystroke_s	s	n/a
594.5705	0.0755	1189141	keystroke_t	t	n/a
594.841	0.075	1189682	keystroke_y	y	n/a
595.0505	0.1505	1190101	keystroke_l	l	n/a
595.1855	0.1195	1190371	keystroke_e	e	n/a
595.4555	0.1345	1190911	keystroke_Key.space	Key.space	n/a
596.025	0.106	1192050	keystroke_h	h	n/a
596.191	0.1195	1192382	keystroke_o	o	n/a
596.4755	0.165	1192951	keystroke_p	p	n/a
596.686	0.1195	1193372	keystroke_e	e	n/a
596.7905	0.1655	1193581	keystroke_Key.space	Key.space	n/a
597.256	0.1195	1194512	keystroke_n	n	n/a
597.4355	0.135	1194871	keystroke_e	e	n/a
597.7355	0.1055	1195471	keystroke_g	g	n/a
597.9005	0.12	1195801	keystroke_o	o	n/a
598.1555	0.1195	1196311	keystroke_t	t	n/a
598.321	0.1045	1196642	keystroke_i	i	n/a
598.6205	0.2105	1197241	keystroke_a	a	n/a
598.921	0.105	1197842	keystroke_t	t	n/a
599.041	0.09	1198082	keystroke_i	i	n/a
599.221	0.135	1198442	keystroke_o	o	n/a
599.4765	0.1645	1198953	keystroke_n	n	n/a
599.595	0.15	1199190	keystroke_Key.space	Key.space	n/a
599.836	0.134	1199672	keystroke_m	m	n/a
599.986	0.1805	1199972	keystroke_a	a	n/a
600.121	0.1055	1200242	keystroke_i	i	n/a
600.3155	0.1205	1200631	keystroke_n	n	n/a
600.751	0.119	1201502	keystroke_Key.enter	Key.enter	n/a
600.878	9.9565	1201756	prompt	n/a	arrive temp filters fact\n
601.696	0.164	1203392	keystroke_a	a	n/a
602.146	0.09	1204292	keystroke_r	r	n/a
602.596	0.105	1205192	keystroke_r	r	n/a
603.571	0.105	1207142	keystroke_i	i	n/a
603.7515	0.1335	1207503	keystroke_v	v	n/a
604.0055	0.211	1208011	keystroke_e	e	n/a
604.186	0.164	1208372	keystroke_Key.space	Key.space	n/a
604.4555	0.0605	1208911	keystroke_t	t	n/a
605.0855	0.1205	1210171	keystroke_e	e	n/a
605.2505	0.0905	1210501	keystroke_m	m	n/a
605.521	0.135	1211042	keystroke_p	p	n/a
605.791	0.18	1211582	keystroke_Key.space	Key.space	n/a
606.031	0.149	1212062	keystroke_f	f	n/a
606.196	0.0595	1212392	keystroke_i	i	n/a
606.436	0.1495	1212872	keystroke_l	l	n/a
606.7955	0.12	1213591	keystroke_t	t	n/a
606.9905	0.24	1213981	keystroke_e	e	n/a
607.1855	0.165	1214371	keystroke_r	r	n/a
607.486	0.1645	1214972	keystroke_s	s	n/a
607.68	0.12	1215360	keystroke_Key.space	Key.space	n/a
608.431	0.164	1216862	keystroke_f	f	n/a
608.64	0.166	1217280	keystroke_a	a	n/a
608.9105	0.21	1217821	keystroke_c	c	n/a
609.2705	0.12	1218541	keystroke_t	t	n/a
610.7105	0.12	1221421	keystroke_Key.enter	Key.enter	n/a
610.8475	8.7595	1221695	prompt	n/a	robust processor configuring sets\n
611.8055	0.12	1223611	keystroke_r	r	n/a
612.3755	0.12	1224751	keystroke_o	o	n/a
612.556	0.1355	1225112	keystroke_b	b	n/a
612.781	0.135	1225562	keystroke_u	u	n/a
613.036	0.164	1226072	keystroke_s	s	n/a
613.3505	0.1055	1226701	keystroke_t	t	n/a
613.515	0.135	1227030	keystroke_Key.space	Key.space	n/a
613.771	0.164	1227542	keystroke_p	p	n/a
614.04	0.091	1228080	keystroke_r	r	n/a
614.206	0.1345	1228412	keystroke_o	o	n/a
614.5055	0.1355	1229011	keystroke_c	c	n/a
614.775	0.18	1229550	keystroke_e	e	n/a
615.045	0.1055	1230090	keystroke_s	s	n/a
615.255	0.135	1230510	keystroke_s	s	n/a
615.406	0.134	1230812	keystroke_o	o	n/a
615.585	0.121	1231170	keystroke_r	r	n/a
615.736	0.15	1231472	keystroke_Key.space	Key.space	n/a
615.991	0.225	1231982	keystroke_c	c	n/a
616.171	0.1195	1232342	keystroke_o	o	n/a
616.3955	0.12	1232791	keystroke_n	n	n/a
616.636	0.135	1233272	keystroke_f	f	n/a
616.816	0.105	1233632	keystroke_i	i	n/a
617.026	0.12	1234052	keystroke_g	g	n/a
617.2205	0.1055	1234441	keystroke_u	u	n/a
617.46	0.121	1234920	keystroke_r	r	n/a
617.625	0.0905	1235250	keystroke_i	i	n/a
617.835	0.105	1235670	keystroke_n	n	n/a
618.0605	0.1045	1236121	keystroke_g	g	n/a
618.195	0.1355	1236390	keystroke_Key.space	Key.space	n/a
618.3755	0.135	1236751	keystroke_s	s	n/a
618.6155	0.1795	1237231	keystroke_e	e	n/a
618.9905	0.0755	1237981	keystroke_t	t	n/a
619.215	0.151	1238430	keystroke_s	s	n/a
619.515	0.09	1239030	keystroke_Key.enter	Key.enter	n/a
619.6125	8.68	1239225	prompt	n/a	arts commons lebanon garden\n
620.521	0.1195	1241042	keystroke_a	a	n/a
620.8205	0.105	1241641	keystroke_r	r	n/a
621.1055	0.12	1242211	keystroke_t	t	n/a
621.3605	0.1655	1242721	keystroke_s	s	n/a
621.5565	0.149	1243113	keystroke_Key.space	Key.space	n/a
621.7505	0.18	1243501	keystroke_c	c	n/a
621.9155	0.105	1243831	keystroke_o	o	n/a
622.156	0.075	1244312	keystroke_m	m	n/a
622.351	0.0745	1244702	keystroke_m	m	n/a
622.5455	0.09	1245091	keystroke_o	o	n/a
622.7105	0.1055	1245421	keystroke_n	n	n/a
622.9055	0.1505	1245811	keystroke_s	s	n/a
623.0405	0.12	1246081	keystroke_Key.space	Key.space	n/a
623.2505	0.135	1246501	keystroke_l	l	n/a
623.4155	0.1055	1246831	keystroke_e	e	n/a
623.9405	0.15	1247881	keystroke_a	a	n/a
624.585	0.1205	1249170	keystroke_Key.backspace	Key.backspace	n/a
624.8105	0.12	1249621	keystroke_b	b	n/a
625.0205	0.1645	1250041	keystroke_a	a	n/a
625.336	0.09	1250672	keystroke_n	n	n/a
625.546	0.09	1251092	keystroke_o	o	n/a
625.756	0.1935	1251512	keystroke_n	n	n/a
625.9205	0.1805	1251841	keystroke_Key.space	Key.space	n/a
626.1305	0.1355	1252261	keystroke_g	g	n/a
626.3405	0.1955	1252681	keystroke_a	a	n/a
626.5655	0.105	1253131	keystroke_r	r	n/a
626.836	0.1045	1253672	keystroke_d	d	n/a
627.0605	0.15	1254121	keystroke_e	e	n/a
627.2255	0.12	1254451	keystroke_n	n	n/a
628.1555	0.135	1256311	keystroke_Key.enter	Key.enter	n/a
628.2975	10.3455	1256595	prompt	n/a	cambridge immigrants ronald deleted\n
629.1755	0.195	1258351	keystroke_c	c	n/a
629.775	0.18	1259550	keystroke_a	a	n/a
630.0005	0.0905	1260001	keystroke_m	m	n/a
630.2555	0.1205	1260511	keystroke_b	b	n/a
630.555	0.121	1261110	keystroke_r	r	n/a
630.705	0.1045	1261410	keystroke_i	i	n/a
630.8715	0.179	1261743	keystroke_d	d	n/a
631.1705	0.105	1262341	keystroke_g	g	n/a
631.3655	0.165	1262731	keystroke_e	e	n/a
631.9505	0.135	1263901	keystroke_Key.space	Key.space	n/a
632.16	0.1205	1264320	keystroke_i	i	n/a
632.4155	0.089	1264831	keystroke_m	m	n/a
632.5955	0.09	1265191	keystroke_m	m	n/a
632.7905	0.1205	1265581	keystroke_i	i	n/a
633.0455	0.09	1266091	keystroke_g	g	n/a
633.3005	0.1195	1266601	keystroke_r	r	n/a
633.4355	0.24	1266871	keystroke_a	a	n/a
633.5855	0.105	1267171	keystroke_n	n	n/a
633.7805	0.105	1267561	keystroke_t	t	n/a
634.456	0.1345	1268912	keystroke_s	s	n/a
634.6505	0.1495	1269301	keystroke_Key.space	Key.space	n/a
634.92	0.1355	1269840	keystroke_r	r	n/a
635.0855	0.105	1270171	keystroke_o	o	n/a
635.2955	0.12	1270591	keystroke_n	n	n/a
635.5055	0.15	1271011	keystroke_a	a	n/a
635.641	0.1045	1271282	keystroke_l	l	n/a
635.8655	0.195	1271731	keystroke_d	d	n/a
636.4055	0.135	1272811	keystroke_Key.space	Key.space	n/a
636.5555	0.1795	1273111	keystroke_d	d	n/a
637.021	0.135	1274042	keystroke_e	e	n/a
637.261	0.15	1274522	keystroke_l	l	n/a
637.426	0.195	1274852	keystroke_e	e	n/a
637.786	0.1345	1275572	keystroke_t	t	n/a
637.95	0.1505	1275900	keystroke_e	e	n/a
638.236	0.12	1276472	keystroke_d	d	n/a
638.5055	0.135	1277011	keystroke_Key.enter	Key.enter	n/a
638.649	10.358	1277298	prompt	n/a	berkeley logic forming flux\n
639.465	0.106	1278930	keystroke_b	b	n/a
639.7655	0.1805	1279531	keystroke_e	e	n/a
640.065	0.1055	1280130	keystroke_r	r	n/a
640.4555	0.0455	1280911	keystroke_e	e	n/a
641.0405	0.105	1282081	keystroke_Key.backspace	Key.backspace	n/a
641.3705	0.121	1282741	keystroke_k	k	n/a
641.5805	0.09	1283161	keystroke_e	e	n/a
641.775	0.1355	1283550	keystroke_l	l	n/a
641.955	0.136	1283910	keystroke_e	e	n/a
642.21	0.0755	1284420	keystroke_y	y	n/a
642.42	0.1205	1284840	keystroke_Key.space	Key.space	n/a
642.631	0.1195	1285262	keystroke_l	l	n/a
642.885	0.1055	1285770	keystroke_o	o	n/a
643.0805	0.1045	1286161	keystroke_g	g	n/a
643.306	0.075	1286612	keystroke_i	i	n/a
643.561	0.105	1287122	keystroke_d	d	n/a
644.1455	0.09	1288291	keystroke_Key.backspace	Key.backspace	n/a
644.3555	0.1805	1288711	keystroke_c	c	n/a
644.6265	0.134	1289253	keystroke_Key.space	Key.space	n/a
644.8655	0.09	1289731	keystroke_l	l	n/a
645.285	0.12	1290570	keystroke_Key.backspace	Key.backspace	n/a
645.57	0.15	1291140	keystroke_f	f	n/a
645.9455	0.165	1291891	keystroke_o	o	n/a
646.1255	0.12	1292251	keystroke_r	r	n/a
646.3205	0.12	1292641	keystroke_m	m	n/a
646.561	0.1195	1293122	keystroke_i	i	n/a
646.6955	0.15	1293391	keystroke_n	n	n/a
646.8905	0.105	1293781	keystroke_g	g	n/a
647.0255	0.135	1294051	keystroke_Key.space	Key.space	n/a
647.37	0.09	1294740	keystroke_f	f	n/a
647.5055	0.1345	1295011	keystroke_l	l	n/a
647.82	0.12	1295640	keystroke_u	u	n/a
648.121	0.119	1296242	keystroke_x	x	n/a
648.885	0.12	1297770	keystroke_Key.enter	Key.enter	n/a
649.0105	17.0215	1298021	prompt	n/a	expectations trees lottery passage\n
649.936	0.044	1299872	keystroke_w	w	n/a
652.1565	0.074	1304313	keystroke_Key.backspace	Key.backspace	n/a
652.4105	0.105	1304821	keystroke_e	e	n/a
652.726	0.1795	1305452	keystroke_x	x	n/a
653.0105	0.18	1306021	keystroke_p	p	n/a
653.2055	0.0895	1306411	keystroke_e	e	n/a
653.8505	0.075	1307701	keystroke_t	t	n/a
654.03	0.1805	1308060	keystroke_a	a	n/a
654.465	0.121	1308930	keystroke_t	t	n/a
654.6755	0.12	1309351	keystroke_i	i	n/a
654.84	0.1205	1309680	keystroke_o	o	n/a
655.0355	0.1195	1310071	keystroke_n	n	n/a
655.2	0.1505	1310400	keystroke_s	s	n/a
656.19	0.0755	1312380	keystroke_Key.backspace	Key.backspace	n/a
656.37	0.075	1312740	keystroke_Key.backspace	Key.backspace	n/a
656.5505	0.0595	1313101	keystroke_Key.backspace	Key.backspace	n/a
656.715	0.0605	1313430	keystroke_Key.backspace	Key.backspace	n/a
656.88	0.06	1313760	keystroke_Key.backspace	Key.backspace	n/a
657.0455	0.0595	1314091	keystroke_Key.backspace	Key.backspace	n/a
657.21	0.09	1314420	keystroke_Key.backspace	Key.backspace	n/a
657.421	0.2245	1314842	keystroke_c	c	n/a
657.8405	0.0895	1315681	keystroke_t	t	n/a
658.02	0.1955	1316040	keystroke_a	a	n/a
658.2905	0.15	1316581	keystroke_t	t	n/a
658.425	0.121	1316850	keystroke_i	i	n/a
658.5905	0.15	1317181	keystroke_o	o	n/a
658.7105	0.135	1317421	keystroke_n	n	n/a
658.9055	0.165	1317811	keystroke_s	s	n/a
659.0395	0.166	1318079	keystroke_Key.space	Key.space	n/a
659.2805	0.075	1318561	keystroke_t	t	n/a
659.49	0.12	1318980	keystroke_r	r	n/a
659.731	0.1195	1319462	keystroke_e	e	n/a
659.985	0.1055	1319970	keystroke_e	e	n/a
660.1805	0.194	1320361	keystroke_s	s	n/a
660.36	0.15	1320720	keystroke_Key.space	Key.space	n/a
660.7805	0.105	1321561	keystroke_l	l	n/a
661.0355	0.12	1322071	keystroke_o	o	n/a
661.2005	0.089	1322401	keystroke_t	t	n/a
661.3795	0.105	1322759	keystroke_t	t	n/a
661.5445	0.3	1323089	keystroke_e	e	n/a
662.5355	0.09	1325071	keystroke_r	r	n/a
662.7455	0.105	1325491	keystroke_y	y	n/a
662.97	0.2105	1325940	keystroke_Key.space	Key.space	n/a
663.2105	0.165	1326421	keystroke_p	p	n/a
663.3445	0.181	1326689	keystroke_a	a	n/a
663.75	0.105	1327500	keystroke_s	s	n/a
663.9455	0.2245	1327891	keystroke_a	a	n/a
664.5895	0.091	1329179	keystroke_Key.backspace	Key.backspace	n/a
664.8155	0.1495	1329631	keystroke_s	s	n/a
665.16	0.1655	1330320	keystroke_a	a	n/a
665.3555	0.1345	1330711	keystroke_g	g	n/a
665.58	0.1355	1331160	keystroke_e	e	n/a
665.94	0.09	1331880	keystroke_Key.enter	Key.enter	n/a
666.035	9.3115	1332070	prompt	n/a	send lucas finest nutritional\n
667.7855	0.1195	1335571	keystroke_s	s	n/a
668.01	0.1205	1336020	keystroke_e	e	n/a
668.5955	0.0595	1337191	keystroke_n	n	n/a
668.73	0.1055	1337460	keystroke_d	d	n/a
668.8805	0.135	1337761	keystroke_Key.space	Key.space	n/a
669.0595	0.12	1338119	keystroke_l	l	n/a
669.3005	0.104	1338601	keystroke_u	u	n/a
670.0645	0.136	1340129	keystroke_c	c	n/a
670.3805	0.165	1340761	keystroke_a	a	n/a
670.6655	0.164	1341331	keystroke_s	s	n/a
670.8895	0.165	1341779	keystroke_Key.space	Key.space	n/a
671.1005	0.18	1342201	keystroke_f	f	n/a
671.2355	0.0745	1342471	keystroke_i	i	n/a
671.415	0.135	1342830	keystroke_n	n	n/a
671.565	0.105	1343130	keystroke_e	e	n/a
671.7905	0.1795	1343581	keystroke_s	s	n/a
672.1355	0.12	1344271	keystroke_t	t	n/a
672.2705	0.1345	1344541	keystroke_Key.space	Key.space	n/a
672.5405	0.12	1345081	keystroke_n	n	n/a
673.095	0.106	1346190	keystroke_u	u	n/a
673.5605	0.045	1347121	keystroke_t	t	n/a
673.7105	0.09	1347421	keystroke_r	r	n/a
673.8605	0.09	1347721	keystroke_i	i	n/a
674.1455	0.119	1348291	keystroke_t	t	n/a
674.2505	0.105	1348501	keystroke_i	i	n/a
674.4005	0.209	1348801	keystroke_o	o	n/a
674.5645	0.136	1349129	keystroke_n	n	n/a
674.8055	0.18	1349611	keystroke_a	a	n/a
674.9105	0.105	1349821	keystroke_l	l	n/a
675.2255	0.12	1350451	keystroke_Key.enter	Key.enter	n/a
675.3505	10.376	1350701	prompt	n/a	thickness bridal effectiveness easy\n
676.3345	0.105	1352669	keystroke_t	t	n/a
676.4105	0.09	1352821	keystroke_h	h	n/a
676.6195	0.091	1353239	keystroke_i	i	n/a
676.785	0.1805	1353570	keystroke_c	c	n/a
676.935	0.075	1353870	keystroke_k	k	n/a
677.19	0.09	1354380	keystroke_n	n	n/a
677.34	0.12	1354680	keystroke_e	e	n/a
677.5805	0.105	1355161	keystroke_s	s	n/a
677.7905	0.15	1355581	keystroke_s	s	n/a
677.9405	0.1645	1355881	keystroke_Key.space	Key.space	n/a
678.12	0.1205	1356240	keystroke_b	b	n/a
678.405	0.135	1356810	keystroke_r	r	n/a
678.5255	0.1045	1357051	keystroke_i	i	n/a
678.705	0.1655	1357410	keystroke_d	d	n/a
678.99	0.18	1357980	keystroke_a	a	n/a
679.0955	0.195	1358191	keystroke_l	l	n/a
679.215	0.165	1358430	keystroke_Key.space	Key.space	n/a
679.455	0.15	1358910	keystroke_e	e	n/a
679.9505	0.119	1359901	keystroke_f	f	n/a
680.37	0.0445	1360740	keystroke_e	e	n/a
680.9395	0.121	1361879	keystroke_Key.backspace	Key.backspace	n/a
681.18	0.1655	1362360	keystroke_f	f	n/a
681.4645	0.105	1362929	keystroke_e	e	n/a
681.78	0.1955	1363560	keystroke_c	c	n/a
682.1705	0.12	1364341	keystroke_t	t	n/a
682.3355	0.12	1364671	keystroke_i	i	n/a
682.5605	0.105	1365121	keystroke_v	v	n/a
682.7405	0.18	1365481	keystroke_e	e	n/a
683.0405	0.105	1366081	keystroke_n	n	n/a
683.1905	0.105	1366381	keystroke_e	e	n/a
683.4155	0.1195	1366831	keystroke_s	s	n/a
683.64	0.135	1367280	keystroke_s	s	n/a
683.805	0.15	1367610	keystroke_Key.space	Key.space	n/a
684.0455	0.1345	1368091	keystroke_e	e	n/a
684.2555	0.21	1368511	keystroke_a	a	n/a
684.4805	0.15	1368961	keystroke_s	s	n/a
684.735	0.075	1369470	keystroke_y	y	n/a
685.6055	0.119	1371211	keystroke_Key.enter	Key.enter	n/a
685.7315	11.8295	1371463	prompt	n/a	street patents figures unemployment\n
686.5505	0.1795	1373101	keystroke_s	s	n/a
686.8355	0.09	1373671	keystroke_t	t	n/a
687.0455	0.165	1374091	keystroke_r	r	n/a
687.1805	0.1645	1374361	keystroke_e	e	n/a
687.45	0.15	1374900	keystroke_e	e	n/a
687.735	0.0895	1375470	keystroke_t	t	n/a
687.8695	0.1655	1375739	keystroke_Key.space	Key.space	n/a
688.0655	0.1645	1376131	keystroke_p	p	n/a
688.215	0.225	1376430	keystroke_a	a	n/a
688.5455	0.1195	1377091	keystroke_t	t	n/a
688.7405	0.1795	1377481	keystroke_e	e	n/a
688.9055	0.0895	1377811	keystroke_n	n	n/a
689.13	0.09	1378260	keystroke_t	t	n/a
689.37	0.165	1378740	keystroke_s	s	n/a
689.55	0.165	1379100	keystroke_Key.space	Key.space	n/a
689.775	0.12	1379550	keystroke_f	f	n/a
689.94	0.105	1379880	keystroke_i	i	n/a
690.195	0.105	1380390	keystroke_g	g	n/a
690.345	0.105	1380690	keystroke_u	u	n/a
690.54	0.1655	1381080	keystroke_r	r	n/a
690.645	0.1655	1381290	keystroke_e	e	n/a
690.9145	0.1655	1381829	keystroke_s	s	n/a
691.0645	0.1495	1382129	keystroke_Key.space	Key.space	n/a
691.3345	0.076	1382669	keystroke_u	u	n/a
691.605	0.105	1383210	keystroke_n	n	n/a
691.875	0.09	1383750	keystroke_e	e	n/a
691.995	0.1195	1383990	keystroke_m	m	n/a
692.264	0.105	1384528	keystroke_p	p	n/a
692.49	0.1045	1384980	keystroke_l	l	n/a
692.7295	0.09	1385459	keystroke_o	o	n/a
692.9395	0.0895	1385879	keystroke_y	y	n/a
693.48	0.149	1386960	keystroke_e	e	n/a
693.599	0.076	1387198	keystroke_n	n	n/a
693.825	0.09	1387650	keystroke_t	t	n/a
694.8745	0.0755	1389749	keystroke_Key.backspace	Key.backspace	n/a
695.084	0.075	1390168	keystroke_Key.backspace	Key.backspace	n/a
695.5645	0.0905	1391129	keystroke_Key.backspace	Key.backspace	n/a
696.315	0.1195	1392630	keystroke_m	m	n/a
696.5095	0.165	1393019	keystroke_e	e	n/a
696.645	0.1045	1393290	keystroke_n	n	n/a
696.8545	0.0755	1393709	keystroke_t	t	n/a
697.47	0.09	1394940	keystroke_Key.enter	Key.enter	n/a
697.565	10.4065	1395130	prompt	n/a	aberdeen kelly sciences phil\n
698.43	0.09	1396860	keystroke_a	a	n/a
698.6545	0.1355	1397309	keystroke_b	b	n/a
698.9245	0.2555	1397849	keystroke_e	e	n/a
699.2395	0.105	1398479	keystroke_r	r	n/a
699.4795	0.12	1398959	keystroke_d	d	n/a
699.75	0.0895	1399500	keystroke_e	e	n/a
699.9445	0.12	1399889	keystroke_e	e	n/a
700.1845	0.106	1400369	keystroke_n	n	n/a
700.4545	0.1355	1400909	keystroke_Key.space	Key.space	n/a
700.695	0.119	1401390	keystroke_k	k	n/a
700.86	0.105	1401720	keystroke_e	e	n/a
701.3545	0.1345	1402709	keystroke_l	l	n/a
701.565	0.1195	1403130	keystroke_l	l	n/a
701.8645	0.09	1403729	keystroke_y	y	n/a
702.0595	0.165	1404119	keystroke_Key.space	Key.space	n/a
702.8395	0.135	1405679	keystroke_s	s	n/a
703.0645	0.2105	1406129	keystroke_c	c	n/a
703.395	0.09	1406790	keystroke_i	i	n/a
703.56	0.1495	1407120	keystroke_e	e	n/a
703.935	0.1195	1407870	keystroke_c	c	n/a
704.444	0.09	1408888	keystroke_Key.backspace	Key.backspace	n/a
705.0445	0.12	1410089	keystroke_n	n	n/a
705.4045	0.166	1410809	keystroke_c	c	n/a
705.7045	0.135	1411409	keystroke_e	e	n/a
705.929	0.166	1411858	keystroke_s	s	n/a
706.1095	0.165	1412219	keystroke_Key.space	Key.space	n/a
706.3495	0.1205	1412699	keystroke_p	p	n/a
706.5295	0.1055	1413059	keystroke_h	h	n/a
706.755	0.075	1413510	keystroke_i	i	n/a
706.95	0.1495	1413900	keystroke_l	l	n/a
707.849	0.1205	1415698	keystroke_Key.enter	Key.enter	n/a
707.9785	17.903	1415957	prompt	n/a	harry survival soldiers dependent\n
709.3345	0.075	1418669	keystroke_h	h	n/a
709.47	0.1945	1418940	keystroke_a	a	n/a
709.7545	0.0755	1419509	keystroke_r	r	n/a
709.935	0.105	1419870	keystroke_r	r	n/a
710.0245	0.09	1420049	keystroke_y	y	n/a
710.2645	0.165	1420529	keystroke_Key.space	Key.space	n/a
710.4445	0.15	1420889	keystroke_s	s	n/a
710.6255	0.089	1421251	keystroke_u	u	n/a
710.8345	0.09	1421669	keystroke_r	r	n/a
712.3655	0.1035	1424731	keystroke_v	v	n/a
712.665	0.15	1425330	keystroke_i	i	n/a
712.86	0.15	1425720	keystroke_v	v	n/a
713.085	0.1645	1426170	keystroke_a	a	n/a
713.28	0.1345	1426560	keystroke_l	l	n/a
713.5195	0.105	1427039	keystroke_Key.space	Key.space	n/a
713.7295	0.1205	1427459	keystroke_s	s	n/a
713.8195	0.09	1427639	keystroke_o	o	n/a
714.0605	0.104	1428121	keystroke_l	l	n/a
714.2245	0.15	1428449	keystroke_d	d	n/a
714.435	0.1055	1428870	keystroke_i	i	n/a
714.5855	0.104	1429171	keystroke_e	e	n/a
714.795	0.1345	1429590	keystroke_s	s	n/a
715.2295	0.1355	1430459	keystroke_Key.backspace	Key.backspace	n/a
715.3655	0.179	1430731	keystroke_e	e	n/a
715.635	0.1055	1431270	keystroke_r	r	n/a
715.8745	0.12	1431749	keystroke_Key.space	Key.space	n/a
716.0845	0.12	1432169	keystroke_d	d	n/a
716.3395	0.1205	1432679	keystroke_e	e	n/a
716.5205	0.1195	1433041	keystroke_p	p	n/a
717.225	0.09	1434450	keystroke_Key.backspace	Key.backspace	n/a
717.435	0.075	1434870	keystroke_Key.backspace	Key.backspace	n/a
717.66	0.03	1435320	keystroke_Key.backspace	Key.backspace	n/a
717.795	0.06	1435590	keystroke_Key.backspace	Key.backspace	n/a
