onset	duration	sample	value	key	prompt_text
5.528	6.845	11056	prompt	n/a	the quick brown fox jumps over a lazy dog\n
6.7635	0.001	13527	keystroke_t	t	n/a
6.7645	0.042	13529	keystroke_h	h	n/a
6.911	0.1505	13822	keystroke_e	e	n/a
7.0465	0.09	14093	keystroke_Key.space	Key.space	n/a
7.196	0.09	14392	keystroke_q	q	n/a
7.286	0.076	14572	keystroke_u	u	n/a
7.347	0.0595	14694	keystroke_i	i	n/a
7.4215	0.0895	14843	keystroke_c	c	n/a
7.4815	0.1045	14963	keystroke_k	k	n/a
7.587	0.0885	15174	keystroke_Key.space	Key.space	n/a
7.7365	0.045	15473	keystroke_b	b	n/a
7.8715	0.0755	15743	keystroke_r	r	n/a
7.961	0.0595	15922	keystroke_o	o	n/a
8.0655	0.076	16131	keystroke_w	w	n/a
8.186	0.046	16372	keystroke_n	n	n/a
8.246	0.045	16492	keystroke_Key.space	Key.space	n/a
8.4115	0.074	16823	keystroke_f	f	n/a
8.5005	0.1205	17001	keystroke_o	o	n/a
8.607	0.09	17214	keystroke_x	x	n/a
8.681	0.105	17362	keystroke_Key.space	Key.space	n/a
8.8005	0.075	17601	keystroke_j	j	n/a
8.9355	0.06	17871	keystroke_u	u	n/a
9.3105	0.09	18621	keystroke_m	m	n/a
9.4155	0.1205	18831	keystroke_p	p	n/a
9.536	0.105	19072	keystroke_s	s	n/a
9.626	0.09	19252	keystroke_Key.space	Key.space	n/a
9.746	0.1045	19492	keystroke_o	o	n/a
9.8505	0.061	19701	keystroke_v	v	n/a
10.001	0.06	20002	keystroke_e	e	n/a
10.031	0.105	20062	keystroke_r	r	n/a
10.091	0.09	20182	keystroke_Key.space	Key.space	n/a
10.211	0.12	20422	keystroke_a	a	n/a
10.3005	0.0755	20601	keystroke_Key.space	Key.space	n/a
10.436	0.1195	20872	keystroke_l	l	n/a
10.5255	0.09	21051	keystroke_a	a	n/a
10.6755	0.166	21351	keystroke_z	z	n/a
10.7965	0.09	21593	keystroke_y	y	n/a
10.9	0.0755	21800	keystroke_Key.space	Key.space	n/a
11.216	0.075	22432	keystroke_d	d	n/a
11.276	0.075	22552	keystroke_o	o	n/a
11.366	0.075	22732	keystroke_g	g	n/a
12.2655	0.105	24531	keystroke_Key.enter	Key.enter	n/a
12.3785	6.8335	24757	prompt	n/a	html virtual singapore aerospace\n
13.2855	0.0605	26571	keystroke_h	h	n/a
13.391	0.09	26782	keystroke_t	t	n/a
13.466	0.1045	26932	keystroke_m	m	n/a
13.5555	0.12	27111	keystroke_l	l	n/a
13.6905	0.0755	27381	keystroke_Key.space	Key.space	n/a
13.9755	0.075	27951	keystroke_v	v	n/a
14.0655	0.0895	28131	keystroke_i	i	n/a
14.14	0.045	28280	keystroke_r	r	n/a
14.2605	0.075	28521	keystroke_t	t	n/a
14.3205	0.075	28641	keystroke_u	u	n/a
14.4255	0.1345	28851	keystroke_a	a	n/a
14.5005	0.1195	29001	keystroke_l	l	n/a
14.605	0.046	29210	keystroke_Key.space	Key.space	n/a
14.83	0.061	29660	keystroke_s	s	n/a
14.875	0.1055	29750	keystroke_i	i	n/a
15.2805	0.09	30561	keystroke_n	n	n/a
15.4755	0.0755	30951	keystroke_g	g	n/a
15.581	0.12	31162	keystroke_a	a	n/a
15.9105	0.0905	31821	keystroke_p	p	n/a
16.016	0.1045	32032	keystroke_o	o	n/a
16.165	0.0755	32330	keystroke_r	r	n/a
16.3005	0.105	32601	keystroke_e	e	n/a
16.3905	0.075	32781	keystroke_Key.space	Key.space	n/a
16.75	0.091	33500	keystroke_e	e	n/a
17.051	0.0595	34102	keystroke_Key.backspace	Key.backspace	n/a
17.7705	0.105	35541	keystroke_a	a	n/a
17.9805	0.15	35961	keystroke_e	e	n/a
18.086	0.0895	36172	keystroke_r	r	n/a
18.2655	0.075	36531	keystroke_o	o	n/a
18.5955	0.075	37191	keystroke_s	s	n/a
18.685	0.075	37370	keystroke_p	p	n/a
18.73	0.135	37460	keystroke_a	a	n/a
18.82	0.12	37640	keystroke_c	c	n/a
18.91	0.0895	37820	keystroke_e	e	n/a
19.1345	0.075	38269	keystroke_Key.enter	Key.enter	n/a
19.215	6.6445	38430	prompt	n/a	unknown courage process sexuality\n
19.7795	0.06	39559	keystroke_u	u	n/a
19.9295	0.06	39859	keystroke_n	n	n/a
20.0045	0.15	40009	keystroke_k	k	n/a
20.1245	0.136	40249	keystroke_o	o	n/a
20.3655	0.045	40731	keystroke_n	n	n/a
20.8905	0.06	41781	keystroke_Key.backspace	Key.backspace	n/a
21.0115	0.06	42023	keystroke_Key.backspace	Key.backspace	n/a
21.1915	0.075	42383	keystroke_n	n	n/a
21.3715	0.0905	42743	keystroke_o	o	n/a
21.522	0.105	43044	keystroke_w	w	n/a
21.612	0.0755	43224	keystroke_n	n	n/a
21.7625	0.0895	43525	keystroke_Key.space	Key.space	n/a
22.5575	0.075	45115	keystroke_c	c	n/a
22.6025	0.075	45205	keystroke_o	o	n/a
22.6475	0.075	45295	keystroke_u	u	n/a
22.7375	0.06	45475	keystroke_r	r	n/a
22.8425	0.105	45685	keystroke_a	a	n/a
22.9175	0.075	45835	keystroke_g	g	n/a
23.038	0.1045	46076	keystroke_e	e	n/a
23.113	0.0595	46226	keystroke_Key.space	Key.space	n/a
23.2925	0.075	46585	keystroke_p	p	n/a
23.3675	0.06	46735	keystroke_r	r	n/a
23.443	0.09	46886	keystroke_o	o	n/a
23.548	0.0895	47096	keystroke_c	c	n/a
23.6525	0.075	47305	keystroke_e	e	n/a
23.7725	0.0755	47545	keystroke_s	s	n/a
23.9075	0.105	47815	keystroke_s	s	n/a
23.983	0.0895	47966	keystroke_Key.space	Key.space	n/a
24.613	0.06	49226	keystroke_s	s	n/a
24.763	0.045	49526	keystroke_e	e	n/a
24.943	0.105	49886	keystroke_x	x	n/a
25.063	0.09	50126	keystroke_u	u	n/a
25.168	0.09	50336	keystroke_a	a	n/a
25.243	0.135	50486	keystroke_l	l	n/a
25.348	0.09	50696	keystroke_i	i	n/a
25.453	0.06	50906	keystroke_t	t	n/a
25.5575	0.075	51115	keystroke_y	y	n/a
25.7825	0.075	51565	keystroke_Key.enter	Key.enter	n/a
25.863	5.4425	51726	prompt	n/a	brad thriller juvenile human\n
26.533	0.06	53066	keystroke_b	b	n/a
26.6975	0.1055	53395	keystroke_r	r	n/a
26.788	0.135	53576	keystroke_a	a	n/a
26.908	0.135	53816	keystroke_d	d	n/a
27.013	0.105	54026	keystroke_Key.space	Key.space	n/a
27.253	0.06	54506	keystroke_t	t	n/a
27.328	0.06	54656	keystroke_h	h	n/a
27.389	0.074	54778	keystroke_r	r	n/a
27.478	0.075	54956	keystroke_i	i	n/a
27.613	0.06	55226	keystroke_l	l	n/a
27.718	0.075	55436	keystroke_l	l	n/a
27.808	0.105	55616	keystroke_e	e	n/a
27.868	0.105	55736	keystroke_r	r	n/a
27.943	0.075	55886	keystroke_Key.space	Key.space	n/a
28.033	0.075	56066	keystroke_j	j	n/a
28.168	0.09	56336	keystroke_u	u	n/a
28.3035	0.0745	56607	keystroke_v	v	n/a
28.4385	0.06	56877	keystroke_e	e	n/a
28.5135	0.09	57027	keystroke_n	n	n/a
28.6635	0.135	57327	keystroke_i	i	n/a
28.7685	0.12	57537	keystroke_l	l	n/a
28.8735	0.075	57747	keystroke_e	e	n/a
29.4285	0.105	58857	keystroke_Key.space	Key.space	n/a
29.5785	0.045	59157	keystroke_t	t	n/a
29.6385	0.06	59277	keystroke_h	h	n/a
29.7585	0.06	59517	keystroke_u	u	n/a
30.0435	0.045	60087	keystroke_Key.backspace	Key.backspace	n/a
30.1485	0.0755	60297	keystroke_Key.backspace	Key.backspace	n/a
30.284	0.075	60568	keystroke_Key.backspace	Key.backspace	n/a
30.5085	0.045	61017	keystroke_h	h	n/a
30.629	0.06	61258	keystroke_u	u	n/a
30.764	0.075	61528	keystroke_m	m	n/a
30.854	0.09	61708	keystroke_a	a	n/a
30.929	0.06	61858	keystroke_n	n	n/a
31.229	0.075	62458	keystroke_Key.enter	Key.enter	n/a
31.3085	3.4775	62617	prompt	n/a	pixel theft gross karma\n
32.009	0.075	64018	keystroke_p	p	n/a
32.069	0.12	64138	keystroke_i	i	n/a
32.204	0.075	64408	keystroke_x	x	n/a
32.354	0.075	64708	keystroke_e	e	n/a
32.414	0.1055	64828	keystroke_l	l	n/a
32.5335	0.1345	65067	keystroke_Key.space	Key.space	n/a
32.624	0.074	65248	keystroke_t	t	n/a
32.683	0.0605	65366	keystroke_h	h	n/a
32.7585	0.061	65517	keystroke_e	e	n/a
32.8795	0.044	65759	keystroke_f	f	n/a
32.999	0.1055	65998	keystroke_t	t	n/a
33.1195	0.044	66239	keystroke_Key.space	Key.space	n/a
33.254	0.0605	66508	keystroke_g	g	n/a
33.3895	0.0745	66779	keystroke_r	r	n/a
33.464	0.09	66928	keystroke_o	o	n/a
33.569	0.0455	67138	keystroke_s	s	n/a
33.6595	0.15	67319	keystroke_s	s	n/a
33.8245	0.0745	67649	keystroke_Key.space	Key.space	n/a
34.0045	0.09	68009	keystroke_k	k	n/a
34.0795	0.15	68159	keystroke_a	a	n/a
34.1545	0.09	68309	keystroke_r	r	n/a
34.2595	0.105	68519	keystroke_m	m	n/a
34.3495	0.135	68699	keystroke_a	a	n/a
34.6945	0.09	69389	keystroke_Key.enter	Key.enter	n/a
34.7895	4.002	69579	prompt	n/a	schedule nominated mill stocks\n
35.504	0.09	71008	keystroke_s	s	n/a
35.669	0.105	71338	keystroke_c	c	n/a
35.79	0.089	71580	keystroke_h	h	n/a
35.895	0.059	71790	keystroke_e	e	n/a
35.999	0.09	71998	keystroke_d	d	n/a
36.074	0.075	72148	keystroke_u	u	n/a
36.164	0.135	72328	keystroke_l	l	n/a
36.24	0.075	72480	keystroke_e	e	n/a
36.329	0.06	72658	keystroke_Key.space	Key.space	n/a
36.464	0.075	72928	keystroke_n	n	n/a
36.524	0.09	73048	keystroke_o	o	n/a
36.629	0.09	73258	keystroke_m	m	n/a
36.7645	0.1045	73529	keystroke_i	i	n/a
36.839	0.106	73678	keystroke_n	n	n/a
36.93	0.134	73860	keystroke_a	a	n/a
37.019	0.12	74038	keystroke_t	t	n/a
37.124	0.0605	74248	keystroke_e	e	n/a
37.259	0.1055	74518	keystroke_d	d	n/a
37.3345	0.075	74669	keystroke_Key.space	Key.space	n/a
37.5895	0.09	75179	keystroke_m	m	n/a
37.7245	0.075	75449	keystroke_i	i	n/a
37.8445	0.045	75689	keystroke_l	l	n/a
37.936	0.089	75872	keystroke_l	l	n/a
38.04	0.1045	76080	keystroke_Key.space	Key.space	n/a
38.1295	0.12	76259	keystroke_s	s	n/a
38.2045	0.0755	76409	keystroke_t	t	n/a
38.265	0.075	76530	keystroke_o	o	n/a
38.37	0.09	76740	keystroke_c	c	n/a
38.43	0.075	76860	keystroke_k	k	n/a
38.5195	0.0905	77039	keystroke_s	s	n/a
38.715	0.075	77430	keystroke_Key.enter	Key.enter	n/a
38.7945	4.288	77589	prompt	n/a	victim basket theater academic\n
39.555	0.075	79110	keystroke_v	v	n/a
39.675	0.075	79350	keystroke_i	i	n/a
39.735	0.06	79470	keystroke_c	c	n/a
39.885	0.075	79770	keystroke_t	t	n/a
39.961	0.089	79922	keystroke_i	i	n/a
40.035	0.12	80070	keystroke_m	m	n/a
40.1705	0.0445	80341	keystroke_Key.space	Key.space	n/a
40.335	0.06	80670	keystroke_b	b	n/a
40.41	0.1205	80820	keystroke_a	a	n/a
40.47	0.0905	80940	keystroke_s	s	n/a
40.5455	0.09	81091	keystroke_k	k	n/a
40.65	0.1355	81300	keystroke_e	e	n/a
40.74	0.0905	81480	keystroke_t	t	n/a
40.8605	0.075	81721	keystroke_Key.space	Key.space	n/a
41.0105	0.09	82021	keystroke_t	t	n/a
41.0855	0.105	82171	keystroke_h	h	n/a
41.1755	0.09	82351	keystroke_e	e	n/a
41.2355	0.12	82471	keystroke_a	a	n/a
41.3105	0.075	82621	keystroke_t	t	n/a
41.4605	0.09	82921	keystroke_e	e	n/a
41.5055	0.15	83011	keystroke_r	r	n/a
41.6405	0.075	83281	keystroke_Key.space	Key.space	n/a
41.9255	0.12	83851	keystroke_a	a	n/a
42.0605	0.075	84121	keystroke_c	c	n/a
42.1955	0.12	84391	keystroke_a	a	n/a
42.3905	0.075	84781	keystroke_d	d	n/a
42.5855	0.0605	85171	keystroke_e	e	n/a
42.661	0.09	85322	keystroke_m	m	n/a
42.721	0.1195	85442	keystroke_i	i	n/a
42.8105	0.09	85621	keystroke_c	c	n/a
43.006	0.075	86012	keystroke_Key.enter	Key.enter	n/a
43.087	5.336	86174	prompt	n/a	stylish cluster careers border\n
44.071	0.12	88142	keystroke_s	s	n/a
44.131	0.105	88262	keystroke_t	t	n/a
44.266	0.09	88532	keystroke_y	y	n/a
44.341	0.165	88682	keystroke_l	l	n/a
44.461	0.105	88922	keystroke_i	i	n/a
44.551	0.075	89102	keystroke_s	s	n/a
44.671	0.09	89342	keystroke_h	h	n/a
44.746	0.075	89492	keystroke_Key.space	Key.space	n/a
44.971	0.09	89942	keystroke_c	c	n/a
45.031	0.075	90062	keystroke_l	l	n/a
45.091	0.075	90182	keystroke_u	u	n/a
45.151	0.1205	90302	keystroke_s	s	n/a
45.241	0.0755	90482	keystroke_t	t	n/a
45.3765	0.1045	90753	keystroke_e	e	n/a
45.436	0.1355	90872	keystroke_r	r	n/a
45.526	0.0755	91052	keystroke_Key.space	Key.space	n/a
45.7665	0.06	91533	keystroke_c	c	n/a
45.8415	0.135	91683	keystroke_a	a	n/a
45.9615	0.045	91923	keystroke_r	r	n/a
46.0665	0.06	92133	keystroke_e	e	n/a
46.2015	0.045	92403	keystroke_e	e	n/a
46.2165	0.15	92433	keystroke_r	r	n/a
46.9215	0.09	93843	keystroke_s	s	n/a
47.0115	0.06	94023	keystroke_Key.space	Key.space	n/a
47.6565	0.045	95313	keystroke_b	b	n/a
47.7165	0.1355	95433	keystroke_o	o	n/a
47.807	0.075	95614	keystroke_r	r	n/a
47.927	0.06	95854	keystroke_d	d	n/a
48.062	0.135	96124	keystroke_e	e	n/a
48.122	0.12	96244	keystroke_r	r	n/a
48.347	0.075	96694	keystroke_Key.enter	Key.enter	n/a
48.427	7.558	96854	prompt	n/a	currencies interface landscape birthday\n
49.142	0.12	98284	keystroke_c	c	n/a
49.292	0.09	98584	keystroke_u	u	n/a
49.412	0.045	98824	keystroke_r	r	n/a
49.517	0.0905	99034	keystroke_r	r	n/a
49.6525	0.075	99305	keystroke_e	e	n/a
49.7725	0.09	99545	keystroke_n	n	n/a
49.8775	0.075	99755	keystroke_c	c	n/a
49.9675	0.075	99935	keystroke_i	i	n/a
50.0425	0.06	100085	keystroke_e	e	n/a
50.1475	0.12	100295	keystroke_s	s	n/a
50.2525	0.045	100505	keystroke_Key.space	Key.space	n/a
50.4475	0.09	100895	keystroke_i	i	n/a
50.5375	0.105	101075	keystroke_n	n	n/a
50.5825	0.075	101165	keystroke_t	t	n/a
50.7475	0.09	101495	keystroke_e	e	n/a
50.8075	0.075	101615	keystroke_r	r	n/a
50.9875	0.12	101975	keystroke_f	f	n/a
51.1675	0.12	102335	keystroke_a	a	n/a
51.2425	0.12	102485	keystroke_c	c	n/a
51.3475	0.15	102695	keystroke_e	e	n/a
51.483	0.0595	102966	keystroke_Key.space	Key.space	n/a
51.873	0.06	103746	keystroke_l	l	n/a
51.918	0.09	103836	keystroke_a	a	n/a
52.023	0.075	104046	keystroke_n	n	n/a
52.083	0.105	104166	keystroke_d	d	n/a
52.263	0.075	104526	keystroke_s	s	n/a
52.818	0.06	105636	keystroke_Key.backspace	Key.backspace	n/a
53.7335	0.075	107467	keystroke_s	s	n/a
54.1235	0.135	108247	keystroke_c	c	n/a
54.1985	0.15	108397	keystroke_a	a	n/a
54.3325	0.091	108665	keystroke_p	p	n/a
54.4375	0.075	108875	keystroke_e	e	n/a
54.5275	0.06	109055	keystroke_Key.space	Key.space	n/a
54.6775	0.06	109355	keystroke_b	b	n/a
54.753	0.091	109506	keystroke_i	i	n/a
54.858	0.03	109716	keystroke_r	r	n/a
54.9625	0.0915	109925	keystroke_t	t	n/a
55.039	0.059	110078	keystroke_h	h	n/a
55.143	0.106	110286	keystroke_d	d	n/a
55.188	0.151	110376	keystroke_a	a	n/a
55.278	0.075	110556	keystroke_y	y	n/a
55.9085	0.075	111817	keystroke_Key.enter	Key.enter	n/a
55.988	6.7035	111976	prompt	n/a	waiting transportation scripts wiring\n
56.764	0.12	113528	keystroke_w	w	n/a
56.809	0.165	113618	keystroke_a	a	n/a
56.929	0.075	113858	keystroke_i	i	n/a
57.049	0.06	114098	keystroke_t	t	n/a
57.124	0.105	114248	keystroke_i	i	n/a
57.184	0.12	114368	keystroke_n	n	n/a
57.244	0.09	114488	keystroke_g	g	n/a
57.349	0.06	114698	keystroke_Key.space	Key.space	n/a
57.484	0.09	114968	keystroke_t	t	n/a
57.859	0.165	115718	keystroke_r	r	n/a
58.2795	0.105	116559	keystroke_a	a	n/a
58.4145	0.105	116829	keystroke_n	n	n/a
58.4895	0.105	116979	keystroke_s	s	n/a
58.6395	0.105	117279	keystroke_p	p	n/a
58.7745	0.06	117549	keystroke_o	o	n/a
58.8045	0.075	117609	keystroke_r	r	n/a
58.9545	0.075	117909	keystroke_t	t	n/a
59.0895	0.15	118179	keystroke_a	a	n/a
59.1645	0.12	118329	keystroke_t	t	n/a
59.2695	0.165	118539	keystroke_i	i	n/a
59.3295	0.135	118659	keystroke_o	o	n/a
59.4195	0.105	118839	keystroke_n	n	n/a
59.914	0.076	119828	keystroke_Key.space	Key.space	n/a
60.11	0.075	120220	keystroke_s	s	n/a
60.245	0.06	120490	keystroke_c	c	n/a
60.365	0.089	120730	keystroke_r	r	n/a
60.439	0.106	120878	keystroke_i	i	n/a
60.53	0.12	121060	keystroke_p	p	n/a
60.62	0.075	121240	keystroke_t	t	n/a
60.77	0.119	121540	keystroke_s	s	n/a
60.874	0.09	121748	keystroke_Key.space	Key.space	n/a
61.1745	0.12	122349	keystroke_w	w	n/a
61.2495	0.105	122499	keystroke_r	r	n/a
61.5795	0.06	123159	keystroke_Key.backspace	Key.backspace	n/a
61.7745	0.075	123549	keystroke_i	i	n/a
61.8645	0.06	123729	keystroke_r	r	n/a
61.9395	0.105	123879	keystroke_i	i	n/a
61.9995	0.105	123999	keystroke_n	n	n/a
62.0895	0.076	124179	keystroke_g	g	n/a
62.6	0.0895	125200	keystroke_Key.enter	Key.enter	n/a
62.6945	5.2025	125389	prompt	n/a	champagne general removable blank\n
63.291	0.104	126582	keystroke_c	c	n/a
63.38	0.091	126760	keystroke_h	h	n/a
63.455	0.121	126910	keystroke_a	a	n/a
63.786	0.104	127572	keystroke_m	m	n/a
64.055	0.09	128110	keystroke_p	p	n/a
64.205	0.135	128410	keystroke_a	a	n/a
64.596	0.089	129192	keystroke_g	g	n/a
64.73	0.09	129460	keystroke_n	n	n/a
64.835	0.09	129670	keystroke_e	e	n/a
64.985	0.075	129970	keystroke_Key.space	Key.space	n/a
65.21	0.06	130420	keystroke_g	g	n/a
65.315	0.06	130630	keystroke_e	e	n/a
65.39	0.105	130780	keystroke_n	n	n/a
65.48	0.105	130960	keystroke_e	e	n/a
65.54	0.165	131080	keystroke_r	r	n/a
65.675	0.135	131350	keystroke_a	a	n/a
65.75	0.135	131500	keystroke_l	l	n/a
65.825	0.075	131650	keystroke_Key.space	Key.space	n/a
65.9455	0.1195	131891	keystroke_r	r	n/a
66.05	0.09	132100	keystroke_e	e	n/a
66.125	0.09	132250	keystroke_m	m	n/a
66.185	0.09	132370	keystroke_o	o	n/a
66.26	0.075	132520	keystroke_v	v	n/a
66.4105	0.1195	132821	keystroke_a	a	n/a
66.5	0.0905	133000	keystroke_b	b	n/a
66.5755	0.15	133151	keystroke_l	l	n/a
66.6805	0.105	133361	keystroke_e	e	n/a
66.7705	0.09	133541	keystroke_Key.space	Key.space	n/a
66.95	0.075	133900	keystroke_b	b	n/a
67.01	0.0755	134020	keystroke_l	l	n/a
67.1005	0.105	134201	keystroke_a	a	n/a
67.1605	0.105	134321	keystroke_n	n	n/a
67.2665	0.0885	134533	keystroke_k	k	n/a
67.805	0.09	135610	keystroke_Key.enter	Key.enter	n/a
67.9	3.357	135800	prompt	n/a	gross managed count acting\n
68.5255	0.06	137051	keystroke_g	g	n/a
68.6605	0.09	137321	keystroke_r	r	n/a
68.7805	0.09	137561	keystroke_o	o	n/a
68.8555	0.06	137711	keystroke_s	s	n/a
68.9605	0.12	137921	keystroke_s	s	n/a
69.0655	0.075	138131	keystroke_Key.space	Key.space	n/a
69.1405	0.12	138281	keystroke_m	m	n/a
69.2155	0.06	138431	keystroke_a	a	n/a
69.3055	0.0905	138611	keystroke_n	n	n/a
69.3355	0.1205	138671	keystroke_a	a	n/a
69.441	0.0895	138882	keystroke_g	g	n/a
69.5755	0.06	139151	keystroke_e	e	n/a
69.6955	0.1355	139391	keystroke_d	d	n/a
69.771	0.1195	139542	keystroke_Key.space	Key.space	n/a
70.0705	0.1355	140141	keystroke_c	c	n/a
70.161	0.075	140322	keystroke_o	o	n/a
70.221	0.045	140442	keystroke_u	u	n/a
70.3555	0.09	140711	keystroke_n	n	n/a
70.4305	0.075	140861	keystroke_t	t	n/a
70.5205	0.06	141041	keystroke_Key.space	Key.space	n/a
70.596	0.135	141192	keystroke_a	a	n/a
70.701	0.075	141402	keystroke_c	c	n/a
70.851	0.06	141702	keystroke_t	t	n/a
70.926	0.075	141852	keystroke_i	i	n/a
70.956	0.105	141912	keystroke_n	n	n/a
71.016	0.06	142032	keystroke_g	g	n/a
71.181	0.075	142362	keystroke_Key.enter	Key.enter	n/a
71.261	5.3065	142522	prompt	n/a	unusual nursery horn raised\n
71.886	0.06	143772	keystroke_u	u	n/a
72.036	0.075	144072	keystroke_n	n	n/a
72.231	0.06	144462	keystroke_u	u	n/a
72.621	0.075	145242	keystroke_s	s	n/a
72.711	0.075	145422	keystroke_u	u	n/a
72.816	0.09	145632	keystroke_a	a	n/a
72.891	0.09	145782	keystroke_l	l	n/a
73.056	0.105	146112	keystroke_Key.space	Key.space	n/a
74.331	0.075	148662	keystroke_n	n	n/a
74.481	0.06	148962	keystroke_u	u	n/a
74.616	0.06	149232	keystroke_r	r	n/a
74.751	0.06	149502	keystroke_s	s	n/a
74.856	0.135	149712	keystroke_e	e	n/a
74.961	0.075	149922	keystroke_r	r	n/a
75.051	0.105	150102	keystroke_y	y	n/a
75.216	0.075	150432	keystroke_Key.space	Key.space	n/a
75.306	0.06	150612	keystroke_h	h	n/a
75.351	0.09	150702	keystroke_o	o	n/a
75.441	0.06	150882	keystroke_r	r	n/a
75.5305	0.09	151061	keystroke_n	n	n/a
75.6215	0.044	151243	keystroke_Key.space	Key.space	n/a
75.8755	0.105	151751	keystroke_r	r	n/a
75.9505	0.09	151901	keystroke_a	a	n/a
76.0105	0.091	152021	keystroke_i	i	n/a
76.1155	0.075	152231	keystroke_s	s	n/a
76.2355	0.06	152471	keystroke_e	e	n/a
76.3555	0.1055	152711	keystroke_d	d	n/a
76.491	0.075	152982	keystroke_Key.enter	Key.enter	n/a
76.5755	3.772	153151	prompt	n/a	sport teaches minerals favorites\n
77.181	0.09	154362	keystroke_s	s	n/a
77.256	0.075	154512	keystroke_p	p	n/a
77.331	0.09	154662	keystroke_o	o	n/a
77.406	0.045	154812	keystroke_r	r	n/a
77.5405	0.075	155081	keystroke_t	t	n/a
77.6305	0.075	155261	keystroke_Key.space	Key.space	n/a
77.7505	0.09	155501	keystroke_t	t	n/a
77.8555	0.105	155711	keystroke_e	e	n/a
77.9305	0.135	155861	keystroke_a	a	n/a
78.0055	0.105	156011	keystroke_c	c	n/a
78.0805	0.09	156161	keystroke_h	h	n/a
78.2005	0.06	156401	keystroke_e	e	n/a
78.3055	0.12	156611	keystroke_s	s	n/a
78.4105	0.075	156821	keystroke_Key.space	Key.space	n/a
78.5305	0.075	157061	keystroke_m	m	n/a
78.6205	0.105	157241	keystroke_i	i	n/a
78.6955	0.0905	157391	keystroke_n	n	n/a
78.831	0.1195	157662	keystroke_e	e	n/a
78.9205	0.1205	157841	keystroke_r	r	n/a
79.011	0.105	158022	keystroke_a	a	n/a
79.086	0.105	158172	keystroke_l	l	n/a
79.192	0.119	158384	keystroke_s	s	n/a
79.296	0.0745	158592	keystroke_Key.space	Key.space	n/a
79.431	0.06	158862	keystroke_f	f	n/a
79.506	0.105	159012	keystroke_a	a	n/a
79.596	0.09	159192	keystroke_v	v	n/a
79.701	0.06	159402	keystroke_o	o	n/a
79.791	0.06	159582	keystroke_r	r	n/a
79.866	0.12	159732	keystroke_i	i	n/a
79.941	0.06	159882	keystroke_t	t	n/a
80.002	0.119	160004	keystroke_e	e	n/a
80.106	0.12	160212	keystroke_s	s	n/a
80.256	0.09	160512	keystroke_Key.enter	Key.enter	n/a
80.3505	4.482	160701	prompt	n/a	closer filters schools awareness\n
80.946	0.075	161892	keystroke_c	c	n/a
81.006	0.045	162012	keystroke_l	l	n/a
81.111	0.075	162222	keystroke_o	o	n/a
81.156	0.06	162312	keystroke_s	s	n/a
81.321	0.09	162642	keystroke_e	e	n/a
81.366	0.105	162732	keystroke_r	r	n/a
81.441	0.105	162882	keystroke_Key.space	Key.space	n/a
81.576	0.09	163152	keystroke_f	f	n/a
81.666	0.06	163332	keystroke_i	i	n/a
81.771	0.105	163542	keystroke_l	l	n/a
81.906	0.06	163812	keystroke_t	t	n/a
82.026	0.09	164052	keystroke_e	e	n/a
82.086	0.075	164172	keystroke_r	r	n/a
82.221	0.1055	164442	keystroke_s	s	n/a
82.3415	0.0445	164683	keystroke_Key.space	Key.space	n/a
82.446	0.105	164892	keystroke_s	s	n/a
82.521	0.12	165042	keystroke_c	c	n/a
82.596	0.075	165192	keystroke_h	h	n/a
82.656	0.045	165312	keystroke_o	o	n/a
82.761	0.075	165522	keystroke_o	o	n/a
82.941	0.105	165882	keystroke_l	l	n/a
83.106	0.1205	166212	keystroke_s	s	n/a
83.196	0.0755	166392	keystroke_Key.space	Key.space	n/a
83.5715	0.09	167143	keystroke_a	a	n/a
83.6915	0.135	167383	keystroke_w	w	n/a
83.7965	0.15	167593	keystroke_a	a	n/a
83.9165	0.12	167833	keystroke_r	r	n/a
84.0215	0.075	168043	keystroke_e	e	n/a
84.1565	0.09	168313	keystroke_n	n	n/a
84.2615	0.06	168523	keystroke_e	e	n/a
84.3815	0.06	168763	keystroke_s	s	n/a
84.501	0.09	169002	keystroke_s	s	n/a
84.741	0.09	169482	keystroke_Key.enter	Key.enter	n/a
84.836	4.5115	169672	prompt	n/a	highest seventh java blackjack\n
85.431	0.06	170862	keystroke_h	h	n/a
85.461	0.075	170922	keystroke_i	i	n/a
85.581	0.06	171162	keystroke_g	g	n/a
85.656	0.075	171312	keystroke_h	h	n/a
85.776	0.075	171552	keystroke_e	e	n/a
85.911	0.135	171822	keystroke_s	s	n/a
85.986	0.09	171972	keystroke_t	t	n/a
86.091	0.06	172182	keystroke_Key.space	Key.space	n/a
86.361	0.075	172722	keystroke_s	s	n/a
86.496	0.075	172992	keystroke_e	e	n/a
86.646	0.06	173292	keystroke_v	v	n/a
86.751	0.075	173502	keystroke_e	e	n/a
86.841	0.075	173682	keystroke_n	n	n/a
86.917	0.059	173834	keystroke_t	t	n/a
87.021	0.09	174042	keystroke_h	h	n/a
87.081	0.075	174162	keystroke_Key.space	Key.space	n/a
87.321	0.09	174642	keystroke_j	j	n/a
87.396	0.1045	174792	keystroke_a	a	n/a
87.4855	0.09	174971	keystroke_v	v	n/a
87.5915	0.105	175183	keystroke_a	a	n/a
88.0555	0.075	176111	keystroke_Key.space	Key.space	n/a
88.2055	0.09	176411	keystroke_b	b	n/a
88.3565	0.104	176713	keystroke_l	l	n/a
88.4455	0.135	176891	keystroke_a	a	n/a
88.5205	0.106	177041	keystroke_c	c	n/a
88.5505	0.105	177101	keystroke_k	k	n/a
88.8065	0.074	177613	keystroke_j	j	n/a
88.8655	0.151	177731	keystroke_a	a	n/a
88.9555	0.121	177911	keystroke_c	c	n/a
89.0465	0.09	178093	keystroke_k	k	n/a
89.2715	0.074	178543	keystroke_Key.enter	Key.enter	n/a
89.3505	5.277	178701	prompt	n/a	replica reach fair directory\n
89.976	0.12	179952	keystroke_r	r	n/a
90.081	0.09	180162	keystroke_e	e	n/a
90.172	0.074	180344	keystroke_p	p	n/a
90.351	0.105	180702	keystroke_l	l	n/a
90.426	0.09	180852	keystroke_i	i	n/a
90.471	0.075	180942	keystroke_a	a	n/a
90.517	0.134	181034	keystroke_c	c	n/a
91.221	0.045	182442	keystroke_Key.backspace	Key.backspace	n/a
91.311	0.075	182622	keystroke_Key.backspace	Key.backspace	n/a
91.476	0.105	182952	keystroke_c	c	n/a
91.566	0.135	183132	keystroke_a	a	n/a
91.821	0.105	183642	keystroke_Key.space	Key.space	n/a
92.226	0.09	184452	keystroke_r	r	n/a
92.301	0.105	184602	keystroke_e	e	n/a
92.376	0.1345	184752	keystroke_a	a	n/a
92.451	0.12	184902	keystroke_c	c	n/a
92.541	0.0905	185082	keystroke_h	h	n/a
92.616	0.09	185232	keystroke_Key.space	Key.space	n/a
92.721	0.075	185442	keystroke_f	f	n/a
92.796	0.12	185592	keystroke_a	a	n/a
92.826	0.105	185652	keystroke_i	i	n/a
92.946	0.12	185892	keystroke_r	r	n/a
93.021	0.105	186042	keystroke_Key.space	Key.space	n/a
93.411	0.075	186822	keystroke_d	d	n/a
93.5005	0.09	187001	keystroke_i	i	n/a
93.5605	0.075	187121	keystroke_r	r	n/a
93.6205	0.075	187241	keystroke_e	e	n/a
93.7405	0.06	187481	keystroke_c	c	n/a
93.8755	0.06	187751	keystroke_t	t	n/a
93.9365	0.1045	187873	keystroke_o	o	n/a
94.026	0.075	188052	keystroke_r	r	n/a
94.131	0.075	188262	keystroke_y	y	n/a
94.5355	0.09	189071	keystroke_Key.enter	Key.enter	n/a
94.6315	3.641	189263	prompt	n/a	rats nested dive talent\n
95.2115	0.089	190423	keystroke_r	r	n/a
95.3155	0.105	190631	keystroke_a	a	n/a
95.3905	0.09	190781	keystroke_t	t	n/a
95.5405	0.12	191081	keystroke_s	s	n/a
95.6455	0.06	191291	keystroke_Key.space	Key.space	n/a
95.7655	0.105	191531	keystroke_n	n	n/a
95.8555	0.09	191711	keystroke_e	e	n/a
96.0205	0.105	192041	keystroke_s	s	n/a
96.1115	0.074	192223	keystroke_t	t	n/a
96.2155	0.06	192431	keystroke_e	e	n/a
96.3655	0.105	192731	keystroke_d	d	n/a
96.3955	0.105	192791	keystroke_Key.space	Key.space	n/a
96.9205	0.075	193841	keystroke_d	d	n/a
97.0105	0.09	194021	keystroke_i	i	n/a
97.0855	0.06	194171	keystroke_v	v	n/a
97.2215	0.09	194443	keystroke_e	e	n/a
97.3115	0.059	194623	keystroke_Key.space	Key.space	n/a
97.4765	0.1195	194953	keystroke_t	t	n/a
97.566	0.121	195132	keystroke_a	a	n/a
97.671	0.0905	195342	keystroke_l	l	n/a
97.7755	0.0755	195551	keystroke_e	e	n/a
97.836	0.09	195672	keystroke_n	n	n/a
97.911	0.075	195822	keystroke_t	t	n/a
98.1955	0.075	196391	keystroke_Key.enter	Key.enter	n/a
98.277	6.4455	196554	prompt	n/a	they'd calendar resorts collective\n
98.9455	0.075	197891	keystroke_t	t	n/a
99.0355	0.06	198071	keystroke_h	h	n/a
99.0655	0.075	198131	keystroke_e	e	n/a
99.1555	0.075	198311	keystroke_y	y	n/a
99.2905	0.1205	198581	keystroke_'	'	n/a
99.426	0.1045	198852	keystroke_d	d	n/a
99.5155	0.075	199031	keystroke_Key.space	Key.space	n/a
99.6655	0.12	199331	keystroke_c	c	n/a
99.7705	0.0755	199541	keystroke_a	a	n/a
100.5355	0.015	201071	keystroke_l	l	n/a
100.5955	0.06	201191	keystroke_e	e	n/a
100.7005	0.105	201401	keystroke_n	n	n/a
100.7905	0.105	201581	keystroke_d	d	n/a
100.8965	0.149	201793	keystroke_a	a	n/a
100.9705	0.18	201941	keystroke_r	r	n/a
101.1355	0.06	202271	keystroke_Key.space	Key.space	n/a
101.751	0.09	203502	keystroke_r	r	n/a
102.006	0.09	204012	keystroke_e	e	n/a
102.231	0.06	204462	keystroke_s	s	n/a
102.576	0.09	205152	keystroke_o	o	n/a
102.651	0.075	205302	keystroke_r	r	n/a
102.801	0.075	205602	keystroke_t	t	n/a
102.921	0.135	205842	keystroke_s	s	n/a
103.026	0.075	206052	keystroke_Key.space	Key.space	n/a
103.461	0.105	206922	keystroke_c	c	n/a
103.536	0.075	207072	keystroke_o	o	n/a
103.686	0.06	207372	keystroke_l	l	n/a
103.806	0.09	207612	keystroke_l	l	n/a
103.881	0.075	207762	keystroke_e	e	n/a
103.986	0.09	207972	keystroke_c	c	n/a
104.136	0.09	208272	keystroke_t	t	n/a
104.211	0.075	208422	keystroke_i	i	n/a
104.316	0.075	208632	keystroke_v	v	n/a
104.436	0.09	208872	keystroke_e	e	n/a
104.631	0.09	209262	keystroke_Key.enter	Key.enter	n/a
104.7255	5.682	209451	prompt	n/a	jeff towns mystery madrid\n
105.516	0.075	211032	keystroke_j	j	n/a
105.6365	0.075	211273	keystroke_e	e	n/a
105.8015	0.0595	211603	keystroke_f	f	n/a
105.906	0.105	211812	keystroke_f	f	n/a
106.041	0.075	212082	keystroke_Key.space	Key.space	n/a
106.236	0.06	212472	keystroke_t	t	n/a
106.311	0.075	212622	keystroke_o	o	n/a
106.371	0.0755	212742	keystroke_w	w	n/a
106.4615	0.09	212923	keystroke_n	n	n/a
106.671	0.15	213342	keystroke_s	s	n/a
106.776	0.075	213552	keystroke_Key.space	Key.space	n/a
106.971	0.0155	213942	keystroke_r	r	n/a
107.676	0.045	215352	keystroke_Key.backspace	Key.backspace	n/a
107.886	0.045	215772	keystroke_m	m	n/a
108.021	0.12	216042	keystroke_y	y	n/a
108.156	0.0455	216312	keystroke_s	s	n/a
108.2915	0.075	216583	keystroke_t	t	n/a
108.4865	0.135	216973	keystroke_e	e	n/a
108.5615	0.12	217123	keystroke_r	r	n/a
108.6365	0.075	217273	keystroke_y	y	n/a
108.875	0.1055	217750	keystroke_Key.space	Key.space	n/a
109.101	0.105	218202	keystroke_m	m	n/a
109.251	0.0745	218502	keystroke_a	a	n/a
109.431	0.075	218862	keystroke_d	d	n/a
109.611	0.06	219222	keystroke_r	r	n/a
109.701	0.075	219402	keystroke_i	i	n/a
109.791	0.12	219582	keystroke_d	d	n/a
110.331	0.075	220662	keystroke_Key.enter	Key.enter	n/a
110.416	6.7115	220832	prompt	n/a	generation optical appreciate degree\n
111.186	0.06	222372	keystroke_g	g	n/a
111.321	0.06	222642	keystroke_e	e	n/a
111.396	0.105	222792	keystroke_n	n	n/a
111.486	0.105	222972	keystroke_e	e	n/a
111.561	0.075	223122	keystroke_r	r	n/a
111.651	0.15	223302	keystroke_a	a	n/a
111.741	0.09	223482	keystroke_t	t	n/a
111.786	0.135	223572	keystroke_i	i	n/a
111.846	0.09	223692	keystroke_o	o	n/a
111.906	0.105	223812	keystroke_n	n	n/a
111.996	0.06	223992	keystroke_Key.space	Key.space	n/a
112.116	0.135	224232	keystroke_o	o	n/a
112.221	0.105	224442	keystroke_p	p	n/a
112.356	0.075	224712	keystroke_t	t	n/a
112.416	0.105	224832	keystroke_i	i	n/a
112.551	0.105	225102	keystroke_c	c	n/a
112.611	0.135	225222	keystroke_a	a	n/a
112.686	0.105	225372	keystroke_l	l	n/a
112.806	0.06	225612	keystroke_Key.space	Key.space	n/a
112.911	0.105	225822	keystroke_a	a	n/a
113.556	0.075	227112	keystroke_Key.backspace	Key.backspace	n/a
113.781	0.105	227562	keystroke_a	a	n/a
113.871	0.0595	227742	keystroke_p	p	n/a
113.9755	0.075	227951	keystroke_p	p	n/a
114.0805	0.105	228161	keystroke_r	r	n/a
114.2155	0.12	228431	keystroke_e	e	n/a
114.4555	0.06	228911	keystroke_c	c	n/a
114.4855	0.09	228971	keystroke_i	i	n/a
115.5655	0.135	231131	keystroke_a	a	n/a
115.6405	0.105	231281	keystroke_t	t	n/a
115.7605	0.12	231521	keystroke_e	e	n/a
115.9405	0.075	231881	keystroke_Key.space	Key.space	n/a
116.0905	0.06	232181	keystroke_d	d	n/a
116.2255	0.075	232451	keystroke_e	e	n/a
116.3605	0.045	232721	keystroke_g	g	n/a
116.4655	0.09	232931	keystroke_r	r	n/a
116.5705	0.045	233141	keystroke_e	e	n/a
116.6605	0.105	233321	keystroke_e	e	n/a
117.0355	0.09	234071	keystroke_Key.enter	Key.enter	n/a
117.132	6.37	234264	prompt	n/a	egyptian vampire randy bizrate\n
117.9355	0.06	235871	keystroke_e	e	n/a
118.2055	0.075	236411	keystroke_g	g	n/a
118.3405	0.09	236681	keystroke_y	y	n/a
118.4905	0.12	236981	keystroke_p	p	n/a
118.6405	0.09	237281	keystroke_t	t	n/a
118.7455	0.075	237491	keystroke_i	i	n/a
119.0155	0.135	238031	keystroke_a	a	n/a
119.1055	0.105	238211	keystroke_n	n	n/a
119.2405	0.09	238481	keystroke_Key.space	Key.space	n/a
119.4955	0.105	238991	keystroke_v	v	n/a
119.5855	0.12	239171	keystroke_a	a	n/a
119.6905	0.105	239381	keystroke_m	m	n/a
119.7805	0.105	239561	keystroke_p	p	n/a
119.9005	0.09	239801	keystroke_i	i	n/a
120.0055	0.12	240011	keystroke_r	r	n/a
120.0955	0.105	240191	keystroke_e	e	n/a
120.5305	0.075	241061	keystroke_Key.space	Key.space	n/a
120.7405	0.09	241481	keystroke_r	r	n/a
120.8455	0.105	241691	keystroke_a	a	n/a
120.9355	0.09	241871	keystroke_n	n	n/a
121.0405	0.075	242081	keystroke_d	d	n/a
121.1305	0.09	242261	keystroke_y	y	n/a
121.2055	0.09	242411	keystroke_Key.space	Key.space	n/a
121.4605	0.075	242921	keystroke_b	b	n/a
121.5655	0.09	243131	keystroke_i	i	n/a
121.8205	0.105	243641	keystroke_z	z	n/a
122.2555	0.09	244511	keystroke_r	r	n/a
122.3605	0.12	244721	keystroke_a	a	n/a
122.4355	0.135	244871	keystroke_t	t	n/a
122.5405	0.105	245081	keystroke_e	e	n/a
123.4255	0.075	246851	keystroke_Key.enter	Key.enter	n/a
123.5045	4.6175	247009	prompt	n/a	dame steel deposit removal\n
124.1005	0.09	248201	keystroke_d	d	n/a
124.1455	0.15	248291	keystroke_a	a	n/a
124.2355	0.105	248471	keystroke_m	m	n/a
124.3555	0.075	248711	keystroke_e	e	n/a
124.4455	0.045	248891	keystroke_Key.space	Key.space	n/a
124.5355	0.09	249071	keystroke_s	s	n/a
124.6265	0.089	249253	keystroke_t	t	n/a
124.7305	0.045	249461	keystroke_e	e	n/a
124.8355	0.09	249671	keystroke_e	e	n/a
124.9265	0.104	249853	keystroke_l	l	n/a
125.0155	0.06	250031	keystroke_Key.space	Key.space	n/a
125.1205	0.06	250241	keystroke_d	d	n/a
125.2555	0.075	250511	keystroke_e	e	n/a
125.3455	0.105	250691	keystroke_p	p	n/a
125.4355	0.12	250871	keystroke_o	o	n/a
125.5705	0.105	251141	keystroke_s	s	n/a
125.7355	0.03	251471	keystroke_t	t	n/a
125.8255	0.09	251651	keystroke_i	i	n/a
126.2305	0.045	252461	keystroke_Key.backspace	Key.backspace	n/a
126.3355	0.075	252671	keystroke_Key.backspace	Key.backspace	n/a
126.5455	0.06	253091	keystroke_i	i	n/a
126.6505	0.09	253301	keystroke_t	t	n/a
126.8155	0.06	253631	keystroke_Key.space	Key.space	n/a
127.2055	0.12	254411	keystroke_r	r	n/a
127.2955	0.0895	254591	keystroke_e	e	n/a
127.4	0.075	254800	keystroke_m	m	n/a
127.445	0.105	254890	keystroke_o	o	n/a
127.535	0.075	255070	keystroke_v	v	n/a
127.64	0.1205	255280	keystroke_a	a	n/a
127.7455	0.0595	255491	keystroke_l	l	n/a
128.046	0.075	256092	keystroke_Key.enter	Key.enter	n/a
128.125	5.832	256250	prompt	n/a	nomination authentication diesel judgment\n
128.8405	0.0905	257681	keystroke_n	n	n/a
128.9155	0.1045	257831	keystroke_o	o	n/a
129.035	0.091	258070	keystroke_m	m	n/a
129.14	0.105	258280	keystroke_i	i	n/a
129.216	0.104	258432	keystroke_n	n	n/a
129.29	0.135	258580	keystroke_a	a	n/a
129.365	0.121	258730	keystroke_t	t	n/a
129.471	0.119	258942	keystroke_i	i	n/a
129.5	0.105	259000	keystroke_o	o	n/a
129.576	0.09	259152	keystroke_n	n	n/a
129.635	0.076	259270	keystroke_Key.space	Key.space	n/a
129.771	0.119	259542	keystroke_a	a	n/a
129.861	0.074	259722	keystroke_u	u	n/a
129.965	0.06	259930	keystroke_t	t	n/a
130.041	0.059	260082	keystroke_h	h	n/a
130.115	0.0755	260230	keystroke_e	e	n/a
130.2205	0.075	260441	keystroke_n	n	n/a
130.3105	0.06	260621	keystroke_t	t	n/a
130.4155	0.09	260831	keystroke_i	i	n/a
130.5355	0.09	261071	keystroke_c	c	n/a
130.5955	0.15	261191	keystroke_a	a	n/a
130.8055	0.06	261611	keystroke_t	t	n/a
130.8805	0.12	261761	keystroke_i	i	n/a
130.9105	0.105	261821	keystroke_o	o	n/a
130.9855	0.105	261971	keystroke_n	n	n/a
131.0605	0.045	262121	keystroke_Key.space	Key.space	n/a
131.2105	0.105	262421	keystroke_d	d	n/a
131.7805	0.045	263561	keystroke_Key.backspace	Key.backspace	n/a
132.0505	0.09	264101	keystroke_d	d	n/a
132.1555	0.09	264311	keystroke_i	i	n/a
132.2605	0.06	264521	keystroke_e	e	n/a
132.4555	0.09	264911	keystroke_s	s	n/a
132.5755	0.105	265151	keystroke_e	e	n/a
132.6655	0.12	265331	keystroke_l	l	n/a
132.7855	0.06	265571	keystroke_Key.space	Key.space	n/a
132.9805	0.06	265961	keystroke_j	j	n/a
133.0855	0.075	266171	keystroke_u	u	n/a
133.1455	0.06	266291	keystroke_d	d	n/a
133.2655	0.09	266531	keystroke_g	g	n/a
133.3705	0.075	266741	keystroke_m	m	n/a
133.4605	0.0745	266921	keystroke_e	e	n/a
133.536	0.089	267072	keystroke_n	n	n/a
133.61	0.075	267220	keystroke_t	t	n/a
133.88	0.075	267760	keystroke_Key.enter	Key.enter	n/a
133.96	4.8715	267920	prompt	n/a	suddenly doll session remarks\n
134.615	0.105	269230	keystroke_s	s	n/a
134.75	0.09	269500	keystroke_u	u	n/a
134.855	0.03	269710	keystroke_d	d	n/a
134.975	0.045	269950	keystroke_e	e	n/a
135.6795	0.0905	271359	keystroke_Key.backspace	Key.backspace	n/a
135.7545	0.09	271509	keystroke_d	d	n/a
135.9195	0.0905	271839	keystroke_e	e	n/a
136.025	0.075	272050	keystroke_n	n	n/a
136.16	0.075	272320	keystroke_l	l	n/a
136.25	0.0895	272500	keystroke_y	y	n/a
136.3695	0.09	272739	keystroke_Key.space	Key.space	n/a
136.4745	0.09	272949	keystroke_d	d	n/a
136.5795	0.075	273159	keystroke_o	o	n/a
136.7445	0.06	273489	keystroke_l	l	n/a
136.8495	0.075	273699	keystroke_l	l	n/a
136.9695	0.075	273939	keystroke_Key.space	Key.space	n/a
137.0595	0.075	274119	keystroke_s	s	n/a
137.1945	0.06	274389	keystroke_e	e	n/a
137.2995	0.075	274599	keystroke_s	s	n/a
137.4195	0.121	274839	keystroke_s	s	n/a
137.5255	0.135	275051	keystroke_i	i	n/a
137.5705	0.105	275141	keystroke_o	o	n/a
137.6305	0.135	275261	keystroke_n	n	n/a
137.7955	0.09	275591	keystroke_Key.space	Key.space	n/a
138.1105	0.12	276221	keystroke_r	r	n/a
138.2155	0.09	276431	keystroke_e	e	n/a
138.2905	0.09	276581	keystroke_m	m	n/a
138.3655	0.12	276731	keystroke_a	a	n/a
138.4405	0.075	276881	keystroke_r	r	n/a
138.5005	0.09	277001	keystroke_k	k	n/a
138.6055	0.075	277211	keystroke_s	s	n/a
138.7405	0.09	277481	keystroke_Key.enter	Key.enter	n/a
138.835	4.9165	277670	prompt	n/a	peace arrivals nearest podcast\n
139.4455	0.12	278891	keystroke_p	p	n/a
139.5355	0.075	279071	keystroke_e	e	n/a
139.5955	0.12	279191	keystroke_a	a	n/a
139.6705	0.09	279341	keystroke_c	c	n/a
139.7755	0.09	279551	keystroke_e	e	n/a
139.8805	0.06	279761	keystroke_Key.space	Key.space	n/a
139.9855	0.135	279971	keystroke_a	a	n/a
140.0605	0.075	280121	keystroke_r	r	n/a
140.18	0.075	280360	keystroke_r	r	n/a
140.285	0.09	280570	keystroke_i	i	n/a
140.36	0.12	280720	keystroke_v	v	n/a
140.45	0.105	280900	keystroke_a	a	n/a
140.54	0.09	281080	keystroke_l	l	n/a
140.645	0.09	281290	keystroke_s	s	n/a
140.72	0.075	281440	keystroke_Key.space	Key.space	n/a
140.81	0.09	281620	keystroke_n	n	n/a
140.915	0.135	281830	keystroke_e	e	n/a
140.99	0.105	281980	keystroke_a	a	n/a
141.035	0.135	282070	keystroke_r	r	n/a
141.171	0.104	282342	keystroke_e	e	n/a
141.26	0.135	282520	keystroke_s	s	n/a
141.35	0.105	282700	keystroke_t	t	n/a
141.425	0.06	282850	keystroke_Key.space	Key.space	n/a
141.515	0.105	283030	keystroke_p	p	n/a
141.605	0.15	283210	keystroke_o	o	n/a
141.785	0.03	283570	keystroke_s	s	n/a
141.965	0.06	283930	keystroke_d	d	n/a
142.085	0.06	284170	keystroke_Key.backspace	Key.backspace	n/a
142.19	0.075	284380	keystroke_Key.backspace	Key.backspace	n/a
142.28	0.12	284560	keystroke_d	d	n/a
142.415	0.075	284830	keystroke_c	c	n/a
142.55	0.165	285100	keystroke_s	s	n/a
142.655	0.045	285310	keystroke_t	t	n/a
142.865	0.03	285730	keystroke_Key.backspace	Key.backspace	n/a
142.9555	0.06	285911	keystroke_Key.backspace	Key.backspace	n/a
143.0305	0.255	286061	keystroke_a	a	n/a
143.1055	0.105	286211	keystroke_s	s	n/a
143.2105	0.03	286421	keystroke_t	t	n/a
143.6605	0.09	287321	keystroke_Key.enter	Key.enter	n/a
143.7545	3.672	287509	prompt	n/a	doing holes focuses pick\n
144.5305	0.09	289061	keystroke_d	d	n/a
144.5905	0.089	289181	keystroke_o	o	n/a
144.6655	0.12	289331	keystroke_i	i	n/a
144.7245	0.106	289449	keystroke_n	n	n/a
144.7995	0.091	289599	keystroke_g	g	n/a
144.8755	0.074	289751	keystroke_Key.space	Key.space	n/a
144.9505	0.06	289901	keystroke_h	h	n/a
144.9955	0.089	289991	keystroke_o	o	n/a
145.1155	0.119	290231	keystroke_l	l	n/a
145.2205	0.06	290441	keystroke_e	e	n/a
145.3405	0.12	290681	keystroke_s	s	n/a
145.3995	0.076	290799	keystroke_Key.space	Key.space	n/a
145.6405	0.09	291281	keystroke_f	f	n/a
145.7155	0.075	291431	keystroke_o	o	n/a
145.8355	0.089	291671	keystroke_c	c	n/a
145.9095	0.075	291819	keystroke_u	u	n/a
146.0145	0.061	292029	keystroke_s	s	n/a
146.1505	0.06	292301	keystroke_e	e	n/a
146.3005	0.135	292601	keystroke_s	s	n/a
146.4945	0.091	292989	keystroke_Key.space	Key.space	n/a
146.8405	0.09	293681	keystroke_p	p	n/a
146.9155	0.075	293831	keystroke_i	i	n/a
146.9605	0.119	293921	keystroke_c	c	n/a
147.0655	0.105	294131	keystroke_k	k	n/a
147.3495	0.075	294699	keystroke_Key.enter	Key.enter	n/a
147.442	6.269	294884	prompt	n/a	introductory pastor integrated contributors\n
148.0995	0.0905	296199	keystroke_i	i	n/a
148.1595	0.1055	296319	keystroke_n	n	n/a
148.235	0.075	296470	keystroke_d	d	n/a
148.58	0.06	297160	keystroke_Key.backspace	Key.backspace	n/a
148.685	0.045	297370	keystroke_t	t	n/a
148.82	0.06	297640	keystroke_r	r	n/a
148.895	0.075	297790	keystroke_o	o	n/a
149.015	0.09	298030	keystroke_d	d	n/a
149.135	0.075	298270	keystroke_u	u	n/a
149.24	0.135	298480	keystroke_c	c	n/a
149.48	0.075	298960	keystroke_t	t	n/a
149.585	0.09	299170	keystroke_o	o	n/a
149.66	0.075	299320	keystroke_r	r	n/a
149.795	0.06	299590	keystroke_y	y	n/a
149.9	0.105	299800	keystroke_Key.space	Key.space	n/a
150.095	0.105	300190	keystroke_p	p	n/a
150.17	0.1045	300340	keystroke_a	a	n/a
150.23	0.135	300460	keystroke_s	s	n/a
150.35	0.06	300700	keystroke_t	t	n/a
150.425	0.09	300850	keystroke_o	o	n/a
150.485	0.105	300970	keystroke_r	r	n/a
150.62	0.06	301240	keystroke_Key.space	Key.space	n/a
150.86	0.105	301720	keystroke_i	i	n/a
150.935	0.105	301870	keystroke_n	n	n/a
150.995	0.06	301990	keystroke_t	t	n/a
151.145	0.09	302290	keystroke_e	e	n/a
151.34	0.06	302680	keystroke_g	g	n/a
151.475	0.09	302950	keystroke_r	r	n/a
151.805	0.15	303610	keystroke_a	a	n/a
151.94	0.09	303880	keystroke_t	t	n/a
152.045	0.075	304090	keystroke_e	e	n/a
152.18	0.12	304360	keystroke_d	d	n/a
152.3	0.075	304600	keystroke_Key.space	Key.space	n/a
152.435	0.09	304870	keystroke_c	c	n/a
152.495	0.09	304990	keystroke_o	o	n/a
152.57	0.0895	305140	keystroke_n	n	n/a
152.63	0.0445	305260	keystroke_t	t	n/a
152.7195	0.075	305439	keystroke_r	r	n/a
152.7795	0.075	305559	keystroke_i	i	n/a
152.9145	0.075	305829	keystroke_b	b	n/a
152.9745	0.06	305949	keystroke_u	u	n/a
153.0795	0.075	306159	keystroke_t	t	n/a
153.1995	0.09	306399	keystroke_o	o	n/a
153.2745	0.075	306549	keystroke_r	r	n/a
153.3795	0.135	306759	keystroke_s	s	n/a
153.634	0.076	307268	keystroke_Key.enter	Key.enter	n/a
153.715	5.681	307430	prompt	n/a	touched organization particular separation\n
154.3695	0.09	308739	keystroke_t	t	n/a
154.4445	0.075	308889	keystroke_o	o	n/a
154.5045	0.06	309009	keystroke_u	u	n/a
154.5795	0.09	309159	keystroke_c	c	n/a
154.6545	0.09	309309	keystroke_h	h	n/a
154.7145	0.06	309429	keystroke_e	e	n/a
154.8345	0.1055	309669	keystroke_d	d	n/a
154.895	0.09	309790	keystroke_Key.space	Key.space	n/a
155.045	0.09	310090	keystroke_o	o	n/a
155.105	0.06	310210	keystroke_r	r	n/a
155.345	0.015	310690	keystroke_g	g	n/a
155.375	0.09	310750	keystroke_a	a	n/a
155.48	0.075	310960	keystroke_n	n	n/a
155.54	0.09	311080	keystroke_i	i	n/a
155.645	0.09	311290	keystroke_z	z	n/a
155.87	0.135	311740	keystroke_a	a	n/a
155.96	0.135	311920	keystroke_t	t	n/a
156.02	0.135	312040	keystroke_i	i	n/a
156.11	0.075	312220	keystroke_o	o	n/a
156.14	0.105	312280	keystroke_n	n	n/a
156.92	0.135	313840	keystroke_Key.space	Key.space	n/a
157.07	0.09	314140	keystroke_p	p	n/a
157.1	0.135	314200	keystroke_a	a	n/a
157.175	0.075	314350	keystroke_r	r	n/a
157.31	0.09	314620	keystroke_t	t	n/a
157.415	0.09	314830	keystroke_i	i	n/a
157.519	0.0905	315038	keystroke_c	c	n/a
157.5795	0.075	315159	keystroke_u	u	n/a
157.6695	0.15	315339	keystroke_l	l	n/a
157.7445	0.1505	315489	keystroke_a	a	n/a
157.8345	0.1355	315669	keystroke_r	r	n/a
157.94	0.075	315880	keystroke_Key.space	Key.space	n/a
158.09	0.06	316180	keystroke_s	s	n/a
158.21	0.09	316420	keystroke_e	e	n/a
158.3	0.09	316600	keystroke_p	p	n/a
158.36	0.135	316720	keystroke_a	a	n/a
158.465	0.09	316930	keystroke_r	r	n/a
158.57	0.15	317140	keystroke_a	a	n/a
158.675	0.105	317350	keystroke_t	t	n/a
158.765	0.165	317530	keystroke_i	i	n/a
158.81	0.105	317620	keystroke_o	o	n/a
158.885	0.12	317770	keystroke_n	n	n/a
159.3195	0.075	318639	keystroke_Key.enter	Key.enter	n/a
159.401	4.45	318802	prompt	n/a	background members sorry isbn\n
160.01	0.089	320020	keystroke_b	b	n/a
160.129	0.226	320258	keystroke_a	a	n/a
160.294	0.135	320588	keystroke_c	c	n/a
160.399	0.106	320798	keystroke_k	k	n/a
160.594	0.061	321188	keystroke_g	g	n/a
160.715	0.105	321430	keystroke_r	r	n/a
160.805	0.074	321610	keystroke_o	o	n/a
160.865	0.06	321730	keystroke_u	u	n/a
160.984	0.091	321968	keystroke_n	n	n/a
161.045	0.104	322090	keystroke_d	d	n/a
161.134	0.061	322268	keystroke_Key.space	Key.space	n/a
161.165	0.09	322330	keystroke_m	m	n/a
161.269	0.061	322538	keystroke_e	e	n/a
161.344	0.076	322688	keystroke_m	m	n/a
161.404	0.075	322808	keystroke_b	b	n/a
161.5545	0.06	323109	keystroke_e	e	n/a
161.5995	0.12	323199	keystroke_r	r	n/a
161.6895	0.135	323379	keystroke_s	s	n/a
161.8095	0.075	323619	keystroke_Key.space	Key.space	n/a
161.9145	0.06	323829	keystroke_s	s	n/a
161.9595	0.09	323919	keystroke_o	o	n/a
162.0345	0.06	324069	keystroke_r	r	n/a
162.1245	0.09	324249	keystroke_r	r	n/a
162.2145	0.09	324429	keystroke_y	y	n/a
162.3345	0.075	324669	keystroke_Key.space	Key.space	n/a
162.5595	0.075	325119	keystroke_i	i	n/a
162.6045	0.1055	325209	keystroke_s	s	n/a
162.7395	0.09	325479	keystroke_n	n	n/a
162.8445	0.105	325689	keystroke_b	b	n/a
163.1295	0.045	326259	keystroke_Key.backspace	Key.backspace	n/a
163.2195	0.075	326439	keystroke_Key.backspace	Key.backspace	n/a
163.2795	0.09	326559	keystroke_b	b	n/a
163.3995	0.075	326799	keystroke_n	n	n/a
163.7745	0.075	327549	keystroke_Key.enter	Key.enter	n/a
163.854	4.1815	327708	prompt	n/a	ethics mainly bowling blackjack\n
164.629	0.1355	329258	keystroke_e	e	n/a
164.719	0.0905	329438	keystroke_t	t	n/a
164.8245	0.09	329649	keystroke_h	h	n/a
164.9295	0.09	329859	keystroke_i	i	n/a
165.0045	0.06	330009	keystroke_c	c	n/a
165.1395	0.075	330279	keystroke_s	s	n/a
165.244	0.0605	330488	keystroke_Key.space	Key.space	n/a
165.3195	0.09	330639	keystroke_m	m	n/a
165.4245	0.105	330849	keystroke_a	a	n/a
165.4695	0.0895	330939	keystroke_i	i	n/a
165.544	0.06	331088	keystroke_n	n	n/a
165.649	0.105	331298	keystroke_l	l	n/a
165.784	0.075	331568	keystroke_y	y	n/a
165.919	0.075	331838	keystroke_Key.space	Key.space	n/a
166.054	0.0755	332108	keystroke_b	b	n/a
166.1445	0.075	332289	keystroke_o	o	n/a
166.2345	0.09	332469	keystroke_w	w	n/a
166.3395	0.105	332679	keystroke_l	l	n/a
166.4445	0.12	332889	keystroke_i	i	n/a
166.5195	0.135	333039	keystroke_n	n	n/a
166.5945	0.09	333189	keystroke_g	g	n/a
166.6695	0.06	333339	keystroke_Key.space	Key.space	n/a
166.8495	0.075	333699	keystroke_b	b	n/a
166.9245	0.075	333849	keystroke_l	l	n/a
167.0145	0.105	334029	keystroke_a	a	n/a
167.0745	0.09	334149	keystroke_c	c	n/a
167.1345	0.075	334269	keystroke_k	k	n/a
167.3595	0.09	334719	keystroke_j	j	n/a
167.4345	0.1345	334869	keystroke_a	a	n/a
167.494	0.135	334988	keystroke_c	c	n/a
167.614	0.075	335228	keystroke_k	k	n/a
167.944	0.09	335888	keystroke_Key.enter	Key.enter	n/a
168.039	7.4665	336078	prompt	n/a	inkjet auctions period independence\n
168.709	0.09	337418	keystroke_i	i	n/a
168.784	0.105	337568	keystroke_n	n	n/a
168.904	0.105	337808	keystroke_k	k	n/a
169.054	0.09	338108	keystroke_e	e	n/a
169.3385	0.136	338677	keystroke_t	t	n/a
169.4585	0.061	338917	keystroke_Key.space	Key.space	n/a
170.704	0.06	341408	keystroke_Key.backspace	Key.backspace	n/a
170.899	0.0445	341798	keystroke_Key.backspace	Key.backspace	n/a
171.0785	0.06	342157	keystroke_Key.backspace	Key.backspace	n/a
171.7245	0.075	343449	keystroke_j	j	n/a
171.8145	0.12	343629	keystroke_e	e	n/a
171.9195	0.12	343839	keystroke_t	t	n/a
172.0095	0.09	344019	keystroke_Key.space	Key.space	n/a
172.2195	0.1195	344439	keystroke_a	a	n/a
172.309	0.075	344618	keystroke_u	u	n/a
172.534	0.075	345068	keystroke_c	c	n/a
172.699	0.075	345398	keystroke_t	t	n/a
172.789	0.12	345578	keystroke_i	i	n/a
172.834	0.09	345668	keystroke_o	o	n/a
172.879	0.12	345758	keystroke_n	n	n/a
172.954	0.18	345908	keystroke_s	s	n/a
173.284	0.075	346568	keystroke_Key.space	Key.space	n/a
173.449	0.105	346898	keystroke_p	p	n/a
173.554	0.09	347108	keystroke_e	e	n/a
173.614	0.09	347228	keystroke_r	r	n/a
173.749	0.09	347498	keystroke_i	i	n/a
173.779	0.12	347558	keystroke_o	o	n/a
173.869	0.105	347738	keystroke_d	d	n/a
173.959	0.075	347918	keystroke_Key.space	Key.space	n/a
174.064	0.105	348128	keystroke_i	i	n/a
174.139	0.12	348278	keystroke_n	n	n/a
174.244	0.075	348488	keystroke_d	d	n/a
174.394	0.075	348788	keystroke_e	e	n/a
174.484	0.075	348968	keystroke_p	p	n/a
174.56	0.059	349120	keystroke_e	e	n/a
174.664	0.09	349328	keystroke_n	n	n/a
174.784	0.075	349568	keystroke_d	d	n/a
174.934	0.06	349868	keystroke_e	e	n/a
175.009	0.075	350018	keystroke_n	n	n/a
175.144	0.105	350288	keystroke_c	c	n/a
175.219	0.105	350438	keystroke_e	e	n/a
175.444	0.06	350888	keystroke_Key.enter	Key.enter	n/a
175.5085	5.202	351017	prompt	n/a	classes contacts solid background\n
176.134	0.105	352268	keystroke_c	c	n/a
176.224	0.09	352448	keystroke_l	l	n/a
176.269	0.105	352538	keystroke_a	a	n/a
176.344	0.09	352688	keystroke_s	s	n/a
176.479	0.075	352958	keystroke_s	s	n/a
176.614	0.09	353228	keystroke_e	e	n/a
176.719	0.12	353438	keystroke_s	s	n/a
176.809	0.06	353618	keystroke_Key.space	Key.space	n/a
176.944	0.075	353888	keystroke_c	c	n/a
177.004	0.075	354008	keystroke_o	o	n/a
177.064	0.075	354128	keystroke_n	n	n/a
177.124	0.075	354248	keystroke_t	t	n/a
177.214	0.1345	354428	keystroke_a	a	n/a
177.3185	0.06	354637	keystroke_c	c	n/a
177.4685	0.06	354937	keystroke_t	t	n/a
177.6785	0.09	355357	keystroke_s	s	n/a
177.7835	0.075	355567	keystroke_Key.space	Key.space	n/a
177.9185	0.075	355837	keystroke_o	o	n/a
178.2035	0.075	356407	keystroke_Key.backspace	Key.backspace	n/a
178.3685	0.09	356737	keystroke_s	s	n/a
178.4435	0.075	356887	keystroke_o	o	n/a
178.5635	0.135	357127	keystroke_l	l	n/a
178.6385	0.135	357277	keystroke_i	i	n/a
178.7585	0.12	357517	keystroke_d	d	n/a
178.8335	0.09	357667	keystroke_Key.space	Key.space	n/a
178.9985	0.075	357997	keystroke_b	b	n/a
179.4035	0.165	358807	keystroke_a	a	n/a
179.4935	0.135	358987	keystroke_c	c	n/a
179.5985	0.09	359197	keystroke_k	k	n/a
179.8685	0.06	359737	keystroke_g	g	n/a
179.9885	0.09	359977	keystroke_r	r	n/a
180.0485	0.09	360097	keystroke_o	o	n/a
180.1235	0.045	360247	keystroke_u	u	n/a
180.2285	0.105	360457	keystroke_n	n	n/a
180.3035	0.075	360607	keystroke_d	d	n/a
180.6185	0.09	361237	keystroke_Key.enter	Key.enter	n/a
180.713	4.347	361426	prompt	n/a	from evaluations about step\n
181.3835	0.06	362767	keystroke_f	f	n/a
181.5035	0.09	363007	keystroke_r	r	n/a
181.6235	0.09	363247	keystroke_o	o	n/a
181.6685	0.1195	363337	keystroke_m	m	n/a
181.7285	0.0745	363457	keystroke_Key.space	Key.space	n/a
181.924	0.059	363848	keystroke_e	e	n/a
182.058	0.12	364116	keystroke_v	v	n/a
182.134	0.134	364268	keystroke_a	a	n/a
182.554	0.09	365108	keystroke_l	l	n/a
182.734	0.06	365468	keystroke_u	u	n/a
182.809	0.15	365618	keystroke_a	a	n/a
182.899	0.09	365798	keystroke_t	t	n/a
182.974	0.135	365948	keystroke_i	i	n/a
183.019	0.12	366038	keystroke_o	o	n/a
183.094	0.105	366188	keystroke_n	n	n/a
183.184	0.075	366368	keystroke_s	s	n/a
183.694	0.09	367388	keystroke_Key.space	Key.space	n/a
183.829	0.105	367658	keystroke_a	a	n/a
183.949	0.09	367898	keystroke_b	b	n/a
184.024	0.075	368048	keystroke_o	o	n/a
184.069	0.09	368138	keystroke_u	u	n/a
184.144	0.105	368288	keystroke_t	t	n/a
184.234	0.06	368468	keystroke_Key.space	Key.space	n/a
184.339	0.105	368678	keystroke_s	s	n/a
184.444	0.105	368888	keystroke_t	t	n/a
184.519	0.105	369038	keystroke_e	e	n/a
184.579	0.09	369158	keystroke_p	p	n/a
184.984	0.075	369968	keystroke_Key.enter	Key.enter	n/a
185.063	5.157	370126	prompt	n/a	voluntary paper young virtue\n
185.674	0.09	371348	keystroke_v	v	n/a
185.779	0.075	371558	keystroke_o	o	n/a
185.914	0.075	371828	keystroke_l	l	n/a
186.004	0.06	372008	keystroke_u	u	n/a
186.184	0.059	372368	keystroke_n	n	n/a
186.229	0.06	372458	keystroke_t	t	n/a
186.319	0.165	372638	keystroke_a	a	n/a
186.409	0.12	372818	keystroke_r	r	n/a
186.544	0.074	373088	keystroke_y	y	n/a
186.723	0.06	373446	keystroke_Key.space	Key.space	n/a
187.068	0.075	374136	keystroke_p	p	n/a
187.158	0.09	374316	keystroke_a	a	n/a
187.233	0.09	374466	keystroke_p	p	n/a
187.338	0.135	374676	keystroke_e	e	n/a
187.398	0.15	374796	keystroke_r	r	n/a
187.503	0.09	375006	keystroke_Key.space	Key.space	n/a
187.803	0.045	375606	keystroke_y	y	n/a
187.878	0.09	375756	keystroke_o	o	n/a
187.938	0.06	375876	keystroke_u	u	n/a
188.073	0.105	376146	keystroke_n	n	n/a
188.103	0.105	376206	keystroke_g	g	n/a
188.193	0.075	376386	keystroke_Key.space	Key.space	n/a
188.373	0.075	376746	keystroke_v	v	n/a
188.463	0.075	376926	keystroke_i	i	n/a
188.539	0.059	377078	keystroke_r	r	n/a
188.658	0.075	377316	keystroke_u	u	n/a
188.673	0.075	377346	keystroke_t	t	n/a
188.853	0.075	377706	keystroke_e	e	n/a
189.273	0.0445	378546	keystroke_Key.backspace	Key.backspace	n/a
189.3935	0.06	378787	keystroke_Key.backspace	Key.backspace	n/a
189.5135	0.059	379027	keystroke_Key.backspace	Key.backspace	n/a
189.6325	0.0605	379265	keystroke_t	t	n/a
189.723	0.075	379446	keystroke_u	u	n/a
189.783	0.075	379566	keystroke_e	e	n/a
190.143	0.075	380286	keystroke_Key.enter	Key.enter	n/a
190.225	7.675	380450	prompt	n/a	companies tests cigarette motorcycles\n
191.028	0.12	382056	keystroke_c	c	n/a
191.118	0.06	382236	keystroke_o	o	n/a
191.163	0.105	382326	keystroke_m	m	n/a
191.283	0.105	382566	keystroke_p	p	n/a
191.343	0.121	382686	keystroke_a	a	n/a
191.478	0.09	382956	keystroke_n	n	n/a
191.584	0.074	383168	keystroke_i	i	n/a
191.643	0.09	383286	keystroke_e	e	n/a
191.748	0.165	383496	keystroke_s	s	n/a
191.853	0.105	383706	keystroke_Key.space	Key.space	n/a
191.988	0.06	383976	keystroke_t	t	n/a
192.078	0.195	384156	keystroke_e	e	n/a
192.183	0.121	384366	keystroke_s	s	n/a
192.258	0.12	384516	keystroke_t	t	n/a
192.363	0.135	384726	keystroke_s	s	n/a
192.513	0.075	385026	keystroke_Key.space	Key.space	n/a
192.693	0.09	385386	keystroke_c	c	n/a
192.738	0.105	385476	keystroke_i	i	n/a
193.068	0.075	386136	keystroke_g	g	n/a
193.488	0.165	386976	keystroke_a	a	n/a
193.818	0.06	387636	keystroke_r	r	n/a
193.968	0.045	387936	keystroke_e	e	n/a
194.358	0.045	388716	keystroke_t	t	n/a
194.448	0.09	388896	keystroke_t	t	n/a
194.583	0.105	389166	keystroke_e	e	n/a
194.853	0.06	389706	keystroke_Key.space	Key.space	n/a
195.108	0.075	390216	keystroke_m	m	n/a
195.228	0.09	390456	keystroke_o	o	n/a
195.363	0.075	390726	keystroke_t	t	n/a
195.483	0.0895	390966	keystroke_o	o	n/a
195.6025	0.075	391205	keystroke_r	r	n/a
196.0975	0.165	392195	keystroke_c	c	n/a
196.3085	0.074	392617	keystroke_y	y	n/a
196.9075	0.075	393815	keystroke_c	c	n/a
197.2225	0.12	394445	keystroke_l	l	n/a
197.3275	0.06	394655	keystroke_e	e	n/a
197.4175	0.135	394835	keystroke_s	s	n/a
197.8225	0.075	395645	keystroke_Key.enter	Key.enter	n/a
197.9045	3.43	395809	prompt	n/a	shared fires memphis tech\n
198.5285	0.059	397057	keystroke_s	s	n/a
198.6185	0.089	397237	keystroke_h	h	n/a
198.6785	0.089	397357	keystroke_a	a	n/a
198.7525	0.091	397505	keystroke_r	r	n/a
198.8125	0.06	397625	keystroke_e	e	n/a
198.9325	0.09	397865	keystroke_d	d	n/a
198.9925	0.09	397985	keystroke_Key.space	Key.space	n/a
199.0975	0.06	398195	keystroke_f	f	n/a
199.1725	0.09	398345	keystroke_i	i	n/a
199.2325	0.12	398465	keystroke_r	r	n/a
199.3375	0.09	398675	keystroke_e	e	n/a
199.4125	0.135	398825	keystroke_s	s	n/a
199.5025	0.09	399005	keystroke_Key.space	Key.space	n/a
199.6675	0.075	399335	keystroke_m	m	n/a
199.7275	0.09	399455	keystroke_e	e	n/a
199.8325	0.075	399665	keystroke_m	m	n/a
199.9225	0.09	399845	keystroke_p	p	n/a
200.0425	0.09	400085	keystroke_h	h	n/a
200.1625	0.105	400325	keystroke_i	i	n/a
200.2825	0.0905	400565	keystroke_s	s	n/a
200.358	0.06	400716	keystroke_Key.space	Key.space	n/a
200.433	0.09	400866	keystroke_t	t	n/a
200.523	0.105	401046	keystroke_e	e	n/a
200.643	0.09	401286	keystroke_c	c	n/a
200.688	0.09	401376	keystroke_h	h	n/a
201.243	0.09	402486	keystroke_Key.enter	Key.enter	n/a
201.34	10.809	402680	prompt	n/a	history tomato revolutionary description\n
202.173	0.06	404346	keystroke_h	h	n/a
202.218	0.105	404436	keystroke_i	i	n/a
202.308	0.105	404616	keystroke_s	s	n/a
202.398	0.06	404796	keystroke_t	t	n/a
202.473	0.075	404946	keystroke_o	o	n/a
202.533	0.09	405066	keystroke_r	r	n/a
202.638	0.06	405276	keystroke_y	y	n/a
202.698	0.075	405396	keystroke_Key.space	Key.space	n/a
202.938	0.075	405876	keystroke_t	t	n/a
202.998	0.075	405996	keystroke_o	o	n/a
203.058	0.09	406116	keystroke_m	m	n/a
203.163	0.12	406326	keystroke_a	a	n/a
203.253	0.075	406506	keystroke_t	t	n/a
203.403	0.105	406806	keystroke_o	o	n/a
203.583	0.075	407166	keystroke_Key.space	Key.space	n/a
203.748	0.09	407496	keystroke_r	r	n/a
203.853	0.045	407706	keystroke_e	e	n/a
203.973	0.075	407946	keystroke_v	v	n/a
204.033	0.06	408066	keystroke_o	o	n/a
204.183	0.09	408366	keystroke_l	l	n/a
204.858	0.09	409716	keystroke_u	u	n/a
205.128	0.075	410256	keystroke_t	t	n/a
205.218	0.12	410436	keystroke_i	i	n/a
205.263	0.105	410526	keystroke_o	o	n/a
205.323	0.09	410646	keystroke_n	n	n/a
205.383	0.105	410766	keystroke_a	a	n/a
205.818	0.06	411636	keystroke_Key.backspace	Key.backspace	n/a
205.908	0.075	411816	keystroke_r	r	n/a
206.283	0.075	412566	keystroke_Key.backspace	Key.backspace	n/a
206.373	0.135	412746	keystroke_a	a	n/a
206.433	0.12	412866	keystroke_r	r	n/a
206.523	0.06	413046	keystroke_y	y	n/a
206.868	0.045	413736	keystroke_e	e	n/a
206.883	0.015	413766	keystroke_w	w	n/a
207.4675	0.15	414935	keystroke_Key.space	Key.space	n/a
207.7225	0.06	415445	keystroke_d	d	n/a
208.0975	0.06	416195	keystroke_Key.backspace	Key.backspace	n/a
208.2925	0.045	416585	keystroke_Key.backspace	Key.backspace	n/a
208.5025	0.045	417005	keystroke_Key.backspace	Key.backspace	n/a
208.7275	0.06	417455	keystroke_Key.backspace	Key.backspace	n/a
208.9675	0.06	417935	keystroke_Key.backspace	Key.backspace	n/a
209.2375	0.09	418475	keystroke_Key.space	Key.space	n/a
209.8375	0.06	419675	keystroke_Key.backspace	Key.backspace	n/a
210.0625	0.045	420125	keystroke_y	y	n/a
210.1825	0.09	420365	keystroke_Key.space	Key.space	n/a
210.7225	0.075	421445	keystroke_d	d	n/a
210.8875	0.075	421775	keystroke_e	e	n/a
210.9925	0.09	421985	keystroke_s	s	n/a
211.1275	0.06	422255	keystroke_c	c	n/a
211.2625	0.09	422525	keystroke_r	r	n/a
211.3535	0.089	422707	keystroke_i	i	n/a
211.4575	0.09	422915	keystroke_p	p	n/a
211.5625	0.075	423125	keystroke_t	t	n/a
211.6225	0.135	423245	keystroke_i	i	n/a
211.7125	0.105	423425	keystroke_o	o	n/a
211.7725	0.12	423545	keystroke_n	n	n/a
212.0725	0.075	424145	keystroke_Key.enter	Key.enter	n/a
212.1535	9.6555	424307	prompt	n/a	foster successful flex these\n
212.8525	0.09	425705	keystroke_f	f	n/a
212.9425	0.075	425885	keystroke_o	o	n/a
213.0185	0.089	426037	keystroke_s	s	n/a
213.0925	0.09	426185	keystroke_t	t	n/a
213.2275	0.09	426455	keystroke_e	e	n/a
213.2875	0.09	426575	keystroke_r	r	n/a
213.3475	0.075	426695	keystroke_Key.space	Key.space	n/a
213.4675	0.075	426935	keystroke_s	s	n/a
213.5725	0.075	427145	keystroke_u	u	n/a
213.6775	0.075	427355	keystroke_c	c	n/a
213.7675	0.0905	427535	keystroke_c	c	n/a
214.038	0.06	428076	keystroke_c	c	n/a
214.248	0.074	428496	keystroke_e	e	n/a
214.368	0.045	428736	keystroke_s	s	n/a
214.518	0.075	429036	keystroke_s	s	n/a
214.728	0.06	429456	keystroke_f	f	n/a
214.848	0.06	429696	keystroke_u	u	n/a
214.937	0.106	429874	keystroke_l	l	n/a
215.1925	0.075	430385	keystroke_Key.space	Key.space	n/a
215.3425	0.06	430685	keystroke_f	f	n/a
215.4175	0.09	430835	keystroke_l	l	n/a
215.4925	0.045	430985	keystroke_e	e	n/a
216.0175	0.06	432035	keystroke_Key.backspace	Key.backspace	n/a
216.2875	0.015	432575	keystroke_Key.backspace	Key.backspace	n/a
216.4675	0.045	432935	keystroke_Key.backspace	Key.backspace	n/a
216.6625	0.06	433325	keystroke_Key.backspace	Key.backspace	n/a
216.8875	0.06	433775	keystroke_Key.backspace	Key.backspace	n/a
217.0975	0.045	434195	keystroke_Key.backspace	Key.backspace	n/a
217.3225	0.015	434645	keystroke_Key.backspace	Key.backspace	n/a
217.5175	0.075	435035	keystroke_Key.backspace	Key.backspace	n/a
217.7575	0.06	435515	keystroke_Key.backspace	Key.backspace	n/a
217.9975	0.045	435995	keystroke_Key.backspace	Key.backspace	n/a
218.2225	0.06	436445	keystroke_Key.backspace	Key.backspace	n/a
218.7475	0.045	437495	keystroke_e	e	n/a
218.8525	0.06	437705	keystroke_s	s	n/a
218.9575	0.105	437915	keystroke_s	s	n/a
219.1225	0.09	438245	keystroke_f	f	n/a
219.2275	0.0445	438455	keystroke_u	u	n/a
219.302	0.105	438604	keystroke_l	l	n/a
219.467	0.075	438934	keystroke_Key.space	Key.space	n/a
219.8425	0.06	439685	keystroke_f	f	n/a
219.903	0.104	439806	keystroke_l	l	n/a
219.962	0.06	439924	keystroke_e	e	n/a
220.097	0.12	440194	keystroke_x	x	n/a
220.187	0.105	440374	keystroke_Key.space	Key.space	n/a
220.397	0.06	440794	keystroke_t	t	n/a
220.442	0.075	440884	keystroke_h	h	n/a
220.562	0.091	441124	keystroke_e	e	n/a
220.818	0.12	441636	keystroke_s	s	n/a
220.8775	0.1805	441755	keystroke_e	e	n/a
220.998	0.045	441996	keystroke_Key.space	Key.space	n/a
221.493	0.0295	442986	keystroke_Key.backspace	Key.backspace	n/a
221.733	0.075	443466	keystroke_Key.enter	Key.enter	n/a
221.8115	5.0675	443623	prompt	n/a	disputes serial flows editorials\n
222.513	0.0745	445026	keystroke_d	d	n/a
222.6175	0.09	445235	keystroke_i	i	n/a
222.6775	0.09	445355	keystroke_s	s	n/a
222.7975	0.075	445595	keystroke_p	p	n/a
222.8875	0.075	445775	keystroke_u	u	n/a
222.9475	0.075	445895	keystroke_t	t	n/a
223.0375	0.12	446075	keystroke_e	e	n/a
223.1125	0.135	446225	keystroke_s	s	n/a
223.2025	0.09	446405	keystroke_Key.space	Key.space	n/a
223.3525	0.06	446705	keystroke_s	s	n/a
223.4725	0.09	446945	keystroke_e	e	n/a
223.5325	0.105	447065	keystroke_r	r	n/a
223.5925	0.075	447185	keystroke_i	i	n/a
223.7275	0.09	447455	keystroke_a	a	n/a
223.8025	0.09	447605	keystroke_l	l	n/a
223.8775	0.075	447755	keystroke_Key.space	Key.space	n/a
223.9975	0.075	447995	keystroke_f	f	n/a
224.0875	0.06	448175	keystroke_l	l	n/a
224.2225	0.075	448445	keystroke_o	o	n/a
224.4625	0.105	448925	keystroke_w	w	n/a
224.6725	0.15	449345	keystroke_s	s	n/a
224.8075	0.105	449615	keystroke_Key.space	Key.space	n/a
225.527	0.0605	451054	keystroke_e	e	n/a
225.6475	0.09	451295	keystroke_d	d	n/a
225.7525	0.075	451505	keystroke_i	i	n/a
225.8425	0.06	451685	keystroke_t	t	n/a
225.9925	0.06	451985	keystroke_o	o	n/a
226.0525	0.06	452105	keystroke_r	r	n/a
226.1575	0.06	452315	keystroke_i	i	n/a
226.2175	0.105	452435	keystroke_a	a	n/a
226.2925	0.06	452585	keystroke_l	l	n/a
226.3975	0.09	452795	keystroke_s	s	n/a
226.8175	0.06	453635	keystroke_Key.enter	Key.enter	n/a
226.8815	8.457	453763	prompt	n/a	samoa regular sexuality maximum\n
227.927	0.135	455854	keystroke_s	s	n/a
228.017	0.15	456034	keystroke_a	a	n/a
228.197	0.09	456394	keystroke_m	m	n/a
228.302	0.121	456604	keystroke_o	o	n/a
228.407	0.12	456814	keystroke_a	a	n/a
228.587	0.09	457174	keystroke_Key.space	Key.space	n/a
228.812	0.0905	457624	keystroke_r	r	n/a
228.9175	0.045	457835	keystroke_e	e	n/a
229.0225	0.105	458045	keystroke_g	g	n/a
229.1125	0.06	458225	keystroke_u	u	n/a
229.1875	0.12	458375	keystroke_l	l	n/a
229.2765	0.166	458553	keystroke_a	a	n/a
229.3375	0.15	458675	keystroke_r	r	n/a
229.4575	0.06	458915	keystroke_Key.space	Key.space	n/a
229.6075	0.06	459215	keystroke_s	s	n/a
229.7125	0.075	459425	keystroke_e	e	n/a
229.8925	0.119	459785	keystroke_x	x	n/a
230.0875	0.075	460175	keystroke_u	u	n/a
230.1775	0.134	460355	keystroke_a	a	n/a
230.2825	0.09	460565	keystroke_l	l	n/a
230.4765	0.09	460953	keystroke_i	i	n/a
230.6125	0.059	461225	keystroke_t	t	n/a
230.6865	0.075	461373	keystroke_y	y	n/a
230.8365	0.075	461673	keystroke_Key.space	Key.space	n/a
231.4515	0.121	462903	keystroke_m	m	n/a
231.5415	0.061	463083	keystroke_a	a	n/a
231.6775	0.135	463355	keystroke_x	x	n/a
231.8425	0.09	463685	keystroke_i	i	n/a
232.0365	0.09	464073	keystroke_u	u	n/a
232.2015	0.09	464403	keystroke_m	m	n/a
232.4415	0.03	464883	keystroke_s	s	n/a
232.817	0.045	465634	keystroke_Key.backspace	Key.backspace	n/a
232.952	0.075	465904	keystroke_Key.backspace	Key.backspace	n/a
233.207	0.105	466414	keystroke_m	m	n/a
233.537	0.06	467074	keystroke_Key.backspace	Key.backspace	n/a
233.672	0.075	467344	keystroke_Key.backspace	Key.backspace	n/a
233.987	0.09	467974	keystroke_m	m	n/a
234.152	0.075	468304	keystroke_u	u	n/a
234.302	0.09	468604	keystroke_m	m	n/a
235.247	0.09	470494	keystroke_Key.enter	Key.enter	n/a
235.3415	4.6325	470683	prompt	n/a	bubble puzzles sharp foot\n
236.1175	0.06	472235	keystroke_b	b	n/a
236.1925	0.075	472385	keystroke_u	u	n/a
236.2825	0.045	472565	keystroke_b	b	n/a
236.3725	0.105	472745	keystroke_b	b	n/a
236.4925	0.105	472985	keystroke_l	l	n/a
236.6125	0.12	473225	keystroke_e	e	n/a
236.7025	0.075	473405	keystroke_Key.space	Key.space	n/a
237.2275	0.06	474455	keystroke_p	p	n/a
237.2725	0.03	474545	keystroke_u	u	n/a
237.3775	0.09	474755	keystroke_z	z	n/a
237.527	0.09	475054	keystroke_z	z	n/a
237.662	0.105	475324	keystroke_l	l	n/a
237.722	0.12	475444	keystroke_e	e	n/a
237.872	0.15	475744	keystroke_s	s	n/a
237.992	0.105	475984	keystroke_Key.space	Key.space	n/a
238.832	0.06	477664	keystroke_s	s	n/a
238.907	0.075	477814	keystroke_h	h	n/a
238.967	0.15	477934	keystroke_a	a	n/a
239.072	0.105	478144	keystroke_r	r	n/a
239.162	0.09	478324	keystroke_p	p	n/a
239.312	0.075	478624	keystroke_Key.space	Key.space	n/a
239.507	0.09	479014	keystroke_f	f	n/a
239.582	0.0455	479164	keystroke_o	o	n/a
239.6725	0.09	479345	keystroke_o	o	n/a
239.7765	0.06	479553	keystroke_t	t	n/a
239.9125	0.06	479825	keystroke_Key.enter	Key.enter	n/a
239.978	5.275	479956	prompt	n/a	spider benefits forward offensive\n
240.692	0.075	481384	keystroke_s	s	n/a
240.752	0.09	481504	keystroke_p	p	n/a
240.857	0.09	481714	keystroke_i	i	n/a
240.962	0.045	481924	keystroke_d	d	n/a
241.112	0.105	482224	keystroke_e	e	n/a
241.172	0.12	482344	keystroke_r	r	n/a
241.276	0.061	482552	keystroke_Key.space	Key.space	n/a
241.412	0.075	482824	keystroke_b	b	n/a
241.561	0.046	483122	keystroke_e	e	n/a
241.622	0.09	483244	keystroke_n	n	n/a
241.697	0.105	483394	keystroke_e	e	n/a
241.787	0.075	483574	keystroke_f	f	n/a
241.877	0.075	483754	keystroke_i	i	n/a
241.937	0.075	483874	keystroke_t	t	n/a
242.057	0.12	484114	keystroke_s	s	n/a
242.147	0.074	484294	keystroke_Key.space	Key.space	n/a
242.327	0.045	484654	keystroke_t	t	n/a
242.656	0.061	485312	keystroke_Key.backspace	Key.backspace	n/a
242.821	0.061	485642	keystroke_f	f	n/a
242.867	0.09	485734	keystroke_o	o	n/a
242.972	0.09	485944	keystroke_r	r	n/a
243.182	0.074	486364	keystroke_w	w	n/a
243.257	0.135	486514	keystroke_a	a	n/a
243.347	0.12	486694	keystroke_r	r	n/a
243.482	0.12	486964	keystroke_d	d	n/a
243.977	0.089	487954	keystroke_Key.space	Key.space	n/a
244.277	0.075	488554	keystroke_o	o	n/a
244.367	0.015	488734	keystroke_f	f	n/a
244.441	0.076	488882	keystroke_f	f	n/a
244.561	0.076	489122	keystroke_e	e	n/a
244.652	0.075	489304	keystroke_n	n	n/a
244.712	0.075	489424	keystroke_s	s	n/a
244.802	0.09	489604	keystroke_i	i	n/a
244.861	0.061	489722	keystroke_v	v	n/a
244.981	0.076	489962	keystroke_e	e	n/a
245.1765	0.0745	490353	keystroke_Key.enter	Key.enter	n/a
245.2585	5.7845	490517	prompt	n/a	telephony check liverpool invest\n
245.881	0.12	491762	keystroke_t	t	n/a
246.062	0.059	492124	keystroke_e	e	n/a
246.181	0.166	492362	keystroke_l	l	n/a
246.332	0.074	492664	keystroke_e	e	n/a
246.496	0.075	492992	keystroke_p	p	n/a
246.587	0.074	493174	keystroke_h	h	n/a
246.766	0.075	493532	keystroke_o	o	n/a
246.887	0.09	493774	keystroke_n	n	n/a
247.067	0.075	494134	keystroke_y	y	n/a
247.187	0.089	494374	keystroke_Key.space	Key.space	n/a
247.337	0.09	494674	keystroke_c	c	n/a
247.411	0.091	494822	keystroke_h	h	n/a
247.487	0.105	494974	keystroke_e	e	n/a
247.547	0.12	495094	keystroke_c	c	n/a
247.606	0.075	495212	keystroke_k	k	n/a
247.786	0.075	495572	keystroke_Key.space	Key.space	n/a
248.087	0.074	496174	keystroke_l	l	n/a
248.131	0.105	496262	keystroke_i	i	n/a
248.206	0.06	496412	keystroke_v	v	n/a
248.327	0.104	496654	keystroke_e	e	n/a
248.402	0.089	496804	keystroke_r	r	n/a
248.522	0.075	497044	keystroke_s	s	n/a
248.881	0.075	497762	keystroke_Key.backspace	Key.backspace	n/a
249.121	0.075	498242	keystroke_p	p	n/a
249.331	0.0605	498662	keystroke_o	o	n/a
249.4515	0.0755	498903	keystroke_o	o	n/a
249.632	0.045	499264	keystroke_l	l	n/a
249.782	0.09	499564	keystroke_Key.space	Key.space	n/a
249.977	0.09	499954	keystroke_i	i	n/a
250.037	0.09	500074	keystroke_n	n	n/a
250.097	0.075	500194	keystroke_v	v	n/a
250.2165	0.18	500433	keystroke_e	e	n/a
250.3065	0.15	500613	keystroke_s	s	n/a
250.3815	0.105	500763	keystroke_t	t	n/a
250.952	0.09	501904	keystroke_Key.enter	Key.enter	n/a
251.0475	6.4605	502095	prompt	n/a	american memorabilia pray subdivision\n
251.867	0.105	503734	keystroke_a	a	n/a
251.987	0.12	503974	keystroke_m	m	n/a
252.077	0.105	504154	keystroke_e	e	n/a
252.122	0.09	504244	keystroke_r	r	n/a
252.272	0.045	504544	keystroke_i	i	n/a
252.317	0.105	504634	keystroke_c	c	n/a
252.392	0.135	504784	keystroke_a	a	n/a
252.452	0.105	504904	keystroke_n	n	n/a
252.572	0.075	505144	keystroke_Key.space	Key.space	n/a
252.722	0.09	505444	keystroke_m	m	n/a
252.827	0.045	505654	keystroke_e	e	n/a
252.902	0.09	505804	keystroke_m	m	n/a
253.097	0.075	506194	keystroke_o	o	n/a
253.187	0.105	506374	keystroke_r	r	n/a
253.307	0.09	506614	keystroke_a	a	n/a
253.427	0.1345	506854	keystroke_b	b	n/a
253.5765	0.075	507153	keystroke_i	i	n/a
253.7265	0.105	507453	keystroke_l	l	n/a
253.7865	0.105	507573	keystroke_i	i	n/a
253.9815	0.12	507963	keystroke_a	a	n/a
254.2215	0.06	508443	keystroke_Key.space	Key.space	n/a
254.3565	0.09	508713	keystroke_p	p	n/a
254.4615	0.0745	508923	keystroke_r	r	n/a
254.566	0.151	509132	keystroke_a	a	n/a
254.671	0.0905	509342	keystroke_y	y	n/a
254.8065	0.075	509613	keystroke_Key.space	Key.space	n/a
255.076	0.12	510152	keystroke_s	s	n/a
255.271	0.075	510542	keystroke_u	u	n/a
255.376	0.0905	510752	keystroke_b	b	n/a
255.736	0.075	511472	keystroke_d	d	n/a
255.796	0.06	511592	keystroke_i	i	n/a
255.901	0.075	511802	keystroke_v	v	n/a
255.991	0.06	511982	keystroke_i	i	n/a
256.066	0.075	512132	keystroke_d	d	n/a
256.651	0.105	513302	keystroke_Key.backspace	Key.backspace	n/a
256.771	0.045	513542	keystroke_s	s	n/a
256.786	0.18	513572	keystroke_i	i	n/a
256.876	0.12	513752	keystroke_o	o	n/a
256.936	0.12	513872	keystroke_n	n	n/a
257.461	0.045	514922	keystroke_Key.enter	Key.enter	n/a
257.521	7.2015	515042	prompt	n/a	nations secondary manner retirement\n
258.197	0.059	516394	keystroke_n	n	n/a
258.241	0.105	516482	keystroke_a	a	n/a
258.301	0.09	516602	keystroke_t	t	n/a
258.376	0.135	516752	keystroke_i	i	n/a
258.421	0.105	516842	keystroke_o	o	n/a
258.496	0.105	516992	keystroke_n	n	n/a
258.556	0.12	517112	keystroke_s	s	n/a
258.661	0.06	517322	keystroke_Key.space	Key.space	n/a
258.766	0.075	517532	keystroke_s	s	n/a
258.901	0.06	517802	keystroke_e	e	n/a
259.021	0.075	518042	keystroke_c	c	n/a
259.111	0.09	518222	keystroke_o	o	n/a
259.171	0.105	518342	keystroke_n	n	n/a
259.246	0.135	518492	keystroke_d	d	n/a
259.366	0.18	518732	keystroke_a	a	n/a
259.471	0.135	518942	keystroke_r	r	n/a
259.576	0.075	519152	keystroke_y	y	n/a
259.681	0.09	519362	keystroke_Key.space	Key.space	n/a
259.786	0.09	519572	keystroke_m	m	n/a
259.846	0.09	519692	keystroke_a	a	n/a
259.951	0.06	519902	keystroke_n	n	n/a
260.026	0.09	520052	keystroke_n	n	n/a
260.131	0.1355	520262	keystroke_e	e	n/a
260.5065	0.045	521013	keystroke_e	e	n/a
260.5215	0.015	521043	keystroke_w	w	n/a
260.5665	0.045	521133	keystroke_Key.backspace	Key.backspace	n/a
261.1065	0.06	522213	keystroke_Key.backspace	Key.backspace	n/a
261.2715	0.135	522543	keystroke_r	r	n/a
261.6015	0.075	523203	keystroke_Key.space	Key.space	n/a
262.2615	0.105	524523	keystroke_r	r	n/a
262.3515	0.075	524703	keystroke_e	e	n/a
262.5465	0.075	525093	keystroke_i	i	n/a
263.1765	0.06	526353	keystroke_Key.backspace	Key.backspace	n/a
263.2515	0.06	526503	keystroke_t	t	n/a
263.3415	0.09	526683	keystroke_i	i	n/a
263.4015	0.12	526803	keystroke_r	r	n/a
263.4915	0.09	526983	keystroke_e	e	n/a
263.5965	0.075	527193	keystroke_m	m	n/a
263.6865	0.06	527373	keystroke_e	e	n/a
263.7765	0.075	527553	keystroke_n	n	n/a
263.8665	0.075	527733	keystroke_t	t	n/a
264.631	0.09	529262	keystroke_Key.enter	Key.enter	n/a
264.726	5.7415	529452	prompt	n/a	peterson backgrounds beth authorized\n
265.321	0.12	530642	keystroke_p	p	n/a
265.426	0.12	530852	keystroke_e	e	n/a
265.876	0.06	531752	keystroke_t	t	n/a
266.101	0.12	532202	keystroke_e	e	n/a
266.176	0.09	532352	keystroke_r	r	n/a
266.386	0.09	532772	keystroke_s	s	n/a
266.461	0.09	532922	keystroke_o	o	n/a
266.536	0.09	533072	keystroke_n	n	n/a
266.627	0.089	533254	keystroke_Key.space	Key.space	n/a
266.851	0.075	533702	keystroke_b	b	n/a
266.941	0.15	533882	keystroke_a	a	n/a
267.046	0.105	534092	keystroke_c	c	n/a
267.121	0.075	534242	keystroke_k	k	n/a
267.241	0.045	534482	keystroke_g	g	n/a
267.361	0.091	534722	keystroke_r	r	n/a
267.436	0.075	534872	keystroke_o	o	n/a
267.496	0.06	534992	keystroke_u	u	n/a
267.616	0.12	535232	keystroke_n	n	n/a
267.676	0.105	535352	keystroke_d	d	n/a
268.021	0.12	536042	keystroke_s	s	n/a
268.126	0.09	536252	keystroke_Key.space	Key.space	n/a
268.276	0.075	536552	keystroke_b	b	n/a
268.426	0.12	536852	keystroke_e	e	n/a
268.531	0.075	537062	keystroke_t	t	n/a
268.651	0.105	537302	keystroke_h	h	n/a
269.221	0.0905	538442	keystroke_Key.space	Key.space	n/a
269.3715	0.135	538743	keystroke_a	a	n/a
269.4915	0.06	538983	keystroke_u	u	n/a
269.5665	0.075	539133	keystroke_t	t	n/a
269.6565	0.075	539313	keystroke_h	h	n/a
269.7015	0.075	539403	keystroke_o	o	n/a
269.7915	0.06	539583	keystroke_r	r	n/a
269.8815	0.09	539763	keystroke_i	i	n/a
269.9715	0.09	539943	keystroke_z	z	n/a
270.1065	0.075	540213	keystroke_e	e	n/a
270.2115	0.12	540423	keystroke_d	d	n/a
270.3765	0.09	540753	keystroke_Key.enter	Key.enter	n/a
270.4715	13.196	540943	prompt	n/a	duke belize cancellation troubleshooting\n
271.1265	0.105	542253	keystroke_d	d	n/a
271.2765	0.075	542553	keystroke_u	u	n/a
271.3965	0.15	542793	keystroke_k	k	n/a
271.5015	0.105	543003	keystroke_e	e	n/a
271.5915	0.06	543183	keystroke_Key.space	Key.space	n/a
271.8015	0.075	543603	keystroke_b	b	n/a
271.9515	0.045	543903	keystroke_e	e	n/a
271.9815	0.105	543963	keystroke_l	l	n/a
272.0265	0.105	544053	keystroke_i	i	n/a
272.1165	0.03	544233	keystroke_e	e	n/a
272.5665	0.03	545133	keystroke_Key.backspace	Key.backspace	n/a
272.8815	0.12	545763	keystroke_z	z	n/a
273.0615	0.12	546123	keystroke_e	e	n/a
273.1965	0.06	546393	keystroke_Key.space	Key.space	n/a
273.9915	0.09	547983	keystroke_c	c	n/a
274.0965	0.12	548193	keystroke_a	a	n/a
276.4535	0.028	552907	keystroke_n	n	n/a
276.5715	0.09	553143	keystroke_c	c	n/a
276.6765	0.104	553353	keystroke_e	e	n/a
276.7965	0.045	553593	keystroke_l	l	n/a
276.9015	0.09	553803	keystroke_l	l	n/a
276.9765	0.15	553953	keystroke_a	a	n/a
277.0805	0.091	554161	keystroke_t	t	n/a
277.1565	0.03	554313	keystroke_9	9	n/a
277.2015	0.044	554403	keystroke_i	i	n/a
277.2165	0.12	554433	keystroke_o	o	n/a
277.2765	0.135	554553	keystroke_n	n	n/a
277.3805	0.075	554761	keystroke_Key.space	Key.space	n/a
277.9055	0.045	555811	keystroke_Key.backspace	Key.backspace	n/a
278.0255	0.06	556051	keystroke_Key.backspace	Key.backspace	n/a
278.2205	0.046	556441	keystroke_Key.backspace	Key.backspace	n/a
278.4155	0.061	556831	keystroke_Key.backspace	Key.backspace	n/a
278.7015	0.014	557403	keystroke_o	o	n/a
278.9115	0.045	557823	keystroke_Key.backspace	Key.backspace	n/a
279.0605	0.06	558121	keystroke_Key.backspace	Key.backspace	n/a
279.3915	0.104	558783	keystroke_o	o	n/a
279.4815	0.075	558963	keystroke_n	n	n/a
279.7205	0.045	559441	keystroke_Key.backspace	Key.backspace	n/a
279.8255	0.06	559651	keystroke_Key.backspace	Key.backspace	n/a
280.0205	0.12	560041	keystroke_i	i	n/a
280.1105	0.106	560221	keystroke_o	o	n/a
280.1855	0.09	560371	keystroke_n	n	n/a
280.3805	0.075	560761	keystroke_Key.space	Key.space	n/a
281.0405	0.061	562081	keystroke_t	t	n/a
281.1905	0.075	562381	keystroke_r	r	n/a
281.7905	0.105	563581	keystroke_o	o	n/a
281.8805	0.03	563761	keystroke_u	u	n/a
281.9255	0.106	563851	keystroke_b	b	n/a
282.0455	0.075	564091	keystroke_l	l	n/a
282.1505	0.09	564301	keystroke_e	e	n/a
282.4205	0.09	564841	keystroke_s	s	n/a
282.5255	0.06	565051	keystroke_h	h	n/a
282.7355	0.06	565471	keystroke_o	o	n/a
282.8405	0.09	565681	keystroke_o	o	n/a
282.9455	0.075	565891	keystroke_t	t	n/a
283.0505	0.09	566101	keystroke_i	i	n/a
283.1105	0.105	566221	keystroke_n	n	n/a
283.1565	0.074	566313	keystroke_g	g	n/a
283.6055	0.06	567211	keystroke_Key.enter	Key.enter	n/a
283.6715	4.301	567343	prompt	n/a	loved elegant commit route\n
284.4155	0.045	568831	keystroke_l	l	n/a
284.5355	0.075	569071	keystroke_o	o	n/a
284.6115	0.059	569223	keystroke_v	v	n/a
284.731	0.06	569462	keystroke_e	e	n/a
284.866	0.09	569732	keystroke_d	d	n/a
284.941	0.075	569882	keystroke_Key.space	Key.space	n/a
285.076	0.06	570152	keystroke_e	e	n/a
285.181	0.09	570362	keystroke_l	l	n/a
285.241	0.06	570482	keystroke_e	e	n/a
285.406	0.06	570812	keystroke_g	g	n/a
285.796	0.135	571592	keystroke_a	a	n/a
285.916	0.09	571832	keystroke_n	n	n/a
286.021	0.075	572042	keystroke_t	t	n/a
286.126	0.045	572252	keystroke_Key.space	Key.space	n/a
286.306	0.105	572612	keystroke_c	c	n/a
286.351	0.12	572702	keystroke_o	o	n/a
286.561	0.06	573122	keystroke_m	m	n/a
286.666	0.075	573332	keystroke_m	m	n/a
286.801	0.09	573602	keystroke_i	i	n/a
286.906	0.105	573812	keystroke_t	t	n/a
286.981	0.075	573962	keystroke_Key.space	Key.space	n/a
287.4315	0.0745	574863	keystroke_r	r	n/a
287.491	0.06	574982	keystroke_o	o	n/a
287.551	0.075	575102	keystroke_u	u	n/a
287.611	0.09	575222	keystroke_t	t	n/a
287.716	0.09	575432	keystroke_e	e	n/a
287.896	0.075	575792	keystroke_Key.enter	Key.enter	n/a
287.975	3.327	575950	prompt	n/a	it simply riding courier\n
288.586	0.105	577172	keystroke_i	i	n/a
288.646	0.09	577292	keystroke_t	t	n/a
288.751	0.045	577502	keystroke_Key.space	Key.space	n/a
288.826	0.09	577652	keystroke_s	s	n/a
288.931	0.105	577862	keystroke_i	i	n/a
289.006	0.135	578012	keystroke_m	m	n/a
289.126	0.09	578252	keystroke_p	p	n/a
289.276	0.075	578552	keystroke_l	l	n/a
289.441	0.075	578882	keystroke_y	y	n/a
289.546	0.09	579092	keystroke_Key.space	Key.space	n/a
289.726	0.075	579452	keystroke_r	r	n/a
289.831	0.075	579662	keystroke_i	i	n/a
289.921	0.09	579842	keystroke_d	d	n/a
290.026	0.105	580052	keystroke_i	i	n/a
290.101	0.135	580202	keystroke_n	n	n/a
290.191	0.12	580382	keystroke_g	g	n/a
290.296	0.06	580592	keystroke_Key.space	Key.space	n/a
290.431	0.09	580862	keystroke_c	c	n/a
290.491	0.075	580982	keystroke_o	o	n/a
290.551	0.075	581102	keystroke_u	u	n/a
290.611	0.075	581222	keystroke_r	r	n/a
290.716	0.09	581432	keystroke_i	i	n/a
290.791	0.165	581582	keystroke_e	e	n/a
290.941	0.12	581882	keystroke_r	r	n/a
291.211	0.09	582422	keystroke_Key.enter	Key.enter	n/a
291.31	4.087	582620	prompt	n/a	jesse diary skype dealers\n
292.021	0.015	584042	keystroke_j	j	n/a
292.051	0.015	584102	keystroke_e	e	n/a
292.1255	0.075	584251	keystroke_s	s	n/a
292.2305	0.09	584461	keystroke_s	s	n/a
292.3955	0.105	584791	keystroke_e	e	n/a
292.5155	0.06	585031	keystroke_Key.space	Key.space	n/a
292.6505	0.075	585301	keystroke_d	d	n/a
292.7405	0.105	585481	keystroke_i	i	n/a
292.8305	0.135	585661	keystroke_a	a	n/a
292.9055	0.105	585811	keystroke_r	r	n/a
292.9955	0.09	585991	keystroke_y	y	n/a
293.0705	0.06	586141	keystroke_Key.space	Key.space	n/a
293.2505	0.09	586501	keystroke_s	s	n/a
293.2805	0.06	586561	keystroke_k	k	n/a
293.4155	0.075	586831	keystroke_y	y	n/a
293.4755	0.12	586951	keystroke_p	p	n/a
293.5655	0.12	587131	keystroke_e	e	n/a
293.7005	0.06	587401	keystroke_Key.space	Key.space	n/a
293.9705	0.06	587941	keystroke_d	d	n/a
294.1055	0.105	588211	keystroke_e	e	n/a
294.1805	0.135	588361	keystroke_a	a	n/a
294.2705	0.15	588541	keystroke_l	l	n/a
294.3755	0.12	588751	keystroke_e	e	n/a
294.4655	0.09	588931	keystroke_r	r	n/a
294.6155	0.105	589231	keystroke_s	s	n/a
295.3205	0.075	590641	keystroke_Key.enter	Key.enter	n/a
295.3995	5.2175	590799	prompt	n/a	rebecca edward viral vision\n
296.0405	0.09	592081	keystroke_r	r	n/a
296.1155	0.075	592231	keystroke_e	e	n/a
296.2655	0.075	592531	keystroke_b	b	n/a
296.4305	0.075	592861	keystroke_e	e	n/a
296.6105	0.03	593221	keystroke_c	c	n/a
296.7005	0.09	593401	keystroke_c	c	n/a
296.8055	0.15	593611	keystroke_a	a	n/a
296.9255	0.09	593851	keystroke_Key.space	Key.space	n/a
297.0905	0.045	594181	keystroke_e	e	n/a
297.1955	0.09	594391	keystroke_d	d	n/a
297.7355	0.195	595471	keystroke_w	w	n/a
297.8255	0.135	595651	keystroke_a	a	n/a
297.9005	0.135	595801	keystroke_r	r	n/a
298.0505	0.12	596101	keystroke_d	d	n/a
298.6955	0.09	597391	keystroke_Key.space	Key.space	n/a
299.1005	0.06	598201	keystroke_v	v	n/a
299.1755	0.09	598351	keystroke_i	i	n/a
299.2805	0.09	598561	keystroke_r	r	n/a
299.3555	0.12	598711	keystroke_a	a	n/a
299.4155	0.09	598831	keystroke_l	l	n/a
299.5205	0.075	599041	keystroke_Key.space	Key.space	n/a
299.7005	0.06	599401	keystroke_v	v	n/a
299.7455	0.075	599491	keystroke_i	i	n/a
299.8655	0.09	599731	keystroke_s	s	n/a
299.9105	0.12	599821	keystroke_i	i	n/a
299.9855	0.135	599971	keystroke_o	o	n/a
300.0605	0.09	600121	keystroke_n	n	n/a
300.5555	0.06	601111	keystroke_Key.enter	Key.enter	n/a
300.6195	5.818	601239	prompt	n/a	perhaps southwest invoice mirrors\n
301.2755	0.105	602551	keystroke_p	p	n/a
301.3805	0.12	602761	keystroke_e	e	n/a
301.4555	0.12	602911	keystroke_r	r	n/a
301.6205	0.075	603241	keystroke_h	h	n/a
301.7105	0.075	603421	keystroke_a	a	n/a
301.7705	0.12	603541	keystroke_p	p	n/a
301.8755	0.105	603751	keystroke_s	s	n/a
301.9655	0.09	603931	keystroke_Key.space	Key.space	n/a
302.1155	0.12	604231	keystroke_s	s	n/a
302.5355	0.075	605071	keystroke_o	o	n/a
302.5805	0.075	605161	keystroke_u	u	n/a
302.6705	0.075	605341	keystroke_t	t	n/a
302.7455	0.09	605491	keystroke_h	h	n/a
303.1205	0.12	606241	keystroke_w	w	n/a
303.3155	0.105	606631	keystroke_e	e	n/a
303.4055	0.21	606811	keystroke_s	s	n/a
303.4805	0.165	606961	keystroke_t	t	n/a
303.9155	0.09	607831	keystroke_Key.space	Key.space	n/a
304.2005	0.105	608401	keystroke_i	i	n/a
304.2755	0.105	608551	keystroke_n	n	n/a
304.3355	0.09	608671	keystroke_v	v	n/a
304.4705	0.09	608941	keystroke_o	o	n/a
304.5305	0.105	609061	keystroke_i	i	n/a
304.5905	0.105	609181	keystroke_c	c	n/a
304.6805	0.105	609361	keystroke_e	e	n/a
305.2655	0.09	610531	keystroke_Key.space	Key.space	n/a
305.4455	0.09	610891	keystroke_m	m	n/a
305.5055	0.09	611011	keystroke_i	i	n/a
305.5955	0.06	611191	keystroke_r	r	n/a
305.6855	0.09	611371	keystroke_r	r	n/a
305.8355	0.15	611671	keystroke_o	o	n/a
306.0005	0.0455	612001	keystroke_r	r	n/a
306.121	0.12	612242	keystroke_s	s	n/a
306.361	0.075	612722	keystroke_Key.enter	Key.enter	n/a
306.44	7.167	612880	prompt	n/a	rick playlist naples courier\n
307.081	0.06	614162	keystroke_r	r	n/a
307.156	0.06	614312	keystroke_i	i	n/a
307.246	0.105	614492	keystroke_c	c	n/a
307.306	0.105	614612	keystroke_k	k	n/a
307.396	0.075	614792	keystroke_Key.space	Key.space	n/a
307.576	0.075	615152	keystroke_p	p	n/a
307.696	0.105	615392	keystroke_l	l	n/a
307.771	0.075	615542	keystroke_a	a	n/a
307.861	0.09	615722	keystroke_y	y	n/a
308.236	0.105	616472	keystroke_l	l	n/a
308.281	0.12	616562	keystroke_i	i	n/a
308.356	0.15	616712	keystroke_s	s	n/a
308.431	0.15	616862	keystroke_t	t	n/a
308.551	0.09	617102	keystroke_Key.space	Key.space	n/a
308.641	0.09	617282	keystroke_n	n	n/a
308.716	0.12	617432	keystroke_a	a	n/a
308.806	0.0895	617612	keystroke_p	p	n/a
308.9105	0.015	617821	keystroke_e	e	n/a
308.9405	0.075	617881	keystroke_l	l	n/a
309.601	0.06	619202	keystroke_Key.backspace	Key.backspace	n/a
310.051	0.06	620102	keystroke_Key.backspace	Key.backspace	n/a
310.3055	0.075	620611	keystroke_l	l	n/a
310.3955	0.21	620791	keystroke_e	e	n/a
310.5005	0.18	621001	keystroke_s	s	n/a
310.6055	0.15	621211	keystroke_Key.space	Key.space	n/a
312.1055	0.15	624211	keystroke_c	c	n/a
312.1955	0.09	624391	keystroke_o	o	n/a
312.2705	0.075	624541	keystroke_u	u	n/a
312.3605	0.075	624721	keystroke_r	r	n/a
312.4805	0.09	624961	keystroke_i	i	n/a
312.5555	0.0455	625111	keystroke_r	r	n/a
312.9755	0.06	625951	keystroke_Key.backspace	Key.backspace	n/a
313.0505	0.1645	626101	keystroke_e	e	n/a
313.14	0.12	626280	keystroke_r	r	n/a
313.53	0.075	627060	keystroke_Key.enter	Key.enter	n/a
313.61	6.2815	627220	prompt	n/a	trackback filme decrease medieval\n
314.28	0.045	628560	keystroke_t	t	n/a
314.4	0.1355	628800	keystroke_r	r	n/a
314.505	0.135	629010	keystroke_a	a	n/a
314.79	0.105	629580	keystroke_c	c	n/a
314.88	0.105	629760	keystroke_k	k	n/a
315.165	0.075	630330	keystroke_b	b	n/a
315.2555	0.1495	630511	keystroke_a	a	n/a
315.345	0.135	630690	keystroke_c	c	n/a
315.42	0.09	630840	keystroke_k	k	n/a
315.525	0.09	631050	keystroke_Key.space	Key.space	n/a
315.66	0.105	631320	keystroke_f	f	n/a
315.75	0.09	631500	keystroke_i	i	n/a
315.795	0.1055	631590	keystroke_l	l	n/a
315.9305	0.1345	631861	keystroke_m	m	n/a
316.08	0.105	632160	keystroke_e	e	n/a
316.186	0.0595	632372	keystroke_Key.space	Key.space	n/a
316.3805	0.075	632761	keystroke_d	d	n/a
316.5605	0.06	633121	keystroke_e	e	n/a
316.6805	0.06	633361	keystroke_c	c	n/a
316.83	0.105	633660	keystroke_r	r	n/a
316.92	0.09	633840	keystroke_e	e	n/a
316.995	0.15	633990	keystroke_a	a	n/a
317.085	0.15	634170	keystroke_s	s	n/a
317.175	0.15	634350	keystroke_e	e	n/a
317.295	0.105	634590	keystroke_Key.space	Key.space	n/a
317.415	0.1355	634830	keystroke_m	m	n/a
317.505	0.06	635010	keystroke_e	e	n/a
317.64	0.075	635280	keystroke_d	d	n/a
317.73	0.075	635460	keystroke_i	i	n/a
317.85	0.09	635700	keystroke_e	e	n/a
318.045	0.09	636090	keystroke_v	v	n/a
318.195	0.15	636390	keystroke_a	a	n/a
318.285	0.105	636570	keystroke_l	l	n/a
319.8	0.09	639600	keystroke_Key.enter	Key.enter	n/a
319.8965	4.45	639793	prompt	n/a	strap roughly contributors lessons\n
320.805	0.0755	641610	keystroke_s	s	n/a
320.8655	0.06	641731	keystroke_t	t	n/a
321.0005	0.15	642001	keystroke_r	r	n/a
321.1055	0.135	642211	keystroke_a	a	n/a
321.2105	0.105	642421	keystroke_p	p	n/a
321.2855	0.06	642571	keystroke_Key.space	Key.space	n/a
321.4805	0.075	642961	keystroke_r	r	n/a
321.5405	0.075	643081	keystroke_o	o	n/a
321.6005	0.075	643201	keystroke_u	u	n/a
321.7205	0.06	643441	keystroke_g	g	n/a
321.7955	0.06	643591	keystroke_h	h	n/a
321.9455	0.075	643891	keystroke_l	l	n/a
322.0505	0.09	644101	keystroke_y	y	n/a
322.1705	0.09	644341	keystroke_Key.space	Key.space	n/a
322.3955	0.09	644791	keystroke_c	c	n/a
322.4855	0.09	644971	keystroke_o	o	n/a
322.5455	0.105	645091	keystroke_n	n	n/a
322.6055	0.045	645211	keystroke_t	t	n/a
322.6955	0.09	645391	keystroke_r	r	n/a
322.8005	0.075	645601	keystroke_i	i	n/a
322.905	0.075	645810	keystroke_b	b	n/a
322.995	0.0755	645990	keystroke_u	u	n/a
323.0855	0.06	646171	keystroke_t	t	n/a
323.1755	0.09	646351	keystroke_o	o	n/a
323.2505	0.075	646501	keystroke_r	r	n/a
323.3855	0.135	646771	keystroke_s	s	n/a
323.5055	0.059	647011	keystroke_Key.space	Key.space	n/a
323.5805	0.104	647161	keystroke_l	l	n/a
323.6695	0.061	647339	keystroke_e	e	n/a
323.7895	0.061	647579	keystroke_s	s	n/a
323.9095	0.091	647819	keystroke_s	s	n/a
324.0005	0.074	648001	keystroke_o	o	n/a
324.0595	0.075	648119	keystroke_n	n	n/a
324.0895	0.09	648179	keystroke_s	s	n/a
324.2695	0.075	648539	keystroke_Key.enter	Key.enter	n/a
324.3495	5.8325	648699	prompt	n/a	glow emerging memphis liver\n
324.9755	0.074	649951	keystroke_g	g	n/a
325.0795	0.045	650159	keystroke_l	l	n/a
325.1845	0.09	650369	keystroke_o	o	n/a
325.3045	0.15	650609	keystroke_w	w	n/a
325.4395	0.0755	650879	keystroke_Key.space	Key.space	n/a
325.6805	0.09	651361	keystroke_m	m	n/a
325.6955	0.059	651391	keystroke_e	e	n/a
326.1595	0.045	652319	keystroke_Key.backspace	Key.backspace	n/a
326.2495	0.075	652499	keystroke_Key.backspace	Key.backspace	n/a
326.3395	0.06	652679	keystroke_e	e	n/a
326.4295	0.105	652859	keystroke_m	m	n/a
326.5195	0.136	653039	keystroke_e	e	n/a
326.6095	0.061	653219	keystroke_r	r	n/a
326.7755	0.075	653551	keystroke_g	g	n/a
326.8945	0.121	653789	keystroke_i	i	n/a
327.0005	0.105	654001	keystroke_n	n	n/a
327.0755	0.075	654151	keystroke_g	g	n/a
327.66	0.105	655320	keystroke_Key.space	Key.space	n/a
327.84	0.06	655680	keystroke_m	m	n/a
327.885	0.06	655770	keystroke_e	e	n/a
328.005	0.075	656010	keystroke_m	m	n/a
328.095	0.105	656190	keystroke_p	p	n/a
328.215	0.09	656430	keystroke_h	h	n/a
328.35	0.075	656700	keystroke_i	i	n/a
328.5	0.12	657000	keystroke_s	s	n/a
328.605	0.105	657210	keystroke_Key.space	Key.space	n/a
329.055	0.09	658110	keystroke_l	l	n/a
329.1	0.105	658200	keystroke_i	i	n/a
329.175	0.075	658350	keystroke_v	v	n/a
329.325	0.105	658650	keystroke_e	e	n/a
329.385	0.12	658770	keystroke_r	r	n/a
330.105	0.075	660210	keystroke_Key.enter	Key.enter	n/a
330.1845	4.992	660369	prompt	n/a	newman placed equality cage\n
331.005	0.09	662010	keystroke_n	n	n/a
331.065	0.135	662130	keystroke_e	e	n/a
331.14	0.105	662280	keystroke_w	w	n/a
331.29	0.075	662580	keystroke_m	m	n/a
331.38	0.105	662760	keystroke_a	a	n/a
331.455	0.0895	662910	keystroke_n	n	n/a
331.5595	0.09	663119	keystroke_Key.space	Key.space	n/a
331.7845	0.06	663569	keystroke_p	p	n/a
331.8895	0.09	663779	keystroke_l	l	n/a
331.9645	0.121	663929	keystroke_a	a	n/a
332.0405	0.105	664081	keystroke_c	c	n/a
332.1605	0.045	664321	keystroke_e	e	n/a
332.2655	0.105	664531	keystroke_d	d	n/a
332.3405	0.075	664681	keystroke_Key.space	Key.space	n/a
332.5055	0.135	665011	keystroke_e	e	n/a
332.6555	0.12	665311	keystroke_q	q	n/a
332.7605	0.09	665521	keystroke_u	u	n/a
332.8955	0.135	665791	keystroke_a	a	n/a
333.0155	0.105	666031	keystroke_l	l	n/a
333.0755	0.09	666151	keystroke_i	i	n/a
333.1955	0.075	666391	keystroke_t	t	n/a
333.2855	0.075	666571	keystroke_y	y	n/a
333.8095	0.12	667619	keystroke_Key.space	Key.space	n/a
333.9745	0.046	667949	keystroke_c	c	n/a
334.2145	0.06	668429	keystroke_Key.backspace	Key.backspace	n/a
334.4545	0.105	668909	keystroke_c	c	n/a
334.5605	0.134	669121	keystroke_a	a	n/a
334.6805	0.075	669361	keystroke_g	g	n/a
334.7995	0.09	669599	keystroke_e	e	n/a
335.0995	0.075	670199	keystroke_Key.enter	Key.enter	n/a
335.1805	6.041	670361	prompt	n/a	hindu below cemetery nerve\n
336.27	0.06	672540	keystroke_h	h	n/a
336.36	0.105	672720	keystroke_i	i	n/a
336.42	0.1055	672840	keystroke_n	n	n/a
336.5405	0.09	673081	keystroke_d	d	n/a
336.6455	0.06	673291	keystroke_u	u	n/a
336.8105	0.105	673621	keystroke_Key.space	Key.space	n/a
337.9205	0.075	675841	keystroke_b	b	n/a
338.0705	0.075	676141	keystroke_e	e	n/a
338.1305	0.06	676261	keystroke_l	l	n/a
338.2355	0.105	676471	keystroke_o	o	n/a
338.3255	0.09	676651	keystroke_w	w	n/a
338.4455	0.075	676891	keystroke_Key.space	Key.space	n/a
338.7305	0.075	677461	keystroke_c	c	n/a
338.8505	0.03	677701	keystroke_e	e	n/a
338.9105	0.09	677821	keystroke_m	m	n/a
338.9705	0.06	677941	keystroke_e	e	n/a
339.1205	0.045	678241	keystroke_t	t	n/a
339.4805	0.12	678961	keystroke_e	e	n/a
339.5405	0.105	679081	keystroke_r	r	n/a
339.6305	0.06	679261	keystroke_y	y	n/a
339.7945	0.061	679589	keystroke_Key.space	Key.space	n/a
340.4255	0.105	680851	keystroke_n	n	n/a
340.5155	0.105	681031	keystroke_e	e	n/a
340.5755	0.06	681151	keystroke_r	r	n/a
340.7255	0.075	681451	keystroke_v	v	n/a
340.8455	0.09	681691	keystroke_e	e	n/a
341.1305	0.09	682261	keystroke_Key.enter	Key.enter	n/a
341.227	3.5945	682454	prompt	n/a	guards his leaders future\n
341.985	0.045	683970	keystroke_g	g	n/a
342.045	0.03	684090	keystroke_u	u	n/a
342.06	0.09	684120	keystroke_a	a	n/a
342.105	0.105	684210	keystroke_r	r	n/a
342.225	0.105	684450	keystroke_d	d	n/a
342.315	0.15	684630	keystroke_s	s	n/a
342.435	0.09	684870	keystroke_Key.space	Key.space	n/a
342.585	0.075	685170	keystroke_h	h	n/a
342.63	0.105	685260	keystroke_i	i	n/a
342.72	0.09	685440	keystroke_s	s	n/a
342.795	0.09	685590	keystroke_Key.space	Key.space	n/a
342.93	0.09	685860	keystroke_l	l	n/a
342.99	0.075	685980	keystroke_e	e	n/a
343.05	0.09	686100	keystroke_a	a	n/a
343.155	0.06	686310	keystroke_d	d	n/a
343.29	0.1055	686580	keystroke_e	e	n/a
343.3505	0.135	686701	keystroke_r	r	n/a
343.4555	0.135	686911	keystroke_s	s	n/a
343.5295	0.106	687059	keystroke_Key.space	Key.space	n/a
343.6655	0.06	687331	keystroke_u	u	n/a
343.9655	0.06	687931	keystroke_Key.backspace	Key.backspace	n/a
344.0555	0.075	688111	keystroke_f	f	n/a
344.1455	0.075	688291	keystroke_u	u	n/a
344.2355	0.06	688471	keystroke_t	t	n/a
344.3105	0.075	688621	keystroke_u	u	n/a
344.3705	0.105	688741	keystroke_r	r	n/a
344.4305	0.105	688861	keystroke_e	e	n/a
344.73	0.09	689460	keystroke_Key.enter	Key.enter	n/a
344.8245	6.087	689649	prompt	n/a	ordinary pregnancy asbestos content\n
345.675	0.105	691350	keystroke_o	o	n/a
345.75	0.075	691500	keystroke_r	r	n/a
345.87	0.12	691740	keystroke_d	d	n/a
345.975	0.12	691950	keystroke_i	i	n/a
346.05	0.12	692100	keystroke_n	n	n/a
346.215	0.165	692430	keystroke_a	a	n/a
346.305	0.09	692610	keystroke_r	r	n/a
346.41	0.0895	692820	keystroke_y	y	n/a
346.515	0.075	693030	keystroke_Key.space	Key.space	n/a
346.635	0.105	693270	keystroke_p	p	n/a
346.695	0.09	693390	keystroke_r	r	n/a
346.785	0.06	693570	keystroke_e	e	n/a
346.92	0.06	693840	keystroke_g	g	n/a
346.995	0.06	693990	keystroke_n	n	n/a
347.07	0.075	694140	keystroke_a	a	n/a
347.16	0.09	694320	keystroke_n	n	n/a
347.28	0.09	694560	keystroke_c	c	n/a
347.385	0.075	694770	keystroke_y	y	n/a
347.475	0.0745	694950	keystroke_Key.space	Key.space	n/a
347.7445	0.105	695489	keystroke_a	a	n/a
347.9995	0.15	695999	keystroke_s	s	n/a
348.6295	0.075	697259	keystroke_b	b	n/a
348.795	0.06	697590	keystroke_e	e	n/a
348.93	0.12	697860	keystroke_s	s	n/a
349.005	0.075	698010	keystroke_t	t	n/a
349.11	0.09	698220	keystroke_o	o	n/a
349.215	0.105	698430	keystroke_s	s	n/a
349.485	0.075	698970	keystroke_Key.space	Key.space	n/a
350.19	0.105	700380	keystroke_c	c	n/a
350.265	0.09	700530	keystroke_o	o	n/a
350.34	0.075	700680	keystroke_n	n	n/a
350.4	0.12	700800	keystroke_t	t	n/a
350.505	0.045	701010	keystroke_e	e	n/a
350.535	0.075	701070	keystroke_n	n	n/a
350.625	0.075	701250	keystroke_t	t	n/a
350.835	0.075	701670	keystroke_Key.enter	Key.enter	n/a
350.914	4.9325	701828	prompt	n/a	partial proceed escorts industries\n
351.645	0.105	703290	keystroke_p	p	n/a
351.705	0.135	703410	keystroke_a	a	n/a
351.78	0.09	703560	keystroke_r	r	n/a
351.9295	0.09	703859	keystroke_t	t	n/a
351.9745	0.06	703949	keystroke_i	i	n/a
352.1395	0.12	704279	keystroke_a	a	n/a
352.1845	0.105	704369	keystroke_l	l	n/a
352.305	0.0895	704610	keystroke_Key.space	Key.space	n/a
352.4695	0.09	704939	keystroke_p	p	n/a
352.5445	0.06	705089	keystroke_r	r	n/a
352.6495	0.09	705299	keystroke_o	o	n/a
352.7545	0.075	705509	keystroke_c	c	n/a
352.8905	0.059	705781	keystroke_e	e	n/a
353.0095	0.075	706019	keystroke_e	e	n/a
353.1895	0.12	706379	keystroke_d	d	n/a
353.2945	0.075	706589	keystroke_Key.space	Key.space	n/a
353.4745	0.075	706949	keystroke_e	e	n/a
353.6095	0.09	707219	keystroke_s	s	n/a
353.7595	0.09	707519	keystroke_c	c	n/a
353.8645	0.105	707729	keystroke_o	o	n/a
353.9845	0.03	707969	keystroke_r	r	n/a
354.1045	0.0455	708209	keystroke_t	t	n/a
354.18	0.1355	708360	keystroke_s	s	n/a
354.2995	0.046	708599	keystroke_Key.space	Key.space	n/a
354.4205	0.09	708841	keystroke_i	i	n/a
354.4805	0.12	708961	keystroke_n	n	n/a
354.5855	0.075	709171	keystroke_d	d	n/a
354.6905	0.075	709381	keystroke_u	u	n/a
354.7805	0.075	709561	keystroke_s	s	n/a
355.08	0.045	710160	keystroke_t	t	n/a
355.2005	0.0745	710401	keystroke_r	r	n/a
355.29	0.075	710580	keystroke_i	i	n/a
355.35	0.09	710700	keystroke_e	e	n/a
355.455	0.15	710910	keystroke_s	s	n/a
355.755	0.09	711510	keystroke_Key.enter	Key.enter	n/a
355.8505	8.006	711701	prompt	n/a	oklahoma locking weights specified\n
357.84	0.045	715680	keystroke_o	o	n/a
357.96	0.09	715920	keystroke_k	k	n/a
358.125	0.09	716250	keystroke_l	l	n/a
358.245	0.105	716490	keystroke_a	a	n/a
358.365	0.075	716730	keystroke_h	h	n/a
358.515	0.09	717030	keystroke_o	o	n/a
358.634	0.091	717268	keystroke_m	m	n/a
358.77	0.149	717540	keystroke_a	a	n/a
358.905	0.075	717810	keystroke_Key.space	Key.space	n/a
359.07	0.03	718140	keystroke_l	l	n/a
359.174	0.091	718348	keystroke_o	o	n/a
359.28	0.119	718560	keystroke_c	c	n/a
359.385	0.045	718770	keystroke_k	k	n/a
359.519	0.091	719038	keystroke_i	i	n/a
359.565	0.119	719130	keystroke_n	n	n/a
359.655	0.179	719310	keystroke_g	g	n/a
359.819	0.1205	719638	keystroke_Key.space	Key.space	n/a
360.5095	0.1045	721019	keystroke_w	w	n/a
360.6	0.104	721200	keystroke_e	e	n/a
360.69	0.074	721380	keystroke_i	i	n/a
360.9	0.0745	721800	keystroke_g	g	n/a
360.9905	0.104	721981	keystroke_h	h	n/a
361.0795	0.06	722159	keystroke_t	t	n/a
361.1695	0.12	722339	keystroke_s	s	n/a
361.4995	0.09	722999	keystroke_Key.space	Key.space	n/a
362.0695	0.015	724139	keystroke_s	s	n/a
362.0995	0.12	724199	keystroke_p	p	n/a
362.2045	0.06	724409	keystroke_e	e	n/a
362.3545	0.105	724709	keystroke_c	c	n/a
362.5045	0.075	725009	keystroke_i	i	n/a
362.5645	0.09	725129	keystroke_f	f	n/a
362.6995	0.075	725399	keystroke_i	i	n/a
362.7895	0.015	725579	keystroke_c	c	n/a
363.2545	0.015	726509	keystroke_Key.backspace	Key.backspace	n/a
363.2845	0.075	726569	keystroke_e	e	n/a
363.4045	0.15	726809	keystroke_d	d	n/a
363.765	0.0895	727530	keystroke_Key.enter	Key.enter	n/a
363.864	5.362	727728	prompt	n/a	johnny fragrances teams excel\n
364.5745	0.105	729149	keystroke_j	j	n/a
364.7245	0.075	729449	keystroke_o	o	n/a
364.8145	0.075	729629	keystroke_h	h	n/a
364.9945	0.06	729989	keystroke_n	n	n/a
365.1145	0.0595	730229	keystroke_n	n	n/a
365.2795	0.06	730559	keystroke_y	y	n/a
365.3695	0.09	730739	keystroke_Key.space	Key.space	n/a
365.67	0.105	731340	keystroke_f	f	n/a
365.82	0.105	731640	keystroke_r	r	n/a
365.91	0.12	731820	keystroke_a	a	n/a
366.044	0.091	732088	keystroke_g	g	n/a
366.21	0.105	732420	keystroke_r	r	n/a
366.285	0.135	732570	keystroke_a	a	n/a
366.405	0.1045	732810	keystroke_n	n	n/a
366.5095	0.075	733019	keystroke_c	c	n/a
366.5995	0.06	733199	keystroke_e	e	n/a
366.7045	0.12	733409	keystroke_s	s	n/a
366.7945	0.09	733589	keystroke_Key.space	Key.space	n/a
366.9145	0.075	733829	keystroke_t	t	n/a
367.0045	0.105	734009	keystroke_e	e	n/a
367.0495	0.105	734099	keystroke_a	a	n/a
367.1395	0.12	734279	keystroke_m	m	n/a
367.2445	0.09	734489	keystroke_s	s	n/a
367.3195	0.06	734639	keystroke_Key.space	Key.space	n/a
367.4695	0.0755	734939	keystroke_e	e	n/a
367.635	0.105	735270	keystroke_x	x	n/a
368.234	0.105	736468	keystroke_c	c	n/a
368.3545	0.0895	736709	keystroke_e	e	n/a
368.459	0.09	736918	keystroke_l	l	n/a
369.149	0.0755	738298	keystroke_Key.enter	Key.enter	n/a
369.2315	3.9845	738463	prompt	n/a	safe question wars miracle\n
369.8695	0.12	739739	keystroke_s	s	n/a
369.9595	0.135	739919	keystroke_a	a	n/a
370.035	0.1195	740070	keystroke_f	f	n/a
370.1845	0.1355	740369	keystroke_e	e	n/a
370.305	0.074	740610	keystroke_Key.space	Key.space	n/a
370.425	0.105	740850	keystroke_q	q	n/a
370.545	0.075	741090	keystroke_u	u	n/a
370.59	0.165	741180	keystroke_e	e	n/a
370.665	0.135	741330	keystroke_s	s	n/a
370.725	0.105	741450	keystroke_t	t	n/a
370.785	0.164	741570	keystroke_i	i	n/a
370.845	0.12	741690	keystroke_o	o	n/a
370.905	0.09	741810	keystroke_n	n	n/a
371.265	0.105	742530	keystroke_Key.space	Key.space	n/a
371.445	0.06	742890	keystroke_w	w	n/a
371.5495	0.15	743099	keystroke_a	a	n/a
371.6545	0.105	743309	keystroke_r	r	n/a
371.8045	0.1055	743609	keystroke_s	s	n/a
371.8795	0.1045	743759	keystroke_Key.space	Key.space	n/a
371.97	0.09	743940	keystroke_m	m	n/a
372.044	0.106	744088	keystroke_i	i	n/a
372.164	0.076	744328	keystroke_r	r	n/a
372.315	0.24	744630	keystroke_a	a	n/a
372.524	0.121	745048	keystroke_c	c	n/a
372.645	0.12	745290	keystroke_l	l	n/a
372.735	0.09	745470	keystroke_e	e	n/a
373.1395	0.075	746279	keystroke_Key.enter	Key.enter	n/a
373.2205	7.3305	746441	prompt	n/a	amplifier powerseller victims star\n
373.8745	0.105	747749	keystroke_a	a	n/a
373.9945	0.075	747989	keystroke_m	m	n/a
374.1145	0.09	748229	keystroke_p	p	n/a
374.2945	0.12	748589	keystroke_l	l	n/a
374.3695	0.09	748739	keystroke_i	i	n/a
374.4895	0.12	748979	keystroke_f	f	n/a
374.5945	0.1045	749189	keystroke_i	i	n/a
374.744	0.165	749488	keystroke_e	e	n/a
374.864	0.15	749728	keystroke_r	r	n/a
374.984	0.09	749968	keystroke_Key.space	Key.space	n/a
375.134	0.09	750268	keystroke_p	p	n/a
375.239	0.09	750478	keystroke_o	o	n/a
375.344	0.135	750688	keystroke_w	w	n/a
375.449	0.15	750898	keystroke_e	e	n/a
375.554	0.09	751108	keystroke_r	r	n/a
376.064	0.075	752128	keystroke_s	s	n/a
376.124	0.12	752248	keystroke_e	e	n/a
376.259	0.06	752518	keystroke_l	l	n/a
376.364	0.075	752728	keystroke_l	l	n/a
376.469	0.15	752938	keystroke_e	e	n/a
376.544	0.135	753088	keystroke_r	r	n/a
376.649	0.075	753298	keystroke_Key.space	Key.space	n/a
377.324	0.045	754648	keystroke_v	v	n/a
377.384	0.0755	754768	keystroke_i	i	n/a
377.4745	0.06	754949	keystroke_c	c	n/a
377.6245	0.075	755249	keystroke_t	t	n/a
377.6845	0.105	755369	keystroke_i	i	n/a
377.7595	0.105	755519	keystroke_m	m	n/a
377.8345	0.075	755669	keystroke_s	s	n/a
378.405	0.075	756810	keystroke_Key.space	Key.space	n/a
378.5395	0.105	757079	keystroke_s	s	n/a
378.6745	0.06	757349	keystroke_t	t	n/a
378.6895	0.195	757379	keystroke_a	a	n/a
378.8245	0.12	757649	keystroke_r	r	n/a
380.459	0.09	760918	keystroke_Key.enter	Key.enter	n/a
380.557	5.769	761114	prompt	n/a	poker cubic knife specializing\n
381.299	0.075	762598	keystroke_p	p	n/a
381.434	0.075	762868	keystroke_o	o	n/a
381.599	0.09	763198	keystroke_k	k	n/a
381.719	0.135	763438	keystroke_e	e	n/a
381.779	0.15	763558	keystroke_r	r	n/a
381.855	0.104	763710	keystroke_Key.space	Key.space	n/a
382.124	0.075	764248	keystroke_c	c	n/a
382.184	0.075	764368	keystroke_u	u	n/a
382.319	0.09	764638	keystroke_b	b	n/a
382.424	0.075	764848	keystroke_i	i	n/a
382.559	0.15	765118	keystroke_c	c	n/a
382.679	0.09	765358	keystroke_Key.space	Key.space	n/a
382.799	0.076	765598	keystroke_k	k	n/a
382.8895	0.1055	765779	keystroke_n	n	n/a
382.9645	0.0905	765929	keystroke_i	i	n/a
383.07	0.09	766140	keystroke_f	f	n/a
383.2795	0.105	766559	keystroke_e	e	n/a
383.8345	0.09	767669	keystroke_Key.space	Key.space	n/a
384.1645	0.09	768329	keystroke_s	s	n/a
384.2695	0.12	768539	keystroke_p	p	n/a
384.3595	0.09	768719	keystroke_e	e	n/a
384.5845	0.12	769169	keystroke_c	c	n/a
384.6895	0.09	769379	keystroke_i	i	n/a
384.8245	0.135	769649	keystroke_a	a	n/a
384.8995	0.12	769799	keystroke_l	l	n/a
385.0045	0.105	770009	keystroke_i	i	n/a
385.2145	0.135	770429	keystroke_z	z	n/a
385.3345	0.105	770669	keystroke_i	i	n/a
385.3945	0.1205	770789	keystroke_n	n	n/a
385.4695	0.0745	770939	keystroke_g	g	n/a
