onset	duration	sample	value	key	prompt_text
6.0975	9.413	12195	prompt	n/a	the quick brown fox jumps over a lazy dog\n
7.3195	0.0285	14639	keystroke	t	n/a
7.482	0.06	14964	keystroke	h	n/a
7.632	0.0905	15264	keystroke	e	n/a
7.797	0.15	15594	keystroke	Key.space	n/a
8.097	0.09	16194	keystroke	q	n/a
8.412	0.09	16824	keystroke	u	n/a
8.652	0.0745	17304	keystroke	i	n/a
8.8315	0.0905	17663	keystroke	c	n/a
8.982	0.1055	17964	keystroke	k	n/a
9.117	0.0895	18234	keystroke	Key.space	n/a
9.4615	0.0755	18923	keystroke	b	n/a
9.672	0.0745	19344	keystroke	r	n/a
9.8365	0.105	19673	keystroke	o	n/a
9.9715	0.09	19943	keystroke	w	n/a
10.1215	0.105	20243	keystroke	n	n/a
10.1965	0.105	20393	keystroke	Key.space	n/a
10.422	0.0745	20844	keystroke	f	n/a
10.617	0.0895	21234	keystroke	o	n/a
10.7815	0.1055	21563	keystroke	x	n/a
10.992	0.135	21984	keystroke	Key.space	n/a
11.1865	0.075	22373	keystroke	j	n/a
11.412	0.0745	22824	keystroke	u	n/a
11.667	0.1345	23334	keystroke	m	n/a
11.907	0.075	23814	keystroke	p	n/a
12.1175	0.0895	24235	keystroke	s	n/a
12.252	0.105	24504	keystroke	Key.space	n/a
12.5815	0.075	25163	keystroke	o	n/a
12.6875	0.074	25375	keystroke	v	n/a
12.9265	0.18	25853	keystroke	e	n/a
13.0475	0.1345	26095	keystroke	r	n/a
13.1515	0.0905	26303	keystroke	Key.space	n/a
13.572	0.1205	27144	keystroke	a	n/a
13.722	0.089	27444	keystroke	Key.space	n/a
13.9175	0.105	27835	keystroke	l	n/a
14.0675	0.089	28135	keystroke	a	n/a
14.2925	0.1195	28585	keystroke	z	n/a
14.442	0.074	28884	keystroke	y	n/a
14.5915	0.105	29183	keystroke	Key.space	n/a
14.8465	0.0905	29693	keystroke	d	n/a
15.042	0.1195	30084	keystroke	o	n/a
15.1915	0.0905	30383	keystroke	g	n/a
15.402	0.1045	30804	keystroke	Key.enter	n/a
15.516	5.8135	31032	prompt	n/a	creative shops argued mass\n
16.3475	0.089	32695	keystroke	c	n/a
16.602	0.12	33204	keystroke	r	n/a
16.6925	0.1045	33385	keystroke	e	n/a
16.767	0.165	33534	keystroke	a	n/a
16.917	0.09	33834	keystroke	t	n/a
17.067	0.06	34134	keystroke	i	n/a
17.232	0.075	34464	keystroke	v	n/a
17.3975	0.074	34795	keystroke	e	n/a
17.5015	0.075	35003	keystroke	Key.space	n/a
17.7265	0.075	35453	keystroke	s	n/a
17.8475	0.09	35695	keystroke	h	n/a
17.9825	0.135	35965	keystroke	o	n/a
18.1765	0.091	36353	keystroke	p	n/a
18.432	0.0755	36864	keystroke	s	n/a
18.5215	0.1055	37043	keystroke	Key.space	n/a
18.807	0.1505	37614	keystroke	a	n/a
18.942	0.075	37884	keystroke	r	n/a
19.137	0.0755	38274	keystroke	g	n/a
19.3325	0.06	38665	keystroke	u	n/a
19.4675	0.075	38935	keystroke	e	n/a
19.7825	0.074	39565	keystroke	d	n/a
19.9615	0.1055	39923	keystroke	Key.space	n/a
20.3675	0.105	40735	keystroke	m	n/a
20.457	0.1505	40914	keystroke	a	n/a
20.5475	0.12	41095	keystroke	s	n/a
20.772	0.09	41544	keystroke	s	n/a
21.2215	0.1055	42443	keystroke	Key.enter	n/a
21.335	11.4245	42670	prompt	n/a	maximize thousands differently deal\n
22.0925	0.105	44185	keystroke	m	n/a
22.1825	0.105	44365	keystroke	a	n/a
22.4225	0.09	44845	keystroke	x	n/a
22.5575	0.09	45115	keystroke	i	n/a
22.708	0.1195	45416	keystroke	m	n/a
22.8575	0.105	45715	keystroke	i	n/a
23.2925	0.119	46585	keystroke	z	n/a
23.563	0.1045	47126	keystroke	e	n/a
23.7125	0.089	47425	keystroke	Key.space	n/a
24.1775	0.09	48355	keystroke	t	n/a
24.2375	0.09	48475	keystroke	h	n/a
24.4025	0.0895	48805	keystroke	o	n/a
25.092	0.075	50184	keystroke	u	n/a
25.317	0.0755	50634	keystroke	s	n/a
25.4965	0.105	50993	keystroke	a	n/a
25.617	0.09	51234	keystroke	n	n/a
25.7675	0.0895	51535	keystroke	d	n/a
26.007	0.09	52014	keystroke	s	n/a
26.1565	0.121	52313	keystroke	Key.space	n/a
26.4125	0.09	52825	keystroke	d	n/a
26.532	0.075	53064	keystroke	i	n/a
26.6525	0.06	53305	keystroke	f	n/a
26.8175	0.075	53635	keystroke	f	n/a
26.9815	0.0155	53963	keystroke	f	n/a
27.0875	0.18	54175	keystroke	e	n/a
27.222	0.09	54444	keystroke	r	n/a
27.822	0.09	55644	keystroke	Key.backspace	n/a
28.0175	0.0745	56035	keystroke	Key.backspace	n/a
28.167	0.0755	56334	keystroke	Key.backspace	n/a
28.317	0.03	56634	keystroke	Key.backspace	n/a
29.1875	0.09	58375	keystroke	f	n/a
29.4125	0.21	58825	keystroke	e	n/a
29.5925	0.105	59185	keystroke	r	n/a
29.8625	0.12	59725	keystroke	n	n/a
30.597	0.09	61194	keystroke	Key.backspace	n/a
30.718	0.074	61436	keystroke	e	n/a
30.8525	0.1045	61705	keystroke	n	n/a
30.972	0.06	61944	keystroke	t	n/a
31.1375	0.1345	62275	keystroke	l	n/a
31.347	0.09	62694	keystroke	y	n/a
31.497	0.105	62994	keystroke	Key.space	n/a
31.722	0.075	63444	keystroke	d	n/a
31.992	0.06	63984	keystroke	e	n/a
32.1415	0.121	64283	keystroke	a	n/a
32.2775	0.105	64555	keystroke	l	n/a
32.6675	0.09	65335	keystroke	Key.enter	n/a
32.7645	7.7495	65529	prompt	n/a	infrared betty mumbai hitting\n
33.597	0.0755	67194	keystroke	i	n/a
33.777	0.09	67554	keystroke	n	n/a
34.0325	0.0895	68065	keystroke	f	n/a
34.1975	0.1055	68395	keystroke	r	n/a
34.497	0.015	68994	keystroke	a	n/a
34.722	0.1355	69444	keystroke	r	n/a
34.812	0.1055	69624	keystroke	e	n/a
35.0525	0.105	70105	keystroke	d	n/a
35.3065	0.105	70613	keystroke	Key.space	n/a
35.5465	0.061	71093	keystroke	b	n/a
35.712	0.1055	71424	keystroke	e	n/a
35.892	0.0755	71784	keystroke	t	n/a
36.088	0.074	72176	keystroke	t	n/a
36.4625	0.075	72925	keystroke	y	n/a
36.7175	0.09	73435	keystroke	Key.space	n/a
37.3475	0.12	74695	keystroke	m	n/a
37.6475	0.09	75295	keystroke	u	n/a
37.9175	0.105	75835	keystroke	m	n/a
38.2325	0.075	76465	keystroke	b	n/a
38.5925	0.12	77185	keystroke	a	n/a
38.8625	0.1195	77725	keystroke	i	n/a
39.0875	0.1045	78175	keystroke	Key.space	n/a
39.282	0.105	78564	keystroke	h	n/a
39.402	0.09	78804	keystroke	i	n/a
39.582	0.0605	79164	keystroke	t	n/a
39.7325	0.0745	79465	keystroke	t	n/a
39.822	0.1655	79644	keystroke	i	n/a
39.9425	0.1195	79885	keystroke	n	n/a
40.107	0.0755	80214	keystroke	g	n/a
40.422	0.09	80844	keystroke	Key.enter	n/a
40.5175	6.8365	81035	prompt	n/a	silk seniors solid match\n
41.4265	0.091	82853	keystroke	s	n/a
41.6075	0.089	83215	keystroke	i	n/a
41.8315	0.0905	83663	keystroke	l	n/a
42.1325	0.09	84265	keystroke	k	n/a
42.3415	0.09	84683	keystroke	Key.space	n/a
42.5825	0.0895	85165	keystroke	s	n/a
42.8065	0.076	85613	keystroke	e	n/a
42.9725	0.1205	85945	keystroke	n	n/a
43.3475	0.104	86695	keystroke	i	n/a
43.5725	0.1045	87145	keystroke	o	n/a
43.8425	0.06	87685	keystroke	r	n/a
44.0675	0.045	88135	keystroke	s	n/a
44.2325	0.09	88465	keystroke	Key.space	n/a
44.4425	0.075	88885	keystroke	s	n/a
44.6075	0.105	89215	keystroke	o	n/a
44.878	0.104	89756	keystroke	l	n/a
45.1475	0.105	90295	keystroke	i	n/a
45.372	0.09	90744	keystroke	d	n/a
45.5375	0.1195	91075	keystroke	Key.space	n/a
45.7625	0.0745	91525	keystroke	m	n/a
45.867	0.18	91734	keystroke	a	n/a
46.032	0.075	92064	keystroke	t	n/a
46.272	0.09	92544	keystroke	c	n/a
46.4525	0.075	92905	keystroke	h	n/a
47.247	0.1055	94494	keystroke	Key.enter	n/a
47.3585	9.086	94717	prompt	n/a	excessive americas olive transfer\n
48.0725	0.0755	96145	keystroke	e	n/a
48.3275	0.06	96655	keystroke	x	n/a
48.5525	0.075	97105	keystroke	c	n/a
48.7625	0.075	97525	keystroke	e	n/a
49.0475	0.06	98095	keystroke	s	n/a
49.2125	0.0745	98425	keystroke	s	n/a
49.3625	0.075	98725	keystroke	i	n/a
49.5125	0.06	99025	keystroke	v	n/a
49.6775	0.075	99355	keystroke	e	n/a
49.8275	0.075	99655	keystroke	Key.space	n/a
50.0525	0.105	100105	keystroke	a	n/a
50.293	0.0895	100586	keystroke	m	n/a
50.4575	0.1345	100915	keystroke	e	n/a
50.562	0.1345	101124	keystroke	r	n/a
50.9225	0.09	101845	keystroke	i	n/a
51.1475	0.0755	102295	keystroke	c	n/a
51.2975	0.1345	102595	keystroke	a	n/a
51.582	0.0755	103164	keystroke	s	n/a
51.807	0.0905	103614	keystroke	Key.space	n/a
52.0625	0.09	104125	keystroke	o	n/a
52.2725	0.105	104545	keystroke	l	n/a
52.4675	0.075	104935	keystroke	i	n/a
52.6625	0.105	105325	keystroke	v	n/a
53.6975	0.09	107395	keystroke	e	n/a
54.792	0.0905	109584	keystroke	Key.space	n/a
55.1825	0.075	110365	keystroke	t	n/a
55.3625	0.105	110725	keystroke	r	n/a
55.4525	0.12	110905	keystroke	a	n/a
55.5875	0.075	111175	keystroke	n	n/a
55.708	0.0745	111416	keystroke	s	n/a
55.9325	0.0895	111865	keystroke	f	n/a
56.112	0.105	112224	keystroke	e	n/a
56.202	0.0905	112404	keystroke	r	n/a
56.367	0.075	112734	keystroke	Key.enter	n/a
56.4495	11.2905	112899	prompt	n/a	fell botswana cameroon rhythm\n
57.2975	0.075	114595	keystroke	f	n/a
57.4625	0.09	114925	keystroke	e	n/a
57.6275	0.075	115255	keystroke	l	n/a
57.8075	0.09	115615	keystroke	l	n/a
57.9275	0.09	115855	keystroke	Key.space	n/a
58.2125	0.075	116425	keystroke	b	n/a
58.7515	0.09	117503	keystroke	o	n/a
58.903	0.0745	117806	keystroke	t	n/a
59.188	0.09	118376	keystroke	w	n/a
60.2675	0.074	120535	keystroke	Key.backspace	n/a
60.4025	0.0755	120805	keystroke	s	n/a
60.5975	0.06	121195	keystroke	w	n/a
60.8225	0.105	121645	keystroke	a	n/a
60.9875	0.075	121975	keystroke	n	n/a
61.1825	0.03	122365	keystroke	n	n/a
61.6025	0.075	123205	keystroke	Key.backspace	n/a
61.7375	0.09	123475	keystroke	a	n/a
61.9915	0.1055	123983	keystroke	Key.space	n/a
62.4125	0.0745	124825	keystroke	c	n/a
62.5775	0.135	125155	keystroke	a	n/a
62.7425	0.089	125485	keystroke	m	n/a
63.9125	0.165	127825	keystroke	e	n/a
64.033	0.1195	128066	keystroke	r	n/a
64.347	0.09	128694	keystroke	o	n/a
64.497	0.12	128994	keystroke	o	n/a
64.8125	0.104	129625	keystroke	n	n/a
65.0225	0.12	130045	keystroke	Key.space	n/a
65.2025	0.09	130405	keystroke	r	n/a
65.7425	0.12	131485	keystroke	h	n/a
66.1475	0.0605	132295	keystroke	y	n/a
66.3425	0.0755	132685	keystroke	t	n/a
66.447	0.15	132894	keystroke	h	n/a
67.0025	0.0755	134005	keystroke	m	n/a
67.6475	0.09	135295	keystroke	Key.enter	n/a
67.749	7.58	135498	prompt	n/a	invest thailand writer fujitsu\n
68.4275	0.0895	136855	keystroke	i	n/a
68.502	0.105	137004	keystroke	n	n/a
68.637	0.105	137274	keystroke	v	n/a
68.802	0.135	137604	keystroke	e	n/a
68.892	0.21	137784	keystroke	s	n/a
69.042	0.1205	138084	keystroke	t	n/a
69.163	0.089	138326	keystroke	Key.space	n/a
69.3875	0.075	138775	keystroke	t	n/a
69.4775	0.075	138955	keystroke	h	n/a
69.583	0.1345	139166	keystroke	a	n/a
69.7925	0.075	139585	keystroke	i	n/a
70.182	0.09	140364	keystroke	l	n/a
70.302	0.1195	140604	keystroke	a	n/a
70.4815	0.105	140963	keystroke	n	n/a
70.7215	0.075	141443	keystroke	d	n/a
71.067	0.09	142134	keystroke	Key.space	n/a
71.6225	0.0895	143245	keystroke	w	n/a
71.8025	0.0905	143605	keystroke	r	n/a
71.967	0.0755	143934	keystroke	i	n/a
72.0725	0.0905	144145	keystroke	t	n/a
72.178	0.2095	144356	keystroke	e	n/a
72.4325	0.12	144865	keystroke	r	n/a
72.6125	0.074	145225	keystroke	Key.space	n/a
72.8515	0.09	145703	keystroke	f	n/a
73.108	0.0895	146216	keystroke	u	n/a
73.4825	0.105	146965	keystroke	j	n/a
73.7815	0.091	147563	keystroke	i	n/a
74.0525	0.075	148105	keystroke	t	n/a
74.3975	0.075	148795	keystroke	s	n/a
74.7125	0.09	149425	keystroke	u	n/a
75.2365	0.091	150473	keystroke	Key.enter	n/a
75.333	7.481	150666	prompt	n/a	by consideration promptly farm\n
76.2415	0.075	152483	keystroke	b	n/a
76.437	0.06	152874	keystroke	y	n/a
76.512	0.075	153024	keystroke	Key.space	n/a
76.8875	0.0745	153775	keystroke	c	n/a
77.172	0.105	154344	keystroke	o	n/a
77.247	0.1055	154494	keystroke	n	n/a
77.337	0.09	154674	keystroke	s	n/a
77.532	0.0755	155064	keystroke	i	n/a
77.592	0.12	155184	keystroke	d	n/a
78.0125	0.135	156025	keystroke	e	n/a
78.087	0.12	156174	keystroke	r	n/a
78.297	0.165	156594	keystroke	a	n/a
78.402	0.12	156804	keystroke	t	n/a
78.537	0.21	157074	keystroke	i	n/a
78.612	0.1505	157224	keystroke	o	n/a
78.702	0.135	157404	keystroke	n	n/a
78.8675	0.1345	157735	keystroke	Key.space	n/a
79.2875	0.09	158575	keystroke	p	n/a
79.4075	0.0895	158815	keystroke	r	n/a
79.557	0.165	159114	keystroke	o	n/a
79.677	0.18	159354	keystroke	m	n/a
80.412	0.105	160824	keystroke	p	n/a
80.637	0.09	161274	keystroke	l	n/a
81.042	0.105	162084	keystroke	Key.backspace	n/a
81.177	0.0755	162354	keystroke	t	n/a
81.297	0.135	162594	keystroke	l	n/a
81.5225	0.09	163045	keystroke	y	n/a
81.777	0.075	163554	keystroke	Key.space	n/a
82.032	0.0745	164064	keystroke	f	n/a
82.137	0.1805	164274	keystroke	a	n/a
82.332	0.09	164664	keystroke	r	n/a
82.4675	0.1195	164935	keystroke	m	n/a
82.722	0.09	165444	keystroke	Key.enter	n/a
82.819	10.3445	165638	prompt	n/a	generic promised assessing jeans\n
84.2825	0.089	168565	keystroke	g	n/a
84.4325	0.075	168865	keystroke	e	n/a
84.5665	0.075	169133	keystroke	n	n/a
84.6265	0.1355	169253	keystroke	e	n/a
84.7165	0.1205	169433	keystroke	r	n/a
84.852	0.1205	169704	keystroke	a	n/a
85.2865	0.105	170573	keystroke	Key.backspace	n/a
85.467	0.09	170934	keystroke	i	n/a
85.6025	0.104	171205	keystroke	c	n/a
85.7215	0.135	171443	keystroke	Key.space	n/a
86.0225	0.09	172045	keystroke	p	n/a
86.1275	0.09	172255	keystroke	r	n/a
86.2325	0.1645	172465	keystroke	o	n/a
86.382	0.1655	172764	keystroke	m	n/a
86.5625	0.09	173125	keystroke	i	n/a
86.7575	0.06	173515	keystroke	s	n/a
87.1325	0.09	174265	keystroke	e	n/a
87.372	0.1055	174744	keystroke	d	n/a
87.597	0.1055	175194	keystroke	Key.space	n/a
88.062	0.135	176124	keystroke	a	n/a
88.2125	0.09	176425	keystroke	s	n/a
88.3925	0.075	176785	keystroke	s	n/a
88.5875	0.105	177175	keystroke	e	n/a
88.7065	0.0905	177413	keystroke	s	n/a
88.9175	0.059	177835	keystroke	s	n/a
89.1125	0.149	178225	keystroke	i	n/a
89.2775	0.119	178555	keystroke	n	n/a
89.5015	0.0755	179003	keystroke	f	n/a
89.5915	0.106	179183	keystroke	Key.space	n/a
89.9075	0.0895	179815	keystroke	j	n/a
90.042	0.0755	180084	keystroke	e	n/a
90.1325	0.12	180265	keystroke	a	n/a
90.2375	0.105	180475	keystroke	n	n/a
90.7465	0.03	181493	keystroke	Key.backspace	n/a
90.8815	0.06	181763	keystroke	Key.backspace	n/a
91.0315	0.076	182063	keystroke	Key.backspace	n/a
91.182	0.0755	182364	keystroke	Key.backspace	n/a
91.3475	0.06	182695	keystroke	Key.backspace	n/a
91.467	0.105	182934	keystroke	Key.backspace	n/a
91.873	0.0895	183746	keystroke	g	n/a
92.037	0.0905	184074	keystroke	Key.space	n/a
92.3375	0.12	184675	keystroke	j	n/a
92.4725	0.09	184945	keystroke	e	n/a
92.5475	0.1195	185095	keystroke	a	n/a
92.652	0.0905	185304	keystroke	n	n/a
92.7875	0.089	185575	keystroke	s	n/a
93.072	0.0905	186144	keystroke	Key.enter	n/a
93.1675	6.7775	186335	prompt	n/a	uses occur generations certified\n
94.0765	0.09	188153	keystroke	u	n/a
94.2125	0.075	188425	keystroke	s	n/a
94.3775	0.105	188755	keystroke	e	n/a
94.6325	0.06	189265	keystroke	s	n/a
94.7815	0.09	189563	keystroke	Key.space	n/a
95.1725	0.075	190345	keystroke	o	n/a
95.2775	0.06	190555	keystroke	c	n/a
95.4425	0.075	190885	keystroke	c	n/a
95.6665	0.046	191333	keystroke	u	n/a
95.9075	0.09	191815	keystroke	r	n/a
96.2365	0.09	192473	keystroke	Key.space	n/a
96.5225	0.074	193045	keystroke	g	n/a
96.6865	0.076	193373	keystroke	e	n/a
96.8075	0.074	193615	keystroke	n	n/a
96.867	0.135	193734	keystroke	e	n/a
96.9715	0.105	193943	keystroke	r	n/a
97.0775	0.15	194155	keystroke	a	n/a
97.287	0.12	194574	keystroke	t	n/a
97.4675	0.1945	194935	keystroke	i	n/a
97.5575	0.1195	195115	keystroke	o	n/a
97.647	0.1355	195294	keystroke	n	n/a
97.962	0.105	195924	keystroke	s	n/a
98.1415	0.0905	196283	keystroke	Key.space	n/a
98.5015	0.06	197003	keystroke	c	n/a
98.682	0.135	197364	keystroke	e	n/a
98.7725	0.105	197545	keystroke	r	n/a
98.952	0.09	197904	keystroke	t	n/a
99.0725	0.0595	198145	keystroke	i	n/a
99.1775	0.0895	198355	keystroke	f	n/a
99.2825	0.075	198565	keystroke	i	n/a
99.5075	0.0595	199015	keystroke	e	n/a
99.6865	0.076	199373	keystroke	d	n/a
99.867	0.075	199734	keystroke	Key.enter	n/a
99.9505	6.9685	199901	prompt	n/a	component postings fortune omaha\n
100.6165	0.09	201233	keystroke	c	n/a
100.6775	0.15	201355	keystroke	o	n/a
100.797	0.1205	201594	keystroke	m	n/a
100.9325	0.0895	201865	keystroke	p	n/a
101.1275	0.1345	202255	keystroke	o	n/a
101.277	0.12	202554	keystroke	n	n/a
101.457	0.09	202914	keystroke	e	n/a
101.742	0.0755	203484	keystroke	n	n/a
101.892	0.0905	203784	keystroke	t	n/a
102.042	0.0745	204084	keystroke	Key.space	n/a
102.6725	0.09	205345	keystroke	p	n/a
102.8525	0.12	205705	keystroke	o	n/a
103.0025	0.12	206005	keystroke	s	n/a
103.1525	0.075	206305	keystroke	t	n/a
103.3175	0.135	206635	keystroke	i	n/a
103.4825	0.15	206965	keystroke	n	n/a
103.6025	0.09	207205	keystroke	g	n/a
103.8425	0.09	207685	keystroke	s	n/a
104.112	0.075	208224	keystroke	Key.space	n/a
104.3525	0.09	208705	keystroke	f	n/a
104.5475	0.075	209095	keystroke	o	n/a
104.6525	0.059	209305	keystroke	r	n/a
104.8475	0.075	209695	keystroke	t	n/a
104.9375	0.075	209875	keystroke	u	n/a
105.1325	0.105	210265	keystroke	n	n/a
105.297	0.1205	210594	keystroke	e	n/a
105.462	0.0605	210924	keystroke	Key.space	n/a
105.762	0.1355	211524	keystroke	o	n/a
105.912	0.135	211824	keystroke	m	n/a
106.1225	0.12	212245	keystroke	a	n/a
106.377	0.09	212754	keystroke	h	n/a
106.527	0.12	213054	keystroke	a	n/a
106.8275	0.09	213655	keystroke	Key.enter	n/a
106.924	11.1095	213848	prompt	n/a	jumping phillips queensland garmin\n
107.5775	0.09	215155	keystroke	j	n/a
107.8025	0.0755	215605	keystroke	u	n/a
108.0115	0.1365	216023	keystroke	m	n/a
108.1915	0.1055	216383	keystroke	p	n/a
108.5665	0.151	217133	keystroke	i	n/a
108.762	0.1505	217524	keystroke	n	n/a
109.0025	0.105	218005	keystroke	g	n/a
109.1215	0.1055	218243	keystroke	Key.space	n/a
109.6025	0.105	219205	keystroke	p	n/a
109.737	0.1205	219474	keystroke	h	n/a
110.022	0.1055	220044	keystroke	i	n/a
110.9375	0.12	221875	keystroke	l	n/a
111.5975	0.074	223195	keystroke	l	n/a
111.8975	0.165	223795	keystroke	i	n/a
112.1075	0.12	224215	keystroke	p	n/a
112.3325	0.105	224665	keystroke	s	n/a
112.4525	0.0895	224905	keystroke	Key.space	n/a
112.7515	0.12	225503	keystroke	q	n/a
112.9015	0.076	225803	keystroke	u	n/a
113.052	0.075	226104	keystroke	e	n/a
113.202	0.09	226404	keystroke	e	n/a
113.352	0.12	226704	keystroke	n	n/a
113.667	0.09	227334	keystroke	s	n/a
114.732	0.135	229464	keystroke	l	n/a
114.912	0.105	229824	keystroke	a	n/a
115.0025	0.1195	230005	keystroke	n	n/a
115.1675	0.0895	230335	keystroke	d	n/a
115.317	0.1355	230634	keystroke	Key.space	n/a
115.9325	0.06	231865	keystroke	g	n/a
116.0525	0.165	232105	keystroke	a	n/a
116.1575	0.089	232315	keystroke	r	n/a
116.2925	0.105	232585	keystroke	m	n/a
116.4125	0.15	232825	keystroke	i	n/a
116.5325	0.105	233065	keystroke	n	n/a
117.927	0.105	235854	keystroke	Key.enter	n/a
118.0365	7.7375	236073	prompt	n/a	enquiries leaf brisbane coupled\n
118.677	0.0755	237354	keystroke	e	n/a
118.8415	0.1055	237683	keystroke	n	n/a
119.1115	0.121	238223	keystroke	q	n/a
119.2475	0.09	238495	keystroke	u	n/a
119.4265	0.09	238853	keystroke	i	n/a
119.5625	0.12	239125	keystroke	r	n/a
119.7275	0.09	239455	keystroke	i	n/a
119.7865	0.166	239573	keystroke	e	n/a
119.9225	0.119	239845	keystroke	s	n/a
120.0715	0.1055	240143	keystroke	Key.space	n/a
120.2815	0.1055	240563	keystroke	l	n/a
120.3875	0.1045	240775	keystroke	e	n/a
120.477	0.1655	240954	keystroke	a	n/a
120.612	0.09	241224	keystroke	f	n/a
120.777	0.105	241554	keystroke	Key.space	n/a
121.0325	0.0745	242065	keystroke	b	n/a
121.2425	0.0895	242485	keystroke	r	n/a
121.377	0.0755	242754	keystroke	i	n/a
121.5125	0.0895	243025	keystroke	s	n/a
122.2615	0.076	244523	keystroke	b	n/a
122.4565	0.1205	244913	keystroke	a	n/a
122.757	0.1045	245514	keystroke	n	n/a
122.952	0.075	245904	keystroke	e	n/a
123.087	0.09	246174	keystroke	Key.space	n/a
123.8675	0.075	247735	keystroke	c	n/a
124.0315	0.1655	248063	keystroke	o	n/a
124.182	0.12	248364	keystroke	u	n/a
124.287	0.255	248574	keystroke	p	n/a
124.527	0.1655	249054	keystroke	l	n/a
124.7075	0.059	249415	keystroke	e	n/a
124.8865	0.1205	249773	keystroke	d	n/a
125.6665	0.105	251333	keystroke	Key.enter	n/a
125.779	10.8095	251558	prompt	n/a	unlock stuff atmosphere resistant\n
126.507	0.06	253014	keystroke	u	n/a
126.7175	0.135	253435	keystroke	n	n/a
127.0325	0.03	254065	keystroke	o	n/a
127.5865	0.045	255173	keystroke	Key.backspace	n/a
127.887	0.0895	255774	keystroke	l	n/a
128.0965	0.0755	256193	keystroke	o	n/a
128.2325	0.074	256465	keystroke	c	n/a
128.382	0.1195	256764	keystroke	k	n/a
128.5025	0.0895	257005	keystroke	Key.space	n/a
128.712	0.105	257424	keystroke	s	n/a
128.907	0.075	257814	keystroke	t	n/a
129.042	0.09	258084	keystroke	u	n/a
129.147	0.075	258294	keystroke	f	n/a
129.3275	0.0895	258655	keystroke	f	n/a
129.462	0.135	258924	keystroke	Key.space	n/a
129.882	0.195	259764	keystroke	a	n/a
130.062	0.09	260124	keystroke	t	n/a
130.4975	0.1195	260995	keystroke	m	n/a
130.7215	0.106	261443	keystroke	o	n/a
131.082	0.0905	262164	keystroke	s	n/a
131.787	0.1055	263574	keystroke	h	n/a
132.1165	0.09	264233	keystroke	p	n/a
132.492	0.075	264984	keystroke	Key.backspace	n/a
132.627	0.105	265254	keystroke	Key.backspace	n/a
132.912	0.135	265824	keystroke	p	n/a
133.077	0.12	266154	keystroke	h	n/a
133.347	0.1355	266694	keystroke	e	n/a
133.4675	0.149	266935	keystroke	r	n/a
133.587	0.1055	267174	keystroke	e	n/a
133.872	0.1055	267744	keystroke	Key.space	n/a
134.5475	0.03	269095	keystroke	r	n/a
134.5615	0.105	269123	keystroke	e	n/a
134.757	0.1045	269514	keystroke	s	n/a
134.997	0.0605	269994	keystroke	i	n/a
135.1475	0.1345	270295	keystroke	s	n/a
135.4025	0.0895	270805	keystroke	t	n/a
135.5975	0.12	271195	keystroke	a	n/a
135.747	0.12	271494	keystroke	n	n/a
135.9565	0.076	271913	keystroke	t	n/a
136.4965	0.09	272993	keystroke	Key.enter	n/a
136.593	7.9755	273186	prompt	n/a	enough drops category choices\n
137.307	0.0755	274614	keystroke	e	n/a
137.487	0.12	274974	keystroke	n	n/a
137.757	0.15	275514	keystroke	o	n/a
137.937	0.1055	275874	keystroke	u	n/a
138.2525	0.09	276505	keystroke	g	n/a
138.4165	0.106	276833	keystroke	h	n/a
138.612	0.105	277224	keystroke	Key.space	n/a
139.212	0.0905	278424	keystroke	d	n/a
139.407	0.105	278814	keystroke	r	n/a
139.617	0.165	279234	keystroke	o	n/a
139.7675	0.1345	279535	keystroke	p	n/a
140.112	0.105	280224	keystroke	s	n/a
140.2615	0.09	280523	keystroke	Key.space	n/a
140.622	0.045	281244	keystroke	c	n/a
140.8165	0.1505	281633	keystroke	a	n/a
141.042	0.09	282084	keystroke	t	n/a
141.252	0.06	282504	keystroke	e	n/a
141.4615	0.0755	282923	keystroke	g	n/a
141.7025	0.0895	283405	keystroke	o	n/a
141.9125	0.089	283825	keystroke	r	n/a
142.197	0.105	284394	keystroke	y	n/a
142.482	0.075	284964	keystroke	Key.space	n/a
142.8865	0.075	285773	keystroke	c	n/a
143.0665	0.09	286133	keystroke	h	n/a
143.337	0.105	286674	keystroke	o	n/a
143.577	0.09	287154	keystroke	i	n/a
143.847	0.06	287694	keystroke	c	n/a
144.057	0.075	288114	keystroke	e	n/a
144.282	0.075	288564	keystroke	s	n/a
144.477	0.09	288954	keystroke	Key.enter	n/a
144.5735	10.315	289147	prompt	n/a	gmbh vertex workstation bone\n
145.602	0.06	291204	keystroke	g	n/a
146.037	0.0905	292074	keystroke	m	n/a
146.4575	0.0735	292915	keystroke	b	n/a
146.8625	0.0745	293725	keystroke	h	n/a
147.176	0.0905	294352	keystroke	Key.space	n/a
147.3865	0.06	294773	keystroke	v	n/a
147.567	0.12	295134	keystroke	e	n/a
147.657	0.075	295314	keystroke	r	n/a
147.852	0.09	295704	keystroke	t	n/a
147.972	0.075	295944	keystroke	i	n/a
148.077	0.075	296154	keystroke	e	n/a
148.557	0.0895	297114	keystroke	Key.backspace	n/a
148.7215	0.09	297443	keystroke	Key.backspace	n/a
148.932	0.075	297864	keystroke	e	n/a
149.172	0.075	298344	keystroke	x	n/a
149.427	0.1045	298854	keystroke	Key.space	n/a
149.757	0.0895	299514	keystroke	w	n/a
149.8765	0.105	299753	keystroke	o	n/a
149.997	0.09	299994	keystroke	r	n/a
150.1315	0.045	300263	keystroke	k	n/a
150.776	0.091	301552	keystroke	s	n/a
150.942	0.09	301884	keystroke	t	n/a
151.047	0.18	302094	keystroke	a	n/a
151.332	0.075	302664	keystroke	t	n/a
151.857	0.194	303714	keystroke	i	n/a
151.962	0.165	303924	keystroke	o	n/a
152.067	0.1495	304134	keystroke	n	n/a
152.6065	0.105	305213	keystroke	Key.space	n/a
152.772	0.075	305544	keystroke	b	n/a
152.862	0.105	305724	keystroke	o	n/a
153.177	0.09	306354	keystroke	n	n/a
153.387	0.075	306774	keystroke	e	n/a
154.812	0.075	309624	keystroke	Key.enter	n/a
154.894	8.6525	309788	prompt	n/a	offering analyze skype kodak\n
155.5165	0.09	311033	keystroke	o	n/a
155.652	0.075	311304	keystroke	f	n/a
155.8015	0.09	311603	keystroke	f	n/a
155.997	0.1645	311994	keystroke	e	n/a
156.1165	0.105	312233	keystroke	r	n/a
156.297	0.1345	312594	keystroke	i	n/a
156.402	0.135	312804	keystroke	n	n/a
156.5665	0.09	313133	keystroke	g	n/a
156.642	0.1195	313284	keystroke	Key.space	n/a
156.867	0.1195	313734	keystroke	a	n/a
157.0015	0.09	314003	keystroke	n	n/a
157.1065	0.1055	314213	keystroke	a	n/a
157.332	0.1345	314664	keystroke	z	n/a
157.4975	0.119	314995	keystroke	l	n/a
158.142	0.09	316284	keystroke	Key.backspace	n/a
158.367	0.135	316734	keystroke	Key.backspace	n/a
158.592	0.06	317184	keystroke	Key.backspace	n/a
159.222	0.119	318444	keystroke	a	n/a
159.446	0.121	318892	keystroke	l	n/a
159.687	0.0745	319374	keystroke	y	n/a
159.8665	0.135	319733	keystroke	z	n/a
160.181	0.106	320362	keystroke	e	n/a
160.3465	0.1205	320693	keystroke	Key.space	n/a
160.722	0.09	321444	keystroke	s	n/a
160.8565	0.1355	321713	keystroke	k	n/a
161.1265	0.1055	322253	keystroke	y	n/a
161.336	0.1055	322672	keystroke	p	n/a
161.5165	0.0755	323033	keystroke	e	n/a
161.637	0.09	323274	keystroke	Key.space	n/a
161.892	0.12	323784	keystroke	k	n/a
162.177	0.0895	324354	keystroke	o	n/a
162.4165	0.09	324833	keystroke	d	n/a
162.6115	0.1205	325223	keystroke	a	n/a
162.852	0.105	325704	keystroke	k	n/a
163.452	0.09	326904	keystroke	Key.enter	n/a
163.5545	6.859	327109	prompt	n/a	treated it'd remained who'd\n
164.232	0.075	328464	keystroke	t	n/a
164.427	0.105	328854	keystroke	r	n/a
164.6515	0.09	329303	keystroke	e	n/a
164.862	0.1495	329724	keystroke	a	n/a
165.056	0.091	330112	keystroke	t	n/a
165.192	0.09	330384	keystroke	e	n/a
165.461	0.09	330922	keystroke	d	n/a
165.596	0.106	331192	keystroke	Key.space	n/a
165.867	0.104	331734	keystroke	i	n/a
166.092	0.075	332184	keystroke	t	n/a
166.272	0.105	332544	keystroke	'	n/a
166.6915	0.0905	333383	keystroke	d	n/a
166.872	0.12	333744	keystroke	Key.space	n/a
167.2165	0.075	334433	keystroke	r	n/a
167.382	0.0745	334764	keystroke	e	n/a
167.592	0.105	335184	keystroke	m	n/a
167.802	0.12	335604	keystroke	a	n/a
168.072	0.15	336144	keystroke	i	n/a
168.2065	0.105	336413	keystroke	n	n/a
168.357	0.09	336714	keystroke	e	n/a
168.671	0.076	337342	keystroke	d	n/a
168.896	0.075	337792	keystroke	Key.space	n/a
169.151	0.0905	338302	keystroke	w	n/a
169.3465	0.1055	338693	keystroke	h	n/a
169.557	0.1045	339114	keystroke	o	n/a
169.8265	0.1195	339653	keystroke	'	n/a
170.0665	0.09	340133	keystroke	d	n/a
170.3365	0.075	340673	keystroke	Key.enter	n/a
170.4185	9.25	340837	prompt	n/a	classifieds boom somerset pathology\n
171.207	0.075	342414	keystroke	c	n/a
171.372	0.0905	342744	keystroke	l	n/a
171.507	0.135	343014	keystroke	a	n/a
171.627	0.135	343254	keystroke	s	n/a
171.9415	0.105	343883	keystroke	s	n/a
172.2715	0.1055	344543	keystroke	i	n/a
172.467	0.09	344934	keystroke	f	n/a
172.7215	0.0905	345443	keystroke	i	n/a
172.872	0.075	345744	keystroke	e	n/a
173.1565	0.09	346313	keystroke	d	n/a
173.637	0.089	347274	keystroke	s	n/a
173.831	0.09	347662	keystroke	Key.space	n/a
174.1465	0.075	348293	keystroke	b	n/a
174.3115	0.075	348623	keystroke	o	n/a
174.462	0.12	348924	keystroke	o	n/a
174.6865	0.1055	349373	keystroke	m	n/a
175.1215	0.105	350243	keystroke	Key.space	n/a
175.632	0.0895	351264	keystroke	s	n/a
175.812	0.09	351624	keystroke	o	n/a
176.037	0.0895	352074	keystroke	m	n/a
176.277	0.0895	352554	keystroke	e	n/a
176.5615	0.0905	353123	keystroke	r	n/a
176.8015	0.0755	353603	keystroke	s	n/a
177.057	0.075	354114	keystroke	e	n/a
177.2815	0.0755	354563	keystroke	t	n/a
177.417	0.09	354834	keystroke	Key.space	n/a
177.701	0.091	355402	keystroke	p	n/a
177.867	0.15	355734	keystroke	a	n/a
178.032	0.09	356064	keystroke	t	n/a
178.212	0.09	356424	keystroke	h	n/a
178.5265	0.09	357053	keystroke	o	n/a
178.7815	0.09	357563	keystroke	l	n/a
178.9915	0.09	357983	keystroke	o	n/a
179.1565	0.075	358313	keystroke	g	n/a
179.307	0.1045	358614	keystroke	y	n/a
179.5615	0.105	359123	keystroke	Key.enter	n/a
179.673	4.9455	359346	prompt	n/a	that'll rover bobby depend\n
180.522	0.075	361044	keystroke	t	n/a
180.597	0.075	361194	keystroke	h	n/a
180.687	0.164	361374	keystroke	a	n/a
180.7925	0.105	361585	keystroke	t	n/a
180.987	0.104	361974	keystroke	'	n/a
181.301	0.106	362602	keystroke	l	n/a
181.482	0.12	362964	keystroke	l	n/a
181.617	0.1645	363234	keystroke	Key.space	n/a
181.7665	0.0755	363533	keystroke	r	n/a
181.8865	0.09	363773	keystroke	o	n/a
182.0065	0.075	364013	keystroke	v	n/a
182.157	0.165	364314	keystroke	e	n/a
182.2615	0.0895	364523	keystroke	r	n/a
182.352	0.089	364704	keystroke	Key.space	n/a
182.577	0.0745	365154	keystroke	b	n/a
182.6815	0.09	365363	keystroke	o	n/a
182.922	0.06	365844	keystroke	b	n/a
183.086	0.0755	366172	keystroke	b	n/a
183.237	0.0895	366474	keystroke	y	n/a
183.3565	0.105	366713	keystroke	Key.space	n/a
183.5515	0.06	367103	keystroke	d	n/a
183.7315	0.075	367463	keystroke	e	n/a
183.911	0.06	367822	keystroke	p	n/a
184.0165	0.09	368033	keystroke	e	n/a
184.152	0.105	368304	keystroke	n	n/a
184.286	0.076	368572	keystroke	d	n/a
184.5265	0.09	369053	keystroke	Key.enter	n/a
184.6235	10.93	369247	prompt	n/a	vsnet submitting stuart intensive\n
185.577	0.0755	371154	keystroke	v	n/a
185.9215	0.0755	371843	keystroke	s	n/a
186.327	0.0895	372654	keystroke	n	n/a
186.567	0.1045	373134	keystroke	e	n/a
186.7915	0.0905	373583	keystroke	t	n/a
186.971	0.105	373942	keystroke	Key.space	n/a
187.227	0.0745	374454	keystroke	s	n/a
187.571	0.075	375142	keystroke	u	n/a
188.126	0.06	376252	keystroke	b	n/a
188.6365	0.12	377273	keystroke	m	n/a
188.7265	0.135	377453	keystroke	i	n/a
188.9665	0.06	377933	keystroke	t	n/a
189.1165	0.12	378233	keystroke	t	n/a
189.251	0.136	378502	keystroke	i	n/a
189.341	0.1205	378682	keystroke	n	n/a
189.4465	0.1055	378893	keystroke	g	n/a
189.566	0.06	379132	keystroke	Key.space	n/a
189.7465	0.105	379493	keystroke	s	n/a
189.956	0.0905	379912	keystroke	t	n/a
190.181	0.09	380362	keystroke	u	n/a
190.3615	0.165	380723	keystroke	a	n/a
190.751	0.0755	381502	keystroke	r	n/a
190.9915	0.0905	381983	keystroke	t	n/a
191.5165	0.09	383033	keystroke	Key.space	n/a
192.611	0.0755	385222	keystroke	i	n/a
192.6715	0.12	385343	keystroke	n	n/a
192.806	0.09	385612	keystroke	t	n/a
192.926	0.165	385852	keystroke	e	n/a
193.121	0.121	386242	keystroke	n	n/a
193.242	0.105	386484	keystroke	s	n/a
194.262	0.104	388524	keystroke	i	n/a
194.397	0.089	388794	keystroke	v	n/a
194.502	0.1195	389004	keystroke	e	n/a
195.4315	0.1195	390863	keystroke	Key.enter	n/a
195.5585	7.4795	391117	prompt	n/a	feeds spaces missing weapons\n
196.227	0.09	392454	keystroke	f	n/a
196.4215	0.06	392843	keystroke	e	n/a
196.572	0.0895	393144	keystroke	e	n/a
196.841	0.0605	393682	keystroke	d	n/a
197.021	0.1055	394042	keystroke	s	n/a
197.142	0.089	394284	keystroke	Key.space	n/a
197.277	0.0895	394554	keystroke	s	n/a
197.427	0.0895	394854	keystroke	p	n/a
197.532	0.1045	395064	keystroke	a	n/a
197.727	0.06	395454	keystroke	c	n/a
197.922	0.134	395844	keystroke	e	n/a
197.9965	0.1645	395993	keystroke	s	n/a
198.221	0.09	396442	keystroke	Key.space	n/a
198.552	0.165	397104	keystroke	m	n/a
198.702	0.09	397404	keystroke	i	n/a
198.822	0.06	397644	keystroke	s	n/a
198.987	0.075	397974	keystroke	s	n/a
199.107	0.18	398214	keystroke	i	n/a
199.2415	0.1355	398483	keystroke	n	n/a
199.4065	0.1055	398813	keystroke	g	n/a
199.4965	0.1055	398993	keystroke	Key.space	n/a
199.842	0.075	399684	keystroke	w	n/a
200.052	0.105	400104	keystroke	e	n/a
200.8165	0.1195	401633	keystroke	a	n/a
201.266	0.12	402532	keystroke	p	n/a
201.432	0.1345	402864	keystroke	o	n/a
201.5965	0.1045	403193	keystroke	i	n/a
202.1665	0.105	404333	keystroke	Key.backspace	n/a
202.4515	0.12	404903	keystroke	n	n/a
202.6165	0.09	405233	keystroke	s	n/a
202.9315	0.105	405863	keystroke	Key.enter	n/a
203.0415	11.293	406083	prompt	n/a	conditions hdtv portrait perspectives\n
203.921	0.105	407842	keystroke	c	n/a
204.101	0.105	408202	keystroke	o	n/a
204.207	0.1195	408414	keystroke	n	n/a
204.401	0.105	408802	keystroke	d	n/a
204.626	0.076	409252	keystroke	i	n/a
204.762	0.09	409524	keystroke	t	n/a
204.867	0.195	409734	keystroke	i	n/a
204.987	0.36	409974	keystroke	o	n/a
205.332	0.195	410664	keystroke	n	n/a
205.662	0.105	411324	keystroke	s	n/a
205.9765	0.09	411953	keystroke	Key.space	n/a
206.4565	0.09	412913	keystroke	h	n/a
206.8315	0.09	413663	keystroke	d	n/a
207.1915	0.0755	414383	keystroke	t	n/a
207.506	0.075	415012	keystroke	v	n/a
207.701	0.09	415402	keystroke	Key.space	n/a
207.927	0.0895	415854	keystroke	p	n/a
208.1815	0.105	416363	keystroke	o	n/a
208.331	0.0755	416662	keystroke	r	n/a
208.5265	0.075	417053	keystroke	t	n/a
208.9315	0.0905	417863	keystroke	r	n/a
209.2615	0.12	418523	keystroke	a	n/a
209.502	0.1045	419004	keystroke	i	n/a
210.042	0.089	420084	keystroke	t	n/a
210.221	0.09	420442	keystroke	Key.space	n/a
210.9865	0.1055	421973	keystroke	p	n/a
211.3315	0.1345	422663	keystroke	e	n/a
211.616	0.105	423232	keystroke	r	n/a
212.2315	0.0905	424463	keystroke	s	n/a
212.726	0.09	425452	keystroke	p	n/a
212.861	0.09	425722	keystroke	e	n/a
213.1015	0.075	426203	keystroke	c	n/a
213.311	0.091	426622	keystroke	t	n/a
213.4315	0.0745	426863	keystroke	i	n/a
213.551	0.105	427102	keystroke	v	n/a
213.7165	0.1495	427433	keystroke	e	n/a
213.806	0.15	427612	keystroke	s	n/a
214.2415	0.09	428483	keystroke	Key.enter	n/a
214.339	8.4095	428678	prompt	n/a	provisions interesting figure crossing\n
215.1565	0.09	430313	keystroke	p	n/a
215.3515	0.06	430703	keystroke	r	n/a
215.607	0.1195	431214	keystroke	o	n/a
215.891	0.09	431782	keystroke	v	n/a
216.146	0.091	432292	keystroke	i	n/a
216.372	0.075	432744	keystroke	s	n/a
216.566	0.1205	433132	keystroke	i	n/a
216.852	0.105	433704	keystroke	o	n/a
217.106	0.105	434212	keystroke	n	n/a
217.3615	0.0745	434723	keystroke	s	n/a
217.511	0.105	435022	keystroke	Key.space	n/a
217.751	0.105	435502	keystroke	i	n/a
217.812	0.12	435624	keystroke	n	n/a
218.051	0.075	436102	keystroke	t	n/a
218.2165	0.1345	436433	keystroke	e	n/a
218.3215	0.119	436643	keystroke	r	n/a
218.5015	0.2255	437003	keystroke	e	n/a
218.6815	0.1945	437363	keystroke	s	n/a
218.861	0.12	437722	keystroke	t	n/a
218.996	0.106	437992	keystroke	i	n/a
219.0565	0.1495	438113	keystroke	n	n/a
219.191	0.075	438382	keystroke	g	n/a
219.2365	0.1495	438473	keystroke	Key.space	n/a
219.4165	0.105	438833	keystroke	f	n/a
219.5665	0.09	439133	keystroke	i	n/a
219.731	0.03	439462	keystroke	g	n/a
219.821	0.0905	439642	keystroke	u	n/a
219.957	0.134	439914	keystroke	r	n/a
220.046	0.12	440092	keystroke	e	n/a
221.3205	0.091	442641	keystroke	Key.space	n/a
221.667	0.0745	443334	keystroke	c	n/a
221.862	0.075	443724	keystroke	r	n/a
221.952	0.09	443904	keystroke	o	n/a
222.086	0.061	444172	keystroke	s	n/a
222.236	0.09	444472	keystroke	s	n/a
222.312	0.089	444624	keystroke	i	n/a
222.3715	0.1055	444743	keystroke	n	n/a
222.4915	0.0755	444983	keystroke	g	n/a
222.6565	0.09	445313	keystroke	Key.enter	n/a
222.7535	10.7795	445507	prompt	n/a	charming resolved expiration professionals\n
223.452	0.075	446904	keystroke	c	n/a
223.527	0.0895	447054	keystroke	h	n/a
223.632	0.1495	447264	keystroke	a	n/a
223.736	0.0905	447472	keystroke	r	n/a
223.841	0.09	447682	keystroke	m	n/a
223.946	0.1055	447892	keystroke	i	n/a
224.0815	0.0895	448163	keystroke	n	n/a
224.696	0.075	449392	keystroke	g	n/a
224.831	0.1055	449662	keystroke	Key.space	n/a
225.071	0.075	450142	keystroke	r	n/a
225.5505	0.076	451101	keystroke	e	n/a
225.7455	0.0905	451491	keystroke	s	n/a
225.896	0.06	451792	keystroke	l	n/a
226.0765	0.105	452153	keystroke	o	n/a
226.2265	0.09	452453	keystroke	v	n/a
226.3765	0.059	452753	keystroke	e	n/a
226.691	0.06	453382	keystroke	Key.backspace	n/a
226.841	0.0605	453682	keystroke	Key.backspace	n/a
226.976	0.09	453952	keystroke	Key.backspace	n/a
227.126	0.0745	454252	keystroke	Key.backspace	n/a
227.3365	0.06	454673	keystroke	o	n/a
227.5015	0.09	455003	keystroke	l	n/a
227.6215	0.09	455243	keystroke	v	n/a
227.7715	0.075	455543	keystroke	e	n/a
227.9815	0.075	455963	keystroke	d	n/a
228.3115	0.09	456623	keystroke	Key.space	n/a
228.8365	0.06	457673	keystroke	e	n/a
229.0465	0.0755	458093	keystroke	x	n/a
229.1815	0.105	458363	keystroke	p	n/a
229.4065	0.075	458813	keystroke	i	n/a
229.5265	0.0755	459053	keystroke	r	n/a
229.6315	0.09	459263	keystroke	i	n/a
230.111	0.105	460222	keystroke	Key.backspace	n/a
230.2465	0.1495	460493	keystroke	a	n/a
230.351	0.091	460702	keystroke	t	n/a
230.4565	0.1945	460913	keystroke	i	n/a
230.561	0.12	461122	keystroke	o	n/a
230.6065	0.135	461213	keystroke	n	n/a
230.831	0.09	461662	keystroke	Key.space	n/a
231.236	0.09	462472	keystroke	p	n/a
231.371	0.075	462742	keystroke	r	n/a
231.476	0.1055	462952	keystroke	o	n/a
231.626	0.121	463252	keystroke	f	n/a
231.791	0.1355	463582	keystroke	e	n/a
232.0015	0.075	464003	keystroke	s	n/a
232.1515	0.0745	464303	keystroke	s	n/a
232.286	0.1205	464572	keystroke	i	n/a
232.3465	0.12	464693	keystroke	o	n/a
232.4365	0.12	464873	keystroke	n	n/a
232.5715	0.1205	465143	keystroke	a	n/a
232.736	0.1055	465472	keystroke	l	n/a
232.886	0.0905	465772	keystroke	s	n/a
233.4415	0.09	466883	keystroke	Key.enter	n/a
233.5375	9.1605	467075	prompt	n/a	reasonable evaluations selective oxide\n
234.252	0.1495	468504	keystroke	r	n/a
234.4015	0.0755	468803	keystroke	e	n/a
234.5065	0.1645	469013	keystroke	a	n/a
234.657	0.1345	469314	keystroke	s	n/a
234.8355	0.106	469671	keystroke	o	n/a
234.956	0.09	469912	keystroke	n	n/a
235.0615	0.165	470123	keystroke	a	n/a
235.241	0.09	470482	keystroke	b	n/a
235.3915	0.105	470783	keystroke	l	n/a
235.5115	0.0595	471023	keystroke	e	n/a
235.556	0.1055	471112	keystroke	Key.space	n/a
236.1115	0.0595	472223	keystroke	e	n/a
236.802	0.0595	473604	keystroke	v	n/a
237.0115	0.09	474023	keystroke	a	n/a
237.4015	0.1345	474803	keystroke	l	n/a
237.566	0.075	475132	keystroke	u	n/a
237.671	0.18	475342	keystroke	a	n/a
237.8365	0.09	475673	keystroke	t	n/a
237.9415	0.165	475883	keystroke	i	n/a
238.0015	0.1345	476003	keystroke	o	n/a
238.091	0.1205	476182	keystroke	n	n/a
238.226	0.105	476452	keystroke	s	n/a
238.4065	0.09	476813	keystroke	Key.space	n/a
239.1115	0.1495	478223	keystroke	s	n/a
239.396	0.0755	478792	keystroke	e	n/a
239.517	0.134	479034	keystroke	l	n/a
239.606	0.075	479212	keystroke	e	n/a
240.1615	0.105	480323	keystroke	c	n/a
240.3715	0.09	480743	keystroke	t	n/a
240.4915	0.075	480983	keystroke	i	n/a
240.5965	0.075	481193	keystroke	v	n/a
240.716	0.1205	481432	keystroke	e	n/a
240.8065	0.1195	481613	keystroke	Key.space	n/a
241.046	0.09	482092	keystroke	o	n/a
241.121	0.105	482242	keystroke	x	n/a
241.316	0.06	482632	keystroke	i	n/a
241.421	0.045	482842	keystroke	c	n/a
241.901	0.09	483802	keystroke	Key.backspace	n/a
242.096	0.06	484192	keystroke	d	n/a
242.2915	0.045	484583	keystroke	e	n/a
242.636	0.06	485272	keystroke	Key.enter	n/a
242.703	8.53	485406	prompt	n/a	something's generation files guatemala\n
243.446	0.0905	486892	keystroke	s	n/a
243.5655	0.106	487131	keystroke	o	n/a
243.6555	0.09	487311	keystroke	m	n/a
243.6855	0.12	487371	keystroke	e	n/a
243.822	0.0895	487644	keystroke	t	n/a
243.8815	0.24	487763	keystroke	h	n/a
244.092	0.2395	488184	keystroke	i	n/a
244.3165	0.135	488633	keystroke	n	n/a
244.5265	0.09	489053	keystroke	g	n/a
244.8115	0.12	489623	keystroke	'	n/a
245.066	0.151	490132	keystroke	s	n/a
245.276	0.09	490552	keystroke	Key.space	n/a
245.6065	0.09	491213	keystroke	g	n/a
245.772	0.09	491544	keystroke	e	n/a
245.906	0.0755	491812	keystroke	n	n/a
245.952	0.149	491904	keystroke	e	n/a
246.041	0.135	492082	keystroke	r	n/a
246.162	0.1945	492324	keystroke	a	n/a
246.3415	0.105	492683	keystroke	t	n/a
247.0615	0.135	494123	keystroke	i	n/a
247.1655	0.15	494331	keystroke	o	n/a
247.2565	0.134	494513	keystroke	n	n/a
247.3755	0.1055	494751	keystroke	Key.space	n/a
247.616	0.0455	495232	keystroke	g	n/a
248.0505	0.0755	496101	keystroke	Key.backspace	n/a
248.1715	0.1045	496343	keystroke	f	n/a
248.246	0.1055	496492	keystroke	i	n/a
248.3965	0.12	496793	keystroke	l	n/a
248.5315	0.1495	497063	keystroke	e	n/a
248.6215	0.165	497243	keystroke	s	n/a
248.756	0.105	497512	keystroke	Key.space	n/a
249.342	0.014	498684	keystroke	g	n/a
249.5815	0.075	499163	keystroke	u	n/a
249.7465	0.1355	499493	keystroke	a	n/a
250.0465	0.0745	500093	keystroke	t	n/a
250.196	0.0905	500392	keystroke	e	n/a
250.4215	0.09	500843	keystroke	m	n/a
250.5715	0.1195	501143	keystroke	a	n/a
250.7515	0.1045	501503	keystroke	l	n/a
250.871	0.1055	501742	keystroke	a	n/a
251.1415	0.089	502283	keystroke	Key.enter	n/a
251.2425	9.26	502485	prompt	n/a	dealt consulting bloomberg enhancement\n
251.9665	0.09	503933	keystroke	d	n/a
252.2365	0.105	504473	keystroke	e	n/a
252.3565	0.18	504713	keystroke	a	n/a
252.5065	0.105	505013	keystroke	l	n/a
252.6565	0.09	505313	keystroke	t	n/a
253.0615	0.0895	506123	keystroke	Key.space	n/a
253.2865	0.075	506573	keystroke	c	n/a
253.4065	0.075	506813	keystroke	o	n/a
253.4965	0.09	506993	keystroke	n	n/a
253.5715	0.09	507143	keystroke	s	n/a
253.7365	0.0755	507473	keystroke	u	n/a
253.886	0.12	507772	keystroke	l	n/a
254.0215	0.1045	508043	keystroke	t	n/a
254.156	0.136	508312	keystroke	i	n/a
254.261	0.135	508522	keystroke	n	n/a
254.4865	0.09	508973	keystroke	g	n/a
254.591	0.09	509182	keystroke	Key.space	n/a
255.4015	0.074	510803	keystroke	b	n/a
255.5365	0.165	511073	keystroke	l	n/a
255.8355	0.06	511671	keystroke	o	n/a
256.0015	0.105	512003	keystroke	o	n/a
256.2415	0.134	512483	keystroke	m	n/a
256.541	0.0905	513082	keystroke	b	n/a
256.7665	0.1645	513533	keystroke	e	n/a
256.902	0.119	513804	keystroke	r	n/a
257.321	0.09	514642	keystroke	g	n/a
257.471	0.1505	514942	keystroke	Key.space	n/a
257.6365	0.075	515273	keystroke	e	n/a
257.7565	0.105	515513	keystroke	n	n/a
258.0115	0.0755	516023	keystroke	h	n/a
258.1015	0.135	516203	keystroke	a	n/a
258.2815	0.06	516563	keystroke	n	n/a
258.986	0.06	517972	keystroke	c	n/a
259.196	0.0755	518392	keystroke	e	n/a
259.3315	0.074	518663	keystroke	m	n/a
259.4215	0.149	518843	keystroke	e	n/a
259.5265	0.074	519053	keystroke	n	n/a
259.5855	0.091	519171	keystroke	t	n/a
260.3965	0.1045	520793	keystroke	Key.enter	n/a
260.5085	7.4045	521017	prompt	n/a	advocate shakira exchanges cash\n
261.3415	0.15	522683	keystroke	a	n/a
261.5205	0.091	523041	keystroke	d	n/a
262.0015	0.075	524003	keystroke	v	n/a
262.0905	0.121	524181	keystroke	o	n/a
262.4365	0.06	524873	keystroke	c	n/a
262.616	0.1355	525232	keystroke	a	n/a
262.7215	0.135	525443	keystroke	t	n/a
262.841	0.105	525682	keystroke	e	n/a
263.021	0.075	526042	keystroke	Key.space	n/a
263.4115	0.0745	526823	keystroke	s	n/a
263.5015	0.0745	527003	keystroke	h	n/a
263.591	0.1505	527182	keystroke	a	n/a
263.996	0.0755	527992	keystroke	k	n/a
264.1915	0.075	528383	keystroke	i	n/a
264.281	0.075	528562	keystroke	r	n/a
264.4315	0.1195	528863	keystroke	a	n/a
264.6715	0.09	529343	keystroke	Key.space	n/a
265.2115	0.06	530423	keystroke	e	n/a
265.422	0.0595	530844	keystroke	x	n/a
265.6465	0.06	531293	keystroke	c	n/a
265.7815	0.0755	531563	keystroke	h	n/a
265.8715	0.1345	531743	keystroke	a	n/a
265.991	0.0905	531982	keystroke	n	n/a
266.0955	0.076	532191	keystroke	g	n/a
266.2015	0.12	532403	keystroke	e	n/a
266.2915	0.1505	532583	keystroke	s	n/a
266.5465	0.0895	533093	keystroke	Key.space	n/a
267.1765	0.0445	534353	keystroke	c	n/a
267.356	0.15	534712	keystroke	a	n/a
267.4765	0.105	534953	keystroke	s	n/a
267.611	0.105	535222	keystroke	h	n/a
267.806	0.1055	535612	keystroke	Key.enter	n/a
267.916	7.272	535832	prompt	n/a	patricia static canada writers\n
268.6465	0.09	537293	keystroke	p	n/a
268.7515	0.15	537503	keystroke	a	n/a
268.8865	0.075	537773	keystroke	t	n/a
269.0665	0.0755	538133	keystroke	r	n/a
269.2625	0.059	538525	keystroke	i	n/a
269.3815	0.09	538763	keystroke	c	n/a
269.4865	0.0895	538973	keystroke	i	n/a
269.6655	0.121	539331	keystroke	a	n/a
269.9665	0.09	539933	keystroke	Key.space	n/a
270.7155	0.136	541431	keystroke	s	n/a
270.866	0.0755	541732	keystroke	t	n/a
270.986	0.15	541972	keystroke	a	n/a
271.0915	0.1045	542183	keystroke	t	n/a
271.241	0.075	542482	keystroke	i	n/a
271.556	0.0605	543112	keystroke	c	n/a
271.736	0.09	543472	keystroke	Key.space	n/a
272.006	0.03	544012	keystroke	c	n/a
272.096	0.135	544192	keystroke	a	n/a
272.216	0.0755	544432	keystroke	n	n/a
272.3365	0.165	544673	keystroke	a	n/a
273.1315	0.09	546263	keystroke	d	n/a
273.2665	0.15	546533	keystroke	a	n/a
273.4455	0.09	546891	keystroke	Key.space	n/a
273.9705	0.075	547941	keystroke	w	n/a
274.151	0.0905	548302	keystroke	r	n/a
274.272	0.0745	548544	keystroke	i	n/a
274.4065	0.09	548813	keystroke	t	n/a
274.6315	0.224	549263	keystroke	e	n/a
274.7355	0.136	549471	keystroke	r	n/a
274.8415	0.12	549683	keystroke	s	n/a
275.0805	0.1055	550161	keystroke	Key.enter	n/a
275.1925	8.1405	550385	prompt	n/a	rainbow balloon jeffrey modifications\n
275.8765	0.0895	551753	keystroke	r	n/a
275.9965	0.18	551993	keystroke	a	n/a
276.1615	0.135	552323	keystroke	i	n/a
276.2815	0.119	552563	keystroke	n	n/a
276.5065	0.075	553013	keystroke	b	n/a
276.7015	0.1045	553403	keystroke	o	n/a
276.8665	0.105	553733	keystroke	w	n/a
277.0315	0.12	554063	keystroke	Key.space	n/a
277.766	0.075	555532	keystroke	b	n/a
277.9155	0.1355	555831	keystroke	a	n/a
278.0365	0.075	556073	keystroke	l	n/a
278.217	0.0895	556434	keystroke	l	n/a
278.531	0.075	557062	keystroke	o	n/a
278.681	0.105	557362	keystroke	o	n/a
278.891	0.09	557782	keystroke	n	n/a
279.041	0.105	558082	keystroke	Key.space	n/a
279.281	0.0755	558562	keystroke	j	n/a
279.431	0.075	558862	keystroke	e	n/a
279.596	0.0905	559192	keystroke	f	n/a
279.7915	0.1045	559583	keystroke	f	n/a
280.181	0.12	560362	keystroke	r	n/a
280.2565	0.105	560513	keystroke	e	n/a
280.556	0.06	561112	keystroke	y	n/a
280.8115	0.09	561623	keystroke	Key.space	n/a
281.156	0.09	562312	keystroke	m	n/a
281.2765	0.1195	562553	keystroke	o	n/a
281.456	0.1055	562912	keystroke	d	n/a
281.606	0.06	563212	keystroke	i	n/a
281.726	0.09	563452	keystroke	f	n/a
281.831	0.09	563662	keystroke	i	n/a
281.996	0.075	563992	keystroke	c	n/a
282.161	0.1955	564322	keystroke	a	n/a
282.296	0.1055	564592	keystroke	t	n/a
282.3715	0.195	564743	keystroke	i	n/a
282.4465	0.1795	564893	keystroke	o	n/a
282.5515	0.18	565103	keystroke	n	n/a
282.8515	0.0895	565703	keystroke	s	n/a
283.226	0.105	566452	keystroke	Key.enter	n/a
283.3365	6.9415	566673	prompt	n/a	fighters oven securely bookings\n
283.901	0.0905	567802	keystroke	f	n/a
284.066	0.0755	568132	keystroke	i	n/a
284.1565	0.0745	568313	keystroke	g	n/a
284.3065	0.0895	568613	keystroke	h	n/a
284.397	0.104	568794	keystroke	t	n/a
284.561	0.27	569122	keystroke	e	n/a
284.6515	0.1945	569303	keystroke	r	n/a
284.816	0.15	569632	keystroke	s	n/a
284.981	0.105	569962	keystroke	Key.space	n/a
285.191	0.105	570382	keystroke	o	n/a
285.3265	0.06	570653	keystroke	v	n/a
285.446	0.195	570892	keystroke	e	n/a
285.6565	0.105	571313	keystroke	n	n/a
286.121	0.0905	572242	keystroke	Key.space	n/a
286.421	0.0905	572842	keystroke	s	n/a
286.586	0.075	573172	keystroke	e	n/a
286.8115	0.0745	573623	keystroke	c	n/a
286.9765	0.0895	573953	keystroke	u	n/a
287.111	0.0905	574222	keystroke	r	n/a
287.7705	0.0755	575541	keystroke	e	n/a
287.966	0.12	575932	keystroke	l	n/a
288.221	0.06	576442	keystroke	y	n/a
288.386	0.09	576772	keystroke	Key.space	n/a
288.6115	0.09	577223	keystroke	b	n/a
288.7755	0.061	577551	keystroke	o	n/a
288.9405	0.106	577881	keystroke	o	n/a
289.226	0.105	578452	keystroke	k	n/a
289.4515	0.1045	578903	keystroke	i	n/a
289.5115	0.165	579023	keystroke	n	n/a
289.6915	0.09	579383	keystroke	g	n/a
289.9015	0.105	579803	keystroke	s	n/a
290.1715	0.105	580343	keystroke	Key.enter	n/a
290.284	11.214	580568	prompt	n/a	violin inches organisms temperatures\n
290.9055	0.091	581811	keystroke	v	n/a
291.0265	0.105	582053	keystroke	o	n/a
291.4605	0.091	582921	keystroke	Key.backspace	n/a
291.6405	0.12	583281	keystroke	i	n/a
291.8515	0.0895	583703	keystroke	o	n/a
291.866	0.045	583732	keystroke	i	n/a
292.062	0.119	584124	keystroke	l	n/a
292.631	0.0755	585262	keystroke	Key.backspace	n/a
292.7655	0.075	585531	keystroke	Key.backspace	n/a
293.0065	0.12	586013	keystroke	l	n/a
293.3065	0.105	586613	keystroke	i	n/a
293.5165	0.12	587033	keystroke	n	n/a
293.7855	0.091	587571	keystroke	Key.space	n/a
294.2065	0.015	588413	keystroke	e	n/a
294.506	0.0905	589012	keystroke	Key.backspace	n/a
294.716	0.1355	589432	keystroke	i	n/a
294.836	0.1355	589672	keystroke	n	n/a
295.0155	0.075	590031	keystroke	c	n/a
295.1655	0.0755	590331	keystroke	h	n/a
295.3315	0.164	590663	keystroke	e	n/a
295.4365	0.15	590873	keystroke	s	n/a
296.0505	0.0905	592101	keystroke	Key.space	n/a
296.3955	0.076	592791	keystroke	o	n/a
296.4855	0.076	592971	keystroke	r	n/a
296.6815	0.0745	593363	keystroke	g	n/a
296.771	0.105	593542	keystroke	a	n/a
296.861	0.135	593722	keystroke	n	n/a
296.9815	0.1195	593963	keystroke	i	n/a
297.161	0.075	594322	keystroke	z	n/a
297.6565	0.1195	595313	keystroke	Key.backspace	n/a
297.866	0.0755	595732	keystroke	s	n/a
298.0915	0.135	596183	keystroke	m	n/a
298.2865	0.09	596573	keystroke	s	n/a
298.5115	0.0895	597023	keystroke	Key.space	n/a
299.231	0.0755	598462	keystroke	t	n/a
299.366	0.09	598732	keystroke	e	n/a
299.4865	0.1195	598973	keystroke	m	n/a
299.741	0.09	599482	keystroke	p	n/a
299.846	0.105	599692	keystroke	e	n/a
299.906	0.1055	599812	keystroke	r	n/a
300.1015	0.165	600203	keystroke	a	n/a
300.2515	0.09	600503	keystroke	t	n/a
300.5665	0.12	601133	keystroke	u	n/a
300.7165	0.135	601433	keystroke	r	n/a
300.7765	0.165	601553	keystroke	e	n/a
301.0755	0.09	602151	keystroke	s	n/a
301.406	0.0895	602812	keystroke	Key.enter	n/a
301.502	12.701	603004	prompt	n/a	tribune completion nvidia azerbaijan\n
301.9915	0.104	603983	keystroke	f	n/a
302.3515	0.104	604703	keystroke	Key.backspace	n/a
302.5315	0.06	605063	keystroke	t	n/a
302.6955	0.091	605391	keystroke	r	n/a
302.801	0.105	605602	keystroke	u	n/a
303.3565	0.104	606713	keystroke	Key.backspace	n/a
303.5665	0.075	607133	keystroke	i	n/a
303.7015	0.075	607403	keystroke	b	n/a
303.8515	0.075	607703	keystroke	u	n/a
304.0905	0.105	608181	keystroke	n	n/a
304.256	0.09	608512	keystroke	e	n/a
304.436	0.09	608872	keystroke	Key.space	n/a
305.4405	0.076	610881	keystroke	c	n/a
305.5315	0.1795	611063	keystroke	o	n/a
305.6505	0.151	611301	keystroke	m	n/a
305.756	0.15	611512	keystroke	p	n/a
305.8765	0.164	611753	keystroke	l	n/a
306.0415	0.12	612083	keystroke	e	n/a
306.2955	0.09	612591	keystroke	t	n/a
306.4015	0.179	612803	keystroke	i	n/a
306.5355	0.1355	613071	keystroke	o	n/a
306.626	0.1655	613252	keystroke	n	n/a
306.866	0.09	613732	keystroke	Key.space	n/a
307.4965	0.12	614993	keystroke	n	n/a
307.8715	0.075	615743	keystroke	v	n/a
308.066	0.075	616132	keystroke	i	n/a
308.246	0.0755	616492	keystroke	d	n/a
308.3665	0.089	616733	keystroke	i	n/a
308.801	0.1195	617602	keystroke	a	n/a
309.176	0.105	618352	keystroke	Key.space	n/a
309.701	0.105	619402	keystroke	e	n/a
310.196	0.09	620392	keystroke	Key.backspace	n/a
310.331	0.105	620662	keystroke	a	n/a
310.571	0.12	621142	keystroke	z	n/a
310.9315	0.18	621863	keystroke	e	n/a
311.0515	0.119	622103	keystroke	r	n/a
311.621	0.0895	623242	keystroke	b	n/a
312.0415	0.134	624083	keystroke	a	n/a
312.2955	0.091	624591	keystroke	i	n/a
312.5655	0.1055	625131	keystroke	j	n/a
312.6865	0.1195	625373	keystroke	a	n/a
312.836	0.075	625672	keystroke	n	n/a
314.1115	0.089	628223	keystroke	Key.enter	n/a
314.209	9.3235	628418	prompt	n/a	freelance oracle positioning cardiovascular\n
315.491	0.075	630982	keystroke	f	n/a
315.686	0.09	631372	keystroke	r	n/a
315.761	0.075	631522	keystroke	e	n/a
315.926	0.09	631852	keystroke	e	n/a
316.196	0.09	632392	keystroke	l	n/a
316.286	0.1195	632572	keystroke	a	n/a
316.421	0.0745	632842	keystroke	n	n/a
316.5555	0.076	633111	keystroke	c	n/a
316.7965	0.075	633593	keystroke	e	n/a
316.8855	0.091	633771	keystroke	Key.space	n/a
317.3805	0.091	634761	keystroke	o	n/a
317.4865	0.1045	634973	keystroke	r	n/a
317.6355	0.1205	635271	keystroke	a	n/a
317.921	0.075	635842	keystroke	c	n/a
318.1165	0.105	636233	keystroke	l	n/a
318.2365	0.074	636473	keystroke	e	n/a
318.2955	0.12	636591	keystroke	Key.space	n/a
318.566	0.1355	637132	keystroke	p	n/a
318.7305	0.1355	637461	keystroke	o	n/a
318.926	0.09	637852	keystroke	s	n/a
319.061	0.075	638122	keystroke	i	n/a
319.166	0.09	638332	keystroke	t	n/a
319.271	0.2255	638542	keystroke	i	n/a
319.376	0.165	638752	keystroke	o	n/a
319.481	0.15	638962	keystroke	n	n/a
319.691	0.09	639382	keystroke	s	n/a
319.751	0.12	639502	keystroke	Key.space	n/a
320.1415	0.075	640283	keystroke	c	n/a
320.2315	0.165	640463	keystroke	a	n/a
320.3665	0.075	640733	keystroke	r	n/a
320.5465	0.0895	641093	keystroke	d	n/a
320.681	0.105	641362	keystroke	i	n/a
320.906	0.1355	641812	keystroke	o	n/a
321.132	0.074	642264	keystroke	v	n/a
321.266	0.195	642532	keystroke	a	n/a
321.446	0.12	642892	keystroke	s	n/a
321.7615	0.074	643523	keystroke	c	n/a
322.0015	0.09	644003	keystroke	u	n/a
322.1815	0.1345	644363	keystroke	l	n/a
322.346	0.165	644692	keystroke	a	n/a
322.4965	0.09	644993	keystroke	r	n/a
323.426	0.105	646852	keystroke	Key.enter	n/a
323.535	9.748	647070	prompt	n/a	specialists nike receptor pride\n
325.0165	0.1045	650033	keystroke	s	n/a
325.241	0.0905	650482	keystroke	p	n/a
325.316	0.075	650632	keystroke	e	n/a
325.526	0.09	651052	keystroke	c	n/a
325.631	0.075	651262	keystroke	i	n/a
325.766	0.12	651532	keystroke	a	n/a
325.9155	0.12	651831	keystroke	l	n/a
326.0955	0.075	652191	keystroke	s	n/a
326.1855	0.045	652371	keystroke	i	n/a
326.5905	0.09	653181	keystroke	Key.backspace	n/a
326.771	0.075	653542	keystroke	Key.backspace	n/a
326.891	0.1055	653782	keystroke	i	n/a
327.011	0.1655	654022	keystroke	s	n/a
327.131	0.135	654262	keystroke	t	n/a
327.281	0.1045	654562	keystroke	s	n/a
327.746	0.105	655492	keystroke	Key.space	n/a
328.001	0.075	656002	keystroke	n	n/a
328.181	0.105	656362	keystroke	i	n/a
328.391	0.1355	656782	keystroke	k	n/a
328.541	0.075	657082	keystroke	e	n/a
328.631	0.09	657262	keystroke	Key.space	n/a
328.8255	0.12	657651	keystroke	r	n/a
328.9015	0.089	657803	keystroke	e	n/a
329.141	0.0745	658282	keystroke	c	n/a
329.336	0.1045	658672	keystroke	e	n/a
329.5005	0.076	659001	keystroke	p	n/a
329.6355	0.105	659271	keystroke	t	n/a
329.7555	0.166	659511	keystroke	e	n/a
329.8755	0.151	659751	keystroke	r	n/a
330.041	0.12	660082	keystroke	Key.space	n/a
330.641	0.0895	661282	keystroke	Key.backspace	n/a
330.746	0.075	661492	keystroke	Key.backspace	n/a
330.866	0.105	661732	keystroke	Key.backspace	n/a
331.121	0.09	662242	keystroke	o	n/a
331.571	0.09	663142	keystroke	r	n/a
331.691	0.09	663382	keystroke	Key.space	n/a
332.126	0.075	664252	keystroke	p	n/a
332.216	0.105	664432	keystroke	r	n/a
332.351	0.12	664702	keystroke	i	n/a
332.501	0.0745	665002	keystroke	d	n/a
332.696	0.09	665392	keystroke	e	n/a
333.176	0.105	666352	keystroke	Key.enter	n/a
333.287	7.586	666574	prompt	n/a	morocco observer wealth curtis\n
334.3615	0.1355	668723	keystroke	m	n/a
334.661	0.1205	669322	keystroke	o	n/a
334.9305	0.12	669861	keystroke	r	n/a
335.171	0.1205	670342	keystroke	o	n/a
335.546	0.0745	671092	keystroke	c	n/a
335.7115	0.075	671423	keystroke	c	n/a
335.8615	0.1195	671723	keystroke	o	n/a
336.0255	0.09	672051	keystroke	Key.space	n/a
336.2655	0.1205	672531	keystroke	o	n/a
336.4155	0.09	672831	keystroke	b	n/a
336.641	0.165	673282	keystroke	s	n/a
336.791	0.1505	673582	keystroke	e	n/a
336.881	0.12	673762	keystroke	r	n/a
337.1355	0.076	674271	keystroke	v	n/a
337.3305	0.151	674661	keystroke	e	n/a
337.4205	0.135	674841	keystroke	r	n/a
337.5405	0.09	675081	keystroke	Key.space	n/a
337.81	0.15	675620	keystroke	w	n/a
338.066	0.1355	676132	keystroke	e	n/a
338.141	0.21	676282	keystroke	a	n/a
338.366	0.135	676732	keystroke	l	n/a
338.6655	0.075	677331	keystroke	t	n/a
339.0705	0.09	678141	keystroke	h	n/a
339.431	0.105	678862	keystroke	Key.space	n/a
339.8965	0.105	679793	keystroke	c	n/a
340.076	0.075	680152	keystroke	u	n/a
340.166	0.075	680332	keystroke	r	n/a
340.361	0.075	680722	keystroke	t	n/a
340.436	0.105	680872	keystroke	i	n/a
340.616	0.105	681232	keystroke	s	n/a
340.766	0.1045	681532	keystroke	Key.enter	n/a
340.8775	13.4345	681755	prompt	n/a	mercury wallpapers jennifer nascar\n
341.8155	0.0605	683631	keystroke	m	n/a
341.9055	0.1205	683811	keystroke	e	n/a
341.966	0.1055	683932	keystroke	r	n/a
342.296	0.105	684592	keystroke	c	n/a
342.476	0.0755	684952	keystroke	u	n/a
342.566	0.0745	685132	keystroke	r	n/a
342.8055	0.0755	685611	keystroke	y	n/a
343.0005	0.09	686001	keystroke	Key.space	n/a
343.3905	0.105	686781	keystroke	w	n/a
343.556	0.12	687112	keystroke	a	n/a
343.676	0.075	687352	keystroke	l	n/a
343.871	0.0895	687742	keystroke	l	n/a
344.1855	0.0905	688371	keystroke	p	n/a
344.3355	0.15	688671	keystroke	a	n/a
344.7855	0.1355	689571	keystroke	p	n/a
345.011	0.2405	690022	keystroke	e	n/a
345.041	0.18	690082	keystroke	r	n/a
345.1755	0.1205	690351	keystroke	s	n/a
345.3705	0.1205	690741	keystroke	Key.space	n/a
346.0905	0.0755	692181	keystroke	j	n/a
346.2405	0.09	692481	keystroke	e	n/a
346.3315	0.0895	692663	keystroke	n	n/a
346.571	0.09	693142	keystroke	i	n/a
346.7215	0.074	693443	keystroke	f	n/a
346.901	0.0595	693802	keystroke	f	n/a
347.0355	0.151	694071	keystroke	e	n/a
347.1255	0.135	694251	keystroke	r	n/a
347.2455	0.12	694491	keystroke	Key.space	n/a
347.4855	0.1205	694971	keystroke	n	n/a
347.6205	0.1805	695241	keystroke	a	n/a
347.9355	0.106	695871	keystroke	s	n/a
348.2505	0.105	696501	keystroke	c	n/a
349.5705	0.03	699141	keystroke	Key.backspace	n/a
349.706	0.0595	699412	keystroke	Key.backspace	n/a
349.8555	0.075	699711	keystroke	Key.backspace	n/a
350.0205	0.0605	700041	keystroke	Key.backspace	n/a
350.246	0.135	700492	keystroke	Key.backspace	n/a
350.651	0.089	701302	keystroke	Key.backspace	n/a
350.891	0.134	701782	keystroke	n	n/a
351.085	0.106	702170	keystroke	i	n/a
351.236	0.105	702472	keystroke	f	n/a
351.446	0.134	702892	keystroke	e	n/a
351.536	0.15	703072	keystroke	r	n/a
351.67	0.1355	703340	keystroke	Key.space	n/a
352.0455	0.06	704091	keystroke	Key.space	n/a
352.526	0.105	705052	keystroke	Key.backspace	n/a
352.886	0.045	705772	keystroke	n	n/a
352.961	0.15	705922	keystroke	a	n/a
353.156	0.105	706312	keystroke	s	n/a
353.6505	0.0905	707301	keystroke	c	n/a
353.8755	0.165	707751	keystroke	a	n/a
353.9805	0.1055	707961	keystroke	r	n/a
354.2205	0.09	708441	keystroke	Key.enter	n/a
354.3185	8.0945	708637	prompt	n/a	program came specific brunette\n
355.6155	0.1205	711231	keystroke	p	n/a
355.811	0.075	711622	keystroke	r	n/a
355.886	0.1205	711772	keystroke	o	n/a
356.111	0.075	712222	keystroke	g	n/a
356.291	0.105	712582	keystroke	r	n/a
356.381	0.135	712762	keystroke	a	n/a
356.486	0.105	712972	keystroke	m	n/a
356.9055	0.09	713811	keystroke	Key.space	n/a
357.295	0.076	714590	keystroke	c	n/a
357.461	0.12	714922	keystroke	a	n/a
357.551	0.09	715102	keystroke	m	n/a
357.686	0.09	715372	keystroke	e	n/a
357.836	0.09	715672	keystroke	Key.space	n/a
358.495	0.076	716990	keystroke	s	n/a
358.661	0.089	717322	keystroke	p	n/a
358.765	0.06	717530	keystroke	e	n/a
358.976	0.075	717952	keystroke	c	n/a
359.125	0.0905	718250	keystroke	i	n/a
359.231	0.0595	718462	keystroke	f	n/a
359.3505	0.09	718701	keystroke	i	n/a
359.4705	0.075	718941	keystroke	c	n/a
359.5905	0.12	719181	keystroke	Key.space	n/a
360.145	0.061	720290	keystroke	b	n/a
360.3255	0.1045	720651	keystroke	r	n/a
360.446	0.105	720892	keystroke	u	n/a
360.686	0.15	721372	keystroke	i	n/a
361.106	0.105	722212	keystroke	Key.backspace	n/a
361.301	0.105	722602	keystroke	n	n/a
361.391	0.09	722782	keystroke	e	n/a
361.706	0.06	723412	keystroke	t	n/a
361.856	0.09	723712	keystroke	t	n/a
362.0055	0.09	724011	keystroke	e	n/a
362.321	0.09	724642	keystroke	Key.enter	n/a
362.417	13.75	724834	prompt	n/a	recipients legitimate delay aluminum\n
363.086	0.1345	726172	keystroke	r	n/a
363.176	0.1195	726352	keystroke	e	n/a
363.4905	0.075	726981	keystroke	c	n/a
363.6105	0.09	727221	keystroke	i	n/a
363.956	0.135	727912	keystroke	p	n/a
364.151	0.1045	728302	keystroke	i	n/a
364.3155	0.06	728631	keystroke	t	n/a
364.376	0.1045	728752	keystroke	i	n/a
364.5405	0.09	729081	keystroke	e	n/a
364.6455	0.135	729291	keystroke	n	n/a
364.7955	0.075	729591	keystroke	t	n/a
365.335	0.091	730670	keystroke	Key.backspace	n/a
365.605	0.015	731210	keystroke	Key.backspace	n/a
365.665	0.075	731330	keystroke	Key.backspace	n/a
365.815	0.09	731630	keystroke	Key.backspace	n/a
366.4905	0.0905	732981	keystroke	Key.backspace	n/a
367.031	0.0595	734062	keystroke	e	n/a
367.106	0.09	734212	keystroke	n	n/a
367.2405	0.0755	734481	keystroke	t	n/a
367.3755	0.105	734751	keystroke	s	n/a
367.5705	0.075	735141	keystroke	Key.space	n/a
368.2005	0.1355	736401	keystroke	l	n/a
368.396	0.09	736792	keystroke	e	n/a
368.546	0.104	737092	keystroke	g	n/a
368.681	0.09	737362	keystroke	i	n/a
368.861	0.09	737722	keystroke	t	n/a
369.011	0.1045	738022	keystroke	i	n/a
370.855	0.106	741710	keystroke	m	n/a
370.975	0.151	741950	keystroke	a	n/a
372.056	0.1045	744112	keystroke	t	n/a
372.3855	0.105	744771	keystroke	e	n/a
372.656	0.0905	745312	keystroke	Key.space	n/a
373.195	0.076	746390	keystroke	d	n/a
373.391	0.09	746782	keystroke	e	n/a
373.496	0.075	746992	keystroke	l	n/a
373.586	0.1495	747172	keystroke	a	n/a
373.7955	0.0755	747591	keystroke	y	n/a
373.9155	0.105	747831	keystroke	Key.space	n/a
374.2905	0.1055	748581	keystroke	a	n/a
374.396	0.12	748792	keystroke	l	n/a
374.5905	0.09	749181	keystroke	u	n/a
374.8305	0.1355	749661	keystroke	m	n/a
375.056	0.18	750112	keystroke	i	n/a
375.236	0.1345	750472	keystroke	n	n/a
375.551	0.105	751102	keystroke	u	n/a
375.7905	0.1205	751581	keystroke	m	n/a
376.0905	0.075	752181	keystroke	Key.enter	n/a
376.171	6.0875	752342	prompt	n/a	comments taxes population flux\n
376.766	0.119	753532	keystroke	c	n/a
376.871	0.135	753742	keystroke	o	n/a
376.991	0.075	753982	keystroke	m	n/a
377.17	0.09	754340	keystroke	m	n/a
377.29	0.121	754580	keystroke	e	n/a
377.425	0.091	754850	keystroke	n	n/a
377.485	0.106	754970	keystroke	t	n/a
377.6505	0.1205	755301	keystroke	s	n/a
377.74	0.12	755480	keystroke	Key.space	n/a
378.19	0.09	756380	keystroke	t	n/a
378.325	0.105	756650	keystroke	a	n/a
378.5505	0.0905	757101	keystroke	x	n/a
378.8205	0.105	757641	keystroke	e	n/a
379.015	0.105	758030	keystroke	s	n/a
379.24	0.091	758480	keystroke	Key.space	n/a
379.541	0.1045	759082	keystroke	p	n/a
379.736	0.165	759472	keystroke	o	n/a
380.0655	0.1795	760131	keystroke	p	n/a
380.335	0.121	760670	keystroke	u	n/a
380.5755	0.1055	761151	keystroke	l	n/a
380.666	0.165	761332	keystroke	a	n/a
380.786	0.1195	761572	keystroke	t	n/a
380.8605	0.1955	761721	keystroke	i	n/a
380.9355	0.1355	761871	keystroke	o	n/a
381.041	0.12	762082	keystroke	n	n/a
381.1305	0.1055	762261	keystroke	Key.space	n/a
381.296	0.0905	762592	keystroke	f	n/a
381.4165	0.1645	762833	keystroke	l	n/a
381.5655	0.12	763131	keystroke	u	n/a
381.716	0.09	763432	keystroke	x	n/a
382.181	0.074	764362	keystroke	Key.enter	n/a
382.2635	6.669	764527	prompt	n/a	location limited length answering\n
382.991	0.104	765982	keystroke	l	n/a
383.231	0.1045	766462	keystroke	o	n/a
383.6205	0.06	767241	keystroke	c	n/a
383.786	0.1645	767572	keystroke	a	n/a
383.9055	0.1055	767811	keystroke	t	n/a
383.9805	0.195	767961	keystroke	i	n/a
384.0705	0.15	768141	keystroke	o	n/a
384.1765	0.119	768353	keystroke	n	n/a
384.311	0.1045	768622	keystroke	Key.space	n/a
384.491	0.2245	768982	keystroke	l	n/a
384.626	0.135	769252	keystroke	i	n/a
384.7305	0.195	769461	keystroke	m	n/a
384.8955	0.1055	769791	keystroke	i	n/a
385.0605	0.0905	770121	keystroke	t	n/a
385.166	0.1195	770332	keystroke	e	n/a
385.466	0.1045	770932	keystroke	d	n/a
385.616	0.1195	771232	keystroke	Key.space	n/a
385.811	0.1205	771622	keystroke	l	n/a
385.9155	0.0905	771831	keystroke	e	n/a
386.05	0.1055	772100	keystroke	n	n/a
386.171	0.075	772342	keystroke	g	n/a
386.381	0.1195	772762	keystroke	t	n/a
386.696	0.104	773392	keystroke	h	n/a
386.921	0.104	773842	keystroke	Key.space	n/a
387.2505	0.135	774501	keystroke	a	n/a
387.37	0.136	774740	keystroke	n	n/a
387.521	0.089	775042	keystroke	s	n/a
387.7605	0.15	775521	keystroke	w	n/a
387.8805	0.1955	775761	keystroke	e	n/a
388.0455	0.1355	776091	keystroke	r	n/a
388.241	0.165	776482	keystroke	i	n/a
388.361	0.18	776722	keystroke	n	n/a
388.571	0.104	777142	keystroke	g	n/a
388.8105	0.1205	777621	keystroke	Key.enter	n/a
388.9365	7.9905	777873	prompt	n/a	community concrete get connectors\n
389.5905	0.06	779181	keystroke	c	n/a
389.6205	0.1355	779241	keystroke	o	n/a
389.7405	0.0905	779481	keystroke	m	n/a
389.9365	0.0745	779873	keystroke	m	n/a
390.1455	0.0755	780291	keystroke	u	n/a
390.326	0.1195	780652	keystroke	n	n/a
390.4155	0.135	780831	keystroke	i	n/a
390.5355	0.0755	781071	keystroke	t	n/a
390.7	0.105	781400	keystroke	y	n/a
390.7905	0.1045	781581	keystroke	Key.space	n/a
391.0155	0.1205	782031	keystroke	Key.space	n/a
391.766	0.09	783532	keystroke	Key.backspace	n/a
392.021	0.09	784042	keystroke	c	n/a
392.156	0.135	784312	keystroke	o	n/a
392.261	0.12	784522	keystroke	n	n/a
392.561	0.06	785122	keystroke	c	n/a
392.7405	0.12	785481	keystroke	r	n/a
392.8315	0.104	785663	keystroke	e	n/a
393.0415	0.149	786083	keystroke	e	n/a
393.491	0.0895	786982	keystroke	Key.backspace	n/a
393.6265	0.119	787253	keystroke	t	n/a
393.7305	0.09	787461	keystroke	e	n/a
394	0.091	788000	keystroke	Key.space	n/a
394.3755	0.061	788751	keystroke	g	n/a
394.6	0.166	789200	keystroke	e	n/a
394.7805	0.1055	789561	keystroke	t	n/a
394.9005	0.09	789801	keystroke	Key.space	n/a
395.141	0.0895	790282	keystroke	c	n/a
395.2455	0.105	790491	keystroke	o	n/a
395.3355	0.0755	790671	keystroke	n	n/a
395.4855	0.0895	790971	keystroke	n	n/a
395.7855	0.0745	791571	keystroke	e	n/a
395.9955	0.0745	791991	keystroke	c	n/a
396.1755	0.1055	792351	keystroke	t	n/a
396.325	0.09	792650	keystroke	o	n/a
396.43	0.1205	792860	keystroke	r	n/a
396.5205	0.1355	793041	keystroke	s	n/a
396.8055	0.12	793611	keystroke	Key.enter	n/a
396.931	6.1165	793862	prompt	n/a	cooking talented angry as\n
397.526	0.09	795052	keystroke	c	n/a
397.631	0.075	795262	keystroke	o	n/a
397.795	0.106	795590	keystroke	o	n/a
398.0055	0.09	796011	keystroke	k	n/a
398.2	0.105	796400	keystroke	i	n/a
398.29	0.105	796580	keystroke	n	n/a
398.3805	0.1205	796761	keystroke	g	n/a
398.4555	0.2245	796911	keystroke	Key.space	n/a
398.651	0.09	797302	keystroke	t	n/a
398.755	0.15	797510	keystroke	a	n/a
398.906	0.075	797812	keystroke	l	n/a
398.995	0.091	797990	keystroke	e	n/a
399.146	0.089	798292	keystroke	n	n/a
399.236	0.104	798472	keystroke	t	n/a
399.356	0.09	798712	keystroke	e	n/a
399.7005	0.12	799401	keystroke	Key.space	n/a
400.2855	0.075	800571	keystroke	Key.backspace	n/a
400.556	0.105	801112	keystroke	d	n/a
400.751	0.105	801502	keystroke	Key.space	n/a
400.976	0.12	801952	keystroke	a	n/a
401.066	0.105	802132	keystroke	n	n/a
401.201	0.09	802402	keystroke	g	n/a
401.411	0.09	802822	keystroke	r	n/a
401.576	0.075	803152	keystroke	y	n/a
402.476	0.1195	804952	keystroke	Key.space	n/a
402.581	0.165	805162	keystroke	a	n/a
402.731	0.12	805462	keystroke	s	n/a
402.9405	0.105	805881	keystroke	Key.enter	n/a
403.052	9.701	806104	prompt	n/a	asin copies extraction springfield\n
403.8255	0.1505	807651	keystroke	a	n/a
404.0355	0.105	808071	keystroke	s	n/a
404.2605	0.12	808521	keystroke	i	n/a
404.3655	0.1195	808731	keystroke	n	n/a
404.5005	0.1645	809001	keystroke	Key.space	n/a
404.8305	0.075	809661	keystroke	c	n/a
404.9205	0.18	809841	keystroke	o	n/a
405.0705	0.15	810141	keystroke	p	n/a
405.5355	0.12	811071	keystroke	i	n/a
405.8505	0.1355	811701	keystroke	e	n/a
405.9555	0.135	811911	keystroke	s	n/a
406.106	0.1045	812212	keystroke	Key.space	n/a
406.331	0.075	812662	keystroke	e	n/a
406.5705	0.0905	813141	keystroke	x	n/a
406.8105	0.075	813621	keystroke	t	n/a
406.9755	0.12	813951	keystroke	r	n/a
407.0805	0.1655	814161	keystroke	a	n/a
407.381	0.0745	814762	keystroke	c	n/a
407.5905	0.105	815181	keystroke	t	n/a
407.7105	0.2095	815421	keystroke	i	n/a
407.801	0.134	815602	keystroke	o	n/a
407.906	0.149	815812	keystroke	n	n/a
408.041	0.1045	816082	keystroke	Key.space	n/a
408.205	0.09	816410	keystroke	s	n/a
408.401	0.105	816802	keystroke	p	n/a
408.5355	0.09	817071	keystroke	r	n/a
408.6705	0.1355	817341	keystroke	i	n/a
408.7905	0.1055	817581	keystroke	n	n/a
408.9855	0.075	817971	keystroke	g	n/a
409.27	0.075	818540	keystroke	l	n/a
409.9	0.106	819800	keystroke	Key.backspace	n/a
410.2755	0.0905	820551	keystroke	g	n/a
411.2955	0.09	822591	keystroke	Key.backspace	n/a
411.5355	0.09	823071	keystroke	f	n/a
411.701	0.075	823402	keystroke	i	n/a
411.8805	0.0745	823761	keystroke	e	n/a
412.016	0.104	824032	keystroke	l	n/a
412.271	0.0905	824542	keystroke	d	n/a
412.661	0.09	825322	keystroke	Key.enter	n/a
412.7575	7.96	825515	prompt	n/a	highlights parties power robust\n
414.58	0.1055	829160	keystroke	h	n/a
414.76	0.12	829520	keystroke	i	n/a
414.91	0.091	829820	keystroke	g	n/a
415.015	0.105	830030	keystroke	h	n/a
415.24	0.1505	830480	keystroke	l	n/a
415.376	0.119	830752	keystroke	i	n/a
415.555	0.09	831110	keystroke	g	n/a
415.6605	0.1195	831321	keystroke	h	n/a
416.0805	0.09	832161	keystroke	t	n/a
416.2905	0.1205	832581	keystroke	s	n/a
416.516	0.0895	833032	keystroke	Key.space	n/a
417.0855	0.09	834171	keystroke	p	n/a
417.1755	0.135	834351	keystroke	a	n/a
417.2655	0.0755	834531	keystroke	r	n/a
417.4605	0.09	834921	keystroke	t	n/a
417.521	0.075	835042	keystroke	i	n/a
417.6705	0.135	835341	keystroke	e	n/a
417.7605	0.135	835521	keystroke	s	n/a
417.9255	0.135	835851	keystroke	Key.space	n/a
418.4805	0.09	836961	keystroke	p	n/a
418.6155	0.165	837231	keystroke	o	n/a
418.7205	0.165	837441	keystroke	w	n/a
418.8105	0.195	837621	keystroke	e	n/a
418.9305	0.105	837861	keystroke	r	n/a
419.1405	0.105	838281	keystroke	Key.space	n/a
419.4705	0.0905	838941	keystroke	r	n/a
419.7705	0.151	839541	keystroke	o	n/a
419.966	0.075	839932	keystroke	b	n/a
420.101	0.09	840202	keystroke	u	n/a
420.281	0.135	840562	keystroke	s	n/a
420.431	0.1195	840862	keystroke	t	n/a
420.6105	0.105	841221	keystroke	Key.enter	n/a
420.7205	6.3565	841441	prompt	n/a	dream mine server discussion\n
421.331	0.09	842662	keystroke	f	n/a
421.7955	0.105	843591	keystroke	Key.backspace	n/a
421.9455	0.12	843891	keystroke	d	n/a
422.1405	0.12	844281	keystroke	r	n/a
422.2155	0.135	844431	keystroke	e	n/a
422.3055	0.15	844611	keystroke	a	n/a
422.4255	0.12	844851	keystroke	m	n/a
422.5605	0.12	845121	keystroke	Key.space	n/a
423.131	0.044	846262	keystroke	m	n/a
423.1455	0.15	846291	keystroke	i	n/a
423.28	0.1355	846560	keystroke	n	n/a
423.4305	0.105	846861	keystroke	e	n/a
423.5205	0.1345	847041	keystroke	Key.space	n/a
424.091	0.06	848182	keystroke	s	n/a
424.301	0.15	848602	keystroke	e	n/a
424.421	0.09	848842	keystroke	r	n/a
424.6305	0.06	849261	keystroke	v	n/a
424.7955	0.1645	849591	keystroke	e	n/a
424.901	0.119	849802	keystroke	r	n/a
425.035	0.1505	850070	keystroke	Key.space	n/a
425.5305	0.105	851061	keystroke	d	n/a
425.666	0.09	851332	keystroke	i	n/a
425.8005	0.075	851601	keystroke	s	n/a
425.9805	0.09	851961	keystroke	c	n/a
426.1005	0.075	852201	keystroke	u	n/a
426.2355	0.0755	852471	keystroke	s	n/a
426.4155	0.075	852831	keystroke	s	n/a
426.491	0.2095	852982	keystroke	i	n/a
426.5805	0.1345	853161	keystroke	o	n/a
426.67	0.15	853340	keystroke	n	n/a
427.0005	0.075	854001	keystroke	Key.enter	n/a
427.0815	21.2505	854163	prompt	n/a	critics refrigerator sbjct transparency\n
427.991	0.06	855982	keystroke	c	n/a
428.2155	0.075	856431	keystroke	r	n/a
428.3505	0.075	856701	keystroke	i	n/a
428.471	0.0745	856942	keystroke	t	n/a
428.56	0.0905	857120	keystroke	i	n/a
428.696	0.104	857392	keystroke	s	n/a
428.86	0.09	857720	keystroke	Key.space	n/a
429.37	0.1205	858740	keystroke	r	n/a
429.4605	0.1355	858921	keystroke	e	n/a
429.7605	0.105	859521	keystroke	f	n/a
430.0005	0.135	860001	keystroke	r	n/a
430.3155	0.0905	860631	keystroke	i	n/a
430.6005	0.075	861201	keystroke	g	n/a
430.7805	0.15	861561	keystroke	e	n/a
430.9005	0.09	861801	keystroke	r	n/a
431.0505	0.21	862101	keystroke	a	n/a
431.246	0.12	862492	keystroke	t	n/a
431.456	0.09	862912	keystroke	o	n/a
431.6955	0.135	863391	keystroke	r	n/a
431.9055	0.09	863811	keystroke	Key.space	n/a
433.3605	0.135	866721	keystroke	Key.backspace	n/a
433.57	0.1055	867140	keystroke	Key.backspace	n/a
433.7355	0.09	867471	keystroke	Key.backspace	n/a
433.9005	0.075	867801	keystroke	Key.backspace	n/a
434.0505	0.075	868101	keystroke	Key.backspace	n/a
434.2005	0.0595	868401	keystroke	Key.backspace	n/a
434.35	0.0755	868700	keystroke	Key.backspace	n/a
434.5155	0.0745	869031	keystroke	Key.backspace	n/a
434.755	0.016	869510	keystroke	Key.backspace	n/a
434.8305	0.075	869661	keystroke	Key.backspace	n/a
435.01	0.0605	870020	keystroke	Key.backspace	n/a
435.175	0.0605	870350	keystroke	Key.backspace	n/a
435.3555	0.09	870711	keystroke	Key.backspace	n/a
435.7	0.075	871400	keystroke	Key.backspace	n/a
436.165	0.0755	872330	keystroke	Key.backspace	n/a
436.4205	0.0595	872841	keystroke	c	n/a
436.615	0.0755	873230	keystroke	s	n/a
436.765	0.09	873530	keystroke	Key.space	n/a
437.89	0.09	875780	keystroke	r	n/a
438.025	0.106	876050	keystroke	e	n/a
438.22	0.075	876440	keystroke	f	n/a
438.415	0.1055	876830	keystroke	r	n/a
438.611	0.105	877222	keystroke	i	n/a
438.88	0.09	877760	keystroke	g	n/a
439.12	0.1505	878240	keystroke	e	n/a
439.226	0.119	878452	keystroke	r	n/a
439.406	0.18	878812	keystroke	a	n/a
439.555	0.15	879110	keystroke	t	n/a
439.691	0.075	879382	keystroke	i	n/a
439.75	0.1505	879500	keystroke	o	n/a
440.1405	0.09	880281	keystroke	Key.backspace	n/a
440.29	0.09	880580	keystroke	Key.backspace	n/a
440.4855	0.105	880971	keystroke	o	n/a
440.605	0.091	881210	keystroke	r	n/a
440.681	0.104	881362	keystroke	Key.space	n/a
441.101	0.119	882202	keystroke	s	n/a
441.551	0.105	883102	keystroke	b	n/a
441.985	0.12	883970	keystroke	j	n/a
442.51	0.0905	885020	keystroke	c	n/a
442.885	0.12	885770	keystroke	t	n/a
443.6955	0.09	887391	keystroke	Key.space	n/a
444.161	0.09	888322	keystroke	t	n/a
444.326	0.12	888652	keystroke	r	n/a
444.416	0.165	888832	keystroke	a	n/a
444.565	0.1355	889130	keystroke	n	n/a
444.716	0.0895	889432	keystroke	s	n/a
445.466	0.0745	890932	keystroke	p	n/a
445.5705	0.181	891141	keystroke	a	n/a
445.721	0.1045	891442	keystroke	r	n/a
446.081	0.135	892162	keystroke	e	n/a
446.261	0.1045	892522	keystroke	n	n/a
446.561	0.119	893122	keystroke	c	n/a
446.8005	0.0755	893601	keystroke	y	n/a
448.2105	0.12	896421	keystroke	Key.enter	n/a
448.335	5.7425	896670	prompt	n/a	says cleared sorry 'twas\n
448.9605	0.0905	897921	keystroke	s	n/a
449.155	0.105	898310	keystroke	a	n/a
449.321	0.06	898642	keystroke	y	n/a
449.396	0.09	898792	keystroke	s	n/a
449.5	0.1055	899000	keystroke	Key.space	n/a
449.786	0.06	899572	keystroke	c	n/a
449.905	0.1205	899810	keystroke	l	n/a
450.0255	0.15	900051	keystroke	e	n/a
450.0995	0.1365	900199	keystroke	a	n/a
450.145	0.181	900290	keystroke	r	n/a
450.296	0.1045	900592	keystroke	e	n/a
450.7905	0.105	901581	keystroke	d	n/a
451.0155	0.12	902031	keystroke	Key.space	n/a
451.2855	0.1055	902571	keystroke	s	n/a
451.405	0.106	902810	keystroke	o	n/a
451.556	0.075	903112	keystroke	r	n/a
451.706	0.09	903412	keystroke	r	n/a
451.841	0.089	903682	keystroke	y	n/a
451.976	0.104	903952	keystroke	Key.space	n/a
452.7705	0.119	905541	keystroke	'	n/a
453.1745	0.091	906349	keystroke	t	n/a
453.371	0.0895	906742	keystroke	w	n/a
453.5355	0.15	907071	keystroke	a	n/a
453.6555	0.12	907311	keystroke	s	n/a
453.9855	0.0895	907971	keystroke	Key.enter	n/a
454.0815	7.8855	908163	prompt	n/a	dried solving canadian layers\n
454.6605	0.12	909321	keystroke	d	n/a
454.8855	0.1205	909771	keystroke	r	n/a
454.9455	0.09	909891	keystroke	e	n/a
455.395	0.1055	910790	keystroke	Key.backspace	n/a
455.56	0.105	911120	keystroke	i	n/a
455.695	0.06	911390	keystroke	e	n/a
455.8755	0.12	911751	keystroke	d	n/a
456.0695	0.106	912139	keystroke	Key.space	n/a
456.4	0.0905	912800	keystroke	s	n/a
456.505	0.091	913010	keystroke	o	n/a
456.715	0.1805	913430	keystroke	l	n/a
456.941	0.0445	913882	keystroke	i	n/a
457.076	0.0595	914152	keystroke	v	n/a
457.555	0.075	915110	keystroke	Key.backspace	n/a
457.705	0.09	915410	keystroke	Key.backspace	n/a
457.81	0.075	915620	keystroke	v	n/a
457.9	0.1205	915800	keystroke	i	n/a
458.006	0.1045	916012	keystroke	n	n/a
458.1255	0.1355	916251	keystroke	g	n/a
458.2455	0.1495	916491	keystroke	Key.space	n/a
458.785	0.09	917570	keystroke	c	n/a
458.921	0.119	917842	keystroke	a	n/a
459.0105	0.1045	918021	keystroke	n	n/a
459.13	0.1505	918260	keystroke	a	n/a
459.535	0.105	919070	keystroke	d	n/a
460	0.061	920000	keystroke	i	n/a
460.091	0.1195	920182	keystroke	a	n/a
460.27	0.105	920540	keystroke	n	n/a
460.5405	0.1045	921081	keystroke	Key.space	n/a
460.8545	0.091	921709	keystroke	l	n/a
460.9295	0.1215	921859	keystroke	a	n/a
461.171	0.0745	922342	keystroke	y	n/a
461.2755	0.24	922551	keystroke	e	n/a
461.3645	0.135	922729	keystroke	r	n/a
461.471	0.104	922942	keystroke	s	n/a
461.86	0.1045	923720	keystroke	Key.enter	n/a
461.9745	9.4725	923949	prompt	n/a	pupils domains richardson matthew\n
462.7	0.106	925400	keystroke	p	n/a
462.925	0.135	925850	keystroke	u	n/a
463.1955	0.1195	926391	keystroke	p	n/a
463.4955	0.1055	926991	keystroke	i	n/a
463.7205	0.12	927441	keystroke	l	n/a
463.991	0.1195	927982	keystroke	s	n/a
464.095	0.1355	928190	keystroke	Key.space	n/a
464.3055	0.105	928611	keystroke	d	n/a
464.4405	0.135	928881	keystroke	o	n/a
464.5455	0.119	929091	keystroke	m	n/a
464.681	0.1195	929362	keystroke	a	n/a
464.831	0.1185	929662	keystroke	i	n/a
464.935	0.1205	929870	keystroke	n	n/a
465.1455	0.1205	930291	keystroke	s	n/a
465.2345	0.151	930469	keystroke	Key.space	n/a
466.1055	0.0905	932211	keystroke	r	n/a
466.2255	0.105	932451	keystroke	i	n/a
466.4505	0.075	932901	keystroke	c	n/a
466.5705	0.09	933141	keystroke	h	n/a
466.676	0.165	933352	keystroke	a	n/a
466.781	0.104	933562	keystroke	r	n/a
466.9755	0.0895	933951	keystroke	d	n/a
467.1555	0.09	934311	keystroke	s	n/a
467.366	0.1495	934732	keystroke	o	n/a
467.4705	0.1495	934941	keystroke	n	n/a
467.8155	0.105	935631	keystroke	Key.space	n/a
468.0855	0.12	936171	keystroke	m	n/a
468.1905	0.135	936381	keystroke	a	n/a
468.3105	0.075	936621	keystroke	t	n/a
468.476	0.0895	936952	keystroke	t	n/a
468.656	0.074	937312	keystroke	h	n/a
468.91	0.18	937820	keystroke	e	n/a
469.03	0.1505	938060	keystroke	w	n/a
471.4015	0.044	942803	keystroke	Key.enter	n/a
471.4505	12.462	942901	prompt	n/a	contrast html subsidiaries considerable\n
472.301	0.074	944602	keystroke	c	n/a
472.376	0.105	944752	keystroke	o	n/a
472.57	0.121	945140	keystroke	n	n/a
472.691	0.075	945382	keystroke	t	n/a
472.855	0.1205	945710	keystroke	r	n/a
472.9605	0.134	945921	keystroke	a	n/a
473.215	0.0605	946430	keystroke	x	n/a
473.6805	0.089	947361	keystroke	Key.backspace	n/a
473.8155	0.0605	947631	keystroke	c	n/a
474.28	0.0905	948560	keystroke	Key.backspace	n/a
474.401	0.1645	948802	keystroke	s	n/a
474.5795	0.106	949159	keystroke	t	n/a
474.7605	0.105	949521	keystroke	Key.space	n/a
475.496	0.0895	950992	keystroke	h	n/a
475.7955	0.09	951591	keystroke	t	n/a
476.0055	0.135	952011	keystroke	m	n/a
476.336	0.1195	952672	keystroke	l	n/a
476.4705	0.12	952941	keystroke	Key.space	n/a
476.7555	0.075	953511	keystroke	s	n/a
476.966	0.0895	953932	keystroke	u	n/a
477.1005	0.075	954201	keystroke	b	n/a
477.52	0.0605	955040	keystroke	m	n/a
477.94	0.1055	955880	keystroke	Key.backspace	n/a
478.105	0.075	956210	keystroke	s	n/a
478.2105	0.1045	956421	keystroke	i	n/a
478.6145	0.0755	957229	keystroke	d	n/a
478.81	0.09	957620	keystroke	i	n/a
478.975	0.136	957950	keystroke	a	n/a
479.275	0.0895	958550	keystroke	r	n/a
479.44	0.105	958880	keystroke	i	n/a
479.59	0.135	959180	keystroke	e	n/a
479.695	0.12	959390	keystroke	s	n/a
480.0105	0.0745	960021	keystroke	Key.space	n/a
480.446	0.0745	960892	keystroke	c	n/a
480.565	0.0755	961130	keystroke	o	n/a
480.6255	0.105	961251	keystroke	n	n/a
480.7005	0.0905	961401	keystroke	s	n/a
480.851	0.089	961702	keystroke	i	n/a
480.925	0.0905	961850	keystroke	d	n/a
481.1205	0.135	962241	keystroke	e	n/a
481.226	0.105	962452	keystroke	r	n/a
481.375	0.1655	962750	keystroke	a	n/a
481.5105	0.1195	963021	keystroke	t	n/a
482.1405	0.089	964281	keystroke	Key.backspace	n/a
482.2905	0.0745	964581	keystroke	b	n/a
482.41	0.136	964820	keystroke	l	n/a
482.53	0.09	965060	keystroke	e	n/a
483.805	0.105	967610	keystroke	Key.enter	n/a
483.917	9.475	967834	prompt	n/a	nodes physically prozac communication\n
484.7205	0.1195	969441	keystroke	n	n/a
484.8255	0.105	969651	keystroke	o	n/a
485.1255	0.075	970251	keystroke	d	n/a
485.3205	0.165	970641	keystroke	e	n/a
485.4255	0.1195	970851	keystroke	s	n/a
485.605	0.09	971210	keystroke	Key.space	n/a
485.92	0.135	971840	keystroke	p	n/a
486.13	0.075	972260	keystroke	h	n/a
486.3405	0.075	972681	keystroke	y	n/a
486.5205	0.0905	973041	keystroke	s	n/a
486.6705	0.09	973341	keystroke	i	n/a
486.7755	0.0595	973551	keystroke	c	n/a
486.895	0.135	973790	keystroke	a	n/a
487.046	0.074	974092	keystroke	l	n/a
487.2255	0.09	974451	keystroke	l	n/a
487.42	0.105	974840	keystroke	y	n/a
487.54	0.1055	975080	keystroke	Key.space	n/a
487.915	0.106	975830	keystroke	p	n/a
488.066	0.0745	976132	keystroke	r	n/a
488.1405	0.12	976281	keystroke	o	n/a
488.3655	0.0905	976731	keystroke	x	n/a
488.71	0.061	977420	keystroke	a	n/a
488.936	0.105	977872	keystroke	z	n/a
489.25	0.09	978500	keystroke	Key.backspace	n/a
489.415	0.0905	978830	keystroke	Key.backspace	n/a
489.5505	0.09	979101	keystroke	Key.backspace	n/a
489.6255	0.12	979251	keystroke	z	n/a
489.851	0.1045	979702	keystroke	a	n/a
490.1205	0.075	980241	keystroke	c	n/a
490.4355	0.09	980871	keystroke	Key.space	n/a
490.9005	0.09	981801	keystroke	c	n/a
490.9755	0.135	981951	keystroke	o	n/a
491.0805	0.09	982161	keystroke	m	n/a
491.2455	0.075	982491	keystroke	m	n/a
491.4405	0.09	982881	keystroke	u	n/a
491.92	0.135	983840	keystroke	n	n/a
492.16	0.0895	984320	keystroke	i	n/a
492.3555	0.074	984711	keystroke	c	n/a
492.6105	0.18	985221	keystroke	a	n/a
492.7605	0.105	985521	keystroke	t	n/a
492.881	0.1795	985762	keystroke	i	n/a
492.9555	0.135	985911	keystroke	o	n/a
493.0305	0.1655	986061	keystroke	n	n/a
493.2855	0.105	986571	keystroke	Key.enter	n/a
493.397	6.49	986794	prompt	n/a	dive limiting compared greatly\n
494.051	0.0895	988102	keystroke	d	n/a
494.17	0.105	988340	keystroke	i	n/a
494.29	0.076	988580	keystroke	v	n/a
494.4105	0.0895	988821	keystroke	e	n/a
494.501	0.1045	989002	keystroke	Key.space	n/a
494.785	0.1205	989570	keystroke	l	n/a
494.935	0.105	989870	keystroke	i	n/a
495.055	0.1505	990110	keystroke	m	n/a
495.175	0.1045	990350	keystroke	i	n/a
495.3555	0.09	990711	keystroke	t	n/a
495.505	0.1205	991010	keystroke	i	n/a
495.6555	0.12	991311	keystroke	n	n/a
495.8205	0.12	991641	keystroke	g	n/a
495.9245	0.1055	991849	keystroke	Key.space	n/a
496.2105	0.0595	992421	keystroke	Key.space	n/a
496.705	0.1055	993410	keystroke	Key.backspace	n/a
497.02	0.076	994040	keystroke	c	n/a
497.0805	0.1345	994161	keystroke	o	n/a
497.2	0.1205	994400	keystroke	m	n/a
497.305	0.1205	994610	keystroke	p	n/a
497.441	0.164	994882	keystroke	a	n/a
497.5905	0.09	995181	keystroke	r	n/a
497.7705	0.09	995541	keystroke	e	n/a
498.1905	0.09	996381	keystroke	d	n/a
498.3555	0.12	996711	keystroke	Key.space	n/a
498.6255	0.0745	997251	keystroke	g	n/a
498.805	0.1205	997610	keystroke	r	n/a
498.88	0.1355	997760	keystroke	e	n/a
498.97	0.1805	997940	keystroke	a	n/a
499.1205	0.105	998241	keystroke	t	n/a
499.3155	0.12	998631	keystroke	l	n/a
499.4805	0.09	998961	keystroke	y	n/a
499.7805	0.105	999561	keystroke	Key.enter	n/a
499.89	9.1315	999780	prompt	n/a	widespread seas focuses which\n
500.5455	0.105	1001091	keystroke	w	n/a
500.6955	0.1195	1001391	keystroke	o	n/a
501.175	0.105	1002350	keystroke	Key.backspace	n/a
501.34	0.09	1002680	keystroke	i	n/a
501.4905	0.0745	1002981	keystroke	d	n/a
501.685	0.0905	1003370	keystroke	e	n/a
502.0155	0.09	1004031	keystroke	s	n/a
502.1355	0.09	1004271	keystroke	p	n/a
502.2705	0.105	1004541	keystroke	r	n/a
502.3005	0.149	1004601	keystroke	e	n/a
502.4655	0.1805	1004931	keystroke	a	n/a
502.855	0.0905	1005710	keystroke	d	n/a
503.515	0.1055	1007030	keystroke	Key.space	n/a
503.7105	0.089	1007421	keystroke	s	n/a
503.8905	0.12	1007781	keystroke	e	n/a
503.9955	0.195	1007991	keystroke	a	n/a
504.1755	0.1195	1008351	keystroke	s	n/a
504.4	0.105	1008800	keystroke	Key.space	n/a
504.8655	0.0605	1009731	keystroke	f	n/a
504.97	0.09	1009940	keystroke	o	n/a
505.12	0.09	1010240	keystroke	c	n/a
505.285	0.0905	1010570	keystroke	u	n/a
505.435	0.09	1010870	keystroke	s	n/a
505.585	0.2105	1011170	keystroke	Key.space	n/a
506.2005	0.09	1012401	keystroke	Key.backspace	n/a
506.335	0.106	1012670	keystroke	e	n/a
506.411	0.149	1012822	keystroke	s	n/a
506.561	0.1045	1013122	keystroke	Key.space	n/a
506.8755	0.09	1013751	keystroke	w	n/a
507.025	0.15	1014050	keystroke	h	n/a
507.1305	0.1355	1014261	keystroke	i	n/a
507.4	0.09	1014800	keystroke	c	n/a
507.64	0.12	1015280	keystroke	h	n/a
507.7455	0.089	1015491	keystroke	Key.space	n/a
508.5105	0.09	1017021	keystroke	Key.backspace	n/a
508.9	0.12	1017800	keystroke	Key.enter	n/a
509.025	8.952	1018050	prompt	n/a	complement presented wrong simulations\n
509.711	0.104	1019422	keystroke	c	n/a
509.8005	0.119	1019601	keystroke	o	n/a
509.905	0.195	1019810	keystroke	m	n/a
510.1305	0.1645	1020261	keystroke	p	n/a
510.28	0.1505	1020560	keystroke	l	n/a
510.385	0.1205	1020770	keystroke	e	n/a
510.565	0.0905	1021130	keystroke	m	n/a
510.6105	0.0745	1021221	keystroke	e	n/a
511.346	0.119	1022692	keystroke	n	n/a
511.571	0.089	1023142	keystroke	t	n/a
511.735	0.09	1023470	keystroke	Key.space	n/a
512.186	0.104	1024372	keystroke	p	n/a
512.3055	0.0895	1024611	keystroke	r	n/a
512.41	0.06	1024820	keystroke	o	n/a
512.5005	0.09	1025001	keystroke	e	n/a
512.785	0.075	1025570	keystroke	Key.backspace	n/a
512.9355	0.0895	1025871	keystroke	Key.backspace	n/a
513.085	0.0905	1026170	keystroke	e	n/a
513.2955	0.1195	1026591	keystroke	s	n/a
513.475	0.2105	1026950	keystroke	e	n/a
513.6555	0.12	1027311	keystroke	n	n/a
513.76	0.136	1027520	keystroke	t	n/a
513.866	0.119	1027732	keystroke	e	n/a
514.106	0.119	1028212	keystroke	d	n/a
514.24	0.1205	1028480	keystroke	Key.space	n/a
514.585	0.0905	1029170	keystroke	w	n/a
514.75	0.091	1029500	keystroke	r	n/a
514.946	0.149	1029892	keystroke	o	n/a
515.0805	0.1345	1030161	keystroke	n	n/a
515.245	0.105	1030490	keystroke	g	n/a
515.395	0.1355	1030790	keystroke	Key.space	n/a
515.6805	0.09	1031361	keystroke	s	n/a
515.8155	0.1495	1031631	keystroke	i	n/a
515.935	0.105	1031870	keystroke	m	n/a
516.221	0.089	1032442	keystroke	u	n/a
516.625	0.1055	1033250	keystroke	l	n/a
516.79	0.165	1033580	keystroke	a	n/a
516.925	0.105	1033850	keystroke	t	n/a
517.015	0.166	1034030	keystroke	i	n/a
517.075	0.135	1034150	keystroke	o	n/a
517.165	0.165	1034330	keystroke	n	n/a
517.4505	0.1055	1034901	keystroke	s	n/a
517.8855	0.0895	1035771	keystroke	Key.enter	n/a
517.981	7.286	1035962	prompt	n/a	offensive defined mentioned southern\n
518.6355	0.1045	1037271	keystroke	o	n/a
518.741	0.0745	1037482	keystroke	f	n/a
518.9205	0.075	1037841	keystroke	f	n/a
519.07	0.076	1038140	keystroke	e	n/a
519.1605	0.12	1038321	keystroke	n	n/a
519.31	0.1055	1038620	keystroke	s	n/a
519.46	0.106	1038920	keystroke	i	n/a
519.58	0.0755	1039160	keystroke	v	n/a
519.7445	0.1065	1039489	keystroke	e	n/a
519.8655	0.104	1039731	keystroke	Key.space	n/a
520.181	0.0595	1040362	keystroke	d	n/a
520.3595	0.106	1040719	keystroke	e	n/a
520.4505	0.119	1040901	keystroke	f	n/a
520.63	0.12	1041260	keystroke	i	n/a
520.735	0.12	1041470	keystroke	n	n/a
520.9	0.09	1041800	keystroke	e	n/a
521.1255	0.105	1042251	keystroke	d	n/a
521.2905	0.119	1042581	keystroke	Key.space	n/a
521.681	0.1045	1043362	keystroke	m	n/a
521.7855	0.135	1043571	keystroke	e	n/a
521.9355	0.09	1043871	keystroke	n	n/a
522.041	0.0745	1044082	keystroke	t	n/a
522.205	0.165	1044410	keystroke	i	n/a
522.295	0.181	1044590	keystroke	o	n/a
522.415	0.165	1044830	keystroke	n	n/a
523.12	0.075	1046240	keystroke	e	n/a
523.3305	0.075	1046661	keystroke	d	n/a
523.465	0.1355	1046930	keystroke	Key.space	n/a
523.7805	0.0745	1047561	keystroke	s	n/a
524.065	0.1055	1048130	keystroke	o	n/a
524.185	0.105	1048370	keystroke	u	n/a
524.3955	0.0895	1048791	keystroke	t	n/a
524.515	0.075	1049030	keystroke	h	n/a
524.65	0.15	1049300	keystroke	e	n/a
524.756	0.119	1049512	keystroke	r	n/a
524.92	0.105	1049840	keystroke	n	n/a
525.1595	0.105	1050319	keystroke	Key.enter	n/a
525.2725	9.864	1050545	prompt	n/a	pray canyon students annotation\n
525.9105	0.1205	1051821	keystroke	p	n/a
526.061	0.1045	1052122	keystroke	r	n/a
526.2105	0.1345	1052421	keystroke	a	n/a
526.5105	0.015	1053021	keystroke	x	n/a
527.0355	0.09	1054071	keystroke	Key.backspace	n/a
527.305	0.0755	1054610	keystroke	y	n/a
527.395	0.1045	1054790	keystroke	Key.space	n/a
527.6205	0.075	1055241	keystroke	c	n/a
527.8905	0.135	1055781	keystroke	a	n/a
528.0555	0.135	1056111	keystroke	n	n/a
529.0005	0.119	1058001	keystroke	y	n/a
529.2255	0.165	1058451	keystroke	o	n/a
529.3605	0.12	1058721	keystroke	n	n/a
529.51	0.105	1059020	keystroke	Key.space	n/a
529.9295	0.045	1059859	keystroke	s	n/a
530.0195	0.09	1060039	keystroke	u	n/a
530.0805	0.1055	1060161	keystroke	t	n/a
530.32	0.075	1060640	keystroke	d	n/a
530.41	0.076	1060820	keystroke	i	n/a
530.7855	0.075	1061571	keystroke	Key.backspace	n/a
530.9495	0.0755	1061899	keystroke	Key.backspace	n/a
531.0855	0.119	1062171	keystroke	Key.backspace	n/a
531.2505	0.15	1062501	keystroke	t	n/a
531.5505	0.09	1063101	keystroke	Key.backspace	n/a
531.7155	0.09	1063431	keystroke	Key.backspace	n/a
531.8355	0.09	1063671	keystroke	t	n/a
532.0155	0.075	1064031	keystroke	u	n/a
532.2705	0.075	1064541	keystroke	d	n/a
532.4955	0.09	1064991	keystroke	e	n/a
532.6295	0.1055	1065259	keystroke	n	n/a
532.765	0.075	1065530	keystroke	t	n/a
532.96	0.12	1065920	keystroke	s	n/a
533.2755	0.104	1066551	keystroke	Key.space	n/a
533.5305	0.1045	1067061	keystroke	a	n/a
533.665	0.09	1067330	keystroke	n	n/a
533.845	0.1045	1067690	keystroke	n	n/a
533.9945	0.135	1067989	keystroke	o	n/a
534.2345	0.0755	1068469	keystroke	t	n/a
534.4	0.15	1068800	keystroke	a	n/a
534.49	0.105	1068980	keystroke	t	n/a
534.58	0.21	1069160	keystroke	i	n/a
534.655	0.1505	1069310	keystroke	o	n/a
534.7305	0.1495	1069461	keystroke	n	n/a
535.06	0.075	1070120	keystroke	Key.enter	n/a
535.141	6.3105	1070282	prompt	n/a	sponsors post injury heart\n
535.8245	0.0905	1071649	keystroke	s	n/a
535.885	0.105	1071770	keystroke	p	n/a
536.0645	0.1805	1072129	keystroke	o	n/a
536.2305	0.1345	1072461	keystroke	n	n/a
536.366	0.0745	1072732	keystroke	s	n/a
536.47	0.1205	1072940	keystroke	o	n/a
536.725	0.0905	1073450	keystroke	r	n/a
536.9505	0.0895	1073901	keystroke	s	n/a
537.07	0.1045	1074140	keystroke	Key.space	n/a
537.385	0.09	1074770	keystroke	p	n/a
537.565	0.1205	1075130	keystroke	o	n/a
537.7305	0.15	1075461	keystroke	s	n/a
537.895	0.135	1075790	keystroke	t	n/a
538.075	0.105	1076150	keystroke	Key.space	n/a
538.33	0.0755	1076660	keystroke	j	n/a
538.6895	0.1355	1077379	keystroke	Key.backspace	n/a
538.93	0.105	1077860	keystroke	i	n/a
539.02	0.15	1078040	keystroke	n	n/a
539.305	0.0905	1078610	keystroke	j	n/a
539.545	0.09	1079090	keystroke	u	n/a
539.755	0.0905	1079510	keystroke	r	n/a
539.891	0.089	1079782	keystroke	y	n/a
540.055	0.105	1080110	keystroke	Key.space	n/a
540.4305	0.119	1080861	keystroke	h	n/a
540.5345	0.135	1081069	keystroke	e	n/a
540.625	0.1495	1081250	keystroke	a	n/a
540.7145	0.106	1081429	keystroke	r	n/a
540.9255	0.074	1081851	keystroke	t	n/a
541.375	0.075	1082750	keystroke	Key.enter	n/a
541.4555	9.7615	1082911	prompt	n/a	ncaa sailing earnings insert\n
542.1105	0.12	1084221	keystroke	n	n/a
542.41	0.075	1084820	keystroke	c	n/a
542.6055	0.045	1085211	keystroke	c	n/a
543.0555	0.09	1086111	keystroke	Key.backspace	n/a
543.2655	0.105	1086531	keystroke	a	n/a
543.4605	0.105	1086921	keystroke	a	n/a
543.6695	0.105	1087339	keystroke	Key.space	n/a
543.91	0.0745	1087820	keystroke	s	n/a
544.0895	0.121	1088179	keystroke	a	n/a
544.1945	0.09	1088389	keystroke	i	n/a
544.36	0.2095	1088720	keystroke	l	n/a
544.525	0.1055	1089050	keystroke	i	n/a
544.6305	0.135	1089261	keystroke	n	n/a
544.7505	0.105	1089501	keystroke	g	n/a
544.84	0.1205	1089680	keystroke	Key.space	n/a
544.9905	0.0895	1089981	keystroke	e	n/a
545.1105	0.18	1090221	keystroke	a	n/a
545.2455	0.135	1090491	keystroke	r	n/a
545.3955	0.105	1090791	keystroke	i	n/a
545.4705	0.12	1090941	keystroke	n	n/a
545.7255	0.105	1091451	keystroke	g	n/a
546.655	0.0455	1093310	keystroke	Key.backspace	n/a
546.82	0.0595	1093640	keystroke	Key.backspace	n/a
546.955	0.12	1093910	keystroke	Key.backspace	n/a
547.3	0.12	1094600	keystroke	n	n/a
547.465	0.1055	1094930	keystroke	i	n/a
547.585	0.105	1095170	keystroke	n	n/a
547.78	0.075	1095560	keystroke	g	n/a
548.035	0.09	1096070	keystroke	s	n/a
548.68	0.06	1097360	keystroke	Key.space	n/a
548.92	0.105	1097840	keystroke	i	n/a
549.01	0.135	1098020	keystroke	n	n/a
549.13	0.076	1098260	keystroke	s	n/a
549.3405	0.165	1098681	keystroke	e	n/a
549.475	0.1045	1098950	keystroke	r	n/a
549.7155	0.0895	1099431	keystroke	t	n/a
551.11	0.105	1102220	keystroke	Key.enter	n/a
551.2215	9.28	1102443	prompt	n/a	bosnia subscription compared bennett\n
551.95	0.105	1103900	keystroke	b	n/a
552.2055	0.089	1104411	keystroke	o	n/a
552.385	0.0745	1104770	keystroke	s	n/a
552.5655	0.1645	1105131	keystroke	n	n/a
552.7	0.1055	1105400	keystroke	i	n/a
552.91	0.12	1105820	keystroke	a	n/a
553.181	0.1045	1106362	keystroke	Key.space	n/a
553.495	0.0895	1106990	keystroke	s	n/a
553.7655	0.12	1107531	keystroke	u	n/a
554.125	0.09	1108250	keystroke	b	n/a
554.725	0.075	1109450	keystroke	s	n/a
554.935	0.075	1109870	keystroke	c	n/a
555.146	0.074	1110292	keystroke	r	n/a
555.6255	0.1495	1111251	keystroke	i	n/a
555.79	0.12	1111580	keystroke	p	n/a
556.03	0.075	1112060	keystroke	t	n/a
556.2405	0.2845	1112481	keystroke	i	n/a
556.4055	0.15	1112811	keystroke	o	n/a
556.54	0.1355	1113080	keystroke	n	n/a
556.7205	0.104	1113441	keystroke	Key.space	n/a
557.0055	0.089	1114011	keystroke	c	n/a
557.1255	0.179	1114251	keystroke	o	n/a
557.2445	0.2105	1114489	keystroke	m	n/a
557.3195	0.09	1114639	keystroke	p	n/a
557.5145	0.1355	1115029	keystroke	a	n/a
557.635	0.105	1115270	keystroke	r	n/a
557.8	0.0745	1115600	keystroke	e	n/a
558.31	0.12	1116620	keystroke	d	n/a
558.4445	0.135	1116889	keystroke	Key.space	n/a
558.925	0.0745	1117850	keystroke	b	n/a
559.0445	0.0905	1118089	keystroke	e	n/a
559.1795	0.075	1118359	keystroke	n	n/a
559.3745	0.09	1118749	keystroke	n	n/a
559.585	0.1355	1119170	keystroke	e	n/a
559.7655	0.089	1119531	keystroke	t	n/a
559.9295	0.1055	1119859	keystroke	t	n/a
560.3945	0.105	1120789	keystroke	Key.enter	n/a
560.5055	10.7505	1121011	prompt	n/a	reasonably shelter allen observe\n
561.1005	0.1495	1122201	keystroke	r	n/a
561.2055	0.1345	1122411	keystroke	e	n/a
561.325	0.1805	1122650	keystroke	a	n/a
561.49	0.12	1122980	keystroke	s	n/a
561.625	0.12	1123250	keystroke	o	n/a
561.715	0.1355	1123430	keystroke	n	n/a
561.88	0.105	1123760	keystroke	a	n/a
562.135	0.075	1124270	keystroke	b	n/a
562.285	0.135	1124570	keystroke	l	n/a
562.45	0.075	1124900	keystroke	e	n/a
562.5105	0.12	1125021	keystroke	Key.space	n/a
562.915	0.0595	1125830	keystroke	Key.backspace	n/a
563.0645	0.0755	1126129	keystroke	Key.backspace	n/a
563.3355	0.0895	1126671	keystroke	y	n/a
563.515	0.105	1127030	keystroke	Key.space	n/a
563.95	0.0905	1127900	keystroke	c	n/a
564.07	0.1055	1128140	keystroke	h	n/a
564.2055	0.134	1128411	keystroke	s	n/a
564.7005	0.03	1129401	keystroke	j	n/a
564.7145	0.06	1129429	keystroke	Key.backspace	n/a
564.85	0.0745	1129700	keystroke	Key.backspace	n/a
565	0.0745	1130000	keystroke	Key.backspace	n/a
565.1795	0.045	1130359	keystroke	Key.backspace	n/a
565.2845	0.1055	1130569	keystroke	s	n/a
565.5105	0.09	1131021	keystroke	h	n/a
565.6145	0.09	1131229	keystroke	e	n/a
565.8105	0.1195	1131621	keystroke	l	n/a
565.93	0.0895	1131860	keystroke	t	n/a
566.0645	0.12	1132129	keystroke	e	n/a
566.1555	0.15	1132311	keystroke	r	n/a
566.2895	0.09	1132579	keystroke	Key.space	n/a
566.62	0.135	1133240	keystroke	a	n/a
566.92	0.0905	1133840	keystroke	l	n/a
567.1	0.1495	1134200	keystroke	l	n/a
567.2505	0.104	1134501	keystroke	e	n/a
567.4905	0.12	1134981	keystroke	n	n/a
567.7745	0.105	1135549	keystroke	Key.space	n/a
568.0745	0.136	1136149	keystroke	o	n/a
568.2545	0.0905	1136509	keystroke	b	n/a
568.525	0.0905	1137050	keystroke	v	n/a
569.2895	0.09	1138579	keystroke	Key.backspace	n/a
569.8305	0.075	1139661	keystroke	s	n/a
570.0245	0.1505	1140049	keystroke	e	n/a
570.13	0.1205	1140260	keystroke	r	n/a
570.3855	0.09	1140771	keystroke	v	n/a
570.7	0.0605	1141400	keystroke	e	n/a
571.15	0.105	1142300	keystroke	Key.enter	n/a
571.262	16.12	1142524	prompt	n/a	xhtml drops deutschland worldwide\n
572.185	0.12	1144370	keystroke	x	n/a
572.545	0.09	1145090	keystroke	h	n/a
572.8	0.105	1145600	keystroke	t	n/a
573.0095	0.1505	1146019	keystroke	m	n/a
573.34	0.1355	1146680	keystroke	l	n/a
573.76	0.09	1147520	keystroke	Key.space	n/a
574.2105	0.0895	1148421	keystroke	d	n/a
574.3905	0.104	1148781	keystroke	r	n/a
574.4795	0.181	1148959	keystroke	o	n/a
574.63	0.1505	1149260	keystroke	p	n/a
574.8995	0.135	1149799	keystroke	s	n/a
575.0195	0.105	1150039	keystroke	Key.space	n/a
575.2745	0.075	1150549	keystroke	d	n/a
575.545	0.0755	1151090	keystroke	e	n/a
575.89	0.075	1151780	keystroke	u	n/a
576.19	0.105	1152380	keystroke	t	n/a
576.535	0.0895	1153070	keystroke	s	n/a
576.805	0.09	1153610	keystroke	c	n/a
577.06	0.09	1154120	keystroke	h	n/a
577.405	0.105	1154810	keystroke	l	n/a
577.54	0.1205	1155080	keystroke	a	n/a
577.675	0.105	1155350	keystroke	n	n/a
577.8105	0.0895	1155621	keystroke	d	n/a
577.9605	0.1345	1155921	keystroke	Key.space	n/a
578.11	0.09	1156220	keystroke	w	n/a
578.23	0.135	1156460	keystroke	o	n/a
579.4605	0.119	1158921	keystroke	l	n/a
579.6545	0.09	1159309	keystroke	d	n/a
580.2545	0.106	1160509	keystroke	w	n/a
580.6155	0.15	1161231	keystroke	i	n/a
580.8855	0.06	1161771	keystroke	d	n/a
581.14	0.0905	1162280	keystroke	e	n/a
581.77	0.06	1163540	keystroke	Key.backspace	n/a
581.92	0.09	1163840	keystroke	Key.backspace	n/a
582.07	0.09	1164140	keystroke	Key.backspace	n/a
582.2645	0.03	1164529	keystroke	Key.backspace	n/a
582.3845	0.09	1164769	keystroke	Key.backspace	n/a
582.595	0.045	1165190	keystroke	Key.backspace	n/a
583.045	0.0895	1166090	keystroke	r	n/a
583.5705	0.1345	1167141	keystroke	l	n/a
583.795	0.105	1167590	keystroke	d	n/a
584.08	0.105	1168160	keystroke	Key.space	n/a
584.7555	0.105	1169511	keystroke	w	n/a
585.1	0.075	1170200	keystroke	Key.backspace	n/a
585.28	0.06	1170560	keystroke	Key.backspace	n/a
585.429	0.061	1170858	keystroke	Key.backspace	n/a
585.775	0.09	1171550	keystroke	w	n/a
586.255	0.105	1172510	keystroke	Key.backspace	n/a
586.4345	0.0755	1172869	keystroke	d	n/a
586.7045	0.091	1173409	keystroke	w	n/a
586.825	0.0905	1173650	keystroke	i	n/a
586.9445	0.076	1173889	keystroke	d	n/a
587.1255	0.075	1174251	keystroke	e	n/a
587.2755	0.104	1174551	keystroke	Key.enter	n/a
587.3865	10.255	1174773	prompt	n/a	guestbook guests mesh sentence\n
588.115	0.0755	1176230	keystroke	g	n/a
588.385	0.0755	1176770	keystroke	u	n/a
588.5205	0.1045	1177041	keystroke	e	n/a
588.61	0.195	1177220	keystroke	s	n/a
588.79	0.075	1177580	keystroke	t	n/a
589.0755	0.09	1178151	keystroke	b	n/a
589.18	0.0905	1178360	keystroke	o	n/a
589.3455	0.1195	1178691	keystroke	o	n/a
589.585	0.0895	1179170	keystroke	k	n/a
589.6895	0.1055	1179379	keystroke	Key.space	n/a
590.0805	0.089	1180161	keystroke	u	n/a
590.635	0.12	1181270	keystroke	Key.backspace	n/a
590.92	0.09	1181840	keystroke	g	n/a
591.19	0.105	1182380	keystroke	u	n/a
591.28	0.15	1182560	keystroke	e	n/a
591.37	0.179	1182740	keystroke	s	n/a
591.625	0.1345	1183250	keystroke	t	n/a
591.8805	0.1045	1183761	keystroke	s	n/a
592.09	0.12	1184180	keystroke	Key.space	n/a
592.57	0.165	1185140	keystroke	m	n/a
592.795	0.0445	1185590	keystroke	s	n/a
593.319	0.106	1186638	keystroke	Key.backspace	n/a
593.47	0.1505	1186940	keystroke	e	n/a
593.59	0.1055	1187180	keystroke	s	n/a
593.7405	0.1195	1187481	keystroke	h	n/a
593.905	0.12	1187810	keystroke	Key.space	n/a
594.1	0.15	1188200	keystroke	s	n/a
594.265	0.105	1188530	keystroke	e	n/a
594.3405	0.105	1188681	keystroke	n	n/a
594.4745	0.105	1188949	keystroke	t	n/a
594.5955	0.1495	1189191	keystroke	e	n/a
594.7455	0.1195	1189491	keystroke	n	n/a
594.79	0.135	1189580	keystroke	t	n/a
595.63	0.015	1191260	keystroke	Key.backspace	n/a
596.1545	0.1205	1192309	keystroke	n	n/a
596.635	0.0895	1193270	keystroke	Key.backspace	n/a
596.7995	0.075	1193599	keystroke	c	n/a
597.0245	0.075	1194049	keystroke	e	n/a
597.55	0.09	1195100	keystroke	Key.enter	n/a
597.645	8.2765	1195290	prompt	n/a	rochester modems sticker written\n
598.36	0.09	1196720	keystroke	r	n/a
598.6	0.1045	1197200	keystroke	o	n/a
598.7795	0.075	1197559	keystroke	c	n/a
598.9295	0.09	1197859	keystroke	h	n/a
599.0345	0.18	1198069	keystroke	e	n/a
599.365	0.135	1198730	keystroke	s	n/a
599.515	0.0595	1199030	keystroke	t	n/a
599.65	0.12	1199300	keystroke	e	n/a
599.725	0.135	1199450	keystroke	r	n/a
599.875	0.075	1199750	keystroke	Key.space	n/a
600.1295	0.09	1200259	keystroke	m	n/a
600.2655	0.12	1200531	keystroke	o	n/a
600.4295	0.075	1200859	keystroke	d	n/a
600.625	0.1195	1201250	keystroke	e	n/a
600.6995	0.1355	1201399	keystroke	r	n/a
600.9555	0.104	1201911	keystroke	n	n/a
601.225	0.15	1202450	keystroke	s	n/a
601.57	0.075	1203140	keystroke	Key.space	n/a
601.96	0.105	1203920	keystroke	s	n/a
602.14	0.075	1204280	keystroke	t	n/a
602.275	0.09	1204550	keystroke	i	n/a
