onset	duration	sample	value	key	prompt_text
7.706	11.753	15412	prompt	n/a	the quick brown fox jumps over a lazy dog\n
8.9135	0.043	17827	keystroke_t	t	n/a
8.9715	0.045	17943	keystroke_h	h	n/a
9.0915	0.075	18183	keystroke_e	e	n/a
9.2115	0.075	18423	keystroke_Key.space	Key.space	n/a
9.6015	0.045	19203	keystroke_q	q	n/a
9.782	0.029	19564	keystroke_u	u	n/a
9.9465	0.045	19893	keystroke_i	i	n/a
10.0515	0.075	20103	keystroke_c	c	n/a
10.3365	0.045	20673	keystroke_k	k	n/a
10.5315	0.045	21063	keystroke_Key.space	Key.space	n/a
10.7115	0.06	21423	keystroke_b	b	n/a
10.8615	0.045	21723	keystroke_r	r	n/a
11.1015	0.075	22203	keystroke_o	o	n/a
11.2815	0.06	22563	keystroke_w	w	n/a
11.4465	0.045	22893	keystroke_n	n	n/a
11.6115	0.075	23223	keystroke_Key.space	Key.space	n/a
11.7465	0.06	23493	keystroke_f	f	n/a
11.8815	0.075	23763	keystroke_o	o	n/a
12.2265	0.045	24453	keystroke_x	x	n/a
12.3315	0.075	24663	keystroke_Key.space	Key.space	n/a
12.556	0.0605	25112	keystroke_j	j	n/a
12.7515	0.045	25503	keystroke_u	u	n/a
13.0515	0.075	26103	keystroke_m	m	n/a
13.3065	0.12	26613	keystroke_p	p	n/a
13.4115	0.09	26823	keystroke_i	i	n/a
14.2065	0.09	28413	keystroke_Key.backspace	Key.backspace	n/a
15.0015	0.03	30003	keystroke_s	s	n/a
15.781	0.06	31562	keystroke_Key.space	Key.space	n/a
16.036	0.09	32072	keystroke_o	o	n/a
16.186	0.06	32372	keystroke_v	v	n/a
16.366	0.135	32732	keystroke_e	e	n/a
16.396	0.12	32792	keystroke_r	r	n/a
16.576	0.0905	33152	keystroke_Key.space	Key.space	n/a
16.8165	0.09	33633	keystroke_a	a	n/a
16.9215	0.105	33843	keystroke_Key.space	Key.space	n/a
17.4465	0.075	34893	keystroke_l	l	n/a
17.5515	0.075	35103	keystroke_a	a	n/a
17.7615	0.075	35523	keystroke_z	z	n/a
18.1065	0.075	36213	keystroke_y	y	n/a
18.2415	0.06	36483	keystroke_Key.space	Key.space	n/a
18.6605	0.061	37321	keystroke_d	d	n/a
18.8255	0.091	37651	keystroke_o	o	n/a
18.9755	0.06	37951	keystroke_g	g	n/a
19.3815	0.075	38763	keystroke_Key.enter	Key.enter	n/a
19.463	10.5555	38926	prompt	n/a	crossword methodology already carb\n
20.3265	0.06	40653	keystroke_c	c	n/a
20.5365	0.06	41073	keystroke_r	r	n/a
20.821	0.0745	41642	keystroke_o	o	n/a
21.0165	0.045	42033	keystroke_s	s	n/a
21.1215	0.075	42243	keystroke_s	s	n/a
21.3915	0.06	42783	keystroke_w	w	n/a
21.6615	0.06	43323	keystroke_o	o	n/a
21.8265	0.075	43653	keystroke_r	r	n/a
22.4715	0.09	44943	keystroke_d	d	n/a
22.6365	0.09	45273	keystroke_Key.space	Key.space	n/a
23.2965	0.06	46593	keystroke_m	m	n/a
23.5055	0.061	47011	keystroke_e	e	n/a
23.7455	0.075	47491	keystroke_h	h	n/a
24.1365	0.089	48273	keystroke_Key.backspace	Key.backspace	n/a
24.2705	0.076	48541	keystroke_t	t	n/a
24.4065	0.074	48813	keystroke_h	h	n/a
24.601	0.0905	49202	keystroke_o	o	n/a
24.946	0.045	49892	keystroke_d	d	n/a
25.051	0.075	50102	keystroke_o	o	n/a
25.276	0.09	50552	keystroke_l	l	n/a
25.906	0.045	51812	keystroke_o	o	n/a
26.011	0.06	52022	keystroke_g	g	n/a
26.191	0.075	52382	keystroke_y	y	n/a
26.461	0.06	52922	keystroke_Key.space	Key.space	n/a
27.241	0.105	54482	keystroke_a	a	n/a
27.406	0.105	54812	keystroke_l	l	n/a
27.541	0.15	55082	keystroke_r	r	n/a
27.631	0.105	55262	keystroke_e	e	n/a
27.871	0.135	55742	keystroke_a	a	n/a
27.931	0.105	55862	keystroke_d	d	n/a
28.081	0.09	56162	keystroke_y	y	n/a
28.3365	0.075	56673	keystroke_Key.space	Key.space	n/a
28.7265	0.06	57453	keystroke_c	c	n/a
28.891	0.09	57782	keystroke_a	a	n/a
29.0865	0.059	58173	keystroke_r	r	n/a
29.4615	0.09	58923	keystroke_b	b	n/a
29.9105	0.105	59821	keystroke_Key.enter	Key.enter	n/a
30.0215	11.8165	60043	prompt	n/a	pacific exclusive melbourne speaker\n
31.081	0.06	62162	keystroke_p	p	n/a
31.171	0.06	62342	keystroke_a	a	n/a
31.441	0.06	62882	keystroke_c	c	n/a
31.606	0.075	63212	keystroke_i	i	n/a
31.921	0.06	63842	keystroke_f	f	n/a
32.026	0.075	64052	keystroke_i	i	n/a
32.131	0.105	64262	keystroke_c	c	n/a
32.416	0.06	64832	keystroke_Key.space	Key.space	n/a
32.9255	0.06	65851	keystroke_e	e	n/a
33.1205	0.075	66241	keystroke_x	x	n/a
33.3155	0.045	66631	keystroke_c	c	n/a
33.5405	0.06	67081	keystroke_l	l	n/a
33.7505	0.09	67501	keystroke_u	u	n/a
33.9455	0.061	67891	keystroke_s	s	n/a
34.0505	0.075	68101	keystroke_i	i	n/a
34.2305	0.075	68461	keystroke_v	v	n/a
34.426	0.075	68852	keystroke_e	e	n/a
34.546	0.075	69092	keystroke_Key.space	Key.space	n/a
34.861	0.06	69722	keystroke_m	m	n/a
35.2355	0.06	70471	keystroke_e	e	n/a
35.9865	0.045	71973	keystroke_l	l	n/a
36.3915	0.045	72783	keystroke_b	b	n/a
36.6165	0.105	73233	keystroke_o	o	n/a
36.6765	0.075	73353	keystroke_u	u	n/a
36.8715	0.045	73743	keystroke_r	r	n/a
37.0365	0.0745	74073	keystroke_n	n	n/a
37.231	0.06	74462	keystroke_e	e	n/a
37.486	0.09	74972	keystroke_Key.space	Key.space	n/a
37.951	0.075	75902	keystroke_s	s	n/a
38.071	0.09	76142	keystroke_p	p	n/a
38.2215	0.06	76443	keystroke_e	e	n/a
38.4315	0.0145	76863	keystroke_q	q	n/a
39.961	0.09	79922	keystroke_a	a	n/a
40.351	0.06	80702	keystroke_Key.backspace	Key.backspace	n/a
40.501	0.0755	81002	keystroke_Key.backspace	Key.backspace	n/a
40.7415	0.105	81483	keystroke_a	a	n/a
40.981	0.075	81962	keystroke_k	k	n/a
41.101	0.135	82202	keystroke_e	e	n/a
41.356	0.09	82712	keystroke_r	r	n/a
41.761	0.075	83522	keystroke_Key.enter	Key.enter	n/a
41.8415	12.1465	83683	prompt	n/a	analysis tariff gasoline previous\n
42.451	0.12	84902	keystroke_a	a	n/a
42.691	0.075	85382	keystroke_n	n	n/a
42.811	0.075	85622	keystroke_a	a	n/a
42.9915	0.09	85983	keystroke_l	l	n/a
43.4265	0.045	86853	keystroke_u	u	n/a
44.191	0.12	88382	keystroke_Key.backspace	Key.backspace	n/a
44.551	0.0605	89102	keystroke_y	y	n/a
45.2565	0.0745	90513	keystroke_s	s	n/a
45.391	0.105	90782	keystroke_i	i	n/a
45.556	0.06	91112	keystroke_s	s	n/a
45.751	0.06	91502	keystroke_Key.space	Key.space	n/a
46.396	0.06	92792	keystroke_t	t	n/a
46.561	0.15	93122	keystroke_a	a	n/a
46.666	0.105	93332	keystroke_r	r	n/a
46.921	0.09	93842	keystroke_i	i	n/a
47.012	0.044	94024	keystroke_f	f	n/a
47.116	0.09	94232	keystroke_f	f	n/a
47.296	0.045	94592	keystroke_Key.space	Key.space	n/a
47.8515	0.045	95703	keystroke_g	g	n/a
48.0165	0.09	96033	keystroke_a	a	n/a
48.3465	0.045	96693	keystroke_d	d	n/a
48.4665	0.075	96933	keystroke_o	o	n/a
49.246	0.075	98492	keystroke_Key.backspace	Key.backspace	n/a
49.3805	0.09	98761	keystroke_Key.backspace	Key.backspace	n/a
49.9065	0.059	99813	keystroke_s	s	n/a
50.0265	0.06	100053	keystroke_o	o	n/a
50.2215	0.105	100443	keystroke_l	l	n/a
50.4615	0.06	100923	keystroke_i	i	n/a
50.7315	0.09	101463	keystroke_n	n	n/a
50.8655	0.076	101731	keystroke_e	e	n/a
50.9705	0.075	101941	keystroke_Key.space	Key.space	n/a
51.6605	0.075	103321	keystroke_p	p	n/a
51.8405	0.105	103681	keystroke_r	r	n/a
51.9015	0.074	103803	keystroke_e	e	n/a
52.0955	0.075	104191	keystroke_v	v	n/a
53.086	0.06	106172	keystroke_i	i	n/a
53.311	0.15	106622	keystroke_o	o	n/a
53.386	0.105	106772	keystroke_u	u	n/a
53.506	0.075	107012	keystroke_s	s	n/a
53.911	0.075	107822	keystroke_Key.enter	Key.enter	n/a
53.9915	6.5365	107983	prompt	n/a	cards gabriel philip pose\n
54.826	0.075	109652	keystroke_c	c	n/a
54.946	0.105	109892	keystroke_a	a	n/a
55.171	0.045	110342	keystroke_r	r	n/a
55.441	0.135	110882	keystroke_d	d	n/a
55.531	0.105	111062	keystroke_s	s	n/a
55.681	0.075	111362	keystroke_Key.space	Key.space	n/a
56.2365	0.045	112473	keystroke_g	g	n/a
56.4165	0.075	112833	keystroke_a	a	n/a
56.5815	0.075	113163	keystroke_b	b	n/a
56.7615	0.06	113523	keystroke_r	r	n/a
56.8815	0.075	113763	keystroke_i	i	n/a
57.0615	0.06	114123	keystroke_e	e	n/a
57.1815	0.105	114363	keystroke_l	l	n/a
57.4215	0.06	114843	keystroke_Key.space	Key.space	n/a
57.826	0.09	115652	keystroke_p	p	n/a
58.081	0.045	116162	keystroke_h	h	n/a
58.201	0.09	116402	keystroke_i	i	n/a
58.426	0.09	116852	keystroke_l	l	n/a
58.6515	0.105	117303	keystroke_i	i	n/a
58.906	0.105	117812	keystroke_p	p	n/a
59.146	0.06	118292	keystroke_Key.space	Key.space	n/a
59.446	0.135	118892	keystroke_p	p	n/a
59.521	0.12	119042	keystroke_o	o	n/a
60.1065	0.06	120213	keystroke_s	s	n/a
60.286	0.06	120572	keystroke_e	e	n/a
60.451	0.075	120902	keystroke_Key.enter	Key.enter	n/a
60.5315	8.847	121063	prompt	n/a	cornwall prevent excited village\n
61.456	0.06	122912	keystroke_c	c	n/a
61.666	0.09	123332	keystroke_o	o	n/a
61.876	0.03	123752	keystroke_r	r	n/a
62.026	0.06	124052	keystroke_n	n	n/a
62.326	0.045	124652	keystroke_w	w	n/a
62.506	0.09	125012	keystroke_a	a	n/a
62.8215	0.015	125643	keystroke_l	l	n/a
62.9415	0.105	125883	keystroke_l	l	n/a
63.241	0.045	126482	keystroke_Key.space	Key.space	n/a
63.7955	0.075	127591	keystroke_p	p	n/a
63.9605	0.15	127921	keystroke_r	r	n/a
64.0655	0.105	128131	keystroke_e	e	n/a
64.3055	0.046	128611	keystroke_v	v	n/a
64.4715	0.06	128943	keystroke_e	e	n/a
64.5915	0.075	129183	keystroke_n	n	n/a
64.7265	0.06	129453	keystroke_t	t	n/a
64.8465	0.09	129693	keystroke_Key.space	Key.space	n/a
65.8065	0.09	131613	keystroke_e	e	n/a
66.0615	0.074	132123	keystroke_x	x	n/a
66.2255	0.061	132451	keystroke_c	c	n/a
66.3605	0.075	132721	keystroke_i	i	n/a
66.4955	0.1205	132991	keystroke_t	t	n/a
66.5705	0.0905	133141	keystroke_e	e	n/a
66.766	0.06	133532	keystroke_d	d	n/a
66.841	0.075	133682	keystroke_Key.space	Key.space	n/a
67.681	0.06	135362	keystroke_v	v	n/a
67.921	0.075	135842	keystroke_i	i	n/a
68.161	0.045	136322	keystroke_l	l	n/a
68.266	0.075	136532	keystroke_l	l	n/a
68.4005	0.0905	136801	keystroke_a	a	n/a
68.641	0.105	137282	keystroke_g	g	n/a
68.776	0.105	137552	keystroke_e	e	n/a
69.316	0.06	138632	keystroke_Key.enter	Key.enter	n/a
69.383	6.565	138766	prompt	n/a	detail stickers zero hotel\n
70.3815	0.06	140763	keystroke_d	d	n/a
70.5465	0.06	141093	keystroke_e	e	n/a
70.711	0.06	141422	keystroke_t	t	n/a
70.876	0.09	141752	keystroke_a	a	n/a
70.981	0.075	141962	keystroke_i	i	n/a
71.1765	0.09	142353	keystroke_l	l	n/a
71.4015	0.0745	142803	keystroke_Key.space	Key.space	n/a
71.611	0.075	143222	keystroke_s	s	n/a
71.806	0.075	143612	keystroke_t	t	n/a
71.911	0.09	143822	keystroke_i	i	n/a
72.076	0.06	144152	keystroke_c	c	n/a
72.196	0.075	144392	keystroke_k	k	n/a
72.346	0.105	144692	keystroke_e	e	n/a
72.421	0.075	144842	keystroke_r	r	n/a
72.616	0.06	145232	keystroke_s	s	n/a
72.721	0.075	145442	keystroke_Key.space	Key.space	n/a
73.276	0.09	146552	keystroke_z	z	n/a
73.531	0.06	147062	keystroke_e	e	n/a
73.696	0.06	147392	keystroke_r	r	n/a
73.846	0.105	147692	keystroke_o	o	n/a
74.086	0.075	148172	keystroke_Key.space	Key.space	n/a
74.686	0.06	149372	keystroke_h	h	n/a
74.956	0.0755	149912	keystroke_o	o	n/a
75.1365	0.06	150273	keystroke_t	t	n/a
75.3615	0.075	150723	keystroke_e	e	n/a
75.4665	0.105	150933	keystroke_l	l	n/a
75.8565	0.09	151713	keystroke_Key.enter	Key.enter	n/a
75.9575	6.68	151915	prompt	n/a	clearing bound watson laptops\n
76.7265	0.06	153453	keystroke_c	c	n/a
76.8765	0.09	153753	keystroke_l	l	n/a
77.0865	0.09	154173	keystroke_e	e	n/a
77.2965	0.105	154593	keystroke_a	a	n/a
77.4015	0.09	154803	keystroke_r	r	n/a
77.5665	0.135	155133	keystroke_i	i	n/a
77.6715	0.075	155343	keystroke_n	n	n/a
77.7915	0.06	155583	keystroke_g	g	n/a
77.9105	0.075	155821	keystroke_Key.space	Key.space	n/a
78.5115	0.075	157023	keystroke_b	b	n/a
78.781	0.12	157562	keystroke_o	o	n/a
78.841	0.105	157682	keystroke_u	u	n/a
79.096	0.075	158192	keystroke_n	n	n/a
79.231	0.09	158462	keystroke_d	d	n/a
79.336	0.09	158672	keystroke_Key.space	Key.space	n/a
79.8465	0.074	159693	keystroke_w	w	n/a
80.0255	0.075	160051	keystroke_a	a	n/a
80.2505	0.046	160501	keystroke_t	t	n/a
80.4305	0.075	160861	keystroke_s	s	n/a
80.5815	0.164	161163	keystroke_o	o	n/a
80.7015	0.059	161403	keystroke_n	n	n/a
80.881	0.075	161762	keystroke_Key.space	Key.space	n/a
81.301	0.09	162602	keystroke_l	l	n/a
81.436	0.06	162872	keystroke_a	a	n/a
81.6305	0.106	163261	keystroke_p	p	n/a
81.8265	0.044	163653	keystroke_t	t	n/a
81.9755	0.09	163951	keystroke_o	o	n/a
82.0355	0.12	164071	keystroke_p	p	n/a
82.2155	0.075	164431	keystroke_s	s	n/a
82.5755	0.06	165151	keystroke_Key.enter	Key.enter	n/a
82.6415	10.841	165283	prompt	n/a	surrounded publications bloom mart\n
83.7005	0.09	167401	keystroke_s	s	n/a
83.8505	0.075	167701	keystroke_u	u	n/a
84.1505	0.045	168301	keystroke_r	r	n/a
84.2555	0.075	168511	keystroke_r	r	n/a
84.3905	0.1355	168781	keystroke_o	o	n/a
84.571	0.075	169142	keystroke_u	u	n/a
85.8165	0.06	171633	keystroke_n	n	n/a
86.0715	0.075	172143	keystroke_d	d	n/a
86.2365	0.06	172473	keystroke_e	e	n/a
86.4165	0.06	172833	keystroke_d	d	n/a
86.5065	0.075	173013	keystroke_Key.space	Key.space	n/a
87.0305	0.105	174061	keystroke_p	p	n/a
87.1655	0.09	174331	keystroke_u	u	n/a
87.901	0.075	175802	keystroke_b	b	n/a
88.156	0.075	176312	keystroke_l	l	n/a
88.366	0.06	176732	keystroke_i	i	n/a
88.546	0.1045	177092	keystroke_c	c	n/a
88.7865	0.09	177573	keystroke_a	a	n/a
88.9505	0.075	177901	keystroke_t	t	n/a
89.0565	0.119	178113	keystroke_i	i	n/a
89.1165	0.105	178233	keystroke_o	o	n/a
89.3105	0.076	178621	keystroke_n	n	n/a
89.4155	0.076	178831	keystroke_s	s	n/a
89.5505	0.091	179101	keystroke_Key.space	Key.space	n/a
90.541	0.075	181082	keystroke_b	b	n/a
90.8405	0.075	181681	keystroke_l	l	n/a
91.0355	0.045	182071	keystroke_o	o	n/a
91.1555	0.09	182311	keystroke_o	o	n/a
91.4255	0.045	182851	keystroke_m	m	n/a
91.6505	0.03	183301	keystroke_Key.space	Key.space	n/a
92.701	0.045	185402	keystroke_m	m	n/a
92.791	0.15	185582	keystroke_a	a	n/a
92.896	0.0905	185792	keystroke_r	r	n/a
93.106	0.075	186212	keystroke_t	t	n/a
93.406	0.075	186812	keystroke_Key.enter	Key.enter	n/a
93.486	7.4665	186972	prompt	n/a	stunning seasons drink drill\n
94.351	0.06	188702	keystroke_s	s	n/a
94.576	0.0755	189152	keystroke_t	t	n/a
94.8455	0.061	189691	keystroke_u	u	n/a
95.1305	0.046	190261	keystroke_n	n	n/a
95.2665	0.059	190533	keystroke_n	n	n/a
95.4315	0.12	190863	keystroke_i	i	n/a
95.4905	0.106	190981	keystroke_n	n	n/a
95.6565	0.0595	191313	keystroke_g	g	n/a
95.746	0.09	191492	keystroke_Key.space	Key.space	n/a
96.076	0.0745	192152	keystroke_s	s	n/a
96.271	0.075	192542	keystroke_e	e	n/a
96.481	0.12	192962	keystroke_a	a	n/a
96.586	0.045	193172	keystroke_s	s	n/a
96.721	0.105	193442	keystroke_o	o	n/a
96.796	0.09	193592	keystroke_n	n	n/a
96.991	0.045	193982	keystroke_s	s	n/a
97.096	0.075	194192	keystroke_Key.space	Key.space	n/a
97.786	0.045	195572	keystroke_d	d	n/a
97.951	0.0745	195902	keystroke_r	r	n/a
98.1455	0.105	196291	keystroke_i	i	n/a
98.3855	0.075	196771	keystroke_n	n	n/a
98.5955	0.09	197191	keystroke_k	k	n/a
98.8205	0.075	197641	keystroke_Key.space	Key.space	n/a
99.3755	0.09	198751	keystroke_s	s	n/a
99.7355	0.1055	199471	keystroke_Key.backspace	Key.backspace	n/a
99.871	0.075	199742	keystroke_d	d	n/a
100.096	0.0905	200192	keystroke_r	r	n/a
100.216	0.0905	200432	keystroke_i	i	n/a
100.4865	0.06	200973	keystroke_l	l	n/a
100.6205	0.075	201241	keystroke_l	l	n/a
100.8605	0.09	201721	keystroke_Key.enter	Key.enter	n/a
100.956	9.2815	201912	prompt	n/a	jenny see shakira finland\n
101.866	0.06	203732	keystroke_j	j	n/a
101.971	0.09	203942	keystroke_e	e	n/a
102.136	0.06	204272	keystroke_n	n	n/a
102.286	0.09	204572	keystroke_n	n	n/a
102.706	0.045	205412	keystroke_y	y	n/a
102.946	0.105	205892	keystroke_Key.space	Key.space	n/a
103.291	0.09	206582	keystroke_s	s	n/a
103.531	0.045	207062	keystroke_e	e	n/a
103.6365	0.06	207273	keystroke_e	e	n/a
103.7565	0.09	207513	keystroke_Key.space	Key.space	n/a
103.9065	0.06	207813	keystroke_s	s	n/a
104.5065	0.015	209013	keystroke_j	j	n/a
105.631	0.09	211262	keystroke_Key.backspace	Key.backspace	n/a
105.946	0.06	211892	keystroke_h	h	n/a
106.306	0.09	212612	keystroke_a	a	n/a
107.2205	0.0605	214441	keystroke_k	k	n/a
107.416	0.06	214832	keystroke_i	i	n/a
107.686	0.06	215372	keystroke_r	r	n/a
107.881	0.09	215762	keystroke_a	a	n/a
108.076	0.0755	216152	keystroke_Key.space	Key.space	n/a
108.931	0.045	217862	keystroke_f	f	n/a
109.021	0.135	218042	keystroke_i	i	n/a
109.111	0.105	218222	keystroke_n	n	n/a
109.321	0.1055	218642	keystroke_l	l	n/a
109.5015	0.09	219003	keystroke_a	a	n/a
109.6665	0.09	219333	keystroke_n	n	n/a
109.8165	0.075	219633	keystroke_d	d	n/a
110.1615	0.075	220323	keystroke_Key.enter	Key.enter	n/a
110.241	8.7565	220482	prompt	n/a	murphy brand emily cookies\n
111.1665	0.059	222333	keystroke_m	m	n/a
111.5865	0.075	223173	keystroke_u	u	n/a
111.9315	0.06	223863	keystroke_r	r	n/a
112.1265	0.09	224253	keystroke_p	p	n/a
112.4255	0.076	224851	keystroke_h	h	n/a
112.8305	0.06	225661	keystroke_t	t	n/a
113.0555	0.105	226111	keystroke_Key.space	Key.space	n/a
113.5805	0.075	227161	keystroke_Key.backspace	Key.backspace	n/a
113.7605	0.075	227521	keystroke_Key.backspace	Key.backspace	n/a
114.3305	0.075	228661	keystroke_y	y	n/a
114.736	0.0605	229472	keystroke_Key.space	Key.space	n/a
114.961	0.075	229922	keystroke_b	b	n/a
115.051	0.0755	230102	keystroke_r	r	n/a
115.2615	0.0745	230523	keystroke_a	a	n/a
115.351	0.075	230702	keystroke_n	n	n/a
115.651	0.06	231302	keystroke_d	d	n/a
115.7865	0.0745	231573	keystroke_Key.space	Key.space	n/a
116.401	0.075	232802	keystroke_e	e	n/a
116.6705	0.09	233341	keystroke_m	m	n/a
116.8955	0.09	233791	keystroke_i	i	n/a
117.1205	0.09	234241	keystroke_l	l	n/a
117.1955	0.091	234391	keystroke_y	y	n/a
117.3305	0.075	234661	keystroke_Key.space	Key.space	n/a
117.766	0.045	235532	keystroke_c	c	n/a
117.916	0.06	235832	keystroke_o	o	n/a
118.051	0.045	236102	keystroke_o	o	n/a
118.261	0.06	236522	keystroke_k	k	n/a
118.456	0.075	236912	keystroke_i	i	n/a
118.591	0.06	237182	keystroke_e	e	n/a
118.786	0.045	237572	keystroke_s	s	n/a
118.936	0.06	237872	keystroke_Key.enter	Key.enter	n/a
119.0015	9.821	238003	prompt	n/a	citation illustration patient donald\n
119.956	0.06	239912	keystroke_c	c	n/a
120.106	0.06	240212	keystroke_i	i	n/a
120.2415	0.06	240483	keystroke_t	t	n/a
120.4065	0.12	240813	keystroke_a	a	n/a
120.4805	0.061	240961	keystroke_t	t	n/a
120.5705	0.12	241141	keystroke_i	i	n/a
120.6315	0.105	241263	keystroke_o	o	n/a
120.8415	0.045	241683	keystroke_n	n	n/a
121.0215	0.075	242043	keystroke_Key.space	Key.space	n/a
121.9505	0.061	243901	keystroke_i	i	n/a
122.1605	0.06	244321	keystroke_l	l	n/a
122.3255	0.06	244651	keystroke_l	l	n/a
122.5205	0.045	245041	keystroke_u	u	n/a
122.6855	0.045	245371	keystroke_s	s	n/a
122.8355	0.06	245671	keystroke_t	t	n/a
123.0305	0.06	246061	keystroke_r	r	n/a
123.4805	0.105	246961	keystroke_a	a	n/a
123.7355	0.06	247471	keystroke_t	t	n/a
123.8855	0.09	247771	keystroke_i	i	n/a
123.9455	0.105	247891	keystroke_o	o	n/a
124.651	0.045	249302	keystroke_n	n	n/a
124.846	0.06	249692	keystroke_Key.space	Key.space	n/a
125.161	0.12	250322	keystroke_p	p	n/a
125.266	0.09	250532	keystroke_a	a	n/a
125.461	0.075	250922	keystroke_t	t	n/a
125.641	0.075	251282	keystroke_i	i	n/a
125.881	0.015	251762	keystroke_e	e	n/a
125.971	0.075	251942	keystroke_n	n	n/a
126.121	0.075	252242	keystroke_t	t	n/a
126.271	0.09	252542	keystroke_Key.space	Key.space	n/a
127.5165	0.0595	255033	keystroke_d	d	n/a
127.621	0.15	255242	keystroke_o	o	n/a
127.726	0.0755	255452	keystroke_n	n	n/a
127.9965	0.1045	255993	keystroke_a	a	n/a
128.1315	0.12	256263	keystroke_l	l	n/a
128.3405	0.045	256681	keystroke_d	d	n/a
128.7605	0.06	257521	keystroke_Key.enter	Key.enter	n/a
128.826	6.4915	257652	prompt	n/a	assessed valley include seeks\n
129.5105	0.075	259021	keystroke_a	a	n/a
129.7355	0.0605	259471	keystroke_s	s	n/a
129.856	0.075	259712	keystroke_s	s	n/a
130.051	0.075	260102	keystroke_e	e	n/a
130.2455	0.045	260491	keystroke_s	s	n/a
130.3505	0.045	260701	keystroke_s	s	n/a
130.516	0.06	261032	keystroke_e	e	n/a
130.6805	0.075	261361	keystroke_d	d	n/a
130.7705	0.09	261541	keystroke_Key.space	Key.space	n/a
131.161	0.045	262322	keystroke_v	v	n/a
131.296	0.09	262592	keystroke_a	a	n/a
131.416	0.06	262832	keystroke_l	l	n/a
131.566	0.075	263132	keystroke_l	l	n/a
131.671	0.09	263342	keystroke_e	e	n/a
131.806	0.105	263612	keystroke_y	y	n/a
131.971	0.09	263942	keystroke_Key.space	Key.space	n/a
132.6905	0.166	265381	keystroke_i	i	n/a
132.8405	0.031	265681	keystroke_n	n	n/a
132.9155	0.06	265831	keystroke_c	c	n/a
133.0805	0.181	266161	keystroke_l	l	n/a
133.1855	0.121	266371	keystroke_u	u	n/a
133.3515	0.059	266703	keystroke_d	d	n/a
133.5155	0.0905	267031	keystroke_e	e	n/a
133.636	0.09	267272	keystroke_Key.space	Key.space	n/a
134.011	0.06	268022	keystroke_s	s	n/a
134.311	0.045	268622	keystroke_e	e	n/a
134.401	0.09	268802	keystroke_e	e	n/a
134.7905	0.075	269581	keystroke_k	k	n/a
134.8805	0.075	269761	keystroke_s	s	n/a
135.2555	0.06	270511	keystroke_Key.enter	Key.enter	n/a
135.3205	9.177	270641	prompt	n/a	stamp beaver email organisms\n
136.1265	0.075	272253	keystroke_s	s	n/a
136.321	0.045	272642	keystroke_t	t	n/a
136.471	0.09	272942	keystroke_a	a	n/a
136.591	0.0745	273182	keystroke_m	m	n/a
136.8305	0.091	273661	keystroke_p	p	n/a
137.0715	0.06	274143	keystroke_Key.space	Key.space	n/a
137.731	0.06	275462	keystroke_b	b	n/a
137.881	0.045	275762	keystroke_e	e	n/a
138.046	0.075	276092	keystroke_a	a	n/a
138.271	0.045	276542	keystroke_v	v	n/a
138.466	0.105	276932	keystroke_e	e	n/a
138.526	0.075	277052	keystroke_r	r	n/a
138.706	0.075	277412	keystroke_Key.space	Key.space	n/a
139.066	0.075	278132	keystroke_e	e	n/a
139.156	0.075	278312	keystroke_m	m	n/a
139.261	0.1055	278522	keystroke_a	a	n/a
139.3815	0.104	278763	keystroke_i	i	n/a
139.6065	0.104	279213	keystroke_l	l	n/a
139.831	0.075	279662	keystroke_Key.space	Key.space	n/a
140.4465	0.06	280893	keystroke_o	o	n/a
140.6265	0.06	281253	keystroke_r	r	n/a
141.3615	0.06	282723	keystroke_g	g	n/a
141.6915	0.09	283383	keystroke_a	a	n/a
141.9165	0.075	283833	keystroke_n	n	n/a
142.2015	0.1045	284403	keystroke_i	i	n/a
142.591	0.1055	285182	keystroke_s	s	n/a
142.9355	0.091	285871	keystroke_,	,	n/a
143.5505	0.105	287101	keystroke_Key.backspace	Key.backspace	n/a
143.8655	0.06	287731	keystroke_m	m	n/a
143.9865	0.075	287973	keystroke_s	s	n/a
144.4205	0.075	288841	keystroke_Key.enter	Key.enter	n/a
144.5015	8.306	289003	prompt	n/a	roller legs indonesian smart\n
145.3665	0.045	290733	keystroke_r	r	n/a
145.4865	0.09	290973	keystroke_o	o	n/a
145.7265	0.074	291453	keystroke_l	l	n/a
145.8605	0.061	291721	keystroke_l	l	n/a
146.0255	0.15	292051	keystroke_e	e	n/a
146.1615	0.074	292323	keystroke_r	r	n/a
146.2655	0.075	292531	keystroke_Key.space	Key.space	n/a
146.4915	0.074	292983	keystroke_l	l	n/a
146.5505	0.09	293101	keystroke_e	e	n/a
146.7755	0.06	293551	keystroke_g	g	n/a
146.9855	0.0755	293971	keystroke_s	s	n/a
147.106	0.075	294212	keystroke_Key.space	Key.space	n/a
147.8405	0.105	295681	keystroke_i	i	n/a
148.1105	0.06	296221	keystroke_n	n	n/a
148.5455	0.045	297091	keystroke_d	d	n/a
148.636	0.075	297272	keystroke_o	o	n/a
148.831	0.0745	297662	keystroke_n	n	n/a
148.9355	0.06	297871	keystroke_e	e	n/a
149.1605	0.06	298321	keystroke_s	s	n/a
149.2805	0.09	298561	keystroke_i	i	n/a
149.4305	0.09	298861	keystroke_a	a	n/a
149.6255	0.075	299251	keystroke_n	n	n/a
150.316	0.09	300632	keystroke_Key.space	Key.space	n/a
151.726	0.045	303452	keystroke_s	s	n/a
151.786	0.09	303572	keystroke_m	m	n/a
151.891	0.075	303782	keystroke_a	a	n/a
152.101	0.075	304202	keystroke_r	r	n/a
152.251	0.09	304502	keystroke_t	t	n/a
152.731	0.075	305462	keystroke_Key.enter	Key.enter	n/a
152.811	7.0165	305622	prompt	n/a	true headed injuries solar\n
153.5415	0.06	307083	keystroke_t	t	n/a
153.7215	0.059	307443	keystroke_r	r	n/a
153.9915	0.105	307983	keystroke_u	u	n/a
154.1555	0.09	308311	keystroke_e	e	n/a
154.891	0.06	309782	keystroke_Key.space	Key.space	n/a
155.311	0.045	310622	keystroke_h	h	n/a
155.386	0.06	310772	keystroke_e	e	n/a
155.581	0.1495	311162	keystroke_a	a	n/a
155.8655	0.09	311731	keystroke_d	d	n/a
156.0605	0.0755	312121	keystroke_e	e	n/a
156.271	0.06	312542	keystroke_d	d	n/a
156.421	0.075	312842	keystroke_Key.space	Key.space	n/a
156.8705	0.135	313741	keystroke_i	i	n/a
156.9455	0.075	313891	keystroke_n	n	n/a
157.1855	0.076	314371	keystroke_j	j	n/a
157.3815	0.075	314763	keystroke_u	u	n/a
157.501	0.075	315002	keystroke_r	r	n/a
157.651	0.09	315302	keystroke_i	i	n/a
157.876	0.015	315752	keystroke_e	e	n/a
158.086	0.06	316172	keystroke_s	s	n/a
158.191	0.06	316382	keystroke_Key.space	Key.space	n/a
158.881	0.06	317762	keystroke_s	s	n/a
158.956	0.06	317912	keystroke_o	o	n/a
159.151	0.075	318302	keystroke_l	l	n/a
159.256	0.12	318512	keystroke_a	a	n/a
159.451	0.075	318902	keystroke_r	r	n/a
159.751	0.075	319502	keystroke_Key.enter	Key.enter	n/a
159.832	7.9155	319664	prompt	n/a	reproductive carl missouri richard\n
160.7415	0.135	321483	keystroke_r	r	n/a
160.8315	0.09	321663	keystroke_e	e	n/a
161.0415	0.0895	322083	keystroke_p	p	n/a
161.206	0.06	322412	keystroke_r	r	n/a
161.296	0.105	322592	keystroke_o	o	n/a
161.581	0.06	323162	keystroke_d	d	n/a
161.731	0.075	323462	keystroke_u	u	n/a
161.821	0.075	323642	keystroke_c	c	n/a
162.031	0.06	324062	keystroke_t	t	n/a
162.136	0.105	324272	keystroke_i	i	n/a
162.331	0.045	324662	keystroke_v	v	n/a
162.466	0.0895	324932	keystroke_e	e	n/a
162.6165	0.0745	325233	keystroke_Key.space	Key.space	n/a
163.036	0.06	326072	keystroke_m	m	n/a
163.261	0.09	326522	keystroke_i	i	n/a
163.471	0.06	326942	keystroke_s	s	n/a
163.576	0.09	327152	keystroke_s	s	n/a
163.801	0.15	327602	keystroke_o	o	n/a
163.891	0.12	327782	keystroke_u	u	n/a
164.101	0.09	328202	keystroke_r	r	n/a
164.476	0.09	328952	keystroke_i	i	n/a
164.731	0.075	329462	keystroke_Key.space	Key.space	n/a
165.9165	0.045	331833	keystroke_r	r	n/a
166.2015	0.06	332403	keystroke_i	i	n/a
166.4265	0.06	332853	keystroke_c	c	n/a
166.8015	0.06	333603	keystroke_h	h	n/a
166.8915	0.09	333783	keystroke_a	a	n/a
167.1005	0.061	334201	keystroke_r	r	n/a
167.341	0.12	334682	keystroke_d	d	n/a
167.671	0.075	335342	keystroke_Key.enter	Key.enter	n/a
167.751	10.0465	335502	prompt	n/a	jennifer crawford cholesterol firefox\n
168.661	0.075	337322	keystroke_j	j	n/a
168.826	0.06	337652	keystroke_e	e	n/a
169.096	0.03	338192	keystroke_n	n	n/a
169.201	0.06	338402	keystroke_n	n	n/a
169.381	0.075	338762	keystroke_i	i	n/a
169.576	0.045	339152	keystroke_f	f	n/a
169.741	0.135	339482	keystroke_e	e	n/a
169.831	0.09	339662	keystroke_r	r	n/a
169.966	0.09	339932	keystroke_Key.space	Key.space	n/a
170.341	0.045	340682	keystroke_c	c	n/a
170.521	0.06	341042	keystroke_r	r	n/a
170.761	0.09	341522	keystroke_a	a	n/a
171.0305	0.0605	342061	keystroke_w	w	n/a
171.331	0.045	342662	keystroke_f	f	n/a
171.436	0.09	342872	keystroke_o	o	n/a
171.541	0.06	343082	keystroke_r	r	n/a
171.751	0.045	343502	keystroke_d	d	n/a
171.841	0.075	343682	keystroke_Key.space	Key.space	n/a
172.426	0.075	344852	keystroke_c	c	n/a
172.6965	0.075	345393	keystroke_h	h	n/a
172.8915	0.09	345783	keystroke_o	o	n/a
173.6265	0.075	347253	keystroke_l	l	n/a
174.1665	0.06	348333	keystroke_e	e	n/a
174.3615	0.06	348723	keystroke_s	s	n/a
174.5415	0.0745	349083	keystroke_t	t	n/a
174.691	0.135	349382	keystroke_e	e	n/a
174.781	0.09	349562	keystroke_r	r	n/a
175.036	0.09	350072	keystroke_o	o	n/a
175.261	0.09	350522	keystroke_l	l	n/a
175.5755	0.075	351151	keystroke_Key.space	Key.space	n/a
176.4305	0.03	352861	keystroke_f	f	n/a
176.5215	0.074	353043	keystroke_i	i	n/a
176.6255	0.06	353251	keystroke_r	r	n/a
176.7915	0.074	353583	keystroke_e	e	n/a
176.9855	0.045	353971	keystroke_f	f	n/a
177.0905	0.091	354181	keystroke_o	o	n/a
177.361	0.06	354722	keystroke_x	x	n/a
177.7355	0.06	355471	keystroke_Key.enter	Key.enter	n/a
177.803	8.2445	355606	prompt	n/a	sheep copyrights james cancer\n
178.8755	0.09	357751	keystroke_s	s	n/a
179.0705	0.075	358141	keystroke_h	h	n/a
179.2955	0.03	358591	keystroke_e	e	n/a
179.4155	0.06	358831	keystroke_e	e	n/a
179.5805	0.09	359161	keystroke_p	p	n/a
179.8955	0.06	359791	keystroke_Key.space	Key.space	n/a
180.301	0.09	360602	keystroke_c	c	n/a
181.126	0.09	362252	keystroke_o	o	n/a
181.606	0.075	363212	keystroke_p	p	n/a
181.831	0.06	363662	keystroke_y	y	n/a
182.191	0.06	364382	keystroke_r	r	n/a
182.296	0.09	364592	keystroke_i	i	n/a
182.431	0.075	364862	keystroke_g	g	n/a
182.551	0.0755	365102	keystroke_h	h	n/a
182.6715	0.09	365343	keystroke_t	t	n/a
182.8815	0.089	365763	keystroke_s	s	n/a
182.9855	0.09	365971	keystroke_Key.space	Key.space	n/a
183.6605	0.105	367321	keystroke_j	j	n/a
183.7805	0.045	367561	keystroke_a	a	n/a
183.8405	0.06	367681	keystroke_m	m	n/a
183.9605	0.045	367921	keystroke_e	e	n/a
184.1405	0.06	368281	keystroke_s	s	n/a
184.2305	0.075	368461	keystroke_Key.space	Key.space	n/a
184.786	0.075	369572	keystroke_c	c	n/a
185.026	0.105	370052	keystroke_a	a	n/a
185.161	0.075	370322	keystroke_n	n	n/a
185.416	0.075	370832	keystroke_c	c	n/a
185.611	0.105	371222	keystroke_e	e	n/a
185.671	0.09	371342	keystroke_r	r	n/a
185.986	0.06	371972	keystroke_Key.enter	Key.enter	n/a
186.0515	10.271	372103	prompt	n/a	delivery deleted textbook syndrome\n
186.961	0.045	373922	keystroke_d	d	n/a
187.126	0.045	374252	keystroke_e	e	n/a
187.231	0.135	374462	keystroke_l	l	n/a
187.321	0.12	374642	keystroke_i	i	n/a
187.456	0.075	374912	keystroke_v	v	n/a
187.606	0.105	375212	keystroke_e	e	n/a
187.6655	0.0905	375331	keystroke_r	r	n/a
187.876	0.06	375752	keystroke_y	y	n/a
187.996	0.075	375992	keystroke_Key.space	Key.space	n/a
189.2255	0.045	378451	keystroke_d	d	n/a
189.4055	0.045	378811	keystroke_e	e	n/a
189.5705	0.09	379141	keystroke_l	l	n/a
189.7205	0.075	379441	keystroke_e	e	n/a
190.0355	0.06	380071	keystroke_t	t	n/a
190.1705	0.09	380341	keystroke_e	e	n/a
190.7855	0.075	381571	keystroke_d	d	n/a
190.9205	0.075	381841	keystroke_Key.space	Key.space	n/a
191.5655	0.0905	383131	keystroke_t	t	n/a
191.686	0.105	383372	keystroke_e	e	n/a
192.0455	0.0755	384091	keystroke_x	x	n/a
192.586	0.075	385172	keystroke_t	t	n/a
192.811	0.06	385622	keystroke_b	b	n/a
193.051	0.075	386102	keystroke_o	o	n/a
193.231	0.105	386462	keystroke_o	o	n/a
193.351	0.075	386702	keystroke_k	k	n/a
193.591	0.045	387182	keystroke_Key.space	Key.space	n/a
194.191	0.075	388382	keystroke_s	s	n/a
194.431	0.09	388862	keystroke_y	y	n/a
194.731	0.06	389462	keystroke_n	n	n/a
195.016	0.06	390032	keystroke_d	d	n/a
195.196	0.0445	390392	keystroke_r	r	n/a
195.3155	0.12	390631	keystroke_o	o	n/a
195.3755	0.105	390751	keystroke_m	m	n/a
195.5705	0.045	391141	keystroke_e	e	n/a
196.2305	0.09	392461	keystroke_Key.enter	Key.enter	n/a
196.326	11.0065	392652	prompt	n/a	scheduled journalists mediterranean child\n
197.056	0.105	394112	keystroke_s	s	n/a
197.296	0.0745	394592	keystroke_c	c	n/a
197.4755	0.075	394951	keystroke_h	h	n/a
197.5805	0.06	395161	keystroke_e	e	n/a
197.7455	0.0905	395491	keystroke_d	d	n/a
197.8815	0.0595	395763	keystroke_u	u	n/a
198.061	0.075	396122	keystroke_l	l	n/a
198.166	0.06	396332	keystroke_e	e	n/a
198.361	0.075	396722	keystroke_d	d	n/a
198.466	0.09	396932	keystroke_Key.space	Key.space	n/a
199.171	0.075	398342	keystroke_j	j	n/a
199.3655	0.12	398731	keystroke_o	o	n/a
199.4255	0.12	398851	keystroke_u	u	n/a
199.6055	0.075	399211	keystroke_r	r	n/a
199.8155	0.045	399631	keystroke_n	n	n/a
199.9205	0.06	399841	keystroke_a	a	n/a
200.0405	0.165	400081	keystroke_l	l	n/a
200.1455	0.105	400291	keystroke_i	i	n/a
200.3255	0.06	400651	keystroke_s	s	n/a
200.5055	0.06	401011	keystroke_t	t	n/a
200.6705	0.0755	401341	keystroke_s	s	n/a
200.896	0.075	401792	keystroke_Key.space	Key.space	n/a
201.586	0.06	403172	keystroke_m	m	n/a
201.691	0.06	403382	keystroke_e	e	n/a
201.886	0.075	403772	keystroke_d	d	n/a
202.501	0.09	405002	keystroke_i	i	n/a
203.146	0.105	406292	keystroke_t	t	n/a
203.356	0.075	406712	keystroke_e	e	n/a
203.926	0.09	407852	keystroke_r	r	n/a
204.031	0.03	408062	keystroke_r	r	n/a
204.271	0.075	408542	keystroke_a	a	n/a
204.646	0.075	409292	keystroke_n	n	n/a
205.036	0.06	410072	keystroke_e	e	n/a
205.321	0.09	410642	keystroke_a	a	n/a
205.456	0.105	410912	keystroke_n	n	n/a
205.846	0.075	411692	keystroke_Key.space	Key.space	n/a
206.2055	0.06	412411	keystroke_c	c	n/a
206.3405	0.12	412681	keystroke_h	h	n/a
206.5055	0.09	413011	keystroke_i	i	n/a
206.7605	0.1055	413521	keystroke_l	l	n/a
206.911	0.0595	413822	keystroke_d	d	n/a
207.2555	0.075	414511	keystroke_Key.enter	Key.enter	n/a
207.337	11.7405	414674	prompt	n/a	connecticut horror chemical balanced\n
208.1555	0.075	416311	keystroke_c	c	n/a
208.2605	0.075	416521	keystroke_o	o	n/a
208.5155	0.045	417031	keystroke_n	n	n/a
208.606	0.09	417212	keystroke_n	n	n/a
208.741	0.075	417482	keystroke_e	e	n/a
209.896	0.1045	419792	keystroke_c	c	n/a
210.496	0.075	420992	keystroke_t	t	n/a
211.096	0.105	422192	keystroke_i	i	n/a
211.396	0.0745	422792	keystroke_c	c	n/a
211.591	0.105	423182	keystroke_u	u	n/a
212.6555	0.09	425311	keystroke_t	t	n/a
212.9705	0.075	425941	keystroke_Key.space	Key.space	n/a
213.526	0.075	427052	keystroke_h	h	n/a
213.751	0.09	427502	keystroke_o	o	n/a
214.231	0.045	428462	keystroke_r	r	n/a
214.3355	0.076	428671	keystroke_r	r	n/a
214.5015	0.119	429003	keystroke_o	o	n/a
214.9655	0.06	429931	keystroke_r	r	n/a
215.1155	0.075	430231	keystroke_Key.space	Key.space	n/a
215.7465	0.075	431493	keystroke_c	c	n/a
215.9105	0.076	431821	keystroke_h	h	n/a
216.0905	0.061	432181	keystroke_e	e	n/a
216.2105	0.06	432421	keystroke_m	m	n/a
216.421	0.075	432842	keystroke_i	i	n/a
216.6305	0.075	433261	keystroke_c	c	n/a
216.8405	0.09	433681	keystroke_a	a	n/a
216.9155	0.1205	433831	keystroke_l	l	n/a
217.171	0.075	434342	keystroke_Key.space	Key.space	n/a
217.561	0.06	435122	keystroke_b	b	n/a
217.711	0.045	435422	keystroke_a	a	n/a
217.801	0.09	435602	keystroke_l	l	n/a
217.921	0.09	435842	keystroke_a	a	n/a
218.056	0.06	436112	keystroke_n	n	n/a
218.266	0.12	436532	keystroke_c	c	n/a
218.356	0.09	436712	keystroke_e	e	n/a
218.551	0.09	437102	keystroke_d	d	n/a
219.001	0.075	438002	keystroke_Key.enter	Key.enter	n/a
219.0805	8.922	438161	prompt	n/a	beginners buses designated out\n
220.156	0.06	440312	keystroke_b	b	n/a
220.306	0.045	440612	keystroke_e	e	n/a
220.561	0.0895	441122	keystroke_g	g	n/a
220.9805	0.105	441961	keystroke_i	i	n/a
221.2955	0.045	442591	keystroke_n	n	n/a
221.4005	0.06	442801	keystroke_n	n	n/a
221.7155	0.135	443431	keystroke_e	e	n/a
221.8205	0.09	443641	keystroke_r	r	n/a
222.0455	0.06	444091	keystroke_s	s	n/a
222.1355	0.09	444271	keystroke_Key.space	Key.space	n/a
222.931	0.06	445862	keystroke_b	b	n/a
223.186	0.09	446372	keystroke_u	u	n/a
223.486	0.06	446972	keystroke_s	s	n/a
223.681	0.06	447362	keystroke_e	e	n/a
223.8605	0.06	447721	keystroke_s	s	n/a
223.9505	0.09	447901	keystroke_Key.space	Key.space	n/a
224.3705	0.06	448741	keystroke_d	d	n/a
224.5505	0.045	449101	keystroke_e	e	n/a
224.716	0.06	449432	keystroke_s	s	n/a
224.8215	0.0885	449643	keystroke_i	i	n/a
224.986	0.06	449972	keystroke_g	g	n/a
225.076	0.09	450152	keystroke_n	n	n/a
225.421	0.12	450842	keystroke_a	a	n/a
225.961	0.135	451922	keystroke_t	t	n/a
226.036	0.105	452072	keystroke_e	e	n/a
226.261	0.09	452522	keystroke_d	d	n/a
226.441	0.105	452882	keystroke_Key.space	Key.space	n/a
227.5505	0.105	455101	keystroke_o	o	n/a
227.6405	0.06	455281	keystroke_u	u	n/a
227.7155	0.091	455431	keystroke_t	t	n/a
227.9105	0.09	455821	keystroke_Key.enter	Key.enter	n/a
228.0055	7.707	456011	prompt	n/a	falling german intranet speaker\n
228.9005	0.06	457801	keystroke_f	f	n/a
229.1105	0.09	458221	keystroke_a	a	n/a
229.2455	0.0905	458491	keystroke_l	l	n/a
229.396	0.09	458792	keystroke_l	l	n/a
229.621	0.089	459242	keystroke_i	i	n/a
229.695	0.06	459390	keystroke_n	n	n/a
229.785	0.075	459570	keystroke_g	g	n/a
229.92	0.075	459840	keystroke_Key.space	Key.space	n/a
230.431	0.044	460862	keystroke_g	g	n/a
230.581	0.1345	461162	keystroke_e	e	n/a
230.6555	0.105	461311	keystroke_r	r	n/a
230.7905	0.09	461581	keystroke_m	m	n/a
230.9405	0.105	461881	keystroke_a	a	n/a
231.0755	0.09	462151	keystroke_n	n	n/a
231.2855	0.09	462571	keystroke_Key.space	Key.space	n/a
231.9605	0.105	463921	keystroke_i	i	n/a
232.2605	0.06	464521	keystroke_n	n	n/a
232.6055	0.03	465211	keystroke_t	t	n/a
232.7555	0.075	465511	keystroke_r	r	n/a
232.9655	0.09	465931	keystroke_a	a	n/a
233.2505	0.075	466501	keystroke_n	n	n/a
233.3705	0.09	466741	keystroke_e	e	n/a
233.5805	0.06	467161	keystroke_t	t	n/a
233.7005	0.075	467401	keystroke_Key.space	Key.space	n/a
234.1505	0.075	468301	keystroke_s	s	n/a
234.2855	0.075	468571	keystroke_p	p	n/a
234.4055	0.075	468811	keystroke_e	e	n/a
234.6155	0.105	469231	keystroke_a	a	n/a
235.0955	0.075	470191	keystroke_k	k	n/a
235.2155	0.135	470431	keystroke_e	e	n/a
235.3205	0.09	470641	keystroke_r	r	n/a
235.6355	0.075	471271	keystroke_Key.enter	Key.enter	n/a
235.7155	9.5365	471431	prompt	n/a	shipments deeper morris candidates\n
236.671	0.06	473342	keystroke_s	s	n/a
237.031	0.075	474062	keystroke_h	h	n/a
237.226	0.045	474452	keystroke_i	i	n/a
237.406	0.09	474812	keystroke_p	p	n/a
237.6455	0.06	475291	keystroke_m	m	n/a
237.81	0.091	475620	keystroke_e	e	n/a
237.93	0.075	475860	keystroke_n	n	n/a
238.051	0.0445	476102	keystroke_t	t	n/a
238.23	0.091	476460	keystroke_s	s	n/a
238.3655	0.0745	476731	keystroke_Key.space	Key.space	n/a
238.9205	0.06	477841	keystroke_d	d	n/a
239.1005	0.075	478201	keystroke_e	e	n/a
239.2955	0.06	478591	keystroke_e	e	n/a
239.5355	0.09	479071	keystroke_p	p	n/a
239.7905	0.12	479581	keystroke_e	e	n/a
239.9255	0.06	479851	keystroke_r	r	n/a
240.0905	0.09	480181	keystroke_Key.space	Key.space	n/a
240.3455	0.09	480691	keystroke_m	m	n/a
240.931	0.09	481862	keystroke_r	r	n/a
241.8005	0.09	483601	keystroke_Key.backspace	Key.backspace	n/a
242.1305	0.06	484261	keystroke_o	o	n/a
242.2655	0.06	484531	keystroke_r	r	n/a
242.3855	0.09	484771	keystroke_r	r	n/a
242.5505	0.0905	485101	keystroke_i	i	n/a
242.731	0.06	485462	keystroke_s	s	n/a
242.851	0.0745	485702	keystroke_Key.space	Key.space	n/a
243.6155	0.06	487231	keystroke_c	c	n/a
243.7505	0.105	487501	keystroke_a	a	n/a
243.8705	0.06	487741	keystroke_n	n	n/a
244.0805	0.045	488161	keystroke_d	d	n/a
244.1855	0.075	488371	keystroke_i	i	n/a
244.306	0.045	488612	keystroke_d	d	n/a
244.411	0.105	488822	keystroke_a	a	n/a
244.6655	0.105	489331	keystroke_t	t	n/a
244.7405	0.075	489481	keystroke_e	e	n/a
244.9505	0.06	489901	keystroke_s	s	n/a
245.1605	0.09	490321	keystroke_Key.enter	Key.enter	n/a
245.2555	7.347	490511	prompt	n/a	arrested bidding negative rice\n
245.9705	0.09	491941	keystroke_a	a	n/a
246.2705	0.03	492541	keystroke_r	r	n/a
246.3605	0.135	492721	keystroke_r	r	n/a
246.5405	0.0895	493081	keystroke_e	e	n/a
246.735	0.075	493470	keystroke_s	s	n/a
246.931	0.105	493862	keystroke_t	t	n/a
247.006	0.09	494012	keystroke_e	e	n/a
247.216	0.09	494432	keystroke_d	d	n/a
247.321	0.105	494642	keystroke_Key.space	Key.space	n/a
247.981	0.06	495962	keystroke_b	b	n/a
248.161	0.09	496322	keystroke_i	i	n/a
248.3855	0.045	496771	keystroke_d	d	n/a
248.4905	0.105	496981	keystroke_d	d	n/a
248.626	0.12	497252	keystroke_i	i	n/a
248.701	0.075	497402	keystroke_n	n	n/a
248.821	0.06	497642	keystroke_g	g	n/a
248.911	0.09	497822	keystroke_Key.space	Key.space	n/a
249.721	0.045	499442	keystroke_n	n	n/a
249.856	0.06	499712	keystroke_e	e	n/a
250.081	0.06	500162	keystroke_g	g	n/a
250.261	0.09	500522	keystroke_a	a	n/a
250.651	0.09	501302	keystroke_t	t	n/a
250.831	0.06	501662	keystroke_i	i	n/a
251.011	0.03	502022	keystroke_v	v	n/a
251.1455	0.075	502291	keystroke_e	e	n/a
251.2655	0.105	502531	keystroke_Key.space	Key.space	n/a
251.8655	0.045	503731	keystroke_r	r	n/a
252.0005	0.075	504001	keystroke_i	i	n/a
252.2405	0.12	504481	keystroke_c	c	n/a
252.3155	0.105	504631	keystroke_e	e	n/a
252.5105	0.09	505021	keystroke_Key.enter	Key.enter	n/a
252.6055	8.922	505211	prompt	n/a	difficulties pepper gardens witness\n
253.486	0.075	506972	keystroke_d	d	n/a
253.591	0.09	507182	keystroke_i	i	n/a
253.891	0.06	507782	keystroke_f	f	n/a
253.981	0.06	507962	keystroke_f	f	n/a
254.086	0.09	508172	keystroke_i	i	n/a
254.206	0.09	508412	keystroke_c	c	n/a
254.311	0.075	508622	keystroke_u	u	n/a
254.491	0.105	508982	keystroke_l	l	n/a
254.731	0.045	509462	keystroke_t	t	n/a
254.836	0.105	509672	keystroke_i	i	n/a
255.046	0.06	510092	keystroke_e	e	n/a
255.2255	0.075	510451	keystroke_s	s	n/a
255.3155	0.075	510631	keystroke_Key.space	Key.space	n/a
255.8255	0.09	511651	keystroke_p	p	n/a
256.1405	0.06	512281	keystroke_e	e	n/a
256.2605	0.09	512521	keystroke_p	p	n/a
256.4105	0.075	512821	keystroke_p	p	n/a
256.5455	0.15	513091	keystroke_e	e	n/a
256.6355	0.12	513271	keystroke_r	r	n/a
256.8005	0.075	513601	keystroke_Key.space	Key.space	n/a
257.9255	0.0445	515851	keystroke_g	g	n/a
257.985	0.0305	515970	keystroke_a	a	n/a
258.12	0.0455	516240	keystroke_r	r	n/a
258.496	0.059	516992	keystroke_d	d	n/a
258.676	0.045	517352	keystroke_e	e	n/a
258.751	0.0895	517502	keystroke_n	n	n/a
258.9155	0.075	517831	keystroke_s	s	n/a
259.0205	0.09	518041	keystroke_Key.space	Key.space	n/a
260.0405	0.075	520081	keystroke_w	w	n/a
260.1605	0.09	520321	keystroke_i	i	n/a
260.4305	0.06	520861	keystroke_t	t	n/a
260.6855	0.105	521371	keystroke_n	n	n/a
260.8205	0.06	521641	keystroke_e	e	n/a
261.0305	0.06	522061	keystroke_s	s	n/a
261.1355	0.09	522271	keystroke_s	s	n/a
261.406	0.12	522812	keystroke_Key.enter	Key.enter	n/a
261.531	8.1865	523062	prompt	n/a	written works heath ryan\n
262.3355	0.09	524671	keystroke_w	w	n/a
262.576	0.075	525152	keystroke_r	r	n/a
262.726	0.075	525452	keystroke_i	i	n/a
262.861	0.045	525722	keystroke_t	t	n/a
262.966	0.075	525932	keystroke_t	t	n/a
263.191	0.09	526382	keystroke_e	e	n/a
263.296	0.09	526592	keystroke_n	n	n/a
263.521	0.06	527042	keystroke_Key.space	Key.space	n/a
263.776	0.075	527552	keystroke_w	w	n/a
263.866	0.075	527732	keystroke_o	o	n/a
263.986	0.075	527972	keystroke_r	r	n/a
264.256	0.09	528512	keystroke_k	k	n/a
264.436	0.075	528872	keystroke_s	s	n/a
264.571	0.0595	529142	keystroke_Key.space	Key.space	n/a
266.8975	0.001	533795	keystroke_h	h	n/a
266.9105	0.075	533821	keystroke_e	e	n/a
267.121	0.09	534242	keystroke_a	a	n/a
267.331	0.075	534662	keystroke_t	t	n/a
267.436	0.06	534872	keystroke_h	h	n/a
267.646	0.06	535292	keystroke_Key.space	Key.space	n/a
268.426	0.075	536852	keystroke_r	r	n/a
268.9655	0.06	537931	keystroke_y	y	n/a
269.1905	0.09	538381	keystroke_a	a	n/a
269.3255	0.075	538651	keystroke_n	n	n/a
269.6255	0.09	539251	keystroke_Key.enter	Key.enter	n/a
269.7205	8.337	539441	prompt	n/a	existed burn described power\n
270.6305	0.03	541261	keystroke_e	e	n/a
270.856	0.074	541712	keystroke_x	x	n/a
271.005	0.091	542010	keystroke_i	i	n/a
271.111	0.075	542222	keystroke_s	s	n/a
271.321	0.15	542642	keystroke_t	t	n/a
271.426	0.09	542852	keystroke_e	e	n/a
271.681	0.075	543362	keystroke_d	d	n/a
271.77	0.09	543540	keystroke_Key.space	Key.space	n/a
272.6255	0.18	545251	keystroke_b	b	n/a
272.7605	0.09	545521	keystroke_u	u	n/a
273.061	0.105	546122	keystroke_r	r	n/a
273.211	0.06	546422	keystroke_n	n	n/a
273.7055	0.06	547411	keystroke_Key.space	Key.space	n/a
274.411	0.045	548822	keystroke_d	d	n/a
274.576	0.06	549152	keystroke_e	e	n/a
275.071	0.0745	550142	keystroke_s	s	n/a
275.2505	0.0755	550501	keystroke_c	c	n/a
275.461	0.06	550922	keystroke_r	r	n/a
275.851	0.075	551702	keystroke_i	i	n/a
276.091	0.06	552182	keystroke_b	b	n/a
276.196	0.045	552392	keystroke_e	e	n/a
276.346	0.075	552692	keystroke_d	d	n/a
276.451	0.09	552902	keystroke_Key.space	Key.space	n/a
277.0955	0.135	554191	keystroke_p	p	n/a
277.2005	0.105	554401	keystroke_o	o	n/a
277.3505	0.075	554701	keystroke_w	w	n/a
277.5455	0.1205	555091	keystroke_e	e	n/a
277.6955	0.09	555391	keystroke_r	r	n/a
277.9655	0.0905	555931	keystroke_Key.enter	Key.enter	n/a
278.0605	6.642	556121	prompt	n/a	bennett elder stamp around\n
278.986	0.06	557972	keystroke_b	b	n/a
279.121	0.075	558242	keystroke_e	e	n/a
279.316	0.0445	558632	keystroke_n	n	n/a
279.4205	0.09	558841	keystroke_n	n	n/a
279.5705	0.09	559141	keystroke_e	e	n/a
280.186	0.075	560372	keystroke_t	t	n/a
280.336	0.105	560672	keystroke_t	t	n/a
280.6655	0.075	561331	keystroke_Key.space	Key.space	n/a
280.9805	0.06	561961	keystroke_e	e	n/a
281.101	0.075	562202	keystroke_l	l	n/a
281.355	0.045	562710	keystroke_d	d	n/a
281.521	0.12	563042	keystroke_e	e	n/a
281.61	0.091	563220	keystroke_r	r	n/a
281.775	0.06	563550	keystroke_Key.space	Key.space	n/a
282.241	0.075	564482	keystroke_s	s	n/a
282.481	0.03	564962	keystroke_t	t	n/a
282.615	0.105	565230	keystroke_a	a	n/a
282.751	0.059	565502	keystroke_m	m	n/a
282.93	0.105	565860	keystroke_p	p	n/a
283.17	0.075	566340	keystroke_Key.space	Key.space	n/a
283.561	0.075	567122	keystroke_a	a	n/a
283.741	0.044	567482	keystroke_r	r	n/a
283.8755	0.09	567751	keystroke_o	o	n/a
283.9355	0.09	567871	keystroke_u	u	n/a
284.1605	0.075	568321	keystroke_n	n	n/a
284.2955	0.075	568591	keystroke_d	d	n/a
284.626	0.075	569252	keystroke_Key.enter	Key.enter	n/a
284.708	7.6445	569416	prompt	n/a	diving charles who's trap\n
285.796	0.075	571592	keystroke_d	d	n/a
285.946	0.105	571892	keystroke_i	i	n/a
286.096	0.06	572192	keystroke_v	v	n/a
286.261	0.12	572522	keystroke_i	i	n/a
286.321	0.09	572642	keystroke_n	n	n/a
286.456	0.045	572912	keystroke_g	g	n/a
286.546	0.09	573092	keystroke_Key.space	Key.space	n/a
287.2955	0.075	574591	keystroke_c	c	n/a
287.4605	0.0755	574921	keystroke_h	h	n/a
287.581	0.075	575162	keystroke_a	a	n/a
287.776	0.06	575552	keystroke_r	r	n/a
287.896	0.1195	575792	keystroke_l	l	n/a
288.0305	0.06	576061	keystroke_e	e	n/a
288.2255	0.075	576451	keystroke_s	s	n/a
288.3305	0.105	576661	keystroke_Key.space	Key.space	n/a
289.185	0.0755	578370	keystroke_w	w	n/a
289.5005	0.075	579001	keystroke_h	h	n/a
289.6955	0.0755	579391	keystroke_o	o	n/a
290.401	0.09	580802	keystroke_'	'	n/a
290.596	0.0895	581192	keystroke_s	s	n/a
290.7455	0.075	581491	keystroke_Key.space	Key.space	n/a
291.391	0.075	582782	keystroke_t	t	n/a
291.556	0.09	583112	keystroke_r	r	n/a
291.781	0.09	583562	keystroke_a	a	n/a
291.886	0.1045	583772	keystroke_p	p	n/a
292.2605	0.09	584521	keystroke_Key.enter	Key.enter	n/a
292.356	10.241	584712	prompt	n/a	insulin magazines restaurants near\n
293.266	0.1045	586532	keystroke_i	i	n/a
293.5205	0.045	587041	keystroke_n	n	n/a
293.8355	0.075	587671	keystroke_s	s	n/a
293.9255	0.075	587851	keystroke_u	u	n/a
294.1205	0.105	588241	keystroke_l	l	n/a
294.4205	0.09	588841	keystroke_i	i	n/a
294.4805	0.105	588961	keystroke_n	n	n/a
294.735	0.076	589470	keystroke_Key.space	Key.space	n/a
295.246	0.045	590492	keystroke_m	m	n/a
295.396	0.089	590792	keystroke_a	a	n/a
295.696	0.045	591392	keystroke_g	g	n/a
295.876	0.075	591752	keystroke_a	a	n/a
296.3405	0.09	592681	keystroke_z	z	n/a
296.5205	0.09	593041	keystroke_i	i	n/a
296.7005	0.0895	593401	keystroke_n	n	n/a
296.8055	0.0745	593611	keystroke_e	e	n/a
297.016	0.075	594032	keystroke_s	s	n/a
297.121	0.075	594242	keystroke_Key.space	Key.space	n/a
297.7355	0.135	595471	keystroke_r	r	n/a
297.8255	0.075	595651	keystroke_e	e	n/a
298.0355	0.06	596071	keystroke_s	s	n/a
298.2455	0.045	596491	keystroke_t	t	n/a
298.3955	0.075	596791	keystroke_a	a	n/a
298.951	0.075	597902	keystroke_u	u	n/a
299.146	0.06	598292	keystroke_r	r	n/a
299.326	0.075	598652	keystroke_a	a	n/a
299.536	0.075	599072	keystroke_n	n	n/a
299.685	0.106	599370	keystroke_t	t	n/a
300.856	0.104	601712	keystroke_s	s	n/a
301.005	0.09	602010	keystroke_Key.space	Key.space	n/a
301.741	0.06	603482	keystroke_n	n	n/a
301.846	0.06	603692	keystroke_e	e	n/a
302.011	0.0895	604022	keystroke_a	a	n/a
302.2505	0.06	604501	keystroke_r	r	n/a
302.521	0.0745	605042	keystroke_Key.enter	Key.enter	n/a
302.601	10.4815	605202	prompt	n/a	civilization experience habitat char\n
303.45	0.09	606900	keystroke_c	c	n/a
303.7355	0.075	607471	keystroke_i	i	n/a
303.9165	0.059	607833	keystroke_v	v	n/a
304.0055	0.09	608011	keystroke_i	i	n/a
304.245	0.06	608490	keystroke_l	l	n/a
304.62	0.0755	609240	keystroke_i	i	n/a
305.0705	0.0905	610141	keystroke_z	z	n/a
305.266	0.089	610532	keystroke_a	a	n/a
305.491	0.06	610982	keystroke_t	t	n/a
305.611	0.135	611222	keystroke_i	i	n/a
305.671	0.12	611342	keystroke_o	o	n/a
305.896	0.075	611792	keystroke_n	n	n/a
306.106	0.075	612212	keystroke_Key.space	Key.space	n/a
306.796	0.045	613592	keystroke_e	e	n/a
307.021	0.06	614042	keystroke_x	x	n/a
307.141	0.105	614282	keystroke_p	p	n/a
307.381	0.06	614762	keystroke_e	e	n/a
307.681	0.075	615362	keystroke_r	r	n/a
308.161	0.105	616322	keystroke_i	i	n/a
308.3705	0.105	616741	keystroke_e	e	n/a
308.5505	0.06	617101	keystroke_n	n	n/a
308.7155	0.165	617431	keystroke_c	c	n/a
308.8205	0.15	617641	keystroke_e	e	n/a
309.076	0.09	618152	keystroke_Key.space	Key.space	n/a
310.081	0.06	620162	keystroke_h	h	n/a
310.276	0.09	620552	keystroke_a	a	n/a
310.711	0.075	621422	keystroke_b	b	n/a
310.921	0.105	621842	keystroke_i	i	n/a
311.146	0.075	622292	keystroke_t	t	n/a
311.311	0.135	622622	keystroke_a	a	n/a
311.431	0.09	622862	keystroke_t	t	n/a
311.596	0.105	623192	keystroke_Key.space	Key.space	n/a
312.211	0.075	624422	keystroke_c	c	n/a
312.376	0.075	624752	keystroke_h	h	n/a
312.466	0.09	624932	keystroke_a	a	n/a
312.631	0.104	625262	keystroke_r	r	n/a
312.976	0.104	625952	keystroke_Key.enter	Key.enter	n/a
313.088	7.1195	626176	prompt	n/a	avoiding make target asin\n
313.815	0.106	627630	keystroke_a	a	n/a
314.115	0.06	628230	keystroke_v	v	n/a
314.836	0.0745	629672	keystroke_o	o	n/a
315.0605	0.045	630121	keystroke_i	i	n/a
315.316	0.089	630632	keystroke_d	d	n/a
315.481	0.12	630962	keystroke_i	i	n/a
315.556	0.09	631112	keystroke_n	n	n/a
315.691	0.06	631382	keystroke_g	g	n/a
315.781	0.09	631562	keystroke_Key.space	Key.space	n/a
316.231	0.075	632462	keystroke_m	m	n/a
316.336	0.075	632672	keystroke_a	a	n/a
316.576	0.0895	633152	keystroke_k	k	n/a
316.6955	0.06	633391	keystroke_e	e	n/a
316.8155	0.09	633631	keystroke_Key.space	Key.space	n/a
317.1155	0.09	634231	keystroke_t	t	n/a
317.4005	0.12	634801	keystroke_a	a	n/a
317.5805	0.06	635161	keystroke_r	r	n/a
317.7755	0.075	635551	keystroke_g	g	n/a
317.9855	0.09	635971	keystroke_e	e	n/a
318.0305	0.105	636061	keystroke_t	t	n/a
318.165	0.09	636330	keystroke_Key.space	Key.space	n/a
318.48	0.091	636960	keystroke_a	a	n/a
319.1555	0.09	638311	keystroke_s	s	n/a
319.3655	0.135	638731	keystroke_i	i	n/a
319.4705	0.09	638941	keystroke_n	n	n/a
320.0855	0.12	640171	keystroke_Key.enter	Key.enter	n/a
320.2105	7.7965	640421	prompt	n/a	poor indiana senators bidder\n
320.926	0.09	641852	keystroke_p	p	n/a
321.166	0.045	642332	keystroke_o	o	n/a
321.271	0.105	642542	keystroke_o	o	n/a
321.541	0.09	643082	keystroke_r	r	n/a
321.69	0.076	643380	keystroke_Key.space	Key.space	n/a
322.0655	0.105	644131	keystroke_i	i	n/a
322.1105	0.105	644221	keystroke_n	n	n/a
322.5455	0.045	645091	keystroke_d	d	n/a
322.6205	0.09	645241	keystroke_i	i	n/a
322.7255	0.09	645451	keystroke_a	a	n/a
322.8755	0.075	645751	keystroke_n	n	n/a
323.25	0.09	646500	keystroke_a	a	n/a
323.43	0.12	646860	keystroke_Key.space	Key.space	n/a
324.03	0.045	648060	keystroke_s	s	n/a
324.21	0.075	648420	keystroke_e	e	n/a
324.316	0.059	648632	keystroke_n	n	n/a
324.42	0.091	648840	keystroke_a	a	n/a
324.645	0.0605	649290	keystroke_t	t	n/a
324.7655	0.105	649531	keystroke_o	o	n/a
324.9905	0.045	649981	keystroke_r	r	n/a
325.215	0.075	650430	keystroke_s	s	n/a
325.395	0.09	650790	keystroke_Key.space	Key.space	n/a
326.46	0.06	652920	keystroke_b	b	n/a
326.836	0.06	653672	keystroke_i	i	n/a
327.121	0.0445	654242	keystroke_d	d	n/a
327.2255	0.06	654451	keystroke_d	d	n/a
327.4205	0.12	654841	keystroke_e	e	n/a
327.5105	0.075	655021	keystroke_r	r	n/a
327.9305	0.0755	655861	keystroke_Key.enter	Key.enter	n/a
328.01	12.8525	656020	prompt	n/a	equilibrium gauge nurse voyuer\n
329.086	0.0445	658172	keystroke_e	e	n/a
329.5205	0.09	659041	keystroke_q	q	n/a
329.7305	0.09	659461	keystroke_u	u	n/a
329.9405	0.09	659881	keystroke_i	i	n/a
330.2105	0.0745	660421	keystroke_l	l	n/a
330.465	0.075	660930	keystroke_i	i	n/a
330.7805	0.06	661561	keystroke_b	b	n/a
331.006	0.0745	662012	keystroke_r	r	n/a
331.156	0.105	662312	keystroke_i	i	n/a
331.516	0.074	663032	keystroke_u	u	n/a
331.816	0.06	663632	keystroke_m	m	n/a
332.04	0.075	664080	keystroke_Key.space	Key.space	n/a
332.746	0.075	665492	keystroke_g	g	n/a
332.941	0.104	665882	keystroke_a	a	n/a
333.151	0.075	666302	keystroke_u	u	n/a
333.346	0.045	666692	keystroke_g	g	n/a
333.571	0.09	667142	keystroke_e	e	n/a
333.765	0.061	667530	keystroke_Key.space	Key.space	n/a
335.071	0.06	670142	keystroke_n	n	n/a
335.326	0.09	670652	keystroke_u	u	n/a
335.521	0.06	671042	keystroke_r	r	n/a
335.761	0.06	671522	keystroke_s	s	n/a
335.956	0.06	671912	keystroke_e	e	n/a
336.06	0.091	672120	keystroke_Key.space	Key.space	n/a
336.7955	0.06	673591	keystroke_v	v	n/a
337.1555	0.09	674311	keystroke_o	o	n/a
337.4255	0.09	674851	keystroke_y	y	n/a
339.978	0.013	679956	keystroke_u	u	n/a
340.051	0.0895	680102	keystroke_e	e	n/a
340.276	0.09	680552	keystroke_r	r	n/a
340.786	0.075	681572	keystroke_Key.enter	Key.enter	n/a
340.866	8.7715	681732	prompt	n/a	registrar judy claim tutorial\n
341.8055	0.12	683611	keystroke_r	r	n/a
341.9855	0.09	683971	keystroke_e	e	n/a
342.1955	0.09	684391	keystroke_g	g	n/a
342.3905	0.105	684781	keystroke_i	i	n/a
342.5705	0.06	685141	keystroke_s	s	n/a
342.7505	0.06	685501	keystroke_t	t	n/a
342.9305	0.06	685861	keystroke_r	r	n/a
343.1405	0.09	686281	keystroke_a	a	n/a
343.3355	0.09	686671	keystroke_r	r	n/a
343.6655	0.075	687331	keystroke_Key.space	Key.space	n/a
344.3705	0.06	688741	keystroke_j	j	n/a
344.5655	0.0905	689131	keystroke_u	u	n/a
344.791	0.09	689582	keystroke_d	d	n/a
345.046	0.09	690092	keystroke_y	y	n/a
345.165	0.076	690330	keystroke_Key.space	Key.space	n/a
346.216	0.06	692432	keystroke_c	c	n/a
346.396	0.09	692792	keystroke_l	l	n/a
346.531	0.075	693062	keystroke_a	a	n/a
346.741	0.015	693482	keystroke_i	i	n/a
346.876	0.075	693752	keystroke_m	m	n/a
347.07	0.075	694140	keystroke_Key.space	Key.space	n/a
347.791	0.1045	695582	keystroke_t	t	n/a
348.1055	0.075	696211	keystroke_u	u	n/a
348.286	0.075	696572	keystroke_t	t	n/a
348.45	0.091	696900	keystroke_o	o	n/a
348.631	0.075	697262	keystroke_r	r	n/a
348.721	0.09	697442	keystroke_i	i	n/a
348.856	0.135	697712	keystroke_a	a	n/a
348.976	0.09	697952	keystroke_l	l	n/a
349.561	0.075	699122	keystroke_Key.enter	Key.enter	n/a
349.6405	8.157	699281	prompt	n/a	documented brakes presenting welding\n
350.701	0.06	701402	keystroke_d	d	n/a
350.956	0.06	701912	keystroke_o	o	n/a
351.196	0.075	702392	keystroke_c	c	n/a
351.346	0.075	702692	keystroke_u	u	n/a
351.571	0.06	703142	keystroke_m	m	n/a
351.721	0.045	703442	keystroke_e	e	n/a
351.796	0.075	703592	keystroke_n	n	n/a
351.916	0.1045	703832	keystroke_t	t	n/a
352.1255	0.06	704251	keystroke_e	e	n/a
352.3055	0.09	704611	keystroke_d	d	n/a
352.4105	0.075	704821	keystroke_Key.space	Key.space	n/a
353.1455	0.045	706291	keystroke_b	b	n/a
353.2055	0.075	706411	keystroke_r	r	n/a
353.401	0.089	706802	keystroke_a	a	n/a
353.521	0.09	707042	keystroke_k	k	n/a
353.671	0.044	707342	keystroke_e	e	n/a
353.85	0.076	707700	keystroke_s	s	n/a
353.941	0.074	707882	keystroke_Key.space	Key.space	n/a
354.346	0.09	708692	keystroke_p	p	n/a
354.691	0.104	709382	keystroke_r	r	n/a
354.766	0.06	709532	keystroke_e	e	n/a
354.931	0.06	709862	keystroke_s	s	n/a
355.096	0.075	710192	keystroke_e	e	n/a
355.231	0.075	710462	keystroke_n	n	n/a
355.35	0.0605	710700	keystroke_t	t	n/a
355.4855	0.12	710971	keystroke_i	i	n/a
355.5605	0.075	711121	keystroke_n	n	n/a
355.6505	0.06	711301	keystroke_g	g	n/a
355.7555	0.09	711511	keystroke_Key.space	Key.space	n/a
356.4605	0.045	712921	keystroke_w	w	n/a
356.6705	0.045	713341	keystroke_e	e	n/a
356.7605	0.105	713521	keystroke_l	l	n/a
356.8805	0.075	713761	keystroke_d	d	n/a
357.1055	0.135	714211	keystroke_i	i	n/a
357.1805	0.09	714361	keystroke_n	n	n/a
357.2715	0.074	714543	keystroke_g	g	n/a
357.721	0.075	715442	keystroke_Key.enter	Key.enter	n/a
357.8005	10.0465	715601	prompt	n/a	forest bloomberg welfare privacy\n
359.116	0.06	718232	keystroke_f	f	n/a
359.206	0.075	718412	keystroke_o	o	n/a
359.326	0.06	718652	keystroke_r	r	n/a
359.551	0.105	719102	keystroke_e	e	n/a
359.896	0.09	719792	keystroke_s	s	n/a
360.346	0.06	720692	keystroke_t	t	n/a
360.48	0.076	720960	keystroke_Key.space	Key.space	n/a
361.261	0.075	722522	keystroke_b	b	n/a
361.501	0.1045	723002	keystroke_l	l	n/a
361.7855	0.03	723571	keystroke_o	o	n/a
361.9205	0.075	723841	keystroke_o	o	n/a
362.1005	0.06	724201	keystroke_m	m	n/a
362.4155	0.075	724831	keystroke_b	b	n/a
362.5505	0.135	725101	keystroke_e	e	n/a
362.6405	0.09	725281	keystroke_r	r	n/a
362.8955	0.075	725791	keystroke_g	g	n/a
363.0605	0.06	726121	keystroke_Key.space	Key.space	n/a
363.735	0.075	727470	keystroke_w	w	n/a
363.9	0.06	727800	keystroke_e	e	n/a
364.155	0.046	728310	keystroke_l	l	n/a
364.4405	0.045	728881	keystroke_f	f	n/a
364.6205	0.075	729241	keystroke_a	a	n/a
364.8455	0.135	729691	keystroke_r	r	n/a
364.9355	0.105	729871	keystroke_e	e	n/a
365.1455	0.075	730291	keystroke_Key.space	Key.space	n/a
365.8805	0.09	731761	keystroke_p	p	n/a
366.0905	0.06	732181	keystroke_r	r	n/a
366.2105	0.09	732421	keystroke_i	i	n/a
366.421	0.059	732842	keystroke_v	v	n/a
366.585	0.091	733170	keystroke_a	a	n/a
367.111	0.075	734222	keystroke_c	c	n/a
367.396	0.075	734792	keystroke_y	y	n/a
367.771	0.075	735542	keystroke_Key.enter	Key.enter	n/a
367.8505	9.282	735701	prompt	n/a	patent specialist partnership calm\n
368.9705	0.06	737941	keystroke_p	p	n/a
369.0755	0.105	738151	keystroke_a	a	n/a
369.3155	0.045	738631	keystroke_t	t	n/a
369.5105	0.075	739021	keystroke_e	e	n/a
369.6455	0.075	739291	keystroke_n	n	n/a
369.7955	0.075	739591	keystroke_t	t	n/a
370.0655	0.075	740131	keystroke_Key.space	Key.space	n/a
370.5605	0.06	741121	keystroke_s	s	n/a
370.6505	0.09	741301	keystroke_p	p	n/a
370.9355	0.075	741871	keystroke_e	e	n/a
371.1605	0.09	742321	keystroke_c	c	n/a
371.2805	0.09	742561	keystroke_i	i	n/a
371.3855	0.09	742771	keystroke_a	a	n/a
371.5955	0.075	743191	keystroke_l	l	n/a
371.8205	0.075	743641	keystroke_i	i	n/a
372.0005	0.075	744001	keystroke_s	s	n/a
372.1505	0.09	744301	keystroke_t	t	n/a
372.2705	0.06	744541	keystroke_Key.space	Key.space	n/a
373.0655	0.105	746131	keystroke_p	p	n/a
373.2605	0.135	746521	keystroke_a	a	n/a
373.3805	0.06	746761	keystroke_r	r	n/a
373.5605	0.06	747121	keystroke_t	t	n/a
373.6955	0.075	747391	keystroke_n	n	n/a
373.8305	0.09	747661	keystroke_e	e	n/a
374.1305	0.045	748261	keystroke_r	r	n/a
374.3255	0.075	748651	keystroke_s	s	n/a
374.7	0.105	749400	keystroke_h	h	n/a
374.76	0.12	749520	keystroke_i	i	n/a
375.03	0.076	750060	keystroke_p	p	n/a
375.48	0.075	750960	keystroke_Key.space	Key.space	n/a
375.945	0.06	751890	keystroke_c	c	n/a
376.38	0.075	752760	keystroke_a	a	n/a
376.56	0.106	753120	keystroke_l	l	n/a
376.7405	0.0755	753481	keystroke_m	m	n/a
377.041	0.09	754082	keystroke_Key.enter	Key.enter	n/a
377.136	6.5965	754272	prompt	n/a	refer high lenses getting\n
377.8955	0.12	755791	keystroke_r	r	n/a
377.9705	0.09	755941	keystroke_e	e	n/a
378.1655	0.06	756331	keystroke_f	f	n/a
378.331	0.075	756662	keystroke_e	e	n/a
378.451	0.09	756902	keystroke_r	r	n/a
378.616	0.09	757232	keystroke_Key.space	Key.space	n/a
379.141	0.045	758282	keystroke_h	h	n/a
379.2755	0.09	758551	keystroke_i	i	n/a
379.4105	0.075	758821	keystroke_g	g	n/a
379.4855	0.075	758971	keystroke_h	h	n/a
379.696	0.075	759392	keystroke_Key.space	Key.space	n/a
380.761	0.075	761522	keystroke_l	l	n/a
380.956	0.045	761912	keystroke_e	e	n/a
381.136	0.075	762272	keystroke_n	n	n/a
381.301	0.06	762602	keystroke_s	s	n/a
381.481	0.045	762962	keystroke_e	e	n/a
381.646	0.06	763292	keystroke_s	s	n/a
381.766	0.075	763532	keystroke_Key.space	Key.space	n/a
382.9205	0.075	765841	keystroke_g	g	n/a
383.0105	0.015	766021	keystroke_e	e	n/a
383.0405	0.03	766081	keystroke_t	t	n/a
383.1455	0.075	766291	keystroke_t	t	n/a
383.2215	0.149	766443	keystroke_i	i	n/a
383.2955	0.105	766591	keystroke_n	n	n/a
383.3855	0.075	766771	keystroke_g	g	n/a
383.6255	0.105	767251	keystroke_Key.enter	Key.enter	n/a
383.738	10.764	767476	prompt	n/a	humanitarian ones endorsement minimal\n
384.7055	0.06	769411	keystroke_h	h	n/a
384.9005	0.06	769801	keystroke_u	u	n/a
385.1105	0.06	770221	keystroke_m	m	n/a
385.2755	0.09	770551	keystroke_a	a	n/a
385.7705	0.075	771541	keystroke_n	n	n/a
386.056	0.09	772112	keystroke_i	i	n/a
386.206	0.09	772412	keystroke_t	t	n/a
386.385	0.091	772770	keystroke_a	a	n/a
386.596	0.06	773192	keystroke_r	r	n/a
386.731	0.075	773462	keystroke_i	i	n/a
386.941	0.075	773882	keystroke_a	a	n/a
387.046	0.075	774092	keystroke_n	n	n/a
387.241	0.075	774482	keystroke_Key.space	Key.space	n/a
387.511	0.09	775022	keystroke_o	o	n/a
387.721	0.09	775442	keystroke_n	n	n/a
387.841	0.075	775682	keystroke_e	e	n/a
388.051	0.06	776102	keystroke_s	s	n/a
388.141	0.09	776282	keystroke_Key.space	Key.space	n/a
388.8	0.0905	777600	keystroke_e	e	n/a
389.0705	0.06	778141	keystroke_n	n	n/a
389.4755	0.06	778951	keystroke_d	d	n/a
390.1055	0.0905	780211	keystroke_o	o	n/a
390.526	0.12	781052	keystroke_r	r	n/a
391.0205	0.06	782041	keystroke_s	s	n/a
391.2155	0.06	782431	keystroke_e	e	n/a
391.3805	0.105	782761	keystroke_m	m	n/a
391.561	0.09	783122	keystroke_e	e	n/a
391.666	0.075	783332	keystroke_n	n	n/a
391.801	0.105	783602	keystroke_t	t	n/a
392.3555	0.075	784711	keystroke_Key.space	Key.space	n/a
392.971	0.06	785942	keystroke_m	m	n/a
393.166	0.09	786332	keystroke_i	i	n/a
393.271	0.075	786542	keystroke_n	n	n/a
393.436	0.09	786872	keystroke_i	i	n/a
393.616	0.075	787232	keystroke_m	m	n/a
393.781	0.105	787562	keystroke_a	a	n/a
393.871	0.135	787742	keystroke_l	l	n/a
394.4255	0.075	788851	keystroke_Key.enter	Key.enter	n/a
394.505	10.9475	789010	prompt	n/a	amsterdam investments harley french\n
395.326	0.119	790652	keystroke_a	a	n/a
395.521	0.06	791042	keystroke_m	m	n/a
395.685	0.06	791370	keystroke_s	s	n/a
395.881	0.075	791762	keystroke_t	t	n/a
396.031	0.15	792062	keystroke_e	e	n/a
396.135	0.091	792270	keystroke_r	r	n/a
396.3755	0.12	792751	keystroke_d	d	n/a
396.7205	0.105	793441	keystroke_a	a	n/a
396.8555	0.09	793711	keystroke_m	m	n/a
397.1255	0.105	794251	keystroke_Key.space	Key.space	n/a
398.5655	0.105	797131	keystroke_i	i	n/a
398.6255	0.09	797251	keystroke_n	n	n/a
398.956	0.044	797912	keystroke_v	v	n/a
399.105	0.06	798210	keystroke_e	e	n/a
399.3	0.045	798600	keystroke_s	s	n/a
399.466	0.044	798932	keystroke_t	t	n/a
399.555	0.09	799110	keystroke_m	m	n/a
399.81	0.12	799620	keystroke_e	e	n/a
399.945	0.09	799890	keystroke_n	n	n/a
400.26	0.045	800520	keystroke_t	t	n/a
400.575	0.045	801150	keystroke_s	s	n/a
400.74	0.075	801480	keystroke_Key.space	Key.space	n/a
401.896	0.06	803792	keystroke_h	h	n/a
401.971	0.0745	803942	keystroke_a	a	n/a
402.1805	0.0605	804361	keystroke_r	r	n/a
402.271	0.1195	804542	keystroke_l	l	n/a
402.3755	0.075	804751	keystroke_e	e	n/a
402.5855	0.0895	805171	keystroke_y	y	n/a
402.72	0.075	805440	keystroke_Key.space	Key.space	n/a
403.6805	0.03	807361	keystroke_f	f	n/a
403.831	0.06	807662	keystroke_r	r	n/a
404.01	0.061	808020	keystroke_e	e	n/a
404.115	0.09	808230	keystroke_n	n	n/a
404.431	0.09	808862	keystroke_c	c	n/a
404.551	0.09	809102	keystroke_h	h	n/a
404.985	0.06	809970	keystroke_Key.space	Key.space	n/a
405.36	0.09	810720	keystroke_Key.enter	Key.enter	n/a
405.456	6.221	810912	prompt	n/a	contract issued wifi female\n
406.365	0.06	812730	keystroke_c	c	n/a
406.485	0.121	812970	keystroke_o	o	n/a
406.59	0.091	813180	keystroke_n	n	n/a
406.711	0.0595	813422	keystroke_t	t	n/a
406.8755	0.075	813751	keystroke_r	r	n/a
407.0855	0.1505	814171	keystroke_a	a	n/a
407.161	0.09	814322	keystroke_c	c	n/a
407.4005	0.075	814801	keystroke_t	t	n/a
407.5055	0.075	815011	keystroke_Key.space	Key.space	n/a
407.7005	0.09	815401	keystroke_i	i	n/a
407.8505	0.06	815701	keystroke_s	s	n/a
407.9555	0.075	815911	keystroke_s	s	n/a
408.0455	0.105	816091	keystroke_u	u	n/a
408.1655	0.045	816331	keystroke_e	e	n/a
408.3305	0.075	816661	keystroke_d	d	n/a
408.4205	0.09	816841	keystroke_Key.space	Key.space	n/a
409.1255	0.075	818251	keystroke_w	w	n/a
409.2155	0.105	818431	keystroke_i	i	n/a
409.5755	0.06	819151	keystroke_f	f	n/a
409.6655	0.09	819331	keystroke_i	i	n/a
409.8755	0.09	819751	keystroke_Key.space	Key.space	n/a
410.4905	0.06	820981	keystroke_f	f	n/a
410.5805	0.09	821161	keystroke_e	e	n/a
410.7605	0.06	821521	keystroke_m	m	n/a
410.8655	0.09	821731	keystroke_a	a	n/a
411.1505	0.09	822301	keystroke_l	l	n/a
411.2555	0.045	822511	keystroke_e	e	n/a
411.5855	0.09	823171	keystroke_Key.enter	Key.enter	n/a
411.6805	6.9265	823361	prompt	n/a	introduce users velvet york\n
412.336	0.135	824672	keystroke_i	i	n/a
412.426	0.089	824852	keystroke_n	n	n/a
412.636	0.045	825272	keystroke_t	t	n/a
412.771	0.074	825542	keystroke_r	r	n/a
412.951	0.105	825902	keystroke_o	o	n/a
413.236	0.09	826472	keystroke_d	d	n/a
413.37	0.091	826740	keystroke_u	u	n/a
413.475	0.075	826950	keystroke_c	c	n/a
413.715	0.06	827430	keystroke_e	e	n/a
413.85	0.09	827700	keystroke_Key.space	Key.space	n/a
414.3	0.09	828600	keystroke_u	u	n/a
414.405	0.075	828810	keystroke_s	s	n/a
414.6	0.075	829200	keystroke_e	e	n/a
414.855	0.061	829710	keystroke_r	r	n/a
415.02	0.075	830040	keystroke_s	s	n/a
415.17	0.105	830340	keystroke_Key.space	Key.space	n/a
415.65	0.045	831300	keystroke_v	v	n/a
415.815	0.075	831630	keystroke_e	e	n/a
416.04	0.105	832080	keystroke_l	l	n/a
416.235	0.06	832470	keystroke_v	v	n/a
416.415	0.045	832830	keystroke_e	e	n/a
416.5955	0.0745	833191	keystroke_t	t	n/a
416.715	0.075	833430	keystroke_Key.space	Key.space	n/a
417.405	0.075	834810	keystroke_y	y	n/a
417.66	0.09	835320	keystroke_o	o	n/a
418.1555	0.075	836311	keystroke_r	r	n/a
418.2455	0.09	836491	keystroke_k	k	n/a
418.5155	0.09	837031	keystroke_Key.enter	Key.enter	n/a
418.61	9.927	837220	prompt	n/a	calvin clocks comfortable yourself\n
419.6255	0.06	839251	keystroke_c	c	n/a
419.7755	0.09	839551	keystroke_a	a	n/a
419.8965	0.104	839793	keystroke_l	l	n/a
420.526	0.075	841052	keystroke_v	v	n/a
420.676	0.105	841352	keystroke_i	i	n/a
421.02	0.06	842040	keystroke_n	n	n/a
421.26	0.06	842520	keystroke_Key.space	Key.space	n/a
422.221	0.105	844442	keystroke_c	c	n/a
422.506	0.06	845012	keystroke_l	l	n/a
422.9105	0.06	845821	keystroke_o	o	n/a
423.1505	0.075	846301	keystroke_c	c	n/a
423.331	0.12	846662	keystroke_k	k	n/a
423.526	0.075	847052	keystroke_s	s	n/a
423.615	0.075	847230	keystroke_Key.space	Key.space	n/a
424.1555	0.09	848311	keystroke_c	c	n/a
424.2905	0.105	848581	keystroke_o	o	n/a
424.8005	0.045	849601	keystroke_m	m	n/a
425.0555	0.06	850111	keystroke_f	f	n/a
425.1455	0.09	850291	keystroke_o	o	n/a
425.2205	0.075	850441	keystroke_r	r	n/a
425.4005	0.06	850801	keystroke_t	t	n/a
425.596	0.104	851192	keystroke_a	a	n/a
425.685	0.076	851370	keystroke_b	b	n/a
425.866	0.119	851732	keystroke_l	l	n/a
426	0.046	852000	keystroke_e	e	n/a
426.645	0.075	853290	keystroke_Key.space	Key.space	n/a
427.0055	0.075	854011	keystroke_y	y	n/a
427.1105	0.105	854221	keystroke_o	o	n/a
427.1555	0.105	854311	keystroke_u	u	n/a
427.3055	0.045	854611	keystroke_r	r	n/a
427.7705	0.015	855541	keystroke_s	s	n/a
427.9055	0.075	855811	keystroke_e	e	n/a
427.9955	0.105	855991	keystroke_l	l	n/a
428.1305	0.0905	856261	keystroke_f	f	n/a
428.461	0.075	856922	keystroke_Key.enter	Key.enter	n/a
428.5405	10.512	857081	prompt	n/a	sponsorship cingular specification reduction\n
429.3455	0.06	858691	keystroke_s	s	n/a
429.5105	0.09	859021	keystroke_p	p	n/a
429.7055	0.06	859411	keystroke_o	o	n/a
429.9455	0.06	859891	keystroke_n	n	n/a
430.1405	0.075	860281	keystroke_s	s	n/a
430.4255	0.075	860851	keystroke_o	o	n/a
430.606	0.06	861212	keystroke_r	r	n/a
430.891	0.06	861782	keystroke_s	s	n/a
430.996	0.0895	861992	keystroke_h	h	n/a
431.1155	0.105	862231	keystroke_i	i	n/a
431.4755	0.105	862951	keystroke_p	p	n/a
431.7605	0.075	863521	keystroke_Key.space	Key.space	n/a
432.616	0.075	865232	keystroke_c	c	n/a
432.811	0.075	865622	keystroke_i	i	n/a
433.021	0.06	866042	keystroke_n	n	n/a
433.186	0.06	866372	keystroke_g	g	n/a
433.321	0.104	866642	keystroke_u	u	n/a
433.56	0.091	867120	keystroke_l	l	n/a
433.86	0.03	867720	keystroke_a	a	n/a
433.875	0.045	867750	keystroke_r	r	n/a
434.07	0.045	868140	keystroke_Key.space	Key.space	n/a
434.476	0.059	868952	keystroke_s	s	n/a
434.58	0.1055	869160	keystroke_p	p	n/a
434.6705	0.09	869341	keystroke_e	e	n/a
434.8355	0.09	869671	keystroke_c	c	n/a
434.9105	0.09	869821	keystroke_i	i	n/a
435.0305	0.075	870061	keystroke_f	f	n/a
435.0905	0.105	870181	keystroke_i	i	n/a
435.2105	0.1055	870421	keystroke_c	c	n/a
435.436	0.075	870872	keystroke_a	a	n/a
435.646	0.06	871292	keystroke_t	t	n/a
435.781	0.12	871562	keystroke_i	i	n/a
435.871	0.09	871742	keystroke_o	o	n/a
436.051	0.075	872102	keystroke_n	n	n/a
436.186	0.075	872372	keystroke_s	s	n/a
436.291	0.075	872582	keystroke_Key.space	Key.space	n/a
437.4905	0.12	874981	keystroke_r	r	n/a
437.5655	0.09	875131	keystroke_e	e	n/a
437.7905	0.075	875581	keystroke_d	d	n/a
437.9255	0.09	875851	keystroke_u	u	n/a
438.0605	0.09	876121	keystroke_c	c	n/a
438.2855	0.075	876571	keystroke_t	t	n/a
438.3755	0.105	876751	keystroke_i	i	n/a
438.4355	0.12	876871	keystroke_o	o	n/a
438.631	0.09	877262	keystroke_n	n	n/a
438.976	0.075	877952	keystroke_Key.enter	Key.enter	n/a
439.0555	9.912	878111	prompt	n/a	chen bits quality book\n
440.1155	0.075	880231	keystroke_c	c	n/a
440.3105	0.06	880621	keystroke_h	h	n/a
440.4755	0.06	880951	keystroke_e	e	n/a
440.5805	0.0605	881161	keystroke_n	n	n/a
440.791	0.075	881582	keystroke_Key.space	Key.space	n/a
441.5255	0.09	883051	keystroke_b	b	n/a
441.7805	0.09	883561	keystroke_i	i	n/a
442.021	0.06	884042	keystroke_t	t	n/a
442.231	0.09	884462	keystroke_s	s	n/a
442.351	0.09	884702	keystroke_Key.space	Key.space	n/a
443.266	0.09	886532	keystroke_q	q	n/a
443.521	0.075	887042	keystroke_u	u	n/a
443.656	0.0895	887312	keystroke_a	a	n/a
443.7905	0.09	887581	keystroke_l	l	n/a
444.0155	0.045	888031	keystroke_t	t	n/a
444.1205	0.105	888241	keystroke_i	i	n/a
444.4655	0.045	888931	keystroke_Key.backspace	Key.backspace	n/a
444.6155	0.09	889231	keystroke_Key.backspace	Key.backspace	n/a
444.8705	0.09	889741	keystroke_i	i	n/a
445.0805	0.075	890161	keystroke_t	t	n/a
445.2905	0.09	890581	keystroke_y	y	n/a
445.5005	0.075	891001	keystroke_Key.space	Key.space	n/a
446.4305	0.075	892861	keystroke_b	b	n/a
446.6705	0.06	893341	keystroke_i	i	n/a
447.1955	0.075	894391	keystroke_Key.backspace	Key.backspace	n/a
448.0505	0.045	896101	keystroke_o	o	n/a
448.2755	0.015	896551	keystroke_o	o	n/a
448.3205	0.09	896641	keystroke_k	k	n/a
448.9055	0.06	897811	keystroke_Key.enter	Key.enter	n/a
448.9705	10.0915	897941	prompt	n/a	xhtml symbol frequent captain\n
450.3305	0.075	900661	keystroke_x	x	n/a
450.6605	0.09	901321	keystroke_h	h	n/a
450.8405	0.075	901681	keystroke_t	t	n/a
451.0205	0.06	902041	keystroke_m	m	n/a
451.4555	0.1055	902911	keystroke_l	l	n/a
451.696	0.075	903392	keystroke_Key.space	Key.space	n/a
452.2505	0.075	904501	keystroke_s	s	n/a
452.6405	0.075	905281	keystroke_y	y	n/a
452.8805	0.09	905761	keystroke_m	m	n/a
453.1205	0.075	906241	keystroke_b	b	n/a
453.5855	0.105	907171	keystroke_o	o	n/a
454.366	0.06	908732	keystroke_l	l	n/a
454.606	0.045	909212	keystroke_Key.space	Key.space	n/a
455.056	0.0445	910112	keystroke_g	g	n/a
455.4005	0.075	910801	keystroke_Key.backspace	Key.backspace	n/a
455.4905	0.06	910981	keystroke_f	f	n/a
455.686	0.105	911372	keystroke_r	r	n/a
455.836	0.075	911672	keystroke_e	e	n/a
456.421	0.075	912842	keystroke_q	q	n/a
456.616	0.06	913232	keystroke_u	u	n/a
456.751	0.075	913502	keystroke_e	e	n/a
456.856	0.09	913712	keystroke_n	n	n/a
457.006	0.045	914012	keystroke_t	t	n/a
457.156	0.09	914312	keystroke_Key.space	Key.space	n/a
457.891	0.045	915782	keystroke_c	c	n/a
457.966	0.1045	915932	keystroke_a	a	n/a
458.0855	0.105	916171	keystroke_p	p	n/a
458.2955	0.045	916591	keystroke_t	t	n/a
458.431	0.09	916862	keystroke_a	a	n/a
458.536	0.1495	917072	keystroke_i	i	n/a
458.6555	0.075	917311	keystroke_n	n	n/a
458.9555	0.105	917911	keystroke_Key.enter	Key.enter	n/a
459.065	7.947	918130	prompt	n/a	nutten here notebooks clause\n
459.8555	0.06	919711	keystroke_n	n	n/a
460.0805	0.075	920161	keystroke_u	u	n/a
460.3355	0.045	920671	keystroke_t	t	n/a
460.4405	0.075	920881	keystroke_t	t	n/a
460.636	0.074	921272	keystroke_e	e	n/a
460.755	0.045	921510	keystroke_n	n	n/a
460.95	0.075	921900	keystroke_Key.space	Key.space	n/a
461.7905	0.075	923581	keystroke_h	h	n/a
461.8955	0.105	923791	keystroke_e	e	n/a
462.0755	0.06	924151	keystroke_r	r	n/a
462.2405	0.075	924481	keystroke_e	e	n/a
462.3455	0.09	924691	keystroke_Key.space	Key.space	n/a
462.93	0.06	925860	keystroke_n	n	n/a
463.14	0.075	926280	keystroke_o	o	n/a
463.365	0.105	926730	keystroke_t	t	n/a
463.44	0.12	926880	keystroke_e	e	n/a
463.905	0.09	927810	keystroke_b	b	n/a
464.145	0.045	928290	keystroke_o	o	n/a
464.31	0.075	928620	keystroke_o	o	n/a
464.49	0.105	928980	keystroke_k	k	n/a
464.791	0.075	929582	keystroke_s	s	n/a
464.986	0.06	929972	keystroke_Key.space	Key.space	n/a
465.721	0.0745	931442	keystroke_c	c	n/a
465.841	0.0895	931682	keystroke_l	l	n/a
465.946	0.09	931892	keystroke_a	a	n/a
466.3505	0.09	932701	keystroke_u	u	n/a
466.4555	0.06	932911	keystroke_s	s	n/a
466.636	0.075	933272	keystroke_e	e	n/a
466.9205	0.09	933841	keystroke_Key.enter	Key.enter	n/a
467.015	8.5325	934030	prompt	n/a	lawyer minus emerging ranges\n
467.7755	0.075	935551	keystroke_l	l	n/a
467.8655	0.105	935731	keystroke_a	a	n/a
468.4205	0.045	936841	keystroke_w	w	n/a
469.246	0.075	938492	keystroke_y	y	n/a
469.441	0.105	938882	keystroke_e	e	n/a
469.651	0.105	939302	keystroke_r	r	n/a
469.816	0.075	939632	keystroke_Key.space	Key.space	n/a
470.191	0.12	940382	keystroke_m	m	n/a
470.296	0.135	940592	keystroke_i	i	n/a
470.446	0.165	940892	keystroke_n	n	n/a
470.626	0.12	941252	keystroke_u	u	n/a
470.911	0.075	941822	keystroke_s	s	n/a
471.031	0.105	942062	keystroke_Key.space	Key.space	n/a
471.8705	0.06	943741	keystroke_e	e	n/a
472.1105	0.03	944221	keystroke_m	m	n/a
472.3655	0.09	944731	keystroke_e	e	n/a
472.4855	0.075	944971	keystroke_r	r	n/a
472.696	0.075	945392	keystroke_g	g	n/a
472.816	0.06	945632	keystroke_i	i	n/a
473.176	0.1195	946352	keystroke_n	n	n/a
473.43	0.106	946860	keystroke_g	g	n/a
473.625	0.09	947250	keystroke_Key.space	Key.space	n/a
474.3905	0.075	948781	keystroke_r	r	n/a
474.5555	0.105	949111	keystroke_a	a	n/a
474.6455	0.075	949291	keystroke_n	n	n/a
474.8105	0.075	949621	keystroke_g	g	n/a
474.9755	0.06	949951	keystroke_e	e	n/a
475.1705	0.075	950341	keystroke_s	s	n/a
475.4405	0.105	950881	keystroke_Key.enter	Key.enter	n/a
475.5505	9.4615	951101	prompt	n/a	injured yamaha anticipated elegant\n
476.61	0.09	953220	keystroke_i	i	n/a
476.76	0.0905	953520	keystroke_n	n	n/a
476.9855	0.06	953971	keystroke_j	j	n/a
477.1805	0.09	954361	keystroke_u	u	n/a
477.4655	0.165	954931	keystroke_r	r	n/a
477.57	0.1205	955140	keystroke_e	e	n/a
477.8105	0.09	955621	keystroke_d	d	n/a
477.96	0.045	955920	keystroke_Key.space	Key.space	n/a
478.8305	0.075	957661	keystroke_y	y	n/a
479.0555	0.06	958111	keystroke_a	a	n/a
479.1605	0.075	958321	keystroke_m	m	n/a
479.2805	0.09	958561	keystroke_a	a	n/a
479.5955	0.075	959191	keystroke_h	h	n/a
479.7155	0.075	959431	keystroke_a	a	n/a
479.9555	0.075	959911	keystroke_Key.space	Key.space	n/a
480.72	0.106	961440	keystroke_a	a	n/a
481.23	0.045	962460	keystroke_n	n	n/a
481.455	0.0605	962910	keystroke_t	t	n/a
481.6055	0.09	963211	keystroke_i	i	n/a
481.7705	0.045	963541	keystroke_c	c	n/a
481.8605	0.075	963721	keystroke_i	i	n/a
482.1005	0.075	964201	keystroke_p	p	n/a
482.2205	0.105	964441	keystroke_a	a	n/a
482.4455	0.135	964891	keystroke_t	t	n/a
482.5205	0.105	965041	keystroke_e	e	n/a
482.7155	0.075	965431	keystroke_d	d	n/a
482.8355	0.06	965671	keystroke_Key.space	Key.space	n/a
483.811	0.0445	967622	keystroke_e	e	n/a
483.8855	0.09	967771	keystroke_l	l	n/a
483.9905	0.06	967981	keystroke_e	e	n/a
484.1855	0.0455	968371	keystroke_g	g	n/a
484.291	0.09	968582	keystroke_a	a	n/a
484.441	0.075	968882	keystroke_n	n	n/a
484.531	0.105	969062	keystroke_t	t	n/a
484.891	0.12	969782	keystroke_Key.enter	Key.enter	n/a
485.0155	7.692	970031	prompt	n/a	mission precious consisting text\n
485.8955	0.12	971791	keystroke_m	m	n/a
485.9855	0.105	971971	keystroke_i	i	n/a
486.1955	0.06	972391	keystroke_s	s	n/a
486.3155	0.075	972631	keystroke_s	s	n/a
486.4205	0.12	972841	keystroke_i	i	n/a
486.4655	0.12	972931	keystroke_o	o	n/a
486.7055	0.06	973411	keystroke_n	n	n/a
486.9005	0.075	973801	keystroke_Key.space	Key.space	n/a
487.1855	0.09	974371	keystroke_p	p	n/a
487.3805	0.1055	974761	keystroke_r	r	n/a
487.44	0.09	974880	keystroke_e	e	n/a
487.665	0.06	975330	keystroke_c	c	n/a
487.786	0.074	975572	keystroke_i	i	n/a
487.98	0.135	975960	keystroke_o	o	n/a
488.07	0.075	976140	keystroke_u	u	n/a
488.205	0.06	976410	keystroke_s	s	n/a
488.355	0.045	976710	keystroke_Key.space	Key.space	n/a
489.015	0.075	978030	keystroke_c	c	n/a
489.135	0.105	978270	keystroke_o	o	n/a
489.21	0.09	978420	keystroke_n	n	n/a
489.42	0.06	978840	keystroke_s	s	n/a
489.525	0.09	979050	keystroke_i	i	n/a
489.616	0.06	979232	keystroke_s	s	n/a
489.871	0.075	979742	keystroke_t	t	n/a
490.726	0.12	981452	keystroke_i	i	n/a
490.786	0.09	981572	keystroke_n	n	n/a
490.891	0.075	981782	keystroke_g	g	n/a
491.011	0.09	982022	keystroke_Key.space	Key.space	n/a
491.671	0.12	983342	keystroke_t	t	n/a
491.746	0.09	983492	keystroke_e	e	n/a
492.121	0.06	984242	keystroke_x	x	n/a
492.346	0.0895	984692	keystroke_t	t	n/a
492.616	0.089	985232	keystroke_Key.enter	Key.enter	n/a
492.712	8.65	985424	prompt	n/a	enables innocent belle described\n
493.6055	0.075	987211	keystroke_e	e	n/a
493.7855	0.075	987571	keystroke_n	n	n/a
493.9055	0.075	987811	keystroke_a	a	n/a
494.2655	0.045	988531	keystroke_b	b	n/a
494.4305	0.09	988861	keystroke_l	l	n/a
494.5055	0.075	989011	keystroke_e	e	n/a
494.701	0.075	989402	keystroke_s	s	n/a
494.79	0.075	989580	keystroke_Key.space	Key.space	n/a
495.57	0.09	991140	keystroke_i	i	n/a
495.81	0.045	991620	keystroke_n	n	n/a
495.9	0.075	991800	keystroke_n	n	n/a
496.11	0.09	992220	keystroke_o	o	n/a
496.291	0.059	992582	keystroke_c	c	n/a
496.455	0.09	992910	keystroke_e	e	n/a
496.56	0.09	993120	keystroke_n	n	n/a
496.695	0.075	993390	keystroke_t	t	n/a
496.755	0.12	993510	keystroke_Key.space	Key.space	n/a
497.295	0.09	994590	keystroke_b	b	n/a
497.415	0.075	994830	keystroke_e	e	n/a
497.58	0.06	995160	keystroke_l	l	n/a
497.91	0.09	995820	keystroke_l	l	n/a
498.3	0.09	996600	keystroke_e	e	n/a
498.42	0.09	996840	keystroke_Key.space	Key.space	n/a
499.725	0.075	999450	keystroke_d	d	n/a
499.89	0.06	999780	keystroke_e	e	n/a
500.055	0.075	1000110	keystroke_s	s	n/a
500.235	0.06	1000470	keystroke_c	c	n/a
500.415	0.045	1000830	keystroke_r	r	n/a
500.505	0.0905	1001010	keystroke_i	i	n/a
500.7305	0.075	1001461	keystroke_b	b	n/a
500.8505	0.015	1001701	keystroke_e	e	n/a
500.9855	0.09	1001971	keystroke_d	d	n/a
501.2705	0.09	1002541	keystroke_Key.enter	Key.enter	n/a
501.367	8.785	1002734	prompt	n/a	panels give cardiovascular sans\n
502.0955	0.09	1004191	keystroke_p	p	n/a
502.2605	0.105	1004521	keystroke_a	a	n/a
502.4105	0.0755	1004821	keystroke_n	n	n/a
502.5455	0.06	1005091	keystroke_e	e	n/a
502.6655	0.105	1005331	keystroke_l	l	n/a
502.8005	0.075	1005601	keystroke_s	s	n/a
502.9205	0.09	1005841	keystroke_Key.space	Key.space	n/a
503.85	0.076	1007700	keystroke_g	g	n/a
503.956	0.075	1007912	keystroke_i	i	n/a
504.09	0.061	1008180	keystroke_v	v	n/a
504.285	0.09	1008570	keystroke_e	e	n/a
504.36	0.075	1008720	keystroke_Key.space	Key.space	n/a
504.9305	0.06	1009861	keystroke_c	c	n/a
505.0955	0.075	1010191	keystroke_a	a	n/a
505.2905	0.06	1010581	keystroke_r	r	n/a
505.6205	0.075	1011241	keystroke_d	d	n/a
505.7555	0.075	1011511	keystroke_i	i	n/a
505.8905	0.105	1011781	keystroke_o	o	n/a
506.1755	0.06	1012351	keystroke_v	v	n/a
506.3555	0.075	1012711	keystroke_a	a	n/a
506.5655	0.075	1013131	keystroke_s	s	n/a
506.8505	0.06	1013701	keystroke_c	c	n/a
507.0005	0.075	1014001	keystroke_u	u	n/a
507.1955	0.075	1014391	keystroke_l	l	n/a
507.3455	0.1205	1014691	keystroke_a	a	n/a
507.6005	0.09	1015201	keystroke_r	r	n/a
507.7505	0.09	1015501	keystroke_Key.space	Key.space	n/a
508.845	0.075	1017690	keystroke_s	s	n/a
509.04	0.075	1018080	keystroke_a	a	n/a
509.19	0.075	1018380	keystroke_n	n	n/a
509.85	0.06	1019700	keystroke_s	s	n/a
510.09	0.06	1020180	keystroke_Key.enter	Key.enter	n/a
510.1555	9.5215	1020311	prompt	n/a	persons competitors tribune uses\n
510.7355	0.09	1021471	keystroke_p	p	n/a
510.8705	0.075	1021741	keystroke_a	a	n/a
511.2005	0.075	1022401	keystroke_Key.backspace	Key.backspace	n/a
511.2905	0.15	1022581	keystroke_e	e	n/a
511.3805	0.09	1022761	keystroke_r	r	n/a
511.6205	0.045	1023241	keystroke_s	s	n/a
511.7105	0.09	1023421	keystroke_o	o	n/a
511.9205	0.09	1023841	keystroke_n	n	n/a
512.0555	0.075	1024111	keystroke_s	s	n/a
512.1755	0.075	1024351	keystroke_Key.space	Key.space	n/a
513.12	0.076	1026240	keystroke_c	c	n/a
513.315	0.09	1026630	keystroke_o	o	n/a
513.4955	0.045	1026991	keystroke_m	m	n/a
513.6605	0.0895	1027321	keystroke_p	p	n/a
513.765	0.076	1027530	keystroke_e	e	n/a
513.975	0.06	1027950	keystroke_t	t	n/a
514.065	0.09	1028130	keystroke_i	i	n/a
514.185	0.105	1028370	keystroke_t	t	n/a
514.455	0.09	1028910	keystroke_o	o	n/a
514.62	0.06	1029240	keystroke_r	r	n/a
514.815	0.075	1029630	keystroke_s	s	n/a
514.965	0.09	1029930	keystroke_Key.space	Key.space	n/a
516.09	0.045	1032180	keystroke_t	t	n/a
516.24	0.075	1032480	keystroke_r	r	n/a
516.405	0.075	1032810	keystroke_i	i	n/a
516.676	0.06	1033352	keystroke_b	b	n/a
516.991	0.09	1033982	keystroke_u	u	n/a
517.336	0.06	1034672	keystroke_n	n	n/a
517.441	0.06	1034882	keystroke_e	e	n/a
517.725	0.06	1035450	keystroke_Key.space	Key.space	n/a
518.6105	0.075	1037221	keystroke_u	u	n/a
518.7455	0.075	1037491	keystroke_s	s	n/a
518.9555	0.045	1037911	keystroke_e	e	n/a
519.135	0.06	1038270	keystroke_s	s	n/a
519.57	0.105	1039140	keystroke_Key.enter	Key.enter	n/a
519.68	8.667	1039360	prompt	n/a	hairy multi dawn comparable\n
520.725	0.075	1041450	keystroke_h	h	n/a
520.815	0.105	1041630	keystroke_a	a	n/a
520.935	0.105	1041870	keystroke_i	i	n/a
521.07	0.06	1042140	keystroke_r	r	n/a
521.28	0.075	1042560	keystroke_y	y	n/a
521.415	0.075	1042830	keystroke_Key.space	Key.space	n/a
522.165	0.06	1044330	keystroke_m	m	n/a
522.375	0.105	1044750	keystroke_u	u	n/a
522.69	0.075	1045380	keystroke_l	l	n/a
522.885	0.075	1045770	keystroke_t	t	n/a
523.005	0.12	1046010	keystroke_i	i	n/a
523.38	0.06	1046760	keystroke_Key.space	Key.space	n/a
524.3255	0.045	1048651	keystroke_d	d	n/a
524.5205	0.09	1049041	keystroke_a	a	n/a
525.03	0.0905	1050060	keystroke_w	w	n/a
525.1955	0.09	1050391	keystroke_n	n	n/a
525.4505	0.09	1050901	keystroke_Key.space	Key.space	n/a
525.9005	0.06	1051801	keystroke_c	c	n/a
526.0055	0.105	1052011	keystroke_o	o	n/a
526.1555	0.075	1052311	keystroke_m	m	n/a
526.3355	0.075	1052671	keystroke_p	p	n/a
526.5305	0.0895	1053061	keystroke_a	a	n/a
526.71	0.075	1053420	keystroke_r	r	n/a
526.875	0.105	1053750	keystroke_a	a	n/a
527.025	0.075	1054050	keystroke_b	b	n/a
527.22	0.105	1054440	keystroke_l	l	n/a
527.31	0.06	1054620	keystroke_e	e	n/a
528.3005	0.045	1056601	keystroke_Key.enter	Key.enter	n/a
528.3505	10.8865	1056701	prompt	n/a	education departure lawsuit documentary\n
529.275	0.045	1058550	keystroke_e	e	n/a
529.455	0.075	1058910	keystroke_d	d	n/a
529.635	0.0605	1059270	keystroke_u	u	n/a
529.89	0.06	1059780	keystroke_c	c	n/a
530.01	0.105	1060020	keystroke_a	a	n/a
530.22	0.075	1060440	keystroke_t	t	n/a
530.34	0.12	1060680	keystroke_i	i	n/a
530.4	0.105	1060800	keystroke_o	o	n/a
530.6405	0.06	1061281	keystroke_n	n	n/a
530.8505	0.075	1061701	keystroke_Key.space	Key.space	n/a
531.4805	0.06	1062961	keystroke_d	d	n/a
531.6605	0.075	1063321	keystroke_e	e	n/a
531.9155	0.06	1063831	keystroke_p	p	n/a
532.0355	0.12	1064071	keystroke_a	a	n/a
532.1105	0.09	1064221	keystroke_r	r	n/a
532.3355	0.06	1064671	keystroke_t	t	n/a
532.5005	0.075	1065001	keystroke_u	u	n/a
532.7255	0.135	1065451	keystroke_r	r	n/a
532.8155	0.105	1065631	keystroke_e	e	n/a
532.9655	0.075	1065931	keystroke_Key.space	Key.space	n/a
533.3255	0.075	1066651	keystroke_l	l	n/a
533.4455	0.09	1066891	keystroke_a	a	n/a
533.9705	0.09	1067941	keystroke_w	w	n/a
534.4955	0.075	1068991	keystroke_s	s	n/a
534.6155	0.09	1069231	keystroke_u	u	n/a
534.8405	0.09	1069681	keystroke_i	i	n/a
534.9605	0.075	1069921	keystroke_t	t	n/a
535.1105	0.075	1070221	keystroke_Key.space	Key.space	n/a
535.7855	0.075	1071571	keystroke_c	c	n/a
536.13	0.09	1072260	keystroke_Key.backspace	Key.backspace	n/a
536.266	0.06	1072532	keystroke_d	d	n/a
536.52	0.0905	1073040	keystroke_o	o	n/a
536.8805	0.09	1073761	keystroke_c	c	n/a
537.0155	0.075	1074031	keystroke_u	u	n/a
537.2405	0.06	1074481	keystroke_m	m	n/a
537.3755	0.075	1074751	keystroke_e	e	n/a
537.8255	0.105	1075651	keystroke_n	n	n/a
537.9755	0.105	1075951	keystroke_t	t	n/a
538.6355	0.15	1077271	keystroke_a	a	n/a
538.7255	0.09	1077451	keystroke_r	r	n/a
538.9505	0.075	1077901	keystroke_y	y	n/a
539.16	0.075	1078320	keystroke_Key.enter	Key.enter	n/a
539.2405	8.0515	1078481	prompt	n/a	connector lift blackberry elect\n
540.061	0.105	1080122	keystroke_c	c	n/a
540.196	0.09	1080392	keystroke_o	o	n/a
540.45	0.031	1080900	keystroke_n	n	n/a
540.54	0.091	1081080	keystroke_n	n	n/a
540.645	0.15	1081290	keystroke_e	e	n/a
540.75	0.076	1081500	keystroke_c	c	n/a
540.946	0.074	1081892	keystroke_t	t	n/a
541.035	0.09	1082070	keystroke_o	o	n/a
541.155	0.12	1082310	keystroke_r	r	n/a
541.395	0.075	1082790	keystroke_Key.space	Key.space	n/a
542.3255	0.015	1084651	keystroke_l	l	n/a
542.4455	0.075	1084891	keystroke_i	i	n/a
542.67	0.06	1085340	keystroke_f	f	n/a
542.85	0.06	1085700	keystroke_t	t	n/a
542.94	0.075	1085880	keystroke_Key.space	Key.space	n/a
543.795	0.045	1087590	keystroke_b	b	n/a
543.855	0.015	1087710	keystroke_l	l	n/a
543.885	0.09	1087770	keystroke_a	a	n/a
544.125	0.06	1088250	keystroke_c	c	n/a
544.245	0.075	1088490	keystroke_k	k	n/a
544.695	0.045	1089390	keystroke_b	b	n/a
544.755	0.076	1089510	keystroke_e	e	n/a
544.951	0.045	1089902	keystroke_r	r	n/a
545.056	0.09	1090112	keystroke_r	r	n/a
545.281	0.09	1090562	keystroke_y	y	n/a
545.401	0.09	1090802	keystroke_Key.space	Key.space	n/a
546.286	0.06	1092572	keystroke_e	e	n/a
546.391	0.104	1092782	keystroke_l	l	n/a
546.51	0.061	1093020	keystroke_e	e	n/a
546.8105	0.06	1093621	keystroke_c	c	n/a
546.9905	0.09	1093981	keystroke_t	t	n/a
547.2005	0.09	1094401	keystroke_Key.enter	Key.enter	n/a
547.295	6.657	1094590	prompt	n/a	innocent iron minor coating\n
548.0555	0.075	1096111	keystroke_i	i	n/a
548.295	0.03	1096590	keystroke_n	n	n/a
548.385	0.075	1096770	keystroke_n	n	n/a
548.5955	0.075	1097191	keystroke_o	o	n/a
548.7605	0.06	1097521	keystroke_c	c	n/a
548.9405	0.075	1097881	keystroke_e	e	n/a
549.0455	0.075	1098091	keystroke_n	n	n/a
549.18	0.09	1098360	keystroke_t	t	n/a
549.315	0.075	1098630	keystroke_Key.space	Key.space	n/a
550.0355	0.075	1100071	keystroke_i	i	n/a
550.1705	0.075	1100341	keystroke_r	r	n/a
550.2755	0.12	1100551	keystroke_o	o	n/a
550.3655	0.06	1100731	keystroke_n	n	n/a
550.5605	0.075	1101121	keystroke_Key.space	Key.space	n/a
551.341	0.075	1102682	keystroke_m	m	n/a
551.521	0.105	1103042	keystroke_i	i	n/a
551.581	0.09	1103162	keystroke_n	n	n/a
551.821	0.09	1103642	keystroke_o	o	n/a
551.971	0.075	1103942	keystroke_r	r	n/a
552.09	0.061	1104180	keystroke_Key.space	Key.space	n/a
552.826	0.044	1105652	keystroke_c	c	n/a
552.916	0.09	1105832	keystroke_o	o	n/a
553.05	0.09	1106100	keystroke_a	a	n/a
553.291	0.059	1106582	keystroke_t	t	n/a
553.41	0.136	1106820	keystroke_i	i	n/a
553.486	0.09	1106972	keystroke_n	n	n/a
553.56	0.075	1107120	keystroke_g	g	n/a
553.875	0.075	1107750	keystroke_Key.enter	Key.enter	n/a
553.9555	8.9065	1107911	prompt	n/a	players tutorial fifth standing\n
554.731	0.089	1109462	keystroke_p	p	n/a
554.9405	0.06	1109881	keystroke_l	l	n/a
555.0305	0.0895	1110061	keystroke_a	a	n/a
555.345	0.09	1110690	keystroke_y	y	n/a
555.6	0.12	1111200	keystroke_e	e	n/a
555.675	0.09	1111350	keystroke_r	r	n/a
555.9	0.076	1111800	keystroke_s	s	n/a
556.005	0.1055	1112010	keystroke_Key.space	Key.space	n/a
556.8	0.06	1113600	keystroke_t	t	n/a
556.935	0.075	1113870	keystroke_u	u	n/a
557.025	0.075	1114050	keystroke_t	t	n/a
557.19	0.091	1114380	keystroke_o	o	n/a
557.355	0.075	1114710	keystroke_r	r	n/a
557.46	0.075	1114920	keystroke_i	i	n/a
557.58	0.12	1115160	keystroke_a	a	n/a
557.715	0.09	1115430	keystroke_l	l	n/a
558.135	0.075	1116270	keystroke_Key.space	Key.space	n/a
558.766	0.06	1117532	keystroke_f	f	n/a
558.856	0.09	1117712	keystroke_i	i	n/a
558.931	0.075	1117862	keystroke_f	f	n/a
559.231	0.075	1118462	keystroke_t	t	n/a
559.4405	0.045	1118881	keystroke_y	y	n/a
559.6055	0.09	1119211	keystroke_h	h	n/a
559.8755	0.075	1119751	keystroke_Key.backspace	Key.backspace	n/a
560.0555	0.075	1120111	keystroke_Key.backspace	Key.backspace	n/a
560.3105	0.1055	1120621	keystroke_h	h	n/a
560.58	0.075	1121160	keystroke_Key.space	Key.space	n/a
561.18	0.061	1122360	keystroke_s	s	n/a
561.345	0.06	1122690	keystroke_t	t	n/a
561.51	0.09	1123020	keystroke_a	a	n/a
561.615	0.06	1123230	keystroke_n	n	n/a
561.75	0.075	1123500	keystroke_d	d	n/a
561.87	0.1205	1123740	keystroke_i	i	n/a
561.9305	0.09	1123861	keystroke_n	n	n/a
562.0505	0.105	1124101	keystroke_g	g	n/a
562.8005	0.06	1125601	keystroke_Key.enter	Key.enter	n/a
562.8655	9.2365	1125731	prompt	n/a	collins rules columbus precision\n
563.8055	0.09	1127611	keystroke_c	c	n/a
563.9855	0.075	1127971	keystroke_o	o	n/a
564.2255	0.03	1128451	keystroke_l	l	n/a
564.3305	0.09	1128661	keystroke_l	l	n/a
564.5555	0.105	1129111	keystroke_i	i	n/a
564.6455	0.075	1129291	keystroke_n	n	n/a
564.885	0.06	1129770	keystroke_s	s	n/a
565.005	0.06	1130010	keystroke_Key.space	Key.space	n/a
565.665	0.075	1131330	keystroke_r	r	n/a
565.89	0.06	1131780	keystroke_u	u	n/a
566.085	0.09	1132170	keystroke_l	l	n/a
566.19	0.06	1132380	keystroke_e	e	n/a
566.385	0.075	1132770	keystroke_s	s	n/a
566.49	0.09	1132980	keystroke_Key.space	Key.space	n/a
566.9105	0.09	1133821	keystroke_c	c	n/a
567.0305	0.105	1134061	keystroke_o	o	n/a
567.7055	0.09	1135411	keystroke_l	l	n/a
567.9305	0.075	1135861	keystroke_u	u	n/a
568.1405	0.06	1136281	keystroke_m	m	n/a
568.4105	0.045	1136821	keystroke_b	b	n/a
569.416	0.06	1138832	keystroke_u	u	n/a
569.52	0.076	1139040	keystroke_s	s	n/a
569.685	0.075	1139370	keystroke_Key.space	Key.space	n/a
570.4955	0.09	1140991	keystroke_p	p	n/a
570.6755	0.12	1141351	keystroke_r	r	n/a
570.7355	0.075	1141471	keystroke_e	e	n/a
570.9455	0.06	1141891	keystroke_c	c	n/a
571.0655	0.045	1142131	keystroke_i	i	n/a
571.2305	0.045	1142461	keystroke_s	s	n/a
571.3205	0.1345	1142641	keystroke_i	i	n/a
571.3955	0.0895	1142791	keystroke_o	o	n/a
571.575	0.06	1143150	keystroke_n	n	n/a
572.0405	0.06	1144081	keystroke_Key.enter	Key.enter	n/a
572.105	9.282	1144210	prompt	n/a	outside quantities representation toys\n
573.0455	0.135	1146091	keystroke_o	o	n/a
573.1355	0.09	1146271	keystroke_u	u	n/a
573.2405	0.075	1146481	keystroke_t	t	n/a
573.51	0.075	1147020	keystroke_s	s	n/a
573.615	0.09	1147230	keystroke_i	i	n/a
573.72	0.045	1147440	keystroke_d	d	n/a
573.9	0.06	1147800	keystroke_e	e	n/a
573.9755	0.09	1147951	keystroke_Key.space	Key.space	n/a
574.6655	0.09	1149331	keystroke_q	q	n/a
574.8905	0.075	1149781	keystroke_u	u	n/a
575.1755	0.105	1150351	keystroke_a	a	n/a
575.3105	0.09	1150621	keystroke_n	n	n/a
575.52	0.12	1151040	keystroke_t	t	n/a
576.09	0.075	1152180	keystroke_i	i	n/a
576.33	0.075	1152660	keystroke_t	t	n/a
576.751	0.0745	1153502	keystroke_i	i	n/a
576.8855	0.06	1153771	keystroke_e	e	n/a
577.0805	0.06	1154161	keystroke_s	s	n/a
577.1705	0.075	1154341	keystroke_Key.space	Key.space	n/a
577.9505	0.105	1155901	keystroke_r	r	n/a
578.0255	0.105	1156051	keystroke_e	e	n/a
578.1455	0.075	1156291	keystroke_p	p	n/a
578.281	0.12	1156562	keystroke_r	r	n/a
578.341	0.074	1156682	keystroke_e	e	n/a
578.55	0.0605	1157100	keystroke_s	s	n/a
578.7305	0.075	1157461	keystroke_e	e	n/a
578.8505	0.075	1157701	keystroke_n	n	n/a
578.9555	0.06	1157911	keystroke_t	t	n/a
579.0905	0.0895	1158181	keystroke_a	a	n/a
579.181	0.059	1158362	keystroke_t	t	n/a
579.255	0.105	1158510	keystroke_i	i	n/a
579.3	0.09	1158600	keystroke_o	o	n/a
579.48	0.06	1158960	keystroke_n	n	n/a
579.675	0.0755	1159350	keystroke_Key.space	Key.space	n/a
580.4105	0.075	1160821	keystroke_t	t	n/a
580.6055	0.09	1161211	keystroke_o	o	n/a
580.8605	0.06	1161721	keystroke_y	y	n/a
581.07	0.075	1162140	keystroke_s	s	n/a
581.31	0.075	1162620	keystroke_Key.enter	Key.enter	n/a
581.39	8.982	1162780	prompt	n/a	climb carol duck reflected\n
582.21	0.075	1164420	keystroke_c	c	n/a
582.3305	0.0895	1164661	keystroke_l	l	n/a
582.5255	0.12	1165051	keystroke_i	i	n/a
583.2155	0.015	1166431	keystroke_m	m	n/a
583.3205	0.06	1166641	keystroke_b	b	n/a
583.6205	0.0745	1167241	keystroke_Key.space	Key.space	n/a
585.69	0.09	1171380	keystroke_c	c	n/a
585.765	0.105	1171530	keystroke_a	a	n/a
585.99	0.075	1171980	keystroke_r	r	n/a
586.125	0.105	1172250	keystroke_o	o	n/a
586.395	0.0755	1172790	keystroke_l	l	n/a
586.665	0.06	1173330	keystroke_Key.space	Key.space	n/a
587.341	0.105	1174682	keystroke_d	d	n/a
587.49	0.075	1174980	keystroke_u	u	n/a
587.91	0.075	1175820	keystroke_c	c	n/a
588.001	0.075	1176002	keystroke_k	k	n/a
588.21	0.06	1176420	keystroke_Key.space	Key.space	n/a
588.7055	0.105	1177411	keystroke_r	r	n/a
588.7805	0.075	1177561	keystroke_e	e	n/a
588.9305	0.075	1177861	keystroke_f	f	n/a
589.0805	0.09	1178161	keystroke_l	l	n/a
589.2455	0.1505	1178491	keystroke_e	e	n/a
589.366	0.089	1178732	keystroke_c	c	n/a
589.575	0.1205	1179150	keystroke_t	t	n/a
589.6355	0.09	1179271	keystroke_e	e	n/a
589.846	0.0745	1179692	keystroke_d	d	n/a
590.2805	0.089	1180561	keystroke_Key.enter	Key.enter	n/a
590.377	13.795	1180754	prompt	n/a	crawford surgeons click sublimedirectory\n
591.2555	0.075	1182511	keystroke_c	c	n/a
591.4655	0.06	1182931	keystroke_r	r	n/a
591.6905	0.09	1183381	keystroke_a	a	n/a
592.0355	0.075	1184071	keystroke_w	w	n/a
592.3055	0.0745	1184611	keystroke_f	f	n/a
592.425	0.105	1184850	keystroke_o	o	n/a
592.575	0.075	1185150	keystroke_r	r	n/a
592.815	0.03	1185630	keystroke_d	d	n/a
592.95	0.06	1185900	keystroke_Key.space	Key.space	n/a
593.7	0.075	1187400	keystroke_s	s	n/a
593.985	0.0605	1187970	keystroke_u	u	n/a
594.1805	0.06	1188361	keystroke_r	r	n/a
594.4055	0.06	1188811	keystroke_g	g	n/a
594.6005	0.0895	1189201	keystroke_e	e	n/a
594.87	0.105	1189740	keystroke_o	o	n/a
595.2	0.09	1190400	keystroke_n	n	n/a
595.3805	0.075	1190761	keystroke_s	s	n/a
595.5305	0.06	1191061	keystroke_Key.space	Key.space	n/a
596.1005	0.045	1192201	keystroke_c	c	n/a
596.1905	0.075	1192381	keystroke_l	l	n/a
596.4005	0.075	1192801	keystroke_i	i	n/a
596.6705	0.105	1193341	keystroke_c	c	n/a
596.8205	0.06	1193641	keystroke_k	k	n/a
597.0155	0.075	1194031	keystroke_Key.space	Key.space	n/a
598.125	0.06	1196250	keystroke_s	s	n/a
598.3655	0.06	1196731	keystroke_u	u	n/a
598.5905	0.075	1197181	keystroke_b	b	n/a
598.9355	0.105	1197871	keystroke_l	l	n/a
599.2055	0.12	1198411	keystroke_i	i	n/a
600.705	0.09	1201410	keystroke_m	m	n/a
601.5005	0.06	1203001	keystroke_e	e	n/a
601.7255	0.0745	1203451	keystroke_d	d	n/a
601.905	0.075	1203810	keystroke_i	i	n/a
602.205	0.105	1204410	keystroke_r	r	n/a
602.415	0.075	1204830	keystroke_e	e	n/a
602.6705	0.09	1205341	keystroke_c	c	n/a
603.0005	0.075	1206001	keystroke_t	t	n/a
603.1355	0.09	1206271	keystroke_o	o	n/a
603.4055	0.105	1206811	keystroke_r	r	n/a
603.4805	0.09	1206961	keystroke_y	y	n/a
604.08	0.09	1208160	keystroke_Key.enter	Key.enter	n/a
604.1755	7.6915	1208351	prompt	n/a	harper condo usually organ\n
605.0705	0.09	1210141	keystroke_h	h	n/a
605.1455	0.18	1210291	keystroke_a	a	n/a
605.2805	0.09	1210561	keystroke_r	r	n/a
605.5955	0.09	1211191	keystroke_p	p	n/a
605.7155	0.135	1211431	keystroke_e	e	n/a
605.8055	0.075	1211611	keystroke_r	r	n/a
606	0.075	1212000	keystroke_Key.space	Key.space	n/a
606.57	0.1055	1213140	keystroke_c	c	n/a
606.6605	0.12	1213321	keystroke_o	o	n/a
606.915	0.061	1213830	keystroke_n	n	n/a
607.185	0.09	1214370	keystroke_d	d	n/a
607.29	0.075	1214580	keystroke_o	o	n/a
607.515	0.09	1215030	keystroke_Key.space	Key.space	n/a
608.175	0.0905	1216350	keystroke_u	u	n/a
608.3255	0.075	1216651	keystroke_s	s	n/a
608.3855	0.105	1216771	keystroke_u	u	n/a
608.5055	0.09	1217011	keystroke_a	a	n/a
608.6855	0.0445	1217371	keystroke_l	l	n/a
608.805	0.12	1217610	keystroke_l	l	n/a
608.94	0.075	1217880	keystroke_y	y	n/a
609.075	0.075	1218150	keystroke_Key.space	Key.space	n/a
609.7505	0.09	1219501	keystroke_o	o	n/a
609.9455	0.0745	1219891	keystroke_r	r	n/a
610.1855	0.075	1220371	keystroke_g	g	n/a
610.4095	0.091	1220819	keystroke_a	a	n/a
610.545	0.0605	1221090	keystroke_n	n	n/a
611.7755	0.0895	1223551	keystroke_Key.enter	Key.enter	n/a
611.87	11.022	1223740	prompt	n/a	transmit celebration matched column\n
613.2905	0.06	1226581	keystroke_t	t	n/a
613.4555	0.03	1226911	keystroke_r	r	n/a
613.6505	0.0745	1227301	keystroke_a	a	n/a
613.77	0.075	1227540	keystroke_n	n	n/a
613.935	0.075	1227870	keystroke_s	s	n/a
614.265	0.06	1228530	keystroke_m	m	n/a
614.461	0.089	1228922	keystroke_i	i	n/a
614.5955	0.105	1229191	keystroke_t	t	n/a
614.8205	0.075	1229641	keystroke_Key.space	Key.space	n/a
615.36	0.075	1230720	keystroke_c	c	n/a
615.555	0.06	1231110	keystroke_e	e	n/a
615.66	0.105	1231320	keystroke_l	l	n/a
615.78	0.06	1231560	keystroke_e	e	n/a
616.29	0.06	1232580	keystroke_b	b	n/a
616.395	0.0605	1232790	keystroke_r	r	n/a
616.5605	0.075	1233121	keystroke_a	a	n/a
616.7555	0.06	1233511	keystroke_t	t	n/a
616.8155	0.1195	1233631	keystroke_i	i	n/a
616.8755	0.1045	1233751	keystroke_o	o	n/a
617.07	0.075	1234140	keystroke_n	n	n/a
617.265	0.075	1234530	keystroke_Key.space	Key.space	n/a
618.51	0.06	1237020	keystroke_m	m	n/a
618.585	0.1205	1237170	keystroke_a	a	n/a
618.7355	0.045	1237471	keystroke_t	t	n/a
618.9605	0.06	1237921	keystroke_c	c	n/a
619.0505	0.075	1238101	keystroke_h	h	n/a
619.1705	0.045	1238341	keystroke_e	e	n/a
619.3205	0.09	1238641	keystroke_d	d	n/a
619.4705	0.06	1238941	keystroke_Key.space	Key.space	n/a
620.3855	0.09	1240771	keystroke_c	c	n/a
620.7455	0.075	1241491	keystroke_o	o	n/a
621.0305	0.075	1242061	keystroke_l	l	n/a
621.2405	0.075	1242481	keystroke_u	u	n/a
621.8845	0.0615	1243769	keystroke_m	m	n/a
622.1105	0.0595	1244221	keystroke_n	n	n/a
622.7995	0.09	1245599	keystroke_Key.enter	Key.enter	n/a
622.895	8.5475	1245790	prompt	n/a	crucial fleet finnish watches\n
623.745	0.075	1247490	keystroke_c	c	n/a
624.3455	0.045	1248691	keystroke_r	r	n/a
624.4805	0.06	1248961	keystroke_u	u	n/a
624.645	0.061	1249290	keystroke_c	c	n/a
625.035	0.075	1250070	keystroke_i	i	n/a
625.201	0.074	1250402	keystroke_a	a	n/a
625.335	0.105	1250670	keystroke_l	l	n/a
625.635	0.045	1251270	keystroke_Key.space	Key.space	n/a
626.4005	0.075	1252801	keystroke_f	f	n/a
626.5655	0.0745	1253131	keystroke_l	l	n/a
626.73	0.0455	1253460	keystroke_e	e	n/a
626.8355	0.045	1253671	keystroke_e	e	n/a
627.0605	0.09	1254121	keystroke_t	t	n/a
627.195	0.075	1254390	keystroke_Key.space	Key.space	n/a
628.08	0.06	1256160	keystroke_f	f	n/a
628.155	0.075	1256310	keystroke_i	i	n/a
628.365	0.045	1256730	keystroke_n	n	n/a
628.5	0.075	1257000	keystroke_n	n	n/a
628.6955	0.09	1257391	keystroke_i	i	n/a
628.8305	0.09	1257661	keystroke_s	s	n/a
628.9205	0.075	1257841	keystroke_h	h	n/a
629.1455	0.09	1258291	keystroke_Key.space	Key.space	n/a
629.6555	0.075	1259311	keystroke_w	w	n/a
629.8505	0.06	1259701	keystroke_a	a	n/a
630.1055	0.09	1260211	keystroke_t	t	n/a
630.3305	0.075	1260661	keystroke_c	c	n/a
630.4505	0.06	1260901	keystroke_h	h	n/a
630.615	0.06	1261230	keystroke_e	e	n/a
630.795	0.09	1261590	keystroke_s	s	n/a
631.335	0.1055	1262670	keystroke_Key.enter	Key.enter	n/a
631.4455	7.3915	1262891	prompt	n/a	croatia minutes fingers laid\n
632.2805	0.09	1264561	keystroke_c	c	n/a
632.655	0.06	1265310	keystroke_r	r	n/a
632.775	0.09	1265550	keystroke_o	o	n/a
632.8955	0.09	1265791	keystroke_a	a	n/a
633.0755	0.0595	1266151	keystroke_t	t	n/a
633.18	0.105	1266360	keystroke_i	i	n/a
633.405	0.075	1266810	keystroke_a	a	n/a
633.525	0.075	1267050	keystroke_Key.space	Key.space	n/a
634.2605	0.1195	1268521	keystroke_m	m	n/a
634.755	0.09	1269510	keystroke_i	i	n/a
634.965	0.075	1269930	keystroke_n	n	n/a
635.205	0.09	1270410	keystroke_u	u	n/a
635.4	0.12	1270800	keystroke_t	t	n/a
635.475	0.105	1270950	keystroke_e	e	n/a
635.7	0.06	1271400	keystroke_s	s	n/a
635.775	0.09	1271550	keystroke_Key.space	Key.space	n/a
636.4805	0.075	1272961	keystroke_f	f	n/a
636.5555	0.12	1273111	keystroke_i	i	n/a
636.6305	0.09	1273261	keystroke_n	n	n/a
636.7955	0.06	1273591	keystroke_g	g	n/a
636.9755	0.12	1273951	keystroke_e	e	n/a
637.0505	0.09	1274101	keystroke_r	r	n/a
637.2605	0.105	1274521	keystroke_s	s	n/a
637.3495	0.091	1274699	keystroke_Key.space	Key.space	n/a
637.8305	0.09	1275661	keystroke_l	l	n/a
637.9655	0.12	1275931	keystroke_a	a	n/a
638.265	0.105	1276530	keystroke_i	i	n/a
638.505	0.09	1277010	keystroke_d	d	n/a
638.7755	0.06	1277551	keystroke_Key.enter	Key.enter	n/a
638.84	8.112	1277680	prompt	n/a	rangers hung receipt cabinets\n
639.645	0.06	1279290	keystroke_r	r	n/a
639.795	0.075	1279590	keystroke_a	a	n/a
639.915	0.09	1279830	keystroke_n	n	n/a
640.26	0.06	1280520	keystroke_g	g	n/a
640.425	0.105	1280850	keystroke_e	e	n/a
640.47	0.09	1280940	keystroke_r	r	n/a
640.68	0.075	1281360	keystroke_s	s	n/a
640.8	0.09	1281600	keystroke_Key.space	Key.space	n/a
641.5505	0.075	1283101	keystroke_h	h	n/a
641.7155	0.09	1283431	keystroke_u	u	n/a
641.9555	0.045	1283911	keystroke_n	n	n/a
642.1355	0.075	1284271	keystroke_g	g	n/a
642.2545	0.076	1284509	keystroke_Key.space	Key.space	n/a
643.035	0.12	1286070	keystroke_r	r	n/a
643.11	0.09	1286220	keystroke_e	e	n/a
643.3205	0.075	1286641	keystroke_c	c	n/a
643.4545	0.091	1286909	keystroke_e	e	n/a
