onset	duration	sample	value	key	prompt_text
1.9185	15.0465	3837	prompt	n/a	the quick brown fox jumps over a lazy dog\n
3.494	0.104	6988	keystroke_t	t	n/a
3.606	0.072	7212	keystroke_h	h	n/a
3.702	0.08	7404	keystroke_e	e	n/a
3.813	0.08	7626	keystroke_Key.space	Key.space	n/a
4.253	0.128	8506	keystroke_q	q	n/a
4.421	0.08	8842	keystroke_u	u	n/a
4.597	0.088	9194	keystroke_i	i	n/a
4.717	0.08	9434	keystroke_c	c	n/a
4.829	0.08	9658	keystroke_k	k	n/a
5.6295	0.104	11259	keystroke_Key.space	Key.space	n/a
5.8695	0.07	11739	keystroke_b	b	n/a
6.0915	0.096	12183	keystroke_r	r	n/a
6.2355	0.08	12471	keystroke_o	o	n/a
6.3235	0.0895	12647	keystroke_w	w	n/a
6.4575	0.072	12915	keystroke_n	n	n/a
6.6255	0.096	13251	keystroke_Key.space	Key.space	n/a
7.2095	0.088	14419	keystroke_f	f	n/a
7.3215	0.111	14643	keystroke_o	o	n/a
7.5045	0.08	15009	keystroke_z	z	n/a
8.1525	0.064	16305	keystroke_Key.backspace	Key.backspace	n/a
8.2645	0.08	16529	keystroke_x	x	n/a
8.4005	0.104	16801	keystroke_Key.space	Key.space	n/a
8.6805	0.064	17361	keystroke_j	j	n/a
8.8245	0.056	17649	keystroke_u	u	n/a
8.9925	0.064	17985	keystroke_m	m	n/a
9.1125	0.072	18225	keystroke_p	p	n/a
9.2165	0.088	18433	keystroke_s	s	n/a
12.8175	0.136	25635	keystroke_Key.space	Key.space	n/a
13.2335	0.08	26467	keystroke_o	o	n/a
13.3775	0.0555	26755	keystroke_v	v	n/a
13.481	0.08	26962	keystroke_e	e	n/a
13.609	0.088	27218	keystroke_r	r	n/a
13.681	0.0805	27362	keystroke_Key.space	Key.space	n/a
13.801	0.0645	27602	keystroke_t	t	n/a
13.8885	0.073	27777	keystroke_h	h	n/a
13.953	0.0715	27906	keystroke_e	e	n/a
14.0485	0.0805	28097	keystroke_Key.space	Key.space	n/a
14.201	0.072	28402	keystroke_l	l	n/a
14.3045	0.088	28609	keystroke_a	a	n/a
14.6405	0.12	29281	keystroke_z	z	n/a
14.9445	0.072	29889	keystroke_y	y	n/a
15.0565	0.096	30113	keystroke_Key.space	Key.space	n/a
15.5455	0.087	31091	keystroke_d	d	n/a
15.6495	0.087	31299	keystroke_o	o	n/a
15.7925	0.064	31585	keystroke_g	g	n/a
16.8495	0.111	33699	keystroke_Key.enter	Key.enter	n/a
16.971	7.7685	33942	prompt	n/a	ourselves placement harris went\n
17.8565	0.0805	35713	keystroke_o	o	n/a
18.017	0.072	36034	keystroke_u	u	n/a
18.201	0.08	36402	keystroke_t	t	n/a
18.793	0.064	37586	keystroke_Key.backspace	Key.backspace	n/a
18.8725	0.088	37745	keystroke_r	r	n/a
19.225	0.088	38450	keystroke_s	s	n/a
19.569	0.104	39138	keystroke_e	e	n/a
19.873	0.112	39746	keystroke_l	l	n/a
20.0815	0.104	40163	keystroke_v	v	n/a
20.3125	0.097	40625	keystroke_e	e	n/a
20.6095	0.087	41219	keystroke_s	s	n/a
20.7285	0.096	41457	keystroke_Key.space	Key.space	n/a
20.9045	0.08	41809	keystroke_p	p	n/a
21.0645	0.081	42129	keystroke_l	l	n/a
21.1855	0.103	42371	keystroke_a	a	n/a
21.3445	0.081	42689	keystroke_c	c	n/a
21.4975	0.072	42995	keystroke_e	e	n/a
21.6245	0.088	43249	keystroke_m	m	n/a
21.7765	0.105	43553	keystroke_e	e	n/a
21.8565	0.08	43713	keystroke_n	n	n/a
22.0165	0.064	44033	keystroke_t	t	n/a
22.1285	0.08	44257	keystroke_Key.space	Key.space	n/a
22.3215	0.071	44643	keystroke_h	h	n/a
22.4245	0.104	44849	keystroke_a	a	n/a
22.6165	0.08	45233	keystroke_r	r	n/a
22.7925	0.08	45585	keystroke_r	r	n/a
22.9045	0.088	45809	keystroke_i	i	n/a
23.0335	0.088	46067	keystroke_s	s	n/a
23.1845	0.096	46369	keystroke_Key.space	Key.space	n/a
23.3125	0.104	46625	keystroke_w	w	n/a
23.5125	0.048	47025	keystroke_n	n	n/a
23.8405	0.072	47681	keystroke_Key.backspace	Key.backspace	n/a
23.9295	0.1035	47859	keystroke_e	e	n/a
24.073	0.08	48146	keystroke_n	n	n/a
24.217	0.08	48434	keystroke_t	t	n/a
24.6485	0.089	49297	keystroke_Key.enter	Key.enter	n/a
24.7445	10.6665	49489	prompt	n/a	logitech practice landscapes bang\n
25.353	0.096	50706	keystroke_l	l	n/a
25.545	0.08	51090	keystroke_o	o	n/a
25.737	0.08	51474	keystroke_g	g	n/a
25.857	0.072	51714	keystroke_i	i	n/a
26.233	0.112	52466	keystroke_c	c	n/a
26.801	0.08	53602	keystroke_Key.backspace	Key.backspace	n/a
26.913	0.096	53826	keystroke_t	t	n/a
27.129	0.072	54258	keystroke_e	e	n/a
27.465	0.104	54930	keystroke_c	c	n/a
27.713	0.112	55426	keystroke_h	h	n/a
28.001	0.096	56002	keystroke_Key.space	Key.space	n/a
28.201	0.104	56402	keystroke_p	p	n/a
28.5055	0.087	57011	keystroke_r	r	n/a
28.9045	0.12	57809	keystroke_a	a	n/a
29.5205	0.12	59041	keystroke_c	c	n/a
29.8405	0.072	59681	keystroke_t	t	n/a
29.9525	0.088	59905	keystroke_i	i	n/a
30.1685	0.104	60337	keystroke_c	c	n/a
30.4085	0.104	60817	keystroke_e	e	n/a
30.6005	0.096	61201	keystroke_Key.space	Key.space	n/a
31.0085	0.128	62017	keystroke_l	l	n/a
31.1925	0.104	62385	keystroke_a	a	n/a
31.3285	0.08	62657	keystroke_n	n	n/a
31.4645	0.088	62929	keystroke_d	d	n/a
31.6085	0.104	63217	keystroke_s	s	n/a
31.7445	0.088	63489	keystroke_h	h	n/a
32.0965	0.072	64193	keystroke_Key.backspace	Key.backspace	n/a
32.1925	0.096	64385	keystroke_c	c	n/a
32.3855	0.079	64771	keystroke_a	a	n/a
32.6005	0.12	65201	keystroke_p	p	n/a
32.8645	0.104	65729	keystroke_e	e	n/a
33.1205	0.096	66241	keystroke_s	s	n/a
33.2885	0.096	66577	keystroke_Key.space	Key.space	n/a
33.6565	0.081	67313	keystroke_b	b	n/a
33.8405	0.088	67681	keystroke_a	a	n/a
33.9375	0.087	67875	keystroke_n	n	n/a
34.2965	0.064	68593	keystroke_g	g	n/a
35.3205	0.088	70641	keystroke_Key.enter	Key.enter	n/a
35.418	9.873	70836	prompt	n/a	drawn pattern madagascar motors\n
36.0655	0.144	72131	keystroke_d	d	n/a
36.6485	0.112	73297	keystroke_r	r	n/a
37.0885	0.104	74177	keystroke_a	a	n/a
37.3285	0.104	74657	keystroke_w	w	n/a
37.4965	0.128	74993	keystroke_n	n	n/a
37.8485	0.096	75697	keystroke_Key.space	Key.space	n/a
38.0565	0.08	76113	keystroke_p	p	n/a
38.1685	0.08	76337	keystroke_a	a	n/a
38.3525	0.072	76705	keystroke_t	t	n/a
38.4965	0.08	76993	keystroke_t	t	n/a
38.6175	0.095	77235	keystroke_e	e	n/a
38.7605	0.072	77521	keystroke_r	r	n/a
38.8965	0.088	77793	keystroke_n	n	n/a
39.0965	0.104	78193	keystroke_Key.space	Key.space	n/a
39.8165	0.129	79633	keystroke_m	m	n/a
40.0885	0.104	80177	keystroke_a	a	n/a
40.3205	0.112	80641	keystroke_d	d	n/a
40.5365	0.088	81073	keystroke_a	a	n/a
40.9365	0.08	81873	keystroke_g	g	n/a
41.2805	0.096	82561	keystroke_a	a	n/a
41.6485	0.12	83297	keystroke_s	s	n/a
42.0005	0.112	84001	keystroke_c	c	n/a
42.3205	0.112	84641	keystroke_a	a	n/a
42.6085	0.12	85217	keystroke_r	r	n/a
43.1365	0.096	86273	keystroke_Key.space	Key.space	n/a
43.3445	0.088	86689	keystroke_m	m	n/a
43.4885	0.104	86977	keystroke_o	o	n/a
43.7605	0.096	87521	keystroke_t	t	n/a
43.8725	0.08	87745	keystroke_o	o	n/a
44.0565	0.12	88113	keystroke_s	s	n/a
44.6405	0.08	89281	keystroke_Key.backspace	Key.backspace	n/a
44.7285	0.088	89457	keystroke_r	r	n/a
44.9045	0.104	89809	keystroke_s	s	n/a
45.1845	0.104	90369	keystroke_Key.enter	Key.enter	n/a
45.298	16.7045	90596	prompt	n/a	michigan tone under licenses\n
45.9765	0.12	91953	keystroke_m	m	n/a
46.1925	0.064	92385	keystroke_i	i	n/a
46.3845	0.096	92769	keystroke_c	c	n/a
46.4965	0.08	92993	keystroke_h	h	n/a
46.6565	0.104	93313	keystroke_i	i	n/a
47.1925	0.104	94385	keystroke_g	g	n/a
47.6405	0.096	95281	keystroke_a	a	n/a
47.7525	0.104	95505	keystroke_n	n	n/a
52.3445	0.096	104689	keystroke_Key.space	Key.space	n/a
52.9765	0.08	105953	keystroke_t	t	n/a
53.0725	0.104	106145	keystroke_i	i	n/a
53.2725	0.088	106545	keystroke_b	b	n/a
53.4405	0.088	106881	keystroke_e	e	n/a
53.8965	0.024	107793	keystroke_Key.backspace	Key.backspace	n/a
54.0645	0.032	108129	keystroke_=	=	n/a
54.2165	0.048	108433	keystroke_Key.backspace	Key.backspace	n/a
54.4645	0.088	108929	keystroke_=	=	n/a
54.6575	0.087	109315	keystroke_=	=	n/a
55.4965	0.072	110993	keystroke_Key.backspace	Key.backspace	n/a
55.6725	0.072	111345	keystroke_Key.backspace	Key.backspace	n/a
55.8565	0.08	111713	keystroke_Key.backspace	Key.backspace	n/a
56.2885	0.064	112577	keystroke_Key.backspace	Key.backspace	n/a
57.1695	0.079	114339	keystroke_o	o	n/a
57.3525	0.088	114705	keystroke_n	n	n/a
57.7525	0.104	115505	keystroke_e	e	n/a
57.9605	0.104	115921	keystroke_Key.space	Key.space	n/a
58.3445	0.08	116689	keystroke_u	u	n/a
58.5365	0.072	117073	keystroke_n	n	n/a
58.6245	0.088	117249	keystroke_d	d	n/a
58.7685	0.096	117537	keystroke_e	e	n/a
58.9365	0.072	117873	keystroke_r	r	n/a
59.0885	0.08	118177	keystroke_Key.space	Key.space	n/a
59.2805	0.08	118561	keystroke_l	l	n/a
59.4645	0.08	118929	keystroke_i	i	n/a
59.5925	0.096	119185	keystroke_c	c	n/a
59.7445	0.088	119489	keystroke_e	e	n/a
59.8335	0.08	119667	keystroke_n	n	n/a
60.1285	0.088	120257	keystroke_c	c	n/a
60.6725	0.088	121345	keystroke_e	e	n/a
60.8965	0.096	121793	keystroke_s	s	n/a
61.9205	0.08	123841	keystroke_Key.enter	Key.enter	n/a
62.0095	7.178	124019	prompt	n/a	princess sigma disk parish\n
63.225	0.08	126450	keystroke_p	p	n/a
63.433	0.072	126866	keystroke_r	r	n/a
63.521	0.072	127042	keystroke_i	i	n/a
63.689	0.064	127378	keystroke_n	n	n/a
63.809	0.072	127618	keystroke_c	c	n/a
63.961	0.072	127922	keystroke_e	e	n/a
64.137	0.072	128274	keystroke_s	s	n/a
64.297	0.08	128594	keystroke_s	s	n/a
64.441	0.088	128882	keystroke_Key.space	Key.space	n/a
64.6735	0.0795	129347	keystroke_s	s	n/a
64.777	0.08	129554	keystroke_i	i	n/a
64.961	0.072	129922	keystroke_g	g	n/a
65.113	0.096	130226	keystroke_m	m	n/a
65.281	0.08	130562	keystroke_a	a	n/a
65.633	0.096	131266	keystroke_Key.space	Key.space	n/a
65.825	0.112	131650	keystroke_d	d	n/a
65.969	0.088	131938	keystroke_i	i	n/a
66.097	0.088	132194	keystroke_s	s	n/a
66.217	0.096	132434	keystroke_h	h	n/a
66.921	0.072	133842	keystroke_Key.backspace	Key.backspace	n/a
67.129	0.096	134258	keystroke_k	k	n/a
67.921	0.12	135842	keystroke_Key.space	Key.space	n/a
68.329	0.12	136658	keystroke_p	p	n/a
68.489	0.104	136978	keystroke_a	a	n/a
68.673	0.072	137346	keystroke_r	r	n/a
68.753	0.064	137506	keystroke_i	i	n/a
68.849	0.096	137698	keystroke_s	s	n/a
68.953	0.04	137906	keystroke_h	h	n/a
69.113	0.071	138226	keystroke_Key.enter	Key.enter	n/a
69.1935	10.7775	138387	prompt	n/a	inventory connected usual oregon\n
70.089	0.104	140178	keystroke_i	i	n/a
70.289	0.08	140578	keystroke_n	n	n/a
70.601	0.08	141202	keystroke_c	c	n/a
70.873	0.072	141746	keystroke_Key.backspace	Key.backspace	n/a
70.969	0.072	141938	keystroke_v	v	n/a
71.097	0.088	142194	keystroke_e	e	n/a
71.233	0.088	142466	keystroke_n	n	n/a
71.673	0.088	143346	keystroke_t	t	n/a
71.833	0.088	143666	keystroke_i	i	n/a
72.065	0.08	144130	keystroke_o	o	n/a
72.241	0.136	144482	keystroke_r	r	n/a
72.673	0.088	145346	keystroke_Key.backspace	Key.backspace	n/a
72.841	0.072	145682	keystroke_Key.backspace	Key.backspace	n/a
72.977	0.08	145954	keystroke_Key.backspace	Key.backspace	n/a
73.209	0.088	146418	keystroke_o	o	n/a
73.401	0.112	146802	keystroke_r	r	n/a
73.705	0.104	147410	keystroke_y	y	n/a
74.649	0.119	149298	keystroke_Key.space	Key.space	n/a
74.905	0.096	149810	keystroke_c	c	n/a
74.985	0.08	149970	keystroke_o	o	n/a
75.153	0.064	150306	keystroke_n	n	n/a
75.297	0.08	150594	keystroke_n	n	n/a
75.361	0.088	150722	keystroke_e	e	n/a
75.505	0.104	151010	keystroke_c	c	n/a
75.713	0.072	151426	keystroke_t	t	n/a
75.857	0.072	151714	keystroke_e	e	n/a
76.025	0.08	152050	keystroke_d	d	n/a
76.137	0.08	152274	keystroke_Key.space	Key.space	n/a
76.329	0.08	152658	keystroke_u	u	n/a
76.449	0.08	152898	keystroke_s	s	n/a
76.569	0.064	153138	keystroke_u	u	n/a
76.673	0.072	153346	keystroke_a	a	n/a
76.801	0.088	153602	keystroke_k	k	n/a
77.353	0.079	154706	keystroke_Key.backspace	Key.backspace	n/a
77.745	0.112	155490	keystroke_l	l	n/a
78.049	0.104	156098	keystroke_Key.space	Key.space	n/a
78.353	0.104	156706	keystroke_o	o	n/a
78.553	0.056	157106	keystroke_r	r	n/a
78.889	0.104	157778	keystroke_e	e	n/a
79.241	0.088	158482	keystroke_g	g	n/a
79.561	0.08	159122	keystroke_o	o	n/a
79.705	0.072	159410	keystroke_n	n	n/a
79.897	0.071	159794	keystroke_Key.enter	Key.enter	n/a
79.982	7.452	159964	prompt	n/a	mood afterwards casey attract\n
80.4805	0.096	160961	keystroke_m	m	n/a
80.6405	0.08	161281	keystroke_o	o	n/a
80.8085	0.064	161617	keystroke_o	o	n/a
80.8965	0.096	161793	keystroke_d	d	n/a
81.0405	0.096	162081	keystroke_Key.space	Key.space	n/a
81.4485	0.112	162897	keystroke_a	a	n/a
81.8085	0.112	163617	keystroke_f	f	n/a
82.2085	0.096	164417	keystroke_t	t	n/a
82.4005	0.096	164801	keystroke_e	e	n/a
82.5685	0.064	165137	keystroke_r	r	n/a
82.7365	0.088	165473	keystroke_w	w	n/a
82.8965	0.088	165793	keystroke_a	a	n/a
83.0485	0.072	166097	keystroke_r	r	n/a
83.2165	0.088	166433	keystroke_d	d	n/a
83.3605	0.096	166721	keystroke_s	s	n/a
83.9125	0.12	167825	keystroke_Key.space	Key.space	n/a
84.1445	0.104	168289	keystroke_c	c	n/a
84.3445	0.088	168689	keystroke_a	a	n/a
84.5125	0.112	169025	keystroke_s	s	n/a
84.7605	0.128	169521	keystroke_e	e	n/a
85.1285	0.12	170257	keystroke_y	y	n/a
85.5205	0.096	171041	keystroke_Key.space	Key.space	n/a
85.801	0.0715	171602	keystroke_a	a	n/a
85.9765	0.08	171953	keystroke_t	t	n/a
86.1365	0.072	172273	keystroke_t	t	n/a
86.2565	0.096	172513	keystroke_r	r	n/a
86.4405	0.08	172881	keystroke_a	a	n/a
86.6005	0.096	173201	keystroke_c	c	n/a
86.8085	0.064	173617	keystroke_t	t	n/a
87.3285	0.104	174657	keystroke_Key.enter	Key.enter	n/a
87.439	15.083	174878	prompt	n/a	entity who're bandwidth aaron\n
88.1525	0.104	176305	keystroke_e	e	n/a
88.2885	0.096	176577	keystroke_n	n	n/a
88.4965	0.096	176993	keystroke_t	t	n/a
88.6565	0.088	177313	keystroke_i	i	n/a
88.9605	0.08	177921	keystroke_t	t	n/a
89.1845	0.072	178369	keystroke_y	y	n/a
89.6005	0.112	179201	keystroke_Key.space	Key.space	n/a
89.9925	0.112	179985	keystroke_w	w	n/a
90.1365	0.096	180273	keystroke_o	o	n/a
91.0885	0.096	182177	keystroke_Key.backspace	Key.backspace	n/a
91.3445	0.08	182689	keystroke_h	h	n/a
91.4965	0.112	182993	keystroke_o	o	n/a
91.6885	0.104	183377	keystroke_r	r	n/a
91.8085	0.104	183617	keystroke_e	e	n/a
92.3845	0.104	184769	keystroke_Key.backspace	Key.backspace	n/a
92.5605	0.08	185121	keystroke_Key.backspace	Key.backspace	n/a
92.8085	0.112	185617	keystroke_'	'	n/a
93.0165	0.12	186033	keystroke_r	r	n/a
93.1125	0.096	186225	keystroke_e	e	n/a
93.3605	0.096	186721	keystroke_Key.space	Key.space	n/a
93.7285	0.096	187457	keystroke_b	b	n/a
93.9205	0.088	187841	keystroke_a	a	n/a
94.0165	0.072	188033	keystroke_n	n	n/a
94.1765	0.072	188353	keystroke_d	d	n/a
94.4325	0.096	188865	keystroke_w	w	n/a
94.5605	0.104	189121	keystroke_i	i	n/a
94.7605	0.088	189521	keystroke_c	c	n/a
95.1845	0.072	190369	keystroke_Key.backspace	Key.backspace	n/a
95.9285	0.08	191857	keystroke_t	t	n/a
97.7765	0.08	195553	keystroke_Key.backspace	Key.backspace	n/a
98.4965	0.088	196993	keystroke_d	d	n/a
98.7685	0.056	197537	keystroke_t	t	n/a
99.0245	0.072	198049	keystroke_h	h	n/a
99.7845	0.112	199569	keystroke_Key.space	Key.space	n/a
100.1045	0.0955	200209	keystroke_a	a	n/a
100.288	0.096	200576	keystroke_a	a	n/a
100.56	0.064	201120	keystroke_t	t	n/a
100.7205	0.064	201441	keystroke_o	o	n/a
100.8645	0.064	201729	keystroke_n	n	n/a
101.304	0.088	202608	keystroke_Key.backspace	Key.backspace	n/a
101.48	0.056	202960	keystroke_Key.backspace	Key.backspace	n/a
101.6	0.08	203200	keystroke_Key.backspace	Key.backspace	n/a
101.688	0.088	203376	keystroke_r	r	n/a
101.872	0.096	203744	keystroke_o	o	n/a
102.08	0.08	204160	keystroke_n	n	n/a
102.432	0.088	204864	keystroke_Key.enter	Key.enter	n/a
102.5265	8.3315	205053	prompt	n/a	philippines paste pamela craig\n
103.272	0.152	206544	keystroke_p	p	n/a
103.632	0.088	207264	keystroke_h	h	n/a
103.816	0.096	207632	keystroke_i	i	n/a
104.096	0.096	208192	keystroke_l	l	n/a
104.672	0.12	209344	keystroke_i	i	n/a
105.008	0.088	210016	keystroke_p	p	n/a
105.192	0.08	210384	keystroke_p	p	n/a
105.392	0.128	210784	keystroke_i	i	n/a
105.504	0.08	211008	keystroke_n	n	n/a
105.625	0.095	211250	keystroke_e	e	n/a
105.84	0.104	211680	keystroke_s	s	n/a
106.224	0.08	212448	keystroke_Key.space	Key.space	n/a
106.368	0.104	212736	keystroke_p	p	n/a
106.48	0.112	212960	keystroke_a	a	n/a
106.792	0.112	213584	keystroke_s	s	n/a
107.064	0.088	214128	keystroke_t	t	n/a
107.24	0.096	214480	keystroke_e	e	n/a
107.36	0.096	214720	keystroke_Key.space	Key.space	n/a
107.544	0.104	215088	keystroke_p	p	n/a
107.64	0.096	215280	keystroke_a	a	n/a
107.792	0.096	215584	keystroke_m	m	n/a
107.92	0.096	215840	keystroke_e	e	n/a
108.176	0.104	216352	keystroke_l	l	n/a
108.424	0.088	216848	keystroke_a	a	n/a
109.1365	0.112	218273	keystroke_Key.space	Key.space	n/a
109.4725	0.1195	218945	keystroke_c	c	n/a
109.736	0.104	219472	keystroke_r	r	n/a
109.92	0.08	219840	keystroke_a	a	n/a
110.008	0.096	220016	keystroke_i	i	n/a
110.208	0.088	220416	keystroke_g	g	n/a
110.768	0.088	221536	keystroke_Key.enter	Key.enter	n/a
110.863	6.499	221726	prompt	n/a	lopez total logged plane\n
111.536	0.12	223072	keystroke_l	l	n/a
111.744	0.08	223488	keystroke_o	o	n/a
111.92	0.08	223840	keystroke_p	p	n/a
112.08	0.088	224160	keystroke_e	e	n/a
112.424	0.096	224848	keystroke_z	z	n/a
112.752	0.104	225504	keystroke_Key.space	Key.space	n/a
113.072	0.088	226144	keystroke_t	t	n/a
113.224	0.088	226448	keystroke_o	o	n/a
113.36	0.08	226720	keystroke_t	t	n/a
113.528	0.088	227056	keystroke_a	a	n/a
113.64	0.096	227280	keystroke_l	l	n/a
113.88	0.088	227760	keystroke_Key.space	Key.space	n/a
114.048	0.08	228096	keystroke_l	l	n/a
114.224	0.072	228448	keystroke_o	o	n/a
114.36	0.08	228720	keystroke_g	g	n/a
114.512	0.08	229024	keystroke_g	g	n/a
114.648	0.08	229296	keystroke_e	e	n/a
114.84	0.08	229680	keystroke_d	d	n/a
115.032	0.112	230064	keystroke_Key.space	Key.space	n/a
115.328	0.096	230656	keystroke_p	p	n/a
115.608	0.104	231216	keystroke_a	a	n/a
116.08	0.08	232160	keystroke_Key.backspace	Key.backspace	n/a
116.296	0.128	232592	keystroke_l	l	n/a
116.568	0.112	233136	keystroke_a	a	n/a
116.672	0.088	233344	keystroke_n	n	n/a
116.808	0.104	233616	keystroke_e	e	n/a
117.28	0.08	234560	keystroke_Key.enter	Key.enter	n/a
117.3675	9.138	234735	prompt	n/a	interests recommendation silly ford\n
118.088	0.096	236176	keystroke_i	i	n/a
118.272	0.072	236544	keystroke_n	n	n/a
118.432	0.08	236864	keystroke_t	t	n/a
118.56	0.072	237120	keystroke_e	e	n/a
118.656	0.12	237312	keystroke_r	r	n/a
118.752	0.064	237504	keystroke_e	e	n/a
118.928	0.096	237856	keystroke_s	s	n/a
119.112	0.064	238224	keystroke_t	t	n/a
119.32	0.088	238640	keystroke_s	s	n/a
119.672	0.096	239344	keystroke_Key.space	Key.space	n/a
119.864	0.088	239728	keystroke_r	r	n/a
120.016	0.088	240032	keystroke_e	e	n/a
120.504	0.096	241008	keystroke_c	c	n/a
120.68	0.112	241360	keystroke_o	o	n/a
120.912	0.08	241824	keystroke_m	m	n/a
121.088	0.096	242176	keystroke_m	m	n/a
121.456	0.112	242912	keystroke_e	e	n/a
121.752	0.096	243504	keystroke_n	n	n/a
122	0.088	244000	keystroke_d	d	n/a
122.16	0.104	244320	keystroke_a	a	n/a
122.392	0.064	244784	keystroke_t	t	n/a
122.472	0.088	244944	keystroke_i	i	n/a
122.648	0.08	245296	keystroke_o	o	n/a
122.792	0.096	245584	keystroke_n	n	n/a
122.912	0.096	245824	keystroke_Key.space	Key.space	n/a
123.048	0.088	246096	keystroke_s	s	n/a
123.144	0.088	246288	keystroke_i	i	n/a
123.36	0.072	246720	keystroke_l	l	n/a
123.504	0.088	247008	keystroke_l	l	n/a
123.616	0.088	247232	keystroke_y	y	n/a
123.744	0.096	247488	keystroke_Key.space	Key.space	n/a
123.9685	0.088	247937	keystroke_d	d	n/a
124.4395	0.08	248879	keystroke_Key.backspace	Key.backspace	n/a
124.5515	0.096	249103	keystroke_f	f	n/a
124.6635	0.096	249327	keystroke_o	o	n/a
125.0075	0.12	250015	keystroke_r	r	n/a
125.5915	0.121	251183	keystroke_d	d	n/a
126.4165	0.087	252833	keystroke_Key.enter	Key.enter	n/a
126.5105	11.3715	253021	prompt	n/a	remarks attending algebra occupied\n
127.1595	0.096	254319	keystroke_r	r	n/a
127.3045	0.088	254609	keystroke_e	e	n/a
127.4085	0.119	254817	keystroke_m	m	n/a
127.5915	0.1035	255183	keystroke_a	a	n/a
127.8235	0.0875	255647	keystroke_r	r	n/a
127.9595	0.112	255919	keystroke_k	k	n/a
128.288	0.08	256576	keystroke_s	s	n/a
128.439	0.1045	256878	keystroke_Key.space	Key.space	n/a
128.6235	0.088	257247	keystroke_a	a	n/a
128.8155	0.08	257631	keystroke_t	t	n/a
128.9835	0.072	257967	keystroke_t	t	n/a
129.1355	0.088	258271	keystroke_e	e	n/a
129.2715	0.112	258543	keystroke_n	n	n/a
129.4155	0.096	258831	keystroke_d	d	n/a
129.4955	0.112	258991	keystroke_i	i	n/a
129.5755	0.096	259151	keystroke_n	n	n/a
129.7275	0.072	259455	keystroke_g	g	n/a
129.8315	0.096	259663	keystroke_Key.space	Key.space	n/a
130.1515	0.088	260303	keystroke_a	a	n/a
130.2555	0.096	260511	keystroke_l	l	n/a
130.9035	0.08	261807	keystroke_g	g	n/a
131.4395	0.104	262879	keystroke_e	e	n/a
131.8955	0.128	263791	keystroke_v	v	n/a
132.5195	0.072	265039	keystroke_Key.backspace	Key.backspace	n/a
132.6075	0.128	265215	keystroke_c	c	n/a
132.8795	0.088	265759	keystroke_r	r	n/a
133.2235	0.088	266447	keystroke_Key.backspace	Key.backspace	n/a
133.3835	0.08	266767	keystroke_Key.backspace	Key.backspace	n/a
133.6875	0.08	267375	keystroke_b	b	n/a
134.0475	0.104	268095	keystroke_r	r	n/a
134.4155	0.088	268831	keystroke_a	a	n/a
134.5595	0.112	269119	keystroke_Key.space	Key.space	n/a
135.0955	0.128	270191	keystroke_o	o	n/a
135.3995	0.08	270799	keystroke_c	c	n/a
135.5675	0.08	271135	keystroke_c	c	n/a
135.7195	0.056	271439	keystroke_u	u	n/a
135.9595	0.16	271919	keystroke_p	p	n/a
136.3035	0.088	272607	keystroke_i	i	n/a
136.4875	0.088	272975	keystroke_e	e	n/a
136.6795	0.104	273359	keystroke_d	d	n/a
137.7755	0.104	275551	keystroke_Key.enter	Key.enter	n/a
137.888	5.9535	275776	prompt	n/a	laser chances kent clinics\n
138.4795	0.144	276959	keystroke_l	l	n/a
138.6635	0.072	277327	keystroke_a	a	n/a
138.8075	0.096	277615	keystroke_s	s	n/a
138.9995	0.104	277999	keystroke_e	e	n/a
139.1755	0.08	278351	keystroke_r	r	n/a
139.3115	0.096	278623	keystroke_Key.space	Key.space	n/a
139.5195	0.104	279039	keystroke_c	c	n/a
139.6475	0.088	279295	keystroke_h	h	n/a
139.7515	0.096	279503	keystroke_a	a	n/a
139.8715	0.08	279743	keystroke_n	n	n/a
140.0475	0.08	280095	keystroke_c	c	n/a
140.2075	0.064	280415	keystroke_e	e	n/a
140.4075	0.08	280815	keystroke_s	s	n/a
140.5195	0.096	281039	keystroke_Key.space	Key.space	n/a
140.7515	0.12	281503	keystroke_k	k	n/a
140.8955	0.104	281791	keystroke_e	e	n/a
141.0155	0.088	282031	keystroke_n	n	n/a
141.1595	0.072	282319	keystroke_t	t	n/a
141.4715	0.104	282943	keystroke_Key.space	Key.space	n/a
141.7515	0.088	283503	keystroke_c	c	n/a
141.8475	0.096	283695	keystroke_l	l	n/a
142.0555	0.096	284111	keystroke_i	i	n/a
142.1595	0.089	284319	keystroke_n	n	n/a
142.3355	0.088	284671	keystroke_i	i	n/a
142.5195	0.08	285039	keystroke_c	c	n/a
142.7275	0.08	285455	keystroke_s	s	n/a
143.7515	0.088	287503	keystroke_Key.enter	Key.enter	n/a
143.847	11.9385	287694	prompt	n/a	seem show worst vacuum\n
144.5195	0.096	289039	keystroke_s	s	n/a
144.7275	0.08	289455	keystroke_e	e	n/a
144.8875	0.096	289775	keystroke_e	e	n/a
145.1675	0.128	290335	keystroke_m	m	n/a
145.4875	0.096	290975	keystroke_Key.space	Key.space	n/a
145.6155	0.096	291231	keystroke_s	s	n/a
145.7435	0.072	291487	keystroke_h	h	n/a
145.8875	0.096	291775	keystroke_o	o	n/a
146.0155	0.088	292031	keystroke_w	w	n/a
146.1355	0.096	292271	keystroke_Key.space	Key.space	n/a
146.5115	0.096	293023	keystroke_w	w	n/a
147.1515	0.096	294303	keystroke_o	o	n/a
147.6395	0.112	295279	keystroke_s	s	n/a
148.0235	0.096	296047	keystroke_t	t	n/a
148.6875	0.08	297375	keystroke_Key.backspace	Key.backspace	n/a
149.0315	0.112	298063	keystroke_Key.backspace	Key.backspace	n/a
149.1755	0.096	298351	keystroke_r	r	n/a
149.4955	0.12	298991	keystroke_s	s	n/a
149.7915	0.096	299583	keystroke_t	t	n/a
150.1355	0.12	300271	keystroke_Key.space	Key.space	n/a
150.5115	0.112	301023	keystroke_c	c	n/a
150.7595	0.096	301519	keystroke_a	a	n/a
151.1915	0.08	302383	keystroke_Key.backspace	Key.backspace	n/a
151.3435	0.088	302687	keystroke_Key.backspace	Key.backspace	n/a
151.9595	0.088	303919	keystroke_v	v	n/a
152.1195	0.096	304239	keystroke_a	a	n/a
152.3675	0.088	304735	keystroke_c	c	n/a
152.7835	0.104	305567	keystroke_u	u	n/a
152.9995	0.056	305999	keystroke_i	i	n/a
153.0155	0.024	306031	keystroke_u	u	n/a
153.8475	0.088	307695	keystroke_Key.backspace	Key.backspace	n/a
154.0315	0.088	308063	keystroke_Key.backspace	Key.backspace	n/a
154.5995	0.104	309199	keystroke_u	u	n/a
155.0635	0.144	310127	keystroke_m	m	n/a
155.6955	0.088	311391	keystroke_Key.enter	Key.enter	n/a
155.7955	13.766	311591	prompt	n/a	friday annoying unemployment however\n
156.8075	0.088	313615	keystroke_g	g	n/a
157.2235	0.072	314447	keystroke_Key.backspace	Key.backspace	n/a
157.3835	0.088	314767	keystroke_f	f	n/a
157.5755	0.072	315151	keystroke_r	r	n/a
157.6635	0.072	315327	keystroke_i	i	n/a
157.8635	0.088	315727	keystroke_d	d	n/a
158.0315	0.096	316063	keystroke_a	a	n/a
158.6555	0.096	317311	keystroke_y	y	n/a
159.2235	0.0955	318447	keystroke_Key.space	Key.space	n/a
159.423	0.1045	318846	keystroke_a	a	n/a
159.5435	0.072	319087	keystroke_n	n	n/a
159.6955	0.08	319391	keystroke_n	n	n/a
159.8395	0.12	319679	keystroke_o	o	n/a
160.0395	0.096	320079	keystroke_y	y	n/a
160.1595	0.0875	320319	keystroke_i	i	n/a
160.295	0.072	320590	keystroke_n	n	n/a
160.415	0.072	320830	keystroke_g	g	n/a
161.0235	0.112	322047	keystroke_Key.space	Key.space	n/a
161.239	0.088	322478	keystroke_e	e	n/a
161.335	0.104	322670	keystroke_m	m	n/a
161.535	0.0885	323070	keystroke_p	p	n/a
161.759	0.112	323518	keystroke_l	l	n/a
162.039	0.0885	324078	keystroke_o	o	n/a
162.279	0.096	324558	keystroke_w	w	n/a
162.479	0.104	324958	keystroke_m	m	n/a
162.671	0.112	325342	keystroke_e	e	n/a
163.055	0.08	326110	keystroke_Key.backspace	Key.backspace	n/a
163.231	0.072	326462	keystroke_Key.backspace	Key.backspace	n/a
163.383	0.072	326766	keystroke_Key.backspace	Key.backspace	n/a
163.527	0.08	327054	keystroke_Key.backspace	Key.backspace	n/a
164.439	0.096	328878	keystroke_o	o	n/a
164.863	0.08	329726	keystroke_y	y	n/a
164.999	0.088	329998	keystroke_m	m	n/a
165.127	0.096	330254	keystroke_e	e	n/a
165.215	0.072	330430	keystroke_n	n	n/a
165.383	0.0645	330766	keystroke_t	t	n/a
165.919	0.096	331838	keystroke_Key.space	Key.space	n/a
166.5035	0.112	333007	keystroke_h	h	n/a
166.6785	0.112	333357	keystroke_o	o	n/a
167.2955	0.112	334591	keystroke_w	w	n/a
168.0705	0.12	336141	keystroke_e	e	n/a
168.3985	0.104	336797	keystroke_v	v	n/a
168.8145	0.12	337629	keystroke_e	e	n/a
169.0395	0.088	338079	keystroke_r	r	n/a
169.4465	0.112	338893	keystroke_Key.enter	Key.enter	n/a
169.568	13.2255	339136	prompt	n/a	changing ranges distribute statistical\n
170.2475	0.103	340495	keystroke_c	c	n/a
170.3585	0.08	340717	keystroke_h	h	n/a
170.4545	0.096	340909	keystroke_a	a	n/a
170.5825	0.08	341165	keystroke_n	n	n/a
170.8865	0.104	341773	keystroke_d	d	n/a
171.2235	0.104	342447	keystroke_i	i	n/a
171.5425	0.089	343085	keystroke_Key.backspace	Key.backspace	n/a
171.7105	0.088	343421	keystroke_Key.backspace	Key.backspace	n/a
172.4555	0.08	344911	keystroke_g	g	n/a
172.5505	0.072	345101	keystroke_i	i	n/a
172.6705	0.088	345341	keystroke_n	n	n/a
172.8065	0.073	345613	keystroke_g	g	n/a
173.127	0.104	346254	keystroke_Key.space	Key.space	n/a
173.319	0.088	346638	keystroke_r	r	n/a
173.487	0.088	346974	keystroke_a	a	n/a
173.591	0.072	347182	keystroke_n	n	n/a
173.807	0.088	347614	keystroke_g	g	n/a
174.007	0.08	348014	keystroke_e	e	n/a
174.231	0.096	348462	keystroke_s	s	n/a
174.735	0.088	349470	keystroke_Key.space	Key.space	n/a
174.919	0.096	349838	keystroke_d	d	n/a
175.023	0.096	350046	keystroke_i	i	n/a
175.175	0.104	350350	keystroke_s	s	n/a
176.015	0.104	352030	keystroke_t	t	n/a
176.247	0.096	352494	keystroke_r	r	n/a
176.391	0.088	352782	keystroke_i	i	n/a
176.607	0.072	353214	keystroke_v	v	n/a
177.047	0.128	354094	keystroke_u	u	n/a
177.407	0.072	354814	keystroke_Key.backspace	Key.backspace	n/a
177.559	0.096	355118	keystroke_Key.backspace	Key.backspace	n/a
178.335	0.088	356670	keystroke_b	b	n/a
178.495	0.072	356990	keystroke_u	u	n/a
178.759	0.096	357518	keystroke_t	t	n/a
179.127	0.088	358254	keystroke_e	e	n/a
179.231	0.112	358462	keystroke_Key.space	Key.space	n/a
179.447	0.104	358894	keystroke_s	s	n/a
179.671	0.088	359342	keystroke_t	t	n/a
179.863	0.104	359726	keystroke_a	a	n/a
180.071	0.08	360142	keystroke_t	t	n/a
180.199	0.104	360398	keystroke_i	i	n/a
180.799	0.096	361598	keystroke_s	s	n/a
181.495	0.096	362990	keystroke_t	t	n/a
181.727	0.112	363454	keystroke_i	i	n/a
182.047	0.104	364094	keystroke_c	c	n/a
182.183	0.104	364366	keystroke_a	a	n/a
182.279	0.128	364558	keystroke_l	l	n/a
182.711	0.08	365422	keystroke_Key.enter	Key.enter	n/a
182.7995	7.681	365599	prompt	n/a	relations glen little accepting\n
183.511	0.048	367022	keystroke_r	r	n/a
183.903	0.096	367806	keystroke_e	e	n/a
184.063	0.128	368126	keystroke_l	l	n/a
184.4945	0.12	368989	keystroke_a	a	n/a
184.7665	0.0805	369533	keystroke_t	t	n/a
184.895	0.096	369790	keystroke_i	i	n/a
185.087	0.088	370174	keystroke_o	o	n/a
185.247	0.096	370494	keystroke_n	n	n/a
185.551	0.088	371102	keystroke_s	s	n/a
185.847	0.104	371694	keystroke_Key.space	Key.space	n/a
186.3425	0.104	372685	keystroke_g	g	n/a
186.7105	0.104	373421	keystroke_l	l	n/a
186.839	0.0795	373678	keystroke_e	e	n/a
187.055	0.1115	374110	keystroke_n	n	n/a
187.439	0.096	374878	keystroke_Key.space	Key.space	n/a
187.639	0.1035	375278	keystroke_l	l	n/a
187.8385	0.08	375677	keystroke_i	i	n/a
188.0465	0.064	376093	keystroke_t	t	n/a
188.199	0.0795	376398	keystroke_t	t	n/a
188.3025	0.104	376605	keystroke_l	l	n/a
188.4225	0.088	376845	keystroke_e	e	n/a
188.7105	0.128	377421	keystroke_Key.space	Key.space	n/a
189.0465	0.08	378093	keystroke_a	a	n/a
189.2065	0.072	378413	keystroke_c	c	n/a
189.3585	0.081	378717	keystroke_c	c	n/a
189.5185	0.088	379037	keystroke_e	e	n/a
189.6145	0.112	379229	keystroke_p	p	n/a
189.8145	0.064	379629	keystroke_t	t	n/a
189.9345	0.096	379869	keystroke_i	i	n/a
190.0465	0.08	380093	keystroke_n	n	n/a
190.1585	0.08	380317	keystroke_g	g	n/a
190.3825	0.096	380765	keystroke_Key.enter	Key.enter	n/a
190.4895	11.087	380979	prompt	n/a	dance particularly years gadgets\n
191.2305	0.1525	382461	keystroke_d	d	n/a
191.471	0.1035	382942	keystroke_a	a	n/a
191.6065	0.128	383213	keystroke_n	n	n/a
191.9185	0.0645	383837	keystroke_c	c	n/a
192.3825	0.088	384765	keystroke_e	e	n/a
192.5985	0.096	385197	keystroke_Key.space	Key.space	n/a
192.7825	0.12	385565	keystroke_p	p	n/a
193.0225	0.096	386045	keystroke_a	a	n/a
193.2305	0.104	386461	keystroke_r	r	n/a
193.4625	0.064	386925	keystroke_t	t	n/a
193.5825	0.128	387165	keystroke_i	i	n/a
193.8145	0.096	387629	keystroke_c	c	n/a
193.9435	0.103	387887	keystroke_u	u	n/a
194.2545	0.136	388509	keystroke_l	l	n/a
194.855	0.1275	389710	keystroke_a	a	n/a
195.1425	0.104	390285	keystroke_r	r	n/a
195.367	0.1195	390734	keystroke_l	l	n/a
195.5505	0.088	391101	keystroke_y	y	n/a
196.2625	0.144	392525	keystroke_Key.space	Key.space	n/a
197.2945	0.08	394589	keystroke_y	y	n/a
197.4225	0.096	394845	keystroke_e	e	n/a
197.6155	0.127	395231	keystroke_a	a	n/a
197.9665	0.104	395933	keystroke_r	r	n/a
198.4705	0.096	396941	keystroke_s	s	n/a
198.7265	0.12	397453	keystroke_Key.space	Key.space	n/a
199.7905	0.088	399581	keystroke_g	g	n/a
199.9665	0.096	399933	keystroke_a	a	n/a
200.2465	0.088	400493	keystroke_d	d	n/a
200.5105	0.072	401021	keystroke_g	g	n/a
200.6625	0.088	401325	keystroke_e	e	n/a
200.8385	0.081	401677	keystroke_t	t	n/a
201.1345	0.08	402269	keystroke_s	s	n/a
201.4705	0.104	402941	keystroke_Key.enter	Key.enter	n/a
201.5815	8.0515	403163	prompt	n/a	restored thinkpad issue extend\n
202.2315	0.103	404463	keystroke_r	r	n/a
202.4865	0.088	404973	keystroke_e	e	n/a
202.7025	0.104	405405	keystroke_s	s	n/a
202.9985	0.104	405997	keystroke_t	t	n/a
203.2385	0.088	406477	keystroke_o	o	n/a
203.4065	0.08	406813	keystroke_r	r	n/a
203.5825	0.088	407165	keystroke_e	e	n/a
203.7665	0.136	407533	keystroke_d	d	n/a
204.2945	0.112	408589	keystroke_Key.space	Key.space	n/a
204.5105	0.089	409021	keystroke_t	t	n/a
204.6385	0.088	409277	keystroke_h	h	n/a
204.7825	0.112	409565	keystroke_i	i	n/a
204.8705	0.184	409741	keystroke_n	n	n/a
205.1265	0.128	410253	keystroke_k	k	n/a
205.5745	0.112	411149	keystroke_p	p	n/a
205.7665	0.104	411533	keystroke_a	a	n/a
205.9985	0.096	411997	keystroke_d	d	n/a
206.2225	0.096	412445	keystroke_Key.space	Key.space	n/a
206.4145	0.08	412829	keystroke_i	i	n/a
206.5505	0.064	413101	keystroke_s	s	n/a
206.6945	0.105	413389	keystroke_s	s	n/a
206.8305	0.088	413661	keystroke_u	u	n/a
207.0065	0.088	414013	keystroke_e	e	n/a
207.8305	0.096	415661	keystroke_Key.space	Key.space	n/a
208.1825	0.104	416365	keystroke_e	e	n/a
208.4465	0.112	416893	keystroke_x	x	n/a
208.7345	0.072	417469	keystroke_t	t	n/a
208.8785	0.08	417757	keystroke_e	e	n/a
208.9755	0.079	417951	keystroke_n	n	n/a
209.0865	0.088	418173	keystroke_d	d	n/a
209.2305	0.072	418461	keystroke_e	e	n/a
209.3905	0.088	418781	keystroke_d	d	n/a
209.5425	0.088	419085	keystroke_Key.enter	Key.enter	n/a
209.6395	9.433	419279	prompt	n/a	digital valentine largest communicate\n
211.0705	0.136	422141	keystroke_d	d	n/a
211.2705	0.104	422541	keystroke_i	i	n/a
211.4785	0.08	422957	keystroke_g	g	n/a
211.6305	0.104	423261	keystroke_i	i	n/a
212.3185	0.104	424637	keystroke_t	t	n/a
212.5585	0.08	425117	keystroke_a	a	n/a
212.7425	0.144	425485	keystroke_l	l	n/a
213.0225	0.104	426045	keystroke_Key.space	Key.space	n/a
213.7345	0.088	427469	keystroke_v	v	n/a
213.8785	0.104	427757	keystroke_a	a	n/a
214.0065	0.096	428013	keystroke_l	l	n/a
214.1345	0.088	428269	keystroke_e	e	n/a
214.2545	0.072	428509	keystroke_n	n	n/a
214.3825	0.072	428765	keystroke_t	t	n/a
214.4945	0.072	428989	keystroke_i	i	n/a
214.6065	0.072	429213	keystroke_n	n	n/a
214.7425	0.08	429485	keystroke_e	e	n/a
215.5345	0.112	431069	keystroke_Key.space	Key.space	n/a
215.7825	0.112	431565	keystroke_l	l	n/a
215.9345	0.088	431869	keystroke_a	a	n/a
216.1105	0.072	432221	keystroke_r	r	n/a
216.3105	0.064	432621	keystroke_g	g	n/a
216.4465	0.08	432893	keystroke_e	e	n/a
216.5905	0.096	433181	keystroke_s	s	n/a
216.8065	0.072	433613	keystroke_t	t	n/a
216.9105	0.088	433821	keystroke_Key.space	Key.space	n/a
217.0705	0.08	434141	keystroke_c	c	n/a
217.1425	0.088	434285	keystroke_o	o	n/a
217.3265	0.072	434653	keystroke_m	m	n/a
217.4785	0.088	434957	keystroke_m	m	n/a
217.6945	0.088	435389	keystroke_u	u	n/a
217.9105	0.088	435821	keystroke_n	n	n/a
218.0945	0.088	436189	keystroke_i	i	n/a
218.2865	0.112	436573	keystroke_c	c	n/a
218.4545	0.104	436909	keystroke_a	a	n/a
218.6545	0.088	437309	keystroke_t	t	n/a
218.7825	0.096	437565	keystroke_e	e	n/a
218.9905	0.08	437981	keystroke_Key.enter	Key.enter	n/a
219.0775	14.291	438155	prompt	n/a	wicked programmers edinburgh consistently\n
219.7105	0.112	439421	keystroke_w	w	n/a
219.9665	0.08	439933	keystroke_i	i	n/a
220.1185	0.064	440237	keystroke_c	c	n/a
220.3425	0.112	440685	keystroke_k	k	n/a
220.5105	0.088	441021	keystroke_e	e	n/a
220.7185	0.088	441437	keystroke_d	d	n/a
220.8625	0.088	441725	keystroke_Key.space	Key.space	n/a
221.0225	0.104	442045	keystroke_p	p	n/a
221.1665	0.088	442333	keystroke_r	r	n/a
221.3425	0.088	442685	keystroke_o	o	n/a
221.8385	0.128	443677	keystroke_g	g	n/a
222.1665	0.112	444333	keystroke_r	r	n/a
222.4625	0.08	444925	keystroke_a	a	n/a
222.5585	0.096	445117	keystroke_m	m	n/a
222.7425	0.088	445485	keystroke_m	m	n/a
222.8785	0.112	445757	keystroke_e	e	n/a
223.0865	0.08	446173	keystroke_r	r	n/a
223.3105	0.1125	446621	keystroke_s	s	n/a
224.222	0.104	448444	keystroke_Key.space	Key.space	n/a
224.511	0.103	449022	keystroke_e	e	n/a
224.759	0.119	449518	keystroke_d	d	n/a
224.974	0.121	449948	keystroke_i	i	n/a
225.063	0.12	450126	keystroke_n	n	n/a
225.654	0.128	451308	keystroke_b	b	n/a
225.815	0.096	451630	keystroke_u	u	n/a
226.175	0.111	452350	keystroke_r	r	n/a
226.55	0.105	453100	keystroke_g	g	n/a
227.334	0.137	454668	keystroke_h	h	n/a
230.0545	0.144	460109	keystroke_Key.space	Key.space	n/a
230.3905	0.12	460781	keystroke_o	o	n/a
230.9185	0.063	461837	keystroke_Key.backspace	Key.backspace	n/a
231.0625	0.104	462125	keystroke_c	c	n/a
231.1745	0.096	462349	keystroke_o	o	n/a
231.3665	0.08	462733	keystroke_n	n	n/a
231.6625	0.112	463325	keystroke_s	s	n/a
231.7985	0.088	463597	keystroke_i	i	n/a
232.0065	0.12	464013	keystroke_s	s	n/a
232.2705	0.096	464541	keystroke_t	t	n/a
232.4145	0.088	464829	keystroke_e	e	n/a
232.4935	0.097	464987	keystroke_n	n	n/a
232.6225	0.072	465245	keystroke_t	t	n/a
232.7585	0.08	465517	keystroke_l	l	n/a
232.8545	0.072	465709	keystroke_y	y	n/a
233.2865	0.08	466573	keystroke_Key.enter	Key.enter	n/a
233.3725	11.668	466745	prompt	n/a	dedicated recently opening brazil\n
234.8305	0.096	469661	keystroke_d	d	n/a
235.0065	0.088	470013	keystroke_e	e	n/a
235.7025	0.12	471405	keystroke_d	d	n/a
235.9825	0.096	471965	keystroke_i	i	n/a
236.1985	0.096	472397	keystroke_c	c	n/a
236.3585	0.104	472717	keystroke_a	a	n/a
236.5905	0.096	473181	keystroke_t	t	n/a
236.7505	0.072	473501	keystroke_e	e	n/a
236.9265	0.088	473853	keystroke_d	d	n/a
237.0865	0.104	474173	keystroke_Key.space	Key.space	n/a
237.3105	0.096	474621	keystroke_r	r	n/a
237.4465	0.096	474893	keystroke_e	e	n/a
237.6545	0.072	475309	keystroke_c	c	n/a
237.7815	0.097	475563	keystroke_e	e	n/a
238.0535	0.129	476107	keystroke_n	n	n/a
238.3505	0.12	476701	keystroke_t	t	n/a
238.6865	0.12	477373	keystroke_l	l	n/a
238.8145	0.088	477629	keystroke_y	y	n/a
239.0945	0.096	478189	keystroke_Key.space	Key.space	n/a
239.2945	0.112	478589	keystroke_o	o	n/a
239.5585	0.112	479117	keystroke_p	p	n/a
239.7345	0.088	479469	keystroke_e	e	n/a
239.8305	0.08	479661	keystroke_n	n	n/a
239.9495	0.113	479899	keystroke_i	i	n/a
240.0385	0.096	480077	keystroke_n	n	n/a
240.1505	0.08	480301	keystroke_g	g	n/a
240.2625	0.104	480525	keystroke_Key.space	Key.space	n/a
240.7905	0.08	481581	keystroke_b	b	n/a
240.9825	0.08	481965	keystroke_r	r	n/a
241.1665	0.072	482333	keystroke_a	a	n/a
242.2465	0.088	484493	keystroke_z	z	n/a
242.3505	0.096	484701	keystroke_i	i	n/a
242.5425	0.088	485085	keystroke_l	l	n/a
244.9265	0.112	489853	keystroke_Key.enter	Key.enter	n/a
245.046	10.7145	490092	prompt	n/a	look contribution serve graphics\n
246.0305	0.096	492061	keystroke_l	l	n/a
246.2465	0.072	492493	keystroke_o	o	n/a
246.3985	0.088	492797	keystroke_o	o	n/a
246.5665	0.095	493133	keystroke_k	k	n/a
246.7815	0.104	493563	keystroke_Key.space	Key.space	n/a
246.9985	0.104	493997	keystroke_c	c	n/a
247.0775	0.073	494155	keystroke_o	o	n/a
247.2305	0.08	494461	keystroke_n	n	n/a
247.6065	0.104	495213	keystroke_t	t	n/a
248.5735	0.145	497147	keystroke_r	r	n/a
248.9105	0.096	497821	keystroke_i	i	n/a
249.1105	0.112	498221	keystroke_b	b	n/a
249.8225	0.16	499645	keystroke_u	u	n/a
250.2945	0.096	500589	keystroke_t	t	n/a
250.4065	0.096	500813	keystroke_i	i	n/a
250.5825	0.096	501165	keystroke_o	o	n/a
250.7345	0.112	501469	keystroke_n	n	n/a
251.3345	0.103	502669	keystroke_Key.space	Key.space	n/a
251.5505	0.096	503101	keystroke_s	s	n/a
251.7185	0.12	503437	keystroke_e	e	n/a
252.0545	0.12	504109	keystroke_r	r	n/a
252.3985	0.072	504797	keystroke_b	b	n/a
252.9735	0.072	505947	keystroke_Key.backspace	Key.backspace	n/a
253.0385	0.12	506077	keystroke_v	v	n/a
253.1745	0.111	506349	keystroke_e	e	n/a
253.6695	0.097	507339	keystroke_Key.space	Key.space	n/a
254.3735	0.081	508747	keystroke_g	g	n/a
254.5505	0.08	509101	keystroke_r	r	n/a
254.7185	0.08	509437	keystroke_a	a	n/a
254.8145	0.096	509629	keystroke_p	p	n/a
255.0225	0.08	510045	keystroke_h	h	n/a
255.1735	0.089	510347	keystroke_i	i	n/a
255.3025	0.08	510605	keystroke_c	c	n/a
255.4465	0.088	510893	keystroke_s	s	n/a
255.6865	0.071	511373	keystroke_Key.enter	Key.enter	n/a
255.765	8.171	511530	prompt	n/a	accompanied journalist nice misc\n
256.5665	0.128	513133	keystroke_a	a	n/a
256.9025	0.08	513805	keystroke_c	c	n/a
257.0945	0.088	514189	keystroke_c	c	n/a
257.2625	0.088	514525	keystroke_o	o	n/a
257.4145	0.079	514829	keystroke_m	m	n/a
257.5745	0.096	515149	keystroke_p	p	n/a
257.7185	0.112	515437	keystroke_a	a	n/a
257.8385	0.072	515677	keystroke_n	n	n/a
257.9985	0.08	515997	keystroke_i	i	n/a
258.1265	0.088	516253	keystroke_e	e	n/a
258.3105	0.096	516621	keystroke_d	d	n/a
258.4375	0.096	516875	keystroke_Key.space	Key.space	n/a
258.6385	0.064	517277	keystroke_k	k	n/a
259.2385	0.087	518477	keystroke_Key.backspace	Key.backspace	n/a
259.4625	0.104	518925	keystroke_j	j	n/a
259.6945	0.088	519389	keystroke_o	o	n/a
259.9025	0.08	519805	keystroke_u	u	n/a
260.0945	0.088	520189	keystroke_r	r	n/a
260.2305	0.088	520461	keystroke_n	n	n/a
260.4305	0.104	520861	keystroke_a	a	n/a
260.6385	0.12	521277	keystroke_l	l	n/a
261.0785	0.088	522157	keystroke_i	i	n/a
261.3335	0.112	522667	keystroke_s	s	n/a
261.5665	0.08	523133	keystroke_t	t	n/a
261.7015	0.088	523403	keystroke_Key.space	Key.space	n/a
262.0065	0.088	524013	keystroke_n	n	n/a
262.1415	0.089	524283	keystroke_i	i	n/a
262.2385	0.088	524477	keystroke_c	c	n/a
262.3905	0.087	524781	keystroke_e	e	n/a
262.4935	0.096	524987	keystroke_Key.space	Key.space	n/a
262.7735	0.104	525547	keystroke_m	m	n/a
262.9985	0.096	525997	keystroke_i	i	n/a
263.1745	0.095	526349	keystroke_s	s	n/a
263.4785	0.104	526957	keystroke_c	c	n/a
263.8385	0.095	527677	keystroke_Key.enter	Key.enter	n/a
263.941	11.8115	527882	prompt	n/a	margin higher assault pennsylvania\n
264.7585	0.056	529517	keystroke_m	m	n/a
264.9425	0.103	529885	keystroke_a	a	n/a
265.1585	0.087	530317	keystroke_r	r	n/a
265.4145	0.104	530829	keystroke_g	g	n/a
265.7905	0.119	531581	keystroke_i	i	n/a
265.9665	0.112	531933	keystroke_n	n	n/a
266.1735	0.096	532347	keystroke_Key.space	Key.space	n/a
266.3985	0.088	532797	keystroke_h	h	n/a
266.5425	0.104	533085	keystroke_i	i	n/a
266.6865	0.087	533373	keystroke_g	g	n/a
266.7825	0.063	533565	keystroke_h	h	n/a
266.8695	0.097	533739	keystroke_e	e	n/a
267.0455	0.081	534091	keystroke_r	r	n/a
267.2455	0.096	534491	keystroke_Key.space	Key.space	n/a
267.4385	0.088	534877	keystroke_a	a	n/a
267.6375	0.073	535275	keystroke_s	s	n/a
267.7745	0.104	535549	keystroke_s	s	n/a
267.9655	0.089	535931	keystroke_a	a	n/a
268.1345	0.104	536269	keystroke_u	u	n/a
268.3985	0.095	536797	keystroke_l	l	n/a
268.5815	0.065	537163	keystroke_y	y	n/a
269.1815	0.072	538363	keystroke_Key.backspace	Key.backspace	n/a
269.2625	0.104	538525	keystroke_t	t	n/a
269.4615	0.096	538923	keystroke_Key.space	Key.space	n/a
269.7505	0.119	539501	keystroke_p	p	n/a
269.9015	0.104	539803	keystroke_e	e	n/a
270.0385	0.08	540077	keystroke_n	n	n/a
270.2065	0.096	540413	keystroke_n	n	n/a
270.4305	0.087	540861	keystroke_y	y	n/a
271.0225	0.071	542045	keystroke_Key.backspace	Key.backspace	n/a
271.1415	0.128	542283	keystroke_s	s	n/a
271.4775	0.113	542955	keystroke_l	l	n/a
271.6055	0.097	543211	keystroke_y	y	n/a
272.4935	0.088	544987	keystroke_v	v	n/a
272.6625	0.088	545325	keystroke_a	a	n/a
272.7905	0.087	545581	keystroke_n	n	n/a
272.9745	0.088	545949	keystroke_n	n	n/a
273.1415	0.112	546283	keystroke_i	i	n/a
273.6455	0.112	547291	keystroke_Key.backspace	Key.backspace	n/a
274.3575	0.088	548715	keystroke_Key.backspace	Key.backspace	n/a
274.9735	0.096	549947	keystroke_i	i	n/a
275.1495	0.104	550299	keystroke_a	a	n/a
275.6455	0.104	551291	keystroke_Key.enter	Key.enter	n/a
275.7575	11.7545	551515	prompt	n/a	edges chairs interim removing\n
276.4785	0.111	552957	keystroke_e	e	n/a
276.7895	0.153	553579	keystroke_d	d	n/a
277.1665	0.103	554333	keystroke_g	g	n/a
277.4545	0.111	554909	keystroke_e	e	n/a
277.7905	0.103	555581	keystroke_s	s	n/a
277.9265	0.111	555853	keystroke_Key.space	Key.space	n/a
278.1025	0.087	556205	keystroke_c	c	n/a
278.2135	0.088	556427	keystroke_h	h	n/a
278.3105	0.096	556621	keystroke_a	a	n/a
278.7665	0.095	557533	keystroke_r	r	n/a
279.5185	0.079	559037	keystroke_Key.backspace	Key.backspace	n/a
279.7585	0.079	559517	keystroke_i	i	n/a
279.9185	0.096	559837	keystroke_r	r	n/a
280.3735	0.088	560747	keystroke_s	s	n/a
280.7575	0.112	561515	keystroke_Key.space	Key.space	n/a
280.9985	0.104	561997	keystroke_i	i	n/a
281.2695	0.104	562539	keystroke_n	n	n/a
281.5185	0.096	563037	keystroke_t	t	n/a
281.6455	0.089	563291	keystroke_e	e	n/a
281.7655	0.081	563531	keystroke_r	r	n/a
281.9425	0.055	563885	keystroke_n	n	n/a
282.7655	0.096	565531	keystroke_Key.backspace	Key.backspace	n/a
283.0545	0.112	566109	keystroke_i	i	n/a
283.3255	0.113	566651	keystroke_m	m	n/a
284.4295	0.096	568859	keystroke_Key.space	Key.space	n/a
284.8935	0.041	569787	keystroke_t	t	n/a
284.9025	0.032	569805	keystroke_r	r	n/a
285.0055	0.088	570011	keystroke_e	e	n/a
285.4695	0.088	570939	keystroke_Key.backspace	Key.backspace	n/a
285.6455	0.072	571291	keystroke_Key.backspace	Key.backspace	n/a
285.7815	0.072	571563	keystroke_Key.backspace	Key.backspace	n/a
285.9105	0.111	571821	keystroke_r	r	n/a
286.0055	0.105	572011	keystroke_e	e	n/a
286.4065	0.136	572813	keystroke_m	m	n/a
286.6305	0.12	573261	keystroke_o	o	n/a
286.9415	0.104	573883	keystroke_v	v	n/a
287.0295	0.104	574059	keystroke_i	i	n/a
287.1255	0.064	574251	keystroke_n	n	n/a
287.2465	0.071	574493	keystroke_g	g	n/a
287.4455	0.064	574891	keystroke_Key.enter	Key.enter	n/a
287.5185	13.2575	575037	prompt	n/a	emergency virtual showtimes formation\n
288.6065	0.111	577213	keystroke_e	e	n/a
288.9495	0.12	577899	keystroke_m	m	n/a
289.2145	0.087	578429	keystroke_b	b	n/a
289.5655	0.088	579131	keystroke_Key.backspace	Key.backspace	n/a
289.7025	0.104	579405	keystroke_e	e	n/a
289.8615	0.112	579723	keystroke_r	r	n/a
290.2215	0.089	580443	keystroke_g	g	n/a
290.3825	0.087	580765	keystroke_e	e	n/a
290.5025	0.112	581005	keystroke_n	n	n/a
290.8305	0.111	581661	keystroke_c	c	n/a
291.1105	0.08	582221	keystroke_y	y	n/a
291.2855	0.08	582571	keystroke_Key.space	Key.space	n/a
291.7985	0.104	583597	keystroke_w	w	n/a
292.1575	0.072	584315	keystroke_Key.backspace	Key.backspace	n/a
292.2465	0.112	584493	keystroke_v	v	n/a
292.4375	0.104	584875	keystroke_i	i	n/a
294.0705	0.12	588141	keystroke_r	r	n/a
294.6215	0.097	589243	keystroke_t	t	n/a
294.7985	0.095	589597	keystroke_u	u	n/a
294.9735	0.097	589947	keystroke_a	a	n/a
295.1745	0.112	590349	keystroke_l	l	n/a
295.7335	0.088	591467	keystroke_Key.space	Key.space	n/a
295.8615	0.112	591723	keystroke_s	s	n/a
295.9895	0.064	591979	keystroke_h	h	n/a
296.1265	0.088	592253	keystroke_o	o	n/a
296.2385	0.103	592477	keystroke_w	w	n/a
296.6305	0.087	593261	keystroke_t	t	n/a
296.7495	0.113	593499	keystroke_i	i	n/a
296.9815	0.073	593963	keystroke_m	m	n/a
297.0775	0.081	594155	keystroke_e	e	n/a
297.2865	0.08	594573	keystroke_s	s	n/a
297.7815	0.096	595563	keystroke_Key.space	Key.space	n/a
298.6455	0.096	597291	keystroke_f	f	n/a
298.7745	0.087	597549	keystroke_o	o	n/a
299.4305	0.104	598861	keystroke_r	r	n/a
299.7095	0.136	599419	keystroke_m	m	n/a
300.0145	0.103	600029	keystroke_a	a	n/a
300.2295	0.072	600459	keystroke_t	t	n/a
300.2935	0.08	600587	keystroke_i	i	n/a
300.4545	0.104	600909	keystroke_o	o	n/a
300.5335	0.072	601067	keystroke_n	n	n/a
300.6935	0.08	601387	keystroke_Key.enter	Key.enter	n/a
300.7835	9.5605	601567	prompt	n/a	living tech safe opinions\n
301.4945	0.096	602989	keystroke_l	l	n/a
301.7025	0.088	603405	keystroke_i	i	n/a
301.9105	0.128	603821	keystroke_v	v	n/a
302.0545	0.127	604109	keystroke_i	i	n/a
302.1575	0.088	604315	keystroke_n	n	n/a
302.2935	0.081	604587	keystroke_g	g	n/a
302.4375	0.104	604875	keystroke_Key.space	Key.space	n/a
302.6865	0.071	605373	keystroke_s	s	n/a
302.9655	0.072	605931	keystroke_Key.backspace	Key.backspace	n/a
303.0545	0.08	606109	keystroke_t	t	n/a
303.1575	0.112	606315	keystroke_e	e	n/a
303.3815	0.089	606763	keystroke_c	c	n/a
303.5105	0.087	607021	keystroke_h	h	n/a
303.7895	0.096	607579	keystroke_Key.space	Key.space	n/a
303.9655	0.104	607931	keystroke_s	s	n/a
304.1655	0.096	608331	keystroke_a	a	n/a
304.3735	0.081	608747	keystroke_g	g	n/a
304.5265	0.087	609053	keystroke_e	e	n/a
304.7735	0.104	609547	keystroke_Key.space	Key.space	n/a
305.0695	0.0885	610139	keystroke_Key.backspace	Key.backspace	n/a
305.238	0.08	610476	keystroke_Key.backspace	Key.backspace	n/a
305.406	0.096	610812	keystroke_Key.backspace	Key.backspace	n/a
305.518	0.104	611036	keystroke_d	d	n/a
305.926	0.072	611852	keystroke_Key.backspace	Key.backspace	n/a
306.014	0.104	612028	keystroke_f	f	n/a
306.11	0.104	612220	keystroke_e	e	n/a
306.566	0.096	613132	keystroke_Key.space	Key.space	n/a
306.902	0.08	613804	keystroke_o	o	n/a
307.558	0.088	615116	keystroke_o	o	n/a
308.11	0.104	616220	keystroke_Key.backspace	Key.backspace	n/a
308.35	0.096	616700	keystroke_p	p	n/a
308.798	0.128	617596	keystroke_i	i	n/a
309.062	0.144	618124	keystroke_n	n	n/a
309.446	0.128	618892	keystroke_i	i	n/a
309.694	0.08	619388	keystroke_o	o	n/a
309.846	0.08	619692	keystroke_n	n	n/a
310.006	0.088	620012	keystroke_s	s	n/a
310.254	0.088	620508	keystroke_Key.enter	Key.enter	n/a
310.349	11.0035	620698	prompt	n/a	supervision grocery announced size\n
311.046	0.12	622092	keystroke_s	s	n/a
311.206	0.08	622412	keystroke_u	u	n/a
311.398	0.08	622796	keystroke_p	p	n/a
311.526	0.104	623052	keystroke_e	e	n/a
311.718	0.08	623436	keystroke_r	r	n/a
312.03	0.136	624060	keystroke_c	c	n/a
312.99	0.072	625980	keystroke_Key.backspace	Key.backspace	n/a
313.086	0.104	626172	keystroke_v	v	n/a
313.374	0.128	626748	keystroke_i	i	n/a
313.726	0.096	627452	keystroke_s	s	n/a
313.91	0.096	627820	keystroke_i	i	n/a
314.094	0.096	628188	keystroke_o	o	n/a
314.262	0.096	628524	keystroke_n	n	n/a
314.454	0.112	628908	keystroke_Key.space	Key.space	n/a
314.694	0.136	629388	keystroke_g	g	n/a
314.95	0.096	629900	keystroke_r	r	n/a
315.126	0.096	630252	keystroke_o	o	n/a
315.366	0.088	630732	keystroke_u	u	n/a
315.854	0.08	631708	keystroke_Key.backspace	Key.backspace	n/a
316.022	0.096	632044	keystroke_c	c	n/a
316.87	0.104	633740	keystroke_e	e	n/a
317.11	0.128	634220	keystroke_r	r	n/a
317.43	0.096	634860	keystroke_y	y	n/a
318.054	0.104	636108	keystroke_Key.space	Key.space	n/a
318.254	0.096	636508	keystroke_a	a	n/a
318.398	0.096	636796	keystroke_n	n	n/a
318.574	0.08	637148	keystroke_n	n	n/a
318.726	0.064	637452	keystroke_o	o	n/a
318.83	0.096	637660	keystroke_u	u	n/a
319.022	0.096	638044	keystroke_n	n	n/a
319.182	0.096	638364	keystroke_c	c	n/a
319.718	0.096	639436	keystroke_e	e	n/a
319.942	0.096	639884	keystroke_d	d	n/a
320.406	0.08	640812	keystroke_Key.space	Key.space	n/a
320.566	0.104	641132	keystroke_s	s	n/a
320.678	0.096	641356	keystroke_i	i	n/a
320.87	0.088	641740	keystroke_z	z	n/a
321.054	0.088	642108	keystroke_e	e	n/a
321.27	0.08	642540	keystroke_Key.enter	Key.enter	n/a
321.359	11.281	642718	prompt	n/a	lafayette county scenario attractions\n
321.982	0.112	643964	keystroke_l	l	n/a
322.158	0.12	644316	keystroke_a	a	n/a
322.582	0.136	645164	keystroke_f	f	n/a
322.974	0.12	645948	keystroke_a	a	n/a
323.462	0.128	646924	keystroke_y	y	n/a
324.246	0.112	648492	keystroke_e	e	n/a
324.55	0.072	649100	keystroke_t	t	n/a
324.702	0.08	649404	keystroke_t	t	n/a
324.878	0.096	649756	keystroke_e	e	n/a
325.262	0.104	650524	keystroke_Key.space	Key.space	n/a
325.606	0.104	651212	keystroke_c	c	n/a
325.758	0.072	651516	keystroke_o	o	n/a
325.886	0.088	651772	keystroke_u	u	n/a
326.086	0.08	652172	keystroke_n	n	n/a
326.206	0.104	652412	keystroke_t	t	n/a
326.414	0.08	652828	keystroke_y	y	n/a
327.038	0.104	654076	keystroke_Key.space	Key.space	n/a
327.318	0.104	654636	keystroke_s	s	n/a
327.542	0.096	655084	keystroke_c	c	n/a
327.742	0.104	655484	keystroke_e	e	n/a
328.054	0.12	656108	keystroke_n	n	n/a
328.302	0.088	656604	keystroke_a	a	n/a
328.494	0.08	656988	keystroke_r	r	n/a
328.598	0.104	657196	keystroke_i	i	n/a
328.83	0.072	657660	keystroke_o	o	n/a
329.142	0.088	658284	keystroke_Key.space	Key.space	n/a
329.334	0.088	658668	keystroke_a	a	n/a
329.534	0.088	659068	keystroke_t	t	n/a
329.726	0.072	659452	keystroke_t	t	n/a
329.918	0.104	659836	keystroke_r	r	n/a
330.198	0.112	660396	keystroke_a	a	n/a
330.502	0.136	661004	keystroke_c	c	n/a
330.87	0.08	661740	keystroke_t	t	n/a
331.134	0.104	662268	keystroke_i	i	n/a
331.366	0.072	662732	keystroke_o	o	n/a
331.502	0.08	663004	keystroke_n	n	n/a
331.646	0.096	663292	keystroke_s	s	n/a
332.542	0.096	665084	keystroke_Key.enter	Key.enter	n/a
332.6455	14.0415	665291	prompt	n/a	acquire comparable felt liberty\n
333.574	0.12	667148	keystroke_a	a	n/a
333.8855	0.1205	667771	keystroke_c	c	n/a
334.254	0.128	668508	keystroke_q	q	n/a
334.438	0.12	668876	keystroke_u	u	n/a
334.766	0.105	669532	keystroke_i	i	n/a
335.1175	0.104	670235	keystroke_t	t	n/a
335.4375	0.088	670875	keystroke_e	e	n/a
335.7495	0.064	671499	keystroke_Key.backspace	Key.backspace	n/a
335.8855	0.088	671771	keystroke_Key.backspace	Key.backspace	n/a
335.9495	0.104	671899	keystroke_r	r	n/a
336.0375	0.112	672075	keystroke_e	e	n/a
336.7095	0.104	673419	keystroke_Key.space	Key.space	n/a
336.9335	0.088	673867	keystroke_c	c	n/a
337.0295	0.112	674059	keystroke_o	o	n/a
337.1895	0.096	674379	keystroke_m	m	n/a
337.3735	0.088	674747	keystroke_p	p	n/a
337.5255	0.112	675051	keystroke_a	a	n/a
337.8135	0.12	675627	keystroke_r	r	n/a
338.0855	0.096	676171	keystroke_a	a	n/a
338.4295	0.112	676859	keystroke_v	v	n/a
338.8775	0.08	677755	keystroke_Key.backspace	Key.backspace	n/a
338.9815	0.08	677963	keystroke_b	b	n/a
339.1415	0.104	678283	keystroke_l	l	n/a
339.3815	0.096	678763	keystroke_e	e	n/a
339.6375	0.096	679275	keystroke_Key.space	Key.space	n/a
339.9415	0.136	679883	keystroke_f	f	n/a
340.2135	0.088	680427	keystroke_e	e	n/a
340.3095	0.096	680619	keystroke_l	l	n/a
340.4935	0.088	680987	keystroke_t	t	n/a
340.8925	0.097	681785	keystroke_Key.space	Key.space	n/a
341.3415	0.12	682683	keystroke_l	l	n/a
341.5735	0.08	683147	keystroke_i	i	n/a
341.8775	0.104	683755	keystroke_e	e	n/a
342.1015	0.08	684203	keystroke_r	r	n/a
342.5655	0.088	685131	keystroke_Key.backspace	Key.backspace	n/a
342.7335	0.072	685467	keystroke_Key.backspace	Key.backspace	n/a
342.8775	0.072	685755	keystroke_Key.backspace	Key.backspace	n/a
343.837	0.08	687674	keystroke_i	i	n/a
344.197	0.088	688394	keystroke_b	b	n/a
344.357	0.096	688714	keystroke_e	e	n/a
344.733	0.088	689466	keystroke_r	r	n/a
345.005	0.08	690010	keystroke_t	t	n/a
345.205	0.072	690410	keystroke_y	y	n/a
346.605	0.08	693210	keystroke_Key.enter	Key.enter	n/a
346.694	12.1455	693388	prompt	n/a	austin flooring partnerships honors\n
347.341	0.112	694682	keystroke_a	a	n/a
347.605	0.104	695210	keystroke_u	u	n/a
347.917	0.104	695834	keystroke_s	s	n/a
348.229	0.08	696458	keystroke_t	t	n/a
348.445	0.112	696890	keystroke_i	i	n/a
348.637	0.096	697274	keystroke_n	n	n/a
348.829	0.104	697658	keystroke_Key.space	Key.space	n/a
349.237	0.12	698474	keystroke_g	g	n/a
349.701	0.08	699402	keystroke_Key.backspace	Key.backspace	n/a
349.814	0.087	699628	keystroke_f	f	n/a
349.957	0.112	699914	keystroke_l	l	n/a
350.229	0.08	700458	keystroke_o	o	n/a
350.389	0.064	700778	keystroke_u	u	n/a
350.757	0.072	701514	keystroke_Key.backspace	Key.backspace	n/a
350.99	0.079	701980	keystroke_o	o	n/a
351.269	0.104	702538	keystroke_r	r	n/a
351.6375	0.112	703275	keystroke_i	i	n/a
351.8375	0.112	703675	keystroke_n	n	n/a
352.0615	0.088	704123	keystroke_g	g	n/a
352.1895	0.095	704379	keystroke_Key.space	Key.space	n/a
352.4925	0.097	704985	keystroke_p	p	n/a
352.6375	0.096	705275	keystroke_a	a	n/a
352.7975	0.103	705595	keystroke_r	r	n/a
353.0135	0.08	706027	keystroke_t	t	n/a
353.2855	0.112	706571	keystroke_n	n	n/a
353.4375	0.104	706875	keystroke_e	e	n/a
353.6535	0.072	707307	keystroke_r	r	n/a
353.6775	0.032	707355	keystroke_t	t	n/a
353.861	0.104	707722	keystroke_s	s	n/a
354.285	0.08	708570	keystroke_Key.backspace	Key.backspace	n/a
354.437	0.112	708874	keystroke_Key.backspace	Key.backspace	n/a
354.909	0.112	709818	keystroke_s	s	n/a
355.181	0.144	710362	keystroke_h	h	n/a
355.469	0.128	710938	keystroke_i	i	n/a
355.877	0.144	711754	keystroke_p	p	n/a
356.661	0.104	713322	keystroke_s	s	n/a
357.069	0.096	714138	keystroke_Key.space	Key.space	n/a
357.317	0.08	714634	keystroke_h	h	n/a
357.477	0.08	714954	keystroke_o	o	n/a
357.613	0.064	715226	keystroke_n	n	n/a
357.749	0.088	715498	keystroke_o	o	n/a
357.933	0.096	715866	keystroke_r	r	n/a
358.325	0.088	716650	keystroke_s	s	n/a
358.741	0.096	717482	keystroke_Key.enter	Key.enter	n/a
358.8455	8.9535	717691	prompt	n/a	robots you've component phillips\n
359.685	0.12	719370	keystroke_r	r	n/a
360.237	0.104	720474	keystroke_o	o	n/a
360.477	0.128	720954	keystroke_b	b	n/a
360.653	0.088	721306	keystroke_o	o	n/a
360.877	0.088	721754	keystroke_t	t	n/a
361.301	0.104	722602	keystroke_s	s	n/a
361.565	0.104	723130	keystroke_Key.space	Key.space	n/a
361.893	0.096	723786	keystroke_y	y	n/a
362.061	0.072	724122	keystroke_o	o	n/a
362.213	0.072	724426	keystroke_u	u	n/a
362.541	0.096	725082	keystroke_'	'	n/a
362.725	0.128	725450	keystroke_v	v	n/a
363.349	0.12	726698	keystroke_e	e	n/a
363.541	0.088	727082	keystroke_Key.space	Key.space	n/a
363.741	0.112	727482	keystroke_c	c	n/a
363.845	0.088	727690	keystroke_o	o	n/a
364.021	0.088	728042	keystroke_m	m	n/a
364.189	0.096	728378	keystroke_p	p	n/a
364.421	0.096	728842	keystroke_o	o	n/a
364.637	0.08	729274	keystroke_n	n	n/a
365.013	0.112	730026	keystroke_e	e	n/a
365.197	0.112	730394	keystroke_n	n	n/a
365.413	0.08	730826	keystroke_t	t	n/a
365.917	0.096	731834	keystroke_Key.space	Key.space	n/a
366.133	0.112	732266	keystroke_p	p	n/a
366.349	0.096	732698	keystroke_h	h	n/a
366.501	0.12	733002	keystroke_i	i	n/a
366.749	0.072	733498	keystroke_l	l	n/a
366.893	0.08	733786	keystroke_l	l	n/a
367.077	0.08	734154	keystroke_i	i	n/a
367.285	0.072	734570	keystroke_p	p	n/a
367.437	0.096	734874	keystroke_s	s	n/a
367.717	0.08	735434	keystroke_Key.enter	Key.enter	n/a
367.8045	13.746	735609	prompt	n/a	served reductions russia gnome\n
368.453	0.104	736906	keystroke_r	r	n/a
368.781	0.08	737562	keystroke_Key.backspace	Key.backspace	n/a
368.909	0.104	737818	keystroke_s	s	n/a
369.093	0.12	738186	keystroke_e	e	n/a
369.3095	0.12	738619	keystroke_r	r	n/a
369.6535	0.112	739307	keystroke_v	v	n/a
369.9415	0.104	739883	keystroke_e	e	n/a
370.7645	0.097	741529	keystroke_d	d	n/a
370.9175	0.079	741835	keystroke_Key.space	Key.space	n/a
371.0935	0.096	742187	keystroke_r	r	n/a
371.2295	0.112	742459	keystroke_e	e	n/a
371.9175	0.119	743835	keystroke_f	f	n/a
372.5165	0.088	745033	keystroke_Key.backspace	Key.backspace	n/a
372.6375	0.096	745275	keystroke_d	d	n/a
373.0125	0.113	746025	keystroke_u	u	n/a
373.3175	0.12	746635	keystroke_c	c	n/a
373.5895	0.079	747179	keystroke_t	t	n/a
373.7095	0.079	747419	keystroke_i	i	n/a
373.8855	0.08	747771	keystroke_o	o	n/a
374.0605	0.089	748121	keystroke_n	n	n/a
374.6615	0.128	749323	keystroke_s	s	n/a
374.9085	0.096	749817	keystroke_Key.space	Key.space	n/a
375.1655	0.096	750331	keystroke_r	r	n/a
375.5255	0.064	751051	keystroke_u	u	n/a
376.0535	0.103	752107	keystroke_c	c	n/a
376.4205	0.08	752841	keystroke_Key.backspace	Key.backspace	n/a
376.5335	0.087	753067	keystroke_s	s	n/a
376.6935	0.104	753387	keystroke_s	s	n/a
376.8295	0.112	753659	keystroke_i	i	n/a
377.1655	0.104	754331	keystroke_a	a	n/a
377.5005	0.104	755001	keystroke_Key.space	Key.space	n/a
379.6855	0.088	759371	keystroke_g	g	n/a
380.8205	0.105	761641	keystroke_n	n	n/a
380.9895	0.104	761979	keystroke_o	o	n/a
381.1405	0.097	762281	keystroke_m	m	n/a
381.3015	0.088	762603	keystroke_e	e	n/a
381.4855	0.063	762971	keystroke_Key.enter	Key.enter	n/a
381.556	15.827	763112	prompt	n/a	requirements rack useful interference\n
382.3005	0.097	764601	keystroke_r	r	n/a
382.4605	0.097	764921	keystroke_e	e	n/a
382.6695	0.103	765339	keystroke_q	q	n/a
382.8055	0.079	765611	keystroke_u	u	n/a
383.3175	0.104	766635	keystroke_i	i	n/a
383.7415	0.112	767483	keystroke_t	t	n/a
384.2605	0.072	768521	keystroke_Key.backspace	Key.backspace	n/a
384.3495	0.104	768699	keystroke_r	r	n/a
384.5335	0.152	769067	keystroke_m	m	n/a
384.9885	0.08	769977	keystroke_Key.backspace	Key.backspace	n/a
385.1165	0.088	770233	keystroke_e	e	n/a
385.2525	0.105	770505	keystroke_m	m	n/a
385.4375	0.104	770875	keystroke_e	e	n/a
385.5565	0.081	771113	keystroke_n	n	n/a
385.6855	0.095	771371	keystroke_t	t	n/a
386.3005	0.097	772601	keystroke_s	s	n/a
386.4845	0.088	772969	keystroke_Key.space	Key.space	n/a
386.6765	0.129	773353	keystroke_r	r	n/a
386.9015	0.096	773803	keystroke_a	a	n/a
387.0925	0.081	774185	keystroke_c	c	n/a
387.2445	0.136	774489	keystroke_k	k	n/a
387.5725	0.096	775145	keystroke_Key.space	Key.space	n/a
388.4445	0.112	776889	keystroke_u	u	n/a
388.7655	0.104	777531	keystroke_s	s	n/a
389.0375	0.136	778075	keystroke_e	e	n/a
389.4125	0.104	778825	keystroke_f	f	n/a
389.7335	0.144	779467	keystroke_u	u	n/a
390.0855	0.119	780171	keystroke_l	l	n/a
390.3415	0.079	780683	keystroke_Key.space	Key.space	n/a
390.5095	0.096	781019	keystroke_i	i	n/a
390.6535	0.071	781307	keystroke_n	n	n/a
390.8285	0.097	781657	keystroke_t	t	n/a
390.9725	0.088	781945	keystroke_e	e	n/a
391.0935	0.104	782187	keystroke_r	r	n/a
391.7815	0.032	783563	keystroke_f	f	n/a
391.7895	0.04	783579	keystroke_d	d	n/a
392.2685	0.096	784537	keystroke_Key.backspace	Key.backspace	n/a
395.7885	0.137	791577	keystroke_e	e	n/a
396.1255	0.096	792251	keystroke_r	r	n/a
396.3565	0.12	792713	keystroke_e	e	n/a
396.4525	0.104	792905	keystroke_n	n	n/a
396.6535	0.088	793307	keystroke_c	c	n/a
396.7885	0.113	793577	keystroke_e	e	n/a
397.3005	0.0795	794601	keystroke_Key.enter	Key.enter	n/a
397.3895	14.2575	794779	prompt	n/a	moderators caught responsible characteristics\n
398.109	0.104	796218	keystroke_m	m	n/a
398.277	0.096	796554	keystroke_o	o	n/a
398.429	0.112	796858	keystroke_d	d	n/a
398.581	0.112	797162	keystroke_e	e	n/a
398.757	0.088	797514	keystroke_r	r	n/a
398.957	0.104	797914	keystroke_a	a	n/a
399.245	0.104	798490	keystroke_t	t	n/a
399.549	0.104	799098	keystroke_i	i	n/a
399.781	0.08	799562	keystroke_o	o	n/a
400.661	0.096	801322	keystroke_Key.backspace	Key.backspace	n/a
400.837	0.072	801674	keystroke_Key.backspace	Key.backspace	n/a
401.085	0.088	802170	keystroke_o	o	n/a
401.397	0.112	802794	keystroke_r	r	n/a
402.037	0.096	804074	keystroke_s	s	n/a
402.173	0.104	804346	keystroke_Key.space	Key.space	n/a
402.413	0.104	804826	keystroke_c	c	n/a
402.589	0.096	805178	keystroke_a	a	n/a
402.733	0.088	805466	keystroke_u	u	n/a
402.877	0.096	805754	keystroke_g	g	n/a
402.965	0.048	805930	keystroke_h	h	n/a
403.069	0.072	806138	keystroke_t	t	n/a
404.261	0.096	808522	keystroke_Key.space	Key.space	n/a
404.461	0.096	808922	keystroke_r	r	n/a
404.605	0.128	809210	keystroke_e	e	n/a
404.877	0.096	809754	keystroke_s	s	n/a
405.365	0.184	810730	keystroke_o	o	n/a
405.901	0.112	811802	keystroke_Key.backspace	Key.backspace	n/a
406.157	0.112	812314	keystroke_p	p	n/a
406.421	0.104	812842	keystroke_o	o	n/a
406.653	0.088	813306	keystroke_n	n	n/a
406.877	0.104	813754	keystroke_s	s	n/a
406.997	0.088	813994	keystroke_i	i	n/a
407.317	0.112	814634	keystroke_b	b	n/a
407.613	0.144	815226	keystroke_l	l	n/a
407.781	0.104	815562	keystroke_e	e	n/a
408.525	0.12	817050	keystroke_Key.space	Key.space	n/a
408.821	0.128	817642	keystroke_c	c	n/a
409.005	0.088	818010	keystroke_h	h	n/a
409.141	0.112	818282	keystroke_a	a	n/a
409.333	0.112	818666	keystroke_r	r	n/a
409.517	0.088	819034	keystroke_a	a	n/a
409.685	0.088	819370	keystroke_c	c	n/a
409.893	0.096	819786	keystroke_t	t	n/a
410.045	0.08	820090	keystroke_e	e	n/a
410.157	0.08	820314	keystroke_r	r	n/a
410.301	0.112	820602	keystroke_i	i	n/a
410.445	0.096	820890	keystroke_s	s	n/a
410.709	0.096	821418	keystroke_t	t	n/a
410.861	0.08	821722	keystroke_i	i	n/a
411.053	0.088	822106	keystroke_c	c	n/a
411.277	0.104	822554	keystroke_s	s	n/a
411.557	0.088	823114	keystroke_Key.enter	Key.enter	n/a
411.6515	10.018	823303	prompt	n/a	of randy violation cosmetic\n
414.1325	0.096	828265	keystroke_o	o	n/a
414.8125	0.088	829625	keystroke_f	f	n/a
414.9405	0.087	829881	keystroke_Key.space	Key.space	n/a
415.1565	0.08	830313	keystroke_r	r	n/a
415.2925	0.096	830585	keystroke_a	a	n/a
415.3885	0.072	830777	keystroke_n	n	n/a
415.6605	0.176	831321	keystroke_d	d	n/a
416.4365	0.112	832873	keystroke_y	y	n/a
416.6435	0.105	833287	keystroke_Key.space	Key.space	n/a
416.9965	0.048	833993	keystroke_v	v	n/a
417.0205	0.072	834041	keystroke_b	b	n/a
417.5085	0.08	835017	keystroke_Key.backspace	Key.backspace	n/a
417.7405	0.104	835481	keystroke_i	i	n/a
417.9725	0.08	835945	keystroke_o	o	n/a
418.1805	0.08	836361	keystroke_l	l	n/a
418.3325	0.104	836665	keystroke_a	a	n/a
418.5245	0.072	837049	keystroke_t	t	n/a
418.5965	0.08	837193	keystroke_i	i	n/a
418.7725	0.08	837545	keystroke_o	o	n/a
418.8925	0.112	837785	keystroke_n	n	n/a
419.0205	0.112	838041	keystroke_Key.space	Key.space	n/a
419.2285	0.08	838457	keystroke_c	c	n/a
419.5085	0.088	839017	keystroke_o	o	n/a
419.7645	0.088	839529	keystroke_s	s	n/a
420.3405	0.128	840681	keystroke_m	m	n/a
420.5805	0.12	841161	keystroke_e	e	n/a
420.8205	0.104	841641	keystroke_t	t	n/a
420.9485	0.088	841897	keystroke_i	i	n/a
421.1405	0.096	842281	keystroke_c	c	n/a
421.5885	0.08	843177	keystroke_Key.enter	Key.enter	n/a
421.676	6.371	843352	prompt	n/a	entity mouth device coat\n
422.3565	0.112	844713	keystroke_e	e	n/a
422.5085	0.08	845017	keystroke_n	n	n/a
422.7405	0.096	845481	keystroke_t	t	n/a
422.8845	0.072	845769	keystroke_i	i	n/a
423.0605	0.08	846121	keystroke_t	t	n/a
423.2525	0.088	846505	keystroke_y	y	n/a
423.6605	0.087	847321	keystroke_Key.space	Key.space	n/a
423.9485	0.088	847897	keystroke_m	m	n/a
424.1005	0.064	848201	keystroke_o	o	n/a
424.2445	0.08	848489	keystroke_u	u	n/a
424.4285	0.08	848857	keystroke_t	t	n/a
424.5245	0.072	849049	keystroke_h	h	n/a
424.9875	0.089	849975	keystroke_Key.space	Key.space	n/a
425.1965	0.104	850393	keystroke_d	d	n/a
425.3645	0.096	850729	keystroke_e	e	n/a
425.6605	0.112	851321	keystroke_v	v	n/a
425.8925	0.0875	851785	keystroke_i	i	n/a
426.028	0.08	852056	keystroke_c	c	n/a
426.18	0.088	852360	keystroke_e	e	n/a
426.764	0.096	853528	keystroke_Key.space	Key.space	n/a
426.996	0.104	853992	keystroke_c	c	n/a
427.14	0.096	854280	keystroke_o	o	n/a
427.34	0.096	854680	keystroke_a	a	n/a
427.572	0.056	855144	keystroke_t	t	n/a
427.948	0.096	855896	keystroke_Key.enter	Key.enter	n/a
428.054	10.3765	856108	prompt	n/a	attract demanding facilities patches\n
428.756	0.104	857512	keystroke_a	a	n/a
428.964	0.08	857928	keystroke_t	t	n/a
429.132	0.088	858264	keystroke_t	t	n/a
429.26	0.096	858520	keystroke_r	r	n/a
429.452	0.104	858904	keystroke_a	a	n/a
429.636	0.12	859272	keystroke_c	c	n/a
429.884	0.072	859768	keystroke_t	t	n/a
430.012	0.104	860024	keystroke_Key.space	Key.space	n/a
430.18	0.096	860360	keystroke_d	d	n/a
430.348	0.088	860696	keystroke_e	e	n/a
430.452	0.12	860904	keystroke_m	m	n/a
430.62	0.08	861240	keystroke_a	a	n/a
430.74	0.072	861480	keystroke_n	n	n/a
430.98	0.088	861960	keystroke_d	d	n/a
431.116	0.136	862232	keystroke_i	i	n/a
431.236	0.104	862472	keystroke_n	n	n/a
431.412	0.072	862824	keystroke_g	g	n/a
431.556	0.104	863112	keystroke_Key.space	Key.space	n/a
431.98	0.064	863960	keystroke_d	d	n/a
432.396	0.08	864792	keystroke_Key.backspace	Key.backspace	n/a
432.492	0.096	864984	keystroke_f	f	n/a
432.604	0.112	865208	keystroke_a	a	n/a
432.948	0.104	865896	keystroke_c	c	n/a
433.212	0.104	866424	keystroke_i	i	n/a
433.436	0.088	866872	keystroke_l	l	n/a
433.66	0.08	867320	keystroke_i	i	n/a
434.652	0.096	869304	keystroke_t	t	n/a
434.812	0.096	869624	keystroke_i	i	n/a
434.94	0.104	869880	keystroke_e	e	n/a
435.164	0.112	870328	keystroke_s	s	n/a
435.732	0.072	871464	keystroke_Key.space	Key.space	n/a
436.452	0.128	872904	keystroke_p	p	n/a
436.876	0.128	873752	keystroke_a	a	n/a
437.172	0.136	874344	keystroke_t	t	n/a
437.612	0.096	875224	keystroke_c	c	n/a
437.684	0.128	875368	keystroke_h	h	n/a
437.852	0.072	875704	keystroke_e	e	n/a
438.036	0.072	876072	keystroke_s	s	n/a
438.332	0.096	876664	keystroke_Key.enter	Key.enter	n/a
438.437	6.985	876874	prompt	n/a	telecom hack packet expense\n
439.276	0.096	878552	keystroke_t	t	n/a
439.436	0.08	878872	keystroke_e	e	n/a
439.548	0.104	879096	keystroke_l	l	n/a
439.668	0.096	879336	keystroke_e	e	n/a
439.94	0.096	879880	keystroke_c	c	n/a
440.028	0.104	880056	keystroke_o	o	n/a
440.276	0.096	880552	keystroke_m	m	n/a
440.548	0.096	881096	keystroke_Key.space	Key.space	n/a
440.756	0.08	881512	keystroke_h	h	n/a
440.852	0.088	881704	keystroke_a	a	n/a
441.012	0.088	882024	keystroke_c	c	n/a
441.124	0.104	882248	keystroke_k	k	n/a
441.54	0.088	883080	keystroke_Key.space	Key.space	n/a
441.724	0.088	883448	keystroke_p	p	n/a
441.852	0.112	883704	keystroke_a	a	n/a
442.06	0.096	884120	keystroke_c	c	n/a
442.236	0.096	884472	keystroke_k	k	n/a
442.844	0.128	885688	keystroke_e	e	n/a
443.1	0.088	886200	keystroke_t	t	n/a
443.316	0.088	886632	keystroke_Key.space	Key.space	n/a
443.508	0.088	887016	keystroke_e	e	n/a
443.748	0.088	887496	keystroke_x	x	n/a
443.892	0.096	887784	keystroke_p	p	n/a
444.036	0.104	888072	keystroke_e	e	n/a
444.22	0.072	888440	keystroke_n	n	n/a
444.612	0.096	889224	keystroke_s	s	n/a
444.828	0.088	889656	keystroke_e	e	n/a
445.34	0.08	890680	keystroke_Key.enter	Key.enter	n/a
445.427	7.211	890854	prompt	n/a	loss switching sick woods\n
446.068	0.128	892136	keystroke_l	l	n/a
446.3	0.08	892600	keystroke_o	o	n/a
446.532	0.08	893064	keystroke_s	s	n/a
446.7	0.096	893400	keystroke_s	s	n/a
446.94	0.104	893880	keystroke_Key.space	Key.space	n/a
447.124	0.112	894248	keystroke_s	s	n/a
447.54	0.096	895080	keystroke_w	w	n/a
447.74	0.08	895480	keystroke_i	i	n/a
447.908	0.096	895816	keystroke_t	t	n/a
448.42	0.12	896840	keystroke_h	h	n/a
448.868	0.088	897736	keystroke_Key.backspace	Key.backspace	n/a
448.988	0.096	897976	keystroke_c	c	n/a
449.284	0.12	898568	keystroke_i	i	n/a
449.756	0.08	899512	keystroke_Key.backspace	Key.backspace	n/a
449.964	0.08	899928	keystroke_h	h	n/a
450.124	0.104	900248	keystroke_i	i	n/a
450.236	0.096	900472	keystroke_n	n	n/a
450.396	0.088	900792	keystroke_g	g	n/a
450.892	0.104	901784	keystroke_Key.space	Key.space	n/a
451.156	0.104	902312	keystroke_s	s	n/a
451.261	0.119	902522	keystroke_i	i	n/a
451.412	0.088	902824	keystroke_c	c	n/a
451.532	0.08	903064	keystroke_k	k	n/a
451.684	0.104	903368	keystroke_Key.space	Key.space	n/a
451.82	0.088	903640	keystroke_w	w	n/a
451.94	0.072	903880	keystroke_o	o	n/a
452.1	0.088	904200	keystroke_o	o	n/a
452.204	0.096	904408	keystroke_d	d	n/a
452.34	0.096	904680	keystroke_s	s	n/a
452.548	0.088	905096	keystroke_Key.enter	Key.enter	n/a
452.642	14.6115	905284	prompt	n/a	provincial motivation obtained article\n
453.22	0.128	906440	keystroke_p	p	n/a
453.428	0.096	906856	keystroke_r	r	n/a
453.564	0.104	907128	keystroke_o	o	n/a
453.804	0.12	907608	keystroke_c	c	n/a
453.956	0.105	907912	keystroke_i	i	n/a
454.172	0.12	908344	keystroke_n	n	n/a
454.436	0.12	908872	keystroke_c	c	n/a
454.548	0.088	909096	keystroke_i	i	n/a
454.724	0.088	909448	keystroke_a	a	n/a
455.22	0.096	910440	keystroke_Key.backspace	Key.backspace	n/a
455.4035	0.072	910807	keystroke_Key.backspace	Key.backspace	n/a
455.5715	0.08	911143	keystroke_Key.backspace	Key.backspace	n/a
455.74	0.088	911480	keystroke_Key.backspace	Key.backspace	n/a
456.3795	0.128	912759	keystroke_Key.backspace	Key.backspace	n/a
456.7235	0.104	913447	keystroke_Key.backspace	Key.backspace	n/a
457.5875	0.0805	915175	keystroke_v	v	n/a
457.7075	0.104	915415	keystroke_i	i	n/a
457.9475	0.112	915895	keystroke_n	n	n/a
458.4115	0.112	916823	keystroke_c	c	n/a
458.5635	0.112	917127	keystroke_i	i	n/a
458.7955	0.0965	917591	keystroke_a	a	n/a
459.7075	0.136	919415	keystroke_l	l	n/a
459.9315	0.096	919863	keystroke_Key.space	Key.space	n/a
460.1235	0.08	920247	keystroke_m	m	n/a
460.2595	0.104	920519	keystroke_o	o	n/a
460.4275	0.072	920855	keystroke_t	t	n/a
460.5235	0.08	921047	keystroke_i	i	n/a
460.7555	0.144	921511	keystroke_c	c	n/a
461.7635	0.08	923527	keystroke_Key.backspace	Key.backspace	n/a
461.8835	0.104	923767	keystroke_v	v	n/a
462.0355	0.12	924071	keystroke_a	a	n/a
462.3715	0.08	924743	keystroke_t	t	n/a
462.4835	0.08	924967	keystroke_i	i	n/a
462.6515	0.096	925303	keystroke_o	o	n/a
462.8275	0.112	925655	keystroke_n	n	n/a
463.2995	0.104	926599	keystroke_Key.space	Key.space	n/a
463.6115	0.128	927223	keystroke_o	o	n/a
463.8835	0.112	927767	keystroke_b	b	n/a
464.3555	0.096	928711	keystroke_t	t	n/a
464.5715	0.08	929143	keystroke_a	a	n/a
464.7155	0.08	929431	keystroke_i	i	n/a
464.8995	0.08	929799	keystroke_n	n	n/a
465.1155	0.072	930231	keystroke_e	e	n/a
465.3075	0.096	930615	keystroke_d	d	n/a
465.5075	0.096	931015	keystroke_Key.space	Key.space	n/a
465.8035	0.168	931607	keystroke_a	a	n/a
466.0915	0.12	932183	keystroke_r	r	n/a
466.3235	0.08	932647	keystroke_t	t	n/a
466.4275	0.096	932855	keystroke_i	i	n/a
466.5875	0.096	933175	keystroke_c	c	n/a
466.7155	0.088	933431	keystroke_l	l	n/a
466.8275	0.08	933655	keystroke_e	e	n/a
467.1635	0.088	934327	keystroke_Key.enter	Key.enter	n/a
467.261	7.785	934522	prompt	n/a	diet punk herb brass\n
468.3075	0.104	936615	keystroke_s	s	n/a
468.8035	0.088	937607	keystroke_Key.backspace	Key.backspace	n/a
468.9235	0.096	937847	keystroke_d	d	n/a
469.0515	0.072	938103	keystroke_i	i	n/a
469.2035	0.128	938407	keystroke_e	e	n/a
469.5475	0.104	939095	keystroke_t	t	n/a
470.1875	0.112	940375	keystroke_Key.space	Key.space	n/a
470.4515	0.104	940903	keystroke_p	p	n/a
470.6755	0.088	941351	keystroke_u	u	n/a
470.8835	0.088	941767	keystroke_n	n	n/a
471.0675	0.088	942135	keystroke_k	k	n/a
471.3475	0.088	942695	keystroke_Key.space	Key.space	n/a
471.6435	0.12	943287	keystroke_h	h	n/a
471.8915	0.12	943783	keystroke_e	e	n/a
472.0915	0.088	944183	keystroke_r	r	n/a
472.3475	0.088	944695	keystroke_b	b	n/a
472.6275	0.096	945255	keystroke_Key.space	Key.space	n/a
473.6515	0.112	947303	keystroke_b	b	n/a
474.1475	0.104	948295	keystroke_r	r	n/a
474.3955	0.096	948791	keystroke_a	a	n/a
474.6195	0.08	949239	keystroke_s	s	n/a
474.7795	0.096	949559	keystroke_s	s	n/a
474.9555	0.088	949911	keystroke_Key.enter	Key.enter	n/a
475.0515	7.6255	950103	prompt	n/a	oclc benchmark shipped twist\n
475.8755	0.144	951751	keystroke_o	o	n/a
476.2595	0.112	952519	keystroke_c	c	n/a
476.4995	0.12	952999	keystroke_l	l	n/a
476.8445	0.095	953689	keystroke_c	c	n/a
477.4995	0.096	954999	keystroke_Key.space	Key.space	n/a
477.8355	0.072	955671	keystroke_b	b	n/a
477.9875	0.096	955975	keystroke_e	e	n/a
478.1235	0.08	956247	keystroke_n	n	n/a
478.2835	0.096	956567	keystroke_c	c	n/a
478.6675	0.12	957335	keystroke_h	h	n/a
479.1475	0.12	958295	keystroke_m	m	n/a
479.4435	0.112	958887	keystroke_a	a	n/a
479.6355	0.072	959271	keystroke_r	r	n/a
479.7235	0.096	959447	keystroke_k	k	n/a
479.9555	0.088	959911	keystroke_Key.space	Key.space	n/a
480.1235	0.088	960247	keystroke_s	s	n/a
480.2275	0.088	960455	keystroke_h	h	n/a
480.3555	0.096	960711	keystroke_i	i	n/a
480.5875	0.064	961175	keystroke_p	p	n/a
480.7475	0.08	961495	keystroke_p	p	n/a
480.8835	0.104	961767	keystroke_e	e	n/a
481.0995	0.096	962199	keystroke_d	d	n/a
481.2835	0.096	962567	keystroke_Key.space	Key.space	n/a
481.4995	0.104	962999	keystroke_t	t	n/a
481.7075	0.096	963415	keystroke_w	w	n/a
481.8755	0.088	963751	keystroke_i	i	n/a
482.1315	0.096	964263	keystroke_s	s	n/a
482.355	0.08	964710	keystroke_t	t	n/a
482.595	0.0805	965190	keystroke_Key.enter	Key.enter	n/a
482.682	7.4445	965364	prompt	n/a	five picked bang ultra\n
483.3555	0.096	966711	keystroke_f	f	n/a
483.5235	0.088	967047	keystroke_i	i	n/a
483.7235	0.056	967447	keystroke_c	c	n/a
483.8835	0.112	967767	keystroke_e	e	n/a
484.1555	0.08	968311	keystroke_Key.backspace	Key.backspace	n/a
484.3155	0.0875	968631	keystroke_Key.backspace	Key.backspace	n/a
484.379	0.104	968758	keystroke_v	v	n/a
484.491	0.088	968982	keystroke_e	e	n/a
484.867	0.1045	969734	keystroke_Key.space	Key.space	n/a
485.1795	0.1115	970359	keystroke_p	p	n/a
485.4595	0.104	970919	keystroke_i	i	n/a
485.635	0.0885	971270	keystroke_c	c	n/a
485.7395	0.0875	971479	keystroke_k	k	n/a
486.291	0.112	972582	keystroke_e	e	n/a
486.491	0.112	972982	keystroke_d	d	n/a
486.635	0.088	973270	keystroke_Key.space	Key.space	n/a
486.899	0.096	973798	keystroke_b	b	n/a
487.091	0.088	974182	keystroke_a	a	n/a
487.187	0.0795	974374	keystroke_n	n	n/a
487.563	0.088	975126	keystroke_g	g	n/a
488.187	0.088	976374	keystroke_Key.space	Key.space	n/a
488.491	0.12	976982	keystroke_u	u	n/a
488.771	0.104	977542	keystroke_l	l	n/a
489.019	0.088	978038	keystroke_t	t	n/a
489.507	0.104	979014	keystroke_r	r	n/a
489.795	0.096	979590	keystroke_a	a	n/a
490.011	0.112	980022	keystroke_Key.enter	Key.enter	n/a
490.132	8.203	980264	prompt	n/a	love homework franchise census\n
490.971	0.12	981942	keystroke_l	l	n/a
491.171	0.096	982342	keystroke_o	o	n/a
491.307	0.104	982614	keystroke_v	v	n/a
491.467	0.08	982934	keystroke_e	e	n/a
491.563	0.088	983126	keystroke_Key.space	Key.space	n/a
491.787	0.088	983574	keystroke_h	h	n/a
491.939	0.104	983878	keystroke_o	o	n/a
492.067	0.096	984134	keystroke_m	m	n/a
492.203	0.096	984406	keystroke_e	e	n/a
492.547	0.104	985094	keystroke_w	w	n/a
492.699	0.096	985398	keystroke_o	o	n/a
492.907	0.08	985814	keystroke_r	r	n/a
493.003	0.104	986006	keystroke_k	k	n/a
493.779	0.104	987558	keystroke_Key.space	Key.space	n/a
494.219	0.16	988438	keystroke_f	f	n/a
494.531	0.136	989062	keystroke_r	r	n/a
494.755	0.112	989510	keystroke_a	a	n/a
494.915	0.128	989830	keystroke_n	n	n/a
495.123	0.112	990246	keystroke_c	c	n/a
495.347	0.128	990694	keystroke_h	h	n/a
495.539	0.112	991078	keystroke_i	i	n/a
495.843	0.12	991686	keystroke_s	s	n/a
496.035	0.104	992070	keystroke_e	e	n/a
496.379	0.112	992758	keystroke_Key.space	Key.space	n/a
496.803	0.104	993606	keystroke_c	c	n/a
496.971	0.096	993942	keystroke_e	e	n/a
497.075	0.088	994150	keystroke_n	n	n/a
497.395	0.1035	994790	keystroke_s	s	n/a
497.5785	0.104	995157	keystroke_u	u	n/a
497.7225	0.08	995445	keystroke_s	s	n/a
498.2425	0.088	996485	keystroke_Key.enter	Key.enter	n/a
498.3395	18.5205	996679	prompt	n/a	locale industry interactive easter\n
499.0745	0.12	998149	keystroke_l	l	n/a
499.3305	0.104	998661	keystroke_o	o	n/a
499.6745	0.121	999349	keystroke_c	c	n/a
499.9145	0.113	999829	keystroke_a	a	n/a
500.1705	0.144	1000341	keystroke_l	l	n/a
500.3785	0.088	1000757	keystroke_e	e	n/a
500.5225	0.08	1001045	keystroke_Key.space	Key.space	n/a
500.7305	0.089	1001461	keystroke_i	i	n/a
500.8825	0.104	1001765	keystroke_n	n	n/a
501.1225	0.128	1002245	keystroke_d	d	n/a
501.2745	0.096	1002549	keystroke_u	u	n/a
501.4985	0.088	1002997	keystroke_c	c	n/a
501.8265	0.072	1003653	keystroke_Key.backspace	Key.backspace	n/a
501.9315	0.119	1003863	keystroke_s	s	n/a
502.3385	0.104	1004677	keystroke_t	t	n/a
502.6345	0.088	1005269	keystroke_y	y	n/a
506.77	0.104	1013540	keystroke_Key.space	Key.space	n/a
507.0345	0.097	1014069	keystroke_i	i	n/a
507.5625	0.1285	1015125	keystroke_n	n	n/a
508.2585	0.088	1016517	keystroke_Key.backspace	Key.backspace	n/a
508.434	0.0885	1016868	keystroke_Key.backspace	Key.backspace	n/a
508.594	0.104	1017188	keystroke_Key.backspace	Key.backspace	n/a
508.77	0.072	1017540	keystroke_Key.backspace	Key.backspace	n/a
509.85	0.096	1019700	keystroke_r	r	n/a
510.074	0.072	1020148	keystroke_y	y	n/a
510.226	0.088	1020452	keystroke_Key.space	Key.space	n/a
510.77	0.08	1021540	keystroke_i	i	n/a
510.938	0.08	1021876	keystroke_n	n	n/a
511.114	0.08	1022228	keystroke_t	t	n/a
511.25	0.104	1022500	keystroke_e	e	n/a
511.418	0.096	1022836	keystroke_r	r	n/a
511.642	0.096	1023284	keystroke_a	a	n/a
511.882	0.088	1023764	keystroke_c	c	n/a
512.106	0.072	1024212	keystroke_t	t	n/a
512.402	0.104	1024804	keystroke_i	i	n/a
512.666	0.112	1025332	keystroke_v	v	n/a
512.914	0.096	1025828	keystroke_e	e	n/a
513.402	0.112	1026804	keystroke_Key.space	Key.space	n/a
513.914	0.104	1027828	keystroke_e	e	n/a
514.13	0.08	1028260	keystroke_a	a	n/a
514.314	0.08	1028628	keystroke_s	s	n/a
514.594	0.096	1029188	keystroke_t	t	n/a
514.81	0.08	1029620	keystroke_e	e	n/a
514.954	0.08	1029908	keystroke_r	r	n/a
516.77	0.088	1033540	keystroke_Key.enter	Key.enter	n/a
516.865	14.7795	1033730	prompt	n/a	winners failures blogging detection\n
517.81	0.096	1035620	keystroke_w	w	n/a
517.962	0.136	1035924	keystroke_u	u	n/a
518.194	0.08	1036388	keystroke_b	b	n/a
518.354	0.072	1036708	keystroke_b	b	n/a
518.642	0.08	1037284	keystroke_Key.backspace	Key.backspace	n/a
518.802	0.08	1037604	keystroke_Key.backspace	Key.backspace	n/a
518.954	0.096	1037908	keystroke_Key.backspace	Key.backspace	n/a
519.594	0.08	1039188	keystroke_i	i	n/a
519.762	0.08	1039524	keystroke_n	n	n/a
519.914	0.072	1039828	keystroke_n	n	n/a
520.154	0.096	1040308	keystroke_e	e	n/a
520.37	0.08	1040740	keystroke_r	r	n/a
520.594	0.104	1041188	keystroke_Key.space	Key.space	n/a
520.914	0.104	1041828	keystroke_f	f	n/a
521.122	0.08	1042244	keystroke_a	a	n/a
521.282	0.112	1042564	keystroke_u	u	n/a
521.562	0.088	1043124	keystroke_l	l	n/a
522.282	0.12	1044564	keystroke_Key.backspace	Key.backspace	n/a
522.482	0.104	1044964	keystroke_Key.backspace	Key.backspace	n/a
523.378	0.089	1046756	keystroke_i	i	n/a
523.61	0.072	1047220	keystroke_l	l	n/a
523.818	0.064	1047636	keystroke_u	u	n/a
523.986	0.104	1047972	keystroke_r	r	n/a
524.146	0.096	1048292	keystroke_e	e	n/a
524.354	0.08	1048708	keystroke_s	s	n/a
524.466	0.08	1048932	keystroke_Key.space	Key.space	n/a
525.49	0.072	1050980	keystroke_b	b	n/a
525.794	0.08	1051588	keystroke_Key.backspace	Key.backspace	n/a
526.322	0.104	1052644	keystroke_l	l	n/a
526.538	0.08	1053076	keystroke_o	o	n/a
527.154	0.088	1054308	keystroke_Key.backspace	Key.backspace	n/a
527.322	0.08	1054644	keystroke_Key.backspace	Key.backspace	n/a
527.9135	0.0805	1055827	keystroke_b	b	n/a
528.074	0.096	1056148	keystroke_l	l	n/a
528.274	0.064	1056548	keystroke_o	o	n/a
528.474	0.072	1056948	keystroke_g	g	n/a
528.634	0.072	1057268	keystroke_g	g	n/a
528.722	0.112	1057444	keystroke_i	i	n/a
528.874	0.096	1057748	keystroke_n	n	n/a
529.042	0.072	1058084	keystroke_g	g	n/a
529.202	0.096	1058404	keystroke_Key.space	Key.space	n/a
529.458	0.12	1058916	keystroke_d	d	n/a
529.642	0.112	1059284	keystroke_e	e	n/a
529.842	0.08	1059684	keystroke_t	t	n/a
530.01	0.096	1060020	keystroke_e	e	n/a
530.242	0.112	1060484	keystroke_c	c	n/a
530.466	0.064	1060932	keystroke_t	t	n/a
530.554	0.096	1061108	keystroke_i	i	n/a
530.754	0.072	1061508	keystroke_o	o	n/a
531.122	0.088	1062244	keystroke_n	n	n/a
531.57	0.072	1063140	keystroke_Key.enter	Key.enter	n/a
531.6515	8.4725	1063303	prompt	n/a	below highway emails favor\n
532.5855	0.064	1065171	keystroke_b	b	n/a
532.722	0.08	1065444	keystroke_e	e	n/a
532.842	0.08	1065684	keystroke_l	l	n/a
533.002	0.072	1066004	keystroke_o	o	n/a
533.13	0.072	1066260	keystroke_w	w	n/a
533.322	0.096	1066644	keystroke_Key.space	Key.space	n/a
533.722	0.08	1067444	keystroke_h	h	n/a
533.874	0.08	1067748	keystroke_i	i	n/a
534.002	0.08	1068004	keystroke_g	g	n/a
534.082	0.072	1068164	keystroke_h	h	n/a
534.666	0.088	1069332	keystroke_w	w	n/a
534.858	0.08	1069716	keystroke_a	a	n/a
535.066	0.064	1070132	keystroke_y	y	n/a
535.498	0.112	1070996	keystroke_Key.space	Key.space	n/a
535.626	0.096	1071252	keystroke_e	e	n/a
535.946	0.104	1071892	keystroke_a	a	n/a
536.65	0.08	1073300	keystroke_Key.backspace	Key.backspace	n/a
536.89	0.128	1073780	keystroke_m	m	n/a
537.418	0.096	1074836	keystroke_a	a	n/a
537.554	0.136	1075108	keystroke_i	i	n/a
537.85	0.104	1075700	keystroke_l	l	n/a
538.066	0.096	1076132	keystroke_s	s	n/a
538.242	0.088	1076484	keystroke_Key.space	Key.space	n/a
538.818	0.08	1077636	keystroke_f	f	n/a
538.97	0.088	1077940	keystroke_a	a	n/a
539.21	0.08	1078420	keystroke_v	v	n/a
539.314	0.072	1078628	keystroke_o	o	n/a
539.45	0.064	1078900	keystroke_r	r	n/a
540.034	0.088	1080068	keystroke_Key.enter	Key.enter	n/a
540.1285	6.571	1080257	prompt	n/a	any marble hung bunny\n
540.786	0.112	1081572	keystroke_a	a	n/a
540.938	0.088	1081876	keystroke_n	n	n/a
541.138	0.08	1082276	keystroke_y	y	n/a
541.298	0.088	1082596	keystroke_Key.space	Key.space	n/a
541.4655	0.0885	1082931	keystroke_m	m	n/a
541.57	0.096	1083140	keystroke_a	a	n/a
541.738	0.0795	1083476	keystroke_r	r	n/a
542.0015	0.0885	1084003	keystroke_b	b	n/a
542.122	0.08	1084244	keystroke_l	l	n/a
542.234	0.0795	1084468	keystroke_e	e	n/a
542.354	0.0795	1084708	keystroke_Key.space	Key.space	n/a
542.5375	0.088	1085075	keystroke_h	h	n/a
542.6895	0.1045	1085379	keystroke_u	u	n/a
542.922	0.088	1085844	keystroke_n	n	n/a
543.474	0.104	1086948	keystroke_g	g	n/a
543.818	0.0955	1087636	keystroke_Key.space	Key.space	n/a
544.0495	0.0965	1088099	keystroke_g	g	n/a
544.21	0.112	1088420	keystroke_u	u	n/a
544.6175	0.064	1089235	keystroke_Key.backspace	Key.backspace	n/a
544.7535	0.088	1089507	keystroke_Key.backspace	Key.backspace	n/a
545.4255	0.064	1090851	keystroke_b	b	n/a
545.5535	0.08	1091107	keystroke_u	u	n/a
545.7295	0.064	1091459	keystroke_n	n	n/a
545.8655	0.08	1091731	keystroke_n	n	n/a
545.9855	0.08	1091971	keystroke_y	y	n/a
546.6255	0.072	1093251	keystroke_Key.enter	Key.enter	n/a
546.705	12.3145	1093410	prompt	n/a	dans adjustment distinct belt\n
547.3615	0.12	1094723	keystroke_d	d	n/a
547.5375	0.096	1095075	keystroke_a	a	n/a
547.6495	0.08	1095299	keystroke_n	n	n/a
547.8415	0.088	1095683	keystroke_s	s	n/a
548.0335	0.096	1096067	keystroke_Key.space	Key.space	n/a
548.3775	0.12	1096755	keystroke_a	a	n/a
548.6575	0.104	1097315	keystroke_d	d	n/a
549.2655	0.064	1098531	keystroke_j	j	n/a
549.4415	0.064	1098883	keystroke_u	u	n/a
549.5695	0.088	1099139	keystroke_s	s	n/a
549.7695	0.072	1099539	keystroke_t	t	n/a
549.9055	0.088	1099811	keystroke_m	m	n/a
550.0095	0.096	1100019	keystroke_e	e	n/a
550.1135	0.064	1100227	keystroke_n	n	n/a
550.3535	0.096	1100707	keystroke_t	t	n/a
550.8255	0.096	1101651	keystroke_Key.space	Key.space	n/a
551.1535	0.088	1102307	keystroke_d	d	n/a
551.5615	0.12	1103123	keystroke_i	i	n/a
552.7695	0.08	1105539	keystroke_s	s	n/a
553.2895	0.088	1106579	keystroke_t	t	n/a
553.4255	0.096	1106851	keystroke_i	i	n/a
553.6255	0.104	1107251	keystroke_n	n	n/a
553.9055	0.128	1107811	keystroke_c	c	n/a
554.2335	0.04	1108467	keystroke_y	y	n/a
554.2415	0.04	1108483	keystroke_t	t	n/a
554.8255	0.128	1109651	keystroke_Key.backspace	Key.backspace	n/a
555.6175	0.128	1111235	keystroke_Key.backspace	Key.backspace	n/a
555.8815	0.112	1111763	keystroke_y	y	n/a
556.3295	0.088	1112659	keystroke_Key.backspace	Key.backspace	n/a
556.4495	0.088	1112899	keystroke_t	t	n/a
556.6415	0.104	1113283	keystroke_Key.space	Key.space	n/a
556.9775	0.096	1113955	keystroke_b	b	n/a
557.153	0.088	1114306	keystroke_e	e	n/a
557.233	0.072	1114466	keystroke_l	l	n/a
557.369	0.0645	1114738	keystroke_t	t	n/a
558.929	0.088	1117858	keystroke_Key.enter	Key.enter	n/a
559.0255	7.85	1118051	prompt	n/a	targeted birth their diamonds\n
559.81	0.103	1119620	keystroke_t	t	n/a
560.001	0.088	1120002	keystroke_a	a	n/a
560.1775	0.08	1120355	keystroke_r	r	n/a
560.4415	0.104	1120883	keystroke_g	g	n/a
560.9855	0.104	1121971	keystroke_e	e	n/a
561.2255	0.104	1122451	keystroke_t	t	n/a
561.5295	0.088	1123059	keystroke_e	e	n/a
561.7055	0.088	1123411	keystroke_d	d	n/a
561.8255	0.096	1123651	keystroke_Key.space	Key.space	n/a
562.0335	0.088	1124067	keystroke_b	b	n/a
562.1455	0.08	1124291	keystroke_i	i	n/a
562.4095	0.104	1124819	keystroke_r	r	n/a
562.6735	0.096	1125347	keystroke_t	t	n/a
562.8335	0.096	1125667	keystroke_h	h	n/a
563.2335	0.104	1126467	keystroke_Key.space	Key.space	n/a
563.4575	0.08	1126915	keystroke_t	t	n/a
564.0175	0.128	1128035	keystroke_h	h	n/a
564.2655	0.104	1128531	keystroke_e	e	n/a
564.3775	0.08	1128755	keystroke_i	i	n/a
564.5135	0.096	1129027	keystroke_r	r	n/a
564.8895	0.112	1129779	keystroke_Key.space	Key.space	n/a
565.0975	0.095	1130195	keystroke_d	d	n/a
565.4255	0.072	1130851	keystroke_i	i	n/a
565.8095	0.096	1131619	keystroke_a	a	n/a
565.9215	0.088	1131843	keystroke_m	m	n/a
566.0815	0.08	1132163	keystroke_o	o	n/a
566.1935	0.072	1132387	keystroke_n	n	n/a
566.3215	0.088	1132643	keystroke_d	d	n/a
566.4335	0.104	1132867	keystroke_s	s	n/a
566.7845	0.089	1133569	keystroke_Key.enter	Key.enter	n/a
566.88	10.3155	1133760	prompt	n/a	mathematical carried proven opening\n
567.4895	0.12	1134979	keystroke_m	m	n/a
567.6815	0.112	1135363	keystroke_a	a	n/a
567.9935	0.104	1135987	keystroke_t	t	n/a
568.1615	0.136	1136323	keystroke_h	h	n/a
568.4815	0.087	1136963	keystroke_e	e	n/a
568.634	0.12	1137268	keystroke_m	m	n/a
568.906	0.096	1137812	keystroke_a	a	n/a
569.194	0.072	1138388	keystroke_t	t	n/a
569.346	0.088	1138692	keystroke_i	i	n/a
569.578	0.088	1139156	keystroke_c	c	n/a
569.738	0.08	1139476	keystroke_a	a	n/a
569.858	0.096	1139716	keystroke_l	l	n/a
570.482	0.112	1140964	keystroke_Key.space	Key.space	n/a
570.746	0.04	1141492	keystroke_m	m	n/a
571.002	0.08	1142004	keystroke_Key.backspace	Key.backspace	n/a
571.106	0.12	1142212	keystroke_c	c	n/a
571.266	0.12	1142532	keystroke_a	a	n/a
571.714	0.12	1143428	keystroke_r	r	n/a
571.922	0.08	1143844	keystroke_r	r	n/a
572.098	0.08	1144196	keystroke_i	i	n/a
572.338	0.088	1144676	keystroke_e	e	n/a
572.658	0.104	1145316	keystroke_d	d	n/a
573.969	0.089	1147938	keystroke_Key.space	Key.space	n/a
574.162	0.128	1148324	keystroke_p	p	n/a
574.3775	0.08	1148755	keystroke_r	r	n/a
574.4965	0.089	1148993	keystroke_o	o	n/a
574.7445	0.105	1149489	keystroke_v	v	n/a
575.0815	0.087	1150163	keystroke_e	e	n/a
575.2255	0.12	1150451	keystroke_n	n	n/a
575.5775	0.088	1151155	keystroke_Key.space	Key.space	n/a
575.7925	0.105	1151585	keystroke_o	o	n/a
576.0165	0.089	1152033	keystroke_p	p	n/a
576.2975	0.104	1152595	keystroke_e	e	n/a
576.4255	0.096	1152851	keystroke_n	n	n/a
576.5855	0.104	1153171	keystroke_i	i	n/a
576.6645	0.105	1153329	keystroke_n	n	n/a
576.8495	0.088	1153699	keystroke_g	g	n/a
577.1205	0.073	1154241	keystroke_Key.enter	Key.enter	n/a
577.203	8.0715	1154406	prompt	n/a	overall materials melissa marilyn\n
577.9055	0.112	1155811	keystroke_o	o	n/a
578.1695	0.096	1156339	keystroke_v	v	n/a
578.3445	0.105	1156689	keystroke_e	e	n/a
578.5295	0.08	1157059	keystroke_r	r	n/a
578.6975	0.08	1157395	keystroke_a	a	n/a
578.8815	0.096	1157763	keystroke_l	l	n/a
579.0895	0.08	1158179	keystroke_l	l	n/a
579.3215	0.095	1158643	keystroke_Key.space	Key.space	n/a
579.5295	0.08	1159059	keystroke_m	m	n/a
579.6655	0.12	1159331	keystroke_a	a	n/a
579.8975	0.08	1159795	keystroke_t	t	n/a
580.0575	0.096	1160115	keystroke_e	e	n/a
580.3375	0.096	1160675	keystroke_r	r	n/a
580.6815	0.12	1161363	keystroke_i	i	n/a
580.9535	0.096	1161907	keystroke_a	a	n/a
581.0735	0.112	1162147	keystroke_l	l	n/a
581.7295	0.104	1163459	keystroke_s	s	n/a
581.9285	0.088	1163857	keystroke_Key.space	Key.space	n/a
582.1295	0.104	1164259	keystroke_m	m	n/a
582.2485	0.081	1164497	keystroke_e	e	n/a
582.3855	0.096	1164771	keystroke_l	l	n/a
582.5855	0.072	1165171	keystroke_i	i	n/a
582.6975	0.072	1165395	keystroke_s	s	n/a
582.8415	0.104	1165683	keystroke_s	s	n/a
583.0015	0.08	1166003	keystroke_a	a	n/a
583.1135	0.095	1166227	keystroke_Key.space	Key.space	n/a
583.3215	0.088	1166643	keystroke_m	m	n/a
583.4405	0.121	1166881	keystroke_a	a	n/a
583.7055	0.096	1167411	keystroke_r	r	n/a
583.8725	0.113	1167745	keystroke_i	i	n/a
584.1535	0.104	1168307	keystroke_l	l	n/a
584.3695	0.104	1168739	keystroke_y	y	n/a
584.7135	0.119	1169427	keystroke_n	n	n/a
585.1935	0.079	1170387	keystroke_Key.enter	Key.enter	n/a
585.28	10.963	1170560	prompt	n/a	itself beijing enclosed italian\n
585.9935	0.112	1171987	keystroke_i	i	n/a
586.2175	0.088	1172435	keystroke_t	t	n/a
586.6415	0.096	1173283	keystroke_s	s	n/a
586.8645	0.104	1173729	keystroke_e	e	n/a
587.0175	0.0875	1174035	keystroke_l	l	n/a
587.177	0.096	1174354	keystroke_f	f	n/a
587.793	0.0955	1175586	keystroke_Key.space	Key.space	n/a
588.073	0.088	1176146	keystroke_b	b	n/a
588.257	0.088	1176514	keystroke_e	e	n/a
588.417	0.096	1176834	keystroke_i	i	n/a
588.913	0.104	1177826	keystroke_j	j	n/a
589.321	0.112	1178642	keystroke_i	i	n/a
589.545	0.111	1179090	keystroke_n	n	n/a
590.057	0.088	1180114	keystroke_g	g	n/a
590.697	0.1125	1181394	keystroke_Key.space	Key.space	n/a
591.1055	0.096	1182211	keystroke_e	e	n/a
591.2895	0.1035	1182579	keystroke_n	n	n/a
591.6655	0.0955	1183331	keystroke_c	c	n/a
591.8415	0.1355	1183683	keystroke_l	l	n/a
592.361	0.0885	1184722	keystroke_o	o	n/a
592.7615	0.12	1185523	keystroke_s	s	n/a
593.1135	0.12	1186227	keystroke_e	e	n/a
593.4415	0.096	1186883	keystroke_d	d	n/a
593.8575	0.103	1187715	keystroke_Key.space	Key.space	n/a
594.0885	0.113	1188177	keystroke_i	i	n/a
594.2895	0.096	1188579	keystroke_t	t	n/a
594.9215	0.0875	1189843	keystroke_a	a	n/a
595.2335	0.12	1190467	keystroke_l	l	n/a
595.4735	0.087	1190947	keystroke_i	i	n/a
595.5925	0.097	1191185	keystroke_a	a	n/a
595.6895	0.056	1191379	keystroke_n	n	n/a
596.1775	0.063	1192355	keystroke_Key.enter	Key.enter	n/a
596.248	11.795	1192496	prompt	n/a	lycos fundraising follow egypt\n
597.0095	0.112	1194019	keystroke_l	l	n/a
597.2095	0.1035	1194419	keystroke_y	y	n/a
597.561	0.104	1195122	keystroke_c	c	n/a
597.865	0.096	1195730	keystroke_o	o	n/a
598.4725	0.097	1196945	keystroke_s	s	n/a
598.6165	0.097	1197233	keystroke_Key.space	Key.space	n/a
599.3455	0.072	1198691	keystroke_f	f	n/a
599.4895	0.08	1198979	keystroke_u	u	n/a
599.6815	0.079	1199363	keystroke_n	n	n/a
601.6655	0.119	1203331	keystroke_d	d	n/a
602.0175	0.112	1204035	keystroke_r	r	n/a
602.2255	0.088	1204451	keystroke_a	a	n/a
602.3535	0.096	1204707	keystroke_i	i	n/a
602.5685	0.097	1205137	keystroke_s	s	n/a
602.6815	0.12	1205363	keystroke_i	i	n/a
602.7775	0.112	1205555	keystroke_n	n	n/a
602.9605	0.065	1205921	keystroke_g	g	n/a
603.9605	0.097	1207921	keystroke_Key.space	Key.space	n/a
604.8255	0.072	1209651	keystroke_f	f	n/a
604.9295	0.08	1209859	keystroke_o	o	n/a
605.1135	0.072	1210227	keystroke_l	l	n/a
605.2495	0.072	1210499	keystroke_l	l	n/a
605.4015	0.071	1210803	keystroke_o	o	n/a
605.5135	0.08	1211027	keystroke_w	w	n/a
605.6165	0.089	1211233	keystroke_Key.space	Key.space	n/a
605.8495	0.136	1211699	keystroke_e	e	n/a
606.2175	0.136	1212435	keystroke_g	g	n/a
606.5695	0.128	1213139	keystroke_y	y	n/a
606.8095	0.112	1213619	keystroke_p	p	n/a
607.0975	0.064	1214195	keystroke_y	y	n/a
607.5205	0.089	1215041	keystroke_Key.backspace	Key.backspace	n/a
607.6255	0.072	1215251	keystroke_t	t	n/a
607.9455	0.095	1215891	keystroke_Key.enter	Key.enter	n/a
608.0475	7.523	1216095	prompt	n/a	payment independence news split\n
608.7375	0.096	1217475	keystroke_p	p	n/a
608.9055	0.096	1217811	keystroke_a	a	n/a
609.3935	0.08	1218787	keystroke_y	y	n/a
609.5295	0.096	1219059	keystroke_m	m	n/a
609.6735	0.096	1219347	keystroke_e	e	n/a
609.7535	0.072	1219507	keystroke_n	n	n/a
609.8975	0.088	1219795	keystroke_t	t	n/a
610.0885	0.097	1220177	keystroke_Key.space	Key.space	n/a
610.2645	0.097	1220529	keystroke_i	i	n/a
610.4165	0.089	1220833	keystroke_n	n	n/a
610.5855	0.08	1221171	keystroke_d	d	n/a
610.7695	0.128	1221539	keystroke_e	e	n/a
611.1535	0.12	1222307	keystroke_p	p	n/a
611.3365	0.089	1222673	keystroke_e	e	n/a
611.4575	0.08	1222915	keystroke_n	n	n/a
611.6335	0.104	1223267	keystroke_d	d	n/a
611.8645	0.104	1223729	keystroke_e	e	n/a
611.9775	0.08	1223955	keystroke_n	n	n/a
612.1855	0.095	1224371	keystroke_c	c	n/a
612.3375	0.08	1224675	keystroke_e	e	n/a
612.7445	0.096	1225489	keystroke_Key.space	Key.space	n/a
613.0655	0.096	1226131	keystroke_n	n	n/a
613.2015	0.096	1226403	keystroke_e	e	n/a
613.4895	0.088	1226979	keystroke_w	w	n/a
613.7855	0.095	1227571	keystroke_s	s	n/a
614.0085	0.089	1228017	keystroke_Key.space	Key.space	n/a
614.2175	0.088	1228435	keystroke_s	s	n/a
614.3615	0.12	1228723	keystroke_p	p	n/a
614.5535	0.096	1229107	keystroke_l	l	n/a
614.7695	0.071	1229539	keystroke_i	i	n/a
614.9055	0.072	1229811	keystroke_t	t	n/a
615.4805	0.088	1230961	keystroke_Key.enter	Key.enter	n/a
615.5765	19.1625	1231153	prompt	n/a	desired photographers consecutive don't\n
616.2895	0.104	1232579	keystroke_d	d	n/a
616.5615	0.103	1233123	keystroke_e	e	n/a
616.9765	0.105	1233953	keystroke_s	s	n/a
617.0965	0.073	1234193	keystroke_i	i	n/a
617.2415	0.08	1234483	keystroke_r	r	n/a
617.3765	0.097	1234753	keystroke_e	e	n/a
617.8325	0.104	1235665	keystroke_d	d	n/a
618.1925	0.096	1236385	keystroke_Key.space	Key.space	n/a
618.3775	0.096	1236755	keystroke_p	p	n/a
618.5775	0.064	1237155	keystroke_h	h	n/a
618.7215	0.096	1237443	keystroke_o	o	n/a
618.8415	0.048	1237683	keystroke_t	t	n/a
618.9455	0.08	1237891	keystroke_o	o	n/a
620.1525	0.121	1240305	keystroke_g	g	n/a
620.6805	0.137	1241361	keystroke_r	r	n/a
621.0895	0.104	1242179	keystroke_a	a	n/a
621.2175	0.088	1242435	keystroke_p	p	n/a
621.4405	0.073	1242881	keystroke_h	h	n/a
621.5695	0.095	1243139	keystroke_e	e	n/a
621.7455	0.088	1243491	keystroke_r	r	n/a
622.1135	0.088	1244227	keystroke_s	s	n/a
622.2645	0.088	1244529	keystroke_Key.space	Key.space	n/a
622.5855	0.104	1245171	keystroke_c	c	n/a
622.6975	0.08	1245395	keystroke_o	o	n/a
622.8415	0.08	1245683	keystroke_n	n	n/a
623.0175	0.088	1246035	keystroke_s	s	n/a
623.2175	0.096	1246435	keystroke_e	e	n/a
623.5295	0.152	1247059	keystroke_c	c	n/a
623.8815	0.12	1247763	keystroke_u	u	n/a
625.5765	0.088	1251153	keystroke_Key.backspace	Key.backspace	n/a
625.7615	0.087	1251523	keystroke_Key.backspace	Key.backspace	n/a
625.9365	0.096	1251873	keystroke_Key.backspace	Key.backspace	n/a
626.1285	0.08	1252257	keystroke_Key.backspace	Key.backspace	n/a
627.3375	0.12	1254675	keystroke_s	s	n/a
627.6255	0.112	1255251	keystroke_e	e	n/a
627.945	0.096	1255890	keystroke_c	c	n/a
628.289	0.136	1256578	keystroke_y	y	n/a
628.873	0.096	1257746	keystroke_Key.backspace	Key.backspace	n/a
629.329	0.072	1258658	keystroke_u	u	n/a
630.577	0.088	1261154	keystroke_t	t	n/a
630.705	0.088	1261410	keystroke_i	i	n/a
630.937	0.064	1261874	keystroke_b	b	n/a
631.473	0.072	1262946	keystroke_Key.backspace	Key.backspace	n/a
631.601	0.048	1263202	keystroke_v	v	n/a
632.153	0.088	1264306	keystroke_e	e	n/a
632.545	0.104	1265090	keystroke_Key.space	Key.space	n/a
632.969	0.144	1265938	keystroke_d	d	n/a
633.097	0.088	1266194	keystroke_o	o	n/a
633.233	0.072	1266466	keystroke_n	n	n/a
634.017	0.12	1268034	keystroke_'	'	n/a
634.345	0.08	1268690	keystroke_t	t	n/a
634.6325	0.104	1269265	keystroke_Key.enter	Key.enter	n/a
634.7485	6.8705	1269497	prompt	n/a	printers dist illness remove\n
635.417	0.136	1270834	keystroke_p	p	n/a
635.7845	0.0885	1271569	keystroke_r	r	n/a
635.937	0.088	1271874	keystroke_i	i	n/a
636.081	0.0715	1272162	keystroke_n	n	n/a
636.2005	0.0805	1272401	keystroke_t	t	n/a
636.353	0.08	1272706	keystroke_e	e	n/a
636.457	0.088	1272914	keystroke_r	r	n/a
636.657	0.088	1273314	keystroke_s	s	n/a
636.793	0.088	1273586	keystroke_Key.space	Key.space	n/a
637.017	0.096	1274034	keystroke_d	d	n/a
637.114	0.095	1274228	keystroke_i	i	n/a
637.321	0.112	1274642	keystroke_s	s	n/a
637.641	0.104	1275282	keystroke_t	t	n/a
637.905	0.072	1275810	keystroke_Key.space	Key.space	n/a
638.073	0.112	1276146	keystroke_i	i	n/a
638.305	0.072	1276610	keystroke_l	l	n/a
638.457	0.096	1276914	keystroke_l	l	n/a
639.129	0.104	1278258	keystroke_n	n	n/a
639.377	0.104	1278754	keystroke_e	e	n/a
639.609	0.072	1279218	keystroke_s	s	n/a
639.753	0.096	1279506	keystroke_s	s	n/a
639.905	0.08	1279810	keystroke_Key.space	Key.space	n/a
640.161	0.088	1280322	keystroke_r	r	n/a
640.329	0.08	1280658	keystroke_e	e	n/a
640.425	0.08	1280850	keystroke_m	m	n/a
640.545	0.088	1281090	keystroke_o	o	n/a
640.777	0.072	1281554	keystroke_v	v	n/a
640.929	0.072	1281858	keystroke_e	e	n/a
641.537	0.08	1283074	keystroke_Key.enter	Key.enter	n/a
641.6245	8.346	1283249	prompt	n/a	require straight setting gates\n
642.2255	0.0865	1284451	keystroke_r	r	n/a
642.4005	0.088	1284801	keystroke_e	e	n/a
642.6645	0.097	1285329	keystroke_q	q	n/a
642.8095	0.08	1285619	keystroke_u	u	n/a
643.1925	0.112	1286385	keystroke_i	i	n/a
643.6015	0.111	1287203	keystroke_r	r	n/a
643.9045	0.112	1287809	keystroke_e	e	n/a
644.3285	0.088	1288657	keystroke_Key.space	Key.space	n/a
644.4725	0.105	1288945	keystroke_s	s	n/a
644.6895	0.087	1289379	keystroke_t	t	n/a
644.8245	0.104	1289649	keystroke_r	r	n/a
645.0885	0.088	1290177	keystroke_a	a	n/a
645.2335	0.087	1290467	keystroke_i	i	n/a
645.4005	0.072	1290801	keystroke_g	g	n/a
645.5775	0.08	1291155	keystroke_h	h	n/a
645.7525	0.081	1291505	keystroke_t	t	n/a
646.2965	0.088	1292593	keystroke_Key.space	Key.space	n/a
646.4495	0.071	1292899	keystroke_s	s	n/a
646.6175	0.087	1293235	keystroke_e	e	n/a
646.8085	0.08	1293617	keystroke_t	t	n/a
646.9765	0.081	1293953	keystroke_t	t	n/a
647.0645	0.097	1294129	keystroke_i	i	n/a
647.1765	0.081	1294353	keystroke_n	n	n/a
647.2965	0.064	1294593	keystroke_g	g	n/a
647.3845	0.096	1294769	keystroke_Key.space	Key.space	n/a
647.7125	0.112	1295425	keystroke_f	f	n/a
648.0255	0.12	1296051	keystroke_a	a	n/a
648.2805	0.08	1296561	keystroke_Key.backspace	Key.backspace	n/a
648.4165	0.096	1296833	keystroke_Key.backspace	Key.backspace	n/a
648.5055	0.104	1297011	keystroke_g	g	n/a
648.7215	0.111	1297443	keystroke_a	a	n/a
648.9535	0.103	1297907	keystroke_t	t	n/a
649.2565	0.096	1298513	keystroke_e	e	n/a
649.6965	0.088	1299393	keystroke_s	s	n/a
649.8805	0.088	1299761	keystroke_Key.enter	Key.enter	n/a
649.9755	9.0755	1299951	prompt	n/a	ipod robots receipt wallet\n
650.5855	0.135	1301171	keystroke_i	i	n/a
650.8805	0.096	1301761	keystroke_p	p	n/a
651.0885	0.08	1302177	keystroke_o	o	n/a
651.3925	0.104	1302785	keystroke_d	d	n/a
651.9125	0.104	1303825	keystroke_Key.space	Key.space	n/a
652.1845	0.104	1304369	keystroke_r	r	n/a
652.4735	0.12	1304947	keystroke_o	o	n/a
653.1775	0.087	1306355	keystroke_b	b	n/a
653.3285	0.088	1306657	keystroke_o	o	n/a
653.4735	0.072	1306947	keystroke_t	t	n/a
654.0085	0.088	1308017	keystroke_s	s	n/a
654.1765	0.088	1308353	keystroke_Key.space	Key.space	n/a
654.4645	0.112	1308929	keystroke_r	r	n/a
654.7045	0.096	1309409	keystroke_e	e	n/a
655.016	0.064	1310032	keystroke_c	c	n/a
655.832	0.096	1311664	keystroke_e	e	n/a
656.08	0.096	1312160	keystroke_i	i	n/a
656.3845	0.1125	1312769	keystroke_p	p	n/a
656.656	0.1055	1313312	keystroke_t	t	n/a
