onset	duration	sample	value	key	prompt_text
12.77	13.551	25540	prompt	n/a	the quick brown fox jumps over a lazy dog\n
14.8695	0.058	29739	keystroke	Key.caps_lock	n/a
15.2725	0.09	30545	keystroke	t	n/a
15.4525	0.045	30905	keystroke	h	n/a
15.648	0.06	31296	keystroke	Key.space	n/a
16.038	0.075	32076	keystroke	Key.backspace	n/a
16.368	0.045	32736	keystroke	e	n/a
16.473	0.06	32946	keystroke	Key.space	n/a
16.623	0.106	33246	keystroke	q	n/a
16.744	0.075	33488	keystroke	u	n/a
16.938	0.06	33876	keystroke	i	n/a
17.058	0.1055	34116	keystroke	c	n/a
17.2235	0.0895	34447	keystroke	k	n/a
17.479	0.0745	34958	keystroke	Key.space	n/a
17.7635	0.06	35527	keystroke	b	n/a
17.9285	0.075	35857	keystroke	r	n/a
18.1085	0.09	36217	keystroke	o	n/a
18.2435	0.091	36487	keystroke	w	n/a
18.364	0.12	36728	keystroke	n	n/a
18.574	0.091	37148	keystroke	Key.space	n/a
18.77	0.075	37540	keystroke	f	n/a
18.9495	0.075	37899	keystroke	o	n/a
19.2345	0.12	38469	keystroke	x	n/a
19.4145	0.105	38829	keystroke	Key.space	n/a
19.8205	0.075	39641	keystroke	j	n/a
20.0155	0.06	40031	keystroke	u	n/a
20.195	0.1055	40390	keystroke	m	n/a
20.3605	0.0895	40721	keystroke	p	n/a
20.525	0.12	41050	keystroke	s	n/a
20.675	0.105	41350	keystroke	Key.space	n/a
21.1395	0.076	42279	keystroke	o	n/a
21.2905	0.0745	42581	keystroke	v	n/a
21.44	0.12	42880	keystroke	e	n/a
21.53	0.1045	43060	keystroke	r	n/a
21.6795	0.075	43359	keystroke	Key.space	n/a
21.8005	0.104	43601	keystroke	a	n/a
21.92	0.1205	43840	keystroke	Key.space	n/a
22.0555	0.1345	44111	keystroke	l	n/a
22.2655	0.1345	44531	keystroke	a	n/a
22.626	0.119	45252	keystroke	z	n/a
22.836	0.0755	45672	keystroke	t	n/a
23.091	0.12	46182	keystroke	Key.space	n/a
23.751	0.045	47502	keystroke	Key.backspace	n/a
23.901	0.105	47802	keystroke	Key.backspace	n/a
24.156	0.075	48312	keystroke	y	n/a
24.427	0.0895	48854	keystroke	Key.space	n/a
25.3715	0.135	50743	keystroke	d	n/a
25.7165	0.15	51433	keystroke	o	n/a
25.8815	0.09	51763	keystroke	g	n/a
26.168	0.15	52336	keystroke	Key.enter	n/a
26.3335	16.5825	52667	prompt	n/a	dental threatening receptors incurred\n
27.6075	0.135	55215	keystroke	d	n/a
27.6975	0.105	55395	keystroke	e	n/a
27.8175	0.1505	55635	keystroke	n	n/a
27.953	0.075	55906	keystroke	t	n/a
28.343	0.135	56686	keystroke	a	n/a
28.973	0.135	57946	keystroke	l	n/a
29.288	0.03	58576	keystroke	Key.space	n/a
29.724	0.075	59448	keystroke	t	n/a
29.814	0.09	59628	keystroke	h	n/a
29.9485	0.105	59897	keystroke	e	n/a
31.014	0.12	62028	keystroke	\	n/a
31.854	0.0455	63708	keystroke	Key.backspace	n/a
32.0195	0.045	64039	keystroke	Key.backspace	n/a
32.2895	0.15	64579	keystroke	r	n/a
32.3945	0.135	64789	keystroke	e	n/a
32.65	0.105	65300	keystroke	a	n/a
32.875	0.09	65750	keystroke	t	n/a
33.055	0.105	66110	keystroke	e	n/a
33.325	0.135	66650	keystroke	n	n/a
33.5805	0.105	67161	keystroke	i	n/a
33.6555	0.15	67311	keystroke	n	n/a
33.8655	0.075	67731	keystroke	g	n/a
34.0005	0.105	68001	keystroke	Key.space	n/a
34.3305	0.105	68661	keystroke	r	n/a
34.4505	0.105	68901	keystroke	e	n/a
35.3805	0.09	70761	keystroke	c	n/a
35.5155	0.121	71031	keystroke	e	n/a
35.6805	0.166	71361	keystroke	p	n/a
35.9365	0.075	71873	keystroke	t	n/a
36.1165	0.12	72233	keystroke	o	n/a
36.671	0.135	73342	keystroke	r	n/a
36.942	0.09	73884	keystroke	s	n/a
37.076	0.151	74152	keystroke	Key.space	n/a
37.302	0.12	74604	keystroke	i	n/a
37.407	0.135	74814	keystroke	n	n/a
37.587	0.12	75174	keystroke	c	n/a
37.812	0.045	75624	keystroke	u	n/a
37.947	0.0605	75894	keystroke	u	n/a
38.7275	0.045	77455	keystroke	\	n/a
39.253	0.12	78506	keystroke	Key.backspace	n/a
39.478	0.09	78956	keystroke	Key.backspace	n/a
39.778	0.1495	79556	keystroke	r	n/a
39.9875	0.075	79975	keystroke	e	n/a
40.2135	0.135	80427	keystroke	e	n/a
41.038	0.075	82076	keystroke	Key.backspace	n/a
41.218	0.061	82436	keystroke	Key.backspace	n/a
41.474	0.15	82948	keystroke	r	n/a
41.654	0.0895	83308	keystroke	e	n/a
41.9235	0.1355	83847	keystroke	d	n/a
42.764	0.1495	85528	keystroke	Key.enter	n/a
42.919	16.8765	85838	prompt	n/a	says hist examples civilization\n
44.369	0.09	88738	keystroke	s	n/a
44.595	0.09	89190	keystroke	a	n/a
44.67	0.09	89340	keystroke	y	n/a
44.865	0.105	89730	keystroke	s	n/a
45	0.135	90000	keystroke	Key.space	n/a
45.285	0.15	90570	keystroke	h	n/a
45.435	0.09	90870	keystroke	i	n/a
45.72	0.105	91440	keystroke	s	n/a
46.0505	0.12	92101	keystroke	t	n/a
46.2905	0.1345	92581	keystroke	Key.space	n/a
46.725	0.105	93450	keystroke	e	n/a
47.8055	0.09	95611	keystroke	x	n/a
48.1665	0.09	96333	keystroke	a	n/a
48.3015	0.105	96603	keystroke	m	n/a
48.5115	0.12	97023	keystroke	p	n/a
48.7665	0.105	97533	keystroke	l	n/a
49.816	0.121	99632	keystroke	e	n/a
50.207	0.1345	100414	keystroke	s	n/a
50.4315	0.1055	100863	keystroke	Key.space	n/a
50.972	0.0605	101944	keystroke	c	n/a
51.0475	0.06	102095	keystroke	c	n/a
51.287	0.09	102574	keystroke	i	n/a
51.678	0.0745	103356	keystroke	v	n/a
51.8125	0.075	103625	keystroke	i	n/a
52.083	0.09	104166	keystroke	l	n/a
52.533	0.105	105066	keystroke	i	n/a
53.3575	0.06	106715	keystroke	Key.backspace	n/a
53.5535	0.03	107107	keystroke	Key.backspace	n/a
53.943	0.06	107886	keystroke	Key.backspace	n/a
54.138	0.075	108276	keystroke	Key.backspace	n/a
54.348	0.075	108696	keystroke	Key.backspace	n/a
54.558	0.0905	109116	keystroke	Key.backspace	n/a
55.3235	0.075	110647	keystroke	i	n/a
55.6685	0.045	111337	keystroke	v	n/a
55.7885	0.09	111577	keystroke	i	n/a
56.074	0.06	112148	keystroke	l	n/a
56.9435	0.06	113887	keystroke	i	n/a
57.244	0.12	114488	keystroke	z	n/a
57.5435	0.075	115087	keystroke	a	n/a
57.8135	0.0895	115627	keystroke	t	n/a
58.3835	0.0595	116767	keystroke	i	n/a
58.608	0.12	117216	keystroke	o	n/a
58.878	0.226	117756	keystroke	n	n/a
59.6585	0.1345	119317	keystroke	Key.enter	n/a
59.799	21.099	119598	prompt	n/a	enjoying assembled updating cartridges\n
60.678	0.135	121356	keystroke	e	n/a
60.873	0.12	121746	keystroke	n	n/a
61.503	0.12	123006	keystroke	j	n/a
61.833	0.181	123666	keystroke	o	n/a
61.999	0.105	123998	keystroke	y	n/a
62.4635	0.1045	124927	keystroke	i	n/a
62.553	0.135	125106	keystroke	n	n/a
62.718	0.105	125436	keystroke	g	n/a
62.868	0.12	125736	keystroke	Key.space	n/a
63.0625	0.196	126125	keystroke	a	n/a
63.3935	0.09	126787	keystroke	d	n/a
63.5735	0.105	127147	keystroke	d	n/a
64.158	0.045	128316	keystroke	Key.backspace	n/a
64.218	0.09	128436	keystroke	Key.backspace	n/a
64.863	0.1195	129726	keystroke	s	n/a
65.1025	0.135	130205	keystroke	s	n/a
65.3435	0.105	130687	keystroke	e	n/a
65.5385	0.1045	131077	keystroke	m	n/a
66.5425	0.0905	133085	keystroke	b	n/a
67.0525	0.12	134105	keystroke	l	n/a
67.3375	0.15	134675	keystroke	e	n/a
67.7585	0.1495	135517	keystroke	s	n/a
67.9975	0.12	135995	keystroke	Key.space	n/a
68.9125	0.09	137825	keystroke	u	n/a
69.1375	0.06	138275	keystroke	o	n/a
70.2175	0.0605	140435	keystroke	\	n/a
70.7275	0.12	141455	keystroke	Key.backspace	n/a
70.9225	0.075	141845	keystroke	Key.backspace	n/a
71.267	0.09	142534	keystroke	o	n/a
71.7165	0.106	143433	keystroke	Key.backspace	n/a
72.9775	0.09	145955	keystroke	p	n/a
73.2175	0.1495	146435	keystroke	d	n/a
73.3375	0.1495	146675	keystroke	a	n/a
73.472	0.06	146944	keystroke	t	n/a
73.712	0.1795	147424	keystroke	i	n/a
73.8765	0.105	147753	keystroke	n	n/a
74.0265	0.12	148053	keystroke	g	n/a
74.2065	0.09	148413	keystroke	Key.space	n/a
74.537	0.12	149074	keystroke	c	n/a
74.642	0.12	149284	keystroke	a	n/a
74.9565	0.165	149913	keystroke	r	n/a
75.0915	0.105	150183	keystroke	t	n/a
75.7965	0.1055	151593	keystroke	i	n/a
78.094	0.072	156188	keystroke	Key.backspace	n/a
78.211	0.121	156422	keystroke	r	n/a
79.0065	0.075	158013	keystroke	i	n/a
79.201	0.12	158402	keystroke	d	n/a
79.336	0.09	158672	keystroke	g	n/a
79.456	0.135	158912	keystroke	e	n/a
80.1615	0.135	160323	keystroke	s	n/a
80.7315	0.1645	161463	keystroke	Key.enter	n/a
80.901	11.7415	161802	prompt	n/a	displays amendment pipe files\n
82.0355	0.105	164071	keystroke	d	n/a
82.351	0.015	164702	keystroke	o	n/a
83.13	0.135	166260	keystroke	Key.backspace	n/a
83.476	0.09	166952	keystroke	i	n/a
83.611	0.12	167222	keystroke	s	n/a
83.926	0.1345	167852	keystroke	o	n/a
84.4355	0.12	168871	keystroke	Key.backspace	n/a
85.0655	0.105	170131	keystroke	p	n/a
85.305	0.075	170610	keystroke	l	n/a
85.455	0.106	170910	keystroke	a	n/a
85.575	0.06	171150	keystroke	y	n/a
85.771	0.09	171542	keystroke	s	n/a
85.876	0.1195	171752	keystroke	Key.space	n/a
86.5055	0.12	173011	keystroke	a	n/a
86.775	0.075	173550	keystroke	m	n/a
86.88	0.09	173760	keystroke	e	n/a
87.075	0.09	174150	keystroke	n	n/a
87.315	0.075	174630	keystroke	d	n/a
87.54	0.075	175080	keystroke	m	n/a
87.676	0.0745	175352	keystroke	e	n/a
87.7655	0.105	175531	keystroke	n	n/a
88.0655	0.12	176131	keystroke	t	n/a
88.2905	0.06	176581	keystroke	Key.space	n/a
88.9205	0.135	177841	keystroke	p	n/a
89.1305	0.105	178261	keystroke	u	n/a
89.4	0.015	178800	keystroke	p	n/a
89.8045	0.076	179609	keystroke	Key.backspace	n/a
89.9705	0.075	179941	keystroke	Key.backspace	n/a
90.2255	0.1495	180451	keystroke	i	n/a
90.39	0.12	180780	keystroke	p	n/a
90.63	0.105	181260	keystroke	e	n/a
90.87	0.105	181740	keystroke	Key.space	n/a
91.365	0.1045	182730	keystroke	f	n/a
91.4995	0.105	182999	keystroke	i	n/a
91.7545	0.06	183509	keystroke	l	n/a
91.7995	0.1205	183599	keystroke	e	n/a
92.115	0.135	184230	keystroke	s	n/a
92.475	0.1645	184950	keystroke	Key.enter	n/a
92.646	9.055	185292	prompt	n/a	steve myspace keyword editor\n
93.48	0.12	186960	keystroke	s	n/a
93.78	0.12	187560	keystroke	t	n/a
93.96	0.1045	187920	keystroke	e	n/a
94.1995	0.09	188399	keystroke	v	n/a
94.3795	0.105	188759	keystroke	e	n/a
94.4995	0.15	188999	keystroke	Key.space	n/a
95.01	0.105	190020	keystroke	m	n/a
95.2795	0.075	190559	keystroke	y	n/a
95.4595	0.12	190919	keystroke	s	n/a
95.6695	0.12	191339	keystroke	p	n/a
95.8795	0.09	191759	keystroke	a	n/a
96.1495	0.1045	192299	keystroke	c	n/a
96.269	0.06	192538	keystroke	e	n/a
97.0935	0.1205	194187	keystroke	Key.space	n/a
97.7085	0.105	195417	keystroke	k	n/a
97.8435	0.075	195687	keystroke	e	n/a
98.0385	0.09	196077	keystroke	y	n/a
98.3995	0.105	196799	keystroke	w	n/a
98.549	0.105	197098	keystroke	o	n/a
98.699	0.06	197398	keystroke	r	n/a
98.909	0.09	197818	keystroke	d	n/a
99.104	0.075	198208	keystroke	Key.space	n/a
99.224	0.1045	198448	keystroke	e	n/a
99.5245	0.1195	199049	keystroke	d	n/a
99.674	0.105	199348	keystroke	i	n/a
100.379	0.1045	200758	keystroke	t	n/a
100.7835	0.105	201567	keystroke	o	n/a
100.9485	0.09	201897	keystroke	r	n/a
101.579	0.12	203158	keystroke	Key.enter	n/a
101.704	16.2395	203408	prompt	n/a	calibration hybrid utilities entertaining\n
102.464	0.105	204928	keystroke	c	n/a
102.569	0.15	205138	keystroke	a	n/a
102.689	0.105	205378	keystroke	l	n/a
102.959	0.0745	205918	keystroke	i	n/a
103.1835	0.09	206367	keystroke	b	n/a
103.6935	0.045	207387	keystroke	r	n/a
103.858	0.0155	207716	keystroke	a	n/a
105.4185	0.12	210837	keystroke	t	n/a
105.5985	0.1045	211197	keystroke	i	n/a
105.8835	0.135	211767	keystroke	o	n/a
106.1385	0.135	212277	keystroke	n	n/a
106.4385	0.09	212877	keystroke	Key.space	n/a
107.248	0.075	214496	keystroke	h	n/a
107.4735	0.03	214947	keystroke	y	n/a
107.7135	0.09	215427	keystroke	b	n/a
108.3135	0.18	216627	keystroke	r	n/a
108.5535	0.0895	217107	keystroke	i	n/a
108.778	0.0895	217556	keystroke	d	n/a
108.9425	0.15	217885	keystroke	Key.space	n/a
109.663	0.075	219326	keystroke	u	n/a
109.8875	0.105	219775	keystroke	t	n/a
111.432	0.105	222864	keystroke	i	n/a
111.718	0.09	223436	keystroke	l	n/a
112.033	0.06	224066	keystroke	i	n/a
112.318	0.1345	224636	keystroke	t	n/a
112.6625	0.075	225325	keystroke	i	n/a
112.8575	0.09	225715	keystroke	e	n/a
113.217	0.135	226434	keystroke	s	n/a
113.457	0.09	226914	keystroke	Key.space	n/a
114.4475	0.12	228895	keystroke	e	n/a
114.5975	0.135	229195	keystroke	n	n/a
114.7475	0.0745	229495	keystroke	t	n/a
114.867	0.12	229734	keystroke	e	n/a
114.957	0.075	229914	keystroke	r	n/a
115.273	0.149	230546	keystroke	t	n/a
116.232	0.12	232464	keystroke	a	n/a
116.532	0.1655	233064	keystroke	i	n/a
116.7725	0.09	233545	keystroke	n	n/a
117.057	0.09	234114	keystroke	i	n/a
117.117	0.105	234234	keystroke	n	n/a
117.4615	0.12	234923	keystroke	g	n/a
117.7765	0.165	235553	keystroke	Key.enter	n/a
117.948	25.883	235896	prompt	n/a	signature populations nutritional dover\n
119.067	0.15	238134	keystroke	s	n/a
119.217	0.105	238434	keystroke	i	n/a
119.442	0.075	238884	keystroke	g	n/a
119.682	0.105	239364	keystroke	n	n/a
119.891	0.076	239782	keystroke	a	n/a
120.102	0.09	240204	keystroke	t	n/a
120.312	0.075	240624	keystroke	u	n/a
120.522	0.12	241044	keystroke	r	n/a
120.627	0.09	241254	keystroke	e	n/a
120.852	0.135	241704	keystroke	Key.space	n/a
121.272	0.075	242544	keystroke	p	n/a
121.632	0.09	243264	keystroke	o	n/a
121.8565	0.09	243713	keystroke	p	n/a
122.111	0.06	244222	keystroke	u	n/a
122.382	0.03	244764	keystroke	l	n/a
122.6365	0.06	245273	keystroke	a	n/a
122.8315	0.075	245663	keystroke	t	n/a
123.101	0.12	246202	keystroke	i	n/a
123.372	0.119	246744	keystroke	o	n/a
123.537	0.15	247074	keystroke	n	n/a
123.7465	0.1195	247493	keystroke	s	n/a
123.971	0.12	247942	keystroke	Key.space	n/a
124.7815	0.105	249563	keystroke	n	n/a
125.006	0.075	250012	keystroke	u	n/a
125.2005	0.121	250401	keystroke	r	n/a
125.2905	0.12	250581	keystroke	t	n/a
125.7865	0.075	251573	keystroke	i	n/a
125.9515	0.075	251903	keystroke	t	n/a
126.0865	0.0745	252173	keystroke	i	n/a
126.281	0.15	252562	keystroke	o	n/a
126.5955	0.045	253191	keystroke	o	n/a
126.7765	0.09	253553	keystroke	n	n/a
127.286	0.075	254572	keystroke	Key.backspace	n/a
127.496	0.06	254992	keystroke	Key.backspace	n/a
127.8865	0.105	255773	keystroke	o	n/a
127.9765	0.075	255953	keystroke	n	n/a
128.546	0.135	257092	keystroke	Key.backspace	n/a
128.726	0.075	257452	keystroke	Key.backspace	n/a
129.4605	0.015	258921	keystroke	n	n/a
129.6405	0.076	259281	keystroke	n	n/a
130.3005	0.105	260601	keystroke	Key.backspace	n/a
130.6165	0.059	261233	keystroke	a	n/a
130.8255	0.09	261651	keystroke	l	n/a
131.0955	0.091	262191	keystroke	Key.space	n/a
132.026	0.0895	264052	keystroke	Key.backspace	n/a
132.296	0.0745	264592	keystroke	Key.backspace	n/a
132.5955	0.06	265191	keystroke	Key.backspace	n/a
132.8655	0.09	265731	keystroke	Key.backspace	n/a
133.135	0.09	266270	keystroke	Key.backspace	n/a
133.42	0.091	266840	keystroke	Key.backspace	n/a
133.691	0.09	267382	keystroke	Key.backspace	n/a
134.036	0.06	268072	keystroke	Key.backspace	n/a
134.3205	0.075	268641	keystroke	Key.backspace	n/a
134.696	0.09	269392	keystroke	Key.backspace	n/a
135.4005	0.135	270801	keystroke	t	n/a
135.64	0.12	271280	keystroke	r	n/a
135.85	0.06	271700	keystroke	i	n/a
136.015	0.075	272030	keystroke	t	n/a
136.255	0.06	272510	keystroke	u	n/a
136.825	0.0595	273650	keystroke	Key.backspace	n/a
137.1245	0.045	274249	keystroke	i	n/a
137.1395	0.015	274279	keystroke	o	n/a
137.7845	0.12	275569	keystroke	o	n/a
137.9195	0.105	275839	keystroke	n	n/a
138.8495	0.015	277699	keystroke	Key.backspace	n/a
138.8795	0.045	277759	keystroke	Key.backspace	n/a
139.0145	0.0905	278029	keystroke	Key.backspace	n/a
139.915	0.12	279830	keystroke	o	n/a
140.1695	0.105	280339	keystroke	n	n/a
140.5445	0.1045	281089	keystroke	a	n/a
140.7095	0.105	281419	keystroke	l	n/a
140.9195	0.105	281839	keystroke	Key.space	n/a
142.524	0.105	285048	keystroke	d	n/a
142.704	0.12	285408	keystroke	o	n/a
142.839	0.06	285678	keystroke	v	n/a
143.2295	0.045	286459	keystroke	e	n/a
143.2445	0.1355	286489	keystroke	r	n/a
143.6945	0.135	287389	keystroke	Key.enter	n/a
143.834	7.5265	287668	prompt	n/a	hands standards signs chances\n
144.8195	0.075	289639	keystroke	h	n/a
144.9845	0.09	289969	keystroke	a	n/a
145.1495	0.12	290299	keystroke	n	n/a
145.3145	0.21	290629	keystroke	d	n/a
145.6295	0.06	291259	keystroke	s	n/a
145.7645	0.1195	291529	keystroke	Key.space	n/a
145.974	0.075	291948	keystroke	s	n/a
146.2285	0.06	292457	keystroke	t	n/a
146.5295	0.105	293059	keystroke	a	n/a
146.6645	0.1195	293329	keystroke	n	n/a
147.0235	0.06	294047	keystroke	d	n/a
147.1885	0.165	294377	keystroke	a	n/a
147.3695	0.119	294739	keystroke	r	n/a
147.6395	0.15	295279	keystroke	d	n/a
147.7745	0.1045	295549	keystroke	s	n/a
148.074	0.1045	296148	keystroke	Key.space	n/a
148.2985	0.09	296597	keystroke	s	n/a
148.4645	0.134	296929	keystroke	i	n/a
148.7345	0.09	297469	keystroke	g	n/a
148.8695	0.1345	297739	keystroke	n	n/a
149.109	0.105	298218	keystroke	s	n/a
149.289	0.12	298578	keystroke	Key.space	n/a
149.679	0.09	299358	keystroke	c	n/a
149.844	0.1045	299688	keystroke	h	n/a
150.0385	0.12	300077	keystroke	a	n/a
150.1885	0.135	300377	keystroke	n	n/a
150.5785	0.1205	301157	keystroke	c	n/a
150.714	0.09	301428	keystroke	e	n/a
150.954	0.105	301908	keystroke	s	n/a
151.224	0.135	302448	keystroke	Key.enter	n/a
151.3635	10.7665	302727	prompt	n/a	bruce banners guide attachments\n
152.2885	0.075	304577	keystroke	b	n/a
152.4535	0.075	304907	keystroke	r	n/a
152.6485	0.06	305297	keystroke	u	n/a
152.829	0.09	305658	keystroke	c	n/a
152.994	0.1195	305988	keystroke	e	n/a
153.1585	0.105	306317	keystroke	Key.space	n/a
153.398	0.06	306796	keystroke	b	n/a
153.563	0.09	307126	keystroke	a	n/a
153.728	0.091	307456	keystroke	n	n/a
153.8935	0.09	307787	keystroke	n	n/a
154.148	0.135	308296	keystroke	e	n/a
154.358	0.105	308716	keystroke	r	n/a
154.763	0.091	309526	keystroke	s	n/a
154.9735	0.12	309947	keystroke	Key.space	n/a
156.188	0.105	312376	keystroke	h	n/a
157.568	0.12	315136	keystroke	Key.backspace	n/a
158.2285	0.075	316457	keystroke	g	n/a
158.4085	0.0595	316817	keystroke	u	n/a
158.648	0.09	317296	keystroke	i	n/a
158.843	0.18	317686	keystroke	d	n/a
159.024	0.104	318048	keystroke	e	n/a
159.2635	0.105	318527	keystroke	Key.space	n/a
159.4585	0.0745	318917	keystroke	a	n/a
159.683	0.075	319366	keystroke	t	n/a
159.863	0.09	319726	keystroke	t	n/a
160.058	0.105	320116	keystroke	a	n/a
160.253	0.135	320506	keystroke	c	n/a
160.568	0.0905	321136	keystroke	h	n/a
160.928	0.075	321856	keystroke	m	n/a
161.123	0.105	322246	keystroke	e	n/a
161.288	0.1045	322576	keystroke	n	n/a
161.4375	0.121	322875	keystroke	t	n/a
161.7085	0.075	323417	keystroke	s	n/a
161.9485	0.18	323897	keystroke	Key.enter	n/a
162.133	13.1655	324266	prompt	n/a	diabetes solution areas experiment\n
163.1775	0.105	326355	keystroke	d	n/a
163.373	0.06	326746	keystroke	i	n/a
163.9285	0.1195	327857	keystroke	s	n/a
165.248	0.12	330496	keystroke	Key.backspace	n/a
165.458	0.0595	330916	keystroke	a	n/a
165.6375	0.12	331275	keystroke	b	n/a
166.178	0.0595	332356	keystroke	t	n/a
166.7175	0.135	333435	keystroke	Key.backspace	n/a
166.957	0.12	333914	keystroke	e	n/a
167.197	0.135	334394	keystroke	t	n/a
167.392	0.09	334784	keystroke	e	n/a
167.648	0.105	335296	keystroke	s	n/a
167.8275	0.12	335655	keystroke	Key.space	n/a
168.082	0.09	336164	keystroke	s	n/a
168.863	0.045	337726	keystroke	o	n/a
169.4175	0.105	338835	keystroke	l	n/a
170.0475	0.0895	340095	keystroke	u	n/a
170.197	0.075	340394	keystroke	t	n/a
170.3475	0.075	340695	keystroke	i	n/a
170.587	0.12	341174	keystroke	o	n/a
170.782	0.105	341564	keystroke	n	n/a
171.037	0.075	342074	keystroke	Key.space	n/a
171.3675	0.12	342735	keystroke	a	n/a
171.6375	0.15	343275	keystroke	r	n/a
171.8475	0.105	343695	keystroke	e	n/a
172.0575	0.105	344115	keystroke	a	n/a
172.2675	0.12	344535	keystroke	s	n/a
172.432	0.135	344864	keystroke	Key.space	n/a
172.822	0.06	345644	keystroke	e	n/a
173.152	0.0905	346304	keystroke	x	n/a
173.3175	0.12	346635	keystroke	p	n/a
173.4675	0.165	346935	keystroke	e	n/a
173.5875	0.1045	347175	keystroke	r	n/a
173.797	0.0755	347594	keystroke	i	n/a
173.9775	0.105	347955	keystroke	m	n/a
174.1425	0.1345	348285	keystroke	e	n/a
174.262	0.105	348524	keystroke	n	n/a
174.427	0.1045	348854	keystroke	t	n/a
174.6665	0.09	349333	keystroke	e	n/a
174.8765	0.105	349753	keystroke	d	n/a
175.1615	0.1355	350323	keystroke	Key.enter	n/a
175.3015	10.706	350603	prompt	n/a	appointed campaign granted residents\n
176.467	0.09	352934	keystroke	a	n/a
176.722	0.075	353444	keystroke	p	n/a
176.902	0.0895	353804	keystroke	p	n/a
177.202	0.105	354404	keystroke	o	n/a
177.4865	0.12	354973	keystroke	i	n/a
177.8315	0.075	355663	keystroke	n	n/a
178.0715	0.0895	356143	keystroke	t	n/a
178.2815	0.09	356563	keystroke	e	n/a
178.5365	0.09	357073	keystroke	d	n/a
178.7315	0.1045	357463	keystroke	Key.space	n/a
179.076	0.12	358152	keystroke	c	n/a
179.256	0.12	358512	keystroke	a	n/a
179.452	0.12	358904	keystroke	m	n/a
179.691	0.09	359382	keystroke	p	n/a
179.856	0.135	359712	keystroke	a	n/a
180.036	0.12	360072	keystroke	i	n/a
180.352	0.09	360704	keystroke	g	n/a
180.502	0.1195	361004	keystroke	n	n/a
180.8015	0.06	361603	keystroke	Key.space	n/a
181.7015	0.1195	363403	keystroke	g	n/a
181.881	0.105	363762	keystroke	r	n/a
182.1055	0.09	364211	keystroke	a	n/a
182.3005	0.0905	364601	keystroke	n	n/a
182.376	0.135	364752	keystroke	t	n/a
182.556	0.075	365112	keystroke	e	n/a
182.796	0.105	365592	keystroke	d	n/a
182.976	0.1045	365952	keystroke	Key.space	n/a
183.1855	0.1205	366371	keystroke	r	n/a
183.2755	0.1205	366551	keystroke	e	n/a
183.531	0.12	367062	keystroke	s	n/a
183.711	0.105	367422	keystroke	i	n/a
183.921	0.1655	367842	keystroke	d	n/a
184.581	0.105	369162	keystroke	e	n/a
184.731	0.135	369462	keystroke	n	n/a
184.881	0.09	369762	keystroke	t	n/a
185.136	0.1055	370272	keystroke	s	n/a
185.871	0.135	371742	keystroke	Key.enter	n/a
186.0115	19.5855	372023	prompt	n/a	cost deutschland minimize wiki\n
186.726	0.105	373452	keystroke	c	n/a
186.906	0.0745	373812	keystroke	o	n/a
187.071	0.105	374142	keystroke	s	n/a
187.341	0.09	374682	keystroke	t	n/a
187.611	0.06	375222	keystroke	Key.space	n/a
188.0015	0.1045	376003	keystroke	d	n/a
188.166	0.075	376332	keystroke	e	n/a
188.4055	0.075	376811	keystroke	u	n/a
188.571	0.09	377142	keystroke	s	n/a
188.781	0.09	377562	keystroke	t	n/a
189.261	0.0905	378522	keystroke	c	n/a
189.4265	0.09	378853	keystroke	h	n/a
189.8905	0.12	379781	keystroke	l	n/a
190.1005	0.09	380201	keystroke	a	n/a
190.3415	0.12	380683	keystroke	n	n/a
190.5215	0.104	381043	keystroke	d	n/a
190.7005	0.06	381401	keystroke	Key.space	n/a
193.973	0	387946	keystroke	Key.backspace	n/a
194.076	0.075	388152	keystroke	Key.backspace	n/a
194.316	0.1045	388632	keystroke	Key.backspace	n/a
194.5405	0.075	389081	keystroke	Key.backspace	n/a
194.781	0.105	389562	keystroke	Key.backspace	n/a
195.021	0.075	390042	keystroke	Key.backspace	n/a
195.216	0.0895	390432	keystroke	Key.backspace	n/a
195.5005	0.015	391001	keystroke	Key.backspace	n/a
195.606	0.1045	391212	keystroke	Key.backspace	n/a
196.4005	0.105	392801	keystroke	t	n/a
196.9255	0.105	393851	keystroke	s	n/a
197.1205	0.12	394241	keystroke	c	n/a
197.3155	0.075	394631	keystroke	h	n/a
197.871	0.105	395742	keystroke	l	n/a
198.081	0.0895	396162	keystroke	a	n/a
198.2905	0.105	396581	keystroke	n	n/a
198.4855	0.09	396971	keystroke	d	n/a
198.725	0.12	397450	keystroke	Key.space	n/a
199.565	0.105	399130	keystroke	m	n/a
201.3355	0.09	402671	keystroke	i	n/a
201.5905	0.09	403181	keystroke	n	n/a
201.815	0.075	403630	keystroke	i	n/a
202.0405	0.09	404081	keystroke	m	n/a
202.2205	0.105	404441	keystroke	i	n/a
202.5655	0.06	405131	keystroke	z	n/a
203.015	0.12	406030	keystroke	e	n/a
203.27	0.09	406540	keystroke	Key.space	n/a
203.7355	0.105	407471	keystroke	w	n/a
204.0055	0.075	408011	keystroke	i	n/a
204.6805	0.105	409361	keystroke	k	n/a
204.935	0.105	409870	keystroke	i	n/a
205.445	0.15	410890	keystroke	Key.enter	n/a
205.5995	13.2715	411199	prompt	n/a	dinner reporting warranty discussing\n
206.7355	0.075	413471	keystroke	d	n/a
206.915	0.105	413830	keystroke	i	n/a
207.155	0.075	414310	keystroke	n	n/a
207.3345	0.09	414669	keystroke	n	n/a
207.5605	0.18	415121	keystroke	e	n/a
207.8305	0.105	415661	keystroke	r	n/a
207.9805	0.12	415961	keystroke	Key.space	n/a
208.22	0.1205	416440	keystroke	r	n/a
208.3705	0.105	416741	keystroke	e	n/a
208.625	0.12	417250	keystroke	o	n/a
209.6605	0.105	419321	keystroke	Key.backspace	n/a
210.455	0.12	420910	keystroke	p	n/a
210.695	0.105	421390	keystroke	o	n/a
210.92	0.1945	421840	keystroke	r	n/a
211.0395	0.12	422079	keystroke	t	n/a
211.55	0.06	423100	keystroke	i	n/a
211.88	0.135	423760	keystroke	n	n/a
212.0745	0.0755	424149	keystroke	g	n/a
212.285	0.15	424570	keystroke	Key.space	n/a
212.84	0.105	425680	keystroke	w	n/a
213.02	0.15	426040	keystroke	a	n/a
213.215	0.0895	426430	keystroke	r	n/a
213.4095	0.075	426819	keystroke	r	n/a
213.6495	0.045	427299	keystroke	a	n/a
213.7545	0.105	427509	keystroke	n	n/a
213.965	0.12	427930	keystroke	t	n/a
215.0145	0.075	430029	keystroke	y	n/a
215.27	0.12	430540	keystroke	Key.space	n/a
216.47	0.135	432940	keystroke	d	n/a
216.7395	0.06	433479	keystroke	i	n/a
216.9495	0.09	433899	keystroke	s	n/a
217.1445	0.075	434289	keystroke	c	n/a
217.489	0.075	434978	keystroke	u	n/a
217.669	0.076	435338	keystroke	s	n/a
217.865	0.06	435730	keystroke	s	n/a
218.015	0.1345	436030	keystroke	i	n/a
218.2095	0.15	436419	keystroke	n	n/a
218.4345	0.075	436869	keystroke	g	n/a
218.749	0.1195	437498	keystroke	Key.enter	n/a
218.874	12.6865	437748	prompt	n/a	energy elect easy veterinary\n
219.694	0.075	439388	keystroke	e	n/a
219.874	0.09	439748	keystroke	n	n/a
220.039	0.135	440078	keystroke	e	n/a
220.7445	0.09	441489	keystroke	r	n/a
220.9545	0.09	441909	keystroke	g	n/a
221.164	0.075	442328	keystroke	y	n/a
221.374	0.09	442748	keystroke	Key.space	n/a
221.554	0.09	443108	keystroke	e	n/a
221.749	0.1195	443498	keystroke	l	n/a
221.9295	0.105	443859	keystroke	e	n/a
222.259	0.09	444518	keystroke	c	n/a
222.514	0.075	445028	keystroke	t	n/a
222.709	0.105	445418	keystroke	Key.space	n/a
222.949	0.09	445898	keystroke	e	n/a
223.204	0.18	446408	keystroke	a	n/a
223.369	0.12	446738	keystroke	s	n/a
223.8045	0.105	447609	keystroke	t	n/a
224.0745	0.1345	448149	keystroke	Key.space	n/a
224.7185	0.12	449437	keystroke	Key.backspace	n/a
224.9735	0.091	449947	keystroke	Key.backspace	n/a
225.8445	0.09	451689	keystroke	y	n/a
226.0845	0.105	452169	keystroke	Key.space	n/a
226.579	0.1195	453158	keystroke	v	n/a
226.9985	0.18	453997	keystroke	e	n/a
227.3895	0.1345	454779	keystroke	t	n/a
227.8685	0.195	455737	keystroke	e	n/a
228.0185	0.135	456037	keystroke	r	n/a
228.6045	0.0745	457209	keystroke	i	n/a
228.859	0.135	457718	keystroke	n	n/a
229.099	0.12	458198	keystroke	a	n/a
229.264	0.045	458528	keystroke	e	n/a
229.849	0.0895	459698	keystroke	Key.backspace	n/a
230.0435	0.1055	460087	keystroke	r	n/a
230.9585	0.076	461917	keystroke	y	n/a
231.409	0.1495	462818	keystroke	Key.enter	n/a
231.5635	9.2665	463127	prompt	n/a	week expect meal death\n
232.339	0.12	464678	keystroke	w	n/a
232.5485	0.06	465097	keystroke	e	n/a
232.7285	0.105	465457	keystroke	e	n/a
233.328	0.12	466656	keystroke	k	n/a
233.614	0.105	467228	keystroke	Key.space	n/a
233.854	0.1045	467708	keystroke	e	n/a
234.8735	0.045	469747	keystroke	x	n/a
235.3685	0.105	470737	keystroke	p	n/a
235.5185	0.1345	471037	keystroke	e	n/a
235.743	0.09	471486	keystroke	c	n/a
235.953	0.12	471906	keystroke	t	n/a
236.088	0.105	472176	keystroke	Key.space	n/a
236.7485	0.089	473497	keystroke	l	n/a
236.8685	0.15	473737	keystroke	e	n/a
237.1535	0.09	474307	keystroke	a	n/a
237.5135	0.075	475027	keystroke	Key.backspace	n/a
237.7085	0.06	475417	keystroke	Key.backspace	n/a
237.873	0.075	475746	keystroke	Key.backspace	n/a
238.3235	0.075	476647	keystroke	m	n/a
238.5035	0.135	477007	keystroke	e	n/a
238.6085	0.12	477217	keystroke	a	n/a
238.818	0.105	477636	keystroke	l	n/a
239.043	0.105	478086	keystroke	Key.space	n/a
239.328	0.15	478656	keystroke	d	n/a
239.479	0.1495	478958	keystroke	e	n/a
239.6135	0.1045	479227	keystroke	a	n/a
239.8535	0.09	479707	keystroke	t	n/a
240.348	0.09	480696	keystroke	h	n/a
240.723	0.1055	481446	keystroke	Key.enter	n/a
240.834	7.4505	481668	prompt	n/a	basename ended fine various\n
241.788	0.0895	483576	keystroke	b	n/a
241.9385	0.164	483877	keystroke	a	n/a
242.0425	0.181	484085	keystroke	s	n/a
242.2085	0.135	484417	keystroke	e	n/a
242.4335	0.105	484867	keystroke	n	n/a
242.6135	0.1195	485227	keystroke	a	n/a
242.718	0.105	485436	keystroke	m	n/a
243.018	0.09	486036	keystroke	e	n/a
243.168	0.12	486336	keystroke	Key.space	n/a
243.3785	0.135	486757	keystroke	e	n/a
243.5585	0.09	487117	keystroke	n	n/a
243.768	0.15	487536	keystroke	d	n/a
243.933	0.105	487866	keystroke	e	n/a
244.053	0.15	488106	keystroke	d	n/a
244.368	0.15	488736	keystroke	Key.space	n/a
245.418	0.1045	490836	keystroke	f	n/a
245.5975	0.12	491195	keystroke	i	n/a
245.6725	0.12	491345	keystroke	n	n/a
246.0025	0.12	492005	keystroke	e	n/a
246.1985	0.1195	492397	keystroke	Key.space	n/a
246.828	0.0895	493656	keystroke	v	n/a
247.0225	0.15	494045	keystroke	a	n/a
247.1875	0.09	494375	keystroke	r	n/a
247.3375	0.09	494675	keystroke	i	n/a
247.5625	0.1055	495125	keystroke	o	n/a
247.6075	0.1345	495215	keystroke	u	n/a
247.938	0.1195	495876	keystroke	s	n/a
248.1175	0.165	496235	keystroke	Key.enter	n/a
248.2875	10.842	496575	prompt	n/a	cylinder hyundai figured christ\n
249.4375	0.075	498875	keystroke	c	n/a
249.6175	0.09	499235	keystroke	y	n/a
249.978	0.089	499956	keystroke	l	n/a
250.218	0.105	500436	keystroke	i	n/a
250.443	0.12	500886	keystroke	n	n/a
250.638	0.15	501276	keystroke	d	n/a
250.9525	0.15	501905	keystroke	e	n/a
251.0575	0.15	502115	keystroke	r	n/a
251.2975	0.1045	502595	keystroke	Key.space	n/a
251.927	0.045	503854	keystroke	h	n/a
252.152	0.076	504304	keystroke	y	n/a
252.408	0.075	504816	keystroke	u	n/a
252.603	0.1045	505206	keystroke	n	n/a
252.7675	0.15	505535	keystroke	d	n/a
252.9475	0.12	505895	keystroke	a	n/a
253.1725	0.045	506345	keystroke	i	n/a
253.997	0.1055	507994	keystroke	Key.space	n/a
254.552	0.105	509104	keystroke	f	n/a
254.717	0.12	509434	keystroke	i	n/a
254.972	0.075	509944	keystroke	g	n/a
255.123	0.09	510246	keystroke	u	n/a
255.2875	0.18	510575	keystroke	r	n/a
255.4825	0.12	510965	keystroke	e	n/a
256.143	0.1495	512286	keystroke	d	n/a
256.3975	0.12	512795	keystroke	Key.space	n/a
257.8975	0.09	515795	keystroke	c	n/a
258.0475	0.105	516095	keystroke	h	n/a
258.1825	0.1045	516365	keystroke	r	n/a
258.347	0.09	516694	keystroke	i	n/a
258.5575	0.045	517115	keystroke	s	n/a
258.782	0.075	517564	keystroke	t	n/a
259.067	0.06	518134	keystroke	Key.enter	n/a
259.134	10.7945	518268	prompt	n/a	weight uncertainty regulation dinner\n
259.9825	0.105	519965	keystroke	w	n/a
260.0725	0.105	520145	keystroke	e	n/a
260.2225	0.105	520445	keystroke	i	n/a
260.4325	0.075	520865	keystroke	g	n/a
260.5375	0.0745	521075	keystroke	h	n/a
260.642	0.0905	521284	keystroke	t	n/a
260.7475	0.12	521495	keystroke	Key.space	n/a
260.9275	0.12	521855	keystroke	u	n/a
261.0175	0.135	522035	keystroke	n	n/a
261.2275	0.135	522455	keystroke	c	n/a
261.512	0.076	523024	keystroke	e	n/a
261.558	0.105	523116	keystroke	r	n/a
261.7825	0.09	523565	keystroke	t	n/a
262.2175	0.09	524435	keystroke	a	n/a
262.862	0.09	525724	keystroke	i	n/a
262.922	0.165	525844	keystroke	n	n/a
263.132	0.12	526264	keystroke	t	n/a
263.5665	0.121	527133	keystroke	y	n/a
264.092	0.1355	528184	keystroke	Key.space	n/a
264.662	0.1055	529324	keystroke	r	n/a
264.722	0.0895	529444	keystroke	e	n/a
265.0075	0.075	530015	keystroke	g	n/a
265.1425	0.075	530285	keystroke	u	n/a
265.3825	0.12	530765	keystroke	l	n/a
265.5175	0.0895	531035	keystroke	a	n/a
265.727	0.0905	531454	keystroke	t	n/a
265.9075	0.135	531815	keystroke	i	n/a
266.1775	0.09	532355	keystroke	p	n/a
266.777	0.09	533554	keystroke	Key.backspace	n/a
267.167	0.1355	534334	keystroke	o	n/a
267.617	0.105	535234	keystroke	n	n/a
267.9025	0.074	535805	keystroke	Key.space	n/a
268.2475	0.12	536495	keystroke	d	n/a
268.3975	0.075	536795	keystroke	i	n/a
268.592	0.105	537184	keystroke	n	n/a
268.772	0.09	537544	keystroke	n	n/a
269.012	0.075	538024	keystroke	e	n/a
269.057	0.12	538114	keystroke	r	n/a
269.792	0.135	539584	keystroke	Key.enter	n/a
269.9315	12.2515	539863	prompt	n/a	pleasure columbia soon mineral\n
271.052	0.105	542104	keystroke	p	n/a
271.352	0.09	542704	keystroke	l	n/a
271.637	0.1645	543274	keystroke	e	n/a
271.9965	0.136	543993	keystroke	a	n/a
272.1175	0.15	544235	keystroke	s	n/a
272.672	0.09	545344	keystroke	e	n/a
273.3625	0.12	546725	keystroke	Key.backspace	n/a
273.722	0.075	547444	keystroke	u	n/a
274.6825	0.105	549365	keystroke	r	n/a
274.922	0.075	549844	keystroke	e	n/a
275.0565	0.165	550113	keystroke	Key.space	n/a
275.2815	0.12	550563	keystroke	c	n/a
275.4765	0.121	550953	keystroke	o	n/a
275.7325	0.0895	551465	keystroke	u	n/a
276.5415	0.061	553083	keystroke	Key.backspace	n/a
277.187	0.075	554374	keystroke	l	n/a
277.442	0.075	554884	keystroke	u	n/a
277.6665	0.0905	555333	keystroke	m	n/a
277.937	0.06	555874	keystroke	b	n/a
278.102	0.09	556204	keystroke	i	n/a
278.3115	0.09	556623	keystroke	a	n/a
278.5365	0.105	557073	keystroke	Key.space	n/a
279.137	0.075	558274	keystroke	s	n/a
279.287	0.0895	558574	keystroke	o	n/a
279.5115	0.09	559023	keystroke	o	n/a
279.782	0.09	559564	keystroke	n	n/a
280.052	0.045	560104	keystroke	Key.space	n/a
280.3665	0.105	560733	keystroke	m	n/a
280.6065	0.09	561213	keystroke	i	n/a
280.8015	0.09	561603	keystroke	n	n/a
281.0415	0.0895	562083	keystroke	e	n/a
281.1015	0.1195	562203	keystroke	r	n/a
281.357	0.075	562714	keystroke	a	n/a
281.5665	0.12	563133	keystroke	l	n/a
282.0765	0.1045	564153	keystroke	Key.enter	n/a
282.186	13.1965	564372	prompt	n/a	downloading dramatic reputation dirt\n
283.1115	0.1195	566223	keystroke	d	n/a
283.351	0.091	566702	keystroke	o	n/a
283.607	0.1045	567214	keystroke	w	n/a
283.7565	0.09	567513	keystroke	n	n/a
284.0265	0.09	568053	keystroke	l	n/a
284.1765	0.075	568353	keystroke	a	n/a
284.371	0.106	568742	keystroke	o	n/a
285.0765	0.075	570153	keystroke	Key.backspace	n/a
285.2565	0.09	570513	keystroke	Key.backspace	n/a
285.4665	0.1195	570933	keystroke	o	n/a
285.661	0.12	571322	keystroke	a	n/a
285.871	0.121	571742	keystroke	d	n/a
286.066	0.135	572132	keystroke	i	n/a
286.142	0.135	572284	keystroke	n	n/a
286.7115	0.105	573423	keystroke	f	n/a
287.3415	0.105	574683	keystroke	Key.backspace	n/a
287.581	0.105	575162	keystroke	g	n/a
288.106	0.1205	576212	keystroke	Key.space	n/a
288.706	0.045	577412	keystroke	d	n/a
288.916	0.1055	577832	keystroke	r	n/a
289.1265	0.075	578253	keystroke	a	n/a
289.2615	0.135	578523	keystroke	m	n/a
289.4115	0.075	578823	keystroke	a	n/a
289.637	0.0745	579274	keystroke	t	n/a
289.846	0.075	579692	keystroke	i	n/a
290.0715	0.105	580143	keystroke	c	n/a
290.2965	0.09	580593	keystroke	Key.space	n/a
291.076	0.135	582152	keystroke	r	n/a
291.196	0.09	582392	keystroke	e	n/a
291.841	0.12	583682	keystroke	p	n/a
292.156	0.09	584312	keystroke	u	n/a
292.426	0.09	584852	keystroke	t	n/a
292.621	0.1055	585242	keystroke	a	n/a
292.8015	0.12	585603	keystroke	t	n/a
292.9665	0.075	585933	keystroke	i	n/a
293.446	0.1055	586892	keystroke	o	n/a
293.6565	0.105	587313	keystroke	n	n/a
293.8965	0.0895	587793	keystroke	Key.space	n/a
294.392	0.1035	588784	keystroke	d	n/a
294.5715	0.1045	589143	keystroke	i	n/a
294.871	0.15	589742	keystroke	r	n/a
295.036	0.09	590072	keystroke	t	n/a
295.321	0.06	590642	keystroke	Key.enter	n/a
295.386	11.6515	590772	prompt	n/a	assessment november sudan donors\n
296.1465	0.15	592293	keystroke	a	n/a
296.371	0.0895	592742	keystroke	s	n/a
296.5805	0.12	593161	keystroke	s	n/a
296.8215	0.12	593643	keystroke	e	n/a
297.0165	0.075	594033	keystroke	s	n/a
297.211	0.09	594422	keystroke	s	n/a
297.391	0.105	594782	keystroke	m	n/a
297.556	0.12	595112	keystroke	e	n/a
297.736	0.12	595472	keystroke	n	n/a
297.961	0.105	595922	keystroke	t	n/a
298.2005	0.09	596401	keystroke	Key.space	n/a
299.491	0.0895	598982	keystroke	n	n/a
299.806	0.105	599612	keystroke	o	n/a
300.3005	0.09	600601	keystroke	v	n/a
300.5855	0.09	601171	keystroke	e	n/a
300.7665	0.105	601533	keystroke	m	n/a
301.021	0.075	602042	keystroke	b	n/a
301.2455	0.15	602491	keystroke	e	n/a
301.3505	0.1205	602701	keystroke	r	n/a
301.576	0.12	603152	keystroke	Key.space	n/a
301.9205	0.12	603841	keystroke	s	n/a
302.1165	0.075	604233	keystroke	u	n/a
303.4515	0.1195	606903	keystroke	d	n/a
303.691	0.1045	607382	keystroke	a	n/a
303.8555	0.12	607711	keystroke	n	n/a
304.1255	0.105	608251	keystroke	Key.space	n/a
305.476	0.105	610952	keystroke	d	n/a
305.641	0.105	611282	keystroke	o	n/a
305.7905	0.105	611581	keystroke	n	n/a
305.9855	0.105	611971	keystroke	o	n/a
306.1205	0.1045	612241	keystroke	r	n/a
306.5255	0.12	613051	keystroke	s	n/a
306.9155	0.12	613831	keystroke	Key.enter	n/a
307.04	7.602	614080	prompt	n/a	rated through gift arrivals\n
307.8305	0.105	615661	keystroke	r	n/a
308.0405	0.06	616081	keystroke	a	n/a
308.2055	0.121	616411	keystroke	t	n/a
308.3405	0.1195	616681	keystroke	e	n/a
308.596	0.105	617192	keystroke	d	n/a
308.761	0.105	617522	keystroke	Key.space	n/a
308.926	0.105	617852	keystroke	t	n/a
309.046	0.105	618092	keystroke	h	n/a
309.241	0.0745	618482	keystroke	r	n/a
309.3755	0.12	618751	keystroke	o	n/a
310.066	0.089	620132	keystroke	u	n/a
310.291	0.09	620582	keystroke	g	n/a
310.4255	0.09	620851	keystroke	h	n/a
310.6505	0.075	621301	keystroke	Key.space	n/a
310.8305	0.075	621661	keystroke	f	n/a
311.28	0.106	622560	keystroke	Key.backspace	n/a
311.566	0.075	623132	keystroke	g	n/a
311.746	0.075	623492	keystroke	i	n/a
311.9555	0.075	623911	keystroke	f	n/a
312.2255	0.105	624451	keystroke	t	n/a
312.4055	0.105	624811	keystroke	Key.space	n/a
312.6455	0.09	625291	keystroke	a	n/a
312.916	0.059	625832	keystroke	r	n/a
313.11	0.045	626220	keystroke	r	n/a
313.276	0.105	626552	keystroke	i	n/a
313.501	0.105	627002	keystroke	v	n/a
313.7555	0.105	627511	keystroke	a	n/a
313.9205	0.195	627841	keystroke	l	n/a
314.1605	0.09	628321	keystroke	s	n/a
314.58	0.06	629160	keystroke	Key.enter	n/a
314.645	8.727	629290	prompt	n/a	marcus prayer poland belly\n
315.5855	0.075	631171	keystroke	m	n/a
315.751	0.0895	631502	keystroke	a	n/a
315.9455	0.075	631891	keystroke	r	n/a
316.1855	0.1345	632371	keystroke	c	n/a
316.38	0.09	632760	keystroke	u	n/a
316.605	0.076	633210	keystroke	s	n/a
316.725	0.136	633450	keystroke	Key.space	n/a
317.8505	0.09	635701	keystroke	p	n/a
318.0155	0.105	636031	keystroke	r	n/a
318.2405	0.06	636481	keystroke	a	n/a
318.4655	0.0895	636931	keystroke	y	n/a
318.69	0.15	637380	keystroke	e	n/a
318.886	0.105	637772	keystroke	r	n/a
319.306	0.1195	638612	keystroke	Key.space	n/a
319.8605	0.09	639721	keystroke	p	n/a
320.1	0.106	640200	keystroke	o	n/a
320.386	0.12	640772	keystroke	l	n/a
320.5805	0.075	641161	keystroke	a	n/a
320.7605	0.12	641521	keystroke	n	n/a
320.9855	0.135	641971	keystroke	d	n/a
321.2555	0.1205	642511	keystroke	Key.space	n/a
321.9755	0.09	643951	keystroke	b	n/a
322.1555	0.105	644311	keystroke	e	n/a
322.2905	0.1205	644581	keystroke	l	n/a
322.516	0.09	645032	keystroke	l	n/a
322.7855	0.0745	645571	keystroke	y	n/a
323.235	0.136	646470	keystroke	Key.enter	n/a
323.375	14.202	646750	prompt	n/a	guardian performed sherman secrets\n
324.451	0.09	648902	keystroke	g	n/a
324.601	0.0745	649202	keystroke	u	n/a
324.7955	0.12	649591	keystroke	a	n/a
325.0505	0.075	650101	keystroke	r	n/a
325.261	0.089	650522	keystroke	d	n/a
325.8005	0.1195	651601	keystroke	i	n/a
326.055	0.105	652110	keystroke	a	n/a
326.19	0.135	652380	keystroke	n	n/a
326.4755	0.075	652951	keystroke	Key.space	n/a
327.2705	0.12	654541	keystroke	o	n/a
327.4655	0.21	654931	keystroke	e	n/a
327.6455	0.105	655291	keystroke	r	n/a
327.8705	0.135	655741	keystroke	f	n/a
328.0205	0.0895	656041	keystroke	o	n/a
328.2455	0.0895	656491	keystroke	r	n/a
328.725	0.045	657450	keystroke	Key.backspace	n/a
328.86	0.06	657720	keystroke	Key.backspace	n/a
329.101	0.045	658202	keystroke	Key.backspace	n/a
329.2805	0.045	658561	keystroke	Key.backspace	n/a
329.46	0.1055	658920	keystroke	Key.backspace	n/a
329.6705	0.0745	659341	keystroke	Key.backspace	n/a
330.211	0.1045	660422	keystroke	p	n/a
330.4805	0.15	660961	keystroke	e	n/a
330.735	0.075	661470	keystroke	r	n/a
330.945	0.105	661890	keystroke	f	n/a
331.141	0.029	662282	keystroke	o	n/a
331.335	0.1055	662670	keystroke	r	n/a
331.5605	0.135	663121	keystroke	m	n/a
331.7555	0.105	663511	keystroke	e	n/a
332.9555	0.105	665911	keystroke	d	n/a
333.1355	0.0895	666271	keystroke	Key.space	n/a
333.54	0.135	667080	keystroke	s	n/a
333.72	0.105	667440	keystroke	h	n/a
333.9305	0.1645	667861	keystroke	e	n/a
334.11	0.12	668220	keystroke	r	n/a
334.245	0.12	668490	keystroke	m	n/a
334.455	0.075	668910	keystroke	a	n/a
334.606	0.134	669212	keystroke	n	n/a
335.055	0.0905	670110	keystroke	Key.space	n/a
335.2505	0.135	670501	keystroke	s	n/a
335.5205	0.12	671041	keystroke	e	n/a
336.2705	0.0895	672541	keystroke	c	n/a
336.51	0.1205	673020	keystroke	r	n/a
336.6305	0.12	673261	keystroke	e	n/a
336.9005	0.105	673801	keystroke	t	n/a
337.1705	0.1195	674341	keystroke	s	n/a
337.425	0.15	674850	keystroke	Key.enter	n/a
337.58	14.607	675160	prompt	n/a	avoiding experts grade assumptions\n
338.4455	0.075	676891	keystroke	a	n/a
338.7455	0.12	677491	keystroke	v	n/a
338.9405	0.1645	677881	keystroke	o	n/a
339.135	0.105	678270	keystroke	i	n/a
339.36	0.09	678720	keystroke	d	n/a
339.495	0.12	678990	keystroke	u	n/a
339.975	0.0595	679950	keystroke	Key.backspace	n/a
340.2595	0.091	680519	keystroke	i	n/a
340.3355	0.104	680671	keystroke	j	n/a
340.9795	0.06	681959	keystroke	Key.backspace	n/a
341.2495	0.091	682499	keystroke	n	n/a
341.5505	0.09	683101	keystroke	g	n/a
341.8355	0.105	683671	keystroke	Key.space	n/a
342.105	0.09	684210	keystroke	e	n/a
342.435	0.09	684870	keystroke	x	n/a
342.66	0.12	685320	keystroke	p	n/a
342.8845	0.165	685769	keystroke	e	n/a
343.0345	0.12	686069	keystroke	r	n/a
343.3055	0.075	686611	keystroke	t	n/a
343.815	0.1345	687630	keystroke	Key.space	n/a
344.3695	0.091	688739	keystroke	g	n/a
344.5805	0.09	689161	keystroke	r	n/a
344.8055	0.1195	689611	keystroke	a	n/a
344.985	0.18	689970	keystroke	d	n/a
345.255	0.105	690510	keystroke	e	n/a
345.495	0.1355	690990	keystroke	Key.space	n/a
345.735	0.09	691470	keystroke	s	n/a
346.2895	0.09	692579	keystroke	Key.backspace	n/a
346.5605	0.135	693121	keystroke	a	n/a
346.8	0.075	693600	keystroke	s	n/a
346.9945	0.09	693989	keystroke	s	n/a
347.205	0.075	694410	keystroke	u	n/a
347.58	0.165	695160	keystroke	m	n/a
347.895	0.0745	695790	keystroke	p	n/a
348.18	0.075	696360	keystroke	t	n/a
348.315	0.12	696630	keystroke	i	n/a
348.615	0.09	697230	keystroke	o	n/a
348.81	0.105	697620	keystroke	n	n/a
349.05	0.0755	698100	keystroke	s	n/a
349.3205	0.12	698641	keystroke	]	n/a
350.3255	0.12	700651	keystroke	Key.backspace	n/a
350.655	0.135	701310	keystroke	]	n/a
351.3005	0.12	702601	keystroke	Key.backspace	n/a
352.035	0.15	704070	keystroke	Key.enter	n/a
352.19	7.1365	704380	prompt	n/a	snap handmade happy booty\n
353.0395	0.121	706079	keystroke	s	n/a
353.2055	0.075	706411	keystroke	n	n/a
353.4155	0.12	706831	keystroke	a	n/a
353.5655	0.1495	707131	keystroke	p	n/a
353.805	0.15	707610	keystroke	Key.space	n/a
354.1195	0.075	708239	keystroke	h	n/a
354.2405	0.135	708481	keystroke	a	n/a
354.4655	0.09	708931	keystroke	n	n/a
354.5855	0.1345	709171	keystroke	d	n/a
354.765	0.105	709530	keystroke	m	n/a
354.99	0.12	709980	keystroke	a	n/a
355.2	0.1955	710400	keystroke	d	n/a
355.35	0.1205	710700	keystroke	e	n/a
355.8295	0.106	711659	keystroke	Key.space	n/a
356.19	0.09	712380	keystroke	h	n/a
356.385	0.09	712770	keystroke	a	n/a
356.595	0.06	713190	keystroke	p	n/a
356.76	0.105	713520	keystroke	p	n/a
357.2855	0.09	714571	keystroke	y	n/a
357.4805	0.1495	714961	keystroke	Key.space	n/a
357.72	0.075	715440	keystroke	b	n/a
357.93	0.1205	715860	keystroke	o	n/a
358.1405	0.0895	716281	keystroke	o	n/a
358.32	0.105	716640	keystroke	t	n/a
358.56	0.045	717120	keystroke	y	n/a
359.2195	0.105	718439	keystroke	Key.enter	n/a
359.3295	8.397	718659	prompt	n/a	anticipated hart report wolf\n
360.1195	0.075	720239	keystroke	a	n/a
360.3145	0.09	720629	keystroke	n	n/a
360.4945	0.105	720989	keystroke	t	n/a
360.7045	0.09	721409	keystroke	i	n/a
360.9145	0.09	721829	keystroke	c	n/a
361.065	0.09	722130	keystroke	i	n/a
361.365	0.09	722730	keystroke	p	n/a
361.53	0.105	723060	keystroke	a	n/a
361.755	0.105	723510	keystroke	t	n/a
361.89	0.09	723780	keystroke	e	n/a
362.1145	0.135	724229	keystroke	d	n/a
362.3995	0.12	724799	keystroke	Key.space	n/a
362.6695	0.076	725339	keystroke	h	n/a
362.8505	0.1185	725701	keystroke	a	n/a
363.1195	0.195	726239	keystroke	r	n/a
363.3895	0.105	726779	keystroke	t	n/a
363.6	0.135	727200	keystroke	Key.space	n/a
363.84	0.15	727680	keystroke	r	n/a
363.975	0.105	727950	keystroke	e	n/a
364.1695	0.165	728339	keystroke	p	n/a
364.4245	0.12	728849	keystroke	o	n/a
364.7095	0.255	729419	keystroke	r	n/a
364.8745	0.135	729749	keystroke	t	n/a
365.0695	0.136	730139	keystroke	Key.space	n/a
365.385	0.09	730770	keystroke	w	n/a
365.7445	0.105	731489	keystroke	o	n/a
366.1495	0.1355	732299	keystroke	l	n/a
366.345	0.105	732690	keystroke	d	n/a
366.9595	0.105	733919	keystroke	Key.backspace	n/a
367.23	0.0445	734460	keystroke	f	n/a
367.5895	0.135	735179	keystroke	Key.enter	n/a
367.731	15.6105	735462	prompt	n/a	extensive coalition telephony pregnant\n
368.5795	0.06	737159	keystroke	e	n/a
368.9095	0.1055	737819	keystroke	x	n/a
369.1945	0.075	738389	keystroke	t	n/a
369.3445	0.12	738689	keystroke	e	n/a
369.5395	0.12	739079	keystroke	n	n/a
369.81	0.06	739620	keystroke	s	n/a
369.9895	0.075	739979	keystroke	i	n/a
370.2745	0.105	740549	keystroke	v	n/a
370.98	0.075	741960	keystroke	e	n/a
371.31	0.15	742620	keystroke	Key.space	n/a
372.3895	0.045	744779	keystroke	c	n/a
372.629	0.075	745258	keystroke	a	n/a
373.1245	0.135	746249	keystroke	Key.backspace	n/a
373.4095	0.075	746819	keystroke	o	n/a
373.6495	0.075	747299	keystroke	a	n/a
373.8295	0.09	747659	keystroke	l	n/a
374.3095	0.1205	748619	keystroke	o	n/a
374.579	0.061	749158	keystroke	t	n/a
374.924	0.076	749848	keystroke	Key.backspace	n/a
375.09	0.09	750180	keystroke	Key.backspace	n/a
375.33	0.0895	750660	keystroke	i	n/a
375.5695	0.075	751139	keystroke	t	n/a
375.6745	0.09	751349	keystroke	i	n/a
375.9895	0.12	751979	keystroke	o	n/a
376.2445	0.105	752489	keystroke	n	n/a
376.5295	0.09	753059	keystroke	Key.space	n/a
377.099	0.0905	754198	keystroke	t	n/a
377.3395	0.105	754679	keystroke	e	n/a
377.5795	0.1195	755159	keystroke	l	n/a
377.759	0.135	755518	keystroke	e	n/a
378.059	0.09	756118	keystroke	p	n/a
378.39	0.06	756780	keystroke	h	n/a
378.614	0.09	757228	keystroke	o	n/a
378.779	0.105	757558	keystroke	n	n/a
379.2	0.1195	758400	keystroke	y	n/a
379.5895	0.1495	759179	keystroke	Key.space	n/a
380.2045	0.105	760409	keystroke	p	n/a
380.3695	0.195	760739	keystroke	r	n/a
380.565	0.119	761130	keystroke	e	n/a
380.879	0.09	761758	keystroke	g	n/a
381.57	0.105	763140	keystroke	n	n/a
381.7795	0.09	763559	keystroke	a	n/a
381.899	0.105	763798	keystroke	n	n/a
382.155	0.089	764310	keystroke	y	n/a
382.7245	0.105	765449	keystroke	Key.backspace	n/a
383.009	0.09	766018	keystroke	t	n/a
383.219	0.12	766438	keystroke	Key.enter	n/a
383.344	15.7615	766688	prompt	n/a	separated presented employers commands\n
384.39	0.09	768780	keystroke	s	n/a
384.6	0.1645	769200	keystroke	e	n/a
384.8995	0.15	769799	keystroke	o	n/a
385.1995	0.165	770399	keystroke	e	n/a
385.74	0.1195	771480	keystroke	Key.backspace	n/a
386.1895	0.09	772379	keystroke	Key.backspace	n/a
386.7145	0.09	773429	keystroke	p	n/a
386.9995	0.09	773999	keystroke	a	n/a
387.2845	0.075	774569	keystroke	r	n/a
387.494	0.121	774988	keystroke	a	n/a
387.765	0.09	775530	keystroke	r	n/a
388.2595	0.135	776519	keystroke	Key.backspace	n/a
388.5895	0.1045	777179	keystroke	t	n/a
388.799	0.105	777598	keystroke	e	n/a
389.039	0.09	778078	keystroke	d	n/a
389.204	0.135	778408	keystroke	Key.space	n/a
390.375	0.0745	780750	keystroke	p	n/a
390.5545	0.12	781109	keystroke	r	n/a
390.6295	0.105	781259	keystroke	e	n/a
390.8695	0.09	781739	keystroke	s	n/a
391.0945	0.075	782189	keystroke	e	n/a
391.3195	0.075	782639	keystroke	n	n/a
391.4395	0.1195	782879	keystroke	t	n/a
391.5445	0.0895	783089	keystroke	e	n/a
391.754	0.12	783508	keystroke	d	n/a
391.934	0.165	783868	keystroke	Key.space	n/a
392.5795	0.075	785159	keystroke	e	n/a
393.689	0.09	787378	keystroke	m	n/a
394.3945	0.015	788789	keystroke	p	n/a
394.4395	0.06	788879	keystroke	l	n/a
394.6345	0.075	789269	keystroke	o	n/a
394.964	0.06	789928	keystroke	y	n/a
395.8345	0.135	791669	keystroke	e	n/a
396.059	0.075	792118	keystroke	r	n/a
396.269	0.135	792538	keystroke	s	n/a
396.479	0.1505	792958	keystroke	Key.space	n/a
397.334	0.105	794668	keystroke	c	n/a
397.484	0.105	794968	keystroke	o	n/a
397.6945	0.06	795389	keystroke	m	n/a
397.8445	0.06	795689	keystroke	m	n/a
398.024	0.105	796048	keystroke	a	n/a
398.0545	0.1645	796109	keystroke	n	n/a
398.534	0.1205	797068	keystroke	d	n/a
398.759	0.09	797518	keystroke	s	n/a
398.969	0.135	797938	keystroke	Key.enter	n/a
399.1085	12.957	798217	prompt	n/a	lifetime interventions examine barbie\n
400.0045	0.105	800009	keystroke	l	n/a
400.4395	0.0745	800879	keystroke	i	n/a
400.649	0.135	801298	keystroke	f	n/a
400.799	0.045	801598	keystroke	e	n/a
400.9195	0.105	801839	keystroke	t	n/a
401.2195	0.135	802439	keystroke	m	n/a
401.8195	0.09	803639	keystroke	Key.backspace	n/a
402.1045	0.15	804209	keystroke	i	n/a
402.2845	0.0895	804569	keystroke	m	n/a
402.479	0.105	804958	keystroke	e	n/a
402.629	0.135	805258	keystroke	Key.space	n/a
402.959	0.075	805918	keystroke	i	n/a
403.199	0.105	806398	keystroke	n	n/a
403.394	0.1055	806788	keystroke	t	n/a
403.6345	0.0895	807269	keystroke	e	n/a
403.709	0.105	807418	keystroke	r	n/a
404.024	0.105	808048	keystroke	v	n/a
404.294	0.06	808588	keystroke	e	n/a
404.429	0.0905	808858	keystroke	n	n/a
404.6835	0.061	809367	keystroke	i	n/a
405.0895	0.0745	810179	keystroke	Key.backspace	n/a
405.254	0.105	810508	keystroke	r	n/a
405.9735	0.075	811947	keystroke	Key.backspace	n/a
406.1695	0.09	812339	keystroke	t	n/a
406.3345	0.105	812669	keystroke	i	n/a
406.649	0.1645	813298	keystroke	o	n/a
407.0845	0.135	814169	keystroke	n	n/a
407.2945	0.135	814589	keystroke	s	n/a
407.639	0.135	815278	keystroke	Key.space	n/a
408.479	0.1055	816958	keystroke	e	n/a
408.8995	0.0445	817799	keystroke	x	n/a
409.3195	0.0745	818639	keystroke	a	n/a
409.439	0.105	818878	keystroke	m	n/a
409.679	0.12	819358	keystroke	i	n/a
409.769	0.12	819538	keystroke	n	n/a
410.009	0.09	820018	keystroke	e	n/a
410.144	0.135	820288	keystroke	Key.space	n/a
410.864	0.075	821728	keystroke	b	n/a
410.969	0.09	821938	keystroke	a	n/a
411.134	0.09	822268	keystroke	r	n/a
411.2385	0.09	822477	keystroke	b	n/a
411.4795	0.0595	822959	keystroke	i	n/a
411.749	0.105	823498	keystroke	e	n/a
411.959	0.1045	823918	keystroke	Key.enter	n/a
412.069	7.9015	824138	prompt	n/a	magnificent lovers billy is\n
413.0695	0.074	826139	keystroke	m	n/a
413.2035	0.075	826407	keystroke	a	n/a
413.6385	0.091	827277	keystroke	g	n/a
413.8195	0.09	827639	keystroke	n	n/a
413.9995	0.09	827999	keystroke	i	n/a
414.299	0.09	828598	keystroke	f	n/a
414.524	0.06	829048	keystroke	i	n/a
415.094	0.12	830188	keystroke	c	n/a
415.2735	0.1055	830547	keystroke	e	n/a
415.484	0.09	830968	keystroke	n	n/a
415.619	0.1205	831238	keystroke	t	n/a
415.8135	0.121	831627	keystroke	Key.space	n/a
416.1295	0.1045	832259	keystroke	l	n/a
416.384	0.105	832768	keystroke	o	n/a
416.5795	0.105	833159	keystroke	v	n/a
416.834	0.105	833668	keystroke	e	n/a
416.894	0.1195	833788	keystroke	r	n/a
417.1485	0.105	834297	keystroke	s	n/a
417.2985	0.105	834597	keystroke	Key.space	n/a
417.7345	0.06	835469	keystroke	b	n/a
417.974	0.045	835948	keystroke	i	n/a
418.304	0.105	836608	keystroke	l	n/a
418.514	0.06	837028	keystroke	l	n/a
418.769	0.075	837538	keystroke	y	n/a
418.9935	0.09	837987	keystroke	Key.space	n/a
419.1585	0.105	838317	keystroke	i	n/a
419.4285	0.015	838857	keystroke	s	n/a
419.8485	0.12	839697	keystroke	Key.enter	n/a
419.9735	9.837	839947	prompt	n/a	tank wallet loads frequencies\n
420.9735	0.09	841947	keystroke	t	n/a
421.214	0.09	842428	keystroke	a	n/a
421.379	0.105	842758	keystroke	n	n/a
421.5585	0.09	843117	keystroke	k	n/a
421.754	0.15	843508	keystroke	Key.space	n/a
421.949	0.195	843898	keystroke	w	n/a
422.099	0.105	844198	keystroke	a	n/a
422.294	0.0745	844588	keystroke	l	n/a
422.4435	0.09	844887	keystroke	l	n/a
422.6685	0.105	845337	keystroke	e	n/a
423.0585	0.121	846117	keystroke	t	n/a
423.284	0.135	846568	keystroke	Key.space	n/a
423.6135	0.09	847227	keystroke	l	n/a
423.9585	0.09	847917	keystroke	o	n/a
424.183	0.091	848366	keystroke	a	n/a
424.379	0.195	848758	keystroke	d	n/a
424.544	0.105	849088	keystroke	s	n/a
424.709	0.075	849418	keystroke	Key.space	n/a
425.294	0.09	850588	keystroke	f	n/a
425.519	0.135	851038	keystroke	r	n/a
425.564	0.135	851128	keystroke	e	n/a
426.059	0.0745	852118	keystroke	q	n/a
426.329	0.09	852658	keystroke	u	n/a
426.509	0.1345	853018	keystroke	e	n/a
426.6585	0.121	853317	keystroke	n	n/a
426.944	0.1945	853888	keystroke	c	n/a
427.0785	0.105	854157	keystroke	e	n/a
427.7235	0.06	855447	keystroke	Key.backspace	n/a
427.994	0.105	855988	keystroke	u	n/a
428.204	0.12	856408	keystroke	e	n/a
428.549	0.045	857098	keystroke	Key.backspace	n/a
428.699	0.075	857398	keystroke	Key.backspace	n/a
428.9235	0.09	857847	keystroke	i	n/a
429.1635	0.15	858327	keystroke	e	n/a
429.3285	0.15	858657	keystroke	s	n/a
429.659	0.15	859318	keystroke	Key.enter	n/a
429.813	17.2025	859626	prompt	n/a	reflection downloaded change comparable\n
430.8735	0.075	861747	keystroke	f	n/a
431.369	0.105	862738	keystroke	Key.backspace	n/a
431.6235	0.12	863247	keystroke	r	n/a
431.7585	0.105	863517	keystroke	e	n/a
432.104	0.105	864208	keystroke	f	n/a
432.509	0.12	865018	keystroke	l	n/a
432.674	0.15	865348	keystroke	e	n/a
432.869	0.105	865738	keystroke	c	n/a
433.1535	0.0905	866307	keystroke	t	n/a
433.274	0.075	866548	keystroke	i	n/a
433.724	0.12	867448	keystroke	o	n/a
433.904	0.105	867808	keystroke	n	n/a
434.1735	0.12	868347	keystroke	s	n/a
434.4285	0.0905	868857	keystroke	Key.space	n/a
435.1485	0.12	870297	keystroke	d	n/a
435.2835	0.105	870567	keystroke	o	n/a
435.4635	0.09	870927	keystroke	w	n/a
435.6135	0.09	871227	keystroke	n	n/a
435.8385	0.09	871677	keystroke	l	n/a
435.9435	0.1195	871887	keystroke	a	n/a
436.168	0.061	872336	keystroke	o	n/a
436.319	0.135	872638	keystroke	d	n/a
436.499	0.15	872998	keystroke	e	n/a
436.694	0.105	873388	keystroke	d	n/a
437.4735	0.075	874947	keystroke	Key.backspace	n/a
437.6685	0.045	875337	keystroke	Key.backspace	n/a
437.849	0.045	875698	keystroke	Key.backspace	n/a
438.014	0.06	876028	keystroke	Key.backspace	n/a
438.1935	0.045	876387	keystroke	Key.backspace	n/a
438.5235	0.105	877047	keystroke	o	n/a
439.184	0.12	878368	keystroke	a	n/a
439.439	0.105	878878	keystroke	d	n/a
439.679	0.15	879358	keystroke	e	n/a
439.8435	0.135	879687	keystroke	d	n/a
440.0835	0.105	880167	keystroke	Key.space	n/a
441.014	0.105	882028	keystroke	c	n/a
441.2235	0.045	882447	keystroke	h	n/a
441.3885	0.105	882777	keystroke	a	n/a
441.5235	0.09	883047	keystroke	n	n/a
441.734	0.09	883468	keystroke	g	n/a
441.959	0.1045	883918	keystroke	e	n/a
442.2135	0.18	884427	keystroke	Key.space	n/a
442.8285	0.12	885657	keystroke	c	n/a
443.083	0.166	886166	keystroke	o	n/a
443.263	0.106	886526	keystroke	m	n/a
443.804	0.0895	887608	keystroke	[	n/a
444.434	0.135	888868	keystroke	Key.backspace	n/a
445.1085	0.105	890217	keystroke	p	n/a
445.3485	0.09	890697	keystroke	a	n/a
445.5585	0.09	891117	keystroke	r	n/a
445.7535	0.06	891507	keystroke	a	n/a
445.9335	0.1195	891867	keystroke	b	n/a
446.174	0.15	892348	keystroke	l	n/a
446.384	0.09	892768	keystroke	e	n/a
446.8785	0.135	893757	keystroke	Key.enter	n/a
447.0185	9.6565	894037	prompt	n/a	divine garcia configure christine\n
447.914	0.09	895828	keystroke	d	n/a
448.109	0.045	896218	keystroke	i	n/a
448.364	0.09	896728	keystroke	v	n/a
448.559	0.1045	897118	keystroke	i	n/a
448.7535	0.12	897507	keystroke	n	n/a
448.9785	0.105	897957	keystroke	e	n/a
449.1435	0.12	898287	keystroke	Key.space	n/a
449.624	0.09	899248	keystroke	g	n/a
449.8485	0.135	899697	keystroke	a	n/a
450.1185	0.105	900237	keystroke	r	n/a
450.5685	0.1345	901137	keystroke	c	n/a
450.764	0.12	901528	keystroke	i	n/a
451.019	0.075	902038	keystroke	a	n/a
451.199	0.135	902398	keystroke	Key.space	n/a
451.6335	0.105	903267	keystroke	c	n/a
451.8135	0.105	903627	keystroke	o	n/a
451.994	0.1195	903988	keystroke	n	n/a
452.818	0.075	905636	keystroke	f	n/a
452.953	0.121	905906	keystroke	i	n/a
453.179	0.075	906358	keystroke	g	n/a
453.344	0.075	906688	keystroke	u	n/a
453.5535	0.165	907107	keystroke	r	n/a
453.808	0.151	907616	keystroke	e	n/a
454.093	0.106	908186	keystroke	Key.space	n/a
454.559	0.1045	909118	keystroke	c	n/a
454.7385	0.09	909477	keystroke	h	n/a
454.8885	0.1345	909777	keystroke	r	n/a
455.083	0.076	910166	keystroke	i	n/a
455.264	0.105	910528	keystroke	s	n/a
455.489	0.09	910978	keystroke	t	n/a
455.6685	0.135	911337	keystroke	i	n/a
456.028	0.105	912056	keystroke	n	n/a
456.2685	0.075	912537	keystroke	e	n/a
456.5235	0.1505	913047	keystroke	Key.enter	n/a
456.678	10.8575	913356	prompt	n/a	officer packages funded welding\n
457.499	0.15	914998	keystroke	o	n/a
457.9635	0.06	915927	keystroke	f	n/a
458.1135	0.0745	916227	keystroke	f	n/a
458.248	0.09	916496	keystroke	i	n/a
458.383	0.105	916766	keystroke	c	n/a
458.593	0.121	917186	keystroke	e	n/a
458.729	0.075	917458	keystroke	r	n/a
458.819	0.18	917638	keystroke	Key.space	n/a
459.2685	0.105	918537	keystroke	a	n/a
459.778	0.121	919556	keystroke	Key.backspace	n/a
460.1385	0.09	920277	keystroke	o	n/a
460.6485	0.12	921297	keystroke	Key.backspace	n/a
460.9485	0.1045	921897	keystroke	p	n/a
461.1735	0.105	922347	keystroke	a	n/a
461.398	0.165	922796	keystroke	c	n/a
461.623	0.1055	923246	keystroke	k	n/a
461.9235	0.09	923847	keystroke	a	n/a
462.223	0.045	924446	keystroke	g	n/a
462.524	0.0595	925048	keystroke	e	n/a
462.9285	0.1355	925857	keystroke	s	n/a
463.094	0.165	926188	keystroke	Key.space	n/a
464.3985	0.075	928797	keystroke	f	n/a
464.5935	0.12	929187	keystroke	u	n/a
464.6985	0.1495	929397	keystroke	n	n/a
464.983	0.15	929966	keystroke	d	n/a
465.163	0.136	930326	keystroke	e	n/a
465.299	0.135	930598	keystroke	d	n/a
465.509	0.1345	931018	keystroke	Key.space	n/a
465.778	0.09	931556	keystroke	w	n/a
465.838	0.105	931676	keystroke	e	n/a
466.123	0.15	932246	keystroke	l	n/a
466.319	0.135	932638	keystroke	d	n/a
466.589	0.03	933178	keystroke	i	n/a
466.933	0.105	933866	keystroke	n	n/a
467.098	0.075	934196	keystroke	g	n/a
467.398	0.136	934796	keystroke	Key.enter	n/a
467.538	8.9675	935076	prompt	n/a	glossary an why're distance\n
468.703	0.075	937406	keystroke	g	n/a
468.838	0.105	937676	keystroke	l	n/a
469.049	0.074	938098	keystroke	o	n/a
469.439	0.015	938878	keystroke	s	n/a
469.574	0.0895	939148	keystroke	s	n/a
469.6485	0.105	939297	keystroke	a	n/a
469.918	0.105	939836	keystroke	r	n/a
470.053	0.105	940106	keystroke	y	n/a
470.369	0.12	940738	keystroke	Key.space	n/a
470.8185	0.09	941637	keystroke	a	n/a
470.9385	0.12	941877	keystroke	n	n/a
471.178	0.0605	942356	keystroke	Key.space	n/a
471.3285	0.09	942657	keystroke	w	n/a
471.463	0.075	942926	keystroke	h	n/a
471.628	0.105	943256	keystroke	y	n/a
472.1985	0.075	944397	keystroke	'	n/a
472.7235	0.1795	945447	keystroke	r	n/a
473.143	0.06	946286	keystroke	e	n/a
473.534	0.0895	947068	keystroke	Key.space	n/a
473.968	0.106	947936	keystroke	d	n/a
474.119	0.105	948238	keystroke	i	n/a
474.209	0.06	948418	keystroke	s	n/a
474.404	0.075	948808	keystroke	t	n/a
474.6285	0.12	949257	keystroke	n	n/a
474.6435	0.045	949287	keystroke	a	n/a
475.2735	0.09	950547	keystroke	Key.backspace	n/a
475.423	0.075	950846	keystroke	Key.backspace	n/a
475.589	0.1045	951178	keystroke	a	n/a
475.7385	0.1345	951477	keystroke	n	n/a
475.888	0.166	951776	keystroke	c	n/a
476.069	0.06	952138	keystroke	e	n/a
476.309	0.195	952618	keystroke	Key.enter	n/a
476.5085	13.1515	953017	prompt	n/a	feed expanding indigenous induced\n
477.3585	0.09	954717	keystroke	f	n/a
477.5235	0.076	955047	keystroke	e	n/a
477.718	0.075	955436	keystroke	e	n/a
477.898	0.1055	955796	keystroke	d	n/a
478.0485	0.15	956097	keystroke	Key.space	n/a
478.1835	0.09	956367	keystroke	e	n/a
478.6035	0.075	957207	keystroke	x	n/a
478.8435	0.105	957687	keystroke	p	n/a
479.0085	0.075	958017	keystroke	a	n/a
479.1735	0.0605	958347	keystroke	n	n/a
479.2635	0.09	958527	keystroke	d	n/a
479.4435	0.1195	958887	keystroke	i	n/a
479.6685	0.09	959337	keystroke	n	n/a
479.8935	0.075	959787	keystroke	g	n/a
480.0585	0.15	960117	keystroke	Key.space	n/a
480.658	0.0905	961316	keystroke	i	n/a
480.8835	0.075	961767	keystroke	n	n/a
481.1385	0.075	962277	keystroke	d	n/a
483.496	0.043	966992	keystroke	i	n/a
484.228	0.105	968456	keystroke	g	n/a
484.439	0.105	968878	keystroke	e	n/a
484.574	0.0895	969148	keystroke	n	n/a
484.7985	0.1045	969597	keystroke	o	n/a
484.9785	0.105	969957	keystroke	u	n/a
485.3985	0.06	970797	keystroke	s	n/a
485.5785	0.12	971157	keystroke	Key.space	n/a
485.9085	0.1195	971817	keystroke	i	n/a
486.088	0.1355	972176	keystroke	n	n/a
486.3885	0.135	972777	keystroke	d	n/a
486.5985	0.0895	973197	keystroke	u	n/a
486.823	0.075	973646	keystroke	v	n/a
487.018	0.09	974036	keystroke	e	n/a
487.3335	0.09	974667	keystroke	d	n/a
487.963	0.06	975926	keystroke	Key.backspace	n/a
488.128	0.03	976256	keystroke	Key.backspace	n/a
488.278	0.06	976556	keystroke	Key.backspace	n/a
488.5335	0.105	977067	keystroke	c	n/a
488.7735	0.06	977547	keystroke	e	n/a
488.9835	0.135	977967	keystroke	d	n/a
489.5085	0.1495	979017	keystroke	Key.enter	n/a
489.665	8.695	979330	prompt	n/a	sorts shirt halloween hybrid\n
490.648	0.105	981296	keystroke	s	n/a
490.843	0.09	981686	keystroke	o	n/a
491.143	0.21	982286	keystroke	r	n/a
491.323	0.106	982646	keystroke	t	n/a
491.4885	0.12	982977	keystroke	Key.space	n/a
491.683	0.12	983366	keystroke	s	n/a
491.848	0.15	983696	keystroke	h	n/a
492.103	0.09	984206	keystroke	i	n/a
492.268	0.121	984536	keystroke	r	n/a
492.358	0.105	984716	keystroke	t	n/a
493.453	0.12	986906	keystroke	Key.space	n/a
493.738	0.06	987476	keystroke	h	n/a
493.948	0.12	987896	keystroke	a	n/a
494.143	0.0905	988286	keystroke	l	n/a
494.2935	0.09	988587	keystroke	l	n/a
494.938	0.06	989876	keystroke	o	n/a
495.103	0.135	990206	keystroke	w	n/a
495.253	0.0755	990506	keystroke	e	n/a
495.4485	0.075	990897	keystroke	e	n/a
496.198	0.1205	992396	keystroke	n	n/a
496.5285	0.105	993057	keystroke	Key.space	n/a
496.8435	0.105	993687	keystroke	h	n/a
497.083	0.075	994166	keystroke	y	n/a
497.293	0.075	994586	keystroke	b	n/a
497.458	0.09	994916	keystroke	r	n/a
497.593	0.09	995186	keystroke	i	n/a
497.788	0.09	995576	keystroke	d	n/a
498.253	0.105	996506	keystroke	Key.enter	n/a
498.363	17.1565	996726	prompt	n/a	liability football signal link\n
499.3185	0.105	998637	keystroke	l	n/a
499.8575	0.075	999715	keystroke	i	n/a
500.0835	0.06	1000167	keystroke	a	n/a
500.2785	0.075	1000557	keystroke	b	n/a
500.4735	0.0895	1000947	keystroke	i	n/a
501.2535	0.09	1002507	keystroke	i	n/a
501.4485	0.0745	1002897	keystroke	t	n/a
501.613	0.0895	1003226	keystroke	y	n/a
501.8675	0.12	1003735	keystroke	Key.space	n/a
503.533	0.1505	1007066	keystroke	Key.backspace	n/a
503.6985	0.045	1007397	keystroke	Key.backspace	n/a
503.7735	0.075	1007547	keystroke	Key.backspace	n/a
503.9535	0.045	1007907	keystroke	Key.backspace	n/a
504.538	0.09	1009076	keystroke	l	n/a
504.838	0.12	1009676	keystroke	o	n/a
505.1675	0.061	1010335	keystroke	t	n/a
505.4675	0.075	1010935	keystroke	Key.backspace	n/a
505.6335	0.075	1011267	keystroke	Key.backspace	n/a
505.8585	0.075	1011717	keystroke	i	n/a
505.9935	0.105	1011987	keystroke	t	n/a
506.293	0.045	1012586	keystroke	y	n/a
506.6985	0.105	1013397	keystroke	Key.space	n/a
508.198	0.105	1016396	keystroke	f	n/a
508.363	0.075	1016726	keystroke	o	n/a
508.528	0.06	1017056	keystroke	o	n/a
508.693	0.0745	1017386	keystroke	t	n/a
508.7685	0.074	1017537	keystroke	b	n/a
509.2185	0.075	1018437	keystroke	a	n/a
509.3385	0.075	1018677	keystroke	l	n/a
509.5035	0.075	1019007	keystroke	l	n/a
509.758	0.06	1019516	keystroke	Key.space	n/a
509.998	0.1195	1019996	keystroke	s	n/a
510.5835	0.105	1021167	keystroke	i	n/a
510.7935	0.09	1021587	keystroke	g	n/a
510.8985	0.1045	1021797	keystroke	n	n/a
511.243	0.075	1022486	keystroke	a	n/a
511.393	0.12	1022786	keystroke	;	n/a
511.6185	0.135	1023237	keystroke	Key.space	n/a
512.053	0.09	1024106	keystroke	Key.backspace	n/a
512.6085	0.075	1025217	keystroke	Key.backspace	n/a
513.148	0.09	1026296	keystroke	l	n/a
513.373	0.1345	1026746	keystroke	Key.space	n/a
514.2575	0.09	1028515	keystroke	l	n/a
514.3625	0.06	1028725	keystroke	i	n/a
514.5425	0.226	1029085	keystroke	n	n/a
514.9185	0.1045	1029837	keystroke	k	n/a
515.458	0.06	1030916	keystroke	Key.enter	n/a
515.5225	11.217	1031045	prompt	n/a	hottest transition dividend chamber\n
516.4475	0.091	1032895	keystroke	h	n/a
516.7485	0.105	1033497	keystroke	o	n/a
517.003	0.06	1034006	keystroke	t	n/a
517.213	0.075	1034426	keystroke	t	n/a
517.3925	0.09	1034785	keystroke	e	n/a
517.6335	0.09	1035267	keystroke	s	n/a
517.843	0.105	1035686	keystroke	t	n/a
518.4435	0.09	1036887	keystroke	Key.space	n/a
518.698	0.09	1037396	keystroke	t	n/a
518.743	0.135	1037486	keystroke	r	n/a
519.043	0.12	1038086	keystroke	a	n/a
519.268	0.105	1038536	keystroke	n	n/a
519.493	0.0755	1038986	keystroke	s	n/a
519.763	0.015	1039526	keystroke	i	n/a
519.9275	0.06	1039855	keystroke	t	n/a
520.483	0.09	1040966	keystroke	i	n/a
520.9775	0.105	1041955	keystroke	o	n/a
521.3225	0.121	1042645	keystroke	n	n/a
521.5485	0.1045	1043097	keystroke	Key.space	n/a
522.7035	0.0895	1045407	keystroke	d	n/a
522.943	0.0895	1045886	keystroke	i	n/a
523.1375	0.105	1046275	keystroke	v	n/a
523.2585	0.12	1046517	keystroke	i	n/a
523.5585	0.0745	1047117	keystroke	d	n/a
523.7525	0.105	1047505	keystroke	e	n/a
523.9175	0.075	1047835	keystroke	n	n/a
524.1885	0.105	1048377	keystroke	d	n/a
524.398	0.12	1048796	keystroke	Key.space	n/a
524.8925	0.105	1049785	keystroke	c	n/a
525.0725	0.06	1050145	keystroke	h	n/a
525.2525	0.061	1050505	keystroke	a	n/a
525.3725	0.075	1050745	keystroke	m	n/a
525.703	0.075	1051406	keystroke	b	n/a
525.9275	0.105	1051855	keystroke	e	n/a
525.9725	0.135	1051945	keystroke	r	n/a
526.618	0.12	1053236	keystroke	Key.enter	n/a
526.7425	10.632	1053485	prompt	n/a	appendix hiking tractor amount\n
527.443	0.09	1054886	keystroke	a	n/a
527.983	0.09	1055966	keystroke	p	n/a
528.178	0.045	1056356	keystroke	p	n/a
528.5375	0.105	1057075	keystroke	e	n/a
528.7625	0.075	1057525	keystroke	n	n/a
529.348	0.06	1058696	keystroke	x	n/a
529.768	0.06	1059536	keystroke	Key.backspace	n/a
529.963	0.12	1059926	keystroke	d	n/a
530.084	0.089	1060168	keystroke	i	n/a
530.9835	0.075	1061967	keystroke	x	n/a
531.448	0.15	1062896	keystroke	Key.space	n/a
532.2875	0.075	1064575	keystroke	h	n/a
532.6335	0.09	1065267	keystroke	i	n/a
532.873	0.075	1065746	keystroke	k	n/a
533.143	0.12	1066286	keystroke	i	n/a
533.368	0.105	1066736	keystroke	n	n/a
533.578	0.0605	1067156	keystroke	g	n/a
533.6685	0.1195	1067337	keystroke	Key.space	n/a
533.848	0.165	1067696	keystroke	t	n/a
534.058	0.105	1068116	keystroke	r	n/a
534.3125	0.105	1068625	keystroke	a	n/a
534.5225	0.075	1069045	keystroke	c	n/a
534.7635	0.074	1069527	keystroke	t	n/a
534.9875	0.105	1069975	keystroke	o	n/a
535.2435	0.105	1070487	keystroke	r	n/a
535.453	0.075	1070906	keystroke	Key.space	n/a
535.693	0.09	1071386	keystroke	a	n/a
535.903	0.12	1071806	keystroke	m	n/a
536.143	0.12	1072286	keystroke	o	n/a
536.338	0.09	1072676	keystroke	u	n/a
536.563	0.09	1073126	keystroke	n	n/a
536.773	0.09	1073546	keystroke	t	n/a
537.2525	0.12	1074505	keystroke	Key.enter	n/a
537.377	11.2325	1074754	prompt	n/a	autos sword resource propose\n
538.1535	0.1345	1076307	keystroke	a	n/a
538.648	0.09	1077296	keystroke	u	n/a
538.828	0.105	1077656	keystroke	t	n/a
539.008	0.1495	1078016	keystroke	o	n/a
539.2175	0.106	1078435	keystroke	s	n/a
539.458	0.12	1078916	keystroke	Key.space	n/a
539.9085	0.09	1079817	keystroke	s	n/a
540.703	0.12	1081406	keystroke	w	n/a
540.913	0.15	1081826	keystroke	o	n/a
541.108	0.0895	1082216	keystroke	r	n/a
541.3625	0.075	1082725	keystroke	d	n/a
541.4975	0.12	1082995	keystroke	Key.space	n/a
541.8135	0.18	1083627	keystroke	r	n/a
542.0225	0.1055	1084045	keystroke	e	n/a
542.308	0.105	1084616	keystroke	s	n/a
542.8625	0.15	1085725	keystroke	o	n/a
543.0425	0.075	1086085	keystroke	u	n/a
543.3125	0.1055	1086625	keystroke	r	n/a
543.6885	0.105	1087377	keystroke	c	n/a
544.108	0.045	1088216	keystroke	e	n/a
544.333	0.15	1088666	keystroke	Key.space	n/a
544.708	0.06	1089416	keystroke	p	n/a
545.308	0.075	1090616	keystroke	r	n/a
545.4875	0.105	1090975	keystroke	o	n/a
545.7425	0.091	1091485	keystroke	p	n/a
546.0585	0.134	1092117	keystroke	o	n/a
546.3425	0.135	1092685	keystroke	s	n/a
546.4625	0.12	1092925	keystroke	e	n/a
548.458	0.15	1096916	keystroke	Key.enter	n/a
548.6125	10.797	1097225	prompt	n/a	buffer accuracy halifax math\n
549.643	0.075	1099286	keystroke	b	n/a
549.823	0.09	1099646	keystroke	u	n/a
550.243	0.075	1100486	keystroke	f	n/a
550.438	0.105	1100876	keystroke	f	n/a
550.648	0.195	1101296	keystroke	e	n/a
550.828	0.09	1101656	keystroke	r	n/a
550.993	0.1495	1101986	keystroke	Key.space	n/a
551.2175	0.135	1102435	keystroke	a	n/a
551.4275	0.09	1102855	keystroke	c	n/a
551.6225	0.12	1103245	keystroke	c	n/a
551.7875	0.12	1103575	keystroke	u	n/a
551.9825	0.091	1103965	keystroke	r	n/a
552.1475	0.135	1104295	keystroke	a	n/a
552.658	0.105	1105316	keystroke	c	n/a
553.288	0.075	1106576	keystroke	y	n/a
553.753	0.12	1107506	keystroke	Key.space	n/a
554.353	0.045	1108706	keystroke	h	n/a
554.548	0.06	1109096	keystroke	a	n/a
554.728	0.1345	1109456	keystroke	l	n/a
555.2675	0.075	1110535	keystroke	o	n/a
555.973	0.105	1111946	keystroke	Key.backspace	n/a
556.348	0.0445	1112696	keystroke	i	n/a
556.9025	0.0905	1113805	keystroke	f	n/a
557.143	0.075	1114286	keystroke	a	n/a
557.5925	0.1505	1115185	keystroke	x	n/a
557.848	0.12	1115696	keystroke	Key.space	n/a
558.493	0.12	1116986	keystroke	m	n/a
558.628	0.075	1117256	keystroke	a	n/a
558.823	0.09	1117646	keystroke	t	n/a
558.943	0.105	1117886	keystroke	h	n/a
559.273	0.135	1118546	keystroke	Key.enter	n/a
559.4125	8.997	1118825	prompt	n/a	revealed comic adults establishment\n
560.2625	0.135	1120525	keystroke	r	n/a
560.3685	0.09	1120737	keystroke	e	n/a
560.5935	0.1045	1121187	keystroke	v	n/a
560.758	0.12	1121516	keystroke	e	n/a
560.938	0.135	1121876	keystroke	a	n/a
561.103	0.165	1122206	keystroke	l	n/a
561.283	0.06	1122566	keystroke	e	n/a
561.478	0.09	1122956	keystroke	d	n/a
561.6725	0.09	1123345	keystroke	Key.space	n/a
561.8075	0.12	1123615	keystroke	c	n/a
561.9435	0.149	1123887	keystroke	o	n/a
562.1525	0.091	1124305	keystroke	m	n/a
562.558	0.1045	1125116	keystroke	i	n/a
563.2185	0.09	1126437	keystroke	c	n/a
563.3985	0.1195	1126797	keystroke	Key.space	n/a
563.668	0.09	1127336	keystroke	a	n/a
563.8335	0.105	1127667	keystroke	d	n/a
563.9685	0.105	1127937	keystroke	u	n/a
564.313	0.075	1128626	keystroke	l	n/a
564.418	0.105	1128836	keystroke	t	n/a
564.673	0.12	1129346	keystroke	s	n/a
565.2735	0.1495	1130547	keystroke	Key.space	n/a
565.6025	0.105	1131205	keystroke	e	n/a
566.0675	0.075	1132135	keystroke	s	n/a
566.3085	0.045	1132617	keystroke	t	n/a
566.503	0.105	1133006	keystroke	a	n/a
566.653	0.075	1133306	keystroke	b	n/a
566.878	0.09	1133756	keystroke	l	n/a
567.088	0.075	1134176	keystroke	i	n/a
567.268	0.1045	1134536	keystroke	s	n/a
567.433	0.06	1134866	keystroke	h	n/a
567.6275	0.075	1135255	keystroke	m	n/a
567.7625	0.12	1135525	keystroke	e	n/a
567.8685	0.1045	1135737	keystroke	n	n/a
568.063	0.09	1136126	keystroke	t	n/a
568.288	0.1195	1136576	keystroke	Key.enter	n/a
568.4125	17.007	1136825	prompt	n/a	discounted challenging guidance cisco\n
569.3985	0.0745	1138797	keystroke	d	n/a
569.488	0.075	1138976	keystroke	i	n/a
569.638	0.105	1139276	keystroke	s	n/a
569.848	0.135	1139696	keystroke	c	n/a
570.073	0.12	1140146	keystroke	o	n/a
570.373	0.0895	1140746	keystroke	u	n/a
570.6125	0.106	1141225	keystroke	n	n/a
570.7335	0.1195	1141467	keystroke	t	n/a
570.883	0.105	1141766	keystroke	e	n/a
571.123	0.105	1142246	keystroke	d	n/a
571.363	0.12	1142726	keystroke	Key.space	n/a
571.708	0.1045	1143416	keystroke	c	n/a
571.8575	0.06	1143715	keystroke	h	n/a
572.008	0.09	1144016	keystroke	a	n/a
572.143	0.0895	1144286	keystroke	l	n/a
572.3075	0.09	1144615	keystroke	l	n/a
572.4425	0.09	1144885	keystroke	e	n/a
572.5775	0.105	1145155	keystroke	n	n/a
572.7875	0.061	1145575	keystroke	g	n/a
572.9685	0.0895	1145937	keystroke	i	n/a
572.9985	0.1345	1145997	keystroke	n	n/a
573.268	0.075	1146536	keystroke	g	n/a
573.4025	0.135	1146805	keystroke	Key.space	n/a
574.258	0.06	1148516	keystroke	g	n/a
574.453	0.09	1148906	keystroke	u	n/a
574.693	0.09	1149386	keystroke	d	n/a
574.828	0.105	1149656	keystroke	a	n/a
574.993	0.12	1149986	keystroke	n	n/a
575.1575	0.165	1150315	keystroke	c	n/a
575.2925	0.105	1150585	keystroke	e	n/a
575.4425	0.1505	1150885	keystroke	Key.space	n/a
576.238	0.1205	1152476	keystroke	c	n/a
576.4035	0.0745	1152807	keystroke	i	n/a
576.943	0.12	1153886	keystroke	s	n/a
577.108	0.135	1154216	keystroke	c	n/a
577.6025	0.1205	1155205	keystroke	o	n/a
578.9085	0.0745	1157817	keystroke	Key.backspace	n/a
579.223	0.06	1158446	keystroke	Key.backspace	n/a
579.538	0.0755	1159076	keystroke	Key.backspace	n/a
579.838	0.12	1159676	keystroke	Key.backspace	n/a
580.183	0.09	1160366	keystroke	Key.backspace	n/a
580.5575	0.076	1161115	keystroke	Key.backspace	n/a
580.903	0.09	1161806	keystroke	Key.backspace	n/a
581.188	0.135	1162376	keystroke	Key.backspace	n/a
581.578	0.0895	1163156	keystroke	Key.backspace	n/a
581.893	0.105	1163786	keystroke	Key.backspace	n/a
582.223	0.09	1164446	keystroke	Key.backspace	n/a
582.8675	0.0755	1165735	keystroke	i	n/a
583.093	0.09	1166186	keystroke	d	n/a
583.198	0.12	1166396	keystroke	a	n/a
583.4075	0.075	1166815	keystroke	n	n/a
583.5875	0.151	1167175	keystroke	c	n/a
583.6925	0.105	1167385	keystroke	e	n/a
583.8425	0.135	1167685	keystroke	Key.space	n/a
584.0985	0.105	1168197	keystroke	c	n/a
584.218	0.09	1168436	keystroke	i	n/a
584.5025	0.075	1169005	keystroke	s	n/a
584.6525	0.135	1169305	keystroke	c	n/a
584.8325	0.12	1169665	keystroke	o	n/a
585.313	0.105	1170626	keystroke	Key.enter	n/a
585.4225	11.4075	1170845	prompt	n/a	merry cultures management proportion\n
586.5875	0.061	1173175	keystroke	m	n/a
586.8135	0.135	1173627	keystroke	e	n/a
587.053	0.06	1174106	keystroke	r	n/a
587.203	0.1045	1174406	keystroke	r	n/a
587.3375	0.1055	1174675	keystroke	y	n/a
587.5925	0.09	1175185	keystroke	Key.space	n/a
587.7425	0.135	1175485	keystroke	c	n/a
587.9375	0.09	1175875	keystroke	u	n/a
588.6125	0.075	1177225	keystroke	l	n/a
589.3185	0.09	1178637	keystroke	t	n/a
589.4685	0.0745	1178937	keystroke	u	n/a
589.633	0.1795	1179266	keystroke	r	n/a
589.7975	0.09	1179595	keystroke	e	n/a
590.1575	0.09	1180315	keystroke	s	n/a
590.3525	0.106	1180705	keystroke	Key.space	n/a
590.6235	0.1045	1181247	keystroke	m	n/a
590.878	0.09	1181756	keystroke	a	n/a
591.028	0.105	1182056	keystroke	n	n/a
591.148	0.09	1182296	keystroke	a	n/a
592.108	0.09	1184216	keystroke	g	n/a
592.288	0.105	1184576	keystroke	e	n/a
592.5885	0.1495	1185177	keystroke	m	n/a
592.798	0.12	1185596	keystroke	e	n/a
592.948	0.15	1185896	keystroke	n	n/a
593.173	0.0895	1186346	keystroke	t	n/a
593.3675	0.105	1186735	keystroke	Key.space	n/a
593.758	0.105	1187516	keystroke	p	n/a
593.983	0.075	1187966	keystroke	r	n/a
594.133	0.06	1188266	keystroke	o	n/a
594.358	0.06	1188716	keystroke	p	n/a
594.6275	0.075	1189255	keystroke	o	n/a
594.8225	0.15	1189645	keystroke	r	n/a
594.9425	0.12	1189885	keystroke	t	n/a
595.438	0.104	1190876	keystroke	i	n/a
595.72	0.103	1191440	keystroke	o	n/a
595.9855	0.133	1191971	keystroke	j	n/a
596.6805	0.1475	1193361	keystroke	Key.enter	n/a
596.8325	11.954	1193665	prompt	n/a	powers crisis headers smithsonian\n
598.224	0.074	1196448	keystroke	o	n/a
598.7195	0.074	1197439	keystroke	Key.backspace	n/a
599.0815	0.1185	1198163	keystroke	p	n/a
599.244	0.089	1198488	keystroke	o	n/a
599.7545	0.1625	1199509	keystroke	w	n/a
599.8725	0.169	1199745	keystroke	e	n/a
600.087	0.133	1200174	keystroke	r	n/a
600.3675	0.1515	1200735	keystroke	s	n/a
600.5355	0.1055	1201071	keystroke	Key.space	n/a
602.0815	0.074	1204163	keystroke	c	n/a
602.2885	0.1035	1204577	keystroke	r	n/a
602.4365	0.125	1204873	keystroke	i	n/a
602.68	0.074	1205360	keystroke	s	n/a
602.8575	0.045	1205715	keystroke	i	n/a
602.979	0.123	1205958	keystroke	s	n/a
603.176	0.118	1206352	keystroke	Key.space	n/a
603.567	0.118	1207134	keystroke	h	n/a
603.7295	0.118	1207459	keystroke	e	n/a
603.907	0.1395	1207814	keystroke	a	n/a
604.107	0.1185	1208214	keystroke	d	n/a
604.3435	0.0905	1208687	keystroke	e	n/a
604.388	0.14	1208776	keystroke	r	n/a
604.72	0.1035	1209440	keystroke	s	n/a
604.912	0.1095	1209824	keystroke	Key.space	n/a
605.739	0.1035	1211478	keystroke	s	n/a
605.9625	0.11	1211925	keystroke	m	n/a
606.206	0.0885	1212412	keystroke	i	n/a
606.8035	0.089	1213607	keystroke	t	n/a
606.967	0.1095	1213934	keystroke	h	n/a
607.2845	0.074	1214569	keystroke	s	n/a
607.617	0.134	1215234	keystroke	o	n/a
607.751	0.1185	1215502	keystroke	n	n/a
607.9445	0.108	1215889	keystroke	i	n/a
608.1115	0.104	1216223	keystroke	a	n/a
608.26	0.133	1216520	keystroke	n	n/a
608.6215	0.163	1217243	keystroke	Key.enter	n/a
608.7905	10.5435	1217581	prompt	n/a	underwear focus pretty truth\n
609.8625	0.0805	1219725	keystroke	u	n/a
610.0615	0.089	1220123	keystroke	n	n/a
610.254	0.1355	1220508	keystroke	d	n/a
610.482	0.148	1220964	keystroke	e	n/a
610.6005	0.1185	1221201	keystroke	r	n/a
610.9315	0.1345	1221863	keystroke	w	n/a
611.036	0.0745	1222072	keystroke	e	n/a
611.531	0.089	1223062	keystroke	a	n/a
611.7385	0.09	1223477	keystroke	t	n/a
611.967	0.1185	1223934	keystroke	Key.space	n/a
612.476	0.0595	1224952	keystroke	Key.backspace	n/a
612.6245	0.0885	1225249	keystroke	Key.backspace	n/a
612.9435	0.089	1225887	keystroke	r	n/a
613.136	0.089	1226272	keystroke	Key.space	n/a
614.036	0.104	1228072	keystroke	c	n/a
614.5315	0.0445	1229063	keystroke	Key.backspace	n/a
614.6505	0.1035	1229301	keystroke	f	n/a
614.784	0.1385	1229568	keystroke	o	n/a
614.997	0.089	1229994	keystroke	c	n/a
615.145	0.089	1230290	keystroke	u	n/a
615.417	0.1185	1230834	keystroke	s	n/a
615.5655	0.1185	1231131	keystroke	Key.space	n/a
616.283	0.0945	1232566	keystroke	p	n/a
616.615	0.1195	1233230	keystroke	r	n/a
616.9175	0.104	1233835	keystroke	e	n/a
617.229	0.03	1234458	keystroke	t	n/a
617.3675	0.104	1234735	keystroke	t	n/a
617.7685	0.079	1235537	keystroke	y	n/a
617.923	0.1485	1235846	keystroke	Key.space	n/a
618.1455	0.1655	1236291	keystroke	t	n/a
618.3575	0.09	1236715	keystroke	r	n/a
618.566	0.0895	1237132	keystroke	u	n/a
618.7295	0.0905	1237459	keystroke	t	n/a
618.853	0.0595	1237706	keystroke	h	n/a
619.165	0.167	1238330	keystroke	Key.enter	n/a
619.337	13.497	1238674	prompt	n/a	they've companies switzerland films\n
620.1695	0.104	1240339	keystroke	t	n/a
620.323	0.0745	1240646	keystroke	h	n/a
620.457	0.089	1240914	keystroke	e	n/a
620.6205	0.074	1241241	keystroke	y	n/a
621.175	0.1235	1242350	keystroke	'	n/a
621.5065	0.104	1243013	keystroke	v	n/a
621.7295	0.078	1243459	keystroke	e	n/a
621.867	0.149	1243734	keystroke	Key.space	n/a
622.135	0.1235	1244270	keystroke	c	n/a
622.2885	0.1485	1244577	keystroke	o	n/a
622.452	0.1185	1244904	keystroke	m	n/a
622.66	0.1225	1245320	keystroke	[	n/a
622.827	0.089	1245654	keystroke	a	n/a
623.0065	0.104	1246013	keystroke	n	n/a
623.5015	0.104	1247003	keystroke	\	n/a
624.159	0.079	1248318	keystroke	Key.backspace	n/a
624.4465	0.074	1248893	keystroke	Key.backspace	n/a
624.6545	0.0605	1249309	keystroke	Key.backspace	n/a
624.837	0.0745	1249674	keystroke	Key.backspace	n/a
625.7825	0.119	1251565	keystroke	p	n/a
626.066	0.104	1252132	keystroke	a	n/a
626.1995	0.1235	1252399	keystroke	n	n/a
626.3825	0.104	1252765	keystroke	i	n/a
626.546	0.104	1253092	keystroke	e	n/a
626.818	0.104	1253636	keystroke	s	n/a
627.0115	0.1335	1254023	keystroke	Key.space	n/a
627.536	0.089	1255072	keystroke	s	n/a
627.807	0.0895	1255614	keystroke	w	n/a
628.105	0.1045	1256210	keystroke	i	n/a
628.317	0.0745	1256634	keystroke	t	n/a
628.931	0.119	1257862	keystroke	z	n/a
629.214	0.154	1258428	keystroke	e	n/a
629.3235	0.1635	1258647	keystroke	r	n/a
629.5915	0.119	1259183	keystroke	l	n/a
629.7255	0.1375	1259451	keystroke	a	n/a
629.8925	0.12	1259785	keystroke	n	n/a
630.0415	0.105	1260083	keystroke	d	n/a
630.238	0.1195	1260476	keystroke	Key.space	n/a
631.4375	0.0595	1262875	keystroke	f	n/a
631.723	0.0895	1263446	keystroke	i	n/a
632.006	0.135	1264012	keystroke	l	n/a
632.2325	0.15	1264465	keystroke	m	n/a
632.412	0.1485	1264824	keystroke	s	n/a
632.743	0.089	1265486	keystroke	Key.enter	n/a
632.8365	10.4675	1265673	prompt	n/a	daddy techno sample type\n
634.046	0.1215	1268092	keystroke	d	n/a
634.2275	0.134	1268455	keystroke	a	n/a
634.347	0.0745	1268694	keystroke	d	n/a
634.5255	0.089	1269051	keystroke	d	n/a
634.693	0.075	1269386	keystroke	y	n/a
634.8875	0.164	1269775	keystroke	Key.space	n/a
635.096	0.1225	1270192	keystroke	t	n/a
635.2785	0.104	1270557	keystroke	e	n/a
635.5015	0.119	1271003	keystroke	c	n/a
636.9275	0.0745	1273855	keystroke	h	n/a
637.377	0.0745	1274754	keystroke	n	n/a
637.7235	0.149	1275447	keystroke	o	n/a
638.426	0.12	1276852	keystroke	Key.space	n/a
638.7285	0.1485	1277457	keystroke	s	n/a
638.8175	0.119	1277635	keystroke	a	n/a
638.9515	0.12	1277903	keystroke	m	n/a
639.358	0.134	1278716	keystroke	p	n/a
639.659	0.089	1279318	keystroke	l	n/a
639.942	0.0895	1279884	keystroke	e	n/a
640.121	0.1365	1280242	keystroke	Key.space	n/a
640.9765	0.089	1281953	keystroke	t	n/a
641.2625	0.0155	1282525	keystroke	y	n/a
641.7135	0.0895	1283427	keystroke	p	n/a
641.997	0.0295	1283994	keystroke	w	n/a
642.551	0.1075	1285102	keystroke	Key.backspace	n/a
642.7625	0.0905	1285525	keystroke	e	n/a
643.1985	0.104	1286397	keystroke	Key.enter	n/a
643.3065	11.2635	1286613	prompt	n/a	talked pieces classified mediawiki\n
644.1885	0.0745	1288377	keystroke	t	n/a
644.3975	0.104	1288795	keystroke	a	n/a
644.5935	0.209	1289187	keystroke	l	n/a
644.758	0.164	1289516	keystroke	k	n/a
645.0115	0.1075	1290023	keystroke	e	n/a
645.2535	0.0895	1290507	keystroke	d	n/a
645.3725	0.1345	1290745	keystroke	Key.space	n/a
645.6135	0.0905	1291227	keystroke	p	n/a
646.0185	0.091	1292037	keystroke	i	n/a
646.184	0.1495	1292368	keystroke	e	n/a
646.438	0.1655	1292876	keystroke	c	n/a
646.708	0.0295	1293416	keystroke	e	n/a
647.009	0.0895	1294018	keystroke	s	n/a
647.233	0.1045	1294466	keystroke	Key.space	n/a
647.8035	0.074	1295607	keystroke	c	n/a
647.968	0.1345	1295936	keystroke	l	n/a
648.1475	0.164	1296295	keystroke	a	n/a
648.2665	0.1055	1296533	keystroke	s	n/a
648.5095	0.104	1297019	keystroke	s	n/a
649.1535	0.1045	1298307	keystroke	i	n/a
649.4395	0.0895	1298879	keystroke	f	n/a
649.6635	0.0745	1299327	keystroke	i	n/a
649.8275	0.076	1299655	keystroke	e	n/a
650.054	0.0885	1300108	keystroke	d	n/a
650.278	0.152	1300556	keystroke	Key.space	n/a
652.302	0.107	1304604	keystroke	m	n/a
652.7385	0.0895	1305477	keystroke	e	n/a
652.979	0.0745	1305958	keystroke	d	n/a
653.128	0.0895	1306256	keystroke	i	n/a
653.2625	0.075	1306525	keystroke	a	n/a
653.519	0.0895	1307038	keystroke	w	n/a
653.668	0.0895	1307336	keystroke	i	n/a
653.878	0.0455	1307756	keystroke	k	n/a
654.0425	0.075	1308085	keystroke	i	n/a
654.4195	0.149	1308839	keystroke	Key.enter	n/a
654.573	22.663	1309146	prompt	n/a	that'd shareholders wool superintendent\n
655.409	0.09	1310818	keystroke	t	n/a
655.5585	0.09	1311117	keystroke	h	n/a
655.6495	0.0885	1311299	keystroke	a	n/a
655.8275	0.106	1311655	keystroke	t	n/a
656.1575	0.1195	1312315	keystroke	;	n/a
656.909	0.119	1313818	keystroke	Key.backspace	n/a
657.5235	0.12	1315047	keystroke	'	n/a
657.8695	0.0895	1315739	keystroke	s	n/a
658.1535	0.1645	1316307	keystroke	Key.space	n/a
658.6785	0.06	1317357	keystroke	Key.backspace	n/a
658.829	0.076	1317658	keystroke	Key.backspace	n/a
658.9495	0.1045	1317899	keystroke	d	n/a
659.1435	0.1045	1318287	keystroke	Key.space	n/a
659.713	0.092	1319426	keystroke	s	n/a
659.8945	0.0445	1319789	keystroke	h	n/a
659.954	0.1345	1319908	keystroke	a	n/a
660.283	0.1945	1320566	keystroke	r	n/a
660.433	0.1345	1320866	keystroke	e	n/a
660.672	0.075	1321344	keystroke	h	n/a
660.8685	0.0905	1321737	keystroke	o	n/a
661.064	0.104	1322128	keystroke	l	n/a
661.228	0.1515	1322456	keystroke	d	n/a
661.499	0.1495	1322998	keystroke	e	n/a
661.589	0.1195	1323178	keystroke	r	n/a
661.8745	0.1195	1323749	keystroke	s	n/a
662.0535	0.09	1324107	keystroke	Key.space	n/a
662.2035	0.106	1324407	keystroke	w	n/a
662.3395	0.1045	1324679	keystroke	o	n/a
662.519	0.075	1325038	keystroke	o	n/a
662.7895	0.105	1325579	keystroke	l	n/a
663.1035	0.1195	1326207	keystroke	Key.space	n/a
663.8835	0.1045	1327767	keystroke	s	n/a
664.063	0.1205	1328126	keystroke	u	n/a
664.379	0.1045	1328758	keystroke	o	n/a
664.588	0.1195	1329176	keystroke	e	n/a
664.663	0.1045	1329326	keystroke	r	n/a
664.874	0.1345	1329748	keystroke	i	n/a
664.9935	0.1195	1329987	keystroke	n	n/a
665.549	0.09	1331098	keystroke	t	n/a
665.684	0.121	1331368	keystroke	e	n/a
665.9105	0.089	1331821	keystroke	n	n/a
666.0445	0.12	1332089	keystroke	d	n/a
666.2695	0.1195	1332539	keystroke	e	n/a
666.434	0.1045	1332868	keystroke	n	n/a
666.6895	0.09	1333379	keystroke	t	n/a
668.4435	0.075	1336887	keystroke	Key.backspace	n/a
668.6685	0.0765	1337337	keystroke	Key.backspace	n/a
668.9555	0.075	1337911	keystroke	Key.backspace	n/a
669.1945	0.075	1338389	keystroke	Key.backspace	n/a
669.404	0.0595	1338808	keystroke	Key.backspace	n/a
669.5985	0.0745	1339197	keystroke	Key.backspace	n/a
669.7795	0.075	1339559	keystroke	Key.backspace	n/a
669.974	0.06	1339948	keystroke	Key.backspace	n/a
670.154	0.06	1340308	keystroke	Key.backspace	n/a
670.334	0.0595	1340668	keystroke	Key.backspace	n/a
670.4985	0.09	1340997	keystroke	Key.backspace	n/a
670.889	0.06	1341778	keystroke	Key.backspace	n/a
671.459	0.045	1342918	keystroke	p	n/a
671.7145	0.1195	1343429	keystroke	w	n/a
671.849	0.075	1343698	keystroke	e	n/a
672.5095	0.0755	1345019	keystroke	Key.backspace	n/a
672.6895	0.0745	1345379	keystroke	Key.backspace	n/a
673.0185	0.181	1346037	keystroke	e	n/a
673.214	0.135	1346428	keystroke	r	n/a
673.379	0.076	1346758	keystroke	Key.space	n/a
673.815	0.06	1347630	keystroke	Key.backspace	n/a
674.1445	0.149	1348289	keystroke	i	n/a
674.235	0.1495	1348470	keystroke	n	n/a
674.8645	0.09	1349729	keystroke	t	n/a
675.0895	0.0895	1350179	keystroke	e	n/a
675.329	0.09	1350658	keystroke	n	n/a
675.555	0.105	1351110	keystroke	d	n/a
675.9295	0.12	1351859	keystroke	e	n/a
676.1095	0.09	1352219	keystroke	n	n/a
676.319	0.09	1352638	keystroke	t	n/a
677.1895	0.045	1354379	keystroke	Key.enter	n/a
677.239	8.9675	1354478	prompt	n/a	permanent takes aging pound\n
678.389	0.106	1356778	keystroke	o	n/a
678.645	0.105	1357290	keystroke	e	n/a
679.1105	0.06	1358221	keystroke	Key.backspace	n/a
679.2745	0.06	1358549	keystroke	Key.backspace	n/a
679.784	0.075	1359568	keystroke	p	n/a
679.9485	0.121	1359897	keystroke	e	n/a
680.025	0.1195	1360050	keystroke	r	n/a
680.1745	0.1055	1360349	keystroke	m	n/a
680.369	0.09	1360738	keystroke	a	n/a
680.4905	0.09	1360981	keystroke	n	n/a
680.67	0.105	1361340	keystroke	e	n/a
680.805	0.09	1361610	keystroke	n	n/a
680.955	0.12	1361910	keystroke	t	n/a
681.165	0.105	1362330	keystroke	Key.space	n/a
681.4345	0.0755	1362869	keystroke	t	n/a
681.615	0.09	1363230	keystroke	a	n/a
682.0055	0.1195	1364011	keystroke	k	n/a
682.125	0.075	1364250	keystroke	e	n/a
682.395	0.09	1364790	keystroke	s	n/a
682.56	0.105	1365120	keystroke	Key.space	n/a
683.2185	0.12	1366437	keystroke	a	n/a
683.414	0.1055	1366828	keystroke	d	n/a
683.789	0.0755	1367578	keystroke	Key.backspace	n/a
683.985	0.075	1367970	keystroke	g	n/a
684.1645	0.105	1368329	keystroke	i	n/a
684.2395	0.1045	1368479	keystroke	n	n/a
684.419	0.0755	1368838	keystroke	g	n/a
684.5695	0.1195	1369139	keystroke	Key.space	n/a
684.989	0.1215	1369978	keystroke	p	n/a
685.245	0.075	1370490	keystroke	o	n/a
685.515	0.09	1371030	keystroke	u	n/a
685.59	0.12	1371180	keystroke	n	n/a
685.875	0.12	1371750	keystroke	d	n/a
686.055	0.15	1372110	keystroke	Key.enter	n/a
686.2095	12.552	1372419	prompt	n/a	building unit mailing following\n
687.24	0.0895	1374480	keystroke	b	n/a
687.4495	0.075	1374899	keystroke	u	n/a
687.8245	0.061	1375649	keystroke	i	n/a
688.1705	0.0895	1376341	keystroke	l	n/a
688.365	0.12	1376730	keystroke	d	n/a
688.5445	0.106	1377089	keystroke	i	n/a
688.6055	0.1345	1377211	keystroke	n	n/a
688.8	0.09	1377600	keystroke	g	n/a
689.0855	0.105	1378171	keystroke	Key.space	n/a
689.6395	0.015	1379279	keystroke	u	n/a
689.6545	0.15	1379309	keystroke	n	n/a
690.1045	0.09	1380209	keystroke	i	n/a
690.3155	0.0895	1380631	keystroke	t	n/a
690.4655	0.0745	1380931	keystroke	y	n/a
690.75	0.075	1381500	keystroke	Key.space	n/a
691.095	0.1045	1382190	keystroke	m	n/a
691.3795	0.0905	1382759	keystroke	a	n/a
692.0255	0.06	1384051	keystroke	Key.backspace	n/a
692.1905	0.045	1384381	keystroke	Key.backspace	n/a
692.355	0.03	1384710	keystroke	Key.backspace	n/a
692.4895	0.0755	1384979	keystroke	Key.backspace	n/a
692.955	0.075	1385910	keystroke	Key.space	n/a
693.3605	0.0895	1386721	keystroke	m	n/a
693.541	0.105	1387082	keystroke	a	n/a
693.661	0.06	1387322	keystroke	i	n/a
693.886	0.0745	1387772	keystroke	l	n/a
694.1405	0.105	1388281	keystroke	i	n/a
694.2155	0.12	1388431	keystroke	n	n/a
694.44	0.0755	1388880	keystroke	g	n/a
694.6205	0.0895	1389241	keystroke	Key.space	n/a
695.2355	0.12	1390471	keystroke	f	n/a
695.475	0.075	1390950	keystroke	o	n/a
695.67	0.06	1391340	keystroke	l	n/a
695.8195	0.06	1391639	keystroke	l	n/a
696.5855	0.075	1393171	keystroke	o	n/a
696.855	0.06	1393710	keystroke	w	n/a
697.215	0.1645	1394430	keystroke	i	n/a
697.35	0.106	1394700	keystroke	n	n/a
697.6355	0.12	1395271	keystroke	g	n/a
698.6395	0.12	1397279	keystroke	Key.enter	n/a
698.764	7.6785	1397528	prompt	n/a	pope might exceed affairs\n
699.9155	0.1045	1399831	keystroke	p	n/a
700.1555	0.074	1400311	keystroke	o	n/a
700.3945	0.091	1400789	keystroke	p	n/a
700.6505	0.12	1401301	keystroke	e	n/a
700.8605	0.135	1401721	keystroke	Key.space	n/a
701.175	0.105	1402350	keystroke	m	n/a
701.325	0.106	1402650	keystroke	i	n/a
701.491	0.09	1402982	keystroke	g	n/a
701.626	0.06	1403252	keystroke	h	n/a
701.731	0.06	1403462	keystroke	t	n/a
701.866	0.075	1403732	keystroke	Key.space	n/a
702.0455	0.075	1404091	keystroke	e	n/a
702.585	0.09	1405170	keystroke	x	n/a
702.8405	0.09	1405681	keystroke	c	n/a
703.02	0.075	1406040	keystroke	e	n/a
703.1995	0.076	1406399	keystroke	e	n/a
703.4095	0.076	1406819	keystroke	d	n/a
703.7095	0.135	1407419	keystroke	Key.space	n/a
704.8805	0.03	1409761	keystroke	a	n/a
705.045	0.06	1410090	keystroke	f	n/a
705.1955	0.1205	1410391	keystroke	f	n/a
705.406	0.1205	1410812	keystroke	a	n/a
705.5865	0.12	1411173	keystroke	i	n/a
705.7665	0.075	1411533	keystroke	r	n/a
706.0205	0.135	1412041	keystroke	s	n/a
706.3355	0.105	1412671	keystroke	Key.enter	n/a
706.445	16.048	1412890	prompt	n/a	funeral much simultaneously photographers\n
707.476	0.09	1414952	keystroke	f	n/a
707.6555	0.075	1415311	keystroke	u	n/a
707.7005	0.106	1415401	keystroke	n	n/a
707.9415	0.0735	1415883	keystroke	e	n/a
707.985	0.105	1415970	keystroke	r	n/a
708.21	0.09	1416420	keystroke	a	n/a
708.3605	0.1495	1416721	keystroke	l	n/a
708.7345	0.075	1417469	keystroke	Key.space	n/a
709.096	0.09	1418192	keystroke	m	n/a
709.3205	0.03	1418641	keystroke	u	n/a
709.4705	0.0895	1418941	keystroke	c	n/a
709.575	0.075	1419150	keystroke	h	n/a
709.815	0.06	1419630	keystroke	Key.space	n/a
710.041	0.09	1420082	keystroke	s	n/a
710.896	0.06	1421792	keystroke	i	n/a
711.4805	0.12	1422961	keystroke	m	n/a
711.7505	0.03	1423501	keystroke	u	n/a
711.9895	0.075	1423979	keystroke	l	n/a
714.0605	0.105	1428121	keystroke	t	n/a
714.3305	0.105	1428661	keystroke	a	n/a
714.4805	0.1045	1428961	keystroke	n	n/a
714.781	0.075	1429562	keystroke	i	n/a
715.47	0.105	1430940	keystroke	Key.backspace	n/a
716.64	0.06	1433280	keystroke	e	n/a
716.7765	0.1485	1433553	keystroke	o	n/a
716.911	0.1045	1433822	keystroke	u	n/a
717.061	0.135	1434122	keystroke	s	n/a
717.211	0.165	1434422	keystroke	l	n/a
717.7955	0.105	1435591	keystroke	y	n/a
718.156	0.1645	1436312	keystroke	Key.space	n/a
718.9505	0.09	1437901	keystroke	p	n/a
719.161	0.105	1438322	keystroke	h	n/a
719.4455	0.1205	1438891	keystroke	o	n/a
719.716	0.075	1439432	keystroke	t	n/a
719.9105	0.09	1439821	keystroke	o	n/a
720.6465	0.015	1441293	keystroke	g	n/a
720.691	0.09	1441382	keystroke	r	n/a
720.931	0.1045	1441862	keystroke	a	n/a
721.0205	0.045	1442041	keystroke	p	n/a
721.2305	0.09	1442461	keystroke	h	n/a
721.3805	0.1055	1442761	keystroke	e	n/a
721.471	0.09	1442942	keystroke	r	n/a
721.9665	0.1045	1443933	keystroke	s	n/a
722.4015	0.09	1444803	keystroke	Key.enter	n/a
722.4955	9.508	1444991	prompt	n/a	sucking discussions nasa circuit\n
723.301	0.075	1446602	keystroke	s	n/a
723.421	0.06	1446842	keystroke	u	n/a
723.556	0.0895	1447112	keystroke	c	n/a
723.6605	0.105	1447321	keystroke	j	n/a
724.3205	0.06	1448641	keystroke	Key.backspace	n/a
724.5915	0.0745	1449183	keystroke	k	n/a
724.8765	0.0745	1449753	keystroke	i	n/a
724.9215	0.135	1449843	keystroke	n	n/a
725.206	0.045	1450412	keystroke	g	n/a
725.311	0.12	1450622	keystroke	Key.space	n/a
725.701	0.09	1451402	keystroke	d	n/a
726.136	0.09	1452272	keystroke	i	n/a
726.271	0.1205	1452542	keystroke	s	n/a
726.5115	0.105	1453023	keystroke	c	n/a
727.3805	0.06	1454761	keystroke	u	n/a
727.5905	0.045	1455181	keystroke	s	n/a
727.7255	0.105	1455451	keystroke	s	n/a
727.936	0.075	1455872	keystroke	i	n/a
728.1605	0.121	1456321	keystroke	o	n/a
728.2505	0.1505	1456501	keystroke	n	n/a
728.416	0.106	1456832	keystroke	s	n/a
728.6265	0.09	1457253	keystroke	Key.space	n/a
728.8515	0.09	1457703	keystroke	n	n/a
729.017	0.119	1458034	keystroke	a	n/a
729.271	0.1805	1458542	keystroke	s	n/a
729.3915	0.12	1458783	keystroke	a	n/a
729.631	0.136	1459262	keystroke	Key.space	n/a
729.9475	0.089	1459895	keystroke	c	n/a
730.112	0.09	1460224	keystroke	i	n/a
730.307	0.075	1460614	keystroke	r	n/a
730.5475	0.104	1461095	keystroke	c	n/a
730.7115	0.045	1461423	keystroke	u	n/a
730.8915	0.0905	1461783	keystroke	i	n/a
731.071	0.075	1462142	keystroke	t	n/a
731.8215	0.18	1463643	keystroke	Key.enter	n/a
732.0075	15.012	1464015	prompt	n/a	ratings aluminum implementing substance\n
733.1115	0.075	1466223	keystroke	r	n/a
733.2015	0.12	1466403	keystroke	a	n/a
733.4265	0.0905	1466853	keystroke	t	n/a
733.621	0.105	1467242	keystroke	i	n/a
733.8165	0.045	1467633	keystroke	g	n/a
733.8915	0.075	1467783	keystroke	n	n/a
734.311	0.075	1468622	keystroke	Key.backspace	n/a
734.476	0.075	1468952	keystroke	Key.backspace	n/a
734.7315	0.09	1469463	keystroke	n	n/a
734.8965	0.105	1469793	keystroke	g	n/a
736.052	0.119	1472104	keystroke	s	n/a
736.2465	0.105	1472493	keystroke	Key.space	n/a
736.5165	0.0595	1473033	keystroke	a	n/a
736.696	0.12	1473392	keystroke	l	n/a
737.041	0.09	1474082	keystroke	u	n/a
737.281	0.121	1474562	keystroke	m	n/a
737.522	0.06	1475044	keystroke	i	n/a
737.701	0.0755	1475402	keystroke	n	n/a
737.9265	0.045	1475853	keystroke	i	n/a
738.781	0.0605	1477562	keystroke	Key.backspace	n/a
739.307	0.09	1478614	keystroke	u	n/a
739.5605	0.075	1479121	keystroke	m	n/a
739.8605	0.091	1479721	keystroke	Key.space	n/a
741.212	0.0755	1482424	keystroke	i	n/a
741.3175	0.1355	1482635	keystroke	m	n/a
741.556	0.12	1483112	keystroke	p	n/a
741.632	0.1055	1483264	keystroke	l	n/a
742.922	0.1045	1485844	keystroke	e	n/a
743.1465	0.06	1486293	keystroke	m	n/a
743.312	0.075	1486624	keystroke	e	n/a
743.402	0.0745	1486804	keystroke	n	n/a
743.5665	0.09	1487133	keystroke	t	n/a
743.702	0.12	1487404	keystroke	i	n/a
743.777	0.105	1487554	keystroke	n	n/a
743.927	0.0895	1487854	keystroke	g	n/a
744.0615	0.1055	1488123	keystroke	Key.space	n/a
745.188	0.104	1490376	keystroke	s	n/a
745.337	0.075	1490674	keystroke	u	n/a
745.397	0.105	1490794	keystroke	b	n/a
745.7275	0.0755	1491455	keystroke	s	n/a
745.923	0.074	1491846	keystroke	t	n/a
746.087	0.105	1492174	keystroke	a	n/a
746.237	0.105	1492474	keystroke	n	n/a
746.462	0.075	1492924	keystroke	c	n/a
746.642	0.105	1493284	keystroke	e	n/a
746.9125	0.1045	1493825	keystroke	Key.enter	n/a
747.022	9.582	1494044	prompt	n/a	helena recreational fibre infected\n
747.9465	0.09	1495893	keystroke	h	n/a
748.172	0.105	1496344	keystroke	e	n/a
748.337	0.1045	1496674	keystroke	l	n/a
748.5165	0.0905	1497033	keystroke	e	n/a
748.608	0.1345	1497216	keystroke	n	n/a
749.1175	0.09	1498235	keystroke	a	n/a
749.313	0.1485	1498626	keystroke	Key.space	n/a
749.657	0.1355	1499314	keystroke	r	n/a
749.7475	0.119	1499495	keystroke	e	n/a
750.0325	0.06	1500065	keystroke	c	n/a
750.2425	0.1335	1500485	keystroke	r	n/a
750.333	0.1035	1500666	keystroke	e	n/a
750.4515	0.12	1500903	keystroke	a	n/a
750.6915	0.03	1501383	keystroke	t	n/a
750.8265	0.105	1501653	keystroke	i	n/a
751.0665	0.0905	1502133	keystroke	o	n/a
751.217	0.15	1502434	keystroke	n	n/a
751.547	0.0905	1503094	keystroke	a	n/a
751.6825	0.1495	1503365	keystroke	l	n/a
751.967	0.12	1503934	keystroke	Key.space	n/a
753.2575	0.0895	1506515	keystroke	f	n/a
753.377	0.1205	1506754	keystroke	i	n/a
753.6625	0.09	1507325	keystroke	b	n/a
753.7975	0.1495	1507595	keystroke	r	n/a
754.337	0.0895	1508674	keystroke	e	n/a
754.6215	0.1055	1509243	keystroke	Key.space	n/a
754.982	0.0755	1509964	keystroke	i	n/a
755.0425	0.15	1510085	keystroke	n	n/a
755.2225	0.12	1510445	keystroke	f	n/a
755.433	0.09	1510866	keystroke	e	n/a
755.643	0.075	1511286	keystroke	c	n/a
755.852	0.105	1511704	keystroke	t	n/a
756.002	0.075	1512004	keystroke	e	n/a
756.1975	0.105	1512395	keystroke	d	n/a
756.4365	0.166	1512873	keystroke	Key.enter	n/a
756.6065	8.053	1513213	prompt	n/a	detailed based cricket october\n
757.5925	0.165	1515185	keystroke	d	n/a
757.6975	0.1355	1515395	keystroke	e	n/a
757.9525	0.075	1515905	keystroke	t	n/a
758.163	0.06	1516326	keystroke	a	n/a
758.3125	0.06	1516625	keystroke	i	n/a
758.523	0.105	1517046	keystroke	l	n/a
758.703	0.09	1517406	keystroke	e	n/a
758.9115	0.09	1517823	keystroke	d	n/a
759.1215	0.1205	1518243	keystroke	Key.space	n/a
759.6465	0.045	1519293	keystroke	b	n/a
759.7665	0.1805	1519533	keystroke	a	n/a
759.887	0.18	1519774	keystroke	s	n/a
760.053	0.089	1520106	keystroke	e	n/a
760.278	0.1045	1520556	keystroke	d	n/a
760.397	0.121	1520794	keystroke	Key.space	n/a
760.548	0.105	1521096	keystroke	c	n/a
760.7885	0.104	1521577	keystroke	r	n/a
760.9525	0.105	1521905	keystroke	i	n/a
761.118	0.09	1522236	keystroke	c	n/a
761.2685	0.0895	1522537	keystroke	k	n/a
761.417	0.1355	1522834	keystroke	e	n/a
761.5975	0.075	1523195	keystroke	t	n/a
762.348	0.119	1524696	keystroke	Key.space	n/a
762.6925	0.0755	1525385	keystroke	o	n/a
762.992	0.1205	1525984	keystroke	c	n/a
763.2175	0.105	1526435	keystroke	t	n/a
763.7575	0.0905	1527515	keystroke	o	n/a
763.9815	0.09	1527963	keystroke	b	n/a
764.1325	0.15	1528265	keystroke	e	n/a
764.2525	0.105	1528505	keystroke	r	n/a
764.4775	0.1805	1528955	keystroke	Key.enter	n/a
764.662	7.5575	1529324	prompt	n/a	respected life bomb lung\n
765.453	0.1655	1530906	keystroke	r	n/a
765.528	0.1205	1531056	keystroke	e	n/a
765.784	0.103	1531568	keystroke	s	n/a
765.932	0.0755	1531864	keystroke	o	n/a
766.667	0.0755	1533334	keystroke	Key.backspace	n/a
767.223	0.089	1534446	keystroke	p	n/a
767.402	0.105	1534804	keystroke	e	n/a
767.6125	0.105	1535225	keystroke	c	n/a
767.837	0.12	1535674	keystroke	t	n/a
767.9725	0.0895	1535945	keystroke	e	n/a
768.1685	0.09	1536337	keystroke	d	n/a
768.2285	0.1035	1536457	keystroke	Key.space	n/a
768.4975	0.105	1536995	keystroke	l	n/a
768.7825	0.06	1537565	keystroke	i	n/a
769.472	0.0905	1538944	keystroke	f	n/a
769.532	0.1205	1539064	keystroke	e	n/a
769.6375	0.12	1539275	keystroke	Key.space	n/a
769.7725	0.074	1539545	keystroke	b	n/a
770.148	0.1205	1540296	keystroke	o	n/a
770.3125	0.0895	1540625	keystroke	m	n/a
770.5525	0.0755	1541105	keystroke	b	n/a
770.733	0.1035	1541466	keystroke	Key.space	n/a
770.9725	0.09	1541945	keystroke	l	n/a
771.198	0.075	1542396	keystroke	u	n/a
771.302	0.135	1542604	keystroke	n	n/a
771.5875	0.075	1543175	keystroke	g	n/a
772.0525	0.1655	1544105	keystroke	Key.enter	n/a
772.222	9.207	1544444	prompt	n/a	roger videos who've exams\n
772.9975	0.075	1545995	keystroke	r	n/a
773.2085	0.0145	1546417	keystroke	i	n/a
774.3925	0.105	1548785	keystroke	Key.backspace	n/a
775.2335	0.104	1550467	keystroke	o	n/a
775.473	0.075	1550946	keystroke	g	n/a
775.6535	0.105	1551307	keystroke	e	n/a
775.7285	0.089	1551457	keystroke	r	n/a
775.8625	0.1045	1551725	keystroke	Key.space	n/a
776.0735	0.09	1552147	keystroke	v	n/a
776.2235	0.075	1552447	keystroke	i	n/a
776.372	0.1505	1552744	keystroke	d	n/a
776.4775	0.12	1552955	keystroke	e	n/a
776.6125	0.1355	1553225	keystroke	o	n/a
776.808	0.1045	1553616	keystroke	s	n/a
777.078	0.075	1554156	keystroke	Key.space	n/a
777.649	0.105	1555298	keystroke	w	n/a
777.963	0.09	1555926	keystroke	h	n/a
778.218	0.1195	1556436	keystroke	o	n/a
778.7875	0.1355	1557575	keystroke	'	n/a
778.953	0.135	1557906	keystroke	v	n/a
779.2825	0.045	1558565	keystroke	e	n/a
779.4925	0.0905	1558985	keystroke	Key.space	n/a
779.628	0.09	1559256	keystroke	e	n/a
780.498	0.1205	1560996	keystroke	x	n/a
780.768	0.12	1561536	keystroke	a	n/a
780.903	0.075	1561806	keystroke	m	n/a
781.083	0.105	1562166	keystroke	s	n/a
781.307	0.12	1562614	keystroke	Key.enter	n/a
781.432	9.2985	1562864	prompt	n/a	things kinda turner buddy\n
782.3275	0.105	1564655	keystroke	t	n/a
782.4475	0.075	1564895	keystroke	h	n/a
782.5535	0.1055	1565107	keystroke	i	n/a
782.629	0.12	1565258	keystroke	n	n/a
783.1835	0.0905	1566367	keystroke	g	n/a
783.453	0.12	1566906	keystroke	s	n/a
783.603	0.12	1567206	keystroke	Key.space	n/a
