onset	duration	sample	value	key	prompt_text
1.506	16.0945	3012	prompt	n/a	the quick brown fox jumps over a lazy dog\n
7.0685	0.012	14137	keystroke_t	t	n/a
7.0955	0.06	14191	keystroke_h	h	n/a
7.2005	0.105	14401	keystroke_e	e	n/a
7.5305	0.09	15061	keystroke_Key.space	Key.space	n/a
8.7605	0.15	17521	keystroke_q	q	n/a
9.3305	0.06	18661	keystroke_u	u	n/a
9.4955	0.06	18991	keystroke_i	i	n/a
9.6305	0.06	19261	keystroke_c	c	n/a
9.7205	0.075	19441	keystroke_k	k	n/a
10.0955	0.135	20191	keystroke_Key.space	Key.space	n/a
11.1455	0.06	22291	keystroke_b	b	n/a
11.4905	0.09	22981	keystroke_r	r	n/a
11.5805	0.09	23161	keystroke_o	o	n/a
11.6855	0.12	23371	keystroke_w	w	n/a
11.7755	0.06	23551	keystroke_n	n	n/a
12.0005	0.135	24001	keystroke_Key.space	Key.space	n/a
12.5405	0.06	25081	keystroke_f	f	n/a
12.6305	0.075	25261	keystroke_o	o	n/a
12.7805	0.09	25561	keystroke_x	x	n/a
12.8855	0.12	25771	keystroke_Key.space	Key.space	n/a
13.1855	0.045	26371	keystroke_j	j	n/a
13.3505	0.03	26701	keystroke_u	u	n/a
13.5005	0.075	27001	keystroke_m	m	n/a
13.6505	0.075	27301	keystroke_p	p	n/a
13.7855	0.105	27571	keystroke_s	s	n/a
13.9205	0.105	27841	keystroke_Key.space	Key.space	n/a
14.6105	0.09	29221	keystroke_o	o	n/a
14.7605	0.075	29521	keystroke_v	v	n/a
14.8505	0.165	29701	keystroke_e	e	n/a
14.9555	0.105	29911	keystroke_r	r	n/a
15.0305	0.105	30061	keystroke_Key.space	Key.space	n/a
15.2555	0.15	30511	keystroke_a	a	n/a
15.3755	0.09	30751	keystroke_Key.space	Key.space	n/a
15.5855	0.12	31171	keystroke_l	l	n/a
15.7205	0.075	31441	keystroke_a	a	n/a
15.9305	0.12	31861	keystroke_z	z	n/a
16.0205	0.06	32041	keystroke_y	y	n/a
16.2305	0.105	32461	keystroke_Key.space	Key.space	n/a
16.6055	0.09	33211	keystroke_d	d	n/a
16.6805	0.09	33361	keystroke_o	o	n/a
16.7855	0.09	33571	keystroke_g	g	n/a
17.4905	0.105	34981	keystroke_Key.enter	Key.enter	n/a
17.608	17.09	35216	prompt	n/a	it'll disposition factors refers\n
23.1785	0.012	46357	keystroke_i	i	n/a
23.2055	0.06	46411	keystroke_t	t	n/a
23.7605	0.045	47521	keystroke_l	l	n/a
23.8955	0.09	47791	keystroke_l	l	n/a
24.6305	0.045	49261	keystroke_Key.backspace	Key.backspace	n/a
24.7805	0.09	49561	keystroke_Key.backspace	Key.backspace	n/a
26.2805	0.135	52561	keystroke_'	'	n/a
27.3755	0.075	54751	keystroke_l	l	n/a
27.5255	0.075	55051	keystroke_l	l	n/a
28.2755	0.03	56551	keystroke_d	d	n/a
29.0705	0.09	58141	keystroke_Key.backspace	Key.backspace	n/a
29.2355	0.105	58471	keystroke_Key.space	Key.space	n/a
29.8805	0.06	59761	keystroke_d	d	n/a
29.9705	0.075	59941	keystroke_i	i	n/a
30.0605	0.105	60121	keystroke_s	s	n/a
30.2405	0.09	60481	keystroke_p	p	n/a
30.4205	0.09	60841	keystroke_o	o	n/a
30.6005	0.12	61201	keystroke_s	s	n/a
30.7355	0.075	61471	keystroke_i	i	n/a
30.9155	0.09	61831	keystroke_t	t	n/a
31.0205	0.045	62041	keystroke_i	i	n/a
31.1555	0.105	62311	keystroke_o	o	n/a
31.2155	0.06	62431	keystroke_n	n	n/a
31.3505	0.105	62701	keystroke_Key.space	Key.space	n/a
31.8005	0.06	63601	keystroke_f	f	n/a
32.1905	0.06	64381	keystroke_a	a	n/a
32.3855	0.12	64771	keystroke_c	c	n/a
32.6105	0.06	65221	keystroke_t	t	n/a
32.7305	0.105	65461	keystroke_o	o	n/a
32.7905	0.075	65581	keystroke_r	r	n/a
32.9855	0.105	65971	keystroke_s	s	n/a
33.1055	0.105	66211	keystroke_Key.space	Key.space	n/a
33.3455	0.12	66691	keystroke_r	r	n/a
33.4205	0.06	66841	keystroke_e	e	n/a
33.6155	0.075	67231	keystroke_f	f	n/a
33.7205	0.09	67441	keystroke_e	e	n/a
33.7955	0.09	67591	keystroke_r	r	n/a
33.9905	0.105	67981	keystroke_s	s	n/a
34.6205	0.075	69241	keystroke_Key.enter	Key.enter	n/a
34.703	11.95	69406	prompt	n/a	python developments refused stickers\n
35.3705	0.105	70741	keystroke_p	p	n/a
35.6405	0.06	71281	keystroke_y	y	n/a
35.8655	0.075	71731	keystroke_t	t	n/a
35.9105	0.06	71821	keystroke_h	h	n/a
35.9855	0.105	71971	keystroke_o	o	n/a
36.1205	0.09	72241	keystroke_n	n	n/a
36.2405	0.09	72481	keystroke_Key.space	Key.space	n/a
36.4955	0.045	72991	keystroke_d	d	n/a
36.6465	0.044	73293	keystroke_e	e	n/a
36.8255	0.075	73651	keystroke_v	v	n/a
36.8705	0.105	73741	keystroke_e	e	n/a
37.0205	0.09	74041	keystroke_l	l	n/a
37.2905	0.09	74581	keystroke_p	p	n/a
38.3405	0.06	76681	keystroke_Key.backspace	Key.backspace	n/a
38.6715	0.089	77343	keystroke_o	o	n/a
38.9105	0.06	77821	keystroke_p	p	n/a
39.3155	0.0905	78631	keystroke_m	m	n/a
39.4205	0.09	78841	keystroke_e	e	n/a
39.5405	0.075	79081	keystroke_n	n	n/a
39.5555	0.03	79111	keystroke_t	t	n/a
40.3355	0.105	80671	keystroke_s	s	n/a
40.5455	0.135	81091	keystroke_Key.space	Key.space	n/a
40.8905	0.12	81781	keystroke_r	r	n/a
40.9665	0.074	81933	keystroke_e	e	n/a
41.1605	0.105	82321	keystroke_f	f	n/a
41.2955	0.075	82591	keystroke_u	u	n/a
41.4455	0.151	82891	keystroke_s	s	n/a
41.5815	0.074	83163	keystroke_t	t	n/a
41.6105	0.03	83221	keystroke_r	r	n/a
41.6255	0.075	83251	keystroke_e	e	n/a
42.5855	0.105	85171	keystroke_Key.backspace	Key.backspace	n/a
42.8705	0.105	85741	keystroke_Key.backspace	Key.backspace	n/a
43.5305	0.12	87061	keystroke_Key.backspace	Key.backspace	n/a
43.8005	0.06	87601	keystroke_e	e	n/a
43.9965	0.074	87993	keystroke_d	d	n/a
44.6855	0.105	89371	keystroke_Key.space	Key.space	n/a
45.2405	0.09	90481	keystroke_s	s	n/a
45.4505	0.075	90901	keystroke_t	t	n/a
45.5705	0.075	91141	keystroke_i	i	n/a
45.7055	0.105	91411	keystroke_c	c	n/a
45.8555	0.105	91711	keystroke_k	k	n/a
45.9455	0.135	91891	keystroke_e	e	n/a
46.0505	0.091	92101	keystroke_r	r	n/a
46.3055	0.106	92611	keystroke_s	s	n/a
46.5605	0.09	93121	keystroke_Key.enter	Key.enter	n/a
46.659	6.039	93318	prompt	n/a	weird that'll bids items\n
47.2805	0.105	94561	keystroke_w	w	n/a
47.5215	0.09	95043	keystroke_e	e	n/a
47.7455	0.105	95491	keystroke_i	i	n/a
47.8955	0.076	95791	keystroke_r	r	n/a
48.1215	0.104	96243	keystroke_d	d	n/a
48.2405	0.105	96481	keystroke_Key.space	Key.space	n/a
48.4805	0.09	96961	keystroke_t	t	n/a
48.5555	0.106	97111	keystroke_h	h	n/a
48.7215	0.194	97443	keystroke_a	a	n/a
49.4105	0.075	98821	keystroke_t	t	n/a
49.6515	0.09	99303	keystroke_'	'	n/a
49.9065	0.089	99813	keystroke_l	l	n/a
50.0705	0.076	100141	keystroke_l	l	n/a
50.2355	0.12	100471	keystroke_Key.space	Key.space	n/a
50.5215	0.075	101043	keystroke_b	b	n/a
50.7455	0.076	101491	keystroke_i	i	n/a
50.8515	0.074	101703	keystroke_d	d	n/a
51.0315	0.119	102063	keystroke_s	s	n/a
51.1805	0.105	102361	keystroke_Key.space	Key.space	n/a
51.4065	0.104	102813	keystroke_i	i	n/a
51.5255	0.06	103051	keystroke_t	t	n/a
51.5715	0.135	103143	keystroke_e	e	n/a
52.0515	0.134	104103	keystroke_m	m	n/a
52.3515	0.089	104703	keystroke_s	s	n/a
52.5905	0.105	105181	keystroke_Key.enter	Key.enter	n/a
52.7025	6.0415	105405	prompt	n/a	poly makers oval signed\n
53.3415	0.09	106683	keystroke_p	p	n/a
53.5515	0.045	107103	keystroke_o	o	n/a
53.7165	0.059	107433	keystroke_l	l	n/a
53.9115	0.06	107823	keystroke_y	y	n/a
54.0755	0.105	108151	keystroke_Key.space	Key.space	n/a
54.2855	0.061	108571	keystroke_m	m	n/a
54.4055	0.136	108811	keystroke_a	a	n/a
54.6915	0.074	109383	keystroke_k	k	n/a
55.2005	0.106	110401	keystroke_e	e	n/a
55.3515	0.089	110703	keystroke_r	r	n/a
55.6065	0.104	111213	keystroke_s	s	n/a
55.7555	0.105	111511	keystroke_Key.space	Key.space	n/a
55.9355	0.12	111871	keystroke_o	o	n/a
56.0715	0.119	112143	keystroke_v	v	n/a
56.2215	0.149	112443	keystroke_a	a	n/a
56.4015	0.09	112803	keystroke_l	l	n/a
56.5055	0.09	113011	keystroke_Key.space	Key.space	n/a
56.7755	0.121	113551	keystroke_s	s	n/a
57.4365	0.075	114873	keystroke_i	i	n/a
57.6765	0.089	115353	keystroke_g	g	n/a
57.8705	0.075	115741	keystroke_n	n	n/a
58.2165	0.06	116433	keystroke_e	e	n/a
58.4255	0.075	116851	keystroke_d	d	n/a
58.6515	0.089	117303	keystroke_Key.enter	Key.enter	n/a
58.749	12.954	117498	prompt	n/a	decorative described tucson courtesy\n
59.4765	0.074	118953	keystroke_d	d	n/a
59.6565	0.06	119313	keystroke_e	e	n/a
59.9115	0.104	119823	keystroke_c	c	n/a
60.4655	0.106	120931	keystroke_o	o	n/a
60.6465	0.149	121293	keystroke_r	r	n/a
60.8115	0.18	121623	keystroke_a	a	n/a
60.9765	0.089	121953	keystroke_t	t	n/a
61.1265	0.074	122253	keystroke_i	i	n/a
61.2465	0.15	122493	keystroke_v	v	n/a
61.3365	0.18	122673	keystroke_e	e	n/a
61.4715	0.089	122943	keystroke_Key.space	Key.space	n/a
61.6665	0.075	123333	keystroke_d	d	n/a
61.8305	0.075	123661	keystroke_e	e	n/a
62.0265	0.074	124053	keystroke_s	s	n/a
62.2515	0.104	124503	keystroke_c	c	n/a
62.5215	0.09	125043	keystroke_r	r	n/a
62.6265	0.075	125253	keystroke_i	i	n/a
62.8515	0.045	125703	keystroke_b	b	n/a
62.9405	0.076	125881	keystroke_e	e	n/a
63.1655	0.091	126331	keystroke_d	d	n/a
63.3155	0.106	126631	keystroke_Key.space	Key.space	n/a
64.1865	0.09	128373	keystroke_t	t	n/a
64.3515	0.075	128703	keystroke_u	u	n/a
64.5465	0.12	129093	keystroke_s	s	n/a
65.431	0.105	130862	keystroke_Key.backspace	Key.backspace	n/a
65.596	0.075	131192	keystroke_c	c	n/a
65.836	0.12	131672	keystroke_s	s	n/a
65.926	0.105	131852	keystroke_o	o	n/a
66.046	0.09	132092	keystroke_n	n	n/a
66.646	0.105	133292	keystroke_Key.space	Key.space	n/a
69.049	0.012	138098	keystroke_c	c	n/a
69.211	0.135	138422	keystroke_o	o	n/a
69.376	0.09	138752	keystroke_u	u	n/a
69.616	0.06	139232	keystroke_r	r	n/a
69.811	0.09	139622	keystroke_t	t	n/a
69.976	0.105	139952	keystroke_e	e	n/a
70.456	0.135	140912	keystroke_s	s	n/a
70.546	0.09	141092	keystroke_y	y	n/a
71.611	0.09	143222	keystroke_Key.enter	Key.enter	n/a
71.709	8.9945	143418	prompt	n/a	portfolio analytical query airports\n
72.4065	0.044	144813	keystroke_p	p	n/a
72.5865	0.105	145173	keystroke_o	o	n/a
72.7055	0.076	145411	keystroke_r	r	n/a
72.9165	0.075	145833	keystroke_t	t	n/a
73.9515	0.105	147903	keystroke_f	f	n/a
74.0415	0.075	148083	keystroke_o	o	n/a
74.2215	0.105	148443	keystroke_l	l	n/a
74.3265	0.105	148653	keystroke_i	i	n/a
74.5215	0.09	149043	keystroke_o	o	n/a
74.6415	0.105	149283	keystroke_Key.space	Key.space	n/a
74.9265	0.135	149853	keystroke_a	a	n/a
75.0465	0.075	150093	keystroke_n	n	n/a
75.1665	0.12	150333	keystroke_a	a	n/a
75.7665	0.059	151533	keystroke_l	l	n/a
75.8865	0.075	151773	keystroke_y	y	n/a
76.1855	0.076	152371	keystroke_t	t	n/a
76.2765	0.09	152553	keystroke_i	i	n/a
76.4115	0.135	152823	keystroke_c	c	n/a
76.5015	0.15	153003	keystroke_a	a	n/a
76.6365	0.09	153273	keystroke_l	l	n/a
76.7415	0.105	153483	keystroke_Key.space	Key.space	n/a
77.3565	0.105	154713	keystroke_q	q	n/a
77.4305	0.076	154861	keystroke_u	u	n/a
77.9265	0.105	155853	keystroke_e	e	n/a
78.0165	0.12	156033	keystroke_r	r	n/a
78.1965	0.075	156393	keystroke_y	y	n/a
78.6015	0.105	157203	keystroke_Key.space	Key.space	n/a
78.9915	0.12	157983	keystroke_a	a	n/a
79.1565	0.09	158313	keystroke_i	i	n/a
79.2165	0.12	158433	keystroke_r	r	n/a
79.5015	0.075	159003	keystroke_p	p	n/a
79.6515	0.12	159303	keystroke_o	o	n/a
79.7865	0.06	159573	keystroke_r	r	n/a
79.9515	0.075	159903	keystroke_t	t	n/a
80.0865	0.12	160173	keystroke_s	s	n/a
80.6265	0.075	161253	keystroke_Key.enter	Key.enter	n/a
80.712	6.1125	161424	prompt	n/a	nudist pretty webcam scale\n
81.4665	0.075	162933	keystroke_n	n	n/a
81.7365	0.045	163473	keystroke_u	u	n/a
81.8715	0.075	163743	keystroke_d	d	n/a
81.9615	0.075	163923	keystroke_i	i	n/a
82.0665	0.12	164133	keystroke_s	s	n/a
82.2315	0.075	164463	keystroke_t	t	n/a
82.3515	0.105	164703	keystroke_Key.space	Key.space	n/a
83.0715	0.075	166143	keystroke_p	p	n/a
83.2065	0.12	166413	keystroke_r	r	n/a
83.2815	0.135	166563	keystroke_e	e	n/a
83.5515	0.045	167103	keystroke_t	t	n/a
83.6565	0.06	167313	keystroke_t	t	n/a
83.7915	0.075	167583	keystroke_y	y	n/a
83.9265	0.09	167853	keystroke_Key.space	Key.space	n/a
84.2865	0.09	168573	keystroke_w	w	n/a
84.4365	0.075	168873	keystroke_e	e	n/a
84.6315	0.075	169263	keystroke_b	b	n/a
85.0065	0.15	170013	keystroke_c	c	n/a
85.1265	0.135	170253	keystroke_a	a	n/a
85.2765	0.075	170553	keystroke_m	m	n/a
85.4115	0.105	170823	keystroke_Key.space	Key.space	n/a
85.6065	0.09	171213	keystroke_s	s	n/a
85.8165	0.165	171633	keystroke_c	c	n/a
85.9365	0.15	171873	keystroke_a	a	n/a
86.1015	0.12	172203	keystroke_l	l	n/a
86.2065	0.075	172413	keystroke_e	e	n/a
86.7315	0.09	173463	keystroke_Key.enter	Key.enter	n/a
86.83	4.478	173660	prompt	n/a	former lighting pipe images\n
87.4665	0.075	174933	keystroke_f	f	n/a
87.5565	0.105	175113	keystroke_o	o	n/a
87.6625	0.089	175325	keystroke_r	r	n/a
87.7965	0.075	175593	keystroke_m	m	n/a
87.8865	0.12	175773	keystroke_e	e	n/a
88.0215	0.075	176043	keystroke_r	r	n/a
88.2765	0.12	176553	keystroke_Key.space	Key.space	n/a
88.4565	0.105	176913	keystroke_l	l	n/a
88.6365	0.075	177273	keystroke_i	i	n/a
88.7125	0.074	177425	keystroke_g	g	n/a
88.8315	0.075	177663	keystroke_h	h	n/a
88.9215	0.105	177843	keystroke_t	t	n/a
89.0565	0.135	178113	keystroke_i	i	n/a
89.1465	0.09	178293	keystroke_n	n	n/a
89.2215	0.105	178443	keystroke_g	g	n/a
89.3265	0.105	178653	keystroke_Key.space	Key.space	n/a
89.5365	0.06	179073	keystroke_p	p	n/a
89.7165	0.075	179433	keystroke_i	i	n/a
89.8965	0.105	179793	keystroke_p	p	n/a
90.0315	0.135	180063	keystroke_e	e	n/a
90.1515	0.105	180303	keystroke_Key.space	Key.space	n/a
90.3315	0.075	180663	keystroke_i	i	n/a
90.4965	0.09	180993	keystroke_m	m	n/a
90.6015	0.135	181203	keystroke_a	a	n/a
90.7665	0.105	181533	keystroke_g	g	n/a
90.8265	0.105	181653	keystroke_e	e	n/a
91.0365	0.135	182073	keystroke_s	s	n/a
91.1865	0.12	182373	keystroke_Key.enter	Key.enter	n/a
91.3145	7.4045	182629	prompt	n/a	customers actors perfectly solved\n
91.9065	0.105	183813	keystroke_c	c	n/a
92.1315	0.06	184263	keystroke_u	u	n/a
92.2965	0.105	184593	keystroke_s	s	n/a
92.4615	0.09	184923	keystroke_t	t	n/a
92.5815	0.105	185163	keystroke_o	o	n/a
92.7465	0.09	185493	keystroke_m	m	n/a
92.8815	0.15	185763	keystroke_e	e	n/a
93.0015	0.075	186003	keystroke_r	r	n/a
93.2265	0.105	186453	keystroke_s	s	n/a
93.3615	0.09	186723	keystroke_Key.space	Key.space	n/a
93.6015	0.105	187203	keystroke_a	a	n/a
93.8115	0.181	187623	keystroke_c	c	n/a
94.0215	0.12	188043	keystroke_t	t	n/a
94.1565	0.12	188313	keystroke_o	o	n/a
94.3065	0.15	188613	keystroke_r	r	n/a
94.6515	0.105	189303	keystroke_s	s	n/a
94.8015	0.12	189603	keystroke_Key.space	Key.space	n/a
95.2515	0.105	190503	keystroke_p	p	n/a
95.4615	0.165	190923	keystroke_e	e	n/a
95.7915	0.105	191583	keystroke_r	r	n/a
96.1365	0.06	192273	keystroke_f	f	n/a
96.2865	0.06	192573	keystroke_e	e	n/a
96.5265	0.1355	193053	keystroke_c	c	n/a
96.6315	0.12	193263	keystroke_t	t	n/a
96.7815	0.09	193563	keystroke_l	l	n/a
96.9765	0.06	193953	keystroke_y	y	n/a
97.0665	0.105	194133	keystroke_Key.space	Key.space	n/a
97.2315	0.12	194463	keystroke_s	s	n/a
97.3515	0.075	194703	keystroke_o	o	n/a
97.5465	0.09	195093	keystroke_l	l	n/a
97.6515	0.105	195303	keystroke_v	v	n/a
97.7565	0.12	195513	keystroke_e	e	n/a
98.0715	0.075	196143	keystroke_d	d	n/a
98.6265	0.09	197253	keystroke_Key.enter	Key.enter	n/a
98.725	10.599	197450	prompt	n/a	claim silver adrian proposition\n
99.4665	0.135	198933	keystroke_c	c	n/a
100.0065	0.105	200013	keystroke_l	l	n/a
100.1415	0.165	200283	keystroke_a	a	n/a
100.3215	0.06	200643	keystroke_i	i	n/a
100.4715	0.075	200943	keystroke_m	m	n/a
101.1615	0.09	202323	keystroke_Key.space	Key.space	n/a
101.4165	0.135	202833	keystroke_s	s	n/a
101.5525	0.074	203105	keystroke_i	i	n/a
101.7315	0.12	203463	keystroke_l	l	n/a
101.8665	0.09	203733	keystroke_v	v	n/a
102.0015	0.135	204003	keystroke_e	e	n/a
102.0765	0.135	204153	keystroke_r	r	n/a
102.1965	0.105	204393	keystroke_Key.space	Key.space	n/a
102.4665	0.15	204933	keystroke_a	a	n/a
102.9165	0.09	205833	keystroke_d	d	n/a
103.1715	0.12	206343	keystroke_r	r	n/a
103.2765	0.075	206553	keystroke_i	i	n/a
103.4415	0.06	206883	keystroke_n	n	n/a
103.4715	0.135	206943	keystroke_a	a	n/a
104.4165	0.09	208833	keystroke_Key.backspace	Key.backspace	n/a
104.6115	0.06	209223	keystroke_Key.backspace	Key.backspace	n/a
104.8515	0.135	209703	keystroke_a	a	n/a
104.9415	0.06	209883	keystroke_n	n	n/a
105.5265	0.09	211053	keystroke_Key.space	Key.space	n/a
105.8415	0.135	211683	keystroke_p	p	n/a
106.0665	0.135	212133	keystroke_r	r	n/a
106.1865	0.12	212373	keystroke_o	o	n/a
107.8215	0.12	215643	keystroke_p	p	n/a
108.2265	0.105	216453	keystroke_o	o	n/a
108.3765	0.135	216753	keystroke_s	s	n/a
108.4815	0.075	216963	keystroke_i	i	n/a
108.6165	0.105	217233	keystroke_t	t	n/a
108.7065	0.09	217413	keystroke_i	i	n/a
108.8865	0.12	217773	keystroke_o	o	n/a
108.9765	0.09	217953	keystroke_n	n	n/a
109.2465	0.075	218493	keystroke_Key.enter	Key.enter	n/a
109.33	10.284	218660	prompt	n/a	logs vote messaging britannica\n
110.0865	0.06	220173	keystroke_l	l	n/a
110.2665	0.09	220533	keystroke_o	o	n/a
110.3715	0.075	220743	keystroke_g	g	n/a
110.6415	0.15	221283	keystroke_s	s	n/a
110.8065	0.105	221613	keystroke_Key.space	Key.space	n/a
111.046	0.09	222092	keystroke_v	v	n/a
111.1515	0.09	222303	keystroke_o	o	n/a
111.4065	0.1195	222813	keystroke_t	t	n/a
111.511	0.12	223022	keystroke_e	e	n/a
111.6765	0.12	223353	keystroke_Key.space	Key.space	n/a
112.261	0.0755	224522	keystroke_m	m	n/a
112.366	0.105	224732	keystroke_e	e	n/a
112.591	0.09	225182	keystroke_s	s	n/a
112.7565	0.1195	225513	keystroke_s	s	n/a
112.906	0.18	225812	keystroke_a	a	n/a
113.1015	0.1195	226203	keystroke_g	g	n/a
113.176	0.12	226352	keystroke_e	e	n/a
113.521	0.105	227042	keystroke_i	i	n/a
113.641	0.09	227282	keystroke_n	n	n/a
113.716	0.135	227432	keystroke_g	g	n/a
113.866	0.045	227732	keystroke_Key.space	Key.space	n/a
114.256	0.105	228512	keystroke_Key.backspace	Key.backspace	n/a
114.451	0.105	228902	keystroke_Key.backspace	Key.backspace	n/a
114.676	0.09	229352	keystroke_Key.backspace	Key.backspace	n/a
114.916	0.12	229832	keystroke_Key.backspace	Key.backspace	n/a
115.201	0.09	230402	keystroke_Key.backspace	Key.backspace	n/a
115.471	0.075	230942	keystroke_i	i	n/a
115.621	0.06	231242	keystroke_n	n	n/a
115.756	0.135	231512	keystroke_g	g	n/a
115.921	0.12	231842	keystroke_Key.space	Key.space	n/a
117.391	0.06	234782	keystroke_b	b	n/a
117.631	0.105	235262	keystroke_r	r	n/a
117.766	0.105	235532	keystroke_i	i	n/a
118.156	0.105	236312	keystroke_t	t	n/a
118.262	0.149	236524	keystroke_a	a	n/a
118.501	0.045	237002	keystroke_n	n	n/a
118.666	0.045	237332	keystroke_n	n	n/a
118.786	0.105	237572	keystroke_i	i	n/a
118.921	0.165	237842	keystroke_c	c	n/a
119.056	0.165	238112	keystroke_a	a	n/a
119.521	0.09	239042	keystroke_Key.enter	Key.enter	n/a
119.6195	15.444	239239	prompt	n/a	andreas specification governments observation\n
120.526	0.135	241052	keystroke_a	a	n/a
120.646	0.09	241292	keystroke_n	n	n/a
120.766	0.09	241532	keystroke_d	d	n/a
120.976	0.105	241952	keystroke_r	r	n/a
121.006	0.165	242012	keystroke_e	e	n/a
121.291	0.105	242582	keystroke_a	a	n/a
121.471	0.12	242942	keystroke_s	s	n/a
121.636	0.12	243272	keystroke_Key.space	Key.space	n/a
123.6605	0.165	247321	keystroke_s	s	n/a
123.7955	0.12	247591	keystroke_p	p	n/a
124.0505	0.045	248101	keystroke_e	e	n/a
124.7105	0.12	249421	keystroke_c	c	n/a
124.8155	0.075	249631	keystroke_i	i	n/a
124.9355	0.09	249871	keystroke_f	f	n/a
125.0405	0.105	250081	keystroke_i	i	n/a
125.1605	0.165	250321	keystroke_c	c	n/a
125.3105	0.165	250621	keystroke_a	a	n/a
125.4305	0.12	250861	keystroke_t	t	n/a
125.5955	0.075	251191	keystroke_i	i	n/a
125.7305	0.15	251461	keystroke_o	o	n/a
125.8205	0.105	251641	keystroke_n	n	n/a
125.9405	0.12	251881	keystroke_Key.space	Key.space	n/a
126.3155	0.12	252631	keystroke_v	v	n/a
126.4505	0.12	252901	keystroke_o	o	n/a
127.1405	0.075	254281	keystroke_Key.backspace	Key.backspace	n/a
127.3055	0.075	254611	keystroke_Key.backspace	Key.backspace	n/a
127.4405	0.09	254881	keystroke_g	g	n/a
127.5465	0.104	255093	keystroke_o	o	n/a
128.1005	0.075	256201	keystroke_v	v	n/a
128.7905	0.15	257581	keystroke_e	e	n/a
128.8955	0.105	257791	keystroke_r	r	n/a
129.1505	0.075	258301	keystroke_n	n	n/a
129.3605	0.075	258721	keystroke_m	m	n/a
129.4505	0.12	258901	keystroke_e	e	n/a
129.5555	0.075	259111	keystroke_n	n	n/a
129.6755	0.12	259351	keystroke_t	t	n/a
129.9005	0.135	259801	keystroke_s	s	n/a
130.0505	0.09	260101	keystroke_Key.space	Key.space	n/a
130.3055	0.12	260611	keystroke_o	o	n/a
130.4555	0.105	260911	keystroke_v	v	n/a
131.3705	0.09	262741	keystroke_Key.backspace	Key.backspace	n/a
131.6705	0.06	263341	keystroke_b	b	n/a
131.8655	0.12	263731	keystroke_s	s	n/a
132.0165	0.164	264033	keystroke_e	e	n/a
132.1215	0.135	264243	keystroke_r	r	n/a
132.4955	0.105	264991	keystroke_v	v	n/a
132.6155	0.18	265231	keystroke_a	a	n/a
132.7805	0.12	265561	keystroke_t	t	n/a
132.9305	0.09	265861	keystroke_i	i	n/a
133.0505	0.165	266101	keystroke_o	o	n/a
133.1255	0.135	266251	keystroke_n	n	n/a
133.2615	0.104	266523	keystroke_o	o	n/a
134.1155	0.09	268231	keystroke_Key.backspace	Key.backspace	n/a
134.9855	0.075	269971	keystroke_Key.enter	Key.enter	n/a
135.0675	8.5155	270135	prompt	n/a	web defendant enhanced diploma\n
135.8115	0.104	271623	keystroke_w	w	n/a
135.9765	0.104	271953	keystroke_e	e	n/a
136.0815	0.075	272163	keystroke_b	b	n/a
136.2155	0.09	272431	keystroke_Key.space	Key.space	n/a
136.4105	0.06	272821	keystroke_d	d	n/a
136.5755	0.06	273151	keystroke_e	e	n/a
136.7715	0.074	273543	keystroke_f	f	n/a
136.9355	0.09	273871	keystroke_e	e	n/a
137.1315	0.089	274263	keystroke_n	n	n/a
137.2955	0.091	274591	keystroke_d	d	n/a
137.4305	0.166	274861	keystroke_a	a	n/a
137.5815	0.09	275163	keystroke_n	n	n/a
137.6865	0.119	275373	keystroke_t	t	n/a
137.8355	0.105	275671	keystroke_Key.space	Key.space	n/a
138.0305	0.091	276061	keystroke_e	e	n/a
138.3155	0.105	276631	keystroke_n	n	n/a
138.5565	0.074	277113	keystroke_h	h	n/a
138.6455	0.12	277291	keystroke_a	a	n/a
138.7955	0.09	277591	keystroke_n	n	n/a
138.9155	0.076	277831	keystroke_c	c	n/a
139.0805	0.075	278161	keystroke_e	e	n/a
139.2755	0.091	278551	keystroke_d	d	n/a
139.3805	0.105	278761	keystroke_Key.space	Key.space	n/a
139.6355	0.09	279271	keystroke_d	d	n/a
139.7555	0.075	279511	keystroke_i	i	n/a
139.9365	0.075	279873	keystroke_p	p	n/a
140.1315	0.075	280263	keystroke_l	l	n/a
140.3105	0.09	280621	keystroke_o	o	n/a
140.5365	0.075	281073	keystroke_m	m	n/a
142.2755	0.166	284551	keystroke_a	a	n/a
143.4605	0.12	286921	keystroke_Key.enter	Key.enter	n/a
143.589	7.164	287178	prompt	n/a	concerned mating widely thinks\n
144.3005	0.121	288601	keystroke_c	c	n/a
144.3905	0.105	288781	keystroke_o	o	n/a
144.5115	0.105	289023	keystroke_n	n	n/a
144.6305	0.091	289261	keystroke_c	c	n/a
145.2165	0.104	290433	keystroke_e	e	n/a
145.3815	0.104	290763	keystroke_r	r	n/a
145.5755	0.075	291151	keystroke_n	n	n/a
145.6655	0.075	291331	keystroke_e	e	n/a
145.8615	0.105	291723	keystroke_d	d	n/a
145.9665	0.134	291933	keystroke_Key.space	Key.space	n/a
146.1915	0.104	292383	keystroke_m	m	n/a
146.3555	0.166	292711	keystroke_a	a	n/a
146.6415	0.075	293283	keystroke_t	t	n/a
146.7315	0.149	293463	keystroke_i	i	n/a
146.8365	0.105	293673	keystroke_n	n	n/a
146.9265	0.15	293853	keystroke_g	g	n/a
147.0455	0.135	294091	keystroke_Key.space	Key.space	n/a
147.3905	0.076	294781	keystroke_i	i	n/a
148.0955	0.09	296191	keystroke_Key.backspace	Key.backspace	n/a
148.2615	0.119	296523	keystroke_w	w	n/a
148.3955	0.076	296791	keystroke_i	i	n/a
148.5005	0.076	297001	keystroke_d	d	n/a
148.6805	0.091	297361	keystroke_e	e	n/a
148.7865	0.089	297573	keystroke_l	l	n/a
148.9965	0.045	297993	keystroke_y	y	n/a
149.1305	0.105	298261	keystroke_Key.space	Key.space	n/a
149.6565	0.089	299313	keystroke_t	t	n/a
149.7615	0.044	299523	keystroke_h	h	n/a
149.8815	0.075	299763	keystroke_i	i	n/a
149.9715	0.089	299943	keystroke_n	n	n/a
150.1065	0.12	300213	keystroke_k	k	n/a
150.2865	0.09	300573	keystroke_s	s	n/a
150.6615	0.089	301323	keystroke_Key.enter	Key.enter	n/a
150.7575	6.431	301515	prompt	n/a	parker lined multimedia hudson\n
151.4715	0.104	302943	keystroke_p	p	n/a
151.6365	0.18	303273	keystroke_a	a	n/a
151.8015	0.12	303603	keystroke_r	r	n/a
152.0115	0.105	304023	keystroke_k	k	n/a
152.1305	0.181	304261	keystroke_e	e	n/a
152.2665	0.12	304533	keystroke_r	r	n/a
152.4005	0.105	304801	keystroke_Key.space	Key.space	n/a
152.5215	0.105	305043	keystroke_l	l	n/a
152.716	0.1055	305432	keystroke_i	i	n/a
152.7915	0.105	305583	keystroke_n	n	n/a
152.8805	0.075	305761	keystroke_e	e	n/a
153.0615	0.105	306123	keystroke_d	d	n/a
153.1365	0.134	306273	keystroke_Key.space	Key.space	n/a
153.3615	0.045	306723	keystroke_m	m	n/a
153.5565	0.045	307113	keystroke_u	u	n/a
153.8415	0.09	307683	keystroke_l	l	n/a
154.4565	0.105	308913	keystroke_t	t	n/a
154.5615	0.075	309123	keystroke_i	i	n/a
154.7265	0.0895	309453	keystroke_m	m	n/a
154.846	0.09	309692	keystroke_e	e	n/a
155.0415	0.0895	310083	keystroke_d	d	n/a
155.146	0.0755	310292	keystroke_i	i	n/a
155.251	0.135	310502	keystroke_a	a	n/a
155.6105	0.1195	311221	keystroke_Key.space	Key.space	n/a
156.046	0.074	312092	keystroke_h	h	n/a
156.256	0.075	312512	keystroke_u	u	n/a
156.3615	0.09	312723	keystroke_d	d	n/a
156.6315	0.1195	313263	keystroke_s	s	n/a
156.721	0.149	313442	keystroke_o	o	n/a
156.825	0.076	313650	keystroke_n	n	n/a
157.066	0.12	314132	keystroke_Key.enter	Key.enter	n/a
157.194	8.0345	314388	prompt	n/a	pink temperature opinions hugo\n
157.996	0.075	315992	keystroke_p	p	n/a
158.206	0.06	316412	keystroke_i	i	n/a
158.341	0.075	316682	keystroke_n	n	n/a
158.521	0.09	317042	keystroke_k	k	n/a
158.655	0.09	317310	keystroke_Key.space	Key.space	n/a
158.941	0.105	317882	keystroke_t	t	n/a
159.015	0.121	318030	keystroke_e	e	n/a
159.1515	0.1045	318303	keystroke_m	m	n/a
159.346	0.105	318692	keystroke_p	p	n/a
159.496	0.18	318992	keystroke_e	e	n/a
161.221	0.105	322442	keystroke_r	r	n/a
161.356	0.1655	322712	keystroke_a	a	n/a
161.491	0.12	322982	keystroke_t	t	n/a
161.656	0.075	323312	keystroke_u	u	n/a
161.761	0.15	323522	keystroke_r	r	n/a
161.851	0.135	323702	keystroke_e	e	n/a
162.211	0.12	324422	keystroke_Key.space	Key.space	n/a
162.391	0.09	324782	keystroke_o	o	n/a
162.586	0.105	325172	keystroke_p	p	n/a
162.856	0.06	325712	keystroke_i	i	n/a
163.066	0.06	326132	keystroke_n	n	n/a
163.171	0.12	326342	keystroke_i	i	n/a
163.426	0.09	326852	keystroke_o	o	n/a
163.591	0.105	327182	keystroke_n	n	n/a
164.116	0.135	328232	keystroke_s	s	n/a
164.221	0.135	328442	keystroke_Key.space	Key.space	n/a
164.476	0.045	328952	keystroke_h	h	n/a
164.641	0.06	329282	keystroke_u	u	n/a
164.836	0.09	329672	keystroke_g	g	n/a
164.941	0.075	329882	keystroke_o	o	n/a
165.151	0.075	330302	keystroke_Key.enter	Key.enter	n/a
165.2335	6.775	330467	prompt	n/a	organized tolerance jesus retired\n
165.961	0.105	331922	keystroke_o	o	n/a
166.081	0.075	332162	keystroke_r	r	n/a
166.681	0.09	333362	keystroke_g	g	n/a
166.816	0.165	333632	keystroke_a	a	n/a
167.011	0.075	334022	keystroke_n	n	n/a
167.101	0.135	334202	keystroke_i	i	n/a
167.206	0.165	334412	keystroke_z	z	n/a
167.356	0.075	334712	keystroke_e	e	n/a
167.536	0.12	335072	keystroke_d	d	n/a
167.671	0.105	335342	keystroke_Key.space	Key.space	n/a
167.971	0.09	335942	keystroke_t	t	n/a
168.061	0.075	336122	keystroke_o	o	n/a
168.256	0.105	336512	keystroke_l	l	n/a
168.346	0.195	336692	keystroke_e	e	n/a
168.526	0.12	337052	keystroke_r	r	n/a
168.751	0.12	337502	keystroke_a	a	n/a
168.886	0.075	337772	keystroke_n	n	n/a
169.021	0.075	338042	keystroke_c	c	n/a
169.186	0.105	338372	keystroke_e	e	n/a
169.321	0.105	338642	keystroke_Key.space	Key.space	n/a
169.561	0.075	339122	keystroke_j	j	n/a
169.681	0.075	339362	keystroke_e	e	n/a
169.921	0.09	339842	keystroke_s	s	n/a
170.026	0.075	340052	keystroke_u	u	n/a
170.116	0.105	340232	keystroke_s	s	n/a
170.281	0.09	340562	keystroke_Key.space	Key.space	n/a
170.776	0.09	341552	keystroke_r	r	n/a
170.896	0.12	341792	keystroke_e	e	n/a
171.121	0.105	342242	keystroke_t	t	n/a
171.271	0.09	342542	keystroke_i	i	n/a
171.376	0.135	342752	keystroke_r	r	n/a
171.451	0.12	342902	keystroke_e	e	n/a
171.751	0.09	343502	keystroke_d	d	n/a
171.931	0.075	343862	keystroke_Key.enter	Key.enter	n/a
172.017	9.6665	344034	prompt	n/a	exchange urls brick analyzes\n
172.681	0.06	345362	keystroke_e	e	n/a
172.906	0.105	345812	keystroke_x	x	n/a
173.221	0.12	346442	keystroke_c	c	n/a
173.356	0.075	346712	keystroke_h	h	n/a
173.461	0.135	346922	keystroke_a	a	n/a
173.566	0.075	347132	keystroke_n	n	n/a
173.686	0.135	347372	keystroke_g	g	n/a
173.791	0.165	347582	keystroke_e	e	n/a
174.016	0.105	348032	keystroke_Key.space	Key.space	n/a
174.301	0.06	348602	keystroke_u	u	n/a
174.436	0.12	348872	keystroke_r	r	n/a
174.601	0.09	349202	keystroke_l	l	n/a
174.841	0.09	349682	keystroke_s	s	n/a
174.961	0.105	349922	keystroke_Key.space	Key.space	n/a
175.231	0.06	350462	keystroke_b	b	n/a
175.396	0.075	350792	keystroke_r	r	n/a
175.501	0.075	351002	keystroke_i	i	n/a
175.846	0.12	351692	keystroke_c	c	n/a
175.951	0.09	351902	keystroke_k	k	n/a
176.056	0.105	352112	keystroke_Key.space	Key.space	n/a
176.491	0.15	352982	keystroke_a	a	n/a
176.656	0.06	353312	keystroke_n	n	n/a
177.106	0.15	354212	keystroke_a	a	n/a
177.211	0.075	354422	keystroke_y	y	n/a
178.261	0.09	356522	keystroke_Key.backspace	Key.backspace	n/a
178.576	0.105	357152	keystroke_l	l	n/a
178.921	0.075	357842	keystroke_y	y	n/a
179.506	0.09	359012	keystroke_z	z	n/a
179.701	0.135	359402	keystroke_e	e	n/a
179.776	0.105	359552	keystroke_r	r	n/a
180.736	0.09	361472	keystroke_Key.backspace	Key.backspace	n/a
180.916	0.12	361832	keystroke_s	s	n/a
181.576	0.105	363152	keystroke_Key.enter	Key.enter	n/a
181.688	8.949	363376	prompt	n/a	radical victor applicant conversation\n
182.5805	0.105	365161	keystroke_r	r	n/a
182.7905	0.09	365581	keystroke_a	a	n/a
183.0455	0.09	366091	keystroke_d	d	n/a
183.1505	0.09	366301	keystroke_i	i	n/a
183.2705	0.135	366541	keystroke_c	c	n/a
183.3605	0.15	366721	keystroke_a	a	n/a
183.5405	0.105	367081	keystroke_l	l	n/a
183.6305	0.105	367261	keystroke_Key.space	Key.space	n/a
183.8555	0.105	367711	keystroke_v	v	n/a
183.9615	0.074	367923	keystroke_i	i	n/a
184.1255	0.09	368251	keystroke_c	c	n/a
184.3055	0.075	368611	keystroke_t	t	n/a
184.4405	0.12	368881	keystroke_o	o	n/a
184.5305	0.105	369061	keystroke_r	r	n/a
184.6505	0.105	369301	keystroke_Key.space	Key.space	n/a
184.8455	0.12	369691	keystroke_a	a	n/a
184.9805	0.09	369961	keystroke_p	p	n/a
185.1455	0.075	370291	keystroke_p	p	n/a
185.3555	0.105	370711	keystroke_l	l	n/a
185.4755	0.105	370951	keystroke_i	i	n/a
185.6705	0.18	371341	keystroke_c	c	n/a
185.8205	0.165	371641	keystroke_a	a	n/a
185.9105	0.075	371821	keystroke_t	t	n/a
186.0305	0.075	372061	keystroke_n	n	n/a
186.9005	0.045	373801	keystroke_Key.backspace	Key.backspace	n/a
187.1405	0.045	374281	keystroke_Key.backspace	Key.backspace	n/a
187.4855	0.045	374971	keystroke_n	n	n/a
188.1005	0.09	376201	keystroke_t	t	n/a
188.2055	0.105	376411	keystroke_Key.space	Key.space	n/a
188.4455	0.105	376891	keystroke_c	c	n/a
188.5955	0.09	377191	keystroke_o	o	n/a
188.7005	0.105	377401	keystroke_n	n	n/a
188.8355	0.12	377671	keystroke_v	v	n/a
189.0005	0.165	378001	keystroke_e	e	n/a
189.0755	0.135	378151	keystroke_r	r	n/a
189.3605	0.135	378721	keystroke_s	s	n/a
189.5255	0.195	379051	keystroke_a	a	n/a
189.6605	0.105	379321	keystroke_t	t	n/a
189.7955	0.09	379591	keystroke_i	i	n/a
189.9305	0.135	379861	keystroke_o	o	n/a
190.0355	0.105	380071	keystroke_n	n	n/a
190.5155	0.12	381031	keystroke_Key.enter	Key.enter	n/a
190.6435	14.289	381287	prompt	n/a	contained peripherals torture creation\n
191.3105	0.135	382621	keystroke_c	c	n/a
191.4305	0.12	382861	keystroke_o	o	n/a
191.5355	0.12	383071	keystroke_n	n	n/a
191.7005	0.12	383401	keystroke_r	r	n/a
191.7155	0.09	383431	keystroke_t	t	n/a
191.7905	0.18	383581	keystroke_a	a	n/a
192.0005	0.12	384001	keystroke_i	i	n/a
192.1655	0.105	384331	keystroke_n	n	n/a
192.2715	0.089	384543	keystroke_e	e	n/a
192.4655	0.09	384931	keystroke_d	d	n/a
192.6155	0.135	385231	keystroke_Key.space	Key.space	n/a
194.2955	0.105	388591	keystroke_Key.backspace	Key.backspace	n/a
194.5055	0.105	389011	keystroke_Key.backspace	Key.backspace	n/a
194.7305	0.09	389461	keystroke_Key.backspace	Key.backspace	n/a
194.9105	0.105	389821	keystroke_Key.backspace	Key.backspace	n/a
195.1205	0.09	390241	keystroke_Key.backspace	Key.backspace	n/a
195.3305	0.105	390661	keystroke_Key.backspace	Key.backspace	n/a
195.5555	0.09	391111	keystroke_Key.backspace	Key.backspace	n/a
195.7655	0.075	391531	keystroke_Key.backspace	Key.backspace	n/a
195.9605	0.135	391921	keystroke_t	t	n/a
196.0655	0.165	392131	keystroke_a	a	n/a
196.2905	0.09	392581	keystroke_i	i	n/a
196.4555	0.105	392911	keystroke_n	n	n/a
196.5905	0.075	393181	keystroke_e	e	n/a
197.1305	0.09	394261	keystroke_d	d	n/a
197.2655	0.105	394531	keystroke_Key.space	Key.space	n/a
197.5205	0.09	395041	keystroke_p	p	n/a
197.8205	0.165	395641	keystroke_e	e	n/a
199.5005	0.135	399001	keystroke_r	r	n/a
199.6655	0.075	399331	keystroke_i	i	n/a
199.9205	0.045	399841	keystroke_p	p	n/a
200.1005	0.075	400201	keystroke_h	h	n/a
200.2205	0.12	400441	keystroke_e	e	n/a
200.7755	0.135	401551	keystroke_r	r	n/a
200.8805	0.12	401761	keystroke_a	a	n/a
201.0155	0.12	402031	keystroke_l	l	n/a
201.1505	0.105	402301	keystroke_s	s	n/a
201.6455	0.105	403291	keystroke_Key.space	Key.space	n/a
201.9905	0.075	403981	keystroke_t	t	n/a
202.1705	0.12	404341	keystroke_o	o	n/a
202.3805	0.09	404761	keystroke_r	r	n/a
202.6955	0.09	405391	keystroke_t	t	n/a
202.8005	0.075	405601	keystroke_u	u	n/a
202.9055	0.1195	405811	keystroke_r	r	n/a
202.9655	0.12	405931	keystroke_e	e	n/a
203.1605	0.105	406321	keystroke_Key.space	Key.space	n/a
203.4305	0.0745	406861	keystroke_c	c	n/a
203.655	0.135	407310	keystroke_r	r	n/a
203.7005	0.135	407401	keystroke_e	e	n/a
203.985	0.1505	407970	keystroke_a	a	n/a
204.1655	0.105	408331	keystroke_t	t	n/a
204.3005	0.075	408601	keystroke_i	i	n/a
204.465	0.1355	408930	keystroke_o	o	n/a
204.57	0.0905	409140	keystroke_n	n	n/a
204.8405	0.0895	409681	keystroke_Key.enter	Key.enter	n/a
204.9385	7.074	409877	prompt	n/a	spirituality violations stations parts\n
205.6055	0.1195	411211	keystroke_s	s	n/a
205.8155	0.075	411631	keystroke_p	p	n/a
205.9955	0.0895	411991	keystroke_i	i	n/a
206.235	0.105	412470	keystroke_r	r	n/a
206.3555	0.09	412711	keystroke_i	i	n/a
206.4905	0.1045	412981	keystroke_t	t	n/a
206.5805	0.075	413161	keystroke_u	u	n/a
206.73	0.135	413460	keystroke_a	a	n/a
206.8505	0.0745	413701	keystroke_l	l	n/a
207.06	0.075	414120	keystroke_i	i	n/a
207.195	0.105	414390	keystroke_t	t	n/a
207.285	0.075	414570	keystroke_y	y	n/a
207.405	0.105	414810	keystroke_Key.space	Key.space	n/a
207.765	0.105	415530	keystroke_v	v	n/a
207.825	0.0755	415650	keystroke_i	i	n/a
208.005	0.075	416010	keystroke_o	o	n/a
208.17	0.09	416340	keystroke_l	l	n/a
208.2755	0.1345	416551	keystroke_a	a	n/a
208.3955	0.105	416791	keystroke_t	t	n/a
208.516	0.0895	417032	keystroke_i	i	n/a
208.59	0.1655	417180	keystroke_o	o	n/a
208.71	0.0905	417420	keystroke_n	n	n/a
208.8305	0.1195	417661	keystroke_s	s	n/a
208.8755	0.1345	417751	keystroke_Key.space	Key.space	n/a
209.2805	0.0895	418561	keystroke_s	s	n/a
209.4305	0.1045	418861	keystroke_t	t	n/a
209.55	0.135	419100	keystroke_a	a	n/a
209.745	0.1055	419490	keystroke_t	t	n/a
209.851	0.089	419702	keystroke_i	i	n/a
209.985	0.1355	419970	keystroke_o	o	n/a
210.045	0.121	420090	keystroke_n	n	n/a
210.167	0.149	420334	keystroke_s	s	n/a
210.285	0.105	420570	keystroke_Key.space	Key.space	n/a
210.48	0.1205	420960	keystroke_p	p	n/a
210.615	0.165	421230	keystroke_a	a	n/a
210.735	0.061	421470	keystroke_r	r	n/a
210.87	0.075	421740	keystroke_t	t	n/a
211.005	0.105	422010	keystroke_s	s	n/a
211.9205	0.0895	423841	keystroke_Key.enter	Key.enter	n/a
212.0165	7.0465	424033	prompt	n/a	pack vegetarian receives templates\n
212.7	0.09	425400	keystroke_p	p	n/a
212.805	0.12	425610	keystroke_a	a	n/a
213.015	0.12	426030	keystroke_c	c	n/a
213.15	0.075	426300	keystroke_k	k	n/a
213.24	0.09	426480	keystroke_Key.space	Key.space	n/a
213.54	0.09	427080	keystroke_v	v	n/a
213.735	0.09	427470	keystroke_e	e	n/a
213.975	0.12	427950	keystroke_g	g	n/a
214.11	0.1055	428220	keystroke_e	e	n/a
214.306	0.089	428612	keystroke_t	t	n/a
214.455	0.195	428910	keystroke_a	a	n/a
214.62	0.12	429240	keystroke_r	r	n/a
214.785	0.09	429570	keystroke_i	i	n/a
214.905	0.151	429810	keystroke_a	a	n/a
215.04	0.075	430080	keystroke_n	n	n/a
215.13	0.105	430260	keystroke_Key.space	Key.space	n/a
215.4	0.27	430800	keystroke_r	r	n/a
215.61	0.105	431220	keystroke_e	e	n/a
215.91	0.075	431820	keystroke_c	c	n/a
216.12	0.09	432240	keystroke_e	e	n/a
216.256	0.134	432512	keystroke_i	i	n/a
216.375	0.12	432750	keystroke_v	v	n/a
216.435	0.105	432870	keystroke_e	e	n/a
216.945	0.12	433890	keystroke_s	s	n/a
217.08	0.12	434160	keystroke_Key.space	Key.space	n/a
217.306	0.119	434612	keystroke_t	t	n/a
217.711	0.105	435422	keystroke_e	e	n/a
217.846	0.089	435692	keystroke_m	m	n/a
218.041	0.074	436082	keystroke_p	p	n/a
218.236	0.089	436472	keystroke_l	l	n/a
218.31	0.165	436620	keystroke_a	a	n/a
218.461	0.074	436922	keystroke_t	t	n/a
218.49	0.12	436980	keystroke_e	e	n/a
218.775	0.105	437550	keystroke_s	s	n/a
218.97	0.09	437940	keystroke_Key.enter	Key.enter	n/a
219.069	6.7885	438138	prompt	n/a	monetary featured was trends\n
219.765	0.075	439530	keystroke_m	m	n/a
220.59	0.106	441180	keystroke_o	o	n/a
220.86	0.09	441720	keystroke_n	n	n/a
220.981	0.089	441962	keystroke_e	e	n/a
221.236	0.074	442472	keystroke_t	t	n/a
221.356	0.18	442712	keystroke_a	a	n/a
221.505	0.12	443010	keystroke_r	r	n/a
221.67	0.06	443340	keystroke_y	y	n/a
221.775	0.105	443550	keystroke_Key.space	Key.space	n/a
221.956	0.074	443912	keystroke_f	f	n/a
222.211	0.074	444422	keystroke_e	e	n/a
222.39	0.15	444780	keystroke_a	a	n/a
222.555	0.091	445110	keystroke_t	t	n/a
222.675	0.075	445350	keystroke_u	u	n/a
222.765	0.106	445530	keystroke_r	r	n/a
222.856	0.089	445712	keystroke_e	e	n/a
223.14	0.09	446280	keystroke_d	d	n/a
223.26	0.105	446520	keystroke_Key.space	Key.space	n/a
223.425	0.105	446850	keystroke_w	w	n/a
223.636	0.149	447272	keystroke_a	a	n/a
223.755	0.165	447510	keystroke_s	s	n/a
223.89	0.12	447780	keystroke_Key.space	Key.space	n/a
224.31	0.06	448620	keystroke_t	t	n/a
224.49	0.166	448980	keystroke_r	r	n/a
224.64	0.076	449280	keystroke_e	e	n/a
224.881	0.089	449762	keystroke_n	n	n/a
225.376	0.089	450752	keystroke_d	d	n/a
225.541	0.134	451082	keystroke_s	s	n/a
225.75	0.105	451500	keystroke_Key.enter	Key.enter	n/a
225.8625	7.4655	451725	prompt	n/a	thongs tops commented terrorists\n
226.665	0.09	453330	keystroke_t	t	n/a
226.785	0.076	453570	keystroke_h	h	n/a
227.011	0.074	454022	keystroke_o	o	n/a
227.116	0.105	454232	keystroke_n	n	n/a
227.235	0.09	454470	keystroke_g	g	n/a
227.701	0.119	455402	keystroke_s	s	n/a
227.835	0.121	455670	keystroke_Key.space	Key.space	n/a
228.106	0.105	456212	keystroke_t	t	n/a
228.195	0.09	456390	keystroke_o	o	n/a
228.361	0.135	456722	keystroke_p	p	n/a
228.51	0.151	457020	keystroke_s	s	n/a
228.63	0.12	457260	keystroke_Key.space	Key.space	n/a
229.021	0.105	458042	keystroke_c	c	n/a
229.14	0.136	458280	keystroke_o	o	n/a
229.261	0.104	458522	keystroke_m	m	n/a
229.576	0.089	459152	keystroke_m	m	n/a
229.755	0.076	459510	keystroke_e	e	n/a
230.25	0.106	460500	keystroke_n	n	n/a
230.431	0.105	460862	keystroke_t	t	n/a
230.49	0.105	460980	keystroke_e	e	n/a
230.746	0.105	461492	keystroke_d	d	n/a
230.835	0.105	461670	keystroke_Key.space	Key.space	n/a
231.105	0.091	462210	keystroke_t	t	n/a
231.421	0.104	462842	keystroke_e	e	n/a
231.706	0.045	463412	keystroke_r	r	n/a
231.841	0.06	463682	keystroke_r	r	n/a
231.931	0.09	463862	keystroke_o	o	n/a
232.081	0.09	464162	keystroke_r	r	n/a
232.201	0.105	464402	keystroke_i	i	n/a
232.531	0.12	465062	keystroke_s	s	n/a
232.666	0.089	465332	keystroke_t	t	n/a
232.846	0.105	465692	keystroke_s	s	n/a
233.25	0.075	466500	keystroke_Key.enter	Key.enter	n/a
233.3335	7.7205	466667	prompt	n/a	approximate teaching escape bedrooms\n
234.016	0.12	468032	keystroke_a	a	n/a
234.3	0.046	468600	keystroke_p	p	n/a
234.481	0.075	468962	keystroke_p	p	n/a
234.916	0.09	469832	keystroke_r	r	n/a
234.991	0.105	469982	keystroke_o	o	n/a
235.351	0.105	470702	keystroke_x	x	n/a
235.44	0.06	470880	keystroke_i	i	n/a
235.606	0.075	471212	keystroke_m	m	n/a
235.696	0.135	471392	keystroke_a	a	n/a
235.936	0.119	471872	keystroke_t	t	n/a
236.01	0.151	472020	keystroke_e	e	n/a
236.19	0.105	472380	keystroke_Key.space	Key.space	n/a
236.491	0.135	472982	keystroke_t	t	n/a
236.64	0.151	473280	keystroke_e	e	n/a
236.836	0.135	473672	keystroke_a	a	n/a
237.106	0.12	474212	keystroke_c	c	n/a
237.211	0.045	474422	keystroke_h	h	n/a
237.271	0.12	474542	keystroke_i	i	n/a
237.391	0.104	474782	keystroke_n	n	n/a
237.496	0.105	474992	keystroke_g	g	n/a
237.555	0.121	475110	keystroke_Key.space	Key.space	n/a
237.765	0.076	475530	keystroke_e	e	n/a
238.156	0.12	476312	keystroke_s	s	n/a
238.441	0.105	476882	keystroke_c	c	n/a
238.56	0.151	477120	keystroke_a	a	n/a
238.726	0.089	477452	keystroke_p	p	n/a
238.861	0.09	477722	keystroke_e	e	n/a
239.01	0.091	478020	keystroke_Key.space	Key.space	n/a
239.296	0.044	478592	keystroke_b	b	n/a
239.401	0.075	478802	keystroke_e	e	n/a
239.611	0.075	479222	keystroke_d	d	n/a
239.911	0.105	479822	keystroke_r	r	n/a
240.046	0.075	480092	keystroke_o	o	n/a
240.211	0.134	480422	keystroke_o	o	n/a
240.451	0.075	480902	keystroke_m	m	n/a
240.646	0.12	481292	keystroke_s	s	n/a
240.961	0.09	481922	keystroke_Key.enter	Key.enter	n/a
241.058	8.74	482116	prompt	n/a	drill additionally confidence singer\n
241.906	0.09	483812	keystroke_d	d	n/a
242.101	0.105	484202	keystroke_r	r	n/a
242.221	0.06	484442	keystroke_i	i	n/a
242.401	0.06	484802	keystroke_l	l	n/a
242.535	0.091	485070	keystroke_l	l	n/a
242.641	0.12	485282	keystroke_Key.space	Key.space	n/a
242.821	0.12	485642	keystroke_a	a	n/a
243.076	0.045	486152	keystroke_d	d	n/a
243.196	0.135	486392	keystroke_d	d	n/a
243.406	0.09	486812	keystroke_i	i	n/a
245.326	0.075	490652	keystroke_t	t	n/a
245.476	0.075	490952	keystroke_i	i	n/a
245.656	0.15	491312	keystroke_o	o	n/a
245.776	0.09	491552	keystroke_n	n	n/a
245.896	0.15	491792	keystroke_a	a	n/a
246.211	0.045	492422	keystroke_l	l	n/a
246.331	0.045	492662	keystroke_l	l	n/a
246.496	0.06	492992	keystroke_y	y	n/a
246.631	0.12	493262	keystroke_Key.space	Key.space	n/a
247.066	0.075	494132	keystroke_c	c	n/a
247.141	0.105	494282	keystroke_o	o	n/a
247.291	0.06	494582	keystroke_n	n	n/a
247.426	0.09	494852	keystroke_f	f	n/a
247.531	0.09	495062	keystroke_i	i	n/a
247.726	0.06	495452	keystroke_d	d	n/a
247.876	0.06	495752	keystroke_e	e	n/a
248.011	0.075	496022	keystroke_n	n	n/a
248.116	0.075	496232	keystroke_c	c	n/a
248.281	0.09	496562	keystroke_e	e	n/a
248.386	0.105	496772	keystroke_Key.space	Key.space	n/a
248.596	0.12	497192	keystroke_s	s	n/a
248.701	0.105	497402	keystroke_i	i	n/a
248.866	0.09	497732	keystroke_n	n	n/a
249.196	0.075	498392	keystroke_g	g	n/a
249.391	0.165	498782	keystroke_e	e	n/a
249.511	0.09	499022	keystroke_r	r	n/a
249.721	0.075	499442	keystroke_Key.enter	Key.enter	n/a
249.804	12.248	499608	prompt	n/a	andrew scheduling continuously cathedral\n
250.636	0.12	501272	keystroke_a	a	n/a
250.741	0.09	501482	keystroke_n	n	n/a
250.861	0.075	501722	keystroke_d	d	n/a
251.101	0.12	502202	keystroke_e	e	n/a
251.116	0.015	502232	keystroke_r	r	n/a
252.151	0.075	504302	keystroke_Key.backspace	Key.backspace	n/a
252.331	0.075	504662	keystroke_Key.backspace	Key.backspace	n/a
252.436	0.18	504872	keystroke_r	r	n/a
252.601	0.075	505202	keystroke_e	e	n/a
253.111	0.12	506222	keystroke_w	w	n/a
253.276	0.105	506552	keystroke_Key.space	Key.space	n/a
253.546	0.06	507092	keystroke_a	a	n/a
254.3855	0.12	508771	keystroke_Key.backspace	Key.backspace	n/a
254.6855	0.105	509371	keystroke_s	s	n/a
255.0155	0.09	510031	keystroke_c	c	n/a
255.1205	0.06	510241	keystroke_h	h	n/a
255.2255	0.06	510451	keystroke_e	e	n/a
255.4355	0.18	510871	keystroke_d	d	n/a
255.5405	0.06	511081	keystroke_u	u	n/a
255.7055	0.09	511411	keystroke_l	l	n/a
255.8555	0.105	511711	keystroke_i	i	n/a
255.9155	0.12	511831	keystroke_n	n	n/a
256.0355	0.12	512071	keystroke_g	g	n/a
256.1405	0.105	512281	keystroke_Key.space	Key.space	n/a
256.9055	0.105	513811	keystroke_c	c	n/a
257.0555	0.105	514111	keystroke_o	o	n/a
257.1905	0.105	514381	keystroke_n	n	n/a
257.3555	0.105	514711	keystroke_t	t	n/a
257.4905	0.09	514981	keystroke_i	i	n/a
257.6705	0.06	515341	keystroke_n	n	n/a
257.8505	0.06	515701	keystroke_u	u	n/a
258.0155	0.12	516031	keystroke_o	o	n/a
258.1505	0.06	516301	keystroke_u	u	n/a
258.3455	0.135	516691	keystroke_s	s	n/a
258.4205	0.09	516841	keystroke_l	l	n/a
258.6155	0.06	517231	keystroke_y	y	n/a
258.7655	0.135	517531	keystroke_Key.space	Key.space	n/a
259.2755	0.12	518551	keystroke_c	c	n/a
259.5155	0.15	519031	keystroke_a	a	n/a
259.7405	0.09	519481	keystroke_t	t	n/a
259.8455	0.09	519691	keystroke_h	h	n/a
260.1905	0.075	520381	keystroke_e	e	n/a
260.4305	0.09	520861	keystroke_f	f	n/a
261.2255	0.09	522451	keystroke_Key.backspace	Key.backspace	n/a
261.3305	0.09	522661	keystroke_d	d	n/a
261.5105	0.12	523021	keystroke_r	r	n/a
261.6005	0.135	523201	keystroke_a	a	n/a
261.6905	0.105	523381	keystroke_l	l	n/a
261.9905	0.06	523981	keystroke_Key.enter	Key.enter	n/a
262.0565	9.641	524113	prompt	n/a	scientist maintain churches prescribed\n
262.6955	0.09	525391	keystroke_s	s	n/a
262.9055	0.075	525811	keystroke_c	c	n/a
263.2355	0.075	526471	keystroke_i	i	n/a
263.3855	0.075	526771	keystroke_e	e	n/a
263.5355	0.075	527071	keystroke_n	n	n/a
263.6855	0.12	527371	keystroke_t	t	n/a
263.8205	0.105	527641	keystroke_i	i	n/a
263.9555	0.195	527911	keystroke_s	s	n/a
264.1055	0.135	528211	keystroke_t	t	n/a
264.2255	0.105	528451	keystroke_Key.space	Key.space	n/a
264.4205	0.075	528841	keystroke_m	m	n/a
264.5255	0.15	529051	keystroke_a	a	n/a
264.6455	0.12	529291	keystroke_i	i	n/a
264.7355	0.09	529471	keystroke_n	n	n/a
264.8555	0.12	529711	keystroke_t	t	n/a
264.9905	0.15	529981	keystroke_a	a	n/a
265.1105	0.135	530221	keystroke_i	i	n/a
265.2005	0.105	530401	keystroke_n	n	n/a
265.3205	0.12	530641	keystroke_Key.space	Key.space	n/a
265.9505	0.135	531901	keystroke_c	c	n/a
266.0705	0.06	532141	keystroke_h	h	n/a
266.2505	0.06	532501	keystroke_u	u	n/a
266.4005	0.135	532801	keystroke_r	r	n/a
266.7005	0.09	533401	keystroke_s	s	n/a
267.4655	0.06	534931	keystroke_Key.backspace	Key.backspace	n/a
267.6155	0.09	535231	keystroke_c	c	n/a
267.7205	0.0745	535441	keystroke_h	h	n/a
267.8255	0.09	535651	keystroke_e	e	n/a
268.035	0.105	536070	keystroke_s	s	n/a
268.125	0.12	536250	keystroke_Key.space	Key.space	n/a
268.56	0.0905	537120	keystroke_p	p	n/a
269.025	0.1355	538050	keystroke_r	r	n/a
269.1	0.09	538200	keystroke_e	e	n/a
269.3405	0.09	538681	keystroke_s	s	n/a
269.565	0.09	539130	keystroke_c	c	n/a
269.85	0.0905	539700	keystroke_r	r	n/a
269.925	0.075	539850	keystroke_i	i	n/a
270.975	0.105	541950	keystroke_b	b	n/a
271.125	0.075	542250	keystroke_e	e	n/a
271.32	0.09	542640	keystroke_d	d	n/a
271.62	0.0755	543240	keystroke_Key.enter	Key.enter	n/a
271.705	9.338	543410	prompt	n/a	brother budapest civilian adopt\n
272.325	0.075	544650	keystroke_b	b	n/a
272.5195	0.076	545039	keystroke_r	r	n/a
272.5805	0.09	545161	keystroke_o	o	n/a
272.7455	0.075	545491	keystroke_t	t	n/a
272.8505	0.06	545701	keystroke_h	h	n/a
272.8955	0.149	545791	keystroke_e	e	n/a
272.9705	0.15	545941	keystroke_r	r	n/a
273.0905	0.089	546181	keystroke_Key.space	Key.space	n/a
273.3155	0.06	546631	keystroke_b	b	n/a
273.5105	0.06	547021	keystroke_u	u	n/a
273.6755	0.15	547351	keystroke_d	d	n/a
273.8405	0.15	547681	keystroke_a	a	n/a
273.9755	0.09	547951	keystroke_p	p	n/a
274.1255	0.075	548251	keystroke_e	e	n/a
274.3655	0.105	548731	keystroke_s	s	n/a
274.5155	0.074	549031	keystroke_t	t	n/a
274.5905	0.09	549181	keystroke_Key.space	Key.space	n/a
274.8305	0.09	549661	keystroke_c	c	n/a
274.9505	0.075	549901	keystroke_i	i	n/a
275.1445	0.091	550289	keystroke_v	v	n/a
275.2505	0.09	550501	keystroke_i	i	n/a
278.4035	0.042	556807	keystroke_l	l	n/a
278.5055	0.075	557011	keystroke_i	i	n/a
278.6255	0.15	557251	keystroke_a	a	n/a
278.7305	0.075	557461	keystroke_n	n	n/a
278.8355	0.105	557671	keystroke_Key.space	Key.space	n/a
279.2105	0.12	558421	keystroke_a	a	n/a
279.4355	0.105	558871	keystroke_d	d	n/a
279.7205	0.09	559441	keystroke_o	o	n/a
279.9305	0.09	559861	keystroke_p	p	n/a
280.7255	0.075	561451	keystroke_t	t	n/a
280.9505	0.09	561901	keystroke_Key.enter	Key.enter	n/a
281.0485	14.829	562097	prompt	n/a	step genre develop thumbnails\n
281.7155	0.09	563431	keystroke_s	s	n/a
281.8805	0.105	563761	keystroke_t	t	n/a
281.9555	0.135	563911	keystroke_e	e	n/a
282.1205	0.09	564241	keystroke_p	p	n/a
282.2405	0.12	564481	keystroke_Key.space	Key.space	n/a
282.5405	0.105	565081	keystroke_g	g	n/a
282.8105	0.09	565621	keystroke_e	e	n/a
283.0355	0.09	566071	keystroke_n	n	n/a
283.2155	0.135	566431	keystroke_r	r	n/a
283.3055	0.09	566611	keystroke_e	e	n/a
283.4255	0.09	566851	keystroke_Key.space	Key.space	n/a
283.6355	0.075	567271	keystroke_d	d	n/a
283.8005	0.06	567601	keystroke_e	e	n/a
283.9955	0.09	567991	keystroke_v	v	n/a
284.0405	0.12	568081	keystroke_e	e	n/a
284.2205	0.075	568441	keystroke_l	l	n/a
284.4455	0.09	568891	keystroke_p	p	n/a
284.5955	0.105	569191	keystroke_Key.space	Key.space	n/a
284.8955	0.09	569791	keystroke_t	t	n/a
284.9555	0.045	569911	keystroke_h	h	n/a
285.1355	0.045	570271	keystroke_u	u	n/a
285.3005	0.075	570601	keystroke_m	m	n/a
285.5555	0.045	571111	keystroke_b	b	n/a
287.0405	0.03	574081	keystroke_Key.backspace	Key.backspace	n/a
287.2205	0.075	574441	keystroke_Key.backspace	Key.backspace	n/a
287.4005	0.105	574801	keystroke_Key.backspace	Key.backspace	n/a
287.6105	0.105	575221	keystroke_Key.backspace	Key.backspace	n/a
287.8355	0.09	575671	keystroke_Key.backspace	Key.backspace	n/a
288.0605	0.105	576121	keystroke_Key.backspace	Key.backspace	n/a
288.2705	0.075	576541	keystroke_Key.backspace	Key.backspace	n/a
288.5255	0.06	577051	keystroke_9	9	n/a
288.5405	0.03	577081	keystroke_o	o	n/a
289.3505	0.105	578701	keystroke_Key.backspace	Key.backspace	n/a
289.5455	0.06	579091	keystroke_Key.backspace	Key.backspace	n/a
289.8155	0.075	579631	keystroke_o	o	n/a
290.0555	0.075	580111	keystroke_p	p	n/a
291.0605	0.09	582121	keystroke_Key.space	Key.space	n/a
291.3305	0.09	582661	keystroke_t	t	n/a
291.4055	0.075	582811	keystroke_h	h	n/a
291.5855	0.03	583171	keystroke_u	u	n/a
291.7355	0.075	583471	keystroke_m	m	n/a
292.3805	0.075	584761	keystroke_n	n	n/a
293.2505	0.105	586501	keystroke_Key.backspace	Key.backspace	n/a
294.1505	0.075	588301	keystroke_b	b	n/a
294.7355	0.075	589471	keystroke_n	n	n/a
294.8255	0.15	589651	keystroke_a	a	n/a
294.9455	0.06	589891	keystroke_i	i	n/a
295.1705	0.165	590341	keystroke_l	l	n/a
295.6055	0.105	591211	keystroke_s	s	n/a
295.7705	0.105	591541	keystroke_Key.enter	Key.enter	n/a
295.882	8.155	591764	prompt	n/a	medicine thousand carriers avoid\n
296.6105	0.09	593221	keystroke_m	m	n/a
296.7455	0.06	593491	keystroke_e	e	n/a
296.9705	0.09	593941	keystroke_d	d	n/a
297.0615	0.089	594123	keystroke_i	i	n/a
297.2555	0.09	594511	keystroke_c	c	n/a
297.3605	0.06	594721	keystroke_i	i	n/a
297.4955	0.09	594991	keystroke_n	n	n/a
297.5705	0.105	595141	keystroke_e	e	n/a
297.7055	0.075	595411	keystroke_Key.space	Key.space	n/a
297.8855	0.075	595771	keystroke_t	t	n/a
298.0505	0.12	596101	keystroke_h	h	n/a
298.2905	0.135	596581	keystroke_o	o	n/a
298.3805	0.09	596761	keystroke_u	u	n/a
298.8305	0.135	597661	keystroke_s	s	n/a
298.9355	0.165	597871	keystroke_a	a	n/a
299.0855	0.105	598171	keystroke_n	n	n/a
299.2955	0.075	598591	keystroke_d	d	n/a
299.4005	0.12	598801	keystroke_Key.space	Key.space	n/a
299.6705	0.09	599341	keystroke_c	c	n/a
299.8355	0.135	599671	keystroke_a	a	n/a
300.0755	0.09	600151	keystroke_r	r	n/a
300.3605	0.105	600721	keystroke_r	r	n/a
300.5405	0.105	601081	keystroke_i	i	n/a
300.6755	0.15	601351	keystroke_e	e	n/a
300.8105	0.075	601621	keystroke_r	r	n/a
301.0505	0.105	602101	keystroke_s	s	n/a
301.1255	0.135	602251	keystroke_Key.space	Key.space	n/a
301.4555	0.105	602911	keystroke_v	v	n/a
302.19	0.1055	604380	keystroke_Key.backspace	Key.backspace	n/a
302.3105	0.135	604621	keystroke_a	a	n/a
302.745	0.135	605490	keystroke_v	v	n/a
302.85	0.105	605700	keystroke_o	o	n/a
303.03	0.105	606060	keystroke_i	i	n/a
303.15	0.09	606300	keystroke_d	d	n/a
303.9605	0.075	607921	keystroke_Key.enter	Key.enter	n/a
304.042	7.3155	608084	prompt	n/a	exceptions bios prix illustrations\n
304.845	0.0755	609690	keystroke_e	e	n/a
305.085	0.105	610170	keystroke_x	x	n/a
305.865	0.075	611730	keystroke_c	c	n/a
306.06	0.075	612120	keystroke_e	e	n/a
306.27	0.12	612540	keystroke_p	p	n/a
306.525	0.09	613050	keystroke_t	t	n/a
306.63	0.075	613260	keystroke_i	i	n/a
306.78	0.135	613560	keystroke_o	o	n/a
306.87	0.12	613740	keystroke_n	n	n/a
306.975	0.12	613950	keystroke_s	s	n/a
307.035	0.15	614070	keystroke_Key.space	Key.space	n/a
307.35	0.045	614700	keystroke_b	b	n/a
307.515	0.06	615030	keystroke_i	i	n/a
307.68	0.105	615360	keystroke_o	o	n/a
307.815	0.15	615630	keystroke_s	s	n/a
307.95	0.12	615900	keystroke_Key.space	Key.space	n/a
308.175	0.12	616350	keystroke_p	p	n/a
308.43	0.12	616860	keystroke_r	r	n/a
308.52	0.075	617040	keystroke_i	i	n/a
308.94	0.105	617880	keystroke_x	x	n/a
309.075	0.12	618150	keystroke_Key.space	Key.space	n/a
309.27	0.075	618540	keystroke_i	i	n/a
309.5105	0.074	619021	keystroke_l	l	n/a
309.6455	0.105	619291	keystroke_l	l	n/a
309.8395	0.061	619679	keystroke_u	u	n/a
309.9305	0.12	619861	keystroke_s	s	n/a
310.1105	0.075	620221	keystroke_t	t	n/a
310.2905	0.09	620581	keystroke_r	r	n/a
310.3645	0.15	620729	keystroke_a	a	n/a
310.4855	0.104	620971	keystroke_t	t	n/a
310.6205	0.105	621241	keystroke_i	i	n/a
310.741	0.1485	621482	keystroke_o	o	n/a
310.8155	0.12	621631	keystroke_n	n	n/a
310.9645	0.106	621929	keystroke_s	s	n/a
311.2805	0.075	622561	keystroke_Key.enter	Key.enter	n/a
311.363	7.465	622726	prompt	n/a	exactly prayer aimed built\n
312.1505	0.045	624301	keystroke_e	e	n/a
312.3755	0.135	624751	keystroke_x	x	n/a
312.8705	0.135	625741	keystroke_c	c	n/a
313.6805	0.09	627361	keystroke_Key.backspace	Key.backspace	n/a
313.8455	0.12	627691	keystroke_a	a	n/a
314.4005	0.12	628801	keystroke_c	c	n/a
314.5955	0.089	629191	keystroke_t	t	n/a
314.8805	0.105	629761	keystroke_l	l	n/a
315.1205	0.06	630241	keystroke_y	y	n/a
315.2255	0.105	630451	keystroke_Key.space	Key.space	n/a
315.3905	0.15	630781	keystroke_p	p	n/a
315.5255	0.165	631051	keystroke_r	r	n/a
315.6605	0.135	631321	keystroke_a	a	n/a
315.9905	0.06	631981	keystroke_y	y	n/a
316.0955	0.12	632191	keystroke_e	e	n/a
316.1705	0.12	632341	keystroke_r	r	n/a
316.3355	0.104	632671	keystroke_Key.space	Key.space	n/a
316.6955	0.135	633391	keystroke_a	a	n/a
316.8155	0.075	633631	keystroke_i	i	n/a
316.9655	0.09	633931	keystroke_m	m	n/a
317.0405	0.075	634081	keystroke_e	e	n/a
317.2355	0.09	634471	keystroke_d	d	n/a
317.3555	0.09	634711	keystroke_Key.space	Key.space	n/a
317.5655	0.045	635131	keystroke_b	b	n/a
317.7455	0.06	635491	keystroke_u	u	n/a
317.8955	0.075	635791	keystroke_i	i	n/a
318.0905	0.09	636181	keystroke_l	l	n/a
318.5555	0.09	637111	keystroke_t	t	n/a
318.7205	0.105	637441	keystroke_Key.enter	Key.enter	n/a
318.834	11.168	637668	prompt	n/a	panels broadband self hardware\n
319.5455	0.09	639091	keystroke_p	p	n/a
319.7855	0.15	639571	keystroke_a	a	n/a
319.8905	0.075	639781	keystroke_n	n	n/a
320.0555	0.075	640111	keystroke_l	l	n/a
320.82	0.09	641640	keystroke_Key.backspace	Key.backspace	n/a
321	0.075	642000	keystroke_e	e	n/a
321.12	0.105	642240	keystroke_l	l	n/a
321.255	0.105	642510	keystroke_s	s	n/a
321.66	0.12	643320	keystroke_Key.space	Key.space	n/a
322.035	0.075	644070	keystroke_b	b	n/a
322.23	0.09	644460	keystroke_r	r	n/a
322.305	0.09	644610	keystroke_o	o	n/a
322.41	0.12	644820	keystroke_a	a	n/a
322.56	0.12	645120	keystroke_d	d	n/a
322.845	0.06	645690	keystroke_n	n	n/a
322.935	0.135	645870	keystroke_a	a	n/a
323.685	0.12	647370	keystroke_Key.backspace	Key.backspace	n/a
323.88	0.075	647760	keystroke_Key.backspace	Key.backspace	n/a
324.135	0.061	648270	keystroke_b	b	n/a
324.24	0.135	648480	keystroke_a	a	n/a
324.39	0.06	648780	keystroke_n	n	n/a
324.51	0.075	649020	keystroke_d	d	n/a
324.63	0.12	649260	keystroke_Key.space	Key.space	n/a
325.035	0.165	650070	keystroke_s	s	n/a
325.17	0.09	650340	keystroke_e	e	n/a
325.305	0.12	650610	keystroke_l	l	n/a
325.47	0.105	650940	keystroke_f	f	n/a
325.605	0.105	651210	keystroke_Key.space	Key.space	n/a
325.905	0.06	651810	keystroke_f	f	n/a
326.625	0.045	653250	keystroke_Key.backspace	Key.backspace	n/a
326.925	0.075	653850	keystroke_r	r	n/a
327.48	0.075	654960	keystroke_Key.backspace	Key.backspace	n/a
327.735	0.06	655470	keystroke_h	h	n/a
328.2	0.18	656400	keystroke_a	a	n/a
328.365	0.075	656730	keystroke_r	r	n/a
328.575	0.075	657150	keystroke_d	d	n/a
328.77	0.075	657540	keystroke_w	w	n/a
328.95	0.18	657900	keystroke_a	a	n/a
329.115	0.105	658230	keystroke_r	r	n/a
329.16	0.136	658320	keystroke_e	e	n/a
329.895	0.105	659790	keystroke_Key.enter	Key.enter	n/a
330.0075	5.5445	660015	prompt	n/a	rate promoted invention thick\n
330.69	0.12	661380	keystroke_r	r	n/a
330.826	0.194	661652	keystroke_a	a	n/a
331.005	0.1055	662010	keystroke_t	t	n/a
331.065	0.15	662130	keystroke_e	e	n/a
331.23	0.12	662460	keystroke_Key.space	Key.space	n/a
331.425	0.12	662850	keystroke_p	p	n/a
331.59	0.106	663180	keystroke_r	r	n/a
331.71	0.06	663420	keystroke_o	o	n/a
331.875	0.075	663750	keystroke_m	m	n/a
331.995	0.12	663990	keystroke_o	o	n/a
332.13	0.135	664260	keystroke_t	t	n/a
332.22	0.09	664440	keystroke_e	e	n/a
332.445	0.105	664890	keystroke_d	d	n/a
332.535	0.12	665070	keystroke_Key.space	Key.space	n/a
332.745	0.105	665490	keystroke_i	i	n/a
332.82	0.09	665640	keystroke_n	n	n/a
332.985	0.105	665970	keystroke_v	v	n/a
333.135	0.12	666270	keystroke_e	e	n/a
333.27	0.076	666540	keystroke_n	n	n/a
333.391	0.089	666782	keystroke_t	t	n/a
333.495	0.076	666990	keystroke_i	i	n/a
333.6	0.12	667200	keystroke_o	o	n/a
333.69	0.105	667380	keystroke_n	n	n/a
333.81	0.135	667620	keystroke_Key.space	Key.space	n/a
334.77	0.09	669540	keystroke_t	t	n/a
334.845	0.06	669690	keystroke_h	h	n/a
334.935	0.075	669870	keystroke_i	i	n/a
335.19	0.105	670380	keystroke_c	c	n/a
335.28	0.075	670560	keystroke_k	k	n/a
335.46	0.09	670920	keystroke_Key.enter	Key.enter	n/a
335.557	8.89	671114	prompt	n/a	terrain attorney weather xerox\n
336.255	0.075	672510	keystroke_t	t	n/a
336.72	0.105	673440	keystroke_e	e	n/a
336.975	0.045	673950	keystroke_r	r	n/a
337.125	0.06	674250	keystroke_r	r	n/a
337.23	0.135	674460	keystroke_a	a	n/a
337.245	0.075	674490	keystroke_Key.caps_lock	Key.caps_lock	n/a
337.351	0.12	674702	keystroke_i	i	n/a
337.455	0.075	674910	keystroke_n	n	n/a
337.65	0.135	675300	keystroke_Key.space	Key.space	n/a
338.205	0.09	676410	keystroke_Key.backspace	Key.backspace	n/a
338.4	0.09	676800	keystroke_Key.backspace	Key.backspace	n/a
338.595	0.105	677190	keystroke_Key.backspace	Key.backspace	n/a
338.701	0.119	677402	keystroke_Key.caps_lock	Key.caps_lock	n/a
339.39	0.1355	678780	keystroke_i	i	n/a
339.4655	0.12	678931	keystroke_n	n	n/a
339.5705	0.12	679141	keystroke_Key.space	Key.space	n/a
339.7505	0.165	679501	keystroke_a	a	n/a
339.9755	0.09	679951	keystroke_t	t	n/a
340.1555	0.1045	680311	keystroke_t	t	n/a
340.41	0.09	680820	keystroke_o	o	n/a
340.7105	0.0895	681421	keystroke_r	r	n/a
340.9055	0.075	681811	keystroke_n	n	n/a
340.995	0.09	681990	keystroke_e	e	n/a
341.145	0.06	682290	keystroke_y	y	n/a
341.25	0.105	682500	keystroke_Key.space	Key.space	n/a
341.85	0.1205	683700	keystroke_w	w	n/a
342.165	0.15	684330	keystroke_e	e	n/a
342.345	0.165	684690	keystroke_a	a	n/a
342.4655	0.0895	684931	keystroke_t	t	n/a
342.5855	0.075	685171	keystroke_h	h	n/a
342.645	0.1655	685290	keystroke_e	e	n/a
342.75	0.105	685500	keystroke_r	r	n/a
342.885	0.1055	685770	keystroke_Key.space	Key.space	n/a
343.35	0.09	686700	keystroke_x	x	n/a
343.605	0.075	687210	keystroke_e	e	n/a
343.62	0.045	687240	keystroke_r	r	n/a
343.845	0.075	687690	keystroke_r	r	n/a
343.95	0.12	687900	keystroke_o	o	n/a
344.16	0.105	688320	keystroke_x	x	n/a
344.355	0.09	688710	keystroke_Key.enter	Key.enter	n/a
344.452	14.455	688904	prompt	n/a	philippines editions exterior ellen\n
345.66	0.075	691320	keystroke_p	p	n/a
345.84	0.06	691680	keystroke_h	h	n/a
345.975	0.075	691950	keystroke_i	i	n/a
346.56	0.135	693120	keystroke_l	l	n/a
348.105	0.075	696210	keystroke_i	i	n/a
348.63	0.09	697260	keystroke_p	p	n/a
348.795	0.075	697590	keystroke_p	p	n/a
348.99	0.075	697980	keystroke_i	i	n/a
349.2	0.06	698400	keystroke_n	n	n/a
349.32	0.075	698640	keystroke_e	e	n/a
349.47	0.165	698940	keystroke_s	s	n/a
349.575	0.12	699150	keystroke_Key.space	Key.space	n/a
349.83	0.075	699660	keystroke_e	e	n/a
350.145	0.12	700290	keystroke_d	d	n/a
350.235	0.09	700470	keystroke_i	i	n/a
351.825	0.06	703650	keystroke_t	t	n/a
351.9	0.12	703800	keystroke_o	o	n/a
353.385	0.06	706770	keystroke_=	=	n/a
353.805	0.075	707610	keystroke_Key.backspace	Key.backspace	n/a
354.135	0.075	708270	keystroke_Key.backspace	Key.backspace	n/a
354.45	0.075	708900	keystroke_i	i	n/a
354.63	0.135	709260	keystroke_o	o	n/a
354.72	0.105	709440	keystroke_n	n	n/a
354.885	0.12	709770	keystroke_s	s	n/a
355.035	0.105	710070	keystroke_Key.space	Key.space	n/a
355.65	0.06	711300	keystroke_e	e	n/a
355.875	0.12	711750	keystroke_x	x	n/a
356.145	0.105	712290	keystroke_t	t	n/a
356.22	0.12	712440	keystroke_e	e	n/a
356.73	0.09	713460	keystroke_r	r	n/a
356.805	0.06	713610	keystroke_i	i	n/a
356.94	0.12	713880	keystroke_o	o	n/a
357.105	0.135	714210	keystroke_r	r	n/a
357.27	0.135	714540	keystroke_Key.space	Key.space	n/a
358.065	0.1195	716130	keystroke_e	e	n/a
358.305	0.06	716610	keystroke_l	l	n/a
358.44	0.075	716880	keystroke_l	l	n/a
358.4995	0.09	716999	keystroke_e	e	n/a
358.6345	0.06	717269	keystroke_n	n	n/a
358.83	0.0745	717660	keystroke_Key.enter	Key.enter	n/a
358.918	9.019	717836	prompt	n/a	anne regions lawyer sunglasses\n
359.5795	0.15	719159	keystroke_a	a	n/a
359.7445	0.045	719489	keystroke_n	n	n/a
359.8645	0.075	719729	keystroke_n	n	n/a
359.955	0.0895	719910	keystroke_e	e	n/a
360.0745	0.105	720149	keystroke_Key.space	Key.space	n/a
360.4195	0.12	720839	keystroke_r	r	n/a
360.5405	0.119	721081	keystroke_e	e	n/a
360.7795	0.09	721559	keystroke_g	g	n/a
360.885	0.0745	721770	keystroke_i	i	n/a
361.0345	0.15	722069	keystroke_o	o	n/a
361.1695	0.09	722339	keystroke_n	n	n/a
361.2745	0.15	722549	keystroke_s	s	n/a
361.38	0.1345	722760	keystroke_Key.space	Key.space	n/a
361.5445	0.135	723089	keystroke_l	l	n/a
361.6495	0.135	723299	keystroke_a	a	n/a
362.0995	0.06	724199	keystroke_y	y	n/a
363.0145	0.075	726029	keystroke_Key.backspace	Key.backspace	n/a
363.1795	0.12	726359	keystroke_w	w	n/a
363.3295	0.06	726659	keystroke_y	y	n/a
363.4195	0.12	726839	keystroke_e	e	n/a
363.4945	0.105	726989	keystroke_r	r	n/a
364.2445	0.105	728489	keystroke_Key.space	Key.space	n/a
365.1145	0.165	730229	keystroke_s	s	n/a
365.2045	0.06	730409	keystroke_u	u	n/a
365.4295	0.076	730859	keystroke_n	n	n/a
365.9995	0.106	731999	keystroke_g	g	n/a
366.1795	0.12	732359	keystroke_l	l	n/a
366.3895	0.165	732779	keystroke_a	a	n/a
367.1995	0.06	734399	keystroke_s	s	n/a
367.3645	0.136	734729	keystroke_s	s	n/a
367.4845	0.12	734969	keystroke_e	e	n/a
367.6195	0.135	735239	keystroke_s	s	n/a
367.8745	0.06	735749	keystroke_Key.enter	Key.enter	n/a
367.948	5.8995	735896	prompt	n/a	normally chef subscribe convicted\n
368.6545	0.06	737309	keystroke_n	n	n/a
368.8045	0.09	737609	keystroke_o	o	n/a
368.9095	0.075	737819	keystroke_r	r	n/a
369.0295	0.06	738059	keystroke_m	m	n/a
369.1345	0.135	738269	keystroke_a	a	n/a
369.2255	0.059	738451	keystroke_l	l	n/a
369.3595	0.06	738719	keystroke_l	l	n/a
369.5095	0.06	739019	keystroke_y	y	n/a
369.5845	0.105	739169	keystroke_Key.space	Key.space	n/a
369.7795	0.061	739559	keystroke_c	c	n/a
369.8405	0.059	739681	keystroke_h	h	n/a
369.9745	0.06	739949	keystroke_e	e	n/a
370.1845	0.105	740369	keystroke_f	f	n/a
370.3045	0.105	740609	keystroke_Key.space	Key.space	n/a
370.4995	0.135	740999	keystroke_s	s	n/a
370.5905	0.059	741181	keystroke_u	u	n/a
370.8145	0.076	741629	keystroke_b	b	n/a
371.0845	0.09	742169	keystroke_s	s	n/a
371.2945	0.076	742589	keystroke_c	c	n/a
371.5055	0.074	743011	keystroke_r	r	n/a
371.5945	0.045	743189	keystroke_i	i	n/a
371.7445	0.075	743489	keystroke_b	b	n/a
371.8495	0.105	743699	keystroke_e	e	n/a
371.9395	0.105	743879	keystroke_Key.space	Key.space	n/a
372.2995	0.106	744599	keystroke_c	c	n/a
372.3905	0.104	744781	keystroke_o	o	n/a
372.4495	0.121	744899	keystroke_n	n	n/a
372.6295	0.105	745259	keystroke_v	v	n/a
372.8095	0.075	745619	keystroke_i	i	n/a
372.9905	0.089	745981	keystroke_c	c	n/a
373.2295	0.135	746459	keystroke_t	t	n/a
373.3195	0.105	746639	keystroke_e	e	n/a
373.5595	0.09	747119	keystroke_d	d	n/a
373.7695	0.075	747539	keystroke_Key.enter	Key.enter	n/a
373.854	10.1935	747708	prompt	n/a	positions false bleeding drama\n
374.5045	0.09	749009	keystroke_p	p	n/a
374.6995	0.091	749399	keystroke_o	o	n/a
374.8655	0.119	749731	keystroke_s	s	n/a
374.9695	0.061	749939	keystroke_i	i	n/a
375.0895	0.09	750179	keystroke_t	t	n/a
375.1645	0.075	750329	keystroke_i	i	n/a
375.3305	0.149	750661	keystroke_o	o	n/a
375.4345	0.105	750869	keystroke_n	n	n/a
375.5845	0.105	751169	keystroke_Key.space	Key.space	n/a
375.9155	0.104	751831	keystroke_f	f	n/a
376.0045	0.151	752009	keystroke_a	a	n/a
376.1855	0.119	752371	keystroke_l	l	n/a
376.3205	0.15	752641	keystroke_s	s	n/a
376.4105	0.12	752821	keystroke_e	e	n/a
376.4995	0.105	752999	keystroke_Key.space	Key.space	n/a
376.7845	0.061	753569	keystroke_b	b	n/a
376.9655	0.074	753931	keystroke_e	e	n/a
377.4905	0.06	754981	keystroke_e	e	n/a
377.6095	0.106	755219	keystroke_l	l	n/a
378.6445	0.09	757289	keystroke_Key.backspace	Key.backspace	n/a
378.8395	0.09	757679	keystroke_Key.backspace	Key.backspace	n/a
379.0345	0.09	758069	keystroke_Key.backspace	Key.backspace	n/a
379.3055	0.074	758611	keystroke_l	l	n/a
379.3205	0.03	758641	keystroke_o	o	n/a
379.5455	0.045	759091	keystroke_e	e	n/a
379.6655	0.075	759331	keystroke_e	e	n/a
380.0995	0.075	760199	keystroke_Key.backspace	Key.backspace	n/a
380.2795	0.075	760559	keystroke_Key.backspace	Key.backspace	n/a
380.4595	0.075	760919	keystroke_Key.backspace	Key.backspace	n/a
382.1255	0.045	764251	keystroke_e	e	n/a
382.2745	0.046	764549	keystroke_e	e	n/a
382.5305	0.135	765061	keystroke_d	d	n/a
382.6195	0.121	765239	keystroke_i	i	n/a
382.6805	0.075	765361	keystroke_n	n	n/a
382.7555	0.09	765511	keystroke_g	g	n/a
382.8455	0.104	765691	keystroke_Key.space	Key.space	n/a
383.3105	0.09	766621	keystroke_d	d	n/a
383.4755	0.135	766951	keystroke_r	r	n/a
383.5805	0.12	767161	keystroke_a	a	n/a
383.7155	0.105	767431	keystroke_m	m	n/a
383.7905	0.12	767581	keystroke_a	a	n/a
383.9395	0.106	767879	keystroke_Key.enter	Key.enter	n/a
384.055	19.8075	768110	prompt	n/a	eligibility indicating volkswagen aggressive\n
384.7805	0.06	769561	keystroke_e	e	n/a
384.9905	0.135	769981	keystroke_l	l	n/a
385.1095	0.136	770219	keystroke_i	i	n/a
385.3505	0.12	770701	keystroke_g	g	n/a
385.4855	0.06	770971	keystroke_i	i	n/a
385.7105	0.044	771421	keystroke_b	b	n/a
385.8605	0.045	771721	keystroke_i	i	n/a
386.0405	0.045	772081	keystroke_l	l	n/a
386.3405	0.075	772681	keystroke_i	i	n/a
386.5505	0.09	773101	keystroke_t	t	n/a
386.6555	0.06	773311	keystroke_y	y	n/a
386.7905	0.119	773581	keystroke_Key.space	Key.space	n/a
387.5405	0.075	775081	keystroke_i	i	n/a
387.7055	0.075	775411	keystroke_n	n	n/a
387.8255	0.105	775651	keystroke_c	c	n/a
387.9455	0.074	775891	keystroke_i	i	n/a
388.1705	0.12	776341	keystroke_d	d	n/a
388.9355	0.089	777871	keystroke_Key.backspace	Key.backspace	n/a
389.2205	0.134	778441	keystroke_c	c	n/a
389.3095	0.151	778619	keystroke_a	a	n/a
389.4155	0.089	778831	keystroke_t	t	n/a
390.0895	0.09	780179	keystroke_Key.backspace	Key.backspace	n/a
390.2545	0.09	780509	keystroke_Key.backspace	Key.backspace	n/a
390.4495	0.09	780899	keystroke_Key.backspace	Key.backspace	n/a
390.6445	0.09	781289	keystroke_Key.backspace	Key.backspace	n/a
390.8395	0.075	781679	keystroke_Key.backspace	Key.backspace	n/a
391.0355	0.105	782071	keystroke_d	d	n/a
391.1555	0.06	782311	keystroke_i	i	n/a
391.1555	0.075	782311	keystroke_u	u	n/a
391.3045	0.136	782609	keystroke_c	c	n/a
391.4555	0.135	782911	keystroke_a	a	n/a
391.8745	0.075	783749	keystroke_Key.backspace	Key.backspace	n/a
392.0395	0.091	784079	keystroke_Key.backspace	Key.backspace	n/a
392.2345	0.09	784469	keystroke_Key.backspace	Key.backspace	n/a
392.4745	0.061	784949	keystroke_Key.backspace	Key.backspace	n/a
392.7605	0.059	785521	keystroke_u	u	n/a
392.7755	0.03	785551	keystroke_i	i	n/a
393.5405	0.075	787081	keystroke_Key.backspace	Key.backspace	n/a
393.7345	0.075	787469	keystroke_Key.backspace	Key.backspace	n/a
394.5155	0.06	789031	keystroke_i	i	n/a
394.7095	0.121	789419	keystroke_c	c	n/a
394.8305	0.165	789661	keystroke_a	a	n/a
395.1905	0.09	790381	keystroke_t	t	n/a
395.3105	0.105	790621	keystroke_i	i	n/a
395.4005	0.09	790801	keystroke_n	n	n/a
395.5055	0.09	791011	keystroke_g	g	n/a
395.6095	0.09	791219	keystroke_Key.space	Key.space	n/a
396.4505	0.105	792901	keystroke_v	v	n/a
396.5705	0.075	793141	keystroke_o	o	n/a
396.7505	0.105	793501	keystroke_l	l	n/a
397.3505	0.075	794701	keystroke_k	k	n/a
397.6205	0.105	795241	keystroke_s	s	n/a
397.8755	0.09	795751	keystroke_w	w	n/a
398.0705	0.134	796141	keystroke_a	a	n/a
398.2505	0.09	796501	keystroke_g	g	n/a
398.3105	0.105	796621	keystroke_e	e	n/a
398.4605	0.105	796921	keystroke_n	n	n/a
398.5955	0.105	797191	keystroke_Key.space	Key.space	n/a
398.8205	0.105	797641	keystroke_a	a	n/a
399.0605	0.06	798121	keystroke_g	g	n/a
399.1955	0.06	798391	keystroke_g	g	n/a
399.4205	0.18	798841	keystroke_r	r	n/a
399.5705	0.165	799141	keystroke_e	e	n/a
402.888	0.0015	805776	keystroke_s	s	n/a
402.9605	0.1195	805921	keystroke_s	s	n/a
403.23	0.105	806460	keystroke_i	i	n/a
403.38	0.12	806760	keystroke_v	v	n/a
403.4405	0.12	806881	keystroke_e	e	n/a
403.785	0.075	807570	keystroke_Key.enter	Key.enter	n/a
403.87	9.7575	807740	prompt	n/a	marie infrared performs spanish\n
404.5505	0.0745	809101	keystroke_m	m	n/a
404.6555	0.1345	809311	keystroke_a	a	n/a
405.06	0.09	810120	keystroke_r	r	n/a
405.195	0.09	810390	keystroke_i	i	n/a
405.315	0.09	810630	keystroke_e	e	n/a
405.4655	0.12	810931	keystroke_Key.space	Key.space	n/a
406.4705	0.15	812941	keystroke_i	i	n/a
406.5905	0.075	813181	keystroke_n	n	n/a
406.7855	0.1045	813571	keystroke_f	f	n/a
407.1155	0.105	814231	keystroke_r	r	n/a
407.2055	0.105	814411	keystroke_a	a	n/a
408.1805	0.12	816361	keystroke_r	r	n/a
408.2555	0.105	816511	keystroke_e	e	n/a
408.495	0.09	816990	keystroke_d	d	n/a
408.615	0.135	817230	keystroke_Key.space	Key.space	n/a
408.885	0.09	817770	keystroke_p	p	n/a
408.9605	0.12	817921	keystroke_e	e	n/a
409.0355	0.1045	818071	keystroke_r	r	n/a
410.07	0.075	820140	keystroke_f	f	n/a
410.16	0.1205	820320	keystroke_o	o	n/a
410.265	0.06	820530	keystroke_m	m	n/a
411.36	0.075	822720	keystroke_Key.backspace	Key.backspace	n/a
411.5855	0.089	823171	keystroke_r	r	n/a
411.7195	0.045	823439	keystroke_m	m	n/a
412.3495	0.12	824699	keystroke_s	s	n/a
412.4545	0.135	824909	keystroke_Key.space	Key.space	n/a
412.7095	0.1205	825419	keystroke_s	s	n/a
412.8595	0.076	825719	keystroke_p	p	n/a
412.95	0.1495	825900	keystroke_a	a	n/a
413.0705	0.0595	826141	keystroke_n	n	n/a
413.1595	0.136	826319	keystroke_i	i	n/a
413.2805	0.164	826561	keystroke_s	s	n/a
413.3395	0.09	826679	keystroke_h	h	n/a
413.5945	0.03	827189	keystroke_Key.enter	Key.enter	n/a
413.634	5.768	827268	prompt	n/a	voltage breast curtis should\n
414.4055	0.104	828811	keystroke_v	v	n/a
414.5395	0.06	829079	keystroke_o	o	n/a
415.0195	0.091	830039	keystroke_l	l	n/a
415.1695	0.12	830339	keystroke_t	t	n/a
415.2595	0.151	830519	keystroke_a	a	n/a
415.4245	0.12	830849	keystroke_g	g	n/a
415.4995	0.135	830999	keystroke_e	e	n/a
415.5895	0.135	831179	keystroke_Key.space	Key.space	n/a
415.8	0.09	831600	keystroke_b	b	n/a
415.95	0.165	831900	keystroke_r	r	n/a
416.04	0.135	832080	keystroke_e	e	n/a
416.19	0.165	832380	keystroke_a	a	n/a
416.505	0.135	833010	keystroke_s	s	n/a
416.685	0.09	833370	keystroke_t	t	n/a
416.79	0.09	833580	keystroke_Key.space	Key.space	n/a
417.33	0.105	834660	keystroke_c	c	n/a
417.45	0.06	834900	keystroke_u	u	n/a
417.57	0.09	835140	keystroke_r	r	n/a
417.81	0.075	835620	keystroke_t	t	n/a
417.915	0.075	835830	keystroke_i	i	n/a
417.975	0.105	835950	keystroke_s	s	n/a
418.11	0.12	836220	keystroke_Key.space	Key.space	n/a
418.53	0.12	837060	keystroke_s	s	n/a
418.575	0.06	837150	keystroke_h	h	n/a
418.665	0.105	837330	keystroke_o	o	n/a
418.74	0.075	837480	keystroke_u	u	n/a
418.92	0.12	837840	keystroke_l	l	n/a
419.085	0.075	838170	keystroke_d	d	n/a
419.355	0.045	838710	keystroke_Key.enter	Key.enter	n/a
419.4095	6.757	838819	prompt	n/a	bookmark oils excel wells\n
420	0.06	840000	keystroke_b	b	n/a
420.195	0.06	840390	keystroke_o	o	n/a
420.345	0.06	840690	keystroke_o	o	n/a
420.495	0.045	840990	keystroke_k	k	n/a
420.66	0.06	841320	keystroke_m	m	n/a
420.81	0.18	841620	keystroke_a	a	n/a
420.975	0.105	841950	keystroke_r	r	n/a
421.14	0.075	842280	keystroke_k	k	n/a
421.29	0.105	842580	keystroke_Key.space	Key.space	n/a
421.44	0.075	842880	keystroke_i	i	n/a
422.31	0.09	844620	keystroke_Key.backspace	Key.backspace	n/a
422.565	0.105	845130	keystroke_o	o	n/a
422.79	0.075	845580	keystroke_i	i	n/a
422.985	0.09	845970	keystroke_l	l	n/a
423.195	0.105	846390	keystroke_s	s	n/a
423.345	0.09	846690	keystroke_Key.space	Key.space	n/a
423.585	0.06	847170	keystroke_e	e	n/a
423.84	0.09	847680	keystroke_x	x	n/a
424.05	0.061	848100	keystroke_c	c	n/a
424.23	0.075	848460	keystroke_e	e	n/a
424.365	0.105	848730	keystroke_l	l	n/a
424.755	0.135	849510	keystroke_Key.space	Key.space	n/a
425.355	0.135	850710	keystroke_w	w	n/a
425.475	0.075	850950	keystroke_e	e	n/a
425.685	0.06	851370	keystroke_l	l	n/a
425.835	0.09	851670	keystroke_l	l	n/a
425.955	0.105	851910	keystroke_s	s	n/a
426.09	0.075	852180	keystroke_Key.enter	Key.enter	n/a
426.17	13.0325	852340	prompt	n/a	satellite tuition concerning referrals\n
426.8695	0.1055	853739	keystroke_s	s	n/a
427.0945	0.09	854189	keystroke_t	t	n/a
427.1695	0.225	854339	keystroke_a	a	n/a
427.9045	0.09	855809	keystroke_Key.backspace	Key.backspace	n/a
428.0995	0.09	856199	keystroke_Key.backspace	Key.backspace	n/a
428.4745	0.1355	856949	keystroke_a	a	n/a
428.7145	0.0905	857429	keystroke_t	t	n/a
428.835	0.1345	857670	keystroke_e	e	n/a
429.4495	0.09	858899	keystroke_l	l	n/a
429.6445	0.091	859289	keystroke_l	l	n/a
429.8245	0.105	859649	keystroke_i	i	n/a
429.9745	0.105	859949	keystroke_t	t	n/a
430.0495	0.105	860099	keystroke_e	e	n/a
430.1995	0.105	860399	keystroke_Key.space	Key.space	n/a
430.4245	0.105	860849	keystroke_t	t	n/a
430.5145	0.045	861029	keystroke_u	u	n/a
430.7105	0.089	861421	keystroke_t	t	n/a
430.8145	0.06	861629	keystroke_i	i	n/a
430.9795	0.12	861959	keystroke_o	o	n/a
431.1445	0.075	862289	keystroke_n	n	n/a
431.6095	0.075	863219	keystroke_Key.backspace	Key.backspace	n/a
431.8045	0.075	863609	keystroke_Key.backspace	Key.backspace	n/a
431.9995	0.09	863999	keystroke_Key.backspace	Key.backspace	n/a
432.1945	0.09	864389	keystroke_Key.backspace	Key.backspace	n/a
432.4195	0.06	864839	keystroke_i	i	n/a
432.6145	0.09	865229	keystroke_t	t	n/a
432.7345	0.075	865469	keystroke_i	i	n/a
432.9145	0.135	865829	keystroke_o	o	n/a
433.0645	0.075	866129	keystroke_n	n	n/a
433.2745	0.075	866549	keystroke_Key.space	Key.space	n/a
434.1145	0.12	868229	keystroke_c	c	n/a
434.2055	0.119	868411	keystroke_o	o	n/a
434.2945	0.105	868589	keystroke_n	n	n/a
434.4145	0.06	868829	keystroke_c	c	n/a
434.5945	0.12	869189	keystroke_e	e	n/a
434.6845	0.105	869369	keystroke_r	r	n/a
434.9845	0.075	869969	keystroke_n	n	n/a
435.0895	0.12	870179	keystroke_i	i	n/a
435.1795	0.09	870359	keystroke_n	n	n/a
435.3295	0.12	870659	keystroke_g	g	n/a
435.4945	0.12	870989	keystroke_Key.space	Key.space	n/a
436.0195	0.12	872039	keystroke_r	r	n/a
436.9495	0.06	873899	keystroke_e	e	n/a
437.2645	0.075	874529	keystroke_f	f	n/a
437.6105	0.074	875221	keystroke_e	e	n/a
437.9545	0.03	875909	keystroke_r	r	n/a
438.0745	0.075	876149	keystroke_r	r	n/a
438.2095	0.136	876419	keystroke_a	a	n/a
438.3595	0.135	876719	keystroke_l	l	n/a
438.4795	0.091	876959	keystroke_s	s	n/a
439.11	0.09	878220	keystroke_Key.enter	Key.enter	n/a
439.209	7.464	878418	prompt	n/a	turned governments special logitech\n
439.876	0.074	879752	keystroke_t	t	n/a
439.995	0.075	879990	keystroke_u	u	n/a
440.115	0.09	880230	keystroke_r	r	n/a
440.22	0.075	880440	keystroke_n	n	n/a
440.31	0.075	880620	keystroke_e	e	n/a
440.505	0.09	881010	keystroke_d	d	n/a
440.595	0.105	881190	keystroke_Key.space	Key.space	n/a
441.225	0.105	882450	keystroke_g	g	n/a
441.645	0.09	883290	keystroke_o	o	n/a
441.825	0.105	883650	keystroke_v	v	n/a
441.96	0.165	883920	keystroke_e	e	n/a
442.065	0.105	884130	keystroke_r	r	n/a
442.23	0.075	884460	keystroke_n	n	n/a
442.515	0.06	885030	keystroke_m	m	n/a
442.59	0.09	885180	keystroke_e	e	n/a
442.68	0.06	885360	keystroke_n	n	n/a
442.725	0.075	885450	keystroke_t	t	n/a
443.01	0.075	886020	keystroke_s	s	n/a
443.445	0.09	886890	keystroke_Key.space	Key.space	n/a
443.775	0.135	887550	keystroke_s	s	n/a
443.955	0.09	887910	keystroke_p	p	n/a
444.06	0.06	888120	keystroke_e	e	n/a
444.3	0.09	888600	keystroke_c	c	n/a
444.375	0.075	888750	keystroke_i	i	n/a
444.495	0.135	888990	keystroke_a	a	n/a
444.615	0.09	889230	keystroke_l	l	n/a
444.72	0.09	889440	keystroke_Key.space	Key.space	n/a
444.9	0.075	889800	keystroke_l	l	n/a
445.095	0.075	890190	keystroke_o	o	n/a
445.305	0.09	890610	keystroke_g	g	n/a
445.41	0.105	890820	keystroke_i	i	n/a
445.56	0.06	891120	keystroke_t	t	n/a
445.68	0.075	891360	keystroke_e	e	n/a
445.905	0.075	891810	keystroke_c	c	n/a
445.995	0.075	891990	keystroke_h	h	n/a
446.58	0.09	893160	keystroke_Key.enter	Key.enter	n/a
446.678	11.949	893356	prompt	n/a	bedrooms texture alignment manhattan\n
447.405	0.075	894810	keystroke_b	b	n/a
447.66	0.09	895320	keystroke_e	e	n/a
447.9	0.075	895800	keystroke_d	d	n/a
448.335	0.105	896670	keystroke_r	r	n/a
448.545	0.075	897090	keystroke_o	o	n/a
448.845	0.015	897690	keystroke_o	o	n/a
448.92	0.075	897840	keystroke_m	m	n/a
449.475	0.105	898950	keystroke_s	s	n/a
449.625	0.09	899250	keystroke_Key.space	Key.space	n/a
449.895	0.075	899790	keystroke_t	t	n/a
450.045	0.075	900090	keystroke_e	e	n/a
450.285	0.12	900570	keystroke_x	x	n/a
450.6	0.06	901200	keystroke_t	t	n/a
450.72	0.075	901440	keystroke_u	u	n/a
450.81	0.105	901620	keystroke_r	r	n/a
450.87	0.12	901740	keystroke_e	e	n/a
451.23	0.105	902460	keystroke_Key.space	Key.space	n/a
451.53	0.135	903060	keystroke_a	a	n/a
451.65	0.105	903300	keystroke_l	l	n/a
451.815	0.105	903630	keystroke_i	i	n/a
451.965	0.09	903930	keystroke_g	g	n/a
453.54	0.105	907080	keystroke_n	n	n/a
454.1545	0.0605	908309	keystroke_m	m	n/a
454.2295	0.1055	908459	keystroke_e	e	n/a
454.335	0.075	908670	keystroke_n	n	n/a
454.4845	0.1055	908969	keystroke_t	t	n/a
454.635	0.1045	909270	keystroke_Key.space	Key.space	n/a
454.9645	0.09	909929	keystroke_m	m	n/a
455.0695	0.15	910139	keystroke_a	a	n/a
455.58	0.0895	911160	keystroke_h	h	n/a
456.8395	0.075	913679	keystroke_Key.backspace	Key.backspace	n/a
457.1995	0.045	914399	keystroke_n	n	n/a
457.3795	0.075	914759	keystroke_h	h	n/a
457.4695	0.135	914939	keystroke_a	a	n/a
457.7245	0.03	915449	keystroke_t	t	n/a
457.8595	0.06	915719	keystroke_t	t	n/a
457.9345	0.15	915869	keystroke_a	a	n/a
458.0995	0.06	916199	keystroke_n	n	n/a
458.5345	0.09	917069	keystroke_Key.enter	Key.enter	n/a
458.633	6.8495	917266	prompt	n/a	elite magazines burton breeding\n
459.2845	0.09	918569	keystroke_e	e	n/a
459.6595	0.09	919319	keystroke_l	l	n/a
459.8095	0.09	919619	keystroke_i	i	n/a
459.9445	0.12	919889	keystroke_t	t	n/a
460.0195	0.135	920039	keystroke_e	e	n/a
460.1845	0.12	920369	keystroke_Key.space	Key.space	n/a
460.4995	0.09	920999	keystroke_m	m	n/a
460.5745	0.105	921149	keystroke_a	a	n/a
460.7095	0.105	921419	keystroke_g	g	n/a
460.7995	0.105	921599	keystroke_a	a	n/a
461.0545	0.12	922109	keystroke_z	z	n/a
461.1295	0.075	922259	keystroke_i	i	n/a
461.2345	0.09	922469	keystroke_n	n	n/a
461.3395	0.075	922679	keystroke_e	e	n/a
461.5345	0.15	923069	keystroke_s	s	n/a
461.6695	0.09	923339	keystroke_Key.space	Key.space	n/a
461.8795	0.045	923759	keystroke_b	b	n/a
462.0595	0.045	924119	keystroke_u	u	n/a
462.1495	0.075	924299	keystroke_r	r	n/a
462.5095	0.0905	925019	keystroke_t	t	n/a
462.6145	0.12	925229	keystroke_o	o	n/a
462.7195	0.09	925439	keystroke_n	n	n/a
463.1245	0.105	926249	keystroke_Key.space	Key.space	n/a
463.4545	0.075	926909	keystroke_b	b	n/a
463.8145	0.135	927629	keystroke_r	r	n/a
464.5945	0.015	929189	keystroke_e	e	n/a
464.6695	0.06	929339	keystroke_e	e	n/a
464.8495	0.105	929699	keystroke_d	d	n/a
464.9395	0.135	929879	keystroke_i	i	n/a
465.0145	0.135	930029	keystroke_n	n	n/a
465.1345	0.075	930269	keystroke_g	g	n/a
465.3895	0.09	930779	keystroke_Key.enter	Key.enter	n/a
465.4925	6.379	930985	prompt	n/a	concerts outputs publishers lane\n
466.1695	0.105	932339	keystroke_c	c	n/a
466.2595	0.12	932519	keystroke_o	o	n/a
466.3345	0.105	932669	keystroke_n	n	n/a
466.4695	0.075	932939	keystroke_c	c	n/a
466.6795	0.135	933359	keystroke_e	e	n/a
467.0395	0.075	934079	keystroke_r	r	n/a
467.2645	0.06	934529	keystroke_t	t	n/a
467.4745	0.075	934949	keystroke_s	s	n/a
467.5795	0.12	935159	keystroke_Key.space	Key.space	n/a
467.8345	0.105	935669	keystroke_o	o	n/a
468.3745	0.09	936749	keystroke_u	u	n/a
468.4655	0.074	936931	keystroke_t	t	n/a
468.5995	0.12	937199	keystroke_p	p	n/a
468.8095	0.075	937619	keystroke_u	u	n/a
468.8995	0.075	937799	keystroke_t	t	n/a
469.0345	0.135	938069	keystroke_s	s	n/a
469.1695	0.12	938339	keystroke_Key.space	Key.space	n/a
469.5295	0.075	939059	keystroke_p	p	n/a
469.6795	0.06	939359	keystroke_u	u	n/a
469.9045	0.06	939809	keystroke_b	b	n/a
470.0845	0.105	940169	keystroke_l	l	n/a
470.1745	0.135	940349	keystroke_i	i	n/a
470.2945	0.15	940589	keystroke_s	s	n/a
470.4295	0.076	940859	keystroke_h	h	n/a
470.5195	0.09	941039	keystroke_e	e	n/a
470.7745	0.075	941549	keystroke_r	r	n/a
470.9845	0.12	941969	keystroke_s	s	n/a
471.1045	0.12	942209	keystroke_Key.space	Key.space	n/a
471.2695	0.135	942539	keystroke_l	l	n/a
471.3895	0.135	942779	keystroke_a	a	n/a
471.4945	0.075	942989	keystroke_n	n	n/a
471.6145	0.06	943229	keystroke_e	e	n/a
471.7945	0.075	943589	keystroke_Key.enter	Key.enter	n/a
471.879	9.473	943758	prompt	n/a	contributor complete nickel freeze\n
472.5745	0.15	945149	keystroke_c	c	n/a
472.7095	0.12	945419	keystroke_o	o	n/a
472.8145	0.121	945629	keystroke_n	n	n/a
472.9795	0.075	945959	keystroke_t	t	n/a
473.2495	0.075	946499	keystroke_r	r	n/a
473.3395	0.076	946679	keystroke_i	i	n/a
473.4895	0.06	946979	keystroke_b	b	n/a
473.6695	0.06	947339	keystroke_u	u	n/a
473.8045	0.075	947609	keystroke_t	t	n/a
473.9095	0.09	947819	keystroke_o	o	n/a
474.0295	0.09	948059	keystroke_r	r	n/a
474.1645	0.12	948329	keystroke_Key.space	Key.space	n/a
474.6895	0.12	949379	keystroke_c	c	n/a
474.8245	0.09	949649	keystroke_o	o	n/a
474.8995	0.09	949799	keystroke_m	m	n/a
475.4395	0.045	950879	keystroke_p	p	n/a
475.6195	0.09	951239	keystroke_l	l	n/a
475.8295	0.045	951659	keystroke_e	e	n/a
476.4295	0.105	952859	keystroke_t	t	n/a
476.5195	0.12	953039	keystroke_e	e	n/a
476.7895	0.12	953579	keystroke_Key.space	Key.space	n/a
476.9995	0.091	953999	keystroke_n	n	n/a
477.1045	0.105	954209	keystroke_i	i	n/a
477.2555	0.104	954511	keystroke_c	c	n/a
478.2745	0.105	956549	keystroke_k	k	n/a
479.6245	0.075	959249	keystroke_e	e	n/a
479.73	0.12	959460	keystroke_l	l	n/a
479.925	0.12	959850	keystroke_Key.space	Key.space	n/a
480.15	0.06	960300	keystroke_f	f	n/a
480.33	0.105	960660	keystroke_r	r	n/a
480.54	0.075	961080	keystroke_e	e	n/a
480.675	0.06	961350	keystroke_e	e	n/a
480.87	0.15	961740	keystroke_z	z	n/a
480.975	0.12	961950	keystroke_e	e	n/a
481.275	0.075	962550	keystroke_Key.enter	Key.enter	n/a
481.361	6.9355	962722	prompt	n/a	coordinate rocks antibodies late\n
481.89	0.09	963780	keystroke_c	c	n/a
482.04	0.06	964080	keystroke_o	o	n/a
482.205	0.105	964410	keystroke_o	o	n/a
482.37	0.09	964740	keystroke_r	r	n/a
483.0595	0.09	966119	keystroke_d	d	n/a
483.1495	0.06	966299	keystroke_i	i	n/a
483.2845	0.09	966569	keystroke_n	n	n/a
483.3445	0.15	966689	keystroke_a	a	n/a
483.4795	0.0905	966959	keystroke_t	t	n/a
483.525	0.1345	967050	keystroke_e	e	n/a
483.6895	0.09	967379	keystroke_Key.space	Key.space	n/a
484.0795	0.09	968159	keystroke_r	r	n/a
484.1845	0.105	968369	keystroke_o	o	n/a
484.3795	0.105	968759	keystroke_c	c	n/a
484.6345	0.09	969269	keystroke_k	k	n/a
484.7395	0.135	969479	keystroke_s	s	n/a
484.8895	0.12	969779	keystroke_Key.space	Key.space	n/a
485.6095	0.15	971219	keystroke_a	a	n/a
485.7145	0.075	971429	keystroke_n	n	n/a
486.1345	0.105	972269	keystroke_t	t	n/a
486.2545	0.075	972509	keystroke_i	i	n/a
486.5395	0.06	973079	keystroke_b	b	n/a
486.7495	0.105	973499	keystroke_o	o	n/a
486.9295	0.09	973859	keystroke_d	d	n/a
487.0345	0.09	974069	keystroke_i	i	n/a
487.1845	0.045	974369	keystroke_e	e	n/a
487.3345	0.12	974669	keystroke_s	s	n/a
487.4695	0.09	974939	keystroke_Key.space	Key.space	n/a
487.6195	0.135	975239	keystroke_l	l	n/a
487.7095	0.15	975419	keystroke_a	a	n/a
487.8895	0.15	975779	keystroke_t	t	n/a
487.9945	0.105	975989	keystroke_e	e	n/a
488.2345	0.06	976469	keystroke_Key.enter	Key.enter	n/a
488.3015	4.915	976603	prompt	n/a	save truly grades event\n
488.9545	0.06	977909	keystroke_s	s	n/a
489.1045	0.165	978209	keystroke_a	a	n/a
489.2995	0.09	978599	keystroke_v	v	n/a
489.3445	0.135	978689	keystroke_e	e	n/a
489.4345	0.12	978869	keystroke_Key.space	Key.space	n/a
489.6295	0.075	979259	keystroke_t	t	n/a
489.8545	0.105	979709	keystroke_r	r	n/a
489.9595	0.045	979919	keystroke_u	u	n/a
490.1245	0.075	980249	keystroke_l	l	n/a
490.3045	0.06	980609	keystroke_y	y	n/a
490.4095	0.09	980819	keystroke_Key.space	Key.space	n/a
490.6045	0.06	981209	keystroke_g	g	n/a
490.7845	0.15	981569	keystroke_r	r	n/a
491.0245	0.12	982049	keystroke_a	a	n/a
491.3845	0.06	982769	keystroke_d	d	n/a
491.5495	0.06	983099	keystroke_e	e	n/a
491.7595	0.12	983519	keystroke_s	s	n/a
491.8795	0.12	983759	keystroke_Key.space	Key.space	n/a
492.2845	0.06	984569	keystroke_e	e	n/a
492.4945	0.075	984989	keystroke_v	v	n/a
492.5395	0.12	985079	keystroke_e	e	n/a
492.7045	0.09	985409	keystroke_n	n	n/a
492.8245	0.075	985649	keystroke_t	t	n/a
493.1545	0.06	986309	keystroke_Key.enter	Key.enter	n/a
493.221	6.6405	986442	prompt	n/a	shapes cheats exciting metallica\n
493.9045	0.105	987809	keystroke_s	s	n/a
493.9945	0.075	987989	keystroke_h	h	n/a
494.1145	0.15	988229	keystroke_a	a	n/a
494.2495	0.075	988499	keystroke_p	p	n/a
494.3545	0.075	988709	keystroke_e	e	n/a
494.5345	0.12	989069	keystroke_s	s	n/a
494.6395	0.105	989279	keystroke_Key.space	Key.space	n/a
494.9245	0.09	989849	keystroke_c	c	n/a
495.0445	0.075	990089	keystroke_h	h	n/a
495.1945	0.06	990389	keystroke_e	e	n/a
495.3595	0.15	990719	keystroke_a	a	n/a
495.5245	0.075	991049	keystroke_t	t	n/a
495.7945	0.12	991589	keystroke_s	s	n/a
495.8995	0.105	991799	keystroke_Key.space	Key.space	n/a
496.2895	0.075	992579	keystroke_e	e	n/a
496.5595	0.09	993119	keystroke_x	x	n/a
496.8295	0.075	993659	keystroke_c	c	n/a
496.9645	0.09	993929	keystroke_i	i	n/a
497.0845	0.06	994169	keystroke_t	t	n/a
497.1895	0.105	994379	keystroke_i	i	n/a
497.3095	0.075	994619	keystroke_n	n	n/a
497.3855	0.104	994771	keystroke_g	g	n/a
497.4745	0.09	994949	keystroke_Key.space	Key.space	n/a
497.9995	0.075	995999	keystroke_m	m	n/a
498.1195	0.105	996239	keystroke_e	e	n/a
498.3295	0.105	996659	keystroke_t	t	n/a
498.4495	0.15	996899	keystroke_a	a	n/a
498.8545	0.075	997709	keystroke_l	l	n/a
499.0195	0.09	998039	keystroke_l	l	n/a
499.1545	0.12	998309	keystroke_i	i	n/a
499.2895	0.12	998579	keystroke_c	c	n/a
499.3645	0.135	998729	keystroke_a	a	n/a
499.7695	0.09	999539	keystroke_Key.enter	Key.enter	n/a
499.866	8.1115	999732	prompt	n/a	penalties focus completion locally\n
500.5645	0.075	1001129	keystroke_p	p	n/a
500.7145	0.075	1001429	keystroke_e	e	n/a
500.9395	0.075	1001879	keystroke_n	n	n/a
501.0445	0.135	1002089	keystroke_a	a	n/a
501.7345	0.09	1003469	keystroke_l	l	n/a
502.1545	0.09	1004309	keystroke_t	t	n/a
502.2745	0.09	1004549	keystroke_i	i	n/a
502.3495	0.09	1004699	keystroke_e	e	n/a
502.5445	0.105	1005089	keystroke_s	s	n/a
502.6045	0.12	1005209	keystroke_Key.space	Key.space	n/a
502.8895	0.105	1005779	keystroke_f	f	n/a
502.9795	0.105	1005959	keystroke_o	o	n/a
503.9545	0.075	1007909	keystroke_c	c	n/a
504.0305	0.059	1008061	keystroke_u	u	n/a
504.1345	0.12	1008269	keystroke_s	s	n/a
504.2845	0.09	1008569	keystroke_Key.space	Key.space	n/a
504.4945	0.12	1008989	keystroke_c	c	n/a
504.5995	0.09	1009199	keystroke_o	o	n/a
504.6905	0.134	1009381	keystroke_m	m	n/a
504.9595	0.075	1009919	keystroke_p	p	n/a
505.1545	0.105	1010309	keystroke_l	l	n/a
505.3195	0.09	1010639	keystroke_e	e	n/a
505.5295	0.09	1011059	keystroke_t	t	n/a
505.6345	0.075	1011269	keystroke_i	i	n/a
505.7995	0.165	1011599	keystroke_o	o	n/a
505.9345	0.105	1011869	keystroke_n	n	n/a
506.0545	0.105	1012109	keystroke_Key.space	Key.space	n/a
506.2645	0.075	1012529	keystroke_l	l	n/a
506.4445	0.075	1012889	keystroke_o	o	n/a
506.5495	0.15	1013099	keystroke_c	c	n/a
506.6695	0.15	1013339	keystroke_a	a	n/a
506.7745	0.06	1013549	keystroke_l	l	n/a
506.9095	0.09	1013819	keystroke_l	l	n/a
507.6445	0.075	1015289	keystroke_y	y	n/a
507.8845	0.09	1015769	keystroke_Key.enter	Key.enter	n/a
507.984	16.3725	1015968	prompt	n/a	scanning yorkshire respond solving\n
508.6345	0.075	1017269	keystroke_s	s	n/a
508.9945	0.12	1017989	keystroke_c	c	n/a
509.0845	0.12	1018169	keystroke_a	a	n/a
509.2645	0.06	1018529	keystroke_n	n	n/a
509.4145	0.06	1018829	keystroke_n	n	n/a
509.5645	0.12	1019129	keystroke_i	i	n/a
509.6545	0.105	1019309	keystroke_n	n	n/a
509.7745	0.105	1019549	keystroke_g	g	n/a
509.8345	0.12	1019669	keystroke_Key.space	Key.space	n/a
510.1645	0.045	1020329	keystroke_y	y	n/a
510.2395	0.105	1020479	keystroke_o	o	n/a
510.3595	0.09	1020719	keystroke_r	r	n/a
510.5095	0.075	1021019	keystroke_k	k	n/a
510.6445	0.135	1021289	keystroke_s	s	n/a
510.7495	0.075	1021499	keystroke_h	h	n/a
510.8395	0.105	1021679	keystroke_i	i	n/a
510.9295	0.135	1021859	keystroke_r	r	n/a
511.0045	0.105	1022009	keystroke_e	e	n/a
511.1695	0.105	1022339	keystroke_Key.space	Key.space	n/a
512.2495	0.15	1024499	keystroke_r	r	n/a
512.3395	0.135	1024679	keystroke_e	e	n/a
512.6395	0.12	1025279	keystroke_s	s	n/a
512.9095	0.075	1025819	keystroke_p	p	n/a
513.0895	0.09	1026179	keystroke_o	o	n/a
513.3295	0.06	1026659	keystroke_n	n	n/a
513.5095	0.12	1027019	keystroke_d	d	n/a
513.6445	0.12	1027289	keystroke_Key.space	Key.space	n/a
514.1995	0.12	1028399	keystroke_s	s	n/a
514.2895	0.105	1028579	keystroke_o	o	n/a
514.7245	0.12	1029449	keystroke_v	v	n/a
516.0895	0.075	1032179	keystroke_=	=	n/a
516.1045	0.045	1032209	keystroke_Key.backspace	Key.backspace	n/a
517.2745	0.09	1034549	keystroke_l	l	n/a
518.31	0.0745	1036620	keystroke_Key.backspace	Key.backspace	n/a
518.6395	0.09	1037279	keystroke_Key.backspace	Key.backspace	n/a
518.9545	0.135	1037909	keystroke_l	l	n/a
520.5445	0.09	1041089	keystroke_v	v	n/a
520.6945	0.105	1041389	keystroke_i	i	n/a
520.7855	0.1035	1041571	keystroke_n	n	n/a
521.1745	0.09	1042349	keystroke_g	g	n/a
524.312	0.042	1048624	keystroke_Key.enter	Key.enter	n/a
524.3635	6.3385	1048727	prompt	n/a	corn album merry walls\n
525.134	0.106	1050268	keystroke_c	c	n/a
525.389	0.105	1050778	keystroke_o	o	n/a
525.509	0.0905	1051018	keystroke_r	r	n/a
525.614	0.09	1051228	keystroke_n	n	n/a
525.719	0.135	1051438	keystroke_Key.space	Key.space	n/a
526.289	0.15	1052578	keystroke_a	a	n/a
526.395	0.104	1052790	keystroke_l	l	n/a
527.264	0.045	1054528	keystroke_b	b	n/a
527.474	0.046	1054948	keystroke_u	u	n/a
527.654	0.075	1055308	keystroke_m	m	n/a
528.059	0.09	1056118	keystroke_Key.space	Key.space	n/a
528.375	0.074	1056750	keystroke_m	m	n/a
528.509	0.075	1057018	keystroke_e	e	n/a
528.704	0.046	1057408	keystroke_r	r	n/a
528.839	0.075	1057678	keystroke_r	r	n/a
528.944	0.075	1057888	keystroke_y	y	n/a
529.004	0.12	1058008	keystroke_Key.space	Key.space	n/a
529.214	0.076	1058428	keystroke_w	w	n/a
529.394	0.135	1058788	keystroke_a	a	n/a
529.484	0.076	1058968	keystroke_l	l	n/a
529.635	0.104	1059270	keystroke_l	l	n/a
529.74	0.135	1059480	keystroke_s	s	n/a
530.594	0.105	1061188	keystroke_Key.enter	Key.enter	n/a
530.7125	7.5945	1061425	prompt	n/a	she'll panel collections goes\n
531.374	0.105	1062748	keystroke_s	s	n/a
531.464	0.075	1062928	keystroke_h	h	n/a
531.584	0.075	1063168	keystroke_e	e	n/a
531.869	0.09	1063738	keystroke_'	'	n/a
532.199	0.061	1064398	keystroke_l	l	n/a
533.76	0.089	1067520	keystroke_l	l	n/a
534.524	0.09	1069048	keystroke_Key.space	Key.space	n/a
534.794	0.075	1069588	keystroke_p	p	n/a
534.959	0.12	1069918	keystroke_a	a	n/a
535.064	0.061	1070128	keystroke_n	n	n/a
535.169	0.09	1070338	keystroke_e	e	n/a
535.275	0.075	1070550	keystroke_l	l	n/a
535.394	0.12	1070788	keystroke_Key.space	Key.space	n/a
535.634	0.09	1071268	keystroke_c	c	n/a
535.74	0.075	1071480	keystroke_o	o	n/a
535.965	0.075	1071930	keystroke_l	l	n/a
536.13	0.075	1072260	keystroke_l	l	n/a
536.219	0.046	1072438	keystroke_e	e	n/a
536.414	0.15	1072828	keystroke_c	c	n/a
536.55	0.089	1073100	keystroke_t	t	n/a
536.64	0.09	1073280	keystroke_i	i	n/a
536.76	0.27	1073520	keystroke_o	o	n/a
536.849	0.12	1073698	keystroke_n	n	n/a
536.955	0.104	1073910	keystroke_s	s	n/a
537.014	0.135	1074028	keystroke_Key.space	Key.space	n/a
537.239	0.076	1074478	keystroke_g	g	n/a
537.329	0.136	1074658	keystroke_o	o	n/a
537.795	0.09	1075590	keystroke_e	e	n/a
537.959	0.136	1075918	keystroke_s	s	n/a
538.199	0.105	1076398	keystroke_Key.enter	Key.enter	n/a
538.3125	7.389	1076625	prompt	n/a	deferred souls rating holders\n
538.994	0.061	1077988	keystroke_d	d	n/a
539.159	0.061	1078318	keystroke_e	e	n/a
539.37	0.06	1078740	keystroke_f	f	n/a
539.639	0.076	1079278	keystroke_e	e	n/a
540.074	0.046	1080148	keystroke_r	r	n/a
540.209	0.061	1080418	keystroke_r	r	n/a
540.299	0.09	1080598	keystroke_e	e	n/a
540.509	0.106	1081018	keystroke_d	d	n/a
540.599	0.12	1081198	keystroke_Key.space	Key.space	n/a
540.81	0.135	1081620	keystroke_s	s	n/a
540.884	0.136	1081768	keystroke_o	o	n/a
541.004	0.046	1082008	keystroke_u	u	n/a
541.17	0.09	1082340	keystroke_l	l	n/a
541.289	0.09	1082578	keystroke_d	d	n/a
542.354	0.075	1084708	keystroke_Key.backspace	Key.backspace	n/a
542.97	0.09	1085940	keystroke_s	s	n/a
543.074	0.105	1086148	keystroke_Key.space	Key.space	n/a
543.494	0.09	1086988	keystroke_r	r	n/a
543.6	0.18	1087200	keystroke_a	a	n/a
543.764	0.076	1087528	keystroke_t	t	n/a
543.885	0.149	1087770	keystroke_i	i	n/a
543.974	0.091	1087948	keystroke_n	n	n/a
544.05	0.09	1088100	keystroke_g	g	n/a
544.124	0.075	1088248	keystroke_Key.space	Key.space	n/a
544.32	0.059	1088640	keystroke_h	h	n/a
544.424	0.091	1088848	keystroke_o	o	n/a
544.889	0.091	1089778	keystroke_l	l	n/a
545.025	0.074	1090050	keystroke_d	d	n/a
545.19	0.105	1090380	keystroke_e	e	n/a
545.249	0.106	1090498	keystroke_r	r	n/a
545.475	0.089	1090950	keystroke_s	s	n/a
545.625	0.075	1091250	keystroke_Key.enter	Key.enter	n/a
545.7065	6.82	1091413	prompt	n/a	clothing premier node realtor\n
546.434	0.076	1092868	keystroke_c	c	n/a
546.66	0.059	1093320	keystroke_l	l	n/a
546.839	0.076	1093678	keystroke_o	o	n/a
547.2	0.105	1094400	keystroke_t	t	n/a
547.32	0.06	1094640	keystroke_h	h	n/a
547.425	0.15	1094850	keystroke_i	i	n/a
547.53	0.104	1095060	keystroke_n	n	n/a
547.68	0.09	1095360	keystroke_g	g	n/a
548.189	0.105	1096378	keystroke_Key.space	Key.space	n/a
548.505	0.105	1097010	keystroke_p	p	n/a
548.73	0.134	1097460	keystroke_r	r	n/a
548.82	0.105	1097640	keystroke_e	e	n/a
549.33	0.075	1098660	keystroke_m	m	n/a
549.525	0.089	1099050	keystroke_i	i	n/a
549.705	0.135	1099410	keystroke_e	e	n/a
549.795	0.105	1099590	keystroke_r	r	n/a
550.004	0.09	1100008	keystroke_Key.space	Key.space	n/a
550.155	0.06	1100310	keystroke_n	n	n/a
550.244	0.151	1100488	keystroke_o	o	n/a
550.35	0.059	1100700	keystroke_d	d	n/a
550.485	0.09	1100970	keystroke_e	e	n/a
550.559	0.105	1101118	keystroke_Key.space	Key.space	n/a
550.889	0.106	1101778	keystroke_r	r	n/a
551.009	0.106	1102018	keystroke_e	e	n/a
551.19	0.149	1102380	keystroke_a	a	n/a
551.31	0.09	1102620	keystroke_l	l	n/a
551.43	0.09	1102860	keystroke_t	t	n/a
551.535	0.105	1103070	keystroke_o	o	n/a
551.655	0.089	1103310	keystroke_r	r	n/a
552.435	0.089	1104870	keystroke_Key.enter	Key.enter	n/a
552.5305	7.512	1105061	prompt	n/a	seems warcraft village emerging\n
553.155	0.105	1106310	keystroke_s	s	n/a
553.335	0.06	1106670	keystroke_e	e	n/a
553.485	0.045	1106970	keystroke_e	e	n/a
553.544	0.091	1107088	keystroke_m	m	n/a
553.65	0.105	1107300	keystroke_s	s	n/a
553.74	0.105	1107480	keystroke_Key.space	Key.space	n/a
553.95	0.105	1107900	keystroke_w	w	n/a
554.16	0.15	1108320	keystroke_a	a	n/a
554.28	0.105	1108560	keystroke_r	r	n/a
554.55	0.09	1109100	keystroke_c	c	n/a
554.775	0.15	1109550	keystroke_r	r	n/a
554.925	0.165	1109850	keystroke_a	a	n/a
555.105	0.09	1110210	keystroke_f	f	n/a
555.3	0.075	1110600	keystroke_t	t	n/a
555.39	0.09	1110780	keystroke_Key.space	Key.space	n/a
557.175	0.105	1114350	keystroke_v	v	n/a
557.325	0.075	1114650	keystroke_i	i	n/a
557.73	0.075	1115460	keystroke_l	l	n/a
557.88	0.105	1115760	keystroke_l	l	n/a
557.955	0.15	1115910	keystroke_a	a	n/a
558.075	0.105	1116150	keystroke_g	g	n/a
558.15	0.105	1116300	keystroke_e	e	n/a
558.27	0.105	1116540	keystroke_Key.space	Key.space	n/a
558.555	0.075	1117110	keystroke_e	e	n/a
558.72	0.075	1117440	keystroke_m	m	n/a
558.81	0.12	1117620	keystroke_e	e	n/a
558.9	0.09	1117800	keystroke_r	r	n/a
559.215	0.075	1118430	keystroke_g	g	n/a
559.305	0.12	1118610	keystroke_i	i	n/a
559.365	0.105	1118730	keystroke_n	n	n/a
559.485	0.09	1118970	keystroke_g	g	n/a
559.95	0.09	1119900	keystroke_Key.enter	Key.enter	n/a
560.048	13.344	1120096	prompt	n/a	integrated bangkok fantasy handled\n
560.775	0.105	1121550	keystroke_i	i	n/a
560.865	0.105	1121730	keystroke_n	n	n/a
560.985	0.09	1121970	keystroke_t	t	n/a
561.255	0.12	1122510	keystroke_e	e	n/a
561.54	0.075	1123080	keystroke_g	g	n/a
561.75	0.12	1123500	keystroke_r	r	n/a
561.825	0.21	1123650	keystroke_a	a	n/a
562.215	0.105	1124430	keystroke_t	t	n/a
562.275	0.105	1124550	keystroke_e	e	n/a
562.56	0.105	1125120	keystroke_d	d	n/a
562.68	0.12	1125360	keystroke_Key.space	Key.space	n/a
562.965	0.06	1125930	keystroke_b	b	n/a
563.07	0.165	1126140	keystroke_a	a	n/a
563.22	0.09	1126440	keystroke_n	n	n/a
563.415	0.09	1126830	keystroke_g	g	n/a
563.685	0.09	1127370	keystroke_l	l	n/a
565.14	0.075	1130280	keystroke_Key.backspace	Key.backspace	n/a
565.575	0.09	1131150	keystroke_l	l	n/a
566.385	0.075	1132770	keystroke_Key.backspace	Key.backspace	n/a
566.79	0.075	1133580	keystroke_k	k	n/a
566.94	0.06	1133880	keystroke_o	o	n/a
567.105	0.06	1134210	keystroke_k	k	n/a
567.69	0.09	1135380	keystroke_Key.space	Key.space	n/a
567.93	0.135	1135860	keystroke_f	f	n/a
568.02	0.165	1136040	keystroke_a	a	n/a
568.125	0.09	1136250	keystroke_n	n	n/a
568.275	0.105	1136550	keystroke_t	t	n/a
568.365	0.12	1136730	keystroke_a	a	n/a
568.665	0.135	1137330	keystroke_s	s	n/a
568.77	0.075	1137540	keystroke_y	y	n/a
569.985	0.09	1139970	keystroke_Key.space	Key.space	n/a
570.24	0.06	1140480	keystroke_h	h	n/a
570.36	0.135	1140720	keystroke_a	a	n/a
570.45	0.09	1140900	keystroke_n	n	n/a
570.555	0.075	1141110	keystroke_d	d	n/a
570.75	0.075	1141500	keystroke_e	e	n/a
570.885	0.12	1141770	keystroke_l	l	n/a
571.665	0.09	1143330	keystroke_Key.backspace	Key.backspace	n/a
571.8	0.06	1143600	keystroke_Key.backspace	Key.backspace	n/a
572.325	0.135	1144650	keystroke_l	l	n/a
572.475	0.075	1144950	keystroke_e	e	n/a
572.7445	0.0755	1145489	keystroke_d	d	n/a
573.285	0.105	1146570	keystroke_Key.enter	Key.enter	n/a
573.4005	5.721	1146801	prompt	n/a	best fetish lone driven\n
574.0045	0.0755	1148009	keystroke_b	b	n/a
574.1245	0.09	1148249	keystroke_e	e	n/a
574.3495	0.15	1148699	keystroke_s	s	n/a
574.4395	0.12	1148879	keystroke_t	t	n/a
574.5295	0.105	1149059	keystroke_Key.space	Key.space	n/a
575.2345	0.105	1150469	keystroke_f	f	n/a
575.7145	0.105	1151429	keystroke_e	e	n/a
575.9545	0.06	1151909	keystroke_t	t	n/a
576.0445	0.09	1152089	keystroke_i	i	n/a
576.1495	0.105	1152299	keystroke_s	s	n/a
576.2695	0.075	1152539	keystroke_h	h	n/a
576.3745	0.105	1152749	keystroke_Key.space	Key.space	n/a
576.6595	0.075	1153319	keystroke_l	l	n/a
576.8395	0.09	1153679	keystroke_o	o	n/a
576.9895	0.09	1153979	keystroke_n	n	n/a
577.2145	0.105	1154429	keystroke_e	e	n/a
577.4245	0.106	1154849	keystroke_Key.space	Key.space	n/a
577.7995	0.105	1155599	keystroke_d	d	n/a
577.9795	0.075	1155959	keystroke_r	r	n/a
578.0845	0.09	1156169	keystroke_i	i	n/a
578.2195	0.075	1156439	keystroke_v	v	n/a
578.2495	0.12	1156499	keystroke_e	e	n/a
578.5045	0.09	1157009	keystroke_n	n	n/a
579.0295	0.09	1158059	keystroke_Key.enter	Key.enter	n/a
579.126	6.5055	1158252	prompt	n/a	adjusted reply bracelets routers\n
579.8545	0.12	1159709	keystroke_a	a	n/a
580.0795	0.09	1160159	keystroke_d	d	n/a
580.2295	0.075	1160459	keystroke_j	j	n/a
580.4095	0.045	1160819	keystroke_u	u	n/a
580.4245	0.195	1160849	keystroke_s	s	n/a
580.5895	0.12	1161179	keystroke_t	t	n/a
580.6645	0.09	1161329	keystroke_e	e	n/a
580.8445	0.12	1161689	keystroke_d	d	n/a
580.9495	0.09	1161899	keystroke_Key.space	Key.space	n/a
581.1445	0.15	1162289	keystroke_r	r	n/a
581.2045	0.075	1162409	keystroke_e	e	n/a
581.3995	0.045	1162799	keystroke_p	p	n/a
581.5795	0.075	1163159	keystroke_l	l	n/a
581.7745	0.06	1163549	keystroke_y	y	n/a
