onset	duration	sample	value	key	prompt_text
4.065	19.2845	8130	prompt	n/a	the quick brown fox jumps over a lazy dog\n
11.3635	0.058	22727	keystroke_t	t	n/a
11.4065	0.075	22813	keystroke_h	h	n/a
11.6475	0.0595	23295	keystroke_e	e	n/a
11.9315	0.12	23863	keystroke_Key.space	Key.space	n/a
12.0365	0.045	24073	keystroke_q	q	n/a
12.2015	0.15	24403	keystroke_u	u	n/a
12.322	0.1195	24644	keystroke_i	i	n/a
12.4865	0.105	24973	keystroke_c	c	n/a
12.6515	0.105	25303	keystroke_k	k	n/a
12.952	0.1195	25904	keystroke_Key.space	Key.space	n/a
13.4465	0.076	26893	keystroke_b	b	n/a
13.642	0.0755	27284	keystroke_r	r	n/a
13.8815	0.105	27763	keystroke_o	o	n/a
14.0165	0.075	28033	keystroke_w	w	n/a
14.197	0.0905	28394	keystroke_n	n	n/a
14.5865	0.0905	29173	keystroke_Key.space	Key.space	n/a
15.3815	0.0755	30763	keystroke_f	f	n/a
15.5175	0.12	31035	keystroke_o	o	n/a
15.7425	0.0595	31485	keystroke_x	x	n/a
15.907	0.09	31814	keystroke_Key.space	Key.space	n/a
16.102	0.0595	32204	keystroke_j	j	n/a
16.2965	0.0595	32593	keystroke_u	u	n/a
16.477	0.0895	32954	keystroke_m	m	n/a
17.437	0.0745	34874	keystroke_p	p	n/a
17.587	0.06	35174	keystroke_s	s	n/a
17.737	0.135	35474	keystroke_Key.space	Key.space	n/a
17.887	0.1195	35774	keystroke_o	o	n/a
17.977	0.0745	35954	keystroke_v	v	n/a
18.1715	0.1355	36343	keystroke_e	e	n/a
18.2925	0.0745	36585	keystroke_r	r	n/a
18.4865	0.06	36973	keystroke_Key.space	Key.space	n/a
18.6665	0.0455	37333	keystroke_a	a	n/a
18.742	0.12	37484	keystroke_Key.space	Key.space	n/a
18.952	0.045	37904	keystroke_a	a	n/a
19.1615	0.045	38323	keystroke_z	z	n/a
19.612	0.075	39224	keystroke_Key.backspace	Key.backspace	n/a
19.732	0.075	39464	keystroke_Key.backspace	Key.backspace	n/a
19.957	0.075	39914	keystroke_l	l	n/a
20.077	0.0455	40154	keystroke_a	a	n/a
20.2425	0.0595	40485	keystroke_z	z	n/a
20.3625	0.075	40725	keystroke_t	t	n/a
21.202	0.0755	42404	keystroke_Key.backspace	Key.backspace	n/a
21.3825	0.06	42765	keystroke_y	y	n/a
21.682	0.105	43364	keystroke_Key.space	Key.space	n/a
21.877	0.09	43754	keystroke_d	d	n/a
22.177	0.105	44354	keystroke_o	o	n/a
22.372	0.105	44744	keystroke_g	g	n/a
23.2875	0.059	46575	keystroke_Key.enter	Key.enter	n/a
23.3535	8.5005	46707	prompt	n/a	indians dust editorial modes\n
24.412	0.0755	48824	keystroke_i	i	n/a
24.7425	0.089	49485	keystroke_n	n	n/a
25.2975	0.089	50595	keystroke_d	d	n/a
25.4615	0.09	50923	keystroke_i	i	n/a
25.6425	0.06	51285	keystroke_a	a	n/a
25.7925	0.075	51585	keystroke_n	n	n/a
25.9425	0.075	51885	keystroke_s	s	n/a
26.152	0.0895	52304	keystroke_Key.space	Key.space	n/a
26.302	0.0905	52604	keystroke_d	d	n/a
26.4975	0.1045	52995	keystroke_u	u	n/a
26.6925	0.045	53385	keystroke_s	s	n/a
27.067	0.06	54134	keystroke_t	t	n/a
27.5325	0.0895	55065	keystroke_Key.space	Key.space	n/a
27.817	0.045	55634	keystroke_e	e	n/a
28.0725	0.09	56145	keystroke_d	d	n/a
28.2815	0.091	56563	keystroke_i	i	n/a
28.4765	0.046	56953	keystroke_t	t	n/a
28.582	0.0905	57164	keystroke_o	o	n/a
28.7175	0.059	57435	keystroke_r	r	n/a
28.8675	0.075	57735	keystroke_i	i	n/a
29.0315	0.075	58063	keystroke_a	a	n/a
29.3025	0.09	58605	keystroke_l	l	n/a
30.7265	0.09	61453	keystroke_Key.space	Key.space	n/a
30.997	0.12	61994	keystroke_m	m	n/a
31.132	0.12	62264	keystroke_o	o	n/a
31.267	0.06	62534	keystroke_d	d	n/a
31.432	0.09	62864	keystroke_e	e	n/a
31.582	0.075	63164	keystroke_s	s	n/a
31.747	0.105	63494	keystroke_Key.enter	Key.enter	n/a
31.8575	5.6515	63715	prompt	n/a	expo bathrooms carl florida\n
32.4525	0.0895	64905	keystroke_e	e	n/a
32.662	0.09	65324	keystroke_x	x	n/a
32.9325	0.1345	65865	keystroke_p	p	n/a
33.097	0.12	66194	keystroke_o	o	n/a
33.382	0.105	66764	keystroke_Key.space	Key.space	n/a
33.532	0.0755	67064	keystroke_b	b	n/a
33.8025	0.0445	67605	keystroke_a	a	n/a
34.132	0.1355	68264	keystroke_t	t	n/a
34.222	0.1055	68444	keystroke_h	h	n/a
34.4175	0.09	68835	keystroke_r	r	n/a
34.582	0.06	69164	keystroke_o	o	n/a
34.717	0.105	69434	keystroke_o	o	n/a
34.882	0.105	69764	keystroke_m	m	n/a
35.047	0.075	70094	keystroke_s	s	n/a
35.2275	0.0895	70455	keystroke_Key.space	Key.space	n/a
35.3475	0.06	70695	keystroke_c	c	n/a
35.5575	0.075	71115	keystroke_a	a	n/a
35.7375	0.06	71475	keystroke_r	r	n/a
35.887	0.105	71774	keystroke_l	l	n/a
36.067	0.09	72134	keystroke_Key.space	Key.space	n/a
36.172	0.09	72344	keystroke_f	f	n/a
36.277	0.0755	72554	keystroke_l	l	n/a
36.472	0.09	72944	keystroke_o	o	n/a
36.5775	0.0745	73155	keystroke_r	r	n/a
36.712	0.105	73424	keystroke_i	i	n/a
36.847	0.075	73694	keystroke_d	d	n/a
37.087	0.0605	74174	keystroke_a	a	n/a
37.432	0.0755	74864	keystroke_Key.enter	Key.enter	n/a
37.512	9.4625	75024	prompt	n/a	people statement animal distributions\n
38.2275	0.1345	76455	keystroke_p	p	n/a
38.377	0.075	76754	keystroke_e	e	n/a
38.4975	0.0895	76995	keystroke_o	o	n/a
38.5725	0.165	77145	keystroke_p	p	n/a
38.7225	0.1045	77445	keystroke_l	l	n/a
38.842	0.075	77684	keystroke_e	e	n/a
38.977	0.12	77954	keystroke_Key.space	Key.space	n/a
39.082	0.0755	78164	keystroke_s	s	n/a
39.292	0.06	78584	keystroke_t	t	n/a
39.457	0.075	78914	keystroke_a	a	n/a
39.623	0.074	79246	keystroke_t	t	n/a
39.712	0.09	79424	keystroke_e	e	n/a
39.877	0.0755	79754	keystroke_m	m	n/a
39.982	0.075	79964	keystroke_e	e	n/a
40.132	0.075	80264	keystroke_n	n	n/a
40.282	0.0755	80564	keystroke_t	t	n/a
41.062	0.045	82124	keystroke_Key.space	Key.space	n/a
41.212	0.09	82424	keystroke_a	a	n/a
41.3325	0.1345	82665	keystroke_n	n	n/a
41.4825	0.075	82965	keystroke_i	i	n/a
41.737	0.075	83474	keystroke_m	m	n/a
41.918	0.044	83836	keystroke_a	a	n/a
42.052	0.075	84104	keystroke_l	l	n/a
42.307	0.06	84614	keystroke_Key.space	Key.space	n/a
42.518	0.089	85036	keystroke_d	d	n/a
42.667	0.06	85334	keystroke_i	i	n/a
42.772	0.06	85544	keystroke_s	s	n/a
42.967	0.135	85934	keystroke_t	t	n/a
43.072	0.1055	86144	keystroke_r	r	n/a
43.312	0.076	86624	keystroke_i	i	n/a
43.822	0.09	87644	keystroke_b	b	n/a
43.972	0.09	87944	keystroke_u	u	n/a
44.107	0.0745	88214	keystroke_t	t	n/a
44.2865	0.151	88573	keystroke_i	i	n/a
44.4215	0.1055	88843	keystroke_o	o	n/a
44.7075	0.075	89415	keystroke_n	n	n/a
44.8425	0.075	89685	keystroke_s	s	n/a
46.8975	0.075	93795	keystroke_Key.enter	Key.enter	n/a
46.9775	16.797	93955	prompt	n/a	lexington departure chosen headed\n
47.812	0.0905	95624	keystroke_l	l	n/a
48.037	0.075	96074	keystroke_e	e	n/a
48.2625	0.0895	96525	keystroke_x	x	n/a
48.487	0.12	96974	keystroke_i	i	n/a
48.832	0.1055	97664	keystroke_n	n	n/a
49.342	0.0905	98684	keystroke_g	g	n/a
49.568	0.075	99136	keystroke_t	t	n/a
49.6725	0.0745	99345	keystroke_o	o	n/a
49.882	0.0905	99764	keystroke_n	n	n/a
50.062	0.105	100124	keystroke_Key.space	Key.space	n/a
50.227	0.075	100454	keystroke_d	d	n/a
50.497	0.06	100994	keystroke_e	e	n/a
52.027	0.091	104054	keystroke_p	p	n/a
52.2525	0.195	104505	keystroke_e	e	n/a
52.522	0.105	105044	keystroke_r	r	n/a
53.5125	0.06	107025	keystroke_Key.backspace	Key.backspace	n/a
53.6315	0.105	107263	keystroke_Key.backspace	Key.backspace	n/a
53.7675	0.089	107535	keystroke_a	a	n/a
54.0515	0.061	108103	keystroke_t	t	n/a
54.217	0.105	108434	keystroke_u	u	n/a
54.368	0.0895	108736	keystroke_r	r	n/a
54.6675	0.045	109335	keystroke_e	e	n/a
55.6725	0.09	111345	keystroke_Key.space	Key.space	n/a
55.9275	0.09	111855	keystroke_c	c	n/a
57.6225	0.074	115245	keystroke_Key.backspace	Key.backspace	n/a
57.8775	0.075	115755	keystroke_Key.backspace	Key.backspace	n/a
58.0875	0.0595	116175	keystroke_Key.backspace	Key.backspace	n/a
58.252	0.0605	116504	keystroke_Key.backspace	Key.backspace	n/a
58.432	0.045	116864	keystroke_Key.backspace	Key.backspace	n/a
58.5375	0.1195	117075	keystroke_Key.backspace	Key.backspace	n/a
58.717	0.09	117434	keystroke_r	r	n/a
59.212	0.09	118424	keystroke_t	t	n/a
59.392	0.1055	118784	keystroke_u	u	n/a
59.5275	0.0745	119055	keystroke_r	r	n/a
59.7375	0.075	119475	keystroke_e	e	n/a
59.977	0.105	119954	keystroke_Key.space	Key.space	n/a
60.172	0.09	120344	keystroke_c	c	n/a
60.322	0.09	120644	keystroke_h	h	n/a
60.487	0.105	120974	keystroke_o	o	n/a
60.637	0.09	121274	keystroke_s	s	n/a
60.877	0.0605	121754	keystroke_e	e	n/a
61.087	0.045	122174	keystroke_n	n	n/a
61.8375	0.06	123675	keystroke_Key.space	Key.space	n/a
62.1075	0.075	124215	keystroke_h	h	n/a
62.1975	0.075	124395	keystroke_e	e	n/a
62.4525	0.045	124905	keystroke_a	a	n/a
62.7225	0.06	125445	keystroke_d	d	n/a
63.0975	0.06	126195	keystroke_e	e	n/a
63.308	0.045	126616	keystroke_d	d	n/a
63.6675	0.105	127335	keystroke_Key.enter	Key.enter	n/a
63.778	11.6825	127556	prompt	n/a	garage celebrities fossil lauderdale\n
64.6425	0.06	129285	keystroke_g	g	n/a
64.8975	0.075	129795	keystroke_a	a	n/a
65.1825	0.06	130365	keystroke_r	r	n/a
65.4675	0.06	130935	keystroke_g	g	n/a
66.067	0.12	132134	keystroke_Key.backspace	Key.backspace	n/a
66.217	0.06	132434	keystroke_a	a	n/a
66.442	0.075	132884	keystroke_g	g	n/a
66.637	0.06	133274	keystroke_e	e	n/a
67.057	0.105	134114	keystroke_Key.space	Key.space	n/a
67.237	0.09	134474	keystroke_c	c	n/a
67.477	0.06	134954	keystroke_e	e	n/a
67.612	0.0905	135224	keystroke_l	l	n/a
67.9875	0.06	135975	keystroke_e	e	n/a
68.2875	0.045	136575	keystroke_b	b	n/a
68.4975	0.06	136995	keystroke_r	r	n/a
68.843	0.1345	137686	keystroke_i	i	n/a
69.3375	0.06	138675	keystroke_t	t	n/a
69.5475	0.09	139095	keystroke_i	i	n/a
69.7275	0.09	139455	keystroke_e	e	n/a
69.9675	0.06	139935	keystroke_s	s	n/a
70.2065	0.0905	140413	keystroke_Key.space	Key.space	n/a
70.6575	0.075	141315	keystroke_f	f	n/a
70.7625	0.105	141525	keystroke_o	o	n/a
70.9125	0.045	141825	keystroke_s	s	n/a
71.0475	0.06	142095	keystroke_s	s	n/a
71.1975	0.075	142395	keystroke_i	i	n/a
71.4675	0.06	142935	keystroke_l	l	n/a
71.6775	0.0895	143355	keystroke_Key.space	Key.space	n/a
71.917	0.075	143834	keystroke_l	l	n/a
72.1725	0.0595	144345	keystroke_a	a	n/a
72.517	0.075	145034	keystroke_u	u	n/a
72.727	0.075	145454	keystroke_d	d	n/a
72.982	0.165	145964	keystroke_e	e	n/a
73.118	0.089	146236	keystroke_r	r	n/a
74.2575	0.0445	148515	keystroke_d	d	n/a
74.4975	0.0445	148995	keystroke_a	a	n/a
74.6625	0.075	149325	keystroke_l	l	n/a
74.8125	0.075	149625	keystroke_e	e	n/a
75.3515	0.105	150703	keystroke_Key.enter	Key.enter	n/a
75.466	12.8935	150932	prompt	n/a	damage avoiding agencies angola\n
76.4325	0.09	152865	keystroke_d	d	n/a
77.1675	0.045	154335	keystroke_a	a	n/a
77.3775	0.06	154755	keystroke_m	m	n/a
77.4825	0.075	154965	keystroke_a	a	n/a
77.7375	0.075	155475	keystroke_g	g	n/a
77.9325	0.09	155865	keystroke_e	e	n/a
78.1875	0.075	156375	keystroke_Key.space	Key.space	n/a
78.3375	0.075	156675	keystroke_a	a	n/a
78.4725	0.09	156945	keystroke_o	o	n/a
78.772	0.09	157544	keystroke_v	v	n/a
79.102	0.0455	158204	keystroke_Key.backspace	Key.backspace	n/a
79.207	0.075	158414	keystroke_Key.backspace	Key.backspace	n/a
79.342	0.075	158684	keystroke_v	v	n/a
79.5975	0.105	159195	keystroke_o	o	n/a
80.3025	0.1195	160605	keystroke_i	i	n/a
80.482	0.105	160964	keystroke_d	d	n/a
80.662	0.075	161324	keystroke_i	i	n/a
80.917	0.09	161834	keystroke_n	n	n/a
81.067	0.06	162134	keystroke_g	g	n/a
81.337	0.075	162674	keystroke_Key.space	Key.space	n/a
81.547	0.06	163094	keystroke_a	a	n/a
81.892	0.09	163784	keystroke_g	g	n/a
82.087	0.06	164174	keystroke_r	r	n/a
82.7325	0.0595	165465	keystroke_Key.backspace	Key.backspace	n/a
82.9725	0.075	165945	keystroke_e	e	n/a
83.227	0.105	166454	keystroke_n	n	n/a
83.647	0.0755	167294	keystroke_c	c	n/a
83.9325	0.1045	167865	keystroke_i	i	n/a
84.052	0.075	168104	keystroke_e	e	n/a
84.277	0.075	168554	keystroke_s	s	n/a
84.8775	0.12	169755	keystroke_Key.space	Key.space	n/a
85.0875	0.09	170175	keystroke_a	a	n/a
85.4325	0.09	170865	keystroke_n	n	n/a
85.8075	0.075	171615	keystroke_g	g	n/a
85.9125	0.09	171825	keystroke_o	o	n/a
86.1975	0.06	172395	keystroke_l	l	n/a
86.4075	0.075	172815	keystroke_a	a	n/a
88.2675	0.09	176535	keystroke_Key.enter	Key.enter	n/a
88.362	12.732	176724	prompt	n/a	administration biodiversity miscellaneous mails\n
89.2125	0.09	178425	keystroke_a	a	n/a
89.5875	0.06	179175	keystroke_d	d	n/a
89.7975	0.105	179595	keystroke_m	m	n/a
90.1425	0.1645	180285	keystroke_i	i	n/a
90.427	0.15	180854	keystroke_n	n	n/a
90.607	0.105	181214	keystroke_i	i	n/a
90.877	0.075	181754	keystroke_s	s	n/a
91.087	0.135	182174	keystroke_t	t	n/a
91.192	0.0905	182384	keystroke_r	r	n/a
91.4475	0.0895	182895	keystroke_a	a	n/a
91.762	0.0605	183524	keystroke_t	t	n/a
91.867	0.15	183734	keystroke_i	i	n/a
91.987	0.105	183974	keystroke_o	o	n/a
92.242	0.1045	184484	keystroke_n	n	n/a
92.362	0.1495	184724	keystroke_Key.space	Key.space	n/a
92.662	0.076	185324	keystroke_b	b	n/a
92.827	0.15	185654	keystroke_i	i	n/a
92.963	0.15	185926	keystroke_o	o	n/a
93.397	0.135	186794	keystroke_d	d	n/a
93.607	0.06	187214	keystroke_i	i	n/a
93.742	0.0905	187484	keystroke_v	v	n/a
94.027	0.165	188054	keystroke_e	e	n/a
94.147	0.09	188294	keystroke_r	r	n/a
94.492	0.0605	188984	keystroke_s	s	n/a
94.672	0.06	189344	keystroke_i	i	n/a
94.8075	0.195	189615	keystroke_t	t	n/a
94.957	0.09	189914	keystroke_y	y	n/a
95.182	0.135	190364	keystroke_Key.space	Key.space	n/a
95.363	0.164	190726	keystroke_m	m	n/a
95.542	0.105	191084	keystroke_i	i	n/a
95.722	0.091	191444	keystroke_s	s	n/a
96.1575	0.09	192315	keystroke_c	c	n/a
96.397	0.075	192794	keystroke_e	e	n/a
96.5475	0.0745	193095	keystroke_l	l	n/a
96.7275	0.09	193455	keystroke_l	l	n/a
97.5375	0.06	195075	keystroke_a	a	n/a
97.7625	0.104	195525	keystroke_n	n	n/a
98.5725	0.06	197145	keystroke_e	e	n/a
98.8575	0.24	197715	keystroke_o	o	n/a
99.0525	0.105	198105	keystroke_u	u	n/a
99.3225	0.06	198645	keystroke_s	s	n/a
99.6225	0.0895	199245	keystroke_Key.space	Key.space	n/a
99.847	0.09	199694	keystroke_m	m	n/a
100.042	0.09	200084	keystroke_a	a	n/a
100.147	0.136	200294	keystroke_i	i	n/a
100.268	0.12	200536	keystroke_l	l	n/a
100.5225	0.0455	201045	keystroke_s	s	n/a
101.002	0.09	202004	keystroke_Key.enter	Key.enter	n/a
101.097	9.2375	202194	prompt	n/a	airlines password knew solomon\n
101.767	0.0755	203534	keystroke_a	a	n/a
102.292	0.09	204584	keystroke_i	i	n/a
102.457	0.0595	204914	keystroke_r	r	n/a
102.5925	0.134	205185	keystroke_l	l	n/a
102.7875	0.059	205575	keystroke_i	i	n/a
102.997	0.076	205994	keystroke_n	n	n/a
103.147	0.0755	206294	keystroke_e	e	n/a
103.4775	0.0595	206955	keystroke_s	s	n/a
103.837	0.105	207674	keystroke_Key.space	Key.space	n/a
104.137	0.1055	208274	keystroke_p	p	n/a
104.272	0.06	208544	keystroke_a	a	n/a
104.497	0.045	208994	keystroke_s	s	n/a
104.632	0.045	209264	keystroke_s	s	n/a
104.812	0.075	209624	keystroke_w	w	n/a
104.962	0.09	209924	keystroke_o	o	n/a
105.157	0.06	210314	keystroke_r	r	n/a
105.712	0.045	211424	keystroke_d	d	n/a
106.072	0.105	212144	keystroke_Key.space	Key.space	n/a
106.162	0.06	212324	keystroke_k	k	n/a
106.402	0.0755	212804	keystroke_n	n	n/a
106.5075	0.075	213015	keystroke_e	e	n/a
106.7325	0.06	213465	keystroke_w	w	n/a
107.0775	0.09	214155	keystroke_Key.space	Key.space	n/a
107.2725	0.09	214545	keystroke_s	s	n/a
107.5725	0.075	215145	keystroke_o	o	n/a
107.7825	0.0745	215565	keystroke_l	l	n/a
107.977	0.075	215954	keystroke_o	o	n/a
108.157	0.09	216314	keystroke_m	m	n/a
108.262	0.106	216524	keystroke_o	o	n/a
108.488	0.059	216976	keystroke_n	n	n/a
110.227	0.105	220454	keystroke_Key.enter	Key.enter	n/a
110.3365	10.0935	220673	prompt	n/a	missing moving newspaper sensor\n
111.638	0.1495	223276	keystroke_m	m	n/a
111.802	0.0895	223604	keystroke_i	i	n/a
112.0565	0.06	224113	keystroke_s	s	n/a
112.252	0.0745	224504	keystroke_s	s	n/a
112.3875	0.0895	224775	keystroke_i	i	n/a
112.5525	0.1195	225105	keystroke_n	n	n/a
112.7015	0.09	225403	keystroke_g	g	n/a
112.9865	0.0905	225973	keystroke_Key.space	Key.space	n/a
113.227	0.105	226454	keystroke_m	m	n/a
113.3165	0.121	226633	keystroke_o	o	n/a
113.4515	0.091	226903	keystroke_v	v	n/a
113.6165	0.106	227233	keystroke_i	i	n/a
113.7965	0.1055	227593	keystroke_n	n	n/a
113.9165	0.075	227833	keystroke_g	g	n/a
114.2315	0.0905	228463	keystroke_Key.space	Key.space	n/a
114.4715	0.091	228943	keystroke_n	n	n/a
114.5915	0.0905	229183	keystroke_e	e	n/a
114.8015	0.09	229603	keystroke_w	w	n/a
115.1165	0.075	230233	keystroke_s	s	n/a
115.507	0.1045	231014	keystroke_p	p	n/a
115.7015	0.061	231403	keystroke_a	a	n/a
115.8215	0.106	231643	keystroke_p	p	n/a
116.1065	0.15	232213	keystroke_e	e	n/a
116.2415	0.106	232483	keystroke_r	r	n/a
116.8725	0.119	233745	keystroke_Key.space	Key.space	n/a
116.9925	0.074	233985	keystroke_s	s	n/a
117.217	0.09	234434	keystroke_e	e	n/a
117.4115	0.0905	234823	keystroke_n	n	n/a
118.013	0.075	236026	keystroke_s	s	n/a
118.1915	0.12	236383	keystroke_o	o	n/a
118.4025	0.089	236805	keystroke_r	r	n/a
120.3375	0.09	240675	keystroke_Key.enter	Key.enter	n/a
120.433	9.881	240866	prompt	n/a	capacity till reaches mcdonald\n
121.402	0.075	242804	keystroke_c	c	n/a
121.657	0.075	243314	keystroke_a	a	n/a
121.927	0.0755	243854	keystroke_p	p	n/a
122.1225	0.075	244245	keystroke_a	a	n/a
122.5725	0.105	245145	keystroke_c	c	n/a
122.8425	0.045	245685	keystroke_i	i	n/a
123.1125	0.1645	246225	keystroke_t	t	n/a
123.262	0.09	246524	keystroke_y	y	n/a
123.472	0.09	246944	keystroke_Key.space	Key.space	n/a
123.592	0.03	247184	keystroke_t	t	n/a
123.787	0.075	247574	keystroke_i	i	n/a
124.042	0.09	248084	keystroke_l	l	n/a
124.207	0.09	248414	keystroke_l	l	n/a
124.552	0.075	249104	keystroke_Key.space	Key.space	n/a
124.882	0.075	249764	keystroke_r	r	n/a
125.0175	0.0745	250035	keystroke_e	e	n/a
125.407	0.09	250814	keystroke_a	a	n/a
125.707	0.15	251414	keystroke_c	c	n/a
125.992	0.09	251984	keystroke_h	h	n/a
126.157	0.075	252314	keystroke_e	e	n/a
126.5925	0.0745	253185	keystroke_s	s	n/a
126.997	0.1055	253994	keystroke_Key.space	Key.space	n/a
127.507	0.075	255014	keystroke_m	m	n/a
127.7465	0.1055	255493	keystroke_c	c	n/a
128.7365	0.0605	257473	keystroke_d	d	n/a
128.8865	0.076	257773	keystroke_o	o	n/a
129.172	0.0755	258344	keystroke_n	n	n/a
129.3375	0.0745	258675	keystroke_a	a	n/a
129.532	0.0905	259064	keystroke_l	l	n/a
129.742	0.06	259484	keystroke_d	d	n/a
130.237	0.075	260474	keystroke_Key.enter	Key.enter	n/a
130.3175	9.7315	260635	prompt	n/a	angeles identify commented bingo\n
131.0175	0.1345	262035	keystroke_a	a	n/a
131.362	0.12	262724	keystroke_n	n	n/a
131.7515	0.09	263503	keystroke_g	g	n/a
132.052	0.06	264104	keystroke_e	e	n/a
132.247	0.0755	264494	keystroke_l	l	n/a
132.367	0.075	264734	keystroke_e	e	n/a
132.577	0.06	265154	keystroke_s	s	n/a
132.817	0.09	265634	keystroke_Key.space	Key.space	n/a
133.0275	0.0895	266055	keystroke_i	i	n/a
133.252	0.0905	266504	keystroke_d	d	n/a
133.507	0.105	267014	keystroke_e	e	n/a
133.6725	0.0895	267345	keystroke_n	n	n/a
134.122	0.09	268244	keystroke_t	t	n/a
134.332	0.06	268664	keystroke_i	i	n/a
134.7675	0.0895	269535	keystroke_f	f	n/a
135.277	0.09	270554	keystroke_y	y	n/a
135.637	0.15	271274	keystroke_Key.space	Key.space	n/a
135.907	0.135	271814	keystroke_c	c	n/a
136.1475	0.0895	272295	keystroke_o	o	n/a
136.417	0.06	272834	keystroke_m	m	n/a
136.552	0.0755	273104	keystroke_m	m	n/a
136.807	0.06	273614	keystroke_e	e	n/a
136.957	0.076	273914	keystroke_n	n	n/a
137.167	0.06	274334	keystroke_t	t	n/a
137.3925	0.0595	274785	keystroke_e	e	n/a
137.5725	0.0895	275145	keystroke_d	d	n/a
137.782	0.105	275564	keystroke_Key.space	Key.space	n/a
137.9925	0.0745	275985	keystroke_b	b	n/a
138.172	0.075	276344	keystroke_i	i	n/a
138.397	0.09	276794	keystroke_n	n	n/a
138.667	0.015	277334	keystroke_g	g	n/a
138.802	0.061	277604	keystroke_o	o	n/a
139.912	0.135	279824	keystroke_Key.enter	Key.enter	n/a
140.052	12.9415	280104	prompt	n/a	approve josh adventures interventions\n
140.722	0.09	281444	keystroke_a	a	n/a
141.0225	0.0745	282045	keystroke_p	p	n/a
141.2025	0.0895	282405	keystroke_p	p	n/a
141.577	0.045	283154	keystroke_r	r	n/a
141.727	0.06	283454	keystroke_o	o	n/a
141.892	0.0605	283784	keystroke_v	v	n/a
142.432	0.075	284864	keystroke_e	e	n/a
142.7325	0.074	285465	keystroke_Key.space	Key.space	n/a
143.557	0.135	287114	keystroke_j	j	n/a
143.7525	0.0895	287505	keystroke_o	o	n/a
143.902	0.075	287804	keystroke_s	s	n/a
144.082	0.045	288164	keystroke_h	h	n/a
144.4125	0.09	288825	keystroke_Key.space	Key.space	n/a
144.8925	0.045	289785	keystroke_a	a	n/a
145.1925	0.075	290385	keystroke_d	d	n/a
145.5375	0.06	291075	keystroke_v	v	n/a
146.2125	0.075	292425	keystroke_e	e	n/a
146.3625	0.09	292725	keystroke_n	n	n/a
146.5575	0.075	293115	keystroke_t	t	n/a
146.7075	0.1195	293415	keystroke_u	u	n/a
146.842	0.09	293684	keystroke_r	r	n/a
147.037	0.1055	294074	keystroke_e	e	n/a
147.322	0.0895	294644	keystroke_s	s	n/a
147.6825	0.104	295365	keystroke_Key.space	Key.space	n/a
147.8465	0.106	295693	keystroke_i	i	n/a
148.0715	0.1365	296143	keystroke_n	n	n/a
148.358	0.014	296716	keystroke_t	t	n/a
148.5675	0.135	297135	keystroke_e	e	n/a
148.822	0.0895	297644	keystroke_r	r	n/a
150.0365	0.0905	300073	keystroke_v	v	n/a
150.247	0.0605	300494	keystroke_e	e	n/a
150.397	0.0895	300794	keystroke_n	n	n/a
150.7865	0.075	301573	keystroke_t	t	n/a
150.937	0.1795	301874	keystroke_i	i	n/a
151.0865	0.12	302173	keystroke_o	o	n/a
151.4015	0.075	302803	keystroke_n	n	n/a
151.5965	0.076	303193	keystroke_s	s	n/a
152.857	0.135	305714	keystroke_Key.enter	Key.enter	n/a
152.9965	6.9275	305993	prompt	n/a	flesh basement pink worth\n
153.967	0.0755	307934	keystroke_f	f	n/a
154.147	0.09	308294	keystroke_l	l	n/a
154.297	0.09	308594	keystroke_e	e	n/a
154.522	0.061	309044	keystroke_s	s	n/a
154.672	0.09	309344	keystroke_h	h	n/a
154.897	0.09	309794	keystroke_Key.space	Key.space	n/a
155.047	0.0755	310094	keystroke_b	b	n/a
155.362	0.045	310724	keystroke_a	a	n/a
155.5565	0.0765	311113	keystroke_s	s	n/a
155.767	0.075	311534	keystroke_e	e	n/a
155.933	0.044	311866	keystroke_m	m	n/a
155.992	0.0605	311984	keystroke_e	e	n/a
156.172	0.075	312344	keystroke_n	n	n/a
156.337	0.0745	312674	keystroke_t	t	n/a
156.6215	0.105	313243	keystroke_Key.space	Key.space	n/a
156.9075	0.135	313815	keystroke_p	p	n/a
157.1615	0.09	314323	keystroke_i	i	n/a
157.4465	0.0905	314893	keystroke_n	n	n/a
157.657	0.075	315314	keystroke_k	k	n/a
157.882	0.09	315764	keystroke_Key.space	Key.space	n/a
158.092	0.06	316184	keystroke_w	w	n/a
158.212	0.075	316424	keystroke_o	o	n/a
158.452	0.06	316904	keystroke_r	r	n/a
158.677	0.15	317354	keystroke_t	t	n/a
158.797	0.1055	317594	keystroke_h	h	n/a
159.787	0.135	319574	keystroke_Key.enter	Key.enter	n/a
159.9275	11.111	319855	prompt	n/a	noon ladies treatments colleague\n
160.672	0.075	321344	keystroke_n	n	n/a
160.927	0.045	321854	keystroke_o	o	n/a
161.062	0.075	322124	keystroke_o	o	n/a
161.287	0.075	322574	keystroke_n	n	n/a
161.497	0.09	322994	keystroke_Key.space	Key.space	n/a
161.692	0.09	323384	keystroke_l	l	n/a
161.872	0.09	323744	keystroke_a	a	n/a
162.172	0.0755	324344	keystroke_d	d	n/a
162.277	0.105	324554	keystroke_i	i	n/a
162.442	0.075	324884	keystroke_e	e	n/a
162.652	0.0605	325304	keystroke_s	s	n/a
162.9975	0.089	325995	keystroke_Key.space	Key.space	n/a
163.6115	0.15	327223	keystroke_t	t	n/a
163.717	0.1045	327434	keystroke_r	r	n/a
163.9425	0.06	327885	keystroke_e	e	n/a
164.1675	0.075	328335	keystroke_a	a	n/a
164.4975	0.06	328995	keystroke_t	t	n/a
164.6925	0.06	329385	keystroke_m	m	n/a
164.7675	0.0745	329535	keystroke_e	e	n/a
164.932	0.075	329864	keystroke_n	n	n/a
165.052	0.06	330104	keystroke_t	t	n/a
165.337	0.09	330674	keystroke_s	s	n/a
165.697	0.09	331394	keystroke_Key.space	Key.space	n/a
165.877	0.06	331754	keystroke_c	c	n/a
165.982	0.105	331964	keystroke_o	o	n/a
166.2675	0.0595	332535	keystroke_l	l	n/a
166.477	0.06	332954	keystroke_l	l	n/a
166.687	0.105	333374	keystroke_e	e	n/a
167.407	0.06	334814	keystroke_a	a	n/a
167.6325	0.104	335265	keystroke_g	g	n/a
167.8575	0.104	335715	keystroke_u	u	n/a
168.1275	0.06	336255	keystroke_e	e	n/a
170.964	0.073	341928	keystroke_Key.enter	Key.enter	n/a
171.042	11.367	342084	prompt	n/a	bride during constitution mainly\n
171.9375	0.075	343875	keystroke_b	b	n/a
172.162	0.0605	344324	keystroke_r	r	n/a
172.3125	0.1045	344625	keystroke_i	i	n/a
172.432	0.06	344864	keystroke_d	d	n/a
172.672	0.075	345344	keystroke_g	g	n/a
173.317	0.12	346634	keystroke_Key.backspace	Key.backspace	n/a
173.482	0.075	346964	keystroke_e	e	n/a
173.707	0.09	347414	keystroke_Key.space	Key.space	n/a
173.812	0.12	347624	keystroke_d	d	n/a
174.337	0.15	348674	keystroke_u	u	n/a
174.772	0.075	349544	keystroke_r	r	n/a
174.8625	0.075	349725	keystroke_i	i	n/a
175.042	0.105	350084	keystroke_n	n	n/a
175.1925	0.0895	350385	keystroke_g	g	n/a
175.432	0.075	350864	keystroke_Key.space	Key.space	n/a
175.642	0.075	351284	keystroke_c	c	n/a
175.7625	0.0745	351525	keystroke_o	o	n/a
176.002	0.075	352004	keystroke_n	n	n/a
176.317	0.0755	352634	keystroke_s	s	n/a
176.857	0.09	353714	keystroke_i	i	n/a
177.292	0.075	354584	keystroke_Key.backspace	Key.backspace	n/a
177.442	0.1055	354884	keystroke_t	t	n/a
177.682	0.135	355364	keystroke_i	i	n/a
178.222	0.105	356444	keystroke_t	t	n/a
178.582	0.105	357164	keystroke_u	u	n/a
178.897	0.075	357794	keystroke_t	t	n/a
179.077	0.135	358154	keystroke_i	i	n/a
179.182	0.12	358364	keystroke_o	o	n/a
179.467	0.075	358934	keystroke_n	n	n/a
179.707	0.1055	359414	keystroke_Key.space	Key.space	n/a
180.022	0.1055	360044	keystroke_m	m	n/a
180.187	0.075	360374	keystroke_a	a	n/a
180.5475	0.0745	361095	keystroke_i	i	n/a
180.727	0.075	361454	keystroke_n	n	n/a
180.967	0.0595	361934	keystroke_l	l	n/a
181.162	0.0455	362324	keystroke_u	u	n/a
181.7315	0.06	363463	keystroke_Key.backspace	Key.backspace	n/a
181.9115	0.0605	363823	keystroke_y	y	n/a
182.332	0.0745	364664	keystroke_Key.enter	Key.enter	n/a
182.4135	9.52	364827	prompt	n/a	editing refine chick difficult\n
183.1865	0.075	366373	keystroke_e	e	n/a
183.3525	0.089	366705	keystroke_d	d	n/a
183.4865	0.061	366973	keystroke_i	i	n/a
183.6075	0.075	367215	keystroke_t	t	n/a
183.712	0.0595	367424	keystroke_i	i	n/a
183.9525	0.0595	367905	keystroke_n	n	n/a
184.0575	0.074	368115	keystroke_g	g	n/a
184.2075	0.089	368415	keystroke_Key.space	Key.space	n/a
184.3415	0.075	368683	keystroke_r	r	n/a
184.5365	0.06	369073	keystroke_e	e	n/a
184.7465	0.076	369493	keystroke_f	f	n/a
184.8965	0.076	369793	keystroke_i	i	n/a
185.0765	0.076	370153	keystroke_n	n	n/a
185.2125	0.075	370425	keystroke_e	e	n/a
185.392	0.0745	370784	keystroke_Key.space	Key.space	n/a
185.7525	0.09	371505	keystroke_c	c	n/a
185.8725	0.089	371745	keystroke_h	h	n/a
185.9625	0.105	371925	keystroke_i	i	n/a
186.1275	0.075	372255	keystroke_c	c	n/a
186.2465	0.075	372493	keystroke_k	k	n/a
186.3975	0.12	372795	keystroke_Key.space	Key.space	n/a
186.5325	0.075	373065	keystroke_d	d	n/a
186.6665	0.076	373333	keystroke_i	i	n/a
186.8475	0.06	373695	keystroke_f	f	n/a
187.0125	0.075	374025	keystroke_f	f	n/a
187.7175	0.09	375435	keystroke_i	i	n/a
188.1365	0.106	376273	keystroke_c	c	n/a
188.2875	0.09	376575	keystroke_u	u	n/a
188.5415	0.091	377083	keystroke_l	l	n/a
188.6915	0.0755	377383	keystroke_t	t	n/a
191.889	0.0425	383778	keystroke_Key.enter	Key.enter	n/a
191.937	9.912	383874	prompt	n/a	marble late pens africa\n
192.9375	0.074	385875	keystroke_m	m	n/a
193.4625	0.1045	386925	keystroke_a	a	n/a
193.732	0.075	387464	keystroke_r	r	n/a
194.032	0.09	388064	keystroke_b	b	n/a
194.212	0.09	388424	keystroke_l	l	n/a
194.422	0.1205	388844	keystroke_e	e	n/a
194.647	0.1655	389294	keystroke_Key.space	Key.space	n/a
194.797	0.12	389594	keystroke_l	l	n/a
194.932	0.075	389864	keystroke_a	a	n/a
195.217	0.075	390434	keystroke_t	t	n/a
195.367	0.075	390734	keystroke_e	e	n/a
195.592	0.09	391184	keystroke_Key.space	Key.space	n/a
195.712	0.09	391424	keystroke_p	p	n/a
195.847	0.06	391694	keystroke_e	e	n/a
195.983	0.074	391966	keystroke_n	n	n/a
196.102	0.075	392204	keystroke_s	s	n/a
196.297	0.0905	392594	keystroke_Key.space	Key.space	n/a
196.402	0.045	392804	keystroke_a	a	n/a
196.6425	0.1045	393285	keystroke_f	f	n/a
196.807	0.075	393614	keystroke_r	r	n/a
196.987	0.06	393974	keystroke_i	i	n/a
197.152	0.06	394304	keystroke_c	c	n/a
197.6165	0.076	395233	keystroke_a	a	n/a
201.7295	0.118	403459	keystroke_Key.enter	Key.enter	n/a
201.8515	8.5625	403703	prompt	n/a	rice ward puzzle heroes\n
202.7625	0.09	405525	keystroke_r	r	n/a
202.9125	0.12	405825	keystroke_i	i	n/a
203.047	0.0905	406094	keystroke_c	c	n/a
203.257	0.075	406514	keystroke_e	e	n/a
203.482	0.075	406964	keystroke_Key.space	Key.space	n/a
204.007	0.1055	408014	keystroke_w	w	n/a
204.2475	0.0745	408495	keystroke_a	a	n/a
204.4575	0.0895	408915	keystroke_r	r	n/a
204.697	0.12	409394	keystroke_d	d	n/a
204.877	0.21	409754	keystroke_Key.space	Key.space	n/a
205.0725	0.09	410145	keystroke_p	p	n/a
205.3125	0.0895	410625	keystroke_u	u	n/a
205.552	0.0155	411104	keystroke_z	z	n/a
205.6425	0.0745	411285	keystroke_z	z	n/a
206.032	0.12	412064	keystroke_e	e	n/a
206.557	0.105	413114	keystroke_Key.backspace	Key.backspace	n/a
206.828	0.089	413656	keystroke_l	l	n/a
206.932	0.076	413864	keystroke_e	e	n/a
207.142	0.075	414284	keystroke_Key.space	Key.space	n/a
207.337	0.0755	414674	keystroke_h	h	n/a
207.5175	0.105	415035	keystroke_e	e	n/a
208.028	0.089	416056	keystroke_r	r	n/a
208.2515	0.091	416503	keystroke_o	o	n/a
208.3865	0.091	416773	keystroke_e	e	n/a
208.6125	0.09	417225	keystroke_s	s	n/a
210.277	0.135	420554	keystroke_Key.enter	Key.enter	n/a
210.417	14.262	420834	prompt	n/a	responsibilities radar jerusalem remark\n
211.252	0.075	422504	keystroke_r	r	n/a
211.447	0.0755	422894	keystroke_e	e	n/a
211.627	0.075	423254	keystroke_s	s	n/a
211.7925	0.1795	423585	keystroke_p	p	n/a
211.957	0.075	423914	keystroke_o	o	n/a
212.2425	0.0745	424485	keystroke_n	n	n/a
212.3925	0.0745	424785	keystroke_s	s	n/a
212.542	0.09	425084	keystroke_i	i	n/a
212.7675	0.075	425535	keystroke_b	b	n/a
212.8875	0.0895	425775	keystroke_i	i	n/a
213.0075	0.165	426015	keystroke_l	l	n/a
213.157	0.12	426314	keystroke_i	i	n/a
213.502	0.045	427004	keystroke_i	i	n/a
213.907	0.105	427814	keystroke_Key.backspace	Key.backspace	n/a
214.042	0.06	428084	keystroke_t	t	n/a
214.1625	0.0895	428325	keystroke_i	i	n/a
214.2975	0.0895	428595	keystroke_e	e	n/a
214.507	0.105	429014	keystroke_s	s	n/a
214.732	0.06	429464	keystroke_Key.space	Key.space	n/a
215.527	0.06	431054	keystroke_r	r	n/a
215.782	0.06	431564	keystroke_a	a	n/a
215.977	0.105	431954	keystroke_d	d	n/a
216.4275	0.075	432855	keystroke_a	a	n/a
216.6225	0.09	433245	keystroke_r	r	n/a
216.7715	0.12	433543	keystroke_Key.space	Key.space	n/a
216.9525	0.1195	433905	keystroke_j	j	n/a
217.147	0.0905	434294	keystroke_e	e	n/a
217.762	0.09	435524	keystroke_r	r	n/a
219.2465	0.106	438493	keystroke_u	u	n/a
219.4725	0.06	438945	keystroke_s	s	n/a
219.6675	0.075	439335	keystroke_a	a	n/a
219.8475	0.089	439695	keystroke_l	l	n/a
220.1175	0.075	440235	keystroke_e	e	n/a
220.3115	0.076	440623	keystroke_m	m	n/a
220.6725	0.089	441345	keystroke_Key.space	Key.space	n/a
223.224	0.088	446448	keystroke_r	r	n/a
223.2825	0.1045	446565	keystroke_e	e	n/a
223.582	0.105	447164	keystroke_m	m	n/a
223.702	0.105	447404	keystroke_a	a	n/a
223.927	0.1055	447854	keystroke_r	r	n/a
224.047	0.06	448094	keystroke_k	k	n/a
224.5875	0.09	449175	keystroke_Key.enter	Key.enter	n/a
224.6825	10.6165	449365	prompt	n/a	correspondence dimension affect friends\n
225.5325	0.105	451065	keystroke_c	c	n/a
225.7275	0.075	451455	keystroke_o	o	n/a
225.9525	0.075	451905	keystroke_r	r	n/a
226.1025	0.09	452205	keystroke_r	r	n/a
226.4475	0.075	452895	keystroke_e	e	n/a
226.6725	0.0595	453345	keystroke_s	s	n/a
227.332	0.18	454664	keystroke_p	p	n/a
227.482	0.09	454964	keystroke_o	o	n/a
227.797	0.075	455594	keystroke_n	n	n/a
228.0375	0.0145	456075	keystroke_d	d	n/a
228.262	0.075	456524	keystroke_e	e	n/a
228.412	0.075	456824	keystroke_n	n	n/a
228.5625	0.0745	457125	keystroke_c	c	n/a
228.817	0.06	457634	keystroke_e	e	n/a
229.042	0.105	458084	keystroke_Key.space	Key.space	n/a
229.267	0.075	458534	keystroke_d	d	n/a
229.417	0.06	458834	keystroke_i	i	n/a
229.7025	0.0745	459405	keystroke_m	m	n/a
230.0475	0.075	460095	keystroke_e	e	n/a
230.2575	0.06	460515	keystroke_n	n	n/a
231.0225	0.09	462045	keystroke_s	s	n/a
231.2025	0.1795	462405	keystroke_i	i	n/a
231.3225	0.1195	462645	keystroke_o	o	n/a
231.712	0.09	463424	keystroke_n	n	n/a
232.1015	0.0905	464203	keystroke_Key.space	Key.space	n/a
232.2815	0.075	464563	keystroke_a	a	n/a
232.5365	0.046	465073	keystroke_f	f	n/a
232.657	0.0755	465314	keystroke_f	f	n/a
232.822	0.075	465644	keystroke_e	e	n/a
233.0315	0.0905	466063	keystroke_c	c	n/a
233.3165	0.06	466633	keystroke_t	t	n/a
233.482	0.1055	466964	keystroke_Key.space	Key.space	n/a
233.6015	0.1055	467203	keystroke_f	f	n/a
233.7515	0.09	467503	keystroke_r	r	n/a
233.8875	0.089	467775	keystroke_i	i	n/a
233.9925	0.059	467985	keystroke_e	e	n/a
234.1275	0.075	468255	keystroke_n	n	n/a
234.2165	0.06	468433	keystroke_d	d	n/a
234.3965	0.061	468793	keystroke_s	s	n/a
235.207	0.09	470414	keystroke_Key.enter	Key.enter	n/a
235.3015	8.5175	470603	prompt	n/a	island refine eagle teams\n
235.9115	0.031	471823	keystroke_i	i	n/a
236.0165	0.06	472033	keystroke_s	s	n/a
236.1815	0.0905	472363	keystroke_l	l	n/a
236.2865	0.0605	472573	keystroke_a	a	n/a
236.4965	0.075	472993	keystroke_n	n	n/a
236.6765	0.06	473353	keystroke_d	d	n/a
236.9625	0.075	473925	keystroke_Key.space	Key.space	n/a
237.2775	0.075	474555	keystroke_r	r	n/a
237.4875	0.075	474975	keystroke_e	e	n/a
237.757	0.0755	475514	keystroke_f	f	n/a
237.997	0.075	475994	keystroke_i	i	n/a
238.192	0.09	476384	keystroke_n	n	n/a
238.342	0.09	476684	keystroke_e	e	n/a
238.5375	0.0895	477075	keystroke_Key.space	Key.space	n/a
238.657	0.09	477314	keystroke_e	e	n/a
238.972	0.105	477944	keystroke_a	a	n/a
239.242	0.075	478484	keystroke_g	g	n/a
239.467	0.09	478934	keystroke_l	l	n/a
239.632	0.09	479264	keystroke_e	e	n/a
239.842	0.09	479684	keystroke_Key.space	Key.space	n/a
240.037	0.06	480074	keystroke_t	t	n/a
240.187	0.075	480374	keystroke_e	e	n/a
240.427	0.06	480854	keystroke_a	a	n/a
240.562	0.09	481124	keystroke_m	m	n/a
240.712	0.075	481424	keystroke_s	s	n/a
243.789	0.028	487578	keystroke_Key.enter	Key.enter	n/a
243.8215	8.727	487643	prompt	n/a	healing springer licking surge\n
244.462	0.12	488924	keystroke_h	h	n/a
244.5675	0.0745	489135	keystroke_e	e	n/a
244.762	0.075	489524	keystroke_a	a	n/a
244.822	0.105	489644	keystroke_l	l	n/a
244.972	0.075	489944	keystroke_i	i	n/a
245.167	0.075	490334	keystroke_n	n	n/a
245.272	0.06	490544	keystroke_g	g	n/a
245.377	0.105	490754	keystroke_Key.space	Key.space	n/a
245.512	0.075	491024	keystroke_s	s	n/a
245.647	0.1205	491294	keystroke_p	p	n/a
245.812	0.075	491624	keystroke_r	r	n/a
245.947	0.075	491894	keystroke_i	i	n/a
246.157	0.075	492314	keystroke_n	n	n/a
246.2765	0.06	492553	keystroke_g	g	n/a
246.4715	0.12	492943	keystroke_e	e	n/a
246.5765	0.075	493153	keystroke_r	r	n/a
246.9515	0.135	493903	keystroke_Key.space	Key.space	n/a
247.1475	0.104	494295	keystroke_l	l	n/a
247.3565	0.091	494713	keystroke_i	i	n/a
247.4765	0.0905	494953	keystroke_c	c	n/a
247.5965	0.105	495193	keystroke_k	k	n/a
247.837	0.0745	495674	keystroke_i	i	n/a
247.9875	0.104	495975	keystroke_n	n	n/a
248.1365	0.09	496273	keystroke_g	g	n/a
248.3015	0.105	496603	keystroke_Key.space	Key.space	n/a
248.4675	0.074	496935	keystroke_s	s	n/a
248.5875	0.104	497175	keystroke_u	u	n/a
248.7665	0.06	497533	keystroke_r	r	n/a
248.9615	0.061	497923	keystroke_g	g	n/a
249.1725	0.059	498345	keystroke_e	e	n/a
252.5195	0.028	505039	keystroke_Key.enter	Key.enter	n/a
252.5515	8.9375	505103	prompt	n/a	snow precipitation median roger\n
253.1325	0.0895	506265	keystroke_s	s	n/a
253.267	0.15	506534	keystroke_n	n	n/a
253.387	0.15	506774	keystroke_o	o	n/a
253.537	0.075	507074	keystroke_w	w	n/a
253.642	0.135	507284	keystroke_Key.space	Key.space	n/a
253.807	0.105	507614	keystroke_p	p	n/a
254.377	0.18	508754	keystroke_r	r	n/a
254.587	0.09	509174	keystroke_e	e	n/a
255.172	0.1055	510344	keystroke_c	c	n/a
255.3825	0.1195	510765	keystroke_i	i	n/a
255.652	0.135	511304	keystroke_p	p	n/a
256.927	0.105	513854	keystroke_i	i	n/a
257.0325	0.0745	514065	keystroke_t	t	n/a
257.332	0.0755	514664	keystroke_a	a	n/a
257.692	0.0905	515384	keystroke_t	t	n/a
257.842	0.12	515684	keystroke_i	i	n/a
257.932	0.09	515864	keystroke_o	o	n/a
258.142	0.075	516284	keystroke_n	n	n/a
258.337	0.075	516674	keystroke_Key.space	Key.space	n/a
258.6825	0.0745	517365	keystroke_m	m	n/a
258.847	0.0605	517694	keystroke_e	e	n/a
259.297	0.075	518594	keystroke_d	d	n/a
259.837	0.0745	519674	keystroke_i	i	n/a
259.987	0.0595	519974	keystroke_a	a	n/a
260.1215	0.075	520243	keystroke_n	n	n/a
260.2265	0.12	520453	keystroke_Key.space	Key.space	n/a
260.4665	0.06	520933	keystroke_r	r	n/a
260.5715	0.0905	521143	keystroke_o	o	n/a
260.7065	0.06	521413	keystroke_g	g	n/a
260.8715	0.135	521743	keystroke_e	e	n/a
260.9915	0.0905	521983	keystroke_r	r	n/a
261.4115	0.0755	522823	keystroke_Key.enter	Key.enter	n/a
261.4915	7.647	522983	prompt	n/a	sheer factor judges martin\n
262.3875	0.089	524775	keystroke_s	s	n/a
262.6115	0.09	525223	keystroke_h	h	n/a
262.7465	0.0455	525493	keystroke_e	e	n/a
262.882	0.06	525764	keystroke_e	e	n/a
263.077	0.0895	526154	keystroke_r	r	n/a
263.437	0.1195	526874	keystroke_Key.space	Key.space	n/a
263.7815	0.075	527563	keystroke_f	f	n/a
264.0675	0.105	528135	keystroke_a	a	n/a
264.3525	0.09	528705	keystroke_c	c	n/a
264.6525	0.09	529305	keystroke_t	t	n/a
264.8025	0.12	529605	keystroke_o	o	n/a
264.9525	0.0595	529905	keystroke_r	r	n/a
265.1775	0.089	530355	keystroke_Key.space	Key.space	n/a
265.3425	0.089	530685	keystroke_j	j	n/a
265.5375	0.105	531075	keystroke_u	u	n/a
265.6575	0.075	531315	keystroke_d	d	n/a
265.8825	0.06	531765	keystroke_g	g	n/a
266.1365	0.076	532273	keystroke_e	e	n/a
266.5725	0.089	533145	keystroke_s	s	n/a
266.857	0.0905	533714	keystroke_Key.space	Key.space	n/a
267.0525	0.09	534105	keystroke_m	m	n/a
267.2475	0.075	534495	keystroke_a	a	n/a
267.787	0.075	535574	keystroke_r	r	n/a
268.0275	0.059	536055	keystroke_t	t	n/a
268.252	0.075	536504	keystroke_i	i	n/a
268.432	0.075	536864	keystroke_n	n	n/a
269.0175	0.1195	538035	keystroke_Key.enter	Key.enter	n/a
269.1415	7.5275	538283	prompt	n/a	pink feelings emacs strikes\n
269.827	0.15	539654	keystroke_p	p	n/a
270.052	0.075	540104	keystroke_i	i	n/a
270.277	0.105	540554	keystroke_n	n	n/a
270.352	0.15	540704	keystroke_k	k	n/a
270.547	0.105	541094	keystroke_Key.space	Key.space	n/a
270.667	0.09	541334	keystroke_f	f	n/a
270.817	0.09	541634	keystroke_e	e	n/a
270.967	0.075	541934	keystroke_e	e	n/a
271.072	0.135	542144	keystroke_l	l	n/a
271.252	0.09	542504	keystroke_i	i	n/a
271.627	0.06	543254	keystroke_n	n	n/a
271.762	0.06	543524	keystroke_g	g	n/a
272.077	0.075	544154	keystroke_s	s	n/a
272.407	0.1045	544814	keystroke_Key.space	Key.space	n/a
272.7225	0.09	545445	keystroke_e	e	n/a
272.9625	0.09	545925	keystroke_m	m	n/a
273.2025	0.075	546405	keystroke_a	a	n/a
273.4575	0.09	546915	keystroke_c	c	n/a
273.7425	0.075	547485	keystroke_s	s	n/a
274.0725	0.12	548145	keystroke_Key.space	Key.space	n/a
274.2375	0.075	548475	keystroke_s	s	n/a
274.4625	0.12	548925	keystroke_t	t	n/a
274.5525	0.105	549105	keystroke_r	r	n/a
274.7625	0.06	549525	keystroke_i	i	n/a
275.0175	0.09	550035	keystroke_k	k	n/a
275.3175	0.075	550635	keystroke_e	e	n/a
275.5265	0.076	551053	keystroke_s	s	n/a
276.5915	0.075	553183	keystroke_Key.enter	Key.enter	n/a
276.6735	11.8305	553347	prompt	n/a	vocal malpractice diploma trouble\n
277.5665	0.0605	555133	keystroke_v	v	n/a
277.702	0.09	555404	keystroke_o	o	n/a
277.822	0.06	555644	keystroke_c	c	n/a
278.002	0.075	556004	keystroke_a	a	n/a
278.1215	0.0905	556243	keystroke_l	l	n/a
278.3165	0.1355	556633	keystroke_Key.space	Key.space	n/a
278.4665	0.0755	556933	keystroke_m	m	n/a
278.617	0.075	557234	keystroke_a	a	n/a
278.767	0.105	557534	keystroke_l	l	n/a
279.232	0.09	558464	keystroke_p	p	n/a
279.6525	0.06	559305	keystroke_r	r	n/a
279.9075	0.06	559815	keystroke_a	a	n/a
280.1625	0.06	560325	keystroke_c	c	n/a
280.4475	0.059	560895	keystroke_t	t	n/a
280.6425	0.089	561285	keystroke_i	i	n/a
280.8065	0.075	561613	keystroke_c	c	n/a
281.0625	0.074	562125	keystroke_e	e	n/a
281.4365	0.105	562873	keystroke_Key.space	Key.space	n/a
281.8565	0.091	563713	keystroke_d	d	n/a
282.0675	0.06	564135	keystroke_i	i	n/a
282.6815	0.076	565363	keystroke_a	a	n/a
283.2075	0.075	566415	keystroke_Key.backspace	Key.backspace	n/a
283.3875	0.09	566775	keystroke_p	p	n/a
283.6875	0.075	567375	keystroke_o	o	n/a
283.9575	0.06	567915	keystroke_l	l	n/a
284.4365	0.045	568873	keystroke_Key.backspace	Key.backspace	n/a
284.587	0.0605	569174	keystroke_Key.backspace	Key.backspace	n/a
284.7975	0.075	569595	keystroke_l	l	n/a
284.9925	0.075	569985	keystroke_o	o	n/a
285.2765	0.061	570553	keystroke_m	m	n/a
285.4575	0.09	570915	keystroke_a	a	n/a
285.6675	0.105	571335	keystroke_Key.space	Key.space	n/a
286.0575	0.1345	572115	keystroke_t	t	n/a
286.2075	0.0895	572415	keystroke_r	r	n/a
286.432	0.1805	572864	keystroke_o	o	n/a
286.582	0.1205	573164	keystroke_u	u	n/a
286.732	0.0755	573464	keystroke_b	b	n/a
287.452	0.075	574904	keystroke_l	l	n/a
287.8125	0.0745	575625	keystroke_e	e	n/a
288.3975	0.104	576795	keystroke_Key.enter	Key.enter	n/a
288.507	8.4265	577014	prompt	n/a	knives so're michael earlier\n
289.4775	0.06	578955	keystroke_k	k	n/a
289.7475	0.075	579495	keystroke_n	n	n/a
290.0175	0.09	580035	keystroke_i	i	n/a
290.5415	0.106	581083	keystroke_v	v	n/a
290.7675	0.09	581535	keystroke_e	e	n/a
290.9925	0.09	581985	keystroke_s	s	n/a
291.2325	0.105	582465	keystroke_Key.space	Key.space	n/a
291.412	0.0755	582824	keystroke_s	s	n/a
291.517	0.06	583034	keystroke_o	o	n/a
291.817	0.075	583634	keystroke_'	'	n/a
292.027	0.045	584054	keystroke_r	r	n/a
292.177	0.0755	584354	keystroke_e	e	n/a
292.507	0.0905	585014	keystroke_Key.space	Key.space	n/a
292.7775	0.09	585555	keystroke_m	m	n/a
293.0175	0.09	586035	keystroke_i	i	n/a
293.1825	0.06	586365	keystroke_c	c	n/a
293.3175	0.06	586635	keystroke_h	h	n/a
293.5275	0.03	587055	keystroke_a	a	n/a
294.0225	0.075	588045	keystroke_e	e	n/a
294.2015	0.075	588403	keystroke_l	l	n/a
294.5615	0.061	589123	keystroke_Key.space	Key.space	n/a
294.7565	0.0755	589513	keystroke_e	e	n/a
295.1015	0.061	590203	keystroke_a	a	n/a
295.2375	0.074	590475	keystroke_l	l	n/a
295.6425	0.089	591285	keystroke_Key.backspace	Key.backspace	n/a
295.8375	0.06	591675	keystroke_r	r	n/a
296.0025	0.09	592005	keystroke_l	l	n/a
296.2725	0.075	592545	keystroke_i	i	n/a
296.3925	0.135	592785	keystroke_e	e	n/a
296.5125	0.089	593025	keystroke_r	r	n/a
296.857	0.075	593714	keystroke_Key.enter	Key.enter	n/a
296.937	7.527	593874	prompt	n/a	colleagues broker joins armstrong\n
297.7125	0.0895	595425	keystroke_c	c	n/a
297.8315	0.09	595663	keystroke_o	o	n/a
298.0715	0.0605	596143	keystroke_l	l	n/a
298.207	0.0905	596414	keystroke_l	l	n/a
298.5225	0.06	597045	keystroke_e	e	n/a
299.0465	0.076	598093	keystroke_a	a	n/a
299.3175	0.045	598635	keystroke_g	g	n/a
299.4225	0.104	598845	keystroke_u	u	n/a
299.557	0.0895	599114	keystroke_e	e	n/a
299.7675	0.075	599535	keystroke_s	s	n/a
299.9315	0.1055	599863	keystroke_Key.space	Key.space	n/a
300.1725	0.059	600345	keystroke_b	b	n/a
300.3225	0.06	600645	keystroke_r	r	n/a
300.427	0.1195	600854	keystroke_o	o	n/a
300.5175	0.104	601035	keystroke_k	k	n/a
300.6225	0.1495	601245	keystroke_e	e	n/a
300.7575	0.075	601515	keystroke_r	r	n/a
300.892	0.1205	601784	keystroke_Key.space	Key.space	n/a
300.997	0.09	601994	keystroke_j	j	n/a
301.132	0.165	602264	keystroke_o	o	n/a
301.252	0.075	602504	keystroke_i	i	n/a
301.477	0.0755	602954	keystroke_n	n	n/a
301.5825	0.075	603165	keystroke_s	s	n/a
301.777	0.075	603554	keystroke_Key.space	Key.space	n/a
301.912	0.06	603824	keystroke_a	a	n/a
302.1825	0.06	604365	keystroke_r	r	n/a
302.5575	0.075	605115	keystroke_m	m	n/a
302.9175	0.075	605835	keystroke_s	s	n/a
303.1125	0.105	606225	keystroke_t	t	n/a
303.2025	0.09	606405	keystroke_r	r	n/a
303.2775	0.075	606555	keystroke_o	o	n/a
303.4425	0.0745	606885	keystroke_n	n	n/a
303.5325	0.0745	607065	keystroke_g	g	n/a
304.3575	0.1045	608715	keystroke_Key.enter	Key.enter	n/a
304.4665	14.442	608933	prompt	n/a	congratulations exempt hong decline\n
305.302	0.09	610604	keystroke_c	c	n/a
305.407	0.075	610814	keystroke_o	o	n/a
305.617	0.075	611234	keystroke_n	n	n/a
305.752	0.09	611504	keystroke_g	g	n/a
305.932	0.075	611864	keystroke_r	r	n/a
306.3375	0.0745	612675	keystroke_a	a	n/a
306.697	0.075	613394	keystroke_t	t	n/a
306.862	0.09	613724	keystroke_u	u	n/a
307.147	0.075	614294	keystroke_l	l	n/a
307.282	0.061	614564	keystroke_a	a	n/a
307.567	0.0455	615134	keystroke_t	t	n/a
307.672	0.12	615344	keystroke_i	i	n/a
307.777	0.0755	615554	keystroke_o	o	n/a
308.032	0.075	616064	keystroke_n	n	n/a
308.1975	0.0595	616395	keystroke_s	s	n/a
308.482	0.105	616964	keystroke_Key.space	Key.space	n/a
308.7525	0.0595	617505	keystroke_e	e	n/a
309.022	0.075	618044	keystroke_x	x	n/a
309.847	0.09	619694	keystroke_e	e	n/a
309.9975	0.0895	619995	keystroke_m	m	n/a
311.107	0.12	622214	keystroke_p	p	n/a
311.2875	0.09	622575	keystroke_t	t	n/a
311.737	0.0905	623474	keystroke_Key.space	Key.space	n/a
312.0975	0.0745	624195	keystroke_k	k	n/a
312.817	0.09	625634	keystroke_Key.backspace	Key.backspace	n/a
313.147	0.0745	626294	keystroke_h	h	n/a
313.2975	0.09	626595	keystroke_o	o	n/a
313.5375	0.074	627075	keystroke_n	n	n/a
313.9715	0.1055	627943	keystroke_g	g	n/a
314.6465	0.121	629293	keystroke_Key.space	Key.space	n/a
314.9925	0.105	629985	keystroke_d	d	n/a
315.2775	0.075	630555	keystroke_e	e	n/a
315.9375	0.104	631875	keystroke_c	c	n/a
316.2225	0.134	632445	keystroke_l	l	n/a
316.4325	0.0745	632865	keystroke_i	i	n/a
316.672	0.0755	633344	keystroke_n	n	n/a
316.837	0.045	633674	keystroke_e	e	n/a
318.7575	0.15	637515	keystroke_Key.enter	Key.enter	n/a
318.9115	8.2775	637823	prompt	n/a	delete medal medline ones\n
319.687	0.09	639374	keystroke_d	d	n/a
319.8975	0.105	639795	keystroke_e	e	n/a
320.2725	0.105	640545	keystroke_l	l	n/a
320.4975	0.075	640995	keystroke_e	e	n/a
320.6925	0.075	641385	keystroke_t	t	n/a
320.8725	0.105	641745	keystroke_e	e	n/a
321.2175	0.105	642435	keystroke_Key.space	Key.space	n/a
321.427	0.075	642854	keystroke_m	m	n/a
321.562	0.075	643124	keystroke_e	e	n/a
322.0875	0.0745	644175	keystroke_d	d	n/a
322.492	0.09	644984	keystroke_a	a	n/a
322.702	0.075	645404	keystroke_l	l	n/a
323.032	0.09	646064	keystroke_Key.space	Key.space	n/a
323.587	0.09	647174	keystroke_m	m	n/a
323.752	0.075	647504	keystroke_e	e	n/a
323.977	0.075	647954	keystroke_d	d	n/a
324.217	0.105	648434	keystroke_l	l	n/a
324.472	0.06	648944	keystroke_i	i	n/a
324.7725	0.0745	649545	keystroke_n	n	n/a
324.9975	0.0595	649995	keystroke_e	e	n/a
325.207	0.15	650414	keystroke_Key.space	Key.space	n/a
325.3275	0.105	650655	keystroke_o	o	n/a
325.5375	0.09	651075	keystroke_n	n	n/a
325.7175	0.075	651435	keystroke_e	e	n/a
326.0025	0.06	652005	keystroke_s	s	n/a
327.052	0.135	654104	keystroke_Key.enter	Key.enter	n/a
327.1915	10.557	654383	prompt	n/a	farming academics numerous exotic\n
328.147	0.06	656294	keystroke_f	f	n/a
328.372	0.06	656744	keystroke_a	a	n/a
328.5825	0.045	657165	keystroke_r	r	n/a
328.687	0.1205	657374	keystroke_m	m	n/a
328.8675	0.09	657735	keystroke_i	i	n/a
329.0325	0.105	658065	keystroke_n	n	n/a
329.1965	0.076	658393	keystroke_g	g	n/a
329.3925	0.089	658785	keystroke_Key.space	Key.space	n/a
329.6475	0.074	659295	keystroke_a	a	n/a
330.1265	0.076	660253	keystroke_c	c	n/a
330.3675	0.045	660735	keystroke_a	a	n/a
330.6075	0.074	661215	keystroke_d	d	n/a
331.042	0.045	662084	keystroke_e	e	n/a
331.297	0.105	662594	keystroke_m	m	n/a
331.492	0.09	662984	keystroke_i	i	n/a
331.7175	0.06	663435	keystroke_c	c	n/a
332.0175	0.045	664035	keystroke_s	s	n/a
332.3025	0.09	664605	keystroke_Key.space	Key.space	n/a
332.6775	0.105	665355	keystroke_n	n	n/a
332.9175	0.075	665835	keystroke_u	u	n/a
333.2175	0.09	666435	keystroke_m	m	n/a
333.7275	0.15	667455	keystroke_e	e	n/a
333.862	0.09	667724	keystroke_r	r	n/a
334.027	0.27	668054	keystroke_o	o	n/a
334.267	0.12	668534	keystroke_u	u	n/a
334.477	0.09	668954	keystroke_s	s	n/a
334.717	0.105	669434	keystroke_Key.space	Key.space	n/a
334.867	0.075	669734	keystroke_e	e	n/a
335.122	0.075	670244	keystroke_x	x	n/a
335.692	0.12	671384	keystroke_o	o	n/a
336.247	0.075	672494	keystroke_t	t	n/a
336.397	0.1055	672794	keystroke_i	i	n/a
336.6075	0.09	673215	keystroke_c	c	n/a
337.582	0.165	675164	keystroke_Key.enter	Key.enter	n/a
337.752	10.467	675504	prompt	n/a	arrested converter leon color\n
338.4675	0.0745	676935	keystroke_a	a	n/a
338.827	0.03	677654	keystroke_r	r	n/a
338.9775	0.06	677955	keystroke_r	r	n/a
339.1575	0.06	678315	keystroke_e	e	n/a
339.3675	0.075	678735	keystroke_s	s	n/a
339.7425	0.06	679485	keystroke_t	t	n/a
340.0875	0.045	680175	keystroke_e	e	n/a
340.2675	0.075	680535	keystroke_d	d	n/a
340.6125	0.09	681225	keystroke_Key.space	Key.space	n/a
340.7925	0.06	681585	keystroke_c	c	n/a
340.9575	0.09	681915	keystroke_o	o	n/a
341.2425	0.09	682485	keystroke_n	n	n/a
341.3925	0.075	682785	keystroke_v	v	n/a
341.6325	0.165	683265	keystroke_e	e	n/a
341.7675	0.105	683535	keystroke_r	r	n/a
342.0225	0.075	684045	keystroke_t	t	n/a
342.2175	0.165	684435	keystroke_e	e	n/a
342.3675	0.075	684735	keystroke_r	r	n/a
342.9225	0.12	685845	keystroke_Key.space	Key.space	n/a
343.1925	0.1195	686385	keystroke_l	l	n/a
343.3425	0.089	686685	keystroke_e	e	n/a
344.1825	0.0895	688365	keystroke_a	a	n/a
345.0515	0.075	690103	keystroke_Key.backspace	Key.backspace	n/a
345.2765	0.091	690553	keystroke_o	o	n/a
345.5625	0.0745	691125	keystroke_n	n	n/a
345.982	0.0905	691964	keystroke_Key.space	Key.space	n/a
346.132	0.06	692264	keystroke_c	c	n/a
346.252	0.09	692504	keystroke_o	o	n/a
346.477	0.06	692954	keystroke_l	l	n/a
346.687	0.06	693374	keystroke_o	o	n/a
346.882	0.06	693764	keystroke_r	r	n/a
348.142	0.075	696284	keystroke_Key.enter	Key.enter	n/a
348.222	14.3515	696444	prompt	n/a	salvador counter intermediate prohibited\n
349.0125	0.075	698025	keystroke_s	s	n/a
349.2675	0.045	698535	keystroke_a	a	n/a
349.5525	0.045	699105	keystroke_l	l	n/a
350.0325	0.075	700065	keystroke_a	a	n/a
350.5875	0.09	701175	keystroke_Key.backspace	Key.backspace	n/a
350.7075	0.09	701415	keystroke_v	v	n/a
351.0075	0.06	702015	keystroke_a	a	n/a
351.277	0.075	702554	keystroke_d	d	n/a
351.442	0.0755	702884	keystroke_o	o	n/a
351.577	0.0755	703154	keystroke_r	r	n/a
351.967	0.09	703934	keystroke_Key.space	Key.space	n/a
352.252	0.0895	704504	keystroke_c	c	n/a
352.5215	0.0305	705043	keystroke_o	o	n/a
352.582	0.09	705164	keystroke_u	u	n/a
352.9115	0.075	705823	keystroke_n	n	n/a
353.1515	0.076	706303	keystroke_t	t	n/a
353.3165	0.15	706633	keystroke_e	e	n/a
353.4815	0.06	706963	keystroke_r	r	n/a
353.7665	0.0905	707533	keystroke_Key.space	Key.space	n/a
353.9765	0.0755	707953	keystroke_i	i	n/a
354.142	0.105	708284	keystroke_n	n	n/a
354.6225	0.06	709245	keystroke_t	t	n/a
354.7715	0.211	709543	keystroke_e	e	n/a
354.9375	0.105	709875	keystroke_r	r	n/a
355.3725	0.104	710745	keystroke_m	m	n/a
355.5815	0.06	711163	keystroke_e	e	n/a
356.302	0.0745	712604	keystroke_d	d	n/a
356.482	0.09	712964	keystroke_i	i	n/a
356.617	0.075	713234	keystroke_a	a	n/a
356.917	0.09	713834	keystroke_t	t	n/a
357.037	0.105	714074	keystroke_e	e	n/a
357.757	0.105	715514	keystroke_Key.space	Key.space	n/a
357.9525	0.09	715905	keystroke_p	p	n/a
359.497	0.075	718994	keystroke_r	r	n/a
359.752	0.12	719504	keystroke_o	o	n/a
360.3365	0.135	720673	keystroke_h	h	n/a
360.4865	0.15	720973	keystroke_i	i	n/a
361.072	0.105	722144	keystroke_b	b	n/a
361.252	0.105	722504	keystroke_i	i	n/a
361.4175	0.0745	722835	keystroke_t	t	n/a
361.672	0.06	723344	keystroke_e	e	n/a
361.852	0.075	723704	keystroke_d	d	n/a
362.4525	0.1195	724905	keystroke_Key.enter	Key.enter	n/a
362.5765	10.077	725153	prompt	n/a	chargers bronze examined double\n
363.322	0.0605	726644	keystroke_c	c	n/a
363.562	0.09	727124	keystroke_h	h	n/a
363.667	0.09	727334	keystroke_a	a	n/a
363.937	0.06	727874	keystroke_r	r	n/a
364.147	0.075	728294	keystroke_g	g	n/a
364.387	0.18	728774	keystroke_e	e	n/a
364.537	0.09	729074	keystroke_r	r	n/a
364.792	0.09	729584	keystroke_s	s	n/a
365.152	0.09	730304	keystroke_Key.space	Key.space	n/a
365.257	0.075	730514	keystroke_b	b	n/a
365.482	0.075	730964	keystroke_r	r	n/a
365.602	0.09	731204	keystroke_o	o	n/a
365.827	0.075	731654	keystroke_n	n	n/a
365.962	0.06	731924	keystroke_z	z	n/a
366.247	0.075	732494	keystroke_e	e	n/a
366.562	0.105	733124	keystroke_Key.space	Key.space	n/a
366.727	0.06	733454	keystroke_e	e	n/a
366.997	0.06	733994	keystroke_x	x	n/a
367.297	0.03	734594	keystroke_a	a	n/a
367.522	0.09	735044	keystroke_m	m	n/a
367.687	0.09	735374	keystroke_i	i	n/a
367.882	0.09	735764	keystroke_n	n	n/a
368.032	0.075	736064	keystroke_e	e	n/a
368.272	0.06	736544	keystroke_d	d	n/a
368.602	0.075	737204	keystroke_Key.space	Key.space	n/a
369.1265	0.1055	738253	keystroke_d	d	n/a
369.2765	0.195	738553	keystroke_o	o	n/a
369.4425	0.104	738885	keystroke_u	u	n/a
369.5915	0.075	739183	keystroke_b	b	n/a
369.7575	0.134	739515	keystroke_l	l	n/a
370.0415	0.075	740083	keystroke_e	e	n/a
372.579	0.073	745158	keystroke_Key.enter	Key.enter	n/a
372.6565	11.082	745313	prompt	n/a	wrote headphones software stay\n
373.297	0.105	746594	keystroke_w	w	n/a
373.582	0.105	747164	keystroke_r	r	n/a
373.807	0.105	747614	keystroke_o	o	n/a
373.957	0.075	747914	keystroke_t	t	n/a
374.1815	0.075	748363	keystroke_e	e	n/a
374.407	0.0895	748814	keystroke_Key.space	Key.space	n/a
374.6615	0.076	749323	keystroke_h	h	n/a
374.7665	0.046	749533	keystroke_e	e	n/a
374.9465	0.076	749893	keystroke_a	a	n/a
375.1715	0.0755	750343	keystroke_d	d	n/a
375.5625	0.089	751125	keystroke_p	p	n/a
375.8015	0.09	751603	keystroke_h	h	n/a
375.9365	0.12	751873	keystroke_o	o	n/a
376.1915	0.075	752383	keystroke_n	n	n/a
376.4165	0.075	752833	keystroke_e	e	n/a
376.8375	0.074	753675	keystroke_s	s	n/a
377.092	0.1045	754184	keystroke_Key.space	Key.space	n/a
377.242	0.06	754484	keystroke_s	s	n/a
377.377	0.075	754754	keystroke_o	o	n/a
377.647	0.0895	755294	keystroke_f	f	n/a
377.872	0.0595	755744	keystroke_t	t	n/a
378.082	0.0595	756164	keystroke_w	w	n/a
378.592	0.0895	757184	keystroke_a	a	n/a
378.8315	0.12	757663	keystroke_r	r	n/a
378.9965	0.0755	757993	keystroke_e	e	n/a
379.1915	0.105	758383	keystroke_Key.space	Key.space	n/a
379.3125	0.059	758625	keystroke_s	s	n/a
379.522	0.0595	759044	keystroke_t	t	n/a
379.8215	0.045	759643	keystroke_y	y	n/a
380.2265	0.09	760453	keystroke_Key.backspace	Key.backspace	n/a
380.3915	0.06	760783	keystroke_a	a	n/a
380.7965	0.1505	761593	keystroke_y	y	n/a
383.634	0.103	767268	keystroke_Key.enter	Key.enter	n/a
383.743	9.4005	767486	prompt	n/a	grammar happening sealed controls\n
384.6525	0.1045	769305	keystroke_g	g	n/a
384.8625	0.074	769725	keystroke_r	r	n/a
385.132	0.06	770264	keystroke_a	a	n/a
385.297	0.06	770594	keystroke_m	m	n/a
385.477	0.06	770954	keystroke_m	m	n/a
385.627	0.105	771254	keystroke_a	a	n/a
385.912	0.075	771824	keystroke_r	r	n/a
386.167	0.105	772334	keystroke_Key.space	Key.space	n/a
386.572	0.09	773144	keystroke_h	h	n/a
386.737	0.09	773474	keystroke_a	a	n/a
386.887	0.06	773774	keystroke_p	p	n/a
387.037	0.09	774074	keystroke_p	p	n/a
387.217	0.09	774434	keystroke_e	e	n/a
387.367	0.105	774734	keystroke_n	n	n/a
387.517	0.12	775034	keystroke_i	i	n/a
387.742	0.09	775484	keystroke_n	n	n/a
387.937	0.075	775874	keystroke_g	g	n/a
388.237	0.09	776474	keystroke_Key.space	Key.space	n/a
388.612	0.105	777224	keystroke_s	s	n/a
388.867	0.075	777734	keystroke_e	e	n/a
389.152	0.075	778304	keystroke_a	a	n/a
389.407	0.06	778814	keystroke_l	l	n/a
389.587	0.075	779174	keystroke_e	e	n/a
389.842	0.06	779684	keystroke_d	d	n/a
390.157	0.105	780314	keystroke_Key.space	Key.space	n/a
390.292	0.075	780584	keystroke_c	c	n/a
390.412	0.09	780824	keystroke_o	o	n/a
390.682	0.075	781364	keystroke_n	n	n/a
390.9365	0.0605	781873	keystroke_t	t	n/a
391.1015	0.0755	782203	keystroke_r	r	n/a
391.4165	0.06	782833	keystroke_o	o	n/a
391.642	0.0895	783284	keystroke_l	l	n/a
391.8515	0.06	783703	keystroke_s	s	n/a
393.1115	0.03	786223	keystroke_Key.enter	Key.enter	n/a
393.1465	9.012	786293	prompt	n/a	root steam frozen dimensional\n
393.922	0.09	787844	keystroke_r	r	n/a
394.252	0.09	788504	keystroke_o	o	n/a
394.462	0.09	788924	keystroke_o	o	n/a
394.613	0.074	789226	keystroke_t	t	n/a
394.852	0.075	789704	keystroke_Key.space	Key.space	n/a
395.047	0.0745	790094	keystroke_s	s	n/a
395.3165	0.0755	790633	keystroke_t	t	n/a
395.5115	0.075	791023	keystroke_r	r	n/a
395.7365	0.075	791473	keystroke_e	e	n/a
396.1415	0.0605	792283	keystroke_Key.backspace	Key.backspace	n/a
396.277	0.1195	792554	keystroke_Key.backspace	Key.backspace	n/a
396.3815	0.075	792763	keystroke_e	e	n/a
396.6365	0.06	793273	keystroke_a	a	n/a
396.817	0.0745	793634	keystroke_m	m	n/a
397.0265	0.09	794053	keystroke_Key.space	Key.space	n/a
397.2065	0.075	794413	keystroke_f	f	n/a
397.372	0.0745	794744	keystroke_r	r	n/a
397.5065	0.0755	795013	keystroke_o	o	n/a
397.6565	0.0755	795313	keystroke_z	z	n/a
397.9265	0.075	795853	keystroke_e	e	n/a
398.241	0.1055	796482	keystroke_n	n	n/a
398.571	0.105	797142	keystroke_Key.space	Key.space	n/a
398.7515	0.0905	797503	keystroke_d	d	n/a
398.9315	0.045	797863	keystroke_i	i	n/a
399.5465	0.09	799093	keystroke_m	m	n/a
399.6965	0.0755	799393	keystroke_e	e	n/a
399.892	0.0745	799784	keystroke_n	n	n/a
400.267	0.06	800534	keystroke_s	s	n/a
400.372	0.12	800744	keystroke_i	i	n/a
400.462	0.105	800924	keystroke_o	o	n/a
400.702	0.075	801404	keystroke_n	n	n/a
400.822	0.06	801644	keystroke_a	a	n/a
400.972	0.075	801944	keystroke_l	l	n/a
402.022	0.135	804044	keystroke_Key.enter	Key.enter	n/a
402.161	9.403	804322	prompt	n/a	representatives studies cons owen\n
402.997	0.045	805994	keystroke_r	r	n/a
403.177	0.06	806354	keystroke_e	e	n/a
403.357	0.09	806714	keystroke_p	p	n/a
403.507	0.0605	807014	keystroke_r	r	n/a
403.6875	0.0445	807375	keystroke_e	e	n/a
403.897	0.06	807794	keystroke_s	s	n/a
404.092	0.09	808184	keystroke_e	e	n/a
404.197	0.105	808394	keystroke_n	n	n/a
404.3315	0.09	808663	keystroke_t	t	n/a
404.6015	0.075	809203	keystroke_a	a	n/a
404.8265	0.0605	809653	keystroke_t	t	n/a
405.0065	0.09	810013	keystroke_i	i	n/a
405.0825	0.104	810165	keystroke_v	v	n/a
405.3215	0.061	810643	keystroke_e	e	n/a
405.5915	0.091	811183	keystroke_s	s	n/a
405.877	0.09	811754	keystroke_Key.space	Key.space	n/a
405.997	0.135	811994	keystroke_s	s	n/a
406.2375	0.0745	812475	keystroke_t	t	n/a
406.342	0.105	812684	keystroke_u	u	n/a
406.432	0.09	812864	keystroke_d	d	n/a
406.627	0.09	813254	keystroke_i	i	n/a
406.732	0.075	813464	keystroke_e	e	n/a
406.897	0.09	813794	keystroke_s	s	n/a
407.032	0.105	814064	keystroke_Key.space	Key.space	n/a
407.151	0.076	814302	keystroke_c	c	n/a
407.287	0.089	814574	keystroke_o	o	n/a
407.527	0.06	815054	keystroke_n	n	n/a
407.662	0.075	815324	keystroke_s	s	n/a
407.872	0.09	815744	keystroke_Key.space	Key.space	n/a
408.067	0.09	816134	keystroke_o	o	n/a
408.502	0.075	817004	keystroke_w	w	n/a
408.772	0.075	817544	keystroke_n	n	n/a
409.597	0.075	819194	keystroke_Key.backspace	Key.backspace	n/a
409.8665	0.0605	819733	keystroke_e	e	n/a
410.7365	0.075	821473	keystroke_n	n	n/a
411.5015	0.06	823003	keystroke_Key.enter	Key.enter	n/a
411.567	12.6415	823134	prompt	n/a	representatives chancellor contributing austin\n
412.7325	0.059	825465	keystroke_r	r	n/a
412.8965	0.075	825793	keystroke_e	e	n/a
413.0165	0.09	826033	keystroke_p	p	n/a
413.152	0.0745	826304	keystroke_r	r	n/a
413.3325	0.044	826665	keystroke_e	e	n/a
413.5115	0.06	827023	keystroke_s	s	n/a
413.692	0.0295	827384	keystroke_e	e	n/a
413.8565	0.09	827713	keystroke_n	n	n/a
413.9915	0.0755	827983	keystroke_t	t	n/a
414.202	0.0595	828404	keystroke_a	a	n/a
414.3825	0.059	828765	keystroke_t	t	n/a
414.6665	0.091	829333	keystroke_i	i	n/a
414.8315	0.075	829663	keystroke_v	v	n/a
415.042	0.06	830084	keystroke_e	e	n/a
415.417	0.06	830834	keystroke_s	s	n/a
415.702	0.12	831404	keystroke_Key.space	Key.space	n/a
415.987	0.09	831974	keystroke_c	c	n/a
416.167	0.075	832334	keystroke_h	h	n/a
416.632	0.09	833264	keystroke_a	a	n/a
416.917	0.09	833834	keystroke_n	n	n/a
417.427	0.075	834854	keystroke_c	c	n/a
417.652	0.06	835304	keystroke_e	e	n/a
417.802	0.075	835604	keystroke_l	l	n/a
418.0115	0.06	836023	keystroke_l	l	n/a
418.222	0.09	836444	keystroke_o	o	n/a
418.612	0.075	837224	keystroke_r	r	n/a
418.852	0.105	837704	keystroke_Key.space	Key.space	n/a
419.107	0.09	838214	keystroke_c	c	n/a
419.212	0.09	838424	keystroke_o	o	n/a
419.467	0.075	838934	keystroke_n	n	n/a
419.7065	0.09	839413	keystroke_t	t	n/a
419.8415	0.1055	839683	keystroke_r	r	n/a
420.0365	0.09	840073	keystroke_i	i	n/a
420.2615	0.075	840523	keystroke_b	b	n/a
420.4415	0.1055	840883	keystroke_u	u	n/a
420.7415	0.0605	841483	keystroke_t	t	n/a
420.936	0.0605	841872	keystroke_i	i	n/a
421.132	0.09	842264	keystroke_n	n	n/a
421.297	0.074	842594	keystroke_g	g	n/a
421.567	0.09	843134	keystroke_Key.space	Key.space	n/a
422.1065	0.075	844213	keystroke_a	a	n/a
422.287	0.1045	844574	keystroke_u	u	n/a
422.4665	0.075	844933	keystroke_s	s	n/a
422.9315	0.06	845863	keystroke_t	t	n/a
423.2325	0.134	846465	keystroke_i	i	n/a
423.5015	0.09	847003	keystroke_n	n	n/a
424.102	0.105	848204	keystroke_Key.enter	Key.enter	n/a
424.211	10.152	848422	prompt	n/a	gaming chapel contribution perfume\n
425.121	0.061	850242	keystroke_g	g	n/a
425.332	0.09	850664	keystroke_a	a	n/a
425.407	0.06	850814	keystroke_m	m	n/a
425.497	0.09	850994	keystroke_i	i	n/a
425.632	0.075	851264	keystroke_n	n	n/a
425.737	0.06	851474	keystroke_g	g	n/a
425.871	0.075	851742	keystroke_Key.space	Key.space	n/a
426.052	0.09	852104	keystroke_c	c	n/a
426.187	0.0895	852374	keystroke_h	h	n/a
426.322	0.075	852644	keystroke_a	a	n/a
426.517	0.03	853034	keystroke_p	p	n/a
426.802	0.06	853604	keystroke_e	e	n/a
426.9825	0.0885	853965	keystroke_l	l	n/a
427.5215	0.0455	855043	keystroke_Key.space	Key.space	n/a
427.597	0.075	855194	keystroke_Key.space	Key.space	n/a
427.777	0.075	855554	keystroke_c	c	n/a
427.867	0.06	855734	keystroke_o	o	n/a
428.0465	0.06	856093	keystroke_n	n	n/a
428.392	0.0445	856784	keystroke_Key.backspace	Key.backspace	n/a
428.5565	0.0455	857113	keystroke_Key.backspace	Key.backspace	n/a
428.6915	0.06	857383	keystroke_Key.backspace	Key.backspace	n/a
428.8115	0.09	857623	keystroke_Key.backspace	Key.backspace	n/a
429.427	0.0895	858854	keystroke_c	c	n/a
429.5315	0.0905	859063	keystroke_o	o	n/a
429.7565	0.076	859513	keystroke_n	n	n/a
429.8615	0.12	859723	keystroke_t	t	n/a
429.997	0.0745	859994	keystroke_r	r	n/a
430.1615	0.1055	860323	keystroke_i	i	n/a
430.342	0.0745	860684	keystroke_b	b	n/a
430.4615	0.0905	860923	keystroke_u	u	n/a
430.6565	0.0605	861313	keystroke_t	t	n/a
431.1965	0.135	862393	keystroke_i	i	n/a
431.317	0.105	862634	keystroke_o	o	n/a
431.5865	0.075	863173	keystroke_n	n	n/a
431.887	0.0895	863774	keystroke_Key.space	Key.space	n/a
432.3065	0.0905	864613	keystroke_p	p	n/a
432.4415	0.15	864883	keystroke_e	e	n/a
432.5465	0.075	865093	keystroke_r	r	n/a
432.7415	0.09	865483	keystroke_f	f	n/a
432.9665	0.0745	865933	keystroke_u	u	n/a
433.266	0.076	866532	keystroke_m	m	n/a
433.7915	0.06	867583	keystroke_e	e	n/a
434.2865	0.075	868573	keystroke_Key.enter	Key.enter	n/a
434.366	8.2775	868732	prompt	n/a	says latino mentor prominent\n
435.0365	0.075	870073	keystroke_s	s	n/a
435.2615	0.0605	870523	keystroke_a	a	n/a
435.4415	0.075	870883	keystroke_y	y	n/a
435.6665	0.075	871333	keystroke_s	s	n/a
436.027	0.12	872054	keystroke_Key.space	Key.space	n/a
436.312	0.09	872624	keystroke_l	l	n/a
436.507	0.09	873014	keystroke_a	a	n/a
436.822	0.03	873644	keystroke_t	t	n/a
436.882	0.075	873764	keystroke_i	i	n/a
437.077	0.075	874154	keystroke_n	n	n/a
437.227	0.135	874454	keystroke_o	o	n/a
437.452	0.135	874904	keystroke_Key.space	Key.space	n/a
437.632	0.075	875264	keystroke_m	m	n/a
438.082	0.09	876164	keystroke_e	e	n/a
438.232	0.105	876464	keystroke_n	n	n/a
438.517	0.06	877034	keystroke_t	t	n/a
438.802	0.075	877604	keystroke_o	o	n/a
438.907	0.0895	877814	keystroke_r	r	n/a
439.1315	0.1055	878263	keystroke_Key.space	Key.space	n/a
440.167	0.075	880334	keystroke_p	p	n/a
440.527	0.06	881054	keystroke_r	r	n/a
440.677	0.075	881354	keystroke_o	o	n/a
440.917	0.09	881834	keystroke_m	m	n/a
441.292	0.044	882584	keystroke_i	i	n/a
441.547	0.06	883094	keystroke_n	n	n/a
441.802	0.09	883604	keystroke_e	e	n/a
441.982	0.075	883964	keystroke_n	n	n/a
442.132	0.09	884264	keystroke_t	t	n/a
442.552	0.09	885104	keystroke_Key.enter	Key.enter	n/a
442.646	18.7175	885292	prompt	n/a	copper mightn't vermont demonstrated\n
443.257	0.09	886514	keystroke_c	c	n/a
443.422	0.09	886844	keystroke_o	o	n/a
443.647	0.075	887294	keystroke_p	p	n/a
443.797	0.105	887594	keystroke_p	p	n/a
443.917	0.1795	887834	keystroke_e	e	n/a
444.0665	0.091	888133	keystroke_r	r	n/a
444.2465	0.09	888493	keystroke_Key.space	Key.space	n/a
444.4415	0.075	888883	keystroke_m	m	n/a
444.7115	0.0755	889423	keystroke_i	i	n/a
444.847	0.1645	889694	keystroke_g	g	n/a
444.9665	0.12	889933	keystroke_h	h	n/a
445.1465	0.106	890293	keystroke_t	t	n/a
445.3565	0.076	890713	keystroke_n	n	n/a
445.6425	0.06	891285	keystroke_'	'	n/a
445.9715	0.061	891943	keystroke_t	t	n/a
446.3615	0.1055	892723	keystroke_Key.space	Key.space	n/a
446.812	0.075	893624	keystroke_v	v	n/a
446.992	0.105	893984	keystroke_e	e	n/a
447.082	0.105	894164	keystroke_r	r	n/a
447.217	0.105	894434	keystroke_m	m	n/a
447.352	0.09	894704	keystroke_o	o	n/a
447.547	0.075	895094	keystroke_n	n	n/a
447.742	0.045	895484	keystroke_t	t	n/a
448.3415	0.09	896683	keystroke_Key.space	Key.space	n/a
448.5215	0.075	897043	keystroke_d	d	n/a
448.7465	0.075	897493	keystroke_e	e	n/a
448.9265	0.075	897853	keystroke_s	s	n/a
449.0315	0.1055	898063	keystroke_m	m	n/a
449.2715	0.075	898543	keystroke_o	o	n/a
449.812	0.09	899624	keystroke_n	n	n/a
450.907	0.06	901814	keystroke_s	s	n/a
451.117	0.09	902234	keystroke_t	t	n/a
451.192	0.105	902384	keystroke_r	r	n/a
451.462	0.06	902924	keystroke_a	a	n/a
451.657	0.06	903314	keystroke_t	t	n/a
451.762	0.105	903524	keystroke_e	e	n/a
451.987	0.0595	903974	keystroke_d	d	n/a
456.114	0.013	912228	keystroke_Key.backspace	Key.backspace	n/a
456.247	0.075	912494	keystroke_Key.backspace	Key.backspace	n/a
456.397	0.06	912794	keystroke_Key.backspace	Key.backspace	n/a
456.562	0.045	913124	keystroke_Key.backspace	Key.backspace	n/a
456.742	0.06	913484	keystroke_Key.backspace	Key.backspace	n/a
456.967	0.045	913934	keystroke_Key.backspace	Key.backspace	n/a
457.132	0.045	914264	keystroke_Key.backspace	Key.backspace	n/a
457.297	0.075	914594	keystroke_Key.backspace	Key.backspace	n/a
457.507	0.03	915014	keystroke_Key.backspace	Key.backspace	n/a
457.687	0.075	915374	keystroke_Key.backspace	Key.backspace	n/a
457.897	0.06	915794	keystroke_Key.backspace	Key.backspace	n/a
458.2575	0.059	916515	keystroke_m	m	n/a
458.6315	0.03	917263	keystroke_o	o	n/a
458.9315	0.045	917863	keystroke_n	n	n/a
459.577	0.09	919154	keystroke_s	s	n/a
459.802	0.135	919604	keystroke_t	t	n/a
459.892	0.105	919784	keystroke_r	r	n/a
460.132	0.09	920264	keystroke_a	a	n/a
460.372	0.075	920744	keystroke_t	t	n/a
460.492	0.075	920984	keystroke_e	e	n/a
460.702	0.075	921404	keystroke_d	d	n/a
461.287	0.075	922574	keystroke_Key.enter	Key.enter	n/a
461.3665	16.9175	922733	prompt	n/a	occupied greek bracelets neon\n
462.547	0.15	925094	keystroke_o	o	n/a
462.832	0.105	925664	keystroke_c	c	n/a
462.9965	0.0905	925993	keystroke_c	c	n/a
463.222	0.09	926444	keystroke_u	u	n/a
464.1825	0.104	928365	keystroke_p	p	n/a
464.4065	0.09	928813	keystroke_i	i	n/a
464.5565	0.09	929113	keystroke_e	e	n/a
464.7815	0.09	929563	keystroke_d	d	n/a
464.9765	0.12	929953	keystroke_Key.space	Key.space	n/a
465.1865	0.09	930373	keystroke_g	g	n/a
465.3525	0.074	930705	keystroke_r	r	n/a
465.5465	0.076	931093	keystroke_e	e	n/a
465.6965	0.06	931393	keystroke_e	e	n/a
465.8615	0.105	931723	keystroke_k	k	n/a
466.057	0.12	932114	keystroke_Key.space	Key.space	n/a
466.657	0.075	933314	keystroke_b	b	n/a
466.882	0.075	933764	keystroke_r	r	n/a
467.137	0.075	934274	keystroke_a	a	n/a
467.512	0.075	935024	keystroke_c	c	n/a
467.992	0.105	935984	keystroke_l	l	n/a
468.127	0.09	936254	keystroke_e	e	n/a
468.292	0.045	936584	keystroke_t	t	n/a
468.5775	0.0895	937155	keystroke_s	s	n/a
470.9785	0.043	941957	keystroke_n	n	n/a
471.0365	0.075	942073	keystroke_e	e	n/a
471.877	0.075	943754	keystroke_Key.backspace	Key.backspace	n/a
472.087	0.09	944174	keystroke_Key.backspace	Key.backspace	n/a
473.722	0.09	947444	keystroke_Key.backspace	Key.backspace	n/a
473.902	0.045	947804	keystroke_Key.backspace	Key.backspace	n/a
474.036	0.1055	948072	keystroke_Key.backspace	Key.backspace	n/a
474.4565	0.12	948913	keystroke_Key.backspace	Key.backspace	n/a
474.6665	0.06	949333	keystroke_e	e	n/a
474.8615	0.09	949723	keystroke_l	l	n/a
475.0265	0.09	950053	keystroke_e	e	n/a
475.447	0.1045	950894	keystroke_t	t	n/a
475.7765	0.075	951553	keystroke_s	s	n/a
476.1215	0.0905	952243	keystroke_Key.space	Key.space	n/a
476.6165	0.1055	953233	keystroke_n	n	n/a
476.752	0.076	953504	keystroke_e	e	n/a
476.932	0.075	953864	keystroke_o	o	n/a
477.157	0.075	954314	keystroke_n	n	n/a
478.1625	0.1195	956325	keystroke_Key.enter	Key.enter	n/a
478.287	9.7015	956574	prompt	n/a	areas disciplines criterion slight\n
479.0625	0.075	958125	keystroke_a	a	n/a
479.2875	0.104	958575	keystroke_r	r	n/a
479.3775	0.0895	958755	keystroke_e	e	n/a
479.617	0.075	959234	keystroke_a	a	n/a
479.827	0.075	959654	keystroke_s	s	n/a
480.022	0.12	960044	keystroke_Key.space	Key.space	n/a
480.172	0.09	960344	keystroke_d	d	n/a
480.787	0.12	961574	keystroke_i	i	n/a
481.297	0.09	962594	keystroke_s	s	n/a
481.507	0.105	963014	keystroke_c	c	n/a
481.672	0.1205	963344	keystroke_i	i	n/a
482.2575	0.1195	964515	keystroke_p	p	n/a
482.872	0.09	965744	keystroke_l	l	n/a
483.112	0.075	966224	keystroke_i	i	n/a
483.3375	0.0745	966675	keystroke_n	n	n/a
483.457	0.09	966914	keystroke_e	e	n/a
483.697	0.075	967394	keystroke_s	s	n/a
483.967	0.105	967934	keystroke_Key.space	Key.space	n/a
484.087	0.09	968174	keystroke_c	c	n/a
484.312	0.075	968624	keystroke_r	r	n/a
484.537	0.075	969074	keystroke_i	i	n/a
484.702	0.075	969404	keystroke_t	t	n/a
484.897	0.195	969794	keystroke_e	e	n/a
485.062	0.12	970124	keystroke_r	r	n/a
485.407	0.135	970814	keystroke_i	i	n/a
485.512	0.12	971024	keystroke_o	o	n/a
485.842	0.075	971684	keystroke_n	n	n/a
486.1565	0.09	972313	keystroke_Key.space	Key.space	n/a
486.592	0.105	973184	keystroke_s	s	n/a
487.087	0.1195	974174	keystroke_l	l	n/a
487.2525	0.089	974505	keystroke_i	i	n/a
487.3275	0.119	974655	keystroke_g	g	n/a
487.4315	0.121	974863	keystroke_h	h	n/a
487.5965	0.09	975193	keystroke_t	t	n/a
487.9415	0.045	975883	keystroke_Key.enter	Key.enter	n/a
487.991	5.3225	975982	prompt	n/a	robert posing south broad\n
488.557	0.105	977114	keystroke_r	r	n/a
488.7065	0.09	977413	keystroke_o	o	n/a
488.8415	0.075	977683	keystroke_b	b	n/a
489.022	0.1345	978044	keystroke_e	e	n/a
489.1275	0.104	978255	keystroke_r	r	n/a
489.3515	0.075	978703	keystroke_Key.space	Key.space	n/a
489.682	0.0745	979364	keystroke_Key.backspace	Key.backspace	n/a
489.8315	0.046	979663	keystroke_t	t	n/a
490.0265	0.135	980053	keystroke_Key.space	Key.space	n/a
490.1625	0.149	980325	keystroke_p	p	n/a
490.2815	0.105	980563	keystroke_o	o	n/a
490.4165	0.105	980833	keystroke_s	s	n/a
490.537	0.0605	981074	keystroke_i	i	n/a
490.7465	0.075	981493	keystroke_n	n	n/a
490.897	0.0745	981794	keystroke_g	g	n/a
491.122	0.0595	982244	keystroke_Key.space	Key.space	n/a
491.332	0.075	982664	keystroke_s	s	n/a
491.4365	0.18	982873	keystroke_o	o	n/a
491.5715	0.0905	983143	keystroke_u	u	n/a
491.6625	0.1345	983325	keystroke_t	t	n/a
491.7515	0.09	983503	keystroke_h	h	n/a
491.872	0.1045	983744	keystroke_Key.space	Key.space	n/a
491.9925	0.074	983985	keystroke_b	b	n/a
492.1865	0.076	984373	keystroke_r	r	n/a
492.3215	0.12	984643	keystroke_o	o	n/a
492.5315	0.0905	985063	keystroke_a	a	n/a
492.8015	0.09	985603	keystroke_d	d	n/a
493.2365	0.075	986473	keystroke_Key.enter	Key.enter	n/a
493.3175	7.0765	986635	prompt	n/a	leaf into ring graphic\n
494.0775	0.074	988155	keystroke_l	l	n/a
494.2565	0.075	988513	keystroke_e	e	n/a
494.497	0.075	988994	keystroke_a	a	n/a
494.782	0.0445	989564	keystroke_f	f	n/a
495.022	0.09	990044	keystroke_Key.space	Key.space	n/a
495.187	0.09	990374	keystroke_i	i	n/a
495.337	0.09	990674	keystroke_n	n	n/a
495.472	0.075	990944	keystroke_t	t	n/a
495.5925	0.0885	991185	keystroke_o	o	n/a
495.741	0.106	991482	keystroke_Key.space	Key.space	n/a
495.907	0.074	991814	keystroke_r	r	n/a
496.0115	0.0905	992023	keystroke_i	i	n/a
496.177	0.105	992354	keystroke_n	n	n/a
496.312	0.074	992624	keystroke_g	g	n/a
496.687	0.134	993374	keystroke_Key.space	Key.space	n/a
496.852	0.09	993704	keystroke_g	g	n/a
497.031	0.06	994062	keystroke_r	r	n/a
497.242	0.0595	994484	keystroke_a	a	n/a
497.3765	0.06	994753	keystroke_p	p	n/a
497.632	0.1945	995264	keystroke_h	h	n/a
497.7965	0.105	995593	keystroke_i	i	n/a
497.932	0.0895	995864	keystroke_c	c	n/a
500.3345	0.057	1000669	keystroke_Key.enter	Key.enter	n/a
500.3965	15.8525	1000793	prompt	n/a	consciousness investors multi mothers\n
501.187	0.0895	1002374	keystroke_c	c	n/a
501.3515	0.105	1002703	keystroke_o	o	n/a
501.6365	0.06	1003273	keystroke_n	n	n/a
501.8915	0.06	1003783	keystroke_s	s	n/a
502.1165	0.0755	1004233	keystroke_c	c	n/a
502.2815	0.105	1004563	keystroke_i	i	n/a
502.6115	0.18	1005223	keystroke_o	o	n/a
502.8215	0.1355	1005643	keystroke_u	u	n/a
503.1065	0.0755	1006213	keystroke_s	s	n/a
503.4065	0.12	1006813	keystroke_n	n	n/a
503.5865	0.09	1007173	keystroke_e	e	n/a
503.8415	0.061	1007683	keystroke_s	s	n/a
504.0215	0.06	1008043	keystroke_s	s	n/a
504.2015	0.18	1008403	keystroke_Key.space	Key.space	n/a
504.3365	0.0905	1008673	keystroke_i	i	n/a
504.5165	0.0905	1009033	keystroke_n	n	n/a
504.6515	0.075	1009303	keystroke_v	v	n/a
504.8765	0.075	1009753	keystroke_e	e	n/a
505.0715	0.06	1010143	keystroke_s	s	n/a
505.3265	0.075	1010653	keystroke_t	t	n/a
505.4765	0.105	1010953	keystroke_o	o	n/a
505.5965	0.0605	1011193	keystroke_r	r	n/a
505.8365	0.06	1011673	keystroke_s	s	n/a
506.1665	0.045	1012333	keystroke_Key.space	Key.space	n/a
506.4215	0.09	1012843	keystroke_u	u	n/a
507.0365	0.075	1014073	keystroke_Key.backspace	Key.backspace	n/a
507.3065	0.075	1014613	keystroke_m	m	n/a
507.5615	0.075	1015123	keystroke_u	u	n/a
507.9515	0.12	1015903	keystroke_l	l	n/a
508.2365	0.0755	1016473	keystroke_t	t	n/a
508.4465	0.075	1016893	keystroke_i	i	n/a
508.8365	0.1205	1017673	keystroke_Key.space	Key.space	n/a
509.2265	0.075	1018453	keystroke_m	m	n/a
509.3765	0.09	1018753	keystroke_o	o	n/a
509.6165	0.0455	1019233	keystroke_n	n	n/a
509.737	0.1345	1019474	keystroke_t	t	n/a
509.8565	0.0755	1019713	keystroke_h	h	n/a
510.8475	0.194	1021695	keystroke_e	e	n/a
511.0115	0.12	1022023	keystroke_r	r	n/a
511.432	0.0595	1022864	keystroke_Key.backspace	Key.backspace	n/a
511.6115	0.06	1023223	keystroke_Key.backspace	Key.backspace	n/a
511.8215	0.03	1023643	keystroke_Key.backspace	Key.backspace	n/a
511.9415	0.06	1023883	keystroke_Key.backspace	Key.backspace	n/a
512.3615	0.075	1024723	keystroke_Key.backspace	Key.backspace	n/a
513.2025	0.12	1026405	keystroke_t	t	n/a
513.2915	0.0755	1026583	keystroke_h	h	n/a
513.577	0.1345	1027154	keystroke_e	e	n/a
513.6965	0.06	1027393	keystroke_r	r	n/a
514.0415	0.09	1028083	keystroke_s	s	n/a
516.142	0.1045	1032284	keystroke_Key.enter	Key.enter	n/a
516.2515	13.6925	1032503	prompt	n/a	agencies except handle focused\n
517.0125	0.089	1034025	keystroke_a	a	n/a
517.432	0.0445	1034864	keystroke_g	g	n/a
517.762	0.1045	1035524	keystroke_e	e	n/a
518.0315	0.105	1036063	keystroke_n	n	n/a
518.332	0.0905	1036664	keystroke_c	c	n/a
518.5565	0.105	1037113	keystroke_i	i	n/a
518.7515	0.06	1037503	keystroke_e	e	n/a
518.962	0.06	1037924	keystroke_s	s	n/a
519.412	0.105	1038824	keystroke_Key.space	Key.space	n/a
519.532	0.0745	1039064	keystroke_e	e	n/a
519.832	0.09	1039664	keystroke_x	x	n/a
520.492	0.1045	1040984	keystroke_p	p	n/a
521.0015	0.12	1042003	keystroke_Key.backspace	Key.backspace	n/a
521.1225	0.074	1042245	keystroke_c	c	n/a
521.3315	0.075	1042663	keystroke_e	e	n/a
521.4665	0.0905	1042933	keystroke_p	p	n/a
521.692	0.0595	1043384	keystroke_t	t	n/a
522.0065	0.09	1044013	keystroke_Key.space	Key.space	n/a
522.2315	0.105	1044463	keystroke_h	h	n/a
522.3815	0.09	1044763	keystroke_a	a	n/a
522.5615	0.075	1045123	keystroke_n	n	n/a
522.7565	0.09	1045513	keystroke_d	d	n/a
522.9665	0.09	1045933	keystroke_l	l	n/a
523.087	0.0895	1046174	keystroke_e	e	n/a
523.4315	0.1055	1046863	keystroke_Key.space	Key.space	n/a
523.567	0.0595	1047134	keystroke_f	f	n/a
524.182	0.12	1048364	keystroke_o	o	n/a
524.347	0.09	1048694	keystroke_c	c	n/a
524.5575	0.0895	1049115	keystroke_u	u	n/a
524.706	0.091	1049412	keystroke_s	s	n/a
525.007	0.074	1050014	keystroke_e	e	n/a
525.547	0.105	1051094	keystroke_d	d	n/a
529.8085	0.1335	1059617	keystroke_Key.enter	Key.enter	n/a
529.9465	10.977	1059893	prompt	n/a	tool upgrades by construction\n
530.9765	0.075	1061953	keystroke_t	t	n/a
531.1715	0.075	1062343	keystroke_o	o	n/a
531.3365	0.06	1062673	keystroke_o	o	n/a
531.5465	0.075	1063093	keystroke_l	l	n/a
531.817	0.1045	1063634	keystroke_Key.space	Key.space	n/a
532.0565	0.06	1064113	keystroke_u	u	n/a
532.3265	0.06	1064653	keystroke_p	p	n/a
533.0915	0.105	1066183	keystroke_g	g	n/a
533.2115	0.0905	1066423	keystroke_r	r	n/a
533.482	0.0895	1066964	keystroke_a	a	n/a
533.7065	0.1055	1067413	keystroke_d	d	n/a
533.8865	0.09	1067773	keystroke_e	e	n/a
534.0815	0.09	1068163	keystroke_s	s	n/a
534.3215	0.12	1068643	keystroke_Key.space	Key.space	n/a
534.4715	0.06	1068943	keystroke_b	b	n/a
534.6815	0.09	1069363	keystroke_y	y	n/a
535.042	0.0895	1070084	keystroke_Key.space	Key.space	n/a
535.2815	0.12	1070563	keystroke_c	c	n/a
535.3865	0.06	1070773	keystroke_o	o	n/a
535.5515	0.0905	1071103	keystroke_n	n	n/a
535.717	0.0595	1071434	keystroke_s	s	n/a
535.9265	0.0905	1071853	keystroke_t	t	n/a
536.0015	0.09	1072003	keystroke_r	r	n/a
536.1665	0.0755	1072333	keystroke_u	u	n/a
536.3465	0.075	1072693	keystroke_c	c	n/a
536.6165	0.06	1073233	keystroke_t	t	n/a
536.7815	0.105	1073563	keystroke_i	i	n/a
536.842	0.1195	1073684	keystroke_o	o	n/a
537.1415	0.0755	1074283	keystroke_n	n	n/a
540.8645	0.057	1081729	keystroke_Key.enter	Key.enter	n/a
540.927	15.6565	1081854	prompt	n/a	volumes stephanie terrorists fitted\n
541.7315	0.0605	1083463	keystroke_v	v	n/a
542.2115	0.075	1084423	keystroke_o	o	n/a
542.5415	0.0905	1085083	keystroke_l	l	n/a
542.842	0.0595	1085684	keystroke_u	u	n/a
543.1115	0.045	1086223	keystroke_m	m	n/a
543.277	0.0745	1086554	keystroke_e	e	n/a
543.5475	0.074	1087095	keystroke_s	s	n/a
543.8315	0.09	1087663	keystroke_Key.space	Key.space	n/a
543.9665	0.075	1087933	keystroke_s	s	n/a
544.2815	0.06	1088563	keystroke_t	t	n/a
544.462	0.0895	1088924	keystroke_e	e	n/a
544.7015	0.0755	1089403	keystroke_p	p	n/a
544.942	0.0895	1089884	keystroke_h	h	n/a
545.0915	0.075	1090183	keystroke_a	a	n/a
545.1965	0.1795	1090393	keystroke_n	n	n/a
545.3615	0.105	1090723	keystroke_i	i	n/a
545.7665	0.09	1091533	keystroke_e	e	n/a
545.976	0.106	1091952	keystroke_Key.space	Key.space	n/a
546.142	0.074	1092284	keystroke_t	t	n/a
546.322	0.1045	1092644	keystroke_e	e	n/a
546.561	0.09	1093122	keystroke_r	r	n/a
547.492	0.135	1094984	keystroke_r	r	n/a
547.987	0.1345	1095974	keystroke_o	o	n/a
548.362	0.075	1096724	keystroke_r	r	n/a
548.542	0.06	1097084	keystroke_i	i	n/a
548.647	0.075	1097294	keystroke_s	s	n/a
548.857	0.0595	1097714	keystroke_t	t	n/a
549.067	0.0745	1098134	keystroke_s	s	n/a
552.2035	0.043	1104407	keystroke_Key.space	Key.space	n/a
552.6815	0.0755	1105363	keystroke_f	f	n/a
552.8465	0.0605	1105693	keystroke_i	i	n/a
553.0565	0.045	1106113	keystroke_t	t	n/a
553.162	0.0595	1106324	keystroke_t	t	n/a
553.387	0.09	1106774	keystroke_e	e	n/a
553.6115	0.075	1107223	keystroke_d	d	n/a
556.4645	0.117	1112929	keystroke_Key.enter	Key.enter	n/a
556.5865	9.612	1113173	prompt	n/a	lost parents ratio realtor\n
557.4675	0.075	1114935	keystroke_l	l	n/a
557.677	0.0745	1115354	keystroke_o	o	n/a
557.7665	0.105	1115533	keystroke_s	s	n/a
558.0665	0.06	1116133	keystroke_t	t	n/a
558.2465	0.105	1116493	keystroke_Key.space	Key.space	n/a
558.4415	0.1055	1116883	keystroke_p	p	n/a
558.622	0.09	1117244	keystroke_r	r	n/a
559.4315	0.09	1118863	keystroke_Key.backspace	Key.backspace	n/a
559.5515	0.105	1119103	keystroke_a	a	n/a
559.8515	0.075	1119703	keystroke_r	r	n/a
560.002	0.09	1120004	keystroke_e	e	n/a
560.1975	0.1045	1120395	keystroke_n	n	n/a
560.332	0.075	1120664	keystroke_t	t	n/a
560.647	0.075	1121294	keystroke_s	s	n/a
560.842	0.119	1121684	keystroke_Key.space	Key.space	n/a
561.2475	0.0745	1122495	keystroke_r	r	n/a
561.472	0.075	1122944	keystroke_a	a	n/a
561.757	0.075	1123514	keystroke_t	t	n/a
561.907	0.21	1123814	keystroke_i	i	n/a
562.072	0.105	1124144	keystroke_o	o	n/a
562.342	0.09	1124684	keystroke_Key.space	Key.space	n/a
562.5365	0.075	1125073	keystroke_r	r	n/a
562.6865	0.0905	1125373	keystroke_e	e	n/a
562.9565	0.0455	1125913	keystroke_a	a	n/a
563.137	0.1045	1126274	keystroke_l	l	n/a
563.5415	0.075	1127083	keystroke_t	t	n/a
563.7215	0.1055	1127443	keystroke_o	o	n/a
563.857	0.0595	1127714	keystroke_r	r	n/a
566.1085	0.088	1132217	keystroke_Key.enter	Key.enter	n/a
566.203	11.68	1132406	prompt	n/a	implications eating vocational criterion\n
567.127	0.075	1134254	keystroke_i	i	n/a
567.352	0.09	1134704	keystroke_m	m	n/a
567.6075	0.0895	1135215	keystroke_p	p	n/a
567.742	0.105	1135484	keystroke_l	l	n/a
567.997	0.075	1135994	keystroke_i	i	n/a
568.087	0.075	1136174	keystroke_c	c	n/a
568.297	0.09	1136594	keystroke_a	a	n/a
568.537	0.09	1137074	keystroke_t	t	n/a
568.657	0.105	1137314	keystroke_i	i	n/a
568.747	0.09	1137494	keystroke_o	o	n/a
568.957	0.09	1137914	keystroke_n	n	n/a
569.122	0.06	1138244	keystroke_s	s	n/a
569.257	0.105	1138514	keystroke_Key.space	Key.space	n/a
569.347	0.06	1138694	keystroke_e	e	n/a
569.557	0.075	1139114	keystroke_a	a	n/a
569.842	0.045	1139684	keystroke_t	t	n/a
570.067	0.09	1140134	keystroke_i	i	n/a
570.187	0.09	1140374	keystroke_n	n	n/a
570.292	0.075	1140584	keystroke_g	g	n/a
570.472	0.09	1140944	keystroke_Key.space	Key.space	n/a
570.6375	0.0745	1141275	keystroke_v	v	n/a
570.802	0.09	1141604	keystroke_o	o	n/a
570.937	0.06	1141874	keystroke_c	c	n/a
571.192	0.09	1142384	keystroke_a	a	n/a
571.582	0.045	1143164	keystroke_t	t	n/a
571.702	0.105	1143404	keystroke_i	i	n/a
571.792	0.075	1143584	keystroke_o	o	n/a
571.987	0.09	1143974	keystroke_n	n	n/a
572.122	0.075	1144244	keystroke_a	a	n/a
572.287	0.09	1144574	keystroke_l	l	n/a
572.497	0.105	1144994	keystroke_Key.space	Key.space	n/a
572.9625	0.0745	1145925	keystroke_c	c	n/a
573.232	0.06	1146464	keystroke_r	r	n/a
573.502	0.075	1147004	keystroke_i	i	n/a
573.6665	0.076	1147333	keystroke_t	t	n/a
573.9515	0.195	1147903	keystroke_e	e	n/a
574.1315	0.06	1148263	keystroke_r	r	n/a
574.3115	0.105	1148623	keystroke_i	i	n/a
574.4175	0.074	1148835	keystroke_o	o	n/a
574.6425	0.074	1149285	keystroke_n	n	n/a
577.8235	0.058	1155647	keystroke_Key.enter	Key.enter	n/a
577.8875	18.116	1155775	prompt	n/a	extend wichita nvidia mexican\n
578.7965	0.075	1157593	keystroke_e	e	n/a
579.037	0.075	1158074	keystroke_x	x	n/a
579.4565	0.075	1158913	keystroke_t	t	n/a
579.7565	0.0745	1159513	keystroke_e	e	n/a
580.387	0.105	1160774	keystroke_n	n	n/a
580.552	0.06	1161104	keystroke_d	d	n/a
580.807	0.105	1161614	keystroke_Key.space	Key.space	n/a
581.467	0.09	1162934	keystroke_w	w	n/a
581.677	0.09	1163354	keystroke_i	i	n/a
583.147	0.105	1166294	keystroke_c	c	n/a
583.3565	0.0455	1166713	keystroke_h	h	n/a
583.5215	0.075	1167043	keystroke_i	i	n/a
583.7165	0.0605	1167433	keystroke_t	t	n/a
584.0765	0.075	1168153	keystroke_a	a	n/a
584.3915	0.09	1168783	keystroke_Key.space	Key.space	n/a
586.4175	0.089	1172835	keystroke_n	n	n/a
587.2415	0.105	1174483	keystroke_v	v	n/a
587.4675	0.09	1174935	keystroke_i	i	n/a
588.412	0.075	1176824	keystroke_d	d	n/a
588.577	0.105	1177154	keystroke_i	i	n/a
588.712	0.135	1177424	keystroke_a	a	n/a
589.162	0.105	1178324	keystroke_Key.space	Key.space	n/a
589.3425	0.089	1178685	keystroke_m	m	n/a
589.492	0.09	1178984	keystroke_e	e	n/a
589.852	0.105	1179704	keystroke_x	x	n/a
590.812	0.12	1181624	keystroke_i	i	n/a
591.187	0.09	1182374	keystroke_c	c	n/a
591.442	0.06	1182884	keystroke_a	a	n/a
591.667	0.09	1183334	keystroke_n	n	n/a
595.8845	0.117	1191769	keystroke_Key.enter	Key.enter	n/a
596.0065	12.4775	1192013	prompt	n/a	specially msgstr grounds discretion\n
596.9765	0.135	1193953	keystroke_s	s	n/a
597.2315	0.105	1194463	keystroke_p	p	n/a
597.4865	0.09	1194973	keystroke_e	e	n/a
597.8015	0.1055	1195603	keystroke_c	c	n/a
598.177	0.075	1196354	keystroke_i	i	n/a
598.342	0.045	1196684	keystroke_a	a	n/a
598.492	0.06	1196984	keystroke_l	l	n/a
598.657	0.075	1197314	keystroke_l	l	n/a
598.852	0.075	1197704	keystroke_y	y	n/a
599.272	0.09	1198544	keystroke_Key.space	Key.space	n/a
599.917	0.06	1199834	keystroke_m	m	n/a
600.277	0.075	1200554	keystroke_s	s	n/a
600.697	0.074	1201394	keystroke_g	g	n/a
601.2515	0.1055	1202503	keystroke_s	s	n/a
601.6115	0.105	1203223	keystroke_t	t	n/a
601.7765	0.1055	1203553	keystroke_r	r	n/a
602.527	0.0895	1205054	keystroke_Key.space	Key.space	n/a
602.8865	0.105	1205773	keystroke_g	g	n/a
603.0065	0.0455	1206013	keystroke_r	r	n/a
603.1115	0.2105	1206223	keystroke_o	o	n/a
603.2915	0.075	1206583	keystroke_u	u	n/a
603.5465	0.0605	1207093	keystroke_n	n	n/a
603.6075	0.0745	1207215	keystroke_d	d	n/a
603.832	0.06	1207664	keystroke_s	s	n/a
604.0865	0.0905	1208173	keystroke_Key.space	Key.space	n/a
604.9415	0.06	1209883	keystroke_d	d	n/a
605.1365	0.06	1210273	keystroke_i	i	n/a
606.127	0.105	1212254	keystroke_s	s	n/a
606.4275	0.0745	1212855	keystroke_c	c	n/a
606.772	0.075	1213544	keystroke_r	r	n/a
606.9525	0.0895	1213905	keystroke_e	e	n/a
607.162	0.075	1214324	keystroke_t	t	n/a
607.522	0.18	1215044	keystroke_i	i	n/a
607.687	0.105	1215374	keystroke_o	o	n/a
607.957	0.075	1215914	keystroke_n	n	n/a
608.392	0.09	1216784	keystroke_Key.enter	Key.enter	n/a
608.4865	8.1275	1216973	prompt	n/a	pipe pour applying sizes\n
609.157	0.105	1218314	keystroke_p	p	n/a
609.6675	0.104	1219335	keystroke_i	i	n/a
609.8465	0.135	1219693	keystroke_p	p	n/a
610.882	0.0745	1221764	keystroke_e	e	n/a
611.1065	0.135	1222213	keystroke_Key.space	Key.space	n/a
611.3015	0.135	1222603	keystroke_p	p	n/a
611.4215	0.105	1222843	keystroke_o	o	n/a
611.6765	0.09	1223353	keystroke_u	u	n/a
611.782	0.0895	1223564	keystroke_r	r	n/a
612.2765	0.075	1224553	keystroke_Key.space	Key.space	n/a
612.6515	0.0905	1225303	keystroke_a	a	n/a
612.757	0.0745	1225514	keystroke_p	p	n/a
612.9075	0.089	1225815	keystroke_p	p	n/a
612.9675	0.1195	1225935	keystroke_l	l	n/a
613.972	0.06	1227944	keystroke_u	u	n/a
614.602	0.075	1229204	keystroke_Key.backspace	Key.backspace	n/a
614.707	0.075	1229414	keystroke_y	y	n/a
614.902	0.0905	1229804	keystroke_i	i	n/a
615.067	0.09	1230134	keystroke_n	n	n/a
615.202	0.075	1230404	keystroke_g	g	n/a
615.3815	0.1205	1230763	keystroke_Key.space	Key.space	n/a
615.547	0.075	1231094	keystroke_s	s	n/a
615.667	0.075	1231334	keystroke_i	i	n/a
615.847	0.075	1231694	keystroke_z	z	n/a
616.0715	0.0755	1232143	keystroke_e	e	n/a
616.2665	0.0605	1232533	keystroke_s	s	n/a
616.552	0.0595	1233104	keystroke_Key.enter	Key.enter	n/a
616.6195	9.399	1233239	prompt	n/a	results amendment omaha solid\n
617.377	0.075	1234754	keystroke_r	r	n/a
617.542	0.06	1235084	keystroke_e	e	n/a
617.692	0.075	1235384	keystroke_s	s	n/a
617.827	0.09	1235654	keystroke_u	u	n/a
618.007	0.105	1236014	keystroke_l	l	n/a
618.127	0.06	1236254	keystroke_t	t	n/a
618.367	0.0755	1236734	keystroke_s	s	n/a
618.487	0.105	1236974	keystroke_Key.space	Key.space	n/a
618.637	0.045	1237274	keystroke_a	a	n/a
618.802	0.075	1237604	keystroke_m	m	n/a
619.222	0.075	1238444	keystroke_e	e	n/a
619.4475	0.06	1238895	keystroke_n	n	n/a
619.6125	0.0595	1239225	keystroke_d	d	n/a
619.7925	0.0595	1239585	keystroke_m	m	n/a
619.9565	0.076	1239913	keystroke_e	e	n/a
620.5275	0.06	1241055	keystroke_n	n	n/a
620.6465	0.0755	1241293	keystroke_t	t	n/a
621.1715	0.076	1242343	keystroke_Key.space	Key.space	n/a
621.4865	0.061	1242973	keystroke_o	o	n/a
621.8165	0.075	1243633	keystroke_m	m	n/a
622.3115	0.105	1244623	keystroke_a	a	n/a
622.522	0.1045	1245044	keystroke_h	h	n/a
622.7465	0.075	1245493	keystroke_a	a	n/a
622.9415	0.12	1245883	keystroke_Key.space	Key.space	n/a
623.0915	0.075	1246183	keystroke_s	s	n/a
623.2415	0.09	1246483	keystroke_o	o	n/a
623.4965	0.105	1246993	keystroke_l	l	n/a
623.722	0.0745	1247444	keystroke_i	i	n/a
623.8115	0.0905	1247623	keystroke_d	d	n/a
625.882	0.135	1251764	keystroke_Key.enter	Key.enter	n/a
626.0215	10.332	1252043	prompt	n/a	casual validation programming sparc\n
626.737	0.09	1253474	keystroke_c	c	n/a
626.977	0.075	1253954	keystroke_a	a	n/a
627.157	0.075	1254314	keystroke_s	s	n/a
627.337	0.09	1254674	keystroke_u	u	n/a
627.502	0.06	1255004	keystroke_a	a	n/a
627.727	0.06	1255454	keystroke_l	l	n/a
628.042	0.09	1256084	keystroke_Key.space	Key.space	n/a
629.227	0.1045	1258454	keystroke_v	v	n/a
629.5415	0.105	1259083	keystroke_a	a	n/a
629.782	0.1795	1259564	keystroke_l	l	n/a
630.1265	0.165	1260253	keystroke_i	i	n/a
630.3365	0.0905	1260673	keystroke_d	d	n/a
630.7415	0.075	1261483	keystroke_a	a	n/a
631.372	0.105	1262744	keystroke_t	t	n/a
631.492	0.105	1262984	keystroke_i	i	n/a
631.537	0.12	1263074	keystroke_o	o	n/a
631.777	0.12	1263554	keystroke_n	n	n/a
631.942	0.1495	1263884	keystroke_Key.space	Key.space	n/a
632.1075	0.15	1264215	keystroke_p	p	n/a
632.3025	0.075	1264605	keystroke_r	r	n/a
632.4525	0.104	1264905	keystroke_o	o	n/a
632.572	0.1345	1265144	keystroke_g	g	n/a
632.6915	0.091	1265383	keystroke_r	r	n/a
632.9625	0.075	1265925	keystroke_a	a	n/a
633.1725	0.09	1266345	keystroke_m	m	n/a
633.427	0.075	1266854	keystroke_m	m	n/a
633.622	0.075	1267244	keystroke_i	i	n/a
633.772	0.105	1267544	keystroke_n	n	n/a
634.041	0.046	1268082	keystroke_g	g	n/a
634.342	0.105	1268684	keystroke_Key.space	Key.space	n/a
634.492	0.09	1268984	keystroke_s	s	n/a
634.687	0.075	1269374	keystroke_p	p	n/a
634.926	0.046	1269852	keystroke_a	a	n/a
635.587	0.045	1271174	keystroke_r	r	n/a
635.812	0.075	1271624	keystroke_c	c	n/a
636.277	0.075	1272554	keystroke_Key.enter	Key.enter	n/a
636.3565	8.667	1272713	prompt	n/a	song dress cricket tooth\n
636.937	0.105	1273874	keystroke_s	s	n/a
637.132	0.075	1274264	keystroke_o	o	n/a
637.342	0.0895	1274684	keystroke_n	n	n/a
637.4615	0.0905	1274923	keystroke_g	g	n/a
637.657	0.0895	1275314	keystroke_Key.space	Key.space	n/a
637.852	0.075	1275704	keystroke_d	d	n/a
638.272	0.075	1276544	keystroke_r	r	n/a
638.467	0.06	1276934	keystroke_e	e	n/a
638.6915	0.03	1277383	keystroke_s	s	n/a
638.842	0.06	1277684	keystroke_s	s	n/a
639.982	0.0895	1279964	keystroke_Key.space	Key.space	n/a
640.1925	0.0895	1280385	keystroke_c	c	n/a
640.5965	0.075	1281193	keystroke_r	r	n/a
640.8825	0.105	1281765	keystroke_i	i	n/a
641.2415	0.106	1282483	keystroke_c	c	n/a
641.4515	0.091	1282903	keystroke_k	k	n/a
641.6915	0.075	1283383	keystroke_e	e	n/a
641.9615	0.0605	1283923	keystroke_t	t	n/a
642.2465	0.09	1284493	keystroke_Key.space	Key.space	n/a
642.6665	0.0605	1285333	keystroke_t	t	n/a
642.8615	0.0605	1285723	keystroke_o	o	n/a
642.9815	0.09	1285963	keystroke_o	o	n/a
643.132	0.135	1286264	keystroke_t	t	n/a
643.2365	0.09	1286473	keystroke_h	h	n/a
644.872	0.15	1289744	keystroke_Key.enter	Key.enter	n/a
645.0265	11.052	1290053	prompt	n/a	participant phase general protein\n
645.937	0.09	1291874	keystroke_p	p	n/a
646.057	0.105	1292114	keystroke_a	a	n/a
646.342	0.09	1292684	keystroke_r	r	n/a
646.597	0.06	1293194	keystroke_t	t	n/a
646.897	0.12	1293794	keystroke_i	i	n/a
647.1665	0.075	1294333	keystroke_c	c	n/a
647.6165	0.0755	1295233	keystroke_i	i	n/a
648.0065	0.0755	1296013	keystroke_p	p	n/a
648.1415	0.09	1296283	keystroke_a	a	n/a
648.3665	0.105	1296733	keystroke_n	n	n/a
648.5625	0.075	1297125	keystroke_t	t	n/a
648.9065	0.105	1297813	keystroke_Key.space	Key.space	n/a
649.207	0.0605	1298414	keystroke_p	p	n/a
649.5075	0.075	1299015	keystroke_h	h	n/a
649.6565	0.076	1299313	keystroke_a	a	n/a
649.8515	0.075	1299703	keystroke_s	s	n/a
650.0615	0.075	1300123	keystroke_e	e	n/a
650.2865	0.105	1300573	keystroke_Key.space	Key.space	n/a
650.4215	0.09	1300843	keystroke_g	g	n/a
650.6915	0.06	1301383	keystroke_e	e	n/a
650.8425	0.089	1301685	keystroke_n	n	n/a
651.0215	0.165	1302043	keystroke_e	e	n/a
651.1575	0.089	1302315	keystroke_r	r	n/a
651.4265	0.075	1302853	keystroke_a	a	n/a
651.6215	0.135	1303243	keystroke_l	l	n/a
651.8915	0.1355	1303783	keystroke_Key.space	Key.space	n/a
652.1465	0.09	1304293	keystroke_p	p	n/a
652.4165	0.0905	1304833	keystroke_r	r	n/a
652.552	0.0895	1305104	keystroke_o	o	n/a
652.747	0.0895	1305494	keystroke_t	t	n/a
653.0315	0.0905	1306063	keystroke_e	e	n/a
653.182	0.0905	1306364	keystroke_i	i	n/a
653.422	0.09	1306844	keystroke_n	n	n/a
655.988	0.0885	1311976	keystroke_Key.enter	Key.enter	n/a
656.083	10.362	1312166	prompt	n/a	christopher interview barrier melissa\n
657.0075	0.134	1314015	keystroke_c	c	n/a
657.2765	0.106	1314553	keystroke_h	h	n/a
657.4875	0.075	1314975	keystroke_r	r	n/a
657.7565	0.106	1315513	keystroke_i	i	n/a
657.952	0.0905	1315904	keystroke_s	s	n/a
658.2525	0.06	1316505	keystroke_t	t	n/a
658.4625	0.089	1316925	keystroke_o	o	n/a
658.7465	0.045	1317493	keystroke_p	p	n/a
659.0165	0.091	1318033	keystroke_h	h	n/a
659.1825	0.225	1318365	keystroke_e	e	n/a
659.3775	0.105	1318755	keystroke_r	r	n/a
659.782	0.105	1319564	keystroke_Key.space	Key.space	n/a
659.977	0.09	1319954	keystroke_i	i	n/a
660.202	0.09	1320404	keystroke_n	n	n/a
660.307	0.09	1320614	keystroke_t	t	n/a
660.532	0.1505	1321064	keystroke_e	e	n/a
660.6515	0.075	1321303	keystroke_r	r	n/a
660.9075	0.089	1321815	keystroke_v	v	n/a
661.0415	0.091	1322083	keystroke_i	i	n/a
661.1915	0.06	1322383	keystroke_e	e	n/a
661.4015	0.061	1322803	keystroke_w	w	n/a
661.6715	0.091	1323343	keystroke_Key.space	Key.space	n/a
662.0465	0.061	1324093	keystroke_b	b	n/a
662.272	0.075	1324544	keystroke_a	a	n/a
662.467	0.06	1324934	keystroke_r	r	n/a
662.587	0.09	1325174	keystroke_r	r	n/a
662.737	0.0905	1325474	keystroke_i	i	n/a
662.8425	0.15	1325685	keystroke_e	e	n/a
662.977	0.075	1325954	keystroke_r	r	n/a
663.187	0.105	1326374	keystroke_Key.space	Key.space	n/a
663.397	0.09	1326794	keystroke_m	m	n/a
663.502	0.075	1327004	keystroke_e	e	n/a
663.667	0.105	1327334	keystroke_l	l	n/a
664.027	0.09	1328054	keystroke_i	i	n/a
664.2375	0.06	1328475	keystroke_s	s	n/a
664.432	0.075	1328864	keystroke_s	s	n/a
664.807	0.06	1329614	keystroke_a	a	n/a
666.2315	0.2105	1332463	keystroke_Key.enter	Key.enter	n/a
666.4495	9.4295	1332899	prompt	n/a	architect pill modems wasn't\n
667.2515	0.09	1334503	keystroke_a	a	n/a
667.522	0.06	1335044	keystroke_r	r	n/a
667.732	0.03	1335464	keystroke_t	t	n/a
668.3925	0.0745	1336785	keystroke_Key.backspace	Key.backspace	n/a
669.2325	0.075	1338465	keystroke_c	c	n/a
669.4125	0.09	1338825	keystroke_h	h	n/a
670.102	0.045	1340204	keystroke_t	t	n/a
670.372	0.075	1340744	keystroke_Key.backspace	Key.backspace	n/a
670.552	0.075	1341104	keystroke_i	i	n/a
670.657	0.06	1341314	keystroke_t	t	n/a
670.882	0.075	1341764	keystroke_e	e	n/a
671.092	0.09	1342184	keystroke_c	c	n/a
671.332	0.06	1342664	keystroke_t	t	n/a
671.572	0.12	1343144	keystroke_Key.space	Key.space	n/a
671.737	0.09	1343474	keystroke_p	p	n/a
671.932	0.075	1343864	keystroke_i	i	n/a
672.217	0.06	1344434	keystroke_l	l	n/a
672.382	0.09	1344764	keystroke_l	l	n/a
672.577	0.12	1345154	keystroke_Key.space	Key.space	n/a
672.757	0.135	1345514	keystroke_m	m	n/a
672.877	0.09	1345754	keystroke_o	o	n/a
672.9515	0.09	1345903	keystroke_d	d	n/a
673.162	0.1355	1346324	keystroke_e	e	n/a
673.266	0.091	1346532	keystroke_r	r	n/a
673.507	0.089	1347014	keystroke_n	n	n/a
673.6875	0.0445	1347375	keystroke_s	s	n/a
674.182	0.105	1348364	keystroke_Key.space	Key.space	n/a
674.3775	0.0595	1348755	keystroke_w	w	n/a
674.587	0.15	1349174	keystroke_a	a	n/a
674.722	0.09	1349444	keystroke_s	s	n/a
674.872	0.075	1349744	keystroke_n	n	n/a
675.217	0.09	1350434	keystroke_'	'	n/a
675.352	0.0755	1350704	keystroke_t	t	n/a
675.802	0.075	1351604	keystroke_Key.enter	Key.enter	n/a
675.8815	16.827	1351763	prompt	n/a	abstract charts competent julian\n
676.522	0.075	1353044	keystroke_a	a	n/a
677.0175	0.059	1354035	keystroke_b	b	n/a
677.2575	0.075	1354515	keystroke_s	s	n/a
677.9915	0.061	1355983	keystroke_r	r	n/a
678.5915	0.105	1357183	keystroke_Key.backspace	Key.backspace	n/a
678.7865	0.12	1357573	keystroke_t	t	n/a
678.8915	0.075	1357783	keystroke_r	r	n/a
679.1315	0.075	1358263	keystroke_a	a	n/a
679.372	0.0745	1358744	keystroke_c	c	n/a
679.9115	0.075	1359823	keystroke_t	t	n/a
680.1965	0.075	1360393	keystroke_Key.space	Key.space	n/a
680.317	0.0595	1360634	keystroke_c	c	n/a
680.482	0.0595	1360964	keystroke_h	h	n/a
680.602	0.0605	1361204	keystroke_a	a	n/a
680.9015	0.12	1361803	keystroke_r	r	n/a
681.322	0.09	1362644	keystroke_t	t	n/a
681.562	0.0745	1363124	keystroke_s	s	n/a
681.832	0.09	1363664	keystroke_Key.space	Key.space	n/a
682.132	0.075	1364264	keystroke_c	c	n/a
682.282	0.075	1364564	keystroke_o	o	n/a
682.4765	0.075	1364953	keystroke_m	m	n/a
682.897	0.1045	1365794	keystroke_p	p	n/a
683.7965	0.0905	1367593	keystroke_e	e	n/a
684.0065	0.06	1368013	keystroke_t	t	n/a
684.4275	0.0745	1368855	keystroke_e	e	n/a
684.5775	0.089	1369155	keystroke_n	n	n/a
684.7275	0.074	1369455	keystroke_t	t	n/a
684.9065	0.09	1369813	keystroke_Key.space	Key.space	n/a
685.807	0.06	1371614	keystroke_j	j	n/a
686.002	0.06	1372004	keystroke_u	u	n/a
686.2415	0.105	1372483	keystroke_l	l	n/a
686.4825	0.0745	1372965	keystroke_i	i	n/a
686.6465	0.09	1373293	keystroke_a	a	n/a
686.827	0.09	1373654	keystroke_n	n	n/a
689.4245	0.0725	1378849	keystroke_Key.backspace	Key.backspace	n/a
689.6165	0.105	1379233	keystroke_Key.backspace	Key.backspace	n/a
691.0715	0.09	1382143	keystroke_a	a	n/a
691.2065	0.0905	1382413	keystroke_n	n	n/a
692.616	0.091	1385232	keystroke_Key.enter	Key.enter	n/a
692.712	16.0315	1385424	prompt	n/a	telecommunications affect allocated assembly\n
693.8015	0.06	1387603	keystroke_t	t	n/a
693.997	0.0745	1387994	keystroke_e	e	n/a
694.1465	0.105	1388293	keystroke_l	l	n/a
694.3115	0.091	1388623	keystroke_e	e	n/a
694.567	0.075	1389134	keystroke_c	c	n/a
694.717	0.105	1389434	keystroke_o	o	n/a
695.047	0.06	1390094	keystroke_m	m	n/a
695.257	0.09	1390514	keystroke_m	m	n/a
695.542	0.12	1391084	keystroke_u	u	n/a
696.547	0.09	1393094	keystroke_n	n	n/a
696.787	0.075	1393574	keystroke_i	i	n/a
697.852	0.06	1395704	keystroke_c	c	n/a
698.107	0.06	1396214	keystroke_a	a	n/a
698.602	0.075	1397204	keystroke_t	t	n/a
698.767	0.1645	1397534	keystroke_i	i	n/a
698.8865	0.1055	1397773	keystroke_o	o	n/a
699.2015	0.075	1398403	keystroke_n	n	n/a
699.4265	0.0905	1398853	keystroke_s	s	n/a
699.727	0.075	1399454	keystroke_Key.space	Key.space	n/a
699.817	0.075	1399634	keystroke_a	a	n/a
700.117	0.075	1400234	keystroke_f	f	n/a
700.252	0.0745	1400504	keystroke_f	f	n/a
700.4315	0.075	1400863	keystroke_e	e	n/a
700.627	0.09	1401254	keystroke_c	c	n/a
700.942	0.06	1401884	keystroke_t	t	n/a
701.182	0.075	1402364	keystroke_Key.space	Key.space	n/a
702.547	0.075	1405094	keystroke_a	a	n/a
702.862	0.09	1405724	keystroke_l	l	n/a
703.072	0.075	1406144	keystroke_l	l	n/a
703.942	0.105	1407884	keystroke_o	o	n/a
704.137	0.075	1408274	keystroke_c	c	n/a
704.362	0.075	1408724	keystroke_a	a	n/a
704.707	0.06	1409414	keystroke_t	t	n/a
704.902	0.075	1409804	keystroke_e	e	n/a
705.157	0.09	1410314	keystroke_d	d	n/a
705.442	0.12	1410884	keystroke_Key.space	Key.space	n/a
705.6215	0.09	1411243	keystroke_a	a	n/a
705.8615	0.075	1411723	keystroke_s	s	n/a
706.0265	0.0755	1412053	keystroke_s	s	n/a
706.2665	0.09	1412533	keystroke_e	e	n/a
706.4765	0.09	1412953	keystroke_m	m	n/a
706.6565	0.06	1413313	keystroke_b	b	n/a
706.8665	0.075	1413733	keystroke_l	l	n/a
707.0165	0.075	1414033	keystroke_y	y	n/a
708.577	0.1645	1417154	keystroke_Key.enter	Key.enter	n/a
708.747	9.372	1417494	prompt	n/a	saints fully pure outlets\n
709.6715	0.061	1419343	keystroke_s	s	n/a
709.9125	0.06	1419825	keystroke_a	a	n/a
710.1375	0.074	1420275	keystroke_i	i	n/a
710.347	0.0745	1420694	keystroke_n	n	n/a
710.4525	0.074	1420905	keystroke_t	t	n/a
710.8415	0.076	1421683	keystroke_s	s	n/a
711.0215	0.09	1422043	keystroke_Key.space	Key.space	n/a
711.2165	0.0605	1422433	keystroke_f	f	n/a
711.3365	0.09	1422673	keystroke_u	u	n/a
711.592	0.06	1423184	keystroke_l	l	n/a
711.742	0.0895	1423484	keystroke_l	l	n/a
711.8915	0.06	1423783	keystroke_y	y	n/a
712.1165	0.06	1424233	keystroke_Key.space	Key.space	n/a
712.3415	0.075	1424683	keystroke_p	p	n/a
712.717	0.0295	1425434	keystroke_r	r	n/a
713.077	0.0745	1426154	keystroke_Key.backspace	Key.backspace	n/a
713.3165	0.0755	1426633	keystroke_u	u	n/a
713.452	0.0595	1426904	keystroke_r	r	n/a
713.7065	0.045	1427413	keystroke_e	e	n/a
713.9465	0.105	1427893	keystroke_Key.space	Key.space	n/a
714.1415	0.105	1428283	keystroke_o	o	n/a
714.322	0.0895	1428644	keystroke_u	u	n/a
714.5615	0.06	1429123	keystroke_t	t	n/a
714.997	0.1045	1429994	keystroke_l	l	n/a
715.177	0.075	1430354	keystroke_e	e	n/a
715.432	0.075	1430864	keystroke_t	t	n/a
715.732	0.105	1431464	keystroke_s	s	n/a
718.074	0.043	1436148	keystroke_Key.enter	Key.enter	n/a
718.122	10.077	1436244	prompt	n/a	interstate safari creates containers\n
719.002	0.075	1438004	keystroke_i	i	n/a
719.2575	0.075	1438515	keystroke_n	n	n/a
719.392	0.0745	1438784	keystroke_t	t	n/a
719.5415	0.1655	1439083	keystroke_e	e	n/a
719.692	0.075	1439384	keystroke_r	r	n/a
