onset	duration	sample	value	key	prompt_text
5.9415	9.7335	11883	prompt	n/a	the quick brown fox jumps over a lazy dog\n
7.6505	0.0425	15301	keystroke_t	t	n/a
7.663	0.1355	15326	keystroke_h	h	n/a
7.7525	0.121	15505	keystroke_e	e	n/a
7.8875	0.135	15775	keystroke_Key.space	Key.space	n/a
8.0375	0.135	16075	keystroke_q	q	n/a
8.1725	0.0905	16345	keystroke_u	u	n/a
8.248	0.1055	16496	keystroke_i	i	n/a
8.3535	0.1185	16707	keystroke_c	c	n/a
8.4875	0.0895	16975	keystroke_k	k	n/a
8.638	0.149	17276	keystroke_Key.space	Key.space	n/a
8.7575	0.0595	17515	keystroke_b	b	n/a
8.9525	0.0905	17905	keystroke_r	r	n/a
9.027	0.105	18054	keystroke_o	o	n/a
9.1925	0.12	18385	keystroke_n	n	n/a
9.2075	0.09	18415	keystroke_w	w	n/a
9.4465	0.121	18893	keystroke_Key.space	Key.space	n/a
10.0025	0.075	20005	keystroke_Key.backspace	Key.backspace	n/a
10.197	0.045	20394	keystroke_Key.backspace	Key.backspace	n/a
10.3475	0.075	20695	keystroke_Key.backspace	Key.backspace	n/a
10.7075	0.12	21415	keystroke_w	w	n/a
10.7975	0.1045	21595	keystroke_n	n	n/a
11.007	0.105	22014	keystroke_Key.space	Key.space	n/a
11.097	0.1355	22194	keystroke_f	f	n/a
11.218	0.1195	22436	keystroke_o	o	n/a
11.3825	0.105	22765	keystroke_x	x	n/a
11.502	0.1355	23004	keystroke_Key.space	Key.space	n/a
11.8625	0.0595	23725	keystroke_j	j	n/a
12.0275	0.0745	24055	keystroke_u	u	n/a
12.2675	0.075	24535	keystroke_m	m	n/a
12.492	0.091	24984	keystroke_p	p	n/a
12.6575	0.15	25315	keystroke_s	s	n/a
12.853	0.1045	25706	keystroke_Key.space	Key.space	n/a
12.9725	0.105	25945	keystroke_o	o	n/a
13.0475	0.0605	26095	keystroke_v	v	n/a
13.1525	0.15	26305	keystroke_e	e	n/a
13.2425	0.075	26485	keystroke_r	r	n/a
13.3175	0.0895	26635	keystroke_Key.space	Key.space	n/a
13.422	0.135	26844	keystroke_a	a	n/a
13.5425	0.1345	27085	keystroke_Key.space	Key.space	n/a
13.707	0.075	27414	keystroke_a	a	n/a
13.7525	0.15	27505	keystroke_l	l	n/a
14.172	0.0755	28344	keystroke_Key.backspace	Key.backspace	n/a
14.337	0.06	28674	keystroke_Key.backspace	Key.backspace	n/a
14.5625	0.165	29125	keystroke_l	l	n/a
14.652	0.0905	29304	keystroke_a	a	n/a
14.907	0.121	29814	keystroke_z	z	n/a
14.998	0.0745	29996	keystroke_y	y	n/a
15.177	0.1205	30354	keystroke_Key.space	Key.space	n/a
15.2525	0.12	30505	keystroke_d	d	n/a
15.328	0.1045	30656	keystroke_o	o	n/a
15.4475	0.076	30895	keystroke_g	g	n/a
15.567	0.105	31134	keystroke_Key.enter	Key.enter	n/a
15.6805	8.333	31361	prompt	n/a	cuts port brazil microsoft\n
16.3465	0.1355	32693	keystroke_c	c	n/a
16.452	0.12	32904	keystroke_u	u	n/a
16.542	0.1355	33084	keystroke_t	t	n/a
16.662	0.12	33324	keystroke_s	s	n/a
16.7975	0.104	33595	keystroke_Key.space	Key.space	n/a
16.9325	0.0895	33865	keystroke_p	p	n/a
17.1275	0.119	34255	keystroke_o	o	n/a
17.4275	0.105	34855	keystroke_r	r	n/a
17.6375	0.09	35275	keystroke_t	t	n/a
17.8625	0.12	35725	keystroke_Key.space	Key.space	n/a
18.298	0.059	36596	keystroke_b	b	n/a
18.492	0.0905	36984	keystroke_r	r	n/a
18.6125	0.15	37225	keystroke_a	a	n/a
19.002	0.105	38004	keystroke_z	z	n/a
19.077	0.1505	38154	keystroke_l	l	n/a
19.197	0.12	38394	keystroke_i	i	n/a
19.347	0.135	38694	keystroke_l	l	n/a
19.8425	0.0595	39685	keystroke_Key.backspace	Key.backspace	n/a
20.022	0.075	40044	keystroke_Key.backspace	Key.backspace	n/a
20.1415	0.076	40283	keystroke_Key.backspace	Key.backspace	n/a
20.5775	0.1345	41155	keystroke_i	i	n/a
20.6825	0.1495	41365	keystroke_l	l	n/a
20.892	0.12	41784	keystroke_Key.space	Key.space	n/a
21.072	0.12	42144	keystroke_m	m	n/a
21.207	0.135	42414	keystroke_i	i	n/a
21.3425	0.105	42685	keystroke_r	r	n/a
21.598	0.104	43196	keystroke_c	c	n/a
21.717	0.12	43434	keystroke_o	o	n/a
22.152	0.075	44304	keystroke_Key.backspace	Key.backspace	n/a
22.3475	0.0445	44695	keystroke_Key.backspace	Key.backspace	n/a
22.5125	0.089	45025	keystroke_Key.backspace	Key.backspace	n/a
22.722	0.12	45444	keystroke_c	c	n/a
22.9175	0.059	45835	keystroke_r	r	n/a
22.993	0.0735	45986	keystroke_o	o	n/a
23.2615	0.1355	46523	keystroke_s	s	n/a
23.442	0.1055	46884	keystroke_o	o	n/a
23.6075	0.0895	47215	keystroke_f	f	n/a
23.817	0.0455	47634	keystroke_t	t	n/a
23.907	0.105	47814	keystroke_Key.enter	Key.enter	n/a
24.0175	4.8265	48035	prompt	n/a	routing engagement video realm\n
24.7315	0.12	49463	keystroke_r	r	n/a
24.7925	0.15	49585	keystroke_o	o	n/a
24.8975	0.1195	49795	keystroke_u	u	n/a
25.0475	0.1495	50095	keystroke_t	t	n/a
25.227	0.135	50454	keystroke_i	i	n/a
25.3475	0.15	50695	keystroke_n	n	n/a
25.4675	0.06	50935	keystroke_g	g	n/a
25.6325	0.0895	51265	keystroke_Key.space	Key.space	n/a
25.7675	0.09	51535	keystroke_e	e	n/a
25.872	0.1355	51744	keystroke_n	n	n/a
26.0225	0.044	52045	keystroke_g	g	n/a
26.098	0.1645	52196	keystroke_a	a	n/a
26.1875	0.1795	52375	keystroke_g	g	n/a
26.353	0.134	52706	keystroke_e	e	n/a
26.6375	0.165	53275	keystroke_m	m	n/a
26.7865	0.121	53573	keystroke_e	e	n/a
26.9375	0.1195	53875	keystroke_n	n	n/a
26.9975	0.0745	53995	keystroke_t	t	n/a
27.192	0.1045	54384	keystroke_Key.space	Key.space	n/a
27.357	0.0905	54714	keystroke_v	v	n/a
27.432	0.1205	54864	keystroke_i	i	n/a
27.523	0.0895	55046	keystroke_d	d	n/a
27.687	0.135	55374	keystroke_e	e	n/a
27.7925	0.1045	55585	keystroke_o	o	n/a
27.9275	0.1795	55855	keystroke_Key.space	Key.space	n/a
28.108	0.12	56216	keystroke_r	r	n/a
28.1825	0.1205	56365	keystroke_e	e	n/a
28.2575	0.1655	56515	keystroke_a	a	n/a
28.348	0.1335	56696	keystroke_l	l	n/a
28.513	0.1195	57026	keystroke_m	m	n/a
28.752	0.09	57504	keystroke_Key.enter	Key.enter	n/a
28.848	5.516	57696	prompt	n/a	successful southeast dude thee\n
29.518	0.0895	59036	keystroke_s	s	n/a
29.5915	0.121	59183	keystroke_u	u	n/a
29.7575	0.075	59515	keystroke_c	c	n/a
29.9225	0.075	59845	keystroke_c	c	n/a
30.1465	0.151	60293	keystroke_e	e	n/a
30.2225	0.12	60445	keystroke_s	s	n/a
30.4465	0.121	60893	keystroke_s	s	n/a
30.6125	0.15	61225	keystroke_f	f	n/a
30.733	0.09	61466	keystroke_u	u	n/a
30.8525	0.1345	61705	keystroke_l	l	n/a
31.1375	0.12	62275	keystroke_Key.space	Key.space	n/a
31.2875	0.1795	62575	keystroke_s	s	n/a
31.3925	0.12	62785	keystroke_o	o	n/a
31.4825	0.12	62965	keystroke_u	u	n/a
31.647	0.1355	63294	keystroke_t	t	n/a
31.722	0.1355	63444	keystroke_h	h	n/a
32.1425	0.12	64285	keystroke_e	e	n/a
32.247	0.2255	64494	keystroke_a	a	n/a
32.3825	0.15	64765	keystroke_s	s	n/a
32.6675	0.09	65335	keystroke_t	t	n/a
32.847	0.105	65694	keystroke_Key.space	Key.space	n/a
33.0875	0.09	66175	keystroke_d	d	n/a
33.2225	0.12	66445	keystroke_u	u	n/a
33.2975	0.135	66595	keystroke_d	d	n/a
33.5215	0.106	67043	keystroke_e	e	n/a
33.687	0.0905	67374	keystroke_Key.space	Key.space	n/a
33.7625	0.09	67525	keystroke_t	t	n/a
33.838	0.1345	67676	keystroke_h	h	n/a
33.912	0.0755	67824	keystroke_e	e	n/a
34.0615	0.136	68123	keystroke_e	e	n/a
34.2425	0.12	68485	keystroke_Key.enter	Key.enter	n/a
34.3675	5.1415	68735	prompt	n/a	her packets foam again\n
37.0345	0.058	74069	keystroke_h	h	n/a
37.0625	0.1195	74125	keystroke_e	e	n/a
37.1075	0.12	74215	keystroke_r	r	n/a
37.2715	0.106	74543	keystroke_Key.space	Key.space	n/a
37.4225	0.105	74845	keystroke_p	p	n/a
37.5125	0.119	75025	keystroke_a	a	n/a
37.6925	0.09	75385	keystroke_c	c	n/a
37.7525	0.18	75505	keystroke_k	k	n/a
37.9325	0.21	75865	keystroke_e	e	n/a
38.0075	0.1195	76015	keystroke_t	t	n/a
38.1125	0.135	76225	keystroke_s	s	n/a
38.2325	0.119	76465	keystroke_Key.space	Key.space	n/a
38.3525	0.12	76705	keystroke_f	f	n/a
38.457	0.105	76914	keystroke_o	o	n/a
38.547	0.1205	77094	keystroke_a	a	n/a
38.6825	0.0895	77365	keystroke_m	m	n/a
38.847	0.1355	77694	keystroke_Key.space	Key.space	n/a
38.9375	0.1045	77875	keystroke_a	a	n/a
39.027	0.1055	78054	keystroke_g	g	n/a
39.117	0.1645	78234	keystroke_a	a	n/a
39.162	0.1055	78324	keystroke_i	i	n/a
39.252	0.1205	78504	keystroke_n	n	n/a
39.4315	0.0755	78863	keystroke_Key.enter	Key.enter	n/a
39.5145	9.7455	79029	prompt	n/a	opposite questionnaire who's connector\n
43.049	0.1335	86098	keystroke_o	o	n/a
43.1075	0.0895	86215	keystroke_p	p	n/a
43.287	0.09	86574	keystroke_p	p	n/a
43.512	0.105	87024	keystroke_o	o	n/a
43.9175	0.165	87835	keystroke_s	s	n/a
44.0075	0.12	88015	keystroke_i	i	n/a
44.1425	0.135	88285	keystroke_t	t	n/a
44.2475	0.09	88495	keystroke_e	e	n/a
44.3525	0.15	88705	keystroke_Key.space	Key.space	n/a
44.5775	0.12	89155	keystroke_q	q	n/a
44.6825	0.12	89365	keystroke_u	u	n/a
44.7875	0.15	89575	keystroke_e	e	n/a
44.8775	0.164	89755	keystroke_s	s	n/a
45.013	0.119	90026	keystroke_t	t	n/a
45.1175	0.1045	90235	keystroke_i	i	n/a
45.2075	0.09	90415	keystroke_o	o	n/a
45.2825	0.1205	90565	keystroke_n	n	n/a
45.5375	0.105	91075	keystroke_n	n	n/a
45.7925	0.2255	91585	keystroke_a	a	n/a
46.4075	0.135	92815	keystroke_i	i	n/a
46.5425	0.12	93085	keystroke_r	r	n/a
46.6175	0.12	93235	keystroke_e	e	n/a
46.7975	0.12	93595	keystroke_Key.space	Key.space	n/a
47.1275	0.105	94255	keystroke_w	w	n/a
47.1575	0.105	94315	keystroke_h	h	n/a
47.277	0.121	94554	keystroke_o	o	n/a
47.6225	0.105	95245	keystroke_'	'	n/a
47.7425	0.105	95485	keystroke_s	s	n/a
47.877	0.12	95754	keystroke_Key.space	Key.space	n/a
48.088	0.1195	96176	keystroke_c	c	n/a
48.1325	0.09	96265	keystroke_o	o	n/a
48.252	0.0755	96504	keystroke_n	n	n/a
48.417	0.135	96834	keystroke_n	n	n/a
48.448	0.089	96896	keystroke_e	e	n/a
48.6875	0.075	97375	keystroke_c	c	n/a
48.8225	0.09	97645	keystroke_t	t	n/a
48.927	0.1055	97854	keystroke_o	o	n/a
49.0325	0.075	98065	keystroke_r	r	n/a
49.2275	0.03	98455	keystroke_Key.enter	Key.enter	n/a
49.2685	6.1875	98537	prompt	n/a	articles concrete wash capability\n
49.977	0.1505	99954	keystroke_a	a	n/a
50.113	0.0745	100226	keystroke_r	r	n/a
50.308	0.105	100616	keystroke_t	t	n/a
50.428	0.165	100856	keystroke_i	i	n/a
50.578	0.105	101156	keystroke_c	c	n/a
50.713	0.15	101426	keystroke_l	l	n/a
50.803	0.15	101606	keystroke_e	e	n/a
50.908	0.1045	101816	keystroke_s	s	n/a
51.042	0.1055	102084	keystroke_Key.space	Key.space	n/a
51.2075	0.1045	102415	keystroke_c	c	n/a
51.2525	0.0895	102505	keystroke_o	o	n/a
51.358	0.1195	102716	keystroke_n	n	n/a
51.523	0.1045	103046	keystroke_c	c	n/a
52.1525	0.18	104305	keystroke_r	r	n/a
52.2875	0.1805	104575	keystroke_e	e	n/a
52.4825	0.18	104965	keystroke_t	t	n/a
52.6025	0.15	105205	keystroke_e	e	n/a
52.8875	0.15	105775	keystroke_Key.space	Key.space	n/a
53.1125	0.105	106225	keystroke_w	w	n/a
53.2025	0.18	106405	keystroke_a	a	n/a
53.3225	0.12	106645	keystroke_s	s	n/a
53.4275	0.105	106855	keystroke_h	h	n/a
53.6225	0.15	107245	keystroke_Key.space	Key.space	n/a
53.713	0.1345	107426	keystroke_c	c	n/a
53.848	0.1195	107696	keystroke_a	a	n/a
53.9375	0.1055	107875	keystroke_p	p	n/a
54.2375	0.135	108475	keystroke_a	a	n/a
54.523	0.119	109046	keystroke_b	b	n/a
54.6575	0.0895	109315	keystroke_i	i	n/a
54.733	0.134	109466	keystroke_l	l	n/a
54.898	0.149	109796	keystroke_i	i	n/a
55.0325	0.1195	110065	keystroke_t	t	n/a
55.1225	0.0895	110245	keystroke_y	y	n/a
55.377	0.0755	110754	keystroke_Key.enter	Key.enter	n/a
55.4595	8.3495	110919	prompt	n/a	exciting coupons consent incl\n
56.157	0.076	112314	keystroke_e	e	n/a
56.427	0.075	112854	keystroke_x	x	n/a
56.907	0.135	113814	keystroke_c	c	n/a
57.0575	0.1655	114115	keystroke_i	i	n/a
57.3425	0.12	114685	keystroke_t	t	n/a
57.3575	0.0455	114715	keystroke_i	i	n/a
57.853	0.2095	115706	keystroke_n	n	n/a
58.0175	0.105	116035	keystroke_g	g	n/a
58.1825	0.15	116365	keystroke_Key.space	Key.space	n/a
58.4525	0.1205	116905	keystroke_c	c	n/a
58.4975	0.2255	116995	keystroke_o	o	n/a
58.603	0.105	117206	keystroke_p	p	n/a
58.678	0.06	117356	keystroke_i	i	n/a
58.693	0.119	117386	keystroke_u	u	n/a
59.2475	0.075	118495	keystroke_Key.backspace	Key.backspace	n/a
59.4275	0.09	118855	keystroke_Key.backspace	Key.backspace	n/a
59.7725	0.1045	119545	keystroke_Key.backspace	Key.backspace	n/a
60.253	0.1195	120506	keystroke_u	u	n/a
60.688	0.089	121376	keystroke_p	p	n/a
60.898	0.104	121796	keystroke_o	o	n/a
61.032	0.1655	122064	keystroke_n	n	n/a
61.0925	0.09	122185	keystroke_s	s	n/a
61.8425	0.135	123685	keystroke_Key.space	Key.space	n/a
62.158	0.1795	124316	keystroke_c	c	n/a
62.247	0.075	124494	keystroke_o	o	n/a
62.367	0.12	124734	keystroke_n	n	n/a
62.502	0.181	125004	keystroke_s	s	n/a
62.652	0.1355	125304	keystroke_e	e	n/a
62.7575	0.135	125515	keystroke_n	n	n/a
62.8625	0.105	125725	keystroke_t	t	n/a
63.0275	0.1195	126055	keystroke_Key.space	Key.space	n/a
63.148	0.09	126296	keystroke_i	i	n/a
63.252	0.151	126504	keystroke_n	n	n/a
63.3425	0.1205	126685	keystroke_c	c	n/a
63.493	0.135	126986	keystroke_l	l	n/a
63.762	0.045	127524	keystroke_Key.enter	Key.enter	n/a
63.814	4.33	127628	prompt	n/a	chairs uncle worry incident\n
64.4225	0.1345	128845	keystroke_c	c	n/a
64.527	0.12	129054	keystroke_h	h	n/a
64.617	0.165	129234	keystroke_a	a	n/a
64.738	0.165	129476	keystroke_i	i	n/a
64.888	0.119	129776	keystroke_r	r	n/a
64.992	0.1355	129984	keystroke_s	s	n/a
65.1875	0.09	130375	keystroke_Key.space	Key.space	n/a
65.383	0.06	130766	keystroke_u	u	n/a
65.5625	0.1195	131125	keystroke_n	n	n/a
65.668	0.15	131336	keystroke_c	c	n/a
65.803	0.1345	131606	keystroke_l	l	n/a
65.938	0.135	131876	keystroke_e	e	n/a
66.087	0.105	132174	keystroke_Key.space	Key.space	n/a
66.208	0.134	132416	keystroke_w	w	n/a
66.312	0.091	132624	keystroke_o	o	n/a
66.418	0.075	132836	keystroke_r	r	n/a
66.568	0.104	133136	keystroke_r	r	n/a
66.657	0.0755	133314	keystroke_y	y	n/a
66.8375	0.12	133675	keystroke_Key.space	Key.space	n/a
66.9585	0.119	133917	keystroke_i	i	n/a
67.0475	0.1345	134095	keystroke_n	n	n/a
67.1375	0.135	134275	keystroke_c	c	n/a
67.362	0.1355	134724	keystroke_i	i	n/a
67.543	0.119	135086	keystroke_d	d	n/a
67.753	0.119	135506	keystroke_e	e	n/a
67.8575	0.105	135715	keystroke_n	n	n/a
67.977	0.0905	135954	keystroke_t	t	n/a
68.052	0.0905	136104	keystroke_Key.enter	Key.enter	n/a
68.148	8.7415	136296	prompt	n/a	assessing securely focus environmental\n
68.8325	0.15	137665	keystroke_a	a	n/a
69.178	0.074	138356	keystroke_s	s	n/a
69.372	0.0755	138744	keystroke_s	s	n/a
69.4925	0.1505	138985	keystroke_e	e	n/a
69.5975	0.1055	139195	keystroke_s	s	n/a
69.7925	0.1355	139585	keystroke_s	s	n/a
69.9575	0.12	139915	keystroke_i	i	n/a
70.0625	0.1355	140125	keystroke_n	n	n/a
70.1525	0.09	140305	keystroke_g	g	n/a
70.3025	0.1645	140605	keystroke_Key.space	Key.space	n/a
70.4225	0.1655	140845	keystroke_s	s	n/a
70.543	0.104	141086	keystroke_e	e	n/a
70.828	0.1345	141656	keystroke_c	c	n/a
70.978	0.1495	141956	keystroke_u	u	n/a
71.1425	0.1045	142285	keystroke_r	r	n/a
71.382	0.151	142764	keystroke_e	e	n/a
71.5775	0.1055	143155	keystroke_l	l	n/a
71.757	0.091	143514	keystroke_y	y	n/a
72.012	0.15	144024	keystroke_Key.space	Key.space	n/a
72.2675	0.135	144535	keystroke_f	f	n/a
72.343	0.1045	144686	keystroke_o	o	n/a
72.5525	0.1195	145105	keystroke_c	c	n/a
72.643	0.134	145286	keystroke_u	u	n/a
72.7915	0.121	145583	keystroke_s	s	n/a
72.9425	0.135	145885	keystroke_Key.space	Key.space	n/a
73.0775	0.09	146155	keystroke_o	o	n/a
73.1825	0.1355	146365	keystroke_n	n	n/a
73.797	0.0305	147594	keystroke_Key.backspace	Key.backspace	n/a
73.947	0.06	147894	keystroke_Key.backspace	Key.backspace	n/a
74.323	0.134	148646	keystroke_e	e	n/a
74.607	0.15	149214	keystroke_n	n	n/a
75.1475	0.135	150295	keystroke_v	v	n/a
75.267	0.12	150534	keystroke_i	i	n/a
75.463	0.12	150926	keystroke_r	r	n/a
75.612	0.09	151224	keystroke_o	o	n/a
75.718	0.119	151436	keystroke_n	n	n/a
76.003	0.12	152006	keystroke_m	m	n/a
76.0925	0.105	152185	keystroke_e	e	n/a
76.2425	0.1205	152485	keystroke_n	n	n/a
76.3325	0.09	152665	keystroke_t	t	n/a
76.4235	0.209	152847	keystroke_a	a	n/a
76.6025	0.135	153205	keystroke_l	l	n/a
76.8275	0.06	153655	keystroke_Key.enter	Key.enter	n/a
76.894	4.8405	153788	prompt	n/a	cheats bailey live giant\n
77.458	0.09	154916	keystroke_c	c	n/a
77.593	0.164	155186	keystroke_h	h	n/a
77.7425	0.12	155485	keystroke_e	e	n/a
77.803	0.15	155606	keystroke_a	a	n/a
77.9075	0.1495	155815	keystroke_t	t	n/a
78.132	0.18	156264	keystroke_s	s	n/a
78.3425	0.1195	156685	keystroke_Key.space	Key.space	n/a
78.568	0.09	157136	keystroke_b	b	n/a
78.702	0.151	157404	keystroke_a	a	n/a
78.837	0.135	157674	keystroke_i	i	n/a
78.9575	0.135	157915	keystroke_l	l	n/a
79.2275	0.18	158455	keystroke_e	e	n/a
79.4225	0.09	158845	keystroke_y	y	n/a
79.6175	0.12	159235	keystroke_Key.space	Key.space	n/a
79.7225	0.15	159445	keystroke_l	l	n/a
79.8125	0.12	159625	keystroke_i	i	n/a
79.8725	0.105	159745	keystroke_v	v	n/a
79.9475	0.105	159895	keystroke_e	e	n/a
80.0675	0.165	160135	keystroke_Key.space	Key.space	n/a
80.2625	0.06	160525	keystroke_a	a	n/a
80.3375	0.135	160675	keystroke_g	g	n/a
80.8025	0.045	161605	keystroke_Key.backspace	Key.backspace	n/a
80.9525	0.06	161905	keystroke_Key.backspace	Key.backspace	n/a
81.133	0.1345	162266	keystroke_g	g	n/a
81.253	0.1195	162506	keystroke_i	i	n/a
81.342	0.1655	162684	keystroke_a	a	n/a
81.4475	0.1345	162895	keystroke_n	n	n/a
81.568	0.104	163136	keystroke_t	t	n/a
81.6575	0.075	163315	keystroke_Key.enter	Key.enter	n/a
81.738	6.686	163476	prompt	n/a	containers deployment perry clarke\n
82.528	0.105	165056	keystroke_c	c	n/a
82.617	0.1055	165234	keystroke_o	o	n/a
82.7375	0.15	165475	keystroke_n	n	n/a
82.8425	0.0755	165685	keystroke_t	t	n/a
82.9475	0.15	165895	keystroke_a	a	n/a
82.9625	0.1195	165925	keystroke_i	i	n/a
83.067	0.165	166134	keystroke_n	n	n/a
83.2025	0.2545	166405	keystroke_e	e	n/a
83.322	0.105	166644	keystroke_r	r	n/a
83.412	0.15	166824	keystroke_s	s	n/a
83.577	0.165	167154	keystroke_Key.space	Key.space	n/a
83.8175	0.1045	167635	keystroke_d	d	n/a
84.0275	0.1045	168055	keystroke_e	e	n/a
84.133	0.134	168266	keystroke_p	p	n/a
84.282	0.136	168564	keystroke_l	l	n/a
84.4925	0.1355	168985	keystroke_o	o	n/a
84.6725	0.06	169345	keystroke_y	y	n/a
84.9425	0.15	169885	keystroke_m	m	n/a
85.0775	0.1355	170155	keystroke_e	e	n/a
85.1975	0.1505	170395	keystroke_n	n	n/a
85.303	0.089	170606	keystroke_t	t	n/a
85.437	0.105	170874	keystroke_Key.space	Key.space	n/a
85.572	0.106	171144	keystroke_p	p	n/a
85.647	0.18	171294	keystroke_e	e	n/a
85.707	0.1655	171414	keystroke_r	r	n/a
86.157	0.1355	172314	keystroke_r	r	n/a
86.427	0.09	172854	keystroke_y	y	n/a
86.6825	0.1645	173365	keystroke_Key.space	Key.space	n/a
86.8775	0.1205	173755	keystroke_c	c	n/a
87.012	0.165	174024	keystroke_l	l	n/a
87.1475	0.18	174295	keystroke_a	a	n/a
87.2825	0.195	174565	keystroke_r	r	n/a
87.5375	0.075	175075	keystroke_e	e	n/a
87.912	0.06	175824	keystroke_Key.backspace	Key.backspace	n/a
88.138	0.134	176276	keystroke_k	k	n/a
88.212	0.136	176424	keystroke_e	e	n/a
88.348	0.074	176696	keystroke_Key.enter	Key.enter	n/a
88.4295	6.5345	176859	prompt	n/a	bangkok camps harold monica\n
89.263	0.119	178526	keystroke_b	b	n/a
89.712	0.165	179424	keystroke_a	a	n/a
89.832	0.166	179664	keystroke_n	n	n/a
90.0425	0.1055	180085	keystroke_g	g	n/a
91.2725	0.12	182545	keystroke_k	k	n/a
91.452	0.15	182904	keystroke_o	o	n/a
91.572	0.1955	183144	keystroke_k	k	n/a
91.902	0.195	183804	keystroke_Key.space	Key.space	n/a
92.188	0.1645	184376	keystroke_c	c	n/a
92.3825	0.1645	184765	keystroke_a	a	n/a
92.502	0.1205	185004	keystroke_m	m	n/a
92.668	0.09	185336	keystroke_p	p	n/a
92.787	0.1655	185574	keystroke_s	s	n/a
92.9375	0.1495	185875	keystroke_Key.space	Key.space	n/a
93.2225	0.1205	186445	keystroke_h	h	n/a
93.313	0.135	186626	keystroke_a	a	n/a
93.4175	0.12	186835	keystroke_r	r	n/a
93.5825	0.06	187165	keystroke_o	o	n/a
93.793	0.1345	187586	keystroke_l	l	n/a
93.8375	0.1355	187675	keystroke_d	d	n/a
93.987	0.1355	187974	keystroke_Key.space	Key.space	n/a
94.1375	0.105	188275	keystroke_m	m	n/a
94.2425	0.105	188485	keystroke_o	o	n/a
94.3775	0.0905	188755	keystroke_n	n	n/a
94.5425	0.15	189085	keystroke_i	i	n/a
94.633	0.1495	189266	keystroke_c	c	n/a
94.7675	0.1645	189535	keystroke_a	a	n/a
94.887	0.075	189774	keystroke_Key.enter	Key.enter	n/a
94.968	7.631	189936	prompt	n/a	massive velvet comprehensive consultation\n
95.713	0.105	191426	keystroke_m	m	n/a
95.7875	0.1955	191575	keystroke_a	a	n/a
95.952	0.0905	191904	keystroke_s	s	n/a
96.163	0.105	192326	keystroke_s	s	n/a
96.2965	0.151	192593	keystroke_i	i	n/a
96.3725	0.1505	192745	keystroke_v	v	n/a
96.5075	0.12	193015	keystroke_e	e	n/a
96.7015	0.166	193403	keystroke_Key.space	Key.space	n/a
96.9725	0.1045	193945	keystroke_v	v	n/a
97.0925	0.105	194185	keystroke_e	e	n/a
97.2575	0.1495	194515	keystroke_l	l	n/a
97.392	0.1205	194784	keystroke_v	v	n/a
97.4975	0.135	194995	keystroke_e	e	n/a
97.8725	0.105	195745	keystroke_t	t	n/a
98.0525	0.15	196105	keystroke_Key.space	Key.space	n/a
98.2625	0.15	196525	keystroke_c	c	n/a
98.3375	0.09	196675	keystroke_o	o	n/a
98.4425	0.105	196885	keystroke_m	m	n/a
98.6525	0.09	197305	keystroke_p	p	n/a
98.8025	0.15	197605	keystroke_r	r	n/a
98.9075	0.12	197815	keystroke_e	e	n/a
99.177	0.135	198354	keystroke_h	h	n/a
99.2825	0.1345	198565	keystroke_e	e	n/a
99.432	0.165	198864	keystroke_n	n	n/a
99.5675	0.1355	199135	keystroke_s	s	n/a
99.7625	0.1495	199525	keystroke_i	i	n/a
99.988	0.119	199976	keystroke_v	v	n/a
100.092	0.105	200184	keystroke_e	e	n/a
100.227	0.12	200454	keystroke_Key.space	Key.space	n/a
100.467	0.12	200934	keystroke_c	c	n/a
100.5275	0.0895	201055	keystroke_o	o	n/a
100.633	0.164	201266	keystroke_n	n	n/a
100.752	0.136	201504	keystroke_s	s	n/a
100.962	0.0755	201924	keystroke_u	u	n/a
101.1125	0.12	202225	keystroke_l	l	n/a
101.2625	0.09	202525	keystroke_a	a	n/a
101.6375	0.075	203275	keystroke_Key.backspace	Key.backspace	n/a
101.878	0.0745	203756	keystroke_t	t	n/a
101.9665	0.136	203933	keystroke_a	a	n/a
102.043	0.1345	204086	keystroke_t	t	n/a
102.178	0.12	204356	keystroke_i	i	n/a
102.2525	0.1055	204505	keystroke_o	o	n/a
102.342	0.09	204684	keystroke_n	n	n/a
102.522	0.075	205044	keystroke_Key.enter	Key.enter	n/a
102.602	4.917	205204	prompt	n/a	sony counseling ongoing commentary\n
103.1225	0.1345	206245	keystroke_s	s	n/a
103.1525	0.0895	206305	keystroke_o	o	n/a
103.2725	0.09	206545	keystroke_n	n	n/a
103.482	0.0905	206964	keystroke_y	y	n/a
103.677	0.135	207354	keystroke_Key.space	Key.space	n/a
103.782	0.15	207564	keystroke_c	c	n/a
103.842	0.12	207684	keystroke_o	o	n/a
103.933	0.059	207866	keystroke_u	u	n/a
104.112	0.1205	208224	keystroke_n	n	n/a
104.217	0.1655	208434	keystroke_s	s	n/a
104.367	0.135	208734	keystroke_e	e	n/a
104.547	0.15	209094	keystroke_l	l	n/a
104.727	0.0905	209454	keystroke_i	i	n/a
104.8325	0.135	209665	keystroke_n	n	n/a
104.9225	0.0755	209845	keystroke_g	g	n/a
105.0575	0.135	210115	keystroke_Key.space	Key.space	n/a
105.207	0.0755	210414	keystroke_o	o	n/a
105.2975	0.1345	210595	keystroke_n	n	n/a
105.432	0.105	210864	keystroke_g	g	n/a
105.6275	0.135	211255	keystroke_o	o	n/a
105.7325	0.1345	211465	keystroke_i	i	n/a
105.8225	0.1345	211645	keystroke_n	n	n/a
105.912	0.1055	211824	keystroke_g	g	n/a
106.1375	0.1195	212275	keystroke_Key.space	Key.space	n/a
106.317	0.121	212634	keystroke_c	c	n/a
106.347	0.105	212694	keystroke_o	o	n/a
106.453	0.104	212906	keystroke_m	m	n/a
106.6475	0.1045	213295	keystroke_m	m	n/a
106.707	0.1205	213414	keystroke_e	e	n/a
106.857	0.135	213714	keystroke_n	n	n/a
106.9175	0.1195	213835	keystroke_t	t	n/a
107.0675	0.1345	214135	keystroke_a	a	n/a
107.1425	0.1195	214285	keystroke_r	r	n/a
107.2475	0.075	214495	keystroke_y	y	n/a
107.457	0.06	214914	keystroke_Key.enter	Key.enter	n/a
107.5245	6.1295	215049	prompt	n/a	patch cluster jackets cork\n
108.133	0.074	216266	keystroke_p	p	n/a
108.222	0.1345	216444	keystroke_a	a	n/a
108.3425	0.075	216685	keystroke_t	t	n/a
108.553	0.1045	217106	keystroke_c	c	n/a
108.6425	0.105	217285	keystroke_h	h	n/a
108.8075	0.1345	217615	keystroke_Key.space	Key.space	n/a
108.9125	0.1645	217825	keystroke_c	c	n/a
109.0925	0.0745	218185	keystroke_l	l	n/a
109.227	0.106	218454	keystroke_u	u	n/a
109.317	0.135	218634	keystroke_s	s	n/a
109.4375	0.1795	218875	keystroke_e	e	n/a
109.542	0.15	219084	keystroke_r	r	n/a
109.827	0.12	219654	keystroke_Key.space	Key.space	n/a
110.4575	0.075	220915	keystroke_Key.backspace	Key.backspace	n/a
110.6375	0.06	221275	keystroke_Key.backspace	Key.backspace	n/a
110.8175	0.075	221635	keystroke_Key.backspace	Key.backspace	n/a
111.312	0.12	222624	keystroke_t	t	n/a
111.447	0.15	222894	keystroke_e	e	n/a
111.552	0.0905	223104	keystroke_r	r	n/a
111.7025	0.135	223405	keystroke_Key.space	Key.space	n/a
111.9425	0.1655	223885	keystroke_j	j	n/a
112.0625	0.12	224125	keystroke_a	a	n/a
112.2275	0.12	224455	keystroke_c	c	n/a
112.303	0.1495	224606	keystroke_k	k	n/a
112.4675	0.27	224935	keystroke_e	e	n/a
112.5725	0.135	225145	keystroke_t	t	n/a
112.6775	0.135	225355	keystroke_s	s	n/a
112.8275	0.135	225655	keystroke_Key.space	Key.space	n/a
113.0825	0.1345	226165	keystroke_c	c	n/a
113.202	0.09	226404	keystroke_o	o	n/a
113.307	0.09	226614	keystroke_r	r	n/a
113.4125	0.1195	226825	keystroke_k	k	n/a
113.563	0.0895	227126	keystroke_Key.enter	Key.enter	n/a
113.6575	4.827	227315	prompt	n/a	package graph worry owned\n
114.2225	0.105	228445	keystroke_p	p	n/a
114.312	0.12	228624	keystroke_a	a	n/a
114.492	0.1505	228984	keystroke_c	c	n/a
114.6275	0.165	229255	keystroke_k	k	n/a
114.8075	0.15	229615	keystroke_e	e	n/a
115.2425	0.075	230485	keystroke_Key.backspace	Key.backspace	n/a
115.408	0.164	230816	keystroke_a	a	n/a
115.5425	0.1345	231085	keystroke_g	g	n/a
115.617	0.1505	231234	keystroke_e	e	n/a
115.7675	0.15	231535	keystroke_Key.space	Key.space	n/a
116.0675	0.09	232135	keystroke_g	g	n/a
116.308	0.0595	232616	keystroke_r	r	n/a
116.3525	0.1955	232705	keystroke_a	a	n/a
116.5025	0.1205	233005	keystroke_p	p	n/a
116.667	0.12	233334	keystroke_h	h	n/a
116.892	0.0905	233784	keystroke_Key.space	Key.space	n/a
116.968	0.135	233936	keystroke_w	w	n/a
117.072	0.105	234144	keystroke_o	o	n/a
117.193	0.074	234386	keystroke_r	r	n/a
117.343	0.12	234686	keystroke_r	r	n/a
117.507	0.1055	235014	keystroke_y	y	n/a
117.7175	0.105	235435	keystroke_Key.space	Key.space	n/a
117.852	0.1355	235704	keystroke_o	o	n/a
117.9425	0.135	235885	keystroke_w	w	n/a
118.0625	0.134	236125	keystroke_n	n	n/a
118.1375	0.0755	236275	keystroke_e	e	n/a
118.3175	0.1205	236635	keystroke_d	d	n/a
118.4075	0.075	236815	keystroke_Key.enter	Key.enter	n/a
118.4915	7.9725	236983	prompt	n/a	maintenance intensive will single\n
119.218	0.12	238436	keystroke_m	m	n/a
119.322	0.165	238644	keystroke_a	a	n/a
119.727	0.12	239454	keystroke_i	i	n/a
119.8325	0.15	239665	keystroke_n	n	n/a
120.267	0.1655	240534	keystroke_t	t	n/a
120.4175	0.12	240835	keystroke_e	e	n/a
120.522	0.15	241044	keystroke_n	n	n/a
121.0625	0.15	242125	keystroke_a	a	n/a
121.197	0.1505	242394	keystroke_n	n	n/a
121.3175	0.105	242635	keystroke_c	c	n/a
121.5575	0.1045	243115	keystroke_e	e	n/a
121.6925	0.104	243385	keystroke_Key.space	Key.space	n/a
121.8125	0.104	243625	keystroke_i	i	n/a
121.9325	0.15	243865	keystroke_n	n	n/a
122.0075	0.18	244015	keystroke_t	t	n/a
122.1265	0.151	244253	keystroke_e	e	n/a
123.3425	0.0595	246685	keystroke_Key.backspace	Key.backspace	n/a
124.362	0.0905	248724	keystroke_e	e	n/a
124.453	0.1345	248906	keystroke_n	n	n/a
124.6025	0.12	249205	keystroke_s	s	n/a
124.6775	0.15	249355	keystroke_i	i	n/a
124.8125	0.12	249625	keystroke_v	v	n/a
124.9025	0.1055	249805	keystroke_e	e	n/a
125.0375	0.0895	250075	keystroke_Key.space	Key.space	n/a
125.157	0.1355	250314	keystroke_w	w	n/a
125.2025	0.1195	250405	keystroke_i	i	n/a
125.307	0.1055	250614	keystroke_l	l	n/a
125.5175	0.135	251035	keystroke_l	l	n/a
125.6675	0.105	251335	keystroke_Key.space	Key.space	n/a
125.6975	0.195	251395	keystroke_s	s	n/a
125.8175	0.12	251635	keystroke_i	i	n/a
125.9225	0.1055	251845	keystroke_n	n	n/a
125.9975	0.105	251995	keystroke_g	g	n/a
126.0875	0.15	252175	keystroke_l	l	n/a
126.1925	0.1355	252385	keystroke_e	e	n/a
126.3875	0.075	252775	keystroke_Key.enter	Key.enter	n/a
126.4665	9.1775	252933	prompt	n/a	eliminate activation institution crossword\n
127.138	0.1045	254276	keystroke_e	e	n/a
127.288	0.1345	254576	keystroke_l	l	n/a
127.468	0.105	254936	keystroke_i	i	n/a
127.692	0.12	255384	keystroke_m	m	n/a
127.827	0.12	255654	keystroke_i	i	n/a
128.112	0.136	256224	keystroke_n	n	n/a
128.442	0.15	256884	keystroke_a	a	n/a
128.562	0.12	257124	keystroke_t	t	n/a
128.6525	0.1195	257305	keystroke_e	e	n/a
128.817	0.12	257634	keystroke_Key.space	Key.space	n/a
128.997	0.1655	257994	keystroke_a	a	n/a
129.2075	0.135	258415	keystroke_c	c	n/a
129.3875	0.09	258775	keystroke_t	t	n/a
129.508	0.1495	259016	keystroke_i	i	n/a
129.7025	0.135	259405	keystroke_v	v	n/a
129.8525	0.165	259705	keystroke_a	a	n/a
129.9875	0.1055	259975	keystroke_t	t	n/a
130.0775	0.09	260155	keystroke_i	i	n/a
130.1375	0.12	260275	keystroke_o	o	n/a
130.2425	0.12	260485	keystroke_n	n	n/a
130.4825	0.12	260965	keystroke_Key.space	Key.space	n/a
130.588	0.0895	261176	keystroke_s	s	n/a
130.6925	0.045	261385	keystroke_i	i	n/a
131.022	0.0605	262044	keystroke_Key.backspace	Key.backspace	n/a
131.217	0.09	262434	keystroke_Key.backspace	Key.backspace	n/a
131.4575	0.105	262915	keystroke_i	i	n/a
131.577	0.1655	263154	keystroke_n	n	n/a
131.7125	0.135	263425	keystroke_s	s	n/a
132.0725	0.135	264145	keystroke_t	t	n/a
132.2225	0.12	264445	keystroke_i	i	n/a
132.6125	0.165	265225	keystroke_t	t	n/a
132.7625	0.12	265525	keystroke_u	u	n/a
133.018	0.135	266036	keystroke_t	t	n/a
133.122	0.105	266244	keystroke_i	i	n/a
133.2125	0.105	266425	keystroke_o	o	n/a
133.302	0.106	266604	keystroke_n	n	n/a
133.4675	0.15	266935	keystroke_Key.space	Key.space	n/a
133.603	0.119	267206	keystroke_c	c	n/a
133.752	0.105	267504	keystroke_r	r	n/a
133.873	0.1195	267746	keystroke_o	o	n/a
134.007	0.1055	268014	keystroke_w	w	n/a
134.3825	0.135	268765	keystroke_Key.backspace	Key.backspace	n/a
134.5475	0.135	269095	keystroke_s	s	n/a
134.7875	0.1055	269575	keystroke_s	s	n/a
135.0425	0.105	270085	keystroke_w	w	n/a
135.0875	0.105	270175	keystroke_o	o	n/a
135.2975	0.1195	270595	keystroke_r	r	n/a
135.402	0.12	270804	keystroke_d	d	n/a
135.552	0.0905	271104	keystroke_Key.enter	Key.enter	n/a
135.649	10.1355	271298	prompt	n/a	heating feat accompanying conventions\n
136.333	0.12	272666	keystroke_h	h	n/a
136.392	0.105	272784	keystroke_e	e	n/a
136.483	0.119	272966	keystroke_a	a	n/a
136.557	0.121	273114	keystroke_t	t	n/a
136.693	0.12	273386	keystroke_i	i	n/a
136.827	0.091	273654	keystroke_n	n	n/a
136.903	0.105	273806	keystroke_g	g	n/a
137.2165	0.166	274433	keystroke_Key.space	Key.space	n/a
137.487	0.1205	274974	keystroke_f	f	n/a
137.562	0.151	275124	keystroke_e	e	n/a
137.668	0.1045	275336	keystroke_a	a	n/a
137.7425	0.09	275485	keystroke_t	t	n/a
137.8925	0.15	275785	keystroke_Key.space	Key.space	n/a
138.2375	0.15	276475	keystroke_a	a	n/a
138.597	0.121	277194	keystroke_c	c	n/a
138.808	0.09	277616	keystroke_c	c	n/a
138.928	0.134	277856	keystroke_o	o	n/a
139.1075	0.18	278215	keystroke_m	m	n/a
142.6495	0.028	285299	keystroke_p	p	n/a
142.7075	0.165	285415	keystroke_a	a	n/a
142.8125	0.12	285625	keystroke_n	n	n/a
143.083	0.074	286166	keystroke_y	y	n/a
143.7275	0.09	287455	keystroke_i	i	n/a
143.8175	0.1355	287635	keystroke_n	n	n/a
143.893	0.1045	287786	keystroke_g	g	n/a
144.1025	0.12	288205	keystroke_Key.space	Key.space	n/a
144.4175	0.1055	288835	keystroke_c	c	n/a
144.4625	0.0745	288925	keystroke_o	o	n/a
144.552	0.1355	289104	keystroke_n	n	n/a
144.823	0.119	289646	keystroke_v	v	n/a
144.958	0.0895	289916	keystroke_e	e	n/a
145.1075	0.135	290215	keystroke_n	n	n/a
145.1825	0.12	290365	keystroke_t	t	n/a
145.3175	0.12	290635	keystroke_i	i	n/a
145.4225	0.09	290845	keystroke_o	o	n/a
145.4975	0.105	290995	keystroke_n	n	n/a
145.5425	0.105	291085	keystroke_s	s	n/a
145.6925	0.09	291385	keystroke_Key.enter	Key.enter	n/a
145.7885	5.7555	291577	prompt	n/a	legally lines tried listprice\n
146.412	0.135	292824	keystroke_l	l	n/a
146.4725	0.0755	292945	keystroke_e	e	n/a
146.5925	0.09	293185	keystroke_g	g	n/a
146.697	0.1505	293394	keystroke_a	a	n/a
146.7725	0.09	293545	keystroke_l	l	n/a
146.9525	0.105	293905	keystroke_l	l	n/a
147.117	0.075	294234	keystroke_y	y	n/a
147.3875	0.1345	294775	keystroke_Key.space	Key.space	n/a
147.537	0.166	295074	keystroke_l	l	n/a
147.703	0.089	295406	keystroke_i	i	n/a
147.8075	0.135	295615	keystroke_n	n	n/a
147.822	0.1495	295644	keystroke_e	e	n/a
147.9115	0.121	295823	keystroke_s	s	n/a
148.0465	0.1655	296093	keystroke_Key.space	Key.space	n/a
148.1375	0.06	296275	keystroke_t	t	n/a
148.318	0.1045	296636	keystroke_r	r	n/a
148.4365	0.1055	296873	keystroke_i	i	n/a
148.527	0.06	297054	keystroke_e	e	n/a
148.692	0.12	297384	keystroke_d	d	n/a
148.827	0.12	297654	keystroke_Key.space	Key.space	n/a
148.9325	0.105	297865	keystroke_t	t	n/a
149.0225	0.0595	298045	keystroke_o	o	n/a
149.1125	0.135	298225	keystroke_Key.space	Key.space	n/a
149.2325	0.12	298465	keystroke_l	l	n/a
149.308	0.1345	298616	keystroke_i	i	n/a
149.3675	0.135	298735	keystroke_s	s	n/a
149.4725	0.105	298945	keystroke_t	t	n/a
149.622	0.045	299244	keystroke_Key.space	Key.space	n/a
149.757	0.1055	299514	keystroke_p	p	n/a
150.1025	0.0595	300205	keystroke_Key.backspace	Key.backspace	n/a
150.2675	0.075	300535	keystroke_Key.backspace	Key.backspace	n/a
150.8525	0.0745	301705	keystroke_p	p	n/a
150.972	0.045	301944	keystroke_r	r	n/a
151.032	0.165	302064	keystroke_i	i	n/a
151.1525	0.0745	302305	keystroke_c	c	n/a
151.3325	0.09	302665	keystroke_e	e	n/a
151.4525	0.089	302905	keystroke_Key.enter	Key.enter	n/a
151.5475	7.1815	303095	prompt	n/a	temporal peterson strain vegetation\n
152.3975	0.105	304795	keystroke_t	t	n/a
152.5175	0.15	305035	keystroke_e	e	n/a
152.788	0.06	305576	keystroke_m	m	n/a
152.923	0.1045	305846	keystroke_p	p	n/a
153.1175	0.1205	306235	keystroke_o	o	n/a
153.2525	0.105	306505	keystroke_r	r	n/a
153.3725	0.1805	306745	keystroke_a	a	n/a
153.5075	0.135	307015	keystroke_l	l	n/a
153.6875	0.1645	307375	keystroke_Key.space	Key.space	n/a
153.9725	0.135	307945	keystroke_p	p	n/a
154.0925	0.21	308185	keystroke_e	e	n/a
154.2425	0.0755	308485	keystroke_r	r	n/a
154.6025	0.075	309205	keystroke_Key.backspace	Key.backspace	n/a
154.7825	0.12	309565	keystroke_t	t	n/a
154.9175	0.1795	309835	keystroke_e	e	n/a
155.023	0.1345	310046	keystroke_r	r	n/a
155.338	0.135	310676	keystroke_s	s	n/a
155.428	0.104	310856	keystroke_o	o	n/a
155.5475	0.1055	311095	keystroke_n	n	n/a
155.7265	0.151	311453	keystroke_Key.space	Key.space	n/a
155.9065	0.121	311813	keystroke_s	s	n/a
156.0285	0.074	312057	keystroke_t	t	n/a
156.2225	0.06	312445	keystroke_r	r	n/a
156.2975	0.195	312595	keystroke_a	a	n/a
156.3875	0.12	312775	keystroke_i	i	n/a
156.4775	0.1205	312955	keystroke_n	n	n/a
156.747	0.165	313494	keystroke_Key.space	Key.space	n/a
156.897	0.105	313794	keystroke_b	b	n/a
157.1075	0.0605	314215	keystroke_e	e	n/a
157.318	0.105	314636	keystroke_g	g	n/a
157.7375	0.09	315475	keystroke_e	e	n/a
158.022	0.0905	316044	keystroke_t	t	n/a
158.127	0.12	316254	keystroke_a	a	n/a
158.217	0.105	316434	keystroke_t	t	n/a
158.292	0.1055	316584	keystroke_i	i	n/a
158.3825	0.1055	316765	keystroke_o	o	n/a
158.4725	0.0745	316945	keystroke_n	n	n/a
158.6525	0.0745	317305	keystroke_Key.enter	Key.enter	n/a
158.7335	9.416	317467	prompt	n/a	publisher organizations extreme suspect\n
159.792	0.1955	319584	keystroke_p	p	n/a
159.958	0.18	319916	keystroke_u	u	n/a
160.122	0.0905	320244	keystroke_b	b	n/a
160.362	0.195	320724	keystroke_l	l	n/a
160.8725	0.135	321745	keystroke_i	i	n/a
161.022	0.105	322044	keystroke_s	s	n/a
161.082	0.1055	322164	keystroke_h	h	n/a
161.2175	0.18	322435	keystroke_e	e	n/a
161.3225	0.105	322645	keystroke_r	r	n/a
161.4725	0.135	322945	keystroke_Key.space	Key.space	n/a
161.758	0.1195	323516	keystroke_o	o	n/a
161.8925	0.06	323785	keystroke_r	r	n/a
162.0575	0.105	324115	keystroke_g	g	n/a
162.207	0.1505	324414	keystroke_a	a	n/a
162.3125	0.1055	324625	keystroke_n	n	n/a
162.478	0.134	324956	keystroke_i	i	n/a
162.567	0.105	325134	keystroke_z	z	n/a
162.897	0.105	325794	keystroke_a	a	n/a
163.0475	0.135	326095	keystroke_t	t	n/a
163.1675	0.105	326335	keystroke_i	i	n/a
163.258	0.0895	326516	keystroke_o	o	n/a
163.3325	0.12	326665	keystroke_n	n	n/a
163.438	0.1345	326876	keystroke_s	s	n/a
163.587	0.1355	327174	keystroke_Key.space	Key.space	n/a
163.782	0.1055	327564	keystroke_e	e	n/a
164.0525	0.1055	328105	keystroke_x	x	n/a
164.3075	0.1505	328615	keystroke_r	r	n/a
164.623	0.0745	329246	keystroke_t	t	n/a
164.9215	0.06	329843	keystroke_Key.backspace	Key.backspace	n/a
165.0875	0.0895	330175	keystroke_Key.backspace	Key.backspace	n/a
165.282	0.09	330564	keystroke_t	t	n/a
165.5375	0.1795	331075	keystroke_r	r	n/a
165.702	0.09	331404	keystroke_e	e	n/a
165.897	0.09	331794	keystroke_e	e	n/a
166.3025	0.089	332605	keystroke_Key.backspace	Key.backspace	n/a
166.5575	0.165	333115	keystroke_m	m	n/a
166.678	0.1045	333356	keystroke_e	e	n/a
166.8875	0.15	333775	keystroke_Key.space	Key.space	n/a
167.0225	0.0895	334045	keystroke_s	s	n/a
167.127	0.105	334254	keystroke_u	u	n/a
167.2175	0.15	334435	keystroke_s	s	n/a
167.412	0.0905	334824	keystroke_p	p	n/a
167.532	0.1055	335064	keystroke_e	e	n/a
167.7875	0.1045	335575	keystroke_c	c	n/a
167.953	0.09	335906	keystroke_t	t	n/a
168.087	0.06	336174	keystroke_Key.enter	Key.enter	n/a
168.154	5.6505	336308	prompt	n/a	event wagon ending references\n
168.868	0.1645	337736	keystroke_e	e	n/a
169.1075	0.06	338215	keystroke_v	v	n/a
169.1525	0.135	338305	keystroke_e	e	n/a
169.3775	0.135	338755	keystroke_n	n	n/a
169.6025	0.105	339205	keystroke_t	t	n/a
169.7675	0.1345	339535	keystroke_Key.space	Key.space	n/a
169.9625	0.1345	339925	keystroke_w	w	n/a
170.037	0.15	340074	keystroke_a	a	n/a
170.202	0.091	340404	keystroke_g	g	n/a
170.3975	0.105	340795	keystroke_o	o	n/a
170.5175	0.1195	341035	keystroke_n	n	n/a
170.7425	0.075	341485	keystroke_Key.space	Key.space	n/a
170.847	0.1205	341694	keystroke_e	e	n/a
170.9225	0.1645	341845	keystroke_n	n	n/a
171.0565	0.1355	342113	keystroke_d	d	n/a
171.162	0.1055	342324	keystroke_i	i	n/a
171.252	0.1355	342504	keystroke_n	n	n/a
171.3575	0.09	342715	keystroke_g	g	n/a
171.4915	0.135	342983	keystroke_Key.space	Key.space	n/a
171.6125	0.1495	343225	keystroke_r	r	n/a
171.732	0.135	343464	keystroke_e	e	n/a
171.8975	0.1195	343795	keystroke_f	f	n/a
172.032	0.165	344064	keystroke_e	e	n/a
172.1225	0.1355	344245	keystroke_r	r	n/a
172.9925	0.1195	345985	keystroke_e	e	n/a
173.1575	0.1495	346315	keystroke_n	n	n/a
173.292	0.075	346584	keystroke_c	c	n/a
173.472	0.15	346944	keystroke_e	e	n/a
173.562	0.15	347124	keystroke_s	s	n/a
173.712	0.09	347424	keystroke_Key.enter	Key.enter	n/a
173.809	5.6355	347618	prompt	n/a	ipaq tough genres especially\n
174.5525	0.12	349105	keystroke_i	i	n/a
174.8825	0.09	349765	keystroke_p	p	n/a
174.9875	0.165	349975	keystroke_a	a	n/a
175.4075	0.1045	350815	keystroke_q	q	n/a
175.632	0.1505	351264	keystroke_Key.space	Key.space	n/a
175.8725	0.105	351745	keystroke_t	t	n/a
175.9175	0.12	351835	keystroke_o	o	n/a
176.0075	0.105	352015	keystroke_u	u	n/a
176.1575	0.12	352315	keystroke_g	g	n/a
176.2175	0.12	352435	keystroke_h	h	n/a
176.4125	0.105	352825	keystroke_Key.space	Key.space	n/a
176.5625	0.195	353125	keystroke_g	g	n/a
176.7425	0.15	353485	keystroke_e	e	n/a
176.9225	0.1495	353845	keystroke_n	n	n/a
177.1925	0.15	354385	keystroke_r	r	n/a
177.312	0.181	354624	keystroke_e	e	n/a
177.402	0.1505	354804	keystroke_s	s	n/a
177.582	0.135	355164	keystroke_Key.space	Key.space	n/a
177.763	0.2095	355526	keystroke_e	e	n/a
177.882	0.165	355764	keystroke_s	s	n/a
178.092	0.06	356184	keystroke_p	p	n/a
178.1675	0.1045	356335	keystroke_e	e	n/a
178.4525	0.1205	356905	keystroke_c	c	n/a
178.527	0.1505	357054	keystroke_i	i	n/a
178.662	0.12	357324	keystroke_a	a	n/a
178.7375	0.0745	357475	keystroke_l	l	n/a
178.932	0.09	357864	keystroke_l	l	n/a
179.0975	0.1045	358195	keystroke_y	y	n/a
179.368	0.074	358736	keystroke_Key.enter	Key.enter	n/a
179.4485	8.606	358897	prompt	n/a	helicopter horizontal architects transexual\n
180.387	0.1655	360774	keystroke_h	h	n/a
180.5375	0.1045	361075	keystroke_e	e	n/a
180.612	0.1655	361224	keystroke_l	l	n/a
180.747	0.136	361494	keystroke_i	i	n/a
180.8975	0.0755	361795	keystroke_c	c	n/a
181.3325	0.1495	362665	keystroke_o	o	n/a
181.407	0.09	362814	keystroke_p	p	n/a
181.6475	0.1195	363295	keystroke_t	t	n/a
181.857	0.12	363714	keystroke_e	e	n/a
181.917	0.1205	363834	keystroke_r	r	n/a
182.097	0.1205	364194	keystroke_Key.space	Key.space	n/a
182.307	0.1205	364614	keystroke_h	h	n/a
182.4125	0.0895	364825	keystroke_o	o	n/a
182.532	0.136	365064	keystroke_r	r	n/a
182.6975	0.15	365395	keystroke_i	i	n/a
182.8625	0.1205	365725	keystroke_z	z	n/a
183.132	0.0905	366264	keystroke_o	o	n/a
183.2375	0.12	366475	keystroke_n	n	n/a
183.432	0.0905	366864	keystroke_t	t	n/a
183.5375	0.165	367075	keystroke_a	a	n/a
183.5975	0.165	367195	keystroke_l	l	n/a
183.7925	0.12	367585	keystroke_Key.space	Key.space	n/a
184.0475	0.165	368095	keystroke_a	a	n/a
184.168	0.0895	368336	keystroke_r	r	n/a
184.4225	0.135	368845	keystroke_c	c	n/a
184.5275	0.105	369055	keystroke_h	h	n/a
184.6175	0.1205	369235	keystroke_i	i	n/a
184.8575	0.135	369715	keystroke_t	t	n/a
184.9625	0.12	369925	keystroke_e	e	n/a
185.2925	0.1195	370585	keystroke_c	c	n/a
185.473	0.1495	370946	keystroke_t	t	n/a
185.5775	0.135	371155	keystroke_s	s	n/a
185.7425	0.1195	371485	keystroke_Key.space	Key.space	n/a
185.9375	0.09	371875	keystroke_t	t	n/a
186.1475	0.135	372295	keystroke_r	r	n/a
186.2975	0.165	372595	keystroke_a	a	n/a
186.7325	0.1195	373465	keystroke_n	n	n/a
186.882	0.1655	373764	keystroke_s	s	n/a
187.107	0.1205	374214	keystroke_e	e	n/a
187.422	0.121	374844	keystroke_x	x	n/a
187.572	0.1355	375144	keystroke_u	u	n/a
187.677	0.15	375354	keystroke_a	a	n/a
187.797	0.1055	375594	keystroke_l	l	n/a
187.992	0.06	375984	keystroke_Key.enter	Key.enter	n/a
188.0585	7.6155	376117	prompt	n/a	elizabeth machinery leasing inherited\n
188.7725	0.12	377545	keystroke_e	e	n/a
188.8775	0.15	377755	keystroke_l	l	n/a
189.1175	0.1205	378235	keystroke_i	i	n/a
189.6425	0.075	379285	keystroke_z	z	n/a
189.8975	0.12	379795	keystroke_a	a	n/a
190.0775	0.09	380155	keystroke_b	b	n/a
190.228	0.0895	380456	keystroke_e	e	n/a
190.3925	0.1055	380785	keystroke_t	t	n/a
190.4675	0.15	380935	keystroke_h	h	n/a
190.812	0.135	381624	keystroke_Key.space	Key.space	n/a
191.3375	0.135	382675	keystroke_m	m	n/a
191.4275	0.105	382855	keystroke_a	a	n/a
191.623	0.0895	383246	keystroke_c	c	n/a
191.6975	0.15	383395	keystroke_h	h	n/a
191.8325	0.1055	383665	keystroke_i	i	n/a
191.9675	0.15	383935	keystroke_n	n	n/a
192.2525	0.1795	384505	keystroke_e	e	n/a
192.3575	0.12	384715	keystroke_r	r	n/a
192.537	0.105	385074	keystroke_y	y	n/a
192.732	0.1655	385464	keystroke_Key.space	Key.space	n/a
192.867	0.165	385734	keystroke_l	l	n/a
192.912	0.135	385824	keystroke_e	e	n/a
193.002	0.211	386004	keystroke_a	a	n/a
193.0925	0.165	386185	keystroke_s	s	n/a
193.228	0.1045	386456	keystroke_i	i	n/a
193.3175	0.15	386635	keystroke_n	n	n/a
193.4375	0.06	386875	keystroke_g	g	n/a
193.527	0.1205	387054	keystroke_Key.space	Key.space	n/a
193.6325	0.12	387265	keystroke_i	i	n/a
193.738	0.1795	387476	keystroke_n	n	n/a
194.128	0.119	388256	keystroke_h	h	n/a
194.307	0.241	388614	keystroke_e	e	n/a
194.488	0.165	388976	keystroke_r	r	n/a
194.742	0.12	389484	keystroke_i	i	n/a
194.8925	0.09	389785	keystroke_t	t	n/a
195.1925	0.105	390385	keystroke_e	e	n/a
195.448	0.1045	390896	keystroke_d	d	n/a
195.5825	0.09	391165	keystroke_Key.enter	Key.enter	n/a
195.6785	7.2555	391357	prompt	n/a	greece evidence reset agreements\n
196.392	0.09	392784	keystroke_g	g	n/a
196.6025	0.15	393205	keystroke_r	r	n/a
196.737	0.1055	393474	keystroke_e	e	n/a
196.9025	0.135	393805	keystroke_e	e	n/a
197.278	0.075	394556	keystroke_c	c	n/a
197.503	0.09	395006	keystroke_e	e	n/a
197.682	0.1055	395364	keystroke_Key.space	Key.space	n/a
197.892	0.075	395784	keystroke_e	e	n/a
198.057	0.18	396114	keystroke_v	v	n/a
198.3125	0.1055	396625	keystroke_n	n	n/a
198.447	0.135	396894	keystroke_i	i	n/a
198.8675	0.06	397735	keystroke_Key.backspace	Key.backspace	n/a
199.0325	0.075	398065	keystroke_Key.backspace	Key.backspace	n/a
199.2275	0.165	398455	keystroke_i	i	n/a
199.3775	0.15	398755	keystroke_d	d	n/a
199.7225	0.105	399445	keystroke_e	e	n/a
200.0375	0.105	400075	keystroke_n	n	n/a
200.1725	0.045	400345	keystroke_c	c	n/a
200.352	0.106	400704	keystroke_e	e	n/a
200.487	0.105	400974	keystroke_Key.space	Key.space	n/a
200.697	0.1505	401394	keystroke_r	r	n/a
200.802	0.151	401604	keystroke_e	e	n/a
200.938	0.225	401876	keystroke_s	s	n/a
201.0875	0.1655	402175	keystroke_e	e	n/a
201.193	0.105	402386	keystroke_t	t	n/a
201.343	0.119	402686	keystroke_Key.space	Key.space	n/a
201.552	0.1205	403104	keystroke_a	a	n/a
201.6425	0.105	403285	keystroke_g	g	n/a
201.8675	0.15	403735	keystroke_r	r	n/a
201.988	0.0895	403976	keystroke_e	e	n/a
202.153	0.1195	404306	keystroke_e	e	n/a
202.3025	0.12	404605	keystroke_m	m	n/a
202.4825	0.18	404965	keystroke_e	e	n/a
202.5725	0.135	405145	keystroke_n	n	n/a
202.6475	0.12	405295	keystroke_t	t	n/a
202.7375	0.1205	405475	keystroke_s	s	n/a
202.8425	0.09	405685	keystroke_Key.enter	Key.enter	n/a
202.9415	8.228	405883	prompt	n/a	kentucky difference christianity owners\n
203.683	0.1945	407366	keystroke_k	k	n/a
203.862	0.1205	407724	keystroke_e	e	n/a
204.042	0.1955	408084	keystroke_n	n	n/a
204.222	0.0755	408444	keystroke_t	t	n/a
204.523	0.135	409046	keystroke_u	u	n/a
204.6725	0.1505	409345	keystroke_c	c	n/a
204.807	0.105	409614	keystroke_k	k	n/a
205.032	0.12	410064	keystroke_l	l	n/a
205.6025	0.06	411205	keystroke_Key.backspace	Key.backspace	n/a
205.9325	0.09	411865	keystroke_y	y	n/a
206.2175	0.18	412435	keystroke_Key.space	Key.space	n/a
206.3825	0.105	412765	keystroke_d	d	n/a
206.4575	0.15	412915	keystroke_i	i	n/a
206.6225	0.0905	413245	keystroke_f	f	n/a
206.818	0.1195	413636	keystroke_f	f	n/a
206.9675	0.195	413935	keystroke_e	e	n/a
207.0875	0.1205	414175	keystroke_r	r	n/a
207.1925	0.105	414385	keystroke_e	e	n/a
207.8825	0.165	415765	keystroke_n	n	n/a
208.0175	0.09	416035	keystroke_c	c	n/a
208.228	0.1195	416456	keystroke_e	e	n/a
208.3625	0.1505	416725	keystroke_Key.space	Key.space	n/a
208.543	0.119	417086	keystroke_c	c	n/a
208.633	0.149	417266	keystroke_h	h	n/a
208.767	0.091	417534	keystroke_r	r	n/a
208.872	0.135	417744	keystroke_i	i	n/a
208.993	0.119	417986	keystroke_s	s	n/a
209.097	0.121	418194	keystroke_t	t	n/a
209.1725	0.15	418345	keystroke_i	i	n/a
209.277	0.15	418554	keystroke_a	a	n/a
209.442	0.121	418884	keystroke_n	n	n/a
209.6375	0.149	419275	keystroke_i	i	n/a
209.772	0.136	419544	keystroke_t	t	n/a
209.9225	0.075	419845	keystroke_y	y	n/a
210.132	0.12	420264	keystroke_Key.space	Key.space	n/a
210.267	0.121	420534	keystroke_o	o	n/a
210.358	0.135	420716	keystroke_w	w	n/a
210.522	0.136	421044	keystroke_n	n	n/a
210.613	0.21	421226	keystroke_e	e	n/a
210.748	0.1795	421496	keystroke_r	r	n/a
210.913	0.15	421826	keystroke_s	s	n/a
211.077	0.091	422154	keystroke_Key.enter	Key.enter	n/a
211.175	5.874	422350	prompt	n/a	fingers getting ebook freebsd\n
211.918	0.1045	423836	keystroke_f	f	n/a
212.0075	0.0895	424015	keystroke_i	i	n/a
212.112	0.135	424224	keystroke_n	n	n/a
212.1875	0.105	424375	keystroke_g	g	n/a
212.322	0.225	424644	keystroke_e	e	n/a
212.3975	0.135	424795	keystroke_r	r	n/a
212.5175	0.135	425035	keystroke_s	s	n/a
212.6675	0.135	425335	keystroke_Key.space	Key.space	n/a
212.742	0.09	425484	keystroke_g	g	n/a
212.8775	0.1345	425755	keystroke_e	e	n/a
212.982	0.0605	425964	keystroke_t	t	n/a
213.132	0.09	426264	keystroke_t	t	n/a
213.2375	0.1045	426475	keystroke_i	i	n/a
213.327	0.15	426654	keystroke_n	n	n/a
213.447	0.0755	426894	keystroke_g	g	n/a
213.582	0.135	427164	keystroke_Key.space	Key.space	n/a
213.687	0.105	427374	keystroke_e	e	n/a
213.882	0.075	427764	keystroke_b	b	n/a
213.9875	0.1055	427975	keystroke_o	o	n/a
214.182	0.105	428364	keystroke_o	o	n/a
214.242	0.1655	428484	keystroke_k	k	n/a
214.452	0.1355	428904	keystroke_Key.space	Key.space	n/a
214.6475	0.09	429295	keystroke_f	f	n/a
214.9625	0.0295	429925	keystroke_r	r	n/a
214.978	0.1045	429956	keystroke_e	e	n/a
215.2025	0.09	430405	keystroke_s	s	n/a
215.683	0.0895	431366	keystroke_Key.backspace	Key.backspace	n/a
215.922	0.105	431844	keystroke_e	e	n/a
216.297	0.105	432594	keystroke_b	b	n/a
216.448	0.1345	432896	keystroke_s	s	n/a
216.732	0.1355	433464	keystroke_d	d	n/a
216.9725	0.075	433945	keystroke_Key.enter	Key.enter	n/a
217.0535	7.361	434107	prompt	n/a	housewares cruise alert discovered\n
218.0075	0.09	436015	keystroke_h	h	n/a
218.0985	0.1345	436197	keystroke_o	o	n/a
218.2025	0.0895	436405	keystroke_u	u	n/a
218.248	0.105	436496	keystroke_s	s	n/a
218.338	0.074	436676	keystroke_e	e	n/a
218.533	0.149	437066	keystroke_w	w	n/a
218.637	0.1505	437274	keystroke_a	a	n/a
218.7275	0.15	437455	keystroke_r	r	n/a
218.8325	0.135	437665	keystroke_e	e	n/a
219.2375	0.18	438475	keystroke_s	s	n/a
219.6585	0.1635	439317	keystroke_Key.space	Key.space	n/a
219.897	0.15	439794	keystroke_c	c	n/a
220.1075	0.1045	440215	keystroke_r	r	n/a
220.2275	0.1205	440455	keystroke_u	u	n/a
220.3175	0.135	440635	keystroke_i	i	n/a
220.453	0.164	440906	keystroke_s	s	n/a
220.602	0.15	441204	keystroke_e	e	n/a
220.782	0.1205	441564	keystroke_Key.space	Key.space	n/a
220.9035	0.164	441807	keystroke_a	a	n/a
220.9925	0.15	441985	keystroke_l	l	n/a
221.1125	0.165	442225	keystroke_e	e	n/a
221.2175	0.105	442435	keystroke_r	r	n/a
221.4575	0.105	442915	keystroke_t	t	n/a
221.6525	0.12	443305	keystroke_Key.space	Key.space	n/a
221.9375	0.12	443875	keystroke_d	d	n/a
222.0125	0.1355	444025	keystroke_i	i	n/a
222.1625	0.0895	444325	keystroke_s	s	n/a
222.357	0.09	444714	keystroke_c	c	n/a
222.4325	0.105	444865	keystroke_o	o	n/a
222.5675	0.09	445135	keystroke_v	v	n/a
222.837	0.1955	445674	keystroke_r	r	n/a
222.988	0.089	445976	keystroke_e	e	n/a
223.348	0.0745	446696	keystroke_Key.backspace	Key.backspace	n/a
223.5275	0.075	447055	keystroke_Key.backspace	Key.backspace	n/a
223.708	0.1945	447416	keystroke_e	e	n/a
223.8425	0.15	447685	keystroke_r	r	n/a
223.9775	0.12	447955	keystroke_e	e	n/a
224.2325	0.1045	448465	keystroke_d	d	n/a
224.338	0.074	448676	keystroke_Key.enter	Key.enter	n/a
224.419	4.9905	448838	prompt	n/a	operated anna legendary banking\n
225.058	0.1795	450116	keystroke_o	o	n/a
225.2225	0.15	450445	keystroke_e	e	n/a
225.3125	0.12	450625	keystroke_r	r	n/a
225.5525	0.15	451105	keystroke_a	a	n/a
225.6725	0.1055	451345	keystroke_t	t	n/a
225.7325	0.135	451465	keystroke_e	e	n/a
225.9875	0.1205	451975	keystroke_d	d	n/a
226.242	0.1205	452484	keystroke_Key.space	Key.space	n/a
226.482	0.1505	452964	keystroke_a	a	n/a
226.5875	0.0755	453175	keystroke_n	n	n/a
226.767	0.136	453534	keystroke_n	n	n/a
226.872	0.136	453744	keystroke_a	a	n/a
227.0225	0.1345	454045	keystroke_Key.space	Key.space	n/a
227.232	0.181	454464	keystroke_l	l	n/a
227.352	0.135	454704	keystroke_e	e	n/a
227.4725	0.1495	454945	keystroke_g	g	n/a
227.5775	0.1345	455155	keystroke_e	e	n/a
227.713	0.164	455426	keystroke_n	n	n/a
227.848	0.119	455696	keystroke_d	d	n/a
227.982	0.181	455964	keystroke_a	a	n/a
228.087	0.151	456174	keystroke_r	r	n/a
228.177	0.09	456354	keystroke_y	y	n/a
228.3875	0.1645	456775	keystroke_Key.space	Key.space	n/a
228.538	0.089	457076	keystroke_b	b	n/a
228.642	0.165	457284	keystroke_a	a	n/a
228.718	0.164	457436	keystroke_n	n	n/a
228.852	0.0905	457704	keystroke_k	k	n/a
229.0175	0.12	458035	keystroke_i	i	n/a
229.1225	0.12	458245	keystroke_n	n	n/a
229.1975	0.09	458395	keystroke_g	g	n/a
229.3025	0.105	458605	keystroke_Key.enter	Key.enter	n/a
229.414	7.495	458828	prompt	n/a	popularity frontpage cheapest shortcuts\n
230.1575	0.0895	460315	keystroke_p	p	n/a
230.338	0.15	460676	keystroke_o	o	n/a
230.397	0.076	460794	keystroke_p	p	n/a
230.607	0.106	461214	keystroke_u	u	n/a
231.043	0.1645	462086	keystroke_l	l	n/a
231.222	0.21	462444	keystroke_a	a	n/a
231.4175	0.1045	462835	keystroke_r	r	n/a
231.5075	0.1195	463015	keystroke_i	i	n/a
231.6425	0.1195	463285	keystroke_t	t	n/a
231.763	0.074	463526	keystroke_y	y	n/a
231.957	0.15	463914	keystroke_Key.space	Key.space	n/a
232.0475	0.1055	464095	keystroke_f	f	n/a
232.272	0.0605	464544	keystroke_r	r	n/a
232.317	0.1205	464634	keystroke_o	o	n/a
232.452	0.136	464904	keystroke_n	n	n/a
232.572	0.075	465144	keystroke_t	t	n/a
232.872	0.06	465744	keystroke_p	p	n/a
232.933	0.1345	465866	keystroke_a	a	n/a
233.0375	0.1355	466075	keystroke_g	g	n/a
233.128	0.1195	466256	keystroke_e	e	n/a
233.2625	0.135	466525	keystroke_Key.space	Key.space	n/a
233.473	0.09	466946	keystroke_c	c	n/a
233.5775	0.09	467155	keystroke_h	h	n/a
233.6975	0.12	467395	keystroke_e	e	n/a
233.8025	0.135	467605	keystroke_a	a	n/a
233.8625	0.09	467725	keystroke_p	p	n/a
233.9675	0.27	467935	keystroke_e	e	n/a
234.0725	0.135	468145	keystroke_r	r	n/a
234.1775	0.1795	468355	keystroke_s	s	n/a
234.6575	0.135	469315	keystroke_Key.backspace	Key.backspace	n/a
234.9575	0.1345	469915	keystroke_Key.backspace	Key.backspace	n/a
235.272	0.15	470544	keystroke_s	s	n/a
235.3775	0.1205	470755	keystroke_t	t	n/a
235.542	0.15	471084	keystroke_Key.space	Key.space	n/a
235.738	0.135	471476	keystroke_s	s	n/a
235.858	0.105	471716	keystroke_h	h	n/a
235.963	0.089	471926	keystroke_o	o	n/a
236.038	0.075	472076	keystroke_r	r	n/a
236.232	0.0605	472464	keystroke_t	t	n/a
236.473	0.059	472946	keystroke_c	c	n/a
236.488	0.1045	472976	keystroke_u	u	n/a
236.6225	0.15	473245	keystroke_t	t	n/a
236.728	0.1345	473456	keystroke_s	s	n/a
236.8325	0.075	473665	keystroke_Key.enter	Key.enter	n/a
236.9145	5.425	473829	prompt	n/a	points flickr themes abroad\n
237.522	0.09	475044	keystroke_p	p	n/a
237.703	0.134	475406	keystroke_o	o	n/a
237.8075	0.0745	475615	keystroke_i	i	n/a
237.883	0.119	475766	keystroke_n	n	n/a
237.927	0.12	475854	keystroke_t	t	n/a
238.0325	0.1345	476065	keystroke_s	s	n/a
238.257	0.12	476514	keystroke_Key.space	Key.space	n/a
238.5875	0.15	477175	keystroke_l	l	n/a
238.962	0.09	477924	keystroke_Key.backspace	Key.backspace	n/a
239.188	0.1345	478376	keystroke_f	f	n/a
239.232	0.1655	478464	keystroke_l	l	n/a
239.3825	0.105	478765	keystroke_i	i	n/a
239.5025	0.075	479005	keystroke_c	c	n/a
239.6825	0.15	479365	keystroke_k	k	n/a
239.9675	0.09	479935	keystroke_r	r	n/a
240.1475	0.15	480295	keystroke_Key.space	Key.space	n/a
240.3425	0.105	480685	keystroke_t	t	n/a
240.4175	0.12	480835	keystroke_h	h	n/a
240.4925	0.135	480985	keystroke_e	e	n/a
240.6875	0.15	481375	keystroke_m	m	n/a
240.7775	0.225	481555	keystroke_e	e	n/a
240.8975	0.135	481795	keystroke_s	s	n/a
241.047	0.1355	482094	keystroke_Key.space	Key.space	n/a
241.197	0.1355	482394	keystroke_a	a	n/a
241.3475	0.0755	482695	keystroke_b	b	n/a
241.5575	0.1195	483115	keystroke_r	r	n/a
241.662	0.1205	483324	keystroke_o	o	n/a
241.992	0.1205	483984	keystroke_a	a	n/a
242.098	0.1495	484196	keystroke_d	d	n/a
242.2775	0.06	484555	keystroke_Key.enter	Key.enter	n/a
242.344	6.5655	484688	prompt	n/a	sensitivity midi undergraduate navy\n
243.0575	0.1195	486115	keystroke_s	s	n/a
243.298	0.164	486596	keystroke_e	e	n/a
243.477	0.1655	486954	keystroke_n	n	n/a
243.627	0.135	487254	keystroke_s	s	n/a
243.822	0.121	487644	keystroke_i	i	n/a
244.0775	0.075	488155	keystroke_t	t	n/a
244.1225	0.1495	488245	keystroke_i	i	n/a
244.3175	0.12	488635	keystroke_v	v	n/a
244.4225	0.12	488845	keystroke_i	i	n/a
244.6625	0.12	489325	keystroke_t	t	n/a
244.8425	0.09	489685	keystroke_y	y	n/a
245.0525	0.1795	490105	keystroke_Key.space	Key.space	n/a
245.202	0.121	490404	keystroke_m	m	n/a
245.3375	0.1195	490675	keystroke_i	i	n/a
245.4125	0.1495	490825	keystroke_d	d	n/a
245.547	0.151	491094	keystroke_i	i	n/a
245.7275	0.135	491455	keystroke_Key.space	Key.space	n/a
245.982	0.09	491964	keystroke_u	u	n/a
246.1775	0.1195	492355	keystroke_n	n	n/a
246.2375	0.0745	492475	keystroke_d	d	n/a
246.4175	0.12	492835	keystroke_e	e	n/a
246.492	0.105	492984	keystroke_r	r	n/a
246.7175	0.105	493435	keystroke_g	g	n/a
246.973	0.12	493946	keystroke_r	r	n/a
247.1225	0.135	494245	keystroke_a	a	n/a
247.3475	0.12	494695	keystroke_d	d	n/a
247.5125	0.12	495025	keystroke_u	u	n/a
247.617	0.151	495234	keystroke_a	a	n/a
247.737	0.12	495474	keystroke_t	t	n/a
247.798	0.134	495596	keystroke_e	e	n/a
247.9625	0.1345	495925	keystroke_Key.space	Key.space	n/a
248.202	0.18	496404	keystroke_n	n	n/a
248.367	0.151	496734	keystroke_a	a	n/a
248.473	0.135	496946	keystroke_v	v	n/a
248.622	0.076	497244	keystroke_y	y	n/a
248.832	0.0755	497664	keystroke_Key.enter	Key.enter	n/a
248.914	6.565	497828	prompt	n/a	yesterday latest pole lopez\n
249.643	0.0895	499286	keystroke_y	y	n/a
249.7775	0.165	499555	keystroke_e	e	n/a
249.9125	0.195	499825	keystroke_s	s	n/a
250.1075	0.15	500215	keystroke_t	t	n/a
250.2725	0.165	500545	keystroke_e	e	n/a
250.3775	0.105	500755	keystroke_r	r	n/a
250.6025	0.2095	501205	keystroke_d	d	n/a
250.797	0.091	501594	keystroke_a	a	n/a
250.857	0.045	501714	keystroke_y	y	n/a
251.022	0.1505	502044	keystroke_Key.space	Key.space	n/a
251.1875	0.1495	502375	keystroke_l	l	n/a
251.367	0.105	502734	keystroke_e	e	n/a
251.967	0.045	503934	keystroke_Key.backspace	Key.backspace	n/a
252.223	0.179	504446	keystroke_a	a	n/a
252.387	0.1655	504774	keystroke_t	t	n/a
252.522	0.21	505044	keystroke_e	e	n/a
252.628	0.134	505256	keystroke_s	s	n/a
252.748	0.149	505496	keystroke_t	t	n/a
253.3475	0.12	506695	keystroke_Key.space	Key.space	n/a
253.5875	0.09	507175	keystroke_p	p	n/a
253.798	0.0745	507596	keystroke_o	o	n/a
254.038	0.1045	508076	keystroke_l	l	n/a
254.1725	0.12	508345	keystroke_e	e	n/a
254.2475	0.15	508495	keystroke_Key.space	Key.space	n/a
254.3825	0.1345	508765	keystroke_l	l	n/a
254.652	0.165	509304	keystroke_o	o	n/a
254.712	0.136	509424	keystroke_p	p	n/a
254.8775	0.135	509755	keystroke_e	e	n/a
255.193	0.165	510386	keystroke_z	z	n/a
255.3875	0.09	510775	keystroke_Key.enter	Key.enter	n/a
255.4835	7.5705	510967	prompt	n/a	commons constraints bowl perform\n
256.1075	0.0755	512215	keystroke_c	c	n/a
256.1375	0.12	512275	keystroke_o	o	n/a
256.2875	0.06	512575	keystroke_m	m	n/a
256.4675	0.12	512935	keystroke_m	m	n/a
256.8875	0.1655	513775	keystroke_o	o	n/a
257.1725	0.1805	514345	keystroke_n	n	n/a
257.3225	0.195	514645	keystroke_s	s	n/a
257.5325	0.165	515065	keystroke_Key.space	Key.space	n/a
258.2375	0.135	516475	keystroke_c	c	n/a
258.3575	0.045	516715	keystroke_o	o	n/a
258.4325	0.15	516865	keystroke_n	n	n/a
258.5975	0.12	517195	keystroke_s	s	n/a
258.7025	0.12	517405	keystroke_t	t	n/a
258.9425	0.09	517885	keystroke_r	r	n/a
259.0175	0.165	518035	keystroke_a	a	n/a
259.1975	0.15	518395	keystroke_n	n	n/a
259.3925	0.195	518785	keystroke_s	s	n/a
260.2175	0.09	520435	keystroke_Key.backspace	Key.backspace	n/a
260.5775	0.165	521155	keystroke_t	t	n/a
260.7125	0.165	521425	keystroke_s	s	n/a
260.9225	0.1495	521845	keystroke_Key.space	Key.space	n/a
261.1925	0.045	522385	keystroke_b	b	n/a
261.2525	0.12	522505	keystroke_o	o	n/a
261.3575	0.165	522715	keystroke_w	w	n/a
261.5075	0.135	523015	keystroke_l	l	n/a
261.6875	0.135	523375	keystroke_Key.space	Key.space	n/a
261.8825	0.09	523765	keystroke_p	p	n/a
261.9275	0.15	523855	keystroke_e	e	n/a
262.0325	0.0755	524065	keystroke_r	r	n/a
262.2275	0.134	524455	keystroke_f	f	n/a
262.3775	0.105	524755	keystroke_o	o	n/a
262.4675	0.12	524935	keystroke_r	r	n/a
262.5725	0.12	525145	keystroke_m	m	n/a
262.9175	0.1345	525835	keystroke_Key.enter	Key.enter	n/a
263.058	8.3515	526116	prompt	n/a	cities ambassador increasing minerals\n
264.5825	0.0905	529165	keystroke_c	c	n/a
264.703	0.1195	529406	keystroke_i	i	n/a
264.8375	0.135	529675	keystroke_t	t	n/a
264.973	0.1495	529946	keystroke_i	i	n/a
265.0615	0.181	530123	keystroke_e	e	n/a
265.1975	0.12	530395	keystroke_s	s	n/a
265.332	0.12	530664	keystroke_Key.space	Key.space	n/a
265.4375	0.06	530875	keystroke_f	f	n/a
265.8875	0.075	531775	keystroke_Key.backspace	Key.backspace	n/a
266.1725	0.1655	532345	keystroke_a	a	n/a
266.2925	0.135	532585	keystroke_m	m	n/a
266.4725	0.105	532945	keystroke_b	b	n/a
266.5775	0.195	533155	keystroke_a	a	n/a
266.6975	0.135	533395	keystroke_s	s	n/a
266.9525	0.09	533905	keystroke_s	s	n/a
267.148	0.1345	534296	keystroke_a	a	n/a
267.2825	0.135	534565	keystroke_d	d	n/a
267.492	0.135	534984	keystroke_o	o	n/a
267.732	0.106	535464	keystroke_r	r	n/a
267.882	0.1355	535764	keystroke_Key.space	Key.space	n/a
268.1225	0.1195	536245	keystroke_i	i	n/a
268.258	0.134	536516	keystroke_n	n	n/a
268.377	0.076	536754	keystroke_c	c	n/a
268.482	0.135	536964	keystroke_r	r	n/a
268.6025	0.105	537205	keystroke_e	e	n/a
268.6625	0.1795	537325	keystroke_a	a	n/a
268.813	0.179	537626	keystroke_s	s	n/a
268.962	0.1055	537924	keystroke_i	i	n/a
269.0525	0.165	538105	keystroke_n	n	n/a
269.4125	0.165	538825	keystroke_Key.space	Key.space	n/a
269.8475	0.0745	539695	keystroke_Key.backspace	Key.backspace	n/a
270.0575	0.105	540115	keystroke_g	g	n/a
270.1775	0.15	540355	keystroke_Key.space	Key.space	n/a
270.3275	0.12	540655	keystroke_m	m	n/a
270.4775	0.12	540955	keystroke_i	i	n/a
270.568	0.1495	541136	keystroke_n	n	n/a
270.6425	0.09	541285	keystroke_d	d	n/a
270.8075	0.165	541615	keystroke_e	e	n/a
270.8825	0.12	541765	keystroke_r	r	n/a
270.9875	0.165	541975	keystroke_a	a	n/a
271.078	0.1195	542156	keystroke_l	l	n/a
271.243	0.1345	542486	keystroke_s	s	n/a
271.2725	0.135	542545	keystroke_Key.enter	Key.enter	n/a
271.4165	4.2235	542833	prompt	n/a	discs wine rule marie\n
272.2175	0.165	544435	keystroke_d	d	n/a
272.3975	0.15	544795	keystroke_i	i	n/a
272.4875	0.105	544975	keystroke_s	s	n/a
272.7275	0.18	545455	keystroke_c	c	n/a
272.8925	0.2095	545785	keystroke_s	s	n/a
273.522	0.15	547044	keystroke_Key.space	Key.space	n/a
273.852	0.121	547704	keystroke_w	w	n/a
273.898	0.1195	547796	keystroke_i	i	n/a
274.0025	0.1355	548005	keystroke_n	n	n/a
274.107	0.0905	548214	keystroke_e	e	n/a
274.257	0.1205	548514	keystroke_Key.space	Key.space	n/a
274.3475	0.119	548695	keystroke_r	r	n/a
274.4825	0.06	548965	keystroke_u	u	n/a
274.5875	0.15	549175	keystroke_l	l	n/a
274.678	0.165	549356	keystroke_e	e	n/a
274.8265	0.151	549653	keystroke_Key.space	Key.space	n/a
274.9925	0.1195	549985	keystroke_m	m	n/a
275.0525	0.1795	550105	keystroke_a	a	n/a
275.2175	0.105	550435	keystroke_r	r	n/a
275.292	0.1505	550584	keystroke_i	i	n/a
275.4125	0.105	550825	keystroke_e	e	n/a
275.563	0.0745	551126	keystroke_Key.enter	Key.enter	n/a
275.644	5.5	551288	prompt	n/a	warren kids statutes balanced\n
276.4175	0.1345	552835	keystroke_w	w	n/a
276.612	0.1505	553224	keystroke_a	a	n/a
276.7475	0.0605	553495	keystroke_r	r	n/a
276.913	0.089	553826	keystroke_r	r	n/a
277.1825	0.1495	554365	keystroke_e	e	n/a
277.3025	0.1495	554605	keystroke_n	n	n/a
277.542	0.12	555084	keystroke_Key.space	Key.space	n/a
277.632	0.075	555264	keystroke_k	k	n/a
277.812	0.12	555624	keystroke_i	i	n/a
277.8725	0.18	555745	keystroke_d	d	n/a
277.978	0.1195	555956	keystroke_s	s	n/a
278.0825	0.15	556165	keystroke_Key.space	Key.space	n/a
278.4725	0.2095	556945	keystroke_s	s	n/a
278.6375	0.105	557275	keystroke_t	t	n/a
278.7575	0.1505	557515	keystroke_a	a	n/a
278.8475	0.1805	557695	keystroke_t	t	n/a
279.0875	0.1645	558175	keystroke_u	u	n/a
279.1775	0.1795	558355	keystroke_e	e	n/a
279.2675	0.135	558535	keystroke_s	s	n/a
279.4175	0.15	558835	keystroke_Key.space	Key.space	n/a
280.0025	0.06	560005	keystroke_b	b	n/a
280.107	0.06	560214	keystroke_a	a	n/a
280.212	0.165	560424	keystroke_l	l	n/a
280.363	0.1345	560726	keystroke_a	a	n/a
280.512	0.1505	561024	keystroke_n	n	n/a
280.602	0.076	561204	keystroke_c	c	n/a
280.7825	0.075	561565	keystroke_e	e	n/a
280.9625	0.1195	561925	keystroke_d	d	n/a
281.067	0.0755	562134	keystroke_Key.enter	Key.enter	n/a
281.1485	5.292	562297	prompt	n/a	conventions dash managing performer\n
281.9375	0.105	563875	keystroke_c	c	n/a
281.9975	0.0905	563995	keystroke_o	o	n/a
282.117	0.1355	564234	keystroke_n	n	n/a
282.2375	0.12	564475	keystroke_v	v	n/a
282.3875	0.135	564775	keystroke_e	e	n/a
282.5375	0.136	565075	keystroke_n	n	n/a
282.6575	0.12	565315	keystroke_t	t	n/a
282.7925	0.135	565585	keystroke_i	i	n/a
282.8975	0.105	565795	keystroke_o	o	n/a
282.9725	0.15	565945	keystroke_n	n	n/a
283.0925	0.1055	566185	keystroke_s	s	n/a
283.2275	0.135	566455	keystroke_Key.space	Key.space	n/a
283.3025	0.1795	566605	keystroke_d	d	n/a
283.4375	0.21	566875	keystroke_a	a	n/a
283.5425	0.135	567085	keystroke_s	s	n/a
283.6165	0.106	567233	keystroke_h	h	n/a
283.8125	0.12	567625	keystroke_Key.space	Key.space	n/a
283.9175	0.15	567835	keystroke_m	m	n/a
284.0525	0.135	568105	keystroke_a	a	n/a
284.203	0.1495	568406	keystroke_n	n	n/a
284.3375	0.1355	568675	keystroke_a	a	n/a
284.5175	0.105	569035	keystroke_g	g	n/a
284.6975	0.135	569395	keystroke_i	i	n/a
284.8025	0.18	569605	keystroke_n	n	n/a
284.9525	0.1055	569905	keystroke_g	g	n/a
285.1025	0.104	570205	keystroke_Key.space	Key.space	n/a
285.2825	0.09	570565	keystroke_p	p	n/a
285.3275	0.18	570655	keystroke_e	e	n/a
285.4175	0.1205	570835	keystroke_r	r	n/a
285.6725	0.135	571345	keystroke_f	f	n/a
285.8225	0.09	571645	keystroke_o	o	n/a
285.9125	0.12	571825	keystroke_r	r	n/a
286.0175	0.15	572035	keystroke_m	m	n/a
286.1225	0.1345	572245	keystroke_e	e	n/a
286.1975	0.1205	572395	keystroke_r	r	n/a
286.333	0.104	572666	keystroke_Key.enter	Key.enter	n/a
286.4455	6.0085	572891	prompt	n/a	reward industry verbal forests\n
287.157	0.1505	574314	keystroke_r	r	n/a
287.2625	0.12	574525	keystroke_e	e	n/a
287.5625	0.1645	575125	keystroke_w	w	n/a
287.6675	0.1345	575335	keystroke_a	a	n/a
287.742	0.18	575484	keystroke_r	r	n/a
288.373	0.164	576746	keystroke_d	d	n/a
288.627	0.135	577254	keystroke_Key.space	Key.space	n/a
288.9575	0.09	577915	keystroke_i	i	n/a
289.0625	0.135	578125	keystroke_n	n	n/a
289.1225	0.12	578245	keystroke_d	d	n/a
289.3325	0.105	578665	keystroke_u	u	n/a
289.4525	0.15	578905	keystroke_s	s	n/a
289.647	0.06	579294	keystroke_t	t	n/a
289.827	0.1205	579654	keystroke_r	r	n/a
289.9325	0.105	579865	keystroke_y	y	n/a
290.277	0.015	580554	keystroke_Key.space	Key.space	n/a
290.3825	0.09	580765	keystroke_v	v	n/a
290.517	0.1505	581034	keystroke_e	e	n/a
290.607	0.075	581214	keystroke_r	r	n/a
290.998	0.104	581996	keystroke_b	b	n/a
291.1475	0.12	582295	keystroke_a	a	n/a
291.2075	0.135	582415	keystroke_l	l	n/a
291.3725	0.135	582745	keystroke_Key.space	Key.space	n/a
291.6125	0.105	583225	keystroke_f	f	n/a
291.6875	0.15	583375	keystroke_o	o	n/a
291.8225	0.12	583645	keystroke_r	r	n/a
291.9125	0.135	583825	keystroke_e	e	n/a
291.9875	0.105	583975	keystroke_s	s	n/a
292.1075	0.135	584215	keystroke_t	t	n/a
292.2125	0.135	584425	keystroke_s	s	n/a
292.3775	0.075	584755	keystroke_Key.enter	Key.enter	n/a
292.4585	4.8405	584917	prompt	n/a	cycling jessica manage payment\n
293.1275	0.105	586255	keystroke_c	c	n/a
293.2775	0.075	586555	keystroke_y	y	n/a
293.4275	0.1505	586855	keystroke_c	c	n/a
293.5625	0.12	587125	keystroke_l	l	n/a
293.7725	0.135	587545	keystroke_i	i	n/a
293.8925	0.135	587785	keystroke_n	n	n/a
293.9975	0.075	587995	keystroke_g	g	n/a
294.1325	0.15	588265	keystroke_Key.space	Key.space	n/a
294.2525	0.1505	588505	keystroke_j	j	n/a
294.372	0.1655	588744	keystroke_e	e	n/a
294.508	0.074	589016	keystroke_s	s	n/a
294.702	0.09	589404	keystroke_s	s	n/a
294.8075	0.1345	589615	keystroke_i	i	n/a
294.927	0.1205	589854	keystroke_c	c	n/a
295.033	0.1645	590066	keystroke_a	a	n/a
295.2725	0.12	590545	keystroke_Key.space	Key.space	n/a
295.4825	0.12	590965	keystroke_m	m	n/a
295.618	0.0895	591236	keystroke_a	a	n/a
295.7225	0.12	591445	keystroke_n	n	n/a
295.8275	0.105	591655	keystroke_a	a	n/a
295.9175	0.135	591835	keystroke_g	g	n/a
296.0075	0.135	592015	keystroke_e	e	n/a
296.1275	0.075	592255	keystroke_Key.space	Key.space	n/a
296.2475	0.09	592495	keystroke_p	p	n/a
296.3525	0.165	592705	keystroke_a	a	n/a
296.5025	0.075	593005	keystroke_y	y	n/a
296.7425	0.135	593485	keystroke_m	m	n/a
296.848	0.1195	593696	keystroke_e	e	n/a
296.9825	0.1195	593965	keystroke_n	n	n/a
297.1175	0.09	594235	keystroke_t	t	n/a
297.222	0.075	594444	keystroke_Key.enter	Key.enter	n/a
297.3035	5.831	594607	prompt	n/a	firms identify google hint\n
298.287	0.105	596574	keystroke_f	f	n/a
298.377	0.1355	596754	keystroke_i	i	n/a
298.4975	0.1345	596995	keystroke_r	r	n/a
298.6175	0.149	597235	keystroke_m	m	n/a
298.7525	0.1495	597505	keystroke_s	s	n/a
298.8865	0.166	597773	keystroke_Key.space	Key.space	n/a
299.0675	0.1195	598135	keystroke_i	i	n/a
299.1725	0.105	598345	keystroke_d	d	n/a
299.352	0.1205	598704	keystroke_e	e	n/a
299.4575	0.135	598915	keystroke_n	n	n/a
299.608	0.0895	599216	keystroke_t	t	n/a
299.7125	0.135	599425	keystroke_i	i	n/a
300.1625	0.1795	600325	keystroke_f	f	n/a
300.357	0.12	600714	keystroke_y	y	n/a
300.612	0.15	601224	keystroke_Key.space	Key.space	n/a
300.9725	0.089	601945	keystroke_g	g	n/a
301.0775	0.09	602155	keystroke_o	o	n/a
301.2275	0.12	602455	keystroke_o	o	n/a
301.3315	0.1205	602663	keystroke_g	g	n/a
301.4975	0.164	602995	keystroke_l	l	n/a
301.6175	0.105	603235	keystroke_e	e	n/a
301.782	0.12	603564	keystroke_Key.space	Key.space	n/a
302.547	0.1205	605094	keystroke_h	h	n/a
302.6675	0.1195	605335	keystroke_i	i	n/a
302.772	0.1505	605544	keystroke_n	n	n/a
302.8775	0.104	605755	keystroke_t	t	n/a
303.0275	0.1045	606055	keystroke_Key.enter	Key.enter	n/a
303.138	6.9115	606276	prompt	n/a	playing chief advertisers device\n
304.243	0.1195	608486	keystroke_p	p	n/a
304.392	0.1955	608784	keystroke_l	l	n/a
304.6775	0.18	609355	keystroke_a	a	n/a
304.7975	0.1055	609595	keystroke_y	y	n/a
304.8875	0.134	609775	keystroke_i	i	n/a
305.0365	0.1365	610073	keystroke_n	n	n/a
305.1875	0.12	610375	keystroke_g	g	n/a
305.3215	0.106	610643	keystroke_Key.space	Key.space	n/a
305.4425	0.089	610885	keystroke_c	c	n/a
305.5175	0.105	611035	keystroke_h	h	n/a
305.6675	0.135	611335	keystroke_i	i	n/a
305.7575	0.135	611515	keystroke_e	e	n/a
305.8625	0.15	611725	keystroke_f	f	n/a
306.0425	0.135	612085	keystroke_Key.space	Key.space	n/a
306.2225	0.195	612445	keystroke_a	a	n/a
306.3425	0.09	612685	keystroke_d	d	n/a
306.5975	0.09	613195	keystroke_v	v	n/a
306.7475	0.21	613495	keystroke_e	e	n/a
306.8825	0.15	613765	keystroke_r	r	n/a
307.6475	0.0745	615295	keystroke_t	t	n/a
307.707	0.1655	615414	keystroke_i	i	n/a
307.918	0.1495	615836	keystroke_s	s	n/a
308.0215	0.226	616043	keystroke_e	e	n/a
308.0815	0.181	616163	keystroke_r	r	n/a
308.2315	0.136	616463	keystroke_s	s	n/a
308.4115	0.15	616823	keystroke_Key.space	Key.space	n/a
308.8165	0.121	617633	keystroke_d	d	n/a
309.0725	0.105	618145	keystroke_e	e	n/a
309.372	0.0905	618744	keystroke_v	v	n/a
309.5075	0.15	619015	keystroke_i	i	n/a
309.5825	0.09	619165	keystroke_c	c	n/a
309.7925	0.1045	619585	keystroke_e	e	n/a
309.972	0.0755	619944	keystroke_Key.enter	Key.enter	n/a
310.052	6.7185	620104	prompt	n/a	brother reveal replacing tobago\n
310.782	0.0905	621564	keystroke_b	b	n/a
311.0375	0.0745	622075	keystroke_r	r	n/a
311.1275	0.1195	622255	keystroke_o	o	n/a
311.3375	0.15	622675	keystroke_t	t	n/a
311.5025	0.135	623005	keystroke_h	h	n/a
311.5775	0.1495	623155	keystroke_e	e	n/a
311.653	0.1195	623306	keystroke_r	r	n/a
311.8615	0.1655	623723	keystroke_Key.space	Key.space	n/a
312.0725	0.1345	624145	keystroke_r	r	n/a
312.162	0.1195	624324	keystroke_e	e	n/a
312.612	0.15	625224	keystroke_v	v	n/a
313.017	0.1655	626034	keystroke_e	e	n/a
313.1365	0.196	626273	keystroke_a	a	n/a
313.2725	0.15	626545	keystroke_l	l	n/a
313.467	0.1805	626934	keystroke_Key.space	Key.space	n/a
313.948	0.149	627896	keystroke_r	r	n/a
314.0375	0.135	628075	keystroke_e	e	n/a
314.157	0.105	628314	keystroke_p	p	n/a
314.2625	0.1955	628525	keystroke_l	l	n/a
314.412	0.1195	628824	keystroke_a	a	n/a
314.6375	0.105	629275	keystroke_c	c	n/a
314.8025	0.0895	629605	keystroke_i	i	n/a
315.4325	0.135	630865	keystroke_n	n	n/a
315.5215	0.106	631043	keystroke_g	g	n/a
315.6875	0.15	631375	keystroke_Key.space	Key.space	n/a
315.8525	0.09	631705	keystroke_t	t	n/a
315.9575	0.105	631915	keystroke_o	o	n/a
316.1075	0.105	632215	keystroke_b	b	n/a
316.242	0.12	632484	keystroke_a	a	n/a
316.332	0.105	632664	keystroke_g	g	n/a
316.452	0.09	632904	keystroke_o	o	n/a
316.692	0.0755	633384	keystroke_Key.enter	Key.enter	n/a
316.7745	7.135	633549	prompt	n/a	others weblog calibration holmes\n
317.5175	0.105	635035	keystroke_o	o	n/a
317.6375	0.0905	635275	keystroke_t	t	n/a
317.6975	0.15	635395	keystroke_h	h	n/a
317.7875	0.2255	635575	keystroke_e	e	n/a
317.8625	0.135	635725	keystroke_r	r	n/a
317.9525	0.105	635905	keystroke_s	s	n/a
318.0875	0.1495	636175	keystroke_Key.space	Key.space	n/a
318.207	0.1355	636414	keystroke_w	w	n/a
318.297	0.12	636594	keystroke_e	e	n/a
318.5975	0.105	637195	keystroke_b	b	n/a
318.747	0.1355	637494	keystroke_l	l	n/a
318.957	0.1205	637914	keystroke_o	o	n/a
319.062	0.075	638124	keystroke_c	c	n/a
319.4525	0.075	638905	keystroke_Key.backspace	Key.backspace	n/a
319.6475	0.1055	639295	keystroke_g	g	n/a
319.8275	0.15	639655	keystroke_Key.space	Key.space	n/a
320.2475	0.1645	640495	keystroke_c	c	n/a
320.3975	0.195	640795	keystroke_a	a	n/a
320.502	0.195	641004	keystroke_l	l	n/a
320.6675	0.135	641335	keystroke_i	i	n/a
320.9675	0.12	641935	keystroke_b	b	n/a
321.2525	0.1345	642505	keystroke_r	r	n/a
321.358	0.194	642716	keystroke_a	a	n/a
321.597	0.12	643194	keystroke_t	t	n/a
321.748	0.104	643496	keystroke_i	i	n/a
321.822	0.105	643644	keystroke_o	o	n/a
321.912	0.121	643824	keystroke_n	n	n/a
322.2425	0.09	644485	keystroke_Key.space	Key.space	n/a
322.333	0.1345	644666	keystroke_h	h	n/a
322.452	0.121	644904	keystroke_o	o	n/a
323.3525	0.195	646705	keystroke_l	l	n/a
323.5025	0.165	647005	keystroke_m	m	n/a
323.6375	0.18	647275	keystroke_e	e	n/a
323.7275	0.1505	647455	keystroke_s	s	n/a
323.8325	0.075	647665	keystroke_Key.enter	Key.enter	n/a
323.9135	9.7155	647827	prompt	n/a	formed gratuit constitution entitled\n
324.5825	0.12	649165	keystroke_f	f	n/a
324.6725	0.12	649345	keystroke_o	o	n/a
324.8075	0.09	649615	keystroke_r	r	n/a
324.958	0.179	649916	keystroke_m	m	n/a
325.0325	0.1205	650065	keystroke_e	e	n/a
325.303	0.1345	650606	keystroke_d	d	n/a
325.6025	0.1795	651205	keystroke_Key.space	Key.space	n/a
325.8275	0.1195	651655	keystroke_g	g	n/a
326.128	0.15	652256	keystroke_r	r	n/a
326.307	0.0755	652614	keystroke_a	a	n/a
327.8375	0.1355	655675	keystroke_t	t	n/a
327.9575	0.105	655915	keystroke_u	u	n/a
328.0325	0.15	656065	keystroke_i	i	n/a
328.212	0.136	656424	keystroke_t	t	n/a
328.512	0.165	657024	keystroke_Key.space	Key.space	n/a
328.797	0.1205	657594	keystroke_c	c	n/a
328.827	0.0755	657654	keystroke_o	o	n/a
328.9325	0.12	657865	keystroke_n	n	n/a
329.053	0.1645	658106	keystroke_s	s	n/a
329.2025	0.0755	658405	keystroke_u	u	n/a
329.7425	0.0895	659485	keystroke_Key.backspace	Key.backspace	n/a
329.9675	0.12	659935	keystroke_a	a	n/a
330.0875	0.105	660175	keystroke_t	t	n/a
330.5225	0.045	661045	keystroke_Key.backspace	Key.backspace	n/a
330.6875	0.075	661375	keystroke_Key.backspace	Key.backspace	n/a
330.9125	0.105	661825	keystroke_t	t	n/a
331.0025	0.1055	662005	keystroke_i	i	n/a
331.527	0.1205	663054	keystroke_t	t	n/a
331.6325	0.105	663265	keystroke_u	u	n/a
331.8125	0.15	663625	keystroke_t	t	n/a
331.9625	0.15	663925	keystroke_i	i	n/a
332.0825	0.09	664165	keystroke_o	o	n/a
332.1575	0.1355	664315	keystroke_n	n	n/a
332.3825	0.135	664765	keystroke_Key.space	Key.space	n/a
332.562	0.135	665124	keystroke_e	e	n/a
332.682	0.105	665364	keystroke_n	n	n/a
332.802	0.06	665604	keystroke_t	t	n/a
332.878	0.1495	665756	keystroke_i	i	n/a
332.982	0.166	665964	keystroke_t	t	n/a
333.1325	0.1205	666265	keystroke_l	l	n/a
333.163	0.119	666326	keystroke_e	e	n/a
333.403	0.1045	666806	keystroke_d	d	n/a
333.4925	0.1345	666985	keystroke_Key.enter	Key.enter	n/a
333.6325	10.2865	667265	prompt	n/a	poultry gallery enables refurbished\n
334.258	0.104	668516	keystroke_p	p	n/a
334.528	0.0595	669056	keystroke_o	o	n/a
334.5425	0.195	669085	keystroke_u	u	n/a
335.367	0.1505	670734	keystroke_l	l	n/a
335.4875	0.09	670975	keystroke_t	t	n/a
335.6825	0.105	671365	keystroke_r	r	n/a
335.8325	0.06	671665	keystroke_y	y	n/a
335.9825	0.15	671965	keystroke_Key.space	Key.space	n/a
336.1175	0.1055	672235	keystroke_g	g	n/a
336.223	0.1345	672446	keystroke_a	a	n/a
336.3275	0.105	672655	keystroke_l	l	n/a
336.5075	0.135	673015	keystroke_l	l	n/a
336.5675	0.15	673135	keystroke_e	e	n/a
336.6575	0.135	673315	keystroke_r	r	n/a
337.048	0.09	674096	keystroke_y	y	n/a
337.2575	0.15	674515	keystroke_Key.space	Key.space	n/a
337.662	0.0905	675324	keystroke_e	e	n/a
337.7675	0.1205	675535	keystroke_n	n	n/a
337.992	0.09	675984	keystroke_b	b	n/a
338.1425	0.1505	676285	keystroke_a	a	n/a
338.322	0.075	676644	keystroke_b	b	n/a
338.3375	0.1505	676675	keystroke_l	l	n/a
338.892	0.075	677784	keystroke_Key.backspace	Key.backspace	n/a
339.2975	0.0895	678595	keystroke_Key.backspace	Key.backspace	n/a
339.5075	0.1945	679015	keystroke_Key.backspace	Key.backspace	n/a
339.868	0.0895	679736	keystroke_Key.backspace	Key.backspace	n/a
340.258	0.1795	680516	keystroke_a	a	n/a
341.1125	0.135	682225	keystroke_b	b	n/a
341.2775	0.135	682555	keystroke_l	l	n/a
341.3825	0.195	682765	keystroke_e	e	n/a
341.5025	0.1205	683005	keystroke_s	s	n/a
341.6075	0.165	683215	keystroke_Key.space	Key.space	n/a
341.8025	0.165	683605	keystroke_r	r	n/a
341.9375	0.12	683875	keystroke_e	e	n/a
342.1325	0.1495	684265	keystroke_f	f	n/a
342.312	0.121	684624	keystroke_u	u	n/a
342.418	0.0745	684836	keystroke_r	r	n/a
343.0325	0.105	686065	keystroke_b	b	n/a
343.2425	0.165	686485	keystroke_i	i	n/a
343.3325	0.1195	686665	keystroke_s	s	n/a
343.423	0.12	686846	keystroke_h	h	n/a
343.497	0.09	686994	keystroke_e	e	n/a
343.693	0.105	687386	keystroke_d	d	n/a
343.8425	0.075	687685	keystroke_Key.enter	Key.enter	n/a
343.9225	9.882	687845	prompt	n/a	who'll tragedy involves transcription\n
344.622	0.1805	689244	keystroke_w	w	n/a
344.728	0.1045	689456	keystroke_h	h	n/a
344.817	0.105	689634	keystroke_o	o	n/a
345.088	0.1495	690176	keystroke_'	'	n/a
345.252	0.105	690504	keystroke_l	l	n/a
345.462	0.15	690924	keystroke_l	l	n/a
345.6275	0.1345	691255	keystroke_Key.space	Key.space	n/a
345.7475	0.0895	691495	keystroke_t	t	n/a
345.9875	0.1195	691975	keystroke_r	r	n/a
346.153	0.1495	692306	keystroke_a	a	n/a
346.5125	0.18	693025	keystroke_g	g	n/a
346.6775	0.105	693355	keystroke_e	e	n/a
346.9325	0.1205	693865	keystroke_d	d	n/a
347.127	0.121	694254	keystroke_y	y	n/a
347.3825	0.1205	694765	keystroke_Key.space	Key.space	n/a
347.592	0.1205	695184	keystroke_i	i	n/a
347.7275	0.1345	695455	keystroke_n	n	n/a
347.923	0.089	695846	keystroke_v	v	n/a
348.0575	0.0895	696115	keystroke_o	o	n/a
348.267	0.165	696534	keystroke_l	l	n/a
348.387	0.106	696774	keystroke_v	v	n/a
348.4775	0.135	696955	keystroke_e	e	n/a
348.642	0.21	697284	keystroke_s	s	n/a
348.867	0.1505	697734	keystroke_Key.space	Key.space	n/a
349.2725	0.0745	698545	keystroke_t	t	n/a
349.453	0.089	698906	keystroke_r	r	n/a
349.662	0.0905	699324	keystroke_n	n	n/a
350.127	0.105	700254	keystroke_Key.backspace	Key.backspace	n/a
350.277	0.195	700554	keystroke_a	a	n/a
350.458	0.1045	700916	keystroke_n	n	n/a
350.9075	0.18	701815	keystroke_s	s	n/a
352.438	0.1345	704876	keystroke_c	c	n/a
352.6315	0.106	705263	keystroke_r	r	n/a
352.888	0.1345	705776	keystroke_i	i	n/a
353.0375	0.105	706075	keystroke_p	p	n/a
353.1875	0.1205	706375	keystroke_t	t	n/a
353.323	0.135	706646	keystroke_i	i	n/a
353.428	0.0895	706856	keystroke_o	o	n/a
353.5025	0.09	707005	keystroke_n	n	n/a
353.7275	0.075	707455	keystroke_Key.enter	Key.enter	n/a
353.809	4.705	707618	prompt	n/a	compute mill infant aren't\n
354.448	0.105	708896	keystroke_c	c	n/a
354.4925	0.09	708985	keystroke_o	o	n/a
354.613	0.1195	709226	keystroke_m	m	n/a
354.7775	0.135	709555	keystroke_p	p	n/a
354.8675	0.1205	709735	keystroke_u	u	n/a
355.0025	0.0905	710005	keystroke_t	t	n/a
355.212	0.136	710424	keystroke_e	e	n/a
355.407	0.15	710814	keystroke_Key.space	Key.space	n/a
355.5725	0.1345	711145	keystroke_m	m	n/a
355.693	0.105	711386	keystroke_i	i	n/a
355.7825	0.105	711565	keystroke_l	l	n/a
355.9925	0.135	711985	keystroke_l	l	n/a
356.293	0.0895	712586	keystroke_Key.space	Key.space	n/a
356.5775	0.105	713155	keystroke_i	i	n/a
356.6975	0.12	713395	keystroke_n	n	n/a
356.8025	0.1355	713605	keystroke_f	f	n/a
356.9825	0.1045	713965	keystroke_a	a	n/a
357.0425	0.1505	714085	keystroke_n	n	n/a
357.2225	0.135	714445	keystroke_t	t	n/a
357.3425	0.15	714685	keystroke_Key.space	Key.space	n/a
357.5375	0.18	715075	keystroke_a	a	n/a
357.6725	0.12	715345	keystroke_r	r	n/a
357.7475	0.135	715495	keystroke_e	e	n/a
357.8975	0.12	715795	keystroke_n	n	n/a
358.0475	0.135	716095	keystroke_'	'	n/a
358.1525	0.121	716305	keystroke_t	t	n/a
358.4225	0.0895	716845	keystroke_Key.enter	Key.enter	n/a
358.5185	6.4605	717037	prompt	n/a	worship attached breed measures\n
359.2025	0.12	718405	keystroke_w	w	n/a
359.2925	0.105	718585	keystroke_o	o	n/a
359.4275	0.12	718855	keystroke_r	r	n/a
359.683	0.149	719366	keystroke_s	s	n/a
359.968	0.134	719936	keystroke_h	h	n/a
360.058	0.149	720116	keystroke_i	i	n/a
360.162	0.105	720324	keystroke_p	p	n/a
360.507	0.1505	721014	keystroke_Key.space	Key.space	n/a
361.017	0.1655	722034	keystroke_a	a	n/a
361.2275	0.06	722455	keystroke_t	t	n/a
361.3925	0.105	722785	keystroke_t	t	n/a
361.5125	0.105	723025	keystroke_a	a	n/a
361.678	0.0895	723356	keystroke_c	c	n/a
361.7975	0.105	723595	keystroke_h	h	n/a
361.918	0.0745	723836	keystroke_e	e	n/a
362.113	0.1045	724226	keystroke_d	d	n/a
362.2625	0.135	724525	keystroke_Key.space	Key.space	n/a
362.3825	0.09	724765	keystroke_b	b	n/a
362.607	0.151	725214	keystroke_r	r	n/a
362.7275	0.1055	725455	keystroke_e	e	n/a
362.908	0.1195	725816	keystroke_e	e	n/a
363.148	0.1045	726296	keystroke_d	d	n/a
363.2675	0.135	726535	keystroke_Key.space	Key.space	n/a
363.3725	0.18	726745	keystroke_m	m	n/a
363.4475	0.12	726895	keystroke_e	e	n/a
363.5375	0.1505	727075	keystroke_a	a	n/a
363.6575	0.045	727315	keystroke_t	t	n/a
363.8375	0.1045	727675	keystroke_s	s	n/a
364.122	0.046	728244	keystroke_Key.backspace	Key.backspace	n/a
364.287	0.076	728574	keystroke_Key.backspace	Key.backspace	n/a
364.423	0.24	728846	keystroke_s	s	n/a
364.543	0.1495	729086	keystroke_u	u	n/a
364.648	0.1195	729296	keystroke_r	r	n/a
364.738	0.1345	729476	keystroke_e	e	n/a
364.7975	0.135	729595	keystroke_s	s	n/a
364.9025	0.075	729805	keystroke_Key.enter	Key.enter	n/a
364.984	9.0255	729968	prompt	n/a	beginner cost problems concerning\n
365.6075	0.06	731215	keystroke_b	b	n/a
365.8175	0.0155	731635	keystroke_e	e	n/a
365.8625	0.09	731725	keystroke_g	g	n/a
366.0275	0.1345	732055	keystroke_i	i	n/a
366.163	0.1035	732326	keystroke_n	n	n/a
366.3575	0.1045	732715	keystroke_n	n	n/a
366.568	0.1345	733136	keystroke_i	i	n/a
366.7175	0.09	733435	keystroke_n	n	n/a
367.1375	0.0895	734275	keystroke_Key.backspace	Key.backspace	n/a
367.317	0.09	734634	keystroke_Key.backspace	Key.backspace	n/a
367.4975	0.1495	734995	keystroke_e	e	n/a
367.572	0.15	735144	keystroke_r	r	n/a
367.7375	0.1495	735475	keystroke_Key.space	Key.space	n/a
367.962	0.09	735924	keystroke_b	b	n/a
368.367	0.0595	736734	keystroke_Key.backspace	Key.backspace	n/a
368.638	0.1195	737276	keystroke_c	c	n/a
368.712	0.1055	737424	keystroke_o	o	n/a
368.847	0.135	737694	keystroke_s	s	n/a
368.9525	0.105	737905	keystroke_t	t	n/a
369.0425	0.0895	738085	keystroke_Key.space	Key.space	n/a
369.163	0.1195	738326	keystroke_p	p	n/a
369.358	0.045	738716	keystroke_r	r	n/a
369.433	0.1195	738866	keystroke_o	o	n/a
369.568	0.089	739136	keystroke_b	b	n/a
369.7025	0.135	739405	keystroke_l	l	n/a
369.8225	0.15	739645	keystroke_e	e	n/a
369.9725	0.12	739945	keystroke_m	m	n/a
370.1075	0.105	740215	keystroke_s	s	n/a
370.1975	0.135	740395	keystroke_Key.space	Key.space	n/a
370.3475	0.105	740695	keystroke_c	c	n/a
370.4225	0.0755	740845	keystroke_o	o	n/a
370.5125	0.15	741025	keystroke_n	n	n/a
371.157	0.1355	742314	keystroke_c	c	n/a
371.4275	0.15	742855	keystroke_e	e	n/a
371.5025	0.15	743005	keystroke_r	r	n/a
373.2575	0.12	746515	keystroke_n	n	n/a
373.5275	0.1205	747055	keystroke_i	i	n/a
373.6325	0.136	747265	keystroke_n	n	n/a
373.7375	0.135	747475	keystroke_g	g	n/a
373.9025	0.105	747805	keystroke_Key.enter	Key.enter	n/a
374.0125	6.1465	748025	prompt	n/a	gang protecting tanks sometimes\n
376.4545	0.013	752909	keystroke_g	g	n/a
376.5125	0.135	753025	keystroke_a	a	n/a
376.6175	0.165	753235	keystroke_n	n	n/a
376.7525	0.1645	753505	keystroke_g	g	n/a
377.007	0.1355	754014	keystroke_Key.space	Key.space	n/a
377.2775	0.09	754555	keystroke_p	p	n/a
377.3825	0.0605	754765	keystroke_r	r	n/a
377.473	0.1345	754946	keystroke_o	o	n/a
377.6375	0.18	755275	keystroke_t	t	n/a
377.7725	0.105	755545	keystroke_e	e	n/a
378.0275	0.09	756055	keystroke_c	c	n/a
378.2225	0.075	756445	keystroke_t	t	n/a
378.3125	0.09	756625	keystroke_i	i	n/a
378.4025	0.1355	756805	keystroke_n	n	n/a
378.4925	0.09	756985	keystroke_g	g	n/a
378.6275	0.15	757255	keystroke_Key.space	Key.space	n/a
378.763	0.0895	757526	keystroke_t	t	n/a
378.853	0.1495	757706	keystroke_a	a	n/a
378.9425	0.1495	757885	keystroke_n	n	n/a
379.047	0.151	758094	keystroke_k	k	n/a
379.138	0.089	758276	keystroke_s	s	n/a
379.2575	0.12	758515	keystroke_Key.space	Key.space	n/a
379.3475	0.15	758695	keystroke_s	s	n/a
379.4075	0.105	758815	keystroke_o	o	n/a
379.5125	0.135	759025	keystroke_m	m	n/a
379.5575	0.09	759115	keystroke_e	e	n/a
379.678	0.0895	759356	keystroke_t	t	n/a
379.7525	0.105	759505	keystroke_i	i	n/a
379.843	0.135	759686	keystroke_m	m	n/a
379.8875	0.1505	759775	keystroke_e	e	n/a
379.978	0.12	759956	keystroke_s	s	n/a
380.052	0.105	760104	keystroke_Key.enter	Key.enter	n/a
380.1635	5.365	760327	prompt	n/a	excess html views ebony\n
380.908	0.0735	761816	keystroke_e	e	n/a
381.193	0.0885	762386	keystroke_x	x	n/a
381.462	0.075	762924	keystroke_c	c	n/a
381.657	0.15	763314	keystroke_e	e	n/a
381.748	0.1045	763496	keystroke_s	s	n/a
381.958	0.1345	763916	keystroke_s	s	n/a
382.062	0.09	764124	keystroke_Key.space	Key.space	n/a
382.212	0.12	764424	keystroke_h	h	n/a
382.287	0.091	764574	keystroke_t	t	n/a
382.497	0.1505	764994	keystroke_m	m	n/a
382.737	0.165	765474	keystroke_l	l	n/a
382.9925	0.135	765985	keystroke_Key.space	Key.space	n/a
383.2475	0.075	766495	keystroke_v	v	n/a
383.3075	0.105	766615	keystroke_i	i	n/a
383.3975	0.165	766795	keystroke_e	e	n/a
383.5175	0.135	767035	keystroke_w	w	n/a
383.7575	0.165	767515	keystroke_s	s	n/a
383.9375	0.12	767875	keystroke_Key.space	Key.space	n/a
384.4475	0.09	768895	keystroke_e	e	n/a
384.6275	0.09	769255	keystroke_b	b	n/a
384.718	0.0445	769436	keystroke_o	o	n/a
385.0025	0.09	770005	keystroke_n	n	n/a
385.2575	0.0295	770515	keystroke_y	y	n/a
385.467	0.0605	770934	keystroke_Key.enter	Key.enter	n/a
385.5315	4.8725	771063	prompt	n/a	reel relative fish suppose\n
386.1725	0.15	772345	keystroke_r	r	n/a
386.2925	0.09	772585	keystroke_e	e	n/a
386.4575	0.119	772915	keystroke_e	e	n/a
386.5925	0.135	773185	keystroke_l	l	n/a
386.7715	0.1355	773543	keystroke_Key.space	Key.space	n/a
386.8775	0.15	773755	keystroke_r	r	n/a
386.9665	0.1215	773933	keystroke_e	e	n/a
387.2375	0.1505	774475	keystroke_l	l	n/a
387.7775	0.1655	775555	keystroke_a	a	n/a
388.002	0.075	776004	keystroke_t	t	n/a
388.122	0.12	776244	keystroke_i	i	n/a
388.213	0.12	776426	keystroke_v	v	n/a
388.348	0.044	776696	keystroke_e	e	n/a
388.422	0.1355	776844	keystroke_Key.space	Key.space	n/a
388.5725	0.09	777145	keystroke_f	f	n/a
388.6925	0.15	777385	keystroke_i	i	n/a
388.813	0.1195	777626	keystroke_s	s	n/a
388.918	0.1195	777836	keystroke_h	h	n/a
389.097	0.1355	778194	keystroke_Key.space	Key.space	n/a
389.203	0.1495	778406	keystroke_s	s	n/a
389.293	0.1045	778586	keystroke_u	u	n/a
389.4125	0.09	778825	keystroke_p	p	n/a
389.608	0.12	779216	keystroke_p	p	n/a
389.9075	0.135	779815	keystroke_o	o	n/a
389.9825	0.135	779965	keystroke_s	s	n/a
390.0725	0.1205	780145	keystroke_e	e	n/a
390.223	0.135	780446	keystroke_s	s	n/a
390.3725	0.03	780745	keystroke_Key.enter	Key.enter	n/a
390.409	7.315	780818	prompt	n/a	artist actual equality joel\n
391.407	0.15	782814	keystroke_a	a	n/a
391.542	0.091	783084	keystroke_r	r	n/a
391.7375	0.06	783475	keystroke_t	t	n/a
391.8125	0.0895	783625	keystroke_i	i	n/a
392.427	0.0755	784854	keystroke_Key.backspace	Key.backspace	n/a
392.6225	0.06	785245	keystroke_Key.backspace	Key.backspace	n/a
393.2675	0.105	786535	keystroke_t	t	n/a
393.6125	0.135	787225	keystroke_i	i	n/a
393.7325	0.135	787465	keystroke_s	s	n/a
393.8375	0.135	787675	keystroke_t	t	n/a
393.9875	0.15	787975	keystroke_Key.space	Key.space	n/a
394.1525	0.075	788305	keystroke_a	a	n/a
394.3325	0.105	788665	keystroke_c	c	n/a
394.4825	0.1055	788965	keystroke_t	t	n/a
394.5275	0.1205	789055	keystroke_u	u	n/a
394.6775	0.1645	789355	keystroke_a	a	n/a
394.7525	0.1045	789505	keystroke_l	l	n/a
394.932	0.1505	789864	keystroke_Key.space	Key.space	n/a
395.0975	0.06	790195	keystroke_e	e	n/a
395.262	0.106	790524	keystroke_e	e	n/a
395.742	0.0755	791484	keystroke_Key.backspace	Key.backspace	n/a
396.0725	0.1205	792145	keystroke_q	q	n/a
396.2075	0.15	792415	keystroke_u	u	n/a
396.3875	0.15	792775	keystroke_a	a	n/a
396.4925	0.1505	792985	keystroke_l	l	n/a
396.612	0.12	793224	keystroke_i	i	n/a
396.718	0.119	793436	keystroke_t	t	n/a
396.852	0.09	793704	keystroke_y	y	n/a
397.0625	0.12	794125	keystroke_Key.space	Key.space	n/a
397.1525	0.105	794305	keystroke_j	j	n/a
397.2425	0.075	794485	keystroke_o	o	n/a
397.333	0.1345	794666	keystroke_e	e	n/a
397.4525	0.1355	794905	keystroke_l	l	n/a
397.6775	0.045	795355	keystroke_Key.enter	Key.enter	n/a
397.7285	6.101	795457	prompt	n/a	eugene advantage state arrive\n
398.443	0.089	796886	keystroke_e	e	n/a
398.6525	0.1345	797305	keystroke_u	u	n/a
398.863	0.12	797726	keystroke_g	g	n/a
399.102	0.1205	798204	keystroke_e	e	n/a
399.2825	0.15	798565	keystroke_n	n	n/a
399.387	0.1355	798774	keystroke_e	e	n/a
399.642	0.1505	799284	keystroke_Key.space	Key.space	n/a
399.8825	0.105	799765	keystroke_d	d	n/a
400.3475	0.0605	800695	keystroke_Key.backspace	Key.backspace	n/a
400.5275	0.195	801055	keystroke_a	a	n/a
400.6475	0.1205	801295	keystroke_d	d	n/a
401.0375	0.135	802075	keystroke_v	v	n/a
401.1875	0.1805	802375	keystroke_a	a	n/a
401.3225	0.1205	802645	keystroke_n	n	n/a
401.532	0.09	803064	keystroke_t	t	n/a
401.637	0.1805	803274	keystroke_a	a	n/a
401.772	0.165	803544	keystroke_g	g	n/a
401.892	0.1205	803784	keystroke_e	e	n/a
401.9975	0.2245	803995	keystroke_Key.space	Key.space	n/a
402.177	0.1355	804354	keystroke_s	s	n/a
402.3275	0.0905	804655	keystroke_t	t	n/a
402.403	0.1645	804806	keystroke_a	a	n/a
402.507	0.15	805014	keystroke_t	t	n/a
402.612	0.1505	805224	keystroke_e	e	n/a
402.7925	0.1195	805585	keystroke_Key.space	Key.space	n/a
402.958	0.1645	805916	keystroke_a	a	n/a
403.1075	0.09	806215	keystroke_r	r	n/a
403.2875	0.0905	806575	keystroke_r	r	n/a
403.4675	0.15	806935	keystroke_i	i	n/a
403.5425	0.105	807085	keystroke_v	v	n/a
403.6625	0.06	807325	keystroke_e	e	n/a
403.7375	0.0895	807475	keystroke_Key.enter	Key.enter	n/a
403.8335	9.205	807667	prompt	n/a	unlimited sharp rebate purpose\n
404.6525	0.075	809305	keystroke_u	u	n/a
404.9525	0.135	809905	keystroke_n	n	n/a
405.387	0.1955	810774	keystroke_l	l	n/a
405.5515	0.091	811103	keystroke_i	i	n/a
405.7165	0.2265	811433	keystroke_m	m	n/a
407.5025	0.18	815005	keystroke_i	i	n/a
407.6975	0.15	815395	keystroke_t	t	n/a
407.8175	0.105	815635	keystroke_e	e	n/a
408.0725	0.09	816145	keystroke_d	d	n/a
408.1325	0.12	816265	keystroke_Key.space	Key.space	n/a
408.2525	0.1355	816505	keystroke_s	s	n/a
408.3425	0.1355	816685	keystroke_h	h	n/a
408.462	0.12	816924	keystroke_a	a	n/a
408.5375	0.15	817075	keystroke_r	r	n/a
408.703	0.134	817406	keystroke_k	k	n/a
409.0025	0.0745	818005	keystroke_Key.space	Key.space	n/a
409.3175	0.0595	818635	keystroke_Key.backspace	Key.backspace	n/a
409.467	0.075	818934	keystroke_Key.backspace	Key.backspace	n/a
409.7375	0.12	819475	keystroke_p	p	n/a
409.9925	0.15	819985	keystroke_Key.space	Key.space	n/a
410.1725	0.1495	820345	keystroke_r	r	n/a
410.277	0.135	820554	keystroke_e	e	n/a
410.548	0.104	821096	keystroke_b	b	n/a
410.683	0.164	821366	keystroke_a	a	n/a
410.803	0.1495	821606	keystroke_t	t	n/a
410.8925	0.1345	821785	keystroke_e	e	n/a
411.042	0.0755	822084	keystroke_Key.space	Key.space	n/a
411.162	0.166	822324	keystroke_p	p	n/a
411.2975	0.1045	822595	keystroke_u	u	n/a
411.3425	0.1205	822685	keystroke_r	r	n/a
411.492	0.1655	822984	keystroke_p	p	n/a
411.7025	0.15	823405	keystroke_s	s	n/a
412.3925	0.045	824785	keystroke_Key.backspace	Key.backspace	n/a
412.6175	0.105	825235	keystroke_o	o	n/a
412.7075	0.135	825415	keystroke_s	s	n/a
412.7825	0.12	825565	keystroke_e	e	n/a
412.9475	0.09	825895	keystroke_Key.enter	Key.enter	n/a
413.0425	7.2265	826085	prompt	n/a	casino dean rocky authors\n
413.6525	0.12	827305	keystroke_c	c	n/a
413.7575	0.165	827515	keystroke_a	a	n/a
413.9675	0.195	827935	keystroke_s	s	n/a
414.1175	0.105	828235	keystroke_i	i	n/a
414.2225	0.15	828445	keystroke_n	n	n/a
414.3575	0.135	828715	keystroke_a	a	n/a
414.5525	0.105	829105	keystroke_Key.space	Key.space	n/a
415.107	0.06	830214	keystroke_Key.backspace	Key.backspace	n/a
415.2725	0.075	830545	keystroke_Key.backspace	Key.backspace	n/a
415.5275	0.09	831055	keystroke_o	o	n/a
415.6925	0.1495	831385	keystroke_Key.space	Key.space	n/a
416.172	0.166	832344	keystroke_d	d	n/a
416.443	0.134	832886	keystroke_e	e	n/a
416.517	0.195	833034	keystroke_a	a	n/a
416.622	0.121	833244	keystroke_n	n	n/a
416.847	0.15	833694	keystroke_Key.space	Key.space	n/a
417.2075	0.105	834415	keystroke_r	r	n/a
417.2975	0.09	834595	keystroke_o	o	n/a
417.4325	0.09	834865	keystroke_c	c	n/a
417.4625	0.135	834925	keystroke_k	k	n/a
417.6875	0.03	835375	keystroke_i	i	n/a
417.7025	0.09	835405	keystroke_y	y	n/a
418.602	0.06	837204	keystroke_Key.backspace	Key.backspace	n/a
418.7525	0.0595	837505	keystroke_Key.backspace	Key.backspace	n/a
418.9925	0.105	837985	keystroke_y	y	n/a
419.2175	0.12	838435	keystroke_Key.space	Key.space	n/a
419.338	0.1795	838676	keystroke_a	a	n/a
419.4125	0.09	838825	keystroke_u	u	n/a
419.6225	0.1045	839245	keystroke_t	t	n/a
419.6525	0.105	839305	keystroke_h	h	n/a
419.802	0.1205	839604	keystroke_o	o	n/a
419.907	0.195	839814	keystroke_r	r	n/a
420.0575	0.1345	840115	keystroke_s	s	n/a
420.207	0.06	840414	keystroke_Key.enter	Key.enter	n/a
420.273	6.4305	840546	prompt	n/a	hungary slip receptors infectious\n
421.1225	0.075	842245	keystroke_h	h	n/a
421.317	0.075	842634	keystroke_u	u	n/a
421.527	0.105	843054	keystroke_n	n	n/a
421.633	0.0745	843266	keystroke_g	g	n/a
421.843	0.209	843686	keystroke_a	a	n/a
422.022	0.135	844044	keystroke_r	r	n/a
422.1425	0.09	844285	keystroke_y	y	n/a
422.352	0.135	844704	keystroke_Key.space	Key.space	n/a
422.488	0.1495	844976	keystroke_s	s	n/a
422.502	0.1655	845004	keystroke_l	l	n/a
422.6225	0.12	845245	keystroke_i	i	n/a
422.7575	0.105	845515	keystroke_p	p	n/a
422.9525	0.135	845905	keystroke_Key.space	Key.space	n/a
423.102	0.1355	846204	keystroke_r	r	n/a
423.2075	0.12	846415	keystroke_e	e	n/a
423.4925	0.0755	846985	keystroke_c	c	n/a
423.732	0.151	847464	keystroke_e	e	n/a
424.0175	0.0905	848035	keystroke_p	p	n/a
424.1525	0.1045	848305	keystroke_t	t	n/a
424.242	0.1355	848484	keystroke_o	o	n/a
424.3925	0.1195	848785	keystroke_r	r	n/a
424.707	0.1505	849414	keystroke_s	s	n/a
424.8575	0.1345	849715	keystroke_Key.space	Key.space	n/a
425.2325	0.075	850465	keystroke_i	i	n/a
425.323	0.15	850646	keystroke_n	n	n/a
425.3965	0.15	850793	keystroke_f	f	n/a
425.5325	0.0905	851065	keystroke_e	e	n/a
425.8175	0.075	851635	keystroke_c	c	n/a
426.0425	0.105	852085	keystroke_t	t	n/a
426.1625	0.105	852325	keystroke_i	i	n/a
426.2375	0.135	852475	keystroke_o	o	n/a
426.3275	0.105	852655	keystroke_u	u	n/a
426.403	0.12	852806	keystroke_s	s	n/a
426.6425	0.0595	853285	keystroke_Key.enter	Key.enter	n/a
426.707	7.437	853414	prompt	n/a	innovation movie product electric\n
427.348	0.1045	854696	keystroke_i	i	n/a
427.497	0.09	854994	keystroke_n	n	n/a
427.677	0.09	855354	keystroke_n	n	n/a
427.827	0.1055	855654	keystroke_o	o	n/a
428.1125	0.1055	856225	keystroke_v	v	n/a
428.292	0.121	856584	keystroke_a	a	n/a
428.3975	0.09	856795	keystroke_t	t	n/a
428.4725	0.0895	856945	keystroke_i	i	n/a
428.547	0.12	857094	keystroke_o	o	n/a
428.653	0.1045	857306	keystroke_n	n	n/a
428.8325	0.089	857665	keystroke_Key.space	Key.space	n/a
429.3425	0.105	858685	keystroke_m	m	n/a
429.4625	0.075	858925	keystroke_o	o	n/a
429.5225	0.135	859045	keystroke_v	v	n/a
429.5825	0.03	859165	keystroke_k	k	n/a
429.6875	0.09	859375	keystroke_i	i	n/a
429.8375	0.075	859675	keystroke_e	e	n/a
430.1665	0.0605	860333	keystroke_Key.backspace	Key.backspace	n/a
430.3325	0.0445	860665	keystroke_Key.backspace	Key.backspace	n/a
430.4825	0.075	860965	keystroke_Key.backspace	Key.backspace	n/a
430.887	0.105	861774	keystroke_i	i	n/a
430.963	0.089	861926	keystroke_e	e	n/a
431.0975	0.105	862195	keystroke_Key.space	Key.space	n/a
431.2325	0.105	862465	keystroke_p	p	n/a
431.3825	0.075	862765	keystroke_r	r	n/a
431.4575	0.105	862915	keystroke_o	o	n/a
431.5775	0.12	863155	keystroke_d	d	n/a
431.7425	0.1205	863485	keystroke_u	u	n/a
431.8475	0.12	863695	keystroke_c	c	n/a
432.2525	0.105	864505	keystroke_t	t	n/a
432.4625	0.1205	864925	keystroke_Key.space	Key.space	n/a
432.8825	0.09	865765	keystroke_e	e	n/a
432.9875	0.1345	865975	keystroke_l	l	n/a
433.0775	0.09	866155	keystroke_e	e	n/a
433.3025	0.12	866605	keystroke_c	c	n/a
433.4975	0.076	866995	keystroke_t	t	n/a
433.6925	0.09	867385	keystroke_r	r	n/a
433.813	0.15	867626	keystroke_i	i	n/a
433.903	0.1045	867806	keystroke_c	c	n/a
434.0825	0.06	868165	keystroke_Key.enter	Key.enter	n/a
434.1515	5.9325	868303	prompt	n/a	actress repair refined chambers\n
434.803	0.135	869606	keystroke_a	a	n/a
434.997	0.1805	869994	keystroke_c	c	n/a
435.5075	0.135	871015	keystroke_t	t	n/a
435.7925	0.15	871585	keystroke_r	r	n/a
435.8825	0.1655	871765	keystroke_e	e	n/a
435.9875	0.075	871975	keystroke_s	s	n/a
436.1825	0.1205	872365	keystroke_s	s	n/a
436.362	0.18	872724	keystroke_Key.space	Key.space	n/a
436.527	0.105	873054	keystroke_r	r	n/a
436.587	0.121	873174	keystroke_e	e	n/a
436.7675	0.1345	873535	keystroke_p	p	n/a
436.962	0.1805	873924	keystroke_a	a	n/a
437.322	0.1505	874644	keystroke_i	i	n/a
437.503	0.1045	875006	keystroke_r	r	n/a
437.7125	0.135	875425	keystroke_Key.space	Key.space	n/a
438.0575	0.12	876115	keystroke_r	r	n/a
438.1625	0.105	876325	keystroke_e	e	n/a
438.3575	0.105	876715	keystroke_f	f	n/a
438.4475	0.1505	876895	keystroke_i	i	n/a
438.612	0.15	877224	keystroke_n	n	n/a
438.657	0.0755	877314	keystroke_e	e	n/a
438.8825	0.06	877765	keystroke_d	d	n/a
439.0325	0.105	878065	keystroke_Key.space	Key.space	n/a
439.1075	0.135	878215	keystroke_c	c	n/a
439.228	0.075	878456	keystroke_h	h	n/a
439.2725	0.195	878545	keystroke_a	a	n/a
439.4375	0.18	878875	keystroke_m	m	n/a
439.5575	0.075	879115	keystroke_b	b	n/a
439.6775	0.2395	879355	keystroke_e	e	n/a
439.7675	0.1345	879535	keystroke_r	r	n/a
439.8575	0.15	879715	keystroke_s	s	n/a
439.992	0.09	879984	keystroke_Key.enter	Key.enter	n/a
440.0875	7.6175	880175	prompt	n/a	guaranteed above accessories angola\n
440.848	0.1195	881696	keystroke_g	g	n/a
440.9525	0.135	881905	keystroke_u	u	n/a
441.117	0.165	882234	keystroke_a	a	n/a
441.253	0.104	882506	keystroke_r	r	n/a
442.0925	0.12	884185	keystroke_a	a	n/a
442.182	0.1355	884364	keystroke_n	n	n/a
442.3925	0.1495	884785	keystroke_t	t	n/a
442.513	0.104	885026	keystroke_e	e	n/a
442.6925	0.0895	885385	keystroke_e	e	n/a
442.903	0.1045	885806	keystroke_d	d	n/a
443.0375	0.165	886075	keystroke_Key.space	Key.space	n/a
443.1575	0.135	886315	keystroke_a	a	n/a
443.338	0.0895	886676	keystroke_b	b	n/a
443.5025	0.1205	887005	keystroke_o	o	n/a
443.637	0.106	887274	keystroke_v	v	n/a
443.758	0.149	887516	keystroke_e	e	n/a
443.908	0.134	887816	keystroke_Key.space	Key.space	n/a
443.9975	0.1355	887995	keystroke_a	a	n/a
444.222	0.061	888444	keystroke_c	c	n/a
444.4175	0.135	888835	keystroke_c	c	n/a
444.7475	0.03	889495	keystroke_c	c	n/a
445.1075	0.0895	890215	keystroke_Key.backspace	Key.backspace	n/a
445.3925	0.165	890785	keystroke_e	e	n/a
445.483	0.1045	890966	keystroke_s	s	n/a
445.6915	0.1215	891383	keystroke_s	s	n/a
445.8275	0.0905	891655	keystroke_o	o	n/a
445.9325	0.12	891865	keystroke_r	r	n/a
446.0825	0.135	892165	keystroke_i	i	n/a
446.173	0.134	892346	keystroke_e	e	n/a
446.262	0.1205	892524	keystroke_s	s	n/a
446.3675	0.1795	892735	keystroke_Key.space	Key.space	n/a
446.7875	0.165	893575	keystroke_a	a	n/a
446.8925	0.1055	893785	keystroke_n	n	n/a
447.013	0.1195	894026	keystroke_g	g	n/a
447.1175	0.09	894235	keystroke_o	o	n/a
447.3425	0.1205	894685	keystroke_l	l	n/a
447.4475	0.135	894895	keystroke_a	a	n/a
447.6125	0.09	895225	keystroke_Key.enter	Key.enter	n/a
447.7075	6.597	895415	prompt	n/a	compromise richardson allah well\n
448.4225	0.1205	896845	keystroke_c	c	n/a
448.498	0.0895	896996	keystroke_o	o	n/a
448.6175	0.135	897235	keystroke_m	m	n/a
448.843	0.1045	897686	keystroke_p	p	n/a
449.1125	0.0745	898225	keystroke_r	r	n/a
449.233	0.074	898466	keystroke_o	o	n/a
449.473	0.1345	898946	keystroke_m	m	n/a
449.6675	0.1355	899335	keystroke_i	i	n/a
449.8035	0.164	899607	keystroke_s	s	n/a
449.9225	0.1505	899845	keystroke_e	e	n/a
450.0875	0.135	900175	keystroke_Key.space	Key.space	n/a
450.3125	0.105	900625	keystroke_r	r	n/a
450.4625	0.15	900925	keystroke_i	i	n/a
450.628	0.1195	901256	keystroke_c	c	n/a
450.763	0.1195	901526	keystroke_h	h	n/a
450.928	0.1495	901856	keystroke_a	a	n/a
451.033	0.1345	902066	keystroke_r	r	n/a
451.1375	0.18	902275	keystroke_d	d	n/a
452.0375	0.15	904075	keystroke_s	s	n/a
452.1725	0.09	904345	keystroke_o	o	n/a
452.3075	0.075	904615	keystroke_n	n	n/a
452.4875	0.135	904975	keystroke_Key.space	Key.space	n/a
452.6825	0.1205	905365	keystroke_a	a	n/a
452.7575	0.075	905515	keystroke_l	l	n/a
452.9375	0.1355	905875	keystroke_l	l	n/a
453.0875	0.18	906175	keystroke_a	a	n/a
453.2225	0.105	906445	keystroke_h	h	n/a
