onset	duration	sample	value	key	prompt_text
3.8805	11.44	7761	prompt	n/a	the quick brown fox jumps over a lazy dog\n
5.3555	0.001	10711	keystroke_t	t	n/a
5.3565	0.0715	10713	keystroke_h	h	n/a
5.473	0.06	10946	keystroke_e	e	n/a
5.623	0.06	11246	keystroke_Key.space	Key.space	n/a
6.148	0.09	12296	keystroke_q	q	n/a
6.268	0.06	12536	keystroke_u	u	n/a
6.4485	0.045	12897	keystroke_i	i	n/a
6.5835	0.06	13167	keystroke_c	c	n/a
6.6585	0.06	13317	keystroke_k	k	n/a
6.8085	0.03	13617	keystroke_Key.space	Key.space	n/a
6.8985	0.09	13797	keystroke_b	b	n/a
7.1445	0.0585	14289	keystroke_r	r	n/a
7.293	0.045	14586	keystroke_o	o	n/a
7.413	0.075	14826	keystroke_w	w	n/a
7.8125	0.077	15625	keystroke_n	n	n/a
8.025	0.045	16050	keystroke_Key.space	Key.space	n/a
8.2195	0.075	16439	keystroke_f	f	n/a
8.3245	0.075	16649	keystroke_o	o	n/a
8.4295	0.075	16859	keystroke_x	x	n/a
8.5645	0.0605	17129	keystroke_Key.space	Key.space	n/a
8.7615	0.06	17523	keystroke_j	j	n/a
8.972	0.0455	17944	keystroke_u	u	n/a
9.1525	0.0595	18305	keystroke_m	m	n/a
9.272	0.0745	18544	keystroke_p	p	n/a
9.5115	0.075	19023	keystroke_s	s	n/a
9.7055	0.045	19411	keystroke_Key.space	Key.space	n/a
10.1715	0.061	20343	keystroke_o	o	n/a
10.2625	0.059	20525	keystroke_v	v	n/a
10.4115	0.21	20823	keystroke_e	e	n/a
10.5315	0.106	21063	keystroke_r	r	n/a
10.7115	0.091	21423	keystroke_Key.space	Key.space	n/a
10.847	0.09	21694	keystroke_a	a	n/a
10.967	0.06	21934	keystroke_Key.space	Key.space	n/a
11.192	0.06	22384	keystroke_l	l	n/a
11.267	0.075	22534	keystroke_a	a	n/a
11.447	0.09	22894	keystroke_z	z	n/a
11.672	0.045	23344	keystroke_t	t	n/a
11.8065	0.06	23613	keystroke_Key.space	Key.space	n/a
12.0015	0.075	24003	keystroke_d	d	n/a
12.1215	0.06	24243	keystroke_o	o	n/a
12.257	0.075	24514	keystroke_g	g	n/a
12.752	0.075	25504	keystroke_Key.backspace	Key.backspace	n/a
12.9315	0.0755	25863	keystroke_Key.backspace	Key.backspace	n/a
13.097	0.06	26194	keystroke_Key.backspace	Key.backspace	n/a
13.2625	0.044	26525	keystroke_Key.backspace	Key.backspace	n/a
13.5915	0.075	27183	keystroke_Key.backspace	Key.backspace	n/a
13.9225	0.044	27845	keystroke_y	y	n/a
14.0565	0.045	28113	keystroke_Key.space	Key.space	n/a
14.432	0.0615	28864	keystroke_d	d	n/a
14.5225	0.06	29045	keystroke_o	o	n/a
14.673	0.06	29346	keystroke_g	g	n/a
15.2575	0.06	30515	keystroke_Key.enter	Key.enter	n/a
15.324	6.16	30648	prompt	n/a	edited dating affairs apply\n
16.172	0.075	32344	keystroke_e	e	n/a
16.3975	0.0745	32795	keystroke_d	d	n/a
16.517	0.075	33034	keystroke_i	i	n/a
16.667	0.0605	33334	keystroke_t	t	n/a
16.8925	0.06	33785	keystroke_e	e	n/a
17.0725	0.075	34145	keystroke_d	d	n/a
17.327	0.06	34654	keystroke_Key.space	Key.space	n/a
17.6275	0.075	35255	keystroke_d	d	n/a
17.7625	0.12	35525	keystroke_a	a	n/a
17.8975	0.06	35795	keystroke_t	t	n/a
18.033	0.0595	36066	keystroke_i	i	n/a
18.2575	0.015	36515	keystroke_n	n	n/a
18.2875	0.045	36575	keystroke_g	g	n/a
18.3775	0.06	36755	keystroke_Key.space	Key.space	n/a
18.5125	0.075	37025	keystroke_a	a	n/a
18.708	0.044	37416	keystroke_f	f	n/a
18.858	0.059	37716	keystroke_f	f	n/a
19.5785	0.1035	39157	keystroke_a	a	n/a
19.757	0.0605	39514	keystroke_i	i	n/a
19.9085	0.044	39817	keystroke_r	r	n/a
20.0575	0.09	40115	keystroke_s	s	n/a
20.2075	0.06	40415	keystroke_Key.space	Key.space	n/a
20.508	0.0595	41016	keystroke_a	a	n/a
20.6125	0.09	41225	keystroke_p	p	n/a
20.8075	0.03	41615	keystroke_p	p	n/a
20.9725	0.075	41945	keystroke_l	l	n/a
21.0625	0.075	42125	keystroke_y	y	n/a
21.423	0.06	42846	keystroke_Key.enter	Key.enter	n/a
21.487	8.353	42974	prompt	n/a	grey phenomenon caring feof\n
22.4285	0.075	44857	keystroke_g	g	n/a
22.6985	0.075	45397	keystroke_r	r	n/a
22.7585	0.09	45517	keystroke_e	e	n/a
22.983	0.06	45966	keystroke_y	y	n/a
23.448	0.045	46896	keystroke_Key.space	Key.space	n/a
23.688	0.075	47376	keystroke_p	p	n/a
23.898	0.06	47796	keystroke_h	h	n/a
24.063	0.06	48126	keystroke_e	e	n/a
24.288	0.06	48576	keystroke_n	n	n/a
24.798	0.06	49596	keystroke_o	o	n/a
25.5185	0.06	51037	keystroke_m	m	n/a
25.7135	0.075	51427	keystroke_e	e	n/a
25.893	0.075	51786	keystroke_n	n	n/a
26.148	0.075	52296	keystroke_o	o	n/a
26.343	0.075	52686	keystroke_n	n	n/a
26.5685	0.045	53137	keystroke_Key.space	Key.space	n/a
26.7785	0.119	53557	keystroke_c	c	n/a
26.8825	0.0905	53765	keystroke_a	a	n/a
27.048	0.09	54096	keystroke_r	r	n/a
27.168	0.06	54336	keystroke_i	i	n/a
27.318	0.0745	54636	keystroke_n	n	n/a
27.4235	0.06	54847	keystroke_g	g	n/a
27.528	0.06	55056	keystroke_Key.space	Key.space	n/a
28.233	0.075	56466	keystroke_f	f	n/a
28.458	0.06	56916	keystroke_e	e	n/a
28.863	0.09	57726	keystroke_o	o	n/a
29.088	0.075	58176	keystroke_f	f	n/a
29.7635	0.075	59527	keystroke_Key.enter	Key.enter	n/a
29.844	7.2255	59688	prompt	n/a	model vote dayton brooklyn\n
30.5735	0.075	61147	keystroke_m	m	n/a
30.903	0.06	61806	keystroke_o	o	n/a
31.083	0.06	62166	keystroke_d	d	n/a
31.263	0.045	62526	keystroke_e	e	n/a
31.368	0.06	62736	keystroke_l	l	n/a
31.548	0.06	63096	keystroke_Key.space	Key.space	n/a
31.743	0.075	63486	keystroke_v	v	n/a
31.863	0.06	63726	keystroke_o	o	n/a
31.968	0.12	63936	keystroke_t	t	n/a
32.073	0.075	64146	keystroke_e	e	n/a
32.283	0.075	64566	keystroke_Key.space	Key.space	n/a
33.318	0.045	66636	keystroke_d	d	n/a
33.528	0.12	67056	keystroke_a	a	n/a
33.7075	0.03	67415	keystroke_y	y	n/a
34.083	0.045	68166	keystroke_o	o	n/a
34.518	0.06	69036	keystroke_Key.backspace	Key.backspace	n/a
34.609	0.06	69218	keystroke_t	t	n/a
34.728	0.0745	69456	keystroke_o	o	n/a
34.9225	0.061	69845	keystroke_n	n	n/a
35.1185	0.045	70237	keystroke_Key.space	Key.space	n/a
35.3575	0.075	70715	keystroke_b	b	n/a
35.5825	0.0595	71165	keystroke_r	r	n/a
35.702	0.06	71404	keystroke_o	o	n/a
35.8675	0.105	71735	keystroke_o	o	n/a
35.9575	0.06	71915	keystroke_k	k	n/a
36.1675	0.0755	72335	keystroke_l	l	n/a
36.3185	0.0745	72637	keystroke_y	y	n/a
36.438	0.075	72876	keystroke_n	n	n/a
37.008	0.06	74016	keystroke_Key.enter	Key.enter	n/a
37.0725	5.173	74145	prompt	n/a	half friday coaches mess\n
37.8035	0.045	75607	keystroke_h	h	n/a
37.8935	0.09	75787	keystroke_a	a	n/a
38.0285	0.075	76057	keystroke_l	l	n/a
38.1485	0.075	76297	keystroke_f	f	n/a
38.4935	0.075	76987	keystroke_Key.space	Key.space	n/a
38.8685	0.06	77737	keystroke_f	f	n/a
39.048	0.06	78096	keystroke_r	r	n/a
39.198	0.06	78396	keystroke_i	i	n/a
39.259	0.104	78518	keystroke_d	d	n/a
39.348	0.165	78696	keystroke_a	a	n/a
39.468	0.105	78936	keystroke_y	y	n/a
39.693	0.06	79386	keystroke_Key.space	Key.space	n/a
40.1135	0.105	80227	keystroke_c	c	n/a
40.2635	0.075	80527	keystroke_o	o	n/a
40.5935	0.075	81187	keystroke_a	a	n/a
40.7435	0.12	81487	keystroke_c	c	n/a
40.8785	0.06	81757	keystroke_h	h	n/a
41.0435	0.0605	82087	keystroke_e	e	n/a
41.224	0.09	82448	keystroke_s	s	n/a
41.3435	0.06	82687	keystroke_Key.space	Key.space	n/a
41.5385	0.06	83077	keystroke_m	m	n/a
41.5985	0.0605	83197	keystroke_e	e	n/a
41.794	0.0595	83588	keystroke_s	s	n/a
41.9585	0.06	83917	keystroke_s	s	n/a
42.1835	0.06	84367	keystroke_Key.enter	Key.enter	n/a
42.2485	6.597	84497	prompt	n/a	i treasure round shannon\n
43.009	0.06	86018	keystroke_l	l	n/a
43.369	0.03	86738	keystroke_Key.backspace	Key.backspace	n/a
43.5935	0.0605	87187	keystroke_i	i	n/a
43.804	0.06	87608	keystroke_Key.space	Key.space	n/a
44.599	0.06	89198	keystroke_t	t	n/a
45.0185	0.135	90037	keystroke_r	r	n/a
45.1085	0.12	90217	keystroke_e	e	n/a
45.3635	0.06	90727	keystroke_a	a	n/a
45.5585	0.09	91117	keystroke_s	s	n/a
45.7085	0.06	91417	keystroke_u	u	n/a
45.8435	0.1345	91687	keystroke_r	r	n/a
45.9335	0.0895	91867	keystroke_e	e	n/a
46.1735	0.045	92347	keystroke_Key.space	Key.space	n/a
46.6685	0.0605	93337	keystroke_r	r	n/a
46.759	0.045	93518	keystroke_o	o	n/a
46.879	0.045	93758	keystroke_u	u	n/a
47.044	0.09	94088	keystroke_n	n	n/a
47.149	0.075	94298	keystroke_d	d	n/a
47.254	0.045	94508	keystroke_Key.space	Key.space	n/a
47.569	0.075	95138	keystroke_s	s	n/a
47.689	0.06	95378	keystroke_h	h	n/a
47.9285	0.06	95857	keystroke_a	a	n/a
48.0785	0.06	96157	keystroke_n	n	n/a
48.229	0.045	96458	keystroke_n	n	n/a
48.379	0.06	96758	keystroke_o	o	n/a
48.544	0.06	97088	keystroke_n	n	n/a
48.799	0.045	97598	keystroke_Key.enter	Key.enter	n/a
48.849	12.0725	97698	prompt	n/a	contain receiver garage who'd've\n
49.609	0.105	99218	keystroke_c	c	n/a
49.8185	0.06	99637	keystroke_a	a	n/a
50.209	0.045	100418	keystroke_Key.backspace	Key.backspace	n/a
50.419	0.06	100838	keystroke_o	o	n/a
50.614	0.06	101228	keystroke_n	n	n/a
50.794	0.075	101588	keystroke_t	t	n/a
50.959	0.075	101918	keystroke_a	a	n/a
51.0495	0.059	102099	keystroke_i	i	n/a
51.2285	0.06	102457	keystroke_n	n	n/a
51.3935	0.045	102787	keystroke_Key.space	Key.space	n/a
51.799	0.105	103598	keystroke_r	r	n/a
51.874	0.075	103748	keystroke_e	e	n/a
52.084	0.09	104168	keystroke_c	c	n/a
52.249	0.075	104498	keystroke_e	e	n/a
52.444	0.045	104888	keystroke_i	i	n/a
52.594	0.075	105188	keystroke_v	v	n/a
52.8195	0.119	105639	keystroke_e	e	n/a
52.9095	0.074	105819	keystroke_r	r	n/a
53.0585	0.06	106117	keystroke_Key.space	Key.space	n/a
53.314	0.075	106628	keystroke_g	g	n/a
53.794	0.135	107588	keystroke_a	a	n/a
53.914	0.075	107828	keystroke_r	r	n/a
55.264	0.09	110528	keystroke_a	a	n/a
55.774	0.06	111548	keystroke_g	g	n/a
55.969	0.075	111938	keystroke_e	e	n/a
56.194	0.06	112388	keystroke_Key.space	Key.space	n/a
56.4045	0.045	112809	keystroke_w	w	n/a
57.4095	0.03	114819	keystroke_h	h	n/a
57.559	0.06	115118	keystroke_o	o	n/a
58.25	0.075	116500	keystroke_'	'	n/a
58.64	0.075	117280	keystroke_d	d	n/a
59.539	0.06	119078	keystroke_'	'	n/a
59.9445	0.09	119889	keystroke_v	v	n/a
60.1545	0.0605	120309	keystroke_e	e	n/a
60.845	0.0745	121690	keystroke_Key.enter	Key.enter	n/a
60.9325	9.3945	121865	prompt	n/a	saver directions coal photographic\n
61.6695	0.1805	123339	keystroke_s	s	n/a
61.834	0.121	123668	keystroke_a	a	n/a
61.939	0.106	123878	keystroke_v	v	n/a
62.18	0.1495	124360	keystroke_e	e	n/a
62.2845	0.105	124569	keystroke_r	r	n/a
62.4945	0.06	124989	keystroke_Key.space	Key.space	n/a
62.6445	0.075	125289	keystroke_d	d	n/a
62.78	0.075	125560	keystroke_i	i	n/a
62.885	0.1045	125770	keystroke_r	r	n/a
62.9745	0.105	125949	keystroke_e	e	n/a
63.1845	0.09	126369	keystroke_c	c	n/a
63.4095	0.045	126819	keystroke_t	t	n/a
63.4695	0.105	126939	keystroke_i	i	n/a
63.6495	0.09	127299	keystroke_n	n	n/a
63.8455	0.029	127691	keystroke_Key.space	Key.space	n/a
63.9645	0.0755	127929	keystroke_s	s	n/a
64.084	0.061	128168	keystroke_Key.space	Key.space	n/a
64.985	0.075	129970	keystroke_Key.backspace	Key.backspace	n/a
65.1495	0.075	130299	keystroke_Key.backspace	Key.backspace	n/a
65.3145	0.06	130629	keystroke_Key.backspace	Key.backspace	n/a
65.5095	0.0595	131019	keystroke_Key.backspace	Key.backspace	n/a
65.825	0.045	131650	keystroke_o	o	n/a
66.005	0.075	132010	keystroke_n	n	n/a
66.2	0.075	132400	keystroke_Key.space	Key.space	n/a
66.4845	0.09	132969	keystroke_c	c	n/a
66.6045	0.06	133209	keystroke_o	o	n/a
66.7695	0.075	133539	keystroke_a	a	n/a
66.8595	0.105	133719	keystroke_l	l	n/a
67.0545	0.06	134109	keystroke_Key.space	Key.space	n/a
67.3395	0.075	134679	keystroke_p	p	n/a
67.5795	0.09	135159	keystroke_h	h	n/a
68.1195	0.06	136239	keystroke_o	o	n/a
68.2545	0.06	136509	keystroke_t	t	n/a
68.3595	0.06	136719	keystroke_o	o	n/a
68.8095	0.075	137619	keystroke_g	g	n/a
69.005	0.1195	138010	keystroke_r	r	n/a
69.1395	0.0905	138279	keystroke_a	a	n/a
69.245	0.06	138490	keystroke_p	p	n/a
69.44	0.06	138880	keystroke_h	h	n/a
69.6795	0.06	139359	keystroke_i	i	n/a
69.8295	0.075	139659	keystroke_c	c	n/a
70.2495	0.075	140499	keystroke_Key.enter	Key.enter	n/a
70.3375	5.4635	140675	prompt	n/a	watt relative inbox cape\n
71.015	0.135	142030	keystroke_w	w	n/a
71.105	0.12	142210	keystroke_a	a	n/a
71.3295	0.06	142659	keystroke_t	t	n/a
71.5095	0.06	143019	keystroke_t	t	n/a
71.959	0.0315	143918	keystroke_Key.space	Key.space	n/a
72.1245	0.105	144249	keystroke_r	r	n/a
72.1995	0.09	144399	keystroke_e	e	n/a
72.6945	0.061	145389	keystroke_l	l	n/a
72.8455	0.119	145691	keystroke_a	a	n/a
72.9655	0.074	145931	keystroke_t	t	n/a
73.235	0.06	146470	keystroke_i	i	n/a
73.34	0.06	146680	keystroke_v	v	n/a
73.55	0.06	147100	keystroke_e	e	n/a
73.67	0.06	147340	keystroke_Key.space	Key.space	n/a
73.88	0.045	147760	keystroke_i	i	n/a
74.03	0.075	148060	keystroke_n	n	n/a
74.3	0.06	148600	keystroke_b	b	n/a
74.42	0.06	148840	keystroke_o	o	n/a
74.555	0.09	149110	keystroke_x	x	n/a
74.705	0.06	149410	keystroke_Key.space	Key.space	n/a
74.93	0.1345	149860	keystroke_c	c	n/a
75.0495	0.075	150099	keystroke_a	a	n/a
75.2295	0.06	150459	keystroke_p	p	n/a
75.3645	0.0755	150729	keystroke_e	e	n/a
75.7395	0.061	151479	keystroke_Key.enter	Key.enter	n/a
75.804	6.7325	151608	prompt	n/a	directed podcasts existed joins\n
76.4895	0.075	152979	keystroke_d	d	n/a
76.6395	0.06	153279	keystroke_i	i	n/a
76.7595	0.105	153519	keystroke_r	r	n/a
76.8345	0.09	153669	keystroke_e	e	n/a
77.0595	0.091	154119	keystroke_c	c	n/a
77.3	0.06	154600	keystroke_t	t	n/a
77.405	0.105	154810	keystroke_e	e	n/a
77.63	0.075	155260	keystroke_d	d	n/a
77.78	0.045	155560	keystroke_Key.space	Key.space	n/a
77.99	0.105	155980	keystroke_p	p	n/a
78.14	0.06	156280	keystroke_o	o	n/a
78.59	0.0895	157180	keystroke_d	d	n/a
78.9195	0.1355	157839	keystroke_c	c	n/a
79.07	0.165	158140	keystroke_a	a	n/a
79.19	0.18	158380	keystroke_s	s	n/a
79.355	0.12	158710	keystroke_t	t	n/a
79.64	0.075	159280	keystroke_s	s	n/a
79.7895	0.06	159579	keystroke_Key.space	Key.space	n/a
79.9845	0.06	159969	keystroke_e	e	n/a
80.2095	0.075	160419	keystroke_x	x	n/a
80.3745	0.0455	160749	keystroke_i	i	n/a
80.48	0.075	160960	keystroke_s	s	n/a
80.6	0.0895	161200	keystroke_t	t	n/a
80.7345	0.075	161469	keystroke_e	e	n/a
80.9595	0.06	161919	keystroke_d	d	n/a
81.0795	0.06	162159	keystroke_Key.space	Key.space	n/a
81.2595	0.045	162519	keystroke_j	j	n/a
81.395	0.075	162790	keystroke_o	o	n/a
81.53	0.0595	163060	keystroke_i	i	n/a
81.6795	0.075	163359	keystroke_n	n	n/a
81.8605	0.075	163721	keystroke_s	s	n/a
82.4905	0.045	164981	keystroke_Key.enter	Key.enter	n/a
82.5395	10.198	165079	prompt	n/a	procurement actor implemented equations\n
83.36	0.015	166720	keystroke_p	p	n/a
83.495	0.075	166990	keystroke_r	r	n/a
83.66	0.06	167320	keystroke_o	o	n/a
84.17	0.075	168340	keystroke_c	c	n/a
84.305	0.06	168610	keystroke_u	u	n/a
84.515	0.105	169030	keystroke_r	r	n/a
84.695	0.09	169390	keystroke_e	e	n/a
84.92	0.075	169840	keystroke_m	m	n/a
85.04	0.06	170080	keystroke_e	e	n/a
85.16	0.06	170320	keystroke_n	n	n/a
85.28	0.075	170560	keystroke_t	t	n/a
85.5045	0.03	171009	keystroke_Key.space	Key.space	n/a
85.6395	0.06	171279	keystroke_a	a	n/a
85.8345	0.06	171669	keystroke_c	c	n/a
86.1345	0.061	172269	keystroke_t	t	n/a
86.2545	0.076	172509	keystroke_o	o	n/a
86.4055	0.06	172811	keystroke_r	r	n/a
86.5105	0.06	173021	keystroke_Key.space	Key.space	n/a
86.7355	0.06	173471	keystroke_i	i	n/a
86.915	0.06	173830	keystroke_m	m	n/a
87.08	0.075	174160	keystroke_p	p	n/a
87.29	0.045	174580	keystroke_l	l	n/a
87.395	0.0595	174790	keystroke_e	e	n/a
87.4995	0.06	174999	keystroke_m	m	n/a
87.6345	0.06	175269	keystroke_e	e	n/a
87.7245	0.0605	175449	keystroke_n	n	n/a
87.83	0.075	175660	keystroke_t	t	n/a
87.995	0.091	175990	keystroke_e	e	n/a
88.205	0.075	176410	keystroke_d	d	n/a
88.385	0.06	176770	keystroke_Key.space	Key.space	n/a
89.075	0.075	178150	keystroke_r	r	n/a
89.615	0.09	179230	keystroke_q	q	n/a
90.0655	0.045	180131	keystroke_Key.backspace	Key.backspace	n/a
90.2155	0.06	180431	keystroke_Key.backspace	Key.backspace	n/a
90.3205	0.105	180641	keystroke_e	e	n/a
90.5905	0.09	181181	keystroke_q	q	n/a
91.31	0.075	182620	keystroke_u	u	n/a
91.535	0.09	183070	keystroke_a	a	n/a
91.745	0.0455	183490	keystroke_t	t	n/a
91.8805	0.12	183761	keystroke_i	i	n/a
91.9705	0.09	183941	keystroke_o	o	n/a
92.0605	0.09	184121	keystroke_n	n	n/a
92.2255	0.0595	184451	keystroke_s	s	n/a
92.676	0.06	185352	keystroke_Key.enter	Key.enter	n/a
92.7475	6.6795	185495	prompt	n/a	logic dates hewlett humanity\n
93.4855	0.075	186971	keystroke_l	l	n/a
93.6955	0.06	187391	keystroke_o	o	n/a
93.8005	0.06	187601	keystroke_g	g	n/a
93.9055	0.075	187811	keystroke_i	i	n/a
94.0555	0.1045	188111	keystroke_c	c	n/a
94.19	0.06	188380	keystroke_Key.space	Key.space	n/a
94.416	0.1045	188832	keystroke_d	d	n/a
94.5505	0.15	189101	keystroke_a	a	n/a
94.6855	0.165	189371	keystroke_t	t	n/a
94.8655	0.06	189731	keystroke_e	e	n/a
95.046	0.09	190092	keystroke_s	s	n/a
95.196	0.06	190392	keystroke_Key.space	Key.space	n/a
95.511	0.06	191022	keystroke_h	h	n/a
95.886	0.12	191772	keystroke_e	e	n/a
96.036	0.09	192072	keystroke_w	w	n/a
96.335	0.0755	192670	keystroke_l	l	n/a
96.4855	0.0755	192971	keystroke_e	e	n/a
96.8155	0.075	193631	keystroke_t	t	n/a
96.98	0.075	193960	keystroke_t	t	n/a
97.16	0.045	194320	keystroke_Key.space	Key.space	n/a
97.3405	0.045	194681	keystroke_h	h	n/a
97.5055	0.06	195011	keystroke_u	u	n/a
97.7155	0.06	195431	keystroke_m	m	n/a
97.8505	0.075	195701	keystroke_a	a	n/a
97.9555	0.045	195911	keystroke_n	n	n/a
98.2105	0.06	196421	keystroke_i	i	n/a
98.3155	0.06	196631	keystroke_t	t	n/a
98.5255	0.06	197051	keystroke_y	y	n/a
99.38	0.045	198760	keystroke_Key.enter	Key.enter	n/a
99.4295	10.978	198859	prompt	n/a	louisville hospitals cheat setup\n
100.295	0.06	200590	keystroke_l	l	n/a
100.49	0.091	200980	keystroke_o	o	n/a
100.6855	0.075	201371	keystroke_i	i	n/a
101.2405	0.0445	202481	keystroke_Key.backspace	Key.backspace	n/a
101.4355	0.06	202871	keystroke_u	u	n/a
101.6605	0.06	203321	keystroke_i	i	n/a
101.7955	0.075	203591	keystroke_s	s	n/a
102.1705	0.075	204341	keystroke_v	v	n/a
102.3055	0.06	204611	keystroke_i	i	n/a
102.5005	0.06	205001	keystroke_l	l	n/a
102.6655	0.045	205331	keystroke_l	l	n/a
102.7855	0.06	205571	keystroke_e	e	n/a
103.0255	0.06	206051	keystroke_Key.space	Key.space	n/a
104.361	0.06	208722	keystroke_h	h	n/a
104.541	0.059	209082	keystroke_o	o	n/a
104.661	0.074	209322	keystroke_s	s	n/a
105.8305	0.09	211661	keystroke_p	p	n/a
106.805	0.06	213610	keystroke_i	i	n/a
106.91	0.075	213820	keystroke_t	t	n/a
107.06	0.105	214120	keystroke_a	a	n/a
107.21	0.075	214420	keystroke_l	l	n/a
107.375	0.075	214750	keystroke_s	s	n/a
107.51	0.06	215020	keystroke_Key.space	Key.space	n/a
107.84	0.045	215680	keystroke_c	c	n/a
107.945	0.0755	215890	keystroke_h	h	n/a
108.0355	0.135	216071	keystroke_e	e	n/a
108.2155	0.135	216431	keystroke_a	a	n/a
108.3355	0.105	216671	keystroke_t	t	n/a
109.07	0.045	218140	keystroke_Key.space	Key.space	n/a
109.265	0.075	218530	keystroke_s	s	n/a
109.475	0.09	218950	keystroke_e	e	n/a
109.595	0.09	219190	keystroke_t	t	n/a
109.7755	0.0605	219551	keystroke_u	u	n/a
109.926	0.1045	219852	keystroke_p	p	n/a
110.3455	0.06	220691	keystroke_Key.enter	Key.enter	n/a
110.418	8.944	220836	prompt	n/a	pipes platform told discussion\n
111.2305	0.075	222461	keystroke_p	p	n/a
111.4705	0.06	222941	keystroke_i	i	n/a
111.71	0.0905	223420	keystroke_p	p	n/a
112.3705	0.09	224741	keystroke_e	e	n/a
112.5955	0.0745	225191	keystroke_s	s	n/a
112.76	0.06	225520	keystroke_Key.space	Key.space	n/a
113.105	0.06	226210	keystroke_p	p	n/a
113.3	0.06	226600	keystroke_l	l	n/a
113.36	0.12	226720	keystroke_a	a	n/a
113.495	0.075	226990	keystroke_t	t	n/a
113.78	0.075	227560	keystroke_o	o	n/a
114.7095	0.075	229419	keystroke_Key.backspace	Key.backspace	n/a
114.8295	0.0755	229659	keystroke_f	f	n/a
114.98	0.06	229960	keystroke_o	o	n/a
115.115	0.06	230230	keystroke_r	r	n/a
115.295	0.0605	230590	keystroke_m	m	n/a
115.8195	0.0605	231639	keystroke_Key.space	Key.space	n/a
116.06	0.06	232120	keystroke_t	t	n/a
116.195	0.06	232390	keystroke_o	o	n/a
116.3595	0.0605	232719	keystroke_l	l	n/a
116.48	0.06	232960	keystroke_d	d	n/a
116.57	0.06	233140	keystroke_Key.space	Key.space	n/a
116.87	0.0755	233740	keystroke_d	d	n/a
117.0955	0.015	234191	keystroke_i	i	n/a
117.2	0.075	234400	keystroke_s	s	n/a
117.65	0.09	235300	keystroke_c	c	n/a
117.785	0.06	235570	keystroke_u	u	n/a
117.92	0.075	235840	keystroke_s	s	n/a
118.085	0.075	236170	keystroke_s	s	n/a
118.235	0.1205	236470	keystroke_i	i	n/a
118.3555	0.03	236711	keystroke_o	o	n/a
118.4755	0.075	236951	keystroke_n	n	n/a
119.2855	0.075	238571	keystroke_Key.enter	Key.enter	n/a
119.3715	7.866	238743	prompt	n/a	decrease preventing nigeria logan\n
120.1255	0.06	240251	keystroke_d	d	n/a
120.3355	0.075	240671	keystroke_e	e	n/a
120.7105	0.105	241421	keystroke_c	c	n/a
121.01	0.12	242020	keystroke_r	r	n/a
121.07	0.195	242140	keystroke_e	e	n/a
121.28	0.1945	242560	keystroke_a	a	n/a
121.4905	0.1495	242981	keystroke_s	s	n/a
121.58	0.15	243160	keystroke_e	e	n/a
122.1205	0.045	244241	keystroke_Key.space	Key.space	n/a
122.3755	0.06	244751	keystroke_p	p	n/a
122.5255	0.09	245051	keystroke_r	r	n/a
122.57	0.09	245140	keystroke_e	e	n/a
122.8255	0.075	245651	keystroke_v	v	n/a
123.0655	0.075	246131	keystroke_e	e	n/a
123.2005	0.06	246401	keystroke_n	n	n/a
123.3205	0.06	246641	keystroke_t	t	n/a
123.485	0.0605	246970	keystroke_i	i	n/a
123.65	0.075	247300	keystroke_n	n	n/a
123.8005	0.06	247601	keystroke_g	g	n/a
123.9205	0.075	247841	keystroke_Key.space	Key.space	n/a
124.325	0.06	248650	keystroke_n	n	n/a
124.505	0.06	249010	keystroke_i	i	n/a
124.61	0.075	249220	keystroke_g	g	n/a
124.91	0.166	249820	keystroke_e	e	n/a
125.016	0.09	250032	keystroke_r	r	n/a
125.211	0.075	250422	keystroke_i	i	n/a
125.3455	0.0905	250691	keystroke_a	a	n/a
125.571	0.045	251142	keystroke_Key.space	Key.space	n/a
125.751	0.0745	251502	keystroke_l	l	n/a
125.9605	0.045	251921	keystroke_o	o	n/a
126.0655	0.075	252131	keystroke_g	g	n/a
126.2605	0.09	252521	keystroke_a	a	n/a
126.4255	0.075	252851	keystroke_n	n	n/a
127.1755	0.06	254351	keystroke_Key.enter	Key.enter	n/a
127.2515	10.2765	254503	prompt	n/a	'tis station dispatched assisted\n
128.751	0.075	257502	keystroke_'	'	n/a
129.4405	0.075	258881	keystroke_t	t	n/a
129.5605	0.075	259121	keystroke_i	i	n/a
129.7705	0.075	259541	keystroke_s	s	n/a
129.9355	0.06	259871	keystroke_Key.space	Key.space	n/a
130.821	0.089	261642	keystroke_s	s	n/a
130.986	0.105	261972	keystroke_t	t	n/a
131.105	0.121	262210	keystroke_a	a	n/a
131.211	0.06	262422	keystroke_t	t	n/a
131.315	0.1055	262630	keystroke_i	i	n/a
131.376	0.0745	262752	keystroke_o	o	n/a
131.4955	0.1045	262991	keystroke_n	n	n/a
131.8105	0.06	263621	keystroke_Key.space	Key.space	n/a
132.3205	0.06	264641	keystroke_d	d	n/a
132.4405	0.06	264881	keystroke_i	i	n/a
132.5605	0.075	265121	keystroke_s	s	n/a
132.6505	0.075	265301	keystroke_p	p	n/a
132.8155	0.105	265631	keystroke_a	a	n/a
132.9055	0.105	265811	keystroke_t	t	n/a
133.0255	0.09	266051	keystroke_e	e	n/a
133.265	0.075	266530	keystroke_d	d	n/a
133.8655	0.195	267731	keystroke_Key.backspace	Key.backspace	n/a
134.0755	0.015	268151	keystroke_Key.backspace	Key.backspace	n/a
134.2105	0.075	268421	keystroke_c	c	n/a
134.3305	0.06	268661	keystroke_h	h	n/a
134.4655	0.075	268931	keystroke_e	e	n/a
134.6605	0.075	269321	keystroke_d	d	n/a
135.2155	0.075	270431	keystroke_Key.space	Key.space	n/a
135.9355	0.0905	271871	keystroke_a	a	n/a
136.221	0.06	272442	keystroke_s	s	n/a
136.371	0.0895	272742	keystroke_s	s	n/a
136.5355	0.045	273071	keystroke_i	i	n/a
136.6405	0.075	273281	keystroke_s	s	n/a
136.8055	0.09	273611	keystroke_t	t	n/a
136.9255	0.075	273851	keystroke_e	e	n/a
137.1355	0.075	274271	keystroke_d	d	n/a
137.4655	0.06	274931	keystroke_Key.enter	Key.enter	n/a
137.538	8.0745	275076	prompt	n/a	visa deficit showcase timeline\n
138.3655	0.09	276731	keystroke_v	v	n/a
138.5305	0.0745	277061	keystroke_i	i	n/a
138.6805	0.1345	277361	keystroke_s	s	n/a
138.8	0.091	277600	keystroke_a	a	n/a
138.981	0.06	277962	keystroke_Key.space	Key.space	n/a
139.191	0.06	278382	keystroke_d	d	n/a
139.3855	0.0605	278771	keystroke_e	e	n/a
139.656	0.06	279312	keystroke_f	f	n/a
139.8805	0.0745	279761	keystroke_i	i	n/a
140.675	0.091	281350	keystroke_c	c	n/a
140.931	0.059	281862	keystroke_i	i	n/a
141.306	0.075	282612	keystroke_t	t	n/a
141.56	0.061	283120	keystroke_Key.space	Key.space	n/a
142.0255	0.075	284051	keystroke_s	s	n/a
142.1305	0.045	284261	keystroke_h	h	n/a
142.2805	0.06	284561	keystroke_o	o	n/a
142.4005	0.075	284801	keystroke_w	w	n/a
142.7905	0.12	285581	keystroke_c	c	n/a
142.8805	0.165	285761	keystroke_a	a	n/a
143.0005	0.15	286001	keystroke_s	s	n/a
143.1205	0.105	286241	keystroke_e	e	n/a
143.8705	0.06	287741	keystroke_Key.space	Key.space	n/a
144.246	0.059	288492	keystroke_t	t	n/a
144.32	0.061	288640	keystroke_i	i	n/a
144.486	0.06	288972	keystroke_m	m	n/a
144.561	0.089	289122	keystroke_e	e	n/a
144.695	0.09	289390	keystroke_l	l	n/a
144.89	0.06	289780	keystroke_i	i	n/a
145.025	0.09	290050	keystroke_n	n	n/a
145.175	0.06	290350	keystroke_e	e	n/a
145.5655	0.045	291131	keystroke_Key.enter	Key.enter	n/a
145.6215	6.2305	291243	prompt	n/a	gale dual exchanges hart\n
146.3005	0.105	292601	keystroke_g	g	n/a
146.421	0.075	292842	keystroke_a	a	n/a
146.526	0.075	293052	keystroke_l	l	n/a
146.661	0.075	293322	keystroke_e	e	n/a
146.781	0.06	293562	keystroke_Key.space	Key.space	n/a
146.901	0.075	293802	keystroke_d	d	n/a
147.051	0.045	294102	keystroke_u	u	n/a
147.276	0.075	294552	keystroke_a	a	n/a
147.396	0.06	294792	keystroke_l	l	n/a
147.561	0.044	295122	keystroke_Key.space	Key.space	n/a
147.8455	0.06	295691	keystroke_e	e	n/a
148.0405	0.09	296081	keystroke_x	x	n/a
148.2505	0.06	296501	keystroke_h	h	n/a
148.7155	0.045	297431	keystroke_Key.backspace	Key.backspace	n/a
148.8205	0.09	297641	keystroke_c	c	n/a
148.9705	0.06	297941	keystroke_h	h	n/a
149.0755	0.09	298151	keystroke_a	a	n/a
149.1805	0.09	298361	keystroke_g	g	n/a
149.2105	0.075	298421	keystroke_n	n	n/a
149.855	0.06	299710	keystroke_Key.backspace	Key.backspace	n/a
150.0055	0.045	300011	keystroke_Key.backspace	Key.backspace	n/a
150.2305	0.06	300461	keystroke_n	n	n/a
150.3355	0.075	300671	keystroke_g	g	n/a
150.5005	0.09	301001	keystroke_e	e	n/a
150.6955	0.09	301391	keystroke_s	s	n/a
150.8605	0.045	301721	keystroke_Key.space	Key.space	n/a
151.1155	0.045	302231	keystroke_h	h	n/a
151.1905	0.12	302381	keystroke_a	a	n/a
151.2955	0.075	302591	keystroke_r	r	n/a
151.506	0.06	303012	keystroke_t	t	n/a
151.805	0.045	303610	keystroke_Key.enter	Key.enter	n/a
151.856	7.5555	303712	prompt	n/a	faces fantasy partner olive\n
152.7205	0.12	305441	keystroke_f	f	n/a
152.8255	0.105	305651	keystroke_a	a	n/a
152.9605	0.165	305921	keystroke_c	c	n/a
153.0655	0.105	306131	keystroke_e	e	n/a
153.2905	0.075	306581	keystroke_s	s	n/a
153.4105	0.06	306821	keystroke_Key.space	Key.space	n/a
153.71	0.105	307420	keystroke_f	f	n/a
153.785	0.105	307570	keystroke_a	a	n/a
154.25	0.06	308500	keystroke_n	n	n/a
154.58	0.09	309160	keystroke_t	t	n/a
154.73	0.165	309460	keystroke_a	a	n/a
154.8355	0.12	309671	keystroke_s	s	n/a
155.5705	0.075	311141	keystroke_y	y	n/a
155.855	0.06	311710	keystroke_Key.space	Key.space	n/a
156.26	0.06	312520	keystroke_p	p	n/a
156.38	0.1055	312760	keystroke_a	a	n/a
156.4555	0.09	312911	keystroke_r	r	n/a
157.0105	0.06	314021	keystroke_t	t	n/a
157.1905	0.06	314381	keystroke_n	n	n/a
157.3255	0.105	314651	keystroke_e	e	n/a
157.3855	0.105	314771	keystroke_r	r	n/a
157.685	0.045	315370	keystroke_Key.space	Key.space	n/a
158.181	0.059	316362	keystroke_o	o	n/a
158.615	0.0595	317230	keystroke_l	l	n/a
158.7795	0.045	317559	keystroke_i	i	n/a
158.8395	0.09	317679	keystroke_v	v	n/a
159.065	0.075	318130	keystroke_e	e	n/a
159.35	0.06	318700	keystroke_Key.enter	Key.enter	n/a
159.4145	7.4225	318829	prompt	n/a	steps processor affiliate appreciate\n
160.07	0.09	320140	keystroke_s	s	n/a
160.295	0.0895	320590	keystroke_t	t	n/a
160.3545	0.105	320709	keystroke_e	e	n/a
160.5045	0.075	321009	keystroke_p	p	n/a
160.64	0.09	321280	keystroke_s	s	n/a
160.76	0.06	321520	keystroke_Key.space	Key.space	n/a
161.0745	0.06	322149	keystroke_p	p	n/a
161.1795	0.06	322359	keystroke_r	r	n/a
161.3295	0.06	322659	keystroke_o	o	n/a
161.4355	0.0895	322871	keystroke_c	c	n/a
161.63	0.06	323260	keystroke_e	e	n/a
161.825	0.09	323650	keystroke_s	s	n/a
162.005	0.075	324010	keystroke_s	s	n/a
162.11	0.06	324220	keystroke_o	o	n/a
162.26	0.06	324520	keystroke_r	r	n/a
162.365	0.045	324730	keystroke_Key.space	Key.space	n/a
162.515	0.075	325030	keystroke_a	a	n/a
162.77	0.06	325540	keystroke_f	f	n/a
162.935	0.0605	325870	keystroke_f	f	n/a
163.19	0.075	326380	keystroke_i	i	n/a
163.58	0.045	327160	keystroke_l	l	n/a
163.73	0.06	327460	keystroke_i	i	n/a
163.97	0.105	327940	keystroke_a	a	n/a
164.09	0.135	328180	keystroke_t	t	n/a
164.195	0.075	328390	keystroke_e	e	n/a
164.36	0.06	328720	keystroke_Key.space	Key.space	n/a
164.585	0.09	329170	keystroke_a	a	n/a
164.72	0.075	329440	keystroke_p	p	n/a
164.885	0.075	329770	keystroke_p	p	n/a
165.0955	0.12	330191	keystroke_r	r	n/a
165.1705	0.09	330341	keystroke_e	e	n/a
165.7855	0.09	331571	keystroke_c	c	n/a
165.9355	0.044	331871	keystroke_i	i	n/a
166.0555	0.105	332111	keystroke_a	a	n/a
166.1755	0.135	332351	keystroke_t	t	n/a
166.2805	0.105	332561	keystroke_e	e	n/a
166.7755	0.059	333551	keystroke_Key.enter	Key.enter	n/a
166.847	8.84	333694	prompt	n/a	promised suffer lists produce\n
167.6905	0.059	335381	keystroke_p	p	n/a
167.855	0.075	335710	keystroke_r	r	n/a
167.99	0.075	335980	keystroke_m	m	n/a
168.605	0.045	337210	keystroke_Key.backspace	Key.backspace	n/a
168.815	0.06	337630	keystroke_o	o	n/a
169.025	0.06	338050	keystroke_m	m	n/a
169.235	0.045	338470	keystroke_i	i	n/a
169.37	0.1205	338740	keystroke_s	s	n/a
169.4595	0.09	338919	keystroke_e	e	n/a
169.6995	0.046	339399	keystroke_d	d	n/a
169.82	0.045	339640	keystroke_Key.space	Key.space	n/a
170.51	0.12	341020	keystroke_c	c	n/a
170.8545	0.045	341709	keystroke_Key.backspace	Key.backspace	n/a
170.9745	0.075	341949	keystroke_s	s	n/a
171.0795	0.075	342159	keystroke_u	u	n/a
171.2295	0.075	342459	keystroke_f	f	n/a
171.3945	0.06	342789	keystroke_f	f	n/a
171.59	0.135	343180	keystroke_e	e	n/a
171.68	0.075	343360	keystroke_r	r	n/a
172.085	0.045	344170	keystroke_Key.space	Key.space	n/a
172.295	0.075	344590	keystroke_l	l	n/a
172.46	0.06	344920	keystroke_i	i	n/a
172.58	0.1205	345160	keystroke_s	s	n/a
172.7155	0.075	345431	keystroke_t	t	n/a
172.8805	0.09	345761	keystroke_s	s	n/a
173.1955	0.045	346391	keystroke_Key.space	Key.space	n/a
173.6455	0.06	347291	keystroke_p	p	n/a
173.78	0.075	347560	keystroke_r	r	n/a
173.9	0.075	347800	keystroke_o	o	n/a
174.065	0.075	348130	keystroke_d	d	n/a
174.2	0.06	348400	keystroke_u	u	n/a
174.335	0.09	348670	keystroke_c	c	n/a
174.53	0.105	349060	keystroke_e	e	n/a
175.6095	0.075	351219	keystroke_Key.enter	Key.enter	n/a
175.7005	8.9415	351401	prompt	n/a	assessments washer icons combination\n
176.4495	0.0755	352899	keystroke_a	a	n/a
176.645	0.075	353290	keystroke_s	s	n/a
176.795	0.06	353590	keystroke_s	s	n/a
176.975	0.06	353950	keystroke_e	e	n/a
177.155	0.075	354310	keystroke_s	s	n/a
177.32	0.06	354640	keystroke_s	s	n/a
177.44	0.075	354880	keystroke_m	m	n/a
177.56	0.0605	355120	keystroke_e	e	n/a
177.68	0.0605	355360	keystroke_n	n	n/a
177.785	0.075	355570	keystroke_t	t	n/a
177.965	0.105	355930	keystroke_s	s	n/a
178.2805	0.045	356561	keystroke_Key.space	Key.space	n/a
178.4605	0.105	356921	keystroke_w	w	n/a
178.6105	0.15	357221	keystroke_a	a	n/a
178.7155	0.09	357431	keystroke_s	s	n/a
178.8655	0.075	357731	keystroke_h	h	n/a
179.0155	0.12	358031	keystroke_e	e	n/a
179.0905	0.0895	358181	keystroke_r	r	n/a
179.2405	0.06	358481	keystroke_Key.space	Key.space	n/a
179.4655	0.06	358931	keystroke_i	i	n/a
179.5855	0.09	359171	keystroke_c	c	n/a
179.7055	0.0595	359411	keystroke_o	o	n/a
179.885	0.075	359770	keystroke_n	n	n/a
180.275	0.06	360550	keystroke_Key.space	Key.space	n/a
181.459	0.06	362918	keystroke_Key.backspace	Key.backspace	n/a
181.594	0.0905	363188	keystroke_s	s	n/a
181.7295	0.0455	363459	keystroke_Key.space	Key.space	n/a
181.94	0.09	363880	keystroke_c	c	n/a
182.045	0.075	364090	keystroke_o	o	n/a
182.255	0.06	364510	keystroke_m	m	n/a
182.885	0.075	365770	keystroke_b	b	n/a
183.08	0.045	366160	keystroke_i	i	n/a
183.26	0.06	366520	keystroke_n	n	n/a
183.5295	0.1055	367059	keystroke_a	a	n/a
183.635	0.09	367270	keystroke_t	t	n/a
183.83	0.12	367660	keystroke_i	i	n/a
183.935	0.06	367870	keystroke_o	o	n/a
184.04	0.075	368080	keystroke_n	n	n/a
184.58	0.06	369160	keystroke_Key.enter	Key.enter	n/a
184.6515	6.5145	369303	prompt	n/a	wash clean rule ain't\n
185.3895	0.1055	370779	keystroke_w	w	n/a
185.525	0.15	371050	keystroke_a	a	n/a
185.615	0.105	371230	keystroke_s	s	n/a
185.75	0.06	371500	keystroke_h	h	n/a
185.93	0.06	371860	keystroke_Key.space	Key.space	n/a
186.08	0.09	372160	keystroke_c	c	n/a
186.245	0.045	372490	keystroke_l	l	n/a
186.35	0.1195	372700	keystroke_e	e	n/a
186.4395	0.105	372879	keystroke_a	a	n/a
186.6495	0.075	373299	keystroke_n	n	n/a
188.42	0.045	376840	keystroke_Key.space	Key.space	n/a
188.825	0.06	377650	keystroke_r	r	n/a
188.99	0.075	377980	keystroke_u	u	n/a
189.185	0.06	378370	keystroke_l	l	n/a
189.29	0.075	378580	keystroke_e	e	n/a
189.395	0.075	378790	keystroke_Key.space	Key.space	n/a
189.575	0.06	379150	keystroke_a	a	n/a
189.665	0.045	379330	keystroke_i	i	n/a
189.86	0.0445	379720	keystroke_n	n	n/a
190.55	0.015	381100	keystroke_'	'	n/a
190.61	0.075	381220	keystroke_t	t	n/a
191.09	0.075	382180	keystroke_Key.enter	Key.enter	n/a
191.1695	7.272	382339	prompt	n/a	amber preview davidson oasis\n
192.0205	0.0745	384041	keystroke_a	a	n/a
192.14	0.06	384280	keystroke_m	m	n/a
192.425	0.075	384850	keystroke_b	b	n/a
192.65	0.165	385300	keystroke_e	e	n/a
192.755	0.09	385510	keystroke_r	r	n/a
193.0095	0.045	386019	keystroke_Key.space	Key.space	n/a
193.2645	0.09	386529	keystroke_p	p	n/a
193.489	0.1355	386978	keystroke_r	r	n/a
193.579	0.0905	387158	keystroke_e	e	n/a
193.879	0.09	387758	keystroke_v	v	n/a
194.044	0.06	388088	keystroke_i	i	n/a
194.2845	0.135	388569	keystroke_e	e	n/a
194.3895	0.1055	388779	keystroke_w	w	n/a
194.615	0.06	389230	keystroke_Key.space	Key.space	n/a
194.855	0.09	389710	keystroke_d	d	n/a
195.08	0.075	390160	keystroke_a	a	n/a
195.3045	0.09	390609	keystroke_v	v	n/a
195.5145	0.06	391029	keystroke_i	i	n/a
195.8595	0.075	391719	keystroke_d	d	n/a
196.4745	0.0755	392949	keystroke_s	s	n/a
196.565	0.045	393130	keystroke_o	o	n/a
196.73	0.075	393460	keystroke_n	n	n/a
196.8945	0.06	393789	keystroke_Key.space	Key.space	n/a
197.12	0.06	394240	keystroke_o	o	n/a
197.315	0.165	394630	keystroke_a	a	n/a
197.42	0.12	394840	keystroke_s	s	n/a
197.87	0.045	395740	keystroke_i	i	n/a
197.989	0.0755	395978	keystroke_s	s	n/a
198.394	0.045	396788	keystroke_Key.enter	Key.enter	n/a
198.4515	9.095	396903	prompt	n/a	shed decreased alphabetical beth\n
199.279	0.06	398558	keystroke_s	s	n/a
199.384	0.06	398768	keystroke_h	h	n/a
199.504	0.06	399008	keystroke_e	e	n/a
199.699	0.06	399398	keystroke_d	d	n/a
199.834	0.06	399668	keystroke_Key.space	Key.space	n/a
200.1345	0.0605	400269	keystroke_d	d	n/a
200.3445	0.075	400689	keystroke_e	e	n/a
200.765	0.075	401530	keystroke_c	c	n/a
201.0195	0.12	402039	keystroke_r	r	n/a
201.1095	0.15	402219	keystroke_e	e	n/a
201.2745	0.15	402549	keystroke_a	a	n/a
201.47	0.135	402940	keystroke_s	s	n/a
201.665	0.105	403330	keystroke_e	e	n/a
201.875	0.09	403750	keystroke_d	d	n/a
202.07	0.0595	404140	keystroke_Key.space	Key.space	n/a
202.685	0.06	405370	keystroke_a	a	n/a
203.135	0.06	406270	keystroke_l	l	n/a
203.33	0.06	406660	keystroke_p	p	n/a
204.005	0.075	408010	keystroke_h	h	n/a
204.245	0.075	408490	keystroke_a	a	n/a
204.695	0.09	409390	keystroke_b	b	n/a
205.235	0.09	410470	keystroke_e	e	n/a
205.4	0.0745	410800	keystroke_t	t	n/a
205.595	0.075	411190	keystroke_i	i	n/a
205.76	0.135	411520	keystroke_c	c	n/a
205.865	0.09	411730	keystroke_a	a	n/a
206.03	0.06	412060	keystroke_l	l	n/a
206.195	0.06	412390	keystroke_Key.space	Key.space	n/a
206.48	0.0595	412960	keystroke_b	b	n/a
206.8395	0.09	413679	keystroke_e	e	n/a
207.0495	0.06	414099	keystroke_t	t	n/a
207.1545	0.075	414309	keystroke_h	h	n/a
207.4695	0.075	414939	keystroke_Key.enter	Key.enter	n/a
207.556	10.4155	415112	prompt	n/a	ranch telephone integrity incoming\n
208.354	0.09	416708	keystroke_r	r	n/a
208.414	0.075	416828	keystroke_e	e	n/a
208.7295	0.105	417459	keystroke_a	a	n/a
209.0745	0.045	418149	keystroke_Key.backspace	Key.backspace	n/a
209.2095	0.06	418419	keystroke_Key.backspace	Key.backspace	n/a
209.3145	0.075	418629	keystroke_a	a	n/a
209.4645	0.06	418929	keystroke_n	n	n/a
209.5995	0.09	419199	keystroke_c	c	n/a
209.7195	0.0605	419439	keystroke_h	h	n/a
209.9145	0.075	419829	keystroke_Key.space	Key.space	n/a
210.2895	0.09	420579	keystroke_t	t	n/a
210.5445	0.06	421089	keystroke_l	l	n/a
211.054	0.06	422108	keystroke_Key.backspace	Key.backspace	n/a
211.175	0.074	422350	keystroke_e	e	n/a
211.309	0.06	422618	keystroke_l	l	n/a
211.445	0.074	422890	keystroke_e	e	n/a
211.91	0.06	423820	keystroke_p	p	n/a
212.09	0.06	424180	keystroke_h	h	n/a
212.24	0.045	424480	keystroke_o	o	n/a
212.39	0.06	424780	keystroke_n	n	n/a
212.48	0.06	424960	keystroke_e	e	n/a
212.6	0.06	425200	keystroke_Key.space	Key.space	n/a
213.05	0.06	426100	keystroke_i	i	n/a
213.32	0.06	426640	keystroke_t	t	n/a
213.5	0.135	427000	keystroke_e	e	n/a
213.605	0.075	427210	keystroke_r	r	n/a
214.0845	0.015	428169	keystroke_g	g	n/a
214.31	0.075	428620	keystroke_r	r	n/a
214.52	0.06	429040	keystroke_i	i	n/a
214.655	0.075	429310	keystroke_t	t	n/a
214.88	0.06	429760	keystroke_y	y	n/a
215.045	0.06	430090	keystroke_Key.space	Key.space	n/a
215.2395	0.06	430479	keystroke_i	i	n/a
215.3895	0.06	430779	keystroke_n	n	n/a
215.54	0.075	431080	keystroke_c	c	n/a
215.63	0.06	431260	keystroke_o	o	n/a
215.795	0.075	431590	keystroke_m	m	n/a
215.975	0.045	431950	keystroke_i	i	n/a
216.095	0.075	432190	keystroke_n	n	n/a
216.23	0.06	432460	keystroke_g	g	n/a
217.91	0.06	435820	keystroke_Key.enter	Key.enter	n/a
217.9815	8.225	435963	prompt	n/a	impaired effort tracking sure\n
218.7495	0.0605	437499	keystroke_i	i	n/a
218.8995	0.0745	437799	keystroke_m	m	n/a
219.1245	0.045	438249	keystroke_p	p	n/a
219.3195	0.09	438639	keystroke_a	a	n/a
219.4845	0.075	438969	keystroke_i	i	n/a
219.6495	0.075	439299	keystroke_r	r	n/a
220.1895	0.0595	440379	keystroke_e	e	n/a
220.369	0.09	440738	keystroke_d	d	n/a
220.519	0.06	441038	keystroke_Key.space	Key.space	n/a
220.759	0.061	441518	keystroke_e	e	n/a
220.9395	0.075	441879	keystroke_f	f	n/a
221.1195	0.06	442239	keystroke_f	f	n/a
221.2545	0.075	442509	keystroke_o	o	n/a
221.3745	0.06	442749	keystroke_r	r	n/a
221.585	0.06	443170	keystroke_t	t	n/a
221.749	0.0605	443498	keystroke_Key.space	Key.space	n/a
221.8545	0.09	443709	keystroke_t	t	n/a
222.064	0.135	444128	keystroke_a	a	n/a
222.2	0.135	444400	keystroke_c	c	n/a
222.3795	0.045	444759	keystroke_k	k	n/a
222.5595	0.045	445119	keystroke_i	i	n/a
222.6945	0.0605	445389	keystroke_n	n	n/a
222.7995	0.06	445599	keystroke_g	g	n/a
223.1295	0.06	446259	keystroke_Key.backspace	Key.backspace	n/a
223.2945	0.06	446589	keystroke_Key.backspace	Key.backspace	n/a
223.4595	0.06	446919	keystroke_Key.backspace	Key.backspace	n/a
223.6095	0.075	447219	keystroke_Key.backspace	Key.backspace	n/a
223.7895	0.06	447579	keystroke_Key.backspace	Key.backspace	n/a
223.939	0.06	447878	keystroke_Key.backspace	Key.backspace	n/a
224.029	0.105	448058	keystroke_r	r	n/a
224.119	0.1205	448238	keystroke_a	a	n/a
224.299	0.12	448598	keystroke_c	c	n/a
224.449	0.046	448898	keystroke_k	k	n/a
224.615	0.045	449230	keystroke_i	i	n/a
224.75	0.075	449500	keystroke_n	n	n/a
224.8695	0.075	449739	keystroke_g	g	n/a
225.3345	0.06	450669	keystroke_Key.space	Key.space	n/a
225.4845	0.075	450969	keystroke_s	s	n/a
225.6045	0.06	451209	keystroke_u	u	n/a
225.7095	0.1505	451419	keystroke_r	r	n/a
225.8145	0.1055	451629	keystroke_e	e	n/a
226.1445	0.06	452289	keystroke_Key.enter	Key.enter	n/a
226.216	9.89	452432	prompt	n/a	elliott cooperative risk kingston\n
227.179	0.06	454358	keystroke_e	e	n/a
227.359	0.06	454718	keystroke_l	l	n/a
227.495	0.074	454990	keystroke_l	l	n/a
227.659	0.06	455318	keystroke_i	i	n/a
227.854	0.06	455708	keystroke_o	o	n/a
228.019	0.06	456038	keystroke_t	t	n/a
228.5895	0.06	457179	keystroke_t	t	n/a
228.9945	0.06	457989	keystroke_Key.space	Key.space	n/a
229.2195	0.075	458439	keystroke_c	c	n/a
229.3545	0.075	458709	keystroke_o	o	n/a
229.5645	0.06	459129	keystroke_o	o	n/a
229.7445	0.0595	459489	keystroke_p	p	n/a
229.954	0.15	459908	keystroke_e	e	n/a
230.059	0.09	460118	keystroke_r	r	n/a
230.9595	0.075	461919	keystroke_a	a	n/a
231.1545	0.06	462309	keystroke_t	t	n/a
231.334	0.045	462668	keystroke_i	i	n/a
231.424	0.09	462848	keystroke_v	v	n/a
231.6345	0.075	463269	keystroke_e	e	n/a
231.7695	0.06	463539	keystroke_Key.space	Key.space	n/a
232.5495	0.075	465099	keystroke_r	r	n/a
232.7595	0.075	465519	keystroke_s	s	n/a
232.8645	0.06	465729	keystroke_i	i	n/a
233.0895	0.045	466179	keystroke_k	k	n/a
233.3895	0.06	466779	keystroke_Key.backspace	Key.backspace	n/a
233.5545	0.045	467109	keystroke_Key.backspace	Key.backspace	n/a
233.6595	0.06	467319	keystroke_Key.backspace	Key.backspace	n/a
233.87	0.0745	467740	keystroke_i	i	n/a
234.0045	0.075	468009	keystroke_s	s	n/a
234.1245	0.045	468249	keystroke_k	k	n/a
234.334	0.06	468668	keystroke_Key.space	Key.space	n/a
234.8295	0.045	469659	keystroke_k	k	n/a
234.9795	0.045	469959	keystroke_i	i	n/a
235.0995	0.075	470199	keystroke_n	n	n/a
235.1895	0.06	470379	keystroke_g	g	n/a
235.369	0.105	470738	keystroke_s	s	n/a
235.519	0.06	471038	keystroke_t	t	n/a
235.639	0.06	471278	keystroke_o	o	n/a
235.8045	0.075	471609	keystroke_n	n	n/a
236.0445	0.059	472089	keystroke_Key.enter	Key.enter	n/a
236.1175	13.503	472235	prompt	n/a	nancy property tribes treasurer\n
236.8385	0.075	473677	keystroke_n	n	n/a
236.9285	0.09	473857	keystroke_a	a	n/a
237.0485	0.06	474097	keystroke_n	n	n/a
237.1385	0.075	474277	keystroke_a	a	n/a
237.2595	0.105	474519	keystroke_c	c	n/a
237.5435	0.045	475087	keystroke_y	y	n/a
237.7985	0.06	475597	keystroke_Key.backspace	Key.backspace	n/a
237.9785	0.045	475957	keystroke_Key.backspace	Key.backspace	n/a
238.1135	0.06	476227	keystroke_Key.backspace	Key.backspace	n/a
239.2695	0.059	478539	keystroke_c	c	n/a
239.4485	0.0605	478897	keystroke_y	y	n/a
239.629	0.06	479258	keystroke_Key.space	Key.space	n/a
240.1835	0.075	480367	keystroke_p	p	n/a
240.3335	0.1805	480667	keystroke_r	r	n/a
240.469	0.075	480938	keystroke_e	e	n/a
241.219	0.045	482438	keystroke_Key.backspace	Key.backspace	n/a
241.4595	0.045	482919	keystroke_o	o	n/a
241.6395	0.075	483279	keystroke_p	p	n/a
242.1495	0.075	484299	keystroke_e	e	n/a
242.3445	0.06	484689	keystroke_t	t	n/a
242.5245	0.06	485049	keystroke_y	y	n/a
242.6595	0.045	485319	keystroke_Key.space	Key.space	n/a
242.8245	0.075	485649	keystroke_t	t	n/a
243.0345	0.075	486069	keystroke_r	r	n/a
243.3195	0.075	486639	keystroke_b	b	n/a
243.4545	0.075	486909	keystroke_i	i	n/a
243.619	0.105	487238	keystroke_e	e	n/a
244.009	0.045	488018	keystroke_Key.backspace	Key.backspace	n/a
244.114	0.075	488228	keystroke_Key.backspace	Key.backspace	n/a
244.204	0.105	488408	keystroke_e	e	n/a
244.279	0.0895	488558	keystroke_s	s	n/a
244.939	0.09	489878	keystroke_Key.backspace	Key.backspace	n/a
245.134	0.06	490268	keystroke_Key.backspace	Key.backspace	n/a
245.314	0.045	490628	keystroke_Key.backspace	Key.backspace	n/a
245.659	0.06	491318	keystroke_i	i	n/a
245.824	0.0595	491648	keystroke_b	b	n/a
246.0335	0.181	492067	keystroke_e	e	n/a
246.1995	0.0895	492399	keystroke_s	s	n/a
246.4395	0.06	492879	keystroke_Key.space	Key.space	n/a
246.6195	0.0745	493239	keystroke_t	t	n/a
246.934	0.1505	493868	keystroke_r	r	n/a
247.0545	0.18	494109	keystroke_e	e	n/a
247.2195	0.2095	494439	keystroke_a	a	n/a
247.429	0.1055	494858	keystroke_s	s	n/a
247.6545	0.045	495309	keystroke_u	u	n/a
247.759	0.15	495518	keystroke_r	r	n/a
247.849	0.12	495698	keystroke_e	e	n/a
249.124	0.075	498248	keystroke_r	r	n/a
249.559	0.06	499118	keystroke_Key.enter	Key.enter	n/a
249.6315	7.624	499263	prompt	n/a	excessive salary asia bound\n
250.5195	0.075	501039	keystroke_e	e	n/a
250.7295	0.0745	501459	keystroke_x	x	n/a
250.9085	0.09	501817	keystroke_c	c	n/a
251.2085	0.075	502417	keystroke_e	e	n/a
251.4785	0.06	502957	keystroke_s	s	n/a
251.6435	0.06	503287	keystroke_s	s	n/a
251.8085	0.045	503617	keystroke_i	i	n/a
251.9285	0.06	503857	keystroke_v	v	n/a
252.1235	0.045	504247	keystroke_e	e	n/a
252.2585	0.045	504517	keystroke_Key.space	Key.space	n/a
252.3935	0.105	504787	keystroke_s	s	n/a
252.9335	0.06	505867	keystroke_l	l	n/a
253.2935	0.06	506587	keystroke_Key.backspace	Key.backspace	n/a
253.3985	0.0895	506797	keystroke_a	a	n/a
253.533	0.075	507066	keystroke_l	l	n/a
253.698	0.0905	507396	keystroke_a	a	n/a
253.984	0.0895	507968	keystroke_r	r	n/a
254.2685	0.06	508537	keystroke_y	y	n/a
254.4485	0.06	508897	keystroke_Key.space	Key.space	n/a
254.763	0.135	509526	keystroke_a	a	n/a
254.838	0.1205	509676	keystroke_s	s	n/a
255.049	0.059	510098	keystroke_i	i	n/a
255.184	0.0895	510368	keystroke_a	a	n/a
255.3935	0.06	510787	keystroke_Key.space	Key.space	n/a
255.739	0.06	511478	keystroke_b	b	n/a
255.814	0.06	511628	keystroke_o	o	n/a
255.9335	0.06	511867	keystroke_u	u	n/a
256.129	0.06	512258	keystroke_n	n	n/a
256.234	0.06	512468	keystroke_d	d	n/a
257.209	0.045	514418	keystroke_Key.enter	Key.enter	n/a
257.266	5.7645	514532	prompt	n/a	ranges semester fabric passive\n
258.109	0.12	516218	keystroke_r	r	n/a
258.199	0.105	516398	keystroke_a	a	n/a
258.349	0.06	516698	keystroke_n	n	n/a
258.424	0.06	516848	keystroke_g	g	n/a
258.5895	0.075	517179	keystroke_e	e	n/a
258.7845	0.075	517569	keystroke_s	s	n/a
258.9185	0.06	517837	keystroke_Key.space	Key.space	n/a
259.0395	0.09	518079	keystroke_s	s	n/a
259.2185	0.091	518437	keystroke_e	e	n/a
259.3685	0.076	518737	keystroke_m	m	n/a
259.5645	0.104	519129	keystroke_s	s	n/a
259.6245	0.105	519249	keystroke_e	e	n/a
259.8795	0.059	519759	keystroke_t	t	n/a
260.0295	0.135	520059	keystroke_e	e	n/a
260.1495	0.06	520299	keystroke_r	r	n/a
260.3135	0.06	520627	keystroke_Key.space	Key.space	n/a
260.4345	0.1045	520869	keystroke_f	f	n/a
260.584	0.12	521168	keystroke_a	a	n/a
260.764	0.09	521528	keystroke_b	b	n/a
261.079	0.06	522158	keystroke_r	r	n/a
261.274	0.03	522548	keystroke_i	i	n/a
261.424	0.075	522848	keystroke_c	c	n/a
261.604	0.06	523208	keystroke_Key.space	Key.space	n/a
261.8735	0.06	523747	keystroke_p	p	n/a
261.9785	0.06	523957	keystroke_a	a	n/a
262.1885	0.06	524377	keystroke_s	s	n/a
262.3535	0.045	524707	keystroke_s	s	n/a
262.4735	0.06	524947	keystroke_i	i	n/a
262.5785	0.06	525157	keystroke_v	v	n/a
262.7745	0.044	525549	keystroke_e	e	n/a
262.969	0.06	525938	keystroke_Key.enter	Key.enter	n/a
263.0325	8.353	526065	prompt	n/a	persistent nearest revelation views\n
263.944	0.075	527888	keystroke_p	p	n/a
264.2585	0.12	528517	keystroke_e	e	n/a
264.3185	0.075	528637	keystroke_r	r	n/a
264.5585	0.075	529117	keystroke_s	s	n/a
264.6935	0.06	529387	keystroke_i	i	n/a
264.8285	0.09	529657	keystroke_s	s	n/a
264.9935	0.1055	529987	keystroke_t	t	n/a
265.099	0.09	530198	keystroke_e	e	n/a
265.294	0.06	530588	keystroke_n	n	n/a
265.429	0.0745	530858	keystroke_t	t	n/a
265.5635	0.06	531127	keystroke_Key.space	Key.space	n/a
265.909	0.0595	531818	keystroke_n	n	n/a
265.9835	0.135	531967	keystroke_e	e	n/a
266.1335	0.165	532267	keystroke_a	a	n/a
266.2685	0.09	532537	keystroke_r	r	n/a
266.5385	0.0895	533077	keystroke_e	e	n/a
266.689	0.119	533378	keystroke_s	s	n/a
266.883	0.075	533766	keystroke_t	t	n/a
267.1225	0.045	534245	keystroke_Key.space	Key.space	n/a
267.8285	0.12	535657	keystroke_r	r	n/a
267.9185	0.075	535837	keystroke_e	e	n/a
268.9235	0.075	537847	keystroke_v	v	n/a
269.1635	0.075	538327	keystroke_e	e	n/a
269.3735	0.06	538747	keystroke_l	l	n/a
269.479	0.105	538958	keystroke_a	a	n/a
269.599	0.06	539198	keystroke_t	t	n/a
269.704	0.1045	539408	keystroke_i	i	n/a
269.824	0.015	539648	keystroke_o	o	n/a
269.884	0.0895	539768	keystroke_n	n	n/a
270.049	0.06	540098	keystroke_Key.space	Key.space	n/a
270.214	0.075	540428	keystroke_v	v	n/a
270.349	0.0445	540698	keystroke_i	i	n/a
270.484	0.15	540968	keystroke_e	e	n/a
270.5735	0.09	541147	keystroke_w	w	n/a
270.904	0.09	541808	keystroke_s	s	n/a
271.324	0.06	542648	keystroke_Key.enter	Key.enter	n/a
271.3955	5.9445	542791	prompt	n/a	songs projects fuzzy starts\n
272.0585	0.075	544117	keystroke_s	s	n/a
272.1335	0.06	544267	keystroke_o	o	n/a
272.3135	0.075	544627	keystroke_n	n	n/a
272.4035	0.06	544807	keystroke_g	g	n/a
272.5685	0.09	545137	keystroke_s	s	n/a
272.7035	0.06	545407	keystroke_Key.space	Key.space	n/a
273.0035	0.075	546007	keystroke_p	p	n/a
273.1535	0.075	546307	keystroke_r	r	n/a
273.2735	0.075	546547	keystroke_o	o	n/a
273.4535	0.06	546907	keystroke_j	j	n/a
273.5145	0.0745	547029	keystroke_e	e	n/a
273.709	0.0895	547418	keystroke_c	c	n/a
273.9485	0.045	547897	keystroke_t	t	n/a
274.0685	0.09	548137	keystroke_s	s	n/a
274.2185	0.06	548437	keystroke_Key.space	Key.space	n/a
274.3685	0.06	548737	keystroke_f	f	n/a
274.5635	0.045	549127	keystroke_u	u	n/a
274.7435	0.06	549487	keystroke_z	z	n/a
274.9235	0.06	549847	keystroke_z	z	n/a
275.1635	0.06	550327	keystroke_y	y	n/a
275.3135	0.06	550627	keystroke_Key.space	Key.space	n/a
275.7035	0.0755	551407	keystroke_s	s	n/a
275.854	0.075	551708	keystroke_t	t	n/a
276.034	0.105	552068	keystroke_a	a	n/a
276.094	0.105	552188	keystroke_r	r	n/a
276.304	0.06	552608	keystroke_t	t	n/a
277.069	0.075	554138	keystroke_s	s	n/a
277.264	0.074	554528	keystroke_Key.enter	Key.enter	n/a
277.342	18.8985	554684	prompt	n/a	demonstration landscape decorating microsoft\n
278.179	0.09	556358	keystroke_d	d	n/a
278.418	0.06	556836	keystroke_e	e	n/a
278.583	0.06	557166	keystroke_m	m	n/a
278.778	0.06	557556	keystroke_o	o	n/a
278.974	0.0595	557948	keystroke_n	n	n/a
279.3035	0.09	558607	keystroke_s	s	n/a
279.4835	0.075	558967	keystroke_t	t	n/a
280.4595	0.119	560919	keystroke_r	r	n/a
280.5935	0.105	561187	keystroke_a	a	n/a
280.7285	0.09	561457	keystroke_t	t	n/a
280.9085	0.06	561817	keystroke_t	t	n/a
281.4035	0.0595	562807	keystroke_Key.backspace	Key.backspace	n/a
281.613	0.1345	563226	keystroke_i	i	n/a
281.7175	0.076	563435	keystroke_o	o	n/a
281.914	0.0595	563828	keystroke_n	n	n/a
282.0935	0.045	564187	keystroke_Key.space	Key.space	n/a
282.4835	0.06	564967	keystroke_l	l	n/a
282.6035	0.09	565207	keystroke_a	a	n/a
282.7235	0.0595	565447	keystroke_n	n	n/a
282.844	0.0895	565688	keystroke_d	d	n/a
283.113	0.09	566226	keystroke_s	s	n/a
283.3085	0.09	566617	keystroke_c	c	n/a
284.3135	0.09	568627	keystroke_a	a	n/a
284.4485	0.06	568897	keystroke_p	p	n/a
284.5835	0.06	569167	keystroke_t	t	n/a
284.9285	0.0595	569857	keystroke_e	e	n/a
285.243	0.06	570486	keystroke_Key.backspace	Key.backspace	n/a
285.453	0.015	570906	keystroke_Key.backspace	Key.backspace	n/a
285.498	0.06	570996	keystroke_e	e	n/a
285.753	0.03	571506	keystroke_Key.space	Key.space	n/a
286.743	0.09	573486	keystroke_d	d	n/a
287.028	0.06	574056	keystroke_e	e	n/a
287.2985	0.075	574597	keystroke_c	c	n/a
287.5685	0.075	575137	keystroke_r	r	n/a
287.7185	0.06	575437	keystroke_o	o	n/a
287.9435	0.015	575887	keystroke_t	t	n/a
288.0035	0.105	576007	keystroke_a	a	n/a
288.2585	0.06	576517	keystroke_i	i	n/a
288.4085	0.075	576817	keystroke_n	n	n/a
288.5135	0.075	577027	keystroke_g	g	n/a
288.6635	0.075	577327	keystroke_Key.space	Key.space	n/a
289.7435	0.0595	579487	keystroke_Key.backspace	Key.backspace	n/a
289.923	0.06	579846	keystroke_Key.backspace	Key.backspace	n/a
290.103	0.06	580206	keystroke_Key.backspace	Key.backspace	n/a
290.298	0.045	580596	keystroke_Key.backspace	Key.backspace	n/a
291.514	0.0595	583028	keystroke_i	i	n/a
291.6935	0.075	583387	keystroke_n	n	n/a
291.7985	0.075	583597	keystroke_g	g	n/a
292.773	0.045	585546	keystroke_Key.space	Key.space	n/a
293.014	0.059	586028	keystroke_m	m	n/a
293.208	0.0455	586416	keystroke_i	i	n/a
293.3735	0.09	586747	keystroke_c	c	n/a
293.6735	0.06	587347	keystroke_r	r	n/a
293.7935	0.06	587587	keystroke_o	o	n/a
295.5035	0.075	591007	keystroke_s	s	n/a
295.654	0.0445	591308	keystroke_o	o	n/a
295.7585	0.0605	591517	keystroke_f	f	n/a
295.954	0.045	591908	keystroke_t	t	n/a
296.1785	0.06	592357	keystroke_Key.enter	Key.enter	n/a
296.25	7.7605	592500	prompt	n/a	occurrence member variables hart\n
297.0185	0.045	594037	keystroke_o	o	n/a
297.1685	0.045	594337	keystroke_c	c	n/a
297.3035	0.075	594607	keystroke_c	c	n/a
297.453	0.06	594906	keystroke_u	u	n/a
297.619	0.06	595238	keystroke_r	r	n/a
297.7835	0.06	595567	keystroke_r	r	n/a
298.0385	0.075	596077	keystroke_e	e	n/a
298.2185	0.06	596437	keystroke_n	n	n/a
298.3685	0.12	596737	keystroke_c	c	n/a
298.4735	0.09	596947	keystroke_e	e	n/a
298.6385	0.0595	597277	keystroke_Key.space	Key.space	n/a
298.863	0.06	597726	keystroke_m	m	n/a
298.968	0.075	597936	keystroke_e	e	n/a
299.104	0.06	598208	keystroke_m	m	n/a
299.194	0.059	598388	keystroke_e	e	n/a
299.433	0.06	598866	keystroke_b	b	n/a
299.6585	0.135	599317	keystroke_e	e	n/a
299.7635	0.075	599527	keystroke_r	r	n/a
299.9585	0.045	599917	keystroke_Key.space	Key.space	n/a
300.4235	0.0895	600847	keystroke_v	v	n/a
300.6785	0.1355	601357	keystroke_a	a	n/a
300.784	0.0895	601568	keystroke_r	r	n/a
301.054	0.06	602108	keystroke_i	i	n/a
301.159	0.075	602318	keystroke_a	a	n/a
301.279	0.06	602558	keystroke_b	b	n/a
301.384	0.06	602768	keystroke_l	l	n/a
301.549	0.06	603098	keystroke_e	e	n/a
301.684	0.044	603368	keystroke_Key.space	Key.space	n/a
301.954	0.0595	603908	keystroke_h	h	n/a
302.0885	0.1345	604177	keystroke_a	a	n/a
302.238	0.076	604476	keystroke_t	t	n/a
302.883	0.06	605766	keystroke_Key.backspace	Key.backspace	n/a
303.063	0.0755	606126	keystroke_r	r	n/a
303.2585	0.06	606517	keystroke_t	t	n/a
303.903	0.105	607806	keystroke_Key.enter	Key.enter	n/a
304.023	8.81	608046	prompt	n/a	floating installing henderson serial\n
304.803	0.075	609606	keystroke_f	f	n/a
304.9535	0.075	609907	keystroke_l	l	n/a
305.133	0.06	610266	keystroke_o	o	n/a
305.238	0.091	610476	keystroke_a	a	n/a
305.33	0.073	610660	keystroke_t	t	n/a
305.433	0.075	610866	keystroke_i	i	n/a
305.568	0.09	611136	keystroke_n	n	n/a
305.688	0.06	611376	keystroke_g	g	n/a
305.8235	0.06	611647	keystroke_Key.space	Key.space	n/a
306.0485	0.045	612097	keystroke_i	i	n/a
306.1835	0.075	612367	keystroke_n	n	n/a
306.2735	0.075	612547	keystroke_s	s	n/a
306.3935	0.09	612787	keystroke_t	t	n/a
306.5135	0.105	613027	keystroke_a	a	n/a
306.6485	0.06	613297	keystroke_l	l	n/a
306.859	0.014	613718	keystroke_l	l	n/a
306.9485	0.06	613897	keystroke_i	i	n/a
307.0685	0.09	614137	keystroke_n	n	n/a
307.1735	0.075	614347	keystroke_g	g	n/a
307.2935	0.045	614587	keystroke_Key.space	Key.space	n/a
307.7285	0.045	615457	keystroke_h	h	n/a
307.9085	0.045	615817	keystroke_e	e	n/a
308.0285	0.06	616057	keystroke_n	n	n/a
308.2235	0.045	616447	keystroke_d	d	n/a
308.433	0.12	616866	keystroke_e	e	n/a
308.538	0.075	617076	keystroke_r	r	n/a
308.748	0.06	617496	keystroke_s	s	n/a
308.853	0.06	617706	keystroke_o	o	n/a
309.019	0.075	618038	keystroke_n	n	n/a
309.2735	0.0455	618547	keystroke_Key.space	Key.space	n/a
309.709	0.06	619418	keystroke_s	s	n/a
309.979	0.135	619958	keystroke_e	e	n/a
310.069	0.09	620138	keystroke_r	r	n/a
310.234	0.06	620468	keystroke_i	i	n/a
310.339	0.1045	620678	keystroke_a	a	n/a
310.4585	0.075	620917	keystroke_l	l	n/a
312.8305	0.001	625661	keystroke_Key.enter	Key.enter	n/a
312.843	7.217	625686	prompt	n/a	owen mobile folding parties\n
313.5935	0.06	627187	keystroke_o	o	n/a
313.879	0.12	627758	keystroke_w	w	n/a
314.164	0.0895	628328	keystroke_e	e	n/a
314.3735	0.06	628747	keystroke_n	n	n/a
314.5985	0.045	629197	keystroke_Key.space	Key.space	n/a
315.064	0.06	630128	keystroke_m	m	n/a
315.214	0.06	630428	keystroke_o	o	n/a
315.319	0.06	630638	keystroke_b	b	n/a
315.409	0.06	630818	keystroke_i	i	n/a
315.574	0.06	631148	keystroke_l	l	n/a
315.649	0.06	631298	keystroke_e	e	n/a
315.814	0.06	631628	keystroke_Key.space	Key.space	n/a
316.204	0.075	632408	keystroke_f	f	n/a
316.324	0.075	632648	keystroke_o	o	n/a
316.504	0.06	633008	keystroke_l	l	n/a
316.609	0.06	633218	keystroke_d	d	n/a
316.669	0.06	633338	keystroke_i	i	n/a
316.819	0.075	633638	keystroke_n	n	n/a
316.954	0.06	633908	keystroke_g	g	n/a
317.074	0.045	634148	keystroke_Key.space	Key.space	n/a
317.6135	0.06	635227	keystroke_p	p	n/a
317.7185	0.1205	635437	keystroke_a	a	n/a
317.809	0.0745	635618	keystroke_r	r	n/a
318.0185	0.06	636037	keystroke_t	t	n/a
318.1535	0.045	636307	keystroke_i	i	n/a
318.2285	0.075	636457	keystroke_e	e	n/a
318.4085	0.075	636817	keystroke_s	s	n/a
318.5735	0.045	637147	keystroke_Key.space	Key.space	n/a
319.9985	0.06	639997	keystroke_Key.enter	Key.enter	n/a
320.0625	7.393	640125	prompt	n/a	legitimate blonde males mentor\n
320.719	0.075	641438	keystroke_l	l	n/a
320.854	0.045	641708	keystroke_e	e	n/a
321.034	0.075	642068	keystroke_g	g	n/a
321.214	0.0595	642428	keystroke_i	i	n/a
322.2635	0.075	644527	keystroke_t	t	n/a
322.5635	0.06	645127	keystroke_i	i	n/a
322.9535	0.0605	645907	keystroke_m	m	n/a
323.074	0.135	646148	keystroke_a	a	n/a
323.194	0.12	646388	keystroke_t	t	n/a
323.299	0.09	646598	keystroke_e	e	n/a
323.479	0.06	646958	keystroke_Key.space	Key.space	n/a
323.764	0.09	647528	keystroke_b	b	n/a
323.914	0.075	647828	keystroke_l	l	n/a
324.0785	0.045	648157	keystroke_o	o	n/a
324.1985	0.09	648397	keystroke_n	n	n/a
324.3185	0.0755	648637	keystroke_d	d	n/a
324.529	0.045	649058	keystroke_e	e	n/a
324.7085	0.045	649417	keystroke_Key.space	Key.space	n/a
324.9935	0.06	649987	keystroke_m	m	n/a
325.1585	0.06	650317	keystroke_a	a	n/a
325.2485	0.0595	650497	keystroke_l	l	n/a
325.353	0.0605	650706	keystroke_e	e	n/a
325.5485	0.06	651097	keystroke_s	s	n/a
325.7435	0.06	651487	keystroke_Key.space	Key.space	n/a
325.9835	0.075	651967	keystroke_m	m	n/a
326.1035	0.075	652207	keystroke_e	e	n/a
326.2085	0.06	652417	keystroke_n	n	n/a
326.3885	0.06	652777	keystroke_t	t	n/a
326.5085	0.075	653017	keystroke_o	o	n/a
326.6135	0.06	653227	keystroke_r	r	n/a
327.3935	0.06	654787	keystroke_Key.enter	Key.enter	n/a
327.4665	13.1435	654933	prompt	n/a	salaries brokers explicit passport\n
328.264	0.075	656528	keystroke_s	s	n/a
328.624	0.075	657248	keystroke_a	a	n/a
329.4935	0.075	658987	keystroke_l	l	n/a
329.7035	0.075	659407	keystroke_o	o	n/a
329.9285	0.09	659857	keystroke_a	a	n/a
330.333	0.06	660666	keystroke_Key.backspace	Key.backspace	n/a
330.483	0.105	660966	keystroke_Key.backspace	Key.backspace	n/a
330.574	0.104	661148	keystroke_a	a	n/a
330.649	0.074	661298	keystroke_r	r	n/a
330.904	0.06	661808	keystroke_i	i	n/a
331.009	0.075	662018	keystroke_e	e	n/a
331.1435	0.105	662287	keystroke_s	s	n/a
331.369	0.06	662738	keystroke_Key.space	Key.space	n/a
331.5335	0.075	663067	keystroke_b	b	n/a
331.7585	0.075	663517	keystroke_r	r	n/a
331.8635	0.075	663727	keystroke_o	o	n/a
332.0135	0.09	664027	keystroke_k	k	n/a
332.194	0.075	664388	keystroke_e	e	n/a
332.269	0.12	664538	keystroke_w	w	n/a
332.343	0.136	664686	keystroke_e	e	n/a
332.419	0.105	664838	keystroke_r	r	n/a
332.688	0.061	665376	keystroke_Key.backspace	Key.backspace	n/a
332.854	0.0595	665708	keystroke_Key.backspace	Key.backspace	n/a
333.0185	0.045	666037	keystroke_Key.backspace	Key.backspace	n/a
333.0935	0.0895	666187	keystroke_e	e	n/a
333.153	0.09	666306	keystroke_r	r	n/a
333.5735	0.045	667147	keystroke_Key.backspace	Key.backspace	n/a
333.7235	0.06	667447	keystroke_Key.backspace	Key.backspace	n/a
333.7835	0.06	667567	keystroke_r	r	n/a
333.978	0.06	667956	keystroke_Key.space	Key.space	n/a
334.4585	0.075	668917	keystroke_e	e	n/a
334.6535	0.09	669307	keystroke_x	x	n/a
335.059	0.0595	670118	keystroke_p	p	n/a
335.268	0.076	670536	keystroke_l	l	n/a
335.449	0.044	670898	keystroke_i	i	n/a
335.598	0.075	671196	keystroke_c	c	n/a
335.779	0.0595	671558	keystroke_i	i	n/a
335.898	0.075	671796	keystroke_t	t	n/a
336.273	0.06	672546	keystroke_Key.space	Key.space	n/a
336.603	0.075	673206	keystroke_p	p	n/a
336.708	0.075	673416	keystroke_a	a	n/a
336.9035	0.0755	673807	keystroke_s	s	n/a
337.069	0.075	674138	keystroke_s	s	n/a
337.189	0.06	674378	keystroke_o	o	n/a
337.324	0.1045	674648	keystroke_w	w	n/a
337.5185	0.075	675037	keystroke_r	r	n/a
337.7735	0.06	675547	keystroke_Key.backspace	Key.backspace	n/a
337.9385	0.045	675877	keystroke_Key.backspace	Key.backspace	n/a
338.0885	0.06	676177	keystroke_Key.backspace	Key.backspace	n/a
339.2735	0.105	678547	keystroke_p	p	n/a
339.348	0.0755	678696	keystroke_o	o	n/a
339.4685	0.06	678937	keystroke_r	r	n/a
339.6635	0.06	679327	keystroke_t	t	n/a
340.5475	0.06	681095	keystroke_Key.enter	Key.enter	n/a
340.621	7.099	681242	prompt	n/a	acer reviewing neighbor unable\n
341.298	0.06	682596	keystroke_a	a	n/a
341.433	0.105	682866	keystroke_c	c	n/a
341.673	0.1645	683346	keystroke_e	e	n/a
341.778	0.1045	683556	keystroke_r	r	n/a
342.0325	0.06	684065	keystroke_Key.space	Key.space	n/a
342.183	0.105	684366	keystroke_r	r	n/a
342.258	0.075	684516	keystroke_e	e	n/a
342.543	0.075	685086	keystroke_v	v	n/a
342.678	0.0745	685356	keystroke_i	i	n/a
343.428	0.15	686856	keystroke_e	e	n/a
343.503	0.105	687006	keystroke_w	w	n/a
343.683	0.06	687366	keystroke_i	i	n/a
343.8485	0.06	687697	keystroke_n	n	n/a
343.9235	0.06	687847	keystroke_g	g	n/a
344.0435	0.075	688087	keystroke_Key.space	Key.space	n/a
344.3735	0.06	688747	keystroke_n	n	n/a
344.4935	0.075	688987	keystroke_e	e	n/a
344.7185	0.06	689437	keystroke_i	i	n/a
344.8985	0.045	689797	keystroke_g	g	n/a
345.4835	0.075	690967	keystroke_h	h	n/a
345.7385	0.075	691477	keystroke_b	b	n/a
345.8585	0.075	691717	keystroke_o	o	n/a
346.0085	0.06	692017	keystroke_r	r	n/a
346.1435	0.0595	692287	keystroke_Key.space	Key.space	n/a
346.503	0.045	693006	keystroke_u	u	n/a
346.668	0.09	693336	keystroke_n	n	n/a
346.743	0.075	693486	keystroke_a	a	n/a
346.848	0.075	693696	keystroke_b	b	n/a
346.983	0.075	693966	keystroke_l	l	n/a
347.118	0.075	694236	keystroke_e	e	n/a
347.658	0.06	695316	keystroke_Key.enter	Key.enter	n/a
347.7225	7.4525	695445	prompt	n/a	pleasure amino comply jacob\n
348.513	0.061	697026	keystroke_p	p	n/a
348.709	0.059	697418	keystroke_l	l	n/a
348.829	0.135	697658	keystroke_e	e	n/a
348.949	0.135	697898	keystroke_a	a	n/a
349.054	0.105	698108	keystroke_s	s	n/a
349.219	0.06	698438	keystroke_u	u	n/a
349.324	0.135	698648	keystroke_r	r	n/a
349.414	0.09	698828	keystroke_e	e	n/a
349.549	0.074	699098	keystroke_Key.space	Key.space	n/a
349.8335	0.075	699667	keystroke_a	a	n/a
350.043	0.03	700086	keystroke_n	n	n/a
350.388	0.045	700776	keystroke_Key.backspace	Key.backspace	n/a
350.553	0.075	701106	keystroke_m	m	n/a
350.748	0.03	701496	keystroke_i	i	n/a
350.883	0.045	701766	keystroke_n	n	n/a
351.078	0.045	702156	keystroke_o	o	n/a
351.2735	0.03	702547	keystroke_Key.space	Key.space	n/a
351.648	0.09	703296	keystroke_c	c	n/a
351.708	0.06	703416	keystroke_o	o	n/a
351.8425	0.06	703685	keystroke_m	m	n/a
351.9475	0.061	703895	keystroke_p	p	n/a
352.1285	0.0595	704257	keystroke_l	l	n/a
352.248	0.06	704496	keystroke_y	y	n/a
352.398	0.03	704796	keystroke_Key.space	Key.space	n/a
353.0125	0.09	706025	keystroke_j	j	n/a
353.2525	0.091	706505	keystroke_a	a	n/a
353.5835	0.09	707167	keystroke_c	c	n/a
353.778	0.06	707556	keystroke_o	o	n/a
353.928	0.075	707856	keystroke_b	b	n/a
355.0975	0.075	710195	keystroke_Key.enter	Key.enter	n/a
355.1845	9.756	710369	prompt	n/a	ship florida herbs harvey\n
355.9985	0.075	711997	keystroke_s	s	n/a
356.1185	0.03	712237	keystroke_h	h	n/a
356.2535	0.06	712507	keystroke_i	i	n/a
356.433	0.075	712866	keystroke_p	p	n/a
356.598	0.06	713196	keystroke_Key.space	Key.space	n/a
357.1835	0.074	714367	keystroke_f	f	n/a
357.2875	0.06	714575	keystroke_l	l	n/a
357.4535	0.06	714907	keystroke_o	o	n/a
357.6175	0.076	715235	keystroke_r	r	n/a
357.8125	0.046	715625	keystroke_i	i	n/a
358.188	0.09	716376	keystroke_d	d	n/a
358.443	0.09	716886	keystroke_a	a	n/a
358.6685	0.0595	717337	keystroke_Key.space	Key.space	n/a
359.358	0.09	718716	keystroke_b	b	n/a
359.9585	0.18	719917	keystroke_e	e	n/a
360.0785	0.09	720157	keystroke_r	r	n/a
360.3635	0.06	720727	keystroke_b	b	n/a
361.0085	0.06	722017	keystroke_Key.backspace	Key.backspace	n/a
361.1735	0.06	722347	keystroke_Key.backspace	Key.backspace	n/a
361.3385	0.06	722677	keystroke_Key.backspace	Key.backspace	n/a
361.4585	0.06	722917	keystroke_Key.backspace	Key.backspace	n/a
361.6685	0.06	723337	keystroke_h	h	n/a
361.7585	0.1345	723517	keystroke_e	e	n/a
361.863	0.06	723726	keystroke_r	r	n/a
362.118	0.06	724236	keystroke_b	b	n/a
362.583	0.075	725166	keystroke_Key.space	Key.space	n/a
362.8235	0.06	725647	keystroke_h	h	n/a
362.9285	0.0895	725857	keystroke_a	a	n/a
363.198	0.075	726396	keystroke_r	r	n/a
363.453	0.06	726906	keystroke_v	v	n/a
363.649	0.089	727298	keystroke_e	e	n/a
363.7985	0.075	727597	keystroke_y	y	n/a
364.864	0.0745	729728	keystroke_Key.enter	Key.enter	n/a
364.9545	8.311	729909	prompt	n/a	located poem freedom greene\n
365.7785	0.075	731557	keystroke_l	l	n/a
365.8835	0.09	731767	keystroke_a	a	n/a
366.5585	0.075	733117	keystroke_Key.backspace	Key.backspace	n/a
367.4135	0.06	734827	keystroke_o	o	n/a
367.6985	0.1195	735397	keystroke_c	c	n/a
367.788	0.105	735576	keystroke_a	a	n/a
367.968	0.105	735936	keystroke_t	t	n/a
368.088	0.09	736176	keystroke_e	e	n/a
368.328	0.06	736656	keystroke_d	d	n/a
368.463	0.06	736926	keystroke_Key.space	Key.space	n/a
368.658	0.06	737316	keystroke_p	p	n/a
368.823	0.075	737646	keystroke_o	o	n/a
369.408	0.015	738816	keystroke_e	e	n/a
369.438	0.045	738876	keystroke_m	m	n/a
369.633	0.06	739266	keystroke_Key.space	Key.space	n/a
370.0235	0.06	740047	keystroke_f	f	n/a
370.2335	0.09	740467	keystroke_r	r	n/a
370.4435	0.06	740887	keystroke_e	e	n/a
370.6085	0.06	741217	keystroke_e	e	n/a
370.8035	0.06	741607	keystroke_d	d	n/a
370.9085	0.075	741817	keystroke_o	o	n/a
371.0585	0.075	742117	keystroke_m	m	n/a
371.448	0.075	742896	keystroke_Key.space	Key.space	n/a
371.7785	0.075	743557	keystroke_g	g	n/a
372.0635	0.0745	744127	keystroke_r	r	n/a
372.288	0.06	744576	keystroke_e	e	n/a
372.453	0.0595	744906	keystroke_e	e	n/a
372.6175	0.06	745235	keystroke_n	n	n/a
372.6785	0.0745	745357	keystroke_e	e	n/a
373.1885	0.075	746377	keystroke_Key.enter	Key.enter	n/a
373.275	6.9055	746550	prompt	n/a	fork prints inch promising\n
373.9835	0.075	747967	keystroke_f	f	n/a
374.1335	0.075	748267	keystroke_o	o	n/a
374.2535	0.075	748507	keystroke_r	r	n/a
374.538	0.075	749076	keystroke_b	b	n/a
375.063	0.06	750126	keystroke_Key.backspace	Key.backspace	n/a
375.258	0.075	750516	keystroke_k	k	n/a
375.423	0.06	750846	keystroke_Key.space	Key.space	n/a
375.648	0.06	751296	keystroke_p	p	n/a
375.768	0.0895	751536	keystroke_r	r	n/a
375.8875	0.06	751775	keystroke_i	i	n/a
376.0225	0.091	752045	keystroke_n	n	n/a
376.0985	0.059	752197	keystroke_t	t	n/a
376.2485	0.09	752497	keystroke_s	s	n/a
376.3975	0.06	752795	keystroke_Key.space	Key.space	n/a
376.5925	0.06	753185	keystroke_i	i	n/a
376.728	0.09	753456	keystroke_n	n	n/a
376.864	0.089	753728	keystroke_c	c	n/a
376.968	0.06	753936	keystroke_h	h	n/a
377.148	0.075	754296	keystroke_Key.space	Key.space	n/a
377.463	0.075	754926	keystroke_p	p	n/a
377.644	0.06	755288	keystroke_r	r	n/a
378.648	0.03	757296	keystroke_o	o	n/a
378.798	0.06	757596	keystroke_m	m	n/a
378.963	0.06	757926	keystroke_i	i	n/a
379.068	0.06	758136	keystroke_s	s	n/a
379.173	0.031	758346	keystroke_i	i	n/a
379.293	0.06	758586	keystroke_n	n	n/a
379.413	0.075	758826	keystroke_g	g	n/a
380.103	0.075	760206	keystroke_Key.enter	Key.enter	n/a
380.19	8.51	760380	prompt	n/a	just nodes bass polyphonic\n
380.838	0.06	761676	keystroke_j	j	n/a
381.033	0.075	762066	keystroke_u	u	n/a
381.168	0.151	762336	keystroke_s	s	n/a
381.274	0.105	762548	keystroke_t	t	n/a
381.454	0.075	762908	keystroke_Key.space	Key.space	n/a
381.6785	0.045	763357	keystroke_n	n	n/a
381.889	0.015	763778	keystroke_o	o	n/a
381.919	0.045	763838	keystroke_d	d	n/a
382.069	0.06	764138	keystroke_e	e	n/a
382.3685	0.09	764737	keystroke_s	s	n/a
382.548	0.06	765096	keystroke_Key.space	Key.space	n/a
383.134	0.075	766268	keystroke_b	b	n/a
383.313	0.106	766626	keystroke_a	a	n/a
383.643	0.076	767286	keystroke_s	s	n/a
383.809	0.074	767618	keystroke_s	s	n/a
383.928	0.0605	767856	keystroke_Key.space	Key.space	n/a
384.1085	0.045	768217	keystroke_p	p	n/a
384.3335	0.06	768667	keystroke_o	o	n/a
384.5585	0.03	769117	keystroke_l	l	n/a
385.3235	0.075	770647	keystroke_y	y	n/a
386.133	0.06	772266	keystroke_p	p	n/a
386.298	0.045	772596	keystroke_h	h	n/a
386.8535	0.06	773707	keystroke_o	o	n/a
387.0185	0.06	774037	keystroke_n	n	n/a
387.1835	0.045	774367	keystroke_i	i	n/a
387.2735	0.075	774547	keystroke_c	c	n/a
387.4085	0.045	774817	keystroke_Key.space	Key.space	n/a
388.383	0.075	776766	keystroke_Key.backspace	Key.backspace	n/a
388.638	0.06	777276	keystroke_Key.enter	Key.enter	n/a
388.71	8.4535	777420	prompt	n/a	liked requested persian crops\n
389.493	0.06	778986	keystroke_l	l	n/a
389.659	0.044	779318	keystroke_i	i	n/a
389.8085	0.06	779617	keystroke_k	k	n/a
389.8835	0.0755	779767	keystroke_e	e	n/a
390.0635	0.075	780127	keystroke_d	d	n/a
390.3785	0.045	780757	keystroke_Key.space	Key.space	n/a
390.5435	0.12	781087	keystroke_r	r	n/a
390.6185	0.105	781237	keystroke_e	e	n/a
390.9635	0.075	781927	keystroke_q	q	n/a
391.398	0.075	782796	keystroke_u	u	n/a
391.503	0.18	783006	keystroke_e	e	n/a
391.623	0.15	783246	keystroke_s	s	n/a
391.758	0.091	783516	keystroke_t	t	n/a
391.923	0.09	783846	keystroke_e	e	n/a
392.148	0.06	784296	keystroke_d	d	n/a
392.283	0.06	784566	keystroke_Key.space	Key.space	n/a
392.568	0.075	785136	keystroke_p	p	n/a
392.688	0.15	785376	keystroke_e	e	n/a
392.778	0.105	785556	keystroke_r	r	n/a
393.018	0.105	786036	keystroke_s	s	n/a
393.183	0.06	786366	keystroke_i	i	n/a
393.303	0.075	786606	keystroke_a	a	n/a
393.438	0.0605	786876	keystroke_n	n	n/a
393.573	0.075	787146	keystroke_Key.space	Key.space	n/a
393.799	0.0745	787598	keystroke_c	c	n/a
394.099	0.06	788198	keystroke_r	r	n/a
394.294	0.105	788588	keystroke_o	o	n/a
394.3685	0.0755	788737	keystroke_p	p	n/a
394.594	0.09	789188	keystroke_s	s	n/a
397.161	0.001	794322	keystroke_Key.enter	Key.enter	n/a
397.1735	8.282	794347	prompt	n/a	moreover forward licking chosen\n
397.9385	0.075	795877	keystroke_m	m	n/a
398.149	0.06	796298	keystroke_o	o	n/a
398.314	0.12	796628	keystroke_r	r	n/a
398.404	0.09	796808	keystroke_e	e	n/a
398.704	0.06	797408	keystroke_o	o	n/a
398.839	0.075	797678	keystroke_v	v	n/a
399.034	0.135	798068	keystroke_e	e	n/a
399.124	0.09	798248	keystroke_r	r	n/a
399.484	0.015	798968	keystroke_f	f	n/a
399.514	0.059	799028	keystroke_o	o	n/a
399.634	0.105	799268	keystroke_r	r	n/a
399.963	0.06	799926	keystroke_Key.backspace	Key.backspace	n/a
400.128	0.06	800256	keystroke_Key.backspace	Key.backspace	n/a
400.293	0.0605	800586	keystroke_Key.backspace	Key.backspace	n/a
400.474	0.06	800948	keystroke_Key.space	Key.space	n/a
401.0885	0.075	802177	keystroke_f	f	n/a
401.193	0.06	802386	keystroke_o	o	n/a
401.313	0.075	802626	keystroke_r	r	n/a
401.764	0.105	803528	keystroke_w	w	n/a
401.839	0.135	803678	keystroke_a	a	n/a
401.944	0.09	803888	keystroke_r	r	n/a
402.094	0.0745	804188	keystroke_d	d	n/a
402.2885	0.075	804577	keystroke_Key.space	Key.space	n/a
402.5735	0.06	805147	keystroke_l	l	n/a
402.7535	0.045	805507	keystroke_i	i	n/a
402.8735	0.09	805747	keystroke_c	c	n/a
403.384	0.045	806768	keystroke_k	k	n/a
403.564	0.045	807128	keystroke_i	i	n/a
403.714	0.06	807428	keystroke_n	n	n/a
403.819	0.06	807638	keystroke_g	g	n/a
403.924	0.075	807848	keystroke_Key.space	Key.space	n/a
404.0885	0.105	808177	keystroke_c	c	n/a
404.2085	0.045	808417	keystroke_h	h	n/a
404.3735	0.0605	808747	keystroke_o	o	n/a
404.4935	0.136	808987	keystroke_s	s	n/a
404.6135	0.061	809227	keystroke_e	e	n/a
404.8535	0.061	809707	keystroke_n	n	n/a
405.378	0.075	810756	keystroke_Key.enter	Key.enter	n/a
405.465	8.136	810930	prompt	n/a	acer implied ignore perception\n
406.129	0.09	812258	keystroke_a	a	n/a
406.368	0.105	812736	keystroke_c	c	n/a
406.624	0.15	813248	keystroke_e	e	n/a
406.698	0.106	813396	keystroke_r	r	n/a
406.923	0.06	813846	keystroke_Key.space	Key.space	n/a
407.088	0.061	814176	keystroke_i	i	n/a
407.2685	0.09	814537	keystroke_m	m	n/a
407.748	0.0755	815496	keystroke_p	p	n/a
408.1085	0.0605	816217	keystroke_l	l	n/a
408.259	0.06	816518	keystroke_i	i	n/a
408.3935	0.06	816787	keystroke_e	e	n/a
408.5435	0.0905	817087	keystroke_d	d	n/a
408.724	0.045	817448	keystroke_Key.space	Key.space	n/a
408.9035	0.0155	817807	keystroke_i	i	n/a
409.444	0.045	818888	keystroke_g	g	n/a
409.594	0.06	819188	keystroke_n	n	n/a
409.8485	0.0605	819697	keystroke_o	o	n/a
409.953	0.1355	819906	keystroke_r	r	n/a
410.0435	0.09	820087	keystroke_e	e	n/a
410.1935	0.045	820387	keystroke_Key.space	Key.space	n/a
410.4485	0.0605	820897	keystroke_p	p	n/a
410.553	0.1205	821106	keystroke_e	e	n/a
410.628	0.09	821256	keystroke_r	r	n/a
410.9885	0.091	821977	keystroke_c	c	n/a
411.2435	0.06	822487	keystroke_e	e	n/a
411.4385	0.06	822877	keystroke_t	t	n/a
411.5885	0.075	823177	keystroke_p	p	n/a
412.0685	0.06	824137	keystroke_Key.backspace	Key.backspace	n/a
412.2035	0.045	824407	keystroke_Key.backspace	Key.backspace	n/a
412.3985	0.06	824797	keystroke_p	p	n/a
412.5345	0.0745	825069	keystroke_t	t	n/a
412.624	0.12	825248	keystroke_i	i	n/a
412.699	0.075	825398	keystroke_o	o	n/a
412.819	0.09	825638	keystroke_n	n	n/a
413.5385	0.0605	827077	keystroke_Key.enter	Key.enter	n/a
413.613	13.9825	827226	prompt	n/a	supposed joke husband detected\n
414.2585	0.075	828517	keystroke_s	s	n/a
414.3635	0.045	828727	keystroke_u	u	n/a
415.068	0.0455	830136	keystroke_p	p	n/a
415.1885	0.09	830377	keystroke_p	p	n/a
415.2635	0.0895	830527	keystroke_o	o	n/a
415.368	0.105	830736	keystroke_s	s	n/a
415.458	0.075	830916	keystroke_e	e	n/a
415.6685	0.06	831337	keystroke_d	d	n/a
415.818	0.061	831636	keystroke_Key.space	Key.space	n/a
416.044	0.044	832088	keystroke_j	j	n/a
416.209	0.06	832418	keystroke_o	o	n/a
416.509	0.09	833018	keystroke_e	e	n/a
416.674	0.0595	833348	keystroke_k	k	n/a
417.0785	0.06	834157	keystroke_Key.backspace	Key.backspace	n/a
417.2285	0.045	834457	keystroke_Key.backspace	Key.backspace	n/a
417.4385	0.06	834877	keystroke_k	k	n/a
417.5435	0.075	835087	keystroke_e	e	n/a
417.6785	0.045	835357	keystroke_Key.space	Key.space	n/a
418.279	0.03	836558	keystroke_h	h	n/a
418.564	0.06	837128	keystroke_u	u	n/a
418.714	0.075	837428	keystroke_s	s	n/a
419.239	0.0595	838478	keystroke_b	b	n/a
419.4185	0.075	838837	keystroke_a	a	n/a
419.5535	0.06	839107	keystroke_n	n	n/a
419.6435	0.075	839287	keystroke_d	d	n/a
419.763	0.075	839526	keystroke_Key.space	Key.space	n/a
420.018	0.045	840036	keystroke_d	d	n/a
420.198	0.046	840396	keystroke_e	e	n/a
420.348	0.09	840696	keystroke_c	c	n/a
420.603	0.045	841206	keystroke_t	t	n/a
420.693	0.0905	841386	keystroke_e	e	n/a
420.9185	0.06	841837	keystroke_d	d	n/a
422.0285	0.0605	844057	keystroke_Key.backspace	Key.backspace	n/a
422.869	0.06	845738	keystroke_Key.backspace	Key.backspace	n/a
423.469	0.0595	846938	keystroke_e	e	n/a
423.709	0.09	847418	keystroke_c	c	n/a
424.383	0.1205	848766	keystroke_t	t	n/a
424.5185	0.06	849037	keystroke_e	e	n/a
424.743	0.075	849486	keystroke_d	d	n/a
425.0435	0.06	850087	keystroke_Key.backspace	Key.backspace	n/a
425.2235	0.045	850447	keystroke_Key.backspace	Key.backspace	n/a
425.3885	0.06	850777	keystroke_Key.backspace	Key.backspace	n/a
425.5535	0.06	851107	keystroke_Key.backspace	Key.backspace	n/a
425.7185	0.06	851437	keystroke_Key.backspace	Key.backspace	n/a
425.8985	0.045	851797	keystroke_Key.backspace	Key.backspace	n/a
426.049	0.0445	852098	keystroke_Key.backspace	Key.backspace	n/a
426.1835	0.075	852367	keystroke_t	t	n/a
426.2735	0.075	852547	keystroke_e	e	n/a
426.5435	0.105	853087	keystroke_c	c	n/a
426.798	0.075	853596	keystroke_t	t	n/a
426.948	0.09	853896	keystroke_e	e	n/a
427.158	0.0755	854316	keystroke_d	d	n/a
427.5185	0.0745	855037	keystroke_Key.enter	Key.enter	n/a
427.6065	9.709	855213	prompt	n/a	anyone singh interior handled\n
428.2985	0.0755	856597	keystroke_a	a	n/a
428.433	0.075	856866	keystroke_n	n	n/a
428.643	0.06	857286	keystroke_o	o	n/a
428.793	0.045	857586	keystroke_y	y	n/a
429.003	0.076	858006	keystroke_t	t	n/a
429.1685	0.045	858337	keystroke_i	i	n/a
429.4685	0.06	858937	keystroke_Key.backspace	Key.backspace	n/a
429.6335	0.06	859267	keystroke_Key.backspace	Key.backspace	n/a
429.798	0.06	859596	keystroke_Key.backspace	Key.backspace	n/a
429.948	0.045	859896	keystroke_Key.backspace	Key.backspace	n/a
430.128	0.06	860256	keystroke_y	y	n/a
430.293	0.0605	860586	keystroke_i	i	n/a
430.654	0.044	861308	keystroke_Key.backspace	Key.backspace	n/a
430.834	0.06	861668	keystroke_o	o	n/a
431.014	0.06	862028	keystroke_n	n	n/a
431.089	0.06	862178	keystroke_e	e	n/a
431.194	0.075	862388	keystroke_Key.space	Key.space	n/a
431.404	0.06	862808	keystroke_s	s	n/a
431.479	0.045	862958	keystroke_i	i	n/a
431.674	0.045	863348	keystroke_g	g	n/a
431.7785	0.075	863557	keystroke_h	h	n/a
432.1835	0.045	864367	keystroke_Key.space	Key.space	n/a
432.5735	0.0595	865147	keystroke_Key.backspace	Key.backspace	n/a
432.723	0.075	865446	keystroke_Key.backspace	Key.backspace	n/a
432.888	0.06	865776	keystroke_Key.backspace	Key.backspace	n/a
433.113	0.0755	866226	keystroke_n	n	n/a
433.3085	0.06	866617	keystroke_g	g	n/a
433.3985	0.075	866797	keystroke_h	h	n/a
433.8185	0.06	867637	keystroke_Key.space	Key.space	n/a
434.0885	0.06	868177	keystroke_i	i	n/a
434.2535	0.06	868507	keystroke_n	n	n/a
434.3735	0.06	868747	keystroke_t	t	n/a
434.5085	0.15	869017	keystroke_e	e	n/a
434.6135	0.09	869227	keystroke_r	r	n/a
434.7785	0.075	869557	keystroke_i	i	n/a
434.9885	0.06	869977	keystroke_o	o	n/a
435.0785	0.075	870157	keystroke_r	r	n/a
435.7235	0.045	871447	keystroke_Key.space	Key.space	n/a
435.9635	0.06	871927	keystroke_h	h	n/a
436.0535	0.09	872107	keystroke_a	a	n/a
436.1885	0.06	872377	keystroke_n	n	n/a
436.3085	0.075	872617	keystroke_d	d	n/a
436.4435	0.06	872887	keystroke_l	l	n/a
436.5785	0.06	873157	keystroke_e	e	n/a
436.7585	0.06	873517	keystroke_d	d	n/a
437.254	0.06	874508	keystroke_Key.enter	Key.enter	n/a
437.3255	8.54	874651	prompt	n/a	burn documented fever control\n
438.229	0.074	876458	keystroke_b	b	n/a
438.349	0.075	876698	keystroke_u	u	n/a
438.5135	0.06	877027	keystroke_r	r	n/a
438.6035	0.09	877207	keystroke_n	n	n/a
438.8735	0.03	877747	keystroke_Key.space	Key.space	n/a
439.3685	0.015	878737	keystroke_d	d	n/a
439.4435	0.06	878887	keystroke_o	o	n/a
439.5335	0.105	879067	keystroke_c	c	n/a
439.6685	0.06	879337	keystroke_u	u	n/a
439.863	0.06	879726	keystroke_m	m	n/a
439.939	0.074	879878	keystroke_e	e	n/a
440.074	0.059	880148	keystroke_n	n	n/a
440.178	0.075	880356	keystroke_t	t	n/a
440.328	0.091	880656	keystroke_a	a	n/a
440.568	0.076	881136	keystroke_e	e	n/a
441.063	0.03	882126	keystroke_Key.backspace	Key.backspace	n/a
442.2185	0.06	884437	keystroke_Key.backspace	Key.backspace	n/a
442.759	0.075	885518	keystroke_e	e	n/a
442.969	0.06	885938	keystroke_d	d	n/a
443.209	0.045	886418	keystroke_Key.space	Key.space	n/a
443.539	0.075	887078	keystroke_f	f	n/a
443.734	0.06	887468	keystroke_e	e	n/a
443.914	0.0745	887828	keystroke_v	v	n/a
444.0935	0.12	888187	keystroke_e	e	n/a
444.1835	0.075	888367	keystroke_r	r	n/a
444.3635	0.06	888727	keystroke_Key.space	Key.space	n/a
444.5135	0.09	889027	keystroke_c	c	n/a
444.5885	0.075	889177	keystroke_o	o	n/a
444.7835	0.045	889567	keystroke_n	n	n/a
444.8735	0.06	889747	keystroke_t	t	n/a
445.0835	0.06	890167	keystroke_r	r	n/a
445.2185	0.06	890437	keystroke_o	o	n/a
445.3835	0.06	890767	keystroke_l	l	n/a
445.8185	0.045	891637	keystroke_Key.enter	Key.enter	n/a
445.8755	13.8665	891751	prompt	n/a	christina london infection carrying\n
446.6285	0.0755	893257	keystroke_c	c	n/a
446.749	0.074	893498	keystroke_h	h	n/a
446.914	0.09	893828	keystroke_s	s	n/a
447.033	0.06	894066	keystroke_i	i	n/a
447.199	0.06	894398	keystroke_t	t	n/a
447.4235	0.0755	894847	keystroke_a	a	n/a
447.7835	0.045	895567	keystroke_i	i	n/a
447.9635	0.06	895927	keystroke_n	n	n/a
448.069	0.075	896138	keystroke_a	a	n/a
448.249	0.06	896498	keystroke_Key.space	Key.space	n/a
448.474	0.03	896948	keystroke_o	o	n/a
449.284	0.045	898568	keystroke_Key.backspace	Key.backspace	n/a
449.4485	0.06	898897	keystroke_Key.backspace	Key.backspace	n/a
449.614	0.06	899228	keystroke_Key.backspace	Key.backspace	n/a
449.7935	0.0605	899587	keystroke_Key.backspace	Key.backspace	n/a
449.9585	0.06	899917	keystroke_Key.backspace	Key.backspace	n/a
450.1385	0.045	900277	keystroke_Key.backspace	Key.backspace	n/a
450.319	0.06	900638	keystroke_Key.backspace	Key.backspace	n/a
451.6985	0.06	903397	keystroke_Key.backspace	Key.backspace	n/a
451.8635	0.06	903727	keystroke_Key.backspace	Key.backspace	n/a
452.0585	0.09	904117	keystroke_r	r	n/a
452.3135	0.075	904627	keystroke_i	i	n/a
452.4935	0.06	904987	keystroke_s	s	n/a
453.769	0.06	907538	keystroke_t	t	n/a
453.859	0.06	907718	keystroke_i	i	n/a
454.009	0.075	908018	keystroke_n	n	n/a
454.114	0.075	908228	keystroke_a	a	n/a
454.219	0.075	908438	keystroke_Key.space	Key.space	n/a
454.4435	0.06	908887	keystroke_l	l	n/a
454.6235	0.0455	909247	keystroke_o	o	n/a
454.774	0.06	909548	keystroke_n	n	n/a
454.8935	0.06	909787	keystroke_d	d	n/a
454.9835	0.075	909967	keystroke_o	o	n/a
455.1485	0.075	910297	keystroke_n	n	n/a
455.3435	0.046	910687	keystroke_Key.space	Key.space	n/a
455.6285	0.03	911257	keystroke_i	i	n/a
455.7635	0.06	911527	keystroke_n	n	n/a
455.8835	0.06	911767	keystroke_f	f	n/a
456.0635	0.075	912127	keystroke_e	e	n/a
456.2295	0.089	912459	keystroke_c	c	n/a
456.4835	0.045	912967	keystroke_t	t	n/a
456.5735	0.105	913147	keystroke_i	i	n/a
456.6185	0.09	913237	keystroke_o	o	n/a
456.7535	0.105	913507	keystroke_n	n	n/a
457.7285	0.045	915457	keystroke_Key.space	Key.space	n/a
458.1635	0.075	916327	keystroke_c	c	n/a
458.3435	0.075	916687	keystroke_a	a	n/a
458.5085	0.075	917017	keystroke_r	r	n/a
458.6735	0.06	917347	keystroke_r	r	n/a
458.8835	0.06	917767	keystroke_y	y	n/a
459.124	0.06	918248	keystroke_i	i	n/a
459.259	0.075	918518	keystroke_n	n	n/a
459.349	0.075	918698	keystroke_g	g	n/a
459.679	0.06	919358	keystroke_Key.enter	Key.enter	n/a
459.7515	11.345	919503	prompt	n/a	often champagne spaces athletic\n
460.579	0.075	921158	keystroke_o	o	n/a
460.684	0.09	921368	keystroke_f	f	n/a
460.924	0.12	921848	keystroke_t	t	n/a
461.029	0.09	922058	keystroke_e	e	n/a
461.284	0.0755	922568	keystroke_n	n	n/a
461.4635	0.075	922927	keystroke_Key.space	Key.space	n/a
461.779	0.075	923558	keystroke_c	c	n/a
461.899	0.045	923798	keystroke_h	h	n/a
462.049	0.075	924098	keystroke_a	a	n/a
462.454	0.075	924908	keystroke_m	m	n/a
462.9045	0.074	925809	keystroke_p	p	n/a
463.0235	0.135	926047	keystroke_a	a	n/a
463.1435	0.12	926287	keystroke_g	g	n/a
463.654	0.06	927308	keystroke_n	n	n/a
463.804	0.0595	927608	keystroke_e	e	n/a
463.9685	0.06	927937	keystroke_Key.space	Key.space	n/a
464.5835	0.09	929167	keystroke_s	s	n/a
464.8085	0.03	929617	keystroke_c	c	n/a
465.2585	0.045	930517	keystroke_Key.backspace	Key.backspace	n/a
465.4685	0.075	930937	keystroke_p	p	n/a
465.6785	0.1355	931357	keystroke_a	a	n/a
465.799	0.165	931598	keystroke_c	c	n/a
465.934	0.105	931868	keystroke_e	e	n/a
466.174	0.09	932348	keystroke_s	s	n/a
466.519	0.06	933038	keystroke_Key.space	Key.space	n/a
466.909	0.075	933818	keystroke_a	a	n/a
467.134	0.06	934268	keystroke_t	t	n/a
467.254	0.06	934508	keystroke_h	h	n/a
468.3045	0.06	936609	keystroke_l	l	n/a
468.5745	0.105	937149	keystroke_e	e	n/a
468.7395	0.075	937479	keystroke_t	t	n/a
468.9345	0.045	937869	keystroke_i	i	n/a
469.0545	0.105	938109	keystroke_c	c	n/a
469.2195	0.06	938439	keystroke_Key.space	Key.space	n/a
471.0345	0.06	942069	keystroke_Key.enter	Key.enter	n/a
471.1065	17.45	942213	prompt	n/a	episode dividend honduras cooperation\n
471.949	0.06	943898	keystroke_e	e	n/a
472.084	0.03	944168	keystroke_p	p	n/a
472.249	0.09	944498	keystroke_i	i	n/a
472.504	0.06	945008	keystroke_o	o	n/a
472.6545	0.074	945309	keystroke_s	s	n/a
473.3135	0.045	946627	keystroke_Key.backspace	Key.backspace	n/a
473.4635	0.06	946927	keystroke_Key.backspace	Key.backspace	n/a
473.6595	0.06	947319	keystroke_o	o	n/a
473.7345	0.0745	947469	keystroke_s	s	n/a
474.4245	0.09	948849	keystroke_d	d	n/a
474.5295	0.06	949059	keystroke_e	e	n/a
474.7395	0.045	949479	keystroke_Key.space	Key.space	n/a
476.0895	0.06	952179	keystroke_d	d	n/a
476.4345	0.075	952869	keystroke_v	v	n/a
476.9595	0.045	953919	keystroke_Key.backspace	Key.backspace	n/a
477.1395	0.075	954279	keystroke_i	i	n/a
477.2745	0.06	954549	keystroke_v	v	n/a
478.804	0.06	957608	keystroke_i	i	n/a
479.014	0.06	958028	keystroke_d	d	n/a
479.209	0.075	958418	keystroke_e	e	n/a
479.359	0.0605	958718	keystroke_n	n	n/a
479.4945	0.0755	958989	keystroke_d	d	n/a
479.629	0.0595	959258	keystroke_Key.space	Key.space	n/a
480.2895	0.045	960579	keystroke_h	h	n/a
480.4995	0.0605	960999	keystroke_o	o	n/a
480.665	0.0745	961330	keystroke_n	n	n/a
481.1295	0.09	962259	keystroke_d	d	n/a
481.2645	0.06	962529	keystroke_u	u	n/a
481.4895	0.105	962979	keystroke_r	r	n/a
481.6245	0.09	963249	keystroke_a	a	n/a
481.954	0.076	963908	keystroke_s	s	n/a
482.164	0.075	964328	keystroke_Key.space	Key.space	n/a
482.7495	0.075	965499	keystroke_c	c	n/a
482.8845	0.075	965769	keystroke_o	o	n/a
483.0645	0.06	966129	keystroke_p	p	n/a
483.2295	0.0595	966459	keystroke_p	p	n/a
483.38	0.104	966760	keystroke_e	e	n/a
483.454	0.09	966908	keystroke_r	r	n/a
484.429	0.06	968858	keystroke_Key.backspace	Key.backspace	n/a
484.594	0.06	969188	keystroke_Key.backspace	Key.backspace	n/a
484.759	0.045	969518	keystroke_Key.backspace	Key.backspace	n/a
484.9095	0.06	969819	keystroke_Key.backspace	Key.backspace	n/a
485.1645	0.075	970329	keystroke_o	o	n/a
485.2845	0.105	970569	keystroke_p	p	n/a
486.8745	0.12	973749	keystroke_e	e	n/a
486.9645	0.06	973929	keystroke_r	r	n/a
487.1145	0.105	974229	keystroke_a	a	n/a
487.2345	0.075	974469	keystroke_t	t	n/a
487.3545	0.09	974709	keystroke_i	i	n/a
487.4295	0.075	974859	keystroke_o	o	n/a
487.5645	0.075	975129	keystroke_n	n	n/a
488.4945	0.06	976989	keystroke_Key.enter	Key.enter	n/a
488.567	16.985	977134	prompt	n/a	terrorism quantitative legacy laptops\n
489.5895	0.06	979179	keystroke_t	t	n/a
489.784	0.105	979568	keystroke_e	e	n/a
489.86	0.089	979720	keystroke_r	r	n/a
490.054	0.076	980108	keystroke_r	r	n/a
490.6995	0.045	981399	keystroke_o	o	n/a
490.8795	0.075	981759	keystroke_s	s	n/a
491.7795	0.075	983559	keystroke_Key.backspace	Key.backspace	n/a
492.0195	0.06	984039	keystroke_o	o	n/a
492.3345	0.06	984669	keystroke_Key.backspace	Key.backspace	n/a
492.4845	0.06	984969	keystroke_r	r	n/a
492.845	0.06	985690	keystroke_i	i	n/a
492.995	0.075	985990	keystroke_s	s	n/a
493.13	0.075	986260	keystroke_m	m	n/a
493.325	0.06	986650	keystroke_Key.space	Key.space	n/a
493.55	0.075	987100	keystroke_q	q	n/a
493.7	0.06	987400	keystroke_u	u	n/a
494.0895	0.075	988179	keystroke_a	a	n/a
494.2095	0.06	988419	keystroke_n	n	n/a
494.42	0.06	988840	keystroke_t	t	n/a
494.57	0.045	989140	keystroke_i	i	n/a
494.735	0.06	989470	keystroke_v	v	n/a
494.855	0.045	989710	keystroke_i	i	n/a
496.505	0.075	993010	keystroke_Key.backspace	Key.backspace	n/a
496.7	0.06	993400	keystroke_Key.backspace	Key.backspace	n/a
497.03	0.06	994060	keystroke_t	t	n/a
497.8245	0.105	995649	keystroke_a	a	n/a
498.0345	0.06	996069	keystroke_t	t	n/a
498.1695	0.075	996339	keystroke_i	i	n/a
498.2895	0.075	996579	keystroke_v	v	n/a
498.5145	0.06	997029	keystroke_e	e	n/a
499.0695	0.06	998139	keystroke_Key.space	Key.space	n/a
499.3095	0.06	998619	keystroke_l	l	n/a
499.7595	0.0755	999519	keystroke_g	g	n/a
500.4195	0.09	1000839	keystroke_a	a	n/a
501.395	0.0595	1002790	keystroke_Key.backspace	Key.backspace	n/a
501.574	0.0605	1003148	keystroke_Key.backspace	Key.backspace	n/a
501.665	0.075	1003330	keystroke_e	e	n/a
502.0695	0.075	1004139	keystroke_g	g	n/a
502.2505	0.135	1004501	keystroke_a	a	n/a
502.3705	0.09	1004741	keystroke_c	c	n/a
502.6405	0.074	1005281	keystroke_y	y	n/a
503.0445	0.06	1006089	keystroke_Key.space	Key.space	n/a
503.45	0.075	1006900	keystroke_l	l	n/a
503.54	0.075	1007080	keystroke_a	a	n/a
503.9745	0.06	1007949	keystroke_p	p	n/a
504.1995	0.06	1008399	keystroke_t	t	n/a
504.3495	0.12	1008699	keystroke_o	o	n/a
504.4245	0.09	1008849	keystroke_p	p	n/a
505.3245	0.075	1010649	keystroke_s	s	n/a
505.4745	0.075	1010949	keystroke_Key.enter	Key.enter	n/a
505.5615	13.3105	1011123	prompt	n/a	giant verizon dump reference\n
506.5855	0.06	1013171	keystroke_g	g	n/a
506.7355	0.045	1013471	keystroke_i	i	n/a
506.8855	0.075	1013771	keystroke_a	a	n/a
507.05	0.0305	1014100	keystroke_n	n	n/a
507.2905	0.0595	1014581	keystroke_t	t	n/a
508.46	0.06	1016920	keystroke_Key.space	Key.space	n/a
508.73	0.075	1017460	keystroke_v	v	n/a
508.94	0.1345	1017880	keystroke_e	e	n/a
508.9995	0.09	1017999	keystroke_r	r	n/a
510.41	0.09	1020820	keystroke_z	z	n/a
510.545	0.12	1021090	keystroke_i	i	n/a
510.635	0.075	1021270	keystroke_o	o	n/a
510.8	0.075	1021600	keystroke_n	n	n/a
511.01	0.06	1022020	keystroke_Key.space	Key.space	n/a
512.345	0.06	1024690	keystroke_Key.backspace	Key.backspace	n/a
512.51	0.06	1025020	keystroke_Key.backspace	Key.backspace	n/a
512.675	0.06	1025350	keystroke_Key.backspace	Key.backspace	n/a
512.825	0.06	1025650	keystroke_Key.backspace	Key.backspace	n/a
513.32	0.0595	1026640	keystroke_Key.backspace	Key.backspace	n/a
513.545	0.075	1027090	keystroke_i	i	n/a
513.725	0.075	1027450	keystroke_z	z	n/a
513.86	0.06	1027720	keystroke_o	o	n/a
514.04	0.075	1028080	keystroke_n	n	n/a
514.235	0.06	1028470	keystroke_Key.space	Key.space	n/a
514.685	0.015	1029370	keystroke_d	d	n/a
515.075	0.06	1030150	keystroke_u	u	n/a
515.285	0.06	1030570	keystroke_m	m	n/a
515.48	0.045	1030960	keystroke_p	p	n/a
515.7345	0.0455	1031469	keystroke_Key.space	Key.space	n/a
516.7395	0.09	1033479	keystroke_r	r	n/a
516.8895	0.0755	1033779	keystroke_e	e	n/a
517.49	0.045	1034980	keystroke_f	f	n/a
517.6695	0.1055	1035339	keystroke_e	e	n/a
517.7595	0.1505	1035519	keystroke_r	r	n/a
517.88	0.09	1035760	keystroke_e	e	n/a
518.045	0.075	1036090	keystroke_n	n	n/a
518.165	0.135	1036330	keystroke_c	c	n/a
518.255	0.09	1036510	keystroke_e	e	n/a
518.81	0.06	1037620	keystroke_Key.enter	Key.enter	n/a
518.8815	8.0445	1037763	prompt	n/a	constraints paper sufficiently emails\n
519.665	0.075	1039330	keystroke_c	c	n/a
519.725	0.06	1039450	keystroke_o	o	n/a
519.905	0.06	1039810	keystroke_n	n	n/a
520.16	0.06	1040320	keystroke_t	t	n/a
520.55	0.06	1041100	keystroke_Key.backspace	Key.backspace	n/a
520.64	0.075	1041280	keystroke_s	s	n/a
520.745	0.09	1041490	keystroke_t	t	n/a
520.97	0.135	1041940	keystroke_r	r	n/a
521.09	0.09	1042180	keystroke_a	a	n/a
521.285	0.06	1042570	keystroke_i	i	n/a
521.45	0.06	1042900	keystroke_n	n	n/a
521.525	0.045	1043050	keystroke_t	t	n/a
521.6745	0.0905	1043349	keystroke_s	s	n/a
521.8255	0.06	1043651	keystroke_Key.space	Key.space	n/a
522.0805	0.0745	1044161	keystroke_p	p	n/a
522.2	0.075	1044400	keystroke_a	a	n/a
522.32	0.06	1044640	keystroke_p	p	n/a
522.455	0.135	1044910	keystroke_e	e	n/a
522.545	0.09	1045090	keystroke_r	r	n/a
522.71	0.06	1045420	keystroke_Key.space	Key.space	n/a
522.86	0.09	1045720	keystroke_s	s	n/a
523.024	0.045	1046048	keystroke_u	u	n/a
523.175	0.044	1046350	keystroke_f	f	n/a
523.339	0.076	1046678	keystroke_f	f	n/a
523.91	0.059	1047820	keystroke_i	i	n/a
524.224	0.076	1048448	keystroke_c	c	n/a
524.39	0.06	1048780	keystroke_i	i	n/a
524.585	0.074	1049170	keystroke_e	e	n/a
524.749	0.046	1049498	keystroke_n	n	n/a
524.884	0.061	1049768	keystroke_t	t	n/a
525.0045	0.075	1050009	keystroke_l	l	n/a
525.1545	0.075	1050309	keystroke_y	y	n/a
525.3045	0.06	1050609	keystroke_Key.space	Key.space	n/a
525.4995	0.06	1050999	keystroke_e	e	n/a
525.6045	0.06	1051209	keystroke_m	m	n/a
525.7545	0.075	1051509	keystroke_a	a	n/a
525.8145	0.06	1051629	keystroke_i	i	n/a
525.9945	0.06	1051989	keystroke_l	l	n/a
526.1595	0.09	1052319	keystroke_s	s	n/a
526.8645	0.06	1053729	keystroke_Key.enter	Key.enter	n/a
526.9285	10.6485	1053857	prompt	n/a	contest literature walks everyone's\n
527.63	0.105	1055260	keystroke_c	c	n/a
527.72	0.09	1055440	keystroke_o	o	n/a
527.885	0.075	1055770	keystroke_n	n	n/a
528.02	0.09	1056040	keystroke_t	t	n/a
528.229	0.121	1056458	keystroke_s	s	n/a
528.35	0.09	1056700	keystroke_e	e	n/a
528.485	0.09	1056970	keystroke_t	t	n/a
528.8895	0.06	1057779	keystroke_Key.backspace	Key.backspace	n/a
529.055	0.0595	1058110	keystroke_Key.backspace	Key.backspace	n/a
529.2195	0.06	1058439	keystroke_Key.backspace	Key.backspace	n/a
529.3245	0.105	1058649	keystroke_e	e	n/a
529.3695	0.15	1058739	keystroke_s	s	n/a
529.4745	0.105	1058949	keystroke_t	t	n/a
529.7445	0.045	1059489	keystroke_Key.space	Key.space	n/a
530.405	0.06	1060810	keystroke_l	l	n/a
530.5845	0.045	1061169	keystroke_i	i	n/a
530.6745	0.0605	1061349	keystroke_t	t	n/a
530.84	0.15	1061680	keystroke_e	e	n/a
530.945	0.105	1061890	keystroke_r	r	n/a
531.1395	0.09	1062279	keystroke_a	a	n/a
531.2745	0.075	1062549	keystroke_t	t	n/a
531.4245	0.06	1062849	keystroke_u	u	n/a
531.5295	0.135	1063059	keystroke_r	r	n/a
531.6345	0.105	1063269	keystroke_e	e	n/a
531.8	0.06	1063600	keystroke_Key.space	Key.space	n/a
532.25	0.075	1064500	keystroke_w	w	n/a
532.595	0.105	1065190	keystroke_a	a	n/a
532.79	0.105	1065580	keystroke_l	l	n/a
532.88	0.09	1065760	keystroke_k	k	n/a
533.4195	0.075	1066839	keystroke_s	s	n/a
533.5545	0.06	1067109	keystroke_Key.space	Key.space	n/a
533.8695	0.0755	1067739	keystroke_e	e	n/a
534.08	0.06	1068160	keystroke_v	v	n/a
534.23	0.135	1068460	keystroke_e	e	n/a
534.32	0.09	1068640	keystroke_r	r	n/a
535.1145	0.075	1070229	keystroke_y	y	n/a
535.2645	0.075	1070529	keystroke_o	o	n/a
535.4595	0.075	1070919	keystroke_n	n	n/a
535.5645	0.06	1071129	keystroke_e	e	n/a
536.27	0.059	1072540	keystroke_'	'	n/a
536.419	0.09	1072838	keystroke_s	s	n/a
537.499	0.076	1074998	keystroke_Key.enter	Key.enter	n/a
537.589	5.597	1075178	prompt	n/a	cruz dear oral elections\n
538.3995	0.09	1076799	keystroke_c	c	n/a
538.6395	0.06	1077279	keystroke_r	r	n/a
538.775	0.075	1077550	keystroke_u	u	n/a
538.91	0.075	1077820	keystroke_z	z	n/a
539.03	0.06	1078060	keystroke_Key.space	Key.space	n/a
539.21	0.06	1078420	keystroke_d	d	n/a
539.4045	0.105	1078809	keystroke_e	e	n/a
539.4945	0.135	1078989	keystroke_a	a	n/a
539.5995	0.09	1079199	keystroke_r	r	n/a
539.7645	0.0605	1079529	keystroke_Key.space	Key.space	n/a
539.96	0.075	1079920	keystroke_o	o	n/a
540.095	0.075	1080190	keystroke_r	r	n/a
540.29	0.075	1080580	keystroke_a	a	n/a
540.41	0.06	1080820	keystroke_l	l	n/a
540.575	0.045	1081150	keystroke_Key.space	Key.space	n/a
540.7995	0.075	1081599	keystroke_d	d	n/a
541.0245	0.06	1082049	keystroke_e	e	n/a
541.3245	0.06	1082649	keystroke_Key.backspace	Key.backspace	n/a
541.4745	0.06	1082949	keystroke_Key.backspace	Key.backspace	n/a
541.6995	0.075	1083399	keystroke_e	e	n/a
541.8195	0.06	1083639	keystroke_l	l	n/a
541.9395	0.075	1083879	keystroke_e	e	n/a
542.1495	0.075	1084299	keystroke_c	c	n/a
542.3745	0.045	1084749	keystroke_t	t	n/a
542.4195	0.135	1084839	keystroke_i	i	n/a
542.4945	0.09	1084989	keystroke_o	o	n/a
542.6295	0.09	1085259	keystroke_n	n	n/a
542.8845	0.075	1085769	keystroke_s	s	n/a
543.1245	0.0605	1086249	keystroke_Key.enter	Key.enter	n/a
543.1885	12.1025	1086377	prompt	n/a	harvey abortion inventory distinction\n
543.9945	0.06	1087989	keystroke_h	h	n/a
544.0995	0.105	1088199	keystroke_a	a	n/a
544.1745	0.09	1088349	keystroke_r	r	n/a
544.4145	0.075	1088829	keystroke_v	v	n/a
544.6095	0.075	1089219	keystroke_e	e	n/a
544.7145	0.075	1089429	keystroke_y	y	n/a
544.91	0.0595	1089820	keystroke_Key.space	Key.space	n/a
545.0595	0.0755	1090119	keystroke_a	a	n/a
545.24	0.075	1090480	keystroke_b	b	n/a
545.405	0.06	1090810	keystroke_o	o	n/a
547.145	0.074	1094290	keystroke_r	r	n/a
547.369	0.061	1094738	keystroke_t	t	n/a
547.609	0.045	1095218	keystroke_i	i	n/a
547.745	0.075	1095490	keystroke_a	a	n/a
548.4345	0.075	1096869	keystroke_Key.backspace	Key.backspace	n/a
548.839	0.075	1097678	keystroke_o	o	n/a
549.034	0.06	1098068	keystroke_n	n	n/a
549.1985	0.046	1098397	keystroke_Key.space	Key.space	n/a
549.739	0.061	1099478	keystroke_i	i	n/a
549.905	0.06	1099810	keystroke_n	n	n/a
549.995	0.075	1099990	keystroke_v	v	n/a
550.19	0.0745	1100380	keystroke_e	e	n/a
550.31	0.0595	1100620	keystroke_n	n	n/a
550.4445	0.0745	1100889	keystroke_t	t	n/a
550.579	0.06	1101158	keystroke_o	o	n/a
550.684	0.0595	1101368	keystroke_r	r	n/a
550.894	0.06	1101788	keystroke_y	y	n/a
551.0885	0.06	1102177	keystroke_Key.space	Key.space	n/a
551.6585	0.06	1103317	keystroke_d	d	n/a
551.7485	0.0605	1103497	keystroke_i	i	n/a
551.869	0.074	1103738	keystroke_s	s	n/a
552.1695	0.074	1104339	keystroke_t	t	n/a
552.2745	0.06	1104549	keystroke_i	i	n/a
552.4395	0.09	1104879	keystroke_n	n	n/a
552.6795	0.06	1105359	keystroke_c	c	n/a
552.9045	0.0595	1105809	keystroke_t	t	n/a
552.9935	0.106	1105987	keystroke_i	i	n/a
553.0685	0.075	1106137	keystroke_o	o	n/a
553.2335	0.075	1106467	keystroke_n	n	n/a
555.229	0.06	1110458	keystroke_Key.enter	Key.enter	n/a
555.301	14.84	1110602	prompt	n/a	meaningful different distinct turner\n
556.069	0.06	1112138	keystroke_m	m	n/a
556.159	0.09	1112318	keystroke_e	e	n/a
556.354	0.105	1112708	keystroke_a	a	n/a
556.504	0.06	1113008	keystroke_n	n	n/a
556.729	0.06	1113458	keystroke_g	g	n/a
556.9545	0.045	1113909	keystroke_i	i	n/a
557.1185	0.076	1114237	keystroke_n	n	n/a
557.2245	0.075	1114449	keystroke_g	g	n/a
557.6745	0.075	1115349	keystroke_f	f	n/a
557.779	0.06	1115558	keystroke_u	u	n/a
558.319	0.075	1116638	keystroke_Key.backspace	Key.backspace	n/a
558.499	0.06	1116998	keystroke_Key.backspace	Key.backspace	n/a
558.664	0.06	1117328	keystroke_Key.backspace	Key.backspace	n/a
558.844	0.045	1117688	keystroke_Key.backspace	Key.backspace	n/a
558.9945	0.045	1117989	keystroke_Key.backspace	Key.backspace	n/a
559.1445	0.06	1118289	keystroke_f	f	n/a
559.2495	0.06	1118499	keystroke_u	u	n/a
559.4595	0.06	1118919	keystroke_l	l	n/a
560.404	0.06	1120808	keystroke_Key.backspace	Key.backspace	n/a
560.584	0.045	1121168	keystroke_Key.backspace	Key.backspace	n/a
560.749	0.06	1121498	keystroke_Key.backspace	Key.backspace	n/a
560.914	0.06	1121828	keystroke_Key.backspace	Key.backspace	n/a
561.109	0.045	1122218	keystroke_Key.backspace	Key.backspace	n/a
561.814	0.015	1123628	keystroke_n	n	n/a
562.024	0.06	1124048	keystroke_i	i	n/a
562.174	0.075	1124348	keystroke_n	n	n/a
562.294	0.06	1124588	keystroke_g	g	n/a
562.534	0.0755	1125068	keystroke_f	f	n/a
562.6545	0.03	1125309	keystroke_u	u	n/a
562.8345	0.0745	1125669	keystroke_l	l	n/a
563.029	0.045	1126058	keystroke_Key.space	Key.space	n/a
563.2235	0.061	1126447	keystroke_d	d	n/a
563.3145	0.059	1126629	keystroke_i	i	n/a
563.4335	0.06	1126867	keystroke_f	f	n/a
563.6135	0.061	1127227	keystroke_f	f	n/a
563.794	0.09	1127588	keystroke_e	e	n/a
563.869	0.1195	1127738	keystroke_r	r	n/a
563.974	0.0745	1127948	keystroke_e	e	n/a
564.1235	0.075	1128247	keystroke_n	n	n/a
564.2595	0.06	1128519	keystroke_t	t	n/a
564.3945	0.06	1128789	keystroke_Key.space	Key.space	n/a
564.739	0.06	1129478	keystroke_d	d	n/a
564.829	0.045	1129658	keystroke_i	i	n/a
564.949	0.0895	1129898	keystroke_s	s	n/a
565.3235	0.06	1130647	keystroke_t	t	n/a
565.4435	0.03	1130887	keystroke_i	i	n/a
565.5935	0.06	1131187	keystroke_n	n	n/a
565.744	0.09	1131488	keystroke_c	c	n/a
566.044	0.075	1132088	keystroke_t	t	n/a
567.0485	0.06	1134097	keystroke_Key.space	Key.space	n/a
567.3785	0.075	1134757	keystroke_t	t	n/a
568.039	0.075	1136078	keystroke_r	r	n/a
568.429	0.044	1136858	keystroke_Key.backspace	Key.backspace	n/a
568.609	0.06	1137218	keystroke_u	u	n/a
568.744	0.0605	1137488	keystroke_r	r	n/a
568.9095	0.0595	1137819	keystroke_n	n	n/a
569.359	0.135	1138718	keystroke_e	e	n/a
569.434	0.09	1138868	keystroke_r	r	n/a
570.079	0.06	1140158	keystroke_Key.enter	Key.enter	n/a
570.1505	11.9305	1140301	prompt	n/a	lunch refinance tactics october\n
570.8885	0.06	1141777	keystroke_l	l	n/a
571.0535	0.045	1142107	keystroke_u	u	n/a
571.2185	0.075	1142437	keystroke_n	n	n/a
571.3385	0.06	1142677	keystroke_c	c	n/a
571.4135	0.075	1142827	keystroke_h	h	n/a
571.6085	0.06	1143217	keystroke_Key.space	Key.space	n/a
572.449	0.12	1144898	keystroke_r	r	n/a
572.539	0.09	1145078	keystroke_e	e	n/a
573.064	0.075	1146128	keystroke_f	f	n/a
573.4685	0.06	1146937	keystroke_Key.backspace	Key.backspace	n/a
573.784	0.075	1147568	keystroke_f	f	n/a
574.024	0.03	1148048	keystroke_i	i	n/a
574.249	0.045	1148498	keystroke_n	n	n/a
574.369	0.09	1148738	keystroke_a	a	n/a
574.474	0.06	1148948	keystroke_n	n	n/a
574.684	0.135	1149368	keystroke_c	c	n/a
574.804	0.075	1149608	keystroke_e	e	n/a
575.0285	0.06	1150057	keystroke_Key.space	Key.space	n/a
575.2385	0.076	1150477	keystroke_t	t	n/a
575.4485	0.15	1150897	keystroke_a	a	n/a
575.5535	0.105	1151107	keystroke_c	c	n/a
575.8835	0.045	1151767	keystroke_i	i	n/a
576.0335	0.075	1152067	keystroke_c	c	n/a
576.2585	0.06	1152517	keystroke_s	s	n/a
576.3935	0.06	1152787	keystroke_Key.space	Key.space	n/a
576.919	0.075	1153838	keystroke_Key.backspace	Key.backspace	n/a
577.099	0.074	1154198	keystroke_Key.backspace	Key.backspace	n/a
577.279	0.0595	1154558	keystroke_Key.backspace	Key.backspace	n/a
577.4745	0.06	1154949	keystroke_Key.backspace	Key.backspace	n/a
578.209	0.06	1156418	keystroke_t	t	n/a
578.464	0.045	1156928	keystroke_i	i	n/a
578.674	0.12	1157348	keystroke_c	c	n/a
578.779	0.09	1157558	keystroke_s	s	n/a
579.004	0.045	1158008	keystroke_Key.space	Key.space	n/a
579.574	0.075	1159148	keystroke_o	o	n/a
580.024	0.075	1160048	keystroke_c	c	n/a
580.2485	0.06	1160497	keystroke_t	t	n/a
580.3985	0.045	1160797	keystroke_o	o	n/a
580.894	0.0895	1161788	keystroke_b	b	n/a
581.2985	0.136	1162597	keystroke_e	e	n/a
581.4045	0.089	1162809	keystroke_r	r	n/a
