onset	duration	sample	value	key	prompt_text
16.6835	14.089	33367	prompt	n/a	the quick brown fox jumps over a lazy dog\n
18.3075	0.057	36615	keystroke_t	t	n/a
18.4085	0.075	36817	keystroke_h	h	n/a
18.5585	0.106	37117	keystroke_e	e	n/a
18.6785	0.135	37357	keystroke_Key.space	Key.space	n/a
19.1145	0.135	38229	keystroke_q	q	n/a
19.2195	0.075	38439	keystroke_u	u	n/a
19.4145	0.09	38829	keystroke_i	i	n/a
19.5645	0.105	39129	keystroke_c	c	n/a
19.6845	0.074	39369	keystroke_k	k	n/a
19.8495	0.075	39699	keystroke_Key.space	Key.space	n/a
21.1985	0.076	42397	keystroke_b	b	n/a
21.4395	0.105	42879	keystroke_r	r	n/a
21.5895	0.12	43179	keystroke_o	o	n/a
21.7245	0.105	43449	keystroke_w	w	n/a
21.8895	0.075	43779	keystroke_n	n	n/a
22.1585	0.106	44317	keystroke_Key.space	Key.space	n/a
22.7445	0.06	45489	keystroke_j	j	n/a
22.9385	0.076	45877	keystroke_u	u	n/a
23.8985	0.09	47797	keystroke_Key.backspace	Key.backspace	n/a
24.0635	0.12	48127	keystroke_Key.backspace	Key.backspace	n/a
25.0545	0.12	50109	keystroke_f	f	n/a
25.2195	0.105	50439	keystroke_o	o	n/a
25.3545	0.15	50709	keystroke_x	x	n/a
25.4895	0.135	50979	keystroke_Key.space	Key.space	n/a
26.554	0.075	53108	keystroke_j	j	n/a
26.734	0.045	53468	keystroke_u	u	n/a
26.899	0.0905	53798	keystroke_m	m	n/a
27.034	0.1055	54068	keystroke_p	p	n/a
27.1845	0.1345	54369	keystroke_s	s	n/a
27.334	0.105	54668	keystroke_Key.space	Key.space	n/a
27.604	0.105	55208	keystroke_o	o	n/a
27.754	0.075	55508	keystroke_v	v	n/a
27.889	0.165	55778	keystroke_e	e	n/a
27.994	0.135	55988	keystroke_r	r	n/a
28.099	0.12	56198	keystroke_Key.space	Key.space	n/a
28.8495	0.18	57699	keystroke_a	a	n/a
28.9695	0.119	57939	keystroke_Key.space	Key.space	n/a
29.1345	0.135	58269	keystroke_l	l	n/a
29.2395	0.104	58479	keystroke_a	a	n/a
29.4645	0.135	58929	keystroke_z	z	n/a
29.5845	0.06	59169	keystroke_y	y	n/a
29.7035	0.136	59407	keystroke_Key.space	Key.space	n/a
30.0035	0.106	60007	keystroke_d	d	n/a
30.0645	0.135	60129	keystroke_o	o	n/a
30.2145	0.074	60429	keystroke_g	g	n/a
30.6945	0.074	61389	keystroke_Key.enter	Key.enter	n/a
30.781	8.3155	61562	prompt	n/a	merchandise melissa camera genuine\n
31.6245	0.075	63249	keystroke_m	m	n/a
31.8785	0.121	63757	keystroke_e	e	n/a
31.9835	0.061	63967	keystroke_r	r	n/a
32.2395	0.105	64479	keystroke_c	c	n/a
32.3145	0.045	64629	keystroke_h	h	n/a
32.4645	0.1645	64929	keystroke_a	a	n/a
32.674	0.061	65348	keystroke_n	n	n/a
33.38	0.104	66760	keystroke_d	d	n/a
33.499	0.105	66998	keystroke_i	i	n/a
34.115	0.15	68230	keystroke_s	s	n/a
34.25	0.089	68500	keystroke_e	e	n/a
34.324	0.105	68648	keystroke_Key.space	Key.space	n/a
34.639	0.09	69278	keystroke_m	m	n/a
34.76	0.09	69520	keystroke_e	e	n/a
34.939	0.106	69878	keystroke_l	l	n/a
35.104	0.105	70208	keystroke_i	i	n/a
35.224	0.075	70448	keystroke_s	s	n/a
35.39	0.105	70780	keystroke_s	s	n/a
35.509	0.195	71018	keystroke_a	a	n/a
35.915	0.119	71830	keystroke_Key.space	Key.space	n/a
36.17	0.075	72340	keystroke_c	c	n/a
36.364	0.12	72728	keystroke_a	a	n/a
36.589	0.076	73178	keystroke_m	m	n/a
36.739	0.09	73478	keystroke_e	e	n/a
36.935	0.12	73870	keystroke_r	r	n/a
37.025	0.165	74050	keystroke_a	a	n/a
37.204	0.105	74408	keystroke_Key.space	Key.space	n/a
37.459	0.075	74918	keystroke_g	g	n/a
37.684	0.09	75368	keystroke_e	e	n/a
37.864	0.075	75728	keystroke_n	n	n/a
38.209	0.06	76418	keystroke_u	u	n/a
38.389	0.075	76778	keystroke_i	i	n/a
38.554	0.075	77108	keystroke_n	n	n/a
38.689	0.091	77378	keystroke_e	e	n/a
39.004	0.09	78008	keystroke_Key.enter	Key.enter	n/a
39.103	7.959	78206	prompt	n/a	extreme peru example corrected\n
39.74	0.059	79480	keystroke_e	e	n/a
39.949	0.091	79898	keystroke_x	x	n/a
40.129	0.091	80258	keystroke_t	t	n/a
40.324	0.121	80648	keystroke_r	r	n/a
40.505	0.104	81010	keystroke_e	e	n/a
40.654	0.09	81308	keystroke_m	m	n/a
40.759	0.091	81518	keystroke_e	e	n/a
40.969	0.135	81938	keystroke_Key.space	Key.space	n/a
41.15	0.135	82300	keystroke_p	p	n/a
41.359	0.15	82718	keystroke_e	e	n/a
41.494	0.106	82988	keystroke_r	r	n/a
41.63	0.089	83260	keystroke_u	u	n/a
42.094	0.12	84188	keystroke_Key.space	Key.space	n/a
42.4095	0.075	84819	keystroke_e	e	n/a
42.6345	0.09	85269	keystroke_x	x	n/a
42.8595	0.135	85719	keystroke_a	a	n/a
42.9795	0.09	85959	keystroke_m	m	n/a
43.1745	0.075	86349	keystroke_p	p	n/a
43.3845	0.09	86769	keystroke_l	l	n/a
43.5345	0.12	87069	keystroke_e	e	n/a
44.4045	0.135	88809	keystroke_Key.space	Key.space	n/a
45.2295	0.135	90459	keystroke_c	c	n/a
45.3045	0.135	90609	keystroke_o	o	n/a
45.5595	0.075	91119	keystroke_r	r	n/a
45.6945	0.135	91389	keystroke_r	r	n/a
45.8145	0.09	91629	keystroke_e	e	n/a
46.0845	0.21	92169	keystroke_c	c	n/a
46.2955	0.194	92591	keystroke_t	t	n/a
46.4295	0.12	92859	keystroke_e	e	n/a
46.6845	0.09	93369	keystroke_d	d	n/a
46.9545	0.105	93909	keystroke_Key.enter	Key.enter	n/a
47.067	11.02	94134	prompt	n/a	contamination home prohibited solving\n
47.7345	0.12	95469	keystroke_c	c	n/a
47.8695	0.09	95739	keystroke_o	o	n/a
47.9895	0.075	95979	keystroke_n	n	n/a
48.0945	0.165	96189	keystroke_t	t	n/a
48.2145	0.165	96429	keystroke_a	a	n/a
48.4995	0.075	96999	keystroke_m	m	n/a
48.6345	0.135	97269	keystroke_i	i	n/a
48.7545	0.075	97509	keystroke_n	n	n/a
48.8595	0.18	97719	keystroke_a	a	n/a
48.9795	0.135	97959	keystroke_t	t	n/a
49.0995	0.105	98199	keystroke_i	i	n/a
49.1895	0.18	98379	keystroke_o	o	n/a
49.2945	0.105	98589	keystroke_n	n	n/a
49.4445	0.12	98889	keystroke_Key.space	Key.space	n/a
49.6095	0.075	99219	keystroke_h	h	n/a
49.7595	0.136	99519	keystroke_o	o	n/a
49.9095	0.075	99819	keystroke_m	m	n/a
50.0445	0.135	100089	keystroke_e	e	n/a
50.1645	0.105	100329	keystroke_Key.space	Key.space	n/a
50.4495	0.075	100899	keystroke_p	p	n/a
50.6595	0.135	101319	keystroke_r	r	n/a
50.7345	0.09	101469	keystroke_o	o	n/a
50.9295	0.06	101859	keystroke_h	h	n/a
51.0795	0.075	102159	keystroke_i	i	n/a
51.3195	0.075	102639	keystroke_b	b	n/a
51.5595	0.075	103119	keystroke_i	i	n/a
51.6495	0.105	103299	keystroke_t	t	n/a
51.7245	0.105	103449	keystroke_e	e	n/a
52.0095	0.105	104019	keystroke_d	d	n/a
52.1445	0.09	104289	keystroke_Key.space	Key.space	n/a
52.8795	0.15	105759	keystroke_s	s	n/a
52.9995	0.075	105999	keystroke_o	o	n/a
53.1795	0.06	106359	keystroke_l	l	n/a
53.3595	0.09	106719	keystroke_o	o	n/a
53.7195	0.09	107439	keystroke_v	v	n/a
53.8245	0.135	107649	keystroke_i	i	n/a
53.8995	0.12	107799	keystroke_n	n	n/a
54.0345	0.105	108069	keystroke_g	g	n/a
54.2745	0.075	108549	keystroke_Key.space	Key.space	n/a
55.2345	0.09	110469	keystroke_Key.backspace	Key.backspace	n/a
55.4595	0.105	110919	keystroke_Key.backspace	Key.backspace	n/a
55.6845	0.09	111369	keystroke_Key.backspace	Key.backspace	n/a
55.9095	0.105	111819	keystroke_Key.backspace	Key.backspace	n/a
56.1495	0.12	112299	keystroke_Key.backspace	Key.backspace	n/a
56.4195	0.12	112839	keystroke_Key.backspace	Key.backspace	n/a
56.9145	0.09	113829	keystroke_v	v	n/a
57.0645	0.135	114129	keystroke_i	i	n/a
57.1545	0.105	114309	keystroke_n	n	n/a
57.3345	0.12	114669	keystroke_g	g	n/a
57.9945	0.09	115989	keystroke_Key.enter	Key.enter	n/a
58.0915	10.9755	116183	prompt	n/a	bathroom chelsea forgotten annex\n
58.7295	0.075	117459	keystroke_b	b	n/a
58.8645	0.15	117729	keystroke_a	a	n/a
59.0295	0.105	118059	keystroke_t	t	n/a
59.1495	0.06	118299	keystroke_h	h	n/a
59.3745	0.03	118749	keystroke_r	r	n/a
59.5395	0.09	119079	keystroke_r	r	n/a
60.2445	0.075	120489	keystroke_Key.backspace	Key.backspace	n/a
60.5145	0.09	121029	keystroke_o	o	n/a
60.6795	0.075	121359	keystroke_o	o	n/a
60.8745	0.06	121749	keystroke_m	m	n/a
61.3695	0.105	122739	keystroke_Key.space	Key.space	n/a
62.2245	0.105	124449	keystroke_c	c	n/a
62.4045	0.09	124809	keystroke_h	h	n/a
62.5545	0.09	125109	keystroke_e	e	n/a
62.7345	0.105	125469	keystroke_l	l	n/a
62.9145	0.12	125829	keystroke_s	s	n/a
63.0495	0.135	126099	keystroke_e	e	n/a
63.1695	0.165	126339	keystroke_a	a	n/a
63.5295	0.135	127059	keystroke_Key.space	Key.space	n/a
64.8345	0.075	129669	keystroke_f	f	n/a
64.9545	0.12	129909	keystroke_o	o	n/a
65.0445	0.09	130089	keystroke_r	r	n/a
65.3295	0.09	130659	keystroke_g	g	n/a
65.4795	0.12	130959	keystroke_o	o	n/a
66.3645	0.06	132729	keystroke_t	t	n/a
66.4995	0.075	132999	keystroke_t	t	n/a
66.5895	0.121	133179	keystroke_e	e	n/a
66.7545	0.106	133509	keystroke_n	n	n/a
66.9645	0.12	133929	keystroke_Key.space	Key.space	n/a
67.8045	0.136	135609	keystroke_a	a	n/a
67.9245	0.09	135849	keystroke_n	n	n/a
68.2395	0.105	136479	keystroke_n	n	n/a
68.3895	0.03	136779	keystroke_e	e	n/a
68.5845	0.135	137169	keystroke_x	x	n/a
68.9445	0.12	137889	keystroke_Key.enter	Key.enter	n/a
69.072	11.32	138144	prompt	n/a	headers underwear interior literally\n
69.8905	0.074	139781	keystroke_h	h	n/a
70.0395	0.12	140079	keystroke_e	e	n/a
70.2045	0.135	140409	keystroke_a	a	n/a
70.3995	0.076	140799	keystroke_d	d	n/a
70.5795	0.165	141159	keystroke_e	e	n/a
70.6995	0.105	141399	keystroke_r	r	n/a
70.9245	0.135	141849	keystroke_s	s	n/a
71.0445	0.12	142089	keystroke_Key.space	Key.space	n/a
71.2695	0.06	142539	keystroke_u	u	n/a
71.4655	0.074	142931	keystroke_n	n	n/a
71.5845	0.075	143169	keystroke_d	d	n/a
71.7945	0.15	143589	keystroke_e	e	n/a
71.8845	0.12	143769	keystroke_r	r	n/a
72.1995	0.09	144399	keystroke_w	w	n/a
72.4545	0.12	144909	keystroke_e	e	n/a
72.6195	0.195	145239	keystroke_a	a	n/a
72.7845	0.12	145569	keystroke_r	r	n/a
72.9795	0.135	145959	keystroke_Key.space	Key.space	n/a
73.5945	0.135	147189	keystroke_i	i	n/a
73.7005	0.104	147401	keystroke_n	n	n/a
73.8195	0.075	147639	keystroke_t	t	n/a
74.0895	0.105	148179	keystroke_e	e	n/a
74.3295	0.09	148659	keystroke_r	r	n/a
74.4645	0.09	148929	keystroke_i	i	n/a
74.5995	0.09	149199	keystroke_r	r	n/a
74.7495	0.105	149499	keystroke_o	o	n/a
75.5295	0.09	151059	keystroke_Key.backspace	Key.backspace	n/a
75.9045	0.105	151809	keystroke_Key.backspace	Key.backspace	n/a
76.1895	0.09	152379	keystroke_o	o	n/a
76.3995	0.075	152799	keystroke_r	r	n/a
76.6245	0.075	153249	keystroke_Key.space	Key.space	n/a
77.554	0.076	155108	keystroke_l	l	n/a
77.734	0.106	155468	keystroke_i	i	n/a
77.914	0.105	155828	keystroke_t	t	n/a
78.08	0.164	156160	keystroke_e	e	n/a
78.619	0.195	157238	keystroke_r	r	n/a
79.069	0.151	158138	keystroke_a	a	n/a
79.399	0.075	158798	keystroke_l	l	n/a
79.535	0.089	159070	keystroke_l	l	n/a
79.744	0.09	159488	keystroke_y	y	n/a
80.329	0.06	160658	keystroke_Key.enter	Key.enter	n/a
80.396	7.675	160792	prompt	n/a	sucking prominent valves davis\n
81.245	0.134	162490	keystroke_s	s	n/a
81.394	0.075	162788	keystroke_u	u	n/a
81.635	0.119	163270	keystroke_c	c	n/a
81.74	0.06	163480	keystroke_k	k	n/a
81.919	0.12	163838	keystroke_i	i	n/a
81.995	0.089	163990	keystroke_n	n	n/a
82.129	0.106	164258	keystroke_g	g	n/a
82.204	0.12	164408	keystroke_Key.space	Key.space	n/a
82.729	0.12	165458	keystroke_p	p	n/a
82.939	0.135	165878	keystroke_r	r	n/a
83.029	0.075	166058	keystroke_o	o	n/a
83.224	0.061	166448	keystroke_m	m	n/a
83.344	0.12	166688	keystroke_i	i	n/a
83.479	0.076	166958	keystroke_n	n	n/a
84.064	0.105	168128	keystroke_e	e	n/a
84.559	0.09	169118	keystroke_n	n	n/a
84.664	0.075	169328	keystroke_t	t	n/a
84.934	0.09	169868	keystroke_Key.space	Key.space	n/a
85.715	0.09	171430	keystroke_v	v	n/a
85.835	0.15	171670	keystroke_a	a	n/a
85.969	0.09	171938	keystroke_l	l	n/a
86.135	0.105	172270	keystroke_v	v	n/a
86.269	0.09	172538	keystroke_e	e	n/a
86.465	0.135	172930	keystroke_s	s	n/a
86.6	0.089	173200	keystroke_Key.space	Key.space	n/a
86.869	0.09	173738	keystroke_d	d	n/a
87.004	0.136	174008	keystroke_a	a	n/a
87.259	0.091	174518	keystroke_v	v	n/a
87.395	0.09	174790	keystroke_i	i	n/a
87.724	0.106	175448	keystroke_s	s	n/a
87.979	0.09	175958	keystroke_Key.enter	Key.enter	n/a
88.078	8.348	176156	prompt	n/a	calvin leasing admissions revolution\n
88.835	0.075	177670	keystroke_c	c	n/a
88.97	0.149	177940	keystroke_a	a	n/a
89.105	0.075	178210	keystroke_l	l	n/a
89.329	0.0905	178658	keystroke_v	v	n/a
89.4345	0.119	178869	keystroke_i	i	n/a
89.5235	0.091	179047	keystroke_n	n	n/a
89.6735	0.12	179347	keystroke_Key.space	Key.space	n/a
89.8545	0.105	179709	keystroke_l	l	n/a
89.9745	0.104	179949	keystroke_e	e	n/a
90.8585	0.091	181717	keystroke_a	a	n/a
91.7745	0.119	183549	keystroke_s	s	n/a
91.8645	0.135	183729	keystroke_i	i	n/a
91.9535	0.09	183907	keystroke_n	n	n/a
92.0745	0.164	184149	keystroke_g	g	n/a
92.2235	0.12	184447	keystroke_Key.space	Key.space	n/a
92.5995	0.105	185199	keystroke_a	a	n/a
92.7935	0.091	185587	keystroke_d	d	n/a
92.9285	0.091	185857	keystroke_m	m	n/a
93.0495	0.104	186099	keystroke_i	i	n/a
93.1845	0.059	186369	keystroke_s	s	n/a
93.3345	0.134	186669	keystroke_s	s	n/a
93.4245	0.12	186849	keystroke_i	i	n/a
93.5135	0.18	187027	keystroke_o	o	n/a
93.6345	0.105	187269	keystroke_n	n	n/a
93.8145	0.12	187629	keystroke_s	s	n/a
93.9795	0.089	187959	keystroke_Key.space	Key.space	n/a
94.2495	0.165	188499	keystroke_r	r	n/a
94.3995	0.105	188799	keystroke_e	e	n/a
94.6545	0.105	189309	keystroke_v	v	n/a
94.6985	0.045	189397	keystroke_c	c	n/a
94.7745	0.09	189549	keystroke_o	o	n/a
94.9845	0.059	189969	keystroke_l	l	n/a
95.1495	0.06	190299	keystroke_u	u	n/a
95.2835	0.105	190567	keystroke_t	t	n/a
95.4195	0.104	190839	keystroke_i	i	n/a
95.5685	0.136	191137	keystroke_o	o	n/a
95.6285	0.106	191257	keystroke_n	n	n/a
96.3345	0.089	192669	keystroke_Key.enter	Key.enter	n/a
96.432	5.5595	192864	prompt	n/a	dumb prefix marked spot\n
97.0395	0.15	194079	keystroke_d	d	n/a
97.1745	0.06	194349	keystroke_u	u	n/a
97.3545	0.06	194709	keystroke_m	m	n/a
97.5345	0.059	195069	keystroke_b	b	n/a
97.6685	0.12	195337	keystroke_Key.space	Key.space	n/a
97.9095	0.089	195819	keystroke_p	p	n/a
98.0595	0.149	196119	keystroke_r	r	n/a
98.1645	0.09	196329	keystroke_e	e	n/a
98.3895	0.104	196779	keystroke_f	f	n/a
98.4785	0.09	196957	keystroke_i	i	n/a
98.8695	0.105	197739	keystroke_x	x	n/a
99.0645	0.12	198129	keystroke_Key.space	Key.space	n/a
99.5295	0.074	199059	keystroke_m	m	n/a
99.6945	0.135	199389	keystroke_a	a	n/a
99.9345	0.09	199869	keystroke_r	r	n/a
100.1295	0.105	200259	keystroke_k	k	n/a
100.2195	0.074	200439	keystroke_e	e	n/a
100.4145	0.12	200829	keystroke_d	d	n/a
100.4745	0.12	200949	keystroke_Key.space	Key.space	n/a
100.8645	0.105	201729	keystroke_s	s	n/a
100.9995	0.09	201999	keystroke_p	p	n/a
101.1645	0.135	202329	keystroke_o	o	n/a
101.3745	0.09	202749	keystroke_t	t	n/a
101.8845	0.105	203769	keystroke_Key.enter	Key.enter	n/a
101.997	11.3045	203994	prompt	n/a	contributed thermal victims defendant\n
102.6795	0.12	205359	keystroke_c	c	n/a
102.8145	0.09	205629	keystroke_o	o	n/a
102.9945	0.09	205989	keystroke_n	n	n/a
103.1295	0.06	206259	keystroke_t	t	n/a
103.3095	0.09	206619	keystroke_r	r	n/a
103.3845	0.075	206769	keystroke_i	i	n/a
103.5645	0.06	207129	keystroke_b	b	n/a
103.7595	0.075	207519	keystroke_u	u	n/a
103.8795	0.135	207759	keystroke_t	t	n/a
103.9545	0.12	207909	keystroke_e	e	n/a
104.2245	0.12	208449	keystroke_d	d	n/a
104.3595	0.09	208719	keystroke_Key.space	Key.space	n/a
104.6745	0.105	209349	keystroke_t	t	n/a
104.7945	0.075	209589	keystroke_h	h	n/a
105.2895	0.105	210579	keystroke_e	e	n/a
106.2645	0.12	212529	keystroke_r	r	n/a
106.5495	0.075	213099	keystroke_m	m	n/a
106.6695	0.135	213339	keystroke_a	a	n/a
106.7745	0.09	213549	keystroke_l	l	n/a
106.9545	0.075	213909	keystroke_Key.space	Key.space	n/a
107.5995	0.09	215199	keystroke_v	v	n/a
107.7195	0.105	215439	keystroke_i	i	n/a
107.8545	0.09	215709	keystroke_c	c	n/a
108.0645	0.075	216129	keystroke_t	t	n/a
108.1995	0.105	216399	keystroke_i	i	n/a
108.3345	0.09	216669	keystroke_m	m	n/a
108.7695	0.105	217539	keystroke_s	s	n/a
109.0095	0.09	218019	keystroke_Key.space	Key.space	n/a
109.7595	0.075	219519	keystroke_d	d	n/a
109.9245	0.075	219849	keystroke_e	e	n/a
110.1195	0.075	220239	keystroke_f	f	n/a
110.2545	0.09	220509	keystroke_e	e	n/a
110.8995	0.105	221799	keystroke_n	n	n/a
111.1095	0.09	222219	keystroke_d	d	n/a
112.3095	0.165	224619	keystroke_a	a	n/a
112.5045	0.12	225009	keystroke_n	n	n/a
112.6695	0.09	225339	keystroke_t	t	n/a
113.1945	0.105	226389	keystroke_Key.enter	Key.enter	n/a
113.3075	6.054	226615	prompt	n/a	tsunami temp sheer advisor\n
114.0345	0.09	228069	keystroke_t	t	n/a
114.4695	0.135	228939	keystroke_s	s	n/a
114.5745	0.06	229149	keystroke_u	u	n/a
114.8445	0.075	229689	keystroke_n	n	n/a
114.9205	0.134	229841	keystroke_a	a	n/a
115.0695	0.075	230139	keystroke_m	m	n/a
115.1745	0.105	230349	keystroke_i	i	n/a
115.2645	0.09	230529	keystroke_Key.space	Key.space	n/a
115.4595	0.135	230919	keystroke_t	t	n/a
115.5645	0.12	231129	keystroke_e	e	n/a
115.6995	0.105	231399	keystroke_m	m	n/a
115.8945	0.105	231789	keystroke_p	p	n/a
116.0595	0.105	232119	keystroke_Key.space	Key.space	n/a
116.2545	0.12	232509	keystroke_s	s	n/a
116.3445	0.09	232689	keystroke_h	h	n/a
116.5995	0.06	233199	keystroke_e	e	n/a
116.7645	0.09	233529	keystroke_e	e	n/a
117.0645	0.075	234129	keystroke_r	r	n/a
117.2745	0.105	234549	keystroke_Key.space	Key.space	n/a
117.8745	0.105	235749	keystroke_a	a	n/a
118.0545	0.09	236109	keystroke_d	d	n/a
118.2645	0.09	236529	keystroke_v	v	n/a
118.3695	0.09	236739	keystroke_i	i	n/a
118.5345	0.15	237069	keystroke_s	s	n/a
118.7595	0.12	237519	keystroke_o	o	n/a
118.8645	0.09	237729	keystroke_r	r	n/a
119.2695	0.09	238539	keystroke_Key.enter	Key.enter	n/a
119.367	18.1145	238734	prompt	n/a	updates associations penalty finals\n
120.1245	0.06	240249	keystroke_u	u	n/a
120.2595	0.12	240519	keystroke_p	p	n/a
120.4095	0.12	240819	keystroke_d	d	n/a
120.4995	0.165	240999	keystroke_a	a	n/a
120.6795	0.165	241359	keystroke_t	t	n/a
120.7995	0.135	241599	keystroke_e	e	n/a
121.0395	0.135	242079	keystroke_s	s	n/a
121.1895	0.12	242379	keystroke_Key.space	Key.space	n/a
121.7295	0.12	243459	keystroke_a	a	n/a
121.9545	0.06	243909	keystroke_d	d	n/a
122.7345	0.105	245469	keystroke_Key.backspace	Key.backspace	n/a
122.9295	0.09	245859	keystroke_s	s	n/a
123.0795	0.105	246159	keystroke_s	s	n/a
123.2145	0.12	246429	keystroke_o	o	n/a
123.3645	0.15	246729	keystroke_c	c	n/a
123.4845	0.12	246969	keystroke_i	i	n/a
123.5895	0.24	247179	keystroke_a	a	n/a
123.7695	0.225	247539	keystroke_t	t	n/a
123.9345	0.15	247869	keystroke_e	e	n/a
125.7795	0.104	251559	keystroke_Key.backspace	Key.backspace	n/a
126.9045	0.105	253809	keystroke_t	t	n/a
126.9645	0.105	253929	keystroke_i	i	n/a
127.0845	0.1655	254169	keystroke_o	o	n/a
127.1745	0.12	254349	keystroke_n	n	n/a
127.8485	0.091	255697	keystroke_Key.backspace	Key.backspace	n/a
128.0435	0.105	256087	keystroke_Key.backspace	Key.backspace	n/a
128.2545	0.09	256509	keystroke_Key.backspace	Key.backspace	n/a
128.7045	0.105	257409	keystroke_Key.backspace	Key.backspace	n/a
131.6175	0.012	263235	keystroke_i	i	n/a
131.9145	0.105	263829	keystroke_o	o	n/a
132.0045	0.105	264009	keystroke_n	n	n/a
132.1695	0.135	264339	keystroke_s	s	n/a
132.3345	0.105	264669	keystroke_Key.space	Key.space	n/a
133.2045	0.12	266409	keystroke_p	p	n/a
133.3845	0.105	266769	keystroke_e	e	n/a
133.6395	0.075	267279	keystroke_n	n	n/a
133.7295	0.15	267459	keystroke_a	a	n/a
133.8345	0.12	267669	keystroke_l	l	n/a
134.0435	0.106	268087	keystroke_t	t	n/a
134.2545	0.09	268509	keystroke_y	y	n/a
136.0245	0.119	272049	keystroke_Key.space	Key.space	n/a
136.3685	0.136	272737	keystroke_f	f	n/a
136.4745	0.105	272949	keystroke_i	i	n/a
136.6095	0.09	273219	keystroke_n	n	n/a
136.7145	0.135	273429	keystroke_a	a	n/a
136.8345	0.135	273669	keystroke_l	l	n/a
136.9545	0.135	273909	keystroke_s	s	n/a
137.3745	0.105	274749	keystroke_Key.enter	Key.enter	n/a
137.4865	6.5795	274973	prompt	n/a	resort major accessing artist\n
138.3045	0.15	276609	keystroke_r	r	n/a
138.3945	0.09	276789	keystroke_e	e	n/a
138.6195	0.135	277239	keystroke_s	s	n/a
138.7245	0.105	277449	keystroke_o	o	n/a
138.8145	0.075	277629	keystroke_r	r	n/a
138.9795	0.12	277959	keystroke_t	t	n/a
139.0835	0.106	278167	keystroke_Key.space	Key.space	n/a
139.2645	0.09	278529	keystroke_m	m	n/a
139.3245	0.21	278649	keystroke_a	a	n/a
139.5045	0.06	279009	keystroke_j	j	n/a
139.5945	0.12	279189	keystroke_o	o	n/a
139.7145	0.135	279429	keystroke_r	r	n/a
139.8195	0.09	279639	keystroke_Key.space	Key.space	n/a
139.9845	0.135	279969	keystroke_a	a	n/a
140.2995	0.075	280599	keystroke_c	c	n/a
140.4495	0.075	280899	keystroke_c	c	n/a
140.6445	0.09	281289	keystroke_e	e	n/a
141.9045	0.09	283809	keystroke_s	s	n/a
142.069	0.135	284138	keystroke_s	s	n/a
142.219	0.135	284438	keystroke_i	i	n/a
142.309	0.105	284618	keystroke_n	n	n/a
142.384	0.165	284768	keystroke_g	g	n/a
142.489	0.105	284978	keystroke_Key.space	Key.space	n/a
142.654	0.21	285308	keystroke_a	a	n/a
142.819	0.105	285638	keystroke_r	r	n/a
143.044	0.105	286088	keystroke_t	t	n/a
143.179	0.105	286358	keystroke_i	i	n/a
143.269	0.135	286538	keystroke_s	s	n/a
143.434	0.09	286868	keystroke_t	t	n/a
143.974	0.09	287948	keystroke_Key.enter	Key.enter	n/a
144.072	6.714	288144	prompt	n/a	champions grass homeless fault\n
144.829	0.12	289658	keystroke_c	c	n/a
144.964	0.075	289928	keystroke_h	h	n/a
145.054	0.15	290108	keystroke_a	a	n/a
145.189	0.075	290378	keystroke_m	m	n/a
145.384	0.09	290768	keystroke_p	p	n/a
146.269	0.075	292538	keystroke_i	i	n/a
146.449	0.135	292898	keystroke_o	o	n/a
146.539	0.12	293078	keystroke_n	n	n/a
146.749	0.15	293498	keystroke_s	s	n/a
146.914	0.105	293828	keystroke_Key.space	Key.space	n/a
147.364	0.06	294728	keystroke_g	g	n/a
147.559	0.18	295118	keystroke_r	r	n/a
147.694	0.15	295388	keystroke_a	a	n/a
147.979	0.075	295958	keystroke_s	s	n/a
148.114	0.12	296228	keystroke_s	s	n/a
148.249	0.12	296498	keystroke_Key.space	Key.space	n/a
148.505	0.075	297010	keystroke_h	h	n/a
148.624	0.18	297248	keystroke_o	o	n/a
148.79	0.104	297580	keystroke_m	m	n/a
148.909	0.12	297818	keystroke_e	e	n/a
149.104	0.135	298208	keystroke_l	l	n/a
149.224	0.061	298448	keystroke_e	e	n/a
149.404	0.09	298808	keystroke_s	s	n/a
149.555	0.119	299110	keystroke_s	s	n/a
149.719	0.135	299438	keystroke_Key.space	Key.space	n/a
149.944	0.105	299888	keystroke_f	f	n/a
150.064	0.2105	300128	keystroke_a	a	n/a
150.23	0.059	300460	keystroke_u	u	n/a
150.364	0.12	300728	keystroke_l	l	n/a
150.53	0.089	301060	keystroke_t	t	n/a
150.679	0.105	301358	keystroke_Key.enter	Key.enter	n/a
150.7905	13.6305	301581	prompt	n/a	garbage cultures personnel aluminium\n
151.534	0.09	303068	keystroke_g	g	n/a
151.669	0.165	303338	keystroke_a	a	n/a
151.804	0.105	303608	keystroke_r	r	n/a
152.059	0.076	304118	keystroke_b	b	n/a
152.15	0.134	304300	keystroke_a	a	n/a
152.314	0.12	304628	keystroke_g	g	n/a
152.419	0.15	304838	keystroke_e	e	n/a
152.554	0.09	305108	keystroke_Key.space	Key.space	n/a
152.854	0.106	305708	keystroke_c	c	n/a
152.96	0.044	305920	keystroke_u	u	n/a
153.109	0.105	306218	keystroke_l	l	n/a
153.229	0.075	306458	keystroke_t	t	n/a
154.9245	0.075	309849	keystroke_u	u	n/a
155.0895	0.15	310179	keystroke_r	r	n/a
155.1945	0.105	310389	keystroke_e	e	n/a
155.4195	0.12	310839	keystroke_s	s	n/a
155.5545	0.105	311109	keystroke_Key.space	Key.space	n/a
155.8545	0.105	311709	keystroke_p	p	n/a
155.9745	0.195	311949	keystroke_e	e	n/a
156.1395	0.12	312279	keystroke_r	r	n/a
156.4395	0.12	312879	keystroke_s	s	n/a
156.5445	0.105	313089	keystroke_o	o	n/a
156.7695	0.045	313539	keystroke_n	n	n/a
156.9045	0.06	313809	keystroke_n	n	n/a
157.0245	0.12	314049	keystroke_e	e	n/a
157.1745	0.06	314349	keystroke_l	l	n/a
157.3395	0.09	314679	keystroke_Key.space	Key.space	n/a
158.0445	0.165	316089	keystroke_a	a	n/a
158.1795	0.1195	316359	keystroke_l	l	n/a
158.494	0.03	316988	keystroke_u	u	n/a
159.169	0.105	318338	keystroke_m	m	n/a
159.515	0.074	319030	keystroke_n	n	n/a
159.62	0.104	319240	keystroke_i	i	n/a
161.872	0.027	323744	keystroke_Key.backspace	Key.backspace	n/a
162.094	0.105	324188	keystroke_Key.backspace	Key.backspace	n/a
162.604	0.075	325208	keystroke_i	i	n/a
162.83	0.059	325660	keystroke_n	n	n/a
162.949	0.105	325898	keystroke_i	i	n/a
163.13	0.045	326260	keystroke_u	u	n/a
163.8635	0.105	327727	keystroke_m	m	n/a
164.2985	0.121	328597	keystroke_Key.enter	Key.enter	n/a
164.4255	8.8765	328851	prompt	n/a	emma martha anything unlock\n
165.2445	0.12	330489	keystroke_e	e	n/a
165.4545	0.06	330909	keystroke_m	m	n/a
165.604	0.075	331208	keystroke_m	m	n/a
165.724	0.195	331448	keystroke_a	a	n/a
165.904	0.1205	331808	keystroke_Key.space	Key.space	n/a
166.5495	0.105	333099	keystroke_m	m	n/a
166.6695	0.18	333339	keystroke_a	a	n/a
166.8345	0.12	333669	keystroke_r	r	n/a
167.3445	0.09	334689	keystroke_t	t	n/a
167.4195	0.09	334839	keystroke_h	h	n/a
167.5395	0.165	335079	keystroke_a	a	n/a
167.7195	0.12	335439	keystroke_Key.space	Key.space	n/a
168.0945	0.135	336189	keystroke_a	a	n/a
168.2145	0.075	336429	keystroke_n	n	n/a
168.8295	0.09	337659	keystroke_y	y	n/a
169.0695	0.105	338139	keystroke_t	t	n/a
169.1595	0.075	338319	keystroke_h	h	n/a
169.2645	0.15	338529	keystroke_i	i	n/a
169.3695	0.09	338739	keystroke_n	n	n/a
169.5045	0.075	339009	keystroke_g	g	n/a
169.8795	0.09	339759	keystroke_Key.space	Key.space	n/a
170.6145	0.06	341229	keystroke_u	u	n/a
170.899	0.06	341798	keystroke_n	n	n/a
171.064	0.0755	342128	keystroke_l	l	n/a
171.259	0.03	342518	keystroke_i	i	n/a
172.204	0.105	344408	keystroke_Key.backspace	Key.backspace	n/a
172.459	0.105	344918	keystroke_o	o	n/a
172.654	0.09	345308	keystroke_c	c	n/a
172.759	0.0905	345518	keystroke_k	k	n/a
173.179	0.12	346358	keystroke_Key.enter	Key.enter	n/a
173.308	7.403	346616	prompt	n/a	larry lyrics zone abandoned\n
174.004	0.135	348008	keystroke_l	l	n/a
174.124	0.21	348248	keystroke_a	a	n/a
174.3945	0.0745	348789	keystroke_r	r	n/a
174.529	0.12	349058	keystroke_r	r	n/a
174.664	0.06	349328	keystroke_y	y	n/a
174.739	0.15	349478	keystroke_Key.space	Key.space	n/a
174.949	0.09	349898	keystroke_l	l	n/a
175.174	0.06	350348	keystroke_y	y	n/a
175.414	0.105	350828	keystroke_r	r	n/a
175.52	0.119	351040	keystroke_i	i	n/a
175.729	0.105	351458	keystroke_c	c	n/a
175.909	0.135	351818	keystroke_s	s	n/a
176.029	0.15	352058	keystroke_Key.space	Key.space	n/a
176.794	0.135	353588	keystroke_z	z	n/a
176.9	0.119	353800	keystroke_o	o	n/a
176.959	0.12	353918	keystroke_n	n	n/a
177.094	0.105	354188	keystroke_e	e	n/a
177.214	0.12	354428	keystroke_Key.space	Key.space	n/a
177.454	0.12	354908	keystroke_a	a	n/a
177.679	0.075	355358	keystroke_b	b	n/a
177.799	0.105	355598	keystroke_a	a	n/a
178.399	0.075	356798	keystroke_n	n	n/a
179.419	0.12	358838	keystroke_d	d	n/a
179.524	0.12	359048	keystroke_o	o	n/a
179.659	0.105	359318	keystroke_n	n	n/a
180.169	0.06	360338	keystroke_e	e	n/a
180.349	0.09	360698	keystroke_d	d	n/a
180.604	0.105	361208	keystroke_Key.enter	Key.enter	n/a
180.7165	7.5245	361433	prompt	n/a	logged slovakia happiness passion\n
181.414	0.09	362828	keystroke_l	l	n/a
181.624	0.105	363248	keystroke_o	o	n/a
181.774	0.045	363548	keystroke_g	g	n/a
181.894	0.12	363788	keystroke_g	g	n/a
181.984	0.12	363968	keystroke_e	e	n/a
182.209	0.12	364418	keystroke_d	d	n/a
182.314	0.135	364628	keystroke_Key.space	Key.space	n/a
182.944	0.135	365888	keystroke_s	s	n/a
183.244	0.075	366488	keystroke_l	l	n/a
183.439	0.09	366878	keystroke_o	o	n/a
183.619	0.09	367238	keystroke_v	v	n/a
183.694	0.165	367388	keystroke_a	a	n/a
183.919	0.075	367838	keystroke_k	k	n/a
184.114	0.075	368228	keystroke_i	i	n/a
184.249	0.15	368498	keystroke_a	a	n/a
184.369	0.135	368738	keystroke_Key.space	Key.space	n/a
184.564	0.09	369128	keystroke_h	h	n/a
184.729	0.135	369458	keystroke_a	a	n/a
184.879	0.075	369758	keystroke_p	p	n/a
185.059	0.045	370118	keystroke_p	p	n/a
185.239	0.06	370478	keystroke_i	i	n/a
185.449	0.075	370898	keystroke_n	n	n/a
185.569	0.075	371138	keystroke_e	e	n/a
185.794	0.06	371588	keystroke_s	s	n/a
185.929	0.12	371858	keystroke_s	s	n/a
186.094	0.12	372188	keystroke_Key.space	Key.space	n/a
186.604	0.12	373208	keystroke_p	p	n/a
186.694	0.135	373388	keystroke_a	a	n/a
186.9335	0.0755	373867	keystroke_s	s	n/a
187.0835	0.1505	374167	keystroke_s	s	n/a
187.2035	0.075	374407	keystroke_i	i	n/a
187.3835	0.15	374767	keystroke_o	o	n/a
187.5035	0.15	375007	keystroke_n	n	n/a
188.1485	0.09	376297	keystroke_Key.enter	Key.enter	n/a
188.248	7.8075	376496	prompt	n/a	democratic attack else chamber\n
189.0785	0.09	378157	keystroke_d	d	n/a
189.2735	0.09	378547	keystroke_e	e	n/a
189.4385	0.09	378877	keystroke_m	m	n/a
189.5735	0.135	379147	keystroke_o	o	n/a
189.7235	0.1205	379447	keystroke_c	c	n/a
189.9785	0.135	379957	keystroke_r	r	n/a
190.0835	0.165	380167	keystroke_a	a	n/a
190.2635	0.09	380527	keystroke_t	t	n/a
190.4135	0.09	380827	keystroke_i	i	n/a
190.5335	0.105	381067	keystroke_c	c	n/a
190.7135	0.12	381427	keystroke_Key.space	Key.space	n/a
191.0585	0.135	382117	keystroke_a	a	n/a
191.2685	0.06	382537	keystroke_t	t	n/a
191.4035	0.09	382807	keystroke_t	t	n/a
191.4785	0.135	382957	keystroke_a	a	n/a
191.7185	0.12	383437	keystroke_c	c	n/a
191.8685	0.105	383737	keystroke_k	k	n/a
191.9885	0.075	383977	keystroke_Key.space	Key.space	n/a
192.4535	0.075	384907	keystroke_e	e	n/a
192.5735	0.105	385147	keystroke_l	l	n/a
192.7235	0.18	385447	keystroke_s	s	n/a
192.8735	0.105	385747	keystroke_e	e	n/a
192.9935	0.12	385987	keystroke_Key.space	Key.space	n/a
193.4135	0.12	386827	keystroke_c	c	n/a
193.5785	0.075	387157	keystroke_h	h	n/a
193.8335	0.12	387667	keystroke_a	a	n/a
193.9685	0.09	387937	keystroke_m	m	n/a
194.1785	0.12	388357	keystroke_p	p	n/a
194.9735	0.105	389947	keystroke_Key.backspace	Key.backspace	n/a
195.2895	0.089	390579	keystroke_b	b	n/a
195.5285	0.12	391057	keystroke_e	e	n/a
195.6035	0.105	391207	keystroke_r	r	n/a
195.9485	0.105	391897	keystroke_Key.enter	Key.enter	n/a
196.062	6.8485	392124	prompt	n/a	necklace boss disorders webshots\n
196.8645	0.089	393729	keystroke_n	n	n/a
196.9685	0.045	393937	keystroke_e	e	n/a
197.1635	0.09	394327	keystroke_c	c	n/a
197.2685	0.06	394537	keystroke_k	k	n/a
197.4185	0.12	394837	keystroke_l	l	n/a
197.4935	0.12	394987	keystroke_a	a	n/a
197.7185	0.075	395437	keystroke_c	c	n/a
197.8835	0.12	395767	keystroke_e	e	n/a
197.9735	0.12	395947	keystroke_Key.space	Key.space	n/a
198.2135	0.06	396427	keystroke_b	b	n/a
198.3335	0.105	396667	keystroke_o	o	n/a
198.4685	0.075	396937	keystroke_s	s	n/a
198.6185	0.12	397237	keystroke_s	s	n/a
198.7535	0.09	397507	keystroke_Key.space	Key.space	n/a
199.0535	0.09	398107	keystroke_d	d	n/a
199.1585	0.105	398317	keystroke_i	i	n/a
199.2645	0.104	398529	keystroke_s	s	n/a
200.2085	0.135	400417	keystroke_o	o	n/a
200.4035	0.09	400807	keystroke_r	r	n/a
200.7185	0.061	401437	keystroke_d	d	n/a
200.8985	0.15	401797	keystroke_e	e	n/a
200.9745	0.119	401949	keystroke_r	r	n/a
201.2285	0.12	402457	keystroke_s	s	n/a
201.3495	0.119	402699	keystroke_Key.space	Key.space	n/a
201.5285	0.121	403057	keystroke_w	w	n/a
201.6635	0.12	403327	keystroke_e	e	n/a
201.8135	0.075	403627	keystroke_b	b	n/a
201.9635	0.12	403927	keystroke_s	s	n/a
202.1885	0.076	404377	keystroke_h	h	n/a
202.3235	0.12	404647	keystroke_o	o	n/a
202.4585	0.075	404917	keystroke_t	t	n/a
202.6085	0.135	405217	keystroke_s	s	n/a
202.7885	0.12	405577	keystroke_Key.enter	Key.enter	n/a
202.9155	9.8505	405831	prompt	n/a	clarity happiness jonathan commissioner\n
203.6435	0.12	407287	keystroke_c	c	n/a
203.8835	0.135	407767	keystroke_l	l	n/a
204.0335	0.136	408067	keystroke_a	a	n/a
204.2445	0.089	408489	keystroke_r	r	n/a
204.3345	0.089	408669	keystroke_i	i	n/a
204.5295	0.105	409059	keystroke_t	t	n/a
204.7245	0.074	409449	keystroke_y	y	n/a
204.9935	0.135	409987	keystroke_Key.space	Key.space	n/a
206.0285	0.075	412057	keystroke_h	h	n/a
206.1335	0.135	412267	keystroke_a	a	n/a
206.2695	0.09	412539	keystroke_p	p	n/a
206.4635	0.09	412927	keystroke_p	p	n/a
206.7035	0.076	413407	keystroke_i	i	n/a
206.9295	0.075	413859	keystroke_n	n	n/a
207.0335	0.075	414067	keystroke_e	e	n/a
207.2435	0.076	414487	keystroke_s	s	n/a
207.3785	0.121	414757	keystroke_s	s	n/a
207.5135	0.135	415027	keystroke_Key.space	Key.space	n/a
207.7245	0.074	415449	keystroke_j	j	n/a
207.8445	0.105	415689	keystroke_o	o	n/a
208.0535	0.076	416107	keystroke_n	n	n/a
208.7295	0.135	417459	keystroke_a	a	n/a
209.0435	0.121	418087	keystroke_t	t	n/a
209.1795	0.06	418359	keystroke_h	h	n/a
209.2535	0.136	418507	keystroke_a	a	n/a
209.3585	0.09	418717	keystroke_n	n	n/a
209.4935	0.12	418987	keystroke_Key.space	Key.space	n/a
210.0485	0.121	420097	keystroke_c	c	n/a
210.1835	0.091	420367	keystroke_o	o	n/a
210.4235	0.061	420847	keystroke_m	m	n/a
210.5735	0.061	421147	keystroke_m	m	n/a
210.7545	0.089	421509	keystroke_i	i	n/a
211.0085	0.106	422017	keystroke_s	s	n/a
211.5945	0.104	423189	keystroke_s	s	n/a
211.7435	0.091	423487	keystroke_i	i	n/a
211.9085	0.136	423817	keystroke_o	o	n/a
212.0135	0.105	424027	keystroke_n	n	n/a
212.1795	0.165	424359	keystroke_e	e	n/a
212.2835	0.09	424567	keystroke_r	r	n/a
212.6735	0.09	425347	keystroke_Key.enter	Key.enter	n/a
212.771	7.84	425542	prompt	n/a	poster sheffield punch aviation\n
213.4545	0.105	426909	keystroke_p	p	n/a
213.6645	0.09	427329	keystroke_o	o	n/a
213.7845	0.119	427569	keystroke_s	s	n/a
213.9345	0.089	427869	keystroke_t	t	n/a
214.1135	0.21	428227	keystroke_e	e	n/a
214.2195	0.149	428439	keystroke_r	r	n/a
214.3385	0.105	428677	keystroke_Key.space	Key.space	n/a
214.9085	0.12	429817	keystroke_s	s	n/a
215.0295	0.089	430059	keystroke_h	h	n/a
215.2385	0.1055	430477	keystroke_e	e	n/a
215.704	0.045	431408	keystroke_f	f	n/a
215.809	0.134	431618	keystroke_f	f	n/a
216.394	0.0605	432788	keystroke_i	i	n/a
216.783	0.0755	433566	keystroke_e	e	n/a
216.904	0.12	433808	keystroke_l	l	n/a
217.039	0.089	434078	keystroke_d	d	n/a
217.1735	0.12	434347	keystroke_Key.space	Key.space	n/a
217.429	0.09	434858	keystroke_p	p	n/a
217.5935	0.045	435187	keystroke_u	u	n/a
217.774	0.075	435548	keystroke_n	n	n/a
217.939	0.135	435878	keystroke_c	c	n/a
218.104	0.059	436208	keystroke_h	h	n/a
218.253	0.105	436506	keystroke_Key.space	Key.space	n/a
219.019	0.105	438038	keystroke_a	a	n/a
219.184	0.18	438368	keystroke_v	v	n/a
219.484	0.075	438968	keystroke_i	i	n/a
219.678	0.151	439356	keystroke_a	a	n/a
219.859	0.135	439718	keystroke_t	t	n/a
220.023	0.091	440046	keystroke_i	i	n/a
220.158	0.18	440316	keystroke_o	o	n/a
220.279	0.119	440558	keystroke_n	n	n/a
220.519	0.089	441038	keystroke_Key.enter	Key.enter	n/a
220.6155	11.5015	441231	prompt	n/a	astronomy watt strengthening overall\n
220.879	0.03	441758	keystroke_i	i	n/a
221.059	0.27	442118	keystroke_i	i	n/a
221.344	0.075	442688	keystroke_s	s	n/a
221.883	0.15	443766	keystroke_Key.backspace	Key.backspace	n/a
222.168	0.105	444336	keystroke_Key.backspace	Key.backspace	n/a
222.408	0.031	444816	keystroke_Key.backspace	Key.backspace	n/a
222.649	0.15	445298	keystroke_a	a	n/a
223.144	0.135	446288	keystroke_s	s	n/a
223.369	0.135	446738	keystroke_t	t	n/a
224.479	0.09	448958	keystroke_r	r	n/a
224.599	0.09	449198	keystroke_o	o	n/a
224.869	0.075	449738	keystroke_n	n	n/a
224.944	0.135	449888	keystroke_o	o	n/a
225.394	0.06	450788	keystroke_m	m	n/a
225.604	0.075	451208	keystroke_y	y	n/a
226.234	0.104	452468	keystroke_Key.space	Key.space	n/a
226.458	0.076	452916	keystroke_w	w	n/a
226.624	0.15	453248	keystroke_a	a	n/a
227.014	0.075	454028	keystroke_t	t	n/a
227.164	0.09	454328	keystroke_t	t	n/a
227.284	0.12	454568	keystroke_Key.space	Key.space	n/a
227.599	0.09	455198	keystroke_s	s	n/a
227.749	0.075	455498	keystroke_t	t	n/a
227.929	0.15	455858	keystroke_r	r	n/a
228.049	0.12	456098	keystroke_e	e	n/a
229.054	0.075	458108	keystroke_n	n	n/a
229.129	0.09	458258	keystroke_g	g	n/a
229.384	0.105	458768	keystroke_t	t	n/a
229.519	0.045	459038	keystroke_h	h	n/a
229.609	0.105	459218	keystroke_e	e	n/a
229.729	0.075	459458	keystroke_n	n	n/a
229.894	0.135	459788	keystroke_i	i	n/a
229.999	0.105	459998	keystroke_n	n	n/a
230.119	0.135	460238	keystroke_g	g	n/a
230.209	0.105	460418	keystroke_Key.space	Key.space	n/a
230.359	0.12	460718	keystroke_o	o	n/a
230.464	0.105	460928	keystroke_v	v	n/a
230.629	0.165	461258	keystroke_e	e	n/a
230.704	0.135	461408	keystroke_r	r	n/a
231.394	0.165	462788	keystroke_a	a	n/a
231.589	0.075	463178	keystroke_l	l	n/a
231.724	0.12	463448	keystroke_l	l	n/a
232.039	0.075	464078	keystroke_Key.enter	Key.enter	n/a
232.04	0.089	464080	keystroke_]	]	n/a
232.121	18.985	464242	prompt	n/a	christopher specifically raised metallic\n
233.734	0.12	467468	keystroke_c	c	n/a
233.839	0.09	467678	keystroke_h	h	n/a
234.349	0.09	468698	keystroke_r	r	n/a
234.469	0.09	468938	keystroke_i	i	n/a
234.56	0.134	469120	keystroke_s	s	n/a
234.709	0.09	469418	keystroke_t	t	n/a
234.874	0.12	469748	keystroke_o	o	n/a
235.294	0.105	470588	keystroke_p	p	n/a
235.549	0.105	471098	keystroke_h	h	n/a
235.759	0.135	471518	keystroke_e	e	n/a
235.849	0.105	471698	keystroke_r	r	n/a
236.149	0.09	472298	keystroke_Key.space	Key.space	n/a
237.724	0.135	475448	keystroke_s	s	n/a
237.844	0.105	475688	keystroke_p	p	n/a
238.294	0.105	476588	keystroke_c	c	n/a
238.429	0.09	476858	keystroke_i	i	n/a
238.579	0.12	477158	keystroke_f	f	n/a
238.714	0.105	477428	keystroke_i	i	n/a
238.864	0.165	477728	keystroke_c	c	n/a
238.984	0.18	477968	keystroke_a	a	n/a
239.119	0.075	478238	keystroke_l	l	n/a
239.269	0.075	478538	keystroke_l	l	n/a
239.449	0.06	478898	keystroke_y	y	n/a
239.599	0.135	479198	keystroke_Key.space	Key.space	n/a
241.219	0.045	482438	keystroke_Key.backspace	Key.backspace	n/a
241.729	0.075	483458	keystroke_Key.backspace	Key.backspace	n/a
241.909	0.09	483818	keystroke_Key.backspace	Key.backspace	n/a
242.089	0.105	484178	keystroke_Key.backspace	Key.backspace	n/a
242.254	0.105	484508	keystroke_Key.backspace	Key.backspace	n/a
242.464	0.075	484928	keystroke_Key.backspace	Key.backspace	n/a
242.674	0.075	485348	keystroke_Key.backspace	Key.backspace	n/a
242.899	0.09	485798	keystroke_Key.backspace	Key.backspace	n/a
243.094	0.09	486188	keystroke_Key.backspace	Key.backspace	n/a
243.304	0.105	486608	keystroke_Key.backspace	Key.backspace	n/a
243.694	0.09	487388	keystroke_e	e	n/a
244.024	0.105	488048	keystroke_c	c	n/a
244.144	0.09	488288	keystroke_i	i	n/a
244.309	0.09	488618	keystroke_f	f	n/a
244.429	0.105	488858	keystroke_i	i	n/a
244.594	0.165	489188	keystroke_c	c	n/a
244.744	0.15	489488	keystroke_a	a	n/a
246.08	0.089	492160	keystroke_l	l	n/a
246.214	0.09	492428	keystroke_l	l	n/a
246.394	0.075	492788	keystroke_y	y	n/a
246.949	0.105	493898	keystroke_Key.space	Key.space	n/a
247.264	0.15	494528	keystroke_r	r	n/a
247.609	0.135	495218	keystroke_a	a	n/a
248.584	0.09	497168	keystroke_i	i	n/a
248.659	0.18	497318	keystroke_s	s	n/a
248.794	0.09	497588	keystroke_e	e	n/a
248.974	0.15	497948	keystroke_d	d	n/a
249.079	0.105	498158	keystroke_Key.space	Key.space	n/a
249.304	0.105	498608	keystroke_m	m	n/a
249.424	0.105	498848	keystroke_e	e	n/a
249.589	0.135	499178	keystroke_t	t	n/a
249.739	0.165	499478	keystroke_a	a	n/a
250.189	0.09	500378	keystroke_l	l	n/a
250.354	0.09	500708	keystroke_l	l	n/a
250.564	0.105	501128	keystroke_i	i	n/a
250.714	0.09	501428	keystroke_c	c	n/a
251.014	0.09	502028	keystroke_Key.enter	Key.enter	n/a
251.112	6.594	502224	prompt	n/a	phoenix budget preview mutual\n
251.794	0.075	503588	keystroke_p	p	n/a
251.989	0.045	503978	keystroke_h	h	n/a
252.079	0.09	504158	keystroke_o	o	n/a
252.784	0.12	505568	keystroke_e	e	n/a
252.964	0.075	505928	keystroke_n	n	n/a
253.069	0.135	506138	keystroke_i	i	n/a
253.324	0.15	506648	keystroke_x	x	n/a
253.489	0.105	506978	keystroke_Key.space	Key.space	n/a
253.669	0.03	507338	keystroke_b	b	n/a
253.834	0.045	507668	keystroke_u	u	n/a
253.924	0.09	507848	keystroke_d	d	n/a
254.104	0.12	508208	keystroke_g	g	n/a
254.239	0.18	508478	keystroke_e	e	n/a
254.389	0.135	508778	keystroke_t	t	n/a
254.509	0.09	509018	keystroke_Key.space	Key.space	n/a
254.795	0.104	509590	keystroke_p	p	n/a
254.929	0.15	509858	keystroke_r	r	n/a
255.019	0.09	510038	keystroke_e	e	n/a
255.814	0.12	511628	keystroke_v	v	n/a
255.949	0.105	511898	keystroke_i	i	n/a
256.024	0.135	512048	keystroke_e	e	n/a
256.129	0.135	512258	keystroke_w	w	n/a
256.294	0.1495	512588	keystroke_Key.space	Key.space	n/a
256.6535	0.06	513307	keystroke_m	m	n/a
256.8495	0.06	513699	keystroke_u	u	n/a
256.9835	0.106	513967	keystroke_t	t	n/a
257.0745	0.059	514149	keystroke_u	u	n/a
257.1645	0.15	514329	keystroke_a	a	n/a
257.2695	0.104	514539	keystroke_l	l	n/a
257.6135	0.09	515227	keystroke_Key.enter	Key.enter	n/a
257.712	10.4035	515424	prompt	n/a	painful stake renaissance mpeg\n
258.4545	0.105	516909	keystroke_p	p	n/a
258.6045	0.164	517209	keystroke_a	a	n/a
258.7235	0.106	517447	keystroke_i	i	n/a
258.7835	0.09	517567	keystroke_n	n	n/a
258.9035	0.105	517807	keystroke_g	g	n/a
259.3095	0.12	518619	keystroke_f	f	n/a
259.3845	0.06	518769	keystroke_u	u	n/a
259.5335	0.09	519067	keystroke_l	l	n/a
259.7135	0.105	519427	keystroke_Key.space	Key.space	n/a
260.2235	0.09	520447	keystroke_Key.backspace	Key.backspace	n/a
260.4485	0.09	520897	keystroke_Key.backspace	Key.backspace	n/a
260.7035	0.091	521407	keystroke_Key.backspace	Key.backspace	n/a
260.9285	0.09	521857	keystroke_Key.backspace	Key.backspace	n/a
261.2735	0.091	522547	keystroke_Key.backspace	Key.backspace	n/a
261.9045	0.135	523809	keystroke_f	f	n/a
262.0235	0.061	524047	keystroke_u	u	n/a
262.1895	0.105	524379	keystroke_l	l	n/a
262.2785	0.121	524557	keystroke_Key.space	Key.space	n/a
262.4745	0.134	524949	keystroke_s	s	n/a
262.7595	0.135	525519	keystroke_a	a	n/a
262.8795	0.12	525759	keystroke_k	k	n/a
263.4495	0.104	526899	keystroke_Key.backspace	Key.backspace	n/a
263.6745	0.104	527349	keystroke_Key.backspace	Key.backspace	n/a
263.8095	0.12	527619	keystroke_t	t	n/a
263.9445	0.135	527889	keystroke_a	a	n/a
264.0795	0.09	528159	keystroke_k	k	n/a
264.1845	0.09	528369	keystroke_e	e	n/a
264.303	0.1055	528606	keystroke_Key.space	Key.space	n/a
265.024	0.135	530048	keystroke_r	r	n/a
265.099	0.119	530198	keystroke_e	e	n/a
265.354	0.09	530708	keystroke_n	n	n/a
265.444	0.135	530888	keystroke_a	a	n/a
265.594	0.105	531188	keystroke_i	i	n/a
265.803	0.061	531606	keystroke_s	s	n/a
265.939	0.105	531878	keystroke_s	s	n/a
266.029	0.119	532058	keystroke_a	a	n/a
266.164	0.105	532328	keystroke_n	n	n/a
266.299	0.075	532598	keystroke_c	c	n/a
266.478	0.106	532956	keystroke_e	e	n/a
266.553	0.136	533106	keystroke_Key.space	Key.space	n/a
266.839	0.09	533678	keystroke_m	m	n/a
267.139	0.15	534278	keystroke_p	p	n/a
267.274	0.075	534548	keystroke_e	e	n/a
267.799	0.12	535598	keystroke_g	g	n/a
268.009	0.104	536018	keystroke_Key.enter	Key.enter	n/a
268.12	8.1415	536240	prompt	n/a	allowed vegas furnishings dvds\n
268.744	0.15	537488	keystroke_a	a	n/a
268.909	0.06	537818	keystroke_l	l	n/a
269.044	0.06	538088	keystroke_l	l	n/a
269.224	0.09	538448	keystroke_o	o	n/a
269.284	0.18	538568	keystroke_w	w	n/a
269.449	0.09	538898	keystroke_e	e	n/a
269.659	0.12	539318	keystroke_d	d	n/a
269.838	0.106	539676	keystroke_Key.space	Key.space	n/a
270.049	0.105	540098	keystroke_v	v	n/a
270.469	0.135	540938	keystroke_e	e	n/a
270.724	0.12	541448	keystroke_g	g	n/a
270.814	0.135	541628	keystroke_a	a	n/a
271.069	0.12	542138	keystroke_s	s	n/a
271.174	0.12	542348	keystroke_Key.space	Key.space	n/a
271.444	0.15	542888	keystroke_f	f	n/a
271.609	0.06	543218	keystroke_u	u	n/a
271.774	0.105	543548	keystroke_r	r	n/a
271.894	0.09	543788	keystroke_n	n	n/a
271.999	0.105	543998	keystroke_i	i	n/a
272.089	0.135	544178	keystroke_s	s	n/a
272.224	0.09	544448	keystroke_h	h	n/a
272.404	0.12	544808	keystroke_i	i	n/a
272.479	0.105	544958	keystroke_n	n	n/a
272.569	0.12	545138	keystroke_g	g	n/a
272.674	0.06	545348	keystroke_Key.space	Key.space	n/a
273.274	0.105	546548	keystroke_Key.backspace	Key.backspace	n/a
273.454	0.135	546908	keystroke_s	s	n/a
273.604	0.09	547208	keystroke_Key.space	Key.space	n/a
274.069	0.1045	548138	keystroke_d	d	n/a
274.8935	0.12	549787	keystroke_v	v	n/a
275.5085	0.075	551017	keystroke_d	d	n/a
275.8985	0.105	551797	keystroke_s	s	n/a
276.1535	0.105	552307	keystroke_Key.enter	Key.enter	n/a
276.266	5.0945	552532	prompt	n/a	ruby designers duke meta\n
276.9635	0.135	553927	keystroke_r	r	n/a
277.1585	0.06	554317	keystroke_u	u	n/a
277.3685	0.075	554737	keystroke_b	b	n/a
277.5935	0.045	555187	keystroke_y	y	n/a
277.8035	0.135	555607	keystroke_Key.space	Key.space	n/a
278.2385	0.06	556477	keystroke_d	d	n/a
278.3885	0.06	556777	keystroke_e	e	n/a
278.5835	0.105	557167	keystroke_s	s	n/a
278.6735	0.09	557347	keystroke_i	i	n/a
278.7785	0.12	557557	keystroke_g	g	n/a
278.8985	0.075	557797	keystroke_n	n	n/a
278.9885	0.105	557977	keystroke_e	e	n/a
279.0335	0.105	558067	keystroke_r	r	n/a
279.2735	0.12	558547	keystroke_s	s	n/a
279.3785	0.105	558757	keystroke_Key.space	Key.space	n/a
279.6035	0.15	559207	keystroke_d	d	n/a
279.6935	0.045	559387	keystroke_u	u	n/a
279.8585	0.105	559717	keystroke_k	k	n/a
279.9785	0.165	559957	keystroke_e	e	n/a
280.0985	0.075	560197	keystroke_Key.space	Key.space	n/a
280.6535	0.105	561307	keystroke_m	m	n/a
280.7435	0.09	561487	keystroke_e	e	n/a
280.8935	0.12	561787	keystroke_t	t	n/a
280.9835	0.135	561967	keystroke_a	a	n/a
281.2685	0.09	562537	keystroke_Key.enter	Key.enter	n/a
281.3645	10.541	562729	prompt	n/a	veterinary renaissance token registrar\n
282.0785	0.105	564157	keystroke_v	v	n/a
282.3035	0.12	564607	keystroke_e	e	n/a
282.7085	0.09	565417	keystroke_t	t	n/a
282.9035	0.165	565807	keystroke_e	e	n/a
283.2485	0.09	566497	keystroke_r	r	n/a
283.8485	0.075	567697	keystroke_i	i	n/a
283.9985	0.105	567997	keystroke_n	n	n/a
284.0585	0.21	568117	keystroke_a	a	n/a
284.2385	0.12	568477	keystroke_r	r	n/a
284.3885	0.075	568777	keystroke_y	y	n/a
284.4785	0.12	568957	keystroke_Key.space	Key.space	n/a
284.7185	0.12	569437	keystroke_r	r	n/a
284.7785	0.135	569557	keystroke_e	e	n/a
285.0335	0.12	570067	keystroke_n	n	n/a
285.1385	0.12	570277	keystroke_a	a	n/a
285.2735	0.09	570547	keystroke_i	i	n/a
285.4535	0.06	570907	keystroke_s	s	n/a
285.6035	0.12	571207	keystroke_s	s	n/a
285.6785	0.135	571357	keystroke_a	a	n/a
285.8285	0.09	571657	keystroke_n	n	n/a
285.9485	0.075	571897	keystroke_c	c	n/a
286.1135	0.135	572227	keystroke_e	e	n/a
286.2185	0.09	572437	keystroke_Key.space	Key.space	n/a
286.5185	0.15	573037	keystroke_t	t	n/a
286.6835	0.105	573367	keystroke_o	o	n/a
286.9085	0.045	573817	keystroke_e	e	n/a
287.0135	0.105	574027	keystroke_k	k	n/a
287.6585	0.075	575317	keystroke_Key.backspace	Key.backspace	n/a
287.8685	0.105	575737	keystroke_Key.backspace	Key.backspace	n/a
288.1085	0.075	576217	keystroke_k	k	n/a
288.2285	0.09	576457	keystroke_e	e	n/a
288.3485	0.06	576697	keystroke_n	n	n/a
288.5135	0.12	577027	keystroke_Key.space	Key.space	n/a
289.3085	0.135	578617	keystroke_r	r	n/a
289.3985	0.105	578797	keystroke_e	e	n/a
289.6085	0.12	579217	keystroke_g	g	n/a
289.8185	0.105	579637	keystroke_i	i	n/a
290.1185	0.135	580237	keystroke_s	s	n/a
290.2985	0.105	580597	keystroke_t	t	n/a
291.1535	0.12	582307	keystroke_r	r	n/a
291.2745	0.179	582549	keystroke_a	a	n/a
291.4235	0.09	582847	keystroke_r	r	n/a
291.7985	0.105	583597	keystroke_Key.enter	Key.enter	n/a
291.9115	8.0045	583823	prompt	n/a	turned attempt buildings hydraulic\n
292.5635	0.105	585127	keystroke_t	t	n/a
292.6695	0.059	585339	keystroke_u	u	n/a
292.8785	0.06	585757	keystroke_n	n	n/a
293.3435	0.09	586687	keystroke_Key.backspace	Key.backspace	n/a
293.5085	0.105	587017	keystroke_r	r	n/a
293.6295	0.074	587259	keystroke_n	n	n/a
293.7485	0.075	587497	keystroke_e	e	n/a
293.9585	0.075	587917	keystroke_d	d	n/a
294.0785	0.105	588157	keystroke_Key.space	Key.space	n/a
294.5285	0.135	589057	keystroke_a	a	n/a
294.7385	0.06	589477	keystroke_t	t	n/a
294.8885	0.105	589777	keystroke_t	t	n/a
295.1135	0.12	590227	keystroke_e	e	n/a
295.2035	0.075	590407	keystroke_m	m	n/a
295.3835	0.105	590767	keystroke_p	p	n/a
295.5335	0.09	591067	keystroke_t	t	n/a
295.6685	0.105	591337	keystroke_Key.space	Key.space	n/a
296.5535	0.061	593107	keystroke_b	b	n/a
296.7485	0.045	593497	keystroke_u	u	n/a
296.8985	0.075	593797	keystroke_i	i	n/a
297.0635	0.09	594127	keystroke_l	l	n/a
297.1835	0.135	594367	keystroke_d	d	n/a
297.2885	0.135	594577	keystroke_i	i	n/a
297.3635	0.105	594727	keystroke_n	n	n/a
297.4535	0.105	594907	keystroke_g	g	n/a
297.6335	0.135	595267	keystroke_s	s	n/a
297.9485	0.12	595897	keystroke_Key.space	Key.space	n/a
298.1585	0.06	596317	keystroke_h	h	n/a
298.3385	0.06	596677	keystroke_y	y	n/a
298.6835	0.075	597367	keystroke_d	d	n/a
298.8635	0.135	597727	keystroke_r	r	n/a
298.9535	0.15	597907	keystroke_a	a	n/a
299.1935	0.06	598387	keystroke_u	u	n/a
299.4035	0.075	598807	keystroke_l	l	n/a
299.5385	0.075	599077	keystroke_i	i	n/a
299.6585	0.09	599317	keystroke_c	c	n/a
299.8085	0.105	599617	keystroke_Key.enter	Key.enter	n/a
299.9215	5.499	599843	prompt	n/a	baker glossary replica whats\n
300.6485	0.06	601297	keystroke_b	b	n/a
300.7385	0.135	601477	keystroke_a	a	n/a
300.8885	0.075	601777	keystroke_k	k	n/a
300.9785	0.165	601957	keystroke_e	e	n/a
301.1135	0.135	602227	keystroke_r	r	n/a
301.2785	0.12	602557	keystroke_Key.space	Key.space	n/a
301.5785	0.09	603157	keystroke_g	g	n/a
301.8335	0.06	603667	keystroke_l	l	n/a
302.0135	0.09	604027	keystroke_o	o	n/a
302.1785	0.06	604357	keystroke_s	s	n/a
302.3435	0.075	604687	keystroke_s	s	n/a
302.4785	0.135	604957	keystroke_a	a	n/a
302.5985	0.12	605197	keystroke_r	r	n/a
302.7335	0.06	605467	keystroke_y	y	n/a
302.8385	0.1045	605677	keystroke_Key.space	Key.space	n/a
303.124	0.12	606248	keystroke_r	r	n/a
303.198	0.121	606396	keystroke_e	e	n/a
303.349	0.06	606698	keystroke_p	p	n/a
303.514	0.105	607028	keystroke_l	l	n/a
303.679	0.09	607358	keystroke_i	i	n/a
303.799	0.15	607598	keystroke_c	c	n/a
303.889	0.225	607778	keystroke_a	a	n/a
304.053	0.136	608106	keystroke_Key.space	Key.space	n/a
304.353	0.105	608706	keystroke_w	w	n/a
304.444	0.104	608888	keystroke_h	h	n/a
304.549	0.165	609098	keystroke_a	a	n/a
304.683	0.121	609366	keystroke_t	t	n/a
305.044	0.12	610088	keystroke_s	s	n/a
305.329	0.089	610658	keystroke_Key.enter	Key.enter	n/a
305.43	15.1255	610860	prompt	n/a	buttons compounds increase present\n
306.169	0.06	612338	keystroke_b	b	n/a
306.469	0.06	612938	keystroke_u	u	n/a
306.678	0.045	613356	keystroke_t	t	n/a
306.799	0.105	613598	keystroke_t	t	n/a
306.919	0.12	613838	keystroke_o	o	n/a
307.053	0.076	614106	keystroke_n	n	n/a
307.114	0.21	614228	keystroke_s	s	n/a
307.263	0.0905	614526	keystroke_Key.space	Key.space	n/a
307.549	0.1185	615098	keystroke_c	c	n/a
307.624	0.21	615248	keystroke_o	o	n/a
307.8185	0.105	615637	keystroke_m	m	n/a
308.3885	0.15	616777	keystroke_p	p	n/a
308.7635	0.1205	617527	keystroke_o	o	n/a
309.0185	0.075	618037	keystroke_u	u	n/a
309.2435	0.09	618487	keystroke_n	n	n/a
309.5135	0.119	619027	keystroke_d	d	n/a
309.7985	0.12	619597	keystroke_s	s	n/a
309.9785	0.135	619957	keystroke_Key.space	Key.space	n/a
310.2335	0.135	620467	keystroke_i	i	n/a
310.3535	0.075	620707	keystroke_n	n	n/a
310.4435	0.075	620887	keystroke_c	c	n/a
310.6385	0.06	621277	keystroke_e	e	n/a
310.9385	0.21	621877	keystroke_r	r	n/a
311.2535	0.105	622507	keystroke_e	e	n/a
311.4035	0.15	622807	keystroke_a	a	n/a
311.5985	0.165	623197	keystroke_s	s	n/a
311.6135	0.03	623227	keystroke_a	a	n/a
311.7485	0.15	623497	keystroke_e	e	n/a
311.9135	0.12	623827	keystroke_Key.space	Key.space	n/a
312.1085	0.12	624217	keystroke_p	p	n/a
312.2885	0.21	624577	keystroke_r	r	n/a
312.4235	0.15	624847	keystroke_e	e	n/a
313.2785	0.09	626557	keystroke_Key.backspace	Key.backspace	n/a
313.5035	0.09	627007	keystroke_Key.backspace	Key.backspace	n/a
313.7135	0.09	627427	keystroke_Key.backspace	Key.backspace	n/a
313.9835	0.105	627967	keystroke_Key.backspace	Key.backspace	n/a
314.2385	0.105	628477	keystroke_Key.backspace	Key.backspace	n/a
314.4935	0.105	628987	keystroke_Key.backspace	Key.backspace	n/a
314.7485	0.12	629497	keystroke_Key.backspace	Key.backspace	n/a
315.0035	0.105	630007	keystroke_Key.backspace	Key.backspace	n/a
315.2435	0.105	630487	keystroke_Key.backspace	Key.backspace	n/a
315.5285	0.12	631057	keystroke_Key.backspace	Key.backspace	n/a
315.8885	0.09	631777	keystroke_Key.backspace	Key.backspace	n/a
316.1285	0.165	632257	keystroke_r	r	n/a
316.2635	0.105	632527	keystroke_e	e	n/a
317.358	0.135	634716	keystroke_a	a	n/a
317.583	0.135	635166	keystroke_s	s	n/a
317.673	0.12	635346	keystroke_e	e	n/a
317.808	0.165	635616	keystroke_Key.space	Key.space	n/a
318.753	0.076	637506	keystroke_p	p	n/a
318.918	0.165	637836	keystroke_r	r	n/a
318.993	0.12	637986	keystroke_e	e	n/a
319.263	0.15	638526	keystroke_s	s	n/a
319.968	0.105	639936	keystroke_e	e	n/a
320.058	0.09	640116	keystroke_n	n	n/a
320.193	0.105	640386	keystroke_t	t	n/a
320.478	0.075	640956	keystroke_Key.enter	Key.enter	n/a
320.56	7.886	641120	prompt	n/a	journey oxygen reaching tasks\n
321.243	0.075	642486	keystroke_j	j	n/a
321.363	0.135	642726	keystroke_o	o	n/a
321.468	0.09	642936	keystroke_u	u	n/a
321.603	0.12	643206	keystroke_r	r	n/a
321.768	0.09	643536	keystroke_n	n	n/a
321.873	0.12	643746	keystroke_e	e	n/a
322.008	0.075	644016	keystroke_y	y	n/a
322.113	0.12	644226	keystroke_Key.space	Key.space	n/a
322.263	0.15	644526	keystroke_o	o	n/a
322.428	0.12	644856	keystroke_x	x	n/a
322.878	0.075	645756	keystroke_y	y	n/a
323.238	0.09	646476	keystroke_g	g	n/a
323.343	0.105	646686	keystroke_e	e	n/a
323.478	0.091	646956	keystroke_n	n	n/a
323.613	0.12	647226	keystroke_Key.space	Key.space	n/a
323.868	0.15	647736	keystroke_r	r	n/a
323.988	0.15	647976	keystroke_e	e	n/a
324.198	0.165	648396	keystroke_a	a	n/a
324.813	0.151	649626	keystroke_c	c	n/a
324.933	0.061	649866	keystroke_h	h	n/a
325.038	0.135	650076	keystroke_i	i	n/a
325.143	0.105	650286	keystroke_n	n	n/a
325.263	0.15	650526	keystroke_g	g	n/a
325.383	0.105	650766	keystroke_Key.space	Key.space	n/a
326.178	0.105	652356	keystroke_t	t	n/a
326.268	0.15	652536	keystroke_a	a	n/a
326.448	0.136	652896	keystroke_k	k	n/a
327.468	0.09	654936	keystroke_Key.backspace	Key.backspace	n/a
327.648	0.135	655296	keystroke_s	s	n/a
327.753	0.12	655506	keystroke_k	k	n/a
328.023	0.12	656046	keystroke_s	s	n/a
328.338	0.105	656676	keystroke_Key.enter	Key.enter	n/a
328.452	11.4385	656904	prompt	n/a	ellis enjoying port reports\n
329.298	0.09	658596	keystroke_e	e	n/a
329.508	0.09	659016	keystroke_l	l	n/a
329.658	0.105	659316	keystroke_l	l	n/a
329.808	0.105	659616	keystroke_i	i	n/a
330.123	0.135	660246	keystroke_s	s	n/a
330.213	0.135	660426	keystroke_Key.space	Key.space	n/a
332.15	0.118	664300	keystroke_e	e	n/a
332.299	0.059	664598	keystroke_n	n	n/a
332.493	0.06	664986	keystroke_j	j	n/a
332.509	0.029	665018	keystroke_h	h	n/a
332.643	0.105	665286	keystroke_o	o	n/a
332.794	0.059	665588	keystroke_y	y	n/a
332.959	0.134	665918	keystroke_i	i	n/a
333.063	0.105	666126	keystroke_n	n	n/a
333.663	0.09	667326	keystroke_Key.backspace	Key.backspace	n/a
333.873	0.105	667746	keystroke_Key.backspace	Key.backspace	n/a
334.083	0.09	668166	keystroke_Key.backspace	Key.backspace	n/a
334.293	0.105	668586	keystroke_Key.backspace	Key.backspace	n/a
334.518	0.105	669036	keystroke_Key.backspace	Key.backspace	n/a
334.863	0.075	669726	keystroke_o	o	n/a
334.879	0.044	669758	keystroke_i	i	n/a
335.208	0.076	670416	keystroke_y	y	n/a
335.628	0.105	671256	keystroke_Key.backspace	Key.backspace	n/a
335.823	0.09	671646	keystroke_Key.backspace	Key.backspace	n/a
336.063	0.06	672126	keystroke_y	y	n/a
336.273	0.105	672546	keystroke_i	i	n/a
336.349	0.104	672698	keystroke_n	n	n/a
336.484	0.15	672968	keystroke_g	g	n/a
336.648	0.105	673296	keystroke_Key.space	Key.space	n/a
337.428	0.075	674856	keystroke_p	p	n/a
337.594	0.12	675188	keystroke_o	o	n/a
337.714	0.074	675428	keystroke_r	r	n/a
337.879	0.134	675758	keystroke_t	t	n/a
338.028	0.135	676056	keystroke_Key.space	Key.space	n/a
338.523	0.195	677046	keystroke_r	r	n/a
338.673	0.136	677346	keystroke_e	e	n/a
338.868	0.121	677736	keystroke_p	p	n/a
339.064	0.134	678128	keystroke_o	o	n/a
339.199	0.09	678398	keystroke_r	r	n/a
339.379	0.09	678758	keystroke_t	t	n/a
339.529	0.119	679058	keystroke_s	s	n/a
339.798	0.09	679596	keystroke_Key.enter	Key.enter	n/a
339.8945	7.3755	679789	prompt	n/a	ontario allah volumes harris\n
340.714	0.075	681428	keystroke_o	o	n/a
340.849	0.12	681698	keystroke_n	n	n/a
340.999	0.105	681998	keystroke_t	t	n/a
341.134	0.195	682268	keystroke_a	a	n/a
341.314	0.135	682628	keystroke_r	r	n/a
341.434	0.075	682868	keystroke_i	i	n/a
341.629	0.119	683258	keystroke_o	o	n/a
341.763	0.135	683526	keystroke_Key.space	Key.space	n/a
343.7435	0.1495	687487	keystroke_a	a	n/a
344.058	0.075	688116	keystroke_l	l	n/a
344.208	0.09	688416	keystroke_l	l	n/a
344.328	0.135	688656	keystroke_a	a	n/a
344.448	0.075	688896	keystroke_h	h	n/a
344.568	0.105	689136	keystroke_Key.space	Key.space	n/a
344.778	0.12	689556	keystroke_v	v	n/a
344.913	0.06	689826	keystroke_o	o	n/a
345.078	0.075	690156	keystroke_l	l	n/a
345.198	0.075	690396	keystroke_u	u	n/a
345.393	0.075	690786	keystroke_m	m	n/a
345.469	0.074	690938	keystroke_e	e	n/a
345.648	0.135	691296	keystroke_s	s	n/a
345.768	0.105	691536	keystroke_Key.space	Key.space	n/a
345.963	0.075	691926	keystroke_h	h	n/a
346.158	0.15	692316	keystroke_a	a	n/a
346.398	0.075	692796	keystroke_r	r	n/a
346.773	0.09	693546	keystroke_r	r	n/a
346.893	0.09	693786	keystroke_i	i	n/a
347.0285	0.1045	694057	keystroke_s	s	n/a
347.178	0.09	694356	keystroke_Key.enter	Key.enter	n/a
347.275	6.0545	694550	prompt	n/a	highest rico stake mobiles\n
348.333	0.06	696666	keystroke_h	h	n/a
348.453	0.09	696906	keystroke_i	i	n/a
348.573	0.105	697146	keystroke_g	g	n/a
348.693	0.075	697386	keystroke_h	h	n/a
349.098	0.075	698196	keystroke_e	e	n/a
349.278	0.165	698556	keystroke_s	s	n/a
349.413	0.135	698826	keystroke_t	t	n/a
349.549	0.074	699098	keystroke_Key.space	Key.space	n/a
349.788	0.06	699576	keystroke_r	r	n/a
349.863	0.075	699726	keystroke_i	i	n/a
349.998	0.105	699996	keystroke_c	c	n/a
350.148	0.105	700296	keystroke_o	o	n/a
350.238	0.09	700476	keystroke_Key.space	Key.space	n/a
350.433	0.105	700866	keystroke_s	s	n/a
350.583	0.105	701166	keystroke_t	t	n/a
350.703	0.15	701406	keystroke_a	a	n/a
350.898	0.105	701796	keystroke_k	k	n/a
351.004	0.119	702008	keystroke_e	e	n/a
351.108	0.105	702216	keystroke_Key.space	Key.space	n/a
352.098	0.075	704196	keystroke_m	m	n/a
352.203	0.105	704406	keystroke_o	o	n/a
352.428	0.06	704856	keystroke_b	b	n/a
352.563	0.075	705126	keystroke_i	i	n/a
352.743	0.12	705486	keystroke_l	l	n/a
352.878	0.075	705756	keystroke_e	e	n/a
353.058	0.12	706116	keystroke_s	s	n/a
353.238	0.09	706476	keystroke_Key.enter	Key.enter	n/a
353.334	10.992	706668	prompt	n/a	thereof knew tobacco shown\n
354.019	0.104	708038	keystroke_t	t	n/a
354.678	0.09	709356	keystroke_h	h	n/a
354.813	0.135	709626	keystroke_e	e	n/a
355.083	0.12	710166	keystroke_r	r	n/a
355.188	0.09	710376	keystroke_e	e	n/a
355.413	0.121	710826	keystroke_o	o	n/a
355.548	0.09	711096	keystroke_f	f	n/a
355.668	0.105	711336	keystroke_Key.space	Key.space	n/a
355.923	0.075	711846	keystroke_k	k	n/a
356.163	0.075	712326	keystroke_n	n	n/a
356.553	0.15	713106	keystroke_w	w	n/a
357.318	0.135	714636	keystroke_Key.backspace	Key.backspace	n/a
357.768	0.105	715536	keystroke_w	w	n/a
358.443	0.12	716886	keystroke_Key.backspace	Key.backspace	n/a
358.608	0.09	717216	keystroke_e	e	n/a
358.758	0.15	717516	keystroke_w	w	n/a
359.043	0.12	718086	keystroke_Key.space	Key.space	n/a
359.613	0.09	719226	keystroke_t	t	n/a
359.719	0.09	719438	keystroke_o	o	n/a
359.913	0.06	719826	keystroke_n	n	n/a
359.928	0.06	719856	keystroke_b	b	n/a
360.048	0.15	720096	keystroke_a	a	n/a
360.828	0.15	721656	keystroke_Key.backspace	Key.backspace	n/a
361.038	0.12	722076	keystroke_Key.backspace	Key.backspace	n/a
361.233	0.075	722466	keystroke_Key.backspace	Key.backspace	n/a
361.533	0.06	723066	keystroke_b	b	n/a
361.728	0.135	723456	keystroke_a	a	n/a
362.118	0.045	724236	keystroke_c	c	n/a
362.268	0.075	724536	keystroke_c	c	n/a
362.403	0.12	724806	keystroke_o	o	n/a
362.703	0.09	725406	keystroke_Key.space	Key.space	n/a
363.438	0.135	726876	keystroke_s	s	n/a
363.558	0.075	727116	keystroke_h	h	n/a
363.693	0.18	727386	keystroke_o	o	n/a
363.828	0.135	727656	keystroke_w	w	n/a
364.008	0.075	728016	keystroke_n	n	n/a
364.263	0.06	728526	keystroke_Key.enter	Key.enter	n/a
364.332	10.208	728664	prompt	n/a	acdbentity vegetarian french hungry\n
365.268	0.105	730536	keystroke_a	a	n/a
365.583	0.105	731166	keystroke_c	c	n/a
366.093	0.075	732186	keystroke_d	d	n/a
366.423	0.075	732846	keystroke_b	b	n/a
366.558	0.09	733116	keystroke_e	e	n/a
367.068	0.09	734136	keystroke_n	n	n/a
367.353	0.105	734706	keystroke_t	t	n/a
367.443	0.105	734886	keystroke_i	i	n/a
367.593	0.105	735186	keystroke_t	t	n/a
367.728	0.06	735456	keystroke_y	y	n/a
367.833	0.105	735666	keystroke_Key.space	Key.space	n/a
368.268	0.105	736536	keystroke_v	v	n/a
368.433	0.105	736866	keystroke_e	e	n/a
368.613	0.105	737226	keystroke_g	g	n/a
368.793	0.105	737586	keystroke_e	e	n/a
368.958	0.105	737916	keystroke_t	t	n/a
369.123	0.165	738246	keystroke_a	a	n/a
369.273	0.135	738546	keystroke_r	r	n/a
369.438	0.105	738876	keystroke_i	i	n/a
369.588	0.135	739176	keystroke_a	a	n/a
369.738	0.09	739476	keystroke_n	n	n/a
369.858	0.105	739716	keystroke_Key.space	Key.space	n/a
370.068	0.06	740136	keystroke_f	f	n/a
370.218	0.15	740436	keystroke_r	r	n/a
370.308	0.15	740616	keystroke_e	e	n/a
370.698	0.0895	741396	keystroke_n	n	n/a
370.8925	0.09	741785	keystroke_c	c	n/a
370.9975	0.075	741995	keystroke_h	h	n/a
371.1925	0.105	742385	keystroke_Key.space	Key.space	n/a
371.9285	0.044	743857	keystroke_h	h	n/a
372.0785	0.059	744157	keystroke_u	u	n/a
372.2725	0.076	744545	keystroke_n	n	n/a
372.4525	0.075	744905	keystroke_g	g	n/a
373.3825	0.09	746765	keystroke_r	r	n/a
373.4735	0.089	746947	keystroke_y	y	n/a
374.4325	0.105	748865	keystroke_Key.enter	Key.enter	n/a
374.544	5.7115	749088	prompt	n/a	leeds earning pairs cork\n
375.2585	0.134	750517	keystroke_l	l	n/a
375.4075	0.046	750815	keystroke_e	e	n/a
375.5125	0.09	751025	keystroke_e	e	n/a
375.7075	0.106	751415	keystroke_d	d	n/a
375.8425	0.15	751685	keystroke_s	s	n/a
376.0075	0.12	752015	keystroke_Key.space	Key.space	n/a
376.2035	0.089	752407	keystroke_e	e	n/a
376.3375	0.151	752675	keystroke_a	a	n/a
376.6225	0.105	753245	keystroke_r	r	n/a
376.8325	0.075	753665	keystroke_n	n	n/a
376.9675	0.105	753935	keystroke_i	i	n/a
377.0275	0.12	754055	keystroke_n	n	n/a
377.1625	0.135	754325	keystroke_g	g	n/a
377.2675	0.105	754535	keystroke_Key.space	Key.space	n/a
377.4025	0.105	754805	keystroke_p	p	n/a
377.5225	0.165	755045	keystroke_a	a	n/a
377.6725	0.106	755345	keystroke_i	i	n/a
377.7335	0.134	755467	keystroke_r	r	n/a
377.9425	0.166	755885	keystroke_s	s	n/a
378.0625	0.12	756125	keystroke_Key.space	Key.space	n/a
378.6475	0.12	757295	keystroke_c	c	n/a
378.7835	0.104	757567	keystroke_o	o	n/a
378.9785	0.104	757957	keystroke_r	r	n/a
379.9085	0.074	759817	keystroke_k	k	n/a
380.1775	0.075	760355	keystroke_Key.enter	Key.enter	n/a
380.26	7.945	760520	prompt	n/a	hardcover session transparency soil\n
381.1685	0.074	762337	keystroke_h	h	n/a
381.2885	0.164	762577	keystroke_a	a	n/a
381.4235	0.105	762847	keystroke_r	r	n/a
381.6035	0.119	763207	keystroke_d	d	n/a
381.9175	0.106	763835	keystroke_c	c	n/a
382.0085	0.104	764017	keystroke_o	o	n/a
382.1725	0.106	764345	keystroke_v	v	n/a
382.3235	0.15	764647	keystroke_e	e	n/a
382.4875	0.105	764975	keystroke_r	r	n/a
382.6375	0.135	765275	keystroke_Key.space	Key.space	n/a
382.9075	0.106	765815	keystroke_s	s	n/a
383.0725	0.075	766145	keystroke_e	e	n/a
383.2535	0.089	766507	keystroke_s	s	n/a
383.4035	0.179	766807	keystroke_s	s	n/a
383.5385	0.075	767077	keystroke_i	i	n/a
383.6735	0.15	767347	keystroke_o	o	n/a
383.7625	0.106	767525	keystroke_n	n	n/a
383.9135	0.149	767827	keystroke_Key.space	Key.space	n/a
384.5425	0.09	769085	keystroke_t	t	n/a
384.7375	0.106	769475	keystroke_r	r	n/a
384.8135	0.135	769627	keystroke_a	a	n/a
384.9635	0.104	769927	keystroke_n	n	n/a
385.1125	0.136	770225	keystroke_s	s	n/a
385.3375	0.105	770675	keystroke_p	p	n/a
385.4885	0.12	770977	keystroke_a	a	n/a
385.9675	0.151	771935	keystroke_r	r	n/a
386.1935	0.105	772387	keystroke_e	e	n/a
386.3435	0.104	772687	keystroke_n	n	n/a
386.4635	0.135	772927	keystroke_c	c	n/a
386.7485	0.089	773497	keystroke_y	y	n/a
387.0025	0.12	774005	keystroke_Key.space	Key.space	n/a
387.2435	0.15	774487	keystroke_s	s	n/a
387.3475	0.076	774695	keystroke_o	o	n/a
387.5285	0.045	775057	keystroke_i	i	n/a
387.6485	0.105	775297	keystroke_l	l	n/a
388.1125	0.09	776225	keystroke_Key.enter	Key.enter	n/a
388.209	9.7465	776418	prompt	n/a	simply handled nights advertising\n
388.9535	0.15	777907	keystroke_s	s	n/a
389.0725	0.061	778145	keystroke_i	i	n/a
389.2235	0.075	778447	keystroke_m	m	n/a
389.4035	0.045	778807	keystroke_p	p	n/a
389.5685	0.074	779137	keystroke_l	l	n/a
389.7635	0.06	779527	keystroke_y	y	n/a
389.8975	0.12	779795	keystroke_Key.space	Key.space	n/a
390.0335	0.075	780067	keystroke_h	h	n/a
390.1385	0.135	780277	keystroke_a	a	n/a
390.2885	0.09	780577	keystroke_n	n	n/a
390.4085	0.075	780817	keystroke_d	d	n/a
390.5885	0.074	781177	keystroke_e	e	n/a
390.7085	0.105	781417	keystroke_l	l	n/a
391.5175	0.091	783035	keystroke_Key.backspace	Key.backspace	n/a
391.7735	0.12	783547	keystroke_l	l	n/a
392.3725	0.09	784745	keystroke_Key.backspace	Key.backspace	n/a
392.5825	0.09	785165	keystroke_Key.backspace	Key.backspace	n/a
392.8235	0.12	785647	keystroke_l	l	n/a
392.9585	0.045	785917	keystroke_e	e	n/a
393.1985	0.075	786397	keystroke_d	d	n/a
393.4085	0.089	786817	keystroke_Key.space	Key.space	n/a
394.6535	0.06	789307	keystroke_n	n	n/a
394.7885	0.105	789577	keystroke_i	i	n/a
394.9385	0.09	789877	keystroke_g	g	n/a
395.0285	0.09	790057	keystroke_h	h	n/a
395.1485	0.09	790297	keystroke_t	t	n/a
395.3435	0.15	790687	keystroke_s	s	n/a
395.4635	0.12	790927	keystroke_Key.space	Key.space	n/a
395.6585	0.135	791317	keystroke_a	a	n/a
395.8535	0.089	791707	keystroke_d	d	n/a
396.0785	0.075	792157	keystroke_v	v	n/a
396.2585	0.195	792517	keystroke_e	e	n/a
396.4085	0.15	792817	keystroke_r	r	n/a
397.0235	0.09	794047	keystroke_t	t	n/a
397.1285	0.105	794257	keystroke_i	i	n/a
397.2635	0.12	794527	keystroke_s	s	n/a
397.3835	0.135	794767	keystroke_i	i	n/a
397.4885	0.075	794977	keystroke_n	n	n/a
397.5785	0.09	795157	keystroke_g	g	n/a
397.8635	0.09	795727	keystroke_Key.enter	Key.enter	n/a
397.964	7.2205	795928	prompt	n/a	benz demanding page carefully\n
398.748	0.09	797496	keystroke_b	b	n/a
398.913	0.075	797826	keystroke_e	e	n/a
399.033	0.09	798066	keystroke_n	n	n/a
399.243	0.105	798486	keystroke_z	z	n/a
399.408	0.12	798816	keystroke_Key.space	Key.space	n/a
399.693	0.075	799386	keystroke_d	d	n/a
399.873	0.075	799746	keystroke_e	e	n/a
399.993	0.09	799986	keystroke_m	m	n/a
400.113	0.12	800226	keystroke_a	a	n/a
400.278	0.075	800556	keystroke_n	n	n/a
400.503	0.045	801006	keystroke_d	d	n/a
400.998	0.12	801996	keystroke_i	i	n/a
401.088	0.105	802176	keystroke_n	n	n/a
401.238	0.15	802476	keystroke_g	g	n/a
401.389	0.104	802778	keystroke_Key.space	Key.space	n/a
402.108	0.09	804216	keystroke_p	p	n/a
402.243	0.135	804486	keystroke_a	a	n/a
402.423	0.135	804846	keystroke_g	g	n/a
402.528	0.18	805056	keystroke_e	e	n/a
402.663	0.09	805326	keystroke_Key.space	Key.space	n/a
402.963	0.105	805926	keystroke_c	c	n/a
403.248	0.135	806496	keystroke_a	a	n/a
403.428	0.18	806856	keystroke_r	r	n/a
403.593	0.12	807186	keystroke_e	e	n/a
403.953	0.105	807906	keystroke_f	f	n/a
404.088	0.06	808176	keystroke_u	u	n/a
404.298	0.06	808596	keystroke_l	l	n/a
404.448	0.06	808896	keystroke_l	l	n/a
404.613	0.075	809226	keystroke_y	y	n/a
405.093	0.09	810186	keystroke_Key.enter	Key.enter	n/a
405.188	9.7765	810376	prompt	n/a	stones representative fujitsu fisher\n
405.783	0.1045	811566	keystroke_s	s	n/a
406.2625	0.12	812525	keystroke_t	t	n/a
406.368	0.1195	812736	keystroke_o	o	n/a
406.473	0.1195	812946	keystroke_n	n	n/a
406.5775	0.0605	813155	keystroke_e	e	n/a
406.7575	0.12	813515	keystroke_s	s	n/a
406.8625	0.105	813725	keystroke_Key.space	Key.space	n/a
407.088	0.1795	814176	keystroke_r	r	n/a
407.2075	0.1205	814415	keystroke_e	e	n/a
407.3725	0.1205	814745	keystroke_p	p	n/a
407.5225	0.165	815045	keystroke_r	r	n/a
407.6125	0.0905	815225	keystroke_e	e	n/a
407.853	0.1045	815706	keystroke_e	e	n/a
408.4825	0.105	816965	keystroke_Key.backspace	Key.backspace	n/a
409.1125	0.18	818225	keystroke_s	s	n/a
409.6675	0.12	819335	keystroke_e	e	n/a
409.7725	0.09	819545	keystroke_n	n	n/a
409.8775	0.12	819755	keystroke_t	t	n/a
410.0125	0.195	820025	keystroke_a	a	n/a
410.1925	0.09	820385	keystroke_t	t	n/a
410.3275	0.09	820655	keystroke_i	i	n/a
410.4475	0.106	820895	keystroke_v	v	n/a
410.5225	0.195	821045	keystroke_e	e	n/a
410.7925	0.15	821585	keystroke_Key.space	Key.space	n/a
411.9325	0.105	823865	keystroke_f	f	n/a
412.1575	0.06	824315	keystroke_u	u	n/a
412.3975	0.09	824795	keystroke_j	j	n/a
412.5025	0.135	825005	keystroke_i	i	n/a
412.6675	0.105	825335	keystroke_t	t	n/a
412.8775	0.135	825755	keystroke_s	s	n/a
412.9975	0.075	825995	keystroke_u	u	n/a
413.1325	0.09	826265	keystroke_Key.space	Key.space	n/a
413.3875	0.09	826775	keystroke_f	f	n/a
413.4785	0.074	826957	keystroke_i	i	n/a
413.6125	0.12	827225	keystroke_s	s	n/a
413.7175	0.09	827435	keystroke_h	h	n/a
413.8675	0.18	827735	keystroke_e	e	n/a
413.9875	0.105	827975	keystroke_r	r	n/a
414.8875	0.075	829775	keystroke_Key.enter	Key.enter	n/a
414.97	6.055	829940	prompt	n/a	serve keep demonstration outcome\n
415.6985	0.119	831397	keystroke_s	s	n/a
415.8775	0.18	831755	keystroke_e	e	n/a
416.0725	0.091	832145	keystroke_r	r	n/a
416.3425	0.105	832685	keystroke_v	v	n/a
416.4775	0.15	832955	keystroke_e	e	n/a
416.5975	0.135	833195	keystroke_Key.space	Key.space	n/a
416.8225	0.12	833645	keystroke_k	k	n/a
416.9725	0.061	833945	keystroke_e	e	n/a
417.0925	0.165	834185	keystroke_e	e	n/a
417.2425	0.105	834485	keystroke_p	p	n/a
417.3485	0.104	834697	keystroke_Key.space	Key.space	n/a
417.5425	0.061	835085	keystroke_d	d	n/a
417.6925	0.105	835385	keystroke_e	e	n/a
417.8125	0.091	835625	keystroke_m	m	n/a
417.9475	0.12	835895	keystroke_o	o	n/a
418.4725	0.075	836945	keystroke_n	n	n/a
418.5775	0.135	837155	keystroke_s	s	n/a
418.7575	0.09	837515	keystroke_t	t	n/a
418.9375	0.105	837875	keystroke_r	r	n/a
419.0125	0.15	838025	keystroke_a	a	n/a
419.1935	0.089	838387	keystroke_t	t	n/a
419.3275	0.09	838655	keystroke_i	i	n/a
419.4325	0.165	838865	keystroke_o	o	n/a
419.5525	0.105	839105	keystroke_n	n	n/a
419.6425	0.12	839285	keystroke_Key.space	Key.space	n/a
419.8235	0.119	839647	keystroke_o	o	n/a
419.9275	0.09	839855	keystroke_u	u	n/a
420.0325	0.075	840065	keystroke_t	t	n/a
420.3925	0.106	840785	keystroke_c	c	n/a
420.5275	0.12	841055	keystroke_o	o	n/a
420.6335	0.134	841267	keystroke_m	m	n/a
420.7825	0.06	841565	keystroke_e	e	n/a
420.9475	0.075	841895	keystroke_Key.enter	Key.enter	n/a
421.0305	8.7095	842061	prompt	n/a	announce awards assist accessible\n
421.8325	0.135	843665	keystroke_a	a	n/a
422.1175	0.075	844235	keystroke_n	n	n/a
422.2685	0.09	844537	keystroke_n	n	n/a
422.3885	0.15	844777	keystroke_o	o	n/a
422.4935	0.089	844987	keystroke_u	u	n/a
422.6875	0.105	845375	keystroke_n	n	n/a
422.8075	0.076	845615	keystroke_c	c	n/a
422.9885	0.104	845977	keystroke_e	e	n/a
423.0935	0.119	846187	keystroke_Key.space	Key.space	n/a
423.3335	0.12	846667	keystroke_s	s	n/a
423.9325	0.12	847865	keystroke_Key.backspace	Key.backspace	n/a
424.1135	0.12	848227	keystroke_a	a	n/a
424.3375	0.09	848675	keystroke_w	w	n/a
424.8185	0.134	849637	keystroke_a	a	n/a
424.9985	0.105	849997	keystroke_r	r	n/a
425.3135	0.09	850627	keystroke_d	d	n/a
425.5075	0.121	851015	keystroke_s	s	n/a
425.7475	0.135	851495	keystroke_Key.space	Key.space	n/a
426.2125	0.12	852425	keystroke_a	a	n/a
426.4535	0.06	852907	keystroke_s	s	n/a
426.5875	0.09	853175	keystroke_s	s	n/a
426.6925	0.121	853385	keystroke_i	i	n/a
426.7975	0.151	853595	keystroke_s	s	n/a
426.9925	0.121	853985	keystroke_t	t	n/a
427.1575	0.09	854315	keystroke_Key.space	Key.space	n/a
427.4275	0.12	854855	keystroke_a	a	n/a
427.6985	0.075	855397	keystroke_c	c	n/a
427.8475	0.076	855695	keystroke_c	c	n/a
428.0575	0.091	856115	keystroke_e	e	n/a
428.3735	0.059	856747	keystroke_s	s	n/a
428.5235	0.104	857047	keystroke_s	s	n/a
428.6285	0.074	857257	keystroke_i	i	n/a
428.8075	0.06	857615	keystroke_b	b	n/a
429.0025	0.09	858005	keystroke_l	l	n/a
429.3635	0.104	858727	keystroke_e	e	n/a
429.6485	0.089	859297	keystroke_Key.enter	Key.enter	n/a
429.7455	7.2845	859491	prompt	n/a	prompt employer olympic focus\n
430.5485	0.075	861097	keystroke_p	p	n/a
431.0285	0.12	862057	keystroke_r	r	n/a
431.1775	0.121	862355	keystroke_o	o	n/a
431.3425	0.091	862685	keystroke_m	m	n/a
431.5535	0.105	863107	keystroke_p	p	n/a
431.7335	0.06	863467	keystroke_t	t	n/a
432.0785	0.12	864157	keystroke_Key.space	Key.space	n/a
432.4835	0.09	864967	keystroke_e	e	n/a
432.6335	0.09	865267	keystroke_m	m	n/a
432.8285	0.09	865657	keystroke_p	p	n/a
433.0235	0.059	866047	keystroke_l	l	n/a
433.1735	0.09	866347	keystroke_o	o	n/a
433.3685	0.06	866737	keystroke_y	y	n/a
433.5335	0.165	867067	keystroke_e	e	n/a
433.6835	0.12	867367	keystroke_r	r	n/a
433.8175	0.106	867635	keystroke_Key.space	Key.space	n/a
433.9535	0.075	867907	keystroke_o	o	n/a
434.1335	0.06	868267	keystroke_l	l	n/a
434.3135	0.045	868627	keystroke_y	y	n/a
434.5085	0.06	869017	keystroke_m	m	n/a
434.7935	0.075	869587	keystroke_p	p	n/a
434.9875	0.091	869975	keystroke_i	i	n/a
435.1385	0.135	870277	keystroke_c	c	n/a
435.2575	0.106	870515	keystroke_Key.space	Key.space	n/a
435.5125	0.166	871025	keystroke_f	f	n/a
436.2035	0.105	872407	keystroke_o	o	n/a
436.3835	0.12	872767	keystroke_c	c	n/a
436.4735	0.09	872947	keystroke_u	u	n/a
436.6535	0.105	873307	keystroke_s	s	n/a
436.9375	0.091	873875	keystroke_Key.enter	Key.enter	n/a
437.0355	6.4745	874071	prompt	n/a	rooms sitting scientists ending\n
437.7035	0.12	875407	keystroke_r	r	n/a
437.9135	0.09	875827	keystroke_o	o	n/a
438.0635	0.105	876127	keystroke_o	o	n/a
438.2135	0.105	876427	keystroke_m	m	n/a
438.3635	0.21	876727	keystroke_s	s	n/a
438.5125	0.09	877025	keystroke_Key.space	Key.space	n/a
438.7985	0.135	877597	keystroke_s	s	n/a
439.1285	0.089	878257	keystroke_i	i	n/a
439.3085	0.059	878617	keystroke_t	t	n/a
439.4285	0.075	878857	keystroke_t	t	n/a
439.5635	0.15	879127	keystroke_i	i	n/a
439.6685	0.12	879337	keystroke_n	n	n/a
439.7735	0.18	879547	keystroke_g	g	n/a
439.9085	0.12	879817	keystroke_Key.space	Key.space	n/a
440.2235	0.12	880447	keystroke_s	s	n/a
440.7635	0.105	881527	keystroke_c	c	n/a
440.9135	0.09	881827	keystroke_i	i	n/a
441.0635	0.105	882127	keystroke_e	e	n/a
441.1985	0.09	882397	keystroke_n	n	n/a
441.3485	0.105	882697	keystroke_t	t	n/a
441.4685	0.12	882937	keystroke_i	i	n/a
441.7385	0.135	883477	keystroke_s	s	n/a
441.9185	0.075	883837	keystroke_t	t	n/a
442.1135	0.12	884227	keystroke_s	s	n/a
442.2625	0.121	884525	keystroke_Key.space	Key.space	n/a
442.6085	0.105	885217	keystroke_e	e	n/a
442.7585	0.09	885517	keystroke_n	n	n/a
442.8785	0.12	885757	keystroke_d	d	n/a
442.9835	0.15	885967	keystroke_i	i	n/a
443.0735	0.12	886147	keystroke_n	n	n/a
443.1785	0.105	886357	keystroke_g	g	n/a
443.4035	0.105	886807	keystroke_Key.enter	Key.enter	n/a
443.5215	7.788	887043	prompt	n/a	variation shops accomplished informed\n
444.4085	0.12	888817	keystroke_v	v	n/a
444.5585	0.165	889117	keystroke_a	a	n/a
445.0385	0.165	890077	keystroke_r	r	n/a
445.1885	0.09	890377	keystroke_i	i	n/a
445.3085	0.15	890617	keystroke_a	a	n/a
445.4885	0.09	890977	keystroke_t	t	n/a
445.6235	0.09	891247	keystroke_i	i	n/a
445.7585	0.195	891517	keystroke_o	o	n/a
445.8635	0.12	891727	keystroke_n	n	n/a
445.9685	0.105	891937	keystroke_Key.space	Key.space	n/a
446.1785	0.12	892357	keystroke_s	s	n/a
446.2685	0.075	892537	keystroke_h	h	n/a
446.4335	0.105	892867	keystroke_o	o	n/a
446.6435	0.12	893287	keystroke_p	p	n/a
446.8985	0.135	893797	keystroke_s	s	n/a
447.0785	0.105	894157	keystroke_Key.space	Key.space	n/a
447.3485	0.105	894697	keystroke_a	a	n/a
447.6335	0.075	895267	keystroke_c	c	n/a
447.7835	0.105	895567	keystroke_c	c	n/a
447.8885	0.075	895777	keystroke_o	o	n/a
448.1885	0.075	896377	keystroke_m	m	n/a
448.3835	0.075	896767	keystroke_p	p	n/a
448.5935	0.09	897187	keystroke_l	l	n/a
448.848	0.0905	897696	keystroke_i	i	n/a
448.953	0.1655	897906	keystroke_s	s	n/a
449.103	0.0905	898206	keystroke_h	h	n/a
449.223	0.0905	898446	keystroke_e	e	n/a
449.4185	0.12	898837	keystroke_d	d	n/a
449.5385	0.1195	899077	keystroke_Key.space	Key.space	n/a
449.748	0.1205	899496	keystroke_i	i	n/a
449.823	0.105	899646	keystroke_n	n	n/a
450.003	0.09	900006	keystroke_f	f	n/a
450.123	0.12	900246	keystroke_o	o	n/a
450.258	0.12	900516	keystroke_r	r	n/a
450.648	0.12	901296	keystroke_m	m	n/a
450.753	0.0605	901506	keystroke_e	e	n/a
450.948	0.09	901896	keystroke_d	d	n/a
451.218	0.09	902436	keystroke_Key.enter	Key.enter	n/a
451.3145	11.0365	902629	prompt	n/a	foul formatting contribute donation\n
452.013	0.105	904026	keystroke_f	f	n/a
452.133	0.12	904266	keystroke_o	o	n/a
452.223	0.075	904446	keystroke_u	u	n/a
452.403	0.105	904806	keystroke_l	l	n/a
452.523	0.105	905046	keystroke_Key.space	Key.space	n/a
452.733	0.075	905466	keystroke_f	f	n/a
452.823	0.105	905646	keystroke_o	o	n/a
452.943	0.105	905886	keystroke_r	r	n/a
453.093	0.09	906186	keystroke_m	m	n/a
453.333	0.12	906666	keystroke_a	a	n/a
453.573	0.06	907146	keystroke_t	t	n/a
453.708	0.105	907416	keystroke_t	t	n/a
453.858	0.15	907716	keystroke_i	i	n/a
453.933	0.135	907866	keystroke_n	n	n/a
454.083	0.165	908166	keystroke_g	g	n/a
454.233	0.12	908466	keystroke_Key.space	Key.space	n/a
455.178	0.135	910356	keystroke_c	c	n/a
455.298	0.12	910596	keystroke_o	o	n/a
455.388	0.12	910776	keystroke_n	n	n/a
455.553	0.105	911106	keystroke_t	t	n/a
455.928	0.09	911856	keystroke_r	r	n/a
456.048	0.075	912096	keystroke_i	i	n/a
456.198	0.075	912396	keystroke_n	n	n/a
456.378	0.06	912756	keystroke_u	u	n/a
456.573	0.105	913146	keystroke_t	t	n/a
456.723	0.135	913446	keystroke_e	e	n/a
456.873	0.12	913746	keystroke_Key.space	Key.space	n/a
457.923	0.075	915846	keystroke_Key.backspace	Key.backspace	n/a
458.118	0.09	916236	keystroke_Key.backspace	Key.backspace	n/a
458.373	0.09	916746	keystroke_Key.backspace	Key.backspace	n/a
458.583	0.105	917166	keystroke_Key.backspace	Key.backspace	n/a
458.808	0.105	917616	keystroke_Key.backspace	Key.backspace	n/a
459.408	0.06	918816	keystroke_b	b	n/a
459.633	0.045	919266	keystroke_u	u	n/a
459.813	0.105	919626	keystroke_t	t	n/a
459.993	0.12	919986	keystroke_e	e	n/a
460.203	0.105	920406	keystroke_Key.space	Key.space	n/a
460.908	0.12	921816	keystroke_d	d	n/a
461.013	0.09	922026	keystroke_o	o	n/a
461.193	0.09	922386	keystroke_n	n	n/a
461.298	0.18	922596	keystroke_a	a	n/a
461.463	0.12	922926	keystroke_t	t	n/a
461.598	0.09	923196	keystroke_i	i	n/a
461.748	0.165	923496	keystroke_o	o	n/a
461.838	0.135	923676	keystroke_n	n	n/a
462.243	0.105	924486	keystroke_Key.enter	Key.enter	n/a
462.356	4.9585	924712	prompt	n/a	nights showed indexed boots\n
463.023	0.09	926046	keystroke_n	n	n/a
463.143	0.105	926286	keystroke_i	i	n/a
463.263	0.09	926526	keystroke_g	g	n/a
463.368	0.12	926736	keystroke_h	h	n/a
463.473	0.075	926946	keystroke_t	t	n/a
463.593	0.21	927186	keystroke_s	s	n/a
463.758	0.09	927516	keystroke_Key.space	Key.space	n/a
463.983	0.105	927966	keystroke_s	s	n/a
464.058	0.09	928116	keystroke_h	h	n/a
464.133	0.15	928266	keystroke_o	o	n/a
464.238	0.09	928476	keystroke_w	w	n/a
464.463	0.075	928926	keystroke_e	e	n/a
464.673	0.12	929346	keystroke_d	d	n/a
464.808	0.105	929616	keystroke_Key.space	Key.space	n/a
465.018	0.12	930036	keystroke_i	i	n/a
465.078	0.105	930156	keystroke_n	n	n/a
465.243	0.075	930486	keystroke_d	d	n/a
465.393	0.075	930786	keystroke_e	e	n/a
465.633	0.12	931266	keystroke_x	x	n/a
465.813	0.075	931626	keystroke_e	e	n/a
466.008	0.12	932016	keystroke_d	d	n/a
466.143	0.09	932286	keystroke_Key.space	Key.space	n/a
466.338	0.075	932676	keystroke_b	b	n/a
466.533	0.075	933066	keystroke_o	o	n/a
466.698	0.135	933396	keystroke_o	o	n/a
466.788	0.105	933576	keystroke_t	t	n/a
466.968	0.12	933936	keystroke_s	s	n/a
467.208	0.105	934416	keystroke_Key.enter	Key.enter	n/a
467.3195	9.8805	934639	prompt	n/a	relax register funky floyd\n
468.003	0.165	936006	keystroke_r	r	n/a
468.093	0.12	936186	keystroke_e	e	n/a
468.228	0.135	936456	keystroke_l	l	n/a
468.363	0.105	936726	keystroke_a	a	n/a
469.038	0.12	938076	keystroke_x	x	n/a
469.233	0.105	938466	keystroke_Key.space	Key.space	n/a
469.923	0.135	939846	keystroke_r	r	n/a
470.028	0.12	940056	keystroke_e	e	n/a
470.253	0.09	940506	keystroke_g	g	n/a
470.373	0.15	940746	keystroke_i	i	n/a
470.508	0.12	941016	keystroke_s	s	n/a
470.673	0.105	941346	keystroke_t	t	n/a
470.823	0.195	941646	keystroke_e	e	n/a
470.958	0.15	941916	keystroke_r	r	n/a
471.093	0.09	942186	keystroke_Key.space	Key.space	n/a
471.348	0.165	942696	keystroke_f	f	n/a
471.498	0.06	942996	keystroke_u	u	n/a
471.528	0.015	943056	keystroke_f	f	n/a
471.993	0.075	943986	keystroke_n	n	n/a
472.173	0.09	944346	keystroke_k	k	n/a
472.413	0.045	944826	keystroke_y	y	n/a
472.728	0.12	945456	keystroke_Key.space	Key.space	n/a
473.958	0.12	947916	keystroke_Key.backspace	Key.backspace	n/a
474.183	0.105	948366	keystroke_Key.backspace	Key.backspace	n/a
474.408	0.09	948816	keystroke_Key.backspace	Key.backspace	n/a
474.618	0.105	949236	keystroke_Key.backspace	Key.backspace	n/a
474.843	0.09	949686	keystroke_Key.backspace	Key.backspace	n/a
475.323	0.09	950646	keystroke_n	n	n/a
475.518	0.09	951036	keystroke_k	k	n/a
475.758	0.06	951516	keystroke_y	y	n/a
475.908	0.105	951816	keystroke_Key.space	Key.space	n/a
476.118	0.12	952236	keystroke_f	f	n/a
476.223	0.076	952446	keystroke_l	l	n/a
476.418	0.06	952836	keystroke_o	o	n/a
476.583	0.06	953166	keystroke_y	y	n/a
476.733	0.105	953466	keystroke_d	d	n/a
477.108	0.09	954216	keystroke_Key.enter	Key.enter	n/a
477.209	6.456	954418	prompt	n/a	carry prev sharon motorcycle\n
477.858	0.105	955716	keystroke_c	c	n/a
478.008	0.135	956016	keystroke_a	a	n/a
478.188	0.06	956376	keystroke_r	r	n/a
478.323	0.09	956646	keystroke_r	r	n/a
478.503	0.075	957006	keystroke_y	y	n/a
478.608	0.135	957216	keystroke_Key.space	Key.space	n/a
478.848	0.105	957696	keystroke_p	p	n/a
479.043	0.12	958086	keystroke_r	r	n/a
479.133	0.135	958266	keystroke_e	e	n/a
479.403	0.09	958806	keystroke_v	v	n/a
479.568	0.105	959136	keystroke_Key.space	Key.space	n/a
479.883	0.105	959766	keystroke_s	s	n/a
480.033	0.075	960066	keystroke_h	h	n/a
480.138	0.165	960276	keystroke_a	a	n/a
480.753	0.105	961506	keystroke_r	r	n/a
480.873	0.09	961746	keystroke_o	o	n/a
481.038	0.09	962076	keystroke_n	n	n/a
481.458	0.15	962916	keystroke_Key.space	Key.space	n/a
481.878	0.075	963756	keystroke_m	m	n/a
482.028	0.09	964056	keystroke_o	o	n/a
482.133	0.09	964266	keystroke_t	t	n/a
482.268	0.12	964536	keystroke_o	o	n/a
482.373	0.09	964746	keystroke_r	r	n/a
482.643	0.135	965286	keystroke_c	c	n/a
482.763	0.06	965526	keystroke_y	y	n/a
482.913	0.09	965826	keystroke_c	c	n/a
483.049	0.179	966098	keystroke_l	l	n/a
483.183	0.075	966366	keystroke_e	e	n/a
483.543	0.12	967086	keystroke_Key.enter	Key.enter	n/a
483.6695	7.8855	967339	prompt	n/a	convention specified occasions setup\n
484.323	0.12	968646	keystroke_c	c	n/a
484.458	0.09	968916	keystroke_o	o	n/a
484.578	0.12	969156	keystroke_n	n	n/a
484.728	0.075	969456	keystroke_v	v	n/a
484.848	0.15	969696	keystroke_e	e	n/a
485.028	0.105	970056	keystroke_n	n	n/a
485.148	0.12	970296	keystroke_t	t	n/a
485.298	0.075	970596	keystroke_i	i	n/a
485.418	0.195	970836	keystroke_o	o	n/a
485.5375	0.12	971075	keystroke_n	n	n/a
485.6725	0.105	971345	keystroke_Key.space	Key.space	n/a
485.913	0.15	971826	keystroke_s	s	n/a
486.033	0.12	972066	keystroke_p	p	n/a
486.168	0.0595	972336	keystroke_e	e	n/a
486.8725	0.0905	973745	keystroke_c	c	n/a
486.993	0.1045	973986	keystroke_i	i	n/a
487.1575	0.09	974315	keystroke_f	f	n/a
487.2775	0.18	974555	keystroke_i	i	n/a
487.4725	0.075	974945	keystroke_e	e	n/a
487.6675	0.135	975335	keystroke_d	d	n/a
487.7875	0.105	975575	keystroke_Key.space	Key.space	n/a
488.013	0.1195	976026	keystroke_o	o	n/a
488.163	0.0595	976326	keystroke_c	c	n/a
488.2975	0.09	976595	keystroke_c	c	n/a
488.4475	0.121	976895	keystroke_a	a	n/a
488.6725	0.181	977345	keystroke_s	s	n/a
488.7925	0.09	977585	keystroke_i	i	n/a
488.9125	0.255	977825	keystroke_o	o	n/a
489.0175	0.105	978035	keystroke_n	n	n/a
489.1525	0.195	978305	keystroke_s	s	n/a
489.3175	0.135	978635	keystroke_Key.space	Key.space	n/a
489.6475	0.135	979295	keystroke_s	s	n/a
490.2325	0.105	980465	keystroke_e	e	n/a
490.3675	0.09	980735	keystroke_t	t	n/a
490.6375	0.075	981275	keystroke_u	u	n/a
490.7725	0.135	981545	keystroke_p	p	n/a
491.4625	0.09	982925	keystroke_Key.enter	Key.enter	n/a
491.5625	6.247	983125	prompt	n/a	locally commercial decor issued\n
492.2425	0.075	984485	keystroke_l	l	n/a
492.4385	0.089	984877	keystroke_o	o	n/a
492.5875	0.12	985175	keystroke_c	c	n/a
492.6775	0.165	985355	keystroke_a	a	n/a
492.8285	0.074	985657	keystroke_l	l	n/a
492.9775	0.076	985955	keystroke_l	l	n/a
493.1425	0.075	986285	keystroke_y	y	n/a
493.2775	0.105	986555	keystroke_Key.space	Key.space	n/a
493.5175	0.105	987035	keystroke_c	c	n/a
493.6235	0.104	987247	keystroke_o	o	n/a
494.0125	0.075	988025	keystroke_m	m	n/a
494.1785	0.09	988357	keystroke_m	m	n/a
494.2825	0.225	988565	keystroke_e	e	n/a
494.4625	0.106	988925	keystroke_r	r	n/a
494.7785	0.104	989557	keystroke_c	c	n/a
494.8835	0.074	989767	keystroke_i	i	n/a
494.9875	0.12	989975	keystroke_a	a	n/a
495.1225	0.09	990245	keystroke_l	l	n/a
495.2575	0.105	990515	keystroke_Key.space	Key.space	n/a
495.6925	0.076	991385	keystroke_d	d	n/a
495.8575	0.06	991715	keystroke_e	e	n/a
496.0525	0.105	992105	keystroke_c	c	n/a
496.1435	0.105	992287	keystroke_o	o	n/a
496.2935	0.149	992587	keystroke_r	r	n/a
496.4125	0.105	992825	keystroke_Key.space	Key.space	n/a
496.6975	0.105	993395	keystroke_i	i	n/a
496.8485	0.075	993697	keystroke_s	s	n/a
496.9825	0.12	993965	keystroke_s	s	n/a
497.0885	0.089	994177	keystroke_u	u	n/a
497.2225	0.06	994445	keystroke_e	e	n/a
497.4185	0.089	994837	keystroke_d	d	n/a
497.7035	0.104	995407	keystroke_Key.enter	Key.enter	n/a
497.8145	11.7555	995629	prompt	n/a	saving inappropriate additions battlefield\n
498.6625	0.091	997325	keystroke_s	s	n/a
498.8735	0.074	997747	keystroke_v	v	n/a
498.9025	0.195	997805	keystroke_a	a	n/a
499.7425	0.105	999485	keystroke_Key.backspace	Key.backspace	n/a
499.9675	0.105	999935	keystroke_Key.backspace	Key.backspace	n/a
500.1025	0.15	1000205	keystroke_a	a	n/a
500.6125	0.09	1001225	keystroke_v	v	n/a
500.7485	0.134	1001497	keystroke_i	i	n/a
500.8535	0.105	1001707	keystroke_n	n	n/a
500.9585	0.15	1001917	keystroke_g	g	n/a
501.0625	0.12	1002125	keystroke_Key.space	Key.space	n/a
501.3325	0.076	1002665	keystroke_i	i	n/a
501.5285	0.105	1003057	keystroke_n	n	n/a
501.7675	0.136	1003535	keystroke_a	a	n/a
501.9475	0.091	1003895	keystroke_p	p	n/a
502.1275	0.09	1004255	keystroke_p	p	n/a
503.3435	0.15	1006687	keystroke_r	r	n/a
503.4785	0.075	1006957	keystroke_o	o	n/a
503.6585	0.104	1007317	keystroke_p	p	n/a
504.7525	0.136	1009505	keystroke_r	r	n/a
504.8735	0.104	1009747	keystroke_i	i	n/a
505.0085	0.27	1010017	keystroke_a	a	n/a
505.2025	0.195	1010405	keystroke_t	t	n/a
505.3675	0.151	1010735	keystroke_e	e	n/a
505.5475	0.135	1011095	keystroke_Key.space	Key.space	n/a
505.8775	0.121	1011755	keystroke_a	a	n/a
506.1035	0.074	1012207	keystroke_d	d	n/a
506.2385	0.12	1012477	keystroke_d	d	n/a
506.3585	0.074	1012717	keystroke_i	i	n/a
506.4785	0.135	1012957	keystroke_t	t	n/a
506.5985	0.18	1013197	keystroke_i	i	n/a
506.6885	0.24	1013377	keystroke_o	o	n/a
506.7625	0.121	1013525	keystroke_n	n	n/a
506.9125	0.136	1013825	keystroke_s	s	n/a
507.0025	0.151	1014005	keystroke_Key.space	Key.space	n/a
507.2875	0.061	1014575	keystroke_b	b	n/a
507.4085	0.15	1014817	keystroke_a	a	n/a
507.6785	0.06	1015357	keystroke_t	t	n/a
507.8135	0.104	1015627	keystroke_t	t	n/a
507.9785	0.135	1015957	keystroke_l	l	n/a
508.1435	0.089	1016287	keystroke_e	e	n/a
508.5185	0.089	1017037	keystroke_f	f	n/a
508.6235	0.075	1017247	keystroke_i	i	n/a
508.7435	0.074	1017487	keystroke_e	e	n/a
508.8935	0.12	1017787	keystroke_l	l	n/a
509.0735	0.059	1018147	keystroke_d	d	n/a
509.4775	0.091	1018955	keystroke_Key.enter	Key.enter	n/a
509.575	9.445	1019150	prompt	n/a	retailer compressed shots verzeichnis\n
510.7825	0.121	1021565	keystroke_r	r	n/a
510.8585	0.135	1021717	keystroke_e	e	n/a
511.1285	0.12	1022257	keystroke_t	t	n/a
511.2175	0.151	1022435	keystroke_a	a	n/a
511.3385	0.074	1022677	keystroke_i	i	n/a
511.5025	0.0905	1023005	keystroke_l	l	n/a
511.623	0.195	1023246	keystroke_e	e	n/a
511.773	0.135	1023546	keystroke_r	r	n/a
511.922	0.1055	1023844	keystroke_Key.space	Key.space	n/a
512.193	0.0895	1024386	keystroke_c	c	n/a
512.298	0.165	1024596	keystroke_o	o	n/a
512.4335	0.1195	1024867	keystroke_m	m	n/a
512.673	0.12	1025346	keystroke_p	p	n/a
512.898	0.135	1025796	keystroke_r	r	n/a
512.988	0.105	1025976	keystroke_e	e	n/a
513.257	0.046	1026514	keystroke_s	s	n/a
513.407	0.151	1026814	keystroke_s	s	n/a
513.543	0.09	1027086	keystroke_e	e	n/a
513.737	0.106	1027474	keystroke_d	d	n/a
513.872	0.105	1027744	keystroke_Key.space	Key.space	n/a
514.173	0.105	1028346	keystroke_s	s	n/a
514.293	0.06	1028586	keystroke_h	h	n/a
514.398	0.12	1028796	keystroke_o	o	n/a
514.593	0.09	1029186	keystroke_t	t	n/a
514.787	0.106	1029574	keystroke_s	s	n/a
514.968	0.105	1029936	keystroke_Key.space	Key.space	n/a
515.507	0.091	1031014	keystroke_v	v	n/a
515.688	0.21	1031376	keystroke_e	e	n/a
515.883	0.12	1031766	keystroke_r	r	n/a
516.498	0.12	1032996	keystroke_z	z	n/a
516.753	0.105	1033506	keystroke_e	e	n/a
517.113	0.09	1034226	keystroke_i	i	n/a
517.923	0.12	1035846	keystroke_c	c	n/a
518.058	0.075	1036116	keystroke_h	h	n/a
518.313	0.105	1036626	keystroke_n	n	n/a
518.403	0.12	1036806	keystroke_i	i	n/a
518.508	0.135	1037016	keystroke_s	s	n/a
518.928	0.09	1037856	keystroke_Key.enter	Key.enter	n/a
519.024	5.981	1038048	prompt	n/a	frog oclc sticker intl\n
519.843	0.045	1039686	keystroke_f	f	n/a
520.023	0.105	1040046	keystroke_r	r	n/a
520.143	0.12	1040286	keystroke_o	o	n/a
520.473	0.09	1040946	keystroke_g	g	n/a
520.608	0.12	1041216	keystroke_Key.space	Key.space	n/a
521.178	0.105	1042356	keystroke_o	o	n/a
521.313	0.105	1042626	keystroke_c	c	n/a
521.478	0.12	1042956	keystroke_l	l	n/a
521.703	0.09	1043406	keystroke_c	c	n/a
521.883	0.135	1043766	keystroke_Key.space	Key.space	n/a
522.363	0.135	1044726	keystroke_s	s	n/a
522.558	0.12	1045116	keystroke_t	t	n/a
522.798	0.075	1045596	keystroke_i	i	n/a
522.918	0.09	1045836	keystroke_c	c	n/a
523.068	0.09	1046136	keystroke_k	k	n/a
523.143	0.18	1046286	keystroke_e	e	n/a
523.278	0.09	1046556	keystroke_r	r	n/a
523.383	0.105	1046766	keystroke_Key.space	Key.space	n/a
523.638	0.108	1047276	keystroke_i	i	n/a
523.9975	0.105	1047995	keystroke_n	n	n/a
524.1625	0.105	1048325	keystroke_t	t	n/a
524.2825	0.105	1048565	keystroke_l	l	n/a
524.8975	0.105	1049795	keystroke_Key.enter	Key.enter	n/a
525.0155	11.6745	1050031	prompt	n/a	width palm conferences improved\n
525.8425	0.12	1051685	keystroke_w	w	n/a
525.9635	0.089	1051927	keystroke_i	i	n/a
526.0825	0.09	1052165	keystroke_t	t	n/a
526.2025	0.06	1052405	keystroke_h	h	n/a
526.8175	0.075	1053635	keystroke_Key.backspace	Key.backspace	n/a
527.0125	0.12	1054025	keystroke_d	d	n/a
527.8375	0.09	1055675	keystroke_t	t	n/a
527.9725	0.09	1055945	keystroke_h	h	n/a
529.0075	0.105	1058015	keystroke_Key.backspace	Key.backspace	n/a
529.2475	0.075	1058495	keystroke_Key.backspace	Key.backspace	n/a
529.5025	0.09	1059005	keystroke_Key.backspace	Key.backspace	n/a
529.7275	0.09	1059455	keystroke_Key.backspace	Key.backspace	n/a
530.0875	0.09	1060175	keystroke_d	d	n/a
530.3125	0.06	1060625	keystroke_t	t	n/a
530.3875	0.075	1060775	keystroke_h	h	n/a
530.5525	0.12	1061105	keystroke_Key.space	Key.space	n/a
531.2725	0.12	1062545	keystroke_p	p	n/a
531.4225	0.165	1062845	keystroke_a	a	n/a
531.6625	0.105	1063325	keystroke_l	l	n/a
531.9475	0.075	1063895	keystroke_m	m	n/a
532.3375	0.12	1064675	keystroke_Key.space	Key.space	n/a
532.7125	0.12	1065425	keystroke_c	c	n/a
532.8175	0.105	1065635	keystroke_o	o	n/a
532.9075	0.105	1065815	keystroke_n	n	n/a
533.1775	0.09	1066355	keystroke_f	f	n/a
533.3575	0.09	1066715	keystroke_e	e	n/a
533.5675	0.12	1067135	keystroke_r	r	n/a
533.6435	0.089	1067287	keystroke_e	e	n/a
533.8975	0.105	1067795	keystroke_n	n	n/a
534.0175	0.09	1068035	keystroke_c	c	n/a
534.2125	0.075	1068425	keystroke_e	e	n/a
534.3925	0.15	1068785	keystroke_s	s	n/a
534.5275	0.12	1069055	keystroke_Key.space	Key.space	n/a
534.7225	0.09	1069445	keystroke_i	i	n/a
534.9025	0.075	1069805	keystroke_m	m	n/a
535.0825	0.105	1070165	keystroke_p	p	n/a
535.6235	0.104	1071247	keystroke_r	r	n/a
535.7425	0.09	1071485	keystroke_o	o	n/a
535.8925	0.105	1071785	keystroke_v	v	n/a
535.9675	0.12	1071935	keystroke_e	e	n/a
536.2375	0.09	1072475	keystroke_d	d	n/a
536.5975	0.09	1073195	keystroke_Key.enter	Key.enter	n/a
536.696	9.2785	1073392	prompt	n/a	spirituality bracelet matter voluntary\n
537.4375	0.106	1074875	keystroke_s	s	n/a
537.6485	0.074	1075297	keystroke_p	p	n/a
537.8725	0.09	1075745	keystroke_i	i	n/a
538.0675	0.076	1076135	keystroke_r	r	n/a
538.1575	0.091	1076315	keystroke_i	i	n/a
538.2625	0.09	1076525	keystroke_t	t	n/a
538.3825	0.075	1076765	keystroke_u	u	n/a
538.5025	0.15	1077005	keystroke_a	a	n/a
538.6685	0.074	1077337	keystroke_l	l	n/a
538.8625	0.06	1077725	keystroke_i	i	n/a
538.9525	0.075	1077905	keystroke_t	t	n/a
539.0735	0.059	1078147	keystroke_y	y	n/a
539.2075	0.09	1078415	keystroke_Key.space	Key.space	n/a
539.6885	0.075	1079377	keystroke_b	b	n/a
539.8385	0.134	1079677	keystroke_r	r	n/a
539.9275	0.105	1079855	keystroke_a	a	n/a
540.1525	0.075	1080305	keystroke_c	c	n/a
540.3325	0.09	1080665	keystroke_e	e	n/a
540.4675	0.121	1080935	keystroke_l	l	n/a
540.6035	0.104	1081207	keystroke_e	e	n/a
540.7825	0.105	1081565	keystroke_t	t	n/a
540.9325	0.105	1081865	keystroke_Key.space	Key.space	n/a
541.3685	0.074	1082737	keystroke_m	m	n/a
541.5035	0.164	1083007	keystroke_a	a	n/a
541.7275	0.075	1083455	keystroke_t	t	n/a
541.8775	0.076	1083755	keystroke_t	t	n/a
542.0275	0.21	1084055	keystroke_e	e	n/a
542.1935	0.119	1084387	keystroke_r	r	n/a
542.2975	0.105	1084595	keystroke_Key.space	Key.space	n/a
542.7325	0.075	1085465	keystroke_v	v	n/a
542.8975	0.09	1085795	keystroke_o	o	n/a
543.8725	0.075	1087745	keystroke_l	l	n/a
544.0385	0.059	1088077	keystroke_u	u	n/a
544.2185	0.089	1088437	keystroke_n	n	n/a
544.3525	0.15	1088705	keystroke_t	t	n/a
544.6375	0.18	1089275	keystroke_a	a	n/a
544.7875	0.106	1089575	keystroke_r	r	n/a
544.9385	0.074	1089877	keystroke_y	y	n/a
545.8825	0.09	1091765	keystroke_Key.enter	Key.enter	n/a
545.98	8.2895	1091960	prompt	n/a	whatever meat mating jewel\n
546.6635	0.09	1093327	keystroke_w	w	n/a
546.7685	0.09	1093537	keystroke_h	h	n/a
546.9035	0.165	1093807	keystroke_a	a	n/a
547.0825	0.12	1094165	keystroke_t	t	n/a
547.3235	0.12	1094647	keystroke_e	e	n/a
547.5625	0.09	1095125	keystroke_v	v	n/a
547.6535	0.18	1095307	keystroke_e	e	n/a
547.7885	0.119	1095577	keystroke_r	r	n/a
547.8775	0.105	1095755	keystroke_Key.space	Key.space	n/a
548.3275	0.106	1096655	keystroke_e	e	n/a
548.4175	0.09	1096835	keystroke_m	m	n/a
548.5675	0.15	1097135	keystroke_a	a	n/a
549.5425	0.105	1099085	keystroke_Key.backspace	Key.backspace	n/a
549.7825	0.075	1099565	keystroke_Key.backspace	Key.backspace	n/a
550.0375	0.105	1100075	keystroke_Key.backspace	Key.backspace	n/a
550.4135	0.044	1100827	keystroke_m	m	n/a
550.5775	0.105	1101155	keystroke_e	e	n/a
550.7135	0.18	1101427	keystroke_a	a	n/a
550.8475	0.121	1101695	keystroke_t	t	n/a
550.9525	0.105	1101905	keystroke_Key.space	Key.space	n/a
551.4185	0.074	1102837	keystroke_m	m	n/a
551.5085	0.135	1103017	keystroke_a	a	n/a
552.0335	0.074	1104067	keystroke_t	t	n/a
552.1385	0.12	1104277	keystroke_i	i	n/a
552.1985	0.104	1104397	keystroke_n	n	n/a
552.3185	0.12	1104637	keystroke_g	g	n/a
552.3925	0.135	1104785	keystroke_Key.space	Key.space	n/a
552.8735	0.075	1105747	keystroke_j	j	n/a
552.9935	0.105	1105987	keystroke_e	e	n/a
553.2935	0.164	1106587	keystroke_w	w	n/a
553.4275	0.0905	1106855	keystroke_e	e	n/a
553.623	0.089	1107246	keystroke_l	l	n/a
554.1775	0.0895	1108355	keystroke_Key.enter	Key.enter	n/a
554.2795	8.9755	1108559	prompt	n/a	exceed shareholders shares retrieval\n
555.018	0.075	1110036	keystroke_e	e	n/a
555.288	0.0905	1110576	keystroke_x	x	n/a
555.693	0.075	1111386	keystroke_c	c	n/a
555.903	0.06	1111806	keystroke_e	e	n/a
556.023	0.059	1112046	keystroke_e	e	n/a
556.218	0.09	1112436	keystroke_d	d	n/a
556.323	0.119	1112646	keystroke_Key.space	Key.space	n/a
556.668	0.135	1113336	keystroke_s	s	n/a
556.833	0.075	1113666	keystroke_h	h	n/a
557.328	0.149	1114656	keystroke_a	a	n/a
557.493	0.15	1114986	keystroke_r	r	n/a
557.598	0.135	1115196	keystroke_e	e	n/a
558.018	0.06	1116036	keystroke_h	h	n/a
558.138	0.075	1116276	keystroke_o	o	n/a
558.333	0.09	1116666	keystroke_l	l	n/a
558.438	0.06	1116876	keystroke_d	d	n/a
558.618	0.105	1117236	keystroke_e	e	n/a
558.678	0.119	1117356	keystroke_r	r	n/a
558.918	0.135	1117836	keystroke_s	s	n/a
559.352	0.09	1118704	keystroke_Key.space	Key.space	n/a
559.668	0.105	1119336	keystroke_s	s	n/a
559.788	0.075	1119576	keystroke_h	h	n/a
559.878	0.165	1119756	keystroke_a	a	n/a
560.043	0.135	1120086	keystroke_r	r	n/a
560.103	0.15	1120206	keystroke_e	e	n/a
560.373	0.105	1120746	keystroke_s	s	n/a
560.523	0.105	1121046	keystroke_Key.space	Key.space	n/a
560.987	0.151	1121974	keystroke_r	r	n/a
561.198	0.12	1122396	keystroke_e	e	n/a
561.438	0.09	1122876	keystroke_t	t	n/a
561.663	0.12	1123326	keystroke_r	r	n/a
561.797	0.106	1123594	keystroke_i	i	n/a
561.948	0.075	1123896	keystroke_e	e	n/a
562.218	0.12	1124436	keystroke_v	v	n/a
562.308	0.135	1124616	keystroke_a	a	n/a
562.473	0.12	1124946	keystroke_l	l	n/a
563.163	0.09	1126326	keystroke_Key.enter	Key.enter	n/a
563.2595	9.7005	1126519	prompt	n/a	initially demanding beliefs disciplines\n
563.928	0.06	1127856	keystroke_i	i	n/a
564.138	0.06	1128276	keystroke_n	n	n/a
564.273	0.075	1128546	keystroke_i	i	n/a
564.438	0.105	1128876	keystroke_t	t	n/a
564.558	0.075	1129116	keystroke_i	i	n/a
564.663	0.15	1129326	keystroke_a	a	n/a
564.783	0.06	1129566	keystroke_l	l	n/a
564.933	0.075	1129866	keystroke_l	l	n/a
565.128	0.06	1130256	keystroke_y	y	n/a
565.263	0.105	1130526	keystroke_Key.space	Key.space	n/a
565.488	0.06	1130976	keystroke_d	d	n/a
565.668	0.09	1131336	keystroke_e	e	n/a
565.803	0.075	1131606	keystroke_m	m	n/a
565.953	0.12	1131906	keystroke_a	a	n/a
566.058	0.075	1132116	keystroke_n	n	n/a
566.238	0.12	1132476	keystroke_d	d	n/a
566.343	0.135	1132686	keystroke_i	i	n/a
566.448	0.105	1132896	keystroke_n	n	n/a
566.523	0.165	1133046	keystroke_g	g	n/a
566.658	0.15	1133316	keystroke_Key.space	Key.space	n/a
567.138	0.09	1134276	keystroke_b	b	n/a
567.303	0.075	1134606	keystroke_e	e	n/a
567.603	0.105	1135206	keystroke_l	l	n/a
567.738	0.09	1135476	keystroke_i	i	n/a
567.888	0.105	1135776	keystroke_e	e	n/a
568.158	0.09	1136316	keystroke_f	f	n/a
568.368	0.105	1136736	keystroke_s	s	n/a
568.488	0.12	1136976	keystroke_Key.space	Key.space	n/a
568.818	0.06	1137636	keystroke_d	d	n/a
568.983	0.06	1137966	keystroke_e	e	n/a
569.943	0.075	1139886	keystroke_Key.backspace	Key.backspace	n/a
570.183	0.09	1140366	keystroke_i	i	n/a
570.333	0.135	1140666	keystroke_s	s	n/a
571.248	0.09	1142496	keystroke_c	c	n/a
571.353	0.075	1142706	keystroke_i	i	n/a
571.548	0.09	1143096	keystroke_p	p	n/a
571.908	0.075	1143816	keystroke_l	l	n/a
572.073	0.075	1144146	keystroke_i	i	n/a
572.193	0.09	1144386	keystroke_n	n	n/a
572.298	0.06	1144596	keystroke_e	e	n/a
572.463	0.12	1144926	keystroke_s	s	n/a
572.883	0.075	1145766	keystroke_Key.enter	Key.enter	n/a
572.9655	7.5085	1145931	prompt	n/a	ways grande directly creations\n
573.558	0.09	1147116	keystroke_w	w	n/a
573.753	0.165	1147506	keystroke_a	a	n/a
573.888	0.075	1147776	keystroke_y	y	n/a
574.023	0.12	1148046	keystroke_s	s	n/a
574.188	0.12	1148376	keystroke_Key.space	Key.space	n/a
574.503	0.06	1149006	keystroke_g	g	n/a
574.668	0.12	1149336	keystroke_r	r	n/a
574.758	0.135	1149516	keystroke_a	a	n/a
574.894	0.089	1149788	keystroke_n	n	n/a
575.013	0.075	1150026	keystroke_d	d	n/a
575.163	0.15	1150326	keystroke_e	e	n/a
575.298	0.09	1150596	keystroke_Key.space	Key.space	n/a
575.523	0.105	1151046	keystroke_d	d	n/a
575.703	0.09	1151406	keystroke_i	i	n/a
575.838	0.135	1151676	keystroke_r	r	n/a
576.723	0.075	1153446	keystroke_e	e	n/a
577.458	0.12	1154916	keystroke_c	c	n/a
577.653	0.105	1155306	keystroke_t	t	n/a
577.833	0.09	1155666	keystroke_l	l	n/a
578.058	0.06	1156116	keystroke_y	y	n/a
578.208	0.12	1156416	keystroke_Key.space	Key.space	n/a
578.433	0.105	1156866	keystroke_c	c	n/a
578.658	0.135	1157316	keystroke_r	r	n/a
578.718	0.15	1157436	keystroke_e	e	n/a
578.943	0.165	1157886	keystroke_a	a	n/a
579.108	0.105	1158216	keystroke_t	t	n/a
579.258	0.105	1158516	keystroke_i	i	n/a
579.408	0.18	1158816	keystroke_o	o	n/a
579.528	0.135	1159056	keystroke_n	n	n/a
579.693	0.105	1159386	keystroke_s	s	n/a
580.353	0.12	1160706	keystroke_Key.enter	Key.enter	n/a
580.4785	8.921	1160957	prompt	n/a	interstate agencies marine wrestling\n
581.178	0.075	1162356	keystroke_i	i	n/a
581.313	0.12	1162626	keystroke_n	n	n/a
581.478	0.12	1162956	keystroke_t	t	n/a
581.688	0.21	1163376	keystroke_e	e	n/a
581.853	0.105	1163706	keystroke_r	r	n/a
582.078	0.12	1164156	keystroke_s	s	n/a
582.243	0.12	1164486	keystroke_t	t	n/a
582.348	0.21	1164696	keystroke_a	a	n/a
582.543	0.105	1165086	keystroke_t	t	n/a
582.663	0.09	1165326	keystroke_e	e	n/a
582.843	0.105	1165686	keystroke_Key.space	Key.space	n/a
583.293	0.105	1166586	keystroke_a	a	n/a
583.458	0.12	1166916	keystroke_g	g	n/a
583.548	0.12	1167096	keystroke_e	e	n/a
