onset	duration	sample	value	key	prompt_text
12.1275	11.911	24255	prompt	n/a	the quick brown fox jumps over a lazy dog\n
13.928	0.001	27856	keystroke	t	n/a
13.971	0.089	27942	keystroke	h	n/a
14.196	0.045	28392	keystroke	e	n/a
14.331	0.059	28662	keystroke	Key.space	n/a
14.6905	0.06	29381	keystroke	q	n/a
14.9005	0.09	29801	keystroke	u	n/a
15.0805	0.06	30161	keystroke	i	n/a
15.1855	0.06	30371	keystroke	c	n/a
15.4705	0.06	30941	keystroke	k	n/a
15.6655	0.06	31331	keystroke	Key.space	n/a
16.0555	0.06	32111	keystroke	b	n/a
16.1905	0.045	32381	keystroke	r	n/a
16.4155	0.06	32831	keystroke	o	n/a
16.6105	0.06	33221	keystroke	w	n/a
16.8055	0.06	33611	keystroke	n	n/a
16.9705	0.075	33941	keystroke	Key.space	n/a
17.166	0.045	34332	keystroke	f	n/a
17.301	0.0895	34602	keystroke	o	n/a
17.601	0.075	35202	keystroke	x	n/a
17.721	0.06	35442	keystroke	Key.space	n/a
18.051	0.075	36102	keystroke	j	n/a
18.231	0.06	36462	keystroke	u	n/a
18.471	0.06	36942	keystroke	m	n/a
18.921	0.12	37842	keystroke	p	n/a
19.176	0.075	38352	keystroke	e	n/a
19.371	0.06	38742	keystroke	d	n/a
19.445	0.076	38890	keystroke	Key.space	n/a
20.015	0.0755	40030	keystroke	o	n/a
20.1355	0.09	40271	keystroke	v	n/a
20.3455	0.105	40691	keystroke	e	n/a
20.4055	0.09	40811	keystroke	r	n/a
20.4655	0.09	40931	keystroke	Key.space	n/a
20.646	0.045	41292	keystroke	t	n/a
20.721	0.06	41442	keystroke	h	n/a
20.811	0.075	41622	keystroke	e	n/a
21.081	0.06	42162	keystroke	Key.space	n/a
21.666	0.075	43332	keystroke	l	n/a
21.786	0.09	43572	keystroke	a	n/a
22.011	0.075	44022	keystroke	z	n/a
22.281	0.06	44562	keystroke	y	n/a
22.371	0.075	44742	keystroke	Key.space	n/a
22.7605	0.075	45521	keystroke	d	n/a
22.8655	0.075	45731	keystroke	o	n/a
23.361	0.075	46722	keystroke	g	n/a
23.9605	0.075	47921	keystroke	Key.enter	n/a
24.0425	14.2455	48085	prompt	n/a	optimize democracy wesley deserve\n
25.251	0.045	50502	keystroke	o	n/a
25.445	0.0755	50890	keystroke	p	n/a
25.6405	0.06	51281	keystroke	t	n/a
25.7755	0.09	51551	keystroke	i	n/a
26.0005	0.06	52001	keystroke	m	n/a
26.1505	0.09	52301	keystroke	i	n/a
26.3755	0.0595	52751	keystroke	z	n/a
26.6	0.075	53200	keystroke	e	n/a
26.735	0.09	53470	keystroke	Key.space	n/a
27.6805	0.045	55361	keystroke	d	n/a
27.8455	0.06	55691	keystroke	e	n/a
27.9505	0.075	55901	keystroke	m	n/a
28.0855	0.1055	56171	keystroke	o	n/a
28.251	0.06	56502	keystroke	c	n/a
28.446	0.075	56892	keystroke	r	n/a
28.656	0.165	57312	keystroke	a	n/a
28.761	0.105	57522	keystroke	c	n/a
29.181	0.075	58362	keystroke	y	n/a
29.331	0.09	58662	keystroke	Key.space	n/a
30.201	0.075	60402	keystroke	w	n/a
30.366	0.06	60732	keystroke	e	n/a
30.576	0.06	61152	keystroke	s	n/a
31.055	0.076	62110	keystroke	l	n/a
31.191	0.09	62382	keystroke	e	n/a
31.431	0.03	62862	keystroke	y	n/a
31.476	0.105	62952	keystroke	y	n/a
31.776	0.089	63552	keystroke	Key.space	n/a
32.8255	0.075	65651	keystroke	Key.backspace	n/a
33.156	0.0895	66312	keystroke	Key.backspace	n/a
33.576	0.0745	67152	keystroke	Key.space	n/a
35.8435	0.027	71687	keystroke	d	n/a
36.3055	0.03	72611	keystroke	e	n/a
36.6655	0.06	73331	keystroke	s	n/a
36.8755	0.06	73751	keystroke	e	n/a
36.9955	0.09	73991	keystroke	r	n/a
37.2355	0.075	74471	keystroke	v	n/a
37.4005	0.09	74801	keystroke	e	n/a
38.1955	0.09	76391	keystroke	Key.enter	n/a
38.2935	9.249	76587	prompt	n/a	wooden pride reggae electronic\n
39.2755	0.06	78551	keystroke	w	n/a
39.5155	0.03	79031	keystroke	o	n/a
39.6505	0.075	79301	keystroke	o	n/a
39.8455	0.06	79691	keystroke	d	n/a
40.041	0.045	80082	keystroke	e	n/a
40.2805	0.075	80561	keystroke	n	n/a
41.0305	0.06	82061	keystroke	Key.space	n/a
41.5105	0.06	83021	keystroke	p	n/a
41.6755	0.075	83351	keystroke	r	n/a
41.7805	0.165	83561	keystroke	i	n/a
42.1555	0.075	84311	keystroke	d	n/a
42.3655	0.06	84731	keystroke	e	n/a
42.771	0.09	85542	keystroke	Key.space	n/a
43.506	0.135	87012	keystroke	r	n/a
43.596	0.104	87192	keystroke	e	n/a
43.865	0.045	87730	keystroke	g	n/a
43.971	0.075	87942	keystroke	g	n/a
44.18	0.106	88360	keystroke	a	n/a
44.541	0.06	89082	keystroke	e	n/a
44.765	0.09	89530	keystroke	Key.space	n/a
45.2905	0.06	90581	keystroke	e	n/a
45.5905	0.075	91181	keystroke	l	n/a
45.7255	0.06	91451	keystroke	e	n/a
45.9355	0.06	91871	keystroke	c	n/a
46.116	0.074	92232	keystroke	t	n/a
46.2955	0.0605	92591	keystroke	r	n/a
46.4155	0.09	92831	keystroke	o	n/a
46.6405	0.09	93281	keystroke	n	n/a
46.7455	0.105	93491	keystroke	i	n/a
46.9855	0.06	93971	keystroke	c	n/a
47.4205	0.12	94841	keystroke	Key.enter	n/a
47.546	10.632	95092	prompt	n/a	investigations prospective packs badly\n
48.771	0.06	97542	keystroke	i	n/a
48.936	0.045	97872	keystroke	n	n/a
49.206	0.075	98412	keystroke	v	n/a
49.386	0.06	98772	keystroke	e	n/a
49.566	0.045	99132	keystroke	s	n/a
49.716	0.075	99432	keystroke	t	n/a
49.851	0.075	99702	keystroke	i	n/a
50.1955	0.06	100391	keystroke	g	n/a
50.3455	0.09	100691	keystroke	a	n/a
50.4365	0.059	100873	keystroke	t	n/a
50.5705	0.1205	101141	keystroke	i	n/a
50.6305	0.0905	101261	keystroke	o	n/a
50.826	0.075	101652	keystroke	n	n/a
50.946	0.06	101892	keystroke	s	n/a
51.066	0.06	102132	keystroke	Key.space	n/a
51.9955	0.075	103991	keystroke	p	n/a
52.2505	0.045	104501	keystroke	r	n/a
52.3405	0.09	104681	keystroke	o	n/a
52.6255	0.0605	105251	keystroke	s	n/a
52.8355	0.0755	105671	keystroke	p	n/a
53.031	0.12	106062	keystroke	e	n/a
53.106	0.075	106212	keystroke	c	n/a
53.316	0.074	106632	keystroke	t	n/a
53.436	0.089	106872	keystroke	i	n/a
53.796	0.09	107592	keystroke	v	n/a
53.871	0.09	107742	keystroke	e	n/a
54.0355	0.105	108071	keystroke	Key.space	n/a
54.5755	0.061	109151	keystroke	p	n/a
54.6955	0.165	109391	keystroke	a	n/a
54.8305	0.076	109661	keystroke	c	n/a
55.776	0.06	111552	keystroke	k	n/a
55.881	0.06	111762	keystroke	s	n/a
56.016	0.06	112032	keystroke	Key.space	n/a
56.646	0.06	113292	keystroke	b	n/a
56.706	0.105	113412	keystroke	a	n/a
56.946	0.075	113892	keystroke	d	n/a
57.351	0.015	114702	keystroke	l	n/a
57.471	0.075	114942	keystroke	y	n/a
58.101	0.075	116202	keystroke	Key.enter	n/a
58.1815	7.451	116363	prompt	n/a	eventually roads smart orchestra\n
59.196	0.135	118392	keystroke	e	n/a
59.5255	0.045	119051	keystroke	v	n/a
59.6905	0.06	119381	keystroke	e	n/a
59.7655	0.075	119531	keystroke	n	n/a
59.9155	0.045	119831	keystroke	t	n/a
60.0505	0.075	120101	keystroke	u	n/a
60.1705	0.09	120341	keystroke	a	n/a
60.2755	0.06	120551	keystroke	l	n/a
60.4255	0.075	120851	keystroke	l	n/a
60.5305	0.075	121061	keystroke	y	n/a
60.6655	0.075	121331	keystroke	Key.space	n/a
61.281	0.075	122562	keystroke	r	n/a
61.416	0.075	122832	keystroke	o	n/a
61.581	0.09	123162	keystroke	a	n/a
61.791	0.06	123582	keystroke	d	n/a
61.971	0.0755	123942	keystroke	s	n/a
62.106	0.09	124212	keystroke	Key.space	n/a
62.5255	0.075	125051	keystroke	s	n/a
62.7955	0.075	125591	keystroke	m	n/a
62.9155	0.0755	125831	keystroke	a	n/a
63.1555	0.0755	126311	keystroke	r	n/a
63.351	0.06	126702	keystroke	t	n/a
63.471	0.09	126942	keystroke	Key.space	n/a
63.9355	0.06	127871	keystroke	o	n/a
64.1005	0.045	128201	keystroke	r	n/a
64.2955	0.045	128591	keystroke	c	n/a
64.4605	0.075	128921	keystroke	h	n/a
64.5955	0.06	129191	keystroke	e	n/a
64.7905	0.06	129581	keystroke	s	n/a
64.9705	0.06	129941	keystroke	t	n/a
65.136	0.105	130272	keystroke	r	n/a
65.271	0.12	130542	keystroke	a	n/a
65.556	0.075	131112	keystroke	Key.enter	n/a
65.636	7.797	131272	prompt	n/a	insulation human bosnia loves\n
66.8455	0.06	133691	keystroke	i	n/a
67.0705	0.045	134141	keystroke	n	n/a
67.2505	0.06	134501	keystroke	s	n/a
67.3705	0.075	134741	keystroke	u	n/a
67.6105	0.06	135221	keystroke	l	n/a
67.7755	0.09	135551	keystroke	a	n/a
67.8805	0.075	135761	keystroke	t	n/a
68.0155	0.105	136031	keystroke	i	n/a
68.0605	0.09	136121	keystroke	o	n/a
68.255	0.075	136510	keystroke	n	n/a
68.45	0.061	136900	keystroke	Key.space	n/a
68.796	0.06	137592	keystroke	h	n/a
68.976	0.06	137952	keystroke	u	n/a
69.186	0.06	138372	keystroke	m	n/a
69.351	0.075	138702	keystroke	a	n/a
69.441	0.0595	138882	keystroke	n	n/a
69.6055	0.0605	139211	keystroke	Key.space	n/a
69.8155	0.06	139631	keystroke	b	n/a
70.4455	0.0605	140891	keystroke	o	n/a
70.8355	0.045	141671	keystroke	s	n/a
71.0455	0.06	142091	keystroke	n	n/a
71.1815	0.089	142363	keystroke	i	n/a
71.3005	0.075	142601	keystroke	a	n/a
71.4205	0.075	142841	keystroke	Key.space	n/a
71.6155	0.105	143231	keystroke	l	n/a
71.8405	0.06	143681	keystroke	o	n/a
71.9905	0.105	143981	keystroke	v	n/a
72.0805	0.09	144161	keystroke	e	n/a
72.3205	0.075	144641	keystroke	s	n/a
73.3855	0.045	146771	keystroke	Key.enter	n/a
73.437	9.0705	146874	prompt	n/a	bowling growth russell titles\n
74.901	0.06	149802	keystroke	b	n/a
75.141	0.105	150282	keystroke	o	n/a
75.321	0.045	150642	keystroke	w	n/a
75.411	0.0895	150822	keystroke	l	n/a
75.8155	0.105	151631	keystroke	i	n/a
75.8755	0.09	151751	keystroke	n	n/a
75.9655	0.075	151931	keystroke	g	n/a
76.1005	0.075	152201	keystroke	Key.space	n/a
76.5955	0.03	153191	keystroke	f	n/a
77.2405	0.0905	154481	keystroke	Key.backspace	n/a
77.526	0.0895	155052	keystroke	g	n/a
77.7205	0.075	155441	keystroke	r	n/a
78.201	0.06	156402	keystroke	o	n/a
78.305	0.0905	156610	keystroke	w	n/a
78.5305	0.075	157061	keystroke	t	n/a
78.7105	0.0895	157421	keystroke	h	n/a
78.95	0.06	157900	keystroke	Key.space	n/a
79.535	0.061	159070	keystroke	r	n/a
79.745	0.076	159490	keystroke	u	n/a
79.925	0.045	159850	keystroke	s	n/a
80.061	0.059	160122	keystroke	s	n/a
80.285	0.06	160570	keystroke	e	n/a
80.39	0.0755	160780	keystroke	l	n/a
80.5255	0.075	161051	keystroke	l	n/a
80.7355	0.075	161471	keystroke	Key.space	n/a
80.961	0.045	161922	keystroke	t	n/a
81.051	0.105	162102	keystroke	i	n/a
81.186	0.03	162372	keystroke	t	n/a
81.381	0.0745	162762	keystroke	l	n/a
81.5305	0.06	163061	keystroke	e	n/a
81.7405	0.045	163481	keystroke	s	n/a
82.4305	0.075	164861	keystroke	Key.enter	n/a
82.513	7.584	165026	prompt	n/a	scheduled dirt versus searches\n
83.436	0.09	166872	keystroke	s	n/a
83.631	0.075	167262	keystroke	c	n/a
83.781	0.09	167562	keystroke	h	n/a
83.901	0.045	167802	keystroke	e	n/a
84.051	0.06	168102	keystroke	d	n/a
84.1555	0.075	168311	keystroke	u	n/a
84.3355	0.075	168671	keystroke	l	n/a
84.4405	0.06	168881	keystroke	e	n/a
84.6205	0.075	169241	keystroke	d	n/a
84.7555	0.075	169511	keystroke	Key.space	n/a
85.7605	0.06	171521	keystroke	d	n/a
85.8805	0.09	171761	keystroke	i	n/a
86.0305	0.06	172061	keystroke	r	n/a
86.2255	0.06	172451	keystroke	t	n/a
86.3155	0.09	172631	keystroke	Key.space	n/a
87.111	0.06	174222	keystroke	v	n/a
87.291	0.09	174582	keystroke	e	n/a
87.516	0.06	175032	keystroke	r	n/a
87.711	0.06	175422	keystroke	s	n/a
87.876	0.09	175752	keystroke	u	n/a
88.011	0.045	176022	keystroke	s	n/a
88.16	0.061	176320	keystroke	Key.space	n/a
88.611	0.045	177222	keystroke	s	n/a
88.776	0.089	177552	keystroke	e	n/a
88.985	0.121	177970	keystroke	a	n/a
89.061	0.074	178122	keystroke	r	n/a
89.256	0.075	178512	keystroke	c	n/a
89.391	0.059	178782	keystroke	h	n/a
89.48	0.06	178960	keystroke	e	n/a
89.675	0.075	179350	keystroke	s	n/a
90.051	0.045	180102	keystroke	Key.enter	n/a
90.1005	7.347	180201	prompt	n/a	tasks prepared creator counts\n
91.611	0.06	183222	keystroke	t	n/a
91.836	0.135	183672	keystroke	a	n/a
91.956	0.06	183912	keystroke	s	n/a
92.3305	0.075	184661	keystroke	k	n/a
92.4655	0.06	184931	keystroke	s	n/a
92.5705	0.075	185141	keystroke	Key.space	n/a
92.9455	0.06	185891	keystroke	p	n/a
93.0355	0.105	186071	keystroke	r	n/a
93.1105	0.075	186221	keystroke	e	n/a
93.275	0.09	186550	keystroke	p	n/a
93.38	0.075	186760	keystroke	a	n/a
93.635	0.135	187270	keystroke	r	n/a
93.756	0.074	187512	keystroke	e	n/a
93.935	0.09	187870	keystroke	d	n/a
94.04	0.06	188080	keystroke	Key.space	n/a
94.34	0.06	188680	keystroke	c	n/a
94.55	0.121	189100	keystroke	r	n/a
94.656	0.06	189312	keystroke	e	n/a
94.776	0.0895	189552	keystroke	a	n/a
94.986	0.06	189972	keystroke	t	n/a
95.3905	0.075	190781	keystroke	o	n/a
95.5105	0.075	191021	keystroke	r	n/a
95.6455	0.075	191291	keystroke	Key.space	n/a
96.3055	0.045	192611	keystroke	c	n/a
96.456	0.09	192912	keystroke	o	n/a
96.501	0.09	193002	keystroke	u	n/a
96.726	0.075	193452	keystroke	n	n/a
96.831	0.06	193662	keystroke	t	n/a
96.996	0.075	193992	keystroke	s	n/a
97.371	0.075	194742	keystroke	Key.enter	n/a
97.4505	8.247	194901	prompt	n/a	jazz byte proposed union\n
98.5255	0.0745	197051	keystroke	j	n/a
98.645	0.0905	197290	keystroke	a	n/a
98.9455	0.03	197891	keystroke	z	n/a
99.681	0.0595	199362	keystroke	z	n/a
100.0105	0.09	200021	keystroke	Key.space	n/a
100.866	0.06	201732	keystroke	b	n/a
100.971	0.075	201942	keystroke	y	n/a
101.286	0.06	202572	keystroke	t	n/a
101.526	0.015	203052	keystroke	e	n/a
101.556	0.045	203112	keystroke	Key.space	n/a
101.841	0.0595	203682	keystroke	p	n/a
102.0655	0.09	204131	keystroke	r	n/a
102.2305	0.075	204461	keystroke	o	n/a
102.4555	0.135	204911	keystroke	p	n/a
102.5305	0.105	205061	keystroke	o	n/a
102.6505	0.06	205301	keystroke	s	n/a
102.8305	0.06	205661	keystroke	e	n/a
102.9955	0.1055	205991	keystroke	d	n/a
103.1155	0.06	206231	keystroke	Key.space	n/a
103.8355	0.06	207671	keystroke	u	n/a
104.0605	0.075	208121	keystroke	n	n/a
104.2555	0.075	208511	keystroke	i	n/a
104.4505	0.15	208901	keystroke	o	n/a
104.5855	0.075	209171	keystroke	n	n/a
105.6205	0.0745	211241	keystroke	Key.enter	n/a
105.7005	8.0515	211401	prompt	n/a	coaching flickr misc mass\n
106.536	0.06	213072	keystroke	c	n/a
107.1205	0.075	214241	keystroke	o	n/a
107.376	0.12	214752	keystroke	a	n/a
107.451	0.105	214902	keystroke	c	n/a
107.721	0.075	215442	keystroke	h	n/a
107.931	0.12	215862	keystroke	i	n/a
107.976	0.105	215952	keystroke	n	n/a
108.141	0.075	216282	keystroke	g	n/a
108.216	0.0745	216432	keystroke	Key.space	n/a
109.146	0.015	218292	keystroke	f	n/a
109.221	0.09	218442	keystroke	l	n/a
109.446	0.06	218892	keystroke	i	n/a
109.626	0.045	219252	keystroke	c	n/a
109.761	0.09	219522	keystroke	k	n/a
110.0905	0.075	220181	keystroke	r	n/a
110.5255	0.09	221051	keystroke	Key.space	n/a
111.5005	0.075	223001	keystroke	m	n/a
111.6505	0.105	223301	keystroke	i	n/a
111.9205	0.09	223841	keystroke	s	n/a
112.1305	0.075	224261	keystroke	c	n/a
112.2655	0.105	224531	keystroke	Key.space	n/a
113.001	0.06	226002	keystroke	m	n/a
113.091	0.105	226182	keystroke	a	n/a
113.3155	0.045	226631	keystroke	s	n/a
113.4355	0.075	226871	keystroke	s	n/a
113.6755	0.075	227351	keystroke	Key.enter	n/a
113.7625	9.35	227525	prompt	n/a	academics score attachment theatre\n
114.606	0.09	229212	keystroke	a	n/a
114.921	0.045	229842	keystroke	c	n/a
115.086	0.075	230172	keystroke	a	n/a
115.3555	0.06	230711	keystroke	d	n/a
115.5805	0.06	231161	keystroke	e	n/a
115.6855	0.09	231371	keystroke	m	n/a
115.8655	0.075	231731	keystroke	i	n/a
116.1505	0.105	232301	keystroke	c	n/a
116.2255	0.105	232451	keystroke	s	n/a
116.3905	0.09	232781	keystroke	Key.space	n/a
116.9305	0.075	233861	keystroke	s	n/a
117.0955	0.075	234191	keystroke	c	n/a
117.2005	0.105	234401	keystroke	o	n/a
117.4105	0.12	234821	keystroke	r	n/a
117.4855	0.105	234971	keystroke	e	n/a
117.6355	0.075	235271	keystroke	Key.space	n/a
118.1005	0.09	236201	keystroke	a	n/a
118.5205	0.045	237041	keystroke	t	n/a
118.6255	0.0455	237251	keystroke	t	n/a
118.806	0.075	237612	keystroke	a	n/a
118.851	0.075	237702	keystroke	c	n/a
118.956	0.09	237912	keystroke	h	n/a
119.181	0.0595	238362	keystroke	m	n/a
119.2705	0.075	238541	keystroke	e	n/a
119.3905	0.075	238781	keystroke	n	n/a
119.5105	0.075	239021	keystroke	t	n/a
119.6005	0.075	239201	keystroke	Key.space	n/a
120.185	0.075	240370	keystroke	t	n/a
120.291	0.075	240582	keystroke	h	n/a
120.441	0.059	240882	keystroke	e	n/a
120.6355	0.075	241271	keystroke	a	n/a
120.7405	0.09	241481	keystroke	t	n/a
120.966	0.045	241932	keystroke	e	n/a
122.4505	0.075	244901	keystroke	Key.backspace	n/a
122.6305	0.15	245261	keystroke	r	n/a
122.7205	0.12	245441	keystroke	e	n/a
123.0505	0.06	246101	keystroke	Key.enter	n/a
123.1155	9.7765	246231	prompt	n/a	responses hiking kate string\n
124.131	0.089	248262	keystroke	r	n/a
124.19	0.06	248380	keystroke	e	n/a
124.385	0.06	248770	keystroke	s	n/a
124.505	0.075	249010	keystroke	p	n/a
124.716	0.075	249432	keystroke	o	n/a
125.001	0.0595	250002	keystroke	n	n/a
125.1055	0.06	250211	keystroke	s	n/a
125.2705	0.06	250541	keystroke	e	n/a
125.4505	0.075	250901	keystroke	s	n/a
125.5855	0.075	251171	keystroke	Key.space	n/a
126.216	0.075	252432	keystroke	j	n/a
126.8005	0.0905	253601	keystroke	Key.backspace	n/a
126.921	0.0745	253842	keystroke	h	n/a
127.2655	0.06	254531	keystroke	i	n/a
127.941	0.105	255882	keystroke	k	n/a
128.241	0.09	256482	keystroke	i	n/a
128.451	0.075	256902	keystroke	n	n/a
128.7355	0.075	257471	keystroke	Key.space	n/a
129.351	0.105	258702	keystroke	Key.backspace	n/a
129.501	0.075	259002	keystroke	g	n/a
129.621	0.09	259242	keystroke	Key.space	n/a
130.281	0.06	260562	keystroke	k	n/a
130.356	0.105	260712	keystroke	a	n/a
130.581	0.1345	261162	keystroke	t	n/a
130.6855	0.09	261371	keystroke	e	n/a
130.7765	0.074	261553	keystroke	Key.space	n/a
131.301	0.075	262602	keystroke	s	n/a
131.525	0.031	263050	keystroke	t	n/a
131.676	0.089	263352	keystroke	r	n/a
131.855	0.075	263710	keystroke	i	n/a
132.051	0.075	264102	keystroke	n	n/a
132.156	0.074	264312	keystroke	g	n/a
132.815	0.075	265630	keystroke	Key.enter	n/a
132.8955	10.677	265791	prompt	n/a	numerical preview bags cholesterol\n
134.031	0.0745	268062	keystroke	m	n/a
134.6155	0.075	269231	keystroke	Key.backspace	n/a
135.005	0.075	270010	keystroke	n	n/a
135.2	0.075	270400	keystroke	u	n/a
135.425	0.045	270850	keystroke	m	n/a
135.545	0.12	271090	keystroke	e	n/a
135.65	0.075	271300	keystroke	r	n/a
135.77	0.105	271540	keystroke	i	n/a
135.905	0.1205	271810	keystroke	c	n/a
136.0105	0.0905	272021	keystroke	a	n/a
136.1605	0.09	272321	keystroke	l	n/a
136.401	0.0595	272802	keystroke	Key.space	n/a
136.805	0.075	273610	keystroke	p	n/a
136.895	0.135	273790	keystroke	r	n/a
136.985	0.09	273970	keystroke	e	n/a
137.21	0.0605	274420	keystroke	v	n/a
137.361	0.09	274722	keystroke	i	n/a
137.631	0.06	275262	keystroke	e	n/a
137.811	0.06	275622	keystroke	w	n/a
137.931	0.075	275862	keystroke	Key.space	n/a
138.651	0.06	277302	keystroke	b	n/a
138.756	0.105	277512	keystroke	a	n/a
139.026	0.045	278052	keystroke	g	n/a
139.311	0.06	278622	keystroke	s	n/a
139.416	0.075	278832	keystroke	Key.space	n/a
139.716	0.09	279432	keystroke	c	n/a
139.866	0.09	279732	keystroke	h	n/a
140.4355	0.12	280871	keystroke	o	n/a
140.6755	0.075	281351	keystroke	l	n/a
140.8105	0.06	281621	keystroke	e	n/a
140.9905	0.06	281981	keystroke	s	n/a
141.3955	0.075	282791	keystroke	t	n/a
141.6205	0.135	283241	keystroke	e	n/a
141.7105	0.105	283421	keystroke	r	n/a
142.7605	0.075	285521	keystroke	o	n/a
142.9855	0.06	285971	keystroke	l	n/a
143.48	0.09	286960	keystroke	Key.enter	n/a
143.576	11.1715	287152	prompt	n/a	integration principle readings grants\n
144.5305	0.075	289061	keystroke	i	n/a
144.726	0.075	289452	keystroke	n	n/a
144.906	0.045	289812	keystroke	t	n/a
145.056	0.075	290112	keystroke	e	n/a
145.221	0.06	290442	keystroke	g	n/a
145.386	0.089	290772	keystroke	r	n/a
145.566	0.075	291132	keystroke	a	n/a
145.671	0.074	291342	keystroke	t	n/a
145.911	0.15	291822	keystroke	i	n/a
145.986	0.105	291972	keystroke	o	n/a
146.5255	0.09	293051	keystroke	n	n/a
146.7355	0.06	293471	keystroke	Key.space	n/a
147.1855	0.045	294371	keystroke	p	n/a
147.6505	0.09	295301	keystroke	r	n/a
147.9205	0.09	295841	keystroke	i	n/a
148.37	0.06	296740	keystroke	n	n/a
148.715	0.06	297430	keystroke	c	n/a
148.865	0.105	297730	keystroke	i	n/a
149.36	0.075	298720	keystroke	p	n/a
150.0055	0.045	300011	keystroke	l	n/a
150.0655	0.045	300131	keystroke	e	n/a
150.2305	0.06	300461	keystroke	Key.space	n/a
151.1155	0.12	302231	keystroke	r	n/a
151.2055	0.09	302411	keystroke	e	n/a
151.4005	0.105	302801	keystroke	a	n/a
151.4905	0.075	302981	keystroke	d	n/a
151.6555	0.135	303311	keystroke	i	n/a
151.7305	0.09	303461	keystroke	n	n/a
151.8505	0.045	303701	keystroke	g	n/a
152.7805	0.09	305561	keystroke	s	n/a
152.9005	0.09	305801	keystroke	Key.space	n/a
153.6505	0.0445	307301	keystroke	g	n/a
153.8	0.061	307600	keystroke	r	n/a
153.951	0.09	307902	keystroke	a	n/a
154.055	0.091	308110	keystroke	n	n/a
154.205	0.0905	308410	keystroke	t	n/a
154.3855	0.075	308771	keystroke	s	n/a
154.6555	0.09	309311	keystroke	Key.enter	n/a
154.7515	7.3005	309503	prompt	n/a	especially cabinet gear grain\n
155.6005	0.06	311201	keystroke	e	n/a
155.7805	0.06	311561	keystroke	s	n/a
155.9155	0.075	311831	keystroke	p	n/a
156.0505	0.12	312101	keystroke	e	n/a
156.1405	0.075	312281	keystroke	c	n/a
156.3505	0.12	312701	keystroke	i	n/a
156.5155	0.075	313031	keystroke	a	n/a
156.681	0.06	313362	keystroke	l	n/a
156.816	0.09	313632	keystroke	l	n/a
156.921	0.075	313842	keystroke	y	n/a
157.055	0.06	314110	keystroke	Key.space	n/a
157.641	0.09	315282	keystroke	c	n/a
157.806	0.089	315612	keystroke	a	n/a
158.15	0.075	316300	keystroke	b	n/a
158.36	0.165	316720	keystroke	i	n/a
158.481	0.089	316962	keystroke	n	n/a
158.7055	0.12	317411	keystroke	e	n/a
158.7955	0.105	317591	keystroke	t	n/a
158.9605	0.09	317921	keystroke	Key.space	n/a
159.7255	0.075	319451	keystroke	g	n/a
159.8905	0.105	319781	keystroke	e	n/a
160.1155	0.105	320231	keystroke	a	n/a
160.1905	0.0905	320381	keystroke	r	n/a
160.311	0.09	320622	keystroke	Key.space	n/a
161.076	0.06	322152	keystroke	g	n/a
161.256	0.045	322512	keystroke	r	n/a
161.436	0.075	322872	keystroke	a	n/a
161.541	0.135	323082	keystroke	i	n/a
161.646	0.09	323292	keystroke	n	n/a
161.9605	0.09	323921	keystroke	Key.enter	n/a
162.0555	9.5065	324111	prompt	n/a	investors telecharger analyze ferry\n
162.9055	0.075	325811	keystroke	i	n/a
163.1155	0.075	326231	keystroke	n	n/a
163.3255	0.0455	326651	keystroke	v	n/a
163.491	0.075	326982	keystroke	e	n/a
163.685	0.015	327370	keystroke	s	n/a
163.79	0.061	327580	keystroke	t	n/a
163.94	0.105	327880	keystroke	o	n/a
164.15	0.075	328300	keystroke	r	n/a
164.345	0.075	328690	keystroke	s	n/a
164.48	0.06	328960	keystroke	Key.space	n/a
165.231	0.059	330462	keystroke	t	n/a
165.411	0.044	330822	keystroke	e	n/a
165.501	0.105	331002	keystroke	l	n/a
165.666	0.075	331332	keystroke	e	n/a
165.921	0.0445	331842	keystroke	c	n/a
166.0255	0.075	332051	keystroke	h	n/a
166.1455	0.105	332291	keystroke	a	n/a
166.2355	0.105	332471	keystroke	r	n/a
166.4755	0.075	332951	keystroke	g	n/a
166.655	0.105	333310	keystroke	e	n/a
166.716	0.104	333432	keystroke	r	n/a
166.88	0.075	333760	keystroke	Key.space	n/a
167.5855	0.06	335171	keystroke	a	n/a
167.6755	0.09	335351	keystroke	n	n/a
167.7805	0.06	335561	keystroke	a	n/a
167.96	0.09	335920	keystroke	l	n/a
168.5755	0.075	337151	keystroke	y	n/a
168.951	0.03	337902	keystroke	z	n/a
169.221	0.09	338442	keystroke	e	n/a
169.595	0.075	339190	keystroke	Key.space	n/a
170.6005	0.06	341201	keystroke	f	n/a
170.7955	0.075	341591	keystroke	e	n/a
170.9905	0.03	341981	keystroke	r	n/a
171.0805	0.09	342161	keystroke	r	n/a
171.3355	0.0745	342671	keystroke	y	n/a
171.485	0.075	342970	keystroke	Key.enter	n/a
171.5655	13.092	343131	prompt	n/a	context residence maybe mightn't\n
172.505	0.061	345010	keystroke	c	n/a
172.67	0.09	345340	keystroke	o	n/a
172.82	0.09	345640	keystroke	n	n/a
172.955	0.09	345910	keystroke	t	n/a
173.255	0.1055	346510	keystroke	e	n/a
173.5105	0.09	347021	keystroke	x	n/a
173.7205	0.06	347441	keystroke	t	n/a
173.8105	0.09	347621	keystroke	Key.space	n/a
174.4705	0.15	348941	keystroke	r	n/a
174.5755	0.0905	349151	keystroke	e	n/a
174.771	0.075	349542	keystroke	s	n/a
174.876	0.12	349752	keystroke	i	n/a
175.236	0.0445	350472	keystroke	d	n/a
175.386	0.075	350772	keystroke	e	n/a
175.5055	0.075	351011	keystroke	n	n/a
175.7305	0.165	351461	keystroke	c	n/a
175.836	0.1195	351672	keystroke	e	n/a
175.9705	0.105	351941	keystroke	Key.space	n/a
176.3905	0.06	352781	keystroke	m	n/a
176.4805	0.105	352961	keystroke	a	n/a
176.9155	0.06	353831	keystroke	y	n/a
177.5455	0.06	355091	keystroke	b	n/a
177.651	0.0745	355302	keystroke	e	n/a
177.7705	0.06	355541	keystroke	Key.space	n/a
179.346	0.1795	358692	keystroke	m	n/a
179.7955	0.075	359591	keystroke	i	n/a
180.1855	0.09	360371	keystroke	g	n/a
180.2905	0.09	360581	keystroke	h	n/a
180.4855	0.09	360971	keystroke	t	n/a
181.715	0.09	363430	keystroke	n	n/a
182.9605	0.075	365921	keystroke	'	n/a
183.4705	0.06	366941	keystroke	t	n/a
184.5505	0.105	369101	keystroke	Key.enter	n/a
184.6605	8.1415	369321	prompt	n/a	diana land nasdaq resorts\n
185.781	0.089	371562	keystroke	d	n/a
185.915	0.076	371830	keystroke	i	n/a
186.035	0.09	372070	keystroke	a	n/a
186.185	0.06	372370	keystroke	n	n/a
186.576	0.074	373152	keystroke	a	n/a
186.71	0.06	373420	keystroke	Key.space	n/a
187.085	0.075	374170	keystroke	l	n/a
187.235	0.09	374470	keystroke	a	n/a
187.355	0.105	374710	keystroke	n	n/a
187.505	0.09	375010	keystroke	d	n/a
187.835	0.09	375670	keystroke	Key.space	n/a
188.766	0.06	377532	keystroke	n	n/a
188.886	0.09	377772	keystroke	a	n/a
189.036	0.0895	378072	keystroke	s	n/a
189.2755	0.075	378551	keystroke	d	n/a
189.4705	0.045	378941	keystroke	a	n/a
189.9955	0.06	379991	keystroke	q	n/a
190.0855	0.105	380171	keystroke	Key.space	n/a
190.806	0.12	381612	keystroke	r	n/a
190.881	0.06	381762	keystroke	e	n/a
191.061	0.075	382122	keystroke	s	n/a
191.196	0.105	382392	keystroke	o	n/a
191.316	0.075	382632	keystroke	r	n/a
191.4955	0.06	382991	keystroke	t	n/a
191.6605	0.09	383321	keystroke	s	n/a
192.74	0.06	385480	keystroke	Key.enter	n/a
192.8075	10.6895	385615	prompt	n/a	delivery commissioners dietary clause\n
193.76	0.076	387520	keystroke	d	n/a
193.925	0.06	387850	keystroke	e	n/a
194.03	0.135	388060	keystroke	l	n/a
194.105	0.105	388210	keystroke	i	n/a
194.255	0.06	388510	keystroke	v	n/a
194.435	0.12	388870	keystroke	e	n/a
194.495	0.105	388990	keystroke	r	n/a
194.72	0.075	389440	keystroke	y	n/a
194.84	0.075	389680	keystroke	Key.space	n/a
195.425	0.09	390850	keystroke	c	n/a
195.59	0.09	391180	keystroke	o	n/a
195.77	0.075	391540	keystroke	m	n/a
195.965	0.105	391930	keystroke	i	n/a
196.205	0.045	392410	keystroke	s	n/a
196.31	0.075	392620	keystroke	s	n/a
196.415	0.105	392830	keystroke	i	n/a
196.49	0.075	392980	keystroke	o	n/a
196.655	0.075	393310	keystroke	n	n/a
196.805	0.135	393610	keystroke	e	n/a
196.895	0.09	393790	keystroke	r	n/a
197.21	0.105	394420	keystroke	s	n/a
197.48	0.09	394960	keystroke	Key.space	n/a
197.9455	0.06	395891	keystroke	d	n/a
198.0505	0.09	396101	keystroke	i	n/a
198.1555	0.09	396311	keystroke	e	n/a
198.3505	0.09	396701	keystroke	t	n/a
198.5905	0.12	397181	keystroke	a	n/a
198.6505	0.105	397301	keystroke	r	n/a
198.8605	0.09	397721	keystroke	y	n/a
198.9955	0.09	397991	keystroke	Key.space	n/a
199.6855	0.075	399371	keystroke	c	n/a
199.8955	0.075	399791	keystroke	l	n/a
200.0005	0.075	400001	keystroke	a	n/a
200.4055	0.075	400811	keystroke	u	n/a
200.5405	0.06	401081	keystroke	s	n/a
200.7055	0.0895	401411	keystroke	e	n/a
203.4675	0.028	406935	keystroke	Key.enter	n/a
203.5005	9.2665	407001	prompt	n/a	typing jennifer locate beginning\n
204.725	0.075	409450	keystroke	t	n/a
204.905	0.06	409810	keystroke	y	n/a
205.01	0.075	410020	keystroke	p	n/a
205.295	0.12	410590	keystroke	i	n/a
205.37	0.105	410740	keystroke	n	n/a
205.49	0.0755	410980	keystroke	g	n/a
205.6105	0.075	411221	keystroke	Key.space	n/a
206.33	0.075	412660	keystroke	j	n/a
206.465	0.09	412930	keystroke	e	n/a
206.7355	0.06	413471	keystroke	n	n/a
206.8855	0.06	413771	keystroke	n	n/a
207.1855	0.09	414371	keystroke	i	n/a
207.4105	0.075	414821	keystroke	f	n/a
207.665	0.09	415330	keystroke	e	n/a
207.71	0.075	415420	keystroke	r	n/a
207.845	0.075	415690	keystroke	Key.space	n/a
208.355	0.075	416710	keystroke	l	n/a
208.535	0.075	417070	keystroke	o	n/a
208.6555	0.105	417311	keystroke	c	n/a
208.7455	0.105	417491	keystroke	a	n/a
209.0005	0.12	418001	keystroke	t	n/a
209.0755	0.105	418151	keystroke	e	n/a
209.1805	0.09	418361	keystroke	Key.space	n/a
210.185	0.06	420370	keystroke	b	n/a
210.275	0.06	420550	keystroke	e	n/a
210.485	0.06	420970	keystroke	g	n/a
211.16	0.075	422320	keystroke	i	n/a
211.445	0.06	422890	keystroke	n	n/a
211.61	0.06	423220	keystroke	n	n/a
211.805	0.135	423610	keystroke	i	n/a
211.88	0.1055	423760	keystroke	n	n/a
212.0005	0.09	424001	keystroke	g	n/a
212.1355	0.06	424271	keystroke	Key.space	n/a
212.6755	0.09	425351	keystroke	Key.enter	n/a
212.771	7.106	425542	prompt	n/a	when ours edition junk\n
213.9655	0.06	427931	keystroke	w	n/a
214.1005	0.06	428201	keystroke	h	n/a
214.1905	0.075	428381	keystroke	e	n/a
214.3105	0.03	428621	keystroke	n	n/a
214.4455	0.06	428891	keystroke	Key.space	n/a
215.075	0.135	430150	keystroke	o	n/a
215.18	0.106	430360	keystroke	u	n/a
215.301	0.105	430602	keystroke	r	n/a
215.541	0.09	431082	keystroke	s	n/a
215.675	0.09	431350	keystroke	Key.space	n/a
216.3205	0.0895	432641	keystroke	e	n/a
216.6355	0.075	433271	keystroke	d	n/a
216.7705	0.075	433541	keystroke	i	n/a
216.9205	0.09	433841	keystroke	t	n/a
216.9955	0.12	433991	keystroke	i	n/a
217.0705	0.105	434141	keystroke	o	n/a
217.2655	0.045	434531	keystroke	n	n/a
217.4305	0.075	434861	keystroke	Key.space	n/a
218	0.075	436000	keystroke	j	n/a
218.165	0.075	436330	keystroke	u	n/a
218.4955	0.06	436991	keystroke	n	n/a
219.3955	0.06	438791	keystroke	k	n/a
219.8	0.075	439600	keystroke	Key.enter	n/a
219.8805	9.4315	439761	prompt	n/a	greater scottish award cumulative\n
220.865	0.06	441730	keystroke	g	n/a
221.06	0.15	442120	keystroke	r	n/a
221.165	0.09	442330	keystroke	e	n/a
221.3305	0.105	442661	keystroke	a	n/a
221.4805	0.09	442961	keystroke	t	n/a
221.6905	0.1195	443381	keystroke	e	n/a
221.7655	0.0895	443531	keystroke	r	n/a
221.9005	0.0745	443801	keystroke	Key.space	n/a
222.4995	0.136	444999	keystroke	s	n/a
222.6045	0.106	445209	keystroke	c	n/a
222.9505	0.075	445901	keystroke	o	n/a
223.4755	0.045	446951	keystroke	t	n/a
223.5805	0.075	447161	keystroke	t	n/a
223.7455	0.09	447491	keystroke	i	n/a
224.135	0.075	448270	keystroke	s	n/a
224.225	0.0755	448450	keystroke	h	n/a
224.4655	0.045	448931	keystroke	Key.space	n/a
224.675	0.06	449350	keystroke	a	n/a
224.9	0.075	449800	keystroke	w	n/a
225.05	0.075	450100	keystroke	a	n/a
225.23	0.075	450460	keystroke	r	n/a
225.56	0.09	451120	keystroke	Key.space	n/a
226.265	0.09	452530	keystroke	Key.backspace	n/a
226.4	0.105	452800	keystroke	d	n/a
226.595	0.075	453190	keystroke	Key.space	n/a
227.21	0.075	454420	keystroke	c	n/a
227.465	0.09	454930	keystroke	u	n/a
227.705	0.06	455410	keystroke	m	n/a
227.915	0.06	455830	keystroke	u	n/a
228.11	0.06	456220	keystroke	l	n/a
228.26	0.09	456520	keystroke	a	n/a
228.38	0.075	456760	keystroke	t	n/a
228.5	0.105	457000	keystroke	i	n/a
228.635	0.1505	457270	keystroke	v	n/a
228.7555	0.12	457511	keystroke	e	n/a
229.2655	0.045	458531	keystroke	Key.enter	n/a
229.3165	10.1205	458633	prompt	n/a	wishlist diseases gauge arctic\n
230.1355	0.075	460271	keystroke	w	n/a
230.3605	0.075	460721	keystroke	i	n/a
230.5705	0.06	461141	keystroke	s	n/a
230.6905	0.075	461381	keystroke	h	n/a
230.9005	0.165	461801	keystroke	l	n/a
230.9905	0.135	461981	keystroke	i	n/a
231.23	0.09	462460	keystroke	s	n/a
231.395	0.105	462790	keystroke	t	n/a
231.515	0.075	463030	keystroke	Key.space	n/a
232.4745	0.06	464949	keystroke	d	n/a
232.5795	0.075	465159	keystroke	i	n/a
232.7605	0.0595	465521	keystroke	s	n/a
232.9395	0.1055	465879	keystroke	e	n/a
233.1655	0.149	466331	keystroke	a	n/a
233.2695	0.0905	466539	keystroke	s	n/a
233.4945	0.076	466989	keystroke	e	n/a
233.6895	0.0455	467379	keystroke	s	n/a
234.035	0.045	468070	keystroke	e	n/a
234.3495	0.046	468699	keystroke	Key.backspace	n/a
234.47	0.06	468940	keystroke	Key.backspace	n/a
235.325	0.06	470650	keystroke	s	n/a
235.415	0.1055	470830	keystroke	Key.space	n/a
236.391	0.074	472782	keystroke	g	n/a
236.526	0.089	473052	keystroke	a	n/a
236.75	0.0905	473500	keystroke	u	n/a
237.0955	0.12	474191	keystroke	g	n/a
237.2455	0.105	474491	keystroke	e	n/a
237.3955	0.075	474791	keystroke	Key.space	n/a
238.1155	0.0595	476231	keystroke	a	n/a
238.43	0.03	476860	keystroke	r	n/a
238.61	0.075	477220	keystroke	c	n/a
238.835	0.045	477670	keystroke	t	n/a
238.91	0.105	477820	keystroke	i	n/a
239.045	0.075	478090	keystroke	c	n/a
239.375	0.06	478750	keystroke	Key.enter	n/a
239.4405	15.1615	478881	prompt	n/a	exclusively club atlas perfume\n
240.3355	0.06	480671	keystroke	e	n/a
240.5605	0.105	481121	keystroke	x	n/a
240.7405	0.075	481481	keystroke	c	n/a
241.0555	0.09	482111	keystroke	l	n/a
241.2205	0.075	482441	keystroke	u	n/a
241.4455	0.075	482891	keystroke	s	n/a
241.5655	0.105	483131	keystroke	i	n/a
242.0755	0.06	484151	keystroke	s	n/a
242.27	0.03	484540	keystroke	e	n/a
242.7945	0.075	485589	keystroke	Key.backspace	n/a
243.1555	0.06	486311	keystroke	i	n/a
243.3205	0.09	486641	keystroke	v	n/a
243.3955	0.105	486791	keystroke	e	n/a
243.5455	0.09	487091	keystroke	l	n/a
243.6805	0.075	487361	keystroke	y	n/a
243.8155	0.075	487631	keystroke	Key.space	n/a
245.66	0.09	491320	keystroke	Key.backspace	n/a
245.885	0.045	491770	keystroke	Key.backspace	n/a
246.035	0.075	492070	keystroke	Key.backspace	n/a
246.215	0.06	492430	keystroke	Key.backspace	n/a
246.3955	0.06	492791	keystroke	Key.backspace	n/a
246.5755	0.0595	493151	keystroke	Key.backspace	n/a
246.815	0.03	493630	keystroke	Key.backspace	n/a
247.9555	0.075	495911	keystroke	v	n/a
248.4805	0.075	496961	keystroke	e	n/a
248.7955	0.075	497591	keystroke	l	n/a
248.9155	0.075	497831	keystroke	y	n/a
249.0355	0.0595	498071	keystroke	Key.space	n/a
250.055	0.075	500110	keystroke	c	n/a
250.265	0.075	500530	keystroke	l	n/a
250.4905	0.074	500981	keystroke	u	n/a
250.8495	0.061	501699	keystroke	b	n/a
251.0305	0.059	502061	keystroke	Key.space	n/a
251.4045	0.106	502809	keystroke	a	n/a
251.7205	0.06	503441	keystroke	t	n/a
251.9305	0.089	503861	keystroke	l	n/a
252.0505	0.075	504101	keystroke	a	n/a
252.2755	0.06	504551	keystroke	s	n/a
252.3805	0.06	504761	keystroke	Key.space	n/a
253.07	0.06	506140	keystroke	p	n/a
253.205	0.135	506410	keystroke	e	n/a
253.295	0.09	506590	keystroke	r	n/a
253.535	0.0605	507070	keystroke	f	n/a
253.7155	0.075	507431	keystroke	u	n/a
253.9555	0.075	507911	keystroke	m	n/a
254.0755	0.075	508151	keystroke	e	n/a
254.5255	0.075	509051	keystroke	Key.enter	n/a
254.605	8.712	509210	prompt	n/a	shades tactics liberty guatemala\n
255.47	0.09	510940	keystroke	s	n/a
255.635	0.075	511270	keystroke	h	n/a
255.7705	0.1045	511541	keystroke	a	n/a
256.0855	0.075	512171	keystroke	d	n/a
256.2505	0.06	512501	keystroke	e	n/a
256.4455	0.075	512891	keystroke	s	n/a
256.5355	0.06	513071	keystroke	Key.space	n/a
257.03	0.0595	514060	keystroke	t	n/a
257.2105	0.119	514421	keystroke	a	n/a
257.4495	0.06	514899	keystroke	c	n/a
257.6445	0.06	515289	keystroke	t	n/a
257.795	0.09	515590	keystroke	i	n/a
258.005	0.06	516010	keystroke	c	n/a
258.17	0.09	516340	keystroke	s	n/a
258.41	0.075	516820	keystroke	Key.space	n/a
258.98	0.075	517960	keystroke	l	n/a
259.175	0.075	518350	keystroke	i	n/a
259.715	0.045	519430	keystroke	b	n/a
259.775	0.061	519550	keystroke	e	n/a
259.79	0.09	519580	keystroke	r	n/a
260.2705	0.075	520541	keystroke	t	n/a
260.4355	0.09	520871	keystroke	y	n/a
260.5555	0.06	521111	keystroke	Key.space	n/a
261.4555	0.06	522911	keystroke	g	n/a
261.6655	0.06	523331	keystroke	u	n/a
261.8005	0.09	523601	keystroke	a	n/a
262.0105	0.06	524021	keystroke	t	n/a
262.2055	0.06	524411	keystroke	e	n/a
262.3405	0.06	524681	keystroke	m	n/a
262.5505	0.09	525101	keystroke	a	n/a
262.6855	0.1045	525371	keystroke	l	n/a
262.865	0.105	525730	keystroke	a	n/a
263.24	0.075	526480	keystroke	Key.enter	n/a
263.3195	6.9575	526639	prompt	n/a	freight class guided wordpress\n
264.3505	0.045	528701	keystroke	f	n/a
264.4255	0.045	528851	keystroke	r	n/a
264.6055	0.09	529211	keystroke	e	n/a
264.7545	0.105	529509	keystroke	i	n/a
264.9055	0.075	529811	keystroke	g	n/a
265.0255	0.075	530051	keystroke	h	n/a
265.1305	0.075	530261	keystroke	t	n/a
265.2645	0.06	530529	keystroke	Key.space	n/a
265.655	0.09	531310	keystroke	c	n/a
265.82	0.09	531640	keystroke	l	n/a
265.94	0.105	531880	keystroke	a	n/a
266.165	0.045	532330	keystroke	s	n/a
266.285	0.075	532570	keystroke	s	n/a
266.39	0.075	532780	keystroke	Key.space	n/a
267.005	0.045	534010	keystroke	g	n/a
267.185	0.075	534370	keystroke	u	n/a
267.29	0.105	534580	keystroke	i	n/a
267.485	0.06	534970	keystroke	d	n/a
267.665	0.045	535330	keystroke	e	n/a
267.815	0.075	535630	keystroke	d	n/a
267.905	0.09	535810	keystroke	Key.space	n/a
268.505	0.09	537010	keystroke	w	n/a
268.745	0.075	537490	keystroke	o	n/a
268.895	0.06	537790	keystroke	r	n/a
269.09	0.075	538180	keystroke	d	n/a
269.33	0.06	538660	keystroke	p	n/a
269.48	0.135	538960	keystroke	r	n/a
269.57	0.105	539140	keystroke	e	n/a
269.795	0.06	539590	keystroke	s	n/a
269.9	0.105	539800	keystroke	s	n/a
270.2	0.0755	540400	keystroke	Key.enter	n/a
270.28	7.287	540560	prompt	n/a	parenting diet twenty modelling\n
271.161	0.044	542322	keystroke	p	n/a
271.25	0.075	542500	keystroke	a	n/a
271.43	0.075	542860	keystroke	r	n/a
271.625	0.06	543250	keystroke	e	n/a
271.73	0.06	543460	keystroke	n	n/a
271.835	0.06	543670	keystroke	t	n/a
271.955	0.105	543910	keystroke	i	n/a
272.03	0.075	544060	keystroke	n	n/a
272.12	0.075	544240	keystroke	g	n/a
272.24	0.075	544480	keystroke	Key.space	n/a
272.9155	0.09	545831	keystroke	d	n/a
273.0355	0.09	546071	keystroke	i	n/a
273.1555	0.105	546311	keystroke	e	n/a
273.3655	0.06	546731	keystroke	t	n/a
273.4555	0.075	546911	keystroke	Key.space	n/a
274.1895	0.076	548379	keystroke	t	n/a
274.5205	0.059	549041	keystroke	w	n/a
274.7	0.0605	549400	keystroke	e	n/a
274.8505	0.075	549701	keystroke	n	n/a
274.9555	0.075	549911	keystroke	t	n/a
275.1355	0.06	550271	keystroke	y	n/a
275.2255	0.06	550451	keystroke	Key.space	n/a
275.9	0.06	551800	keystroke	m	n/a
276.14	0.105	552280	keystroke	o	n/a
276.3955	0.06	552791	keystroke	d	n/a
276.5605	0.06	553121	keystroke	e	n/a
276.65	0.15	553300	keystroke	l	n/a
276.77	0.09	553540	keystroke	i	n/a
277.01	0.075	554020	keystroke	n	n/a
277.1	0.075	554200	keystroke	g	n/a
277.475	0.09	554950	keystroke	Key.enter	n/a
277.571	9.3855	555142	prompt	n/a	journalism drug assessed assurance\n
278.63	0.06	557260	keystroke	h	n/a
279.2	0.075	558400	keystroke	Key.backspace	n/a
279.545	0.06	559090	keystroke	j	n/a
279.74	0.12	559480	keystroke	o	n/a
279.815	0.09	559630	keystroke	u	n/a
279.98	0.06	559960	keystroke	r	n/a
280.161	0.059	560322	keystroke	n	n/a
280.295	0.06	560590	keystroke	a	n/a
280.385	0.1505	560770	keystroke	l	n/a
280.475	0.1205	560950	keystroke	i	n/a
280.805	0.09	561610	keystroke	s	n/a
281.03	0.06	562060	keystroke	m	n/a
281.225	0.06	562450	keystroke	Key.space	n/a
281.8255	0.075	563651	keystroke	d	n/a
282.0055	0.06	564011	keystroke	r	n/a
282.2155	0.045	564431	keystroke	u	n/a
282.77	0.06	565540	keystroke	g	n/a
282.89	0.075	565780	keystroke	Key.space	n/a
283.445	0.105	566890	keystroke	a	n/a
283.67	0.06	567340	keystroke	s	n/a
283.775	0.075	567550	keystroke	s	n/a
283.97	0.075	567940	keystroke	e	n/a
284.165	0.06	568330	keystroke	s	n/a
284.27	0.075	568540	keystroke	s	n/a
284.48	0.06	568960	keystroke	e	n/a
284.66	0.0755	569320	keystroke	d	n/a
284.72	0.075	569440	keystroke	Key.space	n/a
284.975	0.075	569950	keystroke	a	n/a
285.17	0.03	570340	keystroke	s	n/a
285.26	0.09	570520	keystroke	s	n/a
285.4255	0.0595	570851	keystroke	u	n/a
285.59	0.06	571180	keystroke	r	n/a
285.74	0.075	571480	keystroke	a	n/a
285.965	0.06	571930	keystroke	n	n/a
286.13	0.1805	572260	keystroke	c	n/a
286.235	0.1505	572470	keystroke	e	n/a
286.88	0.075	573760	keystroke	Key.enter	n/a
286.96	10.1365	573920	prompt	n/a	unfortunately upload considering occurred\n
287.885	0.045	575770	keystroke	u	n/a
288.08	0.045	576160	keystroke	n	n/a
288.23	0.075	576460	keystroke	f	n/a
288.335	0.075	576670	keystroke	o	n/a
288.485	0.06	576970	keystroke	r	n/a
288.6805	0.075	577361	keystroke	t	n/a
288.815	0.075	577630	keystroke	u	n/a
289.055	0.06	578110	keystroke	n	n/a
289.145	0.09	578290	keystroke	a	n/a
289.385	0.105	578770	keystroke	t	n/a
289.445	0.12	578890	keystroke	e	n/a
289.64	0.105	579280	keystroke	l	n/a
289.73	0.0905	579460	keystroke	y	n/a
289.895	0.0605	579790	keystroke	Key.space	n/a
290.855	0.06	581710	keystroke	u	n/a
291.11	0.12	582220	keystroke	p	n/a
291.2	0.075	582400	keystroke	l	n/a
291.3955	0.06	582791	keystroke	o	n/a
291.5445	0.121	583089	keystroke	a	n/a
291.6205	0.09	583241	keystroke	d	n/a
291.7995	0.06	583599	keystroke	Key.space	n/a
292.46	0.0905	584920	keystroke	c	n/a
292.625	0.12	585250	keystroke	o	n/a
292.7005	0.09	585401	keystroke	n	n/a
292.865	0.075	585730	keystroke	s	n/a
292.9705	0.0895	585941	keystroke	i	n/a
293.0755	0.06	586151	keystroke	d	n/a
293.24	0.075	586480	keystroke	e	n/a
293.3	0.0755	586600	keystroke	r	n/a
293.42	0.105	586840	keystroke	i	n/a
293.48	0.09	586960	keystroke	n	n/a
293.6155	0.0895	587231	keystroke	g	n/a
293.72	0.075	587440	keystroke	Key.space	n/a
294.905	0.075	589810	keystroke	o	n/a
295.115	0.045	590230	keystroke	c	n/a
295.205	0.09	590410	keystroke	c	n/a
295.4305	0.075	590861	keystroke	u	n/a
295.5955	0.06	591191	keystroke	r	n/a
295.7305	0.105	591461	keystroke	r	n/a
295.8955	0.075	591791	keystroke	e	n/a
296.0905	0.09	592181	keystroke	d	n/a
297.0205	0.074	594041	keystroke	Key.enter	n/a
297.1015	8.2	594203	prompt	n/a	hood indexes experiment thirty\n
298.1	0.06	596200	keystroke	h	n/a
298.295	0.06	596590	keystroke	o	n/a
298.43	0.105	596860	keystroke	o	n/a
299.0155	0.09	598031	keystroke	d	n/a
299.1345	0.09	598269	keystroke	Key.space	n/a
299.4805	0.134	598961	keystroke	i	n/a
299.5695	0.1055	599139	keystroke	n	n/a
299.811	0.059	599622	keystroke	d	n/a
299.9595	0.09	599919	keystroke	e	n/a
300.2595	0.06	600519	keystroke	x	n/a
300.44	0.0745	600880	keystroke	e	n/a
300.65	0.0295	601300	keystroke	s	n/a
300.7395	0.075	601479	keystroke	Key.space	n/a
301.385	0.045	602770	keystroke	e	n/a
301.7155	0.03	603431	keystroke	x	n/a
301.9105	0.06	603821	keystroke	p	n/a
302.0305	0.105	604061	keystroke	e	n/a
302.1205	0.075	604241	keystroke	r	n/a
302.2405	0.165	604481	keystroke	i	n/a
302.3605	0.1045	604721	keystroke	m	n/a
302.6	0.105	605200	keystroke	e	n/a
302.825	0.075	605650	keystroke	n	n/a
302.945	0.075	605890	keystroke	t	n/a
303.035	0.06	606070	keystroke	Key.space	n/a
304.355	0.015	608710	keystroke	t	n/a
304.385	0.06	608770	keystroke	h	n/a
304.52	0.075	609040	keystroke	i	n/a
304.67	0.06	609340	keystroke	r	n/a
304.85	0.075	609700	keystroke	t	n/a
305.0455	0.06	610091	keystroke	y	n/a
305.225	0.075	610450	keystroke	Key.enter	n/a
305.306	7.5405	610612	prompt	n/a	friends feature declare miami\n
306.35	0.045	612700	keystroke	f	n/a
306.5155	0.0595	613031	keystroke	r	n/a
306.6655	0.09	613331	keystroke	i	n/a
306.8455	0.075	613691	keystroke	e	n/a
306.9955	0.06	613991	keystroke	n	n/a
307.0855	0.075	614171	keystroke	d	n/a
307.2805	0.074	614561	keystroke	s	n/a
307.3845	0.075	614769	keystroke	Key.space	n/a
308.0905	0.06	616181	keystroke	f	n/a
308.1805	0.075	616361	keystroke	e	n/a
308.3605	0.105	616721	keystroke	a	n/a
308.4655	0.06	616931	keystroke	t	n/a
308.6905	0.045	617381	keystroke	u	n/a
309.6045	0.135	619209	keystroke	r	n/a
309.6945	0.075	619389	keystroke	e	n/a
309.845	0.075	619690	keystroke	Key.space	n/a
310.22	0.06	620440	keystroke	d	n/a
310.385	0.0605	620770	keystroke	e	n/a
310.5655	0.075	621131	keystroke	c	n/a
310.6705	0.105	621341	keystroke	l	n/a
310.7905	0.06	621581	keystroke	a	n/a
310.9855	0.135	621971	keystroke	r	n/a
311.0905	0.075	622181	keystroke	e	n/a
311.1955	0.075	622391	keystroke	Key.space	n/a
311.7505	0.12	623501	keystroke	m	n/a
311.8555	0.089	623711	keystroke	i	n/a
312.0055	0.09	624011	keystroke	a	n/a
312.1705	0.09	624341	keystroke	m	n/a
312.3655	0.09	624731	keystroke	i	n/a
312.785	0.06	625570	keystroke	Key.enter	n/a
312.85	7.6765	625700	prompt	n/a	exceptions salmon debug saints\n
313.7755	0.045	627551	keystroke	e	n/a
313.9855	0.06	627971	keystroke	x	n/a
314.1505	0.06	628301	keystroke	c	n/a
314.3455	0.06	628691	keystroke	e	n/a
314.4505	0.0895	628901	keystroke	p	n/a
314.63	0.06	629260	keystroke	t	n/a
314.735	0.1205	629470	keystroke	i	n/a
314.8105	0.09	629621	keystroke	o	n/a
315.0055	0.075	630011	keystroke	n	n/a
315.1705	0.06	630341	keystroke	s	n/a
315.5005	0.06	631001	keystroke	Key.space	n/a
316.0705	0.06	632141	keystroke	s	n/a
316.2205	0.105	632441	keystroke	a	n/a
316.3405	0.06	632681	keystroke	l	n/a
316.5355	0.045	633071	keystroke	m	n/a
316.7605	0.12	633521	keystroke	o	n/a
316.8955	0.074	633791	keystroke	n	n/a
317.1205	0.074	634241	keystroke	Key.space	n/a
317.8105	0.075	635621	keystroke	d	n/a
317.9905	0.06	635981	keystroke	e	n/a
318.5305	0.15	637061	keystroke	b	n/a
318.6205	0.075	637241	keystroke	u	n/a
318.7105	0.075	637421	keystroke	g	n/a
318.8445	0.075	637689	keystroke	Key.space	n/a
319.4155	0.015	638831	keystroke	s	n/a
319.5355	0.09	639071	keystroke	a	n/a
319.6105	0.105	639221	keystroke	i	n/a
319.7605	0.075	639521	keystroke	n	n/a
319.9405	0.06	639881	keystroke	t	n/a
320.1505	0.06	640301	keystroke	s	n/a
320.45	0.075	640900	keystroke	Key.enter	n/a
320.53	8.352	641060	prompt	n/a	kilometers theory playback shops\n
321.5005	0.0445	643001	keystroke	k	n/a
321.65	0.075	643300	keystroke	i	n/a
321.83	0.075	643660	keystroke	l	n/a
322.01	0.075	644020	keystroke	o	n/a
322.19	0.06	644380	keystroke	m	n/a
322.325	0.075	644650	keystroke	e	n/a
322.445	0.09	644890	keystroke	t	n/a
322.67	0.12	645340	keystroke	e	n/a
322.76	0.06	645520	keystroke	r	n/a
322.955	0.075	645910	keystroke	s	n/a
323.09	0.075	646180	keystroke	Key.space	n/a
323.7205	0.045	647441	keystroke	t	n/a
323.9005	0.075	647801	keystroke	h	n/a
324.1255	0.06	648251	keystroke	e	n/a
324.2455	0.12	648491	keystroke	o	n/a
324.3955	0.075	648791	keystroke	r	n/a
324.6205	0.075	649241	keystroke	y	n/a
324.7705	0.075	649541	keystroke	Key.space	n/a
325.415	0.075	650830	keystroke	p	n/a
325.625	0.06	651250	keystroke	l	n/a
325.715	0.09	651430	keystroke	a	n/a
326	0.075	652000	keystroke	y	n/a
326.345	0.0755	652690	keystroke	b	n/a
326.5105	0.12	653021	keystroke	a	n/a
326.6155	0.075	653231	keystroke	c	n/a
326.7505	0.075	653501	keystroke	k	n/a
326.9455	0.06	653891	keystroke	Key.space	n/a
327.6355	0.075	655271	keystroke	s	n/a
327.9205	0.06	655841	keystroke	h	n/a
328.1305	0.09	656261	keystroke	o	n/a
328.3405	0.0745	656681	keystroke	p	n/a
328.535	0.06	657070	keystroke	s	n/a
328.79	0.09	657580	keystroke	Key.enter	n/a
328.887	8.0345	657774	prompt	n/a	card donor adobe hopefully\n
329.705	0.075	659410	keystroke	c	n/a
329.855	0.12	659710	keystroke	a	n/a
330.245	0.06	660490	keystroke	r	n/a
330.4405	0.075	660881	keystroke	d	n/a
330.5455	0.0895	661091	keystroke	Key.space	n/a
331.5505	0.075	663101	keystroke	d	n/a
331.8205	0.075	663641	keystroke	o	n/a
332.0305	0.075	664061	keystroke	n	n/a
332.1955	0.09	664391	keystroke	o	n/a
332.3155	0.075	664631	keystroke	r	n/a
332.4505	0.06	664901	keystroke	Key.space	n/a
332.9905	0.12	665981	keystroke	a	n/a
333.2605	0.075	666521	keystroke	d	n/a
333.4705	0.075	666941	keystroke	o	n/a
333.8455	0.09	667691	keystroke	b	n/a
333.9205	0.075	667841	keystroke	e	n/a
334.0705	0.06	668141	keystroke	Key.space	n/a
334.8655	0.06	669731	keystroke	h	n/a
335.1205	0.09	670241	keystroke	o	n/a
335.3595	0.076	670719	keystroke	p	n/a
335.5255	0.089	671051	keystroke	e	n/a
335.7055	0.075	671411	keystroke	f	n/a
335.8255	0.075	671651	keystroke	u	n/a
336.0355	0.03	672071	keystroke	l	n/a
336.1555	0.075	672311	keystroke	l	n/a
336.635	0.0595	673270	keystroke	y	n/a
336.8295	0.09	673659	keystroke	Key.enter	n/a
336.9255	8.4415	673851	prompt	n/a	compatibility border screensaver with\n
338.1495	0.105	676299	keystroke	c	n/a
338.3145	0.09	676629	keystroke	o	n/a
338.5845	0.0755	677169	keystroke	m	n/a
338.825	0.105	677650	keystroke	p	n/a
339.05	0.075	678100	keystroke	a	n/a
339.23	0.09	678460	keystroke	t	n/a
339.35	0.09	678700	keystroke	i	n/a
339.665	0.09	679330	keystroke	b	n/a
339.83	0.09	679660	keystroke	i	n/a
340.07	0.135	680140	keystroke	l	n/a
340.16	0.105	680320	keystroke	i	n/a
340.295	0.06	680590	keystroke	t	n/a
340.4595	0.076	680919	keystroke	y	n/a
340.5645	0.06	681129	keystroke	Key.space	n/a
341.1195	0.06	682239	keystroke	b	n/a
341.3005	0.089	682601	keystroke	o	n/a
341.4045	0.061	682809	keystroke	r	n/a
341.6595	0.076	683319	keystroke	d	n/a
341.855	0.09	683710	keystroke	e	n/a
341.93	0.09	683860	keystroke	r	n/a
342.065	0.075	684130	keystroke	Key.space	n/a
342.395	0.135	684790	keystroke	s	n/a
342.62	0.06	685240	keystroke	c	n/a
342.8	0.06	685600	keystroke	r	n/a
342.98	0.045	685960	keystroke	e	n/a
343.07	0.075	686140	keystroke	e	n/a
343.2055	0.059	686411	keystroke	n	n/a
343.3255	0.074	686651	keystroke	s	n/a
343.4895	0.076	686979	keystroke	a	n/a
343.7155	0.09	687431	keystroke	v	n/a
343.9405	0.104	687881	keystroke	e	n/a
344.0295	0.076	688059	keystroke	r	n/a
344.1355	0.075	688271	keystroke	Key.space	n/a
344.6305	0.074	689261	keystroke	w	n/a
344.7345	0.075	689469	keystroke	i	n/a
344.8705	0.074	689741	keystroke	t	n/a
344.9745	0.09	689949	keystroke	h	n/a
345.2895	0.075	690579	keystroke	Key.enter	n/a
345.37	9.072	690740	prompt	n/a	crisis characters vocational i\n
346.3705	0.045	692741	keystroke	c	n/a
346.5655	0.06	693131	keystroke	r	n/a
346.7005	0.09	693401	keystroke	i	n/a
346.8205	0.06	693641	keystroke	s	n/a
346.9705	0.12	693941	keystroke	i	n/a
347.675	0.075	695350	keystroke	s	n/a
348.47	0.105	696940	keystroke	Key.space	n/a
349.025	0.06	698050	keystroke	c	n/a
349.19	0.075	698380	keystroke	h	n/a
349.31	0.075	698620	keystroke	a	n/a
349.4	0.075	698800	keystroke	r	n/a
349.58	0.12	699160	keystroke	a	n/a
349.685	0.0455	699370	keystroke	c	n/a
349.8355	0.075	699671	keystroke	t	n/a
349.9995	0.12	699999	keystroke	e	n/a
350.0745	0.076	700149	keystroke	r	n/a
350.2855	0.06	700571	keystroke	s	n/a
350.3895	0.075	700779	keystroke	Key.space	n/a
352.3705	0.06	704741	keystroke	v	n/a
352.5955	0.06	705191	keystroke	o	n/a
352.775	0.075	705550	keystroke	c	n/a
352.895	0.075	705790	keystroke	a	n/a
353.03	0.09	706060	keystroke	t	n/a
353.15	0.1055	706300	keystroke	i	n/a
353.195	0.1205	706390	keystroke	o	n/a
353.3755	0.075	706751	keystroke	n	n/a
353.5105	0.06	707021	keystroke	a	n/a
353.6905	0.06	707381	keystroke	l	n/a
353.8705	0.06	707741	keystroke	Key.space	n/a
354.0955	0.09	708191	keystroke	i	n/a
354.3355	0.105	708671	keystroke	Key.enter	n/a
354.4465	10.4655	708893	prompt	n/a	verify projector attendance theft\n
355.49	0.06	710980	keystroke	v	n/a
355.67	0.075	711340	keystroke	e	n/a
355.73	0.075	711460	keystroke	r	n/a
355.895	0.105	711790	keystroke	i	n/a
355.985	0.075	711970	keystroke	f	n/a
356.21	0.06	712420	keystroke	y	n/a
356.315	0.06	712630	keystroke	Key.space	n/a
356.9755	0.075	713951	keystroke	p	n/a
357.0955	0.06	714191	keystroke	r	n/a
357.2145	0.09	714429	keystroke	o	n/a
357.7405	0.06	715481	keystroke	j	n/a
357.9355	0.12	715871	keystroke	e	n/a
358.0095	0.076	716019	keystroke	c	n/a
358.2355	0.074	716471	keystroke	t	n/a
358.6555	0.1045	717311	keystroke	o	n/a
358.79	0.09	717580	keystroke	r	n/a
359.24	0.075	718480	keystroke	Key.space	n/a
359.8855	0.105	719771	keystroke	a	n/a
360.1705	0.015	720341	keystroke	r	n/a
361.265	0.075	722530	keystroke	Key.backspace	n/a
361.625	0.045	723250	keystroke	t	n/a
361.745	0.075	723490	keystroke	t	n/a
361.895	0.105	723790	keystroke	e	n/a
362.015	0.09	724030	keystroke	n	n/a
362.42	0.075	724840	keystroke	d	n/a
362.615	0.0745	725230	keystroke	a	n/a
362.7195	0.06	725439	keystroke	n	n/a
362.9145	0.136	725829	keystroke	c	n/a
363.0195	0.105	726039	keystroke	e	n/a
363.1545	0.075	726309	keystroke	Key.space	n/a
364.07	0.06	728140	keystroke	t	n/a
364.16	0.075	728320	keystroke	h	n/a
364.325	0.075	728650	keystroke	e	n/a
364.55	0.06	729100	keystroke	f	n/a
364.73	0.06	729460	keystroke	t	n/a
364.82	0.09	729640	keystroke	Key.enter	n/a
364.9155	11.3365	729831	prompt	n/a	plumbing struct satisfaction barnes\n
365.81	0.1045	731620	keystroke	p	n/a
365.9	0.1195	731800	keystroke	l	n/a
366.1845	0.0755	732369	keystroke	u	n/a
366.3955	0.06	732791	keystroke	m	n/a
366.635	0.075	733270	keystroke	b	n/a
366.815	0.12	733630	keystroke	i	n/a
366.89	0.09	733780	keystroke	n	n/a
367.01	0.075	734020	keystroke	g	n/a
367.115	0.075	734230	keystroke	Key.space	n/a
367.61	0.1055	735220	keystroke	s	n/a
367.8205	0.06	735641	keystroke	t	n/a
368.0005	0.045	736001	keystroke	r	n/a
368.1205	0.09	736241	keystroke	u	n/a
368.4805	0.075	736961	keystroke	c	n/a
368.6755	0.075	737351	keystroke	t	n/a
368.7655	0.075	737531	keystroke	Key.space	n/a
369.455	0.045	738910	keystroke	s	n/a
370.01	0.09	740020	keystroke	a	n/a
370.25	0.075	740500	keystroke	t	n/a
370.5955	0.0745	741191	keystroke	i	n/a
370.895	0.045	741790	keystroke	s	n/a
371.435	0.06	742870	keystroke	g	n/a
372.5005	0.075	745001	keystroke	Key.backspace	n/a
372.7705	0.06	745541	keystroke	f	n/a
372.9355	0.104	745871	keystroke	a	n/a
373.0105	0.09	746021	keystroke	c	n/a
373.2355	0.075	746471	keystroke	t	n/a
373.3705	0.135	746741	keystroke	i	n/a
373.4455	0.105	746891	keystroke	o	n/a
373.7305	0.075	747461	keystroke	n	n/a
373.9405	0.06	747881	keystroke	Key.space	n/a
375.3205	0.06	750641	keystroke	b	n/a
375.4105	0.09	750821	keystroke	a	n/a
375.6055	0.06	751211	keystroke	r	n/a
375.6955	0.075	751391	keystroke	n	n/a
375.8155	0.06	751631	keystroke	e	n/a
375.9955	0.06	751991	keystroke	s	n/a
376.16	0.09	752320	keystroke	Key.enter	n/a
376.2545	12.4175	752509	prompt	n/a	exports disputes nvidia she\n
377.69	0.045	755380	keystroke	e	n/a
377.9	0.06	755800	keystroke	x	n/a
378.11	0.09	756220	keystroke	p	n/a
378.155	0.12	756310	keystroke	o	n/a
378.365	0.06	756730	keystroke	r	n/a
378.545	0.06	757090	keystroke	t	n/a
378.74	0.06	757480	keystroke	s	n/a
378.86	0.06	757720	keystroke	Key.space	n/a
379.73	0.06	759460	keystroke	d	n/a
379.895	0.0605	759790	keystroke	i	n/a
380.0155	0.06	760031	keystroke	s	n/a
380.2255	0.075	760451	keystroke	p	n/a
380.4355	0.12	760871	keystroke	u	n/a
380.7345	0.045	761469	keystroke	t	n/a
380.9905	0.059	761981	keystroke	e	n/a
381.185	0.0605	762370	keystroke	s	n/a
381.29	0.075	762580	keystroke	Key.space	n/a
382.3555	0.03	764711	keystroke	n	n/a
383.045	0.12	766090	keystroke	i	n/a
384.38	0.075	768760	keystroke	Key.backspace	n/a
384.8755	0.06	769751	keystroke	v	n/a
385.0855	0.075	770171	keystroke	i	n/a
386.33	0.09	772660	keystroke	d	n/a
386.48	0.075	772960	keystroke	i	n/a
386.63	0.12	773260	keystroke	a	n/a
386.7795	0.075	773559	keystroke	Key.space	n/a
388.2195	0.06	776439	keystroke	s	n/a
388.325	0.075	776650	keystroke	h	n/a
388.46	0.075	776920	keystroke	e	n/a
388.58	0.09	777160	keystroke	Key.enter	n/a
388.6755	13.826	777351	prompt	n/a	reservoir remembered portsmouth amsterdam\n
389.735	0.135	779470	keystroke	r	n/a
389.825	0.09	779650	keystroke	e	n/a
390.1995	0.061	780399	keystroke	r	n/a
390.9345	0.09	781869	keystroke	Key.backspace	n/a
391.3845	0.09	782769	keystroke	s	n/a
391.5945	0.09	783189	keystroke	e	n/a
391.6695	0.0755	783339	keystroke	r	n/a
392.1495	0.09	784299	keystroke	v	n/a
392.3895	0.12	784779	keystroke	o	n/a
392.4495	0.105	784899	keystroke	i	n/a
392.75	0.06	785500	keystroke	r	n/a
392.885	0.06	785770	keystroke	Key.space	n/a
393.68	0.12	787360	keystroke	r	n/a
393.755	0.09	787510	keystroke	e	n/a
393.95	0.075	787900	keystroke	m	n/a
394.19	0.06	788380	keystroke	e	n/a
394.2805	0.075	788561	keystroke	m	n/a
394.5055	0.074	789011	keystroke	b	n/a
394.6105	0.1495	789221	keystroke	e	n/a
394.775	0.075	789550	keystroke	r	n/a
394.955	0.12	789910	keystroke	e	n/a
395.06	0.075	790120	keystroke	r	n/a
395.6445	0.09	791289	keystroke	Key.backspace	n/a
395.7805	0.075	791561	keystroke	e	n/a
396.1545	0.1355	792309	keystroke	Key.backspace	n/a
396.32	0.105	792640	keystroke	d	n/a
396.545	0.06	793090	keystroke	Key.space	n/a
397.67	0.075	795340	keystroke	p	n/a
397.865	0.06	795730	keystroke	o	n/a
398.06	0.075	796120	keystroke	r	n/a
398.225	0.075	796450	keystroke	t	n/a
398.45	0.075	796900	keystroke	s	n/a
398.75	0.06	797500	keystroke	m	n/a
398.99	0.12	797980	keystroke	o	n/a
399.065	0.075	798130	keystroke	u	n/a
399.215	0.075	798430	keystroke	t	n/a
399.305	0.075	798610	keystroke	h	n/a
399.5	0.075	799000	keystroke	Key.space	n/a
400.46	0.09	800920	keystroke	a	n/a
400.6395	0.06	801279	keystroke	m	n/a
400.8505	0.075	801701	keystroke	s	n/a
401.0155	0.089	802031	keystroke	t	n/a
401.1955	0.105	802391	keystroke	e	n/a
401.2695	0.09	802539	keystroke	r	n/a
401.4805	0.105	802961	keystroke	d	n/a
401.7055	0.1045	803411	keystroke	a	n/a
401.84	0.075	803680	keystroke	m	n/a
402.3945	0.105	804789	keystroke	Key.enter	n/a
402.507	10.9445	805014	prompt	n/a	reprint yamaha ongoing richmond\n
403.31	0.1345	806620	keystroke	r	n/a
403.3995	0.0905	806799	keystroke	e	n/a
403.6095	0.09	807219	keystroke	p	n/a
403.8045	0.06	807609	keystroke	r	n/a
403.925	0.0895	807850	keystroke	i	n/a
404.1505	0.075	808301	keystroke	n	n/a
404.3005	0.06	808601	keystroke	t	n/a
404.4055	0.09	808811	keystroke	Key.space	n/a
405.995	0.06	811990	keystroke	y	n/a
406.205	0.09	812410	keystroke	a	n/a
406.34	0.09	812680	keystroke	m	n/a
406.52	0.09	813040	keystroke	a	n/a
406.715	0.075	813430	keystroke	h	n/a
406.85	0.09	813700	keystroke	a	n/a
407.0455	0.06	814091	keystroke	Key.space	n/a
408.68	0.075	817360	keystroke	o	n/a
409.055	0.06	818110	keystroke	n	n/a
409.325	0.06	818650	keystroke	g	n/a
409.415	0.135	818830	keystroke	o	n/a
409.49	0.09	818980	keystroke	i	n/a
409.6995	0.06	819399	keystroke	n	n/a
409.7905	0.044	819581	keystroke	g	n/a
409.8945	0.06	819789	keystroke	Key.space	n/a
411.17	0.045	822340	keystroke	r	n/a
411.38	0.075	822760	keystroke	i	n/a
411.575	0.06	823150	keystroke	c	n/a
412.055	0.06	824110	keystroke	h	n/a
412.295	0.045	824590	keystroke	m	n/a
412.4455	0.135	824891	keystroke	o	n/a
412.595	0.0755	825190	keystroke	n	n/a
412.79	0.0755	825580	keystroke	d	n/a
413.3305	0.12	826661	keystroke	Key.enter	n/a
413.455	10.467	826910	prompt	n/a	thumbnails gnome seasonal when\n
414.4405	0.075	828881	keystroke	t	n/a
414.5305	0.075	829061	keystroke	h	n/a
414.7405	0.06	829481	keystroke	u	n/a
415.0255	0.045	830051	keystroke	m	n/a
415.2505	0.06	830501	keystroke	b	n/a
416.675	0.0895	833350	keystroke	n	n/a
416.9745	0.105	833949	keystroke	a	n/a
417.0805	0.074	834161	keystroke	i	n/a
417.2895	0.075	834579	keystroke	l	n/a
417.4095	0.09	834819	keystroke	s	n/a
417.6195	0.09	835239	keystroke	Key.space	n/a
418.5505	0.059	837101	keystroke	g	n/a
418.76	0.06	837520	keystroke	n	n/a
418.94	0.09	837880	keystroke	o	n/a
419.135	0.075	838270	keystroke	m	n/a
419.285	0.06	838570	keystroke	e	n/a
419.375	0.075	838750	keystroke	Key.space	n/a
420.125	0.0595	840250	keystroke	s	n/a
420.3045	0.0605	840609	keystroke	e	n/a
420.5005	0.09	841001	keystroke	a	n/a
420.5755	0.06	841151	keystroke	s	n/a
420.7255	0.1195	841451	keystroke	o	n/a
420.8155	0.0595	841631	keystroke	n	n/a
420.9795	0.06	841959	keystroke	a	n/a
421.0695	0.09	842139	keystroke	l	n/a
421.2945	0.06	842589	keystroke	Key.space	n/a
421.9995	0.09	843999	keystroke	w	n/a
422.1355	0.0745	844271	keystroke	h	n/a
422.255	0.075	844510	keystroke	e	n/a
422.345	0.075	844690	keystroke	n	n/a
423.8	0.12	847600	keystroke	Key.enter	n/a
423.927	8.38	847854	prompt	n/a	calculated lost workshops sugar\n
425.105	0.045	850210	keystroke	c	n/a
425.165	0.075	850330	keystroke	a	n/a
425.285	0.075	850570	keystroke	l	n/a
425.54	0.075	851080	keystroke	c	n/a
425.66	0.045	851320	keystroke	u	n/a
425.825	0.075	851650	keystroke	l	n/a
425.915	0.075	851830	keystroke	a	n/a
426.095	0.105	852190	keystroke	t	n/a
426.155	0.075	852310	keystroke	e	n/a
426.3805	0.06	852761	keystroke	d	n/a
426.5155	0.074	853031	keystroke	Key.space	n/a
427.0255	0.059	854051	keystroke	l	n/a
427.2195	0.075	854439	keystroke	o	n/a
427.3705	0.09	854741	keystroke	s	n/a
427.5805	0.0745	855161	keystroke	t	n/a
427.685	0.06	855370	keystroke	Key.space	n/a
428.6145	0.076	857229	keystroke	w	n/a
428.7045	0.1055	857409	keystroke	o	n/a
428.855	0.06	857710	keystroke	r	n/a
429.08	0.06	858160	keystroke	k	n/a
429.23	0.06	858460	keystroke	s	n/a
429.455	0.075	858910	keystroke	h	n/a
429.665	0.075	859330	keystroke	o	n/a
429.875	0.045	859750	keystroke	p	n/a
430.19	0.105	860380	keystroke	s	n/a
430.34	0.0745	860680	keystroke	Key.space	n/a
430.9845	0.09	861969	keystroke	s	n/a
431.2245	0.06	862449	keystroke	u	n/a
431.5545	0.06	863109	keystroke	g	n/a
431.765	0.12	863530	keystroke	a	n/a
431.84	0.075	863680	keystroke	r	n/a
432.2305	0.0745	864461	keystroke	Key.enter	n/a
432.31	9.9115	864620	prompt	n/a	periodically consultant meters qualify\n
433.2505	0.06	866501	keystroke	p	n/a
433.4455	0.1045	866891	keystroke	e	n/a
433.55	0.06	867100	keystroke	r	n/a
433.79	0.06	867580	keystroke	i	n/a
433.955	0.0905	867910	keystroke	o	n/a
434.21	0.075	868420	keystroke	d	n/a
434.2995	0.076	868599	keystroke	i	n/a
434.4045	0.0905	868809	keystroke	c	n/a
434.525	0.105	869050	keystroke	a	n/a
434.6595	0.075	869319	keystroke	l	n/a
434.8095	0.09	869619	keystroke	l	n/a
435.3645	0.09	870729	keystroke	y	n/a
435.4845	0.105	870969	keystroke	Key.space	n/a
436.07	0.09	872140	keystroke	c	n/a
436.295	0.12	872590	keystroke	o	n/a
436.46	0.075	872920	keystroke	n	n/a
436.73	0.09	873460	keystroke	s	n/a
436.91	0.075	873820	keystroke	u	n/a
437.135	0.09	874270	keystroke	l	n/a
437.285	0.06	874570	keystroke	t	n/a
437.45	0.135	874900	keystroke	a	n/a
437.645	0.075	875290	keystroke	n	n/a
437.795	0.075	875590	keystroke	t	n/a
437.885	0.075	875770	keystroke	Key.space	n/a
438.8	0.075	877600	keystroke	m	n/a
438.92	0.075	877840	keystroke	e	n/a
439.07	0.075	878140	keystroke	t	n/a
439.25	0.105	878500	keystroke	e	n/a
439.325	0.075	878650	keystroke	r	n/a
439.625	0.045	879250	keystroke	s	n/a
439.715	0.105	879430	keystroke	Key.space	n/a
440.7045	0.06	881409	keystroke	q	n/a
441.0195	0.06	882039	keystroke	u	n/a
441.1245	0.09	882249	keystroke	a	n/a
441.2745	0.165	882549	keystroke	l	n/a
441.4095	0.075	882819	keystroke	i	n/a
441.6195	0.06	883239	keystroke	f	n/a
441.8295	0.075	883659	keystroke	y	n/a
442.1445	0.075	884289	keystroke	Key.enter	n/a
442.225	6.8965	884450	prompt	n/a	soft brothers stocks desert\n
442.9995	0.105	885999	keystroke	s	n/a
443.1195	0.075	886239	keystroke	o	n/a
443.2245	0.075	886449	keystroke	f	n/a
443.4045	0.075	886809	keystroke	t	n/a
443.5245	0.06	887049	keystroke	Key.space	n/a
444.38	0.06	888760	keystroke	b	n/a
444.5005	0.06	889001	keystroke	r	n/a
444.6205	0.0895	889241	keystroke	o	n/a
444.77	0.075	889540	keystroke	t	n/a
444.89	0.075	889780	keystroke	h	n/a
444.98	0.105	889960	keystroke	e	n/a
445.055	0.075	890110	keystroke	r	n/a
445.265	0.06	890530	keystroke	s	n/a
445.34	0.075	890680	keystroke	Key.space	n/a
446.285	0.06	892570	keystroke	s	n/a
446.435	0.06	892870	keystroke	t	n/a
446.555	0.0895	893110	keystroke	o	n/a
446.9305	0.075	893861	keystroke	c	n/a
447.0205	0.09	894041	keystroke	k	n/a
447.1705	0.059	894341	keystroke	s	n/a
447.2595	0.075	894519	keystroke	Key.space	n/a
447.8305	0.074	895661	keystroke	d	n/a
448.0405	0.044	896081	keystroke	e	n/a
448.2045	0.076	896409	keystroke	s	n/a
448.4005	0.12	896801	keystroke	e	n/a
448.5055	0.075	897011	keystroke	r	n/a
448.7005	0.06	897401	keystroke	t	n/a
449.0155	0.104	898031	keystroke	Key.enter	n/a
449.125	9.837	898250	prompt	n/a	protocols handhelds phrases popularity\n
450.29	0.09	900580	keystroke	p	n/a
450.425	0.045	900850	keystroke	r	n/a
450.485	0.105	900970	keystroke	o	n/a
450.7995	0.0755	901599	keystroke	t	n/a
450.935	0.09	901870	keystroke	o	n/a
451.175	0.06	902350	keystroke	c	n/a
451.25	0.075	902500	keystroke	o	n/a
451.475	0.09	902950	keystroke	l	n/a
451.595	0.075	903190	keystroke	s	n/a
451.73	0.075	903460	keystroke	Key.space	n/a
452.465	0.045	904930	keystroke	h	n/a
452.57	0.075	905140	keystroke	a	n/a
452.66	0.06	905320	keystroke	n	n/a
452.795	0.06	905590	keystroke	d	n/a
453.08	0.06	906160	keystroke	h	n/a
453.215	0.03	906430	keystroke	e	n/a
453.275	0.09	906550	keystroke	l	n/a
453.59	0.045	907180	keystroke	d	n/a
453.755	0.06	907510	keystroke	s	n/a
453.875	0.075	907750	keystroke	Key.space	n/a
454.91	0.075	909820	keystroke	p	n/a
455.36	0.06	910720	keystroke	h	n/a
455.465	0.06	910930	keystroke	r	n/a
455.6445	0.075	911289	keystroke	a	n/a
455.8395	0.061	911679	keystroke	s	n/a
456.0045	0.075	912009	keystroke	e	n/a
456.1995	0.061	912399	keystroke	s	n/a
456.32	0.06	912640	keystroke	Key.space	n/a
456.74	0.075	913480	keystroke	p	n/a
456.995	0.075	913990	keystroke	o	n/a
457.175	0.0895	914350	keystroke	p	n/a
457.415	0.06	914830	keystroke	u	n/a
457.58	0.0755	915160	keystroke	l	n/a
457.7455	0.12	915491	keystroke	a	n/a
457.8505	0.0745	915701	keystroke	r	n/a
458.045	0.06	916090	keystroke	i	n/a
458.12	0.09	916240	keystroke	t	n/a
458.3155	0.105	916631	keystroke	y	n/a
458.87	0.09	917740	keystroke	Key.enter	n/a
458.9665	7.255	917933	prompt	n/a	sorted albert recent bidding\n
459.9355	0.089	919871	keystroke	s	n/a
460.0395	0.091	920079	keystroke	o	n/a
460.2055	0.0595	920411	keystroke	r	n/a
460.37	0.09	920740	keystroke	t	n/a
460.535	0.045	921070	keystroke	e	n/a
460.685	0.09	921370	keystroke	d	n/a
460.79	0.06	921580	keystroke	Key.space	n/a
461.5395	0.06	923079	keystroke	a	n/a
461.6445	0.06	923289	keystroke	l	n/a
462.0645	0.06	924129	keystroke	b	n/a
462.1545	0.105	924309	keystroke	e	n/a
462.2295	0.06	924459	keystroke	r	n/a
462.4245	0.06	924849	keystroke	t	n/a
462.5145	0.075	925029	keystroke	Key.space	n/a
463.2045	0.1205	926409	keystroke	r	n/a
463.2945	0.09	926589	keystroke	e	n/a
463.505	0.0895	927010	keystroke	c	n/a
463.6695	0.06	927339	keystroke	e	n/a
463.79	0.0745	927580	keystroke	n	n/a
463.9095	0.075	927819	keystroke	t	n/a
464.0145	0.09	928029	keystroke	Key.space	n/a
464.825	0.06	929650	keystroke	b	n/a
464.84	0.06	929680	keystroke	i	n/a
465.14	0.0595	930280	keystroke	d	n/a
465.2445	0.105	930489	keystroke	d	n/a
465.3645	0.135	930729	keystroke	i	n/a
465.4395	0.1205	930879	keystroke	n	n/a
465.53	0.075	931060	keystroke	g	n/a
466.1295	0.09	932259	keystroke	Key.enter	n/a
466.226	12.5805	932452	prompt	n/a	daddy quotations discussing forgotten\n
467.21	0.075	934420	keystroke	d	n/a
467.39	0.105	934780	keystroke	a	n/a
468.035	0.045	936070	keystroke	d	n/a
468.14	0.075	936280	keystroke	d	n/a
468.395	0.075	936790	keystroke	y	n/a
468.545	0.075	937090	keystroke	Key.space	n/a
469.55	0.03	939100	keystroke	q	n/a
469.715	0.06	939430	keystroke	u	n/a
470.5545	0.046	941109	keystroke	o	n/a
470.735	0.06	941470	keystroke	t	n/a
471.14	0.105	942280	keystroke	a	n/a
471.3795	0.06	942759	keystroke	t	n/a
471.5595	0.105	943119	keystroke	i	n/a
471.6345	0.09	943269	keystroke	o	n/a
471.8745	0.06	943749	keystroke	n	n/a
471.9795	0.0905	943959	keystroke	s	n/a
472.235	0.075	944470	keystroke	Key.space	n/a
472.97	0.06	945940	keystroke	d	n/a
473.09	0.075	946180	keystroke	i	n/a
473.18	0.06	946360	keystroke	s	n/a
473.315	0.075	946630	keystroke	c	n/a
473.48	0.06	946960	keystroke	u	n/a
473.615	0.0445	947230	keystroke	s	n/a
473.7195	0.105	947439	keystroke	s	n/a
474.5895	0.1505	949179	keystroke	i	n/a
475.355	0.0755	950710	keystroke	n	n/a
475.4155	0.09	950831	keystroke	g	n/a
475.5495	0.0755	951099	keystroke	Key.space	n/a
476.285	0.075	952570	keystroke	f	n/a
476.39	0.075	952780	keystroke	o	n/a
476.525	0.03	953050	keystroke	r	n/a
476.675	0.075	953350	keystroke	g	n/a
477.56	0.045	955120	keystroke	o	n/a
477.68	0.045	955360	keystroke	t	n/a
477.815	0.075	955630	keystroke	t	n/a
478.3095	0.06	956619	keystroke	e	n/a
478.3845	0.06	956769	keystroke	n	n/a
478.7145	0.09	957429	keystroke	Key.enter	n/a
478.81	8.0815	957620	prompt	n/a	knowledge brook prison thoughts\n
479.9145	0.09	959829	keystroke	k	n/a
480.1095	0.06	960219	keystroke	n	n/a
480.3495	0.09	960699	keystroke	o	n/a
480.6045	0.061	961209	keystroke	w	n/a
481.1295	0.091	962259	keystroke	l	n/a
481.2955	0.06	962591	keystroke	e	n/a
481.4905	0.075	962981	keystroke	d	n/a
481.7305	0.105	963461	keystroke	g	n/a
481.8805	0.12	963761	keystroke	e	n/a
482.0445	0.061	964089	keystroke	Key.space	n/a
482.69	0.075	965380	keystroke	b	n/a
482.87	0.06	965740	keystroke	r	n/a
483.08	0.075	966160	keystroke	o	n/a
483.245	0.0895	966490	keystroke	o	n/a
483.3945	0.075	966789	keystroke	k	n/a
483.6645	0.06	967329	keystroke	Key.space	n/a
484.0395	0.075	968079	keystroke	p	n/a
484.1745	0.06	968349	keystroke	r	n/a
484.3695	0.09	968739	keystroke	i	n/a
484.5945	0.0605	969189	keystroke	s	n/a
484.7	0.12	969400	keystroke	o	n/a
484.79	0.09	969580	keystroke	n	n/a
485.045	0.06	970090	keystroke	Key.space	n/a
485.66	0.045	971320	keystroke	t	n/a
485.765	0.06	971530	keystroke	h	n/a
485.945	0.12	971890	keystroke	o	n/a
486.02	0.075	972040	keystroke	u	n/a
486.14	0.075	972280	keystroke	g	n/a
486.23	0.0745	972460	keystroke	h	n/a
486.3345	0.075	972669	keystroke	t	n/a
486.5145	0.106	973029	keystroke	s	n/a
486.8145	0.075	973629	keystroke	Key.enter	n/a
486.8945	8.1575	973789	prompt	n/a	stop gotta walking archives\n
487.7145	0.075	975429	keystroke	s	n/a
488.1355	0.059	976271	keystroke	t	n/a
488.3595	0.061	976719	keystroke	o	n/a
488.5695	0.09	977139	keystroke	p	n/a
488.8845	0.06	977769	keystroke	Key.space	n/a
489.3195	0.075	978639	keystroke	g	n/a
489.4845	0.075	978969	keystroke	o	n/a
489.6205	0.044	979241	keystroke	t	n/a
489.7255	0.075	979451	keystroke	t	n/a
489.9345	0.105	979869	keystroke	a	n/a
490.0845	0.075	980169	keystroke	Key.space	n/a
491.4345	0.06	982869	keystroke	w	n/a
491.6145	0.091	983229	keystroke	a	n/a
491.7645	0.076	983529	keystroke	l	n/a
491.9895	0.105	983979	keystroke	k	n/a
492.2595	0.1055	984519	keystroke	i	n/a
492.335	0.075	984670	keystroke	n	n/a
492.425	0.0905	984850	keystroke	g	n/a
492.545	0.075	985090	keystroke	Key.space	n/a
493.1605	0.09	986321	keystroke	a	n/a
493.46	0.06	986920	keystroke	r	n/a
493.685	0.045	987370	keystroke	c	n/a
493.775	0.075	987550	keystroke	h	n/a
493.94	0.12	987880	keystroke	i	n/a
494.135	0.09	988270	keystroke	v	n/a
494.27	0.105	988540	keystroke	e	n/a
494.495	0.09	988990	keystroke	s	n/a
494.9745	0.075	989949	keystroke	Key.enter	n/a
495.0555	10.811	990111	prompt	n/a	expression abstract fragrances organic\n
495.89	0.075	991780	keystroke	e	n/a
496.19	0.06	992380	keystroke	x	n/a
496.655	0.075	993310	keystroke	p	n/a
496.82	0.135	993640	keystroke	r	n/a
496.91	0.06	993820	keystroke	e	n/a
497.12	0.045	994240	keystroke	s	n/a
497.225	0.075	994450	keystroke	s	n/a
497.315	0.12	994630	keystroke	i	n/a
497.36	0.135	994720	keystroke	o	n/a
497.675	0.06	995350	keystroke	n	n/a
497.87	0.045	995740	keystroke	Key.space	n/a
498.23	0.075	996460	keystroke	a	n/a
498.68	0.075	997360	keystroke	b	n/a
498.815	0.06	997630	keystroke	s	n/a
498.995	0.06	997990	keystroke	t	n/a
499.16	0.06	998320	keystroke	r	n/a
499.325	0.15	998650	keystroke	a	n/a
499.43	0.06	998860	keystroke	c	n/a
499.6845	0.075	999369	keystroke	t	n/a
499.8045	0.06	999609	keystroke	Key.space	n/a
500.5395	0.045	1001079	keystroke	g	n/a
501.1695	0.075	1002339	keystroke	Key.backspace	n/a
501.3045	0.0755	1002609	keystroke	f	n/a
501.5	0.0745	1003000	keystroke	r	n/a
501.89	0.074	1003780	keystroke	a	n/a
502.145	0.044	1004290	keystroke	g	n/a
502.34	0.045	1004680	keystroke	r	n/a
502.5045	0.0755	1005009	keystroke	a	n/a
502.624	0.0765	1005248	keystroke	n	n/a
502.8795	0.1355	1005759	keystroke	c	n/a
502.9395	0.1205	1005879	keystroke	e	n/a
503.18	0.06	1006360	keystroke	s	n/a
503.3	0.06	1006600	keystroke	Key.space	n/a
504.4395	0.06	1008879	keystroke	o	n/a
504.5295	0.06	1009059	keystroke	r	n/a
504.7245	0.06	1009449	keystroke	g	n/a
504.9045	0.075	1009809	keystroke	a	n/a
505.0245	0.06	1010049	keystroke	n	n/a
505.2645	0.045	1010529	keystroke	i	n/a
505.37	0.09	1010740	keystroke	c	n/a
505.775	0.09	1011550	keystroke	Key.enter	n/a
505.872	11.9195	1011744	prompt	n/a	growth prohibited firewall psychology\n
506.975	0.06	1013950	keystroke	g	n/a
507.2	0.045	1014400	keystroke	r	n/a
507.35	0.075	1014700	keystroke	o	n/a
507.545	0.09	1015090	keystroke	w	n/a
507.77	0.075	1015540	keystroke	t	n/a
507.86	0.075	1015720	keystroke	h	n/a
508.085	0.06	1016170	keystroke	Key.space	n/a
508.865	0.06	1017730	keystroke	p	n/a
509.09	0.06	1018180	keystroke	r	n/a
509.285	0.075	1018570	keystroke	o	n/a
509.8245	0.015	1019649	keystroke	h	n/a
509.9145	0.09	1019829	keystroke	i	n/a
510.1995	0.075	1020399	keystroke	b	n/a
510.3645	0.09	1020729	keystroke	i	n/a
510.5445	0.075	1021089	keystroke	t	n/a
510.7245	0.06	1021449	keystroke	e	n/a
510.9045	0.075	1021809	keystroke	d	n/a
511.0245	0.06	1022049	keystroke	Key.space	n/a
511.595	0.06	1023190	keystroke	f	n/a
511.775	0.09	1023550	keystroke	i	n/a
511.925	0.12	1023850	keystroke	r	n/a
512.15	0.105	1024300	keystroke	e	n/a
512.4505	0.075	1024901	keystroke	w	n/a
512.6745	0.105	1025349	keystroke	a	n/a
512.8395	0.045	1025679	keystroke	l	n/a
512.9595	0.075	1025919	keystroke	l	n/a
513.1845	0.045	1026369	keystroke	Key.space	n/a
513.815	0.075	1027630	keystroke	p	n/a
514.1	0.075	1028200	keystroke	s	n/a
514.6545	0.015	1029309	keystroke	y	n/a
515.3595	0.09	1030719	keystroke	c	n/a
515.7345	0.0755	1031469	keystroke	h	n/a
515.93	0.075	1031860	keystroke	o	n/a
516.125	0.075	1032250	keystroke	l	n/a
516.3195	0.09	1032639	keystroke	o	n/a
517.1295	0.03	1034259	keystroke	g	n/a
517.295	0.075	1034590	keystroke	y	n/a
517.6995	0.09	1035399	keystroke	Key.enter	n/a
517.7945	8.6675	1035589	prompt	n/a	firmware preparing wire volvo\n
518.7055	0.059	1037411	keystroke	f	n/a
519.1405	0.105	1038281	keystroke	i	n/a
519.3195	0.061	1038639	keystroke	r	n/a
519.5745	0.061	1039149	keystroke	m	n/a
519.845	0.06	1039690	keystroke	w	n/a
520.115	0.0745	1040230	keystroke	a	n/a
520.97	0.12	1041940	keystroke	r	n/a
521.045	0.105	1042090	keystroke	e	n/a
521.479	0.091	1042958	keystroke	Key.space	n/a
522.17	0.045	1044340	keystroke	p	n/a
522.335	0.105	1044670	keystroke	r	n/a
522.425	0.075	1044850	keystroke	e	n/a
522.56	0.0905	1045120	keystroke	p	n/a
522.725	0.0905	1045450	keystroke	a	n/a
522.92	0.06	1045840	keystroke	r	n/a
523.0995	0.105	1046199	keystroke	i	n/a
523.1595	0.09	1046319	keystroke	n	n/a
523.2795	0.0905	1046559	keystroke	g	n/a
523.3995	0.075	1046799	keystroke	Key.space	n/a
524.1345	0.061	1048269	keystroke	w	n/a
524.2555	0.06	1048511	keystroke	i	n/a
524.3755	0.1645	1048751	keystroke	r	n/a
524.495	0.075	1048990	keystroke	e	n/a
524.675	0.075	1049350	keystroke	Key.space	n/a
525.44	0.09	1050880	keystroke	v	n/a
525.545	0.0755	1051090	keystroke	o	n/a
525.7245	0.06	1051449	keystroke	l	n/a
525.9195	0.075	1051839	keystroke	v	n/a
526.0095	0.09	1052019	keystroke	o	n/a
526.3995	0.06	1052799	keystroke	Key.enter	n/a
526.465	11.1415	1052930	prompt	n/a	auto namespace removal fighters\n
527.4505	0.0745	1054901	keystroke	a	n/a
527.6	0.075	1055200	keystroke	u	n/a
527.8105	0.0745	1055621	keystroke	r	n/a
528.319	0.031	1056638	keystroke	Key.backspace	n/a
528.7695	0.061	1057539	keystroke	t	n/a
528.8605	0.089	1057721	keystroke	o	n/a
529.4895	0.075	1058979	keystroke	Key.space	n/a
530.09	0.06	1060180	keystroke	n	n/a
530.195	0.075	1060390	keystroke	a	n/a
530.3	0.075	1060600	keystroke	m	n/a
530.405	0.06	1060810	keystroke	e	n/a
530.585	0.09	1061170	keystroke	s	n/a
530.69	0.06	1061380	keystroke	p	n/a
530.8095	0.0905	1061619	keystroke	a	n/a
531.2755	0.135	1062551	keystroke	c	n/a
531.3495	0.106	1062699	keystroke	e	n/a
531.5895	0.075	1063179	keystroke	Key.space	n/a
532.805	0.105	1065610	keystroke	r	n/a
533.03	0.09	1066060	keystroke	e	n/a
533.21	0.06	1066420	keystroke	m	n/a
533.39	0.09	1066780	keystroke	o	n/a
533.705	0.075	1067410	keystroke	v	n/a
533.825	0.06	1067650	keystroke	i	n/a
534.605	0.075	1069210	keystroke	Key.backspace	n/a
534.8	0.075	1069600	keystroke	a	n/a
534.98	0.075	1069960	keystroke	l	n/a
535.61	0.045	1071220	keystroke	Key.space	n/a
536.12	0.09	1072240	keystroke	f	n/a
536.255	0.09	1072510	keystroke	i	n/a
536.405	0.09	1072810	keystroke	g	n/a
536.51	0.06	1073020	keystroke	h	n/a
536.63	0.075	1073260	keystroke	t	n/a
536.825	0.12	1073650	keystroke	e	n/a
536.9	0.075	1073800	keystroke	r	n/a
537.11	0.075	1074220	keystroke	s	n/a
537.545	0.06	1075090	keystroke	Key.enter	n/a
537.6095	10.647	1075219	prompt	n/a	lots archive hazard birmingham\n
538.505	0.045	1077010	keystroke	l	n/a
538.6845	0.06	1077369	keystroke	o	n/a
538.9395	0.105	1077879	keystroke	t	n/a
539.1645	0.075	1078329	keystroke	s	n/a
539.2995	0.06	1078599	keystroke	Key.space	n/a
540.485	0.09	1080970	keystroke	a	n/a
540.6645	0.06	1081329	keystroke	r	n/a
540.9945	0.075	1081989	keystroke	c	n/a
541.1145	0.045	1082229	keystroke	h	n/a
541.2495	0.09	1082499	keystroke	i	n/a
541.4595	0.09	1082919	keystroke	v	n/a
541.6545	0.09	1083309	keystroke	e	n/a
541.7745	0.06	1083549	keystroke	Key.space	n/a
542.96	0.06	1085920	keystroke	h	n/a
543.08	0.09	1086160	keystroke	a	n/a
543.485	0.0595	1086970	keystroke	z	n/a
543.6495	0.09	1087299	keystroke	a	n/a
543.8445	0.06	1087689	keystroke	r	n/a
544.0395	0.06	1088079	keystroke	d	n/a
544.145	0.06	1088290	keystroke	Key.space	n/a
545.21	0.015	1090420	keystroke	b	n/a
545.405	0.09	1090810	keystroke	i	n/a
545.645	0.06	1091290	keystroke	r	n/a
545.915	0.06	1091830	keystroke	m	n/a
546.845	0.075	1093690	keystroke	i	n/a
547.145	0.06	1094290	keystroke	n	n/a
547.325	0.06	1094650	keystroke	g	n/a
547.505	0.045	1095010	keystroke	h	n/a
547.625	0.075	1095250	keystroke	a	n/a
547.73	0.075	1095460	keystroke	m	n/a
548.165	0.09	1096330	keystroke	Key.enter	n/a
548.26	9.9265	1096520	prompt	n/a	floyd silence rivers generally\n
549.29	0.06	1098580	keystroke	f	n/a
549.47	0.075	1098940	keystroke	l	n/a
549.74	0.075	1099480	keystroke	o	n/a
549.86	0.06	1099720	keystroke	y	n/a
550.88	0.105	1101760	keystroke	d	n/a
551.885	0.075	1103770	keystroke	Key.space	n/a
552.935	0.06	1105870	keystroke	s	n/a
553.04	0.06	1106080	keystroke	i	n/a
553.235	0.06	1106470	keystroke	l	n/a
553.37	0.06	1106740	keystroke	e	n/a
553.49	0.075	1106980	keystroke	n	n/a
553.67	0.135	1107340	keystroke	c	n/a
553.745	0.12	1107490	keystroke	e	n/a
553.925	0.075	1107850	keystroke	Key.space	n/a
554.885	0.06	1109770	keystroke	r	n/a
555.305	0.075	1110610	keystroke	i	n/a
555.53	0.075	1111060	keystroke	v	n/a
555.71	0.09	1111420	keystroke	e	n/a
555.785	0.06	1111570	keystroke	r	n/a
555.995	0.09	1111990	keystroke	s	n/a
556.115	0.075	1112230	keystroke	Key.space	n/a
556.8055	0.059	1113611	keystroke	g	n/a
556.9855	0.075	1113971	keystroke	e	n/a
557.1205	0.059	1114241	keystroke	n	n/a
557.2245	0.135	1114449	keystroke	e	n/a
557.2995	0.09	1114599	keystroke	r	n/a
557.4795	0.09	1114959	keystroke	a	n/a
557.5845	0.045	1115169	keystroke	l	n/a
557.7195	0.09	1115439	keystroke	l	n/a
557.8245	0.09	1115649	keystroke	y	n/a
558.1095	0.075	1116219	keystroke	Key.enter	n/a
558.1895	10.8125	1116379	prompt	n/a	he've sacramento clinical basement\n
559.34	0.045	1118680	keystroke	h	n/a
559.445	0.075	1118890	keystroke	e	n/a
560	0.06	1120000	keystroke	'	n/a
560.165	0.09	1120330	keystroke	v	n/a
560.33	0.09	1120660	keystroke	e	n/a
560.6595	0.075	1121319	keystroke	Key.space	n/a
561.2745	0.075	1122549	keystroke	s	n/a
561.6945	0.09	1123389	keystroke	a	n/a
561.9195	0.09	1123839	keystroke	c	n/a
562.2045	0.09	1124409	keystroke	r	n/a
562.5045	0.105	1125009	keystroke	a	n/a
562.76	0.12	1125520	keystroke	c	n/a
563.464	0.105	1126928	keystroke	Key.backspace	n/a
563.8105	0.0445	1127621	keystroke	m	n/a
563.915	0.12	1127830	keystroke	e	n/a
564.05	0.045	1128100	keystroke	n	n/a
564.154	0.091	1128308	keystroke	t	n/a
564.365	0.105	1128730	keystroke	o	n/a
564.605	0.059	1129210	keystroke	Key.space	n/a
565.295	0.06	1130590	keystroke	c	n/a
565.46	0.075	1130920	keystroke	l	n/a
565.64	0.0595	1131280	keystroke	i	n/a
565.8495	0.045	1131699	keystroke	n	n/a
565.9845	0.075	1131969	keystroke	i	n/a
566.1795	0.135	1132359	keystroke	c	n/a
566.3155	0.089	1132631	keystroke	a	n/a
566.4345	0.076	1132869	keystroke	l	n/a
566.6295	0.06	1133259	keystroke	Key.space	n/a
567.485	0.06	1134970	keystroke	b	n/a
567.605	0.105	1135210	keystroke	a	n/a
567.755	0.075	1135510	keystroke	s	n/a
567.95	0.06	1135900	keystroke	e	n/a
568.0845	0.06	1136169	keystroke	m	n/a
568.2045	0.075	1136409	keystroke	e	n/a
568.3095	0.075	1136619	keystroke	n	n/a
568.3995	0.105	1136799	keystroke	t	n/a
568.9105	0.09	1137821	keystroke	Key.enter	n/a
569.005	7.8715	1138010	prompt	n/a	uncle storm measurement pins\n
570.11	0.18	1140220	keystroke	u	n/a
570.3045	0.015	1140609	keystroke	n	n/a
570.395	0.075	1140790	keystroke	c	n/a
570.5145	0.0755	1141029	keystroke	l	n/a
570.6495	0.0905	1141299	keystroke	e	n/a
570.7855	0.074	1141571	keystroke	Key.space	n/a
571.475	0.075	1142950	keystroke	s	n/a
571.835	0.06	1143670	keystroke	t	n/a
571.94	0.075	1143880	keystroke	o	n/a
572.135	0.075	1144270	keystroke	r	n/a
572.315	0.06	1144630	keystroke	m	n/a
572.525	0.075	1145050	keystroke	Key.space	n/a
573.155	0.06	1146310	keystroke	m	n/a
573.275	0.06	1146550	keystroke	e	n/a
573.44	0.06	1146880	keystroke	a	n/a
573.6195	0.045	1147239	keystroke	s	n/a
573.7395	0.06	1147479	keystroke	u	n/a
573.9045	0.135	1147809	keystroke	r	n/a
573.9945	0.09	1147989	keystroke	e	n/a
574.1145	0.075	1148229	keystroke	m	n/a
574.2495	0.09	1148499	keystroke	e	n/a
574.3545	0.105	1148709	keystroke	n	n/a
574.5045	0.09	1149009	keystroke	t	n/a
574.6095	0.0755	1149219	keystroke	Key.space	n/a
576.05	0.0895	1152100	keystroke	p	n/a
576.11	0.06	1152220	keystroke	i	n/a
576.32	0.075	1152640	keystroke	n	n/a
576.44	0.075	1152880	keystroke	s	n/a
576.7995	0.076	1153599	keystroke	Key.enter	n/a
576.8795	11.397	1153759	prompt	n/a	attempted reproduction opportunity congress\n
577.6245	0.09	1155249	keystroke	a	n/a
577.8645	0.091	1155729	keystroke	t	n/a
578.0145	0.046	1156029	keystroke	t	n/a
578.1505	0.075	1156301	keystroke	e	n/a
578.2555	0.075	1156511	keystroke	m	n/a
578.4355	0.09	1156871	keystroke	p	n/a
578.5695	0.061	1157139	keystroke	t	n/a
578.7645	0.075	1157529	keystroke	e	n/a
578.9305	0.1195	1157861	keystroke	d	n/a
579.05	0.06	1158100	keystroke	Key.space	n/a
579.9495	0.09	1159899	keystroke	r	n/a
580.1895	0.075	1160379	keystroke	e	n/a
580.6395	0.045	1161279	keystroke	p	n/a
580.9695	0.075	1161939	keystroke	r	n/a
581.1195	0.075	1162239	keystroke	o	n/a
581.435	0.075	1162870	keystroke	d	n/a
581.6	0.06	1163200	keystroke	u	n/a
581.705	0.1195	1163410	keystroke	c	n/a
581.9745	0.06	1163949	keystroke	t	n/a
582.0645	0.105	1164129	keystroke	i	n/a
582.1095	0.1055	1164219	keystroke	o	n/a
582.3345	0.075	1164669	keystroke	n	n/a
582.5445	0.075	1165089	keystroke	Key.space	n/a
583.1605	0.0895	1166321	keystroke	o	n/a
583.3705	0.06	1166741	keystroke	p	n/a
583.5055	0.0895	1167011	keystroke	p	n/a
583.64	0.075	1167280	keystroke	o	n/a
583.895	0.075	1167790	keystroke	t	n/a
584.525	0.09	1169050	keystroke	Key.backspace	n/a
584.6305	0.089	1169261	keystroke	r	n/a
584.8545	0.075	1169709	keystroke	t	n/a
584.9595	0.06	1169919	keystroke	u	n/a
585.1545	0.06	1170309	keystroke	n	n/a
585.2745	0.106	1170549	keystroke	i	n/a
585.3645	0.075	1170729	keystroke	t	n/a
585.5145	0.105	1171029	keystroke	y	n/a
585.6495	0.06	1171299	keystroke	Key.space	n/a
586.6845	0.105	1173369	keystroke	c	n/a
586.8045	0.075	1173609	keystroke	o	n/a
587.0155	0.06	1174031	keystroke	n	n/a
587.2405	0.074	1174481	keystroke	g	n/a
587.4205	0.074	1174841	keystroke	r	n/a
587.5995	0.075	1175199	keystroke	e	n/a
587.8695	0.031	1175739	keystroke	s	n/a
587.9755	0.089	1175951	keystroke	s	n/a
588.1995	0.0755	1176399	keystroke	Key.enter	n/a
588.28	8.3065	1176560	prompt	n/a	seem automation hundred danger\n
589.07	0.075	1178140	keystroke	s	n/a
589.28	0.06	1178560	keystroke	e	n/a
589.4	0.06	1178800	keystroke	e	n/a
589.655	0.06	1179310	keystroke	m	n/a
589.835	0.075	1179670	keystroke	Key.space	n/a
590.285	0.09	1180570	keystroke	a	n/a
591.005	0.045	1182010	keystroke	u	n/a
591.11	0.075	1182220	keystroke	t	n/a
591.2445	0.075	1182489	keystroke	o	n/a
591.4855	0.06	1182971	keystroke	m	n/a
592.1005	0.075	1184201	keystroke	a	n/a
592.3555	0.075	1184711	keystroke	t	n/a
592.5205	0.12	1185041	keystroke	i	n/a
592.5955	0.104	1185191	keystroke	o	n/a
592.8055	0.09	1185611	keystroke	n	n/a
593.0155	0.06	1186031	keystroke	Key.space	n/a
593.7055	0.06	1187411	keystroke	h	n/a
593.8855	0.045	1187771	keystroke	u	n/a
594.0655	0.06	1188131	keystroke	n	n/a
594.1855	0.09	1188371	keystroke	d	n/a
594.4555	0.12	1188911	keystroke	r	n/a
594.5905	0.105	1189181	keystroke	e	n/a
594.8155	0.09	1189631	keystroke	d	n/a
594.9645	0.075	1189929	keystroke	Key.space	n/a
595.565	0.0905	1191130	keystroke	d	n/a
595.6705	0.09	1191341	keystroke	a	n/a
595.7905	0.06	1191581	keystroke	n	n/a
595.9555	0.06	1191911	keystroke	g	n/a
596.1505	0.105	1192301	keystroke	e	n/a
596.2105	0.09	1192421	keystroke	r	n/a
596.4955	0.09	1192991	keystroke	Key.enter	n/a
596.5895	6.387	1193179	prompt	n/a	replica view hair jessica\n
597.4255	0.105	1194851	keystroke	r	n/a
597.6505	0.06	1195301	keystroke	e	n/a
597.7705	0.075	1195541	keystroke	p	n/a
597.8905	0.09	1195781	keystroke	l	n/a
598.1005	0.075	1196201	keystroke	i	n/a
598.2655	0.09	1196531	keystroke	c	n/a
598.3405	0.09	1196681	keystroke	a	n/a
598.595	0.015	1197190	keystroke	Key.space	n/a
599.165	0.075	1198330	keystroke	v	n/a
599.4045	0.06	1198809	keystroke	i	n/a
599.5705	0.045	1199141	keystroke	e	n/a
599.7655	0.045	1199531	keystroke	w	n/a
599.8555	0.059	1199711	keystroke	Key.space	n/a
600.6055	0.0445	1201211	keystroke	h	n/a
600.665	0.075	1201330	keystroke	a	n/a
600.7695	0.09	1201539	keystroke	i	n/a
600.9045	0.045	1201809	keystroke	r	n/a
600.9795	0.09	1201959	keystroke	Key.space	n/a
601.3095	0.075	1202619	keystroke	j	n/a
601.4295	0.06	1202859	keystroke	e	n/a
601.6545	0.045	1203309	keystroke	s	n/a
601.7595	0.09	1203519	keystroke	s	n/a
601.9245	0.09	1203849	keystroke	i	n/a
602.0295	0.1205	1204059	keystroke	c	n/a
602.405	0.09	1204810	keystroke	a	n/a
602.9145	0.06	1205829	keystroke	Key.enter	n/a
602.9795	8.802	1205959	prompt	n/a	geek plant usage sequence\n
604.1005	0.06	1208201	keystroke	g	n/a
604.2945	0.046	1208589	keystroke	e	n/a
604.3995	0.075	1208799	keystroke	e	n/a
604.6555	0.074	1209311	keystroke	k	n/a
604.8495	0.0605	1209699	keystroke	Key.space	n/a
605.345	0.12	1210690	keystroke	p	n/a
605.435	0.075	1210870	keystroke	l	n/a
605.57	0.105	1211140	keystroke	a	n/a
605.7345	0.09	1211469	keystroke	n	n/a
605.8395	0.105	1211679	keystroke	t	n/a
605.9745	0.075	1211949	keystroke	Key.space	n/a
607.025	0.06	1214050	keystroke	u	n/a
607.13	0.075	1214260	keystroke	s	n/a
607.295	0.075	1214590	keystroke	a	n/a
607.49	0.15	1214980	keystroke	g	n/a
607.595	0.09	1215190	keystroke	e	n/a
607.73	0.09	1215460	keystroke	Key.space	n/a
608.24	0.075	1216480	keystroke	s	n/a
608.45	0.075	1216900	keystroke	e	n/a
608.795	0.075	1217590	keystroke	u	n/a
609.5155	0.09	1219031	keystroke	Key.backspace	n/a
610.2655	0.0595	1220531	keystroke	q	n/a
610.445	0.075	1220890	keystroke	u	n/a
610.595	0.075	1221190	keystroke	e	n/a
610.715	0.075	1221430	keystroke	n	n/a
610.865	0.12	1221730	keystroke	c	n/a
610.925	0.12	1221850	keystroke	e	n/a
611.7055	0.075	1223411	keystroke	Key.enter	n/a
611.7875	8.0495	1223575	prompt	n/a	chicago affairs stands haven't\n
612.7105	0.075	1225421	keystroke	c	n/a
612.8605	0.059	1225721	keystroke	h	n/a
612.9955	0.0745	1225991	keystroke	i	n/a
613.115	0.12	1226230	keystroke	c	n/a
613.22	0.105	1226440	keystroke	a	n/a
613.505	0.09	1227010	keystroke	g	n/a
613.625	0.09	1227250	keystroke	o	n/a
613.835	0.06	1227670	keystroke	Key.space	n/a
614.27	0.09	1228540	keystroke	a	n/a
614.5245	0.045	1229049	keystroke	f	n/a
614.6595	0.045	1229319	keystroke	f	n/a
614.7205	0.135	1229441	keystroke	a	n/a
614.8845	0.106	1229769	keystroke	i	n/a
614.9755	0.09	1229951	keystroke	r	n/a
615.1845	0.061	1230369	keystroke	s	n/a
615.2605	0.075	1230521	keystroke	Key.space	n/a
615.905	0.15	1231810	keystroke	s	n/a
616.22	0.075	1232440	keystroke	t	n/a
616.4	0.12	1232800	keystroke	a	n/a
616.565	0.06	1233130	keystroke	n	n/a
616.82	0.135	1233640	keystroke	d	n/a
616.91	0.105	1233820	keystroke	s	n/a
617.255	0.075	1234510	keystroke	Key.space	n/a
617.96	0.06	1235920	keystroke	h	n/a
618.035	0.075	1236070	keystroke	a	n/a
618.365	0.09	1236730	keystroke	v	n/a
618.5	0.105	1237000	keystroke	e	n/a
618.6505	0.06	1237301	keystroke	n	n/a
619.2205	0.059	1238441	keystroke	'	n/a
619.3855	0.075	1238771	keystroke	t	n/a
619.7605	0.075	1239521	keystroke	Key.enter	n/a
619.8405	7.151	1239681	prompt	n/a	forums pepper boating sorted\n
620.8095	0.06	1241619	keystroke	f	n/a
620.8995	0.09	1241799	keystroke	o	n/a
621.0945	0.06	1242189	keystroke	r	n/a
621.1995	0.075	1242399	keystroke	u	n/a
621.425	0.06	1242850	keystroke	m	n/a
621.635	0.075	1243270	keystroke	s	n/a
621.755	0.06	1243510	keystroke	Key.space	n/a
622.295	0.06	1244590	keystroke	p	n/a
622.49	0.075	1244980	keystroke	e	n/a
622.6395	0.06	1245279	keystroke	p	n/a
622.7595	0.105	1245519	keystroke	p	n/a
622.8495	0.12	1245699	keystroke	e	n/a
622.9545	0.09	1245909	keystroke	r	n/a
623.1045	0.076	1246209	keystroke	Key.space	n/a
623.9155	0.06	1247831	keystroke	b	n/a
624.0805	0.075	1248161	keystroke	o	n/a
624.1705	0.135	1248341	keystroke	a	n/a
624.2905	0.075	1248581	keystroke	t	n/a
624.4555	0.105	1248911	keystroke	i	n/a
624.5155	0.09	1249031	keystroke	n	n/a
624.65	0.09	1249300	keystroke	g	n/a
624.755	0.075	1249510	keystroke	Key.space	n/a
625.4895	0.045	1250979	keystroke	s	n/a
625.5805	0.044	1251161	keystroke	o	n/a
626.2845	0.045	1252569	keystroke	r	n/a
626.3745	0.045	1252749	keystroke	t	n/a
626.5545	0.045	1253109	keystroke	e	n/a
626.705	0.12	1253410	keystroke	d	n/a
626.9	0.09	1253800	keystroke	Key.enter	n/a
626.9945	8.217	1253989	prompt	n/a	porter forestry brands lime\n
628.6395	0.105	1257279	keystroke	p	n/a
628.6845	0.09	1257369	keystroke	o	n/a
628.8795	0.075	1257759	keystroke	r	n/a
629.0595	0.06	1258119	keystroke	t	n/a
629.2695	0.09	1258539	keystroke	e	n/a
629.3445	0.075	1258689	keystroke	r	n/a
629.4645	0.09	1258929	keystroke	Key.space	n/a
630.1245	0.18	1260249	keystroke	f	n/a
630.3195	0.015	1260639	keystroke	o	n/a
630.3645	0.075	1260729	keystroke	r	n/a
630.5595	0.06	1261119	keystroke	e	n/a
630.74	0.0445	1261480	keystroke	s	n/a
630.8745	0.06	1261749	keystroke	t	n/a
631.0545	0.06	1262109	keystroke	r	n/a
631.2645	0.075	1262529	keystroke	y	n/a
631.3845	0.09	1262769	keystroke	Key.space	n/a
632.375	0.06	1264750	keystroke	b	n/a
632.525	0.06	1265050	keystroke	r	n/a
632.705	0.075	1265410	keystroke	a	n/a
632.81	0.09	1265620	keystroke	n	n/a
633.0805	0.105	1266161	keystroke	d	n/a
633.2755	0.075	1266551	keystroke	s	n/a
633.4405	0.0745	1266881	keystroke	Key.space	n/a
634.235	0.105	1268470	keystroke	l	n/a
634.34	0.105	1268680	keystroke	i	n/a
634.61	0.0755	1269220	keystroke	m	n/a
634.7455	0.075	1269491	keystroke	e	n/a
635.1505	0.059	1270301	keystroke	Key.enter	n/a
635.2145	10.062	1270429	prompt	n/a	authorized leader educators composed\n
635.9445	0.09	1271889	keystroke	a	n/a
636.29	0.045	1272580	keystroke	u	n/a
636.5	0.06	1273000	keystroke	t	n/a
636.62	0.075	1273240	keystroke	h	n/a
637.0105	0.09	1274021	keystroke	o	n/a
637.2655	0.075	1274531	keystroke	r	n/a
637.4155	0.09	1274831	keystroke	i	n/a
637.79	0.12	1275580	keystroke	z	n/a
638.09	0.06	1276180	keystroke	e	n/a
638.27	0.075	1276540	keystroke	d	n/a
638.36	0.09	1276720	keystroke	Key.space	n/a
639.05	0.06	1278100	keystroke	l	n/a
639.125	0.09	1278250	keystroke	e	n/a
639.335	0.12	1278670	keystroke	a	n/a
639.425	0.075	1278850	keystroke	d	n/a
639.68	0.105	1279360	keystroke	e	n/a
639.755	0.12	1279510	keystroke	r	n/a
639.89	0.09	1279780	keystroke	Key.space	n/a
640.775	0.045	1281550	keystroke	e	n/a
641.255	0.075	1282510	keystroke	d	n/a
641.57	0.06	1283140	keystroke	u	n/a
641.7345	0.06	1283469	keystroke	c	n/a
641.8695	0.075	1283739	keystroke	a	n/a
642.0795	0.075	1284159	keystroke	t	n/a
642.185	0.0895	1284370	keystroke	o	n/a
642.6195	0.0755	1285239	keystroke	r	n/a
642.815	0.075	1285630	keystroke	s	n/a
642.95	0.0895	1285900	keystroke	Key.space	n/a
643.8955	0.074	1287791	keystroke	c	n/a
643.9995	0.12	1287999	keystroke	o	n/a
644.0745	0.09	1288149	keystroke	m	n/a
644.2845	0.1355	1288569	keystroke	p	n/a
644.3745	0.0905	1288749	keystroke	o	n/a
644.615	0.06	1289230	keystroke	s	n/a
644.765	0.06	1289530	keystroke	e	n/a
644.945	0.075	1289890	keystroke	d	n/a
645.185	0.09	1290370	keystroke	Key.enter	n/a
645.2815	11.32	1290563	prompt	n/a	owen partnerships undertake obituaries\n
646.2345	0.06	1292469	keystroke	o	n/a
646.385	0.06	1292770	keystroke	w	n/a
646.58	0.075	1293160	keystroke	e	n/a
646.7	0.06	1293400	keystroke	n	n/a
646.91	0.06	1293820	keystroke	Key.space	n/a
647.6	0.06	1295200	keystroke	p	n/a
647.72	0.12	1295440	keystroke	a	n/a
647.81	0.09	1295620	keystroke	r	n/a
648.02	0.075	1296040	keystroke	t	n/a
648.26	0.06	1296520	keystroke	n	n/a
648.35	0.075	1296700	keystroke	e	n/a
648.545	0.075	1297090	keystroke	r	n/a
649.0255	0.059	1298051	keystroke	s	n/a
649.2205	0.104	1298441	keystroke	h	n/a
649.4445	0.075	1298889	keystroke	i	n/a
649.9695	0.015	1299939	keystroke	p	n/a
650.0595	0.091	1300119	keystroke	s	n/a
650.615	0.0745	1301230	keystroke	Key.space	n/a
651.3195	0.06	1302639	keystroke	u	n/a
651.5445	0.06	1303089	keystroke	n	n/a
651.7245	0.075	1303449	keystroke	d	n/a
651.9345	0.12	1303869	keystroke	e	n/a
652.0245	0.105	1304049	keystroke	r	n/a
652.2495	0.045	1304499	keystroke	t	n/a
652.3995	0.09	1304799	keystroke	a	n/a
652.5345	0.09	1305069	keystroke	k	n/a
652.6705	0.1045	1305341	keystroke	e	n/a
652.9405	0.06	1305881	keystroke	Key.space	n/a
653.795	0.075	1307590	keystroke	o	n/a
654.1545	0.046	1308309	keystroke	b	n/a
654.3355	0.09	1308671	keystroke	i	n/a
654.6195	0.075	1309239	keystroke	t	n/a
654.8155	0.074	1309631	keystroke	u	n/a
655.415	0.105	1310830	keystroke	a	n/a
655.64	0.06	1311280	keystroke	r	n/a
655.745	0.105	1311490	keystroke	i	n/a
655.955	0.06	1311910	keystroke	e	n/a
656.1355	0.075	1312271	keystroke	s	n/a
656.5395	0.06	1313079	keystroke	Key.enter	n/a
656.605	7.6165	1313210	prompt	n/a	disc directed surgeons announced\n
657.4555	0.06	1314911	keystroke	d	n/a
657.5895	0.091	1315179	keystroke	i	n/a
657.6955	0.074	1315391	keystroke	s	n/a
657.9055	0.089	1315811	keystroke	c	n/a
658.0395	0.075	1316079	keystroke	Key.space	n/a
658.715	0.075	1317430	keystroke	d	n/a
658.82	0.06	1317640	keystroke	i	n/a
658.955	0.06	1317910	keystroke	r	n/a
659.12	0.135	1318240	keystroke	e	n/a
659.225	0.09	1318450	keystroke	c	n/a
659.4645	0.1505	1318929	keystroke	t	n/a
659.5545	0.1055	1319109	keystroke	e	n/a
659.78	0.075	1319560	keystroke	d	n/a
659.87	0.075	1319740	keystroke	Key.space	n/a
660.335	0.075	1320670	keystroke	s	n/a
660.575	0.06	1321150	keystroke	u	n/a
660.74	0.045	1321480	keystroke	r	n/a
660.9795	0.06	1321959	keystroke	g	n/a
661.1595	0.075	1322319	keystroke	e	n/a
661.3095	0.105	1322619	keystroke	o	n/a
661.5345	0.075	1323069	keystroke	n	n/a
661.6545	0.09	1323309	keystroke	s	n/a
661.7895	0.06	1323579	keystroke	Key.space	n/a
662.345	0.075	1324690	keystroke	a	n/a
662.855	0.045	1325710	keystroke	n	n/a
662.96	0.075	1325920	keystroke	n	n/a
663.155	0.1045	1326310	keystroke	o	n/a
663.215	0.1045	1326430	keystroke	u	n/a
663.4395	0.06	1326879	keystroke	n	n/a
663.5745	0.12	1327149	keystroke	c	n/a
663.6495	0.09	1327299	keystroke	e	n/a
663.8595	0.09	1327719	keystroke	d	n/a
664.0995	0.12	1328199	keystroke	Key.enter	n/a
664.2245	10.6025	1328449	prompt	n/a	thereof engagement ordinance prison\n
665.36	0.12	1330720	keystroke	t	n/a
665.495	0.045	1330990	keystroke	h	n/a
665.615	0.075	1331230	keystroke	e	n/a
665.795	0.09	1331590	keystroke	r	n/a
666.0045	0.075	1332009	keystroke	e	n/a
666.3495	0.075	1332699	keystroke	o	n/a
666.7105	0.074	1333421	keystroke	f	n/a
666.8595	0.075	1333719	keystroke	Key.space	n/a
667.5945	0.075	1335189	keystroke	e	n/a
667.9245	0.045	1335849	keystroke	n	n/a
668.1495	0.06	1336299	keystroke	g	n/a
668.3295	0.075	1336659	keystroke	a	n/a
668.5245	0.09	1337049	keystroke	g	n/a
668.69	0.09	1337380	keystroke	e	n/a
668.855	0.075	1337710	keystroke	m	n/a
669.065	0.09	1338130	keystroke	e	n/a
669.2	0.075	1338400	keystroke	n	n/a
669.335	0.075	1338670	keystroke	t	n/a
669.44	0.06	1338880	keystroke	Key.space	n/a
670.37	0.075	1340740	keystroke	o	n/a
670.52	0.09	1341040	keystroke	r	n/a
670.985	0.075	1341970	keystroke	d	n/a
671.135	0.06	1342270	keystroke	i	n/a
671.33	0.045	1342660	keystroke	n	n/a
671.87	0.06	1343740	keystroke	a	n/a
672.065	0.075	1344130	keystroke	n	n/a
672.215	0.165	1344430	keystroke	c	n/a
672.335	0.09	1344670	keystroke	e	n/a
672.47	0.06	1344940	keystroke	Key.space	n/a
673.625	0.075	1347250	keystroke	p	n/a
673.82	0.06	1347640	keystroke	r	n/a
673.91	0.09	1347820	keystroke	i	n/a
674.12	0.0755	1348240	keystroke	s	n/a
674.2105	0.105	1348421	keystroke	o	n/a
674.39	0.06	1348780	keystroke	n	n/a
674.735	0.09	1349470	keystroke	Key.enter	n/a
674.83	8.7115	1349660	prompt	n/a	visa species talent scientist\n
675.86	0.06	1351720	keystroke	v	n/a
676.025	0.075	1352050	keystroke	i	n/a
676.61	0.06	1353220	keystroke	s	n/a
676.715	0.06	1353430	keystroke	o	n/a
677.12	0.12	1354240	keystroke	Key.backspace	n/a
677.27	0.09	1354540	keystroke	a	n/a
677.525	0.075	1355050	keystroke	Key.space	n/a
678.2	0.075	1356400	keystroke	s	n/a
678.32	0.075	1356640	keystroke	p	n/a
678.455	0.06	1356910	keystroke	e	n/a
678.59	0.075	1357180	keystroke	c	n/a
678.71	0.075	1357420	keystroke	i	n/a
678.845	0.075	1357690	keystroke	e	n/a
679.055	0.075	1358110	keystroke	s	n/a
679.16	0.075	1358320	keystroke	Key.space	n/a
679.9845	0.061	1359969	keystroke	t	n/a
680.1495	0.075	1360299	keystroke	a	n/a
680.2555	0.089	1360511	keystroke	l	n/a
680.4645	0.06	1360929	keystroke	e	n/a
680.5695	0.075	1361139	keystroke	n	n/a
680.6895	0.075	1361379	keystroke	t	n/a
680.7945	0.075	1361589	keystroke	Key.space	n/a
681.635	0.075	1363270	keystroke	s	n/a
681.8	0.075	1363600	keystroke	c	n/a
681.95	0.09	1363900	keystroke	i	n/a
682.085	0.06	1364170	keystroke	e	n/a
682.205	0.075	1364410	keystroke	n	n/a
682.325	0.06	1364650	keystroke	t	n/a
682.505	0.09	1365010	keystroke	i	n/a
682.64	0.09	1365280	keystroke	s	n/a
682.88	0.06	1365760	keystroke	t	n/a
683.4645	0.075	1366929	keystroke	Key.enter	n/a
683.5445	7.497	1367089	prompt	n/a	prizes whole garcia reading\n
684.545	0.075	1369090	keystroke	p	n/a
684.6795	0.06	1369359	keystroke	r	n/a
684.8145	0.09	1369629	keystroke	i	n/a
685.1595	0.045	1370319	keystroke	z	n/a
685.385	0.06	1370770	keystroke	e	n/a
685.58	0.06	1371160	keystroke	s	n/a
685.67	0.075	1371340	keystroke	Key.space	n/a
686.27	0.075	1372540	keystroke	w	n/a
686.465	0.12	1372930	keystroke	h	n/a
686.555	0.1045	1373110	keystroke	o	n/a
686.8095	0.075	1373619	keystroke	l	n/a
686.9295	0.076	1373859	keystroke	e	n/a
687.0495	0.06	1374099	keystroke	Key.space	n/a
687.7095	0.015	1375419	keystroke	g	n/a
687.8295	0.105	1375659	keystroke	a	n/a
687.9205	0.1195	1375841	keystroke	r	n/a
688.19	0.075	1376380	keystroke	c	n/a
689.1795	0.0755	1378359	keystroke	i	n/a
689.3	0.075	1378600	keystroke	a	n/a
689.435	0.06	1378870	keystroke	Key.space	n/a
689.9445	0.135	1379889	keystroke	r	n/a
690.0645	0.075	1380129	keystroke	e	n/a
690.2295	0.12	1380459	keystroke	a	n/a
690.3205	0.089	1380641	keystroke	d	n/a
690.4845	0.151	1380969	keystroke	i	n/a
690.5745	0.106	1381149	keystroke	n	n/a
690.6945	0.0905	1381389	keystroke	g	n/a
690.9645	0.075	1381929	keystroke	Key.enter	n/a
691.0445	9.447	1382089	prompt	n/a	biodiversity assign seniors annie\n
692.1945	0.06	1384389	keystroke	b	n/a
692.4495	0.06	1384899	keystroke	i	n/a
692.6595	0.06	1385319	keystroke	o	n/a
693.335	0.0755	1386670	keystroke	d	n/a
693.62	0.045	1387240	keystroke	i	n/a
693.83	0.075	1387660	keystroke	v	n/a
694.0395	0.075	1388079	keystroke	e	n/a
694.2195	0.06	1388439	keystroke	r	n/a
694.3845	0.075	1388769	keystroke	s	n/a
694.6245	0.075	1389249	keystroke	i	n/a
694.7145	0.075	1389429	keystroke	t	n/a
694.91	0.075	1389820	keystroke	y	n/a
695.015	0.06	1390030	keystroke	Key.space	n/a
695.72	0.09	1391440	keystroke	a	n/a
695.945	0.06	1391890	keystroke	s	n/a
696.05	0.09	1392100	keystroke	s	n/a
696.185	0.09	1392370	keystroke	i	n/a
696.32	0.105	1392640	keystroke	g	n/a
696.44	0.06	1392880	keystroke	n	n/a
696.635	0.06	1393270	keystroke	Key.space	n/a
697.22	0.06	1394440	keystroke	s	n/a
697.4	0.09	1394800	keystroke	e	n/a
697.73	0.075	1395460	keystroke	n	n/a
697.925	0.09	1395850	keystroke	i	n/a
698.15	0.075	1396300	keystroke	o	n/a
698.36	0.06	1396720	keystroke	r	n/a
698.525	0.105	1397050	keystroke	s	n/a
698.66	0.06	1397320	keystroke	Key.space	n/a
699.2145	0.106	1398429	keystroke	a	n/a
699.6205	0.06	1399241	keystroke	n	n/a
699.7545	0.106	1399509	keystroke	n	n/a
699.9195	0.106	1399839	keystroke	i	n/a
700.1145	0.091	1400229	keystroke	e	n/a
700.3995	0.09	1400799	keystroke	Key.enter	n/a
700.495	7.7515	1400990	prompt	n/a	upgrading works code alfred\n
701.54	0.075	1403080	keystroke	u	n/a
701.705	0.09	1403410	keystroke	p	n/a
702.065	0.06	1404130	keystroke	g	n/a
702.245	0.06	1404490	keystroke	r	n/a
702.44	0.075	1404880	keystroke	a	n/a
702.635	0.09	1405270	keystroke	d	n/a
702.83	0.18	1405660	keystroke	i	n/a
702.95	0.12	1405900	keystroke	n	n/a
703.115	0.075	1406230	keystroke	g	n/a
703.22	0.075	1406440	keystroke	Key.space	n/a
703.805	0.075	1407610	keystroke	w	n/a
703.91	0.0745	1407820	keystroke	o	n/a
704.045	0.075	1408090	keystroke	r	n/a
704.165	0.1045	1408330	keystroke	k	n/a
704.405	0.0745	1408810	keystroke	s	n/a
704.4945	0.0605	1408989	keystroke	Key.space	n/a
705.17	0.0295	1410340	keystroke	c	n/a
705.2445	0.09	1410489	keystroke	o	n/a
705.4845	0.06	1410969	keystroke	d	n/a
705.6495	0.0755	1411299	keystroke	e	n/a
705.815	0.06	1411630	keystroke	Key.space	n/a
706.115	0.135	1412230	keystroke	a	n/a
706.76	0.0905	1413520	keystroke	l	n/a
707.465	0.06	1414930	keystroke	f	n/a
707.6445	0.1205	1415289	keystroke	r	n/a
707.78	0.075	1415560	keystroke	e	n/a
707.9595	0.0905	1415919	keystroke	d	n/a
708.1395	0.1055	1416279	keystroke	Key.enter	n/a
708.2495	13.002	1416499	prompt	n/a	input specifies mechanisms acquired\n
709.1895	0.106	1418379	keystroke	i	n/a
709.2655	0.075	1418531	keystroke	n	n/a
709.6555	0.12	1419311	keystroke	u	n/a
710.1655	0.089	1420331	keystroke	Key.backspace	n/a
710.4805	0.149	1420961	keystroke	p	n/a
