onset	duration	sample	value	key	prompt_text
3.2355	31.247	6471	prompt	n/a	the quick brown fox jumps over a lazy dog\n
10.957	0.001	21914	keystroke_t	t	n/a
11.015	0.09	22030	keystroke_h	h	n/a
11.21	0.075	22420	keystroke_e	e	n/a
11.33	0.1045	22660	keystroke_Key.space	Key.space	n/a
11.75	0.105	23500	keystroke_q	q	n/a
12.7555	0.075	25511	keystroke_u	u	n/a
13.1155	0.06	26231	keystroke_c	c	n/a
13.2655	0.06	26531	keystroke_i	i	n/a
15.2905	0.06	30581	keystroke_Key.backspace	Key.backspace	n/a
15.846	0.06	31692	keystroke_Key.backspace	Key.backspace	n/a
17.031	0.06	34062	keystroke_i	i	n/a
17.256	0.075	34512	keystroke_c	c	n/a
17.391	0.075	34782	keystroke_k	k	n/a
17.631	0.09	35262	keystroke_Key.space	Key.space	n/a
18.156	0.151	36312	keystroke_b	b	n/a
18.546	0.105	37092	keystroke_r	r	n/a
19.177	0.0745	38354	keystroke_o	o	n/a
19.372	0.075	38744	keystroke_w	w	n/a
19.582	0.06	39164	keystroke_n	n	n/a
20.032	0.089	40064	keystroke_Key.space	Key.space	n/a
20.5865	0.076	41173	keystroke_g	g	n/a
20.7665	0.09	41533	keystroke_o	o	n/a
21.1565	0.105	42313	keystroke_x	x	n/a
21.3365	0.0755	42673	keystroke_Key.space	Key.space	n/a
21.802	0.015	43604	keystroke_j	j	n/a
23.167	0.105	46334	keystroke_Key.backspace	Key.backspace	n/a
23.738	0.09	47476	keystroke_Key.backspace	Key.backspace	n/a
24.323	0.105	48646	keystroke_Key.backspace	Key.backspace	n/a
24.863	0.135	49726	keystroke_Key.backspace	Key.backspace	n/a
25.3875	0.075	50775	keystroke_Key.backspace	Key.backspace	n/a
26.123	0.0595	52246	keystroke_f	f	n/a
26.303	0.09	52606	keystroke_o	o	n/a
26.588	0.105	53176	keystroke_x	x	n/a
26.783	0.09	53566	keystroke_Key.space	Key.space	n/a
27.578	0.075	55156	keystroke_j	j	n/a
27.788	0.06	55576	keystroke_u	u	n/a
28.0135	0.09	56027	keystroke_m	m	n/a
28.2535	0.105	56507	keystroke_p	p	n/a
28.5535	0.09	57107	keystroke_s	s	n/a
28.7335	0.09	57467	keystroke_Key.space	Key.space	n/a
29.214	0.09	58428	keystroke_o	o	n/a
29.588	0.09	59176	keystroke_v	v	n/a
29.8435	0.105	59687	keystroke_e	e	n/a
30.0695	0.074	60139	keystroke_r	r	n/a
30.2795	0.089	60559	keystroke_Key.space	Key.space	n/a
30.4885	0.12	60977	keystroke_a	a	n/a
30.8785	0.1655	61757	keystroke_Key.space	Key.space	n/a
31.149	0.09	62298	keystroke_l	l	n/a
31.389	0.105	62778	keystroke_a	a	n/a
32.29	0.045	64580	keystroke_z	z	n/a
32.409	0.075	64818	keystroke_y	y	n/a
32.574	0.15	65148	keystroke_Key.space	Key.space	n/a
33.129	0.0905	66258	keystroke_d	d	n/a
33.2945	0.105	66589	keystroke_o	o	n/a
33.5795	0.09	67159	keystroke_g	g	n/a
34.39	0.09	68780	keystroke_Key.enter	Key.enter	n/a
34.4865	22.5155	68973	prompt	n/a	visit disaster courses fioricet\n
35.8305	0.075	71661	keystroke_v	v	n/a
36.086	0.045	72172	keystroke_i	i	n/a
36.5205	0.075	73041	keystroke_s	s	n/a
37.0755	0.045	74151	keystroke_i	i	n/a
38.396	0.09	76792	keystroke_t	t	n/a
38.591	0.105	77182	keystroke_Key.space	Key.space	n/a
39.0715	0.06	78143	keystroke_d	d	n/a
39.251	0.06	78502	keystroke_i	i	n/a
39.776	0.105	79552	keystroke_s	s	n/a
40.226	0.12	80452	keystroke_a	a	n/a
41.0665	0.1055	82133	keystroke_s	s	n/a
41.8165	0.015	83633	keystroke_t	t	n/a
42.747	0.12	85494	keystroke_e	e	n/a
43.032	0.075	86064	keystroke_r	r	n/a
43.362	0.09	86724	keystroke_Key.space	Key.space	n/a
43.9475	0.12	87895	keystroke_c	c	n/a
44.1875	0.09	88375	keystroke_o	o	n/a
44.7275	0.06	89455	keystroke_u	u	n/a
45.013	0.105	90026	keystroke_r	r	n/a
45.433	0.12	90866	keystroke_s	s	n/a
46.123	0.09	92246	keystroke_e	e	n/a
46.453	0.105	92906	keystroke_s	s	n/a
46.753	0.12	93506	keystroke_Key.space	Key.space	n/a
47.668	0.0905	95336	keystroke_f	f	n/a
48.659	0.059	97318	keystroke_i	i	n/a
49.259	0.09	98518	keystroke_o	o	n/a
50.489	0.06	100978	keystroke_r	r	n/a
52.0495	0.0445	104099	keystroke_i	i	n/a
52.2595	0.1045	104519	keystroke_c	c	n/a
52.575	0.104	105150	keystroke_e	e	n/a
52.934	0.075	105868	keystroke_t	t	n/a
56.6275	0.373	113255	keystroke_Key.enter	Key.enter	n/a
57.0055	20.621	114011	prompt	n/a	significantly wright commissioner quoted\n
58.261	0.105	116522	keystroke_s	s	n/a
58.951	0.075	117902	keystroke_g	g	n/a
60.151	0.06	120302	keystroke_Key.backspace	Key.backspace	n/a
60.7655	0.06	121531	keystroke_i	i	n/a
60.9755	0.075	121951	keystroke_g	g	n/a
61.4255	0.09	122851	keystroke_n	n	n/a
61.6505	0.06	123301	keystroke_i	i	n/a
61.8755	0.0745	123751	keystroke_g	g	n/a
62.67	0.06	125340	keystroke_i	i	n/a
62.955	0.09	125910	keystroke_c	c	n/a
63.3005	0.135	126601	keystroke_a	a	n/a
63.9305	0.075	127861	keystroke_n	n	n/a
64.4105	0.075	128821	keystroke_t	t	n/a
64.6205	0.075	129241	keystroke_l	l	n/a
64.9505	0.09	129901	keystroke_y	y	n/a
65.19	0.105	130380	keystroke_Key.space	Key.space	n/a
67.0205	0.105	134041	keystroke_w	w	n/a
67.35	0.105	134700	keystroke_r	r	n/a
67.62	0.075	135240	keystroke_i	i	n/a
67.86	0.09	135720	keystroke_g	g	n/a
68.0555	0.0745	136111	keystroke_h	h	n/a
68.311	0.074	136622	keystroke_t	t	n/a
68.9105	0.1195	137821	keystroke_Key.space	Key.space	n/a
69.3895	0.12	138779	keystroke_c	c	n/a
69.5395	0.106	139079	keystroke_o	o	n/a
69.7945	0.09	139589	keystroke_m	m	n/a
69.9445	0.12	139889	keystroke_m	m	n/a
70.6945	0.06	141389	keystroke_i	i	n/a
70.9645	0.105	141929	keystroke_s	s	n/a
71.4445	0.075	142889	keystroke_s	s	n/a
71.6995	0.135	143399	keystroke_i	i	n/a
71.9395	0.12	143879	keystroke_o	o	n/a
72.3295	0.105	144659	keystroke_n	n	n/a
72.659	0.1205	145318	keystroke_e	e	n/a
72.9445	0.105	145889	keystroke_r	r	n/a
73.2745	0.1195	146549	keystroke_Key.space	Key.space	n/a
74.069	0.1355	148138	keystroke_q	q	n/a
74.4745	0.075	148949	keystroke_u	u	n/a
74.984	0.06	149968	keystroke_o	o	n/a
75.2395	0.09	150479	keystroke_t	t	n/a
75.57	0.105	151140	keystroke_e	e	n/a
76.0045	0.105	152009	keystroke_d	d	n/a
77.5495	0.0745	155099	keystroke_Key.enter	Key.enter	n/a
77.63	12.6105	155260	prompt	n/a	up donation lives playstation\n
78.4645	0.104	156929	keystroke_u	u	n/a
78.7195	0.134	157439	keystroke_p	p	n/a
78.9435	0.12	157887	keystroke_Key.space	Key.space	n/a
79.634	0.09	159268	keystroke_d	d	n/a
79.844	0.09	159688	keystroke_o	o	n/a
80.084	0.09	160168	keystroke_n	n	n/a
80.384	0.135	160768	keystroke_a	a	n/a
80.819	0.1055	161638	keystroke_t	t	n/a
81.179	0.09	162358	keystroke_i	i	n/a
81.389	0.105	162778	keystroke_o	o	n/a
81.659	0.09	163318	keystroke_n	n	n/a
82.0185	0.105	164037	keystroke_Key.space	Key.space	n/a
82.6345	0.15	165269	keystroke_l	l	n/a
82.844	0.075	165688	keystroke_i	i	n/a
83.1895	0.135	166379	keystroke_v	v	n/a
83.6395	0.105	167279	keystroke_e	e	n/a
83.9095	0.105	167819	keystroke_s	s	n/a
84.1345	0.104	168269	keystroke_Key.space	Key.space	n/a
84.6745	0.12	169349	keystroke_p	p	n/a
84.8995	0.15	169799	keystroke_l	l	n/a
85.229	0.105	170458	keystroke_a	a	n/a
85.9785	0.075	171957	keystroke_y	y	n/a
86.2945	0.09	172589	keystroke_s	s	n/a
86.819	0.015	173638	keystroke_t	t	n/a
87.899	0.1345	175798	keystroke_a	a	n/a
88.5735	0.09	177147	keystroke_t	t	n/a
88.7685	0.1055	177537	keystroke_i	i	n/a
88.934	0.105	177868	keystroke_o	o	n/a
89.189	0.105	178378	keystroke_n	n	n/a
90.149	0.09	180298	keystroke_Key.enter	Key.enter	n/a
90.2455	22.4935	180491	prompt	n/a	informative investigated jobs terms\n
91.034	0.09	182068	keystroke_i	i	n/a
91.289	0.09	182578	keystroke_n	n	n/a
91.6335	0.075	183267	keystroke_f	f	n/a
91.9635	0.105	183927	keystroke_o	o	n/a
92.2935	0.09	184587	keystroke_r	r	n/a
92.4885	0.06	184977	keystroke_m	m	n/a
92.7435	0.12	185487	keystroke_a	a	n/a
93.7035	0.12	187407	keystroke_t	t	n/a
94.1235	0.06	188247	keystroke_i	i	n/a
94.4085	0.105	188817	keystroke_c	c	n/a
94.799	0.105	189598	keystroke_e	e	n/a
95.818	0.105	191636	keystroke_Key.backspace	Key.backspace	n/a
96.568	0.06	193136	keystroke_Key.backspace	Key.backspace	n/a
97.4525	0.09	194905	keystroke_v	v	n/a
97.7975	0.075	195595	keystroke_e	e	n/a
98.1725	0.075	196345	keystroke_Key.space	Key.space	n/a
98.7575	0.09	197515	keystroke_i	i	n/a
98.9825	0.075	197965	keystroke_n	n	n/a
99.283	0.0755	198566	keystroke_s	s	n/a
100.378	0.075	200756	keystroke_Key.backspace	Key.backspace	n/a
101.1875	0.075	202375	keystroke_v	v	n/a
101.4125	0.075	202825	keystroke_e	e	n/a
101.6825	0.105	203365	keystroke_s	s	n/a
102.0275	0.105	204055	keystroke_t	t	n/a
103.6475	0.06	207295	keystroke_i	i	n/a
106.425	0.013	212850	keystroke_g	g	n/a
106.6925	0.105	213385	keystroke_a	a	n/a
107.1275	0.105	214255	keystroke_t	t	n/a
107.4125	0.06	214825	keystroke_e	e	n/a
108.0125	0.12	216025	keystroke_d	d	n/a
108.2825	0.135	216565	keystroke_Key.space	Key.space	n/a
108.5525	0.12	217105	keystroke_j	j	n/a
108.8225	0.105	217645	keystroke_o	o	n/a
109.242	0.09	218484	keystroke_b	b	n/a
109.587	0.106	219174	keystroke_s	s	n/a
109.812	0.105	219624	keystroke_Key.space	Key.space	n/a
110.5175	0.105	221035	keystroke_t	t	n/a
110.8025	0.12	221605	keystroke_e	e	n/a
111.2675	0.09	222535	keystroke_r	r	n/a
111.6425	0.1345	223285	keystroke_m	m	n/a
112.167	0.0905	224334	keystroke_s	s	n/a
112.662	0.0755	225324	keystroke_Key.enter	Key.enter	n/a
112.742	13.1665	225484	prompt	n/a	muscles scoop answers threats\n
113.4875	0.1055	226975	keystroke_m	m	n/a
113.863	0.09	227726	keystroke_u	u	n/a
114.163	0.105	228326	keystroke_s	s	n/a
114.597	0.076	229194	keystroke_c	c	n/a
115.933	0.075	231866	keystroke_l	l	n/a
116.127	0.061	232254	keystroke_e	e	n/a
116.413	0.105	232826	keystroke_s	s	n/a
116.592	0.105	233184	keystroke_Key.space	Key.space	n/a
116.997	0.105	233994	keystroke_s	s	n/a
117.327	0.105	234654	keystroke_c	c	n/a
117.657	0.06	235314	keystroke_o	o	n/a
117.987	0.105	235974	keystroke_o	o	n/a
118.242	0.105	236484	keystroke_p	p	n/a
118.782	0.075	237564	keystroke_Key.space	Key.space	n/a
119.217	0.105	238434	keystroke_a	a	n/a
119.427	0.075	238854	keystroke_n	n	n/a
120.222	0.105	240444	keystroke_s	s	n/a
120.6715	0.105	241343	keystroke_e	e	n/a
121.5565	0.03	243113	keystroke_Key.backspace	Key.backspace	n/a
121.7665	0.12	243533	keystroke_w	w	n/a
122.0365	0.105	244073	keystroke_e	e	n/a
122.3665	0.105	244733	keystroke_r	r	n/a
122.8465	0.09	245693	keystroke_s	s	n/a
123.192	0.0895	246384	keystroke_Key.space	Key.space	n/a
123.5665	0.105	247133	keystroke_t	t	n/a
123.7465	0.075	247493	keystroke_h	h	n/a
123.9415	0.105	247883	keystroke_r	r	n/a
124.1965	0.09	248393	keystroke_e	e	n/a
124.4365	0.12	248873	keystroke_a	a	n/a
124.811	0.09	249622	keystroke_t	t	n/a
125.426	0.09	250852	keystroke_s	s	n/a
125.801	0.105	251602	keystroke_Key.enter	Key.enter	n/a
125.9125	19.2845	251825	prompt	n/a	complicated kate accepted macro\n
126.731	0.09	253462	keystroke_c	c	n/a
126.911	0.09	253822	keystroke_o	o	n/a
127.1365	0.105	254273	keystroke_m	m	n/a
127.526	0.12	255052	keystroke_p	p	n/a
128.396	0.09	256792	keystroke_l	l	n/a
128.831	0.075	257662	keystroke_i	i	n/a
129.0855	0.1205	258171	keystroke_c	c	n/a
129.356	0.135	258712	keystroke_a	a	n/a
129.761	0.075	259522	keystroke_t	t	n/a
130.0915	0.09	260183	keystroke_e	e	n/a
130.3465	0.135	260693	keystroke_d	d	n/a
130.6165	0.105	261233	keystroke_Key.space	Key.space	n/a
131.0965	0.075	262193	keystroke_k	k	n/a
131.3665	0.1045	262733	keystroke_a	a	n/a
131.681	0.105	263362	keystroke_t	t	n/a
131.9505	0.12	263901	keystroke_e	e	n/a
132.1605	0.1055	264321	keystroke_Key.space	Key.space	n/a
132.626	0.1345	265252	keystroke_a	a	n/a
133.1365	0.06	266273	keystroke_c	c	n/a
133.3915	0.1345	266783	keystroke_c	c	n/a
134.066	0.075	268132	keystroke_e	e	n/a
134.2755	0.105	268551	keystroke_p	p	n/a
134.5755	0.106	269151	keystroke_t	t	n/a
134.936	0.0905	269872	keystroke_e	e	n/a
135.2205	0.09	270441	keystroke_d	d	n/a
135.4455	0.105	270891	keystroke_Key.space	Key.space	n/a
135.821	0.0895	271642	keystroke_m	m	n/a
136.3455	0.135	272691	keystroke_a	a	n/a
136.7805	0.1045	273561	keystroke_r	r	n/a
137.7105	0.12	275421	keystroke_c	c	n/a
138.3705	0.09	276741	keystroke_r	r	n/a
138.9405	0.0745	277881	keystroke_o	o	n/a
145.1235	0.072	290247	keystroke_Key.enter	Key.enter	n/a
145.2025	14.709	290405	prompt	n/a	columbia pixels startup talk\n
146.155	0.105	292310	keystroke_c	c	n/a
146.29	0.12	292580	keystroke_o	o	n/a
146.5155	0.135	293031	keystroke_m	m	n/a
147.5355	0.09	295071	keystroke_Key.backspace	Key.backspace	n/a
148.1655	0.105	296331	keystroke_l	l	n/a
148.5555	0.09	297111	keystroke_u	u	n/a
148.8705	0.075	297741	keystroke_m	m	n/a
150.3705	0.074	300741	keystroke_b	b	n/a
150.5655	0.075	301131	keystroke_i	i	n/a
150.8505	0.105	301701	keystroke_a	a	n/a
151.375	0.09	302750	keystroke_Key.space	Key.space	n/a
152.1855	0.03	304371	keystroke_p	p	n/a
152.4405	0.089	304881	keystroke_i	i	n/a
153.0105	0.1045	306021	keystroke_x	x	n/a
153.31	0.075	306620	keystroke_e	e	n/a
154.225	0.06	308450	keystroke_l	l	n/a
154.435	0.09	308870	keystroke_s	s	n/a
154.5855	0.12	309171	keystroke_Key.space	Key.space	n/a
154.8555	0.12	309711	keystroke_s	s	n/a
155.1555	0.09	310311	keystroke_t	t	n/a
155.485	0.12	310970	keystroke_a	a	n/a
155.7855	0.105	311571	keystroke_r	r	n/a
156.07	0.075	312140	keystroke_t	t	n/a
157.195	0.075	314390	keystroke_u	u	n/a
157.69	0.045	315380	keystroke_p	p	n/a
158.3055	0.015	316611	keystroke_Key.space	Key.space	n/a
158.8745	0.015	317749	keystroke_t	t	n/a
158.9045	0.12	317809	keystroke_a	a	n/a
159.0845	0.09	318169	keystroke_l	l	n/a
159.3545	0.09	318709	keystroke_k	k	n/a
159.8195	0.0905	319639	keystroke_Key.enter	Key.enter	n/a
159.915	16.556	319830	prompt	n/a	county fork illinois samuel\n
160.63	0.0895	321260	keystroke_c	c	n/a
160.7795	0.09	321559	keystroke_o	o	n/a
161.02	0.075	322040	keystroke_u	u	n/a
161.6345	0.105	323269	keystroke_n	n	n/a
162.189	0.09	324378	keystroke_t	t	n/a
162.3245	0.075	324649	keystroke_y	y	n/a
162.639	0.09	325278	keystroke_Key.space	Key.space	n/a
163.105	0.09	326210	keystroke_f	f	n/a
163.255	0.09	326510	keystroke_o	o	n/a
163.495	0.0895	326990	keystroke_r	r	n/a
164.3495	0.09	328699	keystroke_k	k	n/a
164.8895	0.09	329779	keystroke_Key.space	Key.space	n/a
165.3695	0.075	330739	keystroke_i	i	n/a
165.8645	0.075	331729	keystroke_l	l	n/a
166.0445	0.105	332089	keystroke_l	l	n/a
166.3595	0.12	332719	keystroke_i	i	n/a
167.2145	0.09	334429	keystroke_n	n	n/a
168.2495	0.105	336499	keystroke_o	o	n/a
168.729	0.0605	337458	keystroke_i	i	n/a
168.984	0.09	337968	keystroke_s	s	n/a
169.465	0.074	338930	keystroke_Key.space	Key.space	n/a
169.8695	0.105	339739	keystroke_s	s	n/a
170.3495	0.06	340699	keystroke_m	m	n/a
171.2795	0.075	342559	keystroke_u	u	n/a
171.6545	0.09	343309	keystroke_e	e	n/a
172.929	0.15	345858	keystroke_Key.backspace	Key.backspace	n/a
173.4695	0.135	346939	keystroke_Key.backspace	Key.backspace	n/a
174.0545	0.105	348109	keystroke_Key.backspace	Key.backspace	n/a
174.639	0.105	349278	keystroke_a	a	n/a
174.8645	0.09	349729	keystroke_m	m	n/a
175.3135	0.106	350627	keystroke_u	u	n/a
175.7195	0.0895	351439	keystroke_e	e	n/a
175.8845	0.104	351769	keystroke_l	l	n/a
176.3635	0.1055	352727	keystroke_Key.enter	Key.enter	n/a
176.475	13.315	352950	prompt	n/a	closure containers roof derby\n
177.4445	0.09	354889	keystroke_c	c	n/a
177.5645	0.0895	355129	keystroke_l	l	n/a
177.8195	0.0595	355639	keystroke_o	o	n/a
178.179	0.09	356358	keystroke_s	s	n/a
178.63	0.074	357260	keystroke_u	u	n/a
178.8845	0.09	357769	keystroke_r	r	n/a
179.094	0.075	358188	keystroke_e	e	n/a
179.244	0.09	358488	keystroke_Key.space	Key.space	n/a
180.324	0.1045	360648	keystroke_c	c	n/a
180.5045	0.0745	361009	keystroke_o	o	n/a
180.7445	0.0895	361489	keystroke_n	n	n/a
181.164	0.075	362328	keystroke_t	t	n/a
181.494	0.09	362988	keystroke_a	a	n/a
181.899	0.0145	363798	keystroke_i	i	n/a
182.0785	0.0755	364157	keystroke_n	n	n/a
182.394	0.105	364788	keystroke_e	e	n/a
182.6785	0.1055	365357	keystroke_r	r	n/a
183.3995	0.09	366799	keystroke_s	s	n/a
183.6545	0.18	367309	keystroke_Key.space	Key.space	n/a
184.0145	0.09	368029	keystroke_r	r	n/a
184.1945	0.06	368389	keystroke_o	o	n/a
184.3445	0.075	368689	keystroke_o	o	n/a
184.6895	0.09	369379	keystroke_f	f	n/a
185.4095	0.105	370819	keystroke_Key.space	Key.space	n/a
185.9495	0.105	371899	keystroke_d	d	n/a
186.2495	0.105	372499	keystroke_e	e	n/a
186.7145	0.045	373429	keystroke_r	r	n/a
187.344	0.0745	374688	keystroke_b	b	n/a
188.604	0.0895	377208	keystroke_y	y	n/a
189.6985	0.09	379397	keystroke_Key.enter	Key.enter	n/a
189.793	12.1915	379586	prompt	n/a	marine regulatory acids vids\n
190.509	0.105	381018	keystroke_m	m	n/a
190.704	0.105	381408	keystroke_a	a	n/a
191.004	0.09	382008	keystroke_r	r	n/a
191.754	0.12	383508	keystroke_i	i	n/a
191.934	0.06	383868	keystroke_n	n	n/a
192.144	0.0895	384288	keystroke_e	e	n/a
192.3535	0.09	384707	keystroke_Key.space	Key.space	n/a
193.4485	0.09	386897	keystroke_r	r	n/a
193.6585	0.0905	387317	keystroke_e	e	n/a
194.0035	0.09	388007	keystroke_g	g	n/a
194.243	0.09	388486	keystroke_u	u	n/a
194.723	0.06	389446	keystroke_l	l	n/a
194.918	0.12	389836	keystroke_a	a	n/a
195.458	0.105	390916	keystroke_t	t	n/a
195.848	0.075	391696	keystroke_o	o	n/a
196.2085	0.09	392417	keystroke_r	r	n/a
196.5085	0.06	393017	keystroke_y	y	n/a
196.8085	0.1195	393617	keystroke_Key.space	Key.space	n/a
197.4985	0.135	394997	keystroke_a	a	n/a
197.8285	0.15	395657	keystroke_c	c	n/a
198.158	0.06	396316	keystroke_i	i	n/a
198.5185	0.09	397037	keystroke_d	d	n/a
199.0135	0.1195	398027	keystroke_s	s	n/a
199.283	0.09	398566	keystroke_Key.space	Key.space	n/a
199.929	0.18	399858	keystroke_v	v	n/a
200.453	0.06	400906	keystroke_i	i	n/a
200.813	0.105	401626	keystroke_d	d	n/a
201.3375	0.09	402675	keystroke_s	s	n/a
201.8925	0.09	403785	keystroke_Key.enter	Key.enter	n/a
201.989	23.02	403978	prompt	n/a	compressed traditions notebook freebsd\n
202.9285	0.105	405857	keystroke_c	c	n/a
203.5435	0.075	407087	keystroke_o	o	n/a
203.7535	0.1195	407507	keystroke_m	m	n/a
204.143	0.09	408286	keystroke_p	p	n/a
204.5635	0.09	409127	keystroke_r	r	n/a
205.5075	0.105	411015	keystroke_e	e	n/a
205.8835	0.075	411767	keystroke_s	s	n/a
206.063	0.15	412126	keystroke_s	s	n/a
206.378	0.06	412756	keystroke_e	e	n/a
206.6485	0.105	413297	keystroke_d	d	n/a
207.038	0.1195	414076	keystroke_Key.space	Key.space	n/a
207.5335	0.104	415067	keystroke_t	t	n/a
207.8335	0.119	415667	keystroke_r	r	n/a
208.1635	0.119	416327	keystroke_a	a	n/a
208.673	0.12	417346	keystroke_d	d	n/a
209.423	0.105	418846	keystroke_i	i	n/a
209.753	0.075	419506	keystroke_t	t	n/a
209.8875	0.151	419775	keystroke_i	i	n/a
210.0835	0.1045	420167	keystroke_o	o	n/a
210.3375	0.136	420675	keystroke_n	n	n/a
210.9675	0.076	421935	keystroke_s	s	n/a
211.1625	0.105	422325	keystroke_Key.space	Key.space	n/a
211.5225	0.105	423045	keystroke_n	n	n/a
211.7025	0.105	423405	keystroke_o	o	n/a
212.0025	0.09	424005	keystroke_t	t	n/a
212.2875	0.1205	424575	keystroke_e	e	n/a
213.1285	0.15	426257	keystroke_b	b	n/a
213.4585	0.09	426917	keystroke_o	o	n/a
213.6685	0.045	427337	keystroke_o	o	n/a
214.0575	0.091	428115	keystroke_l	l	n/a
214.6575	0.09	429315	keystroke_Key.space	Key.space	n/a
215.0635	0.104	430127	keystroke_f	f	n/a
216.593	0.12	433186	keystroke_Key.backspace	Key.backspace	n/a
217.193	0.1195	434386	keystroke_Key.backspace	Key.backspace	n/a
217.8525	0.075	435705	keystroke_Key.backspace	Key.backspace	n/a
218.4975	0.09	436995	keystroke_k	k	n/a
218.708	0.105	437416	keystroke_Key.space	Key.space	n/a
219.878	0.105	439756	keystroke_f	f	n/a
220.163	0.105	440326	keystroke_r	r	n/a
220.418	0.105	440836	keystroke_e	e	n/a
220.598	0.135	441196	keystroke_e	e	n/a
221.5725	0.12	443145	keystroke_b	b	n/a
222.608	0.09	445216	keystroke_d	d	n/a
223.5075	0.09	447015	keystroke_Key.backspace	Key.backspace	n/a
224.0025	0.09	448005	keystroke_s	s	n/a
224.2125	0.105	448425	keystroke_d	d	n/a
224.9175	0.0895	449835	keystroke_Key.enter	Key.enter	n/a
225.0125	12.491	450025	prompt	n/a	delhi glossary apart depot\n
226.327	0.12	452654	keystroke_d	d	n/a
226.9125	0.105	453825	keystroke_e	e	n/a
227.587	0.135	455174	keystroke_l	l	n/a
227.992	0.135	455984	keystroke_h	h	n/a
228.337	0.09	456674	keystroke_i	i	n/a
228.592	0.105	457184	keystroke_Key.space	Key.space	n/a
229.447	0.075	458894	keystroke_g	g	n/a
229.672	0.075	459344	keystroke_l	l	n/a
230.2125	0.0745	460425	keystroke_o	o	n/a
230.602	0.06	461204	keystroke_s	s	n/a
230.7675	0.1045	461535	keystroke_s	s	n/a
231.053	0.134	462106	keystroke_a	a	n/a
231.382	0.075	462764	keystroke_r	r	n/a
231.548	0.074	463096	keystroke_y	y	n/a
231.727	0.15	463454	keystroke_Key.space	Key.space	n/a
232.462	0.105	464924	keystroke_a	a	n/a
232.672	0.09	465344	keystroke_p	p	n/a
232.852	0.12	465704	keystroke_p	p	n/a
233.662	0.075	467324	keystroke_Key.backspace	Key.backspace	n/a
233.918	0.119	467836	keystroke_a	a	n/a
234.262	0.091	468524	keystroke_r	r	n/a
234.577	0.09	469154	keystroke_t	t	n/a
235.207	0.09	470414	keystroke_Key.space	Key.space	n/a
235.672	0.105	471344	keystroke_d	d	n/a
235.972	0.075	471944	keystroke_e	e	n/a
236.242	0.09	472484	keystroke_p	p	n/a
236.437	0.105	472874	keystroke_o	o	n/a
236.797	0.075	473594	keystroke_t	t	n/a
237.412	0.09	474824	keystroke_Key.enter	Key.enter	n/a
237.5075	15.6415	475015	prompt	n/a	arguments naturals hospital coat\n
238.297	0.105	476594	keystroke_a	a	n/a
238.627	0.09	477254	keystroke_r	r	n/a
239.392	0.15	478784	keystroke_g	g	n/a
240.217	0.09	480434	keystroke_u	u	n/a
240.547	0.06	481094	keystroke_m	m	n/a
240.727	0.09	481454	keystroke_e	e	n/a
240.862	0.09	481724	keystroke_n	n	n/a
241.1015	0.091	482203	keystroke_t	t	n/a
241.597	0.0755	483194	keystroke_s	s	n/a
241.7765	0.0755	483553	keystroke_Key.space	Key.space	n/a
242.092	0.09	484184	keystroke_n	n	n/a
242.287	0.105	484574	keystroke_a	a	n/a
242.782	0.105	485564	keystroke_t	t	n/a
243.2025	0.075	486405	keystroke_u	u	n/a
243.4725	0.09	486945	keystroke_r	r	n/a
243.8025	0.104	487605	keystroke_a	a	n/a
243.9975	0.074	487995	keystroke_l	l	n/a
244.6425	0.105	489285	keystroke_s	s	n/a
244.8525	0.105	489705	keystroke_Key.space	Key.space	n/a
245.1675	0.09	490335	keystroke_h	h	n/a
245.4525	0.12	490905	keystroke_o	o	n/a
245.6925	0.105	491385	keystroke_s	s	n/a
246.907	0.075	493814	keystroke_p	p	n/a
247.132	0.1355	494264	keystroke_o	o	n/a
248.017	0.075	496034	keystroke_Key.backspace	Key.backspace	n/a
248.572	0.0595	497144	keystroke_i	i	n/a
248.797	0.09	497594	keystroke_t	t	n/a
249.8025	0.0895	499605	keystroke_a	a	n/a
249.922	0.12	499844	keystroke_l	l	n/a
250.192	0.0905	500384	keystroke_Key.space	Key.space	n/a
250.5075	0.105	501015	keystroke_c	c	n/a
250.6875	0.1045	501375	keystroke_o	o	n/a
251.227	0.135	502454	keystroke_a	a	n/a
251.782	0.06	503564	keystroke_t	t	n/a
253.1315	0.015	506263	keystroke_Key.enter	Key.enter	n/a
253.1515	12.2215	506303	prompt	n/a	germany been sydney char\n
254.242	0.105	508484	keystroke_g	g	n/a
254.572	0.105	509144	keystroke_e	e	n/a
254.902	0.09	509804	keystroke_r	r	n/a
255.217	0.06	510434	keystroke_m	m	n/a
255.412	0.105	510824	keystroke_a	a	n/a
255.562	0.06	511124	keystroke_n	n	n/a
255.817	0.09	511634	keystroke_y	y	n/a
255.997	0.135	511994	keystroke_Key.space	Key.space	n/a
256.342	0.12	512684	keystroke_b	b	n/a
256.612	0.09	513224	keystroke_e	e	n/a
259.5545	0.028	519109	keystroke_e	e	n/a
259.7475	0.075	519495	keystroke_n	n	n/a
259.9875	0.09	519975	keystroke_Key.space	Key.space	n/a
260.2575	0.12	520515	keystroke_s	s	n/a
261.0975	0.105	522195	keystroke_y	y	n/a
261.7875	0.09	523575	keystroke_d	d	n/a
262.282	0.075	524564	keystroke_n	n	n/a
262.672	0.0745	525344	keystroke_e	e	n/a
262.8215	0.075	525643	keystroke_y	y	n/a
263.4065	0.105	526813	keystroke_Key.space	Key.space	n/a
263.917	0.06	527834	keystroke_c	c	n/a
264.037	0.09	528074	keystroke_h	h	n/a
264.322	0.12	528644	keystroke_a	a	n/a
264.757	0.09	529514	keystroke_r	r	n/a
265.297	0.075	530594	keystroke_Key.enter	Key.enter	n/a
265.3845	15.213	530769	prompt	n/a	intervention filing lock fairy\n
266.122	0.075	532244	keystroke_i	i	n/a
266.347	0.075	532694	keystroke_n	n	n/a
266.917	0.09	533834	keystroke_t	t	n/a
267.322	0.06	534644	keystroke_e	e	n/a
267.547	0.105	535094	keystroke_r	r	n/a
268.716	0.15	537432	keystroke_b	b	n/a
269.5415	0.0905	539083	keystroke_Key.backspace	Key.backspace	n/a
269.962	0.09	539924	keystroke_v	v	n/a
270.966	0.105	541932	keystroke_e	e	n/a
271.206	0.0905	542412	keystroke_n	n	n/a
271.5365	0.09	543073	keystroke_t	t	n/a
271.7165	0.1055	543433	keystroke_i	i	n/a
271.912	0.09	543824	keystroke_o	o	n/a
272.287	0.09	544574	keystroke_n	n	n/a
272.557	0.09	545114	keystroke_Key.space	Key.space	n/a
272.9915	0.09	545983	keystroke_f	f	n/a
273.1415	0.105	546283	keystroke_i	i	n/a
273.577	0.135	547154	keystroke_l	l	n/a
273.997	0.09	547994	keystroke_i	i	n/a
274.237	0.105	548474	keystroke_n	n	n/a
274.492	0.0595	548984	keystroke_g	g	n/a
275.0315	0.1055	550063	keystroke_Key.space	Key.space	n/a
275.287	0.105	550574	keystroke_l	l	n/a
275.527	0.09	551054	keystroke_o	o	n/a
275.767	0.09	551534	keystroke_c	c	n/a
275.887	0.105	551774	keystroke_k	k	n/a
276.172	0.105	552344	keystroke_Key.space	Key.space	n/a
276.637	0.09	553274	keystroke_f	f	n/a
276.921	0.1505	553842	keystroke_a	a	n/a
278.2565	0.075	556513	keystroke_i	i	n/a
278.647	0.0745	557294	keystroke_r	r	n/a
278.7665	0.0605	557533	keystroke_y	y	n/a
280.5065	0.09	561013	keystroke_Key.enter	Key.enter	n/a
280.601	21.6965	561202	prompt	n/a	myanmar eden jack briefing\n
281.361	0.075	562722	keystroke_m	m	n/a
281.7205	0.075	563441	keystroke_y	y	n/a
282.2305	0.09	564461	keystroke_a	a	n/a
282.5755	0.06	565151	keystroke_n	n	n/a
283.2795	0.015	566559	keystroke_m	m	n/a
283.3845	0.12	566769	keystroke_a	a	n/a
283.7145	0.106	567429	keystroke_r	r	n/a
284.06	0.12	568120	keystroke_Key.space	Key.space	n/a
284.8095	0.09	569619	keystroke_e	e	n/a
285.08	0.105	570160	keystroke_d	d	n/a
285.425	0.105	570850	keystroke_e	e	n/a
285.769	0.105	571538	keystroke_n	n	n/a
285.979	0.105	571958	keystroke_Key.space	Key.space	n/a
287.209	0.105	574418	keystroke_j	j	n/a
287.329	0.015	574658	keystroke_a	a	n/a
287.494	0.09	574988	keystroke_c	c	n/a
287.599	0.075	575198	keystroke_k	k	n/a
287.779	0.09	575558	keystroke_Key.space	Key.space	n/a
288.7085	0.09	577417	keystroke_b	b	n/a
289.1125	0.09	578225	keystroke_r	r	n/a
290.2825	0.06	580565	keystroke_i	i	n/a
290.7025	0.06	581405	keystroke_e	e	n/a
290.9425	0.1045	581885	keystroke_d	d	n/a
291.8725	0.06	583745	keystroke_f	f	n/a
292.0225	0.075	584045	keystroke_i	i	n/a
292.233	0.09	584466	keystroke_n	n	n/a
292.457	0.075	584914	keystroke_g	g	n/a
295.879	0.012	591758	keystroke_Key.backspace	Key.backspace	n/a
296.327	0.0895	592654	keystroke_Key.backspace	Key.backspace	n/a
296.8965	0.09	593793	keystroke_Key.backspace	Key.backspace	n/a
297.5115	0.06	595023	keystroke_Key.backspace	Key.backspace	n/a
298.0365	0.0895	596073	keystroke_Key.backspace	Key.backspace	n/a
299.7155	0.09	599431	keystroke_f	f	n/a
300.0755	0.045	600151	keystroke_i	i	n/a
300.6455	0.06	601291	keystroke_n	n	n/a
301.471	0.1195	602942	keystroke_g	g	n/a
302.2205	0.0755	604441	keystroke_Key.enter	Key.enter	n/a
302.301	14.9665	604602	prompt	n/a	neon regard trust ideas\n
303.151	0.0895	606302	keystroke_m	m	n/a
303.3905	0.09	606781	keystroke_e	e	n/a
304.366	0.075	608732	keystroke_Key.backspace	Key.backspace	n/a
304.501	0.0445	609002	keystroke_Key.backspace	Key.backspace	n/a
304.7555	0.09	609511	keystroke_Key.backspace	Key.backspace	n/a
307.0835	0.013	614167	keystroke_n	n	n/a
307.4715	0.074	614943	keystroke_e	e	n/a
308.3405	0.105	616681	keystroke_o	o	n/a
308.6855	0.075	617371	keystroke_n	n	n/a
309.0155	0.061	618031	keystroke_Key.space	Key.space	n/a
309.8265	0.09	619653	keystroke_r	r	n/a
310.036	0.075	620072	keystroke_e	e	n/a
310.426	0.09	620852	keystroke_g	g	n/a
310.7705	0.1355	621541	keystroke_a	a	n/a
311.116	0.09	622232	keystroke_r	r	n/a
311.461	0.105	622922	keystroke_d	d	n/a
312.3005	0.1055	624601	keystroke_Key.space	Key.space	n/a
312.586	0.105	625172	keystroke_t	t	n/a
312.841	0.105	625682	keystroke_r	r	n/a
313.2465	0.075	626493	keystroke_u	u	n/a
313.5165	0.0895	627033	keystroke_s	s	n/a
314.281	0.015	628562	keystroke_t	t	n/a
314.401	0.1055	628802	keystroke_Key.space	Key.space	n/a
314.656	0.075	629312	keystroke_i	i	n/a
314.9265	0.1195	629853	keystroke_d	d	n/a
315.5555	0.105	631111	keystroke_e	e	n/a
315.8555	0.105	631711	keystroke_a	a	n/a
316.3505	0.135	632701	keystroke_s	s	n/a
317.176	0.09	634352	keystroke_Key.enter	Key.enter	n/a
317.272	23.5615	634544	prompt	n/a	myspace responsibility management destinations\n
318.136	0.075	636272	keystroke_m	m	n/a
318.616	0.075	637232	keystroke_y	y	n/a
319.306	0.0905	638612	keystroke_s	s	n/a
319.4565	0.09	638913	keystroke_p	p	n/a
319.6665	0.09	639333	keystroke_a	a	n/a
319.9665	0.105	639933	keystroke_c	c	n/a
320.266	0.06	640532	keystroke_e	e	n/a
320.536	0.09	641072	keystroke_Key.space	Key.space	n/a
321.211	0.105	642422	keystroke_r	r	n/a
321.466	0.09	642932	keystroke_e	e	n/a
321.811	0.09	643622	keystroke_s	s	n/a
322.5005	0.045	645001	keystroke_p	p	n/a
322.6815	0.089	645363	keystroke_o	o	n/a
323.2805	0.06	646561	keystroke_n	n	n/a
324.0755	0.0905	648151	keystroke_s	s	n/a
324.226	0.06	648452	keystroke_i	i	n/a
324.616	0.12	649232	keystroke_b	b	n/a
325.201	0.09	650402	keystroke_i	i	n/a
325.441	0.105	650882	keystroke_l	l	n/a
326.056	0.06	652112	keystroke_i	i	n/a
327.841	0.165	655682	keystroke_t	t	n/a
328.291	0.105	656582	keystroke_u	u	n/a
329.341	0.09	658682	keystroke_Key.backspace	Key.backspace	n/a
329.791	0.09	659582	keystroke_y	y	n/a
330.3315	0.089	660663	keystroke_Key.space	Key.space	n/a
330.9765	0.09	661953	keystroke_m	m	n/a
331.1865	0.0895	662373	keystroke_a	a	n/a
331.336	0.0605	662672	keystroke_n	n	n/a
331.816	0.105	663632	keystroke_a	a	n/a
332.4465	0.09	664893	keystroke_g	g	n/a
333.1215	0.075	666243	keystroke_e	e	n/a
333.346	0.06	666692	keystroke_m	m	n/a
334.306	0.06	668612	keystroke_e	e	n/a
334.486	0.06	668972	keystroke_n	n	n/a
334.756	0.105	669512	keystroke_t	t	n/a
335.416	0.105	670832	keystroke_Key.space	Key.space	n/a
336.0455	0.12	672091	keystroke_d	d	n/a
336.3465	0.075	672693	keystroke_e	e	n/a
336.5865	0.1045	673173	keystroke_s	s	n/a
337.3815	0.015	674763	keystroke_t	t	n/a
337.5165	0.075	675033	keystroke_i	i	n/a
337.7265	0.0905	675453	keystroke_n	n	n/a
338.641	0.105	677282	keystroke_a	a	n/a
339.001	0.075	678002	keystroke_t	t	n/a
339.1215	0.12	678243	keystroke_i	i	n/a
339.301	0.105	678602	keystroke_o	o	n/a
339.541	0.09	679082	keystroke_n	n	n/a
340.1415	0.09	680283	keystroke_s	s	n/a
340.7415	0.09	681483	keystroke_Key.enter	Key.enter	n/a
340.837	16.151	681674	prompt	n/a	beginner utility no powerpoint\n
342.106	0.06	684212	keystroke_b	b	n/a
342.361	0.105	684722	keystroke_e	e	n/a
342.691	0.09	685382	keystroke_g	g	n/a
343.186	0.06	686372	keystroke_i	i	n/a
343.561	0.045	687122	keystroke_n	n	n/a
343.666	0.105	687332	keystroke_n	n	n/a
343.906	0.12	687812	keystroke_e	e	n/a
344.1765	0.06	688353	keystroke_r	r	n/a
344.3565	0.09	688713	keystroke_Key.space	Key.space	n/a
344.9115	0.09	689823	keystroke_u	u	n/a
345.3915	0.075	690783	keystroke_t	t	n/a
346.5315	0.075	693063	keystroke_i	i	n/a
347.506	0.105	695012	keystroke_l	l	n/a
347.926	0.09	695852	keystroke_i	i	n/a
348.541	0.075	697082	keystroke_t	t	n/a
348.676	0.09	697352	keystroke_u	u	n/a
349.666	0.105	699332	keystroke_Key.backspace	Key.backspace	n/a
350.101	0.075	700202	keystroke_y	y	n/a
351.091	0.09	702182	keystroke_Key.space	Key.space	n/a
351.346	0.105	702692	keystroke_n	n	n/a
351.586	0.12	703172	keystroke_o	o	n/a
351.766	0.1355	703532	keystroke_Key.space	Key.space	n/a
352.441	0.105	704882	keystroke_p	p	n/a
352.651	0.135	705302	keystroke_o	o	n/a
353.026	0.12	706052	keystroke_w	w	n/a
353.296	0.12	706592	keystroke_e	e	n/a
353.5965	0.104	707193	keystroke_r	r	n/a
354.1065	0.119	708213	keystroke_p	p	n/a
354.3755	0.12	708751	keystroke_o	o	n/a
354.7505	0.075	709501	keystroke_i	i	n/a
355.0365	0.104	710073	keystroke_n	n	n/a
355.3655	0.06	710731	keystroke_t	t	n/a
356.8665	0.12	713733	keystroke_Key.enter	Key.enter	n/a
356.991	14.3365	713982	prompt	n/a	floyd artist wiley karen\n
358.4405	0.06	716881	keystroke_f	f	n/a
358.5755	0.076	717151	keystroke_l	l	n/a
360.1065	0.105	720213	keystroke_o	o	n/a
360.8715	0.045	721743	keystroke_y	y	n/a
361.276	0.105	722552	keystroke_d	d	n/a
361.951	0.12	723902	keystroke_Key.space	Key.space	n/a
362.251	0.12	724502	keystroke_a	a	n/a
363.5105	0.091	727021	keystroke_r	r	n/a
364.2915	0.089	728583	keystroke_t	t	n/a
364.651	0.06	729302	keystroke_i	i	n/a
364.9205	0.09	729841	keystroke_s	s	n/a
365.356	0.09	730712	keystroke_t	t	n/a
365.626	0.09	731252	keystroke_Key.space	Key.space	n/a
365.9115	0.12	731823	keystroke_w	w	n/a
366.2115	0.075	732423	keystroke_i	i	n/a
366.4365	0.09	732873	keystroke_l	l	n/a
366.7065	0.06	733413	keystroke_e	e	n/a
367.081	0.09	734162	keystroke_y	y	n/a
367.306	0.09	734612	keystroke_Key.space	Key.space	n/a
367.861	0.06	735722	keystroke_k	k	n/a
368.086	0.105	736172	keystroke_a	a	n/a
368.416	0.1345	736832	keystroke_r	r	n/a
368.716	0.075	737432	keystroke_n	n	n/a
369.7215	0.09	739443	keystroke_Key.backspace	Key.backspace	n/a
370.2315	0.045	740463	keystroke_e	e	n/a
370.4565	0.075	740913	keystroke_n	n	n/a
371.2365	0.089	742473	keystroke_Key.enter	Key.enter	n/a
371.3305	14.8175	742661	prompt	n/a	mime knew senators concrete\n
372.1215	0.12	744243	keystroke_m	m	n/a
372.4065	0.09	744813	keystroke_i	i	n/a
372.901	0.105	745802	keystroke_m	m	n/a
373.3965	0.09	746793	keystroke_e	e	n/a
373.6515	0.12	747303	keystroke_Key.space	Key.space	n/a
374.0115	0.0895	748023	keystroke_k	k	n/a
374.281	0.09	748562	keystroke_n	n	n/a
374.6115	0.135	749223	keystroke_e	e	n/a
374.8965	0.075	749793	keystroke_w	w	n/a
375.106	0.09	750212	keystroke_Key.space	Key.space	n/a
375.6615	0.105	751323	keystroke_s	s	n/a
375.901	0.075	751802	keystroke_e	e	n/a
376.066	0.075	752132	keystroke_n	n	n/a
376.471	0.1205	752942	keystroke_a	a	n/a
376.8915	0.075	753783	keystroke_t	t	n/a
377.1465	0.075	754293	keystroke_i	i	n/a
377.4465	0.09	754893	keystroke_o	o	n/a
378.4965	0.09	756993	keystroke_Key.backspace	Key.backspace	n/a
379.2155	0.045	758431	keystroke_Key.backspace	Key.backspace	n/a
379.8455	0.091	759691	keystroke_o	o	n/a
380.101	0.0905	760202	keystroke_r	r	n/a
380.4905	0.0755	760981	keystroke_s	s	n/a
381.1215	0.09	762243	keystroke_Key.space	Key.space	n/a
381.4515	0.075	762903	keystroke_c	c	n/a
381.5715	0.09	763143	keystroke_o	o	n/a
381.7815	0.075	763563	keystroke_n	n	n/a
382.831	0.045	765662	keystroke_c	c	n/a
383.2665	0.09	766533	keystroke_r	r	n/a
383.5065	0.104	767013	keystroke_e	e	n/a
383.9715	0.089	767943	keystroke_t	t	n/a
384.332	0.09	768664	keystroke_e	e	n/a
386.056	0.09	772112	keystroke_Key.enter	Key.enter	n/a
386.151	26.6375	772302	prompt	n/a	washer apollo balanced espn\n
402.169	0.001	804338	keystroke_w	w	n/a
402.257	0.105	804514	keystroke_a	a	n/a
402.482	0.075	804964	keystroke_s	s	n/a
402.647	0.09	805294	keystroke_h	h	n/a
403.187	0.075	806374	keystroke_e	e	n/a
403.427	0.09	806854	keystroke_r	r	n/a
403.622	0.105	807244	keystroke_Key.space	Key.space	n/a
404.147	0.09	808294	keystroke_a	a	n/a
404.432	0.15	808864	keystroke_p	p	n/a
405.152	0.015	810304	keystroke_o	o	n/a
405.212	0.09	810424	keystroke_l	l	n/a
405.362	0.1055	810724	keystroke_l	l	n/a
405.6025	0.0895	811205	keystroke_o	o	n/a
406.232	0.09	812464	keystroke_Key.space	Key.space	n/a
407.207	0.09	814414	keystroke_b	b	n/a
407.672	0.09	815344	keystroke_a	a	n/a
408.107	0.0155	816214	keystroke_l	l	n/a
408.2725	0.135	816545	keystroke_a	a	n/a
408.5125	0.06	817025	keystroke_n	n	n/a
408.7975	0.09	817595	keystroke_c	c	n/a
409.0525	0.09	818105	keystroke_e	e	n/a
409.3075	0.06	818615	keystroke_d	d	n/a
409.4425	0.1045	818885	keystroke_Key.space	Key.space	n/a
409.8615	0.1055	819723	keystroke_e	e	n/a
410.2225	0.105	820445	keystroke_s	s	n/a
410.5675	0.075	821135	keystroke_p	p	n/a
411.632	0.06	823264	keystroke_n	n	n/a
412.6975	0.09	825395	keystroke_Key.enter	Key.enter	n/a
412.792	15.7015	825584	prompt	n/a	cancel peterson opera priced\n
413.7175	0.105	827435	keystroke_c	c	n/a
414.0025	0.075	828005	keystroke_a	a	n/a
414.1675	0.06	828335	keystroke_n	n	n/a
414.4375	0.105	828875	keystroke_c	c	n/a
415.2315	0.06	830463	keystroke_e	e	n/a
415.6515	0.075	831303	keystroke_l	l	n/a
415.9515	0.075	831903	keystroke_Key.space	Key.space	n/a
416.4475	0.105	832895	keystroke_p	p	n/a
416.6725	0.12	833345	keystroke_e	e	n/a
416.9875	0.075	833975	keystroke_t	t	n/a
417.2265	0.121	834453	keystroke_e	e	n/a
417.9315	0.09	835863	keystroke_r	r	n/a
418.3965	0.09	836793	keystroke_o	o	n/a
419.8675	0.075	839735	keystroke_Key.backspace	Key.backspace	n/a
420.1375	0.06	840275	keystroke_s	s	n/a
420.3915	0.076	840783	keystroke_o	o	n/a
421.0225	0.075	842045	keystroke_n	n	n/a
421.2625	0.0745	842525	keystroke_Key.space	Key.space	n/a
423.814	0.013	847628	keystroke_o	o	n/a
424.037	0.12	848074	keystroke_p	p	n/a
424.997	0.105	849994	keystroke_e	e	n/a
425.237	0.09	850474	keystroke_r	r	n/a
425.5825	0.105	851165	keystroke_a	a	n/a
425.837	0.105	851674	keystroke_Key.space	Key.space	n/a
426.482	0.12	852964	keystroke_p	p	n/a
426.737	0.09	853474	keystroke_r	r	n/a
426.887	0.105	853774	keystroke_i	i	n/a
427.172	0.09	854344	keystroke_c	c	n/a
427.442	0.09	854884	keystroke_e	e	n/a
427.787	0.075	855574	keystroke_d	d	n/a
428.402	0.09	856804	keystroke_Key.enter	Key.enter	n/a
428.4975	18.5215	856995	prompt	n/a	illustrations administration edgar restored\n
429.3465	0.0905	858693	keystroke_i	i	n/a
429.632	0.0745	859264	keystroke_l	l	n/a
429.7665	0.135	859533	keystroke_l	l	n/a
430.1415	0.075	860283	keystroke_u	u	n/a
430.3365	0.105	860673	keystroke_s	s	n/a
430.6815	0.105	861363	keystroke_t	t	n/a
431.0125	0.105	862025	keystroke_r	r	n/a
431.3725	0.12	862745	keystroke_a	a	n/a
431.7325	0.09	863465	keystroke_t	t	n/a
431.8675	0.105	863735	keystroke_i	i	n/a
432.0175	0.105	864035	keystroke_o	o	n/a
432.2725	0.075	864545	keystroke_n	n	n/a
432.4825	0.075	864965	keystroke_s	s	n/a
432.692	0.075	865384	keystroke_Key.space	Key.space	n/a
433.2315	0.12	866463	keystroke_a	a	n/a
433.5915	0.1355	867183	keystroke_d	d	n/a
434.3725	0.12	868745	keystroke_m	m	n/a
434.6425	0.075	869285	keystroke_i	i	n/a
434.8525	0.075	869705	keystroke_n	n	n/a
435.2275	0.075	870455	keystroke_i	i	n/a
435.6625	0.09	871325	keystroke_s	s	n/a
436.547	0.075	873094	keystroke_t	t	n/a
437.2365	0.105	874473	keystroke_r	r	n/a
437.5215	0.12	875043	keystroke_a	a	n/a
437.8815	0.091	875763	keystroke_t	t	n/a
438.0465	0.106	876093	keystroke_i	i	n/a
438.2125	0.12	876425	keystroke_o	o	n/a
438.8425	0.06	877685	keystroke_n	n	n/a
439.1275	0.075	878255	keystroke_Key.space	Key.space	n/a
439.4425	0.0895	878885	keystroke_e	e	n/a
440.117	0.09	880234	keystroke_d	d	n/a
440.642	0.09	881284	keystroke_g	g	n/a
441.033	0.105	882066	keystroke_a	a	n/a
441.498	0.09	882996	keystroke_r	r	n/a
441.708	0.09	883416	keystroke_Key.space	Key.space	n/a
442.203	0.06	884406	keystroke_r	r	n/a
442.938	0.09	885876	keystroke_e	e	n/a
443.8975	0.0905	887795	keystroke_s	s	n/a
444.543	0.09	889086	keystroke_t	t	n/a
444.9475	0.075	889895	keystroke_o	o	n/a
445.248	0.105	890496	keystroke_r	r	n/a
445.593	0.075	891186	keystroke_e	e	n/a
446.043	0.09	892086	keystroke_d	d	n/a
446.9425	0.075	893885	keystroke_Key.enter	Key.enter	n/a
447.022	14.3225	894044	prompt	n/a	educational gallery advisor code\n
447.842	0.135	895684	keystroke_e	e	n/a
448.382	0.09	896764	keystroke_d	d	n/a
448.922	0.03	897844	keystroke_u	u	n/a
449.1025	0.105	898205	keystroke_c	c	n/a
449.447	0.18	898894	keystroke_a	a	n/a
449.8675	0.1045	899735	keystroke_t	t	n/a
450.212	0.165	900424	keystroke_i	i	n/a
450.647	0.106	901294	keystroke_o	o	n/a
450.873	0.09	901746	keystroke_n	n	n/a
451.488	0.09	902976	keystroke_a	a	n/a
451.743	0.105	903486	keystroke_l	l	n/a
451.983	0.075	903966	keystroke_Key.space	Key.space	n/a
452.418	0.105	904836	keystroke_g	g	n/a
452.718	0.06	905436	keystroke_a	a	n/a
452.868	0.075	905736	keystroke_l	l	n/a
453.003	0.0895	906006	keystroke_l	l	n/a
453.2425	0.075	906485	keystroke_e	e	n/a
453.7075	0.09	907415	keystroke_r	r	n/a
453.9025	0.075	907805	keystroke_y	y	n/a
454.1875	0.105	908375	keystroke_Key.space	Key.space	n/a
454.908	0.09	909816	keystroke_a	a	n/a
455.253	0.09	910506	keystroke_d	d	n/a
455.8975	0.135	911795	keystroke_v	v	n/a
456.1525	0.09	912305	keystroke_i	i	n/a
457.203	0.044	914406	keystroke_s	s	n/a
457.383	0.089	914766	keystroke_o	o	n/a
457.7725	0.09	915545	keystroke_r	r	n/a
458.2975	0.09	916595	keystroke_Key.space	Key.space	n/a
460.0825	0.1205	920165	keystroke_c	c	n/a
460.247	0.091	920494	keystroke_o	o	n/a
460.488	0.09	920976	keystroke_d	d	n/a
460.713	0.09	921426	keystroke_e	e	n/a
461.2525	0.09	922505	keystroke_Key.enter	Key.enter	n/a
461.347	17.803	922694	prompt	n/a	familiar programmer annotation adaptor\n
462.1675	0.0595	924335	keystroke_f	f	n/a
462.4075	0.091	924815	keystroke_a	a	n/a
462.6175	0.06	925235	keystroke_m	m	n/a
462.8275	0.09	925655	keystroke_i	i	n/a
463.0375	0.15	926075	keystroke_l	l	n/a
463.4425	0.105	926885	keystroke_i	i	n/a
464.403	0.12	928806	keystroke_a	a	n/a
464.793	0.03	929586	keystroke_r	r	n/a
465.5425	0.075	931085	keystroke_Key.space	Key.space	n/a
466.038	0.075	932076	keystroke_g	g	n/a
466.938	0.105	933876	keystroke_Key.backspace	Key.backspace	n/a
467.673	0.135	935346	keystroke_p	p	n/a
467.958	0.075	935916	keystroke_r	r	n/a
468.318	0.09	936636	keystroke_o	o	n/a
469.068	0.075	938136	keystroke_g	g	n/a
469.353	0.1045	938706	keystroke_r	r	n/a
469.6835	0.105	939367	keystroke_a	a	n/a
469.8935	0.06	939787	keystroke_m	m	n/a
470.0285	0.075	940057	keystroke_m	m	n/a
470.5985	0.105	941197	keystroke_e	e	n/a
470.8235	0.0895	941647	keystroke_r	r	n/a
470.988	0.105	941976	keystroke_Key.space	Key.space	n/a
471.243	0.1195	942486	keystroke_a	a	n/a
471.4675	0.045	942935	keystroke_n	n	n/a
471.5875	0.12	943175	keystroke_n	n	n/a
471.9025	0.12	943805	keystroke_o	o	n/a
472.5625	0.045	945125	keystroke_t	t	n/a
472.7725	0.105	945545	keystroke_a	a	n/a
473.1325	0.045	946265	keystroke_t	t	n/a
473.2075	0.09	946415	keystroke_i	i	n/a
473.3725	0.105	946745	keystroke_o	o	n/a
473.628	0.09	947256	keystroke_n	n	n/a
474.3025	0.09	948605	keystroke_Key.space	Key.space	n/a
475.143	0.045	950286	keystroke_a	a	n/a
475.488	0.09	950976	keystroke_d	d	n/a
476.193	0.1195	952386	keystroke_a	a	n/a
476.6425	0.12	953285	keystroke_p	p	n/a
477.3775	0.075	954755	keystroke_t	t	n/a
477.4675	0.105	954935	keystroke_o	o	n/a
477.8575	0.09	955715	keystroke_r	r	n/a
479.0585	0.09	958117	keystroke_Key.enter	Key.enter	n/a
479.154	19.8105	958308	prompt	n/a	aluminium fight strikes accessed\n
479.898	0.12	959796	keystroke_a	a	n/a
480.5885	0.15	961177	keystroke_;	;	n/a
481.3375	0.09	962675	keystroke_Key.backspace	Key.backspace	n/a
482.0725	0.15	964145	keystroke_l	l	n/a
483.078	0.105	966156	keystroke_u	u	n/a
483.573	0.06	967146	keystroke_m	m	n/a
484.188	0.075	968376	keystroke_i	i	n/a
484.6085	0.134	969217	keystroke_n	n	n/a
485.223	0.075	970446	keystroke_i	i	n/a
486.3325	0.075	972665	keystroke_u	u	n/a
486.738	0.075	973476	keystroke_m	m	n/a
487.0975	0.105	974195	keystroke_Key.space	Key.space	n/a
487.5025	0.09	975005	keystroke_f	f	n/a
488.5375	0.0755	977075	keystroke_i	i	n/a
488.808	0.075	977616	keystroke_g	g	n/a
489.363	0.06	978726	keystroke_h	h	n/a
490.068	0.075	980136	keystroke_t	t	n/a
490.383	0.075	980766	keystroke_Key.space	Key.space	n/a
490.623	0.105	981246	keystroke_s	s	n/a
491.043	0.09	982086	keystroke_t	t	n/a
491.6575	0.09	983315	keystroke_r	r	n/a
492.4835	0.075	984967	keystroke_i	i	n/a
492.7075	0.12	985415	keystroke_k	k	n/a
492.9925	0.0755	985985	keystroke_e	e	n/a
493.608	0.015	987216	keystroke_s	s	n/a
493.638	0.075	987276	keystroke_Key.space	Key.space	n/a
493.9685	0.0895	987937	keystroke_a	a	n/a
494.328	0.12	988656	keystroke_c	c	n/a
494.853	0.165	989706	keystroke_c	c	n/a
495.3925	0.105	990785	keystroke_e	e	n/a
495.9625	0.12	991925	keystroke_s	s	n/a
496.1575	0.1205	992315	keystroke_s	s	n/a
496.458	0.09	992916	keystroke_e	e	n/a
497.073	0.09	994146	keystroke_d	d	n/a
498.8725	0.091	997745	keystroke_Key.enter	Key.enter	n/a
498.9695	21.5355	997939	prompt	n/a	diseases hurt temporarily screenshots\n
500.0585	0.09	1000117	keystroke_d	d	n/a
500.5085	0.06	1001017	keystroke_i	i	n/a
500.9285	0.105	1001857	keystroke_s	s	n/a
501.4835	0.09	1002967	keystroke_e	e	n/a
501.8585	0.09	1003717	keystroke_a	a	n/a
502.2935	0.045	1004587	keystroke_s	s	n/a
502.4285	0.105	1004857	keystroke_e	e	n/a
503.328	0.09	1006656	keystroke_s	s	n/a
503.6135	0.09	1007227	keystroke_Key.space	Key.space	n/a
503.8835	0.075	1007767	keystroke_h	h	n/a
504.168	0.09	1008336	keystroke_u	u	n/a
504.5735	0.1345	1009147	keystroke_r	r	n/a
505.3985	0.12	1010797	keystroke_t	t	n/a
506.148	0.09	1012296	keystroke_Key.space	Key.space	n/a
506.598	0.105	1013196	keystroke_t	t	n/a
506.943	0.09	1013886	keystroke_e	e	n/a
507.138	0.06	1014276	keystroke_m	m	n/a
507.558	0.091	1015116	keystroke_p	p	n/a
507.783	0.106	1015566	keystroke_o	o	n/a
508.234	0.104	1016468	keystroke_r	r	n/a
508.549	0.104	1017098	keystroke_a	a	n/a
509.8075	0.075	1019615	keystroke_r	r	n/a
510.873	0.075	1021746	keystroke_i	i	n/a
511.1435	0.12	1022287	keystroke_l	l	n/a
511.5785	0.09	1023157	keystroke_y	y	n/a
512.208	0.09	1024416	keystroke_Key.space	Key.space	n/a
513.498	0.045	1026996	keystroke_s	s	n/a
513.903	0.105	1027806	keystroke_c	c	n/a
514.4435	0.045	1028887	keystroke_e	e	n/a
516.153	0.075	1032306	keystroke_Key.backspace	Key.backspace	n/a
516.5735	0.105	1033147	keystroke_r	r	n/a
516.9035	0.09	1033807	keystroke_e	e	n/a
517.0685	0.105	1034137	keystroke_e	e	n/a
517.6825	0.075	1035365	keystroke_n	n	n/a
518.4785	0.045	1036957	keystroke_s	s	n/a
518.748	0.09	1037496	keystroke_h	h	n/a
518.958	0.09	1037916	keystroke_o	o	n/a
519.3935	0.09	1038787	keystroke_t	t	n/a
519.8585	0.0895	1039717	keystroke_s	s	n/a
520.413	0.09	1040826	keystroke_Key.enter	Key.enter	n/a
520.509	14.396	1041018	prompt	n/a	consequence sides former breaks\n
521.553	0.045	1043106	keystroke_c	c	n/a
521.658	0.09	1043316	keystroke_o	o	n/a
521.913	0.075	1043826	keystroke_n	n	n/a
522.7385	0.09	1045477	keystroke_s	s	n/a
523.0235	0.09	1046047	keystroke_e	e	n/a
523.8035	0.165	1047607	keystroke_q	q	n/a
524.433	0.06	1048866	keystroke_u	u	n/a
524.793	0.075	1049586	keystroke_e	e	n/a
525.588	0.06	1051176	keystroke_n	n	n/a
526.203	0.106	1052406	keystroke_c	c	n/a
526.668	0.09	1053336	keystroke_e	e	n/a
527.028	0.09	1054056	keystroke_Key.space	Key.space	n/a
527.628	0.105	1055256	keystroke_s	s	n/a
527.793	0.06	1055586	keystroke_i	i	n/a
527.973	0.09	1055946	keystroke_d	d	n/a
528.2285	0.075	1056457	keystroke_e	e	n/a
528.5735	0.075	1057147	keystroke_s	s	n/a
529.4285	0.075	1058857	keystroke_Key.space	Key.space	n/a
529.7585	0.105	1059517	keystroke_f	f	n/a
530.0435	0.075	1060087	keystroke_o	o	n/a
530.3135	0.075	1060627	keystroke_r	r	n/a
530.4485	0.105	1060897	keystroke_m	m	n/a
530.7185	0.12	1061437	keystroke_e	e	n/a
530.9735	0.105	1061947	keystroke_r	r	n/a
531.4085	0.105	1062817	keystroke_Key.space	Key.space	n/a
532.0235	0.135	1064047	keystroke_b	b	n/a
532.6085	0.045	1065217	keystroke_r	r	n/a
532.6985	0.105	1065397	keystroke_e	e	n/a
533.343	0.06	1066686	keystroke_a	a	n/a
533.8835	0.06	1067767	keystroke_k	k	n/a
534.1835	0.075	1068367	keystroke_s	s	n/a
534.8285	0.0745	1069657	keystroke_Key.enter	Key.enter	n/a
534.909	20.3365	1069818	prompt	n/a	funny identifying chef pick\n
535.9235	0.1505	1071847	keystroke_f	f	n/a
536.6435	0.09	1073287	keystroke_u	u	n/a
536.9885	0.0905	1073977	keystroke_n	n	n/a
537.124	0.105	1074248	keystroke_n	n	n/a
537.439	0.09	1074878	keystroke_y	y	n/a
538.053	0.075	1076106	keystroke_Key.space	Key.space	n/a
538.294	0.075	1076588	keystroke_i	i	n/a
538.594	0.105	1077188	keystroke_d	d	n/a
538.984	0.075	1077968	keystroke_e	e	n/a
539.164	0.075	1078328	keystroke_n	n	n/a
539.523	0.106	1079046	keystroke_f	f	n/a
540.0635	0.06	1080127	keystroke_i	i	n/a
540.4085	0.06	1080817	keystroke_g	g	n/a
540.6185	0.045	1081237	keystroke_y	y	n/a
541.833	0.09	1083666	keystroke_Key.backspace	Key.backspace	n/a
542.6735	0.0895	1085347	keystroke_Key.backspace	Key.backspace	n/a
544.911	0.027	1089822	keystroke_Key.backspace	Key.backspace	n/a
546.7535	0.075	1093507	keystroke_Key.backspace	Key.backspace	n/a
548.0735	0.045	1096147	keystroke_t	t	n/a
548.1785	0.075	1096357	keystroke_i	i	n/a
548.5385	0.105	1097077	keystroke_f	f	n/a
549.6785	0.105	1099357	keystroke_y	y	n/a
550.189	0.06	1100378	keystroke_i	i	n/a
550.909	0.09	1101818	keystroke_n	n	n/a
551.1785	0.09	1102357	keystroke_g	g	n/a
551.644	0.09	1103288	keystroke_Key.space	Key.space	n/a
552.184	0.105	1104368	keystroke_c	c	n/a
552.319	0.09	1104638	keystroke_h	h	n/a
552.544	0.0895	1105088	keystroke_e	e	n/a
552.8435	0.09	1105687	keystroke_f	f	n/a
553.1285	0.09	1106257	keystroke_Key.space	Key.space	n/a
553.5785	0.12	1107157	keystroke_p	p	n/a
553.8485	0.12	1107697	keystroke_i	i	n/a
554.3285	0.09	1108657	keystroke_c	c	n/a
554.6435	0.075	1109287	keystroke_k	k	n/a
555.1535	0.09	1110307	keystroke_Key.enter	Key.enter	n/a
555.2495	16.451	1110499	prompt	n/a	johnny promotes traditional perform\n
556.1435	0.09	1112287	keystroke_j	j	n/a
556.579	0.105	1113158	keystroke_o	o	n/a
557.193	0.075	1114386	keystroke_h	h	n/a
557.748	0.0455	1115496	keystroke_n	n	n/a
557.8385	0.09	1115677	keystroke_n	n	n/a
558.1085	0.09	1116217	keystroke_y	y	n/a
558.3335	0.1205	1116667	keystroke_Key.space	Key.space	n/a
558.874	0.12	1117748	keystroke_p	p	n/a
559.758	0.09	1119516	keystroke_r	r	n/a
560.5235	0.06	1121047	keystroke_o	o	n/a
561.7985	0.09	1123597	keystroke_m	m	n/a
562.0535	0.0905	1124107	keystroke_o	o	n/a
562.399	0.075	1124798	keystroke_t	t	n/a
562.669	0.075	1125338	keystroke_e	e	n/a
562.924	0.105	1125848	keystroke_s	s	n/a
563.164	0.075	1126328	keystroke_Key.space	Key.space	n/a
563.7935	0.09	1127587	keystroke_t	t	n/a
564.0335	0.12	1128067	keystroke_r	r	n/a
564.3785	0.105	1128757	keystroke_a	a	n/a
564.7085	0.09	1129417	keystroke_d	d	n/a
565.4435	0.09	1130887	keystroke_i	i	n/a
566.0285	0.09	1132057	keystroke_t	t	n/a
566.253	0.106	1132506	keystroke_i	i	n/a
566.4935	0.12	1132987	keystroke_o	o	n/a
567.139	0.06	1134278	keystroke_n	n	n/a
567.634	0.09	1135268	keystroke_a	a	n/a
567.754	0.105	1135508	keystroke_l	l	n/a
567.979	0.105	1135958	keystroke_Key.space	Key.space	n/a
568.669	0.105	1137338	keystroke_p	p	n/a
568.789	0.105	1137578	keystroke_e	e	n/a
569.238	0.09	1138476	keystroke_r	r	n/a
569.6435	0.12	1139287	keystroke_f	f	n/a
569.8985	0.075	1139797	keystroke_o	o	n/a
570.364	0.075	1140728	keystroke_r	r	n/a
570.739	0.045	1141478	keystroke_m	m	n/a
571.6085	0.0905	1143217	keystroke_Key.enter	Key.enter	n/a
571.7035	18.477	1143407	prompt	n/a	replacement sydney harrison subject\n
572.689	0.045	1145378	keystroke_r	r	n/a
573.154	0.045	1146308	keystroke_e	e	n/a
573.634	0.075	1147268	keystroke_p	p	n/a
574.024	0.09	1148048	keystroke_l	l	n/a
574.384	0.12	1148768	keystroke_a	a	n/a
575.464	0.135	1150928	keystroke_c	c	n/a
576.1535	0.105	1152307	keystroke_e	e	n/a
576.5435	0.045	1153087	keystroke_m	m	n/a
576.7985	0.09	1153597	keystroke_e	e	n/a
577.5185	0.15	1155037	keystroke_n	n	n/a
578.014	0.075	1156028	keystroke_t	t	n/a
578.778	0.09	1157556	keystroke_Key.space	Key.space	n/a
579.079	0.06	1158158	keystroke_s	s	n/a
579.259	0.09	1158518	keystroke_y	y	n/a
579.739	0.06	1159478	keystroke_d	d	n/a
580.939	0.0745	1161878	keystroke_n	n	n/a
581.4785	0.075	1162957	keystroke_e	e	n/a
581.6585	0.075	1163317	keystroke_y	y	n/a
581.8985	0.105	1163797	keystroke_Key.space	Key.space	n/a
582.1985	0.075	1164397	keystroke_h	h	n/a
582.4085	0.12	1164817	keystroke_a	a	n/a
583.444	0.135	1166888	keystroke_r	r	n/a
583.684	0.105	1167368	keystroke_r	r	n/a
584.434	0.089	1168868	keystroke_i	i	n/a
584.688	0.09	1169376	keystroke_s	s	n/a
584.824	0.105	1169648	keystroke_o	o	n/a
585.094	0.06	1170188	keystroke_n	n	n/a
585.334	0.12	1170668	keystroke_Key.space	Key.space	n/a
586.009	0.075	1172018	keystroke_s	s	n/a
586.578	0.061	1173156	keystroke_u	u	n/a
587.809	0.075	1175618	keystroke_b	b	n/a
588.079	0.06	1176158	keystroke_j	j	n/a
588.469	0.075	1176938	keystroke_e	e	n/a
588.754	0.105	1177508	keystroke_c	c	n/a
589.0535	0.075	1178107	keystroke_t	t	n/a
590.0885	0.09	1180177	keystroke_Key.enter	Key.enter	n/a
590.1835	13.962	1180367	prompt	n/a	tracks knew jamaica properly\n
591.1235	0.09	1182247	keystroke_t	t	n/a
591.3635	0.09	1182727	keystroke_r	r	n/a
591.7835	0.105	1183567	keystroke_a	a	n/a
592.204	0.09	1184408	keystroke_c	c	n/a
592.354	0.06	1184708	keystroke_k	k	n/a
592.714	0.09	1185428	keystroke_s	s	n/a
593.224	0.075	1186448	keystroke_Key.space	Key.space	n/a
593.6435	0.09	1187287	keystroke_k	k	n/a
593.8835	0.09	1187767	keystroke_n	n	n/a
594.1385	0.075	1188277	keystroke_e	e	n/a
594.4985	0.06	1188997	keystroke_w	w	n/a
594.6635	0.09	1189327	keystroke_Key.space	Key.space	n/a
595.159	0.09	1190318	keystroke_j	j	n/a
595.399	0.09	1190798	keystroke_a	a	n/a
595.534	0.12	1191068	keystroke_m	m	n/a
596.9735	0.105	1193947	keystroke_a	a	n/a
597.634	0.059	1195268	keystroke_i	i	n/a
598.158	0.09	1196316	keystroke_c	c	n/a
598.623	0.1055	1197246	keystroke_a	a	n/a
599.4185	0.09	1198837	keystroke_Key.space	Key.space	n/a
599.9745	0.09	1199949	keystroke_p	p	n/a
600.4235	0.09	1200847	keystroke_r	r	n/a
600.7685	0.09	1201537	keystroke_o	o	n/a
601.1585	0.09	1202317	keystroke_p	p	n/a
602.0435	0.09	1204087	keystroke_e	e	n/a
602.5235	0.06	1205047	keystroke_r	r	n/a
602.7185	0.09	1205437	keystroke_l	l	n/a
603.0935	0.09	1206187	keystroke_y	y	n/a
604.0385	0.105	1208077	keystroke_Key.enter	Key.enter	n/a
604.1485	14.9665	1208297	prompt	n/a	metadata manor hear hungary\n
605.0135	0.0905	1210027	keystroke_m	m	n/a
605.179	0.12	1210358	keystroke_e	e	n/a
605.9435	0.09	1211887	keystroke_t	t	n/a
606.2435	0.105	1212487	keystroke_a	a	n/a
606.7535	0.09	1213507	keystroke_d	d	n/a
606.9785	0.09	1213957	keystroke_a	a	n/a
607.3085	0.09	1214617	keystroke_t	t	n/a
607.6835	0.075	1215367	keystroke_a	a	n/a
607.9535	0.105	1215907	keystroke_Key.space	Key.space	n/a
608.463	0.0605	1216926	keystroke_m	m	n/a
608.6435	0.09	1217287	keystroke_a	a	n/a
608.7785	0.076	1217557	keystroke_n	n	n/a
609.0485	0.09	1218097	keystroke_o	o	n/a
609.3035	0.09	1218607	keystroke_r	r	n/a
609.4685	0.105	1218937	keystroke_Key.space	Key.space	n/a
610.2485	0.09	1220497	keystroke_h	h	n/a
610.4585	0.09	1220917	keystroke_e	e	n/a
610.8935	0.12	1221787	keystroke_a	a	n/a
611.224	0.0895	1222448	keystroke_r	r	n/a
611.4185	0.105	1222837	keystroke_Key.space	Key.space	n/a
611.8685	0.09	1223737	keystroke_h	h	n/a
612.184	0.06	1224368	keystroke_u	u	n/a
612.409	0.09	1224818	keystroke_n	n	n/a
613.2335	0.12	1226467	keystroke_g	g	n/a
613.6085	0.09	1227217	keystroke_r	r	n/a
614.674	0.12	1229348	keystroke_a	a	n/a
616.279	0.12	1232558	keystroke_Key.backspace	Key.backspace	n/a
617.0585	0.0905	1234117	keystroke_Key.backspace	Key.backspace	n/a
617.614	0.09	1235228	keystroke_a	a	n/a
617.959	0.0905	1235918	keystroke_r	r	n/a
618.1695	0.075	1236339	keystroke_y	y	n/a
619.039	0.0755	1238078	keystroke_Key.enter	Key.enter	n/a
619.1185	22.2425	1238237	prompt	n/a	webcast recovery truth prague\n
619.9095	0.09	1239819	keystroke_e	e	n/a
620.5995	0.09	1241199	keystroke_Key.backspace	Key.backspace	n/a
620.914	0.075	1241828	keystroke_w	w	n/a
621.454	0.09	1242908	keystroke_e	e	n/a
622.144	0.045	1244288	keystroke_v	v	n/a
623.059	0.12	1246118	keystroke_Key.backspace	Key.backspace	n/a
623.464	0.075	1246928	keystroke_b	b	n/a
623.839	0.09	1247678	keystroke_a	a	n/a
624.934	0.075	1249868	keystroke_Key.backspace	Key.backspace	n/a
625.2485	0.12	1250497	keystroke_c	c	n/a
625.5935	0.12	1251187	keystroke_a	a	n/a
625.8785	0.09	1251757	keystroke_s	s	n/a
626.4035	0.045	1252807	keystroke_t	t	n/a
626.5235	0.09	1253047	keystroke_Key.space	Key.space	n/a
627.0335	0.0905	1254067	keystroke_r	r	n/a
627.2585	0.075	1254517	keystroke_e	e	n/a
627.6045	0.105	1255209	keystroke_c	c	n/a
627.7995	0.075	1255599	keystroke_o	o	n/a
628.234	0.12	1256468	keystroke_b	b	n/a
628.549	0.105	1257098	keystroke_e	e	n/a
629.5845	0.135	1259169	keystroke_Key.backspace	Key.backspace	n/a
630.2145	0.134	1260429	keystroke_Key.backspace	Key.backspace	n/a
630.5445	0.119	1261089	keystroke_v	v	n/a
630.8595	0.089	1261719	keystroke_e	e	n/a
631.0985	0.0755	1262197	keystroke_r	r	n/a
631.2635	0.091	1262527	keystroke_y	y	n/a
633.109	0.03	1266218	keystroke_Key.space	Key.space	n/a
633.874	0.105	1267748	keystroke_t	t	n/a
634.159	0.09	1268318	keystroke_r	r	n/a
634.429	0.075	1268858	keystroke_u	u	n/a
635.029	0.045	1270058	keystroke_t	t	n/a
635.089	0.015	1270178	keystroke_h	h	n/a
635.569	0.105	1271138	keystroke_Key.space	Key.space	n/a
636.334	0.09	1272668	keystroke_p	p	n/a
636.6795	0.0895	1273359	keystroke_r	r	n/a
636.949	0.075	1273898	keystroke_a	a	n/a
637.399	0.09	1274798	keystroke_g	g	n/a
638.2995	0.075	1276599	keystroke_u	u	n/a
638.539	0.06	1277078	keystroke_e	e	n/a
641.3315	0.027	1282663	keystroke_Key.enter	Key.enter	n/a
641.364	20.967	1282728	prompt	n/a	azerbaijan wonderful editions plots\n
642.3345	0.09	1284669	keystroke_a	a	n/a
642.784	0.1655	1285568	keystroke_z	z	n/a
643.5645	0.09	1287129	keystroke_e	e	n/a
643.9695	0.105	1287939	keystroke_r	r	n/a
644.5245	0.09	1289049	keystroke_b	b	n/a
645.814	0.12	1291628	keystroke_a	a	n/a
646.204	0.09	1292408	keystroke_i	i	n/a
646.8635	0.061	1293727	keystroke_j	j	n/a
647.8695	0.105	1295739	keystroke_a	a	n/a
648.6945	0.075	1297389	keystroke_n	n	n/a
649.069	0.105	1298138	keystroke_Key.space	Key.space	n/a
649.7585	0.091	1299517	keystroke_w	w	n/a
649.9995	0.045	1299999	keystroke_o	o	n/a
650.5695	0.074	1301139	keystroke_n	n	n/a
650.7785	0.12	1301557	keystroke_d	d	n/a
651.169	0.12	1302338	keystroke_e	e	n/a
651.454	0.09	1302908	keystroke_r	r	n/a
651.814	0.03	1303628	keystroke_g	g	n/a
652.789	0.09	1305578	keystroke_Key.backspace	Key.backspace	n/a
653.4495	0.105	1306899	keystroke_g	g	n/a
654.3935	0.091	1308787	keystroke_Key.backspace	Key.backspace	n/a
654.8745	0.075	1309749	keystroke_f	f	n/a
655.0695	0.074	1310139	keystroke_u	u	n/a
655.3835	0.09	1310767	keystroke_l	l	n/a
655.5935	0.105	1311187	keystroke_Key.space	Key.space	n/a
655.8485	0.091	1311697	keystroke_e	e	n/a
656.2235	0.09	1312447	keystroke_d	d	n/a
656.5835	0.06	1313167	keystroke_i	i	n/a
656.9735	0.06	1313947	keystroke_t	t	n/a
657.2145	0.135	1314429	keystroke_i	i	n/a
657.4395	0.1495	1314879	keystroke_o	o	n/a
658.129	0.06	1316258	keystroke_n	n	n/a
658.354	0.105	1316708	keystroke_s	s	n/a
658.489	0.105	1316978	keystroke_Key.space	Key.space	n/a
658.819	0.09	1317638	keystroke_p	p	n/a
659.044	0.12	1318088	keystroke_l	l	n/a
659.284	0.105	1318568	keystroke_o	o	n/a
659.704	0.015	1319408	keystroke_y	y	n/a
660.589	0.075	1321178	keystroke_Key.backspace	Key.backspace	n/a
660.845	0.089	1321690	keystroke_t	t	n/a
661.429	0.09	1322858	keystroke_s	s	n/a
662.2395	0.089	1324479	keystroke_Key.enter	Key.enter	n/a
662.3335	19.3025	1324667	prompt	n/a	pairs studying folk contributing\n
663.2295	0.045	1326459	keystroke_p	p	n/a
663.3945	0.12	1326789	keystroke_a	a	n/a
664.624	0.06	1329248	keystroke_i	i	n/a
665.029	0.09	1330058	keystroke_r	r	n/a
665.944	0.09	1331888	keystroke_s	s	n/a
666.184	0.075	1332368	keystroke_Key.space	Key.space	n/a
666.394	0.12	1332788	keystroke_s	s	n/a
666.799	0.15	1333598	keystroke_t	t	n/a
667.609	0.045	1335218	keystroke_u	u	n/a
668.524	0.06	1337048	keystroke_d	d	n/a
669.349	0.075	1338698	keystroke_y	y	n/a
669.59	0.089	1339180	keystroke_i	i	n/a
669.784	0.076	1339568	keystroke_n	n	n/a
669.9645	0.09	1339929	keystroke_g	g	n/a
670.3845	0.09	1340769	keystroke_Key.space	Key.space	n/a
671.059	0.105	1342118	keystroke_f	f	n/a
671.285	0.105	1342570	keystroke_o	o	n/a
671.509	0.105	1343018	keystroke_l	l	n/a
672.02	0.089	1344040	keystroke_k	k	n/a
672.619	0.09	1345238	keystroke_Key.space	Key.space	n/a
672.995	0.1045	1345990	keystroke_c	c	n/a
673.1295	0.09	1346259	keystroke_o	o	n/a
673.3245	0.09	1346649	keystroke_n	n	n/a
673.6545	0.105	1347309	keystroke_t	t	n/a
674.12	0.059	1348240	keystroke_r	r	n/a
674.659	0.045	1349318	keystroke_i	i	n/a
675.379	0.09	1350758	keystroke_b	b	n/a
676.189	0.09	1352378	keystroke_u	u	n/a
676.594	0.075	1353188	keystroke_t	t	n/a
676.759	0.105	1353518	keystroke_i	i	n/a
676.984	0.0755	1353968	keystroke_o	o	n/a
678.1395	0.105	1356279	keystroke_Key.backspace	Key.backspace	n/a
679.804	0.075	1359608	keystroke_n	n	n/a
680.164	0.06	1360328	keystroke_g	g	n/a
681.5445	0.09	1363089	keystroke_Key.enter	Key.enter	n/a
681.6415	11.8595	1363283	prompt	n/a	door base whereas aims\n
682.7745	0.105	1365549	keystroke_d	d	n/a
683.3145	0.0745	1366629	keystroke_o	o	n/a
683.464	0.0905	1366928	keystroke_o	o	n/a
683.7195	0.09	1367439	keystroke_r	r	n/a
684.1545	0.075	1368309	keystroke_Key.space	Key.space	n/a
685.114	0.18	1370228	keystroke_b	b	n/a
685.564	0.135	1371128	keystroke_a	a	n/a
685.819	0.1355	1371638	keystroke_s	s	n/a
686.1345	0.0895	1372269	keystroke_e	e	n/a
686.389	0.075	1372778	keystroke_Key.space	Key.space	n/a
686.81	0.104	1373620	keystroke_w	w	n/a
686.959	0.06	1373918	keystroke_h	h	n/a
687.184	0.105	1374368	keystroke_e	e	n/a
688.3095	0.12	1376619	keystroke_e	e	n/a
689.1345	0.09	1378269	keystroke_Key.backspace	Key.backspace	n/a
689.3895	0.105	1378779	keystroke_r	r	n/a
689.6145	0.09	1379229	keystroke_e	e	n/a
690.5745	0.12	1381149	keystroke_a	a	n/a
690.919	0.09	1381838	keystroke_s	s	n/a
691.2195	0.12	1382439	keystroke_Key.space	Key.space	n/a
691.819	0.12	1383638	keystroke_a	a	n/a
692.074	0.09	1384148	keystroke_i	i	n/a
692.284	0.09	1384568	keystroke_m	m	n/a
692.599	0.075	1385198	keystroke_s	s	n/a
693.394	0.105	1386788	keystroke_Key.enter	Key.enter	n/a
693.5045	15.387	1387009	prompt	n/a	pursuit risks aware infant\n
694.384	0.135	1388768	keystroke_p	p	n/a
694.774	0.09	1389548	keystroke_u	u	n/a
696.1245	0.09	1392249	keystroke_r	r	n/a
696.7245	0.105	1393449	keystroke_s	s	n/a
696.9945	0.0895	1393989	keystroke_u	u	n/a
697.264	0.09	1394528	keystroke_i	i	n/a
697.774	0.105	1395548	keystroke_t	t	n/a
698.555	0.104	1397110	keystroke_Key.space	Key.space	n/a
698.9745	0.12	1397949	keystroke_r	r	n/a
699.3645	0.075	1398729	keystroke_i	i	n/a
700.0245	0.12	1400049	keystroke_s	s	n/a
700.2945	0.06	1400589	keystroke_k	k	n/a
702.6515	0.001	1405303	keystroke_s	s	n/a
703.129	0.18	1406258	keystroke_Key.space	Key.space	n/a
703.475	0.119	1406950	keystroke_a	a	n/a
703.744	0.12	1407488	keystroke_w	w	n/a
704.0745	0.135	1408149	keystroke_a	a	n/a
704.6445	0.12	1409289	keystroke_r	r	n/a
704.9445	0.075	1409889	keystroke_e	e	n/a
705.559	0.105	1411118	keystroke_Key.space	Key.space	n/a
706.1895	0.09	1412379	keystroke_i	i	n/a
706.4445	0.09	1412889	keystroke_n	n	n/a
706.744	0.075	1413488	keystroke_f	f	n/a
707.014	0.06	1414028	keystroke_a	a	n/a
707.704	0.03	1415408	keystroke_n	n	n/a
708.0645	0.0895	1416129	keystroke_t	t	n/a
708.814	0.075	1417628	keystroke_Key.enter	Key.enter	n/a
708.895	15.041	1417790	prompt	n/a	suitable hygiene mental peers\n
709.879	0.075	1419758	keystroke_s	s	n/a
710.149	0.075	1420298	keystroke_u	u	n/a
710.9295	0.1195	1421859	keystroke_t	t	n/a
711.814	0.09	1423628	keystroke_Key.backspace	Key.backspace	n/a
712.504	0.0905	1425008	keystroke_i	i	n/a
712.879	0.106	1425758	keystroke_t	t	n/a
713.7045	0.09	1427409	keystroke_a	a	n/a
714.0045	0.12	1428009	keystroke_b	b	n/a
714.6195	0.075	1429239	keystroke_l	l	n/a
714.8145	0.1045	1429629	keystroke_e	e	n/a
714.964	0.09	1429928	keystroke_Key.space	Key.space	n/a
715.294	0.09	1430588	keystroke_h	h	n/a
716.659	0.09	1433318	keystroke_y	y	n/a
717.814	0.075	1435628	keystroke_g	g	n/a
718.174	0.06	1436348	keystroke_i	i	n/a
718.474	0.09	1436948	keystroke_e	e	n/a
718.879	0.06	1437758	keystroke_n	n	n/a
719.1345	0.075	1438269	keystroke_e	e	n/a
719.4345	0.075	1438869	keystroke_Key.space	Key.space	n/a
719.9445	0.075	1439889	keystroke_m	m	n/a
720.1245	0.0605	1440249	keystroke_e	e	n/a
720.319	0.06	1440638	keystroke_n	n	n/a
720.844	0.075	1441688	keystroke_t	t	n/a
721.114	0.105	1442228	keystroke_a	a	n/a
721.249	0.09	1442498	keystroke_l	l	n/a
721.399	0.135	1442798	keystroke_Key.space	Key.space	n/a
721.6845	0.06	1443369	keystroke_p	p	n/a
721.8645	0.105	1443729	keystroke_e	e	n/a
722.3595	0.135	1444719	keystroke_e	e	n/a
722.6295	0.09	1445259	keystroke_r	r	n/a
723.2145	0.09	1446429	keystroke_s	s	n/a
723.8895	0.045	1447779	keystroke_Key.enter	Key.enter	n/a
723.939	15.687	1447878	prompt	n/a	sustained seek bookings treatment\n
724.6395	0.105	1449279	keystroke_s	s	n/a
724.8945	0.075	1449789	keystroke_u	u	n/a
725.119	0.09	1450238	keystroke_s	s	n/a
725.8245	0.09	1451649	keystroke_t	t	n/a
726.1395	0.1045	1452279	keystroke_a	a	n/a
726.29	0.09	1452580	keystroke_i	i	n/a
726.485	0.09	1452970	keystroke_n	n	n/a
727.189	0.075	1454378	keystroke_e	e	n/a
727.399	0.09	1454798	keystroke_d	d	n/a
727.549	0.09	1455098	keystroke_Key.space	Key.space	n/a
727.774	0.075	1455548	keystroke_s	s	n/a
727.984	0.09	1455968	keystroke_e	e	n/a
728.134	0.105	1456268	keystroke_e	e	n/a
728.434	0.105	1456868	keystroke_k	k	n/a
728.674	0.105	1457348	keystroke_Key.space	Key.space	n/a
729.694	0.105	1459388	keystroke_b	b	n/a
730.0395	0.09	1460079	keystroke_o	o	n/a
730.2045	0.09	1460409	keystroke_o	o	n/a
730.5945	0.09	1461189	keystroke_k	k	n/a
731.2245	0.075	1462449	keystroke_i	i	n/a
731.4195	0.075	1462839	keystroke_n	n	n/a
731.5995	0.075	1463199	keystroke_g	g	n/a
731.9295	0.06	1463859	keystroke_s	s	n/a
732.0495	0.09	1464099	keystroke_Key.space	Key.space	n/a
732.3795	0.135	1464759	keystroke_t	t	n/a
732.724	0.075	1465448	keystroke_r	r	n/a
732.8445	0.06	1465689	keystroke_r	r	n/a
733.069	0.135	1466138	keystroke_e	e	n/a
734.5095	0.105	1469019	keystroke_Key.backspace	Key.backspace	n/a
735.079	0.0905	1470158	keystroke_Key.backspace	Key.backspace	n/a
736.3245	0.075	1472649	keystroke_e	e	n/a
736.5945	0.105	1473189	keystroke_a	a	n/a
736.9545	0.09	1473909	keystroke_t	t	n/a
738.0945	0.09	1476189	keystroke_m	m	n/a
738.3345	0.105	1476669	keystroke_e	e	n/a
738.5595	0.075	1477119	keystroke_n	n	n/a
738.8145	0.075	1477629	keystroke_t	t	n/a
739.5485	0.075	1479097	keystroke_Key.enter	Key.enter	n/a
739.629	11.3525	1479258	prompt	n/a	floors liquid sept animated\n
740.449	0.091	1480898	keystroke_f	f	n/a
740.809	0.09	1481618	keystroke_l	l	n/a
741.124	0.06	1482248	keystroke_o	o	n/a
741.259	0.09	1482518	keystroke_o	o	n/a
741.544	0.12	1483088	keystroke_r	r	n/a
742.189	0.09	1484378	keystroke_s	s	n/a
742.309	0.105	1484618	keystroke_Key.space	Key.space	n/a
742.609	0.12	1485218	keystroke_l	l	n/a
742.834	0.075	1485668	keystroke_i	i	n/a
743.7045	0.135	1487409	keystroke_q	q	n/a
745.039	0.09	1490078	keystroke_u	u	n/a
745.474	0.076	1490948	keystroke_i	i	n/a
745.834	0.075	1491668	keystroke_d	d	n/a
746.104	0.075	1492208	keystroke_Key.space	Key.space	n/a
746.809	0.105	1493618	keystroke_s	s	n/a
747.034	0.0755	1494068	keystroke_e	e	n/a
747.2445	0.075	1494489	keystroke_p	p	n/a
747.4845	0.0895	1494969	keystroke_t	t	n/a
747.649	0.06	1495298	keystroke_Key.space	Key.space	n/a
748.369	0.015	1496738	keystroke_a	a	n/a
748.429	0.06	1496858	keystroke_n	n	n/a
748.6395	0.075	1497279	keystroke_i	i	n/a
748.8795	0.09	1497759	keystroke_m	m	n/a
749.1645	0.075	1498329	keystroke_a	a	n/a
750.0195	0.09	1500039	keystroke_t	t	n/a
750.2445	0.09	1500489	keystroke_e	e	n/a
750.4845	0.12	1500969	keystroke_d	d	n/a
750.889	0.09	1501778	keystroke_Key.enter	Key.enter	n/a
750.9855	24.1905	1501971	prompt	n/a	refinance glance palace engineering\n
751.865	0.105	1503730	keystroke_r	r	n/a
752.09	0.105	1504180	keystroke_e	e	n/a
752.39	0.09	1504780	keystroke_f	f	n/a
752.585	0.06	1505170	keystroke_i	i	n/a
753.4695	0.06	1506939	keystroke_n	n	n/a
754.489	0.045	1508978	keystroke_a	a	n/a
755.404	0.045	1510808	keystroke_n	n	n/a
755.629	0.075	1511258	keystroke_c	c	n/a
755.929	0.075	1511858	keystroke_e	e	n/a
756.274	0.09	1512548	keystroke_Key.space	Key.space	n/a
756.649	0.0905	1513298	keystroke_g	g	n/a
756.814	0.105	1513628	keystroke_l	l	n/a
757.0995	0.105	1514199	keystroke_a	a	n/a
758.0445	0.06	1516089	keystroke_n	n	n/a
759.274	0.045	1518548	keystroke_c	c	n/a
759.6795	0.075	1519359	keystroke_e	e	n/a
759.9945	0.075	1519989	keystroke_Key.space	Key.space	n/a
760.6695	0.105	1521339	keystroke_p	p	n/a
761.4045	0.1055	1522809	keystroke_a	a	n/a
762.349	0.105	1524698	keystroke_l	l	n/a
762.604	0.105	1525208	keystroke_a	a	n/a
763.4445	0.015	1526889	keystroke_n	n	n/a
764.1945	0.0605	1528389	keystroke_Key.backspace	Key.backspace	n/a
764.45	0.075	1528900	keystroke_c	c	n/a
764.75	0.06	1529500	keystroke_e	e	n/a
765.454	0.105	1530908	keystroke_Key.space	Key.space	n/a
766.234	0.135	1532468	keystroke_e	e	n/a
767.089	0.075	1534178	keystroke_n	n	n/a
767.359	0.09	1534718	keystroke_g	g	n/a
768.4545	0.09	1536909	keystroke_i	i	n/a
768.7395	0.09	1537479	keystroke_n	n	n/a
768.9045	0.105	1537809	keystroke_n	n	n/a
770.1945	0.09	1540389	keystroke_Key.backspace	Key.backspace	n/a
770.7495	0.09	1541499	keystroke_e	e	n/a
771.6795	0.105	1543359	keystroke_e	e	n/a
771.979	0.09	1543958	keystroke_r	r	n/a
772.1595	0.0745	1544319	keystroke_i	i	n/a
772.4295	0.075	1544859	keystroke_n	n	n/a
773.0145	0.075	1546029	keystroke_g	g	n/a
775.166	0.008	1550332	keystroke_Key.enter	Key.enter	n/a
775.1795	18.6115	1550359	prompt	n/a	topic patients mark windsor\n
776.044	0.09	1552088	keystroke_t	t	n/a
776.1945	0.105	1552389	keystroke_o	o	n/a
776.4645	0.105	1552929	keystroke_p	p	n/a
776.7345	0.105	1553469	keystroke_o	o	n/a
777.4245	0.075	1554849	keystroke_Key.backspace	Key.backspace	n/a
778.055	0.045	1556110	keystroke_i	i	n/a
778.205	0.09	1556410	keystroke_c	c	n/a
778.67	0.09	1557340	keystroke_Key.space	Key.space	n/a
779.1195	0.075	1558239	keystroke_p	p	n/a
779.2995	0.09	1558599	keystroke_a	a	n/a
779.6745	0.09	1559349	keystroke_t	t	n/a
779.8695	0.09	1559739	keystroke_i	i	n/a
780.7395	0.075	1561479	keystroke_e	e	n/a
780.8745	0.06	1561749	keystroke_n	n	n/a
781.2045	0.12	1562409	keystroke_t	t	n/a
781.594	0.046	1563188	keystroke_s	s	n/a
781.7	0.09	1563400	keystroke_Key.space	Key.space	n/a
782.15	0.074	1564300	keystroke_m	m	n/a
782.345	0.119	1564690	keystroke_a	a	n/a
782.72	0.09	1565440	keystroke_r	r	n/a
782.9	0.059	1565800	keystroke_k	k	n/a
783.574	0.09	1567148	keystroke_Key.space	Key.space	n/a
784.5795	0.015	1569159	keystroke_w	w	n/a
784.669	0.06	1569338	keystroke_i	i	n/a
785.2245	0.06	1570449	keystroke_n	n	n/a
786.0045	0.09	1572009	keystroke_d	d	n/a
786.814	0.091	1573628	keystroke_s	s	n/a
786.979	0.0905	1573958	keystroke_o	o	n/a
788.465	0.09	1576930	keystroke_r	r	n/a
793.747	0.042	1587494	keystroke_Key.enter	Key.enter	n/a
793.794	29.847	1587588	prompt	n/a	nonprofit missing excitement infection\n
794.719	0.075	1589438	keystroke_n	n	n/a
794.914	0.105	1589828	keystroke_o	o	n/a
795.1545	0.06	1590309	keystroke_n	n	n/a
795.875	0.1645	1591750	keystroke_p	p	n/a
796.34	0.0895	1592680	keystroke_r	r	n/a
796.535	0.0745	1593070	keystroke_o	o	n/a
797.1345	0.12	1594269	keystroke_g	g	n/a
797.5095	0.09	1595019	keystroke_i	i	n/a
797.9145	0.045	1595829	keystroke_t	t	n/a
799.4295	0.09	1598859	keystroke_Key.backspace	Key.backspace	n/a
800.1045	0.105	1600209	keystroke_Key.backspace	Key.backspace	n/a
800.795	0.09	1601590	keystroke_Key.backspace	Key.backspace	n/a
801.634	0.09	1603268	keystroke_f	f	n/a
801.784	0.09	1603568	keystroke_i	i	n/a
802.024	0.09	1604048	keystroke_t	t	n/a
803.389	0.135	1606778	keystroke_Key.space	Key.space	n/a
803.7345	0.09	1607469	keystroke_m	m	n/a
804.0195	0.075	1608039	keystroke_i	i	n/a
804.305	0.0895	1608610	keystroke_s	s	n/a
804.4845	0.105	1608969	keystroke_s	s	n/a
804.6345	0.075	1609269	keystroke_i	i	n/a
804.8145	0.075	1609629	keystroke_n	n	n/a
804.9945	0.09	1609989	keystroke_g	g	n/a
805.3545	0.09	1610709	keystroke_Key.space	Key.space	n/a
806.0145	0.075	1612029	keystroke_e	e	n/a
806.42	0.09	1612840	keystroke_x	x	n/a
808.0095	0.0605	1616019	keystroke_c	c	n/a
808.2345	0.06	1616469	keystroke_i	i	n/a
808.58	0.0895	1617160	keystroke_t	t	n/a
809.8395	0.09	1619679	keystroke_e	e	n/a
810.3645	0.06	1620729	keystroke_m	m	n/a
810.5895	0.09	1621179	keystroke_e	e	n/a
810.7845	0.06	1621569	keystroke_n	n	n/a
811.01	0.0895	1622020	keystroke_t	t	n/a
811.4295	0.105	1622859	keystroke_Key.space	Key.space	n/a
811.879	0.076	1623758	keystroke_i	i	n/a
812.39	0.075	1624780	keystroke_f	f	n/a
814.3395	0.105	1628679	keystroke_Key.backspace	Key.backspace	n/a
814.9545	0.105	1629909	keystroke_n	n	n/a
815.2245	0.075	1630449	keystroke_f	f	n/a
816.7545	0.105	1633509	keystroke_e	e	n/a
818.7045	0.165	1637409	keystroke_c	c	n/a
819.5745	0.075	1639149	keystroke_t	t	n/a
819.7395	0.075	1639479	keystroke_u	u	n/a
820.0095	0.045	1640019	keystroke_o	o	n/a
820.7745	0.03	1641549	keystroke_Key.backspace	Key.backspace	n/a
820.9995	0.135	1641999	keystroke_Key.backspace	Key.backspace	n/a
822.3045	0.12	1644609	keystroke_i	i	n/a
822.4545	0.1355	1644909	keystroke_o	o	n/a
822.6795	0.12	1645359	keystroke_n	n	n/a
823.5495	0.09	1647099	keystroke_Key.enter	Key.enter	n/a
823.644	15.6575	1647288	prompt	n/a	rainbow fusion joel indicators\n
824.6295	0.105	1649259	keystroke_r	r	n/a
824.9295	0.12	1649859	keystroke_a	a	n/a
825.1845	0.075	1650369	keystroke_i	i	n/a
826.0695	0.075	1652139	keystroke_n	n	n/a
826.5645	0.105	1653129	keystroke_b	b	n/a
826.7745	0.09	1653549	keystroke_o	o	n/a
827.074	0.105	1654148	keystroke_w	w	n/a
827.269	0.12	1654538	keystroke_Key.space	Key.space	n/a
827.944	0.12	1655888	keystroke_d	d	n/a
828.529	0.0755	1657058	keystroke_Key.backspace	Key.backspace	n/a
828.844	0.0755	1657688	keystroke_f	f	n/a
829.0695	0.075	1658139	keystroke_u	u	n/a
829.34	0.12	1658680	keystroke_s	s	n/a
829.655	0.105	1659310	keystroke_i	i	n/a
829.835	0.105	1659670	keystroke_o	o	n/a
830.72	0.105	1661440	keystroke_n	n	n/a
830.99	0.0895	1661980	keystroke_Key.space	Key.space	n/a
831.2595	0.135	1662519	keystroke_j	j	n/a
831.9345	0.105	1663869	keystroke_o	o	n/a
832.3695	0.09	1664739	keystroke_e	e	n/a
832.5345	0.105	1665069	keystroke_l	l	n/a
833.239	0.061	1666478	keystroke_Key.space	Key.space	n/a
833.5695	0.0455	1667139	keystroke_i	i	n/a
833.765	0.06	1667530	keystroke_n	n	n/a
833.975	0.105	1667950	keystroke_d	d	n/a
835.4595	0.06	1670919	keystroke_i	i	n/a
835.8195	0.12	1671639	keystroke_c	c	n/a
836.1195	0.12	1672239	keystroke_a	a	n/a
836.4645	0.09	1672929	keystroke_t	t	n/a
837.1245	0.075	1674249	keystroke_o	o	n/a
837.4245	0.0905	1674849	keystroke_r	r	n/a
837.86	0.0595	1675720	keystroke_s	s	n/a
839.2245	0.0755	1678449	keystroke_Key.enter	Key.enter	n/a
839.3045	14.232	1678609	prompt	n/a	seems corps badge measured\n
840.1995	0.12	1680399	keystroke_s	s	n/a
840.4845	0.075	1680969	keystroke_e	e	n/a
840.6495	0.09	1681299	keystroke_e	e	n/a
840.9345	0.09	1681869	keystroke_m	m	n/a
841.7145	0.075	1683429	keystroke_s	s	n/a
841.8645	0.09	1683729	keystroke_Key.space	Key.space	n/a
842.2395	0.09	1684479	keystroke_c	c	n/a
842.3895	0.09	1684779	keystroke_o	o	n/a
842.7945	0.105	1685589	keystroke_r	r	n/a
843.619	0.016	1687238	keystroke_p	p	n/a
843.7545	0.09	1687509	keystroke_s	s	n/a
843.9345	0.105	1687869	keystroke_Key.space	Key.space	n/a
844.445	0.12	1688890	keystroke_b	b	n/a
844.715	0.1345	1689430	keystroke_a	a	n/a
845.1345	0.15	1690269	keystroke_g	g	n/a
846.17	0.09	1692340	keystroke_Key.backspace	Key.backspace	n/a
846.74	0.1795	1693480	keystroke_d	d	n/a
847.28	0.105	1694560	keystroke_f	f	n/a
848.105	0.09	1696210	keystroke_Key.backspace	Key.backspace	n/a
848.36	0.1045	1696720	keystroke_g	g	n/a
849.1695	0.075	1698339	keystroke_e	e	n/a
849.3495	0.075	1698699	keystroke_Key.space	Key.space	n/a
849.755	0.09	1699510	keystroke_m	m	n/a
849.89	0.09	1699780	keystroke_e	e	n/a
850.22	0.015	1700440	keystroke_a	a	n/a
851.3295	0.12	1702659	keystroke_s	s	n/a
852.1695	0.075	1704339	keystroke_u	u	n/a
852.4995	0.105	1704999	keystroke_r	r	n/a
852.7545	0.09	1705509	keystroke_e	e	n/a
853.0095	0.09	1706019	keystroke_d	d	n/a
853.46	0.075	1706920	keystroke_Key.enter	Key.enter	n/a
853.542	12.8495	1707084	prompt	n/a	paint times representations different\n
854.375	0.12	1708750	keystroke_p	p	n/a
854.54	0.105	1709080	keystroke_a	a	n/a
854.69	0.105	1709380	keystroke_i	i	n/a
855.14	0.0895	1710280	keystroke_n	n	n/a
855.4245	0.06	1710849	keystroke_t	t	n/a
855.6345	0.09	1711269	keystroke_Key.space	Key.space	n/a
856.2045	0.075	1712409	keystroke_t	t	n/a
856.2945	0.105	1712589	keystroke_i	i	n/a
856.5195	0.09	1713039	keystroke_m	m	n/a
856.6545	0.09	1713309	keystroke_e	e	n/a
856.9395	0.075	1713879	keystroke_s	s	n/a
857.0745	0.075	1714149	keystroke_Key.space	Key.space	n/a
857.6295	0.105	1715259	keystroke_r	r	n/a
857.8695	0.09	1715739	keystroke_e	e	n/a
858.0795	0.09	1716159	keystroke_p	p	n/a
858.3495	0.09	1716699	keystroke_r	r	n/a
858.5745	0.0905	1717149	keystroke_e	e	n/a
859.25	0.12	1718500	keystroke_s	s	n/a
859.865	0.2845	1719730	keystroke_e	e	n/a
860.1945	0.06	1720389	keystroke_n	n	n/a
860.6595	0.075	1721319	keystroke_t	t	n/a
861.1695	0.105	1722339	keystroke_a	a	n/a
861.6195	0.075	1723239	keystroke_t	t	n/a
861.7545	0.09	1723509	keystroke_i	i	n/a
861.9045	0.12	1723809	keystroke_o	o	n/a
862.7745	0.06	1725549	keystroke_n	n	n/a
863.015	0.105	1726030	keystroke_s	s	n/a
863.195	0.09	1726390	keystroke_Key.space	Key.space	n/a
863.57	0.09	1727140	keystroke_d	d	n/a
863.69	0.09	1727380	keystroke_i	i	n/a
863.93	0.105	1727860	keystroke_f	f	n/a
864.125	0.12	1728250	keystroke_f	f	n/a
864.5	0.105	1729000	keystroke_e	e	n/a
864.755	0.12	1729510	keystroke_r	r	n/a
865.01	0.105	1730020	keystroke_e	e	n/a
865.265	0.075	1730530	keystroke_n	n	n/a
865.625	0.09	1731250	keystroke_t	t	n/a
866.2995	0.09	1732599	keystroke_Key.enter	Key.enter	n/a
866.3945	15.657	1732789	prompt	n/a	genesis introduces cosmetics rounds\n
867.3045	0.09	1734609	keystroke_g	g	n/a
867.6045	0.12	1735209	keystroke_e	e	n/a
867.7995	0.09	1735599	keystroke_n	n	n/a
868.4145	0.06	1736829	keystroke_e	e	n/a
869.3	0.105	1738600	keystroke_s	s	n/a
869.45	0.075	1738900	keystroke_i	i	n/a
869.75	0.015	1739500	keystroke_s	s	n/a
869.9	0.105	1739800	keystroke_Key.space	Key.space	n/a
870.5	0.075	1741000	keystroke_i	i	n/a
870.71	0.105	1741420	keystroke_n	n	n/a
871.2045	0.105	1742409	keystroke_d	d	n/a
872.3145	0.12	1744629	keystroke_Key.backspace	Key.backspace	n/a
873.02	0.09	1746040	keystroke_t	t	n/a
873.38	0.105	1746760	keystroke_r	r	n/a
873.665	0.0905	1747330	keystroke_o	o	n/a
873.9055	0.1195	1747811	keystroke_d	d	n/a
874.145	0.09	1748290	keystroke_u	u	n/a
874.4595	0.075	1748919	keystroke_c	c	n/a
874.7295	0.075	1749459	keystroke_e	e	n/a
874.9995	0.0905	1749999	keystroke_s	s	n/a
875.4795	0.105	1750959	keystroke_Key.space	Key.space	n/a
875.915	0.105	1751830	keystroke_c	c	n/a
876.065	0.105	1752130	keystroke_o	o	n/a
876.905	0.12	1753810	keystroke_s	s	n/a
877.49	0.03	1754980	keystroke_m	m	n/a
877.655	0.09	1755310	keystroke_e	e	n/a
877.955	0.075	1755910	keystroke_t	t	n/a
878.15	0.075	1756300	keystroke_i	i	n/a
878.375	0.0895	1756750	keystroke_c	c	n/a
879.4245	0.06	1758849	keystroke_s	s	n/a
879.5445	0.09	1759089	keystroke_Key.space	Key.space	n/a
879.8895	0.09	1759779	keystroke_r	r	n/a
880.0695	0.106	1760139	keystroke_o	o	n/a
880.2795	0.075	1760559	keystroke_u	u	n/a
880.5055	0.074	1761011	keystroke_n	n	n/a
880.6995	0.09	1761399	keystroke_d	d	n/a
881.6595	0.09	1763319	keystroke_s	s	n/a
881.9595	0.09	1763919	keystroke_Key.enter	Key.enter	n/a
882.055	14.8315	1764110	prompt	n/a	blow violation shipped ferrari\n
882.9505	0.1045	1765901	keystroke_b	b	n/a
883.13	0.09	1766260	keystroke_l	l	n/a
883.4	0.045	1766800	keystroke_o	o	n/a
883.76	0.06	1767520	keystroke_w	w	n/a
883.91	0.075	1767820	keystroke_Key.space	Key.space	n/a
885.455	0.105	1770910	keystroke_v	v	n/a
886.0695	0.09	1772139	keystroke_i	i	n/a
886.9845	0.075	1773969	keystroke_o	o	n/a
888.1695	0.21	1776339	keystroke_l	l	n/a
888.3945	0.075	1776789	keystroke_a	a	n/a
888.6795	0.075	1777359	keystroke_t	t	n/a
888.7845	0.0905	1777569	keystroke_i	i	n/a
888.95	0.1345	1777900	keystroke_o	o	n/a
889.595	0.1055	1779190	keystroke_n	n	n/a
889.8955	0.1195	1779791	keystroke_Key.space	Key.space	n/a
890.18	0.105	1780360	keystroke_s	s	n/a
890.3	0.09	1780600	keystroke_h	h	n/a
890.795	0.1345	1781590	keystroke_i	i	n/a
891.23	0.075	1782460	keystroke_p	p	n/a
891.395	0.12	1782790	keystroke_p	p	n/a
891.845	0.09	1783690	keystroke_e	e	n/a
892.1	0.105	1784200	keystroke_d	d	n/a
892.28	0.075	1784560	keystroke_Key.space	Key.space	n/a
892.5945	0.12	1785189	keystroke_f	f	n/a
892.8945	0.15	1785789	keystroke_e	e	n/a
893.87	0.1205	1787740	keystroke_r	r	n/a
894.0805	0.105	1788161	keystroke_r	r	n/a
894.815	0.09	1789630	keystroke_a	a	n/a
895.34	0.09	1790680	keystroke_r	r	n/a
895.94	0.075	1791880	keystroke_i	i	n/a
896.795	0.09	1793590	keystroke_Key.enter	Key.enter	n/a
896.89	12.0715	1793780	prompt	n/a	city soviet peace villages\n
897.7095	0.09	1795419	keystroke_c	c	n/a
897.8595	0.06	1795719	keystroke_i	i	n/a
898.0995	0.075	1796199	keystroke_t	t	n/a
898.2345	0.075	1796469	keystroke_y	y	n/a
898.4745	0.09	1796949	keystroke_Key.space	Key.space	n/a
899.2395	0.06	1798479	keystroke_s	s	n/a
899.3145	0.015	1798629	keystroke_o	o	n/a
899.5995	0.06	1799199	keystroke_v	v	n/a
900.4705	0.075	1800941	keystroke_i	i	n/a
900.6505	0.12	1801301	keystroke_e	e	n/a
901.0105	0.045	1802021	keystroke_y	y	n/a
902.15	0.075	1804300	keystroke_Key.backspace	Key.backspace	n/a
902.51	0.06	1805020	keystroke_t	t	n/a
902.675	0.09	1805350	keystroke_Key.space	Key.space	n/a
903.5745	0.12	1807149	keystroke_p	p	n/a
903.7995	0.075	1807599	keystroke_e	e	n/a
904.0695	0.09	1808139	keystroke_a	a	n/a
904.8345	0.045	1809669	keystroke_c	c	n/a
905.0445	0.0755	1810089	keystroke_e	e	n/a
905.2995	0.075	1810599	keystroke_Key.space	Key.space	n/a
905.7345	0.12	1811469	keystroke_v	v	n/a
906.0345	0.12	1812069	keystroke_i	i	n/a
906.6045	0.015	1813209	keystroke_l	l	n/a
906.6645	0.105	1813329	keystroke_l	l	n/a
907.3245	0.09	1814649	keystroke_a	a	n/a
907.6995	0.09	1815399	keystroke_g	g	n/a
907.9995	0.09	1815999	keystroke_e	e	n/a
908.2995	0.106	1816599	keystroke_s	s	n/a
908.9005	0.06	1817801	keystroke_Key.enter	Key.enter	n/a
908.9645	24.462	1817929	prompt	n/a	displaying techniques runner triangle\n
909.9355	0.074	1819871	keystroke_d	d	n/a
910.4145	0.075	1820829	keystroke_i	i	n/a
910.6695	0.09	1821339	keystroke_s	s	n/a
912.32	0.135	1824640	keystroke_p	p	n/a
912.635	0.06	1825270	keystroke_l	l	n/a
913.49	0.075	1826980	keystroke_a	a	n/a
913.64	0.0755	1827280	keystroke_y	y	n/a
914.15	0.045	1828300	keystroke_i	i	n/a
916.8525	0.012	1833705	keystroke_n	n	n/a
916.9845	0.075	1833969	keystroke_g	g	n/a
917.1495	0.075	1834299	keystroke_Key.space	Key.space	n/a
918.305	0.21	1836610	keystroke_t	t	n/a
918.53	0.045	1837060	keystroke_e	e	n/a
918.695	0.105	1837390	keystroke_c	c	n/a
918.92	0.075	1837840	keystroke_h	h	n/a
919.82	0.09	1839640	keystroke_n	n	n/a
920.09	0.09	1840180	keystroke_i	i	n/a
920.57	0.0895	1841140	keystroke_q	q	n/a
920.7045	0.105	1841409	keystroke_u	u	n/a
921.2145	0.09	1842429	keystroke_e	e	n/a
921.7545	0.105	1843509	keystroke_s	s	n/a
922.0095	0.09	1844019	keystroke_Key.space	Key.space	n/a
922.34	0.075	1844680	keystroke_r	r	n/a
922.475	0.075	1844950	keystroke_u	u	n/a
922.745	0.06	1845490	keystroke_n	n	n/a
922.88	0.09	1845760	keystroke_n	n	n/a
923.105	0.15	1846210	keystroke_e	e	n/a
923.405	0.075	1846810	keystroke_r	r	n/a
923.555	0.075	1847110	keystroke_Key.space	Key.space	n/a
923.93	0.09	1847860	keystroke_t	t	n/a
924.665	0.075	1849330	keystroke_r	r	n/a
925.04	0.0895	1850080	keystroke_a	a	n/a
925.6545	0.105	1851309	keystroke_i	i	n/a
927.0495	0.105	1854099	keystroke_Key.backspace	Key.backspace	n/a
927.6795	0.105	1855359	keystroke_Key.backspace	Key.backspace	n/a
928.6395	0.09	1857279	keystroke_i	i	n/a
928.91	0.075	1857820	keystroke_a	a	n/a
929.105	0.06	1858210	keystroke_n	n	n/a
929.705	0.09	1859410	keystroke_g	g	n/a
931.7905	0.0745	1863581	keystroke_l	l	n/a
932.045	0.075	1864090	keystroke_e	e	n/a
933.335	0.09	1866670	keystroke_Key.enter	Key.enter	n/a
933.4295	22.3165	1866859	prompt	n/a	nextel tablet holding exchange\n
934.3095	0.105	1868619	keystroke_n	n	n/a
934.4595	0.09	1868919	keystroke_e	e	n/a
935.0295	0.151	1870059	keystroke_x	x	n/a
935.8095	0.075	1871619	keystroke_t	t	n/a
936.095	0.0895	1872190	keystroke_e	e	n/a
936.2895	0.09	1872579	keystroke_l	l	n/a
936.5295	0.075	1873059	keystroke_Key.space	Key.space	n/a
936.7995	0.045	1873599	keystroke_r	r	n/a
938.09	0.06	1876180	keystroke_t	t	n/a
939.14	0.135	1878280	keystroke_Key.backspace	Key.backspace	n/a
939.59	0.105	1879180	keystroke_Key.backspace	Key.backspace	n/a
940.325	0.09	1880650	keystroke_t	t	n/a
940.655	0.09	1881310	keystroke_a	a	n/a
940.97	0.0895	1881940	keystroke_b	b	n/a
941.3445	0.105	1882689	keystroke_e	e	n/a
941.5095	0.075	1883019	keystroke_l	l	n/a
942.6795	0.12	1885359	keystroke_Key.backspace	Key.backspace	n/a
943.1745	0.09	1886349	keystroke_Key.backspace	Key.backspace	n/a
943.8045	0.105	1887609	keystroke_l	l	n/a
943.9845	0.12	1887969	keystroke_e	e	n/a
944.2845	0.075	1888569	keystroke_t	t	n/a
944.8845	0.045	1889769	keystroke_Key.space	Key.space	n/a
945.2145	0.12	1890429	keystroke_h	h	n/a
945.4395	0.105	1890879	keystroke_o	o	n/a
945.6645	0.09	1891329	keystroke_l	l	n/a
945.8595	0.09	1891719	keystroke_d	d	n/a
945.9955	0.075	1891991	keystroke_i	i	n/a
946.1755	0.09	1892351	keystroke_n	n	n/a
946.3095	0.09	1892619	keystroke_g	g	n/a
947.06	0.075	1894120	keystroke_Key.space	Key.space	n/a
947.345	0.0895	1894690	keystroke_e	e	n/a
947.6895	0.12	1895379	keystroke_x	x	n/a
947.945	0.075	1895890	keystroke_h	h	n/a
949.385	0.09	1898770	keystroke_Key.backspace	Key.backspace	n/a
949.82	0.09	1899640	keystroke_c	c	n/a
949.985	0.075	1899970	keystroke_h	h	n/a
950.315	0.105	1900630	keystroke_a	a	n/a
950.66	0.12	1901320	keystroke_g	g	n/a
952.0995	0.075	1904199	keystroke_Key.backspace	Key.backspace	n/a
952.8345	0.0755	1905669	keystroke_n	n	n/a
953.06	0.075	1906120	keystroke_g	g	n/a
953.3	0.075	1906600	keystroke_e	e	n/a
953.63	0.075	1907260	keystroke_Key.space	Key.space	n/a
954.98	0.0895	1909960	keystroke_Key.backspace	Key.backspace	n/a
955.6545	0.0905	1911309	keystroke_Key.enter	Key.enter	n/a
955.7495	10.032	1911499	prompt	n/a	cheaper skilled park produce\n
957.5145	0.075	1915029	keystroke_c	c	n/a
957.6045	0.075	1915209	keystroke_h	h	n/a
957.8445	0.075	1915689	keystroke_e	e	n/a
958.1145	0.075	1916229	keystroke_a	a	n/a
958.2645	0.09	1916529	keystroke_p	p	n/a
958.6545	0.105	1917309	keystroke_e	e	n/a
958.9395	0.075	1917879	keystroke_r	r	n/a
959.0895	0.105	1918179	keystroke_Key.space	Key.space	n/a
959.8395	0.09	1919679	keystroke_s	s	n/a
959.9745	0.09	1919949	keystroke_k	k	n/a
960.1855	0.074	1920371	keystroke_i	i	n/a
960.4095	0.0905	1920819	keystroke_l	l	n/a
960.56	0.09	1921120	keystroke_l	l	n/a
960.755	0.09	1921510	keystroke_e	e	n/a
961.0545	0.076	1922109	keystroke_d	d	n/a
961.2205	0.089	1922441	keystroke_Key.space	Key.space	n/a
961.655	0.075	1923310	keystroke_p	p	n/a
961.82	0.12	1923640	keystroke_a	a	n/a
962.105	0.09	1924210	keystroke_r	r	n/a
962.315	0.09	1924630	keystroke_k	k	n/a
962.54	0.105	1925080	keystroke_Key.space	Key.space	n/a
963.0945	0.09	1926189	keystroke_p	p	n/a
963.3045	0.075	1926609	keystroke_r	r	n/a
963.4845	0.045	1926969	keystroke_o	o	n/a
963.7845	0.075	1927569	keystroke_d	d	n/a
963.9945	0.075	1927989	keystroke_u	u	n/a
964.2495	0.1055	1928499	keystroke_c	c	n/a
964.55	0.0905	1929100	keystroke_e	e	n/a
965.69	0.09	1931380	keystroke_Key.enter	Key.enter	n/a
965.7845	21.057	1931569	prompt	n/a	horizontal simplified entrance family\n
966.725	0.09	1933450	keystroke_h	h	n/a
966.95	0.0895	1933900	keystroke_o	o	n/a
967.3245	0.075	1934649	keystroke_r	r	n/a
967.8645	0.045	1935729	keystroke_i	i	n/a
968.1495	0.15	1936299	keystroke_z	z	n/a
969.4695	0.12	1938939	keystroke_o	o	n/a
969.7245	0.06	1939449	keystroke_n	n	n/a
970.1145	0.075	1940229	keystroke_t	t	n/a
970.4445	0.075	1940889	keystroke_a	a	n/a
970.5645	0.105	1941129	keystroke_l	l	n/a
970.8045	0.075	1941609	keystroke_Key.space	Key.space	n/a
971.0745	0.075	1942149	keystroke_s	s	n/a
971.1945	0.075	1942389	keystroke_i	i	n/a
971.4945	0.12	1942989	keystroke_m	m	n/a
971.9295	0.135	1943859	keystroke_p	p	n/a
972.9495	0.075	1945899	keystroke_f	f	n/a
974.9745	0.105	1949949	keystroke_Key.backspace	Key.backspace	n/a
975.8755	0.09	1951751	keystroke_l	l	n/a
976.7305	0.045	1953461	keystroke_i	i	n/a
977.2245	0.091	1954449	keystroke_f	f	n/a
977.4045	0.075	1954809	keystroke_i	i	n/a
977.7355	0.075	1955471	keystroke_e	e	n/a
978.2445	0.06	1956489	keystroke_d	d	n/a
979.7145	0.075	1959429	keystroke_Key.space	Key.space	n/a
980.0595	0.09	1960119	keystroke_e	e	n/a
980.1945	0.105	1960389	keystroke_n	n	n/a
981.2895	0.105	1962579	keystroke_t	t	n/a
981.6195	0.105	1963239	keystroke_r	r	n/a
981.9645	0.1055	1963929	keystroke_a	a	n/a
982.175	0.06	1964350	keystroke_n	n	n/a
982.445	0.09	1964890	keystroke_c	c	n/a
982.775	0.105	1965550	keystroke_e	e	n/a
983.5695	0.105	1967139	keystroke_Key.space	Key.space	n/a
983.6895	0.091	1967379	keystroke_f	f	n/a
983.9745	0.075	1967949	keystroke_a	a	n/a
984.1245	0.075	1968249	keystroke_m	m	n/a
984.4845	0.09	1968969	keystroke_i	i	n/a
984.725	0.1345	1969450	keystroke_l	l	n/a
985.4	0.105	1970800	keystroke_y	y	n/a
986.765	0.075	1973530	keystroke_Key.enter	Key.enter	n/a
986.845	15.9865	1973690	prompt	n/a	continue darkness dvds does\n
987.7555	0.0895	1975511	keystroke_c	c	n/a
987.9055	0.0735	1975811	keystroke_o	o	n/a
988.16	0.0755	1976320	keystroke_n	n	n/a
990.11	0.075	1980220	keystroke_t	t	n/a
990.83	0.105	1981660	keystroke_i	i	n/a
992.45	0.075	1984900	keystroke_n	n	n/a
992.765	0.075	1985530	keystroke_u	u	n/a
993.35	0.165	1986700	keystroke_e	e	n/a
993.605	0.075	1987210	keystroke_Key.space	Key.space	n/a
994.64	0.09	1989280	keystroke_d	d	n/a
995.015	0.12	1990030	keystroke_a	a	n/a
995.36	0.09	1990720	keystroke_r	r	n/a
995.585	0.06	1991170	keystroke_k	k	n/a
996.3495	0.061	1992699	keystroke_n	n	n/a
996.6805	0.075	1993361	keystroke_e	e	n/a
996.9945	0.0755	1993989	keystroke_s	s	n/a
997.175	0.09	1994350	keystroke_s	s	n/a
997.49	0.075	1994980	keystroke_Key.space	Key.space	n/a
998.105	0.09	1996210	keystroke_d	d	n/a
998.21	0.015	1996420	keystroke_i	i	n/a
998.93	0.1045	1997860	keystroke_Key.backspace	Key.backspace	n/a
999.2445	0.105	1998489	keystroke_v	v	n/a
999.905	0.075	1999810	keystroke_d	d	n/a
1000.205	0.09	2000410	keystroke_s	s	n/a
1000.715	0.1205	2001430	keystroke_Key.space	Key.space	n/a
1001.105	0.09	2002210	keystroke_d	d	n/a
1001.27	0.09	2002540	keystroke_o	o	n/a
1001.7055	0.09	2003411	keystroke_e	e	n/a
1001.9605	0.105	2003921	keystroke_s	s	n/a
1002.77	0.06	2005540	keystroke_Key.enter	Key.enter	n/a
1002.8345	22.842	2005669	prompt	n/a	restored hearings furnished commonwealth\n
1003.9405	0.06	2007881	keystroke_r	r	n/a
1004.1505	0.135	2008301	keystroke_e	e	n/a
1004.4205	0.135	2008841	keystroke_s	s	n/a
1005.2605	0.075	2010521	keystroke_t	t	n/a
1006.16	0.075	2012320	keystroke_o	o	n/a
1006.4	0.105	2012800	keystroke_r	r	n/a
1006.6545	0.075	2013309	keystroke_e	e	n/a
1007.5545	0.075	2015109	keystroke_d	d	n/a
1007.7645	0.06	2015529	keystroke_Key.space	Key.space	n/a
1008.0645	0.09	2016129	keystroke_h	h	n/a
1008.3045	0.09	2016609	keystroke_e	e	n/a
1009.295	0.105	2018590	keystroke_a	a	n/a
1010.3445	0.09	2020689	keystroke_r	r	n/a
1010.5845	0.075	2021169	keystroke_i	i	n/a
1010.8095	0.09	2021619	keystroke_n	n	n/a
1010.9755	0.0895	2021951	keystroke_g	g	n/a
1011.7845	0.075	2023569	keystroke_s	s	n/a
1011.9345	0.105	2023869	keystroke_Key.space	Key.space	n/a
1012.5345	0.075	2025069	keystroke_f	f	n/a
1012.7745	0.075	2025549	keystroke_u	u	n/a
1013.854	0.0755	2027708	keystroke_r	r	n/a
1014.0795	0.075	2028159	keystroke_n	n	n/a
1015.625	0.075	2031250	keystroke_i	i	n/a
1016.285	0.075	2032570	keystroke_s	s	n/a
1016.48	0.0755	2032960	keystroke_h	h	n/a
1016.7655	0.09	2033531	keystroke_e	e	n/a
1017.0205	0.0895	2034041	keystroke_d	d	n/a
1017.47	0.075	2034940	keystroke_Key.space	Key.space	n/a
1018.37	0.12	2036740	keystroke_c	c	n/a
1018.55	0.105	2037100	keystroke_o	o	n/a
1018.805	0.0895	2037610	keystroke_m	m	n/a
1018.9695	0.105	2037939	keystroke_m	m	n/a
1019.2245	0.105	2038449	keystroke_o	o	n/a
1019.8845	0.075	2039769	keystroke_n	n	n/a
1020.335	0.105	2040670	keystroke_w	w	n/a
1020.71	0.12	2041420	keystroke_a	a	n/a
1021.7745	0.105	2043549	keystroke_Key.backspace	Key.backspace	n/a
1022.3595	0.09	2044719	keystroke_e	e	n/a
1022.945	0.06	2045890	keystroke_a	a	n/a
1024.37	0.015	2048740	keystroke_l	l	n/a
1024.715	0.075	2049430	keystroke_t	t	n/a
1024.85	0.09	2049700	keystroke_h	h	n/a
1025.5995	0.075	2051199	keystroke_Key.enter	Key.enter	n/a
1025.681	14.4855	2051362	prompt	n/a	days dedicated soft luxury\n
1026.4995	0.1055	2052999	keystroke_d	d	n/a
1026.7995	0.06	2053599	keystroke_a	a	n/a
1026.935	0.0755	2053870	keystroke_y	y	n/a
1027.2955	0.105	2054591	keystroke_s	s	n/a
1027.4605	0.09	2054921	keystroke_Key.space	Key.space	n/a
1027.9855	0.075	2055971	keystroke_d	d	n/a
1028.2105	0.09	2056421	keystroke_e	e	n/a
1028.8705	0.09	2057741	keystroke_d	d	n/a
1029.68	0.06	2059360	keystroke_i	i	n/a
1029.875	0.09	2059750	keystroke_c	c	n/a
1030.2205	0.12	2060441	keystroke_a	a	n/a
1030.565	0.105	2061130	keystroke_t	t	n/a
1030.88	0.075	2061760	keystroke_e	e	n/a
1031.555	0.0905	2063110	keystroke_d	d	n/a
1031.8555	0.12	2063711	keystroke_Key.space	Key.space	n/a
1032.1705	0.09	2064341	keystroke_f	f	n/a
1032.3055	0.09	2064611	keystroke_o	o	n/a
1033.0395	0.106	2066079	keystroke_Key.backspace	Key.backspace	n/a
1033.3845	0.09	2066769	keystroke_Key.backspace	Key.backspace	n/a
1033.7595	0.0755	2067519	keystroke_s	s	n/a
1033.91	0.09	2067820	keystroke_o	o	n/a
1034.225	0.135	2068450	keystroke_f	f	n/a
1034.75	0.075	2069500	keystroke_t	t	n/a
1034.9	0.12	2069800	keystroke_Key.space	Key.space	n/a
1035.3955	0.09	2070791	keystroke_l	l	n/a
1035.6655	0.09	2071331	keystroke_u	u	n/a
1036.7305	0.075	2073461	keystroke_x	x	n/a
1038.3045	0.12	2076609	keystroke_u	u	n/a
1038.6645	0.105	2077329	keystroke_r	r	n/a
1038.7995	0.09	2077599	keystroke_y	y	n/a
1040.1505	0.014	2080301	keystroke_Key.enter	Key.enter	n/a
1040.1695	18.088	2080339	prompt	n/a	mesa vacations strap combining\n
1040.9455	0.075	2081891	keystroke_m	m	n/a
1041.17	0.09	2082340	keystroke_e	e	n/a
1041.515	0.12	2083030	keystroke_s	s	n/a
1041.83	0.075	2083660	keystroke_a	a	n/a
1041.9945	0.091	2083989	keystroke_Key.space	Key.space	n/a
1042.8505	0.105	2085701	keystroke_c	c	n/a
1043.69	0.09	2087380	keystroke_Key.backspace	Key.backspace	n/a
1044.02	0.075	2088040	keystroke_v	v	n/a
1044.29	0.06	2088580	keystroke_a	a	n/a
1044.9055	0.105	2089811	keystroke_c	c	n/a
1046.2105	0.135	2092421	keystroke_a	a	n/a
1046.675	0.075	2093350	keystroke_t	t	n/a
1046.795	0.105	2093590	keystroke_i	i	n/a
1046.975	0.1045	2093950	keystroke_o	o	n/a
1047.2455	0.089	2094491	keystroke_n	n	n/a
1047.8305	0.105	2095661	keystroke_s	s	n/a
1047.98	0.075	2095960	keystroke_Key.space	Key.space	n/a
1048.19	0.12	2096380	keystroke_s	s	n/a
1048.52	0.12	2097040	keystroke_t	t	n/a
1048.955	0.09	2097910	keystroke_r	r	n/a
1049.33	0.105	2098660	keystroke_a	a	n/a
1049.57	0.09	2099140	keystroke_p	p	n/a
1049.81	0.075	2099620	keystroke_Key.space	Key.space	n/a
1050.335	0.0905	2100670	keystroke_c	c	n/a
1050.4555	0.105	2100911	keystroke_o	o	n/a
1050.6655	0.105	2101331	keystroke_m	m	n/a
1051.64	0.1045	2103280	keystroke_b	b	n/a
1051.9245	0.09	2103849	keystroke_i	i	n/a
1052.1645	0.06	2104329	keystroke_n	n	n/a
1052.6445	0.105	2105289	keystroke_i	i	n/a
1052.8695	0.1055	2105739	keystroke_n	n	n/a
1053.245	0.06	2106490	keystroke_h	h	n/a
1054.55	0.075	2109100	keystroke_Key.backspace	Key.backspace	n/a
1055.3905	0.075	2110781	keystroke_g	g	n/a
1058.228	0.027	2116456	keystroke_Key.enter	Key.enter	n/a
1058.2605	26.2915	2116521	prompt	n/a	atlanta invasion cameron provisions\n
1059.14	0.105	2118280	keystroke_a	a	n/a
1059.515	0.09	2119030	keystroke_t	t	n/a
1060.0845	0.09	2120169	keystroke_l	l	n/a
1060.5645	0.105	2121129	keystroke_a	a	n/a
1060.8945	0.045	2121789	keystroke_n	n	n/a
1062.185	0.075	2124370	keystroke_t	t	n/a
1062.4845	0.076	2124969	keystroke_a	a	n/a
1066.058	0.057	2132116	keystroke_Key.space	Key.space	n/a
1066.205	0.09	2132410	keystroke_i	i	n/a
1066.415	0.075	2132830	keystroke_n	n	n/a
1066.82	0.105	2133640	keystroke_c	c	n/a
1067.18	0.12	2134360	keystroke_a	a	n/a
1067.6455	0.09	2135291	keystroke_s	s	n/a
1067.87	0.0605	2135740	keystroke_i	i	n/a
1068.0805	0.105	2136161	keystroke_o	o	n/a
1069.49	0.1205	2138980	keystroke_Key.backspace	Key.backspace	n/a
1070.0905	0.15	2140181	keystroke_Key.backspace	Key.backspace	n/a
1070.75	0.135	2141500	keystroke_Key.backspace	Key.backspace	n/a
1071.3805	0.135	2142761	keystroke_Key.backspace	Key.backspace	n/a
1072.0105	0.105	2144021	keystroke_Key.backspace	Key.backspace	n/a
1072.76	0.09	2145520	keystroke_v	v	n/a
1073.0905	0.1195	2146181	keystroke_a	a	n/a
1074.89	0.0905	2149780	keystroke_s	s	n/a
1075.0245	0.1055	2150049	keystroke_i	i	n/a
1075.25	0.1355	2150500	keystroke_o	o	n/a
1075.4905	0.1045	2150981	keystroke_n	n	n/a
1075.91	0.12	2151820	keystroke_Key.space	Key.space	n/a
1076.54	0.105	2153080	keystroke_c	c	n/a
1076.8705	0.09	2153741	keystroke_a	a	n/a
1077.1255	0.09	2154251	keystroke_m	m	n/a
1077.77	0.12	2155540	keystroke_e	e	n/a
1078.055	0.09	2156110	keystroke_r	r	n/a
1078.295	0.09	2156590	keystroke_o	o	n/a
1078.55	0.09	2157100	keystroke_n	n	n/a
1078.82	0.105	2157640	keystroke_Key.space	Key.space	n/a
1079.4655	0.015	2158931	keystroke_p	p	n/a
1079.6305	0.075	2159261	keystroke_r	r	n/a
1079.7655	0.105	2159531	keystroke_o	o	n/a
1080.426	0.179	2160852	keystroke_v	v	n/a
1081.295	0.09	2162590	keystroke_i	i	n/a
1081.955	0.135	2163910	keystroke_s	s	n/a
1082.435	0.285	2164870	keystroke_i	i	n/a
1082.855	0.1355	2165710	keystroke_o	o	n/a
1083.1105	0.135	2166221	keystroke_n	n	n/a
1083.9655	0.105	2167931	keystroke_s	s	n/a
1084.505	0.045	2169010	keystroke_Key.enter	Key.enter	n/a
1084.5555	13.316	2169111	prompt	n/a	commerce facing what're asus\n
1085.36	0.106	2170720	keystroke_c	c	n/a
1085.525	0.0905	2171050	keystroke_o	o	n/a
1085.7655	0.105	2171531	keystroke_m	m	n/a
1085.8855	0.12	2171771	keystroke_m	m	n/a
1086.7105	0.09	2173421	keystroke_e	e	n/a
1087.2955	0.12	2174591	keystroke_r	r	n/a
1087.6695	0.12	2175339	keystroke_c	c	n/a
1088.1355	0.074	2176271	keystroke_e	e	n/a
1088.3895	0.075	2176779	keystroke_Key.space	Key.space	n/a
1089.26	0.105	2178520	keystroke_f	f	n/a
1089.89	0.09	2179780	keystroke_a	a	n/a
1090.2045	0.105	2180409	keystroke_c	c	n/a
1090.4305	0.059	2180861	keystroke_i	i	n/a
1090.6095	0.091	2181219	keystroke_n	n	n/a
1090.76	0.1045	2181520	keystroke_g	g	n/a
1091.0605	0.09	2182121	keystroke_Key.space	Key.space	n/a
1091.7055	0.045	2183411	keystroke_w	w	n/a
1091.7955	0.0895	2183591	keystroke_h	h	n/a
1092.035	0.09	2184070	keystroke_a	a	n/a
1092.395	0.0895	2184790	keystroke_t	t	n/a
1092.755	0.1055	2185510	keystroke_'	'	n/a
1092.98	0.0755	2185960	keystroke_s	s	n/a
1094.0605	0.12	2188121	keystroke_Key.backspace	Key.backspace	n/a
1094.81	0.105	2189620	keystroke_r	r	n/a
1095.14	0.09	2190280	keystroke_e	e	n/a
1095.68	0.09	2191360	keystroke_Key.space	Key.space	n/a
1096.13	0.12	2192260	keystroke_a	a	n/a
1096.55	0.12	2193100	keystroke_s	s	n/a
1096.85	0.06	2193700	keystroke_u	u	n/a
1097	0.15	2194000	keystroke_s	s	n/a
1097.7955	0.075	2195591	keystroke_Key.enter	Key.enter	n/a
1097.875	15.8215	2195750	prompt	n/a	lived ranked events proprietary\n
1098.6055	0.105	2197211	keystroke_l	l	n/a
1098.8005	0.075	2197601	keystroke_i	i	n/a
1099.1905	0.06	2198381	keystroke_v	v	n/a
1099.6255	0.105	2199251	keystroke_e	e	n/a
1099.8955	0.105	2199791	keystroke_d	d	n/a
1100.0755	0.105	2200151	keystroke_Key.space	Key.space	n/a
1100.7205	0.09	2201441	keystroke_r	r	n/a
1101.38	0.075	2202760	keystroke_a	a	n/a
1102.0545	0.075	2204109	keystroke_n	n	n/a
1102.2645	0.105	2204529	keystroke_k	k	n/a
1102.595	0.075	2205190	keystroke_e	e	n/a
1102.94	0.06	2205880	keystroke_d	d	n/a
1103.1205	0.09	2206241	keystroke_Key.space	Key.space	n/a
1103.7045	0.106	2207409	keystroke_e	e	n/a
1104.0205	0.104	2208041	keystroke_v	v	n/a
1104.275	0.135	2208550	keystroke_e	e	n/a
1104.8905	0.075	2209781	keystroke_n	n	n/a
1105.1305	0.09	2210261	keystroke_t	t	n/a
1105.4455	0.075	2210891	keystroke_s	s	n/a
1105.5805	0.105	2211161	keystroke_Key.space	Key.space	n/a
1105.9105	0.0745	2211821	keystroke_p	p	n/a
1106.21	0.075	2212420	keystroke_r	r	n/a
1106.375	0.09	2212750	keystroke_o	o	n/a
1108.0105	0.105	2216021	keystroke_p	p	n/a
1109.8105	0.075	2219621	keystroke_r	r	n/a
1110.5755	0.06	2221151	keystroke_i	i	n/a
1111.1755	0.089	2222351	keystroke_e	e	n/a
1111.685	0.105	2223370	keystroke_t	t	n/a
1112.15	0.105	2224300	keystroke_a	a	n/a
1112.4945	0.105	2224989	keystroke_r	r	n/a
1112.72	0.0895	2225440	keystroke_y	y	n/a
1113.6045	0.09	2227209	keystroke_Key.enter	Key.enter	n/a
1113.6995	17.532	2227399	prompt	n/a	protection hiking jews separate\n
1114.535	0.0745	2229070	keystroke_p	p	n/a
1115.12	0.075	2230240	keystroke_r	r	n/a
1115.315	0.09	2230630	keystroke_o	o	n/a
1115.675	0.105	2231350	keystroke_c	c	n/a
1116.245	0.09	2232490	keystroke_t	t	n/a
1116.515	0.09	2233030	keystroke_e	e	n/a
1117.206	0.209	2234412	keystroke_c	c	n/a
1118.6605	0.09	2237321	keystroke_i	i	n/a
1118.8555	0.09	2237711	keystroke_o	o	n/a
1119.8305	0.03	2239661	keystroke_n	n	n/a
1119.9955	0.105	2239991	keystroke_Key.space	Key.space	n/a
1120.2655	0.075	2240531	keystroke_h	h	n/a
1120.97	0.09	2241940	keystroke_i	i	n/a
1121.33	0.1055	2242660	keystroke_k	k	n/a
1121.5555	0.075	2243111	keystroke_i	i	n/a
1122.1405	0.09	2244281	keystroke_n	n	n/a
1122.3505	0.075	2244701	keystroke_g	g	n/a
1122.6355	0.12	2245271	keystroke_Key.space	Key.space	n/a
1123.1305	0.075	2246261	keystroke_j	j	n/a
1123.3555	0.12	2246711	keystroke_e	e	n/a
1124.6605	0.09	2249321	keystroke_w	w	n/a
1125.17	0.12	2250340	keystroke_s	s	n/a
1125.47	0.075	2250940	keystroke_Key.space	Key.space	n/a
1125.92	0.105	2251840	keystroke_s	s	n/a
1126.235	0.09	2252470	keystroke_e	e	n/a
1126.415	0.0905	2252830	keystroke_p	p	n/a
1127.06	0.09	2254120	keystroke_t	t	n/a
1127.9745	0.075	2255949	keystroke_Key.backspace	Key.backspace	n/a
1128.2005	0.105	2256401	keystroke_a	a	n/a
1128.6355	0.149	2257271	keystroke_r	r	n/a
