onset	duration	sample	value	key	prompt_text
11.842	10.013	23684	prompt	n/a	the quick brown fox jumps over a lazy dog\n
14.2775	0.0895	28555	keystroke_t	t	n/a
14.4115	0.1205	28823	keystroke_h	h	n/a
14.832	0.045	29664	keystroke_e	e	n/a
15.1165	0.1055	30233	keystroke_Key.space	Key.space	n/a
15.597	0.09	31194	keystroke_q	q	n/a
15.702	0.074	31404	keystroke_u	u	n/a
15.866	0.076	31732	keystroke_i	i	n/a
16.017	0.104	32034	keystroke_c	c	n/a
16.076	0.09	32152	keystroke_k	k	n/a
16.3015	0.075	32603	keystroke_Key.space	Key.space	n/a
16.4065	0.0905	32813	keystroke_b	b	n/a
16.527	0.09	33054	keystroke_r	r	n/a
16.647	0.105	33294	keystroke_o	o	n/a
16.9315	0.075	33863	keystroke_w	w	n/a
17.0815	0.091	34163	keystroke_n	n	n/a
17.2015	0.105	34403	keystroke_Key.space	Key.space	n/a
17.4115	0.075	34823	keystroke_f	f	n/a
17.5015	0.09	35003	keystroke_o	o	n/a
17.7565	0.06	35513	keystroke_Key.space	Key.space	n/a
18.087	0.09	36174	keystroke_Key.backspace	Key.backspace	n/a
18.237	0.1205	36474	keystroke_x	x	n/a
18.4915	0.045	36983	keystroke_Key.space	Key.space	n/a
18.6865	0.09	37373	keystroke_j	j	n/a
18.8525	0.074	37705	keystroke_u	u	n/a
19.3625	0.134	38725	keystroke_m	m	n/a
19.5265	0.091	39053	keystroke_p	p	n/a
19.6315	0.091	39263	keystroke_s	s	n/a
19.7365	0.09	39473	keystroke_Key.space	Key.space	n/a
19.9325	0.074	39865	keystroke_o	o	n/a
20.0225	0.075	40045	keystroke_v	v	n/a
20.1125	0.105	40225	keystroke_e	e	n/a
20.1865	0.09	40373	keystroke_r	r	n/a
20.3215	0.06	40643	keystroke_Key.space	Key.space	n/a
20.4125	0.09	40825	keystroke_a	a	n/a
20.5475	0.074	41095	keystroke_Key.space	Key.space	n/a
20.7125	0.1195	41425	keystroke_l	l	n/a
20.7865	0.0755	41573	keystroke_a	a	n/a
20.9665	0.09	41933	keystroke_z	z	n/a
21.0715	0.075	42143	keystroke_y	y	n/a
21.1615	0.1055	42323	keystroke_Key.space	Key.space	n/a
21.282	0.105	42564	keystroke_d	d	n/a
21.402	0.09	42804	keystroke_o	o	n/a
21.522	0.075	43044	keystroke_g	g	n/a
21.792	0.06	43584	keystroke_Key.enter	Key.enter	n/a
21.8615	6.998	43723	prompt	n/a	sharing reservoir vermont carefully\n
22.362	0.075	44724	keystroke_s	s	n/a
22.452	0.12	44904	keystroke_h	h	n/a
22.602	0.075	45204	keystroke_a	a	n/a
22.662	0.075	45324	keystroke_r	r	n/a
22.797	0.105	45594	keystroke_i	i	n/a
22.857	0.09	45714	keystroke_n	n	n/a
22.962	0.075	45924	keystroke_g	g	n/a
23.0515	0.09	46103	keystroke_Key.space	Key.space	n/a
23.382	0.09	46764	keystroke_r	r	n/a
23.472	0.06	46944	keystroke_e	e	n/a
23.652	0.075	47304	keystroke_s	s	n/a
23.817	0.075	47634	keystroke_e	e	n/a
23.877	0.075	47754	keystroke_r	r	n/a
24.4615	0.09	48923	keystroke_v	v	n/a
24.7615	0.135	49523	keystroke_o	o	n/a
24.8515	0.09	49703	keystroke_i	i	n/a
24.9715	0.075	49943	keystroke_r	r	n/a
25.1665	0.09	50333	keystroke_Key.space	Key.space	n/a
25.7215	0.075	51443	keystroke_v	v	n/a
25.8565	0.105	51713	keystroke_e	e	n/a
25.9315	0.075	51863	keystroke_r	r	n/a
26.0365	0.09	52073	keystroke_m	m	n/a
26.3065	0.105	52613	keystroke_o	o	n/a
26.3675	0.104	52735	keystroke_n	n	n/a
26.4865	0.09	52973	keystroke_t	t	n/a
26.5915	0.105	53183	keystroke_Key.space	Key.space	n/a
27.0865	0.105	54173	keystroke_c	c	n/a
27.2815	0.09	54563	keystroke_a	a	n/a
27.4015	0.1205	54803	keystroke_r	r	n/a
27.5225	0.0595	55045	keystroke_e	e	n/a
27.642	0.09	55284	keystroke_f	f	n/a
27.762	0.075	55524	keystroke_u	u	n/a
27.987	0.255	55974	keystroke_l	l	n/a
28.467	0.09	56934	keystroke_l	l	n/a
28.617	0.075	57234	keystroke_y	y	n/a
28.767	0.09	57534	keystroke_Key.enter	Key.enter	n/a
28.8655	6.653	57731	prompt	n/a	subsidiary extended anyone denial\n
29.352	0.105	58704	keystroke_s	s	n/a
29.622	0.12	59244	keystroke_u	u	n/a
29.697	0.105	59394	keystroke_b	b	n/a
29.862	0.12	59724	keystroke_s	s	n/a
29.952	0.09	59904	keystroke_i	i	n/a
30.462	0.09	60924	keystroke_d	d	n/a
30.687	0.075	61374	keystroke_i	i	n/a
30.822	0.105	61644	keystroke_a	a	n/a
30.942	0.09	61884	keystroke_r	r	n/a
31.062	0.09	62124	keystroke_y	y	n/a
31.467	0.105	62934	keystroke_Key.space	Key.space	n/a
31.707	0.09	63414	keystroke_e	e	n/a
31.917	0.105	63834	keystroke_x	x	n/a
32.097	0.09	64194	keystroke_t	t	n/a
32.217	0.075	64434	keystroke_e	e	n/a
32.352	0.075	64704	keystroke_n	n	n/a
32.487	0.0905	64974	keystroke_d	d	n/a
32.622	0.09	65244	keystroke_e	e	n/a
32.667	0.09	65334	keystroke_d	d	n/a
33.012	0.09	66024	keystroke_Key.space	Key.space	n/a
33.267	0.105	66534	keystroke_a	a	n/a
33.3425	0.105	66685	keystroke_n	n	n/a
33.537	0.06	67074	keystroke_y	y	n/a
33.642	0.12	67284	keystroke_o	o	n/a
33.717	0.09	67434	keystroke_n	n	n/a
33.822	0.09	67644	keystroke_e	e	n/a
33.987	0.09	67974	keystroke_Key.space	Key.space	n/a
34.152	0.12	68304	keystroke_d	d	n/a
34.512	0.09	69024	keystroke_e	e	n/a
34.632	0.12	69264	keystroke_n	n	n/a
34.722	0.09	69444	keystroke_i	i	n/a
34.977	0.09	69954	keystroke_a	a	n/a
35.157	0.12	70314	keystroke_l	l	n/a
35.472	0.045	70944	keystroke_Key.enter	Key.enter	n/a
35.523	6.5375	71046	prompt	n/a	montreal third grid guarantee\n
36.252	0.12	72504	keystroke_m	m	n/a
36.4325	0.1345	72865	keystroke_o	o	n/a
36.507	0.09	73014	keystroke_n	n	n/a
36.597	0.075	73194	keystroke_t	t	n/a
36.792	0.09	73584	keystroke_r	r	n/a
37.107	0.075	74214	keystroke_e	e	n/a
37.317	0.105	74634	keystroke_a	a	n/a
37.437	0.12	74874	keystroke_l	l	n/a
37.692	0.09	75384	keystroke_Key.space	Key.space	n/a
37.887	0.075	75774	keystroke_t	t	n/a
37.977	0.1355	75954	keystroke_h	h	n/a
38.082	0.1205	76164	keystroke_i	i	n/a
38.2475	0.06	76495	keystroke_r	r	n/a
38.4125	0.09	76825	keystroke_d	d	n/a
38.6215	0.106	77243	keystroke_Key.space	Key.space	n/a
38.9675	0.06	77935	keystroke_g	g	n/a
39.1025	0.09	78205	keystroke_r	r	n/a
39.2075	0.09	78415	keystroke_i	i	n/a
39.3275	0.09	78655	keystroke_d	d	n/a
39.4325	0.105	78865	keystroke_Key.space	Key.space	n/a
40.1675	0.075	80335	keystroke_g	g	n/a
40.3925	0.06	80785	keystroke_u	u	n/a
40.5725	0.105	81145	keystroke_a	a	n/a
40.8725	0.09	81745	keystroke_r	r	n/a
41.2025	0.105	82405	keystroke_a	a	n/a
41.3225	0.09	82645	keystroke_n	n	n/a
41.4425	0.075	82885	keystroke_t	t	n/a
41.5625	0.089	83125	keystroke_e	e	n/a
41.7575	0.075	83515	keystroke_e	e	n/a
41.9675	0.09	83935	keystroke_Key.enter	Key.enter	n/a
42.065	7.0745	84130	prompt	n/a	agriculture stem alfred fool\n
42.582	0.09	85164	keystroke_a	a	n/a
43.077	0.075	86154	keystroke_g	g	n/a
43.272	0.105	86544	keystroke_r	r	n/a
43.392	0.06	86784	keystroke_i	i	n/a
43.497	0.105	86994	keystroke_c	c	n/a
43.827	0.12	87654	keystroke_u	u	n/a
43.902	0.105	87804	keystroke_l	l	n/a
44.337	0.075	88674	keystroke_t	t	n/a
44.517	0.09	89034	keystroke_u	u	n/a
44.622	0.15	89244	keystroke_r	r	n/a
44.727	0.105	89454	keystroke_e	e	n/a
44.877	0.12	89754	keystroke_Key.space	Key.space	n/a
45.327	0.045	90654	keystroke_s	s	n/a
45.417	0.075	90834	keystroke_t	t	n/a
45.567	0.09	91134	keystroke_e	e	n/a
45.777	0.09	91554	keystroke_m	m	n/a
46.032	0.09	92064	keystroke_Key.space	Key.space	n/a
46.227	0.12	92454	keystroke_a	a	n/a
46.827	0.12	93654	keystroke_l	l	n/a
47.067	0.09	94134	keystroke_f	f	n/a
47.262	0.12	94524	keystroke_r	r	n/a
47.367	0.135	94734	keystroke_e	e	n/a
47.562	0.105	95124	keystroke_d	d	n/a
47.832	0.09	95664	keystroke_Key.space	Key.space	n/a
48.327	0.105	96654	keystroke_f	f	n/a
48.402	0.09	96804	keystroke_o	o	n/a
48.507	0.105	97014	keystroke_o	o	n/a
48.837	0.075	97674	keystroke_l	l	n/a
49.077	0.06	98154	keystroke_Key.enter	Key.enter	n/a
49.1445	6.865	98289	prompt	n/a	sites parker instruction thousands\n
49.827	0.12	99654	keystroke_s	s	n/a
49.932	0.09	99864	keystroke_i	i	n/a
50.037	0.105	100074	keystroke_t	t	n/a
50.112	0.105	100224	keystroke_e	e	n/a
50.382	0.09	100764	keystroke_s	s	n/a
50.517	0.105	101034	keystroke_Key.space	Key.space	n/a
50.817	0.105	101634	keystroke_p	p	n/a
50.967	0.105	101934	keystroke_a	a	n/a
51.042	0.09	102084	keystroke_r	r	n/a
51.177	0.105	102354	keystroke_k	k	n/a
51.492	0.075	102984	keystroke_e	e	n/a
51.507	0.09	103014	keystroke_r	r	n/a
51.672	0.105	103344	keystroke_Key.space	Key.space	n/a
51.957	0.12	103914	keystroke_i	i	n/a
52.047	0.075	104094	keystroke_n	n	n/a
52.347	0.0905	104694	keystroke_s	s	n/a
52.4375	0.06	104875	keystroke_t	t	n/a
52.5565	0.106	105113	keystroke_r	r	n/a
52.7075	0.089	105415	keystroke_u	u	n/a
52.8575	0.089	105715	keystroke_c	c	n/a
53.0675	0.06	106135	keystroke_t	t	n/a
53.1275	0.12	106255	keystroke_i	i	n/a
53.2615	0.136	106523	keystroke_o	o	n/a
53.3375	0.105	106675	keystroke_n	n	n/a
53.7115	0.121	107423	keystroke_Key.space	Key.space	n/a
54.0875	0.075	108175	keystroke_t	t	n/a
54.1765	0.091	108353	keystroke_h	h	n/a
54.2825	0.195	108565	keystroke_o	o	n/a
54.3575	0.135	108715	keystroke_u	u	n/a
54.5075	0.089	109015	keystroke_s	s	n/a
54.6875	0.075	109375	keystroke_e	e	n/a
55.0915	0.091	110183	keystroke_Key.backspace	Key.backspace	n/a
55.2275	0.105	110455	keystroke_a	a	n/a
55.3925	0.12	110785	keystroke_n	n	n/a
55.4975	0.105	110995	keystroke_d	d	n/a
55.5875	0.075	111175	keystroke_s	s	n/a
55.9315	0.076	111863	keystroke_Key.enter	Key.enter	n/a
56.0175	6.051	112035	prompt	n/a	side nearly divorce dinner\n
56.4725	0.105	112945	keystroke_s	s	n/a
56.6525	0.105	113305	keystroke_i	i	n/a
56.7875	0.105	113575	keystroke_d	d	n/a
56.8625	0.09	113725	keystroke_e	e	n/a
56.9825	0.074	113965	keystroke_Key.space	Key.space	n/a
57.1925	0.075	114385	keystroke_n	n	n/a
57.2825	0.09	114565	keystroke_e	e	n/a
57.4625	0.12	114925	keystroke_a	a	n/a
57.5675	0.135	115135	keystroke_r	r	n/a
57.8975	0.075	115795	keystroke_l	l	n/a
57.9875	0.075	115975	keystroke_y	y	n/a
58.1665	0.091	116333	keystroke_Key.space	Key.space	n/a
58.4225	0.105	116845	keystroke_d	d	n/a
58.5425	0.09	117085	keystroke_i	i	n/a
58.7075	0.12	117415	keystroke_v	v	n/a
58.9175	0.075	117835	keystroke_o	o	n/a
59.1425	0.09	118285	keystroke_r	r	n/a
59.2175	0.135	118435	keystroke_s	s	n/a
59.9225	0.09	119845	keystroke_Key.backspace	Key.backspace	n/a
60.0275	0.09	120055	keystroke_c	c	n/a
60.0875	0.105	120175	keystroke_e	e	n/a
60.6125	0.105	121225	keystroke_Key.space	Key.space	n/a
60.7925	0.105	121585	keystroke_d	d	n/a
60.9425	0.09	121885	keystroke_i	i	n/a
61.0025	0.09	122005	keystroke_n	n	n/a
61.1225	0.105	122245	keystroke_n	n	n/a
61.7975	0.09	123595	keystroke_e	e	n/a
61.8425	0.105	123685	keystroke_r	r	n/a
61.9775	0.09	123955	keystroke_Key.enter	Key.enter	n/a
62.0785	6.05	124157	prompt	n/a	measuring president cutting allan\n
62.7125	0.12	125425	keystroke_m	m	n/a
62.8925	0.045	125785	keystroke_e	e	n/a
63.1325	0.105	126265	keystroke_a	a	n/a
63.2075	0.105	126415	keystroke_s	s	n/a
63.3575	0.105	126715	keystroke_u	u	n/a
63.5375	0.06	127075	keystroke_r	r	n/a
63.6575	0.105	127315	keystroke_i	i	n/a
63.6875	0.12	127375	keystroke_n	n	n/a
63.8825	0.09	127765	keystroke_g	g	n/a
64.0475	0.09	128095	keystroke_Key.space	Key.space	n/a
64.4225	0.12	128845	keystroke_p	p	n/a
64.5875	0.075	129175	keystroke_r	r	n/a
64.6325	0.09	129265	keystroke_e	e	n/a
64.8425	0.105	129685	keystroke_s	s	n/a
65.1425	0.09	130285	keystroke_i	i	n/a
65.2475	0.12	130495	keystroke_d	d	n/a
65.3525	0.09	130705	keystroke_e	e	n/a
65.4875	0.075	130975	keystroke_n	n	n/a
65.5925	0.075	131185	keystroke_t	t	n/a
65.6975	0.075	131395	keystroke_Key.space	Key.space	n/a
66.0875	0.105	132175	keystroke_c	c	n/a
66.1775	0.075	132355	keystroke_u	u	n/a
66.3425	0.075	132685	keystroke_t	t	n/a
66.5075	0.06	133015	keystroke_t	t	n/a
66.5975	0.12	133195	keystroke_i	i	n/a
66.6575	0.09	133315	keystroke_n	n	n/a
66.7625	0.075	133525	keystroke_g	g	n/a
66.8525	0.09	133705	keystroke_Key.space	Key.space	n/a
67.0775	0.105	134155	keystroke_a	a	n/a
67.2125	0.06	134425	keystroke_l	l	n/a
67.3025	0.045	134605	keystroke_l	l	n/a
67.6925	0.105	135385	keystroke_a	a	n/a
67.7825	0.105	135565	keystroke_n	n	n/a
68.0675	0.06	136135	keystroke_Key.enter	Key.enter	n/a
68.1335	9.701	136267	prompt	n/a	collins significantly miami mentor\n
68.6375	0.105	137275	keystroke_c	c	n/a
68.7275	0.06	137455	keystroke_o	o	n/a
68.907	0.06	137814	keystroke_l	l	n/a
69.057	0.075	138114	keystroke_l	l	n/a
69.207	0.06	138414	keystroke_i	i	n/a
69.387	0.105	138774	keystroke_n	n	n/a
69.507	0.105	139014	keystroke_s	s	n/a
69.627	0.09	139254	keystroke_Key.space	Key.space	n/a
69.927	0.09	139854	keystroke_s	s	n/a
70.002	0.09	140004	keystroke_i	i	n/a
70.167	0.075	140334	keystroke_g	g	n/a
70.302	0.15	140604	keystroke_n	n	n/a
70.767	0.076	141534	keystroke_i	i	n/a
70.962	0.09	141924	keystroke_f	f	n/a
71.157	0.091	142314	keystroke_i	i	n/a
71.292	0.045	142584	keystroke_c	c	n/a
71.832	0.03	143664	keystroke_Key.backspace	Key.backspace	n/a
72.358	0.104	144716	keystroke_c	c	n/a
72.567	0.121	145134	keystroke_a	a	n/a
72.688	0.074	145376	keystroke_n	n	n/a
72.853	0.104	145706	keystroke_t	t	n/a
72.987	0.09	145974	keystroke_l	l	n/a
73.108	0.059	146216	keystroke_y	y	n/a
73.272	0.075	146544	keystroke_Key.space	Key.space	n/a
73.633	0.09	147266	keystroke_m	m	n/a
73.782	0.076	147564	keystroke_a	a	n/a
74.142	0.09	148284	keystroke_Key.backspace	Key.backspace	n/a
74.263	0.104	148526	keystroke_i	i	n/a
74.397	0.105	148794	keystroke_a	a	n/a
74.517	0.106	149034	keystroke_m	m	n/a
74.637	0.09	149274	keystroke_i	i	n/a
74.817	0.105	149634	keystroke_Key.space	Key.space	n/a
75.358	0.119	150716	keystroke_m	m	n/a
75.523	0.1195	151046	keystroke_e	e	n/a
75.6275	0.09	151255	keystroke_n	n	n/a
75.7475	0.0745	151495	keystroke_o	o	n/a
75.9125	0.06	151825	keystroke_t	t	n/a
76.4225	0.075	152845	keystroke_Key.backspace	Key.backspace	n/a
76.7525	0.045	153505	keystroke_Key.backspace	Key.backspace	n/a
76.9175	0.075	153835	keystroke_t	t	n/a
77.2775	0.06	154555	keystroke_o	o	n/a
77.5625	0.075	155125	keystroke_r	r	n/a
77.7575	0.075	155515	keystroke_Key.enter	Key.enter	n/a
77.841	8.978	155682	prompt	n/a	secretary painful citizens willing\n
78.3275	0.105	156655	keystroke_s	s	n/a
78.5225	0.09	157045	keystroke_e	e	n/a
78.6575	0.09	157315	keystroke_c	c	n/a
78.8225	0.105	157645	keystroke_r	r	n/a
78.9425	0.075	157885	keystroke_e	e	n/a
79.0325	0.075	158065	keystroke_t	t	n/a
79.2575	0.09	158515	keystroke_a	a	n/a
79.3625	0.075	158725	keystroke_r	r	n/a
79.4825	0.09	158965	keystroke_y	y	n/a
79.6625	0.105	159325	keystroke_Key.space	Key.space	n/a
80.2475	0.105	160495	keystroke_o	o	n/a
80.3825	0.09	160765	keystroke_a	a	n/a
80.4875	0.105	160975	keystroke_i	i	n/a
80.5475	0.09	161095	keystroke_n	n	n/a
81.0125	0.015	162025	keystroke_Key.backspace	Key.backspace	n/a
81.0425	0.0145	162085	keystroke_Key.backspace	Key.backspace	n/a
81.282	0.045	162564	keystroke_Key.backspace	Key.backspace	n/a
81.942	0.06	163884	keystroke_Key.backspace	Key.backspace	n/a
82.557	0.105	165114	keystroke_p	p	n/a
82.722	0.09	165444	keystroke_a	a	n/a
83.022	0.12	166044	keystroke_i	i	n/a
83.097	0.075	166194	keystroke_n	n	n/a
83.367	0.09	166734	keystroke_f	f	n/a
83.442	0.09	166884	keystroke_u	u	n/a
83.517	0.045	167034	keystroke_l	l	n/a
83.832	0.105	167664	keystroke_Key.space	Key.space	n/a
84.237	0.075	168474	keystroke_c	c	n/a
84.282	0.09	168564	keystroke_i	i	n/a
84.462	0.075	168924	keystroke_t	t	n/a
84.552	0.075	169104	keystroke_i	i	n/a
84.732	0.09	169464	keystroke_z	z	n/a
84.927	0.06	169854	keystroke_e	e	n/a
85.032	0.06	170064	keystroke_n	n	n/a
85.122	0.105	170244	keystroke_s	s	n/a
85.242	0.06	170484	keystroke_Key.space	Key.space	n/a
85.602	0.045	171204	keystroke_w	w	n/a
85.842	0.075	171684	keystroke_i	i	n/a
86.022	0.06	172044	keystroke_l	l	n/a
86.172	0.075	172344	keystroke_l	l	n/a
86.352	0.105	172704	keystroke_i	i	n/a
86.412	0.09	172824	keystroke_n	n	n/a
86.487	0.075	172974	keystroke_g	g	n/a
86.772	0.045	173544	keystroke_Key.enter	Key.enter	n/a
86.8235	5.4405	173647	prompt	n/a	pole poker least transport\n
87.657	0.105	175314	keystroke_p	p	n/a
87.732	0.075	175464	keystroke_o	o	n/a
87.867	0.105	175734	keystroke_l	l	n/a
87.987	0.105	175974	keystroke_e	e	n/a
88.122	0.09	176244	keystroke_Key.space	Key.space	n/a
88.377	0.12	176754	keystroke_p	p	n/a
88.452	0.091	176904	keystroke_o	o	n/a
88.647	0.09	177294	keystroke_k	k	n/a
88.752	0.075	177504	keystroke_e	e	n/a
88.782	0.105	177564	keystroke_r	r	n/a
88.962	0.09	177924	keystroke_Key.space	Key.space	n/a
89.517	0.09	179034	keystroke_l	l	n/a
89.668	0.074	179336	keystroke_e	e	n/a
89.847	0.105	179694	keystroke_a	a	n/a
89.908	0.089	179816	keystroke_s	s	n/a
90.132	0.06	180264	keystroke_t	t	n/a
90.237	0.075	180474	keystroke_Key.space	Key.space	n/a
90.582	0.045	181164	keystroke_t	t	n/a
90.702	0.091	181404	keystroke_r	r	n/a
90.883	0.105	181766	keystroke_a	a	n/a
91.018	0.09	182036	keystroke_n	n	n/a
91.228	0.105	182456	keystroke_s	s	n/a
91.603	0.105	183206	keystroke_p	p	n/a
91.663	0.09	183326	keystroke_o	o	n/a
91.738	0.075	183476	keystroke_r	r	n/a
91.918	0.03	183836	keystroke_t	t	n/a
92.203	0.06	184406	keystroke_Key.enter	Key.enter	n/a
92.2695	5.4995	184539	prompt	n/a	personal danny titles libs\n
93.103	0.105	186206	keystroke_p	p	n/a
93.268	0.075	186536	keystroke_e	e	n/a
93.328	0.075	186656	keystroke_r	r	n/a
93.463	0.09	186926	keystroke_s	s	n/a
93.538	0.09	187076	keystroke_o	o	n/a
93.583	0.09	187166	keystroke_n	n	n/a
93.703	0.09	187406	keystroke_a	a	n/a
93.808	0.075	187616	keystroke_l	l	n/a
94.108	0.089	188216	keystroke_Key.space	Key.space	n/a
94.498	0.075	188996	keystroke_d	d	n/a
94.618	0.09	189236	keystroke_a	a	n/a
94.723	0.0595	189446	keystroke_n	n	n/a
94.8125	0.105	189625	keystroke_n	n	n/a
95.1425	0.06	190285	keystroke_y	y	n/a
95.2625	0.105	190525	keystroke_Key.space	Key.space	n/a
95.7575	0.075	191515	keystroke_t	t	n/a
95.8775	0.075	191755	keystroke_i	i	n/a
95.9675	0.09	191935	keystroke_t	t	n/a
96.1625	0.075	192325	keystroke_l	l	n/a
96.3425	0.06	192685	keystroke_e	e	n/a
96.5075	0.105	193015	keystroke_s	s	n/a
96.6275	0.075	193255	keystroke_Key.space	Key.space	n/a
97.122	0.135	194244	keystroke_l	l	n/a
97.137	0.06	194274	keystroke_i	i	n/a
97.302	0.075	194604	keystroke_b	b	n/a
97.497	0.09	194994	keystroke_s	s	n/a
97.752	0.015	195504	keystroke_Key.enter	Key.enter	n/a
97.7735	10.3155	195547	prompt	n/a	excited enabling receives fitted\n
98.413	0.014	196826	keystroke_e	e	n/a
98.532	0.105	197064	keystroke_x	x	n/a
98.697	0.1055	197394	keystroke_c	c	n/a
98.8175	0.0755	197635	keystroke_i	i	n/a
98.908	0.075	197816	keystroke_t	t	n/a
99.478	0.09	198956	keystroke_e	e	n/a
99.523	0.09	199046	keystroke_d	d	n/a
99.627	0.091	199254	keystroke_Key.space	Key.space	n/a
99.943	0.075	199886	keystroke_e	e	n/a
100.003	0.075	200006	keystroke_n	n	n/a
100.138	0.105	200276	keystroke_a	a	n/a
100.228	0.075	200456	keystroke_b	b	n/a
100.363	0.12	200726	keystroke_l	l	n/a
100.528	0.075	201056	keystroke_e	e	n/a
100.9775	0.075	201955	keystroke_Key.backspace	Key.backspace	n/a
101.2175	0.09	202435	keystroke_i	i	n/a
101.2775	0.075	202555	keystroke_n	n	n/a
101.3675	0.045	202735	keystroke_f	f	n/a
101.5025	0.075	203005	keystroke_Key.space	Key.space	n/a
102.1025	0.075	204205	keystroke_Key.backspace	Key.backspace	n/a
102.4775	0.075	204955	keystroke_Key.backspace	Key.backspace	n/a
102.7925	0.105	205585	keystroke_f	f	n/a
103.1525	0.06	206305	keystroke_Key.space	Key.space	n/a
103.4225	0.075	206845	keystroke_Key.backspace	Key.backspace	n/a
103.5875	0.06	207175	keystroke_Key.backspace	Key.backspace	n/a
103.6925	0.105	207385	keystroke_g	g	n/a
103.8725	0.105	207745	keystroke_Key.space	Key.space	n/a
104.7125	0.12	209425	keystroke_r	r	n/a
104.7875	0.12	209575	keystroke_e	e	n/a
105.0575	0.105	210115	keystroke_c	c	n/a
105.2675	0.09	210535	keystroke_i	i	n/a
105.8975	0.09	211795	keystroke_Key.backspace	Key.backspace	n/a
106.1075	0.105	212215	keystroke_e	e	n/a
106.2575	0.09	212515	keystroke_i	i	n/a
106.3925	0.09	212785	keystroke_v	v	n/a
106.5275	0.06	213055	keystroke_e	e	n/a
106.7075	0.09	213415	keystroke_s	s	n/a
106.8275	0.1055	213655	keystroke_Key.space	Key.space	n/a
107.188	0.09	214376	keystroke_f	f	n/a
107.263	0.045	214526	keystroke_i	i	n/a
107.413	0.06	214826	keystroke_t	t	n/a
107.533	0.075	215066	keystroke_t	t	n/a
107.653	0.135	215306	keystroke_e	e	n/a
107.773	0.09	215546	keystroke_d	d	n/a
108.013	0.074	216026	keystroke_Key.enter	Key.enter	n/a
108.094	6.73	216188	prompt	n/a	cameron forestry apartments earn\n
108.643	0.09	217286	keystroke_c	c	n/a
108.808	0.105	217616	keystroke_a	a	n/a
108.898	0.105	217796	keystroke_m	m	n/a
109.018	0.09	218036	keystroke_e	e	n/a
109.093	0.06	218186	keystroke_r	r	n/a
109.288	0.105	218576	keystroke_o	o	n/a
109.333	0.09	218666	keystroke_n	n	n/a
109.542	0.121	219084	keystroke_Key.space	Key.space	n/a
109.828	0.09	219656	keystroke_f	f	n/a
110.038	0.09	220076	keystroke_o	o	n/a
110.203	0.09	220406	keystroke_r	r	n/a
110.353	0.075	220706	keystroke_e	e	n/a
110.533	0.105	221066	keystroke_s	s	n/a
110.668	0.075	221336	keystroke_t	t	n/a
110.968	0.0895	221936	keystroke_r	r	n/a
111.2375	0.09	222475	keystroke_y	y	n/a
111.4775	0.105	222955	keystroke_Key.space	Key.space	n/a
111.6575	0.12	223315	keystroke_a	a	n/a
111.8375	0.06	223675	keystroke_p	p	n/a
112.0925	0.105	224185	keystroke_a	a	n/a
112.2275	0.09	224455	keystroke_r	r	n/a
112.4675	0.075	224935	keystroke_t	t	n/a
112.7225	0.09	225445	keystroke_m	m	n/a
112.8275	0.075	225655	keystroke_e	e	n/a
112.9325	0.105	225865	keystroke_n	n	n/a
113.0225	0.09	226045	keystroke_t	t	n/a
113.1275	0.105	226255	keystroke_s	s	n/a
113.3225	0.105	226645	keystroke_Key.space	Key.space	n/a
113.6675	0.045	227335	keystroke_s	s	n/a
113.9525	0.09	227905	keystroke_Key.backspace	Key.backspace	n/a
114.0125	0.06	228025	keystroke_e	e	n/a
114.1775	0.09	228355	keystroke_a	a	n/a
114.2525	0.075	228505	keystroke_r	r	n/a
114.3425	0.09	228685	keystroke_n	n	n/a
114.7475	0.075	229495	keystroke_Key.enter	Key.enter	n/a
114.829	5.53	229658	prompt	n/a	ticket incidence space aruba\n
115.6325	0.09	231265	keystroke_t	t	n/a
115.7375	0.075	231475	keystroke_i	i	n/a
115.8725	0.105	231745	keystroke_c	c	n/a
115.9625	0.105	231925	keystroke_k	k	n/a
116.0825	0.105	232165	keystroke_e	e	n/a
116.1575	0.075	232315	keystroke_t	t	n/a
116.3225	0.075	232645	keystroke_Key.space	Key.space	n/a
116.8325	0.105	233665	keystroke_i	i	n/a
116.8775	0.105	233755	keystroke_n	n	n/a
117.0725	0.105	234145	keystroke_c	c	n/a
117.2375	0.075	234475	keystroke_i	i	n/a
117.3275	0.09	234655	keystroke_d	d	n/a
117.6875	0.09	235375	keystroke_e	e	n/a
117.8225	0.075	235645	keystroke_n	n	n/a
117.9125	0.105	235825	keystroke_c	c	n/a
117.9875	0.105	235975	keystroke_e	e	n/a
118.1075	0.09	236215	keystroke_Key.space	Key.space	n/a
118.3775	0.075	236755	keystroke_s	s	n/a
118.5275	0.105	237055	keystroke_p	p	n/a
118.7225	0.075	237445	keystroke_a	a	n/a
118.8875	0.075	237775	keystroke_c	c	n/a
118.9325	0.09	237865	keystroke_e	e	n/a
119.0525	0.105	238105	keystroke_Key.space	Key.space	n/a
119.3825	0.09	238765	keystroke_a	a	n/a
119.4875	0.09	238975	keystroke_r	r	n/a
119.6525	0.105	239305	keystroke_u	u	n/a
119.7125	0.105	239425	keystroke_b	b	n/a
120.1475	0.105	240295	keystroke_a	a	n/a
120.2675	0.09	240535	keystroke_Key.enter	Key.enter	n/a
120.365	8.2145	240730	prompt	n/a	claire until textile represents\n
120.8975	0.105	241795	keystroke_c	c	n/a
120.9875	0.105	241975	keystroke_l	l	n/a
121.1525	0.12	242305	keystroke_a	a	n/a
121.3025	0.09	242605	keystroke_i	i	n/a
121.4075	0.075	242815	keystroke_r	r	n/a
121.6475	0.09	243295	keystroke_e	e	n/a
121.7975	0.075	243595	keystroke_Key.space	Key.space	n/a
122.2925	0.12	244585	keystroke_u	u	n/a
122.4875	0.09	244975	keystroke_t	t	n/a
122.9075	0.09	245815	keystroke_Key.backspace	Key.backspace	n/a
123.1325	0.075	246265	keystroke_n	n	n/a
123.2375	0.09	246475	keystroke_t	t	n/a
123.4175	0.09	246835	keystroke_i	i	n/a
123.4775	0.09	246955	keystroke_l	l	n/a
123.7025	0.12	247405	keystroke_Key.space	Key.space	n/a
124.0175	0.06	248035	keystroke_t	t	n/a
124.1075	0.09	248215	keystroke_e	e	n/a
124.3475	0.09	248695	keystroke_z	z	n/a
124.4225	0.09	248845	keystroke_t	t	n/a
124.5575	0.135	249115	keystroke_i	i	n/a
124.6325	0.105	249265	keystroke_l	l	n/a
125.113	0.06	250226	keystroke_Key.backspace	Key.backspace	n/a
125.293	0.075	250586	keystroke_Key.backspace	Key.backspace	n/a
125.473	0.075	250946	keystroke_Key.backspace	Key.backspace	n/a
125.803	0.09	251606	keystroke_Key.backspace	Key.backspace	n/a
126.028	0.0745	252056	keystroke_x	x	n/a
126.1175	0.0455	252235	keystroke_t	t	n/a
126.3125	0.105	252625	keystroke_i	i	n/a
126.4025	0.075	252805	keystroke_l	l	n/a
126.5075	0.075	253015	keystroke_e	e	n/a
126.7175	0.09	253435	keystroke_Key.space	Key.space	n/a
127.0625	0.105	254125	keystroke_r	r	n/a
127.1525	0.076	254305	keystroke_e	e	n/a
127.2875	0.075	254575	keystroke_p	p	n/a
127.5275	0.09	255055	keystroke_r	r	n/a
127.5725	0.09	255145	keystroke_e	e	n/a
127.7975	0.061	255595	keystroke_s	s	n/a
127.9475	0.12	255895	keystroke_e	e	n/a
128.0535	0.075	256107	keystroke_n	n	n/a
128.1575	0.06	256315	keystroke_t	t	n/a
128.2475	0.09	256495	keystroke_s	s	n/a
128.5025	0.075	257005	keystroke_Key.enter	Key.enter	n/a
128.584	6.2355	257168	prompt	n/a	queens shannon precious scheme\n
129.1625	0.121	258325	keystroke_q	q	n/a
129.2975	0.075	258595	keystroke_u	u	n/a
129.4475	0.061	258895	keystroke_e	e	n/a
129.5825	0.06	259165	keystroke_e	e	n/a
129.7025	0.09	259405	keystroke_n	n	n/a
129.8075	0.075	259615	keystroke_s	s	n/a
129.9125	0.09	259825	keystroke_Key.space	Key.space	n/a
130.1525	0.09	260305	keystroke_s	s	n/a
130.2125	0.075	260425	keystroke_h	h	n/a
130.3325	0.09	260665	keystroke_a	a	n/a
130.4075	0.06	260815	keystroke_n	n	n/a
130.5275	0.105	261055	keystroke_n	n	n/a
130.6775	0.12	261355	keystroke_o	o	n/a
130.7675	0.0755	261535	keystroke_n	n	n/a
130.873	0.105	261746	keystroke_Key.space	Key.space	n/a
131.233	0.06	262466	keystroke_p	p	n/a
131.353	0.09	262706	keystroke_r	r	n/a
131.383	0.105	262766	keystroke_e	e	n/a
131.683	0.09	263366	keystroke_c	c	n/a
131.818	0.09	263636	keystroke_o	o	n/a
132.133	0.075	264266	keystroke_Key.backspace	Key.backspace	n/a
132.238	0.105	264476	keystroke_i	i	n/a
132.418	0.105	264836	keystroke_o	o	n/a
132.463	0.075	264926	keystroke_u	u	n/a
132.553	0.09	265106	keystroke_s	s	n/a
132.763	0.09	265526	keystroke_Key.space	Key.space	n/a
133.153	0.09	266306	keystroke_s	s	n/a
133.348	0.09	266696	keystroke_c	c	n/a
133.453	0.075	266906	keystroke_h	h	n/a
133.483	0.06	266966	keystroke_e	e	n/a
133.978	0.09	267956	keystroke_m	m	n/a
134.548	0.075	269096	keystroke_e	e	n/a
134.743	0.075	269486	keystroke_Key.enter	Key.enter	n/a
134.824	17.5455	269648	prompt	n/a	partner weight commissioners religious\n
135.568	0.09	271136	keystroke_a	a	n/a
135.598	0.045	271196	keystroke_p	p	n/a
135.808	0.09	271616	keystroke_r	r	n/a
136.153	0.09	272306	keystroke_Key.backspace	Key.backspace	n/a
136.348	0.06	272696	keystroke_Key.backspace	Key.backspace	n/a
136.558	0.06	273116	keystroke_Key.backspace	Key.backspace	n/a
136.918	0.045	273836	keystroke_p	p	n/a
137.203	0.12	274406	keystroke_a	a	n/a
137.368	0.075	274736	keystroke_r	r	n/a
137.563	0.06	275126	keystroke_t	t	n/a
137.773	0.09	275546	keystroke_n	n	n/a
137.893	0.12	275786	keystroke_e	e	n/a
137.983	0.105	275966	keystroke_r	r	n/a
138.058	0.09	276116	keystroke_Key.space	Key.space	n/a
138.448	0.075	276896	keystroke_w	w	n/a
138.508	0.09	277016	keystroke_e	e	n/a
138.613	0.09	277226	keystroke_i	i	n/a
138.748	0.06	277496	keystroke_g	g	n/a
138.823	0.09	277646	keystroke_h	h	n/a
138.898	0.075	277796	keystroke_t	t	n/a
139.213	0.105	278426	keystroke_Key.space	Key.space	n/a
139.663	0.105	279326	keystroke_c	c	n/a
139.738	0.105	279476	keystroke_o	o	n/a
139.828	0.06	279656	keystroke_m	m	n/a
140.038	0.12	280076	keystroke_m	m	n/a
140.308	0.075	280616	keystroke_i	i	n/a
140.413	0.09	280826	keystroke_s	s	n/a
140.698	0.09	281396	keystroke_s	s	n/a
141.028	0.075	282056	keystroke_i	i	n/a
141.118	0.045	282236	keystroke_i	i	n/a
141.238	0.12	282476	keystroke_o	o	n/a
141.733	0.09	283466	keystroke_Key.backspace	Key.backspace	n/a
141.928	0.045	283856	keystroke_Key.backspace	Key.backspace	n/a
142.378	0.075	284756	keystroke_n	n	n/a
142.828	0.075	285656	keystroke_Key.backspace	Key.backspace	n/a
143.098	0.075	286196	keystroke_n	n	n/a
143.458	0.075	286916	keystroke_Key.backspace	Key.backspace	n/a
143.668	0.105	287336	keystroke_o	o	n/a
143.743	0.09	287486	keystroke_n	n	n/a
143.923	0.09	287846	keystroke_e	e	n/a
143.983	0.09	287966	keystroke_r	r	n/a
144.118	0.09	288236	keystroke_s	s	n/a
148.4555	0.0425	296911	keystroke_r	r	n/a
148.528	0.1045	297056	keystroke_e	e	n/a
149.0075	0.03	298015	keystroke_Key.backspace	Key.backspace	n/a
149.3075	0.075	298615	keystroke_Key.backspace	Key.backspace	n/a
149.5625	0.09	299125	keystroke_Key.space	Key.space	n/a
149.6075	0.15	299215	keystroke_r	r	n/a
149.7275	0.045	299455	keystroke_e	e	n/a
151.0625	0.105	302125	keystroke_l	l	n/a
151.1525	0.12	302305	keystroke_i	i	n/a
151.3925	0.09	302785	keystroke_g	g	n/a
151.4975	0.09	302995	keystroke_i	i	n/a
151.6475	0.105	303295	keystroke_o	o	n/a
151.6925	0.09	303385	keystroke_u	u	n/a
151.7675	0.105	303535	keystroke_s	s	n/a
152.2775	0.09	304555	keystroke_Key.enter	Key.enter	n/a
152.3775	9.952	304755	prompt	n/a	integration agricultural clothing along\n
153.1925	0.15	306385	keystroke_i	i	n/a
153.3875	0.09	306775	keystroke_t	t	n/a
153.7475	0.075	307495	keystroke_Key.backspace	Key.backspace	n/a
154.0625	0.06	308125	keystroke_t	t	n/a
154.3475	0.09	308695	keystroke_Key.backspace	Key.backspace	n/a
154.4975	0.105	308995	keystroke_n	n	n/a
154.5875	0.105	309175	keystroke_t	t	n/a
154.7825	0.105	309565	keystroke_e	e	n/a
155.1725	0.06	310345	keystroke_g	g	n/a
155.3375	0.09	310675	keystroke_r	r	n/a
155.5175	0.105	311035	keystroke_a	a	n/a
155.6675	0.075	311335	keystroke_t	t	n/a
155.7575	0.075	311515	keystroke_i	i	n/a
155.8475	0.135	311695	keystroke_o	o	n/a
155.9225	0.105	311845	keystroke_n	n	n/a
156.4175	0.075	312835	keystroke_Key.space	Key.space	n/a
156.6125	0.105	313225	keystroke_a	a	n/a
157.063	0.06	314126	keystroke_g	g	n/a
157.198	0.105	314396	keystroke_r	r	n/a
157.288	0.09	314576	keystroke_i	i	n/a
157.393	0.105	314786	keystroke_c	c	n/a
157.873	0.105	315746	keystroke_u	u	n/a
157.948	0.105	315896	keystroke_l	l	n/a
158.683	0.105	317366	keystroke_t	t	n/a
159.133	0.09	318266	keystroke_u	u	n/a
159.283	0.075	318566	keystroke_r	r	n/a
159.403	0.105	318806	keystroke_a	a	n/a
159.478	0.09	318956	keystroke_l	l	n/a
159.643	0.105	319286	keystroke_Key.space	Key.space	n/a
160.078	0.09	320156	keystroke_c	c	n/a
160.138	0.075	320276	keystroke_l	l	n/a
160.3325	0.06	320665	keystroke_o	o	n/a
160.4075	0.09	320815	keystroke_t	t	n/a
160.5125	0.105	321025	keystroke_h	h	n/a
160.9485	0.119	321897	keystroke_i	i	n/a
161.0075	0.105	322015	keystroke_n	n	n/a
161.0835	0.089	322167	keystroke_g	g	n/a
161.2775	0.09	322555	keystroke_Key.space	Key.space	n/a
161.5325	0.106	323065	keystroke_a	a	n/a
161.6085	0.09	323217	keystroke_l	l	n/a
161.7885	0.12	323577	keystroke_o	o	n/a
161.8485	0.105	323697	keystroke_n	n	n/a
162.0725	0.076	324145	keystroke_g	g	n/a
162.2675	0.06	324535	keystroke_Key.enter	Key.enter	n/a
162.335	8.4545	324670	prompt	n/a	interracial axis jesse observation\n
162.9735	0.135	325947	keystroke_i	i	n/a
163.0475	0.106	326095	keystroke_n	n	n/a
163.1375	0.105	326275	keystroke_t	t	n/a
163.5125	0.076	327025	keystroke_t	t	n/a
163.7985	0.089	327597	keystroke_Key.backspace	Key.backspace	n/a
163.9035	0.075	327807	keystroke_e	e	n/a
163.9635	0.074	327927	keystroke_r	r	n/a
164.0835	0.059	328167	keystroke_r	r	n/a
164.7735	0.09	329547	keystroke_a	a	n/a
164.9385	0.09	329877	keystroke_c	c	n/a
165.0285	0.09	330057	keystroke_i	i	n/a
165.1785	0.105	330357	keystroke_a	a	n/a
165.2985	0.075	330597	keystroke_l	l	n/a
165.4625	0.105	330925	keystroke_Key.space	Key.space	n/a
165.8985	0.089	331797	keystroke_a	a	n/a
166.0935	0.059	332187	keystroke_x	x	n/a
166.1675	0.091	332335	keystroke_i	i	n/a
166.4235	0.075	332847	keystroke_s	s	n/a
166.6035	0.089	333207	keystroke_Key.space	Key.space	n/a
167.2335	0.075	334467	keystroke_j	j	n/a
167.3085	0.059	334617	keystroke_e	e	n/a
167.5175	0.136	335035	keystroke_s	s	n/a
167.7435	0.105	335487	keystroke_s	s	n/a
168.1785	0.09	336357	keystroke_e	e	n/a
168.5075	0.105	337015	keystroke_Key.space	Key.space	n/a
168.8835	0.105	337767	keystroke_o	o	n/a
169.0485	0.105	338097	keystroke_b	b	n/a
169.5585	0.089	339117	keystroke_s	s	n/a
169.7535	0.09	339507	keystroke_e	e	n/a
169.7985	0.075	339597	keystroke_r	r	n/a
169.9935	0.045	339987	keystroke_v	v	n/a
170.1135	0.075	340227	keystroke_a	a	n/a
170.2175	0.061	340435	keystroke_t	t	n/a
170.2925	0.091	340585	keystroke_i	i	n/a
170.3985	0.15	340797	keystroke_o	o	n/a
170.5175	0.091	341035	keystroke_n	n	n/a
170.7435	0.044	341487	keystroke_Key.enter	Key.enter	n/a
170.795	7.0455	341590	prompt	n/a	hereby clubs gallery saying\n
171.3435	0.105	342687	keystroke_h	h	n/a
171.4925	0.061	342985	keystroke_e	e	n/a
171.5375	0.091	343075	keystroke_r	r	n/a
171.7185	0.105	343437	keystroke_e	e	n/a
171.8385	0.075	343677	keystroke_b	b	n/a
171.9435	0.075	343887	keystroke_y	y	n/a
172.0775	0.09	344155	keystroke_Key.space	Key.space	n/a
172.6175	0.061	345235	keystroke_c	c	n/a
173.1135	0.12	346227	keystroke_l	l	n/a
173.1885	0.075	346377	keystroke_u	u	n/a
173.2485	0.09	346497	keystroke_b	b	n/a
173.4585	0.09	346917	keystroke_s	s	n/a
173.5625	0.105	347125	keystroke_Key.space	Key.space	n/a
174.0285	0.06	348057	keystroke_g	g	n/a
174.2535	0.075	348507	keystroke_a	a	n/a
174.4785	0.254	348957	keystroke_l	l	n/a
174.9575	0.076	349915	keystroke_l	l	n/a
175.0935	0.105	350187	keystroke_e	e	n/a
175.1835	0.075	350367	keystroke_r	r	n/a
175.3935	0.09	350787	keystroke_u	u	n/a
175.7985	0.12	351597	keystroke_Key.backspace	Key.backspace	n/a
176.0835	0.075	352167	keystroke_y	y	n/a
176.3235	0.09	352647	keystroke_Key.space	Key.space	n/a
176.7735	0.09	353547	keystroke_s	s	n/a
176.9235	0.09	353847	keystroke_a	a	n/a
177.1185	0.06	354237	keystroke_y	y	n/a
177.1935	0.09	354387	keystroke_i	i	n/a
177.2385	0.09	354477	keystroke_n	n	n/a
177.3585	0.06	354717	keystroke_g	g	n/a
177.7785	0.06	355557	keystroke_Key.enter	Key.enter	n/a
177.846	8.1545	355692	prompt	n/a	evans notebooks appropriate personal\n
178.5135	0.03	357027	keystroke_e	e	n/a
178.6035	0.075	357207	keystroke_v	v	n/a
178.8135	0.075	357627	keystroke_a	a	n/a
178.9035	0.075	357807	keystroke_n	n	n/a
179.1135	0.09	358227	keystroke_s	s	n/a
179.2485	0.075	358497	keystroke_Key.space	Key.space	n/a
179.4735	0.09	358947	keystroke_n	n	n/a
179.5785	0.105	359157	keystroke_o	o	n/a
179.7435	0.075	359487	keystroke_t	t	n/a
180.3135	0.075	360627	keystroke_e	e	n/a
180.4485	0.105	360897	keystroke_b	b	n/a
180.5985	0.075	361197	keystroke_a	a	n/a
180.8835	0.075	361767	keystroke_o	o	n/a
181.2425	0.075	362485	keystroke_Key.backspace	Key.backspace	n/a
181.4685	0.045	362937	keystroke_Key.backspace	Key.backspace	n/a
181.6785	0.075	363357	keystroke_o	o	n/a
181.8575	0.091	363715	keystroke_o	o	n/a
181.9035	0.12	363807	keystroke_k	k	n/a
182.0835	0.105	364167	keystroke_s	s	n/a
182.2935	0.09	364587	keystroke_Key.space	Key.space	n/a
182.6385	0.09	365277	keystroke_a	a	n/a
182.7295	0.059	365459	keystroke_p	p	n/a
182.8635	0.09	365727	keystroke_p	p	n/a
183.0135	0.09	366027	keystroke_r	r	n/a
183.2375	0.121	366475	keystroke_o	o	n/a
183.3285	0.105	366657	keystroke_p	p	n/a
183.6585	0.09	367317	keystroke_r	r	n/a
183.7635	0.105	367527	keystroke_i	i	n/a
183.8835	0.075	367767	keystroke_a	a	n/a
184.0335	0.09	368067	keystroke_t	t	n/a
184.1085	0.075	368217	keystroke_e	e	n/a
184.2575	0.09	368515	keystroke_Key.space	Key.space	n/a
185.0835	0.105	370167	keystroke_p	p	n/a
185.2035	0.09	370407	keystroke_e	e	n/a
185.2625	0.075	370525	keystroke_r	r	n/a
185.3825	0.076	370765	keystroke_s	s	n/a
185.4435	0.105	370887	keystroke_o	o	n/a
185.5025	0.075	371005	keystroke_n	n	n/a
185.5935	0.09	371187	keystroke_a	a	n/a
185.6685	0.12	371337	keystroke_l	l	n/a
185.9375	0.061	371875	keystroke_Key.enter	Key.enter	n/a
186.005	6.4605	372010	prompt	n/a	discussing seriously eagle smtp\n
186.5085	0.105	373017	keystroke_d	d	n/a
186.5985	0.105	373197	keystroke_i	i	n/a
186.883	0.09	373766	keystroke_s	s	n/a
187.048	0.09	374096	keystroke_c	c	n/a
187.153	0.09	374306	keystroke_u	u	n/a
187.348	0.06	374696	keystroke_s	s	n/a
187.468	0.06	374936	keystroke_s	s	n/a
187.573	0.09	375146	keystroke_i	i	n/a
187.603	0.09	375206	keystroke_n	n	n/a
187.738	0.06	375476	keystroke_g	g	n/a
187.828	0.12	375656	keystroke_Key.space	Key.space	n/a
188.368	0.075	376736	keystroke_s	s	n/a
188.533	0.09	377066	keystroke_e	e	n/a
188.578	0.09	377156	keystroke_r	r	n/a
188.698	0.105	377396	keystroke_i	i	n/a
188.803	0.1055	377606	keystroke_o	o	n/a
188.848	0.105	377696	keystroke_u	u	n/a
188.938	0.105	377876	keystroke_s	s	n/a
189.028	0.105	378056	keystroke_l	l	n/a
189.2085	0.075	378417	keystroke_y	y	n/a
189.343	0.0905	378686	keystroke_Key.space	Key.space	n/a
189.7335	0.0595	379467	keystroke_e	e	n/a
189.899	0.089	379798	keystroke_a	a	n/a
190.078	0.075	380156	keystroke_g	g	n/a
190.183	0.105	380366	keystroke_l	l	n/a
190.304	0.059	380608	keystroke_e	e	n/a
190.438	0.09	380876	keystroke_Key.space	Key.space	n/a
190.708	0.1205	381416	keystroke_s	s	n/a
190.9485	0.09	381897	keystroke_m	m	n/a
191.4585	0.06	382917	keystroke_t	t	n/a
191.6085	0.075	383217	keystroke_o	o	n/a
191.9685	0.09	383937	keystroke_Key.backspace	Key.backspace	n/a
192.1785	0.075	384357	keystroke_p	p	n/a
192.3735	0.09	384747	keystroke_Key.enter	Key.enter	n/a
192.471	6.759	384942	prompt	n/a	background completion named nudist\n
193.1385	0.105	386277	keystroke_b	b	n/a
193.2285	0.09	386457	keystroke_a	a	n/a
193.4085	0.09	386817	keystroke_c	c	n/a
193.4685	0.12	386937	keystroke_k	k	n/a
193.6485	0.09	387297	keystroke_g	g	n/a
193.8435	0.09	387687	keystroke_r	r	n/a
193.8885	0.09	387777	keystroke_o	o	n/a
193.9185	0.09	387837	keystroke_u	u	n/a
194.0835	0.12	388167	keystroke_n	n	n/a
194.2335	0.09	388467	keystroke_d	d	n/a
194.3685	0.105	388737	keystroke_Key.space	Key.space	n/a
194.8185	0.075	389637	keystroke_c	c	n/a
194.8785	0.12	389757	keystroke_o	o	n/a
194.9535	0.075	389907	keystroke_m	m	n/a
195.1035	0.15	390207	keystroke_p	p	n/a
195.1785	0.135	390357	keystroke_l	l	n/a
195.5685	0.105	391137	keystroke_e	e	n/a
195.8385	0.105	391677	keystroke_t	t	n/a
196.0635	0.12	392127	keystroke_i	i	n/a
196.1985	0.12	392397	keystroke_o	o	n/a
196.2585	0.12	392517	keystroke_n	n	n/a
196.5435	0.12	393087	keystroke_Key.space	Key.space	n/a
197.0835	0.09	394167	keystroke_n	n	n/a
197.1585	0.09	394317	keystroke_a	a	n/a
197.2785	0.12	394557	keystroke_m	m	n/a
197.3835	0.075	394767	keystroke_e	e	n/a
197.5785	0.045	395157	keystroke_Key.space	Key.space	n/a
197.9985	0.09	395997	keystroke_Key.backspace	Key.backspace	n/a
198.1185	0.09	396237	keystroke_d	d	n/a
198.2535	0.09	396507	keystroke_Key.space	Key.space	n/a
198.4335	0.09	396867	keystroke_n	n	n/a
198.5835	0.075	397167	keystroke_u	u	n/a
198.6735	0.09	397347	keystroke_d	d	n/a
198.8085	0.09	397617	keystroke_i	i	n/a
198.9135	0.12	397827	keystroke_s	s	n/a
199.0185	0.075	398037	keystroke_t	t	n/a
199.1535	0.075	398307	keystroke_Key.enter	Key.enter	n/a
199.2355	7.8105	398471	prompt	n/a	acne traditions stanford bennett\n
199.7685	0.09	399537	keystroke_a	a	n/a
199.9485	0.105	399897	keystroke_c	c	n/a
200.0385	0.09	400077	keystroke_e	e	n/a
200.1135	0.075	400227	keystroke_n	n	n/a
200.5185	0.075	401037	keystroke_Key.backspace	Key.backspace	n/a
200.7135	0.045	401427	keystroke_Key.backspace	Key.backspace	n/a
200.9385	0.075	401877	keystroke_n	n	n/a
201.0285	0.09	402057	keystroke_e	e	n/a
201.1635	0.075	402327	keystroke_Key.space	Key.space	n/a
201.5235	0.075	403047	keystroke_t	t	n/a
201.6735	0.09	403347	keystroke_r	r	n/a
201.7935	0.105	403587	keystroke_a	a	n/a
201.9135	0.09	403827	keystroke_d	d	n/a
202.0635	0.075	404127	keystroke_i	i	n/a
202.2285	0.09	404457	keystroke_t	t	n/a
202.3035	0.075	404607	keystroke_i	i	n/a
202.3935	0.135	404787	keystroke_o	o	n/a
202.4835	0.075	404967	keystroke_n	n	n/a
202.5595	0.089	405119	keystroke_s	s	n/a
202.7385	0.06	405477	keystroke_Key.space	Key.space	n/a
203.2935	0.105	406587	keystroke_s	s	n/a
203.4435	0.075	406887	keystroke_t	t	n/a
203.8035	0.09	407607	keystroke_a	a	n/a
204.1485	0.09	408297	keystroke_n	n	n/a
204.3585	0.06	408717	keystroke_f	f	n/a
204.5535	0.105	409107	keystroke_o	o	n/a
204.6595	0.074	409319	keystroke_r	r	n/a
204.8535	0.09	409707	keystroke_d	d	n/a
204.9885	0.075	409977	keystroke_Key.space	Key.space	n/a
205.3935	0.075	410787	keystroke_b	b	n/a
205.5735	0.075	411147	keystroke_e	e	n/a
205.8585	0.09	411717	keystroke_n	n	n/a
206.2935	0.09	412587	keystroke_n	n	n/a
206.4435	0.105	412887	keystroke_e	e	n/a
206.6835	0.075	413367	keystroke_t	t	n/a
206.8485	0.06	413697	keystroke_t	t	n/a
206.9685	0.075	413937	keystroke_Key.enter	Key.enter	n/a
207.052	8.2585	414104	prompt	n/a	music catering wiley troubleshooting\n
208.1385	0.09	416277	keystroke_m	m	n/a
208.3485	0.09	416697	keystroke_u	u	n/a
208.4685	0.09	416937	keystroke_s	s	n/a
208.5885	0.105	417177	keystroke_i	i	n/a
208.7535	0.105	417507	keystroke_c	c	n/a
209.0985	0.075	418197	keystroke_Key.space	Key.space	n/a
209.4885	0.105	418977	keystroke_c	c	n/a
209.6835	0.09	419367	keystroke_a	a	n/a
209.8485	0.075	419697	keystroke_t	t	n/a
209.9685	0.105	419937	keystroke_e	e	n/a
210.0135	0.105	420027	keystroke_r	r	n/a
210.3435	0.135	420687	keystroke_i	i	n/a
210.4335	0.105	420867	keystroke_n	n	n/a
210.5235	0.09	421047	keystroke_g	g	n/a
210.6435	0.09	421287	keystroke_Key.space	Key.space	n/a
211.0785	0.09	422157	keystroke_w	w	n/a
211.1535	0.12	422307	keystroke_i	i	n/a
211.2285	0.105	422457	keystroke_l	l	n/a
211.4235	0.09	422847	keystroke_e	e	n/a
211.5735	0.105	423147	keystroke_y	y	n/a
211.7985	0.105	423597	keystroke_Key.space	Key.space	n/a
212.3535	0.045	424707	keystroke_t	t	n/a
212.5035	0.09	425007	keystroke_r	r	n/a
212.6085	0.105	425217	keystroke_o	o	n/a
212.6535	0.09	425307	keystroke_u	u	n/a
212.789	0.09	425578	keystroke_b	b	n/a
212.894	0.075	425788	keystroke_l	l	n/a
213.028	0.076	426056	keystroke_e	e	n/a
213.179	0.09	426358	keystroke_Key.space	Key.space	n/a
213.374	0.06	426748	keystroke_s	s	n/a
213.644	0.075	427288	keystroke_Key.backspace	Key.backspace	n/a
213.764	0.075	427528	keystroke_Key.backspace	Key.backspace	n/a
214.184	0.09	428368	keystroke_s	s	n/a
214.289	0.09	428578	keystroke_h	h	n/a
214.394	0.06	428788	keystroke_o	o	n/a
214.529	0.105	429058	keystroke_o	o	n/a
214.679	0.09	429358	keystroke_t	t	n/a
214.843	0.121	429686	keystroke_i	i	n/a
214.919	0.105	429838	keystroke_n	n	n/a
215.009	0.074	430018	keystroke_g	g	n/a
215.233	0.075	430466	keystroke_Key.enter	Key.enter	n/a
215.3155	7.105	430631	prompt	n/a	massachusetts shown keep soup\n
215.879	0.105	431758	keystroke_m	m	n/a
216.014	0.12	432028	keystroke_a	a	n/a
216.239	0.09	432478	keystroke_s	s	n/a
216.479	0.09	432958	keystroke_s	s	n/a
216.733	0.091	433466	keystroke_a	a	n/a
217.138	0.075	434276	keystroke_c	c	n/a
217.319	0.104	434638	keystroke_h	h	n/a
217.393	0.076	434786	keystroke_u	u	n/a
217.588	0.075	435176	keystroke_s	s	n/a
217.783	0.105	435566	keystroke_e	e	n/a
217.933	0.06	435866	keystroke_t	t	n/a
218.054	0.075	436108	keystroke_t	t	n/a
218.219	0.089	436438	keystroke_s	s	n/a
218.398	0.105	436796	keystroke_Key.space	Key.space	n/a
218.743	0.076	437486	keystroke_s	s	n/a
218.803	0.091	437606	keystroke_h	h	n/a
218.878	0.0905	437756	keystroke_o	o	n/a
218.9535	0.0905	437907	keystroke_w	w	n/a
219.1485	0.09	438297	keystroke_n	n	n/a
219.2985	0.09	438597	keystroke_Key.space	Key.space	n/a
219.5985	0.045	439197	keystroke_t	t	n/a
219.854	0.075	439708	keystroke_Key.backspace	Key.backspace	n/a
220.019	0.0605	440038	keystroke_k	k	n/a
220.124	0.06	440248	keystroke_e	e	n/a
220.319	0.06	440638	keystroke_e	e	n/a
220.574	0.12	441148	keystroke_p	p	n/a
220.919	0.075	441838	keystroke_s	s	n/a
221.474	0.06	442948	keystroke_Key.backspace	Key.backspace	n/a
221.594	0.105	443188	keystroke_Key.space	Key.space	n/a
221.714	0.0895	443428	keystroke_s	s	n/a
221.7885	0.12	443577	keystroke_o	o	n/a
221.8635	0.105	443727	keystroke_u	u	n/a
222.0135	0.12	444027	keystroke_p	p	n/a
222.3585	0.06	444717	keystroke_Key.enter	Key.enter	n/a
222.426	6.5945	444852	prompt	n/a	graphs safari burlington analog\n
222.9585	0.06	445917	keystroke_g	g	n/a
223.0935	0.09	446187	keystroke_r	r	n/a
223.2135	0.09	446427	keystroke_a	a	n/a
223.2885	0.09	446577	keystroke_p	p	n/a
223.4685	0.105	446937	keystroke_h	h	n/a
223.6335	0.09	447267	keystroke_s	s	n/a
223.7835	0.09	447567	keystroke_Key.space	Key.space	n/a
224.0985	0.075	448197	keystroke_s	s	n/a
224.2335	0.075	448467	keystroke_a	a	n/a
224.3685	0.09	448737	keystroke_f	f	n/a
224.5335	0.09	449067	keystroke_a	a	n/a
224.6385	0.075	449277	keystroke_r	r	n/a
224.7435	0.105	449487	keystroke_i	i	n/a
225.1335	0.105	450267	keystroke_Key.space	Key.space	n/a
225.7485	0.09	451497	keystroke_b	b	n/a
225.8685	0.09	451737	keystroke_u	u	n/a
226.0185	0.09	452037	keystroke_r	r	n/a
226.2585	0.105	452517	keystroke_l	l	n/a
226.5885	0.105	453177	keystroke_i	i	n/a
226.6195	0.104	453239	keystroke_n	n	n/a
226.7385	0.075	453477	keystroke_g	g	n/a
227.0835	0.075	454167	keystroke_t	t	n/a
227.1435	0.12	454287	keystroke_o	o	n/a
227.2035	0.105	454407	keystroke_n	n	n/a
227.3685	0.135	454737	keystroke_Key.space	Key.space	n/a
227.5785	0.09	455157	keystroke_a	a	n/a
227.6835	0.075	455367	keystroke_n	n	n/a
227.7735	0.09	455547	keystroke_a	a	n/a
227.8935	0.075	455787	keystroke_l	l	n/a
228.1185	0.12	456237	keystroke_o	o	n/a
228.1635	0.015	456327	keystroke_n	n	n/a
228.5985	0.06	457197	keystroke_Key.backspace	Key.backspace	n/a
228.6445	0.059	457289	keystroke_g	g	n/a
228.9735	0.045	457947	keystroke_Key.enter	Key.enter	n/a
229.0275	7.4485	458055	prompt	n/a	supplied jamie delivered flavor\n
229.5885	0.09	459177	keystroke_s	s	n/a
229.6635	0.09	459327	keystroke_u	u	n/a
229.8435	0.06	459687	keystroke_p	p	n/a
229.9785	0.12	459957	keystroke_p	p	n/a
230.0535	0.105	460107	keystroke_l	l	n/a
230.2635	0.09	460527	keystroke_i	i	n/a
230.3835	0.075	460767	keystroke_s	s	n/a
230.7135	0.075	461427	keystroke_Key.backspace	Key.backspace	n/a
230.8185	0.075	461637	keystroke_e	e	n/a
230.8485	0.105	461697	keystroke_d	d	n/a
231.0135	0.075	462027	keystroke_Key.space	Key.space	n/a
231.5985	0.06	463197	keystroke_g	g	n/a
231.7635	0.075	463527	keystroke_a	a	n/a
232.0935	0.075	464187	keystroke_Key.backspace	Key.backspace	n/a
232.2735	0.03	464547	keystroke_Key.backspace	Key.backspace	n/a
232.4835	0.12	464967	keystroke_j	j	n/a
232.6335	0.105	465267	keystroke_a	a	n/a
232.7235	0.106	465447	keystroke_m	m	n/a
232.8445	0.089	465689	keystroke_i	i	n/a
232.9785	0.075	465957	keystroke_e	e	n/a
233.1285	0.075	466257	keystroke_Key.space	Key.space	n/a
233.5785	0.105	467157	keystroke_d	d	n/a
233.6385	0.12	467277	keystroke_e	e	n/a
233.9095	0.119	467819	keystroke_l	l	n/a
233.9535	0.105	467907	keystroke_i	i	n/a
234.1785	0.075	468357	keystroke_v	v	n/a
234.2985	0.09	468597	keystroke_e	e	n/a
234.3585	0.076	468717	keystroke_r	r	n/a
234.5245	0.059	469049	keystroke_e	e	n/a
234.5535	0.105	469107	keystroke_d	d	n/a
234.6885	0.09	469377	keystroke_Key.space	Key.space	n/a
235.4685	0.076	470937	keystroke_f	f	n/a
235.5735	0.076	471147	keystroke_l	l	n/a
235.7385	0.09	471477	keystroke_a	a	n/a
235.9495	0.074	471899	keystroke_v	v	n/a
236.0685	0.076	472137	keystroke_o	o	n/a
236.1735	0.075	472347	keystroke_r	r	n/a
236.3995	0.074	472799	keystroke_Key.enter	Key.enter	n/a
236.481	8.095	472962	prompt	n/a	browse ottawa professionals launches\n
237.1635	0.106	474327	keystroke_b	b	n/a
237.3285	0.075	474657	keystroke_r	r	n/a
237.4635	0.105	474927	keystroke_o	o	n/a
237.5535	0.076	475107	keystroke_w	w	n/a
237.7495	0.075	475499	keystroke_s	s	n/a
237.8985	0.076	475797	keystroke_e	e	n/a
238.0035	0.105	476007	keystroke_Key.space	Key.space	n/a
238.4685	0.09	476937	keystroke_o	o	n/a
238.4985	0.076	476997	keystroke_t	t	n/a
238.6335	0.09	477267	keystroke_t	t	n/a
239.2045	0.06	478409	keystroke_a	a	n/a
239.7145	0.045	479429	keystroke_w	w	n/a
239.8795	0.089	479759	keystroke_a	a	n/a
239.9835	0.12	479967	keystroke_Key.space	Key.space	n/a
240.4785	0.061	480957	keystroke_o	o	n/a
240.8085	0.075	481617	keystroke_Key.backspace	Key.backspace	n/a
241.0035	0.09	482007	keystroke_p	p	n/a
241.1685	0.091	482337	keystroke_r	r	n/a
241.3035	0.105	482607	keystroke_o	o	n/a
241.4235	0.06	482847	keystroke_f	f	n/a
241.5435	0.09	483087	keystroke_e	e	n/a
241.7235	0.075	483447	keystroke_s	s	n/a
241.8585	0.075	483717	keystroke_s	s	n/a
241.9485	0.09	483897	keystroke_i	i	n/a
242.0395	0.119	484079	keystroke_o	o	n/a
242.1285	0.105	484257	keystroke_n	n	n/a
242.2495	0.074	484499	keystroke_a	a	n/a
242.3095	0.089	484619	keystroke_l	l	n/a
242.4435	0.105	484887	keystroke_s	s	n/a
242.5935	0.09	485187	keystroke_Key.space	Key.space	n/a
243.0285	0.0605	486057	keystroke_l	l	n/a
243.1035	0.105	486207	keystroke_a	a	n/a
243.6135	0.075	487227	keystroke_u	u	n/a
243.8235	0.0905	487647	keystroke_n	n	n/a
243.9285	0.075	487857	keystroke_c	c	n/a
244.034	0.0895	488068	keystroke_h	h	n/a
244.1385	0.0605	488277	keystroke_e	e	n/a
244.3035	0.09	488607	keystroke_s	s	n/a
244.4685	0.105	488937	keystroke_Key.enter	Key.enter	n/a
244.5805	6.9105	489161	prompt	n/a	journalism unions trap satisfy\n
245.189	0.105	490378	keystroke_j	j	n/a
245.384	0.135	490768	keystroke_o	o	n/a
245.474	0.12	490948	keystroke_u	u	n/a
245.699	0.075	491398	keystroke_r	r	n/a
246.134	0.09	492268	keystroke_n	n	n/a
246.374	0.075	492748	keystroke_a	a	n/a
246.509	0.195	493018	keystroke_l	l	n/a
246.719	0.075	493438	keystroke_i	i	n/a
246.869	0.075	493738	keystroke_s	s	n/a
246.974	0.09	493948	keystroke_m	m	n/a
247.124	0.105	494248	keystroke_Key.space	Key.space	n/a
247.469	0.03	494938	keystroke_u	u	n/a
247.649	0.09	495298	keystroke_n	n	n/a
247.874	0.09	495748	keystroke_i	i	n/a
247.979	0.12	495958	keystroke_o	o	n/a
248.054	0.09	496108	keystroke_n	n	n/a
248.159	0.075	496318	keystroke_s	s	n/a
248.264	0.09	496528	keystroke_Key.space	Key.space	n/a
248.534	0.06	497068	keystroke_t	t	n/a
248.684	0.105	497368	keystroke_r	r	n/a
248.819	0.12	497638	keystroke_a	a	n/a
248.924	0.105	497848	keystroke_p	p	n/a
249.104	0.105	498208	keystroke_Key.space	Key.space	n/a
249.344	0.09	498688	keystroke_s	s	n/a
249.554	0.105	499108	keystroke_a	a	n/a
249.749	0.06	499498	keystroke_t	t	n/a
249.854	0.09	499708	keystroke_i	i	n/a
250.064	0.09	500128	keystroke_f	f	n/a
250.469	0.09	500938	keystroke_Key.backspace	Key.backspace	n/a
250.544	0.09	501088	keystroke_s	s	n/a
250.8735	0.09	501747	keystroke_f	f	n/a
251.1135	0.105	502227	keystroke_y	y	n/a
251.4135	0.075	502827	keystroke_Key.enter	Key.enter	n/a
251.4955	6.9845	502991	prompt	n/a	accepted consent mail grow\n
252.1035	0.075	504207	keystroke_a	a	n/a
252.2535	0.075	504507	keystroke_c	c	n/a
252.4185	0.105	504837	keystroke_c	c	n/a
252.5985	0.105	505197	keystroke_e	e	n/a
252.7635	0.06	505527	keystroke_o	o	n/a
253.1085	0.06	506217	keystroke_Key.backspace	Key.backspace	n/a
253.3035	0.075	506607	keystroke_p	p	n/a
253.3935	0.045	506787	keystroke_t	t	n/a
253.4835	0.12	506967	keystroke_e	e	n/a
253.5885	0.075	507177	keystroke_d	d	n/a
253.7235	0.075	507447	keystroke_Key.space	Key.space	n/a
254.1135	0.09	508227	keystroke_c	c	n/a
254.1885	0.12	508377	keystroke_o	o	n/a
254.2335	0.105	508467	keystroke_n	n	n/a
254.3835	0.075	508767	keystroke_s	s	n/a
254.5785	0.06	509157	keystroke_e	e	n/a
254.6835	0.105	509367	keystroke_n	n	n/a
254.8335	0.06	509667	keystroke_t	t	n/a
254.9085	0.09	509817	keystroke_Key.space	Key.space	n/a
255.3735	0.09	510747	keystroke_m	m	n/a
255.569	0.105	511138	keystroke_a	a	n/a
255.658	0.106	511316	keystroke_i	i	n/a
255.734	0.105	511468	keystroke_l	l	n/a
255.928	0.121	511856	keystroke_Key.space	Key.space	n/a
256.184	0.06	512368	keystroke_f	f	n/a
256.349	0.075	512698	keystroke_r	r	n/a
256.469	0.089	512938	keystroke_o	o	n/a
256.994	0.074	513988	keystroke_Key.backspace	Key.backspace	n/a
257.219	0.015	514438	keystroke_Key.backspace	Key.backspace	n/a
257.308	0.061	514616	keystroke_Key.backspace	Key.backspace	n/a
257.849	0.06	515698	keystroke_g	g	n/a
258.029	0.075	516058	keystroke_r	r	n/a
258.119	0.105	516238	keystroke_o	o	n/a
258.254	0.075	516508	keystroke_w	w	n/a
258.419	0.059	516838	keystroke_Key.enter	Key.enter	n/a
258.485	6.612	516970	prompt	n/a	morris desperate concentrations lending\n
259.094	0.12	518188	keystroke_m	m	n/a
259.289	0.09	518578	keystroke_o	o	n/a
259.364	0.06	518728	keystroke_r	r	n/a
259.484	0.075	518968	keystroke_r	r	n/a
259.589	0.09	519178	keystroke_i	i	n/a
259.709	0.105	519418	keystroke_s	s	n/a
259.859	0.105	519718	keystroke_Key.space	Key.space	n/a
260.174	0.075	520348	keystroke_d	d	n/a
260.279	0.075	520558	keystroke_e	e	n/a
260.474	0.075	520948	keystroke_s	s	n/a
260.609	0.09	521218	keystroke_p	p	n/a
260.714	0.09	521428	keystroke_e	e	n/a
260.789	0.075	521578	keystroke_r	r	n/a
261.194	0.105	522388	keystroke_a	a	n/a
261.329	0.09	522658	keystroke_t	t	n/a
261.434	0.075	522868	keystroke_e	e	n/a
261.569	0.089	523138	keystroke_Key.space	Key.space	n/a
261.869	0.105	523738	keystroke_c	c	n/a
261.959	0.09	523918	keystroke_o	o	n/a
262.019	0.075	524038	keystroke_n	n	n/a
262.124	0.075	524248	keystroke_c	c	n/a
262.274	0.105	524548	keystroke_e	e	n/a
262.574	0.105	525148	keystroke_n	n	n/a
262.919	0.075	525838	keystroke_t	t	n/a
263.114	0.045	526228	keystroke_r	r	n/a
263.219	0.09	526438	keystroke_a	a	n/a
263.399	0.075	526798	keystroke_t	t	n/a
263.459	0.075	526918	keystroke_i	i	n/a
263.549	0.135	527098	keystroke_o	o	n/a
263.624	0.105	527248	keystroke_n	n	n/a
263.714	0.09	527428	keystroke_s	s	n/a
264.044	0.12	528088	keystroke_Key.space	Key.space	n/a
264.269	0.09	528538	keystroke_l	l	n/a
264.404	0.09	528808	keystroke_e	e	n/a
264.524	0.075	529048	keystroke_n	n	n/a
264.614	0.075	529228	keystroke_d	d	n/a
264.719	0.09	529438	keystroke_i	i	n/a
264.764	0.075	529528	keystroke_n	n	n/a
264.869	0.06	529738	keystroke_g	g	n/a
265.019	0.075	530038	keystroke_Key.enter	Key.enter	n/a
265.1025	8.948	530205	prompt	n/a	auburn strengthen wooden collected\n
265.634	0.09	531268	keystroke_a	a	n/a
266.129	0.075	532258	keystroke_u	u	n/a
266.354	0.075	532708	keystroke_b	b	n/a
266.474	0.075	532948	keystroke_r	r	n/a
266.714	0.045	533428	keystroke_n	n	n/a
267.089	0.09	534178	keystroke_Key.backspace	Key.backspace	n/a
267.509	0.075	535018	keystroke_Key.backspace	Key.backspace	n/a
267.674	0.045	535348	keystroke_u	u	n/a
267.779	0.045	535558	keystroke_r	r	n/a
267.944	0.075	535888	keystroke_n	n	n/a
268.289	0.105	536578	keystroke_Key.space	Key.space	n/a
268.679	0.06	537358	keystroke_s	s	n/a
268.874	0.045	537748	keystroke_t	t	n/a
269.099	0.105	538198	keystroke_r	r	n/a
269.205	0.104	538410	keystroke_e	e	n/a
270.104	0.12	540208	keystroke_n	n	n/a
270.284	0.06	540568	keystroke_g	g	n/a
270.479	0.075	540958	keystroke_t	t	n/a
270.539	0.105	541078	keystroke_h	h	n/a
270.899	0.06	541798	keystroke_e	e	n/a
270.974	0.105	541948	keystroke_n	n	n/a
271.259	0.105	542518	keystroke_Key.space	Key.space	n/a
271.634	0.09	543268	keystroke_w	w	n/a
271.739	0.075	543478	keystroke_o	o	n/a
271.934	0.09	543868	keystroke_o	o	n/a
272.009	0.15	544018	keystroke_d	d	n/a
272.174	0.075	544348	keystroke_e	e	n/a
272.294	0.09	544588	keystroke_n	n	n/a
272.534	0.045	545068	keystroke_Key.space	Key.space	n/a
272.759	0.075	545518	keystroke_c	c	n/a
272.924	0.045	545848	keystroke_o	o	n/a
273.119	0.09	546238	keystroke_l	l	n/a
273.299	0.075	546598	keystroke_l	l	n/a
273.359	0.105	546718	keystroke_e	e	n/a
273.434	0.105	546868	keystroke_c	c	n/a
273.644	0.06	547288	keystroke_t	t	n/a
273.764	0.105	547528	keystroke_e	e	n/a
273.824	0.105	547648	keystroke_d	d	n/a
273.959	0.09	547918	keystroke_Key.enter	Key.enter	n/a
274.056	6.5945	548112	prompt	n/a	checkout detect pump layout\n
274.544	0.105	549088	keystroke_c	c	n/a
274.634	0.105	549268	keystroke_h	h	n/a
274.724	0.1055	549448	keystroke_e	e	n/a
274.814	0.1055	549628	keystroke_c	c	n/a
274.9335	0.09	549867	keystroke_k	k	n/a
275.0835	0.09	550167	keystroke_e	e	n/a
275.4585	0.06	550917	keystroke_Key.backspace	Key.backspace	n/a
275.6685	0.121	551337	keystroke_o	o	n/a
275.7295	0.09	551459	keystroke_u	u	n/a
275.8035	0.076	551607	keystroke_t	t	n/a
275.8935	0.105	551787	keystroke_Key.space	Key.space	n/a
276.4945	0.089	552989	keystroke_d	d	n/a
276.5985	0.106	553197	keystroke_e	e	n/a
276.7335	0.09	553467	keystroke_t	t	n/a
276.839	0.1045	553678	keystroke_e	e	n/a
276.9885	0.09	553977	keystroke_c	c	n/a
277.1835	0.06	554367	keystroke_t	t	n/a
277.3185	0.09	554637	keystroke_Key.space	Key.space	n/a
277.7085	0.105	555417	keystroke_j	j	n/a
278.0685	0.09	556137	keystroke_Key.backspace	Key.backspace	n/a
278.3085	0.135	556617	keystroke_p	p	n/a
278.4885	0.045	556977	keystroke_u	u	n/a
278.6685	0.105	557337	keystroke_m	m	n/a
278.8185	0.09	557637	keystroke_p	p	n/a
279.0435	0.105	558087	keystroke_Key.space	Key.space	n/a
279.1785	0.09	558357	keystroke_l	l	n/a
279.7035	0.12	559407	keystroke_a	a	n/a
279.9285	0.06	559857	keystroke_y	y	n/a
280.0335	0.105	560067	keystroke_o	o	n/a
280.0935	0.105	560187	keystroke_u	u	n/a
280.2585	0.105	560517	keystroke_t	t	n/a
280.5735	0.075	561147	keystroke_Key.enter	Key.enter	n/a
280.6545	6.9715	561309	prompt	n/a	future stake brooks relevant\n
281.549	0.105	563098	keystroke_f	f	n/a
281.789	0.075	563578	keystroke_u	u	n/a
281.924	0.075	563848	keystroke_t	t	n/a
282.479	0.075	564958	keystroke_u	u	n/a
282.719	0.105	565438	keystroke_r	r	n/a
282.809	0.105	565618	keystroke_e	e	n/a
283.049	0.135	566098	keystroke_Key.space	Key.space	n/a
283.499	0.075	566998	keystroke_s	s	n/a
283.604	0.075	567208	keystroke_t	t	n/a
283.799	0.075	567598	keystroke_a	a	n/a
283.889	0.12	567778	keystroke_k	k	n/a
283.994	0.06	567988	keystroke_e	e	n/a
284.174	0.09	568348	keystroke_Key.space	Key.space	n/a
284.594	0.075	569188	keystroke_b	b	n/a
284.759	0.09	569518	keystroke_r	r	n/a
284.864	0.075	569728	keystroke_o	o	n/a
285.224	0.09	570448	keystroke_o	o	n/a
285.359	0.105	570718	keystroke_k	k	n/a
285.449	0.12	570898	keystroke_s	s	n/a
285.614	0.09	571228	keystroke_Key.space	Key.space	n/a
285.869	0.105	571738	keystroke_r	r	n/a
285.929	0.105	571858	keystroke_e	e	n/a
286.304	0.075	572608	keystroke_l	l	n/a
286.484	0.075	572968	keystroke_e	e	n/a
286.664	0.09	573328	keystroke_v	v	n/a
287.129	0.135	574258	keystroke_a	a	n/a
287.234	0.105	574468	keystroke_n	n	n/a
287.354	0.075	574708	keystroke_t	t	n/a
287.549	0.075	575098	keystroke_Key.enter	Key.enter	n/a
287.6315	4.6595	575263	prompt	n/a	trips urls legacy view\n
288.254	0.09	576508	keystroke_t	t	n/a
288.419	0.105	576838	keystroke_r	r	n/a
288.494	0.165	576988	keystroke_i	i	n/a
288.629	0.105	577258	keystroke_p	p	n/a
288.764	0.075	577528	keystroke_s	s	n/a
288.929	0.105	577858	keystroke_Key.space	Key.space	n/a
289.244	0.105	578488	keystroke_u	u	n/a
289.364	0.09	578728	keystroke_r	r	n/a
289.469	0.105	578938	keystroke_l	l	n/a
289.589	0.09	579178	keystroke_s	s	n/a
289.754	0.105	579508	keystroke_Key.space	Key.space	n/a
290.084	0.105	580168	keystroke_l	l	n/a
290.489	0.09	580978	keystroke_e	e	n/a
290.639	0.06	581278	keystroke_g	g	n/a
290.804	0.075	581608	keystroke_a	a	n/a
290.954	0.09	581908	keystroke_c	c	n/a
291.074	0.06	582148	keystroke_y	y	n/a
291.224	0.09	582448	keystroke_Key.space	Key.space	n/a
291.599	0.06	583198	keystroke_v	v	n/a
291.674	0.105	583348	keystroke_i	i	n/a
291.794	0.075	583588	keystroke_e	e	n/a
291.959	0.075	583918	keystroke_w	w	n/a
292.199	0.09	584398	keystroke_Key.enter	Key.enter	n/a
292.2955	5.3355	584591	prompt	n/a	corpus cats nice permissions\n
292.799	0.12	585598	keystroke_c	c	n/a
293.084	0.105	586168	keystroke_o	o	n/a
293.324	0.075	586648	keystroke_r	r	n/a
293.519	0.075	587038	keystroke_p	p	n/a
293.699	0.09	587398	keystroke_u	u	n/a
293.804	0.09	587608	keystroke_s	s	n/a
293.954	0.105	587908	keystroke_Key.space	Key.space	n/a
294.149	0.075	588298	keystroke_c	c	n/a
294.269	0.105	588538	keystroke_a	a	n/a
294.404	0.135	588808	keystroke_t	t	n/a
294.509	0.09	589018	keystroke_s	s	n/a
294.719	0.09	589438	keystroke_Key.space	Key.space	n/a
295.109	0.12	590218	keystroke_n	n	n/a
295.244	0.09	590488	keystroke_i	i	n/a
295.334	0.105	590668	keystroke_c	c	n/a
295.44	0.104	590880	keystroke_e	e	n/a
295.559	0.09	591118	keystroke_Key.space	Key.space	n/a
295.799	0.12	591598	keystroke_p	p	n/a
296.114	0.105	592228	keystroke_e	e	n/a
296.264	0.09	592528	keystroke_r	r	n/a
296.399	0.09	592798	keystroke_m	m	n/a
296.534	0.105	593068	keystroke_i	i	n/a
296.624	0.06	593248	keystroke_s	s	n/a
296.759	0.105	593518	keystroke_s	s	n/a
296.969	0.075	593938	keystroke_i	i	n/a
297.044	0.135	594088	keystroke_o	o	n/a
297.134	0.09	594268	keystroke_n	n	n/a
297.254	0.075	594508	keystroke_s	s	n/a
297.554	0.075	595108	keystroke_Key.enter	Key.enter	n/a
297.636	4.7505	595272	prompt	n/a	mentor quit enables rangers\n
298.364	0.09	596728	keystroke_m	m	n/a
298.484	0.09	596968	keystroke_e	e	n/a
298.604	0.075	597208	keystroke_n	n	n/a
298.919	0.045	597838	keystroke_t	t	n/a
298.994	0.09	597988	keystroke_o	o	n/a
299.114	0.075	598228	keystroke_r	r	n/a
299.234	0.09	598468	keystroke_Key.space	Key.space	n/a
299.549	0.06	599098	keystroke_q	q	n/a
299.624	0.12	599248	keystroke_u	u	n/a
299.684	0.105	599368	keystroke_i	i	n/a
299.819	0.09	599638	keystroke_t	t	n/a
300.104	0.09	600208	keystroke_Key.space	Key.space	n/a
300.344	0.075	600688	keystroke_e	e	n/a
300.434	0.09	600868	keystroke_n	n	n/a
300.584	0.105	601168	keystroke_a	a	n/a
300.674	0.0905	601348	keystroke_b	b	n/a
300.8695	0.09	601739	keystroke_l	l	n/a
301.0645	0.06	602129	keystroke_e	e	n/a
301.2295	0.105	602459	keystroke_s	s	n/a
301.3185	0.075	602637	keystroke_Key.space	Key.space	n/a
301.5735	0.075	603147	keystroke_r	r	n/a
301.6945	0.09	603389	keystroke_a	a	n/a
301.7695	0.075	603539	keystroke_n	n	n/a
301.8745	0.074	603749	keystroke_g	g	n/a
301.9345	0.119	603869	keystroke_e	e	n/a
302.0245	0.089	604049	keystroke_r	r	n/a
302.1595	0.089	604319	keystroke_s	s	n/a
302.2935	0.09	604587	keystroke_Key.enter	Key.enter	n/a
302.3935	4.432	604787	prompt	n/a	away comedy wanting seekers\n
302.894	0.09	605788	keystroke_a	a	n/a
303.059	0.075	606118	keystroke_w	w	n/a
303.209	0.105	606418	keystroke_a	a	n/a
303.284	0.105	606568	keystroke_y	y	n/a
303.434	0.105	606868	keystroke_Key.space	Key.space	n/a
303.764	0.075	607528	keystroke_c	c	n/a
303.884	0.12	607768	keystroke_o	o	n/a
303.944	0.105	607888	keystroke_m	m	n/a
304.109	0.12	608218	keystroke_e	e	n/a
304.199	0.12	608398	keystroke_d	d	n/a
304.364	0.09	608728	keystroke_y	y	n/a
304.499	0.12	608998	keystroke_Key.space	Key.space	n/a
304.8445	0.06	609689	keystroke_w	w	n/a
305.009	0.0895	610018	keystroke_a	a	n/a
305.1435	0.09	610287	keystroke_n	n	n/a
305.2785	0.061	610557	keystroke_t	t	n/a
305.3535	0.105	610707	keystroke_i	i	n/a
305.3985	0.09	610797	keystroke_n	n	n/a
305.5035	0.061	611007	keystroke_g	g	n/a
305.5935	0.09	611187	keystroke_Key.space	Key.space	n/a
305.8485	0.06	611697	keystroke_s	s	n/a
305.9985	0.061	611997	keystroke_e	e	n/a
306.1035	0.075	612207	keystroke_e	e	n/a
306.2085	0.09	612417	keystroke_k	k	n/a
306.3285	0.105	612657	keystroke_e	e	n/a
306.4035	0.091	612807	keystroke_r	r	n/a
306.5235	0.075	613047	keystroke_s	s	n/a
306.7335	0.0905	613467	keystroke_Key.enter	Key.enter	n/a
306.829	15.3275	613658	prompt	n/a	edinburgh ericsson strain anthropology\n
307.409	0.12	614818	keystroke_e	e	n/a
307.514	0.06	615028	keystroke_n	n	n/a
307.799	0.075	615598	keystroke_d	d	n/a
308.054	0.06	616108	keystroke_Key.backspace	Key.backspace	n/a
308.399	0.075	616798	keystroke_Key.backspace	Key.backspace	n/a
308.534	0.09	617068	keystroke_d	d	n/a
308.669	0.12	617338	keystroke_i	i	n/a
308.759	0.0755	617518	keystroke_n	n	n/a
309.1945	0.105	618389	keystroke_b	b	n/a
309.3445	0.075	618689	keystroke_u	u	n/a
309.4345	0.09	618869	keystroke_r	r	n/a
309.6595	0.06	619319	keystroke_g	g	n/a
310.0195	0.075	620039	keystroke_h	h	n/a
310.1835	0.091	620367	keystroke_Key.space	Key.space	n/a
310.5295	0.105	621059	keystroke_e	e	n/a
310.874	0.09	621748	keystroke_r	r	n/a
311.099	0.075	622198	keystroke_c	c	n/a
311.219	0.105	622438	keystroke_i	i	n/a
311.744	0.06	623488	keystroke_s	s	n/a
312.074	0.06	624148	keystroke_Key.backspace	Key.backspace	n/a
312.284	0.045	624568	keystroke_Key.backspace	Key.backspace	n/a
312.449	0.06	624898	keystroke_Key.backspace	Key.backspace	n/a
312.689	0.09	625378	keystroke_i	i	n/a
312.809	0.09	625618	keystroke_c	c	n/a
313.034	0.06	626068	keystroke_s	s	n/a
313.229	0.075	626458	keystroke_s	s	n/a
313.364	0.135	626728	keystroke_o	o	n/a
313.409	0.105	626818	keystroke_n	n	n/a
313.664	0.105	627328	keystroke_Key.space	Key.space	n/a
313.904	0.045	627808	keystroke_t	t	n/a
314.249	0.075	628498	keystroke_Key.backspace	Key.backspace	n/a
314.384	0.075	628768	keystroke_s	s	n/a
314.474	0.06	628948	keystroke_t	t	n/a
314.639	0.09	629278	keystroke_r	r	n/a
314.789	0.12	629578	keystroke_a	a	n/a
314.939	0.105	629878	keystroke_i	i	n/a
314.984	0.105	629968	keystroke_n	n	n/a
316.844	0.105	633688	keystroke_Key.space	Key.space	n/a
316.979	0.09	633958	keystroke_a	a	n/a
317.129	0.135	634258	keystroke_j	j	n/a
317.414	0.09	634828	keystroke_t	t	n/a
318.224	0.09	636448	keystroke_Key.backspace	Key.backspace	n/a
318.614	0.105	637228	keystroke_Key.backspace	Key.backspace	n/a
319.124	0.105	638248	keystroke_n	n	n/a
319.304	0.075	638608	keystroke_t	t	n/a
319.664	0.075	639328	keystroke_h	h	n/a
319.829	0.075	639658	keystroke_r	r	n/a
319.949	0.091	639898	keystroke_o	o	n/a
320.144	0.105	640288	keystroke_Key.space	Key.space	n/a
320.579	0.06	641158	keystroke_Key.backspace	Key.backspace	n/a
320.819	0.075	641638	keystroke_p	p	n/a
321.059	0.105	642118	keystroke_o	o	n/a
321.284	0.075	642568	keystroke_l	l	n/a
321.464	0.09	642928	keystroke_o	o	n/a
321.584	0.09	643168	keystroke_g	g	n/a
321.734	0.045	643468	keystroke_y	y	n/a
322.064	0.09	644128	keystroke_Key.enter	Key.enter	n/a
322.1625	10.7635	644325	prompt	n/a	identity excitement sagem individually\n
323.024	0.105	646048	keystroke_i	i	n/a
323.324	0.135	646648	keystroke_d	d	n/a
323.669	0.06	647338	keystroke_e	e	n/a
323.804	0.09	647608	keystroke_n	n	n/a
323.969	0.075	647938	keystroke_t	t	n/a
324.074	0.075	648148	keystroke_i	i	n/a
324.194	0.075	648388	keystroke_t	t	n/a
324.719	0.075	649438	keystroke_y	y	n/a
325.394	0.12	650788	keystroke_Key.space	Key.space	n/a
325.529	0.105	651058	keystroke_e	e	n/a
325.814	0.06	651628	keystroke_c	c	n/a
326.084	0.105	652168	keystroke_Key.backspace	Key.backspace	n/a
326.159	0.105	652318	keystroke_x	x	n/a
326.339	0.105	652678	keystroke_c	c	n/a
326.549	0.09	653098	keystroke_i	i	n/a
326.654	0.075	653308	keystroke_t	t	n/a
326.955	0.074	653910	keystroke_e	e	n/a
327.134	0.09	654268	keystroke_m	m	n/a
327.254	0.09	654508	keystroke_e	e	n/a
327.374	0.075	654748	keystroke_n	n	n/a
327.464	0.075	654928	keystroke_t	t	n/a
327.569	0.09	655138	keystroke_Key.space	Key.space	n/a
327.914	0.075	655828	keystroke_s	s	n/a
328.079	0.075	656158	keystroke_a	a	n/a
328.259	0.075	656518	keystroke_g	g	n/a
328.379	0.09	656758	keystroke_e	e	n/a
328.544	0.015	657088	keystroke_m	m	n/a
328.874	0.135	657748	keystroke_Key.space	Key.space	n/a
329.909	0.106	659818	keystroke_i	i	n/a
329.969	0.106	659938	keystroke_n	n	n/a
330.179	0.106	660358	keystroke_d	d	n/a
330.344	0.12	660688	keystroke_i	i	n/a
330.524	0.09	661048	keystroke_v	v	n/a
331.005	0.12	662010	keystroke_i	i	n/a
331.155	0.089	662310	keystroke_d	d	n/a
331.26	0.105	662520	keystroke_u	u	n/a
331.5	0.06	663000	keystroke_l	l	n/a
331.605	0.089	663210	keystroke_a	a	n/a
331.844	0.03	663688	keystroke_Key.backspace	Key.backspace	n/a
331.964	0.06	663928	keystroke_Key.backspace	Key.backspace	n/a
332.07	0.105	664140	keystroke_a	a	n/a
332.19	0.059	664380	keystroke_l	l	n/a
332.385	0.044	664770	keystroke_l	l	n/a
332.49	0.104	664980	keystroke_y	y	n/a
332.8495	0.075	665699	keystroke_Key.enter	Key.enter	n/a
332.9315	6.76	665863	prompt	n/a	brilliant cottage consoles impressed\n
333.6445	0.075	667289	keystroke_b	b	n/a
333.8245	0.09	667649	keystroke_r	r	n/a
333.8995	0.075	667799	keystroke_i	i	n/a
334.0195	0.06	668039	keystroke_l	l	n/a
334.1845	0.12	668369	keystroke_l	l	n/a
334.3345	0.105	668669	keystroke_i	i	n/a
334.4545	0.12	668909	keystroke_a	a	n/a
334.5595	0.09	669119	keystroke_n	n	n/a
334.6795	0.075	669359	keystroke_t	t	n/a
334.7845	0.09	669569	keystroke_Key.space	Key.space	n/a
335.0695	0.09	670139	keystroke_c	c	n/a
335.3695	0.075	670739	keystroke_o	o	n/a
335.5195	0.06	671039	keystroke_o	o	n/a
335.8795	0.075	671759	keystroke_Key.backspace	Key.backspace	n/a
335.9995	0.06	671999	keystroke_t	t	n/a
336.1195	0.105	672239	keystroke_t	t	n/a
336.2695	0.105	672539	keystroke_a	a	n/a
336.4495	0.09	672899	keystroke_g	g	n/a
336.5095	0.09	673019	keystroke_e	e	n/a
336.6445	0.105	673289	keystroke_Key.space	Key.space	n/a
336.959	0.09	673918	keystroke_c	c	n/a
337.064	0.105	674128	keystroke_o	o	n/a
337.154	0.106	674308	keystroke_n	n	n/a
337.26	0.0895	674520	keystroke_s	s	n/a
337.3645	0.075	674729	keystroke_o	o	n/a
337.5145	0.075	675029	keystroke_l	l	n/a
337.6045	0.06	675209	keystroke_e	e	n/a
337.7545	0.09	675509	keystroke_s	s	n/a
337.8595	0.09	675719	keystroke_Key.space	Key.space	n/a
338.4295	0.09	676859	keystroke_i	i	n/a
338.6245	0.075	677249	keystroke_m	m	n/a
338.7595	0.09	677519	keystroke_p	p	n/a
338.8345	0.09	677669	keystroke_r	r	n/a
338.8945	0.06	677789	keystroke_e	e	n/a
339.0445	0.09	678089	keystroke_s	s	n/a
339.1795	0.09	678359	keystroke_s	s	n/a
339.3745	0.105	678749	keystroke_e	e	n/a
339.4195	0.105	678839	keystroke_d	d	n/a
339.5695	0.12	679139	keystroke_Key.enter	Key.enter	n/a
339.6965	6.385	679393	prompt	n/a	gamecube jeans formula grain\n
340.2445	0.06	680489	keystroke_g	g	n/a
340.3795	0.09	680759	keystroke_a	a	n/a
340.5895	0.06	681179	keystroke_e	e	n/a
340.904	0.06	681808	keystroke_Key.backspace	Key.backspace	n/a
341.144	0.03	682288	keystroke_m	m	n/a
341.16	0.059	682320	keystroke_e	e	n/a
341.399	0.105	682798	keystroke_c	c	n/a
341.744	0.135	683488	keystroke_u	u	n/a
341.864	0.105	683728	keystroke_b	b	n/a
342.074	0.09	684148	keystroke_e	e	n/a
342.194	0.105	684388	keystroke_Key.space	Key.space	n/a
342.644	0.09	685288	keystroke_j	j	n/a
342.824	0.075	685648	keystroke_e	e	n/a
342.989	0.105	685978	keystroke_a	a	n/a
343.079	0.09	686158	keystroke_n	n	n/a
343.184	0.09	686368	keystroke_s	s	n/a
343.289	0.09	686578	keystroke_Key.space	Key.space	n/a
343.604	0.12	687208	keystroke_f	f	n/a
343.829	0.075	687658	keystroke_o	o	n/a
343.934	0.075	687868	keystroke_r	r	n/a
344.039	0.09	688078	keystroke_m	m	n/a
344.264	0.105	688528	keystroke_u	u	n/a
344.339	0.105	688678	keystroke_l	l	n/a
344.429	0.09	688858	keystroke_a	a	n/a
344.789	0.09	689578	keystroke_Key.space	Key.space	n/a
345.344	0.075	690688	keystroke_g	g	n/a
345.524	0.075	691048	keystroke_r	r	n/a
345.629	0.135	691258	keystroke_a	a	n/a
345.719	0.105	691438	keystroke_i	i	n/a
345.749	0.105	691498	keystroke_n	n	n/a
345.989	0.09	691978	keystroke_Key.enter	Key.enter	n/a
346.0845	6.0725	692169	prompt	n/a	were maintained theology knows\n
346.62	0.104	693240	keystroke_w	w	n/a
346.709	0.135	693418	keystroke_e	e	n/a
346.934	0.105	693868	keystroke_r	r	n/a
347.009	0.105	694018	keystroke_e	e	n/a
347.174	0.09	694348	keystroke_Key.space	Key.space	n/a
347.34	0.104	694680	keystroke_m	m	n/a
347.459	0.12	694918	keystroke_a	a	n/a
347.565	0.104	695130	keystroke_i	i	n/a
347.639	0.09	695278	keystroke_n	n	n/a
347.789	0.075	695578	keystroke_t	t	n/a
348.134	0.12	696268	keystroke_a	a	n/a
348.209	0.105	696418	keystroke_i	i	n/a
348.269	0.076	696538	keystroke_n	n	n/a
348.374	0.12	696748	keystroke_e	e	n/a
348.434	0.12	696868	keystroke_d	d	n/a
348.569	0.12	697138	keystroke_Key.space	Key.space	n/a
349.26	0.089	698520	keystroke_t	t	n/a
349.364	0.075	698728	keystroke_h	h	n/a
349.769	0.09	699538	keystroke_e	e	n/a
349.874	0.09	699748	keystroke_o	o	n/a
350.084	0.06	700168	keystroke_l	l	n/a
350.249	0.09	700498	keystroke_o	o	n/a
350.369	0.09	700738	keystroke_g	g	n/a
350.489	0.12	700978	keystroke_y	y	n/a
350.759	0.09	701518	keystroke_Key.space	Key.space	n/a
351.374	0.135	702748	keystroke_k	k	n/a
351.495	0.09	702990	keystroke_n	n	n/a
351.614	0.12	703228	keystroke_o	o	n/a
351.749	0.06	703498	keystroke_w	w	n/a
351.899	0.105	703798	keystroke_s	s	n/a
352.079	0.075	704158	keystroke_Key.enter	Key.enter	n/a
352.1615	5.6495	704323	prompt	n/a	catholic thomas electron award\n
352.694	0.09	705388	keystroke_c	c	n/a
352.919	0.09	705838	keystroke_a	a	n/a
353.069	0.075	706138	keystroke_t	t	n/a
353.16	0.104	706320	keystroke_h	h	n/a
353.265	0.074	706530	keystroke_o	o	n/a
353.834	0.15	707668	keystroke_l	l	n/a
353.97	0.104	707940	keystroke_i	i	n/a
354.089	0.091	708178	keystroke_c	c	n/a
354.224	0.105	708448	keystroke_Key.space	Key.space	n/a
354.479	0.076	708958	keystroke_t	t	n/a
354.54	0.104	709080	keystroke_h	h	n/a
354.646	0.163	709292	keystroke_o	o	n/a
354.749	0.121	709498	keystroke_m	m	n/a
354.884	0.121	709768	keystroke_a	a	n/a
354.944	0.1205	709888	keystroke_s	s	n/a
355.1245	0.105	710249	keystroke_Key.space	Key.space	n/a
355.5745	0.075	711149	keystroke_e	e	n/a
355.7095	0.09	711419	keystroke_l	l	n/a
355.7845	0.105	711569	keystroke_e	e	n/a
355.8745	0.105	711749	keystroke_c	c	n/a
356.0845	0.06	712169	keystroke_t	t	n/a
356.2345	0.075	712469	keystroke_r	r	n/a
356.4595	0.12	712919	keystroke_o	o	n/a
356.5345	0.105	713069	keystroke_n	n	n/a
356.6245	0.12	713249	keystroke_Key.space	Key.space	n/a
356.9095	0.075	713819	keystroke_a	a	n/a
357.0745	0.06	714149	keystroke_w	w	n/a
357.2395	0.075	714479	keystroke_a	a	n/a
357.4045	0.075	714809	keystroke_r	r	n/a
357.5995	0.075	715199	keystroke_d	d	n/a
357.7345	0.075	715469	keystroke_Key.enter	Key.enter	n/a
357.8175	7.914	715635	prompt	n/a	moderators retreat strips downtown\n
358.3795	0.12	716759	keystroke_m	m	n/a
358.5145	0.105	717029	keystroke_o	o	n/a
358.6045	0.075	717209	keystroke_d	d	n/a
358.7545	0.09	717509	keystroke_e	e	n/a
358.8145	0.075	717629	keystroke_r	r	n/a
359.0095	0.09	718019	keystroke_a	a	n/a
359.1745	0.06	718349	keystroke_t	t	n/a
359.4145	0.105	718829	keystroke_o	o	n/a
359.5345	0.09	719069	keystroke_r	r	n/a
359.6845	0.09	719369	keystroke_s	s	n/a
359.8345	0.105	719669	keystroke_Key.space	Key.space	n/a
360.4345	0.12	720869	keystroke_r	r	n/a
360.5695	0.105	721139	keystroke_e	e	n/a
360.8845	0.075	721769	keystroke_r	r	n/a
361.2595	0.09	722519	keystroke_Key.backspace	Key.backspace	n/a
361.3345	0.06	722669	keystroke_t	t	n/a
361.4695	0.135	722939	keystroke_r	r	n/a
361.5595	0.105	723119	keystroke_e	e	n/a
362.0845	0.105	724169	keystroke_a	a	n/a
362.2495	0.075	724499	keystroke_t	t	n/a
362.3545	0.09	724709	keystroke_Key.space	Key.space	n/a
362.6695	0.0905	725339	keystroke_s	s	n/a
362.865	0.059	725730	keystroke_t	t	n/a
363.075	0.074	726150	keystroke_r	r	n/a
363.195	0.15	726390	keystroke_i	i	n/a
363.315	0.09	726630	keystroke_o	o	n/a
363.689	0.105	727378	keystroke_Key.backspace	Key.backspace	n/a
363.87	0.105	727740	keystroke_p	p	n/a
364.005	0.09	728010	keystroke_s	s	n/a
364.169	0.105	728338	keystroke_Key.space	Key.space	n/a
364.575	0.075	729150	keystroke_d	d	n/a
364.635	0.09	729270	keystroke_o	o	n/a
364.74	0.074	729480	keystroke_w	w	n/a
364.829	0.09	729658	keystroke_n	n	n/a
365.129	0.06	730258	keystroke_t	t	n/a
365.204	0.09	730408	keystroke_o	o	n/a
365.399	0.045	730798	keystroke_w	w	n/a
365.474	0.075	730948	keystroke_n	n	n/a
365.639	0.09	731278	keystroke_Key.enter	Key.enter	n/a
365.736	6.0855	731472	prompt	n/a	extends happened backup naughty\n
366.374	0.06	732748	keystroke_e	e	n/a
366.554	0.09	733108	keystroke_x	x	n/a
366.719	0.0755	733438	keystroke_t	t	n/a
366.8395	0.09	733679	keystroke_e	e	n/a
366.9595	0.09	733919	keystroke_n	n	n/a
367.0645	0.075	734129	keystroke_d	d	n/a
367.1695	0.105	734339	keystroke_s	s	n/a
367.2895	0.09	734579	keystroke_Key.space	Key.space	n/a
367.6945	0.075	735389	keystroke_h	h	n/a
367.7845	0.075	735569	keystroke_a	a	n/a
367.8895	0.045	735779	keystroke_p	p	n/a
368.0245	0.105	736049	keystroke_p	p	n/a
368.1145	0.075	736229	keystroke_e	e	n/a
368.2645	0.09	736529	keystroke_n	n	n/a
368.3705	0.119	736741	keystroke_e	e	n/a
368.4595	0.12	736919	keystroke_d	d	n/a
368.5945	0.075	737189	keystroke_Key.space	Key.space	n/a
369.105	0.075	738210	keystroke_b	b	n/a
369.195	0.075	738390	keystroke_a	a	n/a
369.375	0.09	738750	keystroke_c	c	n/a
369.45	0.09	738900	keystroke_k	k	n/a
369.645	0.105	739290	keystroke_u	u	n/a
369.81	0.045	739620	keystroke_p	p	n/a
370.35	0.12	740700	keystroke_Key.space	Key.space	n/a
370.575	0.075	741150	keystroke_n	n	n/a
370.665	0.075	741330	keystroke_a	a	n/a
370.8295	0.12	741659	keystroke_u	u	n/a
370.9945	0.09	741989	keystroke_g	g	n/a
371.0845	0.075	742169	keystroke_h	h	n/a
371.1745	0.075	742349	keystroke_t	t	n/a
371.4595	0.075	742919	keystroke_y	y	n/a
371.7595	0.06	743519	keystroke_Key.enter	Key.enter	n/a
371.827	5.094	743654	prompt	n/a	connected trains springer nation\n
372.5405	0.089	745081	keystroke_c	c	n/a
372.5995	0.105	745199	keystroke_o	o	n/a
372.8245	0.075	745649	keystroke_n	n	n/a
372.9745	0.09	745949	keystroke_n	n	n/a
373.0495	0.075	746099	keystroke_e	e	n/a
373.1095	0.09	746219	keystroke_c	c	n/a
373.3055	0.059	746611	keystroke_t	t	n/a
373.4095	0.105	746819	keystroke_e	e	n/a
373.4695	0.105	746939	keystroke_d	d	n/a
373.5595	0.09	747119	keystroke_Key.space	Key.space	n/a
373.7555	0.059	747511	keystroke_t	t	n/a
373.8895	0.105	747779	keystroke_r	r	n/a
374.0395	0.09	748079	keystroke_a	a	n/a
374.1145	0.105	748229	keystroke_i	i	n/a
374.1745	0.09	748349	keystroke_n	n	n/a
374.2495	0.105	748499	keystroke_s	s	n/a
374.3845	0.135	748769	keystroke_Key.space	Key.space	n/a
374.7745	0.09	749549	keystroke_s	s	n/a
375.0895	0.105	750179	keystroke_p	p	n/a
375.2695	0.06	750539	keystroke_r	r	n/a
375.3745	0.12	750749	keystroke_i	i	n/a
375.4345	0.105	750869	keystroke_n	n	n/a
375.5245	0.061	751049	keystroke_g	g	n/a
375.7195	0.09	751439	keystroke_e	e	n/a
375.8245	0.015	751649	keystroke_r	r	n/a
375.8695	0.09	751739	keystroke_Key.space	Key.space	n/a
376.1095	0.076	752219	keystroke_n	n	n/a
376.1995	0.105	752399	keystroke_a	a	n/a
376.3645	0.075	752729	keystroke_t	t	n/a
376.4695	0.105	752939	keystroke_i	i	n/a
376.5595	0.135	753119	keystroke_o	o	n/a
376.6645	0.075	753329	keystroke_n	n	n/a
376.8595	0.06	753719	keystroke_Key.enter	Key.enter	n/a
376.928	10.779	753856	prompt	n/a	discussed flush spotlight airport\n
377.46	0.09	754920	keystroke_d	d	n/a
377.639	0.091	755278	keystroke_s	s	n/a
377.91	0.089	755820	keystroke_Key.backspace	Key.backspace	n/a
377.984	0.106	755968	keystroke_i	i	n/a
378.075	0.089	756150	keystroke_s	s	n/a
378.255	0.075	756510	keystroke_c	c	n/a
378.314	0.091	756628	keystroke_u	u	n/a
378.45	0.06	756900	keystroke_c	c	n/a
378.809	0.061	757618	keystroke_s	s	n/a
378.9	0.06	757800	keystroke_Key.backspace	Key.backspace	n/a
379.05	0.06	758100	keystroke_Key.backspace	Key.backspace	n/a
379.125	0.075	758250	keystroke_s	s	n/a
379.275	0.09	758550	keystroke_s	s	n/a
379.485	0.09	758970	keystroke_e	e	n/a
379.545	0.09	759090	keystroke_d	d	n/a
379.649	0.075	759298	keystroke_Key.space	Key.space	n/a
380.024	0.045	760048	keystroke_l	l	n/a
380.145	0.06	760290	keystroke_f	f	n/a
380.309	0.031	760618	keystroke_Key.backspace	Key.backspace	n/a
380.459	0.06	760918	keystroke_Key.backspace	Key.backspace	n/a
380.61	0.059	761220	keystroke_f	f	n/a
380.7	0.12	761400	keystroke_l	l	n/a
380.775	0.105	761550	keystroke_i	i	n/a
380.955	0.09	761910	keystroke_s	s	n/a
381.06	0.12	762120	keystroke_h	h	n/a
381.509	0.06	763018	keystroke_Key.backspace	Key.backspace	n/a
381.659	0.075	763318	keystroke_Key.backspace	Key.backspace	n/a
381.81	0.074	763620	keystroke_Key.backspace	Key.backspace	n/a
382.095	0.09	764190	keystroke_u	u	n/a
382.29	0.09	764580	keystroke_s	s	n/a
382.364	0.12	764728	keystroke_h	h	n/a
382.589	0.105	765178	keystroke_Key.space	Key.space	n/a
382.98	0.075	765960	keystroke_s	s	n/a
383.084	0.151	766168	keystroke_p	p	n/a
383.115	0.165	766230	keystroke_o	o	n/a
383.865	0.09	767730	keystroke_t	t	n/a
384.18	0.12	768360	keystroke_l	l	n/a
384.24	0.075	768480	keystroke_i	i	n/a
384.345	0.075	768690	keystroke_g	g	n/a
384.435	0.075	768870	keystroke_h	h	n/a
384.525	0.075	769050	keystroke_t	t	n/a
384.645	0.074	769290	keystroke_Key.space	Key.space	n/a
385.08	0.105	770160	keystroke_a	a	n/a
385.275	0.09	770550	keystroke_i	i	n/a
385.395	0.075	770790	keystroke_r	r	n/a
385.605	0.15	771210	keystroke_p	p	n/a
385.62	0.12	771240	keystroke_o	o	n/a
385.86	0.105	771720	keystroke_s	s	n/a
385.95	0.06	771900	keystroke_t	t	n/a
386.58	0.075	773160	keystroke_Key.backspace	Key.backspace	n/a
386.775	0.09	773550	keystroke_Key.backspace	Key.backspace	n/a
387.3295	0.06	774659	keystroke_r	r	n/a
387.4945	0.075	774989	keystroke_t	t	n/a
387.6145	0.09	775229	keystroke_Key.enter	Key.enter	n/a
387.7115	6.3405	775423	prompt	n/a	transportation latter cape call\n
388.2745	0.075	776549	keystroke_t	t	n/a
388.4545	0.09	776909	keystroke_r	r	n/a
388.5895	0.09	777179	keystroke_a	a	n/a
388.6945	0.0905	777389	keystroke_n	n	n/a
388.8595	0.105	777719	keystroke_s	s	n/a
389.1445	0.135	778289	keystroke_p	p	n/a
389.2045	0.12	778409	keystroke_o	o	n/a
389.3095	0.09	778619	keystroke_r	r	n/a
389.5345	0.075	779069	keystroke_t	t	n/a
389.7445	0.09	779489	keystroke_a	a	n/a
389.9245	0.075	779849	keystroke_t	t	n/a
390.0145	0.09	780029	keystroke_i	i	n/a
390.1345	0.15	780269	keystroke_o	o	n/a
390.2095	0.105	780419	keystroke_n	n	n/a
390.3895	0.105	780779	keystroke_Key.space	Key.space	n/a
390.8995	0.075	781799	keystroke_l	l	n/a
390.9895	0.09	781979	keystroke_a	a	n/a
391.1695	0.06	782339	keystroke_t	t	n/a
391.3355	0.104	782671	keystroke_t	t	n/a
391.5445	0.09	783089	keystroke_e	e	n/a
391.6045	0.075	783209	keystroke_r	r	n/a
391.7545	0.09	783509	keystroke_Key.space	Key.space	n/a
392.0855	0.074	784171	keystroke_c	c	n/a
392.2345	0.09	784469	keystroke_a	a	n/a
392.4145	0.105	784829	keystroke_p	p	n/a
392.7295	0.075	785459	keystroke_e	e	n/a
392.8795	0.105	785759	keystroke_Key.space	Key.space	n/a
393.0595	0.09	786119	keystroke_c	c	n/a
393.1945	0.12	786389	keystroke_a	a	n/a
393.5395	0.075	787079	keystroke_l	l	n/a
393.7045	0.075	787409	keystroke_l	l	n/a
393.9745	0.075	787949	keystroke_Key.enter	Key.enter	n/a
394.0595	4.807	788119	prompt	n/a	counted pictures cuba boulder\n
394.6045	0.105	789209	keystroke_c	c	n/a
394.7245	0.12	789449	keystroke_o	o	n/a
394.7845	0.075	789569	keystroke_u	u	n/a
394.9645	0.105	789929	keystroke_n	n	n/a
395.0245	0.09	790049	keystroke_t	t	n/a
395.2345	0.105	790469	keystroke_e	e	n/a
395.2945	0.105	790589	keystroke_d	d	n/a
395.4145	0.09	790829	keystroke_Key.space	Key.space	n/a
395.6695	0.15	791339	keystroke_p	p	n/a
395.7295	0.135	791459	keystroke_i	i	n/a
395.8345	0.09	791669	keystroke_c	c	n/a
396.0295	0.075	792059	keystroke_t	t	n/a
396.1345	0.105	792269	keystroke_u	u	n/a
396.2095	0.105	792419	keystroke_r	r	n/a
396.2995	0.09	792599	keystroke_e	e	n/a
396.4945	0.09	792989	keystroke_s	s	n/a
396.5845	0.09	793169	keystroke_Key.space	Key.space	n/a
396.9595	0.09	793919	keystroke_c	c	n/a
397.0045	0.09	794009	keystroke_u	u	n/a
397.1845	0.105	794369	keystroke_b	b	n/a
397.3045	0.105	794609	keystroke_a	a	n/a
397.4245	0.075	794849	keystroke_Key.space	Key.space	n/a
397.6495	0.105	795299	keystroke_p	p	n/a
397.9495	0.075	795899	keystroke_Key.backspace	Key.backspace	n/a
398.0545	0.09	796109	keystroke_b	b	n/a
398.1595	0.105	796319	keystroke_o	o	n/a
398.2495	0.06	796499	keystroke_u	u	n/a
398.3695	0.09	796739	keystroke_l	l	n/a
398.4745	0.06	796949	keystroke_d	d	n/a
398.5945	0.09	797189	keystroke_e	e	n/a
398.6395	0.09	797279	keystroke_r	r	n/a
398.7745	0.0905	797549	keystroke_Key.enter	Key.enter	n/a
398.871	4.871	797742	prompt	n/a	down means doctors analytical\n
399.39	0.09	798780	keystroke_d	d	n/a
399.465	0.105	798930	keystroke_o	o	n/a
399.585	0.105	799170	keystroke_w	w	n/a
399.675	0.09	799350	keystroke_n	n	n/a
399.78	0.075	799560	keystroke_Key.space	Key.space	n/a
399.87	0.105	799740	keystroke_m	m	n/a
399.976	0.059	799952	keystroke_e	e	n/a
400.14	0.09	800280	keystroke_a	a	n/a
400.245	0.045	800490	keystroke_n	n	n/a
400.32	0.09	800640	keystroke_s	s	n/a
400.395	0.075	800790	keystroke_Key.space	Key.space	n/a
400.545	0.135	801090	keystroke_d	d	n/a
400.71	0.075	801420	keystroke_o	o	n/a
400.8	0.0745	801600	keystroke_c	c	n/a
400.9645	0.075	801929	keystroke_t	t	n/a
401.3545	0.105	802709	keystroke_o	o	n/a
401.4445	0.06	802889	keystroke_r	r	n/a
401.5645	0.09	803129	keystroke_s	s	n/a
401.6845	0.105	803369	keystroke_Key.space	Key.space	n/a
401.8945	0.075	803789	keystroke_a	a	n/a
401.9845	0.09	803969	keystroke_n	n	n/a
402.0755	0.074	804151	keystroke_a	a	n/a
402.1945	0.09	804389	keystroke_l	l	n/a
402.5545	0.045	805109	keystroke_y	y	n/a
402.8245	0.045	805649	keystroke_t	t	n/a
402.9895	0.075	805979	keystroke_i	i	n/a
403.1245	0.075	806249	keystroke_c	c	n/a
403.2745	0.09	806549	keystroke_a	a	n/a
403.3495	0.09	806699	keystroke_l	l	n/a
403.6645	0.075	807329	keystroke_Key.enter	Key.enter	n/a
403.7465	7.151	807493	prompt	n/a	revealed congo olympic packages\n
404.3255	0.119	808651	keystroke_r	r	n/a
404.4145	0.09	808829	keystroke_e	e	n/a
404.5945	0.075	809189	keystroke_v	v	n/a
404.6845	0.105	809369	keystroke_e	e	n/a
404.9395	0.09	809879	keystroke_a	a	n/a
405.0745	0.105	810149	keystroke_l	l	n/a
405.1645	0.09	810329	keystroke_e	e	n/a
405.2245	0.105	810449	keystroke_d	d	n/a
405.3595	0.09	810719	keystroke_Key.space	Key.space	n/a
405.6445	0.09	811289	keystroke_c	c	n/a
405.7045	0.105	811409	keystroke_o	o	n/a
405.7645	0.09	811529	keystroke_n	n	n/a
405.8845	0.075	811769	keystroke_g	g	n/a
406.0495	0.075	812099	keystroke_o	o	n/a
406.2295	0.105	812459	keystroke_Key.space	Key.space	n/a
406.7245	0.075	813449	keystroke_o	o	n/a
407.0845	0.09	814169	keystroke_l	l	n/a
407.6245	0.09	815249	keystroke_y	y	n/a
407.7605	0.119	815521	keystroke_m	m	n/a
407.9555	0.134	815911	keystroke_p	p	n/a
408.4045	0.075	816809	keystroke_c	c	n/a
408.6295	0.12	817259	keystroke_Key.backspace	Key.backspace	n/a
408.7345	0.121	817469	keystroke_i	i	n/a
408.8695	0.075	817739	keystroke_c	c	n/a
409.1395	0.075	818279	keystroke_Key.space	Key.space	n/a
409.5755	0.104	819151	keystroke_p	p	n/a
409.6945	0.09	819389	keystroke_a	a	n/a
409.8745	0.091	819749	keystroke_c	c	n/a
409.9955	0.104	819991	keystroke_k	k	n/a
410.1745	0.09	820349	keystroke_a	a	n/a
410.3845	0.075	820769	keystroke_g	g	n/a
410.4745	0.076	820949	keystroke_e	e	n/a
410.6545	0.09	821309	keystroke_s	s	n/a
410.7745	0.12	821549	keystroke_Key.enter	Key.enter	n/a
410.903	9.8195	821806	prompt	n/a	contamination developing technological digest\n
411.5705	0.105	823141	keystroke_c	c	n/a
411.6595	0.196	823319	keystroke_o	o	n/a
411.8555	0.089	823711	keystroke_n	n	n/a
412.0955	0.059	824191	keystroke_t	t	n/a
412.2745	0.075	824549	keystroke_a	a	n/a
412.4545	0.105	824909	keystroke_i	i	n/a
412.8895	0.045	825779	keystroke_Key.backspace	Key.backspace	n/a
412.9945	0.105	825989	keystroke_m	m	n/a
413.2495	0.12	826499	keystroke_i	i	n/a
413.3405	0.105	826681	keystroke_n	n	n/a
413.4595	0.105	826919	keystroke_a	a	n/a
413.6245	0.076	827249	keystroke_t	t	n/a
413.6695	0.105	827339	keystroke_i	i	n/a
413.7895	0.12	827579	keystroke_o	o	n/a
413.8645	0.075	827729	keystroke_n	n	n/a
413.9695	0.12	827939	keystroke_Key.space	Key.space	n/a
414.3905	0.105	828781	keystroke_d	d	n/a
414.5695	0.061	829139	keystroke_e	e	n/a
414.7645	0.061	829529	keystroke_v	v	n/a
414.8405	0.09	829681	keystroke_e	e	n/a
414.9755	0.105	829951	keystroke_l	l	n/a
415.4105	0.119	830821	keystroke_o	o	n/a
415.5145	0.105	831029	keystroke_p	p	n/a
415.9645	0.091	831929	keystroke_i	i	n/a
416.0105	0.104	832021	keystroke_n	n	n/a
416.0845	0.091	832169	keystroke_g	g	n/a
416.5945	0.09	833189	keystroke_Key.space	Key.space	n/a
416.7605	0.105	833521	keystroke_t	t	n/a
416.9105	0.12	833821	keystroke_e	e	n/a
417.0445	0.09	834089	keystroke_c	c	n/a
417.1355	0.089	834271	keystroke_h	h	n/a
417.3145	0.12	834629	keystroke_n	n	n/a
417.6745	0.091	835349	keystroke_o	o	n/a
418.0945	0.076	836189	keystroke_l	l	n/a
418.2605	0.075	836521	keystroke_o	o	n/a
418.3495	0.091	836699	keystroke_g	g	n/a
418.7245	0.076	837449	keystroke_i	i	n/a
418.8445	0.09	837689	keystroke_c	c	n/a
419.0695	0.061	838139	keystroke_a	a	n/a
419.1305	0.089	838261	keystroke_l	l	n/a
419.3845	0.105	838769	keystroke_Key.space	Key.space	n/a
419.7905	0.045	839581	keystroke_d	d	n/a
419.8505	0.06	839701	keystroke_i	i	n/a
420.0295	0.076	840059	keystroke_g	g	n/a
420.1645	0.09	840329	keystroke_e	e	n/a
420.3305	0.105	840661	keystroke_s	s	n/a
420.4205	0.06	840841	keystroke_t	t	n/a
420.6295	0.09	841259	keystroke_Key.enter	Key.enter	n/a
420.7295	6.9675	841459	prompt	n/a	fare systematic lucy receptor\n
421.2305	0.105	842461	keystroke_f	f	n/a
421.4705	0.089	842941	keystroke_a	a	n/a
421.5905	0.134	843181	keystroke_r	r	n/a
421.6955	0.09	843391	keystroke_e	e	n/a
421.8745	0.09	843749	keystroke_Key.space	Key.space	n/a
422.0705	0.105	844141	keystroke_s	s	n/a
422.2195	0.106	844439	keystroke_y	y	n/a
422.3105	0.09	844621	keystroke_s	s	n/a
422.4455	0.09	844891	keystroke_t	t	n/a
422.5505	0.12	845101	keystroke_e	e	n/a
422.8345	0.091	845669	keystroke_m	m	n/a
423.1195	0.076	846239	keystroke_a	a	n/a
423.2395	0.076	846479	keystroke_t	t	n/a
423.3305	0.075	846661	keystroke_i	i	n/a
423.4345	0.106	846869	keystroke_c	c	n/a
423.5845	0.105	847169	keystroke_Key.space	Key.space	n/a
423.9605	0.089	847921	keystroke_l	l	n/a
424.1255	0.105	848251	keystroke_u	u	n/a
424.2455	0.074	848491	keystroke_c	c	n/a
424.3805	0.089	848761	keystroke_y	y	n/a
424.4995	0.106	848999	keystroke_Key.space	Key.space	n/a
424.9355	0.135	849871	keystroke_r	r	n/a
425.1005	0.075	850201	keystroke_e	e	n/a
425.415	0.09	850830	keystroke_c	c	n/a
425.55	0.09	851100	keystroke_e	e	n/a
425.655	0.09	851310	keystroke_o	o	n/a
425.775	0.06	851550	keystroke_t	t	n/a
426.12	0.075	852240	keystroke_Key.backspace	Key.backspace	n/a
426.285	0.045	852570	keystroke_Key.backspace	Key.backspace	n/a
426.765	0.12	853530	keystroke_p	p	n/a
426.945	0.075	853890	keystroke_t	t	n/a
427.05	0.12	854100	keystroke_o	o	n/a
427.44	0.09	854880	keystroke_r	r	n/a
427.62	0.075	855240	keystroke_Key.enter	Key.enter	n/a
427.7015	7.1655	855403	prompt	n/a	whenever excellent shuttle decided\n
428.415	0.06	856830	keystroke_w	w	n/a
428.505	0.09	857010	keystroke_h	h	n/a
428.61	0.06	857220	keystroke_e	e	n/a
428.715	0.09	857430	keystroke_n	n	n/a
428.79	0.09	857580	keystroke_e	e	n/a
428.94	0.06	857880	keystroke_v	v	n/a
429.015	0.105	858030	keystroke_e	e	n/a
429.105	0.09	858210	keystroke_r	r	n/a
429.21	0.09	858420	keystroke_Key.space	Key.space	n/a
429.496	0.089	858992	keystroke_e	e	n/a
429.705	0.09	859410	keystroke_x	x	n/a
429.855	0.12	859710	keystroke_c	c	n/a
429.99	0.075	859980	keystroke_e	e	n/a
430.125	0.045	860250	keystroke_l	l	n/a
430.275	0.075	860550	keystroke_l	l	n/a
430.485	0.075	860970	keystroke_i	i	n/a
430.77	0.06	861540	keystroke_Key.backspace	Key.backspace	n/a
430.845	0.075	861690	keystroke_e	e	n/a
430.95	0.075	861900	keystroke_n	n	n/a
431.04	0.06	862080	keystroke_t	t	n/a
431.13	0.0895	862260	keystroke_Key.space	Key.space	n/a
431.5805	0.104	863161	keystroke_s	s	n/a
431.6695	0.106	863339	keystroke_h	h	n/a
431.7895	0.075	863579	keystroke_i	i	n/a
432.1195	0.045	864239	keystroke_Key.backspace	Key.backspace	n/a
432.3155	0.074	864631	keystroke_u	u	n/a
432.3595	0.046	864719	keystroke_t	t	n/a
432.4505	0.075	864901	keystroke_t	t	n/a
432.6445	0.106	865289	keystroke_l	l	n/a
432.7645	0.09	865529	keystroke_e	e	n/a
432.9145	0.075	865829	keystroke_Key.space	Key.space	n/a
433.3205	0.09	866641	keystroke_d	d	n/a
433.4255	0.089	866851	keystroke_e	e	n/a
433.6345	0.06	867269	keystroke_c	c	n/a
433.8895	0.076	867779	keystroke_i	i	n/a
434.2795	0.09	868559	keystroke_d	d	n/a
434.5805	0.09	869161	keystroke_e	e	n/a
434.6095	0.106	869219	keystroke_d	d	n/a
434.8345	0.03	869669	keystroke_Key.enter	Key.enter	n/a
434.871	6.491	869742	prompt	n/a	travels displays hollow baths\n
435.4505	0.075	870901	keystroke_t	t	n/a
435.6295	0.091	871259	keystroke_r	r	n/a
435.7645	0.105	871529	keystroke_a	a	n/a
435.9605	0.09	871921	keystroke_v	v	n/a
436.0645	0.076	872129	keystroke_e	e	n/a
436.1855	0.089	872371	keystroke_l	l	n/a
436.3345	0.105	872669	keystroke_s	s	n/a
436.4845	0.09	872969	keystroke_Key.space	Key.space	n/a
436.9945	0.076	873989	keystroke_d	d	n/a
437.0855	0.12	874171	keystroke_i	i	n/a
437.2205	0.045	874441	keystroke_s	s	n/a
437.2945	0.12	874589	keystroke_p	p	n/a
437.3705	0.089	874741	keystroke_l	l	n/a
437.6705	0.074	875341	keystroke_a	a	n/a
438.0005	0.075	876001	keystroke_y	y	n/a
438.2255	0.09	876451	keystroke_s	s	n/a
438.3295	0.045	876659	keystroke_Key.space	Key.space	n/a
438.7805	0.06	877561	keystroke_h	h	n/a
438.8855	0.09	877771	keystroke_o	o	n/a
439.0795	0.046	878159	keystroke_l	l	n/a
439.2005	0.09	878401	keystroke_l	l	n/a
439.4705	0.089	878941	keystroke_o	o	n/a
439.5905	0.09	879181	keystroke_w	w	n/a
439.7095	0.091	879419	keystroke_Key.space	Key.space	n/a
440.2205	0.075	880441	keystroke_b	b	n/a
440.4605	0.105	880921	keystroke_a	a	n/a
440.5805	0.045	881161	keystroke_t	t	n/a
440.6855	0.09	881371	keystroke_h	h	n/a
441.0155	0.09	882031	keystroke_s	s	n/a
441.3005	0.059	882601	keystroke_Key.enter	Key.enter	n/a
441.366	4.361	882732	prompt	n/a	bell polar switched any\n
442.0655	0.06	884131	keystroke_b	b	n/a
442.2455	0.075	884491	keystroke_e	e	n/a
442.3355	0.045	884671	keystroke_l	l	n/a
442.4845	0.045	884969	keystroke_l	l	n/a
442.8455	0.105	885691	keystroke_Key.space	Key.space	n/a
442.9505	0.18	885901	keystroke_p	p	n/a
443.0555	0.15	886111	keystroke_o	o	n/a
443.2955	0.089	886591	keystroke_l	l	n/a
443.4005	0.105	886801	keystroke_a	a	n/a
443.4905	0.075	886981	keystroke_r	r	n/a
443.6095	0.105	887219	keystroke_Key.space	Key.space	n/a
443.9255	0.044	887851	keystroke_s	s	n/a
444.0595	0.121	888119	keystroke_w	w	n/a
444.1345	0.091	888269	keystroke_i	i	n/a
444.3005	0.06	888601	keystroke_t	t	n/a
444.4805	0.105	888961	keystroke_c	c	n/a
444.5555	0.09	889111	keystroke_h	h	n/a
444.8705	0.089	889741	keystroke_e	e	n/a
444.9005	0.089	889801	keystroke_d	d	n/a
445.0055	0.089	890011	keystroke_Key.space	Key.space	n/a
445.2145	0.091	890429	keystroke_a	a	n/a
445.2905	0.09	890581	keystroke_n	n	n/a
445.4705	0.044	890941	keystroke_y	y	n/a
445.6655	0.06	891331	keystroke_Key.enter	Key.enter	n/a
445.734	5.5725	891468	prompt	n/a	coordinated hart canon harry\n
446.2655	0.105	892531	keystroke_c	c	n/a
446.3555	0.075	892711	keystroke_o	o	n/a
446.5055	0.09	893011	keystroke_o	o	n/a
446.7005	0.075	893401	keystroke_r	r	n/a
446.8805	0.09	893761	keystroke_d	d	n/a
447.2105	0.135	894421	keystroke_i	i	n/a
447.3155	0.06	894631	keystroke_n	n	n/a
447.4355	0.105	894871	keystroke_a	a	n/a
447.6155	0.075	895231	keystroke_t	t	n/a
447.7805	0.12	895561	keystroke_e	e	n/a
447.8555	0.105	895711	keystroke_d	d	n/a
447.9605	0.104	895921	keystroke_Key.space	Key.space	n/a
448.2155	0.075	896431	keystroke_h	h	n/a
448.3055	0.09	896611	keystroke_a	a	n/a
448.4555	0.09	896911	keystroke_r	r	n/a
448.6805	0.045	897361	keystroke_t	t	n/a
448.7855	0.104	897571	keystroke_Key.space	Key.space	n/a
449.2055	0.075	898411	keystroke_c	c	n/a
449.4155	0.09	898831	keystroke_a	a	n/a
449.4755	0.075	898951	keystroke_n	n	n/a
449.5805	0.12	899161	keystroke_o	o	n/a
449.6405	0.105	899281	keystroke_n	n	n/a
449.7605	0.15	899521	keystroke_Key.space	Key.space	n/a
450.0005	0.09	900001	keystroke_l	l	n/a
450.2845	0.061	900569	keystroke_Key.backspace	Key.backspace	n/a
450.4055	0.135	900811	keystroke_h	h	n/a
450.5255	0.075	901051	keystroke_a	a	n/a
450.6155	0.105	901231	keystroke_r	r	n/a
450.7805	0.075	901561	keystroke_r	r	n/a
451.0045	0.061	902009	keystroke_y	y	n/a
451.2145	0.09	902429	keystroke_Key.enter	Key.enter	n/a
451.312	6.0995	902624	prompt	n/a	oxide medicines integrate sole\n
451.8745	0.106	903749	keystroke_o	o	n/a
452.0255	0.074	904051	keystroke_x	x	n/a
452.1605	0.09	904321	keystroke_i	i	n/a
452.3545	0.106	904709	keystroke_d	d	n/a
452.4455	0.09	904891	keystroke_e	e	n/a
452.5495	0.09	905099	keystroke_Key.space	Key.space	n/a
452.9995	0.105	905999	keystroke_m	m	n/a
453.1795	0.031	906359	keystroke_e	e	n/a
453.2395	0.105	906479	keystroke_d	d	n/a
453.5695	0.105	907139	keystroke_i	i	n/a
453.7645	0.135	907529	keystroke_c	c	n/a
453.9145	0.105	907829	keystroke_i	i	n/a
453.9755	0.075	907951	keystroke_n	n	n/a
454.0345	0.06	908069	keystroke_e	e	n/a
454.1845	0.105	908369	keystroke_s	s	n/a
454.2745	0.075	908549	keystroke_Key.space	Key.space	n/a
454.6045	0.09	909209	keystroke_i	i	n/a
454.6645	0.1355	909329	keystroke_n	n	n/a
455.056	0.089	910112	keystroke_t	t	n/a
455.25	0.075	910500	keystroke_e	e	n/a
455.655	0.075	911310	keystroke_g	g	n/a
456.15	0.0895	912300	keystroke_r	r	n/a
456.3145	0.09	912629	keystroke_a	a	n/a
456.45	0.106	912900	keystroke_t	t	n/a
456.54	0.075	913080	keystroke_e	e	n/a
456.69	0.075	913380	keystroke_Key.space	Key.space	n/a
456.8095	0.091	913619	keystroke_s	s	n/a
456.8845	0.061	913769	keystroke_o	o	n/a
457.0645	0.106	914129	keystroke_l	l	n/a
457.2005	0.089	914401	keystroke_e	e	n/a
457.3345	0.075	914669	keystroke_Key.enter	Key.enter	n/a
457.4175	8.2	914835	prompt	n/a	martha charger kansas cylinder\n
457.9505	0.09	915901	keystroke_m	m	n/a
458.0695	0.09	916139	keystroke_a	a	n/a
458.2055	0.09	916411	keystroke_r	r	n/a
458.3845	0.06	916769	keystroke_t	t	n/a
458.4595	0.076	916919	keystroke_h	h	n/a
458.85	0.075	917700	keystroke_Key.space	Key.space	n/a
459.15	0.075	918300	keystroke_Key.backspace	Key.backspace	n/a
459.21	0.105	918420	keystroke_a	a	n/a
459.375	0.105	918750	keystroke_Key.space	Key.space	n/a
459.69	0.09	919380	keystroke_c	c	n/a
459.765	0.09	919530	keystroke_h	h	n/a
459.87	0.075	919740	keystroke_a	a	n/a
459.96	0.075	919920	keystroke_r	r	n/a
460.14	0.06	920280	keystroke_g	g	n/a
460.23	0.12	920460	keystroke_e	e	n/a
460.32	0.09	920640	keystroke_r	r	n/a
460.47	0.105	920940	keystroke_Key.space	Key.space	n/a
460.9345	0.105	921869	keystroke_k	k	n/a
461.0695	0.09	922139	keystroke_a	a	n/a
461.1745	0.076	922349	keystroke_n	n	n/a
461.2945	0.06	922589	keystroke_a	a	n/a
461.5945	0.075	923189	keystroke_Key.backspace	Key.backspace	n/a
461.6405	0.074	923281	keystroke_s	s	n/a
461.7895	0.075	923579	keystroke_a	a	n/a
461.8955	0.044	923791	keystroke_d	d	n/a
462.2695	0.075	924539	keystroke_Key.backspace	Key.backspace	n/a
462.3305	0.089	924661	keystroke_s	s	n/a
462.5545	0.045	925109	keystroke_Key.space	Key.space	n/a
462.9145	0.091	925829	keystroke_c	c	n/a
463.3045	0.06	926609	keystroke_t	t	n/a
463.9195	0.075	927839	keystroke_Key.backspace	Key.backspace	n/a
464.1745	0.0305	928349	keystroke_t	t	n/a
464.4445	0.075	928889	keystroke_Key.backspace	Key.backspace	n/a
464.5345	0.061	929069	keystroke_y	y	n/a
464.6545	0.105	929309	keystroke_l	l	n/a
464.9395	0.12	929879	keystroke_i	i	n/a
464.9995	0.12	929999	keystroke_n	n	n/a
465.2395	0.091	930479	keystroke_d	d	n/a
465.3755	0.089	930751	keystroke_e	e	n/a
465.4195	0.075	930839	keystroke_r	r	n/a
465.5245	0.09	931049	keystroke_Key.enter	Key.enter	n/a
465.622	4.9755	931244	prompt	n/a	midi spin watch outer\n
466.4545	0.06	932909	keystroke_i	i	n/a
466.8145	0.06	933629	keystroke_Key.backspace	Key.backspace	n/a
466.965	0.12	933930	keystroke_m	m	n/a
467.1	0.075	934200	keystroke_i	i	n/a
467.25	0.105	934500	keystroke_d	d	n/a
467.385	0.06	934770	keystroke_i	i	n/a
467.64	0.12	935280	keystroke_Key.space	Key.space	n/a
467.985	0.09	935970	keystroke_s	s	n/a
468.09	0.135	936180	keystroke_p	p	n/a
468.195	0.105	936390	keystroke_i	i	n/a
468.42	0.09	936840	keystroke_n	n	n/a
468.54	0.12	937080	keystroke_Key.space	Key.space	n/a
468.765	0.09	937530	keystroke_w	w	n/a
468.9305	0.0895	937861	keystroke_a	a	n/a
469.41	0.075	938820	keystroke_t	t	n/a
469.59	0.09	939180	keystroke_c	c	n/a
469.695	0.09	939390	keystroke_h	h	n/a
469.77	0.135	939540	keystroke_Key.space	Key.space	n/a
469.92	0.12	939840	keystroke_o	o	n/a
469.995	0.09	939990	keystroke_u	u	n/a
470.07	0.06	940140	keystroke_t	t	n/a
470.28	0.075	940560	keystroke_e	e	n/a
470.325	0.09	940650	keystroke_r	r	n/a
470.505	0.09	941010	keystroke_Key.enter	Key.enter	n/a
470.602	4.81	941204	prompt	n/a	still americans thoughts connect\n
471.165	0.09	942330	keystroke_s	s	n/a
471.285	0.075	942570	keystroke_t	t	n/a
471.375	0.09	942750	keystroke_i	i	n/a
471.495	0.06	942990	keystroke_l	l	n/a
471.63	0.09	943260	keystroke_l	l	n/a
471.975	0.09	943950	keystroke_Key.space	Key.space	n/a
472.23	0.105	944460	keystroke_a	a	n/a
472.32	0.09	944640	keystroke_m	m	n/a
472.44	0.09	944880	keystroke_e	e	n/a
472.5	0.09	945000	keystroke_r	r	n/a
472.635	0.09	945270	keystroke_i	i	n/a
472.74	0.105	945480	keystroke_c	c	n/a
472.92	0.105	945840	keystroke_a	a	n/a
473.04	0.075	946080	keystroke_n	n	n/a
473.13	0.09	946260	keystroke_s	s	n/a
473.235	0.09	946470	keystroke_Key.space	Key.space	n/a
473.58	0.075	947160	keystroke_t	t	n/a
473.67	0.06	947340	keystroke_h	h	n/a
473.745	0.135	947490	keystroke_o	o	n/a
473.82	0.105	947640	keystroke_u	u	n/a
473.94	0.06	947880	keystroke_g	g	n/a
474.015	0.105	948030	keystroke_h	h	n/a
474.105	0.075	948210	keystroke_t	t	n/a
474.225	0.105	948450	keystroke_s	s	n/a
474.375	0.075	948750	keystroke_Key.space	Key.space	n/a
474.6	0.09	949200	keystroke_c	c	n/a
474.615	0.09	949230	keystroke_o	o	n/a
474.675	0.045	949350	keystroke_n	n	n/a
474.78	0.075	949560	keystroke_n	n	n/a
474.975	0.09	949950	keystroke_e	e	n/a
475.02	0.105	950040	keystroke_c	c	n/a
475.245	0.06	950490	keystroke_t	t	n/a
475.35	0.06	950700	keystroke_Key.enter	Key.enter	n/a
475.417	6.805	950834	prompt	n/a	wars bios remained synthetic\n
475.92	0.075	951840	keystroke_w	w	n/a
476.115	0.09	952230	keystroke_a	a	n/a
476.22	0.06	952440	keystroke_r	r	n/a
476.4	0.075	952800	keystroke_s	s	n/a
476.535	0.09	953070	keystroke_Key.space	Key.space	n/a
476.865	0.06	953730	keystroke_b	b	n/a
476.94	0.12	953880	keystroke_i	i	n/a
477.015	0.09	954030	keystroke_o	o	n/a
477.12	0.105	954240	keystroke_s	s	n/a
477.27	0.105	954540	keystroke_Key.space	Key.space	n/a
477.9	0.045	955800	keystroke_e	e	n/a
478.335	0.06	956670	keystroke_Key.backspace	Key.backspace	n/a
478.41	0.09	956820	keystroke_r	r	n/a
478.47	0.09	956940	keystroke_e	e	n/a
478.575	0.12	957150	keystroke_m	m	n/a
