onset	duration	sample	value	key	prompt_text
3.5675	5.9595	7135	prompt	n/a	the quick brown fox jumps over a lazy dog\n
4.5785	0.0435	9157	keystroke_t	t	n/a
4.5795	0.0875	9159	keystroke_h	h	n/a
4.712	0.087	9424	keystroke_e	e	n/a
4.8595	0.075	9719	keystroke_Key.space	Key.space	n/a
4.9795	0.105	9959	keystroke_q	q	n/a
5.0995	0.06	10199	keystroke_u	u	n/a
5.235	0.09	10470	keystroke_i	i	n/a
5.31	0.105	10620	keystroke_c	c	n/a
5.3995	0.0905	10799	keystroke_k	k	n/a
5.46	0.09	10920	keystroke_Key.space	Key.space	n/a
5.565	0.075	11130	keystroke_b	b	n/a
5.685	0.0895	11370	keystroke_r	r	n/a
5.745	0.0745	11490	keystroke_o	o	n/a
5.8795	0.075	11759	keystroke_w	w	n/a
5.9095	0.075	11819	keystroke_n	n	n/a
6.0595	0.09	12119	keystroke_Key.space	Key.space	n/a
6.614	0.105	13228	keystroke_f	f	n/a
6.689	0.06	13378	keystroke_o	o	n/a
6.78	0.12	13560	keystroke_x	x	n/a
6.869	0.0755	13738	keystroke_Key.space	Key.space	n/a
7.0045	0.061	14009	keystroke_j	j	n/a
7.1245	0.076	14249	keystroke_u	u	n/a
7.2455	0.09	14491	keystroke_m	m	n/a
7.3945	0.075	14789	keystroke_p	p	n/a
7.4545	0.106	14909	keystroke_s	s	n/a
7.5295	0.0905	15059	keystroke_Key.space	Key.space	n/a
7.635	0.09	15270	keystroke_o	o	n/a
7.71	0.09	15420	keystroke_v	v	n/a
7.8	0.105	15600	keystroke_e	e	n/a
7.86	0.12	15720	keystroke_r	r	n/a
7.95	0.075	15900	keystroke_Key.space	Key.space	n/a
8.055	0.09	16110	keystroke_a	a	n/a
8.085	0.075	16170	keystroke_Key.space	Key.space	n/a
8.22	0.0745	16440	keystroke_l	l	n/a
8.3095	0.046	16619	keystroke_a	a	n/a
8.5195	0.075	17039	keystroke_z	z	n/a
8.8505	0.074	17701	keystroke_y	y	n/a
8.9695	0.075	17939	keystroke_Key.space	Key.space	n/a
9.0595	0.12	18119	keystroke_d	d	n/a
9.1805	0.074	18361	keystroke_o	o	n/a
9.2695	0.075	18539	keystroke_g	g	n/a
9.4495	0.075	18899	keystroke_Key.enter	Key.enter	n/a
9.531	4.0905	19062	prompt	n/a	wings decent nudist value\n
10.11	0.105	20220	keystroke_w	w	n/a
10.185	0.045	20370	keystroke_i	i	n/a
10.2	0.0905	20400	keystroke_n	n	n/a
10.26	0.09	20520	keystroke_g	g	n/a
10.365	0.105	20730	keystroke_s	s	n/a
10.455	0.09	20910	keystroke_Key.space	Key.space	n/a
10.56	0.075	21120	keystroke_d	d	n/a
10.725	0.075	21450	keystroke_e	e	n/a
10.83	0.105	21660	keystroke_c	c	n/a
10.89	0.09	21780	keystroke_e	e	n/a
10.95	0.075	21900	keystroke_n	n	n/a
11.085	0.075	22170	keystroke_t	t	n/a
11.175	0.075	22350	keystroke_Key.space	Key.space	n/a
12.03	0.105	24060	keystroke_n	n	n/a
12.12	0.075	24240	keystroke_u	u	n/a
12.24	0.105	24480	keystroke_d	d	n/a
12.36	0.075	24720	keystroke_i	i	n/a
12.45	0.105	24900	keystroke_s	s	n/a
12.525	0.15	25050	keystroke_t	t	n/a
12.66	0.075	25320	keystroke_Key.space	Key.space	n/a
12.945	0.075	25890	keystroke_v	v	n/a
12.99	0.135	25980	keystroke_a	a	n/a
13.08	0.075	26160	keystroke_l	l	n/a
13.245	0.06	26490	keystroke_u	u	n/a
13.305	0.075	26610	keystroke_e	e	n/a
13.575	0.045	27150	keystroke_Key.enter	Key.enter	n/a
13.624	5.0975	27248	prompt	n/a	midi lucy studies brad\n
14.175	0.135	28350	keystroke_m	m	n/a
14.295	0.09	28590	keystroke_i	i	n/a
14.4295	0.0905	28859	keystroke_d	d	n/a
14.6245	0.075	29249	keystroke_i	i	n/a
14.9995	0.075	29999	keystroke_Key.space	Key.space	n/a
15.1655	0.089	30331	keystroke_l	l	n/a
15.3305	0.074	30661	keystroke_u	u	n/a
15.3895	0.105	30779	keystroke_c	c	n/a
15.7205	0.104	31441	keystroke_Key.space	Key.space	n/a
15.8255	0.105	31651	keystroke_s	s	n/a
16.0645	0.06	32129	keystroke_Key.backspace	Key.backspace	n/a
16.1845	0.105	32369	keystroke_Key.backspace	Key.backspace	n/a
16.2905	0.09	32581	keystroke_y	y	n/a
16.4395	0.075	32879	keystroke_Key.space	Key.space	n/a
16.5005	0.09	33001	keystroke_s	s	n/a
16.5445	0.105	33089	keystroke_t	t	n/a
16.6645	0.076	33329	keystroke_u	u	n/a
16.6945	0.106	33389	keystroke_d	d	n/a
16.8145	0.075	33629	keystroke_i	i	n/a
16.8745	0.09	33749	keystroke_e	e	n/a
17.505	0.12	35010	keystroke_s	s	n/a
17.64	0.075	35280	keystroke_Key.space	Key.space	n/a
17.79	0.09	35580	keystroke_b	b	n/a
17.895	0.1055	35790	keystroke_r	r	n/a
18.1055	0.135	36211	keystroke_a	a	n/a
18.225	0.09	36450	keystroke_d	d	n/a
18.645	0.075	37290	keystroke_Key.enter	Key.enter	n/a
18.7315	5.27	37463	prompt	n/a	next synopsis clubs therefore\n
19.41	0.0455	38820	keystroke_n	n	n/a
19.47	0.06	38940	keystroke_e	e	n/a
19.6355	0.089	39271	keystroke_x	x	n/a
19.7395	0.1055	39479	keystroke_t	t	n/a
19.89	0.09	39780	keystroke_Key.space	Key.space	n/a
20.145	0.075	40290	keystroke_s	s	n/a
20.37	0.09	40740	keystroke_y	y	n/a
20.475	0.075	40950	keystroke_n	n	n/a
20.625	0.09	41250	keystroke_o	o	n/a
21.18	0.045	42360	keystroke_p	p	n/a
21.405	0.105	42810	keystroke_s	s	n/a
21.54	0.075	43080	keystroke_i	i	n/a
21.6	0.12	43200	keystroke_s	s	n/a
21.825	0.105	43650	keystroke_Key.space	Key.space	n/a
22.26	0.135	44520	keystroke_c	c	n/a
22.35	0.075	44700	keystroke_l	l	n/a
22.5	0.075	45000	keystroke_u	u	n/a
22.6045	0.075	45209	keystroke_b	b	n/a
22.7545	0.09	45509	keystroke_s	s	n/a
22.8295	0.09	45659	keystroke_Key.space	Key.space	n/a
22.9495	0.105	45899	keystroke_t	t	n/a
23.0095	0.075	46019	keystroke_h	h	n/a
23.0995	0.105	46199	keystroke_e	e	n/a
23.1745	0.15	46349	keystroke_r	r	n/a
23.2795	0.06	46559	keystroke_e	e	n/a
23.3995	0.105	46799	keystroke_f	f	n/a
23.4905	0.059	46981	keystroke_o	o	n/a
23.5645	0.09	47129	keystroke_r	r	n/a
23.6245	0.09	47249	keystroke_e	e	n/a
23.9245	0.075	47849	keystroke_Key.enter	Key.enter	n/a
24.0045	4.977	48009	prompt	n/a	bottle compliant death baltimore\n
24.57	0.105	49140	keystroke_b	b	n/a
24.66	0.075	49320	keystroke_o	o	n/a
24.78	0.075	49560	keystroke_t	t	n/a
24.885	0.1055	49770	keystroke_t	t	n/a
25.0205	0.09	50041	keystroke_l	l	n/a
25.1255	0.0745	50251	keystroke_e	e	n/a
25.23	0.0905	50460	keystroke_Key.space	Key.space	n/a
25.3355	0.12	50671	keystroke_c	c	n/a
25.3955	0.105	50791	keystroke_o	o	n/a
25.4705	0.075	50941	keystroke_m	m	n/a
25.6205	0.105	51241	keystroke_p	p	n/a
25.6655	0.09	51331	keystroke_l	l	n/a
25.9645	0.076	51929	keystroke_i	i	n/a
26.0855	0.075	52171	keystroke_a	a	n/a
26.1605	0.074	52321	keystroke_n	n	n/a
26.2495	0.09	52499	keystroke_t	t	n/a
26.3545	0.09	52709	keystroke_Key.space	Key.space	n/a
26.5205	0.059	53041	keystroke_d	d	n/a
26.655	0.075	53310	keystroke_e	e	n/a
26.731	0.104	53462	keystroke_a	a	n/a
26.895	0.075	53790	keystroke_t	t	n/a
26.925	0.09	53850	keystroke_h	h	n/a
27.03	0.06	54060	keystroke_Key.space	Key.space	n/a
27.4045	0.075	54809	keystroke_b	b	n/a
27.5995	0.031	55199	keystroke_a	a	n/a
27.6745	0.09	55349	keystroke_l	l	n/a
28.095	0.09	56190	keystroke_t	t	n/a
28.2295	0.045	56459	keystroke_i	i	n/a
28.4095	0.075	56819	keystroke_m	m	n/a
28.4555	0.089	56911	keystroke_o	o	n/a
28.5295	0.105	57059	keystroke_r	r	n/a
28.5745	0.105	57149	keystroke_e	e	n/a
28.9195	0.06	57839	keystroke_Key.enter	Key.enter	n/a
28.9855	6.4465	57971	prompt	n/a	trackbacks responses fought conflicts\n
29.6245	0.0905	59249	keystroke_t	t	n/a
29.655	0.1195	59310	keystroke_r	r	n/a
29.8195	0.15	59639	keystroke_a	a	n/a
29.9245	0.12	59849	keystroke_c	c	n/a
30.0295	0.06	60059	keystroke_k	k	n/a
30.12	0.0895	60240	keystroke_s	s	n/a
30.315	0.075	60630	keystroke_b	b	n/a
30.48	0.135	60960	keystroke_a	a	n/a
30.555	0.12	61110	keystroke_c	c	n/a
30.69	0.075	61380	keystroke_k	k	n/a
30.735	0.105	61470	keystroke_s	s	n/a
30.9	0.105	61800	keystroke_Key.space	Key.space	n/a
31.02	0.12	62040	keystroke_r	r	n/a
31.065	0.105	62130	keystroke_e	e	n/a
31.485	0.105	62970	keystroke_s	s	n/a
31.65	0.09	63300	keystroke_p	p	n/a
31.785	0.12	63570	keystroke_o	o	n/a
31.845	0.09	63690	keystroke_n	n	n/a
31.92	0.135	63840	keystroke_s	s	n/a
32.025	0.135	64050	keystroke_e	e	n/a
32.145	0.1345	64290	keystroke_s	s	n/a
32.3545	0.09	64709	keystroke_Key.space	Key.space	n/a
32.5345	0.12	65069	keystroke_f	f	n/a
32.7145	0.09	65429	keystroke_o	o	n/a
32.8645	0.09	65729	keystroke_u	u	n/a
32.9555	0.119	65911	keystroke_g	g	n/a
33.0455	0.09	66091	keystroke_h	h	n/a
33.1655	0.089	66331	keystroke_t	t	n/a
33.6	0.075	67200	keystroke_Key.space	Key.space	n/a
33.7795	0.09	67559	keystroke_c	c	n/a
33.8395	0.09	67679	keystroke_o	o	n/a
33.8845	0.075	67769	keystroke_n	n	n/a
34.0495	0.106	68099	keystroke_f	f	n/a
34.1695	0.0605	68339	keystroke_l	l	n/a
34.29	0.075	68580	keystroke_i	i	n/a
34.38	0.135	68760	keystroke_c	c	n/a
34.725	0.075	69450	keystroke_t	t	n/a
34.815	0.1195	69630	keystroke_s	s	n/a
35.34	0.09	70680	keystroke_Key.enter	Key.enter	n/a
35.435	6.897	70870	prompt	n/a	latitude asthma venice joyce\n
36.105	0.075	72210	keystroke_l	l	n/a
36.24	0.135	72480	keystroke_a	a	n/a
36.39	0.09	72780	keystroke_t	t	n/a
36.705	0.075	73410	keystroke_i	i	n/a
36.795	0.105	73590	keystroke_t	t	n/a
36.93	0.075	73860	keystroke_u	u	n/a
37.23	0.105	74460	keystroke_t	t	n/a
37.305	0.09	74610	keystroke_e	e	n/a
37.755	0.09	75510	keystroke_Key.space	Key.space	n/a
37.875	0.105	75750	keystroke_a	a	n/a
38.025	0.105	76050	keystroke_s	s	n/a
38.28	0.105	76560	keystroke_t	t	n/a
38.325	0.09	76650	keystroke_h	h	n/a
38.775	0.06	77550	keystroke_m	m	n/a
38.85	0.105	77700	keystroke_a	a	n/a
39.075	0.075	78150	keystroke_Key.space	Key.space	n/a
39.27	0.105	78540	keystroke_v	v	n/a
39.42	0.09	78840	keystroke_e	e	n/a
39.525	0.105	79050	keystroke_n	n	n/a
39.6	0.09	79200	keystroke_i	i	n/a
39.705	0.0905	79410	keystroke_c	c	n/a
39.7505	0.09	79501	keystroke_e	e	n/a
39.9755	0.105	79951	keystroke_Key.space	Key.space	n/a
40.2455	0.075	80491	keystroke_j	j	n/a
40.4555	0.075	80911	keystroke_o	o	n/a
40.5605	0.075	81121	keystroke_y	y	n/a
40.8755	0.105	81751	keystroke_c	c	n/a
40.9205	0.09	81841	keystroke_e	e	n/a
42.27	0.06	84540	keystroke_Key.enter	Key.enter	n/a
42.341	11.076	84682	prompt	n/a	southampton hypothetical likely controversy\n
43.08	0.1055	86160	keystroke_s	s	n/a
43.2005	0.075	86401	keystroke_i	i	n/a
43.7705	0.09	87541	keystroke_Key.backspace	Key.backspace	n/a
44.0255	0.105	88051	keystroke_o	o	n/a
44.2205	0.075	88441	keystroke_u	u	n/a
44.3105	0.0895	88621	keystroke_t	t	n/a
44.3555	0.1045	88711	keystroke_h	h	n/a
44.58	0.075	89160	keystroke_h	h	n/a
44.745	0.12	89490	keystroke_a	a	n/a
44.925	0.105	89850	keystroke_m	m	n/a
45.1655	0.075	90331	keystroke_p	p	n/a
45.5555	0.105	91111	keystroke_t	t	n/a
45.6455	0.1495	91291	keystroke_o	o	n/a
45.735	0.09	91470	keystroke_n	n	n/a
45.9	0.09	91800	keystroke_Key.space	Key.space	n/a
46.095	0.03	92190	keystroke_h	h	n/a
47.5495	0.075	95099	keystroke_y	y	n/a
48.6455	0.075	97291	keystroke_p	p	n/a
48.8855	0.075	97771	keystroke_o	o	n/a
49.3505	0.12	98701	keystroke_t	t	n/a
49.4105	0.09	98821	keystroke_h	h	n/a
49.5755	0.09	99151	keystroke_e	e	n/a
50.01	0.045	100020	keystroke_t	t	n/a
50.07	0.06	100140	keystroke_i	i	n/a
50.19	0.105	100380	keystroke_c	c	n/a
50.25	0.15	100500	keystroke_a	a	n/a
50.43	0.075	100860	keystroke_l	l	n/a
50.64	0.045	101280	keystroke_Key.space	Key.space	n/a
50.775	0.06	101550	keystroke_l	l	n/a
50.895	0.075	101790	keystroke_i	i	n/a
51.03	0.09	102060	keystroke_k	k	n/a
51.105	0.0755	102210	keystroke_e	e	n/a
51.1955	0.06	102391	keystroke_l	l	n/a
51.3005	0.075	102601	keystroke_y	y	n/a
51.4655	0.06	102931	keystroke_Key.space	Key.space	n/a
51.6005	0.105	103201	keystroke_c	c	n/a
51.6755	0.09	103351	keystroke_o	o	n/a
51.7355	0.075	103471	keystroke_n	n	n/a
51.9755	0.09	103951	keystroke_t	t	n/a
52.0055	0.09	104011	keystroke_r	r	n/a
52.1255	0.06	104251	keystroke_o	o	n/a
52.3655	0.105	104731	keystroke_v	v	n/a
52.5155	0.1195	105031	keystroke_e	e	n/a
52.59	0.12	105180	keystroke_r	r	n/a
52.98	0.105	105960	keystroke_s	s	n/a
53.115	0.075	106230	keystroke_y	y	n/a
53.355	0.06	106710	keystroke_Key.enter	Key.enter	n/a
53.4195	6.912	106839	prompt	n/a	hungary announcement digit quilt\n
54.2255	0.105	108451	keystroke_h	h	n/a
54.3155	0.105	108631	keystroke_u	u	n/a
54.4355	0.09	108871	keystroke_n	n	n/a
54.6005	0.12	109201	keystroke_g	g	n/a
54.7055	0.12	109411	keystroke_a	a	n/a
55.08	0.105	110160	keystroke_r	r	n/a
55.14	0.105	110280	keystroke_y	y	n/a
55.2905	0.075	110581	keystroke_Key.space	Key.space	n/a
55.4705	0.045	110941	keystroke_c	c	n/a
55.8305	0.045	111661	keystroke_Key.backspace	Key.backspace	n/a
55.9505	0.105	111901	keystroke_a	a	n/a
56.0405	0.06	112081	keystroke_n	n	n/a
56.1605	0.075	112321	keystroke_n	n	n/a
56.2655	0.075	112531	keystroke_o	o	n/a
56.4455	0.075	112891	keystroke_u	u	n/a
56.5355	0.075	113071	keystroke_c	c	n/a
56.5655	0.1045	113131	keystroke_e	e	n/a
57.06	0.075	114120	keystroke_Key.backspace	Key.backspace	n/a
57.195	0.09	114390	keystroke_Key.backspace	Key.backspace	n/a
57.375	0.075	114750	keystroke_n	n	n/a
57.451	0.104	114902	keystroke_c	c	n/a
57.48	0.12	114960	keystroke_e	e	n/a
57.7645	0.106	115529	keystroke_m	m	n/a
57.855	0.0905	115710	keystroke_e	e	n/a
57.9305	0.09	115861	keystroke_n	n	n/a
58.0345	0.091	116069	keystroke_t	t	n/a
58.1255	0.089	116251	keystroke_Key.space	Key.space	n/a
58.2755	0.09	116551	keystroke_d	d	n/a
58.3495	0.09	116699	keystroke_i	i	n/a
58.4545	0.091	116909	keystroke_g	g	n/a
58.5295	0.06	117059	keystroke_i	i	n/a
58.65	0.06	117300	keystroke_t	t	n/a
58.89	0.09	117780	keystroke_Key.space	Key.space	n/a
59.025	0.09	118050	keystroke_q	q	n/a
59.13	0.06	118260	keystroke_u	u	n/a
59.295	0.0745	118590	keystroke_i	i	n/a
59.5955	0.074	119191	keystroke_l	l	n/a
59.7155	0.074	119431	keystroke_t	t	n/a
60.285	0.045	120570	keystroke_Key.enter	Key.enter	n/a
60.3345	5.457	120669	prompt	n/a	medications collectables acre logan\n
60.8405	0.09	121681	keystroke_m	m	n/a
60.9605	0.075	121921	keystroke_e	e	n/a
61.1255	0.105	122251	keystroke_d	d	n/a
61.2155	0.045	122431	keystroke_i	i	n/a
61.2905	0.105	122581	keystroke_c	c	n/a
61.3355	0.135	122671	keystroke_a	a	n/a
61.5155	0.105	123031	keystroke_t	t	n/a
61.5755	0.075	123151	keystroke_i	i	n/a
61.6805	0.105	123361	keystroke_o	o	n/a
61.7405	0.09	123481	keystroke_n	n	n/a
61.8005	0.12	123601	keystroke_s	s	n/a
61.9055	0.09	123811	keystroke_Key.space	Key.space	n/a
62.2505	0.1045	124501	keystroke_c	c	n/a
62.295	0.09	124590	keystroke_o	o	n/a
62.475	0.075	124950	keystroke_l	l	n/a
62.595	0.09	125190	keystroke_l	l	n/a
62.655	0.12	125310	keystroke_e	e	n/a
62.715	0.135	125430	keystroke_c	c	n/a
63	0.075	126000	keystroke_t	t	n/a
63.12	0.06	126240	keystroke_i	i	n/a
63.285	0.105	126570	keystroke_b	b	n/a
63.405	0.09	126810	keystroke_l	l	n/a
63.525	0.09	127050	keystroke_e	e	n/a
63.705	0.1045	127410	keystroke_s	s	n/a
63.8245	0.075	127649	keystroke_Key.space	Key.space	n/a
64.0195	0.135	128039	keystroke_a	a	n/a
64.1995	0.1055	128399	keystroke_c	c	n/a
64.485	0.105	128970	keystroke_r	r	n/a
64.53	0.135	129060	keystroke_e	e	n/a
64.62	0.09	129240	keystroke_Key.space	Key.space	n/a
64.83	0.075	129660	keystroke_l	l	n/a
64.9805	0.06	129961	keystroke_o	o	n/a
65.0555	0.1045	130111	keystroke_g	g	n/a
65.13	0.135	130260	keystroke_a	a	n/a
65.235	0.075	130470	keystroke_n	n	n/a
65.73	0.0605	131460	keystroke_Key.enter	Key.enter	n/a
65.7945	7.557	131589	prompt	n/a	responding amanda researcher robertson\n
66.3455	0.105	132691	keystroke_r	r	n/a
66.3605	0.105	132721	keystroke_e	e	n/a
66.6605	0.045	133321	keystroke_s	s	n/a
67.2755	0.135	134551	keystroke_o	o	n/a
67.8455	0.09	135691	keystroke_Key.backspace	Key.backspace	n/a
68.1605	0.09	136321	keystroke_p	p	n/a
68.3105	0.12	136621	keystroke_o	o	n/a
68.5055	0.12	137011	keystroke_n	n	n/a
68.7305	0.105	137461	keystroke_d	d	n/a
68.8655	0.09	137731	keystroke_i	i	n/a
68.9105	0.09	137821	keystroke_n	n	n/a
68.9855	0.075	137971	keystroke_g	g	n/a
69.1205	0.105	138241	keystroke_Key.space	Key.space	n/a
69.3305	0.105	138661	keystroke_a	a	n/a
69.4205	0.09	138841	keystroke_m	m	n/a
69.5255	0.09	139051	keystroke_a	a	n/a
69.5705	0.09	139141	keystroke_n	n	n/a
69.7055	0.105	139411	keystroke_d	d	n/a
69.7655	0.12	139531	keystroke_a	a	n/a
70.1855	0.105	140371	keystroke_Key.space	Key.space	n/a
70.3355	0.12	140671	keystroke_r	r	n/a
70.4105	0.075	140821	keystroke_e	e	n/a
70.5455	0.105	141091	keystroke_s	s	n/a
70.6805	0.06	141361	keystroke_e	e	n/a
71.1305	0.12	142261	keystroke_a	a	n/a
71.2655	0.09	142531	keystroke_r	r	n/a
71.4755	0.075	142951	keystroke_c	c	n/a
71.5355	0.075	143071	keystroke_h	h	n/a
71.6255	0.105	143251	keystroke_e	e	n/a
71.6855	0.12	143371	keystroke_r	r	n/a
71.8355	0.075	143671	keystroke_Key.space	Key.space	n/a
71.9555	0.075	143911	keystroke_r	r	n/a
72.0455	0.075	144091	keystroke_o	o	n/a
72.1955	0.075	144391	keystroke_b	b	n/a
72.3155	0.105	144631	keystroke_e	e	n/a
72.3755	0.12	144751	keystroke_r	r	n/a
72.6305	0.075	145261	keystroke_t	t	n/a
72.7805	0.12	145561	keystroke_s	s	n/a
72.8855	0.09	145771	keystroke_o	o	n/a
72.9605	0.06	145921	keystroke_n	n	n/a
73.275	0.075	146550	keystroke_Key.enter	Key.enter	n/a
73.3555	5.126	146711	prompt	n/a	injuries proper loud trainer\n
73.995	0.105	147990	keystroke_i	i	n/a
74.04	0.1055	148080	keystroke_n	n	n/a
74.25	0.075	148500	keystroke_j	j	n/a
74.385	0.075	148770	keystroke_u	u	n/a
74.49	0.0905	148980	keystroke_r	r	n/a
74.5655	0.06	149131	keystroke_i	i	n/a
74.6405	0.105	149281	keystroke_e	e	n/a
74.79	0.15	149580	keystroke_s	s	n/a
74.955	0.0595	149910	keystroke_Key.space	Key.space	n/a
75.1205	0.089	150241	keystroke_p	p	n/a
75.2695	0.076	150539	keystroke_o	o	n/a
75.3305	0.09	150661	keystroke_r	r	n/a
75.6155	0.075	151231	keystroke_p	p	n/a
75.8845	0.06	151769	keystroke_Key.backspace	Key.backspace	n/a
76.035	0.0595	152070	keystroke_Key.backspace	Key.backspace	n/a
76.1695	0.061	152339	keystroke_Key.backspace	Key.backspace	n/a
76.245	0.076	152490	keystroke_r	r	n/a
76.35	0.075	152700	keystroke_o	o	n/a
76.5	0.09	153000	keystroke_p	p	n/a
76.575	0.105	153150	keystroke_e	e	n/a
76.605	0.12	153210	keystroke_r	r	n/a
76.92	0.0895	153840	keystroke_Key.space	Key.space	n/a
77.1155	0.06	154231	keystroke_l	l	n/a
77.2505	0.075	154501	keystroke_o	o	n/a
77.4005	0.06	154801	keystroke_u	u	n/a
77.4755	0.09	154951	keystroke_d	d	n/a
77.5805	0.0595	155161	keystroke_Key.space	Key.space	n/a
77.67	0.105	155340	keystroke_t	t	n/a
77.715	0.075	155430	keystroke_r	r	n/a
77.805	0.12	155610	keystroke_a	a	n/a
77.85	0.09	155700	keystroke_i	i	n/a
77.895	0.075	155790	keystroke_n	n	n/a
78	0.1195	156000	keystroke_e	e	n/a
78.045	0.1045	156090	keystroke_r	r	n/a
78.42	0.06	156840	keystroke_Key.enter	Key.enter	n/a
78.484	4.903	156968	prompt	n/a	hitting count shows geography\n
79.125	0.09	158250	keystroke_h	h	n/a
79.2	0.06	158400	keystroke_i	i	n/a
79.29	0.06	158580	keystroke_t	t	n/a
79.41	0.075	158820	keystroke_t	t	n/a
79.5	0.09	159000	keystroke_i	i	n/a
79.545	0.075	159090	keystroke_n	n	n/a
79.591	0.089	159182	keystroke_g	g	n/a
79.74	0.0905	159480	keystroke_Key.space	Key.space	n/a
80.085	0.12	160170	keystroke_c	c	n/a
80.175	0.075	160350	keystroke_o	o	n/a
80.325	0.105	160650	keystroke_u	u	n/a
80.355	0.09	160710	keystroke_n	n	n/a
80.415	0.075	160830	keystroke_t	t	n/a
80.505	0.09	161010	keystroke_Key.space	Key.space	n/a
80.61	0.06	161220	keystroke_s	s	n/a
80.7	0.105	161400	keystroke_h	h	n/a
80.775	0.075	161550	keystroke_o	o	n/a
80.8805	0.09	161761	keystroke_w	w	n/a
81.0455	0.09	162091	keystroke_s	s	n/a
81.1655	0.075	162331	keystroke_Key.space	Key.space	n/a
81.4805	0.09	162961	keystroke_g	g	n/a
81.7505	0.09	163501	keystroke_e	e	n/a
81.8855	0.075	163771	keystroke_o	o	n/a
82.0505	0.075	164101	keystroke_r	r	n/a
82.4555	0.075	164911	keystroke_Key.backspace	Key.backspace	n/a
82.5005	0.09	165001	keystroke_g	g	n/a
82.5455	0.09	165091	keystroke_r	r	n/a
82.6655	0.15	165331	keystroke_a	a	n/a
82.7705	0.09	165541	keystroke_p	p	n/a
82.9655	0.06	165931	keystroke_h	h	n/a
83.0705	0.09	166141	keystroke_y	y	n/a
83.3105	0.075	166621	keystroke_Key.enter	Key.enter	n/a
83.3895	8.022	166779	prompt	n/a	wired directive beverly cattle\n
83.985	0.15	167970	keystroke_w	w	n/a
84.06	0.105	168120	keystroke_e	e	n/a
84.12	0.075	168240	keystroke_i	i	n/a
84.42	0.06	168840	keystroke_Key.backspace	Key.backspace	n/a
84.525	0.105	169050	keystroke_Key.backspace	Key.backspace	n/a
84.765	0.09	169530	keystroke_i	i	n/a
84.81	0.09	169620	keystroke_r	r	n/a
84.856	0.074	169712	keystroke_e	e	n/a
84.99	0.105	169980	keystroke_d	d	n/a
85.125	0.09	170250	keystroke_Key.space	Key.space	n/a
85.305	0.09	170610	keystroke_d	d	n/a
85.515	0.09	171030	keystroke_e	e	n/a
85.65	0.1355	171300	keystroke_t	t	n/a
85.7555	0.075	171511	keystroke_e	e	n/a
86.685	0.06	173370	keystroke_Key.backspace	Key.backspace	n/a
86.82	0.06	173640	keystroke_Key.backspace	Key.backspace	n/a
86.94	0.09	173880	keystroke_Key.backspace	Key.backspace	n/a
87.12	0.075	174240	keystroke_i	i	n/a
87.165	0.09	174330	keystroke_r	r	n/a
87.196	0.089	174392	keystroke_e	e	n/a
87.345	0.09	174690	keystroke_c	c	n/a
87.51	0.09	175020	keystroke_t	t	n/a
87.93	0.0895	175860	keystroke_i	i	n/a
88.0345	0.15	176069	keystroke_v	v	n/a
88.1105	0.119	176221	keystroke_e	e	n/a
88.3195	0.09	176639	keystroke_Key.space	Key.space	n/a
88.6345	0.106	177269	keystroke_b	b	n/a
89.0545	0.105	178109	keystroke_e	e	n/a
89.1755	0.15	178351	keystroke_v	v	n/a
89.2495	0.12	178499	keystroke_e	e	n/a
89.3255	0.119	178651	keystroke_r	r	n/a
89.5345	0.09	179069	keystroke_l	l	n/a
89.6545	0.091	179309	keystroke_y	y	n/a
89.7755	0.09	179551	keystroke_Key.space	Key.space	n/a
90.075	0.12	180150	keystroke_c	c	n/a
90.165	0.12	180330	keystroke_a	a	n/a
90.42	0.045	180840	keystroke_t	t	n/a
90.54	0.105	181080	keystroke_t	t	n/a
90.66	0.0895	181320	keystroke_l	l	n/a
90.7645	0.076	181529	keystroke_e	e	n/a
91.335	0.0745	182670	keystroke_Key.enter	Key.enter	n/a
91.4145	6.822	182829	prompt	n/a	dare radical guestbook entrepreneur\n
92.0105	0.074	184021	keystroke_d	d	n/a
92.2055	0.135	184411	keystroke_a	a	n/a
92.2805	0.074	184561	keystroke_r	r	n/a
92.8955	0.09	185791	keystroke_e	e	n/a
93.0155	0.075	186031	keystroke_Key.space	Key.space	n/a
93.1055	0.135	186211	keystroke_r	r	n/a
93.2255	0.074	186451	keystroke_a	a	n/a
93.3305	0.105	186661	keystroke_d	d	n/a
93.4505	0.0745	186901	keystroke_i	i	n/a
93.54	0.12	187080	keystroke_c	c	n/a
93.6	0.1355	187200	keystroke_a	a	n/a
93.7205	0.074	187441	keystroke_l	l	n/a
93.8845	0.075	187769	keystroke_Key.space	Key.space	n/a
94.125	0.09	188250	keystroke_j	j	n/a
94.2745	0.075	188549	keystroke_u	u	n/a
94.5595	0.075	189119	keystroke_Key.backspace	Key.backspace	n/a
94.6945	0.075	189389	keystroke_Key.backspace	Key.backspace	n/a
94.7845	0.12	189569	keystroke_g	g	n/a
94.9645	0.0905	189929	keystroke_u	u	n/a
95.0995	0.0755	190199	keystroke_e	e	n/a
95.2805	0.075	190561	keystroke_s	s	n/a
95.3255	0.09	190651	keystroke_t	t	n/a
95.5505	0.06	191101	keystroke_b	b	n/a
95.7155	0.06	191431	keystroke_o	o	n/a
95.8345	0.075	191669	keystroke_o	o	n/a
95.9695	0.105	191939	keystroke_k	k	n/a
96.0295	0.09	192059	keystroke_Key.space	Key.space	n/a
96.1345	0.075	192269	keystroke_e	e	n/a
96.2245	0.075	192449	keystroke_n	n	n/a
96.3295	0.0755	192659	keystroke_t	t	n/a
96.51	0.1205	193020	keystroke_r	r	n/a
96.555	0.105	193110	keystroke_e	e	n/a
96.75	0.09	193500	keystroke_p	p	n/a
96.855	0.1205	193710	keystroke_r	r	n/a
96.93	0.0905	193860	keystroke_e	e	n/a
97.1555	0.105	194311	keystroke_n	n	n/a
97.4255	0.09	194851	keystroke_e	e	n/a
97.53	0.075	195060	keystroke_u	u	n/a
97.62	0.09	195240	keystroke_r	r	n/a
98.1455	0.09	196291	keystroke_Key.enter	Key.enter	n/a
98.2415	6.2205	196483	prompt	n/a	constitution debug estimate 'tis\n
98.8055	0.105	197611	keystroke_c	c	n/a
98.8505	0.105	197701	keystroke_o	o	n/a
98.9255	0.09	197851	keystroke_n	n	n/a
99.0005	0.12	198001	keystroke_s	s	n/a
99.1355	0.1045	198271	keystroke_t	t	n/a
99.24	0.06	198480	keystroke_i	i	n/a
99.75	0.06	199500	keystroke_u	u	n/a
99.9	0.075	199800	keystroke_t	t	n/a
100.155	0.075	200310	keystroke_Key.backspace	Key.backspace	n/a
100.29	0.075	200580	keystroke_Key.backspace	Key.backspace	n/a
100.38	0.105	200760	keystroke_t	t	n/a
100.5145	0.06	201029	keystroke_u	u	n/a
101.2195	0.105	202439	keystroke_t	t	n/a
101.2645	0.09	202529	keystroke_i	i	n/a
101.3995	0.1055	202799	keystroke_o	o	n/a
101.4595	0.0755	202919	keystroke_n	n	n/a
101.595	0.09	203190	keystroke_Key.space	Key.space	n/a
101.715	0.075	203430	keystroke_d	d	n/a
101.865	0.06	203730	keystroke_e	e	n/a
102.015	0.09	204030	keystroke_b	b	n/a
102.135	0.075	204270	keystroke_u	u	n/a
102.5105	0.075	205021	keystroke_g	g	n/a
102.8555	0.09	205711	keystroke_Key.space	Key.space	n/a
102.9755	0.09	205951	keystroke_e	e	n/a
103.1705	0.09	206341	keystroke_s	s	n/a
103.2305	0.09	206461	keystroke_t	t	n/a
103.3355	0.09	206671	keystroke_i	i	n/a
103.3655	0.09	206731	keystroke_m	m	n/a
103.4705	0.105	206941	keystroke_a	a	n/a
103.5305	0.12	207061	keystroke_t	t	n/a
103.6055	0.1045	207211	keystroke_e	e	n/a
103.725	0.105	207450	keystroke_Key.space	Key.space	n/a
104.295	0.165	208590	keystroke_Key.enter	Key.enter	n/a
104.4665	5.29	208933	prompt	n/a	develop gets reminder companies\n
105.4655	0.075	210931	keystroke_d	d	n/a
105.6155	0.075	211231	keystroke_e	e	n/a
105.765	0.105	211530	keystroke_v	v	n/a
105.81	0.135	211620	keystroke_e	e	n/a
106.035	0.105	212070	keystroke_l	l	n/a
106.2	0.075	212400	keystroke_o	o	n/a
106.365	0.06	212730	keystroke_p	p	n/a
106.755	0.045	213510	keystroke_s	s	n/a
107.0255	0.075	214051	keystroke_Key.backspace	Key.backspace	n/a
107.2055	0.089	214411	keystroke_Key.space	Key.space	n/a
107.2955	0.075	214591	keystroke_g	g	n/a
107.3405	0.165	214681	keystroke_e	e	n/a
107.4755	0.0895	214951	keystroke_t	t	n/a
107.58	0.135	215160	keystroke_s	s	n/a
107.7	0.09	215400	keystroke_Key.space	Key.space	n/a
107.835	0.12	215670	keystroke_r	r	n/a
107.895	0.12	215790	keystroke_e	e	n/a
108.03	0.06	216060	keystroke_m	m	n/a
108.12	0.1205	216240	keystroke_i	i	n/a
108.18	0.1055	216360	keystroke_n	n	n/a
108.2405	0.09	216481	keystroke_d	d	n/a
108.4045	0.091	216809	keystroke_e	e	n/a
108.4655	0.104	216931	keystroke_r	r	n/a
108.5545	0.09	217109	keystroke_Key.space	Key.space	n/a
108.6755	0.135	217351	keystroke_c	c	n/a
108.7205	0.104	217441	keystroke_o	o	n/a
108.7805	0.089	217561	keystroke_m	m	n/a
108.9005	0.105	217801	keystroke_p	p	n/a
108.9755	0.119	217951	keystroke_a	a	n/a
109.1095	0.06	218219	keystroke_n	n	n/a
109.1395	0.09	218279	keystroke_i	i	n/a
109.1845	0.105	218369	keystroke_e	e	n/a
109.2595	0.12	218519	keystroke_s	s	n/a
109.6795	0.075	219359	keystroke_Key.enter	Key.enter	n/a
109.761	4.991	219522	prompt	n/a	officer transition conf we'll\n
110.2495	0.06	220499	keystroke_o	o	n/a
110.3245	0.06	220649	keystroke_f	f	n/a
110.4445	0.105	220889	keystroke_f	f	n/a
110.5345	0.075	221069	keystroke_i	i	n/a
110.6995	0.12	221399	keystroke_c	c	n/a
110.8345	0.12	221669	keystroke_e	e	n/a
110.9095	0.12	221819	keystroke_r	r	n/a
111.0445	0.06	222089	keystroke_Key.space	Key.space	n/a
111.1345	0.0905	222269	keystroke_t	t	n/a
111.1805	0.0595	222361	keystroke_r	r	n/a
111.3	0.135	222600	keystroke_a	a	n/a
111.39	0.075	222780	keystroke_n	n	n/a
111.555	0.105	223110	keystroke_s	s	n/a
111.765	0.075	223530	keystroke_i	i	n/a
111.885	0.06	223770	keystroke_t	t	n/a
111.96	0.045	223920	keystroke_i	i	n/a
112.065	0.09	224130	keystroke_o	o	n/a
112.11	0.09	224220	keystroke_n	n	n/a
112.7545	0.075	225509	keystroke_Key.space	Key.space	n/a
112.8445	0.106	225689	keystroke_c	c	n/a
112.9195	0.09	225839	keystroke_o	o	n/a
112.9655	0.089	225931	keystroke_n	n	n/a
113.0705	0.104	226141	keystroke_f	f	n/a
113.2795	0.075	226559	keystroke_Key.space	Key.space	n/a
113.3695	0.091	226739	keystroke_w	w	n/a
113.4145	0.12	226829	keystroke_e	e	n/a
113.6845	0.09	227369	keystroke_'	'	n/a
114.0445	0.075	228089	keystroke_l	l	n/a
114.1645	0.075	228329	keystroke_l	l	n/a
114.6745	0.075	229349	keystroke_Key.enter	Key.enter	n/a
114.7565	6.22	229513	prompt	n/a	processing civilian deployment nevada\n
115.41	0.045	230820	keystroke_p	p	n/a
115.56	0.075	231120	keystroke_r	r	n/a
115.65	0.075	231300	keystroke_o	o	n/a
115.74	0.09	231480	keystroke_c	c	n/a
115.8	0.09	231600	keystroke_e	e	n/a
115.965	0.06	231930	keystroke_s	s	n/a
116.085	0.075	232170	keystroke_s	s	n/a
116.145	0.105	232290	keystroke_i	i	n/a
116.19	0.09	232380	keystroke_n	n	n/a
116.265	0.075	232530	keystroke_g	g	n/a
116.355	0.0745	232710	keystroke_Key.space	Key.space	n/a
116.5345	0.076	233069	keystroke_v	v	n/a
116.9695	0.075	233939	keystroke_Key.backspace	Key.backspace	n/a
117.0455	0.104	234091	keystroke_c	c	n/a
117.1505	0.074	234301	keystroke_i	i	n/a
117.3455	0.089	234691	keystroke_v	v	n/a
117.4645	0.06	234929	keystroke_i	i	n/a
117.9145	0.09	235829	keystroke_l	l	n/a
118.0645	0.075	236129	keystroke_i	i	n/a
118.1545	0.135	236309	keystroke_a	a	n/a
118.2595	0.06	236519	keystroke_n	n	n/a
118.3945	0.075	236789	keystroke_Key.space	Key.space	n/a
118.4705	0.074	236941	keystroke_d	d	n/a
118.6345	0.075	237269	keystroke_e	e	n/a
118.7695	0.105	237539	keystroke_p	p	n/a
118.8295	0.09	237659	keystroke_l	l	n/a
118.9645	0.0755	237929	keystroke_o	o	n/a
119.07	0.105	238140	keystroke_y	y	n/a
119.16	0.075	238320	keystroke_m	m	n/a
119.25	0.0895	238500	keystroke_e	e	n/a
119.31	0.0745	238620	keystroke_n	n	n/a
119.3995	0.075	238799	keystroke_t	t	n/a
119.4895	0.075	238979	keystroke_Key.space	Key.space	n/a
119.6695	0.075	239339	keystroke_n	n	n/a
119.7595	0.105	239519	keystroke_e	e	n/a
120.1045	0.105	240209	keystroke_v	v	n/a
120.2845	0.105	240569	keystroke_a	a	n/a
120.4045	0.12	240809	keystroke_d	d	n/a
120.4945	0.12	240989	keystroke_a	a	n/a
120.8995	0.075	241799	keystroke_Key.enter	Key.enter	n/a
120.98	5.157	241960	prompt	n/a	page baking runtime mortgage\n
121.4995	0.09	242999	keystroke_p	p	n/a
121.6345	0.03	243269	keystroke_a	a	n/a
121.7095	0.09	243419	keystroke_g	g	n/a
121.7695	0.09	243539	keystroke_e	e	n/a
121.8445	0.09	243689	keystroke_Key.space	Key.space	n/a
122.0545	0.075	244109	keystroke_b	b	n/a
122.1745	0.1205	244349	keystroke_a	a	n/a
122.2195	0.0905	244439	keystroke_k	k	n/a
122.355	0.105	244710	keystroke_i	i	n/a
122.385	0.105	244770	keystroke_n	n	n/a
122.475	0.075	244950	keystroke_g	g	n/a
122.625	0.09	245250	keystroke_Key.space	Key.space	n/a
122.775	0.105	245550	keystroke_r	r	n/a
123.15	0.09	246300	keystroke_u	u	n/a
123.195	0.09	246390	keystroke_n	n	n/a
123.27	0.12	246540	keystroke_t	t	n/a
123.375	0.1205	246750	keystroke_i	i	n/a
123.405	0.1055	246810	keystroke_m	m	n/a
123.4805	0.09	246961	keystroke_e	e	n/a
123.6155	0.09	247231	keystroke_Key.space	Key.space	n/a
123.7955	0.105	247591	keystroke_m	m	n/a
123.8555	0.105	247711	keystroke_o	o	n/a
123.9305	0.12	247861	keystroke_r	r	n/a
124.0205	0.09	248041	keystroke_t	t	n/a
124.1405	0.1195	248281	keystroke_a	a	n/a
124.261	0.104	248522	keystroke_g	g	n/a
124.35	0.09	248700	keystroke_e	e	n/a
124.65	0.075	249300	keystroke_Key.backspace	Key.backspace	n/a
124.785	0.0745	249570	keystroke_Key.backspace	Key.backspace	n/a
124.9195	0.075	249839	keystroke_Key.backspace	Key.backspace	n/a
124.9805	0.104	249961	keystroke_g	g	n/a
125.1595	0.091	250319	keystroke_g	g	n/a
125.4595	0.06	250919	keystroke_Key.backspace	Key.backspace	n/a
125.6255	0.105	251251	keystroke_a	a	n/a
125.6995	0.135	251399	keystroke_g	g	n/a
125.7895	0.106	251579	keystroke_e	e	n/a
126.0445	0.09	252089	keystroke_Key.enter	Key.enter	n/a
126.1395	8.022	252279	prompt	n/a	powerpoint fill prairie fair\n
126.69	0.09	253380	keystroke_p	p	n/a
126.885	0.075	253770	keystroke_o	o	n/a
126.99	0.075	253980	keystroke_w	w	n/a
127.125	0.105	254250	keystroke_e	e	n/a
127.17	0.135	254340	keystroke_r	r	n/a
127.29	0.09	254580	keystroke_p	p	n/a
127.44	0.0905	254880	keystroke_o	o	n/a
127.5755	0.119	255151	keystroke_i	i	n/a
127.6195	0.12	255239	keystroke_n	n	n/a
127.7095	0.075	255419	keystroke_t	t	n/a
127.7995	0.09	255599	keystroke_Key.space	Key.space	n/a
127.9045	0.135	255809	keystroke_f	f	n/a
127.9645	0.076	255929	keystroke_i	i	n/a
128.1155	0.059	256231	keystroke_l	l	n/a
128.2195	0.12	256439	keystroke_l	l	n/a
128.3845	0.075	256769	keystroke_Key.space	Key.space	n/a
128.595	0.09	257190	keystroke_p	p	n/a
129.435	0.12	258870	keystroke_r	r	n/a
129.6	0.18	259200	keystroke_a	a	n/a
129.87	0.075	259740	keystroke_i	i	n/a
130.4705	0.12	260941	keystroke_r	r	n/a
130.5755	0.045	261151	keystroke_e	e	n/a
131.3255	0.075	262651	keystroke_Key.backspace	Key.backspace	n/a
131.8055	0.105	263611	keystroke_i	i	n/a
131.9255	0.075	263851	keystroke_e	e	n/a
132.0305	0.105	264061	keystroke_Key.space	Key.space	n/a
132.1805	0.135	264361	keystroke_f	f	n/a
132.2705	0.135	264541	keystroke_a	a	n/a
132.3755	0.075	264751	keystroke_i	i	n/a
132.5105	0.09	265021	keystroke_r	r	n/a
134.085	0.075	268170	keystroke_Key.enter	Key.enter	n/a
134.1655	6.611	268331	prompt	n/a	appliance fire calcium answers\n
134.835	0.105	269670	keystroke_a	a	n/a
134.91	0.06	269820	keystroke_p	p	n/a
135.06	0.06	270120	keystroke_p	p	n/a
135.24	0.09	270480	keystroke_l	l	n/a
135.39	0.09	270780	keystroke_i	i	n/a
135.495	0.09	270990	keystroke_a	a	n/a
135.57	0.075	271140	keystroke_n	n	n/a
135.66	0.12	271320	keystroke_c	c	n/a
135.72	0.12	271440	keystroke_e	e	n/a
135.915	0.105	271830	keystroke_Key.space	Key.space	n/a
136.23	0.12	272460	keystroke_f	f	n/a
136.35	0.06	272700	keystroke_i	i	n/a
136.425	0.105	272850	keystroke_r	r	n/a
136.485	0.105	272970	keystroke_e	e	n/a
136.695	0.105	273390	keystroke_Key.space	Key.space	n/a
136.98	0.045	273960	keystroke_v	v	n/a
137.25	0.09	274500	keystroke_Key.backspace	Key.backspace	n/a
137.325	0.12	274650	keystroke_c	c	n/a
137.37	0.135	274740	keystroke_a	a	n/a
137.46	0.075	274920	keystroke_l	l	n/a
137.7	0.12	275400	keystroke_c	c	n/a
137.91	0.09	275820	keystroke_i	i	n/a
138.075	0.06	276150	keystroke_u	u	n/a
138.195	0.09	276390	keystroke_m	m	n/a
138.36	0.075	276720	keystroke_Key.space	Key.space	n/a
138.5105	0.075	277021	keystroke_n	n	n/a
138.5705	0.105	277141	keystroke_a	a	n/a
138.99	0.075	277980	keystroke_Key.backspace	Key.backspace	n/a
139.11	0.09	278220	keystroke_Key.backspace	Key.backspace	n/a
139.215	0.12	278430	keystroke_a	a	n/a
139.32	0.06	278640	keystroke_n	n	n/a
139.41	0.075	278820	keystroke_s	s	n/a
139.545	0.09	279090	keystroke_w	w	n/a
139.71	0.135	279420	keystroke_e	e	n/a
139.77	0.165	279540	keystroke_r	r	n/a
140.04	0.105	280080	keystroke_d	d	n/a
140.4605	0.075	280921	keystroke_Key.backspace	Key.backspace	n/a
140.5205	0.09	281041	keystroke_s	s	n/a
140.7005	0.075	281401	keystroke_Key.enter	Key.enter	n/a
140.78	4.4065	281560	prompt	n/a	vegetable prime planets up\n
141.3905	0.09	282781	keystroke_v	v	n/a
141.5105	0.12	283021	keystroke_e	e	n/a
141.6455	0.12	283291	keystroke_g	g	n/a
141.7205	0.0745	283441	keystroke_e	e	n/a
142.005	0.1195	284010	keystroke_t	t	n/a
142.1095	0.09	284219	keystroke_a	a	n/a
142.2445	0.106	284489	keystroke_b	b	n/a
142.3355	0.09	284671	keystroke_l	l	n/a
142.4405	0.074	284881	keystroke_e	e	n/a
142.5445	0.09	285089	keystroke_Key.space	Key.space	n/a
142.7095	0.09	285419	keystroke_p	p	n/a
142.8145	0.105	285629	keystroke_r	r	n/a
142.8895	0.075	285779	keystroke_i	i	n/a
142.9045	0.12	285809	keystroke_m	m	n/a
143.0845	0.075	286169	keystroke_e	e	n/a
143.3395	0.06	286679	keystroke_Key.space	Key.space	n/a
143.5495	0.105	287099	keystroke_p	p	n/a
143.5945	0.09	287189	keystroke_l	l	n/a
143.6995	0.12	287399	keystroke_a	a	n/a
143.8345	0.075	287669	keystroke_n	n	n/a
143.9545	0.09	287909	keystroke_e	e	n/a
143.9995	0.12	287999	keystroke_t	t	n/a
144.1345	0.12	288269	keystroke_s	s	n/a
144.2695	0.09	288539	keystroke_Key.space	Key.space	n/a
144.5245	0.03	289049	keystroke_u	u	n/a
144.736	0.0735	289472	keystroke_p	p	n/a
145.1095	0.076	290219	keystroke_Key.enter	Key.enter	n/a
145.191	13.3755	290382	prompt	n/a	crash nails ryan negotiation\n
145.7555	0.105	291511	keystroke_c	c	n/a
145.9655	0.09	291931	keystroke_r	r	n/a
146.0855	0.15	292171	keystroke_a	a	n/a
146.1605	0.15	292321	keystroke_s	s	n/a
146.2955	0.06	292591	keystroke_h	h	n/a
146.4905	0.075	292981	keystroke_Key.space	Key.space	n/a
146.6555	0.075	293311	keystroke_n	n	n/a
146.7455	0.12	293491	keystroke_a	a	n/a
146.8205	0.075	293641	keystroke_i	i	n/a
146.9705	0.09	293941	keystroke_l	l	n/a
147.0455	0.105	294091	keystroke_s	s	n/a
147.2255	0.09	294451	keystroke_Key.space	Key.space	n/a
147.3605	0.1195	294721	keystroke_r	r	n/a
147.555	0.105	295110	keystroke_y	y	n/a
147.765	0.015	295530	keystroke_a	a	n/a
148.05	0.06	296100	keystroke_Key.backspace	Key.backspace	n/a
148.095	0.105	296190	keystroke_v	v	n/a
148.185	0.0905	296370	keystroke_a	a	n/a
148.5605	0.06	297121	keystroke_Key.backspace	Key.backspace	n/a
148.6805	0.075	297361	keystroke_Key.backspace	Key.backspace	n/a
148.7405	0.12	297481	keystroke_a	a	n/a
148.8605	0.06	297721	keystroke_n	n	n/a
148.9955	0.09	297991	keystroke_Key.space	Key.space	n/a
149.2505	0.1195	298501	keystroke_n	n	n/a
149.43	0.105	298860	keystroke_e	e	n/a
149.775	0.09	299550	keystroke_g	g	n/a
149.866	0.074	299732	keystroke_o	o	n/a
150.03	0.09	300060	keystroke_t	t	n/a
150.27	0.12	300540	keystroke_a	a	n/a
150.375	0.12	300750	keystroke_t	t	n/a
150.465	0.09	300930	keystroke_i	i	n/a
150.615	0.1055	301230	keystroke_o	o	n/a
150.675	0.0755	301350	keystroke_n	n	n/a
153.377	0.001	306754	keystroke_Key.backspace	Key.backspace	n/a
153.4505	0.06	306901	keystroke_Key.backspace	Key.backspace	n/a
155.115	0.045	310230	keystroke_Key.backspace	Key.backspace	n/a
155.235	0.06	310470	keystroke_Key.backspace	Key.backspace	n/a
155.37	0.06	310740	keystroke_Key.backspace	Key.backspace	n/a
155.985	0.09	311970	keystroke_u	u	n/a
156.09	0.105	312180	keystroke_a	a	n/a
156.225	0.105	312450	keystroke_t	t	n/a
156.54	0.045	313080	keystroke_Key.backspace	Key.backspace	n/a
156.66	0.075	313320	keystroke_Key.backspace	Key.backspace	n/a
156.78	0.09	313560	keystroke_Key.backspace	Key.backspace	n/a
156.96	0.0895	313920	keystroke_i	i	n/a
157.0345	0.105	314069	keystroke_a	a	n/a
157.1545	0.121	314309	keystroke_t	t	n/a
157.5455	0.045	315091	keystroke_i	i	n/a
157.6355	0.105	315271	keystroke_o	o	n/a
157.6955	0.075	315391	keystroke_n	n	n/a
158.5055	0.06	317011	keystroke_Key.enter	Key.enter	n/a
158.57	8.397	317140	prompt	n/a	vancouver exposure storm magazines\n
159.135	0.135	318270	keystroke_v	v	n/a
159.255	0.09	318510	keystroke_e	e	n/a
159.555	0.045	319110	keystroke_Key.backspace	Key.backspace	n/a
159.63	0.135	319260	keystroke_a	a	n/a
159.75	0.06	319500	keystroke_n	n	n/a
159.885	0.105	319770	keystroke_c	c	n/a
160.05	0.09	320100	keystroke_o	o	n/a
160.215	0.075	320430	keystroke_u	u	n/a
160.44	0.12	320880	keystroke_e	e	n/a
160.515	0.165	321030	keystroke_r	r	n/a
161.13	0.06	322260	keystroke_Key.backspace	Key.backspace	n/a
161.25	0.09	322500	keystroke_Key.backspace	Key.backspace	n/a
161.325	0.09	322650	keystroke_v	v	n/a
161.37	0.105	322740	keystroke_e	e	n/a
161.416	0.119	322832	keystroke_r	r	n/a
161.805	0.075	323610	keystroke_Key.space	Key.space	n/a
162.105	0.06	324210	keystroke_e	e	n/a
162.285	0.09	324570	keystroke_x	x	n/a
162.585	0.06	325170	keystroke_Key.backspace	Key.backspace	n/a
162.9295	0.121	325859	keystroke_x	x	n/a
163.0655	0.075	326131	keystroke_p	p	n/a
163.2005	0.09	326401	keystroke_o	o	n/a
163.2905	0.12	326581	keystroke_s	s	n/a
163.4255	0.06	326851	keystroke_u	u	n/a
163.5005	0.09	327001	keystroke_r	r	n/a
163.5455	0.105	327091	keystroke_e	e	n/a
163.7105	0.09	327421	keystroke_Key.space	Key.space	n/a
163.9055	0.105	327811	keystroke_s	s	n/a
164.0105	0.09	328021	keystroke_t	t	n/a
164.0855	0.075	328171	keystroke_o	o	n/a
164.1755	0.0745	328351	keystroke_r	r	n/a
164.4305	0.075	328861	keystroke_m	m	n/a
164.5955	0.075	329191	keystroke_Key.space	Key.space	n/a
164.8055	0.075	329611	keystroke_m	m	n/a
164.8955	0.105	329791	keystroke_a	a	n/a
165.1205	0.09	330241	keystroke_g	g	n/a
165.2255	0.105	330451	keystroke_a	a	n/a
165.3455	0.105	330691	keystroke_n	n	n/a
165.705	0.075	331410	keystroke_Key.backspace	Key.backspace	n/a
165.81	0.1345	331620	keystroke_z	z	n/a
165.915	0.1045	331830	keystroke_i	i	n/a
165.9595	0.075	331919	keystroke_n	n	n/a
166.0645	0.075	332129	keystroke_e	e	n/a
166.1695	0.09	332339	keystroke_s	s	n/a
166.8745	0.09	333749	keystroke_Key.enter	Key.enter	n/a
166.9715	7.195	333943	prompt	n/a	necessary pieces showing released\n
167.55	0.075	335100	keystroke_n	n	n/a
167.64	0.06	335280	keystroke_e	e	n/a
168.1055	0.03	336211	keystroke_c	c	n/a
168.2705	0.06	336541	keystroke_e	e	n/a
168.7655	0.135	337531	keystroke_s	s	n/a
169.1555	0.075	338311	keystroke_s	s	n/a
169.425	0.09	338850	keystroke_a	a	n/a
169.62	0.105	339240	keystroke_r	r	n/a
169.695	0.1055	339390	keystroke_y	y	n/a
169.8455	0.075	339691	keystroke_Key.space	Key.space	n/a
169.9955	0.105	339991	keystroke_p	p	n/a
170.1605	0.0895	340321	keystroke_i	i	n/a
170.25	0.105	340500	keystroke_e	e	n/a
170.43	0.0905	340860	keystroke_c	c	n/a
170.4905	0.105	340981	keystroke_e	e	n/a
170.655	0.0905	341310	keystroke_s	s	n/a
170.8055	0.0745	341611	keystroke_Key.space	Key.space	n/a
171.09	0.1055	342180	keystroke_s	s	n/a
171.2255	0.075	342451	keystroke_h	h	n/a
171.3155	0.06	342631	keystroke_o	o	n/a
171.3905	0.09	342781	keystroke_w	w	n/a
171.4655	0.09	342931	keystroke_i	i	n/a
171.4955	0.105	342991	keystroke_n	n	n/a
171.5405	0.105	343081	keystroke_g	g	n/a
171.7055	0.09	343411	keystroke_Key.space	Key.space	n/a
172.035	0.12	344070	keystroke_r	r	n/a
172.095	0.105	344190	keystroke_e	e	n/a
172.245	0.03	344490	keystroke_a	a	n/a
172.7395	0.076	345479	keystroke_Key.backspace	Key.backspace	n/a
172.9205	0.06	345841	keystroke_l	l	n/a
172.9805	0.105	345961	keystroke_e	e	n/a
173.0705	0.18	346141	keystroke_a	a	n/a
173.1605	0.225	346321	keystroke_s	s	n/a
173.3555	0.105	346711	keystroke_e	e	n/a
173.5505	0.074	347101	keystroke_d	d	n/a
174.075	0.09	348150	keystroke_Key.enter	Key.enter	n/a
174.17	4.3165	348340	prompt	n/a	coordinate snap smell means\n
174.765	0.12	349530	keystroke_c	c	n/a
174.87	0.06	349740	keystroke_o	o	n/a
174.99	0.075	349980	keystroke_o	o	n/a
175.05	0.06	350100	keystroke_r	r	n/a
175.23	0.045	350460	keystroke_d	d	n/a
175.245	0.06	350490	keystroke_i	i	n/a
175.26	0.09	350520	keystroke_n	n	n/a
175.38	0.09	350760	keystroke_a	a	n/a
175.8595	0.045	351719	keystroke_t	t	n/a
175.8745	0.09	351749	keystroke_e	e	n/a
176.0095	0.075	352019	keystroke_Key.space	Key.space	n/a
176.1895	0.1055	352379	keystroke_s	s	n/a
176.31	0.06	352620	keystroke_n	n	n/a
176.385	0.12	352770	keystroke_a	a	n/a
176.475	0.09	352950	keystroke_p	p	n/a
176.6705	0.0745	353341	keystroke_Key.space	Key.space	n/a
176.865	0.105	353730	keystroke_s	s	n/a
176.985	0.06	353970	keystroke_m	m	n/a
177.075	0.075	354150	keystroke_e	e	n/a
177.165	0.0605	354330	keystroke_l	l	n/a
177.2705	0.0895	354541	keystroke_l	l	n/a
177.4205	0.075	354841	keystroke_Key.space	Key.space	n/a
177.5705	0.075	355141	keystroke_m	m	n/a
177.6305	0.075	355261	keystroke_e	e	n/a
177.6605	0.1495	355321	keystroke_a	a	n/a
177.765	0.075	355530	keystroke_n	n	n/a
177.885	0.09	355770	keystroke_s	s	n/a
178.395	0.09	356790	keystroke_Key.enter	Key.enter	n/a
178.489	5.7125	356978	prompt	n/a	various awarded flashing quiz\n
179.085	0.12	358170	keystroke_v	v	n/a
179.25	0.1205	358500	keystroke_a	a	n/a
179.3855	0.12	358771	keystroke_r	r	n/a
179.4755	0.075	358951	keystroke_i	i	n/a
179.6105	0.075	359221	keystroke_o	o	n/a
179.745	0.075	359490	keystroke_u	u	n/a
179.805	0.075	359610	keystroke_s	s	n/a
179.895	0.075	359790	keystroke_Key.space	Key.space	n/a
179.985	0.12	359970	keystroke_a	a	n/a
180.135	0.075	360270	keystroke_w	w	n/a
180.195	0.1655	360390	keystroke_a	a	n/a
180.6905	0.0445	361381	keystroke_t	t	n/a
181.125	0.09	362250	keystroke_Key.backspace	Key.backspace	n/a
181.2	0.09	362400	keystroke_r	r	n/a
181.41	0.09	362820	keystroke_d	d	n/a
181.845	0.06	363690	keystroke_e	e	n/a
182.01	0.075	364020	keystroke_d	d	n/a
182.0995	0.0755	364199	keystroke_Key.space	Key.space	n/a
182.19	0.06	364380	keystroke_f	f	n/a
182.265	0.0895	364530	keystroke_l	l	n/a
182.2945	0.15	364589	keystroke_a	a	n/a
182.3695	0.15	364739	keystroke_s	s	n/a
182.4745	0.06	364949	keystroke_h	h	n/a
182.5495	0.12	365099	keystroke_i	i	n/a
182.6245	0.09	365249	keystroke_n	n	n/a
182.6705	0.089	365341	keystroke_g	g	n/a
182.7745	0.105	365549	keystroke_Key.space	Key.space	n/a
183.06	0.075	366120	keystroke_q	q	n/a
183.12	0.0605	366240	keystroke_u	u	n/a
183.24	0.075	366480	keystroke_i	i	n/a
183.7355	0.119	367471	keystroke_z	z	n/a
184.1255	0.074	368251	keystroke_Key.enter	Key.enter	n/a
184.207	8.6945	368414	prompt	n/a	illness coordination correlation accredited\n
184.8145	0.061	369629	keystroke_l	l	n/a
185.115	0.045	370230	keystroke_Key.backspace	Key.backspace	n/a
185.325	0.06	370650	keystroke_i	i	n/a
185.505	0.0745	371010	keystroke_l	l	n/a
185.6245	0.075	371249	keystroke_l	l	n/a
185.7755	0.09	371551	keystroke_n	n	n/a
185.8955	0.075	371791	keystroke_e	e	n/a
186.0305	0.09	372061	keystroke_s	s	n/a
186.1805	0.09	372361	keystroke_s	s	n/a
186.3005	0.105	372601	keystroke_Key.space	Key.space	n/a
186.4205	0.105	372841	keystroke_c	c	n/a
186.5405	0.075	373081	keystroke_o	o	n/a
186.6605	0.045	373321	keystroke_r	r	n/a
186.9905	0.06	373981	keystroke_Key.backspace	Key.backspace	n/a
187.14	0.075	374280	keystroke_o	o	n/a
187.23	0.075	374460	keystroke_r	r	n/a
187.3805	0.09	374761	keystroke_d	d	n/a
187.4555	0.075	374911	keystroke_i	i	n/a
187.7255	0.075	375451	keystroke_n	n	n/a
187.8455	0.105	375691	keystroke_a	a	n/a
187.9355	0.105	375871	keystroke_t	t	n/a
188.0255	0.06	376051	keystroke_i	i	n/a
188.1455	0.09	376291	keystroke_o	o	n/a
188.1905	0.06	376381	keystroke_n	n	n/a
188.3255	0.09	376651	keystroke_Key.space	Key.space	n/a
188.4305	0.135	376861	keystroke_c	c	n/a
188.5505	0.06	377101	keystroke_o	o	n/a
189.045	0.09	378090	keystroke_r	r	n/a
189.18	0.09	378360	keystroke_r	r	n/a
189.3	0.09	378600	keystroke_e	e	n/a
189.435	0.075	378870	keystroke_l	l	n/a
189.885	0.105	379770	keystroke_a	a	n/a
189.991	0.119	379982	keystroke_t	t	n/a
190.08	0.075	380160	keystroke_i	i	n/a
190.2	0.075	380400	keystroke_o	o	n/a
190.2305	0.0745	380461	keystroke_n	n	n/a
190.4255	0.075	380851	keystroke_Key.space	Key.space	n/a
190.7855	0.12	381571	keystroke_a	a	n/a
190.9655	0.075	381931	keystroke_c	c	n/a
191.1005	0.12	382201	keystroke_c	c	n/a
191.3405	0.105	382681	keystroke_r	r	n/a
191.3855	0.105	382771	keystroke_e	e	n/a
191.5655	0.09	383131	keystroke_d	d	n/a
191.7455	0.06	383491	keystroke_i	i	n/a
192.015	0.105	384030	keystroke_t	t	n/a
192.3155	0.075	384631	keystroke_e	e	n/a
192.5105	0.09	385021	keystroke_d	d	n/a
192.8395	0.06	385679	keystroke_Key.enter	Key.enter	n/a
192.905	6.0565	385810	prompt	n/a	hans sony willow returned\n
193.59	0.075	387180	keystroke_h	h	n/a
193.695	0.0895	387390	keystroke_a	a	n/a
193.7695	0.105	387539	keystroke_n	n	n/a
193.8595	0.09	387719	keystroke_d	d	n/a
194.2195	0.075	388439	keystroke_Key.backspace	Key.backspace	n/a
194.2795	0.091	388559	keystroke_s	s	n/a
194.4295	0.06	388859	keystroke_Key.space	Key.space	n/a
194.4745	0.1055	388949	keystroke_s	s	n/a
194.535	0.12	389070	keystroke_o	o	n/a
194.61	0.09	389220	keystroke_n	n	n/a
194.73	0.09	389460	keystroke_y	y	n/a
194.88	0.0895	389760	keystroke_Key.space	Key.space	n/a
195.21	0.105	390420	keystroke_w	w	n/a
195.285	0.06	390570	keystroke_i	i	n/a
195.435	0.06	390870	keystroke_l	l	n/a
195.555	0.06	391110	keystroke_l	l	n/a
195.675	0.0745	391350	keystroke_o	o	n/a
195.7345	0.105	391469	keystroke_w	w	n/a
195.9895	0.0755	391979	keystroke_Key.space	Key.space	n/a
196.2	0.12	392400	keystroke_r	r	n/a
196.245	0.09	392490	keystroke_e	e	n/a
196.395	0.09	392790	keystroke_t	t	n/a
196.455	0.075	392910	keystroke_u	u	n/a
196.56	0.09	393120	keystroke_r	r	n/a
196.635	0.075	393270	keystroke_n	n	n/a
196.74	0.09	393480	keystroke_e	e	n/a
196.89	0.105	393780	keystroke_d	d	n/a
198.8855	0.075	397771	keystroke_Key.enter	Key.enter	n/a
198.966	6.461	397932	prompt	n/a	wichita conceptual counties updates\n
199.7845	0.105	399569	keystroke_w	w	n/a
199.8745	0.06	399749	keystroke_i	i	n/a
200.0845	0.09	400169	keystroke_c	c	n/a
200.1895	0.12	400379	keystroke_h	h	n/a
200.2645	0.09	400529	keystroke_i	i	n/a
200.64	0.09	401280	keystroke_t	t	n/a
200.7	0.135	401400	keystroke_a	a	n/a
200.895	0.09	401790	keystroke_Key.space	Key.space	n/a
201.045	0.1045	402090	keystroke_c	c	n/a
201.105	0.0895	402210	keystroke_o	o	n/a
201.1645	0.09	402329	keystroke_n	n	n/a
201.2845	0.09	402569	keystroke_c	c	n/a
201.3295	0.1055	402659	keystroke_e	e	n/a
201.495	0.06	402990	keystroke_p	p	n/a
201.675	0.09	403350	keystroke_t	t	n/a
201.915	0.06	403830	keystroke_u	u	n/a
202.0195	0.105	404039	keystroke_a	a	n/a
202.1095	0.075	404219	keystroke_l	l	n/a
202.26	0.075	404520	keystroke_Key.space	Key.space	n/a
202.425	0.12	404850	keystroke_c	c	n/a
202.515	0.105	405030	keystroke_o	o	n/a
202.71	0.09	405420	keystroke_u	u	n/a
202.755	0.1055	405510	keystroke_n	n	n/a
202.845	0.09	405690	keystroke_t	t	n/a
202.92	0.06	405840	keystroke_i	i	n/a
203.01	0.0905	406020	keystroke_e	e	n/a
203.1755	0.1195	406351	keystroke_s	s	n/a
203.535	0.06	407070	keystroke_Key.space	Key.space	n/a
203.985	0.06	407970	keystroke_u	u	n/a
204.18	0.075	408360	keystroke_p	p	n/a
204.24	0.09	408480	keystroke_d	d	n/a
204.3	0.09	408600	keystroke_a	a	n/a
204.405	0.12	408810	keystroke_t	t	n/a
204.48	0.075	408960	keystroke_e	e	n/a
204.615	0.12	409230	keystroke_s	s	n/a
205.3505	0.075	410701	keystroke_Key.enter	Key.enter	n/a
205.43	8.502	410860	prompt	n/a	namibia therapy recreation pushed\n
206.0395	0.075	412079	keystroke_n	n	n/a
206.1595	0.1055	412319	keystroke_a	a	n/a
206.535	0.0595	413070	keystroke_m	m	n/a
207.3145	0.06	414629	keystroke_i	i	n/a
208.2	0.0895	416400	keystroke_b	b	n/a
208.3045	0.06	416609	keystroke_i	i	n/a
208.6645	0.135	417329	keystroke_a	a	n/a
208.8295	0.09	417659	keystroke_Key.space	Key.space	n/a
209.0245	0.075	418049	keystroke_t	t	n/a
209.0695	0.09	418139	keystroke_h	h	n/a
209.175	0.12	418350	keystroke_e	e	n/a
209.28	0.06	418560	keystroke_r	r	n/a
209.3995	0.09	418799	keystroke_q	q	n/a
209.5045	0.06	419009	keystroke_p	p	n/a
209.7905	0.075	419581	keystroke_Key.backspace	Key.backspace	n/a
209.9995	0.075	419999	keystroke_Key.backspace	Key.backspace	n/a
210.1505	0.1345	420301	keystroke_a	a	n/a
210.27	0.075	420540	keystroke_p	p	n/a
210.39	0.075	420780	keystroke_y	y	n/a
210.6755	0.075	421351	keystroke_Key.space	Key.space	n/a
210.9755	0.12	421951	keystroke_r	r	n/a
211.0205	0.104	422041	keystroke_e	e	n/a
211.2605	0.105	422521	keystroke_c	c	n/a
211.4705	0.105	422941	keystroke_r	r	n/a
211.6495	0.075	423299	keystroke_t	t	n/a
211.9345	0.075	423869	keystroke_Key.backspace	Key.backspace	n/a
212.0545	0.075	424109	keystroke_e	e	n/a
212.43	0.12	424860	keystroke_a	a	n/a
212.535	0.105	425070	keystroke_t	t	n/a
212.625	0.09	425250	keystroke_i	i	n/a
212.745	0.075	425490	keystroke_o	o	n/a
212.775	0.075	425550	keystroke_n	n	n/a
212.91	0.075	425820	keystroke_Key.space	Key.space	n/a
213.045	0.09	426090	keystroke_p	p	n/a
213.225	0.045	426450	keystroke_u	u	n/a
213.255	0.09	426510	keystroke_s	s	n/a
213.33	0.075	426660	keystroke_h	h	n/a
213.42	0.0595	426840	keystroke_e	e	n/a
213.5395	0.105	427079	keystroke_d	d	n/a
213.8555	0.074	427711	keystroke_Key.enter	Key.enter	n/a
213.936	5.8305	427872	prompt	n/a	poverty macro restore highlight\n
214.5	0.09	429000	keystroke_p	p	n/a
214.65	0.0895	429300	keystroke_o	o	n/a
214.965	0.105	429930	keystroke_e	e	n/a
215.22	0.06	430440	keystroke_Key.backspace	Key.backspace	n/a
215.385	0.075	430770	keystroke_v	v	n/a
215.415	0.135	430830	keystroke_e	e	n/a
215.475	0.135	430950	keystroke_r	r	n/a
215.625	0.09	431250	keystroke_y	y	n/a
216.1345	0.06	432269	keystroke_Key.backspace	Key.backspace	n/a
216.1655	0.09	432331	keystroke_t	t	n/a
216.315	0.09	432630	keystroke_y	y	n/a
216.54	0.09	433080	keystroke_Key.space	Key.space	n/a
216.75	0.075	433500	keystroke_m	m	n/a
216.84	0.12	433680	keystroke_a	a	n/a
217.095	0.075	434190	keystroke_c	c	n/a
217.245	0.09	434490	keystroke_r	r	n/a
217.365	0.075	434730	keystroke_o	o	n/a
217.53	0.09	435060	keystroke_Key.space	Key.space	n/a
217.8145	0.12	435629	keystroke_r	r	n/a
217.8605	0.089	435721	keystroke_e	e	n/a
218.0395	0.106	436079	keystroke_s	s	n/a
218.1145	0.105	436229	keystroke_t	t	n/a
218.2045	0.0755	436409	keystroke_o	o	n/a
218.295	0.12	436590	keystroke_r	r	n/a
218.355	0.105	436710	keystroke_e	e	n/a
218.445	0.09	436890	keystroke_Key.space	Key.space	n/a
218.58	0.075	437160	keystroke_h	h	n/a
218.685	0.075	437370	keystroke_i	i	n/a
218.745	0.105	437490	keystroke_g	g	n/a
218.805	0.105	437610	keystroke_h	h	n/a
218.895	0.09	437790	keystroke_l	l	n/a
219.06	0.0895	438120	keystroke_i	i	n/a
219.1345	0.105	438269	keystroke_g	g	n/a
219.1945	0.1205	438389	keystroke_h	h	n/a
219.3	0.075	438600	keystroke_t	t	n/a
219.69	0.075	439380	keystroke_Key.enter	Key.enter	n/a
219.769	6.8375	439538	prompt	n/a	mere hotmail incorporate recipient\n
220.3195	0.135	440639	keystroke_m	m	n/a
220.4395	0.06	440879	keystroke_e	e	n/a
220.4695	0.285	440939	keystroke_r	r	n/a
220.5895	0.12	441179	keystroke_e	e	n/a
220.7395	0.09	441479	keystroke_Key.space	Key.space	n/a
220.8745	0.12	441749	keystroke_h	h	n/a
221.0095	0.075	442019	keystroke_o	o	n/a
221.0995	0.09	442199	keystroke_t	t	n/a
221.2045	0.075	442409	keystroke_m	m	n/a
221.3095	0.135	442619	keystroke_a	a	n/a
221.3845	0.075	442769	keystroke_i	i	n/a
221.5195	0.1205	443039	keystroke_l	l	n/a
221.655	0.075	443310	keystroke_Key.space	Key.space	n/a
221.79	0.09	443580	keystroke_i	i	n/a
221.85	0.09	443700	keystroke_n	n	n/a
222.2695	0.105	444539	keystroke_c	c	n/a
222.3595	0.06	444719	keystroke_o	o	n/a
222.8995	0.075	445799	keystroke_r	r	n/a
223.0345	0.075	446069	keystroke_p	p	n/a
223.1845	0.045	446369	keystroke_o	o	n/a
223.2145	0.105	446429	keystroke_r	r	n/a
223.3045	0.12	446609	keystroke_a	a	n/a
223.4095	0.12	446819	keystroke_t	t	n/a
223.4845	0.105	446969	keystroke_e	e	n/a
223.6045	0.09	447209	keystroke_Key.space	Key.space	n/a
223.9495	0.135	447899	keystroke_r	r	n/a
224.0395	0.075	448079	keystroke_e	e	n/a
224.2495	0.06	448499	keystroke_c	c	n/a
224.7595	0.105	449519	keystroke_i	i	n/a
225.3745	0.045	450749	keystroke_p	p	n/a
225.7195	0.0905	451439	keystroke_i	i	n/a
225.825	0.09	451650	keystroke_e	e	n/a
225.9	0.075	451800	keystroke_n	n	n/a
226.035	0.0755	452070	keystroke_t	t	n/a
226.575	0.03	453150	keystroke_Key.enter	Key.enter	n/a
226.61	5.066	453220	prompt	n/a	incidents influenced division your\n
227.34	0.09	454680	keystroke_i	i	n/a
227.385	0.09	454770	keystroke_n	n	n/a
227.445	0.105	454890	keystroke_c	c	n/a
227.595	0.075	455190	keystroke_i	i	n/a
228.015	0.09	456030	keystroke_d	d	n/a
228.255	0.09	456510	keystroke_e	e	n/a
228.33	0.06	456660	keystroke_n	n	n/a
228.42	0.105	456840	keystroke_t	t	n/a
228.495	0.12	456990	keystroke_s	s	n/a
228.6	0.09	457200	keystroke_Key.space	Key.space	n/a
228.795	0.09	457590	keystroke_i	i	n/a
228.84	0.09	457680	keystroke_n	n	n/a
229.02	0.12	458040	keystroke_f	f	n/a
229.11	0.06	458220	keystroke_l	l	n/a
229.245	0.075	458490	keystroke_u	u	n/a
229.305	0.06	458610	keystroke_e	e	n/a
229.395	0.105	458790	keystroke_n	n	n/a
229.485	0.09	458970	keystroke_c	c	n/a
229.53	0.075	459060	keystroke_e	e	n/a
229.68	0.105	459360	keystroke_d	d	n/a
229.77	0.075	459540	keystroke_Key.space	Key.space	n/a
229.905	0.06	459810	keystroke_d	d	n/a
229.995	0.075	459990	keystroke_i	i	n/a
230.115	0.1205	460230	keystroke_v	v	n/a
230.3255	0.06	460651	keystroke_i	i	n/a
230.3705	0.105	460741	keystroke_s	s	n/a
230.4605	0.06	460921	keystroke_i	i	n/a
230.5655	0.105	461131	keystroke_o	o	n/a
230.6255	0.075	461251	keystroke_n	n	n/a
230.7605	0.09	461521	keystroke_Key.space	Key.space	n/a
230.9705	0.09	461941	keystroke_y	y	n/a
231.0455	0.06	462091	keystroke_o	o	n/a
231.1945	0.06	462389	keystroke_u	u	n/a
231.2405	0.105	462481	keystroke_r	r	n/a
231.2845	0.121	462569	keystroke_e	e	n/a
231.6155	0.059	463231	keystroke_Key.enter	Key.enter	n/a
231.679	6.0425	463358	prompt	n/a	westminster tear outline trackback\n
232.5305	0.135	465061	keystroke_w	w	n/a
232.6355	0.105	465271	keystroke_e	e	n/a
232.815	0.075	465630	keystroke_s	s	n/a
232.875	0.135	465750	keystroke_t	t	n/a
233.025	0.12	466050	keystroke_m	m	n/a
233.49	0.12	466980	keystroke_i	i	n/a
233.55	0.09	467100	keystroke_n	n	n/a
233.685	0.135	467370	keystroke_s	s	n/a
233.835	0.0895	467670	keystroke_t	t	n/a
233.9095	0.15	467819	keystroke_e	e	n/a
233.9545	0.165	467909	keystroke_r	r	n/a
234.3295	0.09	468659	keystroke_Key.space	Key.space	n/a
234.4045	0.135	468809	keystroke_t	t	n/a
234.6455	0.059	469291	keystroke_e	e	n/a
234.7495	0.135	469499	keystroke_a	a	n/a
235.1995	0.06	470399	keystroke_r	r	n/a
235.3045	0.09	470609	keystroke_Key.space	Key.space	n/a
235.5595	0.076	471119	keystroke_o	o	n/a
235.7095	0.0755	471419	keystroke_u	u	n/a
235.8	0.06	471600	keystroke_t	t	n/a
235.89	0.06	471780	keystroke_l	l	n/a
235.995	0.105	471990	keystroke_i	i	n/a
236.04	0.09	472080	keystroke_n	n	n/a
236.115	0.075	472230	keystroke_e	e	n/a
236.191	0.0885	472382	keystroke_Key.space	Key.space	n/a
236.3995	0.105	472799	keystroke_t	t	n/a
236.46	0.0745	472920	keystroke_r	r	n/a
236.58	0.135	473160	keystroke_a	a	n/a
236.67	0.135	473340	keystroke_c	c	n/a
236.79	0.06	473580	keystroke_k	k	n/a
237	0.075	474000	keystroke_b	b	n/a
237.165	0.12	474330	keystroke_a	a	n/a
237.21	0.15	474420	keystroke_c	c	n/a
237.33	0.06	474660	keystroke_k	k	n/a
237.66	0.06	475320	keystroke_Key.enter	Key.enter	n/a
237.7245	6.342	475449	prompt	n/a	surrounded outstanding ranging legs\n
238.2605	0.105	476521	keystroke_s	s	n/a
238.3955	0.075	476791	keystroke_u	u	n/a
238.5605	0.06	477121	keystroke_r	r	n/a
238.6955	0.09	477391	keystroke_r	r	n/a
239.0855	0.105	478171	keystroke_o	o	n/a
239.2505	0.0895	478501	keystroke_u	u	n/a
239.2955	0.0895	478591	keystroke_n	n	n/a
239.355	0.075	478710	keystroke_d	d	n/a
239.505	0.075	479010	keystroke_e	e	n/a
239.67	0.0755	479340	keystroke_d	d	n/a
239.7595	0.09	479519	keystroke_Key.space	Key.space	n/a
239.9695	0.09	479939	keystroke_o	o	n/a
240.1345	0.06	480269	keystroke_u	u	n/a
240.1655	0.0895	480331	keystroke_s	s	n/a
240.225	0.135	480450	keystroke_t	t	n/a
240.33	0.12	480660	keystroke_a	a	n/a
240.435	0.075	480870	keystroke_n	n	n/a
240.54	0.09	481080	keystroke_d	d	n/a
240.585	0.1045	481170	keystroke_i	i	n/a
240.645	0.0895	481290	keystroke_n	n	n/a
240.7205	0.074	481441	keystroke_g	g	n/a
241.1395	0.075	482279	keystroke_Key.space	Key.space	n/a
241.2305	0.134	482461	keystroke_r	r	n/a
241.3495	0.105	482699	keystroke_a	a	n/a
241.5155	0.074	483031	keystroke_n	n	n/a
241.6055	0.074	483211	keystroke_g	g	n/a
241.6645	0.1055	483329	keystroke_i	i	n/a
241.7105	0.1045	483421	keystroke_n	n	n/a
241.785	0.075	483570	keystroke_g	g	n/a
241.92	0.105	483840	keystroke_Key.space	Key.space	n/a
242.16	0.06	484320	keystroke_l	l	n/a
242.235	0.105	484470	keystroke_e	e	n/a
242.31	0.105	484620	keystroke_g	g	n/a
242.445	0.105	484890	keystroke_s	s	n/a
243.99	0.075	487980	keystroke_Key.enter	Key.enter	n/a
244.069	4.3025	488138	prompt	n/a	prayer science parts loose\n
244.7855	0.045	489571	keystroke_p	p	n/a
245.0405	0.165	490081	keystroke_r	r	n/a
245.1305	0.135	490261	keystroke_a	a	n/a
245.3105	0.105	490621	keystroke_y	y	n/a
245.4005	0.135	490801	keystroke_e	e	n/a
245.4605	0.18	490921	keystroke_r	r	n/a
245.6555	0.075	491311	keystroke_Key.space	Key.space	n/a
245.805	0.15	491610	keystroke_s	s	n/a
245.91	0.135	491820	keystroke_c	c	n/a
246.03	0.105	492060	keystroke_i	i	n/a
246.09	0.105	492180	keystroke_e	e	n/a
246.18	0.09	492360	keystroke_n	n	n/a
246.285	0.105	492570	keystroke_c	c	n/a
246.345	0.105	492690	keystroke_e	e	n/a
246.51	0.075	493020	keystroke_Key.space	Key.space	n/a
246.705	0.075	493410	keystroke_p	p	n/a
246.84	0.135	493680	keystroke_a	a	n/a
246.99	0.09	493980	keystroke_r	r	n/a
247.05	0.09	494100	keystroke_t	t	n/a
247.155	0.12	494310	keystroke_s	s	n/a
247.26	0.075	494520	keystroke_Key.space	Key.space	n/a
247.425	0.075	494850	keystroke_l	l	n/a
247.56	0.06	495120	keystroke_o	o	n/a
247.665	0.075	495330	keystroke_o	o	n/a
248.0245	0.135	496049	keystroke_s	s	n/a
248.1145	0.106	496229	keystroke_e	e	n/a
248.2955	0.075	496591	keystroke_Key.enter	Key.enter	n/a
248.3755	10.331	496751	prompt	n/a	hierarchy chair survey neck\n
248.97	0.09	497940	keystroke_h	h	n/a
249.06	0.075	498120	keystroke_i	i	n/a
249.18	0.135	498360	keystroke_r	r	n/a
249.24	0.12	498480	keystroke_e	e	n/a
249.615	0.06	499230	keystroke_Key.backspace	Key.backspace	n/a
249.72	0.075	499440	keystroke_Key.backspace	Key.backspace	n/a
249.765	0.12	499530	keystroke_e	e	n/a
249.81	0.15	499620	keystroke_r	r	n/a
250.095	0.135	500190	keystroke_a	a	n/a
250.215	0.075	500430	keystroke_r	r	n/a
250.41	0.09	500820	keystroke_c	c	n/a
250.485	0.075	500970	keystroke_h	h	n/a
250.665	0.06	501330	keystroke_y	y	n/a
250.755	0.075	501510	keystroke_Key.space	Key.space	n/a
250.89	0.075	501780	keystroke_c	c	n/a
250.966	0.059	501932	keystroke_h	h	n/a
251.07	0.105	502140	keystroke_a	a	n/a
251.13	0.075	502260	keystroke_i	i	n/a
251.25	0.09	502500	keystroke_r	r	n/a
251.355	0.09	502710	keystroke_Key.space	Key.space	n/a
251.505	0.0905	503010	keystroke_s	s	n/a
251.6105	0.06	503221	keystroke_u	u	n/a
251.7155	0.12	503431	keystroke_v	v	n/a
251.8655	0.09	503731	keystroke_e	e	n/a
251.9255	0.105	503851	keystroke_r	r	n/a
252.3905	0.06	504781	keystroke_Key.backspace	Key.backspace	n/a
252.4505	0.075	504901	keystroke_y	y	n/a
252.6305	0.06	505261	keystroke_Key.space	Key.space	n/a
252.7655	0.09	505531	keystroke_n	n	n/a
252.8705	0.089	505741	keystroke_e	e	n/a
253.0205	0.12	506041	keystroke_c	c	n/a
253.1255	0.06	506251	keystroke_k	k	n/a
254.5945	0.061	509189	keystroke_/	/	n/a
255.435	0.06	510870	keystroke_Key.backspace	Key.backspace	n/a
255.765	0.06	511530	keystroke_Key.left	Key.left	n/a
255.915	0.045	511830	keystroke_Key.left	Key.left	n/a
256.02	0.06	512040	keystroke_Key.left	Key.left	n/a
256.155	0.0595	512310	keystroke_Key.left	Key.left	n/a
256.275	0.06	512550	keystroke_Key.left	Key.left	n/a
256.41	0.06	512820	keystroke_Key.left	Key.left	n/a
256.545	0.06	513090	keystroke_Key.left	Key.left	n/a
256.6945	0.06	513389	keystroke_Key.left	Key.left	n/a
257.0395	0.06	514079	keystroke_r	r	n/a
257.4605	0.045	514921	keystroke_\	\	n/a
258.165	0.105	516330	keystroke_Key.backspace	Key.backspace	n/a
258.645	0.06	517290	keystroke_Key.enter	Key.enter	n/a
258.7105	5.861	517421	prompt	n/a	devoted fuzzy prints brands\n
259.38	0.075	518760	keystroke_d	d	n/a
259.53	0.075	519060	keystroke_e	e	n/a
259.665	0.12	519330	keystroke_v	v	n/a
259.845	0.09	519690	keystroke_i	i	n/a
259.995	0.105	519990	keystroke_t	t	n/a
260.055	0.105	520110	keystroke_e	e	n/a
260.265	0.06	520530	keystroke_d	d	n/a
260.4	0.075	520800	keystroke_Key.backspace	Key.backspace	n/a
260.55	0.06	521100	keystroke_Key.backspace	Key.backspace	n/a
260.6705	0.075	521341	keystroke_Key.backspace	Key.backspace	n/a
260.7905	0.06	521581	keystroke_Key.backspace	Key.backspace	n/a
261.0305	0.075	522061	keystroke_o	o	n/a
261.0755	0.1195	522151	keystroke_t	t	n/a
261.15	0.075	522300	keystroke_e	e	n/a
261.285	0.12	522570	keystroke_d	d	n/a
261.39	0.09	522780	keystroke_Key.space	Key.space	n/a
261.765	0.12	523530	keystroke_f	f	n/a
261.9	0.075	523800	keystroke_u	u	n/a
262.005	0.09	524010	keystroke_z	z	n/a
262.14	0.105	524280	keystroke_z	z	n/a
262.395	0.075	524790	keystroke_y	y	n/a
262.485	0.0745	524970	keystroke_Key.space	Key.space	n/a
262.6945	0.106	525389	keystroke_p	p	n/a
262.8005	0.0895	525601	keystroke_r	r	n/a
262.875	0.12	525750	keystroke_i	i	n/a
262.92	0.105	525840	keystroke_n	n	n/a
262.98	0.075	525960	keystroke_t	t	n/a
263.205	0.075	526410	keystroke_s	s	n/a
263.31	0.09	526620	keystroke_Key.space	Key.space	n/a
263.415	0.075	526830	keystroke_b	b	n/a
263.58	0.03	527160	keystroke_r	r	n/a
263.655	0.135	527310	keystroke_a	a	n/a
263.745	0.06	527490	keystroke_n	n	n/a
263.82	0.105	527640	keystroke_d	d	n/a
264.015	0.1055	528030	keystroke_s	s	n/a
264.51	0.06	529020	keystroke_Key.enter	Key.enter	n/a
264.5765	6.115	529153	prompt	n/a	relative burlington claim holy\n
265.14	0.1205	530280	keystroke_r	r	n/a
265.185	0.1205	530370	keystroke_e	e	n/a
265.3205	0.105	530641	keystroke_l	l	n/a
265.4105	0.105	530821	keystroke_a	a	n/a
265.5005	0.09	531001	keystroke_t	t	n/a
265.6055	0.075	531211	keystroke_i	i	n/a
265.74	0.09	531480	keystroke_v	v	n/a
265.785	0.105	531570	keystroke_e	e	n/a
265.935	0.0905	531870	keystroke_Key.space	Key.space	n/a
266.1005	0.105	532201	keystroke_b	b	n/a
266.25	0.06	532500	keystroke_u	u	n/a
266.37	0.06	532740	keystroke_r	r	n/a
266.49	0.09	532980	keystroke_l	l	n/a
266.625	0.09	533250	keystroke_i	i	n/a
266.655	0.12	533310	keystroke_n	n	n/a
266.76	0.06	533520	keystroke_g	g	n/a
266.97	0.03	533940	keystroke_t	t	n/a
267.3305	0.1045	534661	keystroke_o	o	n/a
267.375	0.0905	534750	keystroke_n	n	n/a
267.5555	0.09	535111	keystroke_Key.space	Key.space	n/a
267.7055	0.1195	535411	keystroke_c	c	n/a
267.81	0.075	535620	keystroke_l	l	n/a
267.9	0.12	535800	keystroke_a	a	n/a
268.005	0.09	536010	keystroke_i	i	n/a
268.05	0.09	536100	keystroke_m	m	n/a
268.215	0.09	536430	keystroke_Key.space	Key.space	n/a
268.605	0.105	537210	keystroke_h	h	n/a
268.68	0.075	537360	keystroke_o	o	n/a
268.86	0.105	537720	keystroke_l	l	n/a
269.04	0.06	538080	keystroke_y	y	n/a
270.63	0.0605	541260	keystroke_Key.enter	Key.enter	n/a
270.696	4.0455	541392	prompt	n/a	apnic suits corps philip\n
271.32	0.135	542640	keystroke_a	a	n/a
271.395	0.075	542790	keystroke_p	p	n/a
271.7995	0.076	543599	keystroke_n	n	n/a
271.8895	0.121	543779	keystroke_c	c	n/a
271.9955	0.09	543991	keystroke_Key.space	Key.space	n/a
272.1605	0.1495	544321	keystroke_s	s	n/a
272.295	0.045	544590	keystroke_u	u	n/a
272.4155	0.075	544831	keystroke_i	i	n/a
272.4755	0.105	544951	keystroke_t	t	n/a
272.5505	0.12	545101	keystroke_s	s	n/a
272.7305	0.075	545461	keystroke_Key.space	Key.space	n/a
272.8505	0.1045	545701	keystroke_c	c	n/a
272.94	0.075	545880	keystroke_o	o	n/a
273.045	0.075	546090	keystroke_r	r	n/a
273.285	0.075	546570	keystroke_p	p	n/a
273.4355	0.075	546871	keystroke_s	s	n/a
273.5705	0.075	547141	keystroke_Key.space	Key.space	n/a
273.795	0.06	547590	keystroke_p	p	n/a
273.9	0.09	547800	keystroke_h	h	n/a
274.005	0.045	548010	keystroke_i	i	n/a
274.155	0.075	548310	keystroke_l	l	n/a
274.275	0.09	548550	keystroke_i	i	n/a
274.44	0.06	548880	keystroke_p	p	n/a
274.665	0.075	549330	keystroke_Key.enter	Key.enter	n/a
274.744	7.9625	549488	prompt	n/a	counties crystal neighbors ericsson\n
275.355	0.15	550710	keystroke_c	c	n/a
275.52	0.045	551040	keystroke_o	o	n/a
275.58	0.09	551160	keystroke_u	u	n/a
275.64	0.075	551280	keystroke_n	n	n/a
275.7	0.0905	551400	keystroke_t	t	n/a
275.7905	0.074	551581	keystroke_i	i	n/a
275.8655	0.075	551731	keystroke_e	e	n/a
276.0145	0.1055	552029	keystroke_s	s	n/a
276.0895	0.1055	552179	keystroke_Key.space	Key.space	n/a
276.375	0.105	552750	keystroke_c	c	n/a
276.525	0.105	553050	keystroke_r	r	n/a
276.645	0.06	553290	keystroke_y	y	n/a
276.7945	0.09	553589	keystroke_s	s	n/a
276.8545	0.12	553709	keystroke_t	t	n/a
276.9445	0.165	553889	keystroke_a	a	n/a
277.0945	0.09	554189	keystroke_l	l	n/a
277.2445	0.09	554489	keystroke_Key.space	Key.space	n/a
277.3795	0.075	554759	keystroke_e	e	n/a
277.4555	0.06	554911	keystroke_n	n	n/a
278.1755	0.0595	556351	keystroke_Key.backspace	Key.backspace	n/a
278.28	0.075	556560	keystroke_Key.backspace	Key.backspace	n/a
278.43	0.075	556860	keystroke_n	n	n/a
278.49	0.09	556980	keystroke_e	e	n/a
278.595	0.045	557190	keystroke_i	i	n/a
278.685	0.105	557370	keystroke_g	g	n/a
278.73	0.09	557460	keystroke_h	h	n/a
279.2705	0.06	558541	keystroke_o	o	n/a
279.5095	0.075	559019	keystroke_Key.backspace	Key.backspace	n/a
279.5995	0.09	559199	keystroke_b	b	n/a
279.7195	0.06	559439	keystroke_o	o	n/a
279.9755	0.12	559951	keystroke_r	r	n/a
280.0495	0.121	560099	keystroke_s	s	n/a
280.3205	0.089	560641	keystroke_Key.space	Key.space	n/a
280.7545	0.136	561509	keystroke_e	e	n/a
280.9045	0.09	561809	keystroke_r	r	n/a
281.0845	0.06	562169	keystroke_i	i	n/a
281.5195	0.0455	563039	keystroke_c	c	n/a
282.1195	0.121	564239	keystroke_s	s	n/a
282.2555	0.075	564511	keystroke_s	s	n/a
282.3605	0.105	564721	keystroke_o	o	n/a
282.4355	0.06	564871	keystroke_n	n	n/a
282.6455	0.06	565291	keystroke_Key.enter	Key.enter	n/a
282.711	3.8805	565422	prompt	n/a	faster rice opera lone\n
283.4105	0.135	566821	keystroke_f	f	n/a
283.4705	0.135	566941	keystroke_a	a	n/a
283.5155	0.165	567031	keystroke_s	s	n/a
283.6655	0.09	567331	keystroke_t	t	n/a
283.8005	0.15	567601	keystroke_e	e	n/a
283.8155	0.03	567631	keystroke_w	w	n/a
283.8905	0.15	567781	keystroke_r	r	n/a
284.2505	0.06	568501	keystroke_Key.backspace	Key.backspace	n/a
284.4005	0.06	568801	keystroke_Key.backspace	Key.backspace	n/a
284.5055	0.09	569011	keystroke_r	r	n/a
284.6555	0.09	569311	keystroke_Key.space	Key.space	n/a
284.7155	0.075	569431	keystroke_r	r	n/a
284.8205	0.075	569641	keystroke_i	i	n/a
284.9405	0.09	569881	keystroke_c	c	n/a
284.9855	0.09	569971	keystroke_e	e	n/a
285.1355	0.075	570271	keystroke_Key.space	Key.space	n/a
285.3005	0.075	570601	keystroke_o	o	n/a
285.4505	0.075	570901	keystroke_p	p	n/a
285.4955	0.0745	570991	keystroke_e	e	n/a
285.5105	0.0895	571021	keystroke_r	r	n/a
285.63	0.1495	571260	keystroke_a	a	n/a
285.7195	0.075	571439	keystroke_Key.space	Key.space	n/a
286.0495	0.075	572099	keystroke_l	l	n/a
286.1695	0.105	572339	keystroke_o	o	n/a
286.2295	0.09	572459	keystroke_n	n	n/a
286.3045	0.075	572609	keystroke_e	e	n/a
286.5295	0.06	573059	keystroke_Key.enter	Key.enter	n/a
286.594	5.1875	573188	prompt	n/a	default introduce casey combo\n
287.1455	0.074	574291	keystroke_d	d	n/a
287.2945	0.06	574589	keystroke_e	e	n/a
287.3395	0.165	574679	keystroke_f	f	n/a
287.4455	0.134	574891	keystroke_a	a	n/a
287.5345	0.06	575069	keystroke_u	u	n/a
287.6995	0.076	575399	keystroke_l	l	n/a
287.7895	0.06	575579	keystroke_t	t	n/a
287.8645	0.0755	575729	keystroke_Key.space	Key.space	n/a
287.97	0.105	575940	keystroke_i	i	n/a
288.015	0.105	576030	keystroke_n	n	n/a
288.09	0.12	576180	keystroke_t	t	n/a
288.165	0.105	576330	keystroke_r	r	n/a
288.285	0.075	576570	keystroke_o	o	n/a
288.525	0.06	577050	keystroke_d	d	n/a
288.615	0.045	577230	keystroke_u	u	n/a
288.7805	0.1045	577561	keystroke_c	c	n/a
288.84	0.105	577680	keystroke_e	e	n/a
289.005	0.075	578010	keystroke_Key.space	Key.space	n/a
289.185	0.105	578370	keystroke_c	c	n/a
289.23	0.165	578460	keystroke_a	a	n/a
289.35	0.15	578700	keystroke_s	s	n/a
289.635	0.09	579270	keystroke_e	e	n/a
289.815	0.0755	579630	keystroke_y	y	n/a
289.9205	0.0745	579841	keystroke_Key.space	Key.space	n/a
290.0255	0.0595	580051	keystroke_r	r	n/a
290.3545	0.075	580709	keystroke_Key.backspace	Key.backspace	n/a
290.5195	0.105	581039	keystroke_o	o	n/a
290.5645	0.09	581129	keystroke_m	m	n/a
290.835	0.075	581670	keystroke_Key.backspace	Key.backspace	n/a
290.955	0.09	581910	keystroke_Key.backspace	Key.backspace	n/a
291.03	0.12	582060	keystroke_c	c	n/a
291.12	0.09	582240	keystroke_o	o	n/a
291.165	0.075	582330	keystroke_m	m	n/a
291.24	0.09	582480	keystroke_b	b	n/a
291.315	0.06	582630	keystroke_o	o	n/a
291.735	0.045	583470	keystroke_Key.enter	Key.enter	n/a
291.784	6.8525	583568	prompt	n/a	important bite graham medline\n
292.35	0.09	584700	keystroke_i	i	n/a
292.425	0.0455	584850	keystroke_m	m	n/a
292.56	0.075	585120	keystroke_p	p	n/a
292.6805	0.075	585361	keystroke_o	o	n/a
292.7405	0.09	585481	keystroke_r	r	n/a
292.8005	0.1045	585601	keystroke_t	t	n/a
292.92	0.105	585840	keystroke_a	a	n/a
292.995	0.075	585990	keystroke_n	n	n/a
293.085	0.105	586170	keystroke_t	t	n/a
293.31	0.09	586620	keystroke_Key.space	Key.space	n/a
293.565	0.105	587130	keystroke_b	b	n/a
293.73	0.075	587460	keystroke_i	i	n/a
293.91	0.1055	587820	keystroke_t	t	n/a
293.955	0.1055	587910	keystroke_e	e	n/a
294.1655	0.075	588331	keystroke_Key.space	Key.space	n/a
294.2855	0.09	588571	keystroke_g	g	n/a
294.3455	0.06	588691	keystroke_r	r	n/a
294.4355	0.12	588871	keystroke_a	a	n/a
294.5405	0.06	589081	keystroke_p	p	n/a
294.7805	0.09	589561	keystroke_h	h	n/a
295.0955	0.06	590191	keystroke_Key.backspace	Key.backspace	n/a
295.2005	0.075	590401	keystroke_Key.backspace	Key.backspace	n/a
295.2455	0.075	590491	keystroke_h	h	n/a
295.3055	0.135	590611	keystroke_a	a	n/a
295.6805	0.074	591361	keystroke_m	m	n/a
295.9345	0.09	591869	keystroke_Key.space	Key.space	n/a
296.3395	0.09	592679	keystroke_m	m	n/a
296.4155	0.044	592831	keystroke_e	e	n/a
296.5645	0.09	593129	keystroke_d	d	n/a
297.5545	0.045	595109	keystroke_l	l	n/a
297.6605	0.089	595321	keystroke_i	i	n/a
297.6895	0.09	595379	keystroke_n	n	n/a
297.7645	0.075	595529	keystroke_e	e	n/a
298.5595	0.075	597119	keystroke_Key.enter	Key.enter	n/a
298.6425	5.679	597285	prompt	n/a	universities polo status fossil\n
299.2495	0.105	598499	keystroke_u	u	n/a
299.3095	0.105	598619	keystroke_n	n	n/a
299.5195	0.09	599039	keystroke_i	i	n/a
299.6245	0.09	599249	keystroke_v	v	n/a
299.6995	0.121	599399	keystroke_e	e	n/a
299.7605	0.135	599521	keystroke_r	r	n/a
300.0155	0.12	600031	keystroke_s	s	n/a
300.36	0.075	600720	keystroke_i	i	n/a
300.45	0.09	600900	keystroke_t	t	n/a
300.541	0.059	601082	keystroke_i	i	n/a
300.645	0.09	601290	keystroke_e	e	n/a
300.825	0.09	601650	keystroke_s	s	n/a
301.05	0.075	602100	keystroke_Key.space	Key.space	n/a
301.2455	0.075	602491	keystroke_p	p	n/a
301.3805	0.075	602761	keystroke_o	o	n/a
301.5305	0.045	603061	keystroke_l	l	n/a
301.6205	0.075	603241	keystroke_o	o	n/a
301.89	0.015	603780	keystroke_Key.space	Key.space	n/a
301.92	0.06	603840	keystroke_s	s	n/a
301.965	0.105	603930	keystroke_t	t	n/a
302.055	0.135	604110	keystroke_a	a	n/a
302.13	0.1355	604260	keystroke_t	t	n/a
302.2505	0.06	604501	keystroke_u	u	n/a
302.3255	0.105	604651	keystroke_s	s	n/a
302.4755	0.09	604951	keystroke_Key.space	Key.space	n/a
302.5955	0.105	605191	keystroke_f	f	n/a
302.7155	0.075	605431	keystroke_o	o	n/a
302.9105	0.0745	605821	keystroke_s	s	n/a
303.045	0.1055	606090	keystroke_s	s	n/a
303.1355	0.06	606271	keystroke_i	i	n/a
303.2845	0.0905	606569	keystroke_l	l	n/a
304.23	0.09	608460	keystroke_Key.enter	Key.enter	n/a
304.325	5.0365	608650	prompt	n/a	prototype newly darkness proteins\n
304.845	0.09	609690	keystroke_p	p	n/a
304.95	0.075	609900	keystroke_r	r	n/a
305.04	0.075	610080	keystroke_o	o	n/a
305.13	0.105	610260	keystroke_t	t	n/a
305.25	0.045	610500	keystroke_o	o	n/a
305.505	0.09	611010	keystroke_t	t	n/a
305.715	0.0755	611430	keystroke_y	y	n/a
305.8205	0.06	611641	keystroke_p	p	n/a
305.8955	0.105	611791	keystroke_e	e	n/a
306.135	0.09	612270	keystroke_Key.space	Key.space	n/a
306.315	0.075	612630	keystroke_n	n	n/a
306.375	0.15	612750	keystroke_e	e	n/a
306.465	0.12	612930	keystroke_w	w	n/a
306.66	0.09	613320	keystroke_l	l	n/a
306.78	0.105	613560	keystroke_y	y	n/a
306.93	0.09	613860	keystroke_Key.space	Key.space	n/a
307.095	0.105	614190	keystroke_d	d	n/a
307.275	0.12	614550	keystroke_a	a	n/a
307.35	0.135	614700	keystroke_r	r	n/a
307.4545	0.0755	614909	keystroke_k	k	n/a
307.59	0.075	615180	keystroke_n	n	n/a
307.666	0.074	615332	keystroke_e	e	n/a
307.785	0.09	615570	keystroke_s	s	n/a
307.9345	0.105	615869	keystroke_s	s	n/a
308.0545	0.075	616109	keystroke_Key.space	Key.space	n/a
308.2655	0.075	616531	keystroke_p	p	n/a
308.3705	0.1045	616741	keystroke_r	r	n/a
308.4605	0.0745	616921	keystroke_o	o	n/a
308.55	0.09	617100	keystroke_t	t	n/a
308.61	0.105	617220	keystroke_e	e	n/a
308.685	0.06	617370	keystroke_i	i	n/a
308.715	0.09	617430	keystroke_n	n	n/a
308.8345	0.12	617669	keystroke_s	s	n/a
309.2845	0.075	618569	keystroke_Key.enter	Key.enter	n/a
309.366	4.9155	618732	prompt	n/a	shortly authors carb pressing\n
309.8695	0.091	619739	keystroke_s	s	n/a
310.0205	0.089	620041	keystroke_h	h	n/a
310.1245	0.06	620249	keystroke_o	o	n/a
310.2005	0.1045	620401	keystroke_r	r	n/a
310.26	0.135	620520	keystroke_t	t	n/a
310.755	0.045	621510	keystroke_l	l	n/a
310.815	0.09	621630	keystroke_y	y	n/a
310.935	0.09	621870	keystroke_Key.space	Key.space	n/a
311.115	0.12	622230	keystroke_a	a	n/a
311.25	0.03	622500	keystroke_u	u	n/a
311.325	0.09	622650	keystroke_t	t	n/a
311.37	0.075	622740	keystroke_h	h	n/a
311.46	0.06	622920	keystroke_o	o	n/a
311.7445	0.12	623489	keystroke_r	r	n/a
311.8045	0.135	623609	keystroke_s	s	n/a
312.0595	0.105	624119	keystroke_Key.space	Key.space	n/a
312.2245	0.12	624449	keystroke_c	c	n/a
312.2845	0.135	624569	keystroke_a	a	n/a
312.4495	0.075	624899	keystroke_r	r	n/a
312.5995	0.105	625199	keystroke_b	b	n/a
312.7495	0.06	625499	keystroke_Key.space	Key.space	n/a
313.0195	0.075	626039	keystroke_p	p	n/a
313.0795	0.135	626159	keystroke_r	r	n/a
313.1545	0.075	626309	keystroke_e	e	n/a
313.3345	0.06	626669	keystroke_s	s	n/a
313.4395	0.09	626879	keystroke_s	s	n/a
313.5145	0.105	627029	keystroke_i	i	n/a
313.5745	0.075	627149	keystroke_n	n	n/a
313.6345	0.06	627269	keystroke_g	g	n/a
314.1895	0.0905	628379	keystroke_Key.enter	Key.enter	n/a
314.2845	4.6325	628569	prompt	n/a	ne'er edit objects chan\n
314.85	0.075	629700	keystroke_n	n	n/a
314.955	0.15	629910	keystroke_e	e	n/a
315.345	0.09	630690	keystroke_'	'	n/a
315.795	0.15	631590	keystroke_e	e	n/a
315.855	0.135	631710	keystroke_r	r	n/a
316.035	0.09	632070	keystroke_Key.space	Key.space	n/a
316.2445	0.105	632489	keystroke_e	e	n/a
316.4395	0.135	632879	keystroke_d	d	n/a
316.5595	0.09	633119	keystroke_i	i	n/a
316.6805	0.09	633361	keystroke_t	t	n/a
316.8445	0.105	633689	keystroke_Key.space	Key.space	n/a
317.1445	0.015	634289	keystroke_o	o	n/a
317.1605	0.074	634321	keystroke_b	b	n/a
317.2495	0.075	634499	keystroke_j	j	n/a
317.3395	0.09	634679	keystroke_e	e	n/a
317.4145	0.106	634829	keystroke_c	c	n/a
317.6105	0.074	635221	keystroke_t	t	n/a
317.7745	0.105	635549	keystroke_s	s	n/a
317.8945	0.06	635789	keystroke_Key.space	Key.space	n/a
318.1195	0.09	636239	keystroke_c	c	n/a
318.1945	0.06	636389	keystroke_h	h	n/a
318.2695	0.121	636539	keystroke_a	a	n/a
318.3445	0.076	636689	keystroke_n	n	n/a
318.825	0.09	637650	keystroke_Key.enter	Key.enter	n/a
318.921	6.76	637842	prompt	n/a	toyota than sbjct mazda\n
319.5	0.09	639000	keystroke_t	t	n/a
319.575	0.06	639150	keystroke_o	o	n/a
319.8	0.075	639600	keystroke_y	y	n/a
320.295	0.045	640590	keystroke_o	o	n/a
320.67	0.09	641340	keystroke_t	t	n/a
321.2695	0.1355	642539	keystroke_a	a	n/a
321.42	0.12	642840	keystroke_Key.space	Key.space	n/a
321.675	0.1195	643350	keystroke_t	t	n/a
321.7345	0.09	643469	keystroke_h	h	n/a
321.8845	0.1505	643769	keystroke_a	a	n/a
321.96	0.0595	643920	keystroke_n	n	n/a
322.0945	0.105	644189	keystroke_Key.space	Key.space	n/a
322.41	0.09	644820	keystroke_s	s	n/a
322.68	0.09	645360	keystroke_b	b	n/a
322.815	0.075	645630	keystroke_j	j	n/a
323.085	0.135	646170	keystroke_c	c	n/a
323.415	0.075	646830	keystroke_t	t	n/a
323.5795	0.075	647159	keystroke_Key.space	Key.space	n/a
323.7595	0.091	647519	keystroke_m	m	n/a
323.8505	0.09	647701	keystroke_a	a	n/a
324.0305	0.12	648061	keystroke_z	z	n/a
324.27	0.105	648540	keystroke_d	d	n/a
324.495	0.12	648990	keystroke_a	a	n/a
325.635	0.045	651270	keystroke_Key.enter	Key.enter	n/a
325.684	4.3325	651368	prompt	n/a	music soft largest precious\n
326.31	0.105	652620	keystroke_m	m	n/a
326.475	0.075	652950	keystroke_u	u	n/a
326.52	0.12	653040	keystroke_s	s	n/a
326.625	0.075	653250	keystroke_i	i	n/a
326.685	0.105	653370	keystroke_c	c	n/a
326.791	0.074	653582	keystroke_Key.space	Key.space	n/a
326.895	0.12	653790	keystroke_s	s	n/a
327	0.075	654000	keystroke_o	o	n/a
327.105	0.09	654210	keystroke_f	f	n/a
327.27	0.12	654540	keystroke_t	t	n/a
327.795	0.09	655590	keystroke_Key.space	Key.space	n/a
327.99	0.09	655980	keystroke_l	l	n/a
328.155	0.12	656310	keystroke_a	a	n/a
328.26	0.105	656520	keystroke_r	r	n/a
328.44	0.09	656880	keystroke_g	g	n/a
328.5	0.09	657000	keystroke_e	e	n/a
328.665	0.1055	657330	keystroke_s	s	n/a
328.71	0.105	657420	keystroke_t	t	n/a
328.8	0.06	657600	keystroke_Key.space	Key.space	n/a
328.95	0.075	657900	keystroke_p	p	n/a
329.01	0.12	658020	keystroke_r	r	n/a
329.07	0.075	658140	keystroke_e	e	n/a
329.235	0.12	658470	keystroke_c	c	n/a
329.28	0.06	658560	keystroke_i	i	n/a
329.445	0.03	658890	keystroke_o	o	n/a
329.535	0.06	659070	keystroke_u	u	n/a
329.595	0.105	659190	keystroke_s	s	n/a
329.9405	0.075	659881	keystroke_Key.enter	Key.enter	n/a
330.0195	5.982	660039	prompt	n/a	properties gang timing sector\n
330.57	0.0895	661140	keystroke_p	p	n/a
330.6895	0.09	661379	keystroke_r	r	n/a
330.7645	0.075	661529	keystroke_o	o	n/a
330.8995	0.075	661799	keystroke_p	p	n/a
330.9445	0.135	661889	keystroke_e	e	n/a
331.0045	0.135	662009	keystroke_r	r	n/a
331.2745	0.09	662549	keystroke_t	t	n/a
331.3495	0.06	662699	keystroke_i	i	n/a
331.4395	0.09	662879	keystroke_e	e	n/a
331.5895	0.105	663179	keystroke_s	s	n/a
331.6795	0.075	663359	keystroke_Key.space	Key.space	n/a
331.7695	0.105	663539	keystroke_g	g	n/a
331.8445	0.105	663689	keystroke_a	a	n/a
331.9045	0.0905	663809	keystroke_n	n	n/a
332.01	0.075	664020	keystroke_g	g	n/a
332.3395	0.09	664679	keystroke_Key.space	Key.space	n/a
332.4595	0.09	664919	keystroke_t	t	n/a
332.5045	0.105	665009	keystroke_i	i	n/a
332.5795	0.105	665159	keystroke_m	m	n/a
333.0445	0.105	666089	keystroke_i	i	n/a
333.0895	0.09	666179	keystroke_n	n	n/a
333.1945	0.09	666389	keystroke_g	g	n/a
333.4045	0.075	666809	keystroke_Key.space	Key.space	n/a
333.5245	0.105	667049	keystroke_s	s	n/a
333.6895	0.076	667379	keystroke_c	c	n/a
334.0355	0.075	668071	keystroke_Key.backspace	Key.backspace	n/a
334.0955	0.09	668191	keystroke_e	e	n/a
334.215	0.105	668430	keystroke_c	c	n/a
334.41	0.06	668820	keystroke_t	t	n/a
334.485	0.06	668970	keystroke_o	o	n/a
334.575	0.09	669150	keystroke_r	r	n/a
335.9095	0.09	671819	keystroke_Key.enter	Key.enter	n/a
336.004	9.7325	672008	prompt	n/a	botswana means mercedes ball\n
336.5545	0.09	673109	keystroke_b	b	n/a
336.6755	0.089	673351	keystroke_o	o	n/a
337.3495	0.09	674699	keystroke_t	t	n/a
337.4545	0.105	674909	keystroke_s	s	n/a
337.6795	0.0605	675359	keystroke_w	w	n/a
337.725	0.15	675450	keystroke_a	a	n/a
338.3995	0.075	676799	keystroke_n	n	n/a
338.4895	0.1205	676979	keystroke_a	a	n/a
338.685	0.09	677370	keystroke_Key.space	Key.space	n/a
338.85	0.105	677700	keystroke_m	m	n/a
338.9555	0.0895	677911	keystroke_e	e	n/a
339.015	0.135	678030	keystroke_a	a	n/a
339.09	0.09	678180	keystroke_n	n	n/a
339.195	0.105	678390	keystroke_s	s	n/a
341.3875	0.027	682775	keystroke_Key.space	Key.space	n/a
341.5045	0.0605	683009	keystroke_m	m	n/a
341.58	0.135	683160	keystroke_e	e	n/a
341.64	0.15	683280	keystroke_r	r	n/a
341.925	0.105	683850	keystroke_c	c	n/a
342.015	0.105	684030	keystroke_e	e	n/a
342.18	0.105	684360	keystroke_d	d	n/a
342.405	0.03	684810	keystroke_e	e	n/a
342.45	0.12	684900	keystroke_s	s	n/a
342.675	0.075	685350	keystroke_Key.space	Key.space	n/a
343.26	0.075	686520	keystroke_b	b	n/a
343.815	0.12	687630	keystroke_a	a	n/a
343.92	0.09	687840	keystroke_l	l	n/a
344.0405	0.075	688081	keystroke_l	l	n/a
345.6155	0.119	691231	keystroke_Key.enter	Key.enter	n/a
345.7445	7.897	691489	prompt	n/a	mazda stats butter visiting\n
346.395	0.09	692790	keystroke_m	m	n/a
346.455	0.12	692910	keystroke_a	a	n/a
346.65	0.075	693300	keystroke_d	d	n/a
346.935	0.105	693870	keystroke_Key.backspace	Key.backspace	n/a
347.325	0.12	694650	keystroke_z	z	n/a
347.55	0.135	695100	keystroke_d	d	n/a
347.655	0.105	695310	keystroke_a	a	n/a
347.94	0.09	695880	keystroke_Key.space	Key.space	n/a
348.015	0.12	696030	keystroke_s	s	n/a
348.18	0.0905	696360	keystroke_t	t	n/a
348.2405	0.1345	696481	keystroke_a	a	n/a
348.345	0.12	696690	keystroke_t	t	n/a
348.54	0.105	697080	keystroke_s	s	n/a
348.855	0.105	697710	keystroke_Key.space	Key.space	n/a
349.065	0.075	698130	keystroke_b	b	n/a
349.17	0.075	698340	keystroke_u	u	n/a
349.275	0.06	698550	keystroke_t	t	n/a
349.38	0.09	698760	keystroke_t	t	n/a
349.7855	0.134	699571	keystroke_e	e	n/a
349.8445	0.121	699689	keystroke_r	r	n/a
349.9945	0.1055	699989	keystroke_Key.space	Key.space	n/a
350.5355	0.074	701071	keystroke_v	v	n/a
350.6245	0.075	701249	keystroke_i	i	n/a
350.6845	0.105	701369	keystroke_s	s	n/a
350.7745	0.075	701549	keystroke_i	i	n/a
351.135	0.03	702270	keystroke_t	t	n/a
351.18	0.105	702360	keystroke_i	i	n/a
351.225	0.075	702450	keystroke_n	n	n/a
351.33	0.105	702660	keystroke_g	g	n/a
353.627	0.013	707254	keystroke_Key.enter	Key.enter	n/a
353.645	5.4115	707290	prompt	n/a	trauma gets teams chrome\n
354.2095	0.1055	708419	keystroke_t	t	n/a
354.3	0.135	708600	keystroke_a	a	n/a
354.42	0.12	708840	keystroke_r	r	n/a
354.93	0.045	709860	keystroke_Key.backspace	Key.backspace	n/a
355.035	0.075	710070	keystroke_Key.backspace	Key.backspace	n/a
355.065	0.135	710130	keystroke_r	r	n/a
355.14	0.12	710280	keystroke_a	a	n/a
355.53	0.075	711060	keystroke_u	u	n/a
355.635	0.105	711270	keystroke_m	m	n/a
355.7695	0.12	711539	keystroke_a	a	n/a
355.9045	0.09	711809	keystroke_Key.space	Key.space	n/a
356.1895	0.105	712379	keystroke_f	f	n/a
356.5345	0.09	713069	keystroke_Key.backspace	Key.backspace	n/a
356.5795	0.105	713159	keystroke_g	g	n/a
356.6695	0.12	713339	keystroke_e	e	n/a
356.7745	0.075	713549	keystroke_t	t	n/a
356.8795	0.15	713759	keystroke_s	s	n/a
356.9995	0.09	713999	keystroke_Key.space	Key.space	n/a
357.1345	0.135	714269	keystroke_t	t	n/a
357.2095	0.135	714419	keystroke_e	e	n/a
357.3595	0.165	714719	keystroke_a	a	n/a
357.5395	0.09	715079	keystroke_m	m	n/a
357.6445	0.105	715289	keystroke_s	s	n/a
358.0195	0.09	716039	keystroke_Key.space	Key.space	n/a
358.245	0.105	716490	keystroke_c	c	n/a
358.335	0.09	716670	keystroke_h	h	n/a
358.44	0.075	716880	keystroke_r	r	n/a
358.53	0.09	717060	keystroke_o	o	n/a
358.59	0.075	717180	keystroke_m	m	n/a
358.635	0.09	717270	keystroke_e	e	n/a
358.98	0.075	717960	keystroke_Key.enter	Key.enter	n/a
359.059	9.0725	718118	prompt	n/a	guatemala insider tenant poems\n
359.7145	0.0905	719429	keystroke_g	g	n/a
359.88	0.075	719760	keystroke_u	u	n/a
360.015	0.105	720030	keystroke_a	a	n/a
360.2855	0.09	720571	keystroke_t	t	n/a
360.3755	0.12	720751	keystroke_e	e	n/a
360.5395	0.061	721079	keystroke_l	l	n/a
360.6455	0.045	721291	keystroke_e	e	n/a
361.0055	0.045	722011	keystroke_Key.backspace	Key.backspace	n/a
361.1255	0.074	722251	keystroke_Key.backspace	Key.backspace	n/a
361.3205	0.074	722641	keystroke_m	m	n/a
361.4105	0.12	722821	keystroke_a	a	n/a
361.905	0.06	723810	keystroke_l	l	n/a
362.07	0.09	724140	keystroke_a	a	n/a
362.4145	0.075	724829	keystroke_Key.space	Key.space	n/a
362.5345	0.105	725069	keystroke_s	s	n/a
362.6405	0.089	725281	keystroke_i	i	n/a
362.6845	0.105	725369	keystroke_n	n	n/a
363.1345	0.0605	726269	keystroke_s	s	n/a
363.36	0.0595	726720	keystroke_Key.backspace	Key.backspace	n/a
363.48	0.09	726960	keystroke_Key.backspace	Key.backspace	n/a
363.6445	0.0305	727289	keystroke_Key.backspace	Key.backspace	n/a
363.7195	0.0755	727439	keystroke_Key.backspace	Key.backspace	n/a
363.93	0.09	727860	keystroke_i	i	n/a
363.96	0.09	727920	keystroke_n	n	n/a
364.035	0.12	728070	keystroke_s	s	n/a
364.17	0.06	728340	keystroke_i	i	n/a
364.59	0.105	729180	keystroke_d	d	n/a
364.785	0.105	729570	keystroke_e	e	n/a
364.815	0.1645	729630	keystroke_r	r	n/a
364.9645	0.0905	729929	keystroke_Key.space	Key.space	n/a
365.07	0.135	730140	keystroke_t	t	n/a
365.175	0.075	730350	keystroke_a	a	n/a
365.6095	0.045	731219	keystroke_Key.backspace	Key.backspace	n/a
365.6695	0.076	731339	keystroke_e	e	n/a
365.76	0.075	731520	keystroke_n	n	n/a
366.06	0.18	732120	keystroke_a	a	n/a
366.4795	0.075	732959	keystroke_n	n	n/a
366.5695	0.09	733139	keystroke_t	t	n/a
366.6745	0.09	733349	keystroke_Key.space	Key.space	n/a
366.9005	0.089	733801	keystroke_p	p	n/a
367.0195	0.09	734039	keystroke_o	o	n/a
367.1105	0.089	734221	keystroke_e	e	n/a
367.2145	0.06	734429	keystroke_m	m	n/a
367.3045	0.105	734609	keystroke_s	s	n/a
368.0545	0.0755	736109	keystroke_Key.enter	Key.enter	n/a
368.1345	8.772	736269	prompt	n/a	corporation trend applications accreditation\n
368.8345	0.075	737669	keystroke_o	o	n/a
369.105	0.06	738210	keystroke_Key.backspace	Key.backspace	n/a
369.15	0.135	738300	keystroke_c	c	n/a
369.285	0.06	738570	keystroke_o	o	n/a
369.375	0.075	738750	keystroke_r	r	n/a
369.555	0.06	739110	keystroke_p	p	n/a
369.705	0.045	739410	keystroke_o	o	n/a
369.915	0.045	739830	keystroke_Key.backspace	Key.backspace	n/a
370.02	0.075	740040	keystroke_Key.backspace	Key.backspace	n/a
370.4245	0.075	740849	keystroke_p	p	n/a
370.5745	0.075	741149	keystroke_o	o	n/a
370.6645	0.09	741329	keystroke_r	r	n/a
370.8745	0.12	741749	keystroke_a	a	n/a
370.9495	0.136	741899	keystroke_t	t	n/a
371.0395	0.075	742079	keystroke_i	i	n/a
371.1595	0.06	742319	keystroke_o	o	n/a
371.1745	0.075	742349	keystroke_n	n	n/a
371.3095	0.09	742619	keystroke_Key.space	Key.space	n/a
371.3695	0.135	742739	keystroke_t	t	n/a
371.6695	0.12	743339	keystroke_r	r	n/a
371.8795	0.09	743759	keystroke_e	e	n/a
371.9705	0.074	743941	keystroke_n	n	n/a
372.1645	0.075	744329	keystroke_Key.space	Key.space	n/a
372.4945	0.075	744989	keystroke_Key.backspace	Key.backspace	n/a
372.5705	0.089	745141	keystroke_d	d	n/a
372.6895	0.075	745379	keystroke_Key.space	Key.space	n/a
372.7655	0.1195	745531	keystroke_a	a	n/a
372.8695	0.0605	745739	keystroke_p	p	n/a
372.99	0.075	745980	keystroke_p	p	n/a
373.14	0.03	746280	keystroke_l	l	n/a
373.23	0.06	746460	keystroke_i	i	n/a
373.275	0.105	746550	keystroke_c	c	n/a
373.335	0.105	746670	keystroke_a	a	n/a
373.545	0.105	747090	keystroke_t	t	n/a
373.665	0.06	747330	keystroke_i	i	n/a
373.77	0.09	747540	keystroke_o	o	n/a
373.815	0.075	747630	keystroke_n	n	n/a
373.875	0.105	747750	keystroke_s	s	n/a
374.01	0.09	748020	keystroke_Key.space	Key.space	n/a
374.31	0.09	748620	keystroke_a	a	n/a
374.445	0.09	748890	keystroke_c	c	n/a
374.595	0.09	749190	keystroke_c	c	n/a
374.775	0.135	749550	keystroke_r	r	n/a
374.82	0.105	749640	keystroke_e	e	n/a
375.03	0.105	750060	keystroke_d	d	n/a
375.195	0.03	750390	keystroke_i	i	n/a
376.02	0.09	752040	keystroke_t	t	n/a
376.185	0.135	752370	keystroke_a	a	n/a
376.275	0.12	752550	keystroke_t	t	n/a
376.395	0.06	752790	keystroke_i	i	n/a
376.5145	0.09	753029	keystroke_o	o	n/a
376.5595	0.075	753119	keystroke_n	n	n/a
376.8145	0.09	753629	keystroke_Key.enter	Key.enter	n/a
376.9095	9.33	753819	prompt	n/a	amended disagree drinks adelaide\n
377.61	0.105	755220	keystroke_a	a	n/a
377.7	0.075	755400	keystroke_m	m	n/a
377.82	0.075	755640	keystroke_e	e	n/a
377.865	0.075	755730	keystroke_n	n	n/a
377.985	0.075	755970	keystroke_d	d	n/a
378.1345	0.075	756269	keystroke_e	e	n/a
378.2695	0.0905	756539	keystroke_d	d	n/a
378.615	0.09	757230	keystroke_Key.space	Key.space	n/a
379.02	0.09	758040	keystroke_d	d	n/a
379.08	0.075	758160	keystroke_i	i	n/a
379.17	0.09	758340	keystroke_s	s	n/a
379.38	0.105	758760	keystroke_a	a	n/a
379.56	0.09	759120	keystroke_g	g	n/a
379.7845	0.09	759569	keystroke_r	r	n/a
379.8755	0.119	759751	keystroke_e	e	n/a
380.0545	0.09	760109	keystroke_e	e	n/a
380.43	0.075	760860	keystroke_Key.space	Key.space	n/a
380.715	0.075	761430	keystroke_d	d	n/a
380.865	0.105	761730	keystroke_r	r	n/a
380.91	0.09	761820	keystroke_i	i	n/a
380.955	0.09	761910	keystroke_n	n	n/a
381.09	0.075	762180	keystroke_k	k	n/a
381.18	0.09	762360	keystroke_s	s	n/a
381.465	0.09	762930	keystroke_Key.space	Key.space	n/a
381.6	0.12	763200	keystroke_a	a	n/a
381.75	0.075	763500	keystroke_d	d	n/a
381.915	0.06	763830	keystroke_e	e	n/a
382.2895	0.061	764579	keystroke_l	l	n/a
382.4255	0.1045	764851	keystroke_a	a	n/a
382.56	0.045	765120	keystroke_i	i	n/a
382.62	0.09	765240	keystroke_d	d	n/a
382.815	0.06	765630	keystroke_e	e	n/a
386.2365	0.001	772473	keystroke_Key.enter	Key.enter	n/a
386.244	13.1775	772488	prompt	n/a	owen batteries networks necessity\n
386.8195	0.1055	773639	keystroke_o	o	n/a
386.955	0.12	773910	keystroke_w	w	n/a
387.06	0.1195	774120	keystroke_e	e	n/a
387.1345	0.0755	774269	keystroke_n	n	n/a
387.3	0.1045	774600	keystroke_Key.space	Key.space	n/a
387.5695	0.09	775139	keystroke_b	b	n/a
387.7655	0.075	775531	keystroke_a	a	n/a
387.8855	0.06	775771	keystroke_t	t	n/a
388.0205	0.075	776041	keystroke_t	t	n/a
388.1105	0.1195	776221	keystroke_e	e	n/a
388.1845	0.1205	776369	keystroke_r	r	n/a
388.26	0.075	776520	keystroke_i	i	n/a
388.365	0.105	776730	keystroke_e	e	n/a
388.545	0.105	777090	keystroke_s	s	n/a
388.635	0.09	777270	keystroke_Key.space	Key.space	n/a
388.77	0.105	777540	keystroke_w	w	n/a
388.98	0.075	777960	keystroke_Key.backspace	Key.backspace	n/a
389.16	0.06	778320	keystroke_n	n	n/a
389.205	0.09	778410	keystroke_e	e	n/a
389.25	0.09	778500	keystroke_t	t	n/a
389.385	0.075	778770	keystroke_w	w	n/a
389.415	0.09	778830	keystroke_o	o	n/a
389.52	0.075	779040	keystroke_r	r	n/a
389.58	0.075	779160	keystroke_k	k	n/a
389.67	0.1195	779340	keystroke_s	s	n/a
390.1945	0.091	780389	keystroke_Key.space	Key.space	n/a
390.3455	0.09	780691	keystroke_n	n	n/a
390.4205	0.0745	780841	keystroke_e	e	n/a
390.57	0.27	781140	keystroke_c	c	n/a
391.17	0.045	782340	keystroke_c	c	n/a
391.335	0.06	782670	keystroke_e	e	n/a
391.44	0.12	782880	keystroke_s	s	n/a
391.65	0.15	783300	keystroke_s	s	n/a
391.905	0.075	783810	keystroke_i	i	n/a
392.01	0.09	784020	keystroke_t	t	n/a
392.175	0.0745	784350	keystroke_y	y	n/a
393.555	0.12	787110	keystroke_/	/	n/a
393.81	0.06	787620	keystroke_Key.left	Key.left	n/a
394.23	0.045	788460	keystroke_Key.backspace	Key.backspace	n/a
395.3855	0.075	790771	keystroke_y	y	n/a
395.7305	0.0745	791461	keystroke_Key.right	Key.right	n/a
396.7195	0.06	793439	keystroke_Key.backspace	Key.backspace	n/a
397.3645	0.121	794729	keystroke_Key.left	Key.left	n/a
397.545	0.09	795090	keystroke_Key.left	Key.left	n/a
397.695	0.06	795390	keystroke_Key.left	Key.left	n/a
397.83	0.06	795660	keystroke_Key.left	Key.left	n/a
397.95	0.075	795900	keystroke_Key.left	Key.left	n/a
398.145	0.0755	796290	keystroke_Key.left	Key.left	n/a
398.5655	0.06	797131	keystroke_Key.backspace	Key.backspace	n/a
399.345	0.075	798690	keystroke_Key.enter	Key.enter	n/a
399.424	6.5075	798848	prompt	n/a	finest usps danger saudi\n
400.035	0.09	800070	keystroke_f	f	n/a
400.095	0.09	800190	keystroke_i	i	n/a
400.1545	0.091	800309	keystroke_n	n	n/a
400.2305	0.09	800461	keystroke_e	e	n/a
400.4105	0.06	800821	keystroke_s	s	n/a
400.4405	0.105	800881	keystroke_t	t	n/a
400.5755	0.09	801151	keystroke_Key.space	Key.space	n/a
400.8005	0.06	801601	keystroke_u	u	n/a
400.8755	0.105	801751	keystroke_s	s	n/a
401.1005	0.09	802201	keystroke_p	p	n/a
401.3255	0.09	802651	keystroke_s	s	n/a
401.7755	0.075	803551	keystroke_Key.space	Key.space	n/a
401.9105	0.09	803821	keystroke_d	d	n/a
402.0155	0.12	804031	keystroke_a	a	n/a
402.1055	0.075	804211	keystroke_n	n	n/a
402.1955	0.0895	804391	keystroke_g	g	n/a
402.27	0.12	804540	keystroke_e	e	n/a
402.33	0.15	804660	keystroke_r	r	n/a
402.465	0.075	804930	keystroke_Key.space	Key.space	n/a
402.795	0.1205	805590	keystroke_s	s	n/a
402.87	0.1355	805740	keystroke_a	a	n/a
403.0205	0.045	806041	keystroke_u	u	n/a
403.0805	0.1045	806161	keystroke_d	d	n/a
403.17	0.06	806340	keystroke_i	i	n/a
405.8275	0.103	811655	keystroke_Key.enter	Key.enter	n/a
405.9445	9.617	811889	prompt	n/a	presence manner terrorists transfer\n
406.5905	0.09	813181	keystroke_p	p	n/a
406.6955	0.045	813391	keystroke_e	e	n/a
406.7105	0.105	813421	keystroke_r	r	n/a
407.0855	0.06	814171	keystroke_Key.backspace	Key.backspace	n/a
407.1905	0.09	814381	keystroke_Key.backspace	Key.backspace	n/a
407.2355	0.1195	814471	keystroke_r	r	n/a
407.2955	0.0745	814591	keystroke_e	e	n/a
408.225	0.105	816450	keystroke_s	s	n/a
408.3	0.1345	816600	keystroke_c	c	n/a
408.9295	0.075	817859	keystroke_e	e	n/a
409.0795	0.09	818159	keystroke_n	n	n/a
409.4395	0.075	818879	keystroke_Key.backspace	Key.backspace	n/a
409.5895	0.06	819179	keystroke_Key.backspace	Key.backspace	n/a
409.7095	0.09	819419	keystroke_Key.backspace	Key.backspace	n/a
409.8295	0.075	819659	keystroke_e	e	n/a
409.9495	0.075	819899	keystroke_n	n	n/a
410.0255	0.119	820051	keystroke_c	c	n/a
410.0845	0.105	820169	keystroke_e	e	n/a
410.4295	0.09	820859	keystroke_Key.space	Key.space	n/a
410.6545	0.075	821309	keystroke_m	m	n/a
410.7305	0.104	821461	keystroke_a	a	n/a
410.8205	0.059	821641	keystroke_n	n	n/a
410.94	0.0745	821880	keystroke_n	n	n/a
410.9995	0.12	821999	keystroke_e	e	n/a
411.0445	0.105	822089	keystroke_r	r	n/a
411.1645	0.075	822329	keystroke_Key.space	Key.space	n/a
411.3605	0.105	822721	keystroke_t	t	n/a
411.4355	0.105	822871	keystroke_e	e	n/a
411.6005	0.06	823201	keystroke_r	r	n/a
411.7055	0.09	823411	keystroke_r	r	n/a
411.7805	0.09	823561	keystroke_o	o	n/a
411.8855	0.075	823771	keystroke_r	r	n/a
412.0205	0.06	824041	keystroke_i	i	n/a
412.1105	0.135	824221	keystroke_s	s	n/a
412.2305	0.105	824461	keystroke_t	t	n/a
412.3205	0.105	824641	keystroke_s	s	n/a
412.95	0.06	825900	keystroke_Key.space	Key.space	n/a
413.1755	0.135	826351	keystroke_r	r	n/a
413.2655	0.15	826531	keystroke_t	t	n/a
413.4305	0.03	826861	keystroke_e	e	n/a
413.7155	0.075	827431	keystroke_Key.backspace	Key.backspace	n/a
413.8505	0.09	827701	keystroke_Key.backspace	Key.backspace	n/a
414.0155	0.075	828031	keystroke_Key.backspace	Key.backspace	n/a
414.1055	0.135	828211	keystroke_t	t	n/a
414.1505	0.105	828301	keystroke_r	r	n/a
414.3605	0.15	828721	keystroke_a	a	n/a
414.4955	0.06	828991	keystroke_n	n	n/a
414.5705	0.15	829141	keystroke_s	s	n/a
414.7055	0.09	829411	keystroke_f	f	n/a
415.2755	0.105	830551	keystroke_e	e	n/a
415.3355	0.12	830671	keystroke_r	r	n/a
415.4855	0.075	830971	keystroke_Key.enter	Key.enter	n/a
415.5645	6.192	831129	prompt	n/a	substitute resumes hitting wizard\n
416.19	0.0895	832380	keystroke_s	s	n/a
416.2945	0.06	832589	keystroke_u	u	n/a
416.3695	0.075	832739	keystroke_b	b	n/a
416.58	0.105	833160	keystroke_s	s	n/a
416.655	0.12	833310	keystroke_t	t	n/a
416.79	0.075	833580	keystroke_i	i	n/a
416.91	0.09	833820	keystroke_t	t	n/a
417.015	0.06	834030	keystroke_u	u	n/a
417.09	0.12	834180	keystroke_t	t	n/a
417.165	0.09	834330	keystroke_e	e	n/a
417.51	0.075	835020	keystroke_Key.space	Key.space	n/a
417.81	0.1055	835620	keystroke_s	s	n/a
418.1105	0.06	836221	keystroke_Key.backspace	Key.backspace	n/a
418.1555	0.0895	836311	keystroke_r	r	n/a
418.1715	0.0885	836343	keystroke_e	e	n/a
418.335	0.09	836670	keystroke_s	s	n/a
418.41	0.06	836820	keystroke_u	u	n/a
418.545	0.09	837090	keystroke_m	m	n/a
418.62	0.09	837240	keystroke_e	e	n/a
418.695	0.18	837390	keystroke_s	s	n/a
418.86	0.09	837720	keystroke_Key.space	Key.space	n/a
419.085	0.075	838170	keystroke_h	h	n/a
419.145	0.06	838290	keystroke_i	i	n/a
419.22	0.06	838440	keystroke_t	t	n/a
419.325	0.09	838650	keystroke_t	t	n/a
419.416	0.104	838832	keystroke_i	i	n/a
419.46	0.09	838920	keystroke_n	n	n/a
419.505	0.075	839010	keystroke_g	g	n/a
419.655	0.0905	839310	keystroke_Key.space	Key.space	n/a
419.9255	0.09	839851	keystroke_w	w	n/a
420.0605	0.06	840121	keystroke_i	i	n/a
420.51	0.06	841020	keystroke_z	z	n/a
420.8105	0.09	841621	keystroke_a	a	n/a
421.0205	0.045	842041	keystroke_r	r	n/a
421.1855	0.09	842371	keystroke_d	d	n/a
421.6655	0.0895	843331	keystroke_Key.enter	Key.enter	n/a
421.7595	5.637	843519	prompt	n/a	bench manage greater nobody\n
422.355	0.0905	844710	keystroke_b	b	n/a
422.4905	0.09	844981	keystroke_e	e	n/a
422.5655	0.105	845131	keystroke_n	n	n/a
422.6855	0.075	845371	keystroke_e	e	n/a
423.2255	0.074	846451	keystroke_Key.backspace	Key.backspace	n/a
423.3005	0.1045	846601	keystroke_c	c	n/a
423.42	0.06	846840	keystroke_h	h	n/a
423.585	0.06	847170	keystroke_Key.space	Key.space	n/a
423.72	0.075	847440	keystroke_m	m	n/a
423.78	0.09	847560	keystroke_a	a	n/a
423.855	0.075	847710	keystroke_n	n	n/a
423.945	0.105	847890	keystroke_a	a	n/a
424.065	0.12	848130	keystroke_g	g	n/a
424.14	0.1055	848280	keystroke_e	e	n/a
424.665	0.09	849330	keystroke_Key.space	Key.space	n/a
424.83	0.105	849660	keystroke_r	r	n/a
424.995	0.06	849990	keystroke_g	g	n/a
425.22	0.075	850440	keystroke_Key.backspace	Key.backspace	n/a
425.34	0.075	850680	keystroke_Key.backspace	Key.backspace	n/a
425.37	0.09	850740	keystroke_g	g	n/a
425.52	0.15	851040	keystroke_r	r	n/a
425.58	0.12	851160	keystroke_e	e	n/a
425.64	0.1655	851280	keystroke_a	a	n/a
425.7905	0.09	851581	keystroke_t	t	n/a
425.9405	0.1345	851881	keystroke_e	e	n/a
426.0155	0.1195	852031	keystroke_r	r	n/a
426.195	0.075	852390	keystroke_Key.space	Key.space	n/a
426.33	0.105	852660	keystroke_n	n	n/a
426.39	0.12	852780	keystroke_o	o	n/a
426.495	0.105	852990	keystroke_b	b	n/a
426.585	0.075	853170	keystroke_o	o	n/a
426.675	0.075	853350	keystroke_d	d	n/a
426.81	0.075	853620	keystroke_y	y	n/a
427.335	0.06	854670	keystroke_Key.enter	Key.enter	n/a
427.399	8.2925	854798	prompt	n/a	cons functioning fiji breaking\n
428.0255	0.12	856051	keystroke_c	c	n/a
428.0555	0.105	856111	keystroke_o	o	n/a
428.1005	0.09	856201	keystroke_n	n	n/a
428.2055	0.1195	856411	keystroke_s	s	n/a
428.505	0.105	857010	keystroke_Key.space	Key.space	n/a
428.67	0.105	857340	keystroke_f	f	n/a
428.79	0.09	857580	keystroke_u	u	n/a
428.82	0.09	857640	keystroke_n	n	n/a
428.865	0.09	857730	keystroke_c	c	n/a
429.06	0.0745	858120	keystroke_t	t	n/a
429.1195	0.091	858239	keystroke_i	i	n/a
429.4345	0.105	858869	keystroke_o	o	n/a
429.5995	0.076	859199	keystroke_n	n	n/a
429.6895	0.12	859379	keystroke_i	i	n/a
429.7495	0.135	859499	keystroke_n	n	n/a
429.8995	0.091	859799	keystroke_g	g	n/a
430.515	0.075	861030	keystroke_Key.backspace	Key.backspace	n/a
430.665	0.06	861330	keystroke_Key.backspace	Key.backspace	n/a
430.815	0.06	861630	keystroke_Key.backspace	Key.backspace	n/a
431.535	0.105	863070	keystroke_i	i	n/a
431.565	0.12	863130	keystroke_n	n	n/a
431.685	0.075	863370	keystroke_g	g	n/a
431.805	0.105	863610	keystroke_Key.space	Key.space	n/a
432.015	0.105	864030	keystroke_f	f	n/a
432.105	0.075	864210	keystroke_i	i	n/a
432.24	0.0895	864480	keystroke_g	g	n/a
432.7045	0.06	865409	keystroke_Key.backspace	Key.backspace	n/a
432.8995	0.1055	865799	keystroke_j	j	n/a
432.93	0.105	865860	keystroke_i	i	n/a
433.23	0.075	866460	keystroke_Key.space	Key.space	n/a
433.335	0.09	866670	keystroke_b	b	n/a
433.515	0.105	867030	keystroke_r	r	n/a
433.53	0.12	867060	keystroke_e	e	n/a
433.635	0.135	867270	keystroke_a	a	n/a
433.71	0.0745	867420	keystroke_k	k	n/a
433.8295	0.076	867659	keystroke_i	i	n/a
433.8595	0.09	867719	keystroke_n	n	n/a
433.9195	0.091	867839	keystroke_g	g	n/a
435.6295	0.06	871259	keystroke_Key.enter	Key.enter	n/a
