onset	duration	sample	value	key	prompt_text
7.1315	9.3245	14263	prompt	n/a	the quick brown fox jumps over a lazy dog\n
8.2065	0.001	16413	keystroke_t	t	n/a
8.234	0.105	16468	keystroke_h	h	n/a
8.384	0.09	16768	keystroke_e	e	n/a
8.489	0.09	16978	keystroke_Key.space	Key.space	n/a
8.6085	0.1505	17217	keystroke_q	q	n/a
8.774	0.075	17548	keystroke_u	u	n/a
8.789	0.12	17578	keystroke_i	i	n/a
9.044	0.075	18088	keystroke_c	c	n/a
9.104	0.135	18208	keystroke_k	k	n/a
9.194	0.105	18388	keystroke_Key.space	Key.space	n/a
9.464	0.09	18928	keystroke_b	b	n/a
9.584	0.105	19168	keystroke_r	r	n/a
9.719	0.105	19438	keystroke_o	o	n/a
9.779	0.105	19558	keystroke_w	w	n/a
9.899	0.1045	19798	keystroke_n	n	n/a
9.9885	0.09	19977	keystroke_Key.space	Key.space	n/a
10.1235	0.09	20247	keystroke_f	f	n/a
10.2285	0.0905	20457	keystroke_o	o	n/a
10.3785	0.09	20757	keystroke_x	x	n/a
10.5885	0.075	21177	keystroke_Key.space	Key.space	n/a
10.7985	0.075	21597	keystroke_j	j	n/a
10.9485	0.075	21897	keystroke_u	u	n/a
11.2035	0.135	22407	keystroke_m	m	n/a
11.2785	0.105	22557	keystroke_p	p	n/a
11.3535	0.075	22707	keystroke_e	e	n/a
11.5035	0.091	23007	keystroke_d	d	n/a
11.6085	0.0755	23217	keystroke_Key.space	Key.space	n/a
11.729	0.105	23458	keystroke_o	o	n/a
11.819	0.09	23638	keystroke_v	v	n/a
12.074	0.135	24148	keystroke_e	e	n/a
12.179	0.105	24358	keystroke_r	r	n/a
12.5385	0.045	25077	keystroke_Key.backspace	Key.backspace	n/a
12.719	0.06	25438	keystroke_Key.backspace	Key.backspace	n/a
12.884	0.06	25768	keystroke_Key.backspace	Key.backspace	n/a
13.049	0.06	26098	keystroke_Key.backspace	Key.backspace	n/a
13.214	0.074	26428	keystroke_Key.backspace	Key.backspace	n/a
13.394	0.075	26788	keystroke_Key.backspace	Key.backspace	n/a
13.709	0.075	27418	keystroke_Key.backspace	Key.backspace	n/a
13.949	0.105	27898	keystroke_s	s	n/a
14.084	0.09	28168	keystroke_Key.space	Key.space	n/a
14.279	0.105	28558	keystroke_o	o	n/a
14.399	0.09	28798	keystroke_v	v	n/a
14.5935	0.135	29187	keystroke_e	e	n/a
14.668	0.151	29336	keystroke_r	r	n/a
14.773	0.0755	29546	keystroke_Key.space	Key.space	n/a
14.8635	0.0905	29727	keystroke_a	a	n/a
14.939	0.09	29878	keystroke_Key.space	Key.space	n/a
15.044	0.105	30088	keystroke_l	l	n/a
15.134	0.09	30268	keystroke_a	a	n/a
15.344	0.09	30688	keystroke_z	z	n/a
15.434	0.12	30868	keystroke_y	y	n/a
15.539	0.12	31078	keystroke_Key.space	Key.space	n/a
15.749	0.075	31498	keystroke_d	d	n/a
15.839	0.105	31678	keystroke_o	o	n/a
16.064	0.03	32128	keystroke_g	g	n/a
16.409	0.045	32818	keystroke_Key.enter	Key.enter	n/a
16.4605	4.9145	32921	prompt	n/a	promoted matrix joint arise\n
17.0685	0.075	34137	keystroke_p	p	n/a
17.1735	0.135	34347	keystroke_r	r	n/a
17.2335	0.12	34467	keystroke_o	o	n/a
17.3235	0.165	34647	keystroke_m	m	n/a
17.4285	0.165	34857	keystroke_o	o	n/a
17.5035	0.135	35007	keystroke_t	t	n/a
17.6085	0.075	35217	keystroke_e	e	n/a
17.7885	0.105	35577	keystroke_d	d	n/a
17.8635	0.09	35727	keystroke_Key.space	Key.space	n/a
17.9835	0.105	35967	keystroke_m	m	n/a
18.0285	0.075	36057	keystroke_a	a	n/a
18.2385	0.075	36477	keystroke_t	t	n/a
18.4035	0.1055	36807	keystroke_r	r	n/a
18.554	0.105	37108	keystroke_i	i	n/a
18.7335	0.105	37467	keystroke_c	c	n/a
19.2135	0.045	38427	keystroke_Key.backspace	Key.backspace	n/a
19.2735	0.09	38547	keystroke_x	x	n/a
19.4085	0.075	38817	keystroke_Key.space	Key.space	n/a
19.6635	0.15	39327	keystroke_j	j	n/a
19.7685	0.21	39537	keystroke_o	o	n/a
19.8585	0.18	39717	keystroke_i	i	n/a
20.0235	0.135	40047	keystroke_n	n	n/a
20.1735	0.105	40347	keystroke_t	t	n/a
20.4585	0.1355	40917	keystroke_Key.space	Key.space	n/a
20.5485	0.1205	41097	keystroke_a	a	n/a
20.774	0.105	41548	keystroke_r	r	n/a
20.894	0.12	41788	keystroke_i	i	n/a
20.999	0.195	41998	keystroke_s	s	n/a
21.134	0.12	42268	keystroke_e	e	n/a
21.314	0.06	42628	keystroke_Key.enter	Key.enter	n/a
21.378	4.2125	42756	prompt	n/a	using skating cell agreements\n
22.0785	0.03	44157	keystroke_u	u	n/a
22.0935	0.075	44187	keystroke_s	s	n/a
22.184	0.1645	44368	keystroke_i	i	n/a
22.2885	0.12	44577	keystroke_n	n	n/a
22.3935	0.1205	44787	keystroke_g	g	n/a
22.4985	0.0905	44997	keystroke_Key.space	Key.space	n/a
22.709	0.0895	45418	keystroke_s	s	n/a
22.8135	0.09	45627	keystroke_k	k	n/a
22.9185	0.075	45837	keystroke_a	a	n/a
23.1285	0.075	46257	keystroke_t	t	n/a
23.2185	0.12	46437	keystroke_i	i	n/a
23.2935	0.12	46587	keystroke_n	n	n/a
23.3985	0.105	46797	keystroke_g	g	n/a
23.5035	0.0905	47007	keystroke_Key.space	Key.space	n/a
23.638	0.105	47276	keystroke_c	c	n/a
23.848	0.075	47696	keystroke_e	e	n/a
23.9545	0.059	47909	keystroke_l	l	n/a
24.0885	0.1205	48177	keystroke_l	l	n/a
24.1935	0.1055	48387	keystroke_Key.space	Key.space	n/a
24.254	0.09	48508	keystroke_a	a	n/a
24.464	0.1645	48928	keystroke_g	g	n/a
24.569	0.1045	49138	keystroke_r	r	n/a
24.7785	0.06	49557	keystroke_e	e	n/a
24.9285	0.075	49857	keystroke_e	e	n/a
25.0335	0.076	50067	keystroke_m	m	n/a
25.0945	0.089	50189	keystroke_e	e	n/a
25.1985	0.075	50397	keystroke_n	n	n/a
25.2895	0.149	50579	keystroke_t	t	n/a
25.3785	0.105	50757	keystroke_s	s	n/a
25.4985	0.0905	50997	keystroke_Key.enter	Key.enter	n/a
25.593	4.467	51186	prompt	n/a	technology flame winds dawn\n
26.2945	0.134	52589	keystroke_t	t	n/a
26.3685	0.105	52737	keystroke_e	e	n/a
26.6685	0.105	53337	keystroke_c	c	n/a
26.7745	0.059	53549	keystroke_h	h	n/a
26.9385	0.09	53877	keystroke_n	n	n/a
26.9985	0.09	53997	keystroke_o	o	n/a
27.1785	0.06	54357	keystroke_l	l	n/a
27.3285	0.09	54657	keystroke_o	o	n/a
27.4935	0.075	54987	keystroke_g	g	n/a
27.6135	0.105	55227	keystroke_y	y	n/a
27.6735	0.135	55347	keystroke_Key.space	Key.space	n/a
27.8985	0.105	55797	keystroke_f	f	n/a
28.0185	0.09	56037	keystroke_l	l	n/a
28.1235	0.09	56247	keystroke_a	a	n/a
28.2145	0.089	56429	keystroke_m	m	n/a
28.3185	0.09	56637	keystroke_e	e	n/a
28.4235	0.09	56847	keystroke_Key.space	Key.space	n/a
28.4985	0.09	56997	keystroke_w	w	n/a
28.5585	0.135	57117	keystroke_i	i	n/a
28.6335	0.1355	57267	keystroke_n	n	n/a
28.754	0.135	57508	keystroke_d	d	n/a
28.829	0.12	57658	keystroke_s	s	n/a
28.9935	0.0905	57987	keystroke_Key.space	Key.space	n/a
29.144	0.105	58288	keystroke_d	d	n/a
29.459	0.09	58918	keystroke_a	a	n/a
29.639	0.105	59278	keystroke_w	w	n/a
29.714	0.105	59428	keystroke_n	n	n/a
29.9835	0.075	59967	keystroke_Key.enter	Key.enter	n/a
30.075	5.1755	60150	prompt	n/a	doctrine mailed specifically ratio\n
30.7045	0.074	61409	keystroke_d	d	n/a
30.8085	0.09	61617	keystroke_o	o	n/a
30.8835	0.06	61767	keystroke_c	c	n/a
31.1535	0.105	62307	keystroke_t	t	n/a
31.3035	0.09	62607	keystroke_r	r	n/a
31.4085	0.15	62817	keystroke_i	i	n/a
31.4835	0.135	62967	keystroke_n	n	n/a
31.6035	0.09	63207	keystroke_e	e	n/a
31.7085	0.09	63417	keystroke_Key.space	Key.space	n/a
31.8435	0.09	63687	keystroke_m	m	n/a
31.9345	0.09	63869	keystroke_a	a	n/a
32.0395	0.075	64079	keystroke_i	i	n/a
32.204	0.105	64408	keystroke_l	l	n/a
32.279	0.06	64558	keystroke_e	e	n/a
32.444	0.09	64888	keystroke_d	d	n/a
32.549	0.075	65098	keystroke_Key.space	Key.space	n/a
32.669	0.075	65338	keystroke_s	s	n/a
32.744	0.105	65488	keystroke_p	p	n/a
32.864	0.06	65728	keystroke_e	e	n/a
33.059	0.09	66118	keystroke_c	c	n/a
33.209	0.06	66418	keystroke_i	i	n/a
33.284	0.105	66568	keystroke_f	f	n/a
33.419	0.09	66838	keystroke_i	i	n/a
33.5695	0.1645	67139	keystroke_c	c	n/a
33.674	0.135	67348	keystroke_a	a	n/a
33.869	0.015	67738	keystroke_l	l	n/a
33.914	0.0755	67828	keystroke_l	l	n/a
34.0335	0.091	68067	keystroke_y	y	n/a
34.1535	0.105	68307	keystroke_Key.space	Key.space	n/a
34.3035	0.18	68607	keystroke_r	r	n/a
34.4385	0.121	68877	keystroke_a	a	n/a
34.6335	0.106	69267	keystroke_t	t	n/a
34.7245	0.209	69449	keystroke_i	i	n/a
34.8145	0.18	69629	keystroke_o	o	n/a
34.9785	0.075	69957	keystroke_n	n	n/a
35.1735	0.0755	70347	keystroke_Key.enter	Key.enter	n/a
35.254	7.7065	70508	prompt	n/a	mustn't medicine screensaver northern\n
36.3145	0.09	72629	keystroke_m	m	n/a
36.5245	0.1345	73049	keystroke_u	u	n/a
36.599	0.165	73198	keystroke_s	s	n/a
36.779	0.075	73558	keystroke_t	t	n/a
36.9435	0.15	73887	keystroke_n	n	n/a
37.0495	0.12	74099	keystroke_'	'	n/a
37.214	0.1345	74428	keystroke_t	t	n/a
37.3635	0.09	74727	keystroke_Key.space	Key.space	n/a
37.6785	0.12	75357	keystroke_m	m	n/a
37.7835	0.075	75567	keystroke_e	e	n/a
37.9635	0.09	75927	keystroke_d	d	n/a
38.0685	0.09	76137	keystroke_i	i	n/a
38.2035	0.12	76407	keystroke_c	c	n/a
38.2785	0.165	76557	keystroke_i	i	n/a
38.3685	0.165	76737	keystroke_n	n	n/a
38.5185	0.105	77037	keystroke_e	e	n/a
38.6985	0.09	77397	keystroke_Key.space	Key.space	n/a
39.059	0.0895	78118	keystroke_s	s	n/a
39.2235	0.06	78447	keystroke_c	c	n/a
39.4785	0.12	78957	keystroke_r	r	n/a
39.5835	0.09	79167	keystroke_e	e	n/a
39.7635	0.09	79527	keystroke_e	e	n/a
39.929	0.1355	79858	keystroke_n	n	n/a
40.1095	0.075	80219	keystroke_s	s	n/a
40.3045	0.09	80609	keystroke_a	a	n/a
40.4995	0.105	80999	keystroke_v	v	n/a
40.7085	0.151	81417	keystroke_e	e	n/a
40.8145	0.135	81629	keystroke_r	r	n/a
40.9495	0.09	81899	keystroke_Key.space	Key.space	n/a
41.0995	0.135	82199	keystroke_n	n	n/a
41.1895	0.12	82379	keystroke_o	o	n/a
41.3545	0.165	82709	keystroke_r	r	n/a
41.4595	0.15	82919	keystroke_t	t	n/a
41.6545	0.105	83309	keystroke_h	h	n/a
41.7445	0.12	83489	keystroke_e	e	n/a
41.8345	0.119	83669	keystroke_r	r	n/a
42.2835	0.045	84567	keystroke_n	n	n/a
42.8835	0.075	85767	keystroke_Key.enter	Key.enter	n/a
42.9635	4.8875	85927	prompt	n/a	excitement that's winds valid\n
43.5585	0.075	87117	keystroke_e	e	n/a
43.8285	0.09	87657	keystroke_x	x	n/a
43.9945	0.104	87989	keystroke_c	c	n/a
44.1735	0.105	88347	keystroke_i	i	n/a
44.2795	0.104	88559	keystroke_t	t	n/a
44.3535	0.105	88707	keystroke_e	e	n/a
44.9685	0.09	89937	keystroke_m	m	n/a
45.0435	0.09	90087	keystroke_e	e	n/a
45.1485	0.12	90297	keystroke_n	n	n/a
45.2385	0.12	90477	keystroke_t	t	n/a
45.3735	0.105	90747	keystroke_Key.space	Key.space	n/a
45.4635	0.105	90927	keystroke_t	t	n/a
45.5535	0.075	91107	keystroke_h	h	n/a
45.6435	0.12	91287	keystroke_a	a	n/a
45.7485	0.09	91497	keystroke_t	t	n/a
45.8535	0.12	91707	keystroke_'	'	n/a
46.0185	0.105	92037	keystroke_s	s	n/a
46.1685	0.0755	92337	keystroke_Key.space	Key.space	n/a
46.409	0.1045	92818	keystroke_w	w	n/a
46.484	0.09	92968	keystroke_i	i	n/a
46.5585	0.1055	93117	keystroke_n	n	n/a
46.634	0.21	93268	keystroke_d	d	n/a
46.754	0.135	93508	keystroke_s	s	n/a
46.904	0.09	93808	keystroke_Key.space	Key.space	n/a
47.054	0.165	94108	keystroke_v	v	n/a
47.144	0.1505	94288	keystroke_a	a	n/a
47.3095	0.06	94619	keystroke_l	l	n/a
47.4595	0.105	94919	keystroke_i	i	n/a
47.5495	0.105	95099	keystroke_d	d	n/a
47.7745	0.075	95549	keystroke_Key.enter	Key.enter	n/a
47.856	4.8845	95712	prompt	n/a	mercy fleece felt located\n
48.509	0.105	97018	keystroke_m	m	n/a
48.599	0.1495	97198	keystroke_e	e	n/a
48.7035	0.09	97407	keystroke_r	r	n/a
48.9735	0.105	97947	keystroke_c	c	n/a
49.0795	0.089	98159	keystroke_y	y	n/a
49.1385	0.105	98277	keystroke_Key.space	Key.space	n/a
49.2885	0.12	98577	keystroke_f	f	n/a
49.4235	0.105	98847	keystroke_l	l	n/a
49.5135	0.06	99027	keystroke_e	e	n/a
49.8595	0.09	99719	keystroke_e	e	n/a
50.1595	0.12	100319	keystroke_c	c	n/a
50.4295	0.105	100859	keystroke_e	e	n/a
51.0445	0.12	102089	keystroke_Key.space	Key.space	n/a
51.1795	0.165	102359	keystroke_f	f	n/a
51.2395	0.15	102479	keystroke_e	e	n/a
51.3895	0.105	102779	keystroke_l	l	n/a
51.5095	0.135	103019	keystroke_t	t	n/a
51.5695	0.09	103139	keystroke_Key.space	Key.space	n/a
51.7045	0.105	103409	keystroke_l	l	n/a
51.8845	0.105	103769	keystroke_o	o	n/a
51.9595	0.105	103919	keystroke_c	c	n/a
52.0195	0.12	104039	keystroke_a	a	n/a
52.2595	0.119	104519	keystroke_t	t	n/a
52.3485	0.105	104697	keystroke_e	e	n/a
52.5585	0.1055	105117	keystroke_d	d	n/a
52.679	0.06	105358	keystroke_Key.enter	Key.enter	n/a
52.744	5.067	105488	prompt	n/a	narrow questions pest wrapping\n
53.279	0.09	106558	keystroke_n	n	n/a
53.324	0.105	106648	keystroke_a	a	n/a
53.489	0.06	106978	keystroke_r	r	n/a
53.609	0.105	107218	keystroke_r	r	n/a
53.744	0.12	107488	keystroke_o	o	n/a
53.879	0.075	107758	keystroke_w	w	n/a
53.984	0.09	107968	keystroke_Key.space	Key.space	n/a
54.254	0.105	108508	keystroke_q	q	n/a
54.374	0.105	108748	keystroke_u	u	n/a
54.494	0.2995	108988	keystroke_e	e	n/a
54.6135	0.166	109227	keystroke_s	s	n/a
54.7635	0.15	109527	keystroke_t	t	n/a
54.8685	0.18	109737	keystroke_i	i	n/a
54.9735	0.195	109947	keystroke_o	o	n/a
55.1095	0.149	110219	keystroke_n	n	n/a
55.2895	0.104	110579	keystroke_s	s	n/a
55.5885	0.15	111177	keystroke_Key.space	Key.space	n/a
55.9635	0.135	111927	keystroke_p	p	n/a
56.0845	0.195	112169	keystroke_e	e	n/a
56.2035	0.135	112407	keystroke_s	s	n/a
56.3835	0.105	112767	keystroke_t	t	n/a
56.4735	0.105	112947	keystroke_Key.space	Key.space	n/a
56.6385	0.135	113277	keystroke_w	w	n/a
56.7435	0.15	113487	keystroke_r	r	n/a
56.8795	0.105	113759	keystroke_a	a	n/a
56.9985	0.045	113997	keystroke_p	p	n/a
57.1035	0.105	114207	keystroke_p	p	n/a
57.254	0.105	114508	keystroke_i	i	n/a
57.329	0.12	114658	keystroke_n	n	n/a
57.419	0.075	114838	keystroke_g	g	n/a
57.719	0.09	115438	keystroke_Key.enter	Key.enter	n/a
57.814	6.1315	115628	prompt	n/a	wonder differ eyed analytical\n
58.289	0.105	116578	keystroke_w	w	n/a
58.454	0.135	116908	keystroke_o	o	n/a
58.559	0.12	117118	keystroke_n	n	n/a
58.634	0.105	117268	keystroke_d	d	n/a
58.829	0.15	117658	keystroke_e	e	n/a
58.904	0.15	117808	keystroke_r	r	n/a
59.039	0.09	118078	keystroke_Key.space	Key.space	n/a
59.234	0.105	118468	keystroke_d	d	n/a
59.309	0.1355	118618	keystroke_i	i	n/a
59.4595	0.03	118919	keystroke_f	f	n/a
59.5795	0.06	119159	keystroke_f	f	n/a
59.6995	0.165	119399	keystroke_e	e	n/a
59.8045	0.165	119609	keystroke_r	r	n/a
60.1795	0.1195	120359	keystroke_Key.space	Key.space	n/a
60.374	0.105	120748	keystroke_e	e	n/a
60.494	0.15	120988	keystroke_y	y	n/a
60.629	0.105	121258	keystroke_e	e	n/a
60.884	0.105	121768	keystroke_d	d	n/a
60.944	0.105	121888	keystroke_Key.space	Key.space	n/a
61.124	0.105	122248	keystroke_a	a	n/a
61.244	0.09	122488	keystroke_n	n	n/a
61.349	0.075	122698	keystroke_a	a	n/a
61.529	0.09	123058	keystroke_l	l	n/a
61.769	0.09	123538	keystroke_y	y	n/a
62.0245	0.119	124049	keystroke_r	r	n/a
62.6245	0.074	125249	keystroke_Key.backspace	Key.backspace	n/a
62.9085	0.075	125817	keystroke_t	t	n/a
63.0135	0.075	126027	keystroke_i	i	n/a
63.2085	0.121	126417	keystroke_c	c	n/a
63.2845	0.104	126569	keystroke_a	a	n/a
63.4485	0.105	126897	keystroke_l	l	n/a
63.8685	0.075	127737	keystroke_Key.enter	Key.enter	n/a
63.948	7.948	127896	prompt	n/a	developmental subtle livestock ingredients\n
64.6035	0.12	129207	keystroke_d	d	n/a
64.6785	0.106	129357	keystroke_e	e	n/a
64.9035	0.18	129807	keystroke_v	v	n/a
65.0245	0.104	130049	keystroke_e	e	n/a
65.1135	0.105	130227	keystroke_l	l	n/a
65.2935	0.12	130587	keystroke_o	o	n/a
65.3835	0.105	130767	keystroke_p	p	n/a
65.5945	0.074	131189	keystroke_m	m	n/a
65.6385	0.12	131277	keystroke_e	e	n/a
65.8035	0.045	131607	keystroke_n	n	n/a
65.8935	0.075	131787	keystroke_t	t	n/a
66.434	0.105	132868	keystroke_a	a	n/a
66.554	0.12	133108	keystroke_l	l	n/a
66.659	0.09	133318	keystroke_Key.space	Key.space	n/a
67.004	0.075	134008	keystroke_s	s	n/a
67.109	0.135	134218	keystroke_u	u	n/a
67.199	0.1345	134398	keystroke_b	b	n/a
67.3485	0.09	134697	keystroke_t	t	n/a
67.4685	0.106	134937	keystroke_l	l	n/a
67.589	0.075	135178	keystroke_e	e	n/a
67.679	0.075	135358	keystroke_Key.space	Key.space	n/a
67.814	0.075	135628	keystroke_l	l	n/a
67.964	0.1045	135928	keystroke_i	i	n/a
68.0995	0.2245	136199	keystroke_v	v	n/a
68.219	0.15	136438	keystroke_e	e	n/a
68.459	0.075	136918	keystroke_s	s	n/a
68.624	0.105	137248	keystroke_t	t	n/a
68.759	0.09	137518	keystroke_o	o	n/a
68.9995	0.105	137999	keystroke_c	c	n/a
69.0895	0.1195	138179	keystroke_k	k	n/a
69.1945	0.0895	138389	keystroke_Key.space	Key.space	n/a
69.329	0.12	138658	keystroke_i	i	n/a
69.404	0.1505	138808	keystroke_n	n	n/a
69.6145	0.225	139229	keystroke_g	g	n/a
69.7495	0.165	139499	keystroke_r	r	n/a
69.9595	0.1195	139919	keystroke_e	e	n/a
70.499	0.0905	140998	keystroke_d	d	n/a
70.6045	0.104	141209	keystroke_i	i	n/a
70.8435	0.105	141687	keystroke_e	e	n/a
70.9635	0.09	141927	keystroke_n	n	n/a
71.0845	0.1045	142169	keystroke_t	t	n/a
71.324	0.0745	142648	keystroke_s	s	n/a
71.804	0.09	143608	keystroke_Key.enter	Key.enter	n/a
71.905	5.5555	143810	prompt	n/a	violence match ordered dust\n
73.019	0.09	146038	keystroke_v	v	n/a
73.124	0.075	146248	keystroke_i	i	n/a
73.184	0.09	146368	keystroke_o	o	n/a
73.394	0.09	146788	keystroke_l	l	n/a
73.439	0.09	146878	keystroke_e	e	n/a
73.604	0.09	147208	keystroke_n	n	n/a
73.679	0.195	147358	keystroke_c	c	n/a
73.799	0.135	147598	keystroke_e	e	n/a
73.919	0.09	147838	keystroke_Key.space	Key.space	n/a
74.054	0.105	148108	keystroke_m	m	n/a
74.144	0.075	148288	keystroke_a	a	n/a
74.309	0.0755	148618	keystroke_t	t	n/a
74.5645	0.105	149129	keystroke_c	c	n/a
74.6545	0.09	149309	keystroke_h	h	n/a
74.7295	0.09	149459	keystroke_Key.space	Key.space	n/a
74.8645	0.105	149729	keystroke_o	o	n/a
74.9395	0.09	149879	keystroke_r	r	n/a
75.1495	0.09	150299	keystroke_d	d	n/a
75.929	0.165	151858	keystroke_e	e	n/a
76.064	0.2095	152128	keystroke_r	r	n/a
76.1985	0.135	152397	keystroke_e	e	n/a
76.4085	0.15	152817	keystroke_d	d	n/a
76.5435	0.075	153087	keystroke_Key.space	Key.space	n/a
76.6485	0.12	153297	keystroke_d	d	n/a
76.7835	0.15	153567	keystroke_u	u	n/a
76.9635	0.1805	153927	keystroke_s	s	n/a
77.099	0.12	154198	keystroke_t	t	n/a
77.384	0.075	154768	keystroke_Key.enter	Key.enter	n/a
77.4625	5.128	154925	prompt	n/a	mice diane mary newer\n
78.074	0.06	156148	keystroke_m	m	n/a
78.194	0.12	156388	keystroke_i	i	n/a
78.284	0.06	156568	keystroke_c	c	n/a
78.449	0.09	156898	keystroke_e	e	n/a
78.554	0.075	157108	keystroke_Key.space	Key.space	n/a
78.644	0.105	157288	keystroke_d	d	n/a
78.719	0.09	157438	keystroke_i	i	n/a
78.809	0.105	157618	keystroke_a	a	n/a
78.929	0.09	157858	keystroke_n	n	n/a
79.199	0.075	158398	keystroke_e	e	n/a
79.529	0.09	159058	keystroke_Key.space	Key.space	n/a
79.709	0.075	159418	keystroke_m	m	n/a
79.784	0.09	159568	keystroke_a	a	n/a
79.979	0.105	159958	keystroke_r	r	n/a
80.114	0.12	160228	keystroke_y	y	n/a
80.174	0.09	160348	keystroke_Key.space	Key.space	n/a
81.7195	0.12	163439	keystroke_n	n	n/a
81.7945	0.165	163589	keystroke_e	e	n/a
81.8995	0.21	163799	keystroke_w	w	n/a
82.0495	0.135	164099	keystroke_e	e	n/a
82.2595	0.09	164519	keystroke_r	r	n/a
82.5295	0.06	165059	keystroke_Key.enter	Key.enter	n/a
82.5935	6.312	165187	prompt	n/a	shadow permits tunisia wake\n
83.2345	0.12	166469	keystroke_s	s	n/a
83.3095	0.12	166619	keystroke_h	h	n/a
83.4145	0.105	166829	keystroke_a	a	n/a
83.6545	0.105	167309	keystroke_d	d	n/a
83.7595	0.06	167519	keystroke_o	o	n/a
83.8345	0.104	167669	keystroke_w	w	n/a
83.9535	0.105	167907	keystroke_Key.space	Key.space	n/a
84.1485	0.091	168297	keystroke_p	p	n/a
84.2395	0.15	168479	keystroke_e	e	n/a
84.3285	0.12	168657	keystroke_r	r	n/a
84.4195	0.225	168839	keystroke_m	m	n/a
84.5385	0.18	169077	keystroke_i	i	n/a
84.8835	0.226	169767	keystroke_t	t	n/a
85.0335	0.165	170067	keystroke_s	s	n/a
85.2435	0.075	170487	keystroke_Key.space	Key.space	n/a
85.4835	0.165	170967	keystroke_t	t	n/a
85.7235	0.136	171447	keystroke_u	u	n/a
86.384	0.15	172768	keystroke_n	n	n/a
86.489	0.15	172978	keystroke_i	i	n/a
87.389	0.075	174778	keystroke_s	s	n/a
87.509	0.075	175018	keystroke_i	i	n/a
87.599	0.09	175198	keystroke_a	a	n/a
87.704	0.0755	175408	keystroke_Key.space	Key.space	n/a
87.8695	0.165	175739	keystroke_w	w	n/a
87.9745	0.15	175949	keystroke_a	a	n/a
88.0795	0.12	176159	keystroke_k	k	n/a
88.1845	0.09	176369	keystroke_e	e	n/a
88.8295	0.075	177659	keystroke_Key.enter	Key.enter	n/a
88.915	7.4755	177830	prompt	n/a	tell flags approximate gaming\n
89.5645	0.12	179129	keystroke_t	t	n/a
89.6245	0.165	179249	keystroke_e	e	n/a
89.7745	0.03	179549	keystroke_l	l	n/a
89.8795	0.104	179759	keystroke_l	l	n/a
89.9535	0.12	179907	keystroke_Key.space	Key.space	n/a
90.5385	0.105	181077	keystroke_f	f	n/a
90.6445	0.119	181289	keystroke_l	l	n/a
90.749	0.0755	181498	keystroke_a	a	n/a
90.959	0.18	181918	keystroke_g	g	n/a
91.064	0.105	182128	keystroke_s	s	n/a
91.184	0.12	182368	keystroke_Key.space	Key.space	n/a
91.304	0.105	182608	keystroke_a	a	n/a
91.424	0.075	182848	keystroke_p	p	n/a
91.544	0.12	183088	keystroke_p	p	n/a
91.649	0.09	183298	keystroke_r	r	n/a
91.769	0.12	183538	keystroke_o	o	n/a
92.999	0.105	185998	keystroke_x	x	n/a
93.209	0.18	186418	keystroke_i	i	n/a
93.389	0.1645	186778	keystroke_m	m	n/a
93.5245	0.059	187049	keystroke_a	a	n/a
93.7035	0.15	187407	keystroke_t	t	n/a
93.7935	0.105	187587	keystroke_e	e	n/a
93.8995	0.1195	187799	keystroke_Key.space	Key.space	n/a
94.199	0.21	188398	keystroke_g	g	n/a
94.244	0.015	188488	keystroke_a	a	n/a
94.724	0.09	189448	keystroke_a	a	n/a
95.1895	0.075	190379	keystroke_Key.backspace	Key.backspace	n/a
95.3995	0.15	190799	keystroke_m	m	n/a
95.5345	0.18	191069	keystroke_i	i	n/a
95.6545	0.15	191309	keystroke_n	n	n/a
95.7745	0.09	191549	keystroke_g	g	n/a
96.2685	0.12	192537	keystroke_Key.enter	Key.enter	n/a
96.3935	8.1275	192787	prompt	n/a	constitutional frontier disclose taiwan\n
97.0935	0.09	194187	keystroke_c	c	n/a
97.1685	0.18	194337	keystroke_o	o	n/a
97.2585	0.105	194517	keystroke_n	n	n/a
97.3335	0.105	194667	keystroke_s	s	n/a
97.4985	0.121	194997	keystroke_t	t	n/a
97.6945	0.12	195389	keystroke_i	i	n/a
98.744	0.09	197488	keystroke_t	t	n/a
98.879	0.09	197758	keystroke_u	u	n/a
98.999	0.105	197998	keystroke_t	t	n/a
99.089	0.135	198178	keystroke_i	i	n/a
99.194	0.18	198388	keystroke_o	o	n/a
99.284	0.15	198568	keystroke_n	n	n/a
99.449	0.09	198898	keystroke_a	a	n/a
99.524	0.135	199048	keystroke_l	l	n/a
99.644	0.09	199288	keystroke_Key.space	Key.space	n/a
100.094	0.105	200188	keystroke_f	f	n/a
100.319	0.09	200638	keystroke_r	r	n/a
100.424	0.1955	200848	keystroke_o	o	n/a
100.499	0.1655	200998	keystroke_n	n	n/a
100.6795	0.06	201359	keystroke_t	t	n/a
100.7845	0.15	201569	keystroke_i	i	n/a
100.9195	0.165	201839	keystroke_e	e	n/a
101.0245	0.135	202049	keystroke_r	r	n/a
101.2045	0.105	202409	keystroke_Key.space	Key.space	n/a
101.5345	0.06	203069	keystroke_d	d	n/a
101.6395	0.075	203279	keystroke_i	i	n/a
101.7295	0.15	203459	keystroke_s	s	n/a
101.8945	0.15	203789	keystroke_c	c	n/a
102.0595	0.06	204119	keystroke_l	l	n/a
102.2245	0.075	204449	keystroke_o	o	n/a
102.2845	0.195	204569	keystroke_s	s	n/a
102.4195	0.12	204839	keystroke_e	e	n/a
102.5845	0.09	205169	keystroke_Key.space	Key.space	n/a
102.7495	0.105	205499	keystroke_t	t	n/a
102.8845	0.165	205769	keystroke_a	a	n/a
103.3795	0.105	206759	keystroke_i	i	n/a
103.5745	0.1645	207149	keystroke_w	w	n/a
103.679	0.12	207358	keystroke_a	a	n/a
104.099	0.12	208198	keystroke_n	n	n/a
104.429	0.09	208858	keystroke_Key.enter	Key.enter	n/a
104.5305	6.08	209061	prompt	n/a	reducing robust duration senators\n
105.224	0.18	210448	keystroke_r	r	n/a
105.359	0.135	210718	keystroke_e	e	n/a
105.569	0.09	211138	keystroke_d	d	n/a
105.689	0.09	211378	keystroke_u	u	n/a
105.794	0.09	211588	keystroke_c	c	n/a
105.899	0.135	211798	keystroke_i	i	n/a
105.974	0.15	211948	keystroke_n	n	n/a
106.124	0.075	212248	keystroke_g	g	n/a
106.214	0.105	212428	keystroke_Key.space	Key.space	n/a
106.379	0.15	212758	keystroke_r	r	n/a
106.514	0.15	213028	keystroke_o	o	n/a
106.619	0.24	213238	keystroke_b	b	n/a
106.784	0.225	213568	keystroke_u	u	n/a
106.964	0.165	213928	keystroke_s	s	n/a
107.159	0.12	214318	keystroke_t	t	n/a
107.324	0.075	214648	keystroke_Key.space	Key.space	n/a
107.564	0.075	215128	keystroke_d	d	n/a
107.639	0.135	215278	keystroke_u	u	n/a
107.789	0.12	215578	keystroke_r	r	n/a
107.879	0.075	215758	keystroke_a	a	n/a
108.044	0.105	216088	keystroke_t	t	n/a
108.119	0.18	216238	keystroke_i	i	n/a
108.209	0.18	216418	keystroke_o	o	n/a
108.269	0.255	216538	keystroke_n	n	n/a
108.404	0.105	216808	keystroke_Key.space	Key.space	n/a
108.6585	0.12	217317	keystroke_s	s	n/a
108.8685	0.091	217737	keystroke_e	e	n/a
109.0935	0.12	218187	keystroke_n	n	n/a
109.4985	0.135	218997	keystroke_a	a	n/a
109.7085	0.09	219417	keystroke_t	t	n/a
109.8435	0.09	219687	keystroke_o	o	n/a
109.9635	0.09	219927	keystroke_r	r	n/a
110.1435	0.09	220287	keystroke_s	s	n/a
110.4735	0.135	220947	keystroke_Key.enter	Key.enter	n/a
110.6135	8.2175	221227	prompt	n/a	casio qualification satisfied reserved\n
111.4035	0.18	222807	keystroke_c	c	n/a
111.5235	0.15	223047	keystroke_a	a	n/a
111.5985	0.165	223197	keystroke_s	s	n/a
111.7335	0.15	223467	keystroke_i	i	n/a
111.8235	0.15	223647	keystroke_o	o	n/a
111.9435	0.12	223887	keystroke_Key.space	Key.space	n/a
112.2735	0.105	224547	keystroke_q	q	n/a
112.3795	0.119	224759	keystroke_u	u	n/a
112.5435	0.105	225087	keystroke_a	a	n/a
112.6635	0.105	225327	keystroke_l	l	n/a
112.8735	0.09	225747	keystroke_i	i	n/a
113.309	0.105	226618	keystroke_f	f	n/a
113.579	0.105	227158	keystroke_i	i	n/a
113.714	0.15	227428	keystroke_c	c	n/a
113.789	0.135	227578	keystroke_a	a	n/a
114.104	0.105	228208	keystroke_t	t	n/a
114.164	0.21	228328	keystroke_i	i	n/a
114.269	0.21	228538	keystroke_o	o	n/a
114.404	0.195	228808	keystroke_n	n	n/a
114.539	0.135	229078	keystroke_Key.space	Key.space	n/a
114.764	0.105	229528	keystroke_s	s	n/a
114.974	0.075	229948	keystroke_a	a	n/a
115.169	0.075	230338	keystroke_t	t	n/a
115.334	0.105	230668	keystroke_i	i	n/a
115.709	0.12	231418	keystroke_s	s	n/a
116.279	0.075	232558	keystroke_f	f	n/a
116.369	0.105	232738	keystroke_i	i	n/a
116.459	0.075	232918	keystroke_e	e	n/a
116.654	0.105	233308	keystroke_d	d	n/a
116.819	0.12	233638	keystroke_Key.space	Key.space	n/a
117.254	0.15	234508	keystroke_r	r	n/a
117.344	0.165	234688	keystroke_e	e	n/a
117.524	0.21	235048	keystroke_s	s	n/a
117.629	0.21	235258	keystroke_e	e	n/a
117.779	0.135	235558	keystroke_r	r	n/a
117.959	0.12	235918	keystroke_v	v	n/a
118.064	0.09	236128	keystroke_e	e	n/a
118.244	0.075	236488	keystroke_d	d	n/a
118.709	0.12	237418	keystroke_Key.enter	Key.enter	n/a
118.8415	5.344	237683	prompt	n/a	equally pumps somalia cream\n
119.7135	0.18	239427	keystroke_e	e	n/a
119.819	0.1195	239638	keystroke_q	q	n/a
119.9685	0.075	239937	keystroke_u	u	n/a
120.0735	0.105	240147	keystroke_a	a	n/a
120.1635	0.06	240327	keystroke_l	l	n/a
120.3735	0.03	240747	keystroke_l	l	n/a
120.3885	0.12	240777	keystroke_y	y	n/a
120.5095	0.06	241019	keystroke_Key.space	Key.space	n/a
120.584	0.12	241168	keystroke_p	p	n/a
120.779	0.09	241558	keystroke_u	u	n/a
121.019	0.135	242038	keystroke_m	m	n/a
121.109	0.135	242218	keystroke_p	p	n/a
121.289	0.12	242578	keystroke_s	s	n/a
121.424	0.105	242848	keystroke_Key.space	Key.space	n/a
121.604	0.105	243208	keystroke_s	s	n/a
121.724	0.09	243448	keystroke_o	o	n/a
121.9185	0.09	243837	keystroke_m	m	n/a
122.0235	0.1205	244047	keystroke_a	a	n/a
122.1745	0.0745	244349	keystroke_l	l	n/a
122.339	0.09	244678	keystroke_i	i	n/a
122.4445	0.0745	244889	keystroke_a	a	n/a
122.834	0.105	245668	keystroke_Key.space	Key.space	n/a
123.134	0.105	246268	keystroke_c	c	n/a
123.419	0.1645	246838	keystroke_r	r	n/a
123.5085	0.24	247017	keystroke_e	e	n/a
123.6885	0.1505	247377	keystroke_a	a	n/a
123.9135	0.0905	247827	keystroke_m	m	n/a
124.094	0.09	248188	keystroke_Key.enter	Key.enter	n/a
124.188	4.3925	248376	prompt	n/a	lose dicke year toilet\n
124.709	0.075	249418	keystroke_l	l	n/a
124.889	0.075	249778	keystroke_o	o	n/a
124.949	0.18	249898	keystroke_s	s	n/a
125.084	0.12	250168	keystroke_e	e	n/a
125.189	0.09	250378	keystroke_Key.space	Key.space	n/a
125.309	0.09	250618	keystroke_d	d	n/a
125.354	0.105	250708	keystroke_i	i	n/a
125.519	0.105	251038	keystroke_c	c	n/a
125.609	0.12	251218	keystroke_k	k	n/a
125.774	0.09	251548	keystroke_e	e	n/a
126.179	0.1055	252358	keystroke_Key.space	Key.space	n/a
126.4495	0.1345	252899	keystroke_y	y	n/a
126.5245	0.2395	253049	keystroke_e	e	n/a
126.674	0.21	253348	keystroke_a	a	n/a
126.809	0.15	253618	keystroke_r	r	n/a
127.109	0.135	254218	keystroke_Key.space	Key.space	n/a
127.574	0.105	255148	keystroke_t	t	n/a
127.634	0.165	255268	keystroke_o	o	n/a
127.769	0.12	255538	keystroke_i	i	n/a
127.964	0.135	255928	keystroke_l	l	n/a
128.069	0.18	256138	keystroke_e	e	n/a
128.174	0.15	256348	keystroke_t	t	n/a
128.474	0.105	256948	keystroke_Key.enter	Key.enter	n/a
128.5835	6.4475	257167	prompt	n/a	peter internal agreements protocols\n
129.134	0.12	258268	keystroke_p	p	n/a
129.179	0.21	258358	keystroke_e	e	n/a
129.374	0.18	258748	keystroke_t	t	n/a
129.584	0.18	259168	keystroke_e	e	n/a
129.704	0.15	259408	keystroke_r	r	n/a
129.869	0.09	259738	keystroke_Key.space	Key.space	n/a
130.049	0.075	260098	keystroke_i	i	n/a
130.259	0.075	260518	keystroke_n	n	n/a
130.304	0.105	260608	keystroke_t	t	n/a
130.469	0.15	260938	keystroke_e	e	n/a
130.529	0.106	261058	keystroke_r	r	n/a
130.679	0.09	261358	keystroke_n	n	n/a
130.829	0.1205	261658	keystroke_a	a	n/a
130.9345	0.12	261869	keystroke_l	l	n/a
131.0395	0.105	262079	keystroke_Key.space	Key.space	n/a
131.2045	0.09	262409	keystroke_a	a	n/a
131.3995	0.15	262799	keystroke_g	g	n/a
131.4895	0.165	262979	keystroke_r	r	n/a
131.7145	0.075	263429	keystroke_e	e	n/a
131.8795	0.09	263759	keystroke_e	e	n/a
131.9545	0.075	263909	keystroke_m	m	n/a
132.0895	0.12	264179	keystroke_e	e	n/a
132.2245	0.12	264449	keystroke_n	n	n/a
132.3595	0.15	264719	keystroke_t	t	n/a
132.4195	0.164	264839	keystroke_s	s	n/a
132.7185	0.105	265437	keystroke_Key.space	Key.space	n/a
133.004	0.1645	266008	keystroke_p	p	n/a
133.1985	0.105	266397	keystroke_r	r	n/a
133.3335	0.105	266667	keystroke_o	o	n/a
133.4985	0.105	266997	keystroke_t	t	n/a
133.6185	0.12	267237	keystroke_o	o	n/a
133.9635	0.09	267927	keystroke_c	c	n/a
134.0685	0.09	268137	keystroke_o	o	n/a
134.2335	0.075	268467	keystroke_l	l	n/a
134.489	0.12	268978	keystroke_s	s	n/a
134.939	0.09	269878	keystroke_Key.enter	Key.enter	n/a
135.0385	9.6075	270077	prompt	n/a	nation chevy incorrect capability\n
135.539	0.105	271078	keystroke_n	n	n/a
135.584	0.09	271168	keystroke_a	a	n/a
135.749	0.105	271498	keystroke_t	t	n/a
135.809	0.165	271618	keystroke_i	i	n/a
135.914	0.15	271828	keystroke_o	o	n/a
136.004	0.15	272008	keystroke_n	n	n/a
136.109	0.12	272218	keystroke_Key.space	Key.space	n/a
136.334	0.1055	272668	keystroke_c	c	n/a
136.5295	0.09	273059	keystroke_h	h	n/a
136.6045	0.105	273209	keystroke_e	e	n/a
136.7695	0.105	273539	keystroke_y	y	n/a
136.8295	0.105	273659	keystroke_Key.space	Key.space	n/a
137.4595	0.06	274919	keystroke_Key.backspace	Key.backspace	n/a
137.5945	0.06	275189	keystroke_Key.backspace	Key.backspace	n/a
137.7445	0.09	275489	keystroke_v	v	n/a
138.0295	0.165	276059	keystroke_y	y	n/a
138.2545	0.105	276509	keystroke_Key.space	Key.space	n/a
138.5545	0.1195	277109	keystroke_i	i	n/a
138.794	0.12	277588	keystroke_n	n	n/a
139.139	0.135	278278	keystroke_c	c	n/a
139.289	0.075	278578	keystroke_o	o	n/a
139.454	0.09	278908	keystroke_r	r	n/a
139.649	0.15	279298	keystroke_r	r	n/a
139.769	0.105	279538	keystroke_e	e	n/a
140.024	0.09	280048	keystroke_c	c	n/a
140.339	0.045	280678	keystroke_t	t	n/a
140.969	0.12	281938	keystroke_Key.space	Key.space	n/a
141.314	0.15	282628	keystroke_c	c	n/a
141.419	0.09	282838	keystroke_a	a	n/a
141.494	0.12	282988	keystroke_p	p	n/a
141.629	0.135	283258	keystroke_a	a	n/a
141.794	0.105	283588	keystroke_c	c	n/a
142.394	0.06	284788	keystroke_Key.backspace	Key.backspace	n/a
142.679	0.075	285358	keystroke_b	b	n/a
142.844	0.06	285688	keystroke_i	i	n/a
142.994	0.12	285988	keystroke_l	l	n/a
143.129	0.105	286258	keystroke_i	i	n/a
143.264	0.09	286528	keystroke_t	t	n/a
143.384	0.12	286768	keystroke_y	y	n/a
143.459	0.105	286918	keystroke_Key.space	Key.space	n/a
144.164	0.06	288328	keystroke_Key.backspace	Key.backspace	n/a
144.539	0.105	289078	keystroke_Key.enter	Key.enter	n/a
144.655	5.3155	289310	prompt	n/a	placed pregnancy babes safety\n
145.184	0.12	290368	keystroke_p	p	n/a
145.364	0.135	290728	keystroke_l	l	n/a
145.484	0.165	290968	keystroke_a	a	n/a
145.634	0.12	291268	keystroke_c	c	n/a
145.799	0.12	291598	keystroke_e	e	n/a
145.994	0.105	291988	keystroke_d	d	n/a
146.084	0.075	292168	keystroke_Key.space	Key.space	n/a
146.204	0.135	292408	keystroke_p	p	n/a
146.399	0.15	292798	keystroke_r	r	n/a
146.504	0.105	293008	keystroke_e	e	n/a
146.699	0.09	293398	keystroke_g	g	n/a
146.819	0.075	293638	keystroke_n	n	n/a
146.939	0.105	293878	keystroke_a	a	n/a
147.029	0.09	294058	keystroke_n	n	n/a
147.224	0.075	294448	keystroke_c	c	n/a
147.344	0.135	294688	keystroke_y	y	n/a
147.464	0.12	294928	keystroke_Key.space	Key.space	n/a
147.839	0.075	295678	keystroke_b	b	n/a
147.929	0.105	295858	keystroke_a	a	n/a
148.049	0.0755	296098	keystroke_b	b	n/a
148.1845	0.21	296369	keystroke_e	e	n/a
148.3195	0.15	296639	keystroke_s	s	n/a
148.4545	0.105	296909	keystroke_Key.space	Key.space	n/a
148.5745	0.075	297149	keystroke_s	s	n/a
148.7535	0.076	297507	keystroke_a	a	n/a
148.9045	0.165	297809	keystroke_f	f	n/a
149.0095	0.09	298019	keystroke_e	e	n/a
149.2495	0.119	298499	keystroke_t	t	n/a
149.3845	0.059	298769	keystroke_y	y	n/a
149.8485	0.1205	299697	keystroke_Key.enter	Key.enter	n/a
149.973	6.7025	299946	prompt	n/a	certainly thong electronics purchased\n
150.569	0.075	301138	keystroke_c	c	n/a
150.764	0.135	301528	keystroke_e	e	n/a
150.839	0.105	301678	keystroke_r	r	n/a
151.049	0.06	302098	keystroke_t	t	n/a
151.169	0.135	302338	keystroke_a	a	n/a
151.289	0.165	302578	keystroke_i	i	n/a
151.364	0.12	302728	keystroke_n	n	n/a
151.604	0.12	303208	keystroke_l	l	n/a
151.814	0.1645	303628	keystroke_y	y	n/a
151.8745	0.059	303749	keystroke_Key.space	Key.space	n/a
152.249	0.075	304498	keystroke_t	t	n/a
152.354	0.105	304708	keystroke_h	h	n/a
152.429	0.15	304858	keystroke_o	o	n/a
152.549	0.105	305098	keystroke_n	n	n/a
152.669	0.105	305338	keystroke_g	g	n/a
153.239	0.09	306478	keystroke_Key.space	Key.space	n/a
153.344	0.105	306688	keystroke_e	e	n/a
153.464	0.105	306928	keystroke_l	l	n/a
153.524	0.075	307048	keystroke_e	e	n/a
153.7335	0.075	307467	keystroke_c	c	n/a
153.9885	0.165	307977	keystroke_t	t	n/a
154.0785	0.15	308157	keystroke_r	r	n/a
154.2135	0.18	308427	keystroke_o	o	n/a
154.3335	0.165	308667	keystroke_n	n	n/a
154.4385	0.18	308877	keystroke_i	i	n/a
154.7535	0.1805	309507	keystroke_c	c	n/a
154.844	0.12	309688	keystroke_s	s	n/a
155.054	0.0745	310108	keystroke_Key.space	Key.space	n/a
155.2485	0.091	310497	keystroke_p	p	n/a
155.4435	0.09	310887	keystroke_u	u	n/a
155.5485	0.09	311097	keystroke_r	r	n/a
155.7735	0.135	311547	keystroke_c	c	n/a
155.8635	0.106	311727	keystroke_h	h	n/a
156.0145	0.105	312029	keystroke_a	a	n/a
156.0595	0.105	312119	keystroke_s	s	n/a
156.2835	0.061	312567	keystroke_e	e	n/a
156.4495	0.059	312899	keystroke_d	d	n/a
156.5985	0.075	313197	keystroke_Key.enter	Key.enter	n/a
156.6775	10.6635	313355	prompt	n/a	variables humanity expenditures lots\n
157.2895	0.149	314579	keystroke_v	v	n/a
157.3635	0.166	314727	keystroke_a	a	n/a
157.6185	0.09	315237	keystroke_r	r	n/a
157.6935	0.075	315387	keystroke_i	i	n/a
157.7985	0.105	315597	keystroke_a	a	n/a
157.8885	0.1505	315777	keystroke_b	b	n/a
157.994	0.15	315988	keystroke_l	l	n/a
158.084	0.18	316168	keystroke_e	e	n/a
158.174	0.15	316348	keystroke_s	s	n/a
158.294	0.09	316588	keystroke_Key.space	Key.space	n/a
158.399	0.075	316798	keystroke_h	h	n/a
158.444	0.105	316888	keystroke_u	u	n/a
158.654	0.075	317308	keystroke_m	m	n/a
158.744	0.09	317488	keystroke_a	a	n/a
158.849	0.135	317698	keystroke_n	n	n/a
159.404	0.075	318808	keystroke_Key.backspace	Key.backspace	n/a
160.064	0.135	320128	keystroke_n	n	n/a
160.154	0.135	320308	keystroke_i	i	n/a
160.319	0.09	320638	keystroke_t	t	n/a
160.439	0.12	320878	keystroke_y	y	n/a
160.514	0.105	321028	keystroke_Key.space	Key.space	n/a
160.859	0.075	321718	keystroke_e	e	n/a
161.069	0.105	322138	keystroke_x	x	n/a
161.175	0.104	322350	keystroke_p	p	n/a
161.324	0.075	322648	keystroke_e	e	n/a
161.414	0.09	322828	keystroke_n	n	n/a
161.579	0.165	323158	keystroke_d	d	n/a
161.684	0.12	323368	keystroke_e	e	n/a
161.849	0.09	323698	keystroke_n	n	n/a
164.4165	0.001	328833	keystroke_Key.backspace	Key.backspace	n/a
164.4885	0.09	328977	keystroke_Key.backspace	Key.backspace	n/a
165.3585	0.105	330717	keystroke_i	i	n/a
165.4785	0.09	330957	keystroke_t	t	n/a
165.5995	0.149	331199	keystroke_u	u	n/a
165.6885	0.255	331377	keystroke_r	r	n/a
165.8095	0.254	331619	keystroke_e	e	n/a
165.9895	0.18	331979	keystroke_s	s	n/a
166.1535	0.105	332307	keystroke_Key.space	Key.space	n/a
166.3495	0.09	332699	keystroke_l	l	n/a
166.5135	0.09	333027	keystroke_o	o	n/a
166.6785	0.211	333357	keystroke_t	t	n/a
166.7985	0.135	333597	keystroke_s	s	n/a
167.2335	0.105	334467	keystroke_Key.enter	Key.enter	n/a
167.35	4.2505	334700	prompt	n/a	leave hottest nick sing\n
167.894	0.12	335788	keystroke_l	l	n/a
167.999	0.105	335998	keystroke_e	e	n/a
168.074	0.18	336148	keystroke_a	a	n/a
168.194	0.225	336388	keystroke_v	v	n/a
168.329	0.165	336658	keystroke_e	e	n/a
168.479	0.1045	336958	keystroke_Key.space	Key.space	n/a
168.6285	0.03	337257	keystroke_t	t	n/a
168.6885	0.075	337377	keystroke_h	h	n/a
168.9585	0.045	337917	keystroke_Key.backspace	Key.backspace	n/a
169.0785	0.06	338157	keystroke_Key.backspace	Key.backspace	n/a
169.2735	0.105	338547	keystroke_h	h	n/a
169.3485	0.121	338697	keystroke_o	o	n/a
169.4385	0.06	338877	keystroke_t	t	n/a
169.5885	0.18	339177	keystroke_t	t	n/a
169.6785	0.225	339357	keystroke_e	e	n/a
169.7985	0.21	339597	keystroke_s	s	n/a
170.0535	0.09	340107	keystroke_t	t	n/a
170.2785	0.09	340557	keystroke_Key.space	Key.space	n/a
170.4585	0.135	340917	keystroke_n	n	n/a
170.5635	0.12	341127	keystroke_i	i	n/a
170.7135	0.135	341427	keystroke_c	c	n/a
170.8335	0.135	341667	keystroke_k	k	n/a
170.9235	0.105	341847	keystroke_Key.space	Key.space	n/a
171.0135	0.12	342027	keystroke_s	s	n/a
171.1185	0.1205	342237	keystroke_i	i	n/a
171.194	0.1495	342388	keystroke_n	n	n/a
171.3585	0.0755	342717	keystroke_g	g	n/a
171.494	0.105	342988	keystroke_Key.enter	Key.enter	n/a
171.6025	13.7535	343205	prompt	n/a	infrastructure thumbs verzeichnis aluminum\n
172.304	0.135	344608	keystroke_i	i	n/a
172.409	0.105	344818	keystroke_n	n	n/a
172.709	0.06	345418	keystroke_f	f	n/a
172.724	0.105	345448	keystroke_r	r	n/a
172.919	0.165	345838	keystroke_a	a	n/a
173.009	0.12	346018	keystroke_s	s	n/a
173.279	0.135	346558	keystroke_t	t	n/a
173.354	0.12	346708	keystroke_r	r	n/a
173.519	0.105	347038	keystroke_u	u	n/a
173.654	0.09	347308	keystroke_c	c	n/a
173.894	0.09	347788	keystroke_t	t	n/a
174.074	0.135	348148	keystroke_u	u	n/a
174.179	0.165	348358	keystroke_r	r	n/a
174.299	0.105	348598	keystroke_e	e	n/a
174.419	0.075	348838	keystroke_Key.space	Key.space	n/a
174.509	0.135	349018	keystroke_t	t	n/a
174.584	0.09	349168	keystroke_h	h	n/a
174.659	0.091	349318	keystroke_u	u	n/a
174.839	0.075	349678	keystroke_m	m	n/a
175.019	0.075	350038	keystroke_b	b	n/a
175.124	0.075	350248	keystroke_s	s	n/a
175.229	0.105	350458	keystroke_Key.space	Key.space	n/a
175.589	0.105	351178	keystroke_c	c	n/a
176.294	0.09	352588	keystroke_Key.backspace	Key.backspace	n/a
176.414	0.09	352828	keystroke_v	v	n/a
176.654	0.18	353308	keystroke_e	e	n/a
176.744	0.165	353488	keystroke_r	r	n/a
177.269	0.075	354538	keystroke_z	z	n/a
177.524	0.075	355048	keystroke_e	e	n/a
177.644	0.12	355288	keystroke_i	i	n/a
177.809	0.12	355618	keystroke_c	c	n/a
177.959	0.06	355918	keystroke_h	h	n/a
178.199	0.105	356398	keystroke_n	n	n/a
178.289	0.15	356578	keystroke_i	i	n/a
178.454	0.09	356908	keystroke_s	s	n/a
178.589	0.075	357178	keystroke_Key.space	Key.space	n/a
182.4915	0.043	364983	keystroke_a	a	n/a
182.5635	0.0755	365127	keystroke_l	l	n/a
182.7595	0.0745	365519	keystroke_u	u	n/a
182.999	0.075	365998	keystroke_m	m	n/a
184.3645	0.15	368729	keystroke_i	i	n/a
184.4995	0.15	368999	keystroke_n	n	n/a
184.6645	0.09	369329	keystroke_u	u	n/a
184.8895	0.105	369779	keystroke_m	m	n/a
185.2645	0.09	370529	keystroke_Key.enter	Key.enter	n/a
185.3655	4.25	370731	prompt	n/a	remote occur fault dairy\n
186.0285	0.1655	372057	keystroke_r	r	n/a
186.1335	0.1055	372267	keystroke_e	e	n/a
186.209	0.135	372418	keystroke_m	m	n/a
186.27	0.149	372540	keystroke_o	o	n/a
186.359	0.18	372718	keystroke_t	t	n/a
186.464	0.135	372928	keystroke_e	e	n/a
186.584	0.105	373168	keystroke_Key.space	Key.space	n/a
186.779	0.12	373558	keystroke_o	o	n/a
186.959	0.075	373918	keystroke_c	c	n/a
187.094	0.09	374188	keystroke_c	c	n/a
187.199	0.135	374398	keystroke_u	u	n/a
187.364	0.105	374728	keystroke_r	r	n/a
187.47	0.074	374940	keystroke_Key.space	Key.space	n/a
187.619	0.15	375238	keystroke_f	f	n/a
187.709	0.15	375418	keystroke_a	a	n/a
187.784	0.09	375568	keystroke_u	u	n/a
187.994	0.075	375988	keystroke_l	l	n/a
188.084	0.135	376168	keystroke_t	t	n/a
188.204	0.105	376408	keystroke_Key.space	Key.space	n/a
188.474	0.21	376948	keystroke_d	d	n/a
188.669	0.135	377338	keystroke_a	a	n/a
188.864	0.1355	377728	keystroke_i	i	n/a
189.0895	0.105	378179	keystroke_r	r	n/a
189.2545	0.09	378509	keystroke_y	y	n/a
189.5245	0.09	379049	keystroke_Key.enter	Key.enter	n/a
189.6195	4.226	379239	prompt	n/a	fruit tones natural hobbies\n
190.454	0.15	380908	keystroke_f	f	n/a
190.589	0.18	381178	keystroke_r	r	n/a
190.739	0.135	381478	keystroke_u	u	n/a
190.829	0.12	381658	keystroke_i	i	n/a
190.934	0.09	381868	keystroke_t	t	n/a
191.024	0.075	382048	keystroke_Key.space	Key.space	n/a
191.114	0.09	382228	keystroke_t	t	n/a
191.174	0.165	382348	keystroke_o	o	n/a
191.264	0.135	382528	keystroke_n	n	n/a
191.369	0.195	382738	keystroke_e	e	n/a
191.489	0.135	382978	keystroke_s	s	n/a
191.609	0.09	383218	keystroke_Key.space	Key.space	n/a
191.729	0.12	383458	keystroke_n	n	n/a
191.804	0.075	383608	keystroke_a	a	n/a
191.999	0.09	383998	keystroke_t	t	n/a
192.134	0.135	384268	keystroke_u	u	n/a
192.254	0.12	384508	keystroke_r	r	n/a
192.494	0.12	384988	keystroke_a	a	n/a
192.599	0.15	385198	keystroke_l	l	n/a
192.719	0.09	385438	keystroke_Key.space	Key.space	n/a
192.914	0.105	385828	keystroke_h	h	n/a
192.959	0.12	385918	keystroke_o	o	n/a
193.184	0.06	386368	keystroke_b	b	n/a
193.304	0.12	386608	keystroke_b	b	n/a
193.379	0.135	386758	keystroke_i	i	n/a
193.499	0.195	386998	keystroke_e	e	n/a
193.589	0.15	387178	keystroke_s	s	n/a
193.754	0.09	387508	keystroke_Key.enter	Key.enter	n/a
193.8515	5.829	387703	prompt	n/a	formatting expand revision inner\n
194.444	0.105	388888	keystroke_f	f	n/a
194.534	0.09	389068	keystroke_o	o	n/a
194.669	0.09	389338	keystroke_r	r	n/a
194.774	0.075	389548	keystroke_m	m	n/a
194.939	0.06	389878	keystroke_a	a	n/a
195.479	0.075	390958	keystroke_t	t	n/a
195.629	0.0755	391258	keystroke_t	t	n/a
195.719	0.15	391438	keystroke_i	i	n/a
195.809	0.105	391618	keystroke_n	n	n/a
195.929	0.0905	391858	keystroke_g	g	n/a
196.0645	0.045	392129	keystroke_Key.space	Key.space	n/a
196.0795	0.09	392159	keystroke_e	e	n/a
196.3195	0.135	392639	keystroke_x	x	n/a
196.4995	0.12	392999	keystroke_p	p	n/a
196.6645	0.105	393329	keystroke_a	a	n/a
196.7995	0.06	393599	keystroke_n	n	n/a
196.9195	0.09	393839	keystroke_d	d	n/a
196.9935	0.09	393987	keystroke_Key.space	Key.space	n/a
197.2795	0.089	394559	keystroke_v	v	n/a
197.5645	0.06	395129	keystroke_Key.backspace	Key.backspace	n/a
197.6545	0.135	395309	keystroke_r	r	n/a
197.7285	0.121	395457	keystroke_e	e	n/a
198.0895	0.09	396179	keystroke_v	v	n/a
198.1945	0.09	396389	keystroke_i	i	n/a
198.3145	0.105	396629	keystroke_s	s	n/a
198.4045	0.135	396809	keystroke_i	i	n/a
198.5095	0.195	397019	keystroke_o	o	n/a
198.6445	0.18	397289	keystroke_n	n	n/a
198.7945	0.089	397589	keystroke_Key.space	Key.space	n/a
198.9295	0.135	397859	keystroke_i	i	n/a
199.0195	0.135	398039	keystroke_n	n	n/a
199.2145	0.105	398429	keystroke_n	n	n/a
199.2895	0.15	398579	keystroke_e	e	n/a
199.3945	0.135	398789	keystroke_r	r	n/a
199.5745	0.104	399149	keystroke_Key.enter	Key.enter	n/a
199.683	7.828	399366	prompt	n/a	brunette lanes coupon subsidiary\n
200.4895	0.12	400979	keystroke_b	b	n/a
200.6245	0.135	401249	keystroke_r	r	n/a
200.7145	0.105	401429	keystroke_u	u	n/a
202.1835	0.106	404367	keystroke_n	n	n/a
202.3035	0.09	404607	keystroke_e	e	n/a
202.5135	0.0605	405027	keystroke_t	t	n/a
202.649	0.18	405298	keystroke_t	t	n/a
202.754	0.135	405508	keystroke_e	e	n/a
202.904	0.09	405808	keystroke_Key.space	Key.space	n/a
203.024	0.105	406048	keystroke_l	l	n/a
203.114	0.075	406228	keystroke_a	a	n/a
203.234	0.12	406468	keystroke_n	n	n/a
203.339	0.18	406678	keystroke_e	e	n/a
203.444	0.135	406888	keystroke_s	s	n/a
203.564	0.09	407128	keystroke_Key.space	Key.space	n/a
203.699	0.135	407398	keystroke_c	c	n/a
203.759	0.135	407518	keystroke_o	o	n/a
203.864	0.09	407728	keystroke_u	u	n/a
204.029	0.18	408058	keystroke_p	p	n/a
204.149	0.24	408298	keystroke_o	o	n/a
204.284	0.21	408568	keystroke_n	n	n/a
204.464	0.12	408928	keystroke_Key.space	Key.space	n/a
204.599	0.1495	409198	keystroke_s	s	n/a
204.8835	0.181	409767	keystroke_u	u	n/a
204.9885	0.166	409977	keystroke_b	b	n/a
205.1845	0.105	410369	keystroke_s	s	n/a
205.2895	0.12	410579	keystroke_i	i	n/a
205.5445	0.165	411089	keystroke_d	d	n/a
205.6195	0.15	411239	keystroke_a	a	n/a
206.0845	0.06	412169	keystroke_Key.backspace	Key.backspace	n/a
206.2945	0.09	412589	keystroke_i	i	n/a
206.3695	0.195	412739	keystroke_a	a	n/a
206.5195	0.15	413039	keystroke_r	r	n/a
206.6545	0.105	413309	keystroke_y	y	n/a
207.4195	0.09	414839	keystroke_Key.enter	Key.enter	n/a
207.52	6.2455	415040	prompt	n/a	potentially difficult font pregnant\n
208.3195	0.21	416639	keystroke_p	p	n/a
208.4695	0.15	416939	keystroke_o	o	n/a
208.6645	0.15	417329	keystroke_t	t	n/a
208.7395	0.135	417479	keystroke_e	e	n/a
208.8595	0.075	417719	keystroke_n	n	n/a
208.9495	0.12	417899	keystroke_t	t	n/a
209.0545	0.075	418109	keystroke_i	i	n/a
209.1445	0.105	418289	keystroke_a	a	n/a
209.2795	0.06	418559	keystroke_l	l	n/a
209.3995	0.1045	418799	keystroke_l	l	n/a
209.5195	0.105	419039	keystroke_y	y	n/a
209.6085	0.12	419217	keystroke_Key.space	Key.space	n/a
209.8345	0.0745	419669	keystroke_d	d	n/a
209.924	0.09	419848	keystroke_i	i	n/a
210.074	0.105	420148	keystroke_f	f	n/a
210.269	0.075	420538	keystroke_f	f	n/a
210.449	0.105	420898	keystroke_i	i	n/a
210.629	0.1055	421258	keystroke_c	c	n/a
210.7945	0.06	421589	keystroke_u	u	n/a
211.0195	0.105	422039	keystroke_l	l	n/a
211.1395	0.105	422279	keystroke_t	t	n/a
211.2595	0.1045	422519	keystroke_Key.space	Key.space	n/a
211.454	0.12	422908	keystroke_f	f	n/a
211.544	0.18	423088	keystroke_o	o	n/a
211.649	0.12	423298	keystroke_n	n	n/a
211.8445	0.1045	423689	keystroke_t	t	n/a
212.0695	0.12	424139	keystroke_Key.space	Key.space	n/a
212.3845	0.105	424769	keystroke_p	p	n/a
212.5345	0.135	425069	keystroke_r	r	n/a
212.6095	0.12	425219	keystroke_e	e	n/a
212.8045	0.105	425609	keystroke_g	g	n/a
212.9545	0.03	425909	keystroke_n	n	n/a
213.0145	0.15	426029	keystroke_a	a	n/a
213.1195	0.09	426239	keystroke_n	n	n/a
213.3145	0.075	426629	keystroke_t	t	n/a
213.6295	0.135	427259	keystroke_Key.enter	Key.enter	n/a
213.7705	5.935	427541	prompt	n/a	antibody citizenship toll signal\n
214.4085	0.09	428817	keystroke_a	a	n/a
214.5285	0.1055	429057	keystroke_n	n	n/a
214.694	0.105	429388	keystroke_t	t	n/a
214.814	0.075	429628	keystroke_i	i	n/a
215.024	0.12	430048	keystroke_b	b	n/a
215.114	0.12	430228	keystroke_o	o	n/a
215.414	0.015	430828	keystroke_d	d	n/a
215.444	0.1195	430888	keystroke_y	y	n/a
215.534	0.1195	431068	keystroke_Key.space	Key.space	n/a
215.8035	0.091	431607	keystroke_c	c	n/a
215.9085	0.091	431817	keystroke_i	i	n/a
216.1645	0.105	432329	keystroke_t	t	n/a
216.2845	0.105	432569	keystroke_i	i	n/a
216.5395	0.09	433079	keystroke_z	z	n/a
216.7645	0.09	433529	keystroke_e	e	n/a
216.8845	0.06	433769	keystroke_n	n	n/a
216.9895	0.075	433979	keystroke_s	s	n/a
217.0945	0.165	434189	keystroke_h	h	n/a
217.1995	0.18	434399	keystroke_i	i	n/a
217.2745	0.18	434549	keystroke_p	p	n/a
217.4095	0.134	434819	keystroke_Key.space	Key.space	n/a
217.9635	0.106	435927	keystroke_t	t	n/a
218.0845	0.045	436169	keystroke_o	o	n/a
218.2195	0.06	436439	keystroke_l	l	n/a
218.3545	0.135	436709	keystroke_l	l	n/a
218.4745	0.06	436949	keystroke_Key.space	Key.space	n/a
218.5045	0.105	437009	keystroke_s	s	n/a
218.6245	0.075	437249	keystroke_i	i	n/a
218.7145	0.12	437429	keystroke_g	g	n/a
218.8195	0.0895	437639	keystroke_n	n	n/a
219.269	0.075	438538	keystroke_a	a	n/a
219.389	0.075	438778	keystroke_l	l	n/a
219.614	0.09	439228	keystroke_Key.enter	Key.enter	n/a
219.7085	5.232	439417	prompt	n/a	groups earned components plane\n
220.5145	0.18	441029	keystroke_g	g	n/a
220.6045	0.18	441209	keystroke_r	r	n/a
220.7395	0.165	441479	keystroke_o	o	n/a
220.8145	0.165	441629	keystroke_u	u	n/a
220.9195	0.15	441839	keystroke_p	p	n/a
221.0845	0.105	442169	keystroke_s	s	n/a
221.2645	0.075	442529	keystroke_Key.space	Key.space	n/a
221.4595	0.09	442919	keystroke_e	e	n/a
221.6695	0.06	443339	keystroke_a	a	n/a
221.8195	0.09	443639	keystroke_r	r	n/a
221.9245	0.105	443849	keystroke_n	n	n/a
222.0445	0.045	444089	keystroke_e	e	n/a
222.1945	0.12	444389	keystroke_d	d	n/a
222.2995	0.105	444599	keystroke_Key.space	Key.space	n/a
222.4795	0.1195	444959	keystroke_c	c	n/a
222.5545	0.1345	445109	keystroke_o	o	n/a
222.644	0.12	445288	keystroke_m	m	n/a
222.719	0.255	445438	keystroke_p	p	n/a
222.899	0.135	445798	keystroke_o	o	n/a
223.124	0.09	446248	keystroke_n	n	n/a
223.215	0.089	446430	keystroke_e	e	n/a
223.334	0.09	446668	keystroke_n	n	n/a
223.559	0.195	447118	keystroke_t	t	n/a
223.694	0.135	447388	keystroke_s	s	n/a
223.889	0.09	447778	keystroke_Key.space	Key.space	n/a
224.2495	0.18	448499	keystroke_p	p	n/a
224.3245	0.12	448649	keystroke_l	l	n/a
224.4595	0.075	448919	keystroke_a	a	n/a
224.5645	0.075	449129	keystroke_n	n	n/a
224.6695	0.06	449339	keystroke_e	e	n/a
224.8495	0.09	449699	keystroke_Key.enter	Key.enter	n/a
224.943	10.4835	449886	prompt	n/a	equivalent water tariff knowledgestorm\n
225.6295	0.119	451259	keystroke_e	e	n/a
225.8995	0.119	451799	keystroke_q	q	n/a
226.0795	0.119	452159	keystroke_i	i	n/a
226.1845	0.059	452369	keystroke_u	u	n/a
226.8285	0.061	453657	keystroke_Key.backspace	Key.backspace	n/a
227.144	0.06	454288	keystroke_Key.backspace	Key.backspace	n/a
227.624	0.12	455248	keystroke_u	u	n/a
227.714	0.12	455428	keystroke_i	i	n/a
227.894	0.195	455788	keystroke_v	v	n/a
228.029	0.195	456058	keystroke_a	a	n/a
228.344	0.075	456688	keystroke_l	l	n/a
228.434	0.105	456868	keystroke_e	e	n/a
228.554	0.105	457108	keystroke_n	n	n/a
228.644	0.105	457288	keystroke_t	t	n/a
228.734	0.09	457468	keystroke_Key.space	Key.space	n/a
228.884	0.15	457768	keystroke_w	w	n/a
228.974	0.09	457948	keystroke_a	a	n/a
229.169	0.09	458338	keystroke_t	t	n/a
229.319	0.165	458638	keystroke_e	e	n/a
229.409	0.15	458818	keystroke_r	r	n/a
229.574	0.09	459148	keystroke_Key.space	Key.space	n/a
229.679	0.075	459358	keystroke_t	t	n/a
229.814	0.105	459628	keystroke_a	a	n/a
229.979	0.075	459958	keystroke_r	r	n/a
230.804	0.09	461608	keystroke_i	i	n/a
231.014	0.045	462028	keystroke_f	f	n/a
231.134	0.09	462268	keystroke_f	f	n/a
231.269	0.105	462538	keystroke_Key.space	Key.space	n/a
231.584	0.135	463168	keystroke_k	k	n/a
231.659	0.15	463318	keystroke_n	n	n/a
231.764	0.18	463528	keystroke_o	o	n/a
231.959	0.09	463918	keystroke_w	w	n/a
232.349	0.12	464698	keystroke_l	l	n/a
232.454	0.09	464908	keystroke_e	e	n/a
232.664	0.09	465328	keystroke_d	d	n/a
232.964	0.135	465928	keystroke_g	g	n/a
233.024	0.15	466048	keystroke_e	e	n/a
233.564	0.09	467128	keystroke_s	s	n/a
233.744	0.09	467488	keystroke_t	t	n/a
233.894	0.105	467788	keystroke_o	o	n/a
233.984	0.09	467968	keystroke_r	r	n/a
234.449	0.09	468898	keystroke_m	m	n/a
235.334	0.09	470668	keystroke_Key.enter	Key.enter	n/a
235.4355	5.645	470871	prompt	n/a	discounted we're assignment terrible\n
236.19	0.104	472380	keystroke_d	d	n/a
236.324	0.09	472648	keystroke_i	i	n/a
236.384	0.15	472768	keystroke_s	s	n/a
236.489	0.1505	472978	keystroke_c	c	n/a
236.6095	0.24	473219	keystroke_o	o	n/a
236.7445	0.24	473489	keystroke_u	u	n/a
236.8645	0.195	473729	keystroke_n	n	n/a
236.9995	0.165	473999	keystroke_t	t	n/a
237.1045	0.12	474209	keystroke_e	e	n/a
237.3145	0.105	474629	keystroke_d	d	n/a
237.4345	0.09	474869	keystroke_Key.space	Key.space	n/a
237.5545	0.165	475109	keystroke_w	w	n/a
237.6595	0.105	475319	keystroke_e	e	n/a
237.7795	0.15	475559	keystroke_'	'	n/a
237.9145	0.18	475829	keystroke_r	r	n/a
238.0045	0.135	476009	keystroke_e	e	n/a
238.1545	0.12	476309	keystroke_Key.space	Key.space	n/a
238.2295	0.135	476459	keystroke_a	a	n/a
238.3795	0.075	476759	keystroke_s	s	n/a
238.5145	0.105	477029	keystroke_s	s	n/a
238.6645	0.075	477329	keystroke_i	i	n/a
238.7395	0.09	477479	keystroke_g	g	n/a
238.8145	0.075	477629	keystroke_n	n	n/a
238.9945	0.09	477989	keystroke_m	m	n/a
239.0995	0.105	478199	keystroke_e	e	n/a
239.2195	0.089	478439	keystroke_n	n	n/a
239.3235	0.0905	478647	keystroke_t	t	n/a
239.429	0.09	478858	keystroke_Key.space	Key.space	n/a
239.624	0.1955	479248	keystroke_t	t	n/a
240.0295	0.165	480059	keystroke_e	e	n/a
240.2095	0.089	480419	keystroke_r	r	n/a
240.3895	0.09	480779	keystroke_r	r	n/a
240.4645	0.1345	480929	keystroke_i	i	n/a
240.5695	0.135	481139	keystroke_b	b	n/a
240.689	0.12	481378	keystroke_l	l	n/a
240.7935	0.076	481587	keystroke_e	e	n/a
241.0195	0.06	482039	keystroke_Key.enter	Key.enter	n/a
241.0835	7.1375	482167	prompt	n/a	circumstances driven partnerships quest\n
241.6945	0.135	483389	keystroke_c	c	n/a
241.8145	0.1345	483629	keystroke_i	i	n/a
241.964	0.075	483928	keystroke_r	r	n/a
242.189	0.105	484378	keystroke_c	c	n/a
242.264	0.09	484528	keystroke_u	u	n/a
242.474	0.09	484948	keystroke_m	m	n/a
242.579	0.09	485158	keystroke_s	s	n/a
242.759	0.09	485518	keystroke_t	t	n/a
242.894	0.12	485788	keystroke_a	a	n/a
243.014	0.09	486028	keystroke_n	n	n/a
243.209	0.09	486418	keystroke_c	c	n/a
243.434	0.18	486868	keystroke_e	e	n/a
243.509	0.15	487018	keystroke_s	s	n/a
243.689	0.09	487378	keystroke_Key.space	Key.space	n/a
243.809	0.135	487618	keystroke_d	d	n/a
244.049	0.06	488098	keystroke_r	r	n/a
244.184	0.135	488368	keystroke_i	i	n/a
244.274	0.165	488548	keystroke_v	v	n/a
244.379	0.15	488758	keystroke_e	e	n/a
244.664	0.1505	489328	keystroke_n	n	n/a
244.7995	0.09	489599	keystroke_Key.space	Key.space	n/a
244.9495	0.15	489899	keystroke_p	p	n/a
245.0395	0.12	490079	keystroke_a	a	n/a
245.1895	0.105	490379	keystroke_r	r	n/a
245.3995	0.075	490799	keystroke_t	t	n/a
245.5195	0.09	491039	keystroke_n	n	n/a
245.6245	0.15	491249	keystroke_e	e	n/a
245.7145	0.12	491429	keystroke_r	r	n/a
245.9395	0.1045	491879	keystroke_s	s	n/a
246.029	0.12	492058	keystroke_h	h	n/a
246.089	0.135	492178	keystroke_i	i	n/a
246.164	0.12	492328	keystroke_p	p	n/a
246.359	0.105	492718	keystroke_s	s	n/a
246.524	0.075	493048	keystroke_Key.space	Key.space	n/a
247.0195	0.044	494039	keystroke_q	q	n/a
247.0795	0.105	494159	keystroke_u	u	n/a
247.2285	0.165	494457	keystroke_e	e	n/a
247.6635	0.105	495327	keystroke_s	s	n/a
247.8445	0.104	495689	keystroke_t	t	n/a
248.129	0.09	496258	keystroke_Key.enter	Key.enter	n/a
248.2305	5.5255	496461	prompt	n/a	sales silly explosion discounted\n
248.834	0.15	497668	keystroke_s	s	n/a
249.224	0.105	498448	keystroke_a	a	n/a
249.344	0.12	498688	keystroke_l	l	n/a
249.479	0.195	498958	keystroke_e	e	n/a
249.599	0.165	499198	keystroke_s	s	n/a
249.779	0.06	499558	keystroke_Key.space	Key.space	n/a
249.869	0.105	499738	keystroke_s	s	n/a
249.944	0.0755	499888	keystroke_i	i	n/a
250.1095	0.075	500219	keystroke_l	l	n/a
250.2295	0.105	500459	keystroke_l	l	n/a
250.3195	0.105	500639	keystroke_y	y	n/a
250.4395	0.105	500879	keystroke_Key.space	Key.space	n/a
250.5145	0.105	501029	keystroke_e	e	n/a
250.7545	0.105	501509	keystroke_x	x	n/a
250.8295	0.165	501659	keystroke_p	p	n/a
250.9345	0.105	501869	keystroke_l	l	n/a
251.0995	0.105	502199	keystroke_o	o	n/a
251.2495	0.15	502499	keystroke_s	s	n/a
251.3545	0.135	502709	keystroke_i	i	n/a
251.4595	0.225	502919	keystroke_o	o	n/a
251.6095	0.15	503219	keystroke_n	n	n/a
251.7145	0.12	503429	keystroke_Key.space	Key.space	n/a
251.8945	0.105	503789	keystroke_d	d	n/a
252.0145	0.075	504029	keystroke_i	i	n/a
252.2245	0.105	504449	keystroke_s	s	n/a
252.5245	0.105	505049	keystroke_c	c	n/a
252.6145	0.165	505229	keystroke_o	o	n/a
252.7045	0.21	505409	keystroke_u	u	n/a
252.8695	0.18	505739	keystroke_n	n	n/a
253.1095	0.135	506219	keystroke_t	t	n/a
253.2445	0.09	506489	keystroke_e	e	n/a
253.4395	0.09	506879	keystroke_d	d	n/a
253.6645	0.09	507329	keystroke_Key.enter	Key.enter	n/a
253.7595	9.2665	507519	prompt	n/a	cream surgeons fraser computers\n
254.3545	0.09	508709	keystroke_c	c	n/a
254.6385	0.151	509277	keystroke_r	r	n/a
254.7135	0.12	509427	keystroke_e	e	n/a
254.8945	0.134	509789	keystroke_a	a	n/a
255.1945	0.15	510389	keystroke_m	m	n/a
255.3285	0.09	510657	keystroke_Key.space	Key.space	n/a
255.4785	0.121	510957	keystroke_s	s	n/a
255.5845	0.135	511169	keystroke_u	u	n/a
256.7995	0.09	513599	keystroke_r	r	n/a
257.2495	0.06	514499	keystroke_g	g	n/a
257.2945	0.045	514589	keystroke_e	e	n/a
257.3695	0.1945	514739	keystroke_o	o	n/a
257.489	0.12	514978	keystroke_n	n	n/a
257.594	0.075	515188	keystroke_s	s	n/a
258.179	0.06	516358	keystroke_Key.space	Key.space	n/a
258.299	0.151	516598	keystroke_f	f	n/a
258.4045	0.0745	516809	keystroke_a	a	n/a
258.7495	0.075	517499	keystroke_Key.backspace	Key.backspace	n/a
258.8395	0.15	517679	keystroke_r	r	n/a
258.9745	0.21	517949	keystroke_a	a	n/a
259.1695	0.075	518339	keystroke_s	s	n/a
259.3795	0.165	518759	keystroke_e	e	n/a
259.4845	0.15	518969	keystroke_r	r	n/a
259.6495	0.105	519299	keystroke_Key.space	Key.space	n/a
259.934	0.12	519868	keystroke_c	c	n/a
260.534	0.075	521068	keystroke_o	o	n/a
261.704	0.135	523408	keystroke_m	m	n/a
261.779	0.135	523558	keystroke_p	p	n/a
262.034	0.105	524068	keystroke_u	u	n/a
262.199	0.09	524398	keystroke_t	t	n/a
262.409	0.135	524818	keystroke_e	e	n/a
262.484	0.135	524968	keystroke_r	r	n/a
262.694	0.12	525388	keystroke_s	s	n/a
262.934	0.09	525868	keystroke_Key.enter	Key.enter	n/a
263.035	7.101	526070	prompt	n/a	separately participants mambo pdas\n
263.669	0.045	527338	keystroke_s	s	n/a
263.834	0.105	527668	keystroke_e	e	n/a
263.954	0.135	527908	keystroke_p	p	n/a
264.044	0.09	528088	keystroke_a	a	n/a
264.224	0.135	528448	keystroke_r	r	n/a
264.314	0.105	528628	keystroke_a	a	n/a
264.524	0.15	529048	keystroke_t	t	n/a
264.599	0.15	529198	keystroke_e	e	n/a
264.899	0.15	529798	keystroke_l	l	n/a
265.004	0.105	530008	keystroke_y	y	n/a
265.169	0.075	530338	keystroke_Key.space	Key.space	n/a
265.394	0.135	530788	keystroke_p	p	n/a
265.454	0.165	530908	keystroke_a	a	n/a
265.589	0.12	531178	keystroke_r	r	n/a
265.784	0.06	531568	keystroke_t	t	n/a
265.889	0.09	531778	keystroke_i	i	n/a
266.084	0.075	532168	keystroke_c	c	n/a
266.219	0.105	532438	keystroke_i	i	n/a
266.444	0.105	532888	keystroke_p	p	n/a
266.534	0.105	533068	keystroke_a	a	n/a
266.729	0.09	533458	keystroke_n	n	n/a
266.834	0.195	533668	keystroke_t	t	n/a
266.939	0.15	533878	keystroke_s	s	n/a
267.134	0.075	534268	keystroke_Key.space	Key.space	n/a
267.344	0.09	534688	keystroke_m	m	n/a
267.449	0.09	534898	keystroke_a	a	n/a
267.689	0.09	535378	keystroke_m	m	n/a
267.899	0.15	535798	keystroke_b	b	n/a
268.004	0.15	536008	keystroke_o	o	n/a
268.109	0.105	536218	keystroke_Key.space	Key.space	n/a
268.364	0.105	536728	keystroke_p	p	n/a
268.6035	0.121	537207	keystroke_d	d	n/a
268.8445	0.105	537689	keystroke_a	a	n/a
269.594	0.075	539188	keystroke_s	s	n/a
270.0445	0.09	540089	keystroke_Key.enter	Key.enter	n/a
270.1445	4.701	540289	prompt	n/a	third stolen followed rule\n
270.839	0.1055	541678	keystroke_t	t	n/a
270.9295	0.105	541859	keystroke_h	h	n/a
271.0045	0.135	542009	keystroke_i	i	n/a
271.1095	0.075	542219	keystroke_r	r	n/a
271.3495	0.135	542699	keystroke_d	d	n/a
271.4695	0.105	542939	keystroke_Key.space	Key.space	n/a
271.7995	0.105	543599	keystroke_s	s	n/a
271.979	0.105	543958	keystroke_t	t	n/a
272.084	0.06	544168	keystroke_o	o	n/a
272.279	0.09	544558	keystroke_l	l	n/a
272.399	0.075	544798	keystroke_e	e	n/a
272.6095	0.18	545219	keystroke_n	n	n/a
272.7595	0.105	545519	keystroke_Key.space	Key.space	n/a
273.0895	0.105	546179	keystroke_f	f	n/a
273.1945	0.06	546389	keystroke_o	o	n/a
273.3595	0.075	546719	keystroke_l	l	n/a
273.4945	0.075	546989	keystroke_l	l	n/a
273.6595	0.105	547319	keystroke_o	o	n/a
273.7045	0.15	547409	keystroke_w	w	n/a
273.8095	0.105	547619	keystroke_e	e	n/a
274.0195	0.105	548039	keystroke_d	d	n/a
274.1095	0.075	548219	keystroke_Key.space	Key.space	n/a
274.2295	0.09	548459	keystroke_r	r	n/a
274.2895	0.075	548579	keystroke_u	u	n/a
274.4845	0.105	548969	keystroke_l	l	n/a
274.6345	0.075	549269	keystroke_e	e	n/a
274.7995	0.045	549599	keystroke_Key.enter	Key.enter	n/a
274.848	5.833	549696	prompt	n/a	criminal scheduled rail stickers\n
275.7895	0.105	551579	keystroke_c	c	n/a
276.015	0.105	552030	keystroke_r	r	n/a
276.06	0.134	552120	keystroke_i	i	n/a
276.149	0.15	552298	keystroke_m	m	n/a
276.284	0.165	552568	keystroke_i	i	n/a
276.389	0.135	552778	keystroke_n	n	n/a
276.509	0.12	553018	keystroke_a	a	n/a
276.614	0.12	553228	keystroke_l	l	n/a
276.719	0.12	553438	keystroke_Key.space	Key.space	n/a
276.884	0.1055	553768	keystroke_s	s	n/a
277.1545	0.105	554309	keystroke_c	c	n/a
277.2595	0.12	554519	keystroke_h	h	n/a
277.3945	0.135	554789	keystroke_e	e	n/a
277.5745	0.06	555149	keystroke_d	d	n/a
277.6195	0.06	555239	keystroke_u	u	n/a
277.7695	0.12	555539	keystroke_l	l	n/a
277.8595	0.105	555719	keystroke_e	e	n/a
278.1295	0.06	556259	keystroke_d	d	n/a
278.1445	0.09	556289	keystroke_Key.space	Key.space	n/a
278.3395	0.18	556679	keystroke_r	r	n/a
278.4595	0.134	556919	keystroke_a	a	n/a
278.714	0.1205	557428	keystroke_i	i	n/a
278.9535	0.165	557907	keystroke_l	l	n/a
279.0895	0.104	558179	keystroke_Key.space	Key.space	n/a
279.2235	0.075	558447	keystroke_s	s	n/a
279.434	0.045	558868	keystroke_t	t	n/a
279.494	0.091	558988	keystroke_i	i	n/a
279.66	0.1035	559320	keystroke_c	c	n/a
279.7645	0.12	559529	keystroke_k	k	n/a
279.9295	0.195	559859	keystroke_e	e	n/a
280.0045	0.24	560009	keystroke_r	r	n/a
280.1395	0.15	560279	keystroke_s	s	n/a
280.589	0.09	561178	keystroke_Key.enter	Key.enter	n/a
280.6835	4.6325	561367	prompt	n/a	ciao called rebound gotta\n
281.339	0.12	562678	keystroke_c	c	n/a
281.414	0.12	562828	keystroke_i	i	n/a
281.564	0.1355	563128	keystroke_a	a	n/a
281.7895	0.18	563579	keystroke_o	o	n/a
281.9545	0.105	563909	keystroke_Key.space	Key.space	n/a
282.3145	0.15	564629	keystroke_c	c	n/a
282.4795	0.12	564959	keystroke_a	a	n/a
282.6145	0.075	565229	keystroke_l	l	n/a
282.7495	0.105	565499	keystroke_l	l	n/a
282.8395	0.09	565679	keystroke_e	e	n/a
283.0045	0.0895	566009	keystroke_d	d	n/a
283.109	0.09	566218	keystroke_Key.space	Key.space	n/a
283.229	0.166	566458	keystroke_r	r	n/a
283.334	0.12	566668	keystroke_e	e	n/a
283.439	0.105	566878	keystroke_b	b	n/a
283.5	0.194	567000	keystroke_o	o	n/a
283.604	0.24	567208	keystroke_u	u	n/a
283.785	0.194	567570	keystroke_n	n	n/a
283.95	0.1045	567900	keystroke_d	d	n/a
284.069	0.12	568138	keystroke_Key.space	Key.space	n/a
284.414	0.09	568828	keystroke_g	g	n/a
284.52	0.1195	569040	keystroke_o	o	n/a
284.6695	0.06	569339	keystroke_t	t	n/a
284.8195	0.105	569639	keystroke_t	t	n/a
284.9995	0.105	569999	keystroke_a	a	n/a
285.2095	0.105	570419	keystroke_Key.enter	Key.enter	n/a
285.3205	6.8505	570641	prompt	n/a	its reproductive mailman latitude\n
286.1395	0.12	572279	keystroke_i	i	n/a
286.2745	0.15	572549	keystroke_t	t	n/a
286.3495	0.15	572699	keystroke_s	s	n/a
286.5145	0.1045	573029	keystroke_Key.space	Key.space	n/a
286.649	0.18	573298	keystroke_r	r	n/a
286.739	0.15	573478	keystroke_e	e	n/a
286.919	0.12	573838	keystroke_p	p	n/a
287.084	0.075	574168	keystroke_r	r	n/a
287.204	0.075	574408	keystroke_o	o	n/a
287.429	0.09	574858	keystroke_d	d	n/a
287.594	0.105	575188	keystroke_u	u	n/a
287.729	0.075	575458	keystroke_c	c	n/a
288.029	0.09	576058	keystroke_t	t	n/a
288.134	0.12	576268	keystroke_i	i	n/a
288.449	0.105	576898	keystroke_v	v	n/a
288.644	0.105	577288	keystroke_e	e	n/a
288.719	0.105	577438	keystroke_Key.space	Key.space	n/a
288.839	0.105	577678	keystroke_m	m	n/a
288.974	0.12	577948	keystroke_a	a	n/a
289.019	0.12	578038	keystroke_i	i	n/a
289.214	0.06	578428	keystroke_l	l	n/a
289.394	0.105	578788	keystroke_m	m	n/a
289.529	0.12	579058	keystroke_a	a	n/a
289.724	0.165	579448	keystroke_n	n	n/a
289.859	0.09	579718	keystroke_Key.space	Key.space	n/a
290.024	0.12	580048	keystroke_l	l	n/a
290.159	0.09	580318	keystroke_a	a	n/a
290.444	0.09	580888	keystroke_t	t	n/a
290.549	0.09	581098	keystroke_i	i	n/a
290.654	0.075	581308	keystroke_t	t	n/a
290.774	0.075	581548	keystroke_u	u	n/a
291.074	0.135	582148	keystroke_d	d	n/a
291.179	0.12	582358	keystroke_e	e	n/a
291.4045	0.1045	582809	keystroke_Key.space	Key.space	n/a
291.8545	0.075	583709	keystroke_Key.backspace	Key.backspace	n/a
292.1095	0.0595	584219	keystroke_Key.enter	Key.enter	n/a
292.177	4.0285	584354	prompt	n/a	maintain worse first examined\n
292.7395	0.09	585479	keystroke_m	m	n/a
292.8145	0.135	585629	keystroke_a	a	n/a
292.9195	0.15	585839	keystroke_i	i	n/a
292.9945	0.12	585989	keystroke_n	n	n/a
293.174	0.15	586348	keystroke_t	t	n/a
293.31	0.164	586620	keystroke_a	a	n/a
293.4	0.164	586800	keystroke_i	i	n/a
293.49	0.1495	586980	keystroke_n	n	n/a
293.594	0.09	587188	keystroke_Key.space	Key.space	n/a
293.669	0.105	587338	keystroke_w	w	n/a
293.789	0.105	587578	keystroke_o	o	n/a
293.849	0.09	587698	keystroke_r	r	n/a
293.985	0.194	587970	keystroke_s	s	n/a
294.104	0.15	588208	keystroke_e	e	n/a
294.284	0.09	588568	keystroke_Key.space	Key.space	n/a
294.435	0.119	588870	keystroke_f	f	n/a
294.539	0.12	589078	keystroke_i	i	n/a
294.674	0.135	589348	keystroke_r	r	n/a
294.764	0.136	589528	keystroke_s	s	n/a
294.914	0.09	589828	keystroke_t	t	n/a
295.019	0.09	590038	keystroke_Key.space	Key.space	n/a
295.094	0.091	590188	keystroke_e	e	n/a
295.319	0.12	590638	keystroke_x	x	n/a
295.544	0.12	591088	keystroke_a	a	n/a
295.649	0.12	591298	keystroke_m	m	n/a
295.754	0.225	591508	keystroke_i	i	n/a
295.889	0.15	591778	keystroke_n	n	n/a
295.994	0.105	591988	keystroke_g	g	n/a
296.129	0.075	592258	keystroke_Key.enter	Key.enter	n/a
296.208	7.693	592416	prompt	n/a	awesome merchants temporarily indication\n
298.139	0.18	596278	keystroke_a	a	n/a
298.379	0.135	596758	keystroke_w	w	n/a
298.469	0.1055	596938	keystroke_e	e	n/a
298.664	0.12	597328	keystroke_s	s	n/a
298.799	0.165	597598	keystroke_o	o	n/a
298.874	0.135	597748	keystroke_m	m	n/a
298.979	0.09	597958	keystroke_e	e	n/a
299.084	0.075	598168	keystroke_Key.space	Key.space	n/a
299.204	0.1205	598408	keystroke_m	m	n/a
299.219	0.1205	598438	keystroke_e	e	n/a
299.3845	0.105	598769	keystroke_r	r	n/a
299.6845	0.105	599369	keystroke_c	c	n/a
299.7745	0.09	599549	keystroke_h	h	n/a
299.8795	0.075	599759	keystroke_a	a	n/a
299.9845	0.09	599969	keystroke_n	n	n/a
300.1195	0.18	600239	keystroke_t	t	n/a
300.2245	0.135	600449	keystroke_s	s	n/a
300.39	0.09	600780	keystroke_Key.space	Key.space	n/a
300.615	0.12	601230	keystroke_t	t	n/a
300.765	0.105	601530	keystroke_e	e	n/a
301.1095	0.135	602219	keystroke_m	m	n/a
301.1845	0.18	602369	keystroke_p	p	n/a
301.3195	0.15	602639	keystroke_o	o	n/a
301.4245	0.165	602849	keystroke_r	r	n/a
301.5445	0.165	603089	keystroke_a	a	n/a
301.6945	0.135	603389	keystroke_r	r	n/a
301.8445	0.075	603689	keystroke_i	i	n/a
302.0095	0.09	604019	keystroke_l	l	n/a
302.0845	0.105	604169	keystroke_y	y	n/a
302.2345	0.075	604469	keystroke_Key.space	Key.space	n/a
302.3845	0.15	604769	keystroke_i	i	n/a
302.4745	0.12	604949	keystroke_n	n	n/a
302.6395	0.09	605279	keystroke_d	d	n/a
302.7445	0.09	605489	keystroke_i	i	n/a
302.8945	0.18	605789	keystroke_c	c	n/a
303.0295	0.12	606059	keystroke_a	a	n/a
303.2695	0.105	606539	keystroke_t	t	n/a
303.3595	0.225	606719	keystroke_i	i	n/a
303.4495	0.15	606899	keystroke_o	o	n/a
303.5845	0.12	607169	keystroke_n	n	n/a
303.8245	0.075	607649	keystroke_Key.enter	Key.enter	n/a
303.91	7.356	607820	prompt	n/a	experience suzuki tours haven\n
304.5745	0.045	609149	keystroke_e	e	n/a
304.6795	0.09	609359	keystroke_x	x	n/a
304.8145	0.12	609629	keystroke_p	p	n/a
304.9195	0.135	609839	keystroke_e	e	n/a
305.0095	0.135	610019	keystroke_r	r	n/a
305.1595	0.075	610319	keystroke_i	i	n/a
305.2195	0.09	610439	keystroke_e	e	n/a
305.3695	0.075	610739	keystroke_n	n	n/a
305.4595	0.165	610919	keystroke_c	c	n/a
305.5945	0.135	611189	keystroke_e	e	n/a
305.7445	0.09	611489	keystroke_Key.space	Key.space	n/a
305.8945	0.075	611789	keystroke_s	s	n/a
305.9845	0.105	611969	keystroke_u	u	n/a
306.1795	0.09	612359	keystroke_z	z	n/a
306.734	0.09	613468	keystroke_u	u	n/a
306.944	0.075	613888	keystroke_k	k	n/a
307.109	0.135	614218	keystroke_i	i	n/a
307.199	0.12	614398	keystroke_Key.space	Key.space	n/a
307.454	0.12	614908	keystroke_t	t	n/a
307.559	0.21	615118	keystroke_o	o	n/a
307.679	0.15	615358	keystroke_u	u	n/a
307.844	0.226	615688	keystroke_r	r	n/a
307.979	0.18	615958	keystroke_s	s	n/a
309.854	0.105	619708	keystroke_Key.space	Key.space	n/a
309.974	0.105	619948	keystroke_h	h	n/a
310.064	0.09	620128	keystroke_a	a	n/a
310.169	0.075	620338	keystroke_v	v	n/a
310.574	0.09	621148	keystroke_e	e	n/a
310.754	0.12	621508	keystroke_n	n	n/a
311.189	0.075	622378	keystroke_Key.enter	Key.enter	n/a
311.275	6.906	622550	prompt	n/a	hunting casey estates producer\n
312.029	0.135	624058	keystroke_h	h	n/a
312.104	0.135	624208	keystroke_u	u	n/a
312.404	0.09	624808	keystroke_n	n	n/a
312.584	0.09	625168	keystroke_t	t	n/a
312.689	0.18	625378	keystroke_i	i	n/a
312.764	0.18	625528	keystroke_n	n	n/a
312.929	0.09	625858	keystroke_g	g	n/a
313.034	0.12	626068	keystroke_Key.space	Key.space	n/a
313.289	0.165	626578	keystroke_c	c	n/a
313.469	0.27	626938	keystroke_a	a	n/a
313.514	0.076	627028	keystroke_s	s	n/a
313.709	0.09	627418	keystroke_s	s	n/a
314.04	0.09	628080	keystroke_Key.backspace	Key.backspace	n/a
314.175	0.09	628350	keystroke_e	e	n/a
314.31	0.15	628620	keystroke_y	y	n/a
314.43	0.12	628860	keystroke_Key.space	Key.space	n/a
314.7445	0.06	629489	keystroke_p	p	n/a
315.0895	0.075	630179	keystroke_Key.backspace	Key.backspace	n/a
315.1945	0.165	630389	keystroke_e	e	n/a
315.2995	0.15	630599	keystroke_s	s	n/a
315.5245	0.105	631049	keystroke_t	t	n/a
315.6895	0.09	631379	keystroke_a	a	n/a
315.8395	0.165	631679	keystroke_t	t	n/a
315.9445	0.225	631889	keystroke_e	e	n/a
316.0645	0.165	632129	keystroke_s	s	n/a
316.2745	0.06	632549	keystroke_Key.space	Key.space	n/a
316.4995	0.105	632999	keystroke_p	p	n/a
316.6345	0.075	633269	keystroke_r	r	n/a
316.7245	0.09	633449	keystroke_o	o	n/a
316.9045	0.075	633809	keystroke_d	d	n/a
317.0245	0.09	634049	keystroke_u	u	n/a
317.1595	0.075	634319	keystroke_c	c	n/a
317.3845	0.075	634769	keystroke_e	e	n/a
317.5195	0.105	635039	keystroke_r	r	n/a
318.1045	0.075	636209	keystroke_Key.enter	Key.enter	n/a
318.188	11.4685	636376	prompt	n/a	passed bytes demonstration vegetables\n
318.9295	0.15	637859	keystroke_p	p	n/a
319.0645	0.135	638129	keystroke_a	a	n/a
319.1695	0.09	638339	keystroke_s	s	n/a
319.3345	0.075	638669	keystroke_s	s	n/a
319.5445	0.045	639089	keystroke_e	e	n/a
319.6945	0.075	639389	keystroke_d	d	n/a
319.7545	0.09	639509	keystroke_Key.space	Key.space	n/a
319.8895	0.135	639779	keystroke_b	b	n/a
320.1295	0.09	640259	keystroke_y	y	n/a
320.729	0.15	641458	keystroke_t	t	n/a
320.849	0.105	641698	keystroke_e	e	n/a
321.059	0.105	642118	keystroke_s	s	n/a
321.224	0.12	642448	keystroke_Key.space	Key.space	n/a
321.719	0.18	643438	keystroke_d	d	n/a
321.839	0.18	643678	keystroke_e	e	n/a
321.959	0.15	643918	keystroke_m	m	n/a
322.064	0.24	644128	keystroke_o	o	n/a
322.199	0.1805	644398	keystroke_n	n	n/a
322.334	0.106	644668	keystroke_s	s	n/a
322.5145	0.12	645029	keystroke_t	t	n/a
322.6045	0.075	645209	keystroke_r	r	n/a
322.7845	0.09	645569	keystroke_a	a	n/a
322.9795	0.105	645959	keystroke_t	t	n/a
323.0695	0.165	646139	keystroke_i	i	n/a
323.1895	0.18	646379	keystroke_o	o	n/a
323.2645	0.21	646529	keystroke_n	n	n/a
323.4445	0.075	646889	keystroke_Key.space	Key.space	n/a
323.9245	0.165	647849	keystroke_v	v	n/a
324.0445	0.075	648089	keystroke_a	a	n/a
324.4345	0.09	648869	keystroke_Key.backspace	Key.backspace	n/a
324.6595	0.12	649319	keystroke_e	e	n/a
325.3645	0.12	650729	keystroke_g	g	n/a
325.4995	0.075	650999	keystroke_e	e	n/a
325.6795	0.06	651359	keystroke_t	t	n/a
325.8295	0.12	651659	keystroke_a	a	n/a
325.9345	0.135	651869	keystroke_b	b	n/a
326.0395	0.135	652079	keystroke_l	l	n/a
326.1445	0.135	652289	keystroke_e	e	n/a
326.2495	0.135	652499	keystroke_s	s	n/a
329.582	0.072	659164	keystroke_Key.enter	Key.enter	n/a
329.6665	9.74	659333	prompt	n/a	cohen tracy understand positioning\n
330.6	0.135	661200	keystroke_c	c	n/a
330.78	0.12	661560	keystroke_o	o	n/a
330.96	0.09	661920	keystroke_h	h	n/a
331.0945	0.0905	662189	keystroke_e	e	n/a
331.17	0.165	662340	keystroke_n	n	n/a
331.29	0.105	662580	keystroke_Key.space	Key.space	n/a
331.455	0.15	662910	keystroke_t	t	n/a
331.545	0.105	663090	keystroke_r	r	n/a
331.77	0.105	663540	keystroke_a	a	n/a
331.9795	0.21	663959	keystroke_v	v	n/a
332.2345	0.165	664469	keystroke_u	u	n/a
332.3695	0.105	664739	keystroke_Key.space	Key.space	n/a
332.9845	0.06	665969	keystroke_Key.backspace	Key.backspace	n/a
333.1195	0.075	666239	keystroke_Key.backspace	Key.backspace	n/a
333.7345	0.075	667469	keystroke_Key.backspace	Key.backspace	n/a
333.944	0.09	667888	keystroke_c	c	n/a
334.079	0.06	668158	keystroke_y	y	n/a
334.259	0.09	668518	keystroke_Key.space	Key.space	n/a
335.8795	0.06	671759	keystroke_u	u	n/a
335.9995	0.09	671999	keystroke_n	n	n/a
336.12	0.105	672240	keystroke_d	d	n/a
336.315	0.135	672630	keystroke_e	e	n/a
336.39	0.135	672780	keystroke_r	r	n/a
336.555	0.12	673110	keystroke_s	s	n/a
336.69	0.075	673380	keystroke_t	t	n/a
336.825	0.105	673650	keystroke_a	a	n/a
336.96	0.09	673920	keystroke_n	n	n/a
337.065	0.105	674130	keystroke_d	d	n/a
337.185	0.09	674370	keystroke_Key.space	Key.space	n/a
337.365	0.12	674730	keystroke_p	p	n/a
337.575	0.105	675150	keystroke_o	o	n/a
337.71	0.105	675420	keystroke_s	s	n/a
337.8	0.075	675600	keystroke_i	i	n/a
337.935	0.075	675870	keystroke_t	t	n/a
337.995	0.1795	675990	keystroke_i	i	n/a
338.1	0.1645	676200	keystroke_o	o	n/a
338.2045	0.15	676409	keystroke_n	n	n/a
338.3395	0.165	676679	keystroke_i	i	n/a
338.4295	0.165	676859	keystroke_n	n	n/a
338.6395	0.045	677279	keystroke_g	g	n/a
339.3145	0.09	678629	keystroke_Key.enter	Key.enter	n/a
339.4155	5.5855	678831	prompt	n/a	pickup glass plot hole\n
339.9595	0.165	679919	keystroke_p	p	n/a
340.1095	0.12	680219	keystroke_i	i	n/a
340.2445	0.09	680489	keystroke_c	c	n/a
340.3495	0.06	680699	keystroke_k	k	n/a
340.53	0.135	681060	keystroke_u	u	n/a
340.62	0.165	681240	keystroke_p	p	n/a
340.77	0.09	681540	keystroke_Key.space	Key.space	n/a
341.295	0.105	682590	keystroke_g	g	n/a
341.415	0.12	682830	keystroke_l	l	n/a
341.52	0.135	683040	keystroke_a	a	n/a
341.7	0.075	683400	keystroke_s	s	n/a
341.85	0.075	683700	keystroke_s	s	n/a
341.94	0.09	683880	keystroke_Key.space	Key.space	n/a
342.495	0.15	684990	keystroke_p	p	n/a
342.6	0.135	685200	keystroke_l	l	n/a
342.795	0.105	685590	keystroke_o	o	n/a
342.885	0.105	685770	keystroke_t	t	n/a
343.005	0.09	686010	keystroke_Key.space	Key.space	n/a
343.2	0.09	686400	keystroke_h	h	n/a
343.26	0.105	686520	keystroke_o	o	n/a
343.485	0.075	686970	keystroke_l	l	n/a
343.575	0.09	687150	keystroke_d	d	n/a
344.1445	0.075	688289	keystroke_Key.backspace	Key.backspace	n/a
344.2495	0.075	688499	keystroke_e	e	n/a
344.9395	0.06	689879	keystroke_Key.enter	Key.enter	n/a
345.0035	7.933	690007	prompt	n/a	instruction banned quantitative bronze\n
345.6145	0.09	691229	keystroke_i	i	n/a
345.7645	0.075	691529	keystroke_n	n	n/a
345.8545	0.105	691709	keystroke_s	s	n/a
346.05	0.135	692100	keystroke_t	t	n/a
346.14	0.12	692280	keystroke_r	r	n/a
346.245	0.135	692490	keystroke_u	u	n/a
346.395	0.105	692790	keystroke_c	c	n/a
346.68	0.075	693360	keystroke_t	t	n/a
346.74	0.18	693480	keystroke_i	i	n/a
346.875	0.1345	693750	keystroke_o	o	n/a
346.935	0.135	693870	keystroke_n	n	n/a
347.0245	0.1045	694049	keystroke_Key.space	Key.space	n/a
347.174	0.09	694348	keystroke_b	b	n/a
347.204	0.105	694408	keystroke_a	a	n/a
347.369	0.075	694738	keystroke_n	n	n/a
347.489	0.09	694978	keystroke_n	n	n/a
347.564	0.09	695128	keystroke_e	e	n/a
347.7445	0.105	695489	keystroke_d	d	n/a
347.8645	0.105	695729	keystroke_Key.space	Key.space	n/a
348.1345	0.105	696269	keystroke_q	q	n/a
348.2245	0.0905	696449	keystroke_u	u	n/a
348.3595	0.0905	696719	keystroke_a	a	n/a
348.495	0.09	696990	keystroke_n	n	n/a
348.645	0.09	697290	keystroke_t	t	n/a
348.75	0.075	697500	keystroke_i	i	n/a
348.84	0.059	697680	keystroke_t	t	n/a
348.93	0.059	697860	keystroke_i	i	n/a
349.335	0.105	698670	keystroke_a	a	n/a
349.799	0.075	699598	keystroke_Key.backspace	Key.backspace	n/a
349.95	0.059	699900	keystroke_Key.backspace	Key.backspace	n/a
350.459	0.136	700918	keystroke_a	a	n/a
350.775	0.0595	701550	keystroke_t	t	n/a
350.8795	0.105	701759	keystroke_i	i	n/a
351.0445	0.18	702089	keystroke_v	v	n/a
351.1645	0.12	702329	keystroke_e	e	n/a
351.3295	0.09	702659	keystroke_Key.space	Key.space	n/a
351.7495	0.09	703499	keystroke_b	b	n/a
351.8995	0.105	703799	keystroke_r	r	n/a
352.0195	0.165	704039	keystroke_o	o	n/a
352.1245	0.15	704249	keystroke_n	n	n/a
352.2895	0.105	704579	keystroke_z	z	n/a
352.5295	0.06	705059	keystroke_e	e	n/a
352.8895	0.045	705779	keystroke_Key.enter	Key.enter	n/a
352.946	10.251	705892	prompt	n/a	broadway wage mixture away\n
353.774	0.091	707548	keystroke_b	b	n/a
353.894	0.105	707788	keystroke_r	r	n/a
353.984	0.135	707968	keystroke_o	o	n/a
354.105	0.165	708210	keystroke_a	a	n/a
354.194	0.166	708388	keystroke_d	d	n/a
354.404	0.211	708808	keystroke_w	w	n/a
354.51	0.18	709020	keystroke_a	a	n/a
354.675	0.105	709350	keystroke_y	y	n/a
354.72	0.15	709440	keystroke_Key.space	Key.space	n/a
356.205	0.18	712410	keystroke_w	w	n/a
356.325	0.18	712650	keystroke_a	a	n/a
356.625	0.15	713250	keystroke_h	h	n/a
356.76	0.09	713520	keystroke_e	e	n/a
356.88	0.075	713760	keystroke_Key.space	Key.space	n/a
357.165	0.045	714330	keystroke_Key.backspace	Key.backspace	n/a
357.3	0.045	714600	keystroke_Key.backspace	Key.backspace	n/a
357.42	0.075	714840	keystroke_Key.backspace	Key.backspace	n/a
357.54	0.105	715080	keystroke_g	g	n/a
357.585	0.15	715170	keystroke_e	e	n/a
357.944	0.076	715888	keystroke_Key.space	Key.space	n/a
358.244	0.091	716488	keystroke_m	m	n/a
358.38	0.075	716760	keystroke_i	i	n/a
358.59	0.105	717180	keystroke_x	x	n/a
358.904	0.106	717808	keystroke_t	t	n/a
359.025	0.12	718050	keystroke_u	u	n/a
359.145	0.179	718290	keystroke_r	r	n/a
359.235	0.119	718470	keystroke_e	e	n/a
359.384	0.105	718768	keystroke_Key.space	Key.space	n/a
359.549	0.105	719098	keystroke_a	a	n/a
359.699	0.21	719398	keystroke_w	w	n/a
359.819	0.1505	719638	keystroke_a	a	n/a
360.0145	0.075	720029	keystroke_y	y	n/a
363.107	0.087	726214	keystroke_Key.enter	Key.enter	n/a
363.2065	10.445	726413	prompt	n/a	pond unemployment criteria busy\n
364.1845	0.195	728369	keystroke_p	p	n/a
364.2895	0.21	728579	keystroke_o	o	n/a
364.4095	0.27	728819	keystroke_n	n	n/a
364.6345	0.1055	729269	keystroke_Key.space	Key.space	n/a
365.1595	0.075	730319	keystroke_Key.backspace	Key.backspace	n/a
365.2945	0.12	730589	keystroke_d	d	n/a
365.3995	0.06	730799	keystroke_Key.space	Key.space	n/a
365.5345	0.18	731069	keystroke_u	u	n/a
365.6395	0.15	731279	keystroke_n	n	n/a
365.8345	0.09	731669	keystroke_e	e	n/a
366.06	0.09	732120	keystroke_x	x	n/a
366.165	0.195	732330	keystroke_p	p	n/a
366.3	0.135	732600	keystroke_l	l	n/a
366.495	0.09	732990	keystroke_o	o	n/a
366.705	0.09	733410	keystroke_y	y	n/a
367.935	0.074	735870	keystroke_Key.backspace	Key.backspace	n/a
368.099	0.06	736198	keystroke_Key.backspace	Key.backspace	n/a
368.28	0.06	736560	keystroke_Key.backspace	Key.backspace	n/a
368.444	0.06	736888	keystroke_Key.backspace	Key.backspace	n/a
368.609	0.076	737218	keystroke_Key.backspace	Key.backspace	n/a
368.999	0.06	737998	keystroke_Key.backspace	Key.backspace	n/a
369.749	0.091	739498	keystroke_e	e	n/a
369.884	0.09	739768	keystroke_m	m	n/a
369.929	0.1955	739858	keystroke_p	p	n/a
370.0795	0.105	740159	keystroke_l	l	n/a
370.244	0.091	740488	keystroke_o	o	n/a
370.424	0.075	740848	keystroke_y	y	n/a
370.619	0.09	741238	keystroke_m	m	n/a
370.739	0.12	741478	keystroke_e	e	n/a
370.814	0.091	741628	keystroke_n	n	n/a
370.949	0.09	741898	keystroke_t	t	n/a
371.054	0.075	742108	keystroke_Key.space	Key.space	n/a
371.489	0.09	742978	keystroke_c	c	n/a
371.684	0.09	743368	keystroke_r	r	n/a
371.789	0.09	743578	keystroke_i	i	n/a
371.864	0.18	743728	keystroke_t	t	n/a
372.014	0.195	744028	keystroke_e	e	n/a
372.134	0.15	744268	keystroke_r	r	n/a
372.299	0.12	744598	keystroke_i	i	n/a
372.434	0.12	744868	keystroke_a	a	n/a
372.539	0.0755	745078	keystroke_Key.space	Key.space	n/a
372.9295	0.12	745859	keystroke_b	b	n/a
373.0045	0.135	746009	keystroke_u	u	n/a
373.1245	0.09	746249	keystroke_s	s	n/a
373.2445	0.06	746489	keystroke_y	y	n/a
373.5595	0.09	747119	keystroke_Key.enter	Key.enter	n/a
373.6605	6.381	747321	prompt	n/a	dictionary wedding messaging trio\n
374.3245	0.105	748649	keystroke_d	d	n/a
374.3995	0.105	748799	keystroke_i	i	n/a
374.5195	0.075	749039	keystroke_c	c	n/a
374.7145	0.09	749429	keystroke_t	t	n/a
374.7895	0.15	749579	keystroke_i	i	n/a
374.8795	0.15	749759	keystroke_o	o	n/a
374.9545	0.15	749909	keystroke_n	n	n/a
375.0895	0.165	750179	keystroke_a	a	n/a
375.1945	0.15	750389	keystroke_r	r	n/a
375.3295	0.15	750659	keystroke_y	y	n/a
375.4345	0.105	750869	keystroke_Key.space	Key.space	n/a
376.2895	0.135	752579	keystroke_w	w	n/a
376.3795	0.105	752759	keystroke_e	e	n/a
376.575	0.0745	753150	keystroke_d	d	n/a
376.7095	0.1055	753419	keystroke_d	d	n/a
376.8	0.134	753600	keystroke_i	i	n/a
376.86	0.15	753720	keystroke_n	n	n/a
376.979	0.06	753958	keystroke_g	g	n/a
377.069	0.075	754138	keystroke_Key.space	Key.space	n/a
377.174	0.135	754348	keystroke_m	m	n/a
377.249	0.15	754498	keystroke_e	e	n/a
377.339	0.12	754678	keystroke_s	s	n/a
377.519	0.09	755038	keystroke_s	s	n/a
377.699	0.075	755398	keystroke_a	a	n/a
378.314	0.0755	756628	keystroke_g	g	n/a
378.4195	0.15	756839	keystroke_i	i	n/a
378.5095	0.165	757019	keystroke_n	n	n/a
378.6595	0.075	757319	keystroke_g	g	n/a
378.8095	0.135	757619	keystroke_Key.space	Key.space	n/a
379.1695	0.165	758339	keystroke_t	t	n/a
379.2595	0.135	758519	keystroke_r	r	n/a
379.3795	0.12	758759	keystroke_i	i	n/a
379.4845	0.09	758969	keystroke_o	o	n/a
379.9945	0.045	759989	keystroke_Key.enter	Key.enter	n/a
380.0505	4.9705	760101	prompt	n/a	luther going meetings face\n
380.6545	0.09	761309	keystroke_l	l	n/a
380.8795	0.06	761759	keystroke_u	u	n/a
380.9545	0.105	761909	keystroke_t	t	n/a
381.0605	0.089	762121	keystroke_h	h	n/a
381.1795	0.135	762359	keystroke_e	e	n/a
381.2845	0.105	762569	keystroke_r	r	n/a
381.3745	0.09	762749	keystroke_Key.space	Key.space	n/a
381.5395	0.09	763079	keystroke_g	g	n/a
382.0795	0.2405	764159	keystroke_o	o	n/a
382.245	0.195	764490	keystroke_i	i	n/a
382.35	0.165	764700	keystroke_n	n	n/a
382.47	0.09	764940	keystroke_g	g	n/a
382.6045	0.06	765209	keystroke_Key.space	Key.space	n/a
382.7245	0.09	765449	keystroke_m	m	n/a
382.7845	0.075	765569	keystroke_e	e	n/a
382.9795	0.105	765959	keystroke_e	e	n/a
383.1895	0.105	766379	keystroke_t	t	n/a
383.2795	0.135	766559	keystroke_i	i	n/a
383.3545	0.15	766709	keystroke_n	n	n/a
383.4595	0.18	766919	keystroke_g	g	n/a
383.5645	0.135	767129	keystroke_s	s	n/a
383.7145	0.105	767429	keystroke_Key.space	Key.space	n/a
383.9245	0.18	767849	keystroke_f	f	n/a
384.0445	0.1495	768089	keystroke_a	a	n/a
384.27	0.105	768540	keystroke_c	c	n/a
384.555	0.0745	769110	keystroke_e	e	n/a
384.9595	0.06	769919	keystroke_Key.enter	Key.enter	n/a
385.029	5.707	770058	prompt	n/a	trading opinion views you're\n
385.8595	0.12	771719	keystroke_t	t	n/a
385.9345	0.075	771869	keystroke_r	r	n/a
386.1145	0.15	772229	keystroke_a	a	n/a
386.2195	0.105	772439	keystroke_d	d	n/a
386.3395	0.165	772679	keystroke_i	i	n/a
386.4145	0.18	772829	keystroke_n	n	n/a
386.5795	0.09	773159	keystroke_g	g	n/a
386.6545	0.105	773309	keystroke_Key.space	Key.space	n/a
386.8345	0.18	773669	keystroke_o	o	n/a
386.9545	0.15	773909	keystroke_p	p	n/a
387.2245	0.18	774449	keystroke_i	i	n/a
387.3895	0.1655	774779	keystroke_n	n	n/a
387.51	0.195	775020	keystroke_i	i	n/a
387.645	0.225	775290	keystroke_o	o	n/a
387.765	0.195	775530	keystroke_n	n	n/a
387.9	0.15	775800	keystroke_Key.space	Key.space	n/a
388.32	0.09	776640	keystroke_v	v	n/a
388.44	0.105	776880	keystroke_i	i	n/a
388.59	0.18	777180	keystroke_e	e	n/a
388.68	0.12	777360	keystroke_w	w	n/a
388.92	0.075	777840	keystroke_s	s	n/a
389.49	0.105	778980	keystroke_Key.space	Key.space	n/a
389.73	0.1945	779460	keystroke_y	y	n/a
389.835	0.2845	779670	keystroke_o	o	n/a
389.9845	0.15	779969	keystroke_u	u	n/a
390.1205	0.104	780241	keystroke_'	'	n/a
390.2095	0.195	780419	keystroke_r	r	n/a
390.3145	0.12	780629	keystroke_e	e	n/a
390.6745	0.06	781349	keystroke_Key.enter	Key.enter	n/a
390.7385	6.388	781477	prompt	n/a	tree connector treatment vessel\n
391.4245	0.18	782849	keystroke_t	t	n/a
391.5145	0.15	783029	keystroke_r	r	n/a
391.6495	0.12	783299	keystroke_e	e	n/a
391.8595	0.105	783719	keystroke_e	e	n/a
391.9795	0.09	783959	keystroke_Key.space	Key.space	n/a
392.1445	0.12	784289	keystroke_c	c	n/a
392.1895	0.1055	784379	keystroke_o	o	n/a
392.3545	0.075	784709	keystroke_n	n	n/a
392.4895	0.06	784979	keystroke_n	n	n/a
392.8645	0.1355	785729	keystroke_e	e	n/a
392.9695	0.12	785939	keystroke_c	c	n/a
393.2845	0.09	786569	keystroke_t	t	n/a
393.3895	0.105	786779	keystroke_o	o	n/a
393.4795	0.135	786959	keystroke_r	r	n/a
393.5995	0.12	787199	keystroke_Key.space	Key.space	n/a
393.9145	0.18	787829	keystroke_t	t	n/a
394.0045	0.135	788009	keystroke_r	r	n/a
394.2895	0.195	788579	keystroke_e	e	n/a
394.4395	0.225	788879	keystroke_a	a	n/a
394.6655	0.134	789331	keystroke_t	t	n/a
394.9345	0.09	789869	keystroke_m	m	n/a
395.0095	0.075	790019	keystroke_e	e	n/a
395.1145	0.105	790229	keystroke_n	n	n/a
395.2345	0.06	790469	keystroke_t	t	n/a
395.3245	0.09	790649	keystroke_Key.space	Key.space	n/a
395.6395	0.06	791279	keystroke_v	v	n/a
395.8795	0.09	791759	keystroke_e	e	n/a
396.0145	0.135	792029	keystroke_s	s	n/a
396.3595	0.045	792719	keystroke_s	s	n/a
396.3745	0.105	792749	keystroke_e	e	n/a
396.5545	0.12	793109	keystroke_l	l	n/a
397.0495	0.075	794099	keystroke_Key.enter	Key.enter	n/a
397.131	5.155	794262	prompt	n/a	iron preceding shirt troy\n
397.8895	0.1505	795779	keystroke_i	i	n/a
398.13	0.135	796260	keystroke_r	r	n/a
398.25	0.195	796500	keystroke_o	o	n/a
398.37	0.15	796740	keystroke_n	n	n/a
398.475	0.105	796950	keystroke_Key.space	Key.space	n/a
398.655	0.135	797310	keystroke_p	p	n/a
398.775	0.18	797550	keystroke_r	r	n/a
398.895	0.135	797790	keystroke_e	e	n/a
399.135	0.195	798270	keystroke_c	c	n/a
399.255	0.105	798510	keystroke_e	e	n/a
399.48	0.09	798960	keystroke_d	d	n/a
399.555	0.165	799110	keystroke_i	i	n/a
399.645	0.135	799290	keystroke_n	n	n/a
399.75	0.09	799500	keystroke_g	g	n/a
399.855	0.09	799710	keystroke_Key.space	Key.space	n/a
399.96	0.1195	799920	keystroke_s	s	n/a
400.0645	0.12	800129	keystroke_h	h	n/a
400.1395	0.165	800279	keystroke_i	i	n/a
400.2595	0.195	800519	keystroke_r	r	n/a
400.3795	0.135	800759	keystroke_t	t	n/a
400.5155	0.104	801031	keystroke_Key.space	Key.space	n/a
400.6645	0.135	801329	keystroke_t	t	n/a
400.8445	0.135	801689	keystroke_r	r	n/a
401.0245	0.195	802049	keystroke_o	o	n/a
401.1895	0.135	802379	keystroke_u	u	n/a
401.5795	0.09	803159	keystroke_Key.backspace	Key.backspace	n/a
401.7445	0.18	803489	keystroke_y	y	n/a
402.2095	0.075	804419	keystroke_Key.enter	Key.enter	n/a
402.297	9.0645	804594	prompt	n/a	varying security zealand soldier\n
403.0195	0.195	806039	keystroke_v	v	n/a
403.1395	0.135	806279	keystroke_a	a	n/a
403.4095	0.09	806819	keystroke_r	r	n/a
403.5145	0.06	807029	keystroke_y	y	n/a
403.6195	0.18	807239	keystroke_i	i	n/a
403.7245	0.15	807449	keystroke_n	n	n/a
403.8445	0.09	807689	keystroke_g	g	n/a
403.9495	0.12	807899	keystroke_Key.space	Key.space	n/a
404.0995	0.105	808199	keystroke_s	s	n/a
404.3245	0.06	808649	keystroke_e	e	n/a
404.5345	0.105	809069	keystroke_c	c	n/a
404.6845	0.105	809369	keystroke_u	u	n/a
404.8045	0.075	809609	keystroke_r	r	n/a
404.9095	0.09	809819	keystroke_i	i	n/a
405.0145	0.075	810029	keystroke_t	t	n/a
405.1945	0.135	810389	keystroke_y	y	n/a
405.2845	0.105	810569	keystroke_Key.space	Key.space	n/a
406.0645	0.105	812129	keystroke_z	z	n/a
406.3345	0.225	812669	keystroke_e	e	n/a
406.4395	0.18	812879	keystroke_a	a	n/a
406.7245	0.12	813449	keystroke_l	l	n/a
407.2045	0.135	814409	keystroke_a	a	n/a
407.3545	0.09	814709	keystroke_n	n	n/a
407.4745	0.075	814949	keystroke_d	d	n/a
407.5795	0.12	815159	keystroke_Key.space	Key.space	n/a
410.1915	0.0725	820383	keystroke_s	s	n/a
410.25	0.074	820500	keystroke_o	o	n/a
410.414	0.075	820828	keystroke_l	l	n/a
410.519	0.075	821038	keystroke_d	d	n/a
410.625	0.104	821250	keystroke_i	i	n/a
410.715	0.134	821430	keystroke_e	e	n/a
410.82	0.119	821640	keystroke_r	r	n/a
411.284	0.0755	822568	keystroke_Key.enter	Key.enter	n/a
411.371	8.647	822742	prompt	n/a	german highs murder manufacturing\n
412.2155	0.119	824431	keystroke_g	g	n/a
412.3195	0.195	824639	keystroke_e	e	n/a
412.4545	0.12	824909	keystroke_r	r	n/a
412.5895	0.09	825179	keystroke_m	m	n/a
412.6945	0.135	825389	keystroke_a	a	n/a
412.7995	0.1055	825599	keystroke_n	n	n/a
412.8895	0.075	825779	keystroke_Key.space	Key.space	n/a
413.0245	0.105	826049	keystroke_h	h	n/a
413.0995	0.12	826199	keystroke_i	i	n/a
413.1895	0.105	826379	keystroke_g	g	n/a
413.3245	0.12	826649	keystroke_h	h	n/a
413.4595	0.12	826919	keystroke_s	s	n/a
413.6245	0.12	827249	keystroke_Key.space	Key.space	n/a
413.9845	0.075	827969	keystroke_m	m	n/a
414.1645	0.12	828329	keystroke_u	u	n/a
414.2695	0.09	828539	keystroke_r	r	n/a
414.4945	0.09	828989	keystroke_d	d	n/a
414.7045	0.165	829409	keystroke_e	e	n/a
414.7795	0.165	829559	keystroke_r	r	n/a
416.3845	0.0905	832769	keystroke_Key.space	Key.space	n/a
416.565	0.075	833130	keystroke_m	m	n/a
416.655	0.09	833310	keystroke_a	a	n/a
416.805	0.12	833610	keystroke_n	n	n/a
417	0.135	834000	keystroke_u	u	n/a
417.255	0.12	834510	keystroke_f	f	n/a
417.345	0.105	834690	keystroke_a	a	n/a
417.555	0.075	835110	keystroke_c	c	n/a
417.825	0.06	835650	keystroke_t	t	n/a
417.96	0.165	835920	keystroke_u	u	n/a
418.575	0.09	837150	keystroke_r	r	n/a
418.74	0.15	837480	keystroke_i	i	n/a
418.815	0.165	837630	keystroke_n	n	n/a
418.935	0.075	837870	keystroke_g	g	n/a
419.249	0.0905	838498	keystroke_Key.space	Key.space	n/a
419.5345	0.045	839069	keystroke_Key.backspace	Key.backspace	n/a
419.9245	0.09	839849	keystroke_Key.enter	Key.enter	n/a
420.027	7.61	840054	prompt	n/a	ringtone linux need digit\n
420.705	0.105	841410	keystroke_r	r	n/a
420.825	0.15	841650	keystroke_i	i	n/a
420.93	0.12	841860	keystroke_n	n	n/a
421.065	0.075	842130	keystroke_g	g	n/a
421.245	0.09	842490	keystroke_t	t	n/a
421.32	0.165	842640	keystroke_o	o	n/a
421.395	0.195	842790	keystroke_n	n	n/a
421.56	0.075	843120	keystroke_Key.space	Key.space	n/a
422.085	0.074	844170	keystroke_Key.backspace	Key.backspace	n/a
422.189	0.09	844378	keystroke_e	e	n/a
422.31	0.09	844620	keystroke_Key.space	Key.space	n/a
422.519	0.091	845038	keystroke_l	l	n/a
422.699	0.105	845398	keystroke_i	i	n/a
422.819	0.166	845638	keystroke_n	n	n/a
422.97	0.18	845940	keystroke_u	u	n/a
422.985	0.074	845970	keystroke_i	i	n/a
423.524	0.091	847048	keystroke_Key.backspace	Key.backspace	n/a
423.675	0.104	847350	keystroke_x	x	n/a
424.005	0.1045	848010	keystroke_Key.space	Key.space	n/a
424.4395	0.12	848879	keystroke_n	n	n/a
424.5295	0.0755	849059	keystroke_e	e	n/a
424.665	0.075	849330	keystroke_e	e	n/a
424.83	0.09	849660	keystroke_d	d	n/a
424.95	0.12	849900	keystroke_Key.space	Key.space	n/a
425.265	0.03	850530	keystroke_f	f	n/a
426.195	0.0745	852390	keystroke_Key.backspace	Key.backspace	n/a
426.3145	0.106	852629	keystroke_d	d	n/a
426.465	0.09	852930	keystroke_i	i	n/a
426.885	0.075	853770	keystroke_g	g	n/a
426.96	0.135	853920	keystroke_i	i	n/a
427.08	0.0895	854160	keystroke_t	t	n/a
427.59	0.045	855180	keystroke_Key.enter	Key.enter	n/a
427.6465	8.345	855293	prompt	n/a	attack terrorists naturals webcast\n
428.235	0.105	856470	keystroke_a	a	n/a
428.49	0.075	856980	keystroke_t	t	n/a
428.595	0.135	857190	keystroke_t	t	n/a
429.3	0.135	858600	keystroke_a	a	n/a
429.525	0.089	859050	keystroke_c	c	n/a
429.66	0.1345	859320	keystroke_k	k	n/a
429.7645	0.105	859529	keystroke_Key.space	Key.space	n/a
430.1245	0.135	860249	keystroke_t	t	n/a
430.2445	0.135	860489	keystroke_e	e	n/a
430.4245	0.09	860849	keystroke_r	r	n/a
430.574	0.09	861148	keystroke_r	r	n/a
430.74	0.1195	861480	keystroke_o	o	n/a
430.874	0.1055	861748	keystroke_r	r	n/a
431.5195	0.135	863039	keystroke_i	i	n/a
431.6705	0.119	863341	keystroke_s	s	n/a
431.7745	0.195	863549	keystroke_t	t	n/a
431.8795	0.15	863759	keystroke_s	s	n/a
432.0305	0.089	864061	keystroke_Key.space	Key.space	n/a
432.1795	0.091	864359	keystroke_n	n	n/a
432.2845	0.105	864569	keystroke_a	a	n/a
432.4645	0.09	864929	keystroke_t	t	n/a
432.5395	0.12	865079	keystroke_u	u	n/a
432.8095	0.105	865619	keystroke_e	e	n/a
433.3945	0.09	866789	keystroke_Key.backspace	Key.backspace	n/a
433.4545	0.18	866909	keystroke_r	r	n/a
433.5595	0.135	867119	keystroke_a	a	n/a
433.8295	0.255	867659	keystroke_l	l	n/a
434.1595	0.105	868319	keystroke_s	s	n/a
434.3395	0.12	868679	keystroke_Key.space	Key.space	n/a
434.6545	0.15	869309	keystroke_w	w	n/a
434.7445	0.105	869489	keystroke_e	e	n/a
434.8795	0.075	869759	keystroke_b	b	n/a
435.0895	0.165	870179	keystroke_c	c	n/a
435.1945	0.165	870389	keystroke_a	a	n/a
435.3145	0.12	870629	keystroke_s	s	n/a
435.6595	0.09	871319	keystroke_t	t	n/a
435.8695	0.12	871739	keystroke_Key.enter	Key.enter	n/a
436.001	8.1655	872002	prompt	n/a	organization dollars happens inspiration\n
438.257	0.073	876514	keystroke_o	o	n/a
438.285	0.12	876570	keystroke_r	r	n/a
438.465	0.09	876930	keystroke_g	g	n/a
438.585	0.09	877170	keystroke_a	a	n/a
438.69	0.15	877380	keystroke_n	n	n/a
438.855	0.12	877710	keystroke_i	i	n/a
438.99	0.15	877980	keystroke_z	z	n/a
439.26	0.09	878520	keystroke_a	a	n/a
439.47	0.105	878940	keystroke_t	t	n/a
439.56	0.18	879120	keystroke_i	i	n/a
439.695	0.15	879390	keystroke_o	o	n/a
439.7555	0.2095	879511	keystroke_n	n	n/a
439.905	0.09	879810	keystroke_Key.space	Key.space	n/a
440.37	0.075	880740	keystroke_d	d	n/a
440.43	0.06	880860	keystroke_o	o	n/a
440.595	0.045	881190	keystroke_l	l	n/a
440.7	0.105	881400	keystroke_l	l	n/a
440.76	0.135	881520	keystroke_a	a	n/a
440.88	0.225	881760	keystroke_r	r	n/a
441.015	0.15	882030	keystroke_s	s	n/a
441.12	0.12	882240	keystroke_Key.space	Key.space	n/a
441.285	0.075	882570	keystroke_h	h	n/a
441.375	0.075	882750	keystroke_a	a	n/a
441.465	0.09	882930	keystroke_p	p	n/a
441.63	0.075	883260	keystroke_p	p	n/a
441.735	0.09	883470	keystroke_e	e	n/a
441.825	0.09	883650	keystroke_n	n	n/a
441.99	0.105	883980	keystroke_s	s	n/a
442.11	0.09	884220	keystroke_Key.space	Key.space	n/a
442.3355	0.09	884671	keystroke_i	i	n/a
442.545	0.0895	885090	keystroke_n	n	n/a
442.6795	0.15	885359	keystroke_s	s	n/a
442.7995	0.165	885599	keystroke_p	p	n/a
442.9045	0.165	885809	keystroke_i	i	n/a
443.0545	0.165	886109	keystroke_r	r	n/a
443.1595	0.135	886319	keystroke_a	a	n/a
443.3545	0.105	886709	keystroke_t	t	n/a
443.4145	0.195	886829	keystroke_i	i	n/a
443.5045	0.165	887009	keystroke_o	o	n/a
443.6245	0.09	887249	keystroke_n	n	n/a
444.0745	0.09	888149	keystroke_Key.enter	Key.enter	n/a
444.176	5.2405	888352	prompt	n/a	boxing stars lately folder\n
444.78	0.09	889560	keystroke_b	b	n/a
444.825	0.1645	889650	keystroke_o	o	n/a
445.0055	0.149	890011	keystroke_x	x	n/a
445.29	0.135	890580	keystroke_i	i	n/a
445.38	0.135	890760	keystroke_n	n	n/a
445.5	0.09	891000	keystroke_g	g	n/a
445.62	0.105	891240	keystroke_Key.space	Key.space	n/a
445.74	0.06	891480	keystroke_s	s	n/a
445.905	0.075	891810	keystroke_t	t	n/a
446.025	0.21	892050	keystroke_a	a	n/a
446.13	0.165	892260	keystroke_r	r	n/a
446.625	0.09	893250	keystroke_s	s	n/a
446.82	0.09	893640	keystroke_Key.space	Key.space	n/a
447.045	0.075	894090	keystroke_l	l	n/a
447.435	0.09	894870	keystroke_a	a	n/a
447.66	0.12	895320	keystroke_t	t	n/a
447.72	0.12	895440	keystroke_e	e	n/a
447.855	0.1195	895710	keystroke_l	l	n/a
447.9605	0.105	895921	keystroke_y	y	n/a
448.0945	0.105	896189	keystroke_Key.space	Key.space	n/a
448.3795	0.135	896759	keystroke_f	f	n/a
448.5445	0.076	897089	keystroke_o	o	n/a
448.7095	0.106	897419	keystroke_l	l	n/a
448.7995	0.076	897599	keystroke_d	d	n/a
449.0405	0.149	898081	keystroke_e	e	n/a
449.1145	0.1505	898229	keystroke_r	r	n/a
449.325	0.09	898650	keystroke_Key.enter	Key.enter	n/a
449.4205	5.411	898841	prompt	n/a	luther joining announced shower\n
450.1655	0.09	900331	keystroke_l	l	n/a
450.4055	0.12	900811	keystroke_u	u	n/a
450.5105	0.0745	901021	keystroke_t	t	n/a
450.6	0.09	901200	keystroke_h	h	n/a
450.735	0.12	901470	keystroke_e	e	n/a
450.81	0.1195	901620	keystroke_r	r	n/a
450.9305	0.074	901861	keystroke_Key.space	Key.space	n/a
451.0345	0.135	902069	keystroke_j	j	n/a
451.0945	0.165	902189	keystroke_o	o	n/a
451.1995	0.165	902399	keystroke_i	i	n/a
451.3345	0.15	902669	keystroke_n	n	n/a
451.4545	0.196	902909	keystroke_i	i	n/a
451.5595	0.135	903119	keystroke_n	n	n/a
451.7095	0.09	903419	keystroke_g	g	n/a
451.8145	0.1055	903629	keystroke_Key.space	Key.space	n/a
452.0545	0.0755	904109	keystroke_a	a	n/a
452.13	0.06	904260	keystroke_n	n	n/a
452.28	0.105	904560	keystroke_n	n	n/a
452.325	0.18	904650	keystroke_o	o	n/a
452.46	0.18	904920	keystroke_u	u	n/a
452.565	0.165	905130	keystroke_n	n	n/a
453.03	0.075	906060	keystroke_c	c	n/a
453.225	0.075	906450	keystroke_e	e	n/a
453.4195	0.09	906839	keystroke_d	d	n/a
453.4945	0.075	906989	keystroke_Key.space	Key.space	n/a
453.7805	0.119	907561	keystroke_s	s	n/a
453.9005	0.12	907801	keystroke_h	h	n/a
453.9745	0.15	907949	keystroke_o	o	n/a
454.0945	0.165	908189	keystroke_w	w	n/a
454.1995	0.12	908399	keystroke_e	e	n/a
454.4245	0.09	908849	keystroke_r	r	n/a
454.785	0.045	909570	keystroke_Key.enter	Key.enter	n/a
454.834	7.452	909668	prompt	n/a	vitamins hierarchy jobs diesel\n
455.595	0.075	911190	keystroke_v	v	n/a
455.685	0.09	911370	keystroke_i	i	n/a
455.9695	0.075	911939	keystroke_t	t	n/a
456.1795	0.09	912359	keystroke_a	a	n/a
456.3145	0.135	912629	keystroke_m	m	n/a
456.4345	0.195	912869	keystroke_i	i	n/a
456.5545	0.12	913109	keystroke_n	n	n/a
456.7045	0.105	913409	keystroke_s	s	n/a
456.8245	0.09	913649	keystroke_Key.space	Key.space	n/a
457.1695	0.09	914339	keystroke_h	h	n/a
457.2445	0.165	914489	keystroke_i	i	n/a
457.4695	0.18	914939	keystroke_e	e	n/a
457.5595	0.15	915119	keystroke_r	r	n/a
457.9495	0.0905	915899	keystroke_a	a	n/a
458.37	0.09	916740	keystroke_r	r	n/a
458.64	0.105	917280	keystroke_c	c	n/a
458.76	0.06	917520	keystroke_h	h	n/a
458.895	0.12	917790	keystroke_y	y	n/a
458.97	0.105	917940	keystroke_Key.space	Key.space	n/a
459.15	0.165	918300	keystroke_j	j	n/a
459.27	0.135	918540	keystroke_o	o	n/a
459.54	0.12	919080	keystroke_b	b	n/a
459.675	0.135	919350	keystroke_s	s	n/a
459.795	0.09	919590	keystroke_Key.space	Key.space	n/a
460.2295	0.105	920459	keystroke_d	d	n/a
460.3645	0.18	920729	keystroke_i	i	n/a
460.4995	0.12	920999	keystroke_s	s	n/a
460.8895	0.06	921779	keystroke_Key.backspace	Key.backspace	n/a
461.0095	0.12	922019	keystroke_e	e	n/a
461.2495	0.21	922499	keystroke_s	s	n/a
461.3695	0.1355	922739	keystroke_e	e	n/a
461.535	0.09	923070	keystroke_l	l	n/a
462.195	0.09	924390	keystroke_Key.enter	Key.enter	n/a
462.2905	5.1855	924581	prompt	n/a	albert listen setting webcast\n
462.8995	0.09	925799	keystroke_a	a	n/a
462.9745	0.045	925949	keystroke_l	l	n/a
463.1545	0.105	926309	keystroke_b	b	n/a
463.2445	0.165	926489	keystroke_e	e	n/a
463.3495	0.15	926699	keystroke_r	r	n/a
463.6045	0.09	927209	keystroke_t	t	n/a
463.6345	0.105	927269	keystroke_Key.space	Key.space	n/a
463.9645	0.09	927929	keystroke_l	l	n/a
464.1295	0.12	928259	keystroke_i	i	n/a
464.2045	0.165	928409	keystroke_s	s	n/a
464.3395	0.21	928679	keystroke_t	t	n/a
464.4595	0.1355	928919	keystroke_e	e	n/a
464.5345	0.151	929069	keystroke_n	n	n/a
464.655	0.165	929310	keystroke_Key.space	Key.space	n/a
464.865	0.15	929730	keystroke_s	s	n/a
464.985	0.105	929970	keystroke_e	e	n/a
465.1955	0.0595	930391	keystroke_t	t	n/a
465.33	0.075	930660	keystroke_t	t	n/a
465.465	0.12	930930	keystroke_i	i	n/a
465.51	0.21	931020	keystroke_n	n	n/a
465.75	0.0905	931500	keystroke_g	g	n/a
465.8705	0.105	931741	keystroke_Key.space	Key.space	n/a
466.0205	0.179	932041	keystroke_w	w	n/a
466.1555	0.12	932311	keystroke_e	e	n/a
466.2905	0.09	932581	keystroke_b	b	n/a
466.5605	0.21	933121	keystroke_c	c	n/a
466.6655	0.18	933331	keystroke_a	a	n/a
466.8155	0.135	933631	keystroke_s	s	n/a
467.1455	0.074	934291	keystroke_t	t	n/a
467.4145	0.06	934829	keystroke_Key.enter	Key.enter	n/a
467.48	5.5615	934960	prompt	n/a	different replacing allan conditional\n
468.0905	0.089	936181	keystroke_d	d	n/a
468.1945	0.09	936389	keystroke_i	i	n/a
468.3295	0.045	936659	keystroke_f	f	n/a
468.4645	0.09	936929	keystroke_f	f	n/a
468.5845	0.135	937169	keystroke_e	e	n/a
468.6895	0.135	937379	keystroke_r	r	n/a
468.7945	0.12	937589	keystroke_e	e	n/a
468.9295	0.135	937859	keystroke_n	n	n/a
469.0195	0.09	938039	keystroke_t	t	n/a
469.1245	0.105	938249	keystroke_Key.space	Key.space	n/a
469.2145	0.195	938429	keystroke_r	r	n/a
469.3655	0.15	938731	keystroke_e	e	n/a
