onset	duration	sample	value	key	prompt_text
14.847	13.3195	29694	prompt	n/a	the quick brown fox jumps over a lazy dog\n
16.7505	0.027	33501	keystroke	t	n/a
16.7785	0.105	33557	keystroke	h	n/a
16.898	0.12	33796	keystroke	e	n/a
17.032	0.106	34064	keystroke	Key.space	n/a
17.7675	0.1045	35535	keystroke	q	n/a
17.933	0.09	35866	keystroke	u	n/a
18.068	0.12	36136	keystroke	i	n/a
18.218	0.075	36436	keystroke	c	n/a
18.323	0.15	36646	keystroke	k	n/a
18.458	0.0745	36916	keystroke	Key.space	n/a
18.667	0.061	37334	keystroke	b	n/a
18.8775	0.0755	37755	keystroke	r	n/a
18.968	0.1645	37936	keystroke	o	n/a
19.088	0.0745	38176	keystroke	w	n/a
19.193	0.164	38386	keystroke	n	n/a
19.3125	0.09	38625	keystroke	Key.space	n/a
19.627	0.075	39254	keystroke	f	n/a
19.748	0.135	39496	keystroke	o	n/a
19.763	0.0145	39526	keystroke	i	n/a
19.972	0.091	39944	keystroke	x	n/a
20.123	0.119	40246	keystroke	Key.space	n/a
20.662	0.076	41324	keystroke	Key.backspace	n/a
20.8125	0.09	41625	keystroke	Key.backspace	n/a
21.023	0.09	42046	keystroke	Key.backspace	n/a
21.758	0.075	43516	keystroke	x	n/a
21.893	0.1045	43786	keystroke	Key.space	n/a
22.1175	0.0755	44235	keystroke	j	n/a
22.328	0.074	44656	keystroke	u	n/a
22.537	0.0905	45074	keystroke	m	n/a
22.7325	0.105	45465	keystroke	p	n/a
22.912	0.076	45824	keystroke	s	n/a
23.483	0.06	46966	keystroke	Key.space	n/a
23.993	0.09	47986	keystroke	o	n/a
24.038	0.105	48076	keystroke	v	n/a
24.2025	0.1195	48405	keystroke	e	n/a
24.398	0.105	48796	keystroke	r	n/a
24.517	0.076	49034	keystroke	Key.space	n/a
25.043	0.06	50086	keystroke	a	n/a
25.178	0.074	50356	keystroke	Key.space	n/a
25.328	0.105	50656	keystroke	l	n/a
25.448	0.09	50896	keystroke	a	n/a
26.2135	0.0745	52427	keystroke	y	n/a
26.828	0.105	53656	keystroke	Key.backspace	n/a
26.948	0.06	53896	keystroke	z	n/a
27.1125	0.0755	54225	keystroke	y	n/a
27.443	0.0895	54886	keystroke	Key.space	n/a
27.623	0.0905	55246	keystroke	d	n/a
27.6985	0.1345	55397	keystroke	o	n/a
27.8775	0.105	55755	keystroke	g	n/a
28.0575	0.1055	56115	keystroke	Key.enter	n/a
28.173	6.337	56346	prompt	n/a	beans people sought complaints\n
29.198	0.1055	58396	keystroke	b	n/a
29.3475	0.1205	58695	keystroke	e	n/a
29.4975	0.135	58995	keystroke	a	n/a
29.618	0.09	59236	keystroke	n	n/a
29.738	0.1195	59476	keystroke	s	n/a
29.903	0.09	59806	keystroke	Key.space	n/a
30.308	0.1195	60616	keystroke	p	n/a
30.593	0.074	61186	keystroke	e	n/a
30.697	0.106	61394	keystroke	o	n/a
30.893	0.1205	61786	keystroke	p	n/a
31.1035	0.1645	62207	keystroke	l	n/a
31.238	0.075	62476	keystroke	e	n/a
31.403	0.12	62806	keystroke	Key.space	n/a
31.583	0.105	63166	keystroke	s	n/a
31.658	0.075	63316	keystroke	o	n/a
31.763	0.12	63526	keystroke	u	n/a
32.0625	0.0755	64125	keystroke	g	n/a
32.1675	0.1205	64335	keystroke	h	n/a
32.303	0.0905	64606	keystroke	t	n/a
32.453	0.105	64906	keystroke	Key.space	n/a
32.663	0.105	65326	keystroke	c	n/a
32.737	0.121	65474	keystroke	o	n/a
32.918	0.105	65836	keystroke	m	n/a
33.113	0.09	66226	keystroke	p	n/a
33.323	0.1195	66646	keystroke	l	n/a
33.4275	0.1205	66855	keystroke	a	n/a
33.5925	0.03	67185	keystroke	i	n/a
33.7285	0.089	67457	keystroke	n	n/a
33.8925	0.105	67785	keystroke	t	n/a
34.178	0.1045	68356	keystroke	s	n/a
34.4175	0.09	68835	keystroke	Key.enter	n/a
34.515	7.81	69030	prompt	n/a	she's household caroline fossil\n
35.273	0.105	70546	keystroke	s	n/a
35.393	0.105	70786	keystroke	h	n/a
35.528	0.075	71056	keystroke	e	n/a
35.723	0.105	71446	keystroke	'	n/a
36.1135	0.074	72227	keystroke	s	n/a
36.6075	0.075	73215	keystroke	Key.space	n/a
36.8325	0.06	73665	keystroke	h	n/a
36.9075	0.12	73815	keystroke	o	n/a
37.2975	0.1045	74595	keystroke	u	n/a
37.627	0.076	75254	keystroke	s	n/a
37.8235	0.0595	75647	keystroke	e	n/a
38.213	0.135	76426	keystroke	h	n/a
38.303	0.12	76606	keystroke	o	n/a
38.527	0.1205	77054	keystroke	l	n/a
38.6775	0.075	77355	keystroke	d	n/a
38.873	0.0895	77746	keystroke	Key.space	n/a
39.338	0.0905	78676	keystroke	c	n/a
39.5475	0.0905	79095	keystroke	a	n/a
39.8175	0.0905	79635	keystroke	r	n/a
40.208	0.09	80416	keystroke	o	n/a
40.433	0.09	80866	keystroke	l	n/a
40.568	0.075	81136	keystroke	i	n/a
40.748	0.12	81496	keystroke	n	n/a
40.883	0.075	81766	keystroke	e	n/a
41.003	0.105	82006	keystroke	Key.space	n/a
41.213	0.09	82426	keystroke	f	n/a
41.288	0.105	82576	keystroke	o	n/a
41.453	0.089	82906	keystroke	s	n/a
41.617	0.106	83234	keystroke	s	n/a
41.707	0.106	83414	keystroke	i	n/a
41.9175	0.105	83835	keystroke	l	n/a
42.2475	0.0755	84495	keystroke	Key.enter	n/a
42.3295	8.036	84659	prompt	n/a	zealand weekend commands selections\n
43.9575	0.075	87915	keystroke	z	n/a
44.243	0.075	88486	keystroke	e	n/a
44.408	0.105	88816	keystroke	a	n/a
44.693	0.15	89386	keystroke	l	n/a
44.828	0.089	89656	keystroke	a	n/a
45.128	0.105	90256	keystroke	n	n/a
45.278	0.06	90556	keystroke	d	n/a
45.458	0.09	90916	keystroke	Key.space	n/a
45.938	0.045	91876	keystroke	w	n/a
46.088	0.06	92176	keystroke	e	n/a
46.208	0.075	92416	keystroke	e	n/a
46.313	0.121	92626	keystroke	k	n/a
46.448	0.06	92896	keystroke	e	n/a
46.553	0.12	93106	keystroke	n	n/a
46.688	0.075	93376	keystroke	d	n/a
46.823	0.1045	93646	keystroke	Key.space	n/a
46.973	0.105	93946	keystroke	c	n/a
47.063	0.1055	94126	keystroke	o	n/a
47.257	0.091	94514	keystroke	m	n/a
47.408	0.104	94816	keystroke	m	n/a
47.528	0.105	95056	keystroke	a	n/a
47.663	0.105	95326	keystroke	n	n/a
47.783	0.1045	95566	keystroke	d	n/a
47.933	0.105	95866	keystroke	s	n/a
48.2325	0.03	96465	keystroke	Key.space	n/a
48.4585	0.0895	96917	keystroke	s	n/a
48.6685	0.0745	97337	keystroke	e	n/a
48.8175	0.165	97635	keystroke	l	n/a
48.9075	0.0605	97815	keystroke	e	n/a
49.1335	0.074	98267	keystroke	c	n/a
49.4325	0.0905	98865	keystroke	t	n/a
49.583	0.179	99166	keystroke	i	n/a
49.673	0.21	99346	keystroke	o	n/a
49.8835	0.135	99767	keystroke	n	n/a
50.0475	0.0905	100095	keystroke	s	n/a
50.273	0.089	100546	keystroke	Key.enter	n/a
50.37	9.2195	100740	prompt	n/a	representation projectors holds lemon\n
51.083	0.12	102166	keystroke	r	n/a
51.218	0.1045	102436	keystroke	e	n/a
51.428	0.0895	102856	keystroke	p	n/a
51.533	0.15	103066	keystroke	r	n/a
51.638	0.1055	103276	keystroke	e	n/a
51.878	0.1045	103756	keystroke	s	n/a
52.477	0.076	104954	keystroke	e	n/a
52.703	0.075	105406	keystroke	n	n/a
52.928	0.09	105856	keystroke	t	n/a
53.108	0.12	106216	keystroke	a	n/a
53.378	0.075	106756	keystroke	t	n/a
53.483	0.15	106966	keystroke	i	n/a
53.573	0.15	107146	keystroke	o	n/a
53.7675	0.105	107535	keystroke	n	n/a
53.8875	0.105	107775	keystroke	Key.space	n/a
54.322	0.1205	108644	keystroke	p	n/a
54.638	0.1045	109276	keystroke	r	n/a
54.818	0.12	109636	keystroke	o	n/a
55.508	0.105	111016	keystroke	j	n/a
55.583	0.0745	111166	keystroke	e	n/a
56.0625	0.075	112125	keystroke	c	n/a
56.378	0.075	112756	keystroke	t	n/a
56.5125	0.121	113025	keystroke	o	n/a
56.6335	0.0895	113267	keystroke	r	n/a
56.9625	0.105	113925	keystroke	s	n/a
57.248	0.075	114496	keystroke	Key.space	n/a
57.697	0.1355	115394	keystroke	h	n/a
57.7875	0.1055	115575	keystroke	o	n/a
57.9825	0.1355	115965	keystroke	l	n/a
58.103	0.089	116206	keystroke	d	n/a
58.313	0.0895	116626	keystroke	s	n/a
58.4475	0.09	116895	keystroke	Key.space	n/a
58.6875	0.12	117375	keystroke	l	n/a
58.8375	0.09	117675	keystroke	e	n/a
58.9575	0.12	117915	keystroke	m	n/a
59.107	0.106	118214	keystroke	o	n/a
59.272	0.121	118544	keystroke	n	n/a
59.4975	0.09	118995	keystroke	Key.enter	n/a
59.594	8.7115	119188	prompt	n/a	occasionally boom stem guyana\n
60.6235	0.0895	121247	keystroke	o	n/a
60.788	0.089	121576	keystroke	c	n/a
60.9375	0.105	121875	keystroke	c	n/a
61.2525	0.1205	122505	keystroke	a	n/a
61.5075	0.0605	123015	keystroke	s	n/a
61.6275	0.1505	123255	keystroke	i	n/a
61.733	0.1045	123466	keystroke	o	n/a
61.913	0.1195	123826	keystroke	n	n/a
62.033	0.105	124066	keystroke	a	n/a
62.153	0.0895	124306	keystroke	l	n/a
62.3475	0.09	124695	keystroke	l	n/a
62.5875	0.106	125175	keystroke	y	n/a
62.7075	0.0755	125415	keystroke	Key.space	n/a
62.8725	0.12	125745	keystroke	b	n/a
62.9625	0.0755	125925	keystroke	o	n/a
63.143	0.135	126286	keystroke	o	n/a
63.383	0.105	126766	keystroke	n	n/a
63.622	0.09	127244	keystroke	Key.space	n/a
64.147	0.075	128294	keystroke	Key.backspace	n/a
64.343	0.105	128686	keystroke	Key.backspace	n/a
64.643	0.1195	129286	keystroke	m	n/a
64.8825	0.09	129765	keystroke	Key.space	n/a
65.2875	0.075	130575	keystroke	s	n/a
65.5275	0.09	131055	keystroke	t	n/a
65.693	0.1195	131386	keystroke	e	n/a
65.8575	0.1655	131715	keystroke	m	n/a
66.0235	0.089	132047	keystroke	Key.space	n/a
66.5925	0.0905	133185	keystroke	g	n/a
66.8175	0.075	133635	keystroke	u	n/a
66.9975	0.09	133995	keystroke	y	n/a
67.1925	0.12	134385	keystroke	a	n/a
67.3575	0.1205	134715	keystroke	n	n/a
67.4625	0.105	134925	keystroke	a	n/a
68.228	0.074	136456	keystroke	Key.enter	n/a
68.3115	9.593	136623	prompt	n/a	arbor explanation talked admission\n
69.3675	0.105	138735	keystroke	a	n/a
69.6525	0.06	139305	keystroke	r	n/a
69.8925	0.0605	139785	keystroke	b	n/a
69.9675	0.12	139935	keystroke	o	n/a
70.163	0.09	140326	keystroke	r	n/a
70.3275	0.09	140655	keystroke	Key.space	n/a
71.0625	0.06	142125	keystroke	e	n/a
71.6175	0.0605	143235	keystroke	x	n/a
71.7975	0.09	143595	keystroke	p	n/a
72.0075	0.1355	144015	keystroke	l	n/a
72.0825	0.1055	144165	keystroke	a	n/a
72.4575	0.09	144915	keystroke	n	n/a
72.5485	0.089	145097	keystroke	a	n/a
72.8175	0.0905	145635	keystroke	t	n/a
72.9975	0.1655	145995	keystroke	i	n/a
73.102	0.151	146204	keystroke	o	n/a
73.2675	0.1055	146535	keystroke	n	n/a
73.957	0.0755	147914	keystroke	Key.space	n/a
74.213	0.1045	148426	keystroke	t	n/a
74.602	0.105	149204	keystroke	a	n/a
74.7675	0.1055	149535	keystroke	l	n/a
74.887	0.121	149774	keystroke	k	n/a
75.203	0.074	150406	keystroke	e	n/a
75.383	0.0895	150766	keystroke	d	n/a
75.547	0.0755	151094	keystroke	Key.space	n/a
75.8175	0.12	151635	keystroke	a	n/a
76.0275	0.09	152055	keystroke	d	n/a
76.4175	0.09	152835	keystroke	m	n/a
76.6425	0.1195	153285	keystroke	i	n/a
77.0035	0.0745	154007	keystroke	s	n/a
77.1675	0.09	154335	keystroke	s	n/a
77.2725	0.1505	154545	keystroke	i	n/a
77.378	0.1645	154756	keystroke	o	n/a
77.573	0.1045	155146	keystroke	n	n/a
77.8125	0.0905	155625	keystroke	Key.enter	n/a
77.9115	7.538	155823	prompt	n/a	fragrance betting appeal salmon\n
78.7425	0.075	157485	keystroke	f	n/a
78.9375	0.09	157875	keystroke	r	n/a
79.1175	0.1205	158235	keystroke	a	n/a
79.3725	0.075	158745	keystroke	g	n/a
79.613	0.1045	159226	keystroke	r	n/a
79.7625	0.1505	159525	keystroke	a	n/a
79.9425	0.1355	159885	keystroke	n	n/a
80.0325	0.1055	160065	keystroke	c	n/a
80.302	0.0905	160604	keystroke	e	n/a
80.4075	0.12	160815	keystroke	Key.space	n/a
80.6925	0.09	161385	keystroke	b	n/a
80.9625	0.105	161925	keystroke	e	n/a
81.218	0.0595	162436	keystroke	t	n/a
81.3375	0.105	162675	keystroke	t	n/a
81.4725	0.105	162945	keystroke	i	n/a
81.6675	0.1345	163335	keystroke	n	n/a
81.817	0.091	163634	keystroke	g	n/a
81.952	0.105	163904	keystroke	Key.space	n/a
82.117	0.091	164234	keystroke	a	n/a
82.2675	0.0755	164535	keystroke	p	n/a
82.433	0.1345	164866	keystroke	p	n/a
82.627	0.0755	165254	keystroke	e	n/a
83.318	0.15	166636	keystroke	a	n/a
83.4825	0.075	166965	keystroke	l	n/a
83.633	0.09	167266	keystroke	Key.space	n/a
83.813	0.165	167626	keystroke	s	n/a
83.933	0.15	167866	keystroke	a	n/a
84.097	0.121	168194	keystroke	l	n/a
84.308	0.09	168616	keystroke	m	n/a
84.9375	0.1055	169875	keystroke	o	n/a
85.117	0.106	170234	keystroke	n	n/a
85.372	0.075	170744	keystroke	Key.enter	n/a
85.4545	8.98	170909	prompt	n/a	herbal blue namely blood\n
86.483	0.075	172966	keystroke	h	n/a
86.978	0.06	173956	keystroke	e	n/a
87.113	0.075	174226	keystroke	r	n/a
87.368	0.1495	174736	keystroke	b	n/a
87.4875	0.0905	174975	keystroke	a	n/a
88.3875	0.1205	176775	keystroke	l	n/a
88.5525	0.0895	177105	keystroke	Key.space	n/a
88.778	0.09	177556	keystroke	b	n/a
88.883	0.12	177766	keystroke	l	n/a
89.108	0.09	178216	keystroke	u	n/a
89.302	0.091	178604	keystroke	e	n/a
89.438	0.09	178876	keystroke	Key.space	n/a
89.633	0.09	179266	keystroke	n	n/a
89.753	0.134	179506	keystroke	a	n/a
89.873	0.1195	179746	keystroke	m	n/a
90.083	0.0895	180166	keystroke	e	n/a
90.1425	0.165	180285	keystroke	l	n/a
90.443	0.0895	180886	keystroke	y	n/a
91.7175	0.0905	183435	keystroke	Key.space	n/a
91.8975	0.09	183795	keystroke	b	n/a
92.573	0.0895	185146	keystroke	l	n/a
92.8275	0.0755	185655	keystroke	o	n/a
92.993	0.1045	185986	keystroke	o	n/a
93.2175	0.075	186435	keystroke	d	n/a
93.4425	0.06	186885	keystroke	Key.space	n/a
94.3425	0.09	188685	keystroke	Key.enter	n/a
94.4405	9.189	188881	prompt	n/a	appeared bookmark rapids hazardous\n
95.3325	0.0895	190665	keystroke	a	n/a
95.452	0.061	190904	keystroke	p	n/a
95.6035	0.0745	191207	keystroke	p	n/a
95.767	0.09	191534	keystroke	e	n/a
95.993	0.075	191986	keystroke	r	n/a
96.8625	0.075	193725	keystroke	Key.backspace	n/a
97.208	0.0745	194416	keystroke	a	n/a
98.123	0.104	196246	keystroke	r	n/a
98.2725	0.09	196545	keystroke	e	n/a
98.4825	0.0755	196965	keystroke	d	n/a
98.6325	0.0905	197265	keystroke	Key.space	n/a
98.768	0.06	197536	keystroke	b	n/a
98.8725	0.1055	197745	keystroke	o	n/a
99.0375	0.12	198075	keystroke	o	n/a
99.248	0.104	198496	keystroke	k	n/a
99.443	0.12	198886	keystroke	m	n/a
99.593	0.1195	199186	keystroke	a	n/a
99.8625	0.105	199725	keystroke	r	n/a
100.0275	0.1355	200055	keystroke	k	n/a
100.147	0.09	200294	keystroke	Key.space	n/a
100.418	0.105	200836	keystroke	r	n/a
100.598	0.134	201196	keystroke	a	n/a
100.823	0.09	201646	keystroke	p	n/a
101.003	0.105	202006	keystroke	i	n/a
101.197	0.076	202394	keystroke	d	n/a
101.377	0.091	202754	keystroke	s	n/a
101.5125	0.0895	203025	keystroke	Key.space	n/a
101.708	0.135	203416	keystroke	h	n/a
101.798	0.105	203596	keystroke	a	n/a
102.023	0.104	204046	keystroke	z	n/a
102.263	0.105	204526	keystroke	a	n/a
102.5475	0.09	205095	keystroke	r	n/a
102.8475	0.09	205695	keystroke	d	n/a
102.953	0.1045	205906	keystroke	o	n/a
103.0725	0.165	206145	keystroke	u	n/a
103.3275	0.075	206655	keystroke	s	n/a
103.553	0.0745	207106	keystroke	Key.enter	n/a
103.634	5.275	207268	prompt	n/a	tones perth folks so\n
104.3475	0.1055	208695	keystroke	t	n/a
104.4675	0.1205	208935	keystroke	o	n/a
104.6475	0.18	209295	keystroke	n	n/a
104.8125	0.1055	209625	keystroke	e	n/a
105.038	0.1195	210076	keystroke	s	n/a
105.1875	0.09	210375	keystroke	Key.space	n/a
105.4125	0.09	210825	keystroke	p	n/a
105.6825	0.09	211365	keystroke	e	n/a
105.893	0.0745	211786	keystroke	r	n/a
106.0725	0.0905	212145	keystroke	t	n/a
106.2375	0.18	212475	keystroke	h	n/a
106.4025	0.09	212805	keystroke	Key.space	n/a
106.6575	0.09	213315	keystroke	f	n/a
106.7625	0.0895	213525	keystroke	o	n/a
106.973	0.09	213946	keystroke	l	n/a
107.1075	0.15	214215	keystroke	k	n/a
107.4075	0.09	214815	keystroke	s	n/a
108.1875	0.0895	216375	keystroke	Key.space	n/a
108.4725	0.0745	216945	keystroke	s	n/a
108.5625	0.1205	217125	keystroke	o	n/a
108.817	0.09	217634	keystroke	Key.enter	n/a
108.9135	11.9955	217827	prompt	n/a	characterization fence movers branches\n
109.687	0.075	219374	keystroke	c	n/a
109.777	0.106	219554	keystroke	h	n/a
110.077	0.1205	220154	keystroke	r	n/a
110.242	0.1355	220484	keystroke	a	n/a
110.9925	0.075	221985	keystroke	Key.backspace	n/a
111.2025	0.09	222405	keystroke	Key.backspace	n/a
111.3525	0.105	222705	keystroke	a	n/a
112.0125	0.09	224025	keystroke	r	n/a
112.3125	0.12	224625	keystroke	a	n/a
112.5525	0.0605	225105	keystroke	c	n/a
113.0625	0.0755	226125	keystroke	t	n/a
113.258	0.0895	226516	keystroke	e	n/a
113.4375	0.09	226875	keystroke	r	n/a
113.5575	0.1345	227115	keystroke	i	n/a
113.753	0.09	227506	keystroke	z	n/a
114.4425	0.0605	228885	keystroke	a	n/a
114.8175	0.09	229635	keystroke	t	n/a
115.2675	0.15	230535	keystroke	i	n/a
115.343	0.18	230686	keystroke	o	n/a
115.568	0.1195	231136	keystroke	n	n/a
115.7475	0.105	231495	keystroke	Key.space	n/a
116.438	0.12	232876	keystroke	f	n/a
116.603	0.074	233206	keystroke	e	n/a
116.753	0.134	233506	keystroke	n	n/a
116.872	0.075	233744	keystroke	c	n/a
117.128	0.059	234256	keystroke	e	n/a
117.307	0.09	234614	keystroke	Key.space	n/a
117.562	0.106	235124	keystroke	m	n/a
117.7575	0.12	235515	keystroke	o	n/a
117.8925	0.09	235785	keystroke	v	n/a
118.0575	0.1045	236115	keystroke	e	n/a
118.252	0.076	236504	keystroke	r	n/a
118.478	0.105	236956	keystroke	s	n/a
118.642	0.075	237284	keystroke	Key.space	n/a
118.792	0.09	237584	keystroke	b	n/a
119.093	0.0895	238186	keystroke	r	n/a
119.273	0.135	238546	keystroke	a	n/a
119.4525	0.09	238905	keystroke	n	n/a
119.5725	0.075	239145	keystroke	c	n/a
119.7235	0.119	239447	keystroke	h	n/a
119.8275	0.075	239655	keystroke	e	n/a
120.0375	0.0755	240075	keystroke	s	n/a
120.832	0.0755	241664	keystroke	Key.enter	n/a
120.9135	9.5355	241827	prompt	n/a	decide hayes dependence memorial\n
121.8975	0.0605	243795	keystroke	d	n/a
122.1075	0.06	244215	keystroke	e	n/a
122.3325	0.075	244665	keystroke	c	n/a
122.4375	0.12	244875	keystroke	i	n/a
122.6475	0.075	245295	keystroke	d	n/a
122.8575	0.075	245715	keystroke	e	n/a
123.4725	0.075	246945	keystroke	Key.space	n/a
123.8925	0.105	247785	keystroke	h	n/a
123.9825	0.09	247965	keystroke	a	n/a
124.223	0.1195	248446	keystroke	y	n/a
124.3725	0.0905	248745	keystroke	e	n/a
124.6125	0.09	249225	keystroke	s	n/a
124.8215	0.0755	249643	keystroke	Key.space	n/a
125.1225	0.06	250245	keystroke	d	n/a
125.3025	0.09	250605	keystroke	e	n/a
125.482	0.135	250964	keystroke	p	n/a
125.602	0.09	251204	keystroke	e	n/a
125.767	0.12	251534	keystroke	n	n/a
125.918	0.0895	251836	keystroke	c	n/a
127.057	0.0755	254114	keystroke	Key.backspace	n/a
127.2075	0.0745	254415	keystroke	d	n/a
127.402	0.06	254804	keystroke	e	n/a
127.612	0.1055	255224	keystroke	n	n/a
127.6875	0.09	255375	keystroke	c	n/a
127.958	0.0895	255916	keystroke	e	n/a
128.1065	0.091	256213	keystroke	Key.space	n/a
128.3175	0.105	256635	keystroke	m	n/a
128.4525	0.0755	256905	keystroke	e	n/a
128.752	0.09	257504	keystroke	m	n/a
129.007	0.105	258014	keystroke	o	n/a
129.262	0.1055	258524	keystroke	r	n/a
129.3975	0.105	258795	keystroke	i	n/a
129.983	0.089	259966	keystroke	a	n/a
130.103	0.1045	260206	keystroke	l	n/a
130.3725	0.0745	260745	keystroke	Key.enter	n/a
130.4535	8.546	260907	prompt	n/a	knitting chubby hopefully limited\n
131.213	0.105	262426	keystroke	k	n/a
131.408	0.104	262816	keystroke	n	n/a
131.572	0.105	263144	keystroke	i	n/a
131.7675	0.075	263535	keystroke	t	n/a
131.9315	0.076	263863	keystroke	t	n/a
132.0375	0.12	264075	keystroke	i	n/a
132.202	0.1205	264404	keystroke	n	n/a
132.367	0.075	264734	keystroke	g	n/a
132.487	0.105	264974	keystroke	Key.space	n/a
132.682	0.1055	265364	keystroke	c	n/a
132.8325	0.0445	265665	keystroke	h	n/a
133.0125	0.0745	266025	keystroke	u	n/a
133.147	0.0905	266294	keystroke	b	n/a
133.2975	0.1045	266595	keystroke	b	n/a
133.462	0.105	266924	keystroke	y	n/a
133.657	0.075	267314	keystroke	Key.space	n/a
134.1675	0.12	268335	keystroke	h	n/a
134.3175	0.165	268635	keystroke	o	n/a
134.468	0.1495	268936	keystroke	p	n/a
134.6475	0.075	269295	keystroke	e	n/a
135.4125	0.0755	270825	keystroke	f	n/a
135.592	0.105	271184	keystroke	u	n/a
135.817	0.09	271634	keystroke	l	n/a
135.982	0.0905	271964	keystroke	l	n/a
136.222	0.09	272444	keystroke	y	n/a
136.3275	0.12	272655	keystroke	Key.space	n/a
136.567	0.135	273134	keystroke	i	n/a
136.988	0.074	273976	keystroke	Key.backspace	n/a
137.258	0.135	274516	keystroke	l	n/a
137.5875	0.09	275175	keystroke	i	n/a
137.8275	0.075	275655	keystroke	m	n/a
138.053	0.0745	276106	keystroke	i	n/a
138.3375	0.09	276675	keystroke	t	n/a
138.5025	0.09	277005	keystroke	e	n/a
138.7275	0.09	277455	keystroke	d	n/a
138.9075	0.09	277815	keystroke	Key.enter	n/a
139.0045	7.4045	278009	prompt	n/a	admissions beast mistake manage\n
139.7625	0.105	279525	keystroke	a	n/a
139.9575	0.09	279915	keystroke	d	n/a
140.123	0.0895	280246	keystroke	m	n/a
140.3175	0.075	280635	keystroke	i	n/a
140.5275	0.06	281055	keystroke	s	n/a
140.6775	0.105	281355	keystroke	s	n/a
140.8125	0.1645	281625	keystroke	i	n/a
140.918	0.149	281836	keystroke	o	n/a
141.1125	0.1195	282225	keystroke	n	n/a
141.352	0.0755	282704	keystroke	s	n/a
141.547	0.075	283094	keystroke	Key.space	n/a
141.8625	0.0745	283725	keystroke	b	n/a
142.058	0.089	284116	keystroke	e	n/a
142.237	0.1055	284474	keystroke	a	n/a
142.4325	0.12	284865	keystroke	s	n/a
142.6875	0.0755	285375	keystroke	t	n/a
142.837	0.105	285674	keystroke	Key.space	n/a
143.0175	0.1045	286035	keystroke	m	n/a
143.2425	0.0895	286485	keystroke	i	n/a
143.572	0.105	287144	keystroke	s	n/a
143.8575	0.1045	287715	keystroke	t	n/a
144.022	0.1355	288044	keystroke	a	n/a
144.2025	0.135	288405	keystroke	k	n/a
144.3675	0.075	288735	keystroke	e	n/a
144.487	0.12	288974	keystroke	Key.space	n/a
145.087	0.105	290174	keystroke	m	n/a
145.342	0.0605	290684	keystroke	a	n/a
145.448	0.089	290896	keystroke	n	n/a
145.613	0.1045	291226	keystroke	a	n/a
145.912	0.075	291824	keystroke	g	n/a
146.122	0.076	292244	keystroke	e	n/a
146.3325	0.0745	292665	keystroke	Key.enter	n/a
146.415	8.6345	292830	prompt	n/a	navigation acting mortality fiscal\n
147.113	0.104	294226	keystroke	n	n/a
147.352	0.09	294704	keystroke	a	n/a
148.027	0.09	296054	keystroke	v	n/a
148.342	0.105	296684	keystroke	i	n/a
148.583	0.12	297166	keystroke	g	n/a
148.703	0.15	297406	keystroke	a	n/a
149.003	0.104	298006	keystroke	t	n/a
149.1525	0.18	298305	keystroke	i	n/a
149.272	0.165	298544	keystroke	o	n/a
149.482	0.135	298964	keystroke	n	n/a
149.632	0.0905	299264	keystroke	Key.space	n/a
149.842	0.076	299684	keystroke	a	n/a
150.007	0.075	300014	keystroke	c	n/a
150.293	0.089	300586	keystroke	t	n/a
150.413	0.119	300826	keystroke	i	n/a
150.637	0.1055	301274	keystroke	n	n/a
150.787	0.075	301574	keystroke	g	n/a
150.907	0.12	301814	keystroke	Key.space	n/a
151.2525	0.09	302505	keystroke	m	n/a
151.477	0.121	302954	keystroke	o	n/a
151.642	0.0905	303284	keystroke	r	n/a
151.897	0.0605	303794	keystroke	t	n/a
152.0625	0.105	304125	keystroke	a	n/a
152.9475	0.105	305895	keystroke	l	n/a
153.0975	0.12	306195	keystroke	i	n/a
153.293	0.0895	306586	keystroke	t	n/a
153.412	0.09	306824	keystroke	y	n/a
153.517	0.105	307034	keystroke	Key.space	n/a
153.8025	0.0745	307605	keystroke	f	n/a
153.892	0.135	307784	keystroke	i	n/a
154.043	0.105	308086	keystroke	s	n/a
154.283	0.074	308566	keystroke	c	n/a
154.5225	0.09	309045	keystroke	a	n/a
154.6425	0.105	309285	keystroke	l	n/a
154.9725	0.075	309945	keystroke	Key.enter	n/a
155.054	18.8205	310108	prompt	n/a	earnings increasing charges arts\n
156.203	0.0595	312406	keystroke	e	n/a
156.3375	0.135	312675	keystroke	a	n/a
156.6375	0.09	313275	keystroke	r	n/a
156.848	0.1045	313696	keystroke	n	n/a
157.0275	0.076	314055	keystroke	i	n/a
157.1925	0.1345	314385	keystroke	n	n/a
157.402	0.0755	314804	keystroke	g	n/a
157.673	0.074	315346	keystroke	s	n/a
157.822	0.09	315644	keystroke	Key.space	n/a
158.0175	0.0745	316035	keystroke	i	n/a
158.152	0.105	316304	keystroke	n	n/a
158.3925	0.09	316785	keystroke	c	n/a
158.6475	0.06	317295	keystroke	e	n/a
159.0525	0.0745	318105	keystroke	=	n/a
159.172	0.1205	318344	keystroke	r	n/a
159.3225	0.105	318645	keystroke	e	n/a
159.487	0.1355	318974	keystroke	a	n/a
159.742	0.0905	319484	keystroke	s	n/a
159.848	0.059	319696	keystroke	i	n/a
159.967	0.135	319934	keystroke	n	n/a
160.117	0.06	320234	keystroke	g	n/a
160.207	0.09	320414	keystroke	Key.space	n/a
160.372	0.121	320744	keystroke	c	n/a
160.463	0.104	320926	keystroke	h	n/a
161.513	0.0745	323026	keystroke	=	n/a
161.513	0.0745	323026	keystroke	Key.backspace	n/a
161.798	0.0595	323596	keystroke	=	n/a
161.9925	0.0745	323985	keystroke	=	n/a
162.187	0.06	324374	keystroke	=	n/a
162.877	0.075	325754	keystroke	Key.backspace	n/a
163.0725	0.0745	326145	keystroke	Key.backspace	n/a
163.2525	0.06	326505	keystroke	Key.backspace	n/a
163.4325	0.075	326865	keystroke	Key.backspace	n/a
163.6125	0.075	327225	keystroke	Key.backspace	n/a
163.8075	0.06	327615	keystroke	Key.backspace	n/a
163.9875	0.075	327975	keystroke	Key.backspace	n/a
164.182	0.075	328364	keystroke	Key.backspace	n/a
164.377	0.075	328754	keystroke	Key.backspace	n/a
164.572	0.075	329144	keystroke	Key.backspace	n/a
164.812	0.075	329624	keystroke	Key.backspace	n/a
165.0825	0.0595	330165	keystroke	Key.backspace	n/a
165.6075	0.0745	331215	keystroke	Key.backspace	n/a
165.877	0.09	331754	keystroke	Key.backspace	n/a
166.327	0.075	332654	keystroke	Key.backspace	n/a
167.287	0.15	334574	keystroke	r	n/a
167.392	0.121	334784	keystroke	e	n/a
167.632	0.0905	335264	keystroke	a	n/a
167.9475	0.0755	335895	keystroke	s	n/a
168.0675	0.09	336135	keystroke	i	n/a
168.2625	0.1045	336525	keystroke	n	n/a
168.3675	0.075	336735	keystroke	g	n/a
168.5325	0.089	337065	keystroke	Key.space	n/a
169.2825	0.09	338565	keystroke	c	n/a
169.4165	0.1065	338833	keystroke	h	n/a
169.5675	0.09	339135	keystroke	a	n/a
170.257	0.0605	340514	keystroke	r	n/a
170.4525	0.09	340905	keystroke	g	n/a
170.647	0.075	341294	keystroke	e	n/a
170.8575	0.06	341715	keystroke	s	n/a
171.9365	0.0605	343873	keystroke	Key.space	n/a
172.1325	0.09	344265	keystroke	a	n/a
172.373	0.0595	344746	keystroke	r	n/a
172.5525	0.075	345105	keystroke	t	n/a
172.9265	0.12	345853	keystroke	s	n/a
173.7975	0.075	347595	keystroke	Key.enter	n/a
173.888	9.6315	347776	prompt	n/a	issued elect bhutan participants\n
175.238	0.1035	350476	keystroke	i	n/a
175.5075	0.074	351015	keystroke	s	n/a
175.7025	0.09	351405	keystroke	s	n/a
176.272	0.045	352544	keystroke	u	n/a
177.052	0.09	354104	keystroke	e	n/a
177.292	0.0755	354584	keystroke	d	n/a
177.442	0.09	354884	keystroke	Key.space	n/a
177.788	0.0595	355576	keystroke	e	n/a
177.9225	0.135	355845	keystroke	l	n/a
178.0125	0.075	356025	keystroke	e	n/a
178.2825	0.104	356565	keystroke	c	n/a
178.5825	0.06	357165	keystroke	t	n/a
178.7625	0.0745	357525	keystroke	Key.space	n/a
179.3625	0.06	358725	keystroke	b	n/a
179.5125	0.075	359025	keystroke	h	n/a
179.7075	0.075	359415	keystroke	u	n/a
179.8275	0.105	359655	keystroke	t	n/a
180.7565	0.091	361513	keystroke	a	n/a
180.9075	0.104	361815	keystroke	n	n/a
181.1015	0.106	362203	keystroke	Key.space	n/a
181.2965	0.09	362593	keystroke	p	n/a
181.4325	0.105	362865	keystroke	a	n/a
181.7325	0.075	363465	keystroke	r	n/a
181.867	0.1205	363734	keystroke	i	n/a
182.1375	0.0895	364275	keystroke	c	n/a
182.212	0.12	364424	keystroke	i	n/a
182.4225	0.1195	364845	keystroke	p	n/a
182.527	0.105	365054	keystroke	a	n/a
182.663	0.1195	365326	keystroke	n	n/a
182.9025	0.09	365805	keystroke	t	n/a
183.1875	0.09	366375	keystroke	s	n/a
183.4425	0.075	366885	keystroke	Key.enter	n/a
183.5235	6.2955	367047	prompt	n/a	slide dated thread strong\n
184.4775	0.075	368955	keystroke	s	n/a
184.5375	0.105	369075	keystroke	l	n/a
184.7025	0.12	369405	keystroke	i	n/a
184.7925	0.0755	369585	keystroke	d	n/a
184.9875	0.09	369975	keystroke	e	n/a
185.1225	0.09	370245	keystroke	Key.space	n/a
185.3025	0.135	370605	keystroke	d	n/a
185.4075	0.15	370815	keystroke	a	n/a
185.7065	0.0915	371413	keystroke	t	n/a
185.8575	0.1045	371715	keystroke	e	n/a
186.082	0.0905	372164	keystroke	d	n/a
186.247	0.075	372494	keystroke	Key.space	n/a
186.5175	0.0895	373035	keystroke	t	n/a
186.7125	0.1045	373425	keystroke	h	n/a
186.9225	0.1495	373845	keystroke	r	n/a
187.0125	0.135	374025	keystroke	e	n/a
187.2525	0.135	374505	keystroke	a	n/a
187.4925	0.075	374985	keystroke	d	n/a
187.6425	0.09	375285	keystroke	Key.space	n/a
187.792	0.12	375584	keystroke	s	n/a
188.0775	0.09	376155	keystroke	t	n/a
188.3015	0.076	376603	keystroke	r	n/a
188.4375	0.1195	376875	keystroke	o	n/a
188.662	0.1055	377324	keystroke	n	n/a
189.487	0.06	378974	keystroke	g	n/a
189.727	0.0905	379454	keystroke	Key.enter	n/a
189.825	8.814	379650	prompt	n/a	readings likely dependent bargains\n
190.7625	0.135	381525	keystroke	r	n/a
190.8525	0.195	381705	keystroke	e	n/a
191.0325	0.15	382065	keystroke	a	n/a
191.258	0.0895	382516	keystroke	d	n/a
191.4375	0.105	382875	keystroke	i	n/a
191.6475	0.105	383295	keystroke	n	n/a
191.7675	0.09	383535	keystroke	g	n/a
191.9925	0.105	383985	keystroke	s	n/a
192.1125	0.09	384225	keystroke	Key.space	n/a
192.2775	0.09	384555	keystroke	l	n/a
192.4275	0.09	384855	keystroke	i	n/a
192.638	0.134	385276	keystroke	k	n/a
192.742	0.075	385484	keystroke	e	n/a
193.3275	0.12	386655	keystroke	l	n/a
193.5975	0.075	387195	keystroke	y	n/a
193.6275	0.104	387255	keystroke	Key.space	n/a
194.332	0.0605	388664	keystroke	d	n/a
194.5125	0.075	389025	keystroke	e	n/a
194.7075	0.135	389415	keystroke	p	n/a
194.8275	0.075	389655	keystroke	e	n/a
194.9925	0.12	389985	keystroke	n	n/a
195.202	0.06	390404	keystroke	d	n/a
195.397	0.0755	390794	keystroke	e	n/a
195.577	0.09	391154	keystroke	n	n/a
196.1775	0.0745	392355	keystroke	t	n/a
196.342	0.075	392684	keystroke	Key.space	n/a
197.1525	0.09	394305	keystroke	b	n/a
197.3325	0.105	394665	keystroke	a	n/a
197.5875	0.06	395175	keystroke	r	n/a
197.782	0.135	395564	keystroke	g	n/a
197.8875	0.165	395775	keystroke	a	n/a
198.038	0.1045	396076	keystroke	i	n/a
198.233	0.1035	396466	keystroke	n	n/a
198.3525	0.0745	396705	keystroke	s	n/a
198.562	0.0755	397124	keystroke	Key.enter	n/a
198.644	12.64	397288	prompt	n/a	copying barrier experiences newcastle\n
199.4625	0.0745	398925	keystroke	c	n/a
199.882	0.09	399764	keystroke	o	n/a
200.0925	0.09	400185	keystroke	p	n/a
200.917	0.045	401834	keystroke	y	n/a
201.0525	0.1055	402105	keystroke	i	n/a
201.2625	0.1195	402525	keystroke	n	n/a
201.4275	0.075	402855	keystroke	g	n/a
201.952	0.075	403904	keystroke	Key.space	n/a
202.2975	0.105	404595	keystroke	b	n/a
202.5825	0.06	405165	keystroke	e	n/a
202.9415	0.091	405883	keystroke	Key.backspace	n/a
203.0475	0.09	406095	keystroke	a	n/a
203.5875	0.06	407175	keystroke	r	n/a
203.7075	0.09	407415	keystroke	r	n/a
203.8875	0.12	407775	keystroke	i	n/a
204.0225	0.075	408045	keystroke	e	n/a
204.428	0.0745	408856	keystroke	r	n/a
204.607	0.0755	409214	keystroke	Key.space	n/a
204.817	0.076	409634	keystroke	e	n/a
205.072	0.1205	410144	keystroke	x	n/a
205.237	0.075	410474	keystroke	p	n/a
205.4475	0.0895	410895	keystroke	e	n/a
205.672	0.0905	411344	keystroke	r	n/a
205.8075	0.135	411615	keystroke	i	n/a
205.8975	0.1045	411795	keystroke	a	n/a
206.5275	0.075	413055	keystroke	Key.backspace	n/a
206.6475	0.06	413295	keystroke	e	n/a
206.8425	0.105	413685	keystroke	n	n/a
207.0225	0.09	414045	keystroke	c	n/a
207.3375	0.06	414675	keystroke	e	n/a
207.5325	0.0905	415065	keystroke	s	n/a
208.102	0.09	416204	keystroke	Key.space	n/a
208.3425	0.1345	416685	keystroke	n	n/a
209.1525	0.119	418305	keystroke	e	n/a
209.2265	0.1215	418453	keystroke	w	n/a
209.558	0.1035	419116	keystroke	c	n/a
209.7065	0.136	419413	keystroke	a	n/a
209.9625	0.09	419925	keystroke	s	n/a
210.2025	0.0755	420405	keystroke	t	n/a
210.413	0.1045	420826	keystroke	l	n/a
210.487	0.0755	420974	keystroke	e	n/a
211.2375	0.044	422475	keystroke	Key.enter	n/a
211.2885	7.0175	422577	prompt	n/a	scales phys reveals fixes\n
212.288	0.089	424576	keystroke	s	n/a
212.512	0.076	425024	keystroke	c	n/a
212.7075	0.1205	425415	keystroke	a	n/a
212.932	0.1205	425864	keystroke	l	n/a
213.2475	0.045	426495	keystroke	e	n/a
213.4275	0.1045	426855	keystroke	s	n/a
213.622	0.09	427244	keystroke	Key.space	n/a
213.9825	0.105	427965	keystroke	p	n/a
214.2375	0.09	428475	keystroke	h	n/a
214.4625	0.06	428925	keystroke	y	n/a
214.5675	0.0745	429135	keystroke	s	n/a
214.7025	0.105	429405	keystroke	Key.space	n/a
215.003	0.1495	430006	keystroke	r	n/a
215.107	0.1205	430214	keystroke	e	n/a
215.3325	0.1205	430665	keystroke	v	n/a
215.497	0.09	430994	keystroke	e	n/a
215.7375	0.1195	431475	keystroke	a	n/a
215.9175	0.12	431835	keystroke	l	n/a
216.0525	0.075	432105	keystroke	s	n/a
216.2175	0.09	432435	keystroke	Key.space	n/a
216.6225	0.075	433245	keystroke	f	n/a
216.7425	0.15	433485	keystroke	i	n/a
216.9375	0.075	433875	keystroke	x	n/a
217.177	0.0755	434354	keystroke	e	n/a
217.988	0.0745	435976	keystroke	s	n/a
218.227	0.075	436454	keystroke	Key.enter	n/a
218.31	8.38	436620	prompt	n/a	sender chevy paxil sleep\n
219.142	0.0755	438284	keystroke	s	n/a
219.3675	0.0595	438735	keystroke	e	n/a
219.5025	0.1045	439005	keystroke	n	n/a
219.592	0.0755	439184	keystroke	d	n/a
219.8325	0.0595	439665	keystroke	e	n/a
220.0275	0.0755	440055	keystroke	r	n/a
220.1625	0.105	440325	keystroke	Key.space	n/a
220.3125	0.105	440625	keystroke	c	n/a
220.4325	0.09	440865	keystroke	h	n/a
220.7475	0.075	441495	keystroke	e	n/a
221.5275	0.075	443055	keystroke	v	n/a
221.647	0.0905	443294	keystroke	y	n/a
222.367	0.0745	444734	keystroke	Key.space	n/a
222.6225	0.1205	445245	keystroke	p	n/a
222.7875	0.105	445575	keystroke	a	n/a
223.5675	0.09	447135	keystroke	x	n/a
223.7025	0.12	447405	keystroke	i	n/a
223.9275	0.1205	447855	keystroke	l	n/a
224.197	0.09	448394	keystroke	Key.space	n/a
224.7075	0.1055	449415	keystroke	s	n/a
224.7975	0.12	449595	keystroke	l	n/a
224.9775	0.075	449955	keystroke	e	n/a
225.127	0.105	450254	keystroke	e	n/a
225.4275	0.09	450855	keystroke	p	n/a
226.612	0.075	453224	keystroke	Key.enter	n/a
226.696	10.223	453392	prompt	n/a	kyle frontier publisher o'er\n
227.5725	0.1205	455145	keystroke	k	n/a
228.1275	0.09	456255	keystroke	y	n/a
228.367	0.135	456734	keystroke	l	n/a
228.487	0.0755	456974	keystroke	e	n/a
228.637	0.0905	457274	keystroke	Key.space	n/a
228.952	0.076	457904	keystroke	f	n/a
229.1625	0.0745	458325	keystroke	r	n/a
229.268	0.1195	458536	keystroke	o	n/a
229.4625	0.1195	458925	keystroke	n	n/a
230.092	0.09	460184	keystroke	t	n/a
230.257	0.15	460514	keystroke	i	n/a
230.393	0.089	460786	keystroke	e	n/a
230.6475	0.0895	461295	keystroke	r	n/a
230.842	0.105	461684	keystroke	Key.space	n/a
231.2015	0.091	462403	keystroke	p	n/a
231.5325	0.105	463065	keystroke	u	n/a
231.7575	0.09	463515	keystroke	b	n/a
231.8475	0.135	463695	keystroke	l	n/a
233.242	0.12	466484	keystroke	i	n/a
233.4975	0.1045	466995	keystroke	s	n/a
233.5725	0.1205	467145	keystroke	h	n/a
233.7375	0.09	467475	keystroke	e	n/a
233.9475	0.075	467895	keystroke	r	n/a
234.2925	0.09	468585	keystroke	Key.space	n/a
235.4175	0.105	470835	keystroke	o	n/a
235.6125	0.12	471225	keystroke	'	n/a
236.4825	0.0745	472965	keystroke	e	n/a
236.6775	0.075	473355	keystroke	r	n/a
236.842	0.0755	473684	keystroke	Key.enter	n/a
236.923	9.5805	473846	prompt	n/a	mention cache presentations containers\n
237.6525	0.1045	475305	keystroke	m	n/a
237.8475	0.06	475695	keystroke	e	n/a
237.9665	0.106	475933	keystroke	n	n/a
238.1775	0.09	476355	keystroke	t	n/a
238.7775	0.135	477555	keystroke	i	n/a
238.8675	0.1645	477735	keystroke	o	n/a
239.047	0.1355	478094	keystroke	n	n/a
239.2715	0.091	478543	keystroke	Key.space	n/a
239.7525	0.074	479505	keystroke	c	n/a
240.0225	0.09	480045	keystroke	a	n/a
240.3515	0.091	480703	keystroke	c	n/a
240.457	0.1205	480914	keystroke	h	n/a
240.6225	0.075	481245	keystroke	e	n/a
240.8025	0.1195	481605	keystroke	Key.space	n/a
241.012	0.135	482024	keystroke	p	n/a
241.102	0.1205	482204	keystroke	r	n/a
241.192	0.105	482384	keystroke	e	n/a
241.417	0.1055	482834	keystroke	s	n/a
241.657	0.075	483314	keystroke	e	n/a
241.7925	0.1195	483585	keystroke	n	n/a
241.9275	0.1045	483855	keystroke	t	n/a
242.092	0.135	484184	keystroke	a	n/a
242.692	0.0755	485384	keystroke	t	n/a
243.0675	0.1495	486135	keystroke	i	n/a
243.172	0.165	486344	keystroke	o	n/a
243.352	0.15	486704	keystroke	n	n/a
243.577	0.0905	487154	keystroke	s	n/a
243.742	0.09	487484	keystroke	Key.space	n/a
243.907	0.105	487814	keystroke	c	n/a
244.0275	0.09	488055	keystroke	o	n/a
244.1625	0.1195	488325	keystroke	n	n/a
244.4325	0.1045	488865	keystroke	t	n/a
244.6275	0.12	489255	keystroke	a	n/a
244.9865	0.091	489973	keystroke	i	n/a
245.317	0.12	490634	keystroke	n	n/a
245.482	0.0755	490964	keystroke	e	n/a
245.707	0.0905	491414	keystroke	r	n/a
245.9615	0.061	491923	keystroke	s	n/a
246.427	0.0745	492854	keystroke	Key.enter	n/a
246.507	8.6215	493014	prompt	n/a	things stomach contribution notes\n
247.3715	0.0905	494743	keystroke	t	n/a
247.477	0.1195	494954	keystroke	h	n/a
247.5375	0.135	495075	keystroke	i	n/a
247.7465	0.135	495493	keystroke	n	n/a
247.8975	0.09	495795	keystroke	g	n/a
248.2115	0.076	496423	keystroke	s	n/a
248.4365	0.091	496873	keystroke	Key.space	n/a
248.7815	0.105	497563	keystroke	s	n/a
249.3075	0.074	498615	keystroke	t	n/a
249.4265	0.105	498853	keystroke	o	n/a
249.6215	0.121	499243	keystroke	m	n/a
249.7425	0.105	499485	keystroke	a	n/a
249.9675	0.075	499935	keystroke	c	n/a
250.1025	0.105	500205	keystroke	h	n/a
250.2515	0.091	500503	keystroke	Key.space	n/a
250.5375	0.06	501075	keystroke	c	n/a
250.6875	0.105	501375	keystroke	o	n/a
250.8665	0.136	501733	keystroke	n	n/a
251.152	0.0445	502304	keystroke	t	n/a
251.3625	0.075	502725	keystroke	r	n/a
251.4965	0.12	502993	keystroke	i	n/a
251.9615	0.075	503923	keystroke	b	n/a
252.1565	0.09	504313	keystroke	u	n/a
253.0575	0.074	506115	keystroke	t	n/a
253.2975	0.1645	506595	keystroke	i	n/a
253.4025	0.134	506805	keystroke	o	n/a
253.5975	0.104	507195	keystroke	n	n/a
253.8515	0.0905	507703	keystroke	Key.space	n/a
254.092	0.09	508184	keystroke	n	n/a
254.212	0.1505	508424	keystroke	o	n/a
254.407	0.09	508814	keystroke	t	n/a
254.587	0.1205	509174	keystroke	e	n/a
254.857	0.09	509714	keystroke	s	n/a
255.052	0.075	510104	keystroke	Key.enter	n/a
255.1335	9.611	510267	prompt	n/a	satin actually buttons philosophy\n
256.132	0.18	512264	keystroke	s	n/a
256.297	0.06	512594	keystroke	a	n/a
256.507	0.105	513014	keystroke	t	n/a
256.6865	0.151	513373	keystroke	i	n/a
256.9265	0.151	513853	keystroke	n	n/a
257.0915	0.121	514183	keystroke	Key.space	n/a
257.317	0.1355	514634	keystroke	a	n/a
257.5715	0.09	515143	keystroke	c	n/a
258.2165	0.105	516433	keystroke	t	n/a
258.337	0.15	516674	keystroke	u	n/a
258.5315	0.0905	517063	keystroke	a	n/a
258.6515	0.106	517303	keystroke	l	n/a
258.862	0.1045	517724	keystroke	l	n/a
259.1165	0.105	518233	keystroke	y	n/a
259.2365	0.105	518473	keystroke	Key.space	n/a
259.477	0.0895	518954	keystroke	b	n/a
259.5675	0.089	519135	keystroke	u	n/a
259.8225	0.074	519645	keystroke	t	n/a
259.9725	0.105	519945	keystroke	t	n/a
260.1075	0.135	520215	keystroke	o	n/a
260.3175	0.135	520635	keystroke	n	n/a
260.4675	0.0745	520935	keystroke	s	n/a
260.6315	0.105	521263	keystroke	Key.space	n/a
260.8415	0.121	521683	keystroke	p	n/a
261.0675	0.105	522135	keystroke	h	n/a
261.232	0.1205	522464	keystroke	i	n/a
261.4115	0.106	522823	keystroke	l	n/a
261.6515	0.0905	523303	keystroke	o	n/a
262.9415	0.0905	525883	keystroke	s	n/a
263.0625	0.104	526125	keystroke	o	n/a
263.632	0.0755	527264	keystroke	p	n/a
263.932	0.105	527864	keystroke	h	n/a
264.157	0.09	528314	keystroke	y	n/a
264.667	0.075	529334	keystroke	Key.enter	n/a
264.75	9.414	529500	prompt	n/a	lift numerous chip receives\n
265.432	0.105	530864	keystroke	l	n/a
265.582	0.1045	531164	keystroke	i	n/a
265.7615	0.09	531523	keystroke	f	n/a
266.032	0.09	532064	keystroke	t	n/a
266.3315	0.0905	532663	keystroke	Key.space	n/a
266.932	0.09	533864	keystroke	n	n/a
267.172	0.075	534344	keystroke	u	n/a
267.382	0.165	534764	keystroke	m	n/a
267.532	0.09	535064	keystroke	e	n/a
267.7865	0.1205	535573	keystroke	r	n/a
267.922	0.135	535844	keystroke	i	n/a
268.012	0.165	536024	keystroke	o	n/a
268.192	0.12	536384	keystroke	u	n/a
268.672	0.0905	537344	keystroke	Key.backspace	n/a
268.867	0.09	537734	keystroke	Key.backspace	n/a
269.077	0.0895	538154	keystroke	Key.backspace	n/a
270.052	0.12	540104	keystroke	o	n/a
270.1575	0.119	540315	keystroke	u	n/a
270.5325	0.075	541065	keystroke	s	n/a
270.7415	0.09	541483	keystroke	Key.space	n/a
271.1165	0.105	542233	keystroke	c	n/a
271.2225	0.1345	542445	keystroke	h	n/a
271.387	0.1195	542774	keystroke	i	n/a
271.5815	0.1205	543163	keystroke	p	n/a
271.776	0.106	543552	keystroke	Key.space	n/a
272.002	0.135	544004	keystroke	r	n/a
272.1075	0.1195	544215	keystroke	e	n/a
272.422	0.075	544844	keystroke	c	n/a
272.932	0.06	545864	keystroke	e	n/a
273.142	0.105	546284	keystroke	i	n/a
273.337	0.105	546674	keystroke	v	n/a
273.502	0.09	547004	keystroke	e	n/a
273.727	0.12	547454	keystroke	s	n/a
274.087	0.075	548174	keystroke	Key.enter	n/a
274.1685	9.026	548337	prompt	n/a	aside inherited abroad prophet\n
274.942	0.1045	549884	keystroke	a	n/a
275.1665	0.12	550333	keystroke	s	n/a
275.3015	0.12	550603	keystroke	i	n/a
275.4365	0.09	550873	keystroke	d	n/a
275.6765	0.0755	551353	keystroke	e	n/a
275.8715	0.0755	551743	keystroke	Key.space	n/a
276.1865	0.076	552373	keystroke	i	n/a
276.337	0.1195	552674	keystroke	n	n/a
277.117	0.1205	554234	keystroke	h	n/a
277.252	0.06	554504	keystroke	e	n/a
277.582	0.075	555164	keystroke	r	n/a
277.702	0.135	555404	keystroke	i	n/a
277.822	0.09	555644	keystroke	t	n/a
278.032	0.09	556064	keystroke	e	n/a
278.3025	0.0445	556605	keystroke	d	n/a
278.421	0.12	556842	keystroke	Key.space	n/a
278.677	0.1045	557354	keystroke	a	n/a
278.9465	0.075	557893	keystroke	b	n/a
279.2015	0.09	558403	keystroke	r	n/a
279.3965	0.135	558793	keystroke	o	n/a
279.487	0.1345	558974	keystroke	a	n/a
279.7575	0.0745	559515	keystroke	d	n/a
279.922	0.09	559844	keystroke	Key.space	n/a
280.552	0.135	561104	keystroke	p	n/a
280.822	0.06	561644	keystroke	r	n/a
280.912	0.105	561824	keystroke	o	n/a
281.1375	0.12	562275	keystroke	h	n/a
281.692	0.015	563384	keystroke	Key.backspace	n/a
281.872	0.1045	563744	keystroke	p	n/a
282.0515	0.105	564103	keystroke	h	n/a
282.232	0.09	564464	keystroke	e	n/a
282.982	0.105	565964	keystroke	t	n/a
283.102	0.09	566204	keystroke	Key.enter	n/a
283.199	8.3195	566398	prompt	n/a	bathrooms parameter ratio penny\n
283.897	0.09	567794	keystroke	b	n/a
284.2565	0.106	568513	keystroke	a	n/a
284.4965	0.09	568993	keystroke	t	n/a
284.6315	0.135	569263	keystroke	h	n/a
284.8115	0.0755	569623	keystroke	r	n/a
284.9325	0.0895	569865	keystroke	o	n/a
285.0965	0.1205	570193	keystroke	o	n/a
285.307	0.1195	570614	keystroke	m	n/a
285.547	0.0745	571094	keystroke	s	n/a
285.7415	0.09	571483	keystroke	Key.space	n/a
286.1315	0.09	572263	keystroke	p	n/a
286.237	0.105	572474	keystroke	a	n/a
286.5065	0.105	573013	keystroke	r	n/a
286.702	0.135	573404	keystroke	a	n/a
287.122	0.1045	574244	keystroke	m	n/a
287.2865	0.075	574573	keystroke	e	n/a
287.557	0.0755	575114	keystroke	t	n/a
287.692	0.1205	575384	keystroke	e	n/a
287.9175	0.104	575835	keystroke	r	n/a
288.067	0.09	576134	keystroke	Key.space	n/a
288.292	0.075	576584	keystroke	p	n/a
288.667	0.09	577334	keystroke	Key.backspace	n/a
288.832	0.075	577664	keystroke	r	n/a
289.072	0.09	578144	keystroke	a	n/a
289.387	0.0755	578774	keystroke	t	n/a
289.867	0.195	579734	keystroke	i	n/a
289.987	0.15	579974	keystroke	o	n/a
290.182	0.135	580364	keystroke	Key.space	n/a
290.437	0.135	580874	keystroke	p	n/a
290.602	0.09	581204	keystroke	e	n/a
290.7515	0.09	581503	keystroke	n	n/a
290.9315	0.091	581863	keystroke	n	n/a
291.1875	0.09	582375	keystroke	y	n/a
291.4415	0.075	582883	keystroke	Key.enter	n/a
291.5235	6.91	583047	prompt	n/a	students colon gardening cable\n
292.207	0.09	584414	keystroke	s	n/a
292.492	0.0905	584984	keystroke	t	n/a
292.597	0.135	585194	keystroke	u	n/a
292.747	0.075	585494	keystroke	d	n/a
292.942	0.09	585884	keystroke	e	n/a
293.092	0.12	586184	keystroke	n	n/a
293.197	0.09	586394	keystroke	t	n/a
293.452	0.09	586904	keystroke	s	n/a
293.617	0.1055	587234	keystroke	Key.space	n/a
293.7815	0.1205	587563	keystroke	c	n/a
293.917	0.1045	587834	keystroke	o	n/a
294.1265	0.09	588253	keystroke	l	n/a
294.337	0.1045	588674	keystroke	o	n/a
294.517	0.1195	589034	keystroke	n	n/a
294.6665	0.0905	589333	keystroke	Key.space	n/a
294.9075	0.089	589815	keystroke	g	n/a
295.1015	0.121	590203	keystroke	a	n/a
295.3265	0.09	590653	keystroke	r	n/a
295.567	0.09	591134	keystroke	d	n/a
295.8065	0.09	591613	keystroke	e	n/a
295.972	0.09	591944	keystroke	n	n/a
296.122	0.1195	592244	keystroke	i	n/a
296.332	0.1195	592664	keystroke	n	n/a
296.527	0.1045	593054	keystroke	g	n/a
296.9015	0.0755	593803	keystroke	Key.space	n/a
297.157	0.1055	594314	keystroke	c	n/a
297.322	0.1345	594644	keystroke	a	n/a
297.5465	0.0905	595093	keystroke	b	n/a
297.7115	0.15	595423	keystroke	l	n/a
297.892	0.075	595784	keystroke	e	n/a
298.357	0.0745	596714	keystroke	Key.enter	n/a
298.441	10.028	596882	prompt	n/a	arbor y'all oregon helicopter\n
299.3765	0.1205	598753	keystroke	a	n/a
299.662	0.0595	599324	keystroke	r	n/a
299.8875	0.075	599775	keystroke	b	n/a
300.022	0.1195	600044	keystroke	o	n/a
300.2015	0.09	600403	keystroke	r	n/a
300.862	0.105	601724	keystroke	Key.space	n/a
301.192	0.09	602384	keystroke	y	n/a
301.416	0.106	602832	keystroke	'	n/a
301.687	0.09	603374	keystroke	a	n/a
301.882	0.09	603764	keystroke	l	n/a
302.137	0.105	604274	keystroke	l	n/a
302.437	0.105	604874	keystroke	Key.space	n/a
303.172	0.12	606344	keystroke	o	n/a
303.382	0.1205	606764	keystroke	r	n/a
303.472	0.135	606944	keystroke	e	n/a
304.162	0.0755	608324	keystroke	g	n/a
304.282	0.105	608564	keystroke	o	n/a
304.597	0.105	609194	keystroke	n	n/a
304.882	0.075	609764	keystroke	Key.space	n/a
305.4525	0.1045	610905	keystroke	h	n/a
305.8265	0.0605	611653	keystroke	e	n/a
305.992	0.105	611984	keystroke	l	n/a
306.187	0.105	612374	keystroke	i	n/a
306.412	0.09	612824	keystroke	c	n/a
306.5175	0.0895	613035	keystroke	o	n/a
306.712	0.12	613424	keystroke	p	n/a
307.087	0.0755	614174	keystroke	t	n/a
307.2965	0.105	614593	keystroke	e	n/a
307.552	0.09	615104	keystroke	r	n/a
308.377	0.09	616754	keystroke	Key.enter	n/a
308.473	8.231	616946	prompt	n/a	foundations discovered newbie feeds\n
309.5025	0.0735	619005	keystroke	f	n/a
309.577	0.0905	619154	keystroke	o	n/a
309.6525	0.0895	619305	keystroke	u	n/a
309.8775	0.1195	619755	keystroke	n	n/a
310.1175	0.1345	620235	keystroke	d	n/a
310.282	0.135	620564	keystroke	a	n/a
310.7625	0.0745	621525	keystroke	t	n/a
310.972	0.135	621944	keystroke	i	n/a
311.0315	0.1805	622063	keystroke	o	n/a
311.227	0.1655	622454	keystroke	n	n/a
311.407	0.09	622814	keystroke	s	n/a
311.557	0.135	623114	keystroke	Key.space	n/a
311.7525	0.0895	623505	keystroke	d	n/a
311.977	0.1055	623954	keystroke	i	n/a
312.2175	0.0895	624435	keystroke	s	n/a
312.442	0.075	624884	keystroke	c	n/a
312.577	0.105	625154	keystroke	o	n/a
312.712	0.105	625424	keystroke	v	n/a
312.922	0.09	625844	keystroke	e	n/a
313.147	0.105	626294	keystroke	r	n/a
313.297	0.12	626594	keystroke	e	n/a
313.582	0.09	627164	keystroke	d	n/a
313.761	0.0615	627522	keystroke	Key.space	n/a
313.942	0.104	627884	keystroke	n	n/a
314.077	0.075	628154	keystroke	e	n/a
314.422	0.09	628844	keystroke	w	n/a
314.737	0.09	629474	keystroke	b	n/a
315.007	0.135	630014	keystroke	i	n/a
315.097	0.09	630194	keystroke	e	n/a
315.307	0.09	630614	keystroke	Key.space	n/a
315.5625	0.09	631125	keystroke	f	n/a
315.742	0.075	631484	keystroke	e	n/a
315.892	0.105	631784	keystroke	e	n/a
316.147	0.0905	632294	keystroke	d	n/a
316.357	0.0755	632714	keystroke	s	n/a
316.627	0.075	633254	keystroke	Key.enter	n/a
316.7085	7.69	633417	prompt	n/a	fatty mature samba gonna\n
318.0665	0.06	636133	keystroke	f	n/a
318.1115	0.12	636223	keystroke	a	n/a
318.3665	0.0455	636733	keystroke	t	n/a
318.472	0.0895	636944	keystroke	t	n/a
318.727	0.09	637454	keystroke	y	n/a
318.8915	0.1355	637783	keystroke	Key.space	n/a
319.1315	0.1655	638263	keystroke	m	n/a
319.252	0.1045	638504	keystroke	a	n/a
319.5215	0.09	639043	keystroke	t	n/a
319.6415	0.105	639283	keystroke	u	n/a
320.2865	0.195	640573	keystroke	r	n/a
320.422	0.135	640844	keystroke	e	n/a
320.692	0.1045	641384	keystroke	Key.space	n/a
320.9465	0.21	641893	keystroke	s	n/a
321.0825	0.1795	642165	keystroke	a	n/a
321.322	0.12	642644	keystroke	m	n/a
321.682	0.105	643364	keystroke	b	n/a
322.0575	0.09	644115	keystroke	a	n/a
322.5675	0.0745	645135	keystroke	Key.space	n/a
322.852	0.09	645704	keystroke	g	n/a
323.482	0.0895	646964	keystroke	o	n/a
323.707	0.075	647414	keystroke	n	n/a
323.8415	0.105	647683	keystroke	n	n/a
323.9765	0.106	647953	keystroke	a	n/a
324.3065	0.09	648613	keystroke	Key.enter	n/a
324.403	8.351	648806	prompt	n/a	commercial ongoing cosmetic washing\n
325.282	0.106	650564	keystroke	c	n/a
325.477	0.105	650954	keystroke	o	n/a
325.687	0.0755	651374	keystroke	m	n/a
325.822	0.105	651644	keystroke	m	n/a
326.002	0.09	652004	keystroke	e	n/a
326.2125	0.0745	652425	keystroke	r	n/a
326.467	0.09	652934	keystroke	c	n/a
326.602	0.12	653204	keystroke	i	n/a
326.767	0.1205	653534	keystroke	a	n/a
326.9475	0.1195	653895	keystroke	l	n/a
327.1715	0.0905	654343	keystroke	Key.space	n/a
327.532	0.12	655064	keystroke	o	n/a
327.7125	0.09	655425	keystroke	n	n/a
328.057	0.06	656114	keystroke	g	n/a
328.2665	0.105	656533	keystroke	o	n/a
328.3875	0.1045	656775	keystroke	i	n/a
328.6875	0.119	657375	keystroke	n	n/a
328.987	0.0745	657974	keystroke	g	n/a
329.2115	0.075	658423	keystroke	Key.space	n/a
329.4815	0.061	658963	keystroke	c	n/a
329.5875	0.12	659175	keystroke	o	n/a
329.7375	0.089	659475	keystroke	s	n/a
329.9165	0.151	659833	keystroke	m	n/a
330.0975	0.0745	660195	keystroke	e	n/a
330.5625	0.06	661125	keystroke	t	n/a
330.8015	0.1055	661603	keystroke	i	n/a
330.9515	0.09	661903	keystroke	c	n/a
331.1315	0.0755	662263	keystroke	Key.space	n/a
331.447	0.09	662894	keystroke	w	n/a
331.5825	0.135	663165	keystroke	a	n/a
331.822	0.1055	663644	keystroke	s	n/a
331.972	0.12	663944	keystroke	h	n/a
332.047	0.15	664094	keystroke	i	n/a
332.272	0.12	664544	keystroke	n	n/a
332.452	0.09	664904	keystroke	g	n/a
332.677	0.075	665354	keystroke	Key.enter	n/a
332.76	9.9535	665520	prompt	n/a	context interests fundraising enters\n
333.712	0.09	667424	keystroke	c	n/a
333.817	0.12	667634	keystroke	o	n/a
334.012	0.12	668024	keystroke	n	n/a
334.2075	0.0895	668415	keystroke	t	n/a
334.402	0.09	668804	keystroke	e	n/a
334.627	0.12	669254	keystroke	x	n/a
334.927	0.09	669854	keystroke	t	n/a
335.061	0.106	670122	keystroke	Key.space	n/a
335.227	0.09	670454	keystroke	i	n/a
335.437	0.105	670874	keystroke	n	n/a
335.602	0.09	671204	keystroke	t	n/a
335.7825	0.1045	671565	keystroke	e	n/a
336.022	0.135	672044	keystroke	r	n/a
336.172	0.1045	672344	keystroke	e	n/a
336.4115	0.106	672823	keystroke	s	n/a
337.2815	0.09	674563	keystroke	t	n/a
337.5375	0.0895	675075	keystroke	s	n/a
337.792	0.0745	675584	keystroke	Key.space	n/a
338.302	0.075	676604	keystroke	f	n/a
338.3925	0.089	676785	keystroke	u	n/a
338.6165	0.12	677233	keystroke	n	n/a
338.7525	0.089	677505	keystroke	d	n/a
339.0215	0.105	678043	keystroke	r	n/a
339.217	0.12	678434	keystroke	a	n/a
339.3815	0.151	678763	keystroke	i	n/a
339.937	0.075	679874	keystroke	s	n/a
340.072	0.105	680144	keystroke	i	n/a
340.267	0.105	680534	keystroke	n	n/a
340.447	0.0905	680894	keystroke	g	n/a
340.7615	0.0605	681523	keystroke	Key.space	n/a
341.5415	0.0155	683083	keystroke	e	n/a
341.6015	0.135	683203	keystroke	n	n/a
341.812	0.0895	683624	keystroke	t	n/a
341.9765	0.1205	683953	keystroke	e	n/a
342.1865	0.105	684373	keystroke	r	n/a
342.4125	0.0895	684825	keystroke	s	n/a
342.6365	0.0755	685273	keystroke	Key.enter	n/a
342.7185	6.6705	685437	prompt	n/a	ratios turn thing drug\n
343.6275	0.0895	687255	keystroke	r	n/a
343.822	0.135	687644	keystroke	a	n/a
344.122	0.0745	688244	keystroke	t	n/a
344.4215	0.1505	688843	keystroke	i	n/a
344.527	0.1945	689054	keystroke	o	n/a
344.7815	0.0905	689563	keystroke	s	n/a
344.9765	0.09	689953	keystroke	Key.space	n/a
345.7265	0.09	691453	keystroke	t	n/a
345.8465	0.12	691693	keystroke	u	n/a
345.9965	0.105	691993	keystroke	r	n/a
346.1915	0.1055	692383	keystroke	n	n/a
346.417	0.0895	692834	keystroke	Key.space	n/a
347.122	0.09	694244	keystroke	t	n/a
347.242	0.15	694484	keystroke	h	n/a
347.332	0.15	694664	keystroke	i	n/a
347.527	0.15	695054	keystroke	n	n/a
347.707	0.089	695414	keystroke	g	n/a
347.917	0.075	695834	keystroke	Key.space	n/a
348.4125	0.059	696825	keystroke	d	n/a
348.6375	0.074	697275	keystroke	r	n/a
348.7715	0.135	697543	keystroke	u	n/a
349.1015	0.09	698203	keystroke	g	n/a
349.3115	0.075	698623	keystroke	Key.enter	n/a
349.3925	10.736	698785	prompt	n/a	obviously indigenous forget ain't\n
350.617	0.1055	701234	keystroke	o	n/a
350.737	0.09	701474	keystroke	b	n/a
351.157	0.075	702314	keystroke	v	n/a
351.277	0.105	702554	keystroke	i	n/a
351.847	0.03	703694	keystroke	o	n/a
351.907	0.09	703814	keystroke	u	n/a
352.4915	0.1055	704983	keystroke	l	n/a
352.912	0.0595	705824	keystroke	Key.backspace	n/a
353.032	0.0745	706064	keystroke	s	n/a
353.152	0.105	706304	keystroke	l	n/a
353.407	0.0745	706814	keystroke	y	n/a
353.632	0.09	707264	keystroke	Key.space	n/a
353.9775	0.089	707955	keystroke	i	n/a
354.157	0.12	708314	keystroke	n	n/a
354.4115	0.075	708823	keystroke	d	n/a
354.5015	0.105	709003	keystroke	i	n/a
354.9525	0.0745	709905	keystroke	g	n/a
355.131	0.091	710262	keystroke	e	n/a
355.282	0.09	710564	keystroke	n	n/a
355.522	0.1045	711044	keystroke	o	n/a
355.6415	0.106	711283	keystroke	u	n/a
356.1065	0.061	712213	keystroke	s	n/a
356.2865	0.06	712573	keystroke	Key.space	n/a
357.0215	0.06	714043	keystroke	f	n/a
357.1265	0.12	714253	keystroke	o	n/a
357.2615	0.076	714523	keystroke	r	n/a
357.5165	0.09	715033	keystroke	g	n/a
357.802	0.105	715604	keystroke	e	n/a
358.0425	0.075	716085	keystroke	t	n/a
358.3115	0.075	716623	keystroke	Key.space	n/a
358.807	0.0755	717614	keystroke	a	n/a
358.957	0.09	717914	keystroke	i	n/a
359.136	0.106	718272	keystroke	n	n/a
359.527	0.09	719054	keystroke	'	n/a
359.722	0.06	719444	keystroke	t	n/a
360.051	0.075	720102	keystroke	Key.enter	n/a
360.133	7.3905	720266	prompt	n/a	aberdeen boxed tied ministers\n
361.027	0.09	722054	keystroke	a	n/a
361.237	0.105	722474	keystroke	b	n/a
361.462	0.09	722924	keystroke	e	n/a
361.657	0.105	723314	keystroke	r	n/a
361.927	0.09	723854	keystroke	d	n/a
362.181	0.061	724362	keystroke	e	n/a
362.302	0.105	724604	keystroke	e	n/a
362.5415	0.09	725083	keystroke	n	n/a
362.8115	0.075	725623	keystroke	Key.space	n/a
363.337	0.09	726674	keystroke	b	n/a
363.472	0.12	726944	keystroke	o	n/a
363.997	0.135	727994	keystroke	x	n/a
364.252	0.06	728504	keystroke	e	n/a
364.447	0.075	728894	keystroke	d	n/a
364.5815	0.075	729163	keystroke	Key.space	n/a
364.7765	0.09	729553	keystroke	t	n/a
364.9265	0.1355	729853	keystroke	i	n/a
365.1065	0.0905	730213	keystroke	e	n/a
365.332	0.12	730664	keystroke	d	n/a
365.467	0.075	730934	keystroke	Key.space	n/a
365.632	0.105	731264	keystroke	m	n/a
365.782	0.0895	731564	keystroke	i	n/a
365.9315	0.1055	731863	keystroke	n	n/a
366.0375	0.134	732075	keystroke	i	n/a
366.217	0.105	732434	keystroke	s	n/a
366.442	0.0895	732884	keystroke	t	n/a
366.637	0.1055	733274	keystroke	e	n/a
366.8465	0.1205	733693	keystroke	r	n/a
367.146	0.121	734292	keystroke	s	n/a
367.447	0.075	734894	keystroke	Key.enter	n/a
367.528	7.8705	735056	prompt	n/a	perl object disturbed boss\n
368.422	0.105	736844	keystroke	p	n/a
368.7815	0.09	737563	keystroke	e	n/a
369.052	0.0745	738104	keystroke	r	n/a
369.172	0.135	738344	keystroke	l	n/a
369.3515	0.09	738703	keystroke	Key.space	n/a
369.487	0.1345	738974	keystroke	o	n/a
369.607	0.09	739214	keystroke	b	n/a
369.8465	0.1045	739693	keystroke	j	n/a
370.581	0.0615	741162	keystroke	e	n/a
370.8065	0.0745	741613	keystroke	c	n/a
371.107	0.075	742214	keystroke	t	n/a
371.331	0.06	742662	keystroke	Key.space	n/a
371.587	0.06	743174	keystroke	d	n/a
371.7065	0.12	743413	keystroke	i	n/a
371.857	0.105	743714	keystroke	s	n/a
372.112	0.075	744224	keystroke	t	n/a
372.621	0.076	745242	keystroke	u	n/a
373.2675	0.074	746535	keystroke	r	n/a
373.4765	0.091	746953	keystroke	b	n/a
373.7015	0.075	747403	keystroke	e	n/a
373.942	0.0595	747884	keystroke	d	n/a
374.122	0.09	748244	keystroke	Key.space	n/a
374.587	0.0145	749174	keystroke	b	n/a
374.677	0.1345	749354	keystroke	o	n/a
374.947	0.075	749894	keystroke	s	n/a
375.097	0.105	750194	keystroke	s	n/a
375.382	0.014	750764	keystroke	Key.enter	n/a
375.403	7.6905	750806	prompt	n/a	carried ward churches bargains\n
376.327	0.074	752654	keystroke	c	n/a
376.4765	0.1355	752953	keystroke	a	n/a
376.792	0.075	753584	keystroke	r	n/a
376.9115	0.09	753823	keystroke	r	n/a
377.1065	0.151	754213	keystroke	i	n/a
377.2415	0.075	754483	keystroke	e	n/a
377.4515	0.0905	754903	keystroke	d	n/a
377.6015	0.09	755203	keystroke	Key.space	n/a
377.707	0.09	755414	keystroke	w	n/a
377.8865	0.1355	755773	keystroke	a	n/a
378.592	0.075	757184	keystroke	r	n/a
378.832	0.089	757664	keystroke	d	n/a
379.057	0.105	758114	keystroke	Key.space	n/a
379.327	0.075	758654	keystroke	c	n/a
379.522	0.06	759044	keystroke	h	n/a
379.702	0.09	759404	keystroke	u	n/a
379.852	0.09	759704	keystroke	r	n/a
380.122	0.075	760244	keystroke	c	n/a
380.467	0.105	760934	keystroke	h	n/a
380.617	0.075	761234	keystroke	e	n/a
380.8565	0.09	761713	keystroke	s	n/a
381.112	0.075	762224	keystroke	Key.space	n/a
381.532	0.09	763064	keystroke	b	n/a
381.682	0.165	763364	keystroke	a	n/a
381.9065	0.09	763813	keystroke	r	n/a
382.1465	0.105	764293	keystroke	g	n/a
382.3415	0.1055	764683	keystroke	a	n/a
382.5065	0.1195	765013	keystroke	i	n/a
382.717	0.135	765434	keystroke	n	n/a
382.852	0.0895	765704	keystroke	s	n/a
383.0015	0.09	766003	keystroke	Key.enter	n/a
383.101	8.5425	766202	prompt	n/a	patients supplemental aimed volt\n
383.812	0.12	767624	keystroke	p	n/a
384.141	0.105	768282	keystroke	a	n/a
384.426	0.06	768852	keystroke	t	n/a
384.681	0.12	769362	keystroke	i	n/a
384.757	0.104	769514	keystroke	e	n/a
384.9815	0.105	769963	keystroke	n	n/a
385.1615	0.0905	770323	keystroke	t	n/a
385.417	0.1045	770834	keystroke	s	n/a
385.6565	0.075	771313	keystroke	Key.space	n/a
386.0615	0.0755	772123	keystroke	s	n/a
386.1665	0.09	772333	keystroke	u	n/a
386.362	0.06	772724	keystroke	p	n/a
386.497	0.105	772994	keystroke	p	n/a
386.6915	0.165	773383	keystroke	l	n/a
386.842	0.0595	773684	keystroke	e	n/a
387.022	0.135	774044	keystroke	m	n/a
387.172	0.0745	774344	keystroke	e	n/a
387.3215	0.1055	774643	keystroke	n	n/a
387.487	0.105	774974	keystroke	t	n/a
387.727	0.12	775454	keystroke	a	n/a
387.907	0.12	775814	keystroke	l	n/a
388.131	0.106	776262	keystroke	Key.space	n/a
388.462	0.09	776924	keystroke	a	n/a
388.612	0.135	777224	keystroke	i	n/a
389.6165	0.121	779233	keystroke	m	n/a
389.7675	0.074	779535	keystroke	e	n/a
389.9915	0.075	779983	keystroke	d	n/a
390.0965	0.105	780193	keystroke	Key.space	n/a
390.862	0.075	781724	keystroke	v	n/a
390.9665	0.075	781933	keystroke	o	n/a
391.177	0.1195	782354	keystroke	l	n/a
391.3865	0.076	782773	keystroke	t	n/a
391.582	0.0595	783164	keystroke	Key.enter	n/a
391.648	11.2455	783296	prompt	n/a	operating kodak recordings vernon\n
392.5865	0.135	785173	keystroke	o	n/a
392.7065	0.105	785413	keystroke	p	n/a
393.0215	0.105	786043	keystroke	e	n/a
393.277	0.135	786554	keystroke	r	n/a
393.577	0.1195	787154	keystroke	a	n/a
394.192	0.075	788384	keystroke	t	n/a
394.297	0.089	788594	keystroke	i	n/a
394.461	0.136	788922	keystroke	n	n/a
394.627	0.075	789254	keystroke	g	n/a
394.732	0.105	789464	keystroke	Key.space	n/a
395.452	0.12	790904	keystroke	k	n/a
395.632	0.119	791264	keystroke	o	n/a
395.9165	0.1805	791833	keystroke	d	n/a
396.0365	0.135	792073	keystroke	a	n/a
396.337	0.1195	792674	keystroke	k	n/a
396.5765	0.09	793153	keystroke	Key.space	n/a
396.9665	0.09	793933	keystroke	r	n/a
397.087	0.1045	794174	keystroke	e	n/a
397.3565	0.09	794713	keystroke	c	n/a
397.477	0.1045	794954	keystroke	o	n/a
397.852	0.075	795704	keystroke	r	n/a
398.6165	0.075	797233	keystroke	d	n/a
398.707	0.0895	797414	keystroke	i	n/a
398.8865	0.1655	797773	keystroke	n	n/a
399.037	0.0895	798074	keystroke	g	n/a
399.2615	0.105	798523	keystroke	s	n/a
399.817	0.0895	799634	keystroke	Key.space	n/a
400.3265	0.09	800653	keystroke	v	n/a
400.5215	0.075	801043	keystroke	e	n/a
400.7165	0.09	801433	keystroke	r	n/a
401.932	0.12	803864	keystroke	n	n/a
402.0375	0.149	804075	keystroke	o	n/a
402.2315	0.12	804463	keystroke	n	n/a
402.832	0.06	805664	keystroke	Key.enter	n/a
402.8985	5.3195	805797	prompt	n/a	hide hits fold cement\n
403.897	0.045	807794	keystroke	h	n/a
404.0025	0.12	808005	keystroke	i	n/a
404.1515	0.091	808303	keystroke	d	n/a
404.407	0.0605	808814	keystroke	e	n/a
404.5565	0.105	809113	keystroke	Key.space	n/a
404.8115	0.105	809623	keystroke	h	n/a
404.9915	0.15	809983	keystroke	i	n/a
405.2015	0.105	810403	keystroke	t	n/a
405.4415	0.1195	810883	keystroke	s	n/a
405.651	0.105	811302	keystroke	Key.space	n/a
406.1465	0.0895	812293	keystroke	f	n/a
406.282	0.089	812564	keystroke	o	n/a
406.4915	0.105	812983	keystroke	l	n/a
406.7015	0.075	813403	keystroke	d	n/a
406.8515	0.105	813703	keystroke	Key.space	n/a
407.0765	0.075	814153	keystroke	c	n/a
407.287	0.0595	814574	keystroke	e	n/a
407.4065	0.1355	814813	keystroke	m	n/a
407.587	0.0445	815174	keystroke	e	n/a
407.692	0.1045	815384	keystroke	n	n/a
407.9015	0.1055	815803	keystroke	t	n/a
408.141	0.075	816282	keystroke	Key.enter	n/a
408.2225	14.036	816445	prompt	n/a	hart gives handbags particularly\n
409.537	0.12	819074	keystroke	h	n/a
409.612	0.12	819224	keystroke	a	n/a
409.911	0.075	819822	keystroke	r	n/a
410.107	0.089	820214	keystroke	t	n/a
410.391	0.0905	820782	keystroke	Key.space	n/a
410.736	0.076	821472	keystroke	f	n/a
410.872	0.135	821744	keystroke	i	n/a
411.052	0.09	822104	keystroke	v	n/a
411.487	0.0745	822974	keystroke	Key.backspace	n/a
411.682	0.0895	823364	keystroke	Key.backspace	n/a
411.892	0.0745	823784	keystroke	Key.backspace	n/a
413.152	0.0745	826304	keystroke	g	n/a
413.6465	0.105	827293	keystroke	i	n/a
413.722	0.135	827444	keystroke	v	n/a
413.8865	0.09	827773	keystroke	e	n/a
414.0965	0.1055	828193	keystroke	s	n/a
414.726	0.076	829452	keystroke	Key.space	n/a
414.907	0.1195	829814	keystroke	h	n/a
415.042	0.1495	830084	keystroke	a	n/a
415.2065	0.1045	830413	keystroke	n	n/a
415.2965	0.0605	830593	keystroke	d	n/a
415.536	0.076	831072	keystroke	b	n/a
416.467	0.075	832934	keystroke	a	n/a
417.037	0.045	834074	keystroke	g	n/a
417.2165	0.1055	834433	keystroke	s	n/a
417.726	0.06	835452	keystroke	Key.space	n/a
418.0125	0.104	836025	keystroke	p	n/a
418.162	0.1195	836324	keystroke	a	n/a
418.4165	0.0895	836833	keystroke	r	n/a
419.046	0.06	838092	keystroke	t	n/a
419.226	0.0905	838452	keystroke	i	n/a
419.631	0.091	839262	keystroke	c	n/a
419.992	0.09	839984	keystroke	u	n/a
420.622	0.12	841244	keystroke	l	n/a
420.697	0.12	841394	keystroke	a	n/a
420.997	0.09	841994	keystroke	r	n/a
421.117	0.12	842234	keystroke	l	n/a
421.387	0.09	842774	keystroke	y	n/a
421.582	0.1045	843164	keystroke	Key.space	n/a
422.151	0.105	844302	keystroke	Key.enter	n/a
422.263	11.44	844526	prompt	n/a	factory lucas absolutely locally\n
423.187	0.135	846374	keystroke	f	n/a
423.277	0.149	846554	keystroke	a	n/a
423.621	0.1205	847242	keystroke	c	n/a
423.967	0.075	847934	keystroke	t	n/a
424.072	0.135	848144	keystroke	o	n/a
424.1915	0.0905	848383	keystroke	r	n/a
424.357	0.105	848714	keystroke	y	n/a
424.5065	0.1055	849013	keystroke	Key.space	n/a
424.672	0.105	849344	keystroke	l	n/a
424.8965	0.0745	849793	keystroke	u	n/a
425.1215	0.1355	850243	keystroke	c	n/a
425.227	0.149	850454	keystroke	a	n/a
425.512	0.09	851024	keystroke	s	n/a
425.9915	0.06	851983	keystroke	Key.space	n/a
427.957	0.1045	855914	keystroke	a	n/a
428.4215	0.06	856843	keystroke	b	n/a
428.9465	0.0605	857893	keystroke	s	n/a
429.067	0.09	858134	keystroke	o	n/a
429.2465	0.105	858493	keystroke	l	n/a
429.4715	0.105	858943	keystroke	u	n/a
429.6365	0.09	859273	keystroke	t	n/a
429.8315	0.1055	859663	keystroke	e	n/a
429.9515	0.105	859903	keystroke	l	n/a
430.222	0.09	860444	keystroke	u	n/a
430.2365	0.0455	860473	keystroke	y	n/a
430.3415	0.105	860683	keystroke	Key.space	n/a
430.5815	0.105	861163	keystroke	l	n/a
430.8065	0.106	861613	keystroke	o	n/a
431.197	0.0895	862394	keystroke	c	n/a
431.4065	0.1055	862813	keystroke	a	n/a
431.5565	0.075	863113	keystroke	l	n/a
431.7215	0.12	863443	keystroke	l	n/a
432.052	0.1045	864104	keystroke	y	n/a
433.6115	0.09	867223	keystroke	Key.enter	n/a
433.707	8.531	867414	prompt	n/a	finger ware probability friend\n
435.396	0.062	870792	keystroke	f	n/a
435.4865	0.0895	870973	keystroke	i	n/a
435.6665	0.135	871333	keystroke	n	n/a
435.817	0.075	871634	keystroke	g	n/a
435.9665	0.12	871933	keystroke	e	n/a
436.192	0.1045	872384	keystroke	r	n/a
436.342	0.12	872684	keystroke	Key.space	n/a
436.537	0.09	873074	keystroke	w	n/a
436.7165	0.15	873433	keystroke	a	n/a
437.0015	0.105	874003	keystroke	r	n/a
437.1815	0.12	874363	keystroke	e	n/a
437.362	0.0895	874724	keystroke	Key.space	n/a
437.632	0.1345	875264	keystroke	p	n/a
437.8565	0.09	875713	keystroke	r	n/a
437.9615	0.1345	875923	keystroke	o	n/a
438.141	0.136	876282	keystroke	b	n/a
438.322	0.135	876644	keystroke	a	n/a
438.577	0.105	877154	keystroke	b	n/a
438.742	0.09	877484	keystroke	i	n/a
438.922	0.1045	877844	keystroke	l	n/a
439.0565	0.12	878113	keystroke	i	n/a
439.2365	0.0905	878473	keystroke	t	n/a
439.372	0.105	878744	keystroke	y	n/a
439.491	0.076	878982	keystroke	Key.space	n/a
440.3015	0.0755	880603	keystroke	f	n/a
440.9315	0.075	881863	keystroke	r	n/a
441.0365	0.1505	882073	keystroke	i	n/a
441.2165	0.09	882433	keystroke	e	n/a
441.4715	0.1355	882943	keystroke	n	n/a
442.087	0.0445	884174	keystroke	d	n/a
442.1765	0.06	884353	keystroke	Key.enter	n/a
442.2425	10.4955	884485	prompt	n/a	deployment quantity checklist charlie\n
443.002	0.074	886004	keystroke	d	n/a
443.272	0.075	886544	keystroke	e	n/a
443.6915	0.105	887383	keystroke	p	n/a
443.9165	0.1205	887833	keystroke	l	n/a
444.1565	0.0605	888313	keystroke	o	n/a
444.3225	0.1045	888645	keystroke	y	n/a
444.8765	0.1055	889753	keystroke	m	n/a
445.072	0.075	890144	keystroke	e	n/a
445.162	0.105	890324	keystroke	n	n/a
445.342	0.105	890684	keystroke	t	n/a
446.002	0.09	892004	keystroke	Key.space	n/a
446.3465	0.1055	892693	keystroke	q	n/a
446.572	0.089	893144	keystroke	u	n/a
446.691	0.105	893382	keystroke	a	n/a
447.231	0.091	894462	keystroke	n	n/a
447.442	0.075	894884	keystroke	t	n/a
447.562	0.1345	895124	keystroke	i	n/a
447.817	0.105	895634	keystroke	t	n/a
448.087	0.09	896174	keystroke	y	n/a
448.6415	0.0745	897283	keystroke	Key.space	n/a
448.8665	0.0745	897733	keystroke	c	n/a
448.972	0.12	897944	keystroke	h	n/a
449.422	0.06	898844	keystroke	e	n/a
449.647	0.09	899294	keystroke	c	n/a
449.782	0.12	899564	keystroke	k	n/a
450.112	0.12	900224	keystroke	l	n/a
450.307	0.1055	900614	keystroke	i	n/a
450.472	0.105	900944	keystroke	s	n/a
450.742	0.074	901484	keystroke	t	n/a
450.996	0.0755	901992	keystroke	Key.space	n/a
451.281	0.09	902562	keystroke	c	n/a
451.386	0.135	902772	keystroke	h	n/a
451.536	0.12	903072	keystroke	a	n/a
451.8965	0.09	903793	keystroke	r	n/a
452.077	0.0895	904154	keystroke	l	n/a
452.272	0.105	904544	keystroke	i	n/a
452.4365	0.0755	904873	keystroke	e	n/a
452.6615	0.075	905323	keystroke	Key.enter	n/a
452.7435	13.5855	905487	prompt	n/a	wildlife specialties integrated visibility\n
453.8615	0.0905	907723	keystroke	w	n/a
453.9965	0.12	907993	keystroke	i	n/a
454.2515	0.12	908503	keystroke	l	n/a
454.4165	0.0605	908833	keystroke	d	n/a
454.9865	0.105	909973	keystroke	l	n/a
455.1665	0.12	910333	keystroke	i	n/a
455.467	0.09	910934	keystroke	f	n/a
455.632	0.09	911264	keystroke	e	n/a
455.8115	0.1055	911623	keystroke	Key.space	n/a
455.9765	0.12	911953	keystroke	s	n/a
456.082	0.105	912164	keystroke	p	n/a
456.4265	0.0605	912853	keystroke	e	n/a
456.7865	0.015	913573	keystroke	c	n/a
456.922	0.09	913844	keystroke	i	n/a
457.0415	0.0905	914083	keystroke	a	n/a
457.207	0.12	914414	keystroke	l	n/a
457.4615	0.12	914923	keystroke	i	n/a
458.3015	0.09	916603	keystroke	Key.backspace	n/a
458.482	0.074	916964	keystroke	t	n/a
458.6015	0.0745	917203	keystroke	i	n/a
458.602	0.0895	917204	keystroke	o	n/a
458.751	0.105	917502	keystroke	e	n/a
459.276	0.076	918552	keystroke	Key.backspace	n/a
459.472	0.119	918944	keystroke	Key.backspace	n/a
460.207	0.074	920414	keystroke	e	n/a
460.3715	0.105	920743	keystroke	s	n/a
460.776	0.0755	921552	keystroke	Key.space	n/a
460.9415	0.09	921883	keystroke	i	n/a
461.1065	0.135	922213	keystroke	n	n/a
461.271	0.0905	922542	keystroke	t	n/a
461.4515	0.105	922903	keystroke	e	n/a
461.6915	0.0755	923383	keystroke	r	n/a
462.1715	0.09	924343	keystroke	Key.backspace	n/a
462.3965	0.075	924793	keystroke	g	n/a
462.606	0.1505	925212	keystroke	r	n/a
462.712	0.18	925424	keystroke	a	n/a
462.9515	0.135	925903	keystroke	t	n/a
463.1175	0.119	926235	keystroke	e	n/a
463.3715	0.09	926743	keystroke	d	n/a
463.7165	0.0895	927433	keystroke	Key.space	n/a
464.0015	0.075	928003	keystroke	v	n/a
464.0915	0.105	928183	keystroke	i	n/a
464.2265	0.1055	928453	keystroke	s	n/a
464.347	0.119	928694	keystroke	i	n/a
464.676	0.076	929352	keystroke	b	n/a
464.781	0.121	929562	keystroke	i	n/a
465.006	0.12	930012	keystroke	l	n/a
465.622	0.045	931244	keystroke	i	n/a
465.817	0.09	931634	keystroke	t	n/a
465.937	0.104	931874	keystroke	y	n/a
466.252	0.075	932504	keystroke	Key.enter	n/a
466.335	8.7685	932670	prompt	n/a	language wanna boring sources\n
467.0615	0.12	934123	keystroke	l	n/a
467.1965	0.1055	934393	keystroke	a	n/a
467.3165	0.0905	934633	keystroke	n	n/a
467.4815	0.09	934963	keystroke	g	n/a
467.9315	0.105	935863	keystroke	u	n/a
468.082	0.089	936164	keystroke	a	n/a
468.3065	0.09	936613	keystroke	g	n/a
468.4865	0.105	936973	keystroke	e	n/a
468.9215	0.075	937843	keystroke	Key.space	n/a
469.147	0.12	938294	keystroke	w	n/a
469.341	0.15	938682	keystroke	a	n/a
469.611	0.075	939222	keystroke	n	n/a
469.747	0.105	939494	keystroke	n	n/a
469.986	0.09	939972	keystroke	t	n/a
470.526	0.09	941052	keystroke	Key.backspace	n/a
470.6315	0.075	941263	keystroke	a	n/a
470.8115	0.09	941623	keystroke	Key.space	n/a
471.6965	0.075	943393	keystroke	b	n/a
471.7865	0.1205	943573	keystroke	o	n/a
471.997	0.0895	943994	keystroke	r	n/a
472.0415	0.12	944083	keystroke	i	n/a
472.252	0.1345	944504	keystroke	n	n/a
472.4465	0.09	944893	keystroke	g	n/a
472.776	0.06	945552	keystroke	Key.space	n/a
473.226	0.091	946452	keystroke	s	n/a
473.3315	0.09	946663	keystroke	o	n/a
473.407	0.135	946814	keystroke	u	n/a
473.662	0.075	947324	keystroke	r	n/a
473.932	0.0445	947864	keystroke	c	n/a
474.171	0.061	948342	keystroke	e	n/a
474.3815	0.09	948763	keystroke	s	n/a
475.0115	0.09	950023	keystroke	Key.enter	n/a
475.108	8.6205	950216	prompt	n/a	plasma anywhere them generator\n
475.9415	0.12	951883	keystroke	p	n/a
476.2115	0.165	952423	keystroke	l	n/a
476.3315	0.1205	952663	keystroke	a	n/a
476.587	0.1045	953174	keystroke	s	n/a
476.706	0.135	953412	keystroke	m	n/a
477.006	0.121	954012	keystroke	a	n/a
477.2315	0.06	954463	keystroke	Key.space	n/a
477.6515	0.1055	955303	keystroke	a	n/a
477.816	0.106	955632	keystroke	n	n/a
478.4165	0.09	956833	keystroke	y	n/a
478.9565	0.0755	957913	keystroke	w	n/a
479.077	0.134	958154	keystroke	h	n/a
479.197	0.105	958394	keystroke	e	n/a
479.422	0.12	958844	keystroke	r	n/a
479.647	0.09	959294	keystroke	e	n/a
480.202	0.09	960404	keystroke	Key.space	n/a
480.7715	0.1055	961543	keystroke	t	n/a
480.877	0.1345	961754	keystroke	h	n/a
481.1015	0.0905	962203	keystroke	e	n/a
481.267	0.12	962534	keystroke	m	n/a
481.371	0.105	962742	keystroke	Key.space	n/a
481.582	0.089	963164	keystroke	g	n/a
481.7765	0.12	963553	keystroke	e	n/a
481.9115	0.12	963823	keystroke	n	n/a
482.1665	0.075	964333	keystroke	e	n/a
482.767	0.1195	965534	keystroke	r	n/a
482.9165	0.15	965833	keystroke	a	n/a
483.172	0.1195	966344	keystroke	t	n/a
483.2915	0.1205	966583	keystroke	o	n/a
483.4415	0.105	966883	keystroke	r	n/a
483.6365	0.09	967273	keystroke	Key.enter	n/a
483.733	8.4585	967466	prompt	n/a	collections foot priority cure\n
484.6415	0.09	969283	keystroke	c	n/a
484.836	0.09	969672	keystroke	o	n/a
485.0465	0.0745	970093	keystroke	l	n/a
485.212	0.104	970424	keystroke	l	n/a
485.467	0.0445	970934	keystroke	e	n/a
485.6765	0.09	971353	keystroke	c	n/a
486.097	0.09	972194	keystroke	t	n/a
486.2455	0.241	972491	keystroke	i	n/a
486.4415	0.1795	972883	keystroke	o	n/a
486.7415	0.1355	973483	keystroke	n	n/a
486.9815	0.075	973963	keystroke	s	n/a
487.2215	0.075	974443	keystroke	Key.space	n/a
487.8965	0.0755	975793	keystroke	f	n/a
488.0765	0.0755	976153	keystroke	o	n/a
488.2565	0.12	976513	keystroke	o	n/a
488.346	0.106	976692	keystroke	t	n/a
489.0215	0.0745	978043	keystroke	Key.space	n/a
489.2615	0.105	978523	keystroke	p	n/a
489.5165	0.075	979033	keystroke	r	n/a
489.667	0.15	979334	keystroke	i	n/a
489.772	0.1195	979544	keystroke	o	n/a
490.2665	0.075	980533	keystroke	r	n/a
490.3715	0.1055	980743	keystroke	i	n/a
490.551	0.075	981102	keystroke	t	n/a
490.7015	0.12	981403	keystroke	y	n/a
490.971	0.0905	981942	keystroke	Key.space	n/a
491.3165	0.06	982633	keystroke	c	n/a
491.5115	0.135	983023	keystroke	u	n/a
491.707	0.1045	983414	keystroke	r	n/a
491.9015	0.075	983803	keystroke	e	n/a
492.0815	0.1045	984163	keystroke	Key.enter	n/a
492.1985	10.0695	984397	prompt	n/a	expressions eligibility mounted bang\n
492.8915	0.09	985783	keystroke	e	n/a
493.161	0.105	986322	keystroke	x	n/a
493.2815	0.0895	986563	keystroke	p	n/a
493.536	0.105	987072	keystroke	r	n/a
493.687	0.105	987374	keystroke	e	n/a
493.927	0.0745	987854	keystroke	s	n/a
494.0915	0.09	988183	keystroke	s	n/a
494.2405	0.1055	988481	keystroke	i	n/a
494.301	0.135	988602	keystroke	o	n/a
494.481	0.15	988962	keystroke	n	n/a
494.661	0.1355	989322	keystroke	s	n/a
494.7815	0.1045	989563	keystroke	Key.space	n/a
495.1565	0.075	990313	keystroke	e	n/a
495.3065	0.1055	990613	keystroke	l	n/a
495.471	0.12	990942	keystroke	i	n/a
495.727	0.09	991454	keystroke	g	n/a
495.832	0.149	991664	keystroke	i	n/a
496.1765	0.0745	992353	keystroke	b	n/a
496.341	0.0905	992682	keystroke	i	n/a
496.6715	0.105	993343	keystroke	l	n/a
496.8665	0.09	993733	keystroke	i	n/a
497.062	0.0895	994124	keystroke	t	n/a
497.1965	0.09	994393	keystroke	y	n/a
497.3615	0.1045	994723	keystroke	Key.space	n/a
497.6765	0.1055	995353	keystroke	m	n/a
497.9315	0.105	995863	keystroke	o	n/a
498.082	0.075	996164	keystroke	u	n/a
498.111	0.031	996222	keystroke	y	n/a
498.7415	0.09	997483	keystroke	Key.backspace	n/a
499.5815	0.12	999163	keystroke	n	n/a
499.852	0.0745	999704	keystroke	t	n/a
500.0165	0.075	1000033	keystroke	e	n/a
500.197	0.0745	1000394	keystroke	d	n/a
500.8265	0.075	1001653	keystroke	Key.space	n/a
501.082	0.0895	1002164	keystroke	b	n/a
501.2615	0.12	1002523	keystroke	a	n/a
501.3965	0.1055	1002793	keystroke	n	n/a
502.087	0.0895	1004174	keystroke	g	n/a
502.1915	0.075	1004383	keystroke	Key.enter	n/a
502.2735	10.4045	1004547	prompt	n/a	positive hits personalized dramatically\n
503.3165	0.1795	1006633	keystroke	p	n/a
503.4365	0.18	1006873	keystroke	o	n/a
503.6465	0.1345	1007293	keystroke	s	n/a
503.7665	0.1045	1007533	keystroke	i	n/a
504.531	0.09	1009062	keystroke	t	n/a
504.637	0.1495	1009274	keystroke	i	n/a
504.802	0.105	1009604	keystroke	v	n/a
505.041	0.09	1010082	keystroke	e	n/a
505.266	0.09	1010532	keystroke	Key.space	n/a
505.5815	0.1505	1011163	keystroke	h	n/a
505.686	0.151	1011372	keystroke	i	n/a
505.9415	0.1195	1011883	keystroke	t	n/a
506.197	0.1045	1012394	keystroke	s	n/a
506.3165	0.12	1012633	keystroke	Key.space	n/a
506.5115	0.1505	1013023	keystroke	p	n/a
506.6305	0.106	1013261	keystroke	e	n/a
506.8255	0.106	1013651	keystroke	r	n/a
507.081	0.12	1014162	keystroke	s	n/a
507.202	0.119	1014404	keystroke	o	n/a
507.426	0.1205	1014852	keystroke	n	n/a
507.666	0.09	1015332	keystroke	a	n/a
507.831	0.105	1015662	keystroke	l	n/a
508.027	0.104	1016054	keystroke	i	n/a
508.747	0.1195	1017494	keystroke	z	n/a
509.032	0.0445	1018064	keystroke	e	n/a
509.1965	0.075	1018393	keystroke	d	n/a
509.4065	0.09	1018813	keystroke	Key.space	n/a
509.7065	0.075	1019413	keystroke	d	n/a
509.9315	0.09	1019863	keystroke	r	n/a
510.1415	0.1055	1020283	keystroke	a	n/a
510.321	0.135	1020642	keystroke	m	n/a
510.426	0.1055	1020852	keystroke	a	n/a
510.727	0.089	1021454	keystroke	t	n/a
510.861	0.15	1021722	keystroke	i	n/a
511.117	0.09	1022234	keystroke	c	n/a
511.341	0.09	1022682	keystroke	a	n/a
511.462	0.089	1022924	keystroke	l	n/a
511.6565	0.1055	1023313	keystroke	l	n/a
511.927	0.075	1023854	keystroke	y	n/a
512.571	0.1055	1025142	keystroke	Key.enter	n/a
512.6815	7.8115	1025363	prompt	n/a	funded validity under chances\n
513.5775	0.089	1027155	keystroke	f	n/a
513.7265	0.075	1027453	keystroke	u	n/a
513.9365	0.15	1027873	keystroke	n	n/a
514.0265	0.075	1028053	keystroke	d	n/a
514.2365	0.0595	1028473	keystroke	e	n/a
514.432	0.0895	1028864	keystroke	d	n/a
514.641	0.075	1029282	keystroke	Key.space	n/a
515.196	0.09	1030392	keystroke	v	n/a
515.376	0.106	1030752	keystroke	a	n/a
515.511	0.1205	1031022	keystroke	l	n/a
515.9315	0.09	1031863	keystroke	i	n/a
516.5615	0.075	1033123	keystroke	d	n/a
516.6665	0.12	1033333	keystroke	i	n/a
516.9065	0.105	1033813	keystroke	t	n/a
517.0715	0.105	1034143	keystroke	y	n/a
517.2805	0.091	1034561	keystroke	Key.space	n/a
517.6115	0.09	1035223	keystroke	u	n/a
517.822	0.1195	1035644	keystroke	n	n/a
517.9555	0.091	1035911	keystroke	d	n/a
518.1815	0.075	1036363	keystroke	e	n/a
518.3915	0.1045	1036783	keystroke	r	n/a
518.5115	0.09	1037023	keystroke	Key.space	n/a
518.7065	0.09	1037413	keystroke	c	n/a
518.8115	0.105	1037623	keystroke	h	n/a
518.9615	0.1205	1037923	keystroke	a	n/a
519.606	0.0905	1039212	keystroke	n	n/a
519.7555	0.091	1039511	keystroke	c	n/a
519.966	0.0755	1039932	keystroke	e	n/a
520.191	0.1055	1040382	keystroke	s	n/a
520.416	0.0755	1040832	keystroke	Key.enter	n/a
520.4975	6.836	1040995	prompt	n/a	tests entries betting vegas\n
521.3155	0.09	1042631	keystroke	t	n/a
521.4815	0.09	1042963	keystroke	e	n/a
521.721	0.1055	1043442	keystroke	s	n/a
521.991	0.0905	1043982	keystroke	t	n/a
522.2465	0.105	1044493	keystroke	s	n/a
522.4415	0.074	1044883	keystroke	Key.space	n/a
522.621	0.1055	1045242	keystroke	e	n/a
522.7415	0.12	1045483	keystroke	n	n/a
522.921	0.105	1045842	keystroke	t	n/a
523.1615	0.0895	1046323	keystroke	r	n/a
523.3265	0.1355	1046653	keystroke	i	n/a
523.447	0.104	1046894	keystroke	e	n/a
523.7015	0.09	1047403	keystroke	s	n/a
523.926	0.075	1047852	keystroke	Key.space	n/a
524.586	0.09	1049172	keystroke	b	n/a
524.797	0.105	1049594	keystroke	e	n/a
525.051	0.075	1050102	keystroke	t	n/a
525.186	0.0905	1050372	keystroke	t	n/a
525.3515	0.105	1050703	keystroke	i	n/a
525.5765	0.105	1051153	keystroke	n	n/a
525.7415	0.075	1051483	keystroke	g	n/a
525.9065	0.089	1051813	keystroke	Key.space	n/a
526.1165	0.075	1052233	keystroke	v	n/a
526.297	0.0745	1052594	keystroke	e	n/a
526.5365	0.105	1053073	keystroke	g	n/a
526.7025	0.134	1053405	keystroke	a	n/a
526.9865	0.09	1053973	keystroke	s	n/a
527.2415	0.09	1054483	keystroke	Key.enter	n/a
527.338	7.855	1054676	prompt	n/a	bahrain spine double sentence\n
528.3655	0.0755	1056731	keystroke	b	n/a
528.6365	0.0895	1057273	keystroke	a	n/a
529.146	0.075	1058292	keystroke	h	n/a
529.371	0.105	1058742	keystroke	r	n/a
529.641	0.105	1059282	keystroke	a	n/a
529.852	0.1045	1059704	keystroke	i	n/a
530.076	0.0905	1060152	keystroke	n	n/a
530.2865	0.104	1060573	keystroke	Key.space	n/a
530.6165	0.105	1061233	keystroke	s	n/a
530.6915	0.165	1061383	keystroke	p	n/a
530.8715	0.12	1061743	keystroke	i	n/a
531.2165	0.015	1062433	keystroke	n	n/a
531.2465	0.09	1062493	keystroke	e	n/a
531.3515	0.135	1062703	keystroke	Key.space	n/a
531.5765	0.075	1063153	keystroke	d	n/a
531.6665	0.15	1063333	keystroke	o	n/a
531.8015	0.105	1063603	keystroke	u	n/a
532.056	0.09	1064112	keystroke	b	n/a
532.1915	0.1345	1064383	keystroke	l	n/a
532.341	0.12	1064682	keystroke	e	n/a
532.521	0.105	1065042	keystroke	Key.space	n/a
533.1365	0.0745	1066273	keystroke	s	n/a
533.721	0.0905	1067442	keystroke	e	n/a
533.826	0.151	1067652	keystroke	n	n/a
534.0365	0.105	1068073	keystroke	t	n/a
534.2315	0.09	1068463	keystroke	e	n/a
534.4415	0.1045	1068883	keystroke	n	n/a
534.5615	0.0745	1069123	keystroke	c	n/a
534.816	0.075	1069632	keystroke	e	n/a
535.1165	0.075	1070233	keystroke	Key.enter	n/a
535.198	8.35	1070396	prompt	n/a	duncan pass practices gives\n
535.957	0.0595	1071914	keystroke	d	n/a
536.1365	0.045	1072273	keystroke	n	n/a
536.5115	0.09	1073023	keystroke	Key.backspace	n/a
536.7515	0.075	1073503	keystroke	u	n/a
536.9615	0.135	1073923	keystroke	n	n/a
537.0665	0.075	1074133	keystroke	c	n/a
537.2465	0.105	1074493	keystroke	a	n/a
537.4415	0.1055	1074883	keystroke	n	n/a
537.6365	0.0745	1075273	keystroke	Key.space	n/a
538.236	0.091	1076472	keystroke	p	n/a
538.341	0.12	1076682	keystroke	a	n/a
538.596	0.09	1077192	keystroke	s	n/a
538.821	0.105	1077642	keystroke	s	n/a
539.016	0.075	1078032	keystroke	Key.space	n/a
539.361	0.105	1078722	keystroke	p	n/a
539.586	0.09	1079172	keystroke	r	n/a
539.766	0.1205	1079532	keystroke	a	n/a
540.021	0.075	1080042	keystroke	c	n/a
541.1615	0.0895	1082323	keystroke	t	n/a
541.2665	0.12	1082533	keystroke	i	n/a
541.4315	0.09	1082863	keystroke	c	n/a
541.6705	0.076	1083341	keystroke	e	n/a
541.897	0.104	1083794	keystroke	s	n/a
542.1055	0.075	1084211	keystroke	Key.space	n/a
542.6165	0.06	1085233	keystroke	g	n/a
542.7215	0.1505	1085443	keystroke	i	n/a
542.886	0.0755	1085772	keystroke	v	n/a
543.081	0.075	1086162	keystroke	e	n/a
543.276	0.105	1086552	keystroke	s	n/a
543.456	0.09	1086912	keystroke	Key.enter	n/a
543.5525	10.7355	1087105	prompt	n/a	turkish babies delay geological\n
544.717	0.089	1089434	keystroke	t	n/a
545.1215	0.1195	1090243	keystroke	u	n/a
545.406	0.0905	1090812	keystroke	r	n/a
545.587	0.0895	1091174	keystroke	k	n/a
545.7815	0.1045	1091563	keystroke	i	n/a
546.0215	0.1195	1092043	keystroke	s	n/a
546.156	0.105	1092312	keystroke	h	n/a
546.381	0.105	1092762	keystroke	Key.space	n/a
546.741	0.105	1093482	keystroke	b	n/a
546.876	0.12	1093752	keystroke	a	n/a
547.116	0.0905	1094232	keystroke	b	n/a
547.3565	0.135	1094713	keystroke	i	n/a
547.5065	0.1045	1095013	keystroke	e	n/a
547.7465	0.105	1095493	keystroke	s	n/a
547.8805	0.06	1095761	keystroke	Key.space	n/a
547.9865	0.075	1095973	keystroke	d	n/a
548.211	0.0605	1096422	keystroke	e	n/a
548.3015	0.12	1096603	keystroke	l	n/a
548.6165	0.0895	1097233	keystroke	y	n/a
549.3665	0.1045	1098733	keystroke	Key.backspace	n/a
549.5305	0.076	1099061	keystroke	a	n/a
549.861	0.0605	1099722	keystroke	y	n/a
550.2365	0.074	1100473	keystroke	Key.space	n/a
550.8065	0.0905	1101613	keystroke	g	n/a
551.271	0.075	1102542	keystroke	e	n/a
551.466	0.0905	1102932	keystroke	o	n/a
551.6465	0.09	1103293	keystroke	l	n/a
551.8415	0.1195	1103683	keystroke	o	n/a
552.651	0.09	1105302	keystroke	g	n/a
552.7565	0.12	1105513	keystroke	i	n/a
552.891	0.15	1105782	keystroke	c	n/a
553.1165	0.1045	1106233	keystroke	a	n/a
553.3415	0.0895	1106683	keystroke	l	n/a
554.2105	0.076	1108421	keystroke	Key.enter	n/a
554.2915	12.1165	1108583	prompt	n/a	mortgages pillow conscious college\n
555.0805	0.076	1110161	keystroke	m	n/a
555.3055	0.091	1110611	keystroke	o	n/a
555.4115	0.045	1110823	keystroke	r	n/a
555.6215	0.06	1111243	keystroke	t	n/a
556.4015	0.09	1112803	keystroke	a	n/a
556.7915	0.0595	1113583	keystroke	Key.backspace	n/a
556.8965	0.075	1113793	keystroke	g	n/a
557.571	0.075	1115142	keystroke	a	n/a
558.0215	0.0895	1116043	keystroke	g	n/a
558.186	0.0905	1116372	keystroke	e	n/a
558.411	0.09	1116822	keystroke	s	n/a
558.696	0.0755	1117392	keystroke	Key.space	n/a
559.2965	0.105	1118593	keystroke	p	n/a
559.4905	0.106	1118981	keystroke	i	n/a
559.7315	0.09	1119463	keystroke	l	n/a
559.8815	0.075	1119763	keystroke	l	n/a
560.0765	0.135	1120153	keystroke	o	n/a
560.2265	0.09	1120453	keystroke	w	n/a
560.4215	0.075	1120843	keystroke	Key.space	n/a
560.6465	0.075	1121293	keystroke	c	n/a
560.7365	0.1045	1121473	keystroke	o	n/a
560.9465	0.1045	1121893	keystroke	n	n/a
561.441	0.0755	1122882	keystroke	s	n/a
561.6665	0.06	1123333	keystroke	c	n/a
562.266	0.12	1124532	keystroke	i	n/a
562.791	0.105	1125582	keystroke	o	n/a
562.941	0.1205	1125882	keystroke	u	n/a
563.3165	0.074	1126633	keystroke	s	n/a
563.8105	0.091	1127621	keystroke	Key.space	n/a
564.1415	0.105	1128283	keystroke	c	n/a
564.321	0.1055	1128642	keystroke	o	n/a
564.531	0.09	1129062	keystroke	l	n/a
564.681	0.12	1129362	keystroke	l	n/a
565.1615	0.0595	1130323	keystroke	e	n/a
565.8815	0.1195	1131763	keystroke	g	n/a
566.0165	0.104	1132033	keystroke	e	n/a
566.331	0.075	1132662	keystroke	Key.enter	n/a
566.4125	6.9465	1132825	prompt	n/a	balance kits complaints damage\n
567.291	0.105	1134582	keystroke	b	n/a
567.441	0.1205	1134882	keystroke	a	n/a
567.5905	0.136	1135181	keystroke	l	n/a
567.7705	0.0605	1135541	keystroke	a	n/a
567.8905	0.15	1135781	keystroke	n	n/a
567.981	0.0745	1135962	keystroke	c	n/a
568.2065	0.075	1136413	keystroke	e	n/a
568.3405	0.1205	1136681	keystroke	Key.space	n/a
568.5365	0.074	1137073	keystroke	k	n/a
568.7465	0.0895	1137493	keystroke	i	n/a
568.896	0.1055	1137792	keystroke	t	n/a
569.136	0.1055	1138272	keystroke	s	n/a
569.301	0.1055	1138602	keystroke	Key.space	n/a
569.4665	0.1045	1138933	keystroke	c	n/a
569.556	0.1205	1139112	keystroke	o	n/a
569.736	0.1205	1139472	keystroke	m	n/a
569.9315	0.105	1139863	keystroke	p	n/a
570.1415	0.15	1140283	keystroke	l	n/a
570.3065	0.1045	1140613	keystroke	a	n/a
570.651	0.105	1141302	keystroke	i	n/a
571.356	0.135	1142712	keystroke	n	n/a
571.4465	0.105	1142893	keystroke	t	n/a
571.7165	0.09	1143433	keystroke	s	n/a
571.8665	0.09	1143733	keystroke	Key.space	n/a
572.0315	0.18	1144063	keystroke	d	n/a
572.1665	0.165	1144333	keystroke	a	n/a
572.4515	0.15	1144903	keystroke	m	n/a
572.5715	0.15	1145143	keystroke	a	n/a
572.8565	0.075	1145713	keystroke	g	n/a
573.0365	0.0895	1146073	keystroke	e	n/a
573.261	0.09	1146522	keystroke	Key.enter	n/a
573.359	16.299	1146718	prompt	n/a	warriors examine recipient screensavers\n
574.1465	0.074	1148293	keystroke	w	n/a
574.776	0.12	1149552	keystroke	a	n/a
575.0915	0.0595	1150183	keystroke	r	n/a
575.2265	0.0745	1150453	keystroke	r	n/a
575.4815	0.1345	1150963	keystroke	i	n/a
575.5865	0.1195	1151173	keystroke	o	n/a
576.216	0.09	1152432	keystroke	r	n/a
576.501	0.0905	1153002	keystroke	s	n/a
576.666	0.09	1153332	keystroke	Key.space	n/a
576.9205	0.075	1153841	keystroke	e	n/a
577.611	0.06	1155222	keystroke	x	n/a
578.1065	0.0895	1156213	keystroke	a	n/a
578.241	0.12	1156482	keystroke	m	n/a
578.436	0.1055	1156872	keystroke	i	n/a
578.6165	0.135	1157233	keystroke	n	n/a
578.811	0.075	1157622	keystroke	e	n/a
579.006	0.075	1158012	keystroke	Key.space	n/a
579.261	0.105	1158522	keystroke	r	n/a
579.411	0.0905	1158822	keystroke	e	n/a
579.666	0.09	1159332	keystroke	c	n/a
579.816	0.15	1159632	keystroke	i	n/a
580.761	0.105	1161522	keystroke	p	n/a
584.198	0.028	1168396	keystroke	i	n/a
584.331	0.0455	1168662	keystroke	e	n/a
584.4955	0.1355	1168991	keystroke	n	n/a
584.6615	0.09	1169323	keystroke	t	n/a
585.2005	0.0905	1170401	keystroke	Key.space	n/a
585.457	0.059	1170914	keystroke	s	n/a
585.621	0.09	1171242	keystroke	c	n/a
585.891	0.105	1171782	keystroke	r	n/a
586.1315	0.0745	1172263	keystroke	e	n/a
586.356	0.075	1172712	keystroke	e	n/a
587.286	0.105	1174572	keystroke	n	n/a
588.0815	0.0745	1176163	keystroke	s	n/a
588.261	0.12	1176522	keystroke	a	n/a
588.741	0.075	1177482	keystroke	v	n/a
588.921	0.12	1177842	keystroke	e	n/a
589.101	0.105	1178202	keystroke	r	n/a
589.3415	0.0895	1178683	keystroke	s	n/a
589.581	0.075	1179162	keystroke	Key.enter	n/a
589.663	9.432	1179326	prompt	n/a	channel beliefs keeps animation\n
590.5715	0.09	1181143	keystroke	c	n/a
590.7215	0.1195	1181443	keystroke	h	n/a
590.931	0.1195	1181862	keystroke	a	n/a
591.216	0.075	1182432	keystroke	n	n/a
591.3655	0.106	1182731	keystroke	n	n/a
591.9355	0.0605	1183871	keystroke	e	n/a
592.641	0.075	1185282	keystroke	l	n/a
592.7315	0.0445	1185463	keystroke	Key.space	n/a
592.8965	0.075	1185793	keystroke	b	n/a
593.1065	0.105	1186213	keystroke	e	n/a
593.271	0.105	1186542	keystroke	l	n/a
593.6905	0.0905	1187381	keystroke	i	n/a
593.9765	0.089	1187953	keystroke	e	n/a
594.381	0.0755	1188762	keystroke	f	n/a
594.621	0.09	1189242	keystroke	t	n/a
594.921	0.075	1189842	keystroke	Key.space	n/a
595.281	0.1355	1190562	keystroke	k	n/a
595.551	0.0755	1191102	keystroke	e	n/a
595.7165	0.105	1191433	keystroke	e	n/a
595.9865	0.12	1191973	keystroke	p	n/a
596.2115	0.0745	1192423	keystroke	s	n/a
596.736	0.105	1193472	keystroke	Key.space	n/a
596.976	0.09	1193952	keystroke	a	n/a
597.111	0.135	1194222	keystroke	n	n/a
597.231	0.1055	1194462	keystroke	i	n/a
597.426	0.1805	1194852	keystroke	m	n/a
597.5605	0.1505	1195121	keystroke	a	n/a
597.891	0.0895	1195782	keystroke	t	n/a
598.1165	0.1645	1196233	keystroke	i	n/a
598.221	0.18	1196442	keystroke	o	n/a
598.4465	0.1195	1196893	keystroke	n	n/a
599.0165	0.074	1198033	keystroke	Key.enter	n/a
599.099	8.724	1198198	prompt	n/a	diamonds accompanying mean rate\n
599.8255	0.0755	1199651	keystroke	d	n/a
599.9765	0.1195	1199953	keystroke	i	n/a
600.336	0.105	1200672	keystroke	a	n/a
600.6805	0.076	1201361	keystroke	m	n/a
600.8465	0.09	1201693	keystroke	o	n/a
601.0105	0.12	1202021	keystroke	n	n/a
601.191	0.09	1202382	keystroke	d	n/a
601.416	0.09	1202832	keystroke	s	n/a
601.611	0.1045	1203222	keystroke	Key.space	n/a
601.971	0.105	1203942	keystroke	a	n/a
602.196	0.075	1204392	keystroke	c	n/a
602.3315	0.1045	1204663	keystroke	c	n/a
602.541	0.1205	1205082	keystroke	o	n/a
602.7365	0.12	1205473	keystroke	m	n/a
602.9465	0.1195	1205893	keystroke	p	n/a
603.186	0.0755	1206372	keystroke	a	n/a
603.666	0.105	1207332	keystroke	n	n/a
604.3415	0.135	1208683	keystroke	y	n/a
604.446	0.1355	1208892	keystroke	i	n/a
604.6715	0.119	1209343	keystroke	n	n/a
604.9565	0.075	1209913	keystroke	g	n/a
605.7505	0.0755	1211501	keystroke	Key.space	n/a
605.961	0.0895	1211922	keystroke	m	n/a
606.1565	0.119	1212313	keystroke	e	n/a
606.2905	0.1655	1212581	keystroke	a	n/a
606.5165	0.09	1213033	keystroke	n	n/a
606.651	0.15	1213302	keystroke	Key.space	n/a
606.8915	0.1195	1213783	keystroke	r	n/a
607.0255	0.151	1214051	keystroke	a	n/a
607.3115	0.09	1214623	keystroke	t	n/a
607.5215	0.09	1215043	keystroke	e	n/a
607.7315	0.09	1215463	keystroke	Key.enter	n/a
607.8315	10.3865	1215663	prompt	n/a	larger invision interactive inspector\n
608.556	0.12	1217112	keystroke	l	n/a
608.691	0.136	1217382	keystroke	a	n/a
609.006	0.09	1218012	keystroke	r	n/a
609.201	0.105	1218402	keystroke	g	n/a
609.3955	0.1065	1218791	keystroke	e	n/a
609.607	0.0895	1219214	keystroke	r	n/a
609.802	0.1345	1219604	keystroke	Key.space	n/a
610.3415	0.074	1220683	keystroke	i	n/a
610.4905	0.136	1220981	keystroke	n	n/a
610.6865	0.089	1221373	keystroke	v	n/a
610.881	0.1055	1221762	keystroke	i	n/a
611.4955	0.06	1222991	keystroke	s	n/a
611.6315	0.135	1223263	keystroke	i	n/a
611.7205	0.166	1223441	keystroke	o	n/a
612.0815	0.044	1224163	keystroke	n	n/a
612.411	0.0605	1224822	keystroke	Key.space	n/a
612.6055	0.091	1225211	keystroke	i	n/a
612.7565	0.134	1225513	keystroke	n	n/a
612.876	0.0895	1225752	keystroke	t	n/a
613.0705	0.106	1226141	keystroke	e	n/a
613.2505	0.135	1226501	keystroke	r	n/a
614.166	0.105	1228332	keystroke	a	n/a
614.6005	0.06	1229201	keystroke	c	n/a
614.8555	0.0905	1229711	keystroke	t	n/a
614.9905	0.135	1229981	keystroke	i	n/a
615.0955	0.1205	1230191	keystroke	v	n/a
615.3365	0.09	1230673	keystroke	e	n/a
615.546	0.09	1231092	keystroke	Key.space	n/a
615.9365	0.135	1231873	keystroke	i	n/a
616.1765	0.1045	1232353	keystroke	n	n/a
616.551	0.09	1233102	keystroke	s	n/a
616.7615	0.135	1233523	keystroke	p	n/a
616.9115	0.0745	1233823	keystroke	e	n/a
617.226	0.09	1234452	keystroke	c	n/a
617.511	0.075	1235022	keystroke	t	n/a
617.766	0.135	1235532	keystroke	o	n/a
617.886	0.09	1235772	keystroke	r	n/a
618.1415	0.075	1236283	keystroke	Key.enter	n/a
618.223	7.135	1236446	prompt	n/a	nine omaha native magnetic\n
619.0265	0.105	1238053	keystroke	n	n/a
619.2065	0.12	1238413	keystroke	i	n/a
619.431	0.1355	1238862	keystroke	n	n/a
619.581	0.075	1239162	keystroke	e	n/a
619.7015	0.105	1239403	keystroke	Key.space	n/a
619.9115	0.12	1239823	keystroke	o	n/a
620.1215	0.135	1240243	keystroke	m	n/a
620.3165	0.12	1240633	keystroke	a	n/a
620.5265	0.1645	1241053	keystroke	h	n/a
620.676	0.1195	1241352	keystroke	a	n/a
620.931	0.0895	1241862	keystroke	Key.space	n/a
621.2605	0.121	1242521	keystroke	n	n/a
621.3815	0.12	1242763	keystroke	a	n/a
621.6515	0.105	1243303	keystroke	t	n/a
621.771	0.1195	1243542	keystroke	i	n/a
621.936	0.1195	1243872	keystroke	v	n/a
622.1905	0.075	1244381	keystroke	e	n/a
622.3555	0.091	1244711	keystroke	Key.space	n/a
622.596	0.1055	1245192	keystroke	m	n/a
622.7465	0.1045	1245493	keystroke	a	n/a
623.526	0.045	1247052	keystroke	g	n/a
623.586	0.1055	1247172	keystroke	n	n/a
624.0065	0.09	1248013	keystroke	e	n/a
624.321	0.09	1248642	keystroke	t	n/a
624.4415	0.1645	1248883	keystroke	i	n/a
624.6365	0.1045	1249273	keystroke	c	n/a
625.266	0.09	1250532	keystroke	Key.enter	n/a
625.3625	8.8	1250725	prompt	n/a	advance null agreements friday\n
626.1065	0.0895	1252213	keystroke	a	n/a
626.376	0.06	1252752	keystroke	d	n/a
627.277	0.1195	1254554	keystroke	v	n/a
627.336	0.1205	1254672	keystroke	a	n/a
627.5155	0.1205	1255031	keystroke	n	n/a
627.591	0.09	1255182	keystroke	c	n/a
627.846	0.09	1255692	keystroke	e	n/a
627.981	0.105	1255962	keystroke	Key.space	n/a
628.161	0.105	1256322	keystroke	n	n/a
628.416	0.09	1256832	keystroke	u	n/a
628.656	0.09	1257312	keystroke	l	n/a
628.851	0.075	1257702	keystroke	l	n/a
628.986	0.09	1257972	keystroke	Key.space	n/a
629.286	0.09	1258572	keystroke	a	n/a
629.766	0.075	1259532	keystroke	g	n/a
629.991	0.09	1259982	keystroke	r	n/a
630.201	0.075	1260402	keystroke	e	n/a
630.3505	0.106	1260701	keystroke	e	n/a
630.6505	0.135	1261301	keystroke	m	n/a
630.8005	0.061	1261601	keystroke	e	n/a
630.9665	0.134	1261933	keystroke	n	n/a
631.086	0.0905	1262172	keystroke	t	n/a
631.3405	0.12	1262681	keystroke	s	n/a
631.5355	0.09	1263071	keystroke	Key.space	n/a
631.7315	0.0745	1263463	keystroke	f	n/a
632.7215	0.075	1265443	keystroke	r	n/a
632.8715	0.135	1265743	keystroke	i	n/a
633.0205	0.196	1266041	keystroke	d	n/a
633.1555	0.15	1266311	keystroke	a	n/a
633.3205	0.106	1266641	keystroke	y	n/a
634.0705	0.0905	1268141	keystroke	Key.enter	n/a
634.166	12.657	1268332	prompt	n/a	align mightn't remedies vital\n
635.0605	0.09	1270121	keystroke	a	n/a
635.1805	0.106	1270361	keystroke	l	n/a
635.3305	0.12	1270661	keystroke	i	n/a
636.0055	0.105	1272011	keystroke	g	n/a
636.141	0.1355	1272282	keystroke	n	n/a
636.396	0.12	1272792	keystroke	Key.space	n/a
637.581	0.045	1275162	keystroke	m	n/a
637.731	0.105	1275462	keystroke	i	n/a
638.3165	0.074	1276633	keystroke	g	n/a
638.4355	0.136	1276871	keystroke	h	n/a
638.7365	0.09	1277473	keystroke	t	n/a
638.9605	0.1355	1277921	keystroke	n	n/a
639.201	0.1045	1278402	keystroke	;	n/a
639.441	0.0905	1278882	keystroke	t	n/a
639.996	0.0895	1279992	keystroke	Key.backspace	n/a
640.206	0.12	1280412	keystroke	Key.backspace	n/a
640.8805	0.09	1281761	keystroke	'	n/a
641.4065	0.0745	1282813	keystroke	t	n/a
641.661	0.075	1283322	keystroke	Key.space	n/a
642.381	0.105	1284762	keystroke	r	n/a
642.456	0.1355	1284912	keystroke	e	n/a
642.651	0.1655	1285302	keystroke	m	n/a
642.8015	0.134	1285603	keystroke	r	n/a
643.701	0.09	1287402	keystroke	Key.backspace	n/a
643.836	0.075	1287672	keystroke	e	n/a
644.226	0.075	1288452	keystroke	d	n/a
644.391	0.15	1288782	keystroke	i	n/a
644.586	0.09	1289172	keystroke	e	n/a
644.871	0.0755	1289742	keystroke	s	n/a
645.096	0.0895	1290192	keystroke	Key.space	n/a
645.486	0.0745	1290972	keystroke	v	n/a
645.8305	0.106	1291661	keystroke	i	n/a
646.1315	0.105	1292263	keystroke	t	n/a
646.371	0.1045	1292742	keystroke	a	n/a
646.4905	0.1055	1292981	keystroke	l	n/a
646.7615	0.06	1293523	keystroke	Key.enter	n/a
646.828	8.2595	1293656	prompt	n/a	mold scared ever somebody's\n
647.7815	0.105	1295563	keystroke	m	n/a
647.991	0.105	1295982	keystroke	o	n/a
648.2165	0.1045	1296433	keystroke	l	n/a
648.3365	0.09	1296673	keystroke	d	n/a
648.4855	0.0905	1296971	keystroke	Key.space	n/a
648.876	0.075	1297752	keystroke	c	n/a
649.206	0.1045	1298412	keystroke	Key.backspace	n/a
649.326	0.09	1298652	keystroke	s	n/a
649.521	0.105	1299042	keystroke	c	n/a
649.7465	0.104	1299493	keystroke	a	n/a
650.1355	0.1055	1300271	keystroke	r	n/a
650.301	0.1045	1300602	keystroke	e	n/a
650.556	0.105	1301112	keystroke	d	n/a
650.736	0.075	1301472	keystroke	Key.space	n/a
651.0065	0.0595	1302013	keystroke	e	n/a
651.2165	0.0745	1302433	keystroke	v	n/a
651.4105	0.1055	1302821	keystroke	e	n/a
651.6515	0.075	1303303	keystroke	r	n/a
651.7855	0.12	1303571	keystroke	Key.space	n/a
651.9505	0.106	1303901	keystroke	s	n/a
652.131	0.1195	1304262	keystroke	o	n/a
652.3715	0.1045	1304743	keystroke	m	n/a
653.2705	0.0755	1306541	keystroke	e	n/a
653.541	0.075	1307082	keystroke	b	n/a
653.646	0.15	1307292	keystroke	o	n/a
653.8265	0.1195	1307653	keystroke	d	n/a
653.991	0.1055	1307982	keystroke	y	n/a
654.2165	0.1195	1308433	keystroke	'	n/a
654.711	0.075	1309422	keystroke	s	n/a
654.995	0.0905	1309990	keystroke	Key.enter	n/a
655.0925	6.6105	1310185	prompt	n/a	heather loaded videos gain\n
655.806	0.1055	1311612	keystroke	h	n/a
656.0165	0.1045	1312033	keystroke	e	n/a
656.1665	0.15	1312333	keystroke	a	n/a
656.4805	0.09	1312961	keystroke	t	n/a
656.646	0.135	1313292	keystroke	h	n/a
656.766	0.09	1313532	keystroke	e	n/a
656.976	0.105	1313952	keystroke	r	n/a
657.111	0.1055	1314222	keystroke	Key.space	n/a
657.291	0.0905	1314582	keystroke	l	n/a
657.5165	0.1045	1315033	keystroke	o	n/a
657.8605	0.0905	1315721	keystroke	a	n/a
658.296	0.0605	1316592	keystroke	d	n/a
658.5065	0.06	1317013	keystroke	e	n/a
658.7005	0.09	1317401	keystroke	d	n/a
658.8665	0.0895	1317733	keystroke	Key.space	n/a
659.0005	0.091	1318001	keystroke	v	n/a
659.2115	0.105	1318423	keystroke	i	n/a
659.5105	0.076	1319021	keystroke	d	n/a
659.7205	0.0755	1319441	keystroke	e	n/a
660.141	0.1055	1320282	keystroke	o	n/a
660.2915	0.1045	1320583	keystroke	s	n/a
660.4555	0.1055	1320911	keystroke	Key.space	n/a
660.7105	0.106	1321421	keystroke	g	n/a
660.8905	0.1205	1321781	keystroke	a	n/a
661.2065	0.105	1322413	keystroke	i	n/a
661.386	0.105	1322772	keystroke	n	n/a
661.626	0.075	1323252	keystroke	Key.enter	n/a
661.7065	6.881	1323413	prompt	n/a	occurs lamb horn worthy\n
662.901	0.075	1325802	keystroke	o	n/a
663.051	0.075	1326102	keystroke	c	n/a
663.201	0.105	1326402	keystroke	c	n/a
663.4565	0.0895	1326913	keystroke	u	n/a
663.666	0.0905	1327332	keystroke	r	n/a
663.9055	0.1205	1327811	keystroke	s	n/a
664.1155	0.0905	1328231	keystroke	Key.space	n/a
664.3705	0.135	1328741	keystroke	l	n/a
664.5355	0.105	1329071	keystroke	a	n/a
664.7155	0.12	1329431	keystroke	m	n/a
665.016	0.0745	1330032	keystroke	b	n/a
665.1955	0.12	1330391	keystroke	Key.space	n/a
665.466	0.12	1330932	keystroke	h	n/a
665.541	0.165	1331082	keystroke	o	n/a
665.826	0.12	1331652	keystroke	r	n/a
666.0505	0.136	1332101	keystroke	n	n/a
666.261	0.1045	1332522	keystroke	Key.space	n/a
666.621	0.0895	1333242	keystroke	w	n/a
666.6955	0.135	1333391	keystroke	o	n/a
667.3115	0.074	1334623	keystroke	r	n/a
667.5065	0.104	1335013	keystroke	t	n/a
667.6565	0.0895	1335313	keystroke	h	n/a
667.8815	0.075	1335763	keystroke	y	n/a
668.496	0.0895	1336992	keystroke	Key.enter	n/a
668.592	7.7955	1337184	prompt	n/a	mitchell its senator cooked\n
669.2315	0.105	1338463	keystroke	m	n/a
669.471	0.135	1338942	keystroke	i	n/a
670.086	0.0905	1340172	keystroke	t	n/a
670.3565	0.09	1340713	keystroke	c	n/a
670.4465	0.119	1340893	keystroke	h	n/a
670.8365	0.044	1341673	keystroke	e	n/a
671.346	0.09	1342692	keystroke	l	n/a
671.5115	0.1195	1343023	keystroke	l	n/a
671.676	0.09	1343352	keystroke	Key.space	n/a
671.856	0.105	1343712	keystroke	i	n/a
672.096	0.105	1344192	keystroke	t	n/a
672.786	0.0745	1345572	keystroke	s	n/a
673.0405	0.09	1346081	keystroke	Key.space	n/a
673.3105	0.09	1346621	keystroke	s	n/a
673.4905	0.075	1346981	keystroke	e	n/a
673.716	0.1195	1347432	keystroke	n	n/a
673.8215	0.104	1347643	keystroke	a	n/a
674.1505	0.09	1348301	keystroke	t	n/a
674.3005	0.135	1348601	keystroke	o	n/a
674.4805	0.106	1348961	keystroke	r	n/a
674.9905	0.12	1349981	keystroke	Key.space	n/a
675.186	0.105	1350372	keystroke	c	n/a
675.336	0.075	1350672	keystroke	o	n/a
675.5015	0.1045	1351003	keystroke	o	n/a
675.6815	0.1495	1351363	keystroke	k	n/a
675.8165	0.0745	1351633	keystroke	e	n/a
676.041	0.09	1352082	keystroke	d	n/a
676.3105	0.0755	1352621	keystroke	Key.enter	n/a
676.3915	9.356	1352783	prompt	n/a	included prescribed jerry lower\n
677.2715	0.1195	1354543	keystroke	i	n/a
677.436	0.12	1354872	keystroke	n	n/a
677.631	0.09	1355262	keystroke	c	n/a
677.7055	0.1205	1355411	keystroke	l	n/a
677.931	0.0905	1355862	keystroke	u	n/a
678.0805	0.09	1356161	keystroke	d	n/a
678.2905	0.091	1356581	keystroke	e	n/a
678.5165	0.089	1357033	keystroke	d	n/a
678.9805	0.09	1357961	keystroke	Key.space	n/a
679.221	0.09	1358442	keystroke	p	n/a
679.416	0.1645	1358832	keystroke	r	n/a
679.5365	0.104	1359073	keystroke	e	n/a
679.836	0.105	1359672	keystroke	s	n/a
680.316	0.075	1360632	keystroke	Key.backspace	n/a
680.7365	0.059	1361473	keystroke	s	n/a
680.9605	0.06	1361921	keystroke	c	n/a
681.711	0.0595	1363422	keystroke	r	n/a
682.2205	0.135	1364441	keystroke	i	n/a
682.3405	0.09	1364681	keystroke	b	n/a
682.5655	0.09	1365131	keystroke	e	n/a
682.7905	0.09	1365581	keystroke	d	n/a
683.0305	0.105	1366061	keystroke	Key.space	n/a
683.436	0.135	1366872	keystroke	j	n/a
683.601	0.075	1367202	keystroke	e	n/a
683.841	0.06	1367682	keystroke	r	n/a
683.976	0.09	1367952	keystroke	r	n/a
684.096	0.135	1368192	keystroke	y	n/a
684.246	0.105	1368492	keystroke	Key.space	n/a
684.471	0.105	1368942	keystroke	l	n/a
684.6965	0.119	1369393	keystroke	o	n/a
684.906	0.09	1369812	keystroke	w	n/a
685.1165	0.0735	1370233	keystroke	e	n/a
685.3415	0.0895	1370683	keystroke	r	n/a
685.6705	0.0755	1371341	keystroke	Key.enter	n/a
685.752	17.1555	1371504	prompt	n/a	voyuer pennsylvania representations eating\n
686.781	0.075	1373562	keystroke	v	n/a
688.116	0.1195	1376232	keystroke	o	n/a
689.2405	0.0755	1378481	keystroke	y	n/a
689.541	0.09	1379082	keystroke	u	n/a
689.976	0.0745	1379952	keystroke	e	n/a
