onset	duration	sample	value	key	prompt_text
7.575	11.3585	15150	prompt	n/a	the quick brown fox jumps over a lazy dog\n
8.627	0.001	17254	keystroke_t	t	n/a
8.745	0.075	17490	keystroke_h	h	n/a
8.865	0.12	17730	keystroke_e	e	n/a
8.94	0.12	17880	keystroke_Key.space	Key.space	n/a
9.135	0.105	18270	keystroke_q	q	n/a
9.315	0.075	18630	keystroke_u	u	n/a
9.465	0.105	18930	keystroke_i	i	n/a
9.585	0.075	19170	keystroke_c	c	n/a
9.72	0.075	19440	keystroke_k	k	n/a
9.885	0.105	19770	keystroke_Key.space	Key.space	n/a
10.17	0.075	20340	keystroke_b	b	n/a
10.605	0.06	21210	keystroke_r	r	n/a
10.695	0.075	21390	keystroke_o	o	n/a
10.83	0.09	21660	keystroke_w	w	n/a
11.1	0.06	22200	keystroke_n	n	n/a
12.195	0.075	24390	keystroke_Key.space	Key.space	n/a
12.585	0.06	25170	keystroke_f	f	n/a
12.66	0.075	25320	keystroke_o	o	n/a
12.855	0.135	25710	keystroke_x	x	n/a
13.02	0.105	26040	keystroke_Key.space	Key.space	n/a
13.155	0.075	26310	keystroke_j	j	n/a
13.305	0.09	26610	keystroke_u	u	n/a
13.515	0.09	27030	keystroke_m	m	n/a
13.695	0.045	27390	keystroke_p	p	n/a
14.145	0.15	28290	keystroke_s	s	n/a
14.296	0.104	28592	keystroke_Key.space	Key.space	n/a
14.655	0.06	29310	keystroke_o	o	n/a
14.895	0.075	29790	keystroke_v	v	n/a
14.985	0.075	29970	keystroke_e	e	n/a
15.135	0.12	30270	keystroke_r	r	n/a
15.21	0.09	30420	keystroke_Key.space	Key.space	n/a
15.36	0.15	30720	keystroke_a	a	n/a
15.45	0.12	30900	keystroke_Key.space	Key.space	n/a
15.615	0.075	31230	keystroke_l	l	n/a
15.735	0.105	31470	keystroke_a	a	n/a
15.945	0.09	31890	keystroke_z	z	n/a
16.125	0.075	32250	keystroke_y	y	n/a
16.29	0.105	32580	keystroke_Key.space	Key.space	n/a
16.65	0.045	33300	keystroke_o	o	n/a
16.785	0.075	33570	keystroke_d	d	n/a
16.995	0.06	33990	keystroke_Key.backspace	Key.backspace	n/a
17.13	0.075	34260	keystroke_Key.backspace	Key.backspace	n/a
17.22	0.075	34440	keystroke_d	d	n/a
17.28	0.09	34560	keystroke_o	o	n/a
17.82	0.075	35640	keystroke_g	g	n/a
18.87	0.06	37740	keystroke_Key.enter	Key.enter	n/a
18.937	9.5805	37874	prompt	n/a	servers sunset encouraging indices\n
19.845	0.075	39690	keystroke_s	s	n/a
20.055	0.045	40110	keystroke_e	e	n/a
20.491	0.044	40982	keystroke_r	r	n/a
20.61	0.09	41220	keystroke_v	v	n/a
20.73	0.075	41460	keystroke_e	e	n/a
20.895	0.09	41790	keystroke_r	r	n/a
21.3	0.105	42600	keystroke_s	s	n/a
21.48	0.09	42960	keystroke_Key.space	Key.space	n/a
21.705	0.075	43410	keystroke_s	s	n/a
21.87	0.075	43740	keystroke_u	u	n/a
22.066	0.089	44132	keystroke_n	n	n/a
22.17	0.09	44340	keystroke_s	s	n/a
22.35	0.105	44700	keystroke_e	e	n/a
22.62	0.105	45240	keystroke_t	t	n/a
22.86	0.105	45720	keystroke_Key.space	Key.space	n/a
23.46	0.06	46920	keystroke_e	e	n/a
23.566	0.089	47132	keystroke_n	n	n/a
23.73	0.09	47460	keystroke_c	c	n/a
23.85	0.091	47700	keystroke_o	o	n/a
24.06	0.075	48120	keystroke_u	u	n/a
24.375	0.075	48750	keystroke_r	r	n/a
24.6	0.135	49200	keystroke_a	a	n/a
25.245	0.075	50490	keystroke_g	g	n/a
25.335	0.061	50670	keystroke_i	i	n/a
25.47	0.105	50940	keystroke_n	n	n/a
25.605	0.12	51210	keystroke_g	g	n/a
25.695	0.12	51390	keystroke_Key.space	Key.space	n/a
26.37	0.06	52740	keystroke_i	i	n/a
26.52	0.105	53040	keystroke_n	n	n/a
26.67	0.09	53340	keystroke_d	d	n/a
26.85	0.075	53700	keystroke_i	i	n/a
26.971	0.074	53942	keystroke_c	c	n/a
27.241	0.059	54482	keystroke_e	e	n/a
27.63	0.075	55260	keystroke_s	s	n/a
28.455	0.061	56910	keystroke_Key.enter	Key.enter	n/a
28.521	16.287	57042	prompt	n/a	boss bumper sewing tray\n
29.326	0.06	58652	keystroke_b	b	n/a
29.505	0.075	59010	keystroke_o	o	n/a
29.625	0.091	59250	keystroke_s	s	n/a
29.82	0.091	59640	keystroke_s	s	n/a
29.925	0.105	59850	keystroke_Key.space	Key.space	n/a
31.561	0.075	63122	keystroke_b	b	n/a
31.711	0.074	63422	keystroke_u	u	n/a
31.921	0.09	63842	keystroke_m	m	n/a
32.116	0.059	64232	keystroke_p	p	n/a
32.235	0.061	64470	keystroke_e	e	n/a
32.416	0.12	64832	keystroke_r	r	n/a
33.151	0.074	66302	keystroke_Key.space	Key.space	n/a
40.6985	0.027	81397	keystroke_s	s	n/a
40.8755	0.075	81751	keystroke_e	e	n/a
41.1005	0.091	82201	keystroke_w	w	n/a
41.2355	0.075	82471	keystroke_u	u	n/a
41.4305	0.075	82861	keystroke_n	n	n/a
41.6855	0.075	83371	keystroke_Key.backspace	Key.backspace	n/a
41.8205	0.09	83641	keystroke_Key.backspace	Key.backspace	n/a
42.4055	0.061	84811	keystroke_i	i	n/a
42.6005	0.075	85201	keystroke_n	n	n/a
42.7205	0.12	85441	keystroke_g	g	n/a
42.8255	0.105	85651	keystroke_Key.space	Key.space	n/a
43.4405	0.075	86881	keystroke_t	t	n/a
43.6055	0.09	87211	keystroke_r	r	n/a
43.7415	0.089	87483	keystroke_a	a	n/a
44.0255	0.075	88051	keystroke_y	y	n/a
44.7605	0.045	89521	keystroke_Key.enter	Key.enter	n/a
44.811	7.722	89622	prompt	n/a	pension benz payday brave\n
45.6165	0.045	91233	keystroke_p	p	n/a
45.8705	0.075	91741	keystroke_e	e	n/a
46.0355	0.091	92071	keystroke_n	n	n/a
46.1565	0.104	92313	keystroke_s	s	n/a
46.2755	0.075	92551	keystroke_i	i	n/a
46.4555	0.076	92911	keystroke_o	o	n/a
46.6655	0.09	93331	keystroke_n	n	n/a
46.8155	0.105	93631	keystroke_Key.space	Key.space	n/a
47.0855	0.09	94171	keystroke_b	b	n/a
47.1915	0.075	94383	keystroke_e	e	n/a
47.4905	0.06	94981	keystroke_z	z	n/a
47.8505	0.045	95701	keystroke_Key.backspace	Key.backspace	n/a
48.0465	0.104	96093	keystroke_n	n	n/a
48.1655	0.09	96331	keystroke_x	x	n/a
48.7805	0.06	97561	keystroke_Key.backspace	Key.backspace	n/a
48.8555	0.105	97711	keystroke_z	z	n/a
49.1405	0.09	98281	keystroke_Key.space	Key.space	n/a
49.4855	0.105	98971	keystroke_p	p	n/a
49.6055	0.105	99211	keystroke_a	a	n/a
49.7855	0.075	99571	keystroke_y	y	n/a
49.9655	0.09	99931	keystroke_d	d	n/a
50.1605	0.09	100321	keystroke_a	a	n/a
50.2805	0.09	100561	keystroke_y	y	n/a
50.6405	0.105	101281	keystroke_Key.space	Key.space	n/a
51.1505	0.09	102301	keystroke_b	b	n/a
51.4055	0.075	102811	keystroke_r	r	n/a
51.5405	0.105	103081	keystroke_a	a	n/a
51.6305	0.09	103261	keystroke_v	v	n/a
51.7655	0.09	103531	keystroke_e	e	n/a
52.4555	0.075	104911	keystroke_Key.enter	Key.enter	n/a
52.536	8.652	105072	prompt	n/a	sucking consistent emily bullet\n
53.3555	0.075	106711	keystroke_s	s	n/a
53.4615	0.075	106923	keystroke_u	u	n/a
53.6115	0.074	107223	keystroke_c	c	n/a
53.7005	0.105	107401	keystroke_k	k	n/a
53.8955	0.075	107791	keystroke_i	i	n/a
54.0615	0.074	108123	keystroke_n	n	n/a
54.1805	0.09	108361	keystroke_g	g	n/a
54.4205	0.075	108841	keystroke_Key.space	Key.space	n/a
54.9455	0.075	109891	keystroke_c	c	n/a
55.0365	0.074	110073	keystroke_o	o	n/a
55.2005	0.105	110401	keystroke_n	n	n/a
55.2905	0.091	110581	keystroke_s	s	n/a
55.5305	0.075	111061	keystroke_i	i	n/a
55.6365	0.089	111273	keystroke_s	s	n/a
55.9055	0.076	111811	keystroke_t	t	n/a
56.0555	0.075	112111	keystroke_e	e	n/a
56.2505	0.075	112501	keystroke_n	n	n/a
56.6865	0.059	113373	keystroke_t	t	n/a
56.9555	0.105	113911	keystroke_Key.space	Key.space	n/a
57.1655	0.075	114331	keystroke_e	e	n/a
57.3015	0.104	114603	keystroke_m	m	n/a
57.4955	0.091	114991	keystroke_i	i	n/a
57.7365	0.104	115473	keystroke_l	l	n/a
58.0365	0.089	116073	keystroke_y	y	n/a
58.1865	0.089	116373	keystroke_Key.space	Key.space	n/a
58.4255	0.09	116851	keystroke_b	b	n/a
58.6815	0.044	117363	keystroke_u	u	n/a
59.2655	0.061	118531	keystroke_l	l	n/a
59.3865	0.104	118773	keystroke_l	l	n/a
59.7315	0.044	119463	keystroke_y	y	n/a
60.1055	0.09	120211	keystroke_Key.backspace	Key.backspace	n/a
60.1815	0.09	120363	keystroke_e	e	n/a
60.4965	0.044	120993	keystroke_t	t	n/a
61.1115	0.075	122223	keystroke_Key.enter	Key.enter	n/a
61.1915	12.026	122383	prompt	n/a	declare confidential adaptive present\n
62.2815	0.045	124563	keystroke_d	d	n/a
62.4615	0.135	124923	keystroke_e	e	n/a
62.8365	0.06	125673	keystroke_c	c	n/a
62.9405	0.091	125881	keystroke_l	l	n/a
63.0615	0.105	126123	keystroke_a	a	n/a
63.3615	0.075	126723	keystroke_r	r	n/a
63.6315	0.015	127263	keystroke_e	e	n/a
63.7805	0.09	127561	keystroke_Key.space	Key.space	n/a
63.9765	0.09	127953	keystroke_c	c	n/a
64.0505	0.076	128101	keystroke_o	o	n/a
64.2315	0.09	128463	keystroke_n	n	n/a
64.2915	0.09	128583	keystroke_d	d	n/a
64.7265	0.09	129453	keystroke_Key.backspace	Key.backspace	n/a
64.8015	0.06	129603	keystroke_f	f	n/a
64.9815	0.03	129963	keystroke_u	u	n/a
65.4915	0.075	130983	keystroke_Key.backspace	Key.backspace	n/a
65.6865	0.06	131373	keystroke_i	i	n/a
65.8815	0.105	131763	keystroke_d	d	n/a
66.0315	0.105	132063	keystroke_e	e	n/a
66.2115	0.09	132423	keystroke_n	n	n/a
66.3615	0.075	132723	keystroke_t	t	n/a
66.5415	0.075	133083	keystroke_i	i	n/a
66.9765	0.105	133953	keystroke_a	a	n/a
67.1415	0.075	134283	keystroke_l	l	n/a
67.7865	0.105	135573	keystroke_Key.space	Key.space	n/a
67.9815	0.09	135963	keystroke_a	a	n/a
68.1765	0.075	136353	keystroke_d	d	n/a
68.8355	0.12	137671	keystroke_a	a	n/a
68.9705	0.015	137941	keystroke_p	p	n/a
69.7505	0.075	139501	keystroke_t	t	n/a
69.8555	0.09	139711	keystroke_i	i	n/a
69.9905	0.09	139981	keystroke_v	v	n/a
70.2455	0.09	140491	keystroke_e	e	n/a
70.8755	0.09	141751	keystroke_Key.space	Key.space	n/a
71.0255	0.09	142051	keystroke_p	p	n/a
71.1305	0.076	142261	keystroke_r	r	n/a
71.3115	0.104	142623	keystroke_e	e	n/a
71.8055	0.09	143611	keystroke_s	s	n/a
72.1365	0.089	144273	keystroke_e	e	n/a
72.3005	0.09	144601	keystroke_n	n	n/a
72.4055	0.075	144811	keystroke_t	t	n/a
73.1405	0.075	146281	keystroke_Key.enter	Key.enter	n/a
73.223	15.43	146446	prompt	n/a	select armstrong debian rapid\n
74.0115	0.074	148023	keystroke_s	s	n/a
74.2655	0.075	148531	keystroke_e	e	n/a
74.3865	0.089	148773	keystroke_l	l	n/a
74.5055	0.09	149011	keystroke_e	e	n/a
74.7305	0.106	149461	keystroke_c	c	n/a
75.3905	0.075	150781	keystroke_t	t	n/a
75.7055	0.075	151411	keystroke_Key.space	Key.space	n/a
75.9005	0.12	151801	keystroke_a	a	n/a
76.2005	0.075	152401	keystroke_r	r	n/a
76.5905	0.09	153181	keystroke_m	m	n/a
76.7405	0.091	153481	keystroke_o	o	n/a
76.8455	0.091	153691	keystroke_s	s	n/a
77.2205	0.076	154441	keystroke_t	t	n/a
77.3565	0.089	154713	keystroke_r	r	n/a
77.6115	0.089	155223	keystroke_o	o	n/a
78.5405	0.075	157081	keystroke_n	n	n/a
78.6755	0.075	157351	keystroke_g	g	n/a
79.2605	0.09	158521	keystroke_Key.space	Key.space	n/a
79.4705	0.09	158941	keystroke_d	d	n/a
79.6505	0.09	159301	keystroke_e	e	n/a
79.8905	0.091	159781	keystroke_b	b	n/a
80.5955	0.075	161191	keystroke_Key.backspace	Key.backspace	n/a
80.7755	0.075	161551	keystroke_Key.backspace	Key.backspace	n/a
80.9255	0.075	161851	keystroke_Key.backspace	Key.backspace	n/a
81.0755	0.09	162151	keystroke_Key.backspace	Key.backspace	n/a
81.2565	0.074	162513	keystroke_Key.backspace	Key.backspace	n/a
81.4355	0.09	162871	keystroke_Key.backspace	Key.backspace	n/a
81.6005	0.09	163201	keystroke_Key.backspace	Key.backspace	n/a
81.7955	0.091	163591	keystroke_Key.backspace	Key.backspace	n/a
82.0805	0.015	164161	keystroke_Key.backspace	Key.backspace	n/a
82.1705	0.09	164341	keystroke_Key.backspace	Key.backspace	n/a
82.3805	0.09	164761	keystroke_Key.backspace	Key.backspace	n/a
82.6365	0.089	165273	keystroke_s	s	n/a
83.3115	0.09	166623	keystroke_t	t	n/a
83.4315	0.09	166863	keystroke_r	r	n/a
83.5365	0.09	167073	keystroke_o	o	n/a
83.7315	0.09	167463	keystroke_n	n	n/a
83.8365	0.075	167673	keystroke_g	g	n/a
84.0755	0.075	168151	keystroke_Key.space	Key.space	n/a
84.2565	0.09	168513	keystroke_b	b	n/a
84.3315	0.075	168663	keystroke_e	e	n/a
85.4715	0.075	170943	keystroke_b	b	n/a
85.6215	0.09	171243	keystroke_i	i	n/a
85.7565	0.09	171513	keystroke_a	a	n/a
85.8915	0.09	171783	keystroke_n	n	n/a
86.6265	0.075	173253	keystroke_Key.space	Key.space	n/a
86.8215	0.0895	173643	keystroke_r	r	n/a
87.076	0.12	174152	keystroke_a	a	n/a
87.241	0.09	174482	keystroke_p	p	n/a
87.451	0.09	174902	keystroke_i	i	n/a
87.571	0.105	175142	keystroke_d	d	n/a
88.606	0.045	177212	keystroke_Key.enter	Key.enter	n/a
88.6575	8.635	177315	prompt	n/a	slow projected leave christian\n
89.656	0.075	179312	keystroke_s	s	n/a
89.776	0.09	179552	keystroke_l	l	n/a
89.956	0.075	179912	keystroke_o	o	n/a
90.106	0.105	180212	keystroke_w	w	n/a
90.361	0.09	180722	keystroke_Key.space	Key.space	n/a
90.706	0.09	181412	keystroke_p	p	n/a
90.886	0.075	181772	keystroke_r	r	n/a
91.036	0.09	182072	keystroke_o	o	n/a
91.681	0.075	183362	keystroke_j	j	n/a
91.801	0.09	183602	keystroke_e	e	n/a
91.996	0.045	183992	keystroke_c	c	n/a
92.131	0.09	184262	keystroke_t	t	n/a
92.536	0.06	185072	keystroke_e	e	n/a
92.761	0.15	185522	keystroke_d	d	n/a
92.881	0.12	185762	keystroke_Key.space	Key.space	n/a
93.181	0.075	186362	keystroke_e	e	n/a
93.496	0.09	186992	keystroke_Key.backspace	Key.backspace	n/a
93.706	0.075	187412	keystroke_l	l	n/a
93.796	0.09	187592	keystroke_e	e	n/a
94.036	0.12	188072	keystroke_a	a	n/a
94.186	0.075	188372	keystroke_v	v	n/a
94.336	0.105	188672	keystroke_e	e	n/a
94.606	0.09	189212	keystroke_Key.space	Key.space	n/a
95.161	0.06	190322	keystroke_c	c	n/a
95.341	0.09	190682	keystroke_h	h	n/a
95.536	0.075	191072	keystroke_r	r	n/a
95.716	0.09	191432	keystroke_i	i	n/a
95.941	0.09	191882	keystroke_s	s	n/a
96.271	0.075	192542	keystroke_t	t	n/a
96.361	0.105	192722	keystroke_i	i	n/a
96.556	0.075	193112	keystroke_a	a	n/a
96.646	0.075	193292	keystroke_n	n	n/a
97.231	0.06	194462	keystroke_Key.enter	Key.enter	n/a
97.296	15.402	194592	prompt	n/a	occupation calculators he solve\n
98.086	0.075	196172	keystroke_o	o	n/a
98.236	0.045	196472	keystroke_c	c	n/a
98.386	0.06	196772	keystroke_c	c	n/a
98.476	0.105	196952	keystroke_u	u	n/a
98.791	0.075	197582	keystroke_p	p	n/a
98.956	0.09	197912	keystroke_a	a	n/a
99.256	0.075	198512	keystroke_t	t	n/a
99.346	0.075	198692	keystroke_i	i	n/a
99.496	0.09	198992	keystroke_o	o	n/a
99.706	0.09	199412	keystroke_n	n	n/a
99.931	0.09	199862	keystroke_Key.space	Key.space	n/a
100.501	0.075	201002	keystroke_c	c	n/a
100.681	0.105	201362	keystroke_a	a	n/a
100.771	0.075	201542	keystroke_l	l	n/a
100.951	0.105	201902	keystroke_c	c	n/a
101.146	0.09	202292	keystroke_u	u	n/a
101.296	0.075	202592	keystroke_t	t	n/a
101.536	0.105	203072	keystroke_l	l	n/a
101.656	0.105	203312	keystroke_a	a	n/a
101.896	0.09	203792	keystroke_t	t	n/a
102.031	0.09	204062	keystroke_o	o	n/a
102.841	0.075	205682	keystroke_r	r	n/a
103.111	0.15	206222	keystroke_s	s	n/a
103.231	0.09	206462	keystroke_Key.space	Key.space	n/a
103.531	0.09	207062	keystroke_h	h	n/a
103.621	0.12	207242	keystroke_e	e	n/a
103.711	0.105	207422	keystroke_Key.space	Key.space	n/a
103.936	0.09	207872	keystroke_s	s	n/a
104.011	0.09	208022	keystroke_o	o	n/a
104.221	0.09	208442	keystroke_l	l	n/a
104.551	0.06	209102	keystroke_v	v	n/a
104.656	0.0595	209312	keystroke_e	e	n/a
106.5755	0.075	213151	keystroke_Key.backspace	Key.backspace	n/a
106.7255	0.075	213451	keystroke_Key.backspace	Key.backspace	n/a
106.9665	0.015	213933	keystroke_Key.backspace	Key.backspace	n/a
107.0405	0.075	214081	keystroke_Key.backspace	Key.backspace	n/a
107.2215	0.06	214443	keystroke_Key.backspace	Key.backspace	n/a
107.3705	0.09	214741	keystroke_Key.backspace	Key.backspace	n/a
107.5355	0.09	215071	keystroke_Key.backspace	Key.backspace	n/a
107.7155	0.075	215431	keystroke_Key.backspace	Key.backspace	n/a
107.8655	0.091	215731	keystroke_Key.backspace	Key.backspace	n/a
108.0455	0.09	216091	keystroke_Key.backspace	Key.backspace	n/a
108.2105	0.09	216421	keystroke_Key.backspace	Key.backspace	n/a
108.4065	0.059	216813	keystroke_Key.backspace	Key.backspace	n/a
108.5565	0.089	217113	keystroke_Key.backspace	Key.backspace	n/a
108.7355	0.09	217471	keystroke_Key.backspace	Key.backspace	n/a
108.9005	0.105	217801	keystroke_Key.backspace	Key.backspace	n/a
109.2315	0.074	218463	keystroke_Key.backspace	Key.backspace	n/a
109.8015	0.059	219603	keystroke_l	l	n/a
109.9065	0.104	219813	keystroke_a	a	n/a
110.1915	0.074	220383	keystroke_t	t	n/a
110.2955	0.075	220591	keystroke_o	o	n/a
110.4015	0.075	220803	keystroke_r	r	n/a
110.6855	0.121	221371	keystroke_s	s	n/a
110.8355	0.105	221671	keystroke_Key.space	Key.space	n/a
111.3315	0.075	222663	keystroke_h	h	n/a
111.4205	0.106	222841	keystroke_e	e	n/a
111.4955	0.075	222991	keystroke_Key.space	Key.space	n/a
111.7065	0.075	223413	keystroke_s	s	n/a
111.8115	0.075	223623	keystroke_o	o	n/a
111.9615	0.09	223923	keystroke_l	l	n/a
112.2155	0.076	224431	keystroke_v	v	n/a
112.3215	0.074	224643	keystroke_e	e	n/a
112.6355	0.06	225271	keystroke_Key.enter	Key.enter	n/a
112.701	17.2915	225402	prompt	n/a	implementing creatures luxembourg place\n
113.5515	0.06	227103	keystroke_i	i	n/a
113.6865	0.105	227373	keystroke_m	m	n/a
113.8665	0.09	227733	keystroke_p	p	n/a
113.9865	0.074	227973	keystroke_e	e	n/a
114.0915	0.075	228183	keystroke_l	l	n/a
114.2855	0.06	228571	keystroke_Key.backspace	Key.backspace	n/a
114.4065	0.059	228813	keystroke_Key.backspace	Key.backspace	n/a
114.5265	0.12	229053	keystroke_l	l	n/a
114.6315	0.075	229263	keystroke_e	e	n/a
114.7365	0.105	229473	keystroke_m	m	n/a
115.501	0.09	231002	keystroke_e	e	n/a
115.606	0.12	231212	keystroke_n	n	n/a
115.741	0.09	231482	keystroke_t	t	n/a
115.891	0.09	231782	keystroke_i	i	n/a
116.101	0.105	232202	keystroke_n	n	n/a
116.221	0.105	232442	keystroke_g	g	n/a
116.431	0.105	232862	keystroke_Key.space	Key.space	n/a
117.046	0.09	234092	keystroke_c	c	n/a
117.271	0.075	234542	keystroke_r	r	n/a
117.661	0.06	235322	keystroke_e	e	n/a
117.871	0.105	235742	keystroke_a	a	n/a
118.186	0.06	236372	keystroke_t	t	n/a
118.306	0.075	236612	keystroke_u	u	n/a
118.411	0.075	236822	keystroke_r	r	n/a
118.591	0.075	237182	keystroke_e	e	n/a
118.981	0.105	237962	keystroke_s	s	n/a
119.206	0.105	238412	keystroke_Key.space	Key.space	n/a
119.491	0.09	238982	keystroke_l	l	n/a
119.761	0.075	239522	keystroke_u	u	n/a
120.406	0.09	240812	keystroke_x	x	n/a
120.646	0.06	241292	keystroke_e	e	n/a
120.751	0.09	241502	keystroke_m	m	n/a
121.006	0.075	242012	keystroke_b	b	n/a
121.171	0.105	242342	keystroke_u	u	n/a
121.321	0.09	242642	keystroke_t	t	n/a
121.831	0.06	243662	keystroke_Key.backspace	Key.backspace	n/a
122.131	0.06	244262	keystroke_r	r	n/a
122.251	0.075	244502	keystroke_g	g	n/a
123.106	0.09	246212	keystroke_Key.space	Key.space	n/a
123.256	0.075	246512	keystroke_p	p	n/a
123.421	0.09	246842	keystroke_l	l	n/a
123.541	0.105	247082	keystroke_a	a	n/a
123.781	0.06	247562	keystroke_c	c	n/a
123.856	0.075	247712	keystroke_e	e	n/a
125.611	0.09	251222	keystroke_Key.backspace	Key.backspace	n/a
125.776	0.075	251552	keystroke_Key.backspace	Key.backspace	n/a
125.911	0.09	251822	keystroke_Key.backspace	Key.backspace	n/a
126.091	0.075	252182	keystroke_Key.backspace	Key.backspace	n/a
126.271	0.075	252542	keystroke_Key.backspace	Key.backspace	n/a
126.451	0.075	252902	keystroke_Key.backspace	Key.backspace	n/a
126.601	0.09	253202	keystroke_Key.backspace	Key.backspace	n/a
126.886	0.09	253772	keystroke_Key.backspace	Key.backspace	n/a
127.246	0.06	254492	keystroke_Key.backspace	Key.backspace	n/a
127.786	0.09	255572	keystroke_o	o	n/a
127.981	0.075	255962	keystroke_u	u	n/a
128.326	0.075	256652	keystroke_r	r	n/a
128.521	0.09	257042	keystroke_g	g	n/a
128.626	0.09	257252	keystroke_Key.space	Key.space	n/a
128.956	0.06	257912	keystroke_p	p	n/a
129.091	0.105	258182	keystroke_l	l	n/a
129.226	0.075	258452	keystroke_a	a	n/a
129.421	0.075	258842	keystroke_c	c	n/a
129.631	0.075	259262	keystroke_e	e	n/a
129.916	0.075	259832	keystroke_Key.enter	Key.enter	n/a
129.996	9.5965	259992	prompt	n/a	beef agreement closer emperor\n
130.786	0.075	261572	keystroke_b	b	n/a
130.876	0.075	261752	keystroke_e	e	n/a
131.041	0.045	262082	keystroke_k	k	n/a
131.281	0.06	262562	keystroke_k	k	n/a
131.581	0.06	263162	keystroke_Key.backspace	Key.backspace	n/a
131.716	0.105	263432	keystroke_Key.backspace	Key.backspace	n/a
131.896	0.075	263792	keystroke_Key.backspace	Key.backspace	n/a
131.941	0.075	263882	keystroke_e	e	n/a
132.376	0.075	264752	keystroke_e	e	n/a
133.141	0.075	266282	keystroke_f	f	n/a
133.261	0.09	266522	keystroke_Key.space	Key.space	n/a
133.801	0.075	267602	keystroke_a	a	n/a
133.981	0.105	267962	keystroke_f	f	n/a
134.611	0.06	269222	keystroke_Key.backspace	Key.backspace	n/a
134.836	0.06	269672	keystroke_g	g	n/a
135.001	0.075	270002	keystroke_r	r	n/a
135.211	0.09	270422	keystroke_e	e	n/a
135.376	0.075	270752	keystroke_e	e	n/a
135.526	0.075	271052	keystroke_m	m	n/a
135.631	0.075	271262	keystroke_e	e	n/a
135.811	0.105	271622	keystroke_n	n	n/a
135.946	0.075	271892	keystroke_t	t	n/a
136.6505	0.075	273301	keystroke_Key.space	Key.space	n/a
136.8755	0.105	273751	keystroke_c	c	n/a
136.9655	0.09	273931	keystroke_l	l	n/a
137.1455	0.09	274291	keystroke_o	o	n/a
137.2205	0.105	274441	keystroke_s	s	n/a
137.446	0.075	274892	keystroke_e	e	n/a
137.9105	0.06	275821	keystroke_r	r	n/a
138.0455	0.09	276091	keystroke_Key.space	Key.space	n/a
138.2705	0.09	276541	keystroke_e	e	n/a
138.3455	0.09	276691	keystroke_m	m	n/a
138.4955	0.105	276991	keystroke_p	p	n/a
138.5555	0.09	277111	keystroke_e	e	n/a
138.7205	0.105	277441	keystroke_r	r	n/a
138.8405	0.075	277681	keystroke_o	o	n/a
138.9605	0.09	277921	keystroke_r	r	n/a
139.5155	0.075	279031	keystroke_Key.enter	Key.enter	n/a
139.596	8.172	279192	prompt	n/a	motion rows birthday nail\n
140.3705	0.075	280741	keystroke_m	m	n/a
140.5205	0.09	281041	keystroke_o	o	n/a
140.6855	0.075	281371	keystroke_t	t	n/a
140.7755	0.09	281551	keystroke_i	i	n/a
140.9255	0.09	281851	keystroke_o	o	n/a
141.1055	0.09	282211	keystroke_n	n	n/a
141.2255	0.12	282451	keystroke_Key.space	Key.space	n/a
141.4805	0.075	282961	keystroke_r	r	n/a
141.6605	0.09	283321	keystroke_o	o	n/a
141.7805	0.12	283561	keystroke_w	w	n/a
142.5455	0.12	285091	keystroke_s	s	n/a
142.7555	0.105	285511	keystroke_Key.space	Key.space	n/a
142.9355	0.075	285871	keystroke_b	b	n/a
143.1155	0.09	286231	keystroke_i	i	n/a
143.2655	0.06	286531	keystroke_t	t	n/a
143.6255	0.06	287251	keystroke_Key.backspace	Key.backspace	n/a
143.7005	0.09	287401	keystroke_r	r	n/a
143.9255	0.09	287851	keystroke_t	t	n/a
144.5405	0.075	289081	keystroke_h	h	n/a
144.6605	0.075	289321	keystroke_c	c	n/a
145.1555	0.09	290311	keystroke_Key.backspace	Key.backspace	n/a
145.2605	0.075	290521	keystroke_d	d	n/a
145.3955	0.105	290791	keystroke_a	a	n/a
145.5305	0.09	291061	keystroke_y	y	n/a
145.8755	0.105	291751	keystroke_Key.space	Key.space	n/a
146.5205	0.075	293041	keystroke_n	n	n/a
146.6555	0.105	293311	keystroke_a	a	n/a
146.7155	0.09	293431	keystroke_i	i	n/a
146.9715	0.059	293943	keystroke_l	l	n/a
147.7055	0.06	295411	keystroke_Key.enter	Key.enter	n/a
147.772	11.2005	295544	prompt	n/a	verzeichnis tucson serial older\n
149.1455	0.06	298291	keystroke_v	v	n/a
149.2655	0.075	298531	keystroke_e	e	n/a
149.4465	0.059	298893	keystroke_t	t	n/a
150.0905	0.075	300181	keystroke_Key.backspace	Key.backspace	n/a
150.4655	0.075	300931	keystroke_r	r	n/a
150.9005	0.121	301801	keystroke_z	z	n/a
151.1855	0.075	302371	keystroke_e	e	n/a
152.1305	0.105	304261	keystroke_i	i	n/a
152.8965	0.075	305793	keystroke_c	c	n/a
153.0305	0.105	306061	keystroke_h	h	n/a
153.2855	0.091	306571	keystroke_n	n	n/a
153.4355	0.075	306871	keystroke_i	i	n/a
153.8415	0.044	307683	keystroke_s	s	n/a
154.0055	0.09	308011	keystroke_Key.space	Key.space	n/a
154.8905	0.076	309781	keystroke_t	t	n/a
155.0265	0.104	310053	keystroke_u	u	n/a
155.2055	0.075	310411	keystroke_c	c	n/a
155.4465	0.104	310893	keystroke_s	s	n/a
155.5665	0.06	311133	keystroke_o	o	n/a
155.7165	0.105	311433	keystroke_n	n	n/a
156.0605	0.09	312121	keystroke_Key.space	Key.space	n/a
156.3005	0.106	312601	keystroke_s	s	n/a
156.5115	0.089	313023	keystroke_e	e	n/a
156.6915	0.089	313383	keystroke_r	r	n/a
156.8265	0.104	313653	keystroke_i	i	n/a
156.9605	0.106	313921	keystroke_a	a	n/a
157.1415	0.105	314283	keystroke_l	l	n/a
157.306	0.09	314612	keystroke_Key.space	Key.space	n/a
157.71	0.076	315420	keystroke_o	o	n/a
157.936	0.09	315872	keystroke_l	l	n/a
158.131	0.06	316262	keystroke_d	d	n/a
158.311	0.06	316622	keystroke_e	e	n/a
158.476	0.06	316952	keystroke_r	r	n/a
158.926	0.045	317852	keystroke_Key.enter	Key.enter	n/a
158.9755	17.8625	317951	prompt	n/a	friendship directed aggressive registered\n
160.081	0.09	320162	keystroke_f	f	n/a
160.23	0.076	320460	keystroke_r	r	n/a
160.501	0.075	321002	keystroke_i	i	n/a
160.605	0.076	321210	keystroke_e	e	n/a
160.726	0.09	321452	keystroke_n	n	n/a
160.861	0.09	321722	keystroke_d	d	n/a
161.581	0.105	323162	keystroke_s	s	n/a
161.671	0.09	323342	keystroke_h	h	n/a
161.866	0.09	323732	keystroke_i	i	n/a
162.106	0.075	324212	keystroke_p	p	n/a
162.436	0.09	324872	keystroke_Key.space	Key.space	n/a
162.751	0.075	325502	keystroke_d	d	n/a
162.931	0.075	325862	keystroke_e	e	n/a
163.216	0.09	326432	keystroke_Key.backspace	Key.backspace	n/a
163.366	0.12	326732	keystroke_i	i	n/a
163.441	0.09	326882	keystroke_d	d	n/a
163.696	0.09	327392	keystroke_e	e	n/a
163.936	0.075	327872	keystroke_Key.backspace	Key.backspace	n/a
164.101	0.09	328202	keystroke_Key.backspace	Key.backspace	n/a
164.116	0.09	328232	keystroke_r	r	n/a
164.311	0.075	328622	keystroke_e	e	n/a
164.581	0.09	329162	keystroke_c	c	n/a
165.061	0.06	330122	keystroke_t	t	n/a
165.346	0.06	330692	keystroke_e	e	n/a
165.571	0.135	331142	keystroke_d	d	n/a
165.721	0.06	331442	keystroke_Key.space	Key.space	n/a
165.916	0.105	331832	keystroke_a	a	n/a
166.171	0.075	332342	keystroke_g	g	n/a
166.321	0.105	332642	keystroke_g	g	n/a
166.531	0.06	333062	keystroke_r	r	n/a
166.696	0.075	333392	keystroke_e	e	n/a
173.163	0.028	346326	keystroke_s	s	n/a
173.281	0.09	346562	keystroke_s	s	n/a
173.446	0.09	346892	keystroke_i	i	n/a
173.701	0.09	347402	keystroke_v	v	n/a
173.851	0.105	347702	keystroke_e	e	n/a
173.971	0.135	347942	keystroke_Key.space	Key.space	n/a
174.271	0.075	348542	keystroke_r	r	n/a
174.451	0.09	348902	keystroke_e	e	n/a
175.126	0.06	350252	keystroke_g	g	n/a
175.201	0.105	350402	keystroke_i	i	n/a
175.516	0.105	351032	keystroke_s	s	n/a
175.636	0.09	351272	keystroke_t	t	n/a
175.966	0.075	351932	keystroke_e	e	n/a
176.326	0.09	352652	keystroke_r	r	n/a
176.401	0.075	352802	keystroke_e	e	n/a
176.581	0.09	353162	keystroke_d	d	n/a
176.791	0.045	353582	keystroke_Key.enter	Key.enter	n/a
176.8415	13.0465	353683	prompt	n/a	founded enforcement perform settings\n
178.3955	0.105	356791	keystroke_f	f	n/a
178.4855	0.09	356971	keystroke_o	o	n/a
178.6805	0.075	357361	keystroke_u	u	n/a
178.7705	0.06	357541	keystroke_r	r	n/a
178.9205	0.09	357841	keystroke_n	n	n/a
179.1905	0.06	358381	keystroke_Key.backspace	Key.backspace	n/a
179.311	0.1045	358622	keystroke_Key.backspace	Key.backspace	n/a
179.761	0.1045	359522	keystroke_n	n	n/a
179.8805	0.075	359761	keystroke_d	d	n/a
180.0755	0.091	360151	keystroke_e	e	n/a
180.6605	0.09	361321	keystroke_d	d	n/a
180.8105	0.12	361621	keystroke_Key.space	Key.space	n/a
181.3955	0.075	362791	keystroke_e	e	n/a
181.4855	0.105	362971	keystroke_n	n	n/a
181.7405	0.06	363481	keystroke_f	f	n/a
182.3255	0.075	364651	keystroke_o	o	n/a
182.4455	0.09	364891	keystroke_r	r	n/a
182.5805	0.105	365161	keystroke_m	m	n/a
183.0605	0.06	366121	keystroke_v	v	n/a
183.3605	0.06	366721	keystroke_Key.backspace	Key.backspace	n/a
183.4955	0.12	366991	keystroke_Key.backspace	Key.backspace	n/a
183.6305	0.105	367261	keystroke_c	c	n/a
183.8705	0.075	367741	keystroke_e	e	n/a
183.9605	0.105	367921	keystroke_m	m	n/a
184.1405	0.09	368281	keystroke_e	e	n/a
184.4555	0.075	368911	keystroke_n	n	n/a
184.6055	0.075	369211	keystroke_t	t	n/a
184.9655	0.105	369931	keystroke_Key.space	Key.space	n/a
185.2205	0.0905	370441	keystroke_p	p	n/a
185.3255	0.091	370651	keystroke_e	e	n/a
185.4915	0.104	370983	keystroke_r	r	n/a
186.3155	0.09	372631	keystroke_f	f	n/a
186.4205	0.105	372841	keystroke_o	o	n/a
186.6755	0.06	373351	keystroke_r	r	n/a
187.4415	0.089	374883	keystroke_m	m	n/a
187.5605	0.105	375121	keystroke_Key.space	Key.space	n/a
187.7855	0.09	375571	keystroke_s	s	n/a
187.9805	0.075	375961	keystroke_e	e	n/a
188.1915	0.074	376383	keystroke_t	t	n/a
188.3555	0.075	376711	keystroke_t	t	n/a
188.4755	0.075	376951	keystroke_i	i	n/a
188.6255	0.106	377251	keystroke_n	n	n/a
188.7455	0.076	377491	keystroke_g	g	n/a
189.0305	0.031	378061	keystroke_s	s	n/a
189.8255	0.06	379651	keystroke_Key.enter	Key.enter	n/a
189.892	13.721	379784	prompt	n/a	growing requires tuesday advertisements\n
190.7865	0.074	381573	keystroke_g	g	n/a
190.9355	0.106	381871	keystroke_r	r	n/a
191.0865	0.089	382173	keystroke_o	o	n/a
191.2205	0.106	382441	keystroke_w	w	n/a
191.7305	0.075	383461	keystroke_i	i	n/a
191.8955	0.105	383791	keystroke_n	n	n/a
192.0465	0.074	384093	keystroke_g	g	n/a
192.2555	0.09	384511	keystroke_Key.space	Key.space	n/a
192.4365	0.09	384873	keystroke_r	r	n/a
192.6005	0.106	385201	keystroke_e	e	n/a
192.9455	0.091	385891	keystroke_q	q	n/a
193.0815	0.089	386163	keystroke_u	u	n/a
193.2315	0.104	386463	keystroke_i	i	n/a
193.3515	0.075	386703	keystroke_t	t	n/a
193.5915	0.03	387183	keystroke_r	r	n/a
193.9665	0.059	387933	keystroke_Key.backspace	Key.backspace	n/a
194.1005	0.091	388201	keystroke_Key.backspace	Key.backspace	n/a
194.1465	0.09	388293	keystroke_r	r	n/a
194.3265	0.105	388653	keystroke_e	e	n/a
194.5515	0.135	389103	keystroke_s	s	n/a
194.6415	0.135	389283	keystroke_Key.space	Key.space	n/a
195.4815	0.06	390963	keystroke_t	t	n/a
195.5865	0.105	391173	keystroke_u	u	n/a
195.706	0.09	391412	keystroke_e	e	n/a
196.141	0.06	392282	keystroke_s	s	n/a
196.336	0.09	392672	keystroke_d	d	n/a
196.486	0.09	392972	keystroke_y	y	n/a
196.591	0.09	393182	keystroke_a	a	n/a
196.891	0.075	393782	keystroke_Key.backspace	Key.backspace	n/a
197.026	0.105	394052	keystroke_Key.backspace	Key.backspace	n/a
197.146	0.09	394292	keystroke_a	a	n/a
197.296	0.09	394592	keystroke_y	y	n/a
197.416	0.105	394832	keystroke_Key.space	Key.space	n/a
199.501	0.09	399002	keystroke_a	a	n/a
199.651	0.105	399302	keystroke_d	d	n/a
200.251	0.105	400502	keystroke_v	v	n/a
200.371	0.09	400742	keystroke_e	e	n/a
200.476	0.09	400952	keystroke_r	r	n/a
200.671	0.09	401342	keystroke_t	t	n/a
200.821	0.09	401642	keystroke_u	u	n/a
201.646	0.075	403292	keystroke_Key.backspace	Key.backspace	n/a
201.886	0.09	403772	keystroke_i	i	n/a
201.961	0.075	403922	keystroke_s	s	n/a
202.156	0.09	404312	keystroke_e	e	n/a
202.276	0.09	404552	keystroke_m	m	n/a
202.381	0.12	404762	keystroke_e	e	n/a
202.546	0.075	405092	keystroke_n	n	n/a
202.726	0.075	405452	keystroke_t	t	n/a
203.086	0.06	406172	keystroke_s	s	n/a
203.551	0.06	407102	keystroke_Key.enter	Key.enter	n/a
203.618	9.3845	407236	prompt	n/a	israel crack notified truck\n
204.496	0.075	408992	keystroke_i	i	n/a
204.692	0.089	409384	keystroke_s	s	n/a
204.856	0.09	409712	keystroke_r	r	n/a
205.006	0.09	410012	keystroke_a	a	n/a
205.231	0.06	410462	keystroke_e	e	n/a
205.336	0.075	410672	keystroke_l	l	n/a
205.456	0.09	410912	keystroke_Key.space	Key.space	n/a
205.711	0.105	411422	keystroke_c	c	n/a
205.966	0.09	411932	keystroke_r	r	n/a
206.206	0.09	412412	keystroke_a	a	n/a
206.326	0.09	412652	keystroke_k	k	n/a
206.671	0.06	413342	keystroke_Key.backspace	Key.backspace	n/a
206.791	0.09	413582	keystroke_c	c	n/a
206.896	0.091	413792	keystroke_k	k	n/a
207.1355	0.09	414271	keystroke_Key.space	Key.space	n/a
207.5255	0.09	415051	keystroke_n	n	n/a
207.7055	0.09	415411	keystroke_i	i	n/a
207.8855	0.075	415771	keystroke_t	t	n/a
208.1115	0.075	416223	keystroke_u	u	n/a
208.5455	0.075	417091	keystroke_Key.backspace	Key.backspace	n/a
208.7105	0.06	417421	keystroke_Key.backspace	Key.backspace	n/a
208.8605	0.06	417721	keystroke_Key.backspace	Key.backspace	n/a
209.0115	0.075	418023	keystroke_o	o	n/a
209.1005	0.091	418201	keystroke_t	t	n/a
209.2655	0.075	418531	keystroke_i	i	n/a
210.0305	0.061	420061	keystroke_f	f	n/a
210.1055	0.12	420211	keystroke_i	i	n/a
210.2705	0.075	420541	keystroke_e	e	n/a
210.6155	0.15	421231	keystroke_d	d	n/a
210.7665	0.134	421533	keystroke_Key.space	Key.space	n/a
211.605	0.09	423210	keystroke_t	t	n/a
211.74	0.1055	423480	keystroke_r	r	n/a
211.936	0.089	423872	keystroke_u	u	n/a
212.175	0.106	424350	keystroke_c	c	n/a
212.34	0.105	424680	keystroke_k	k	n/a
212.925	0.075	425850	keystroke_Key.enter	Key.enter	n/a
213.0055	7.4215	426011	prompt	n/a	reflected mailman pads bring\n
213.9	0.045	427800	keystroke_r	r	n/a
214.005	0.09	428010	keystroke_e	e	n/a
214.201	0.089	428402	keystroke_f	f	n/a
214.486	0.075	428972	keystroke_l	l	n/a
214.606	0.09	429212	keystroke_e	e	n/a
214.92	0.105	429840	keystroke_c	c	n/a
215.611	0.105	431222	keystroke_t	t	n/a
215.731	0.105	431462	keystroke_e	e	n/a
215.926	0.165	431852	keystroke_d	d	n/a
216.075	0.105	432150	keystroke_Key.space	Key.space	n/a
216.241	0.12	432482	keystroke_m	m	n/a
216.376	0.089	432752	keystroke_a	a	n/a
216.481	0.09	432962	keystroke_i	i	n/a
216.706	0.105	433412	keystroke_l	l	n/a
216.976	0.105	433952	keystroke_m	m	n/a
217.125	0.076	434250	keystroke_a	a	n/a
217.23	0.106	434460	keystroke_n	n	n/a
217.381	0.119	434762	keystroke_Key.space	Key.space	n/a
217.951	0.075	435902	keystroke_p	p	n/a
218.041	0.105	436082	keystroke_a	a	n/a
218.251	0.075	436502	keystroke_d	d	n/a
218.836	0.15	437672	keystroke_s	s	n/a
218.97	0.121	437940	keystroke_Key.space	Key.space	n/a
219.466	0.105	438932	keystroke_b	b	n/a
219.586	0.075	439172	keystroke_r	r	n/a
219.691	0.075	439382	keystroke_i	i	n/a
219.976	0.015	439952	keystroke_n	n	n/a
220.006	0.045	440012	keystroke_g	g	n/a
220.366	0.06	440732	keystroke_Key.enter	Key.enter	n/a
220.431	11.277	440862	prompt	n/a	explanation where've letting password\n
221.446	0.06	442892	keystroke_e	e	n/a
221.776	0.075	443552	keystroke_x	x	n/a
221.881	0.06	443762	keystroke_p	p	n/a
222.031	0.09	444062	keystroke_l	l	n/a
222.136	0.105	444272	keystroke_a	a	n/a
222.286	0.105	444572	keystroke_n	n	n/a
222.481	0.105	444962	keystroke_a	a	n/a
222.781	0.075	445562	keystroke_t	t	n/a
222.856	0.075	445712	keystroke_i	i	n/a
223.021	0.09	446042	keystroke_o	o	n/a
223.186	0.12	446372	keystroke_n	n	n/a
223.291	0.105	446582	keystroke_Key.space	Key.space	n/a
223.456	0.105	446912	keystroke_w	w	n/a
223.696	0.09	447392	keystroke_h	h	n/a
223.787	0.089	447574	keystroke_e	e	n/a
223.981	0.09	447962	keystroke_r	r	n/a
224.176	0.105	448352	keystroke_e	e	n/a
224.341	0.135	448682	keystroke_Key.space	Key.space	n/a
224.956	0.075	449912	keystroke_Key.backspace	Key.backspace	n/a
225.841	0.075	451682	keystroke_'	'	n/a
226.276	0.06	452552	keystroke_v	v	n/a
226.381	0.105	452762	keystroke_e	e	n/a
227.206	0.09	454412	keystroke_Key.space	Key.space	n/a
227.326	0.075	454652	keystroke_l	l	n/a
227.476	0.105	454952	keystroke_e	e	n/a
227.761	0.075	455522	keystroke_t	t	n/a
227.896	0.105	455792	keystroke_t	t	n/a
228.031	0.075	456062	keystroke_i	i	n/a
228.211	0.09	456422	keystroke_n	n	n/a
228.316	0.075	456632	keystroke_g	g	n/a
229.111	0.09	458222	keystroke_Key.space	Key.space	n/a
229.231	0.09	458462	keystroke_p	p	n/a
229.366	0.135	458732	keystroke_a	a	n/a
229.606	0.075	459212	keystroke_s	s	n/a
229.786	0.09	459572	keystroke_s	s	n/a
230.056	0.09	460112	keystroke_w	w	n/a
230.191	0.105	460382	keystroke_o	o	n/a
230.356	0.12	460712	keystroke_r	r	n/a
231.001	0.09	462002	keystroke_d	d	n/a
231.661	0.045	463322	keystroke_Key.enter	Key.enter	n/a
231.7105	8.8925	463421	prompt	n/a	moves close jewish complications\n
232.531	0.075	465062	keystroke_m	m	n/a
232.651	0.09	465302	keystroke_o	o	n/a
232.906	0.075	465812	keystroke_v	v	n/a
232.996	0.09	465992	keystroke_e	e	n/a
233.311	0.105	466622	keystroke_Key.space	Key.space	n/a
233.686	0.09	467372	keystroke_Key.backspace	Key.backspace	n/a
233.761	0.09	467522	keystroke_s	s	n/a
233.836	0.075	467672	keystroke_Key.space	Key.space	n/a
234.016	0.12	468032	keystroke_c	c	n/a
234.106	0.09	468212	keystroke_l	l	n/a
234.301	0.09	468602	keystroke_o	o	n/a
234.436	0.105	468872	keystroke_s	s	n/a
234.646	0.15	469292	keystroke_e	e	n/a
234.781	0.12	469562	keystroke_Key.space	Key.space	n/a
235.156	0.12	470312	keystroke_j	j	n/a
235.261	0.09	470522	keystroke_e	e	n/a
235.576	0.105	471152	keystroke_w	w	n/a
235.741	0.105	471482	keystroke_i	i	n/a
235.951	0.09	471902	keystroke_s	s	n/a
236.131	0.09	472262	keystroke_h	h	n/a
236.671	0.12	473342	keystroke_Key.space	Key.space	n/a
237.886	0.09	475772	keystroke_c	c	n/a
238.006	0.075	476012	keystroke_o	o	n/a
238.171	0.075	476342	keystroke_m	m	n/a
238.306	0.09	476612	keystroke_p	p	n/a
238.456	0.106	476912	keystroke_l	l	n/a
238.831	0.09	477662	keystroke_i	i	n/a
239.311	0.075	478622	keystroke_c	c	n/a
239.446	0.135	478892	keystroke_a	a	n/a
239.716	0.075	479432	keystroke_t	t	n/a
239.806	0.076	479612	keystroke_i	i	n/a
239.941	0.09	479882	keystroke_o	o	n/a
240.106	0.105	480212	keystroke_n	n	n/a
240.241	0.075	480482	keystroke_s	s	n/a
240.541	0.06	481082	keystroke_Key.enter	Key.enter	n/a
240.606	11.1115	481212	prompt	n/a	certification donate shoppers interim\n
241.651	0.045	483302	keystroke_c	c	n/a
241.981	0.075	483962	keystroke_e	e	n/a
242.101	0.075	484202	keystroke_r	r	n/a
242.341	0.075	484682	keystroke_t	t	n/a
243.151	0.06	486302	keystroke_i	i	n/a
243.286	0.09	486572	keystroke_f	f	n/a
243.391	0.09	486782	keystroke_i	i	n/a
243.571	0.075	487142	keystroke_c	c	n/a
243.721	0.09	487442	keystroke_a	a	n/a
243.976	0.075	487952	keystroke_t	t	n/a
244.066	0.075	488132	keystroke_i	i	n/a
244.216	0.09	488432	keystroke_o	o	n/a
244.396	0.09	488792	keystroke_n	n	n/a
244.471	0.075	488942	keystroke_Key.space	Key.space	n/a
244.636	0.105	489272	keystroke_d	d	n/a
244.757	0.059	489514	keystroke_o	o	n/a
244.906	0.09	489812	keystroke_n	n	n/a
245.026	0.12	490052	keystroke_a	a	n/a
245.221	0.06	490442	keystroke_t	t	n/a
245.371	0.135	490742	keystroke_e	e	n/a
245.551	0.105	491102	keystroke_Key.space	Key.space	n/a
246.016	0.09	492032	keystroke_s	s	n/a
246.151	0.09	492302	keystroke_h	h	n/a
246.361	0.06	492722	keystroke_o	o	n/a
246.916	0.075	493832	keystroke_p	p	n/a
247.081	0.09	494162	keystroke_p	p	n/a
247.156	0.075	494312	keystroke_e	e	n/a
247.336	0.075	494672	keystroke_r	r	n/a
247.591	0.135	495182	keystroke_s	s	n/a
247.711	0.12	495422	keystroke_Key.space	Key.space	n/a
248.011	0.075	496022	keystroke_i	i	n/a
248.206	0.105	496412	keystroke_n	n	n/a
248.476	0.075	496952	keystroke_t	t	n/a
248.611	0.06	497222	keystroke_e	e	n/a
248.791	0.105	497582	keystroke_r	r	n/a
248.956	0.045	497912	keystroke_u	u	n/a
249.481	0.075	498962	keystroke_Key.backspace	Key.backspace	n/a
249.706	0.075	499412	keystroke_i	i	n/a
249.931	0.09	499862	keystroke_m	m	n/a
251.641	0.075	503282	keystroke_Key.enter	Key.enter	n/a
251.7205	9.867	503441	prompt	n/a	netherlands problems surf real\n
252.901	0.045	505802	keystroke_t	t	n/a
253.066	0.09	506132	keystroke_h	h	n/a
253.141	0.06	506282	keystroke_e	e	n/a
253.411	0.06	506822	keystroke_Key.backspace	Key.backspace	n/a
253.561	0.06	507122	keystroke_Key.backspace	Key.backspace	n/a
253.711	0.075	507422	keystroke_Key.backspace	Key.backspace	n/a
253.906	0.105	507812	keystroke_n	n	n/a
254.026	0.105	508052	keystroke_e	e	n/a
254.206	0.09	508412	keystroke_t	t	n/a
254.416	0.105	508832	keystroke_h	h	n/a
254.506	0.06	509012	keystroke_e	e	n/a
254.671	0.105	509342	keystroke_r	r	n/a
255.196	0.09	510392	keystroke_l	l	n/a
255.301	0.12	510602	keystroke_a	a	n/a
255.436	0.09	510872	keystroke_n	n	n/a
255.541	0.075	511082	keystroke_d	d	n/a
255.766	0.15	511532	keystroke_s	s	n/a
255.901	0.12	511802	keystroke_Key.space	Key.space	n/a
256.081	0.09	512162	keystroke_p	p	n/a
256.186	0.09	512372	keystroke_r	r	n/a
256.336	0.09	512672	keystroke_o	o	n/a
256.576	0.09	513152	keystroke_b	b	n/a
256.771	0.09	513542	keystroke_l	l	n/a
256.966	0.06	513932	keystroke_m	m	n/a
257.041	0.09	514082	keystroke_e	e	n/a
257.461	0.06	514922	keystroke_Key.backspace	Key.backspace	n/a
257.611	0.105	515222	keystroke_Key.backspace	Key.backspace	n/a
257.731	0.09	515462	keystroke_e	e	n/a
257.881	0.09	515762	keystroke_m	m	n/a
258.076	0.15	516152	keystroke_s	s	n/a
258.211	0.105	516422	keystroke_Key.space	Key.space	n/a
258.826	0.105	517652	keystroke_s	s	n/a
258.976	0.06	517952	keystroke_u	u	n/a
259.126	0.075	518252	keystroke_r	r	n/a
259.486	0.09	518972	keystroke_f	f	n/a
259.666	0.1045	519332	keystroke_Key.space	Key.space	n/a
259.9205	0.06	519841	keystroke_r	r	n/a
260.0855	0.06	520171	keystroke_e	e	n/a
260.371	0.105	520742	keystroke_a	a	n/a
260.4905	0.09	520981	keystroke_l	l	n/a
261.5105	0.075	523021	keystroke_Key.enter	Key.enter	n/a
261.5905	6.5375	523181	prompt	n/a	sherman declare jets letters\n
262.5155	0.091	525031	keystroke_s	s	n/a
262.6505	0.09	525301	keystroke_h	h	n/a
262.7565	0.074	525513	keystroke_e	e	n/a
262.9805	0.09	525961	keystroke_r	r	n/a
263.1315	0.075	526263	keystroke_m	m	n/a
263.2505	0.106	526501	keystroke_a	a	n/a
263.3705	0.09	526741	keystroke_n	n	n/a
263.4755	0.09	526951	keystroke_Key.space	Key.space	n/a
263.8355	0.105	527671	keystroke_d	d	n/a
264.0755	0.075	528151	keystroke_e	e	n/a
264.3155	0.075	528631	keystroke_c	c	n/a
264.4205	0.09	528841	keystroke_h	h	n/a
264.7205	0.075	529441	keystroke_Key.backspace	Key.backspace	n/a
264.8865	0.104	529773	keystroke_l	l	n/a
265.0055	0.09	530011	keystroke_a	a	n/a
265.3055	0.075	530611	keystroke_r	r	n/a
265.5005	0.135	531001	keystroke_e	e	n/a
265.6655	0.09	531331	keystroke_Key.space	Key.space	n/a
265.9065	0.104	531813	keystroke_j	j	n/a
265.9955	0.09	531991	keystroke_e	e	n/a
266.2205	0.09	532441	keystroke_t	t	n/a
266.4005	0.151	532801	keystroke_s	s	n/a
266.5355	0.12	533071	keystroke_Key.space	Key.space	n/a
266.8205	0.075	533641	keystroke_l	l	n/a
266.9105	0.075	533821	keystroke_e	e	n/a
267.1815	0.059	534363	keystroke_t	t	n/a
267.3305	0.09	534661	keystroke_t	t	n/a
267.4065	0.089	534813	keystroke_e	e	n/a
267.5705	0.09	535141	keystroke_r	r	n/a
267.8415	0.09	535683	keystroke_s	s	n/a
268.0655	0.06	536131	keystroke_Key.enter	Key.enter	n/a
268.131	10.2865	536262	prompt	n/a	protection nicole smoking apple\n
268.7705	0.09	537541	keystroke_p	p	n/a
268.8765	0.075	537753	keystroke_r	r	n/a
269.0705	0.075	538141	keystroke_o	o	n/a
269.6705	0.075	539341	keystroke_t	t	n/a
269.7605	0.105	539521	keystroke_e	e	n/a
269.9855	0.121	539971	keystroke_c	c	n/a
270.2255	0.091	540451	keystroke_t	t	n/a
270.3315	0.09	540663	keystroke_i	i	n/a
270.4815	0.104	540963	keystroke_o	o	n/a
270.6905	0.075	541381	keystroke_n	n	n/a
270.7665	0.104	541533	keystroke_Key.space	Key.space	n/a
271.0355	0.075	542071	keystroke_n	n	n/a
271.1865	0.074	542373	keystroke_i	i	n/a
271.3215	0.074	542643	keystroke_c	c	n/a
271.4265	0.059	542853	keystroke_i	i	n/a
271.8605	0.061	543721	keystroke_o	o	n/a
272.2065	0.059	544413	keystroke_Key.backspace	Key.backspace	n/a
272.3265	0.089	544653	keystroke_Key.backspace	Key.backspace	n/a
272.5205	0.091	545041	keystroke_o	o	n/a
272.7015	0.105	545403	keystroke_l	l	n/a
272.8065	0.12	545613	keystroke_e	e	n/a
272.9405	0.105	545881	keystroke_Key.space	Key.space	n/a
273.4065	0.12	546813	keystroke_s	s	n/a
273.5565	0.075	547113	keystroke_m	m	n/a
273.7215	0.075	547443	keystroke_o	o	n/a
274.3815	0.089	548763	keystroke_n	n	n/a
274.9205	0.076	549841	keystroke_Key.backspace	Key.backspace	n/a
275.1165	0.09	550233	keystroke_k	k	n/a
275.3265	0.075	550653	keystroke_i	i	n/a
275.5365	0.09	551073	keystroke_n	n	n/a
275.6405	0.091	551281	keystroke_f	f	n/a
276.1065	0.059	552213	keystroke_Key.backspace	Key.backspace	n/a
276.1515	0.06	552303	keystroke_g	g	n/a
276.3765	0.09	552753	keystroke_Key.space	Key.space	n/a
276.8865	0.075	553773	keystroke_s	s	n/a
277.2915	0.09	554583	keystroke_Key.backspace	Key.backspace	n/a
277.3965	0.105	554793	keystroke_a	a	n/a
277.5165	0.075	555033	keystroke_p	p	n/a
277.6815	0.06	555363	keystroke_p	p	n/a
277.9215	0.03	555843	keystroke_l	l	n/a
277.9365	0.06	555873	keystroke_e	e	n/a
278.3565	0.06	556713	keystroke_Key.enter	Key.enter	n/a
278.4205	7.3615	556841	prompt	n/a	earth supply chase italiano\n
279.1065	0.075	558213	keystroke_a	a	n/a
279.3465	0.09	558693	keystroke_Key.backspace	Key.backspace	n/a
279.4215	0.0895	558843	keystroke_e	e	n/a
279.751	0.105	559502	keystroke_a	a	n/a
279.901	0.075	559802	keystroke_r	r	n/a
280.066	0.09	560132	keystroke_t	t	n/a
280.306	0.045	560612	keystroke_h	h	n/a
280.486	0.09	560972	keystroke_Key.space	Key.space	n/a
280.756	0.09	561512	keystroke_s	s	n/a
280.861	0.105	561722	keystroke_u	u	n/a
281.116	0.075	562232	keystroke_p	p	n/a
281.266	0.09	562532	keystroke_p	p	n/a
281.716	0.09	563432	keystroke_l	l	n/a
282.046	0.06	564092	keystroke_y	y	n/a
282.166	0.09	564332	keystroke_Key.space	Key.space	n/a
282.526	0.075	565052	keystroke_c	c	n/a
282.676	0.09	565352	keystroke_h	h	n/a
282.811	0.105	565622	keystroke_a	a	n/a
282.886	0.12	565772	keystroke_s	s	n/a
283.096	0.12	566192	keystroke_e	e	n/a
283.231	0.09	566462	keystroke_Key.space	Key.space	n/a
283.486	0.09	566972	keystroke_i	i	n/a
283.591	0.075	567182	keystroke_t	t	n/a
283.831	0.105	567662	keystroke_a	a	n/a
283.951	0.075	567902	keystroke_l	l	n/a
284.191	0.06	568382	keystroke_i	i	n/a
284.386	0.03	568772	keystroke_o	o	n/a
284.671	0.06	569342	keystroke_Key.backspace	Key.backspace	n/a
284.821	0.06	569642	keystroke_a	a	n/a
284.941	0.09	569882	keystroke_n	n	n/a
285.121	0.09	570242	keystroke_o	o	n/a
285.721	0.06	571442	keystroke_Key.enter	Key.enter	n/a
285.786	11.4865	571572	prompt	n/a	headline debut interpretation shoppers\n
286.666	0.075	573332	keystroke_h	h	n/a
286.726	0.09	573452	keystroke_e	e	n/a
286.921	0.12	573842	keystroke_a	a	n/a
287.071	0.105	574142	keystroke_d	d	n/a
287.281	0.09	574562	keystroke_l	l	n/a
287.476	0.075	574952	keystroke_i	i	n/a
287.656	0.09	575312	keystroke_n	n	n/a
287.866	0.045	575732	keystroke_e	e	n/a
288.001	0.105	576002	keystroke_Key.space	Key.space	n/a
288.316	0.075	576632	keystroke_d	d	n/a
288.496	0.075	576992	keystroke_e	e	n/a
288.676	0.075	577352	keystroke_b	b	n/a
288.811	0.105	577622	keystroke_u	u	n/a
288.946	0.105	577892	keystroke_t	t	n/a
289.111	0.09	578222	keystroke_Key.space	Key.space	n/a
289.486	0.06	578972	keystroke_i	i	n/a
289.636	0.09	579272	keystroke_n	n	n/a
289.876	0.105	579752	keystroke_t	t	n/a
289.966	0.09	579932	keystroke_e	e	n/a
290.131	0.09	580262	keystroke_r	r	n/a
290.626	0.09	581252	keystroke_p	p	n/a
292.9675	0.013	585935	keystroke_r	r	n/a
292.996	0.1045	585992	keystroke_e	e	n/a
293.161	0.0895	586322	keystroke_t	t	n/a
293.2955	0.12	586591	keystroke_a	a	n/a
293.6105	0.075	587221	keystroke_t	t	n/a
293.7155	0.075	587431	keystroke_i	i	n/a
293.8655	0.09	587731	keystroke_o	o	n/a
294.0455	0.075	588091	keystroke_n	n	n/a
294.2255	0.075	588451	keystroke_Key.space	Key.space	n/a
294.5555	0.075	589111	keystroke_s	s	n/a
294.6905	0.075	589381	keystroke_h	h	n/a
294.8855	0.09	589771	keystroke_o	o	n/a
295.2005	0.06	590401	keystroke_p	p	n/a
295.3655	0.09	590731	keystroke_p	p	n/a
295.4405	0.075	590881	keystroke_e	e	n/a
295.6055	0.09	591211	keystroke_r	r	n/a
295.921	0.0595	591842	keystroke_s	s	n/a
297.211	0.06	594422	keystroke_Key.enter	Key.enter	n/a
297.2755	15.9725	594551	prompt	n/a	commissioners adjustable study cycling\n
300.9485	0.001	601897	keystroke_c	c	n/a
300.9755	0.075	601951	keystroke_i	i	n/a
301.1555	0.06	602311	keystroke_n	n	n/a
301.3205	0.075	602641	keystroke_n	n	n/a
301.5005	0.09	603001	keystroke_u	u	n/a
301.6055	0.075	603211	keystroke_s	s	n/a
302.7155	0.045	605431	keystroke_Key.backspace	Key.backspace	n/a
302.8505	0.075	605701	keystroke_Key.backspace	Key.backspace	n/a
303.0155	0.09	606031	keystroke_Key.backspace	Key.backspace	n/a
303.1805	0.09	606361	keystroke_Key.backspace	Key.backspace	n/a
303.3455	0.09	606691	keystroke_Key.backspace	Key.backspace	n/a
303.6605	0.09	607321	keystroke_o	o	n/a
303.9155	0.06	607831	keystroke_m	m	n/a
304.0805	0.075	608161	keystroke_m	m	n/a
304.2605	0.075	608521	keystroke_i	i	n/a
304.3805	0.075	608761	keystroke_s	s	n/a
304.5605	0.0755	609121	keystroke_s	s	n/a
304.7555	0.075	609511	keystroke_i	i	n/a
304.9215	0.089	609843	keystroke_o	o	n/a
305.0855	0.09	610171	keystroke_n	n	n/a
305.2055	0.075	610411	keystroke_e	e	n/a
305.4605	0.09	610921	keystroke_r	r	n/a
305.7155	0.12	611431	keystroke_s	s	n/a
305.8205	0.075	611641	keystroke_Key.space	Key.space	n/a
305.9715	0.104	611943	keystroke_a	a	n/a
306.1355	0.091	612271	keystroke_d	d	n/a
306.2555	0.105	612511	keystroke_j	j	n/a
306.4505	0.075	612901	keystroke_u	u	n/a
306.7805	0.06	613561	keystroke_s	s	n/a
306.9765	0.089	613953	keystroke_t	t	n/a
307.1855	0.09	614371	keystroke_a	a	n/a
307.3665	0.074	614733	keystroke_b	b	n/a
307.6965	0.104	615393	keystroke_e	e	n/a
308.2805	0.075	616561	keystroke_Key.backspace	Key.backspace	n/a
308.4465	0.105	616893	keystroke_l	l	n/a
308.5655	0.12	617131	keystroke_e	e	n/a
308.6555	0.12	617311	keystroke_Key.space	Key.space	n/a
309.0305	0.06	618061	keystroke_a	a	n/a
309.3605	0.045	618721	keystroke_Key.backspace	Key.backspace	n/a
309.4215	0.075	618843	keystroke_s	s	n/a
309.6755	0.06	619351	keystroke_t	t	n/a
309.7665	0.105	619533	keystroke_u	u	n/a
309.9305	0.09	619861	keystroke_d	d	n/a
310.0965	0.089	620193	keystroke_y	y	n/a
310.2005	0.105	620401	keystroke_Key.space	Key.space	n/a
310.5905	0.076	621181	keystroke_c	c	n/a
310.8755	0.076	621751	keystroke_y	y	n/a
311.6405	0.075	623281	keystroke_c	c	n/a
311.7465	0.075	623493	keystroke_l	l	n/a
311.9715	0.059	623943	keystroke_i	i	n/a
312.1505	0.076	624301	keystroke_n	n	n/a
312.2715	0.075	624543	keystroke_g	g	n/a
313.171	0.075	626342	keystroke_Key.enter	Key.enter	n/a
313.253	10.765	626506	prompt	n/a	appreciated precious peninsula seconds\n
313.966	0.09	627932	keystroke_a	a	n/a
314.131	0.06	628262	keystroke_p	p	n/a
314.326	0.075	628652	keystroke_p	p	n/a
314.401	0.075	628802	keystroke_r	r	n/a
314.881	0.075	629762	keystroke_e	e	n/a
315.211	0.09	630422	keystroke_c	c	n/a
315.331	0.09	630662	keystroke_i	i	n/a
315.466	0.105	630932	keystroke_a	a	n/a
315.766	0.045	631532	keystroke_y	y	n/a
315.841	0.09	631682	keystroke_e	e	n/a
316.396	0.06	632792	keystroke_Key.backspace	Key.backspace	n/a
316.531	0.075	633062	keystroke_Key.backspace	Key.backspace	n/a
316.876	0.075	633752	keystroke_t	t	n/a
316.936	0.075	633872	keystroke_e	e	n/a
317.146	0.12	634292	keystroke_d	d	n/a
317.221	0.135	634442	keystroke_Key.space	Key.space	n/a
317.566	0.075	635132	keystroke_p	p	n/a
317.671	0.075	635342	keystroke_r	r	n/a
317.836	0.105	635672	keystroke_e	e	n/a
318.271	0.09	636542	keystroke_c	c	n/a
318.376	0.09	636752	keystroke_i	i	n/a
318.556	0.12	637112	keystroke_o	o	n/a
320.221	0.09	640442	keystroke_u	u	n/a
320.356	0.12	640712	keystroke_s	s	n/a
320.461	0.12	640922	keystroke_Key.space	Key.space	n/a
320.626	0.105	641252	keystroke_p	p	n/a
320.746	0.09	641492	keystroke_e	e	n/a
320.926	0.09	641852	keystroke_n	n	n/a
321.121	0.075	642242	keystroke_i	i	n/a
321.286	0.12	642572	keystroke_n	n	n/a
321.436	0.075	642872	keystroke_s	s	n/a
321.571	0.105	643142	keystroke_u	u	n/a
321.826	0.075	643652	keystroke_l	l	n/a
321.916	0.135	643832	keystroke_a	a	n/a
322.036	0.09	644072	keystroke_Key.space	Key.space	n/a
322.216	0.105	644432	keystroke_s	s	n/a
322.441	0.06	644882	keystroke_e	e	n/a
323.011	0.09	646022	keystroke_c	c	n/a
323.116	0.075	646232	keystroke_o	o	n/a
323.281	0.09	646562	keystroke_n	n	n/a
323.386	0.06	646772	keystroke_d	d	n/a
323.581	0.06	647162	keystroke_s	s	n/a
323.941	0.075	647882	keystroke_Key.enter	Key.enter	n/a
324.0205	11.487	648041	prompt	n/a	compact bios documentary anytime\n
324.961	0.09	649922	keystroke_c	c	n/a
325.066	0.09	650132	keystroke_o	o	n/a
325.246	0.075	650492	keystroke_m	m	n/a
325.411	0.061	650822	keystroke_p	p	n/a
325.501	0.105	651002	keystroke_a	a	n/a
325.831	0.075	651662	keystroke_c	c	n/a
326.147	0.075	652294	keystroke_t	t	n/a
326.296	0.12	652592	keystroke_Key.space	Key.space	n/a
326.716	0.075	653432	keystroke_b	b	n/a
326.866	0.075	653732	keystroke_i	i	n/a
327.046	0.06	654092	keystroke_o	o	n/a
327.211	0.075	654422	keystroke_o	o	n/a
327.331	0.105	654662	keystroke_s	s	n/a
327.421	0.105	654842	keystroke_Key.space	Key.space	n/a
327.886	0.0455	655772	keystroke_Key.backspace	Key.backspace	n/a
328.0065	0.075	656013	keystroke_Key.backspace	Key.backspace	n/a
328.1715	0.105	656343	keystroke_Key.backspace	Key.backspace	n/a
328.2615	0.135	656523	keystroke_s	s	n/a
328.3815	0.09	656763	keystroke_Key.space	Key.space	n/a
328.6665	0.09	657333	keystroke_d	d	n/a
328.8165	0.105	657633	keystroke_o	o	n/a
329.1315	0.075	658263	keystroke_Key.backspace	Key.backspace	n/a
329.4915	0.045	658983	keystroke_p	p	n/a
329.8665	0.075	659733	keystroke_Key.backspace	Key.backspace	n/a
330.0015	0.105	660003	keystroke_o	o	n/a
330.1215	0.0745	660243	keystroke_c	c	n/a
330.331	0.105	660662	keystroke_u	u	n/a
330.841	0.075	661682	keystroke_m	m	n/a
330.946	0.09	661892	keystroke_e	e	n/a
331.051	0.075	662102	keystroke_n	n	n/a
331.291	0.075	662582	keystroke_t	t	n/a
331.516	0.075	663032	keystroke_a	a	n/a
331.771	0.045	663542	keystroke_r	r	n/a
331.861	0.09	663722	keystroke_y	y	n/a
332.011	0.105	664022	keystroke_Key.space	Key.space	n/a
332.341	0.09	664682	keystroke_a	a	n/a
332.461	0.09	664922	keystroke_n	n	n/a
332.701	0.075	665402	keystroke_y	y	n/a
332.881	0.06	665762	keystroke_t	t	n/a
333.361	0.075	666722	keystroke_o	o	n/a
333.991	0.12	667982	keystroke_Key.backspace	Key.backspace	n/a
334.171	0.06	668342	keystroke_i	i	n/a
334.351	0.075	668702	keystroke_m	m	n/a
334.441	0.09	668882	keystroke_e	e	n/a
335.461	0.045	670922	keystroke_Key.enter	Key.enter	n/a
335.511	5.4865	671022	prompt	n/a	tree tells candy proven\n
336.361	0.06	672722	keystroke_t	t	n/a
336.526	0.09	673052	keystroke_r	r	n/a
336.646	0.09	673292	keystroke_e	e	n/a
336.856	0.12	673712	keystroke_e	e	n/a
337.081	0.105	674162	keystroke_Key.space	Key.space	n/a
337.231	0.09	674462	keystroke_t	t	n/a
337.351	0.075	674702	keystroke_e	e	n/a
337.591	0.075	675182	keystroke_l	l	n/a
337.756	0.075	675512	keystroke_l	l	n/a
337.861	0.135	675722	keystroke_s	s	n/a
337.936	0.12	675872	keystroke_Key.space	Key.space	n/a
338.146	0.09	676292	keystroke_c	c	n/a
338.341	0.09	676682	keystroke_a	a	n/a
338.476	0.105	676952	keystroke_n	n	n/a
338.626	0.075	677252	keystroke_d	d	n/a
338.851	0.06	677702	keystroke_y	y	n/a
338.986	0.105	677972	keystroke_Key.space	Key.space	n/a
339.256	0.09	678512	keystroke_p	p	n/a
339.347	0.074	678694	keystroke_r	r	n/a
339.466	0.09	678932	keystroke_o	o	n/a
339.781	0.075	679562	keystroke_v	v	n/a
339.901	0.075	679802	keystroke_e	e	n/a
340.636	0.06	681272	keystroke_n	n	n/a
340.936	0.06	681872	keystroke_Key.enter	Key.enter	n/a
341.0005	14.982	682001	prompt	n/a	stuffed instantly clearance dynamic\n
342.001	0.09	684002	keystroke_s	s	n/a
342.301	0.045	684602	keystroke_t	t	n/a
342.406	0.075	684812	keystroke_u	u	n/a
342.631	0.075	685262	keystroke_f	f	n/a
342.781	0.105	685562	keystroke_f	f	n/a
342.901	0.075	685802	keystroke_e	e	n/a
343.111	0.09	686222	keystroke_d	d	n/a
343.801	0.105	687602	keystroke_Key.space	Key.space	n/a
343.951	0.09	687902	keystroke_i	i	n/a
344.176	0.105	688352	keystroke_n	n	n/a
344.371	0.09	688742	keystroke_t	t	n/a
345.151	0.09	690302	keystroke_Key.backspace	Key.backspace	n/a
345.226	0.075	690452	keystroke_s	s	n/a
345.871	0.09	691742	keystroke_t	t	n/a
346.006	0.09	692012	keystroke_a	a	n/a
346.141	0.06	692282	keystroke_n	n	n/a
346.306	0.06	692612	keystroke_t	t	n/a
346.411	0.105	692822	keystroke_l	l	n/a
346.742	0.089	693484	keystroke_y	y	n/a
347.236	0.09	694472	keystroke_Key.space	Key.space	n/a
347.521	0.075	695042	keystroke_c	c	n/a
347.641	0.09	695282	keystroke_l	l	n/a
347.776	0.091	695552	keystroke_e	e	n/a
347.986	0.12	695972	keystroke_a	a	n/a
348.242	0.089	696484	keystroke_r	r	n/a
348.856	0.045	697712	keystroke_e	e	n/a
348.976	0.091	697952	keystroke_n	n	n/a
349.111	0.06	698222	keystroke_e	e	n/a
349.486	0.09	698972	keystroke_Key.backspace	Key.backspace	n/a
349.561	0.09	699122	keystroke_c	c	n/a
349.786	0.15	699572	keystroke_e	e	n/a
349.906	0.105	699812	keystroke_Key.space	Key.space	n/a
350.101	0.1045	700202	keystroke_d	d	n/a
350.311	0.0895	700622	keystroke_y	y	n/a
353.6735	0.001	707347	keystroke_n	n	n/a
353.7605	0.106	707521	keystroke_a	a	n/a
353.8805	0.09	707761	keystroke_m	m	n/a
355.1705	0.09	710341	keystroke_i	i	n/a
355.3055	0.106	710611	keystroke_c	c	n/a
355.9055	0.075	711811	keystroke_Key.enter	Key.enter	n/a
355.996	8.2515	711992	prompt	n/a	colony penguin nextel pike\n
356.7315	0.09	713463	keystroke_c	c	n/a
356.8215	0.09	713643	keystroke_o	o	n/a
357.0315	0.074	714063	keystroke_l	l	n/a
357.2115	0.075	714423	keystroke_o	o	n/a
357.4205	0.105	714841	keystroke_n	n	n/a
357.7365	0.075	715473	keystroke_y	y	n/a
357.8415	0.12	715683	keystroke_Key.space	Key.space	n/a
358.0055	0.091	716011	keystroke_p	p	n/a
358.1115	0.06	716223	keystroke_e	e	n/a
358.2465	0.105	716493	keystroke_n	n	n/a
358.8615	0.075	717723	keystroke_g	g	n/a
358.9665	0.075	717933	keystroke_u	u	n/a
359.1165	0.075	718233	keystroke_i	i	n/a
359.2965	0.09	718593	keystroke_n	n	n/a
360.0165	0.089	720033	keystroke_Key.space	Key.space	n/a
360.1515	0.075	720303	keystroke_n	n	n/a
360.2415	0.075	720483	keystroke_e	e	n/a
360.8115	0.075	721623	keystroke_x	x	n/a
360.9615	0.075	721923	keystroke_t	t	n/a
361.1115	0.06	722223	keystroke_e	e	n/a
361.3065	0.075	722613	keystroke_l	l	n/a
361.4565	0.089	722913	keystroke_Key.space	Key.space	n/a
361.7715	0.075	723543	keystroke_p	p	n/a
361.9215	0.06	723843	keystroke_r	r	n/a
362.0265	0.075	724053	keystroke_i	i	n/a
362.7015	0.06	725403	keystroke_Key.backspace	Key.backspace	n/a
362.8365	0.075	725673	keystroke_Key.backspace	Key.backspace	n/a
363.0315	0.075	726063	keystroke_i	i	n/a
363.1965	0.075	726393	keystroke_k	k	n/a
363.2865	0.06	726573	keystroke_e	e	n/a
364.1865	0.06	728373	keystroke_Key.enter	Key.enter	n/a
364.251	15.0265	728502	prompt	n/a	dies copyright informational nottingham\n
365.4465	0.09	730893	keystroke_d	d	n/a
365.5515	0.06	731103	keystroke_i	i	n/a
365.6715	0.09	731343	keystroke_e	e	n/a
365.8815	0.105	731763	keystroke_s	s	n/a
365.9715	0.09	731943	keystroke_Key.space	Key.space	n/a
366.2265	0.09	732453	keystroke_c	c	n/a
366.3465	0.105	732693	keystroke_o	o	n/a
366.9765	0.06	733953	keystroke_p	p	n/a
367.2765	0.075	734553	keystroke_y	y	n/a
367.6065	0.06	735213	keystroke_r	r	n/a
367.7115	0.09	735423	keystroke_o	o	n/a
367.8765	0.105	735753	keystroke_g	g	n/a
368.0415	0.075	736083	keystroke_h	h	n/a
368.4015	0.075	736803	keystroke_Key.backspace	Key.backspace	n/a
368.5365	0.075	737073	keystroke_Key.backspace	Key.backspace	n/a
368.6865	0.105	737373	keystroke_Key.backspace	Key.backspace	n/a
369.3315	0.045	738663	keystroke_i	i	n/a
369.4365	0.075	738873	keystroke_g	g	n/a
369.5415	0.105	739083	keystroke_h	h	n/a
369.6615	0.105	739323	keystroke_t	t	n/a
369.9765	0.09	739953	keystroke_Key.space	Key.space	n/a
370.1715	0.075	740343	keystroke_i	i	n/a
370.3665	0.1045	740733	keystroke_n	n	n/a
370.9815	0.0745	741963	keystroke_f	f	n/a
371.101	0.09	742202	keystroke_o	o	n/a
371.221	0.075	742442	keystroke_t	t	n/a
371.356	0.105	742712	keystroke_m	m	n/a
371.536	0.1355	743072	keystroke_a	a	n/a
371.956	0.06	743912	keystroke_Key.backspace	Key.backspace	n/a
372.106	0.075	744212	keystroke_Key.backspace	Key.backspace	n/a
372.286	0.09	744572	keystroke_Key.backspace	Key.backspace	n/a
372.466	0.075	744932	keystroke_r	r	n/a
373.021	0.075	746042	keystroke_m	m	n/a
373.096	0.105	746192	keystroke_a	a	n/a
373.396	0.06	746792	keystroke_t	t	n/a
373.486	0.06	746972	keystroke_i	i	n/a
373.621	0.09	747242	keystroke_o	o	n/a
373.801	0.105	747602	keystroke_n	n	n/a
373.921	0.09	747842	keystroke_a	a	n/a
374.086	0.105	748172	keystroke_l	l	n/a
374.281	0.105	748562	keystroke_Key.space	Key.space	n/a
374.701	0.09	749402	keystroke_n	n	n/a
374.896	0.075	749792	keystroke_o	o	n/a
375.151	0.075	750302	keystroke_t	t	n/a
375.331	0.075	750662	keystroke_t	t	n/a
375.616	0.105	751232	keystroke_i	i	n/a
376.336	0.075	752672	keystroke_n	n	n/a
377.3115	0.089	754623	keystroke_g	g	n/a
377.4755	0.075	754951	keystroke_a	a	n/a
377.7755	0.09	755551	keystroke_Key.backspace	Key.backspace	n/a
378.0315	0.074	756063	keystroke_h	h	n/a
378.1505	0.075	756301	keystroke_a	a	n/a
378.2865	0.075	756573	keystroke_m	m	n/a
379.2305	0.045	758461	keystroke_Key.enter	Key.enter	n/a
379.281	6.5365	758562	prompt	n/a	silicon roger traveler inner\n
380.296	0.06	760592	keystroke_s	s	n/a
380.386	0.09	760772	keystroke_i	i	n/a
380.596	0.12	761192	keystroke_l	l	n/a
380.836	0.075	761672	keystroke_i	i	n/a
380.956	0.09	761912	keystroke_c	c	n/a
381.076	0.09	762152	keystroke_o	o	n/a
381.271	0.09	762542	keystroke_n	n	n/a
381.391	0.09	762782	keystroke_Key.space	Key.space	n/a
381.766	0.075	763532	keystroke_r	r	n/a
381.871	0.075	763742	keystroke_o	o	n/a
382.111	0.06	764222	keystroke_g	g	n/a
382.201	0.075	764402	keystroke_e	e	n/a
382.381	0.12	764762	keystroke_r	r	n/a
382.471	0.12	764942	keystroke_Key.space	Key.space	n/a
383.221	0.06	766442	keystroke_t	t	n/a
383.371	0.091	766742	keystroke_r	r	n/a
383.536	0.105	767072	keystroke_a	a	n/a
383.686	0.09	767372	keystroke_v	v	n/a
383.836	0.06	767672	keystroke_e	e	n/a
383.971	0.105	767942	keystroke_l	l	n/a
384.091	0.09	768182	keystroke_e	e	n/a
384.436	0.135	768872	keystroke_r	r	n/a
384.556	0.09	769112	keystroke_Key.space	Key.space	n/a
384.871	0.06	769742	keystroke_i	i	n/a
385.036	0.075	770072	keystroke_n	n	n/a
385.186	0.09	770372	keystroke_n	n	n/a
385.261	0.09	770522	keystroke_e	e	n/a
385.426	0.105	770852	keystroke_r	r	n/a
385.741	0.075	771482	keystroke_Key.enter	Key.enter	n/a
385.8205	9.252	771641	prompt	n/a	bacteria central segments manuals\n
386.926	0.075	773852	keystroke_b	b	n/a
387.046	0.105	774092	keystroke_a	a	n/a
387.256	0.075	774512	keystroke_c	c	n/a
387.391	0.09	774782	keystroke_t	t	n/a
387.511	0.06	775022	keystroke_e	e	n/a
387.706	0.075	775412	keystroke_r	r	n/a
387.886	0.075	775772	keystroke_i	i	n/a
388.186	0.12	776372	keystroke_a	a	n/a
388.291	0.12	776582	keystroke_Key.space	Key.space	n/a
388.621	0.09	777242	keystroke_s	s	n/a
389.071	0.06	778142	keystroke_Key.backspace	Key.backspace	n/a
389.2955	0.09	778591	keystroke_c	c	n/a
390.0905	0.075	780181	keystroke_e	e	n/a
390.2705	0.09	780541	keystroke_n	n	n/a
390.3755	0.075	780751	keystroke_t	t	n/a
390.571	0.06	781142	keystroke_r	r	n/a
390.9155	0.0905	781831	keystroke_a	a	n/a
391.081	0.1195	782162	keystroke_l	l	n/a
391.1855	0.09	782371	keystroke_Key.space	Key.space	n/a
391.3955	0.1055	782791	keystroke_s	s	n/a
391.9205	0.06	783841	keystroke_e	e	n/a
392.0405	0.075	784081	keystroke_g	g	n/a
392.2655	0.105	784531	keystroke_m	m	n/a
392.3855	0.0905	784771	keystroke_e	e	n/a
392.4905	0.0905	784981	keystroke_n	n	n/a
392.7455	0.075	785491	keystroke_t	t	n/a
392.9405	0.135	785881	keystroke_s	s	n/a
393.0905	0.0905	786181	keystroke_Key.space	Key.space	n/a
393.8255	0.075	787651	keystroke_m	m	n/a
393.9305	0.105	787861	keystroke_a	a	n/a
394.0205	0.09	788041	keystroke_n	n	n/a
394.2005	0.09	788401	keystroke_u	u	n/a
394.3055	0.12	788611	keystroke_a	a	n/a
394.4705	0.09	788941	keystroke_l	l	n/a
394.6205	0.09	789241	keystroke_s	s	n/a
395.0255	0.045	790051	keystroke_Key.enter	Key.enter	n/a
395.076	10.8865	790152	prompt	n/a	leasing europe lawrence insight\n
396.1365	0.089	792273	keystroke_l	l	n/a
396.2555	0.075	792511	keystroke_e	e	n/a
396.4655	0.135	792931	keystroke_a	a	n/a
396.6155	0.075	793231	keystroke_s	s	n/a
396.8105	0.076	793621	keystroke_i	i	n/a
396.9755	0.09	793951	keystroke_n	n	n/a
397.1255	0.075	794251	keystroke_d	d	n/a
397.4555	0.075	794911	keystroke_Key.backspace	Key.backspace	n/a
397.5455	0.075	795091	keystroke_g	g	n/a
397.7405	0.09	795481	keystroke_Key.space	Key.space	n/a
397.9805	0.09	795961	keystroke_e	e	n/a
398.2655	0.105	796531	keystroke_u	u	n/a
398.4005	0.09	796801	keystroke_r	r	n/a
398.6405	0.075	797281	keystroke_o	o	n/a
399.1655	0.105	798331	keystroke_p	p	n/a
399.2855	0.105	798571	keystroke_e	e	n/a
399.3755	0.12	798751	keystroke_Key.space	Key.space	n/a
399.6005	0.09	799201	keystroke_l	l	n/a
399.7205	0.105	799441	keystroke_a	a	n/a
399.9605	0.09	799921	keystroke_w	w	n/a
400.2005	0.12	800401	keystroke_a	a	n/a
402.0755	0.075	804151	keystroke_Key.backspace	Key.backspace	n/a
402.3315	0.075	804663	keystroke_r	r	n/a
402.4655	0.091	804931	keystroke_e	e	n/a
402.6005	0.075	805201	keystroke_n	n	n/a
402.7805	0.106	805561	keystroke_c	c	n/a
403.1405	0.075	806281	keystroke_e	e	n/a
403.3505	0.105	806701	keystroke_Key.space	Key.space	n/a
403.6655	0.075	807331	keystroke_i	i	n/a
403.8155	0.105	807631	keystroke_n	n	n/a
403.8905	0.091	807781	keystroke_s	s	n/a
404.0865	0.089	808173	keystroke_i	i	n/a
405.1205	0.061	810241	keystroke_g	g	n/a
405.2405	0.076	810481	keystroke_h	h	n/a
405.3455	0.076	810691	keystroke_t	t	n/a
405.9015	0.06	811803	keystroke_Key.enter	Key.enter	n/a
405.9675	7.136	811935	prompt	n/a	nature pools harrison crest\n
406.7715	0.075	813543	keystroke_n	n	n/a
406.8765	0.089	813753	keystroke_a	a	n/a
407.1165	0.059	814233	keystroke_t	t	n/a
407.2065	0.09	814413	keystroke_u	u	n/a
407.4165	0.075	814833	keystroke_r	r	n/a
407.9865	0.105	815973	keystroke_e	e	n/a
408.1065	0.089	816213	keystroke_Key.space	Key.space	n/a
408.3315	0.105	816663	keystroke_p	p	n/a
408.5255	0.076	817051	keystroke_o	o	n/a
408.6765	0.09	817353	keystroke_o	o	n/a
408.9165	0.09	817833	keystroke_l	l	n/a
409.0365	0.12	818073	keystroke_s	s	n/a
409.1415	0.105	818283	keystroke_Key.space	Key.space	n/a
409.5315	0.075	819063	keystroke_h	h	n/a
409.5915	0.105	819183	keystroke_a	a	n/a
409.8165	0.045	819633	keystroke_r	r	n/a
409.9515	0.09	819903	keystroke_r	r	n/a
410.0865	0.09	820173	keystroke_i	i	n/a
410.2215	0.105	820443	keystroke_s	s	n/a
410.3565	0.09	820713	keystroke_o	o	n/a
410.5665	0.09	821133	keystroke_n	n	n/a
410.6865	0.09	821373	keystroke_Key.space	Key.space	n/a
410.9565	0.06	821913	keystroke_v	v	n/a
411.5115	0.06	823023	keystroke_Key.backspace	Key.backspace	n/a
411.5565	0.03	823113	keystroke_c	c	n/a
411.7665	0.09	823533	keystroke_r	r	n/a
411.9615	0.075	823923	keystroke_e	e	n/a
412.1715	0.105	824343	keystroke_s	s	n/a
412.3215	0.075	824643	keystroke_t	t	n/a
413.0115	0.09	826023	keystroke_Key.enter	Key.enter	n/a
413.109	9.9385	826218	prompt	n/a	knight interim journey promised\n
414.0165	0.06	828033	keystroke_k	k	n/a
414.1515	0.09	828303	keystroke_n	n	n/a
414.3165	0.075	828633	keystroke_i	i	n/a
414.6615	0.045	829323	keystroke_g	g	n/a
414.7665	0.075	829533	keystroke_h	h	n/a
414.8865	0.135	829773	keystroke_t	t	n/a
415.0665	0.075	830133	keystroke_Key.space	Key.space	n/a
415.3515	0.075	830703	keystroke_i	i	n/a
415.5315	0.09	831063	keystroke_n	n	n/a
415.8015	0.075	831603	keystroke_t	t	n/a
415.9065	0.09	831813	keystroke_e	e	n/a
416.1315	0.105	832263	keystroke_r	r	n/a
416.4015	0.075	832803	keystroke_n	n	n/a
416.761	0.09	833522	keystroke_Key.backspace	Key.backspace	n/a
418.021	0.045	836042	keystroke_i	i	n/a
418.201	0.09	836402	keystroke_m	m	n/a
418.936	0.075	837872	keystroke_Key.space	Key.space	n/a
419.131	0.09	838262	keystroke_j	j	n/a
419.311	0.105	838622	keystroke_o	o	n/a
419.911	0.075	839822	keystroke_u	u	n/a
420.046	0.075	840092	keystroke_r	r	n/a
420.136	0.12	840272	keystroke_n	n	n/a
420.271	0.075	840542	keystroke_e	e	n/a
420.451	0.09	840902	keystroke_y	y	n/a
421.201	0.105	842402	keystroke_Key.space	Key.space	n/a
421.321	0.09	842642	keystroke_p	p	n/a
421.531	0.075	843062	keystroke_r	r	n/a
421.696	0.06	843392	keystroke_o	o	n/a
421.906	0.09	843812	keystroke_m	m	n/a
422.101	0.075	844202	keystroke_i	i	n/a
422.206	0.075	844412	keystroke_s	s	n/a
422.506	0.075	845012	keystroke_e	e	n/a
422.746	0.0605	845492	keystroke_d	d	n/a
422.986	0.06	845972	keystroke_Key.enter	Key.enter	n/a
423.0505	14.7275	846101	prompt	n/a	reveals wisdom fishing concentrate\n
424.066	0.06	848132	keystroke_r	r	n/a
424.141	0.09	848282	keystroke_e	e	n/a
424.246	0.09	848492	keystroke_v	v	n/a
424.396	0.09	848792	keystroke_e	e	n/a
424.696	0.09	849392	keystroke_a	a	n/a
424.816	0.075	849632	keystroke_l	l	n/a
425.086	0.12	850172	keystroke_s	s	n/a
425.176	0.12	850352	keystroke_Key.space	Key.space	n/a
425.686	0.075	851372	keystroke_w	w	n/a
425.821	0.09	851642	keystroke_i	i	n/a
426.436	0.075	852872	keystroke_d	d	n/a
427.291	0.09	854582	keystroke_Key.backspace	Key.backspace	n/a
427.351	0.105	854702	keystroke_s	s	n/a
427.561	0.075	855122	keystroke_o	o	n/a
427.621	0.105	855242	keystroke_d	d	n/a
428.101	0.06	856202	keystroke_Key.backspace	Key.backspace	n/a
428.251	0.09	856502	keystroke_Key.backspace	Key.backspace	n/a
428.371	0.09	856742	keystroke_d	d	n/a
428.491	0.09	856982	keystroke_o	o	n/a
429.076	0.06	858152	keystroke_m	m	n/a
429.286	0.09	858572	keystroke_Key.space	Key.space	n/a
429.931	0.06	859862	keystroke_f	f	n/a
430.021	0.075	860042	keystroke_i	i	n/a
430.156	0.105	860312	keystroke_n	n	n/a
430.861	0.075	861722	keystroke_Key.backspace	Key.backspace	n/a
430.981	0.075	861962	keystroke_s	s	n/a
431.131	0.105	862262	keystroke_h	h	n/a
431.371	0.105	862742	keystroke_i	i	n/a
431.581	0.105	863162	keystroke_n	n	n/a
432.121	0.09	864242	keystroke_g	g	n/a
432.271	0.105	864542	keystroke_Key.space	Key.space	n/a
432.556	0.105	865112	keystroke_c	c	n/a
432.676	0.075	865352	keystroke_o	o	n/a
432.871	0.09	865742	keystroke_n	n	n/a
433.531	0.105	867062	keystroke_c	c	n/a
433.651	0.06	867302	keystroke_e	e	n/a
433.801	0.06	867602	keystroke_n	n	n/a
434.626	0.045	869252	keystroke_t	t	n/a
435.376	0.09	870752	keystroke_r	r	n/a
435.511	0.12	871022	keystroke_a	a	n/a
435.616	0.105	871232	keystroke_t	t	n/a
435.781	0.075	871562	keystroke_e	e	n/a
435.871	0.105	871742	keystroke_t	t	n/a
437.011	0.075	874022	keystroke_Key.backspace	Key.backspace	n/a
437.716	0.06	875432	keystroke_Key.enter	Key.enter	n/a
437.7805	8.802	875561	prompt	n/a	consortium radar nested planner\n
438.6905	0.06	877381	keystroke_c	c	n/a
438.7955	0.105	877591	keystroke_o	o	n/a
439.0055	0.09	878011	keystroke_n	n	n/a
439.0515	0.0895	878103	keystroke_s	s	n/a
439.411	0.105	878822	keystroke_r	r	n/a
440.0405	0.075	880081	keystroke_Key.backspace	Key.backspace	n/a
440.1765	0.119	880353	keystroke_o	o	n/a
440.2805	0.09	880561	keystroke_r	r	n/a
440.5505	0.075	881101	keystroke_t	t	n/a
441.4515	0.075	882903	keystroke_i	i	n/a
441.6015	0.089	883203	keystroke_u	u	n/a
441.8405	0.09	883681	keystroke_m	m	n/a
441.9755	0.105	883951	keystroke_Key.space	Key.space	n/a
442.4705	0.06	884941	keystroke_r	r	n/a
442.5765	0.089	885153	keystroke_a	a	n/a
442.6515	0.104	885303	keystroke_d	d	n/a
442.7855	0.135	885571	keystroke_a	a	n/a
443.2205	0.09	886441	keystroke_r	r	n/a
443.4155	0.09	886831	keystroke_Key.space	Key.space	n/a
444.2855	0.045	888571	keystroke_n	n	n/a
444.3455	0.045	888691	keystroke_e	e	n/a
444.5105	0.105	889021	keystroke_s	s	n/a
444.6015	0.089	889203	keystroke_t	t	n/a
444.7515	0.075	889503	keystroke_e	e	n/a
444.9605	0.091	889921	keystroke_d	d	n/a
445.0355	0.12	890071	keystroke_Key.space	Key.space	n/a
445.3055	0.06	890611	keystroke_p	p	n/a
445.5155	0.075	891031	keystroke_l	l	n/a
445.6355	0.12	891271	keystroke_a	a	n/a
445.8015	0.074	891603	keystroke_n	n	n/a
445.9515	0.105	891903	keystroke_n	n	n/a
446.0715	0.06	892143	keystroke_e	e	n/a
446.2355	0.075	892471	keystroke_r	r	n/a
446.5205	0.06	893041	keystroke_Key.enter	Key.enter	n/a
446.5855	8.097	893171	prompt	n/a	nose discount arise anxiety\n
447.5715	0.075	895143	keystroke_n	n	n/a
447.7215	0.105	895443	keystroke_o	o	n/a
447.8105	0.091	895621	keystroke_s	s	n/a
448.0515	0.134	896103	keystroke_e	e	n/a
448.1555	0.105	896311	keystroke_Key.space	Key.space	n/a
448.8765	0.075	897753	keystroke_d	d	n/a
448.9805	0.091	897961	keystroke_i	i	n/a
449.0865	0.075	898173	keystroke_s	s	n/a
449.2965	0.09	898593	keystroke_c	c	n/a
449.4015	0.105	898803	keystroke_o	o	n/a
449.6265	0.075	899253	keystroke_u	u	n/a
449.8355	0.105	899671	keystroke_n	n	n/a
450.4215	0.105	900843	keystroke_t	t	n/a
450.5705	0.091	901141	keystroke_Key.space	Key.space	n/a
450.8405	0.091	901681	keystroke_a	a	n/a
451.0665	0.075	902133	keystroke_r	r	n/a
451.1865	0.09	902373	keystroke_i	i	n/a
451.3355	0.105	902671	keystroke_s	s	n/a
451.5465	0.18	903093	keystroke_e	e	n/a
451.7115	0.09	903423	keystroke_Key.space	Key.space	n/a
451.9815	0.105	903963	keystroke_a	a	n/a
452.1465	0.105	904293	keystroke_n	n	n/a
452.8365	0.06	905673	keystroke_x	x	n/a
452.9265	0.09	905853	keystroke_i	i	n/a
453.1665	0.09	906333	keystroke_e	e	n/a
453.7365	0.06	907473	keystroke_t	t	n/a
453.8565	0.105	907713	keystroke_y	y	n/a
454.6515	0.03	909303	keystroke_Key.enter	Key.enter	n/a
454.6865	11.3665	909373	prompt	n/a	thoroughly religion honor arrival\n
455.671	0.045	911342	keystroke_t	t	n/a
455.717	0.074	911434	keystroke_h	h	n/a
455.911	0.09	911822	keystroke_o	o	n/a
456.751	0.045	913502	keystroke_r	r	n/a
456.841	0.09	913682	keystroke_o	o	n/a
457.066	0.105	914132	keystroke_u	u	n/a
458.386	0.06	916772	keystroke_g	g	n/a
458.476	0.09	916952	keystroke_h	h	n/a
458.701	0.105	917402	keystroke_l	l	n/a
458.971	0.09	917942	keystroke_y	y	n/a
459.091	0.09	918182	keystroke_Key.space	Key.space	n/a
459.496	0.06	918992	keystroke_t	t	n/a
459.676	0.06	919352	keystroke_r	r	n/a
459.796	0.09	919592	keystroke_l	l	n/a
460.246	0.075	920492	keystroke_Key.backspace	Key.backspace	n/a
460.396	0.075	920792	keystroke_Key.backspace	Key.backspace	n/a
460.561	0.075	921122	keystroke_Key.backspace	Key.backspace	n/a
460.771	0.135	921542	keystroke_r	r	n/a
460.891	0.09	921782	keystroke_e	e	n/a
460.996	0.09	921992	keystroke_l	l	n/a
461.251	0.09	922502	keystroke_i	i	n/a
461.746	0.075	923492	keystroke_g	g	n/a
461.806	0.09	923612	keystroke_i	i	n/a
461.956	0.09	923912	keystroke_o	o	n/a
462.136	0.105	924272	keystroke_n	n	n/a
462.271	0.105	924542	keystroke_Key.space	Key.space	n/a
462.511	0.075	925022	keystroke_h	h	n/a
462.661	0.105	925322	keystroke_o	o	n/a
462.826	0.105	925652	keystroke_n	n	n/a
463.006	0.09	926012	keystroke_o	o	n/a
463.126	0.151	926252	keystroke_r	r	n/a
463.261	0.09	926522	keystroke_Key.space	Key.space	n/a
463.516	0.09	927032	keystroke_a	a	n/a
463.786	0.06	927572	keystroke_r	r	n/a
463.921	0.09	927842	keystroke_r	r	n/a
464.026	0.09	928052	keystroke_i	i	n/a
464.221	0.09	928442	keystroke_v	v	n/a
464.461	0.09	928922	keystroke_l	l	n/a
464.626	0.075	929252	keystroke_a	a	n/a
465.031	0.06	930062	keystroke_Key.backspace	Key.backspace	n/a
465.166	0.09	930332	keystroke_Key.backspace	Key.backspace	n/a
465.286	0.105	930572	keystroke_a	a	n/a
465.377	0.075	930754	keystroke_l	l	n/a
465.991	0.06	931982	keystroke_Key.enter	Key.enter	n/a
466.056	8.892	932112	prompt	n/a	festivals reduces modular lexington\n
467.102	0.075	934204	keystroke_f	f	n/a
467.252	0.089	934504	keystroke_e	e	n/a
467.461	0.105	934922	keystroke_s	s	n/a
467.731	0.0595	935462	keystroke_t	t	n/a
467.8055	0.075	935611	keystroke_i	i	n/a
468.0015	0.075	936003	keystroke_v	v	n/a
468.1055	0.075	936211	keystroke_a	a	n/a
468.2405	0.09	936481	keystroke_l	l	n/a
468.4215	0.134	936843	keystroke_s	s	n/a
468.5705	0.0905	937141	keystroke_Key.space	Key.space	n/a
468.7655	0.075	937531	keystroke_r	r	n/a
468.916	0.1055	937832	keystroke_e	e	n/a
469.1105	0.105	938221	keystroke_d	d	n/a
469.2315	0.089	938463	keystroke_u	u	n/a
469.4565	0.074	938913	keystroke_c	c	n/a
469.6805	0.075	939361	keystroke_e	e	n/a
469.8905	0.136	939781	keystroke_s	s	n/a
470.0105	0.09	940021	keystroke_Key.space	Key.space	n/a
470.2515	0.089	940503	keystroke_m	m	n/a
470.4305	0.075	940861	keystroke_o	o	n/a
470.7155	0.09	941431	keystroke_d	d	n/a
470.8655	0.076	941731	keystroke_u	u	n/a
471.121	0.105	942242	keystroke_l	l	n/a
471.241	0.12	942482	keystroke_a	a	n/a
471.451	0.135	942902	keystroke_r	r	n/a
471.556	0.105	943112	keystroke_Key.space	Key.space	n/a
471.721	0.105	943442	keystroke_l	l	n/a
471.841	0.09	943682	keystroke_e	e	n/a
472.366	0.075	944732	keystroke_x	x	n/a
472.486	0.075	944972	keystroke_i	i	n/a
472.741	0.09	945482	keystroke_n	n	n/a
472.891	0.075	945782	keystroke_g	g	n/a
473.836	0.06	947672	keystroke_t	t	n/a
473.926	0.075	947852	keystroke_o	o	n/a
474.106	0.075	948212	keystroke_n	n	n/a
474.901	0.045	949802	keystroke_Key.enter	Key.enter	n/a
474.952	8.6805	949904	prompt	n/a	younger stripes anywhere derived\n
475.831	0.075	951662	keystroke_y	y	n/a
476.011	0.105	952022	keystroke_o	o	n/a
476.206	0.075	952412	keystroke_u	u	n/a
476.401	0.105	952802	keystroke_n	n	n/a
476.641	0.09	953282	keystroke_g	g	n/a
476.746	0.075	953492	keystroke_e	e	n/a
476.926	0.09	953852	keystroke_r	r	n/a
476.986	0.09	953972	keystroke_Key.space	Key.space	n/a
477.256	0.12	954512	keystroke_s	s	n/a
477.511	0.06	955022	keystroke_t	t	n/a
477.586	0.075	955172	keystroke_r	r	n/a
477.946	0.06	955892	keystroke_i	i	n/a
478.141	0.09	956282	keystroke_p	p	n/a
478.246	0.075	956492	keystroke_e	e	n/a
478.456	0.09	956912	keystroke_s	s	n/a
478.516	0.09	957032	keystroke_Key.space	Key.space	n/a
478.681	0.105	957362	keystroke_a	a	n/a
478.771	0.09	957542	keystroke_n	n	n/a
479.011	0.075	958022	keystroke_y	y	n/a
479.221	0.09	958442	keystroke_h	h	n/a
479.551	0.06	959102	keystroke_Key.backspace	Key.backspace	n/a
479.626	0.075	959252	keystroke_w	w	n/a
480.031	0.06	960062	keystroke_e	e	n/a
480.346	0.06	960692	keystroke_Key.backspace	Key.backspace	n/a
480.556	0.09	961112	keystroke_h	h	n/a
480.616	0.075	961232	keystroke_e	e	n/a
480.781	0.075	961562	keystroke_r	r	n/a
480.961	0.12	961922	keystroke_e	e	n/a
481.096	0.09	962192	keystroke_Key.space	Key.space	n/a
481.486	0.105	962972	keystroke_d	d	n/a
481.696	0.12	963392	keystroke_e	e	n/a
481.981	0.075	963962	keystroke_i	i	n/a
482.311	0.09	964622	keystroke_Key.backspace	Key.backspace	n/a
482.386	0.06	964772	keystroke_r	r	n/a
482.506	0.105	965012	keystroke_i	i	n/a
483.031	0.075	966062	keystroke_v	v	n/a
483.121	0.09	966242	keystroke_e	e	n/a
483.301	0.09	966602	keystroke_d	d	n/a
483.571	0.06	967142	keystroke_Key.enter	Key.enter	n/a
483.6355	9.6875	967271	prompt	n/a	month haiti ecuador recommendations\n
484.606	0.075	969212	keystroke_m	m	n/a
484.801	0.09	969602	keystroke_o	o	n/a
485.146	0.075	970292	keystroke_n	n	n/a
485.311	0.045	970622	keystroke_t	t	n/a
485.536	0.075	971072	keystroke_h	h	n/a
485.671	0.12	971342	keystroke_Key.space	Key.space	n/a
486.046	0.075	972092	keystroke_h	h	n/a
486.136	0.09	972272	keystroke_a	a	n/a
486.241	0.105	972482	keystroke_i	i	n/a
486.422	0.074	972844	keystroke_t	t	n/a
487.051	0.075	974102	keystroke_y	y	n/a
487.411	0.075	974822	keystroke_Key.backspace	Key.backspace	n/a
487.591	0.09	975182	keystroke_i	i	n/a
487.696	0.105	975392	keystroke_Key.space	Key.space	n/a
488.116	0.09	976232	keystroke_e	e	n/a
488.356	0.09	976712	keystroke_c	c	n/a
488.461	0.105	976922	keystroke_u	u	n/a
488.567	0.119	977134	keystroke_a	a	n/a
488.731	0.105	977462	keystroke_d	d	n/a
489.211	0.075	978422	keystroke_o	o	n/a
489.301	0.135	978602	keystroke_r	r	n/a
489.437	0.089	978874	keystroke_Key.space	Key.space	n/a
489.676	0.075	979352	keystroke_r	r	n/a
489.856	0.075	979712	keystroke_e	e	n/a
490.0355	0.0905	980071	keystroke_m	m	n/a
490.5455	0.0605	981091	keystroke_Key.backspace	Key.backspace	n/a
490.6355	0.0905	981271	keystroke_c	c	n/a
490.741	0.0895	981482	keystroke_o	o	n/a
490.9655	0.106	981931	keystroke_m	m	n/a
491.1605	0.09	982321	keystroke_m	m	n/a
491.2665	0.09	982533	keystroke_e	e	n/a
491.4605	0.075	982921	keystroke_n	n	n/a
491.5965	0.105	983193	keystroke_d	d	n/a
491.7905	0.076	983581	keystroke_a	a	n/a
492.0465	0.059	984093	keystroke_t	t	n/a
492.1355	0.09	984271	keystroke_i	i	n/a
492.3165	0.089	984633	keystroke_o	o	n/a
492.4805	0.105	984961	keystroke_n	n	n/a
492.6005	0.075	985201	keystroke_s	s	n/a
493.2465	0.075	986493	keystroke_Key.enter	Key.enter	n/a
493.3265	11.0815	986653	prompt	n/a	advantages edge wholesale tight\n
494.2065	0.09	988413	keystroke_a	a	n/a
494.4165	0.075	988833	keystroke_d	d	n/a
494.5505	0.06	989101	keystroke_g	g	n/a
494.8655	0.075	989731	keystroke_Key.backspace	Key.backspace	n/a
495.0015	0.059	990003	keystroke_v	v	n/a
495.2715	0.089	990543	keystroke_a	a	n/a
495.4055	0.075	990811	keystroke_n	n	n/a
495.7965	0.09	991593	keystroke_t	t	n/a
496.4265	0.09	992853	keystroke_a	a	n/a
496.7715	0.075	993543	keystroke_g	g	n/a
496.8615	0.089	993723	keystroke_e	e	n/a
497.0865	0.12	994173	keystroke_s	s	n/a
497.1765	0.104	994353	keystroke_Key.space	Key.space	n/a
497.6115	0.09	995223	keystroke_a	a	n/a
497.8215	0.075	995643	keystroke_d	d	n/a
498.0315	0.09	996063	keystroke_g	g	n/a
498.1365	0.105	996273	keystroke_e	e	n/a
498.2555	0.106	996511	keystroke_Key.space	Key.space	n/a
498.9315	0.075	997863	keystroke_w	w	n/a
499.0365	0.09	998073	keystroke_h	h	n/a
499.2315	0.075	998463	keystroke_o	o	n/a
499.4415	0.075	998883	keystroke_l	l	n/a
499.5315	0.075	999063	keystroke_e	e	n/a
501.0615	0.105	1002123	keystroke_s	s	n/a
501.2565	0.105	1002513	keystroke_a	a	n/a
501.4215	0.09	1002843	keystroke_l	l	n/a
501.5415	0.12	1003083	keystroke_e	e	n/a
501.6465	0.105	1003293	keystroke_Key.space	Key.space	n/a
501.9165	0.09	1003833	keystroke_t	t	n/a
502.0365	0.075	1004073	keystroke_o	o	n/a
502.8615	0.075	1005723	keystroke_Key.backspace	Key.backspace	n/a
503.0415	0.09	1006083	keystroke_i	i	n/a
503.1465	0.075	1006293	keystroke_g	g	n/a
503.2965	0.105	1006593	keystroke_h	h	n/a
503.4615	0.075	1006923	keystroke_t	t	n/a
504.3465	0.06	1008693	keystroke_Key.enter	Key.enter	n/a
504.411	5.997	1008822	prompt	n/a	half plate kirk economies\n
505.2915	0.09	1010583	keystroke_h	h	n/a
505.3965	0.105	1010793	keystroke_a	a	n/a
505.5315	0.105	1011063	keystroke_l	l	n/a
505.7715	0.12	1011543	keystroke_f	f	n/a
505.9065	0.105	1011813	keystroke_Key.space	Key.space	n/a
506.2215	0.06	1012443	keystroke_p	p	n/a
506.3565	0.105	1012713	keystroke_l	l	n/a
506.5065	0.12	1013013	keystroke_a	a	n/a
506.6865	0.075	1013373	keystroke_t	t	n/a
506.8065	0.165	1013613	keystroke_e	e	n/a
506.9415	0.12	1013883	keystroke_Key.space	Key.space	n/a
507.4515	0.075	1014903	keystroke_k	k	n/a
507.6165	0.075	1015233	keystroke_i	i	n/a
507.7515	0.075	1015503	keystroke_r	r	n/a
507.9315	0.09	1015863	keystroke_k	k	n/a
508.0815	0.075	1016163	keystroke_Key.space	Key.space	n/a
508.5915	0.06	1017183	keystroke_e	e	n/a
508.801	0.09	1017602	keystroke_c	c	n/a
508.906	0.09	1017812	keystroke_o	o	n/a
509.116	0.09	1018232	keystroke_n	n	n/a
509.326	0.105	1018652	keystroke_o	o	n/a
509.521	0.105	1019042	keystroke_m	m	n/a
509.717	0.075	1019434	keystroke_i	i	n/a
509.851	0.075	1019702	keystroke_e	e	n/a
510.061	0.075	1020122	keystroke_s	s	n/a
510.346	0.06	1020692	keystroke_Key.enter	Key.enter	n/a
510.413	7.435	1020826	prompt	n/a	launches diploma ethernet market\n
511.201	0.105	1022402	keystroke_l	l	n/a
511.291	0.105	1022582	keystroke_a	a	n/a
511.471	0.075	1022942	keystroke_u	u	n/a
511.667	0.104	1023334	keystroke_n	n	n/a
511.801	0.09	1023602	keystroke_c	c	n/a
511.966	0.076	1023932	keystroke_h	h	n/a
512.086	0.075	1024172	keystroke_e	e	n/a
512.311	0.09	1024622	keystroke_s	s	n/a
512.386	0.075	1024772	keystroke_Key.space	Key.space	n/a
512.551	0.105	1025102	keystroke_d	d	n/a
512.672	0.089	1025344	keystroke_i	i	n/a
512.911	0.075	1025822	keystroke_p	p	n/a
513.061	0.106	1026122	keystroke_l	l	n/a
513.271	0.075	1026542	keystroke_o	o	n/a
513.496	0.075	1026992	keystroke_m	m	n/a
513.617	0.134	1027234	keystroke_a	a	n/a
513.736	0.075	1027472	keystroke_Key.space	Key.space	n/a
513.901	0.0895	1027802	keystroke_e	e	n/a
514.4255	0.046	1028851	keystroke_t	t	n/a
514.516	0.0895	1029032	keystroke_h	h	n/a
514.666	0.1345	1029332	keystroke_e	e	n/a
514.9665	0.089	1029933	keystroke_r	r	n/a
515.3855	0.075	1030771	keystroke_n	n	n/a
515.6255	0.061	1031251	keystroke_e	e	n/a
515.7465	0.104	1031493	keystroke_t	t	n/a
515.8805	0.105	1031761	keystroke_Key.space	Key.space	n/a
516.1055	0.075	1032211	keystroke_m	m	n/a
516.1815	0.105	1032363	keystroke_a	a	n/a
516.3915	0.075	1032783	keystroke_r	r	n/a
516.5865	0.104	1033173	keystroke_k	k	n/a
516.8415	0.104	1033683	keystroke_e	e	n/a
517.1865	0.075	1034373	keystroke_t	t	n/a
517.7855	0.06	1035571	keystroke_Key.enter	Key.enter	n/a
517.851	13.2415	1035702	prompt	n/a	distinguished spokesman gmbh might\n
518.8055	0.076	1037611	keystroke_d	d	n/a
518.9115	0.105	1037823	keystroke_i	i	n/a
519.0615	0.06	1038123	keystroke_s	s	n/a
519.3455	0.076	1038691	keystroke_t	t	n/a
519.5115	0.059	1039023	keystroke_i	i	n/a
519.6755	0.106	1039351	keystroke_n	n	n/a
519.8565	0.06	1039713	keystroke_g	g	n/a
520.0815	0.075	1040163	keystroke_u	u	n/a
520.2765	0.075	1040553	keystroke_i	i	n/a
521.9715	0.075	1043943	keystroke_s	s	n/a
522.6615	0.075	1045323	keystroke_h	h	n/a
522.7515	0.09	1045503	keystroke_e	e	n/a
522.9765	0.12	1045953	keystroke_d	d	n/a
523.0665	0.12	1046133	keystroke_Key.space	Key.space	n/a
523.4265	0.105	1046853	keystroke_s	s	n/a
523.6065	0.03	1047213	keystroke_o	o	n/a
524.0415	0.045	1048083	keystroke_Key.backspace	Key.backspace	n/a
524.2215	0.075	1048443	keystroke_p	p	n/a
524.4165	0.075	1048833	keystroke_o	o	n/a
524.5965	0.12	1049193	keystroke_k	k	n/a
524.7315	0.075	1049463	keystroke_e	e	n/a
524.9565	0.105	1049913	keystroke_s	s	n/a
525.0915	0.105	1050183	keystroke_m	m	n/a
525.2265	0.105	1050453	keystroke_a	a	n/a
525.4065	0.09	1050813	keystroke_n	n	n/a
525.5265	0.105	1051053	keystroke_Key.space	Key.space	n/a
526.0815	0.075	1052163	keystroke_g	g	n/a
526.3365	0.09	1052673	keystroke_m	m	n/a
528.166	0.075	1056332	keystroke_b	b	n/a
528.316	0.105	1056632	keystroke_h	h	n/a
528.526	0.105	1057052	keystroke_Key.space	Key.space	n/a
528.796	0.09	1057592	keystroke_m	m	n/a
529.051	0.075	1058102	keystroke_u	u	n/a
529.711	0.015	1059422	keystroke_Key.backspace	Key.backspace	n/a
529.906	0.075	1059812	keystroke_i	i	n/a
530.056	0.06	1060112	keystroke_g	g	n/a
530.146	0.09	1060292	keystroke_h	h	n/a
530.266	0.075	1060532	keystroke_t	t	n/a
531.016	0.075	1062032	keystroke_Key.enter	Key.enter	n/a
531.096	10.3165	1062192	prompt	n/a	chancellor instructional locked labeled\n
531.991	0.075	1063982	keystroke_c	c	n/a
532.096	0.09	1064192	keystroke_h	h	n/a
532.231	0.09	1064462	keystroke_a	a	n/a
532.306	0.09	1064612	keystroke_n	n	n/a
532.501	0.075	1065002	keystroke_c	c	n/a
532.726	0.075	1065452	keystroke_e	e	n/a
532.861	0.09	1065722	keystroke_l	l	n/a
533.056	0.09	1066112	keystroke_l	l	n/a
533.251	0.09	1066502	keystroke_o	o	n/a
533.341	0.165	1066682	keystroke_r	r	n/a
533.491	0.075	1066982	keystroke_Key.space	Key.space	n/a
534.286	0.06	1068572	keystroke_i	i	n/a
534.451	0.105	1068902	keystroke_n	n	n/a
534.571	0.09	1069142	keystroke_s	s	n/a
534.871	0.03	1069742	keystroke_t	t	n/a
535.021	0.06	1070042	keystroke_t	t	n/a
535.171	0.075	1070342	keystroke_u	u	n/a
535.681	0.03	1071362	keystroke_=	=	n/a
535.846	0.06	1071692	keystroke_Key.backspace	Key.backspace	n/a
535.996	0.06	1071992	keystroke_Key.backspace	Key.backspace	n/a
536.131	0.135	1072262	keystroke_Key.backspace	Key.backspace	n/a
536.251	0.06	1072502	keystroke_r	r	n/a
537.076	0.075	1074152	keystroke_u	u	n/a
537.181	0.075	1074362	keystroke_c	c	n/a
537.421	0.075	1074842	keystroke_t	t	n/a
537.541	0.06	1075082	keystroke_i	i	n/a
537.691	0.06	1075382	keystroke_o	o	n/a
537.841	0.105	1075682	keystroke_n	n	n/a
537.961	0.09	1075922	keystroke_a	a	n/a
538.111	0.09	1076222	keystroke_l	l	n/a
538.261	0.105	1076522	keystroke_Key.space	Key.space	n/a
538.471	0.075	1076942	keystroke_l	l	n/a
538.636	0.075	1077272	keystroke_o	o	n/a
538.831	0.09	1077662	keystroke_c	c	n/a
538.951	0.09	1077902	keystroke_k	k	n/a
539.0865	0.0895	1078173	keystroke_e	e	n/a
539.341	0.12	1078682	keystroke_d	d	n/a
539.431	0.105	1078862	keystroke_Key.space	Key.space	n/a
539.866	0.075	1079732	keystroke_l	l	n/a
539.956	0.105	1079912	keystroke_a	a	n/a
540.151	0.075	1080302	keystroke_b	b	n/a
540.256	0.09	1080512	keystroke_e	e	n/a
540.451	0.075	1080902	keystroke_l	l	n/a
540.556	0.075	1081112	keystroke_e	e	n/a
540.796	0.09	1081592	keystroke_d	d	n/a
541.366	0.045	1082732	keystroke_Key.enter	Key.enter	n/a
541.417	12.4755	1082834	prompt	n/a	we'd've essay he'd offshore\n
542.431	0.165	1084862	keystroke_w	w	n/a
542.611	0.0905	1085222	keystroke_e	e	n/a
544.1415	0.06	1088283	keystroke_'	'	n/a
544.4715	0.1045	1088943	keystroke_d	d	n/a
545.116	0.075	1090232	keystroke_'	'	n/a
545.416	0.12	1090832	keystroke_v	v	n/a
545.776	0.06	1091552	keystroke_e	e	n/a
546.481	0.105	1092962	keystroke_Key.space	Key.space	n/a
546.601	0.09	1093202	keystroke_e	e	n/a
546.826	0.075	1093652	keystroke_s	s	n/a
546.976	0.09	1093952	keystroke_s	s	n/a
547.096	0.135	1094192	keystroke_a	a	n/a
547.291	0.09	1094582	keystroke_y	y	n/a
547.441	0.105	1094882	keystroke_Key.space	Key.space	n/a
547.651	0.105	1095302	keystroke_h	h	n/a
547.741	0.075	1095482	keystroke_e	e	n/a
548.281	0.06	1096562	keystroke_'	'	n/a
548.476	0.105	1096952	keystroke_d	d	n/a
549.316	0.075	1098632	keystroke_Key.space	Key.space	n/a
549.511	0.06	1099022	keystroke_p	p	n/a
549.961	0.06	1099922	keystroke_f	f	n/a
550.111	0.075	1100222	keystroke_f	f	n/a
550.381	0.06	1100762	keystroke_Key.backspace	Key.backspace	n/a
550.531	0.075	1101062	keystroke_Key.backspace	Key.backspace	n/a
550.681	0.09	1101362	keystroke_Key.backspace	Key.backspace	n/a
550.876	0.03	1101752	keystroke_o	o	n/a
550.891	0.03	1101782	keystroke_p	p	n/a
550.936	0.06	1101872	keystroke_f	f	n/a
551.221	0.06	1102442	keystroke_Key.backspace	Key.backspace	n/a
551.476	0.09	1102952	keystroke_Key.backspace	Key.backspace	n/a
551.641	0.075	1103282	keystroke_f	f	n/a
551.806	0.09	1103612	keystroke_f	f	n/a
552.286	0.075	1104572	keystroke_s	s	n/a
552.481	0.09	1104962	keystroke_h	h	n/a
552.661	0.09	1105322	keystroke_o	o	n/a
552.856	0.075	1105712	keystroke_p	p	n/a
553.156	0.09	1106312	keystroke_Key.backspace	Key.backspace	n/a
553.216	0.135	1106432	keystroke_r	r	n/a
553.336	0.09	1106672	keystroke_e	e	n/a
553.831	0.06	1107662	keystroke_Key.enter	Key.enter	n/a
553.8955	7.032	1107791	prompt	n/a	minimal pontiac bill seekers\n
554.686	0.06	1109372	keystroke_m	m	n/a
554.821	0.075	1109642	keystroke_i	i	n/a
554.971	0.09	1109942	keystroke_n	n	n/a
555.121	0.075	1110242	keystroke_i	i	n/a
555.301	0.09	1110602	keystroke_m	m	n/a
555.406	0.105	1110812	keystroke_a	a	n/a
555.526	0.075	1111052	keystroke_l	l	n/a
555.646	0.105	1111292	keystroke_Key.space	Key.space	n/a
555.766	0.09	1111532	keystroke_p	p	n/a
555.976	0.075	1111952	keystroke_o	o	n/a
556.216	0.09	1112432	keystroke_n	n	n/a
556.306	0.075	1112612	keystroke_t	t	n/a
556.456	0.075	1112912	keystroke_i	i	n/a
556.621	0.105	1113242	keystroke_a	a	n/a
556.8455	0.075	1113691	keystroke_c	c	n/a
557.1005	0.075	1114201	keystroke_Key.space	Key.space	n/a
557.5055	0.06	1115011	keystroke_b	b	n/a
557.6865	0.075	1115373	keystroke_i	i	n/a
558.0615	0.059	1116123	keystroke_l	l	n/a
558.2255	0.076	1116451	keystroke_l	l	n/a
558.3455	0.09	1116691	keystroke_Key.space	Key.space	n/a
558.4955	0.105	1116991	keystroke_s	s	n/a
558.6905	0.075	1117381	keystroke_e	e	n/a
559.0955	0.075	1118191	keystroke_e	e	n/a
559.3055	0.075	1118611	keystroke_k	k	n/a
559.4255	0.09	1118851	keystroke_e	e	n/a
559.5915	0.089	1119183	keystroke_r	r	n/a
559.8305	0.076	1119661	keystroke_s	s	n/a
560.8805	0.045	1121761	keystroke_Key.enter	Key.enter	n/a
560.9305	13.977	1121861	prompt	n/a	dispute offices railroad newfoundland\n
561.9905	0.075	1123981	keystroke_d	d	n/a
562.0955	0.091	1124191	keystroke_i	i	n/a
562.2315	0.089	1124463	keystroke_s	s	n/a
562.3365	0.089	1124673	keystroke_p	p	n/a
562.5905	0.135	1125181	keystroke_u	u	n/a
563.1005	0.075	1126201	keystroke_t	t	n/a
563.1905	0.121	1126381	keystroke_e	e	n/a
563.2955	0.106	1126591	keystroke_Key.space	Key.space	n/a
563.5515	0.075	1127103	keystroke_o	o	n/a
563.7155	0.076	1127431	keystroke_o	o	n/a
564.1805	0.09	1128361	keystroke_Key.backspace	Key.backspace	n/a
564.3615	0.045	1128723	keystroke_c	c	n/a
564.5115	0.075	1129023	keystroke_c	c	n/a
564.6455	0.091	1129291	keystroke_i	i	n/a
564.9755	0.075	1129951	keystroke_Key.backspace	Key.backspace	n/a
565.2315	0.014	1130463	keystroke_Key.backspace	Key.backspace	n/a
565.2905	0.121	1130581	keystroke_Key.backspace	Key.backspace	n/a
565.3965	0.075	1130793	keystroke_f	f	n/a
565.5905	0.076	1131181	keystroke_f	f	n/a
565.7115	0.105	1131423	keystroke_i	i	n/a
565.8915	0.09	1131783	keystroke_c	c	n/a
566.1015	0.075	1132203	keystroke_e	e	n/a
566.3115	0.18	1132623	keystroke_s	s	n/a
566.4765	0.089	1132953	keystroke_Key.space	Key.space	n/a
566.7765	0.075	1133553	keystroke_r	r	n/a
566.9715	0.105	1133943	keystroke_a	a	n/a
567.0915	0.0745	1134183	keystroke_i	i	n/a
567.331	0.09	1134662	keystroke_l	l	n/a
567.901	0.075	1135802	keystroke_r	r	n/a
568.021	0.09	1136042	keystroke_o	o	n/a
568.201	0.12	1136402	keystroke_a	a	n/a
568.546	0.0755	1137092	keystroke_d	d	n/a
568.816	0.089	1137632	keystroke_Key.space	Key.space	n/a
569.116	0.12	1138232	keystroke_n	n	n/a
569.251	0.09	1138502	keystroke_e	e	n/a
569.686	0.105	1139372	keystroke_w	w	n/a
570.571	0.075	1141142	keystroke_f	f	n/a
570.661	0.105	1141322	keystroke_o	o	n/a
570.841	0.105	1141682	keystroke_u	u	n/a
571.066	0.09	1142132	keystroke_n	n	n/a
571.966	0.045	1143932	keystroke_f	f	n/a
572.896	0.075	1145792	keystroke_Key.backspace	Key.backspace	n/a
573.181	0.09	1146362	keystroke_d	d	n/a
573.346	0.09	1146692	keystroke_l	l	n/a
573.481	0.075	1146962	keystroke_a	a	n/a
573.661	0.075	1147322	keystroke_n	n	n/a
573.841	0.09	1147682	keystroke_d	d	n/a
574.861	0.045	1149722	keystroke_Key.enter	Key.enter	n/a
574.911	9.8065	1149822	prompt	n/a	reporting stuck supposed has\n
576.001	0.09	1152002	keystroke_r	r	n/a
576.151	0.12	1152302	keystroke_e	e	n/a
576.346	0.09	1152692	keystroke_o	o	n/a
576.631	0.075	1153262	keystroke_Key.backspace	Key.backspace	n/a
576.766	0.105	1153532	keystroke_p	p	n/a
576.946	0.12	1153892	keystroke_o	o	n/a
577.096	0.12	1154192	keystroke_r	r	n/a
577.321	0.105	1154642	keystroke_t	t	n/a
577.441	0.12	1154882	keystroke_i	i	n/a
577.576	0.075	1155152	keystroke_t	t	n/a
577.756	0.105	1155512	keystroke_n	n	n/a
578.116	0.06	1156232	keystroke_Key.backspace	Key.backspace	n/a
578.236	0.09	1156472	keystroke_Key.backspace	Key.backspace	n/a
578.476	0.075	1156952	keystroke_n	n	n/a
578.566	0.105	1157132	keystroke_t	t	n/a
578.656	0.12	1157312	keystroke_Key.space	Key.space	n/a
579.196	0.075	1158392	keystroke_Key.backspace	Key.backspace	n/a
579.331	0.09	1158662	keystroke_Key.backspace	Key.backspace	n/a
579.481	0.075	1158962	keystroke_g	g	n/a
580.741	0.075	1161482	keystroke_Key.space	Key.space	n/a
580.906	0.12	1161812	keystroke_s	s	n/a
581.221	0.06	1162442	keystroke_t	t	n/a
581.296	0.09	1162592	keystroke_u	u	n/a
581.476	0.105	1162952	keystroke_c	c	n/a
581.611	0.105	1163222	keystroke_k	k	n/a
581.746	0.12	1163492	keystroke_Key.space	Key.space	n/a
582.301	0.09	1164602	keystroke_s	s	n/a
582.436	0.075	1164872	keystroke_u	u	n/a
582.706	0.06	1165412	keystroke_p	p	n/a
582.841	0.075	1165682	keystroke_p	p	n/a
582.976	0.105	1165952	keystroke_o	o	n/a
583.082	0.104	1166164	keystroke_s	s	n/a
583.276	0.105	1166552	keystroke_e	e	n/a
583.516	0.135	1167032	keystroke_d	d	n/a
583.606	0.12	1167212	keystroke_Key.space	Key.space	n/a
583.936	0.09	1167872	keystroke_h	h	n/a
584.026	0.105	1168052	keystroke_a	a	n/a
584.116	0.15	1168232	keystroke_s	s	n/a
584.641	0.075	1169282	keystroke_Key.enter	Key.enter	n/a
584.7205	9.777	1169441	prompt	n/a	printable wooden hazard cleared\n
585.901	0.075	1171802	keystroke_p	p	n/a
585.991	0.09	1171982	keystroke_r	r	n/a
586.111	0.075	1172222	keystroke_i	i	n/a
586.291	0.12	1172582	keystroke_n	n	n/a
586.396	0.06	1172792	keystroke_t	t	n/a
586.666	0.1355	1173332	keystroke_a	a	n/a
586.771	0.0895	1173542	keystroke_b	b	n/a
586.9965	0.075	1173993	keystroke_l	l	n/a
587.0565	0.105	1174113	keystroke_e	e	n/a
587.1315	0.119	1174263	keystroke_Key.space	Key.space	n/a
587.3855	0.016	1174771	keystroke_q	q	n/a
587.4315	0.075	1174863	keystroke_w	w	n/a
587.9105	0.061	1175821	keystroke_Key.backspace	Key.backspace	n/a
588.0455	0.106	1176091	keystroke_Key.backspace	Key.backspace	n/a
588.1665	0.09	1176333	keystroke_w	w	n/a
588.2865	0.074	1176573	keystroke_o	o	n/a
588.7515	0.06	1177503	keystroke_o	o	n/a
588.8565	0.09	1177713	keystroke_d	d	n/a
589.0665	0.075	1178133	keystroke_e	e	n/a
589.2015	0.09	1178403	keystroke_n	n	n/a
589.3815	0.105	1178763	keystroke_Key.space	Key.space	n/a
589.831	0.075	1179662	keystroke_h	h	n/a
589.921	0.105	1179842	keystroke_a	a	n/a
590.236	0.09	1180472	keystroke_r	r	n/a
590.341	0.09	1180682	keystroke_a	a	n/a
590.6105	0.09	1181221	keystroke_z	z	n/a
590.8055	0.075	1181611	keystroke_Key.backspace	Key.backspace	n/a
590.9555	0.06	1181911	keystroke_Key.backspace	Key.backspace	n/a
591.1055	0.105	1182211	keystroke_Key.backspace	Key.backspace	n/a
591.196	0.1045	1182392	keystroke_z	z	n/a
591.3605	0.09	1182721	keystroke_a	a	n/a
591.9905	0.075	1183981	keystroke_r	r	n/a
592.0805	0.135	1184161	keystroke_d	d	n/a
592.2305	0.105	1184461	keystroke_Key.space	Key.space	n/a
592.9655	0.075	1185931	keystroke_c	c	n/a
593.2805	0.075	1186561	keystroke_l	l	n/a
593.3705	0.06	1186741	keystroke_e	e	n/a
593.5655	0.075	1187131	keystroke_a	a	n/a
593.7455	0.09	1187491	keystroke_r	r	n/a
594.0305	0.075	1188061	keystroke_e	e	n/a
594.2105	0.09	1188421	keystroke_d	d	n/a
594.4505	0.045	1188901	keystroke_Key.enter	Key.enter	n/a
594.5005	9.8225	1189001	prompt	n/a	frontier kingdom push cite\n
595.5005	0.12	1191001	keystroke_f	f	n/a
595.6355	0.09	1191271	keystroke_r	r	n/a
595.7405	0.075	1191481	keystroke_o	o	n/a
595.8905	0.12	1191781	keystroke_n	n	n/a
595.9955	0.075	1191991	keystroke_t	t	n/a
596.1305	0.09	1192261	keystroke_i	i	n/a
596.2655	0.105	1192531	keystroke_e	e	n/a
596.5055	0.105	1193011	keystroke_r	r	n/a
596.7005	0.105	1193401	keystroke_Key.space	Key.space	n/a
597.3905	0.09	1194781	keystroke_k	k	n/a
597.9755	0.075	1195951	keystroke_i	i	n/a
598.1555	0.09	1196311	keystroke_n	n	n/a
599.4005	0.075	1198801	keystroke_g	g	n/a
599.6855	0.075	1199371	keystroke_s	s	n/a
599.8815	0.059	1199763	keystroke_o	o	n/a
600.1805	0.06	1200361	keystroke_Key.backspace	Key.backspace	n/a
600.3305	0.09	1200661	keystroke_Key.backspace	Key.backspace	n/a
600.4055	0.09	1200811	keystroke_d	d	n/a
600.5255	0.09	1201051	keystroke_o	o	n/a
600.7355	0.075	1201471	keystroke_m	m	n/a
601.8605	0.09	1203721	keystroke_Key.space	Key.space	n/a
601.9815	0.089	1203963	keystroke_p	p	n/a
602.2955	0.075	1204591	keystroke_u	u	n/a
602.4005	0.105	1204801	keystroke_s	s	n/a
602.7155	0.09	1205431	keystroke_h	h	n/a
602.8355	0.105	1205671	keystroke_Key.space	Key.space	n/a
603.2855	0.075	1206571	keystroke_c	c	n/a
603.3755	0.075	1206751	keystroke_i	i	n/a
603.6315	0.029	1207263	keystroke_t	t	n/a
603.7205	0.075	1207441	keystroke_e	e	n/a
604.2755	0.045	1208551	keystroke_Key.enter	Key.enter	n/a
604.326	13.0915	1208652	prompt	n/a	hardware morocco methodology morocco\n
605.3405	0.075	1210681	keystroke_h	h	n/a
605.4455	0.105	1210891	keystroke_a	a	n/a
605.6105	0.09	1211221	keystroke_r	r	n/a
605.7455	0.09	1211491	keystroke_d	d	n/a
606.2715	0.044	1212543	keystroke_w	w	n/a
606.5265	0.12	1213053	keystroke_a	a	n/a
606.8565	0.059	1213713	keystroke_r	r	n/a
607.0065	0.134	1214013	keystroke_e	e	n/a
607.1105	0.12	1214221	keystroke_Key.space	Key.space	n/a
607.3515	0.089	1214703	keystroke_m	m	n/a
607.6205	0.09	1215241	keystroke_r	r	n/a
607.9355	0.075	1215871	keystroke_Key.backspace	Key.backspace	n/a
608.4615	0.075	1216923	keystroke_o	o	n/a
608.5515	0.059	1217103	keystroke_r	r	n/a
609.3455	0.075	1218691	keystroke_o	o	n/a
609.5105	0.046	1219021	keystroke_c	c	n/a
609.6465	0.075	1219293	keystroke_c	c	n/a
609.7815	0.075	1219563	keystroke_o	o	n/a
609.9605	0.105	1219921	keystroke_Key.space	Key.space	n/a
610.2465	0.075	1220493	keystroke_m	m	n/a
610.3365	0.074	1220673	keystroke_e	e	n/a
610.6665	0.06	1221333	keystroke_t	t	n/a
610.7715	0.075	1221543	keystroke_h	h	n/a
610.9665	0.105	1221933	keystroke_o	o	n/a
611.1165	0.075	1222233	keystroke_f	f	n/a
611.2965	0.075	1222593	keystroke_o	o	n/a
611.5655	0.075	1223131	keystroke_Key.backspace	Key.backspace	n/a
611.7305	0.106	1223461	keystroke_Key.backspace	Key.backspace	n/a
611.8215	0.09	1223643	keystroke_d	d	n/a
611.9415	0.105	1223883	keystroke_o	o	n/a
612.3015	0.075	1224603	keystroke_l	l	n/a
612.4965	0.075	1224993	keystroke_o	o	n/a
613.3815	0.075	1226763	keystroke_g	g	n/a
613.4865	0.09	1226973	keystroke_y	y	n/a
613.8165	0.09	1227633	keystroke_Key.space	Key.space	n/a
613.9665	0.09	1227933	keystroke_m	m	n/a
614.1615	0.06	1228323	keystroke_o	o	n/a
614.2815	0.03	1228563	keystroke_r	r	n/a
614.7315	0.105	1229463	keystroke_o	o	n/a
615.0165	0.075	1230033	keystroke_c	c	n/a
615.1815	0.075	1230363	keystroke_c	c	n/a
615.2715	0.09	1230543	keystroke_o	o	n/a
617.3565	0.06	1234713	keystroke_Key.enter	Key.enter	n/a
617.4225	9.1755	1234845	prompt	n/a	statement birmingham notes addition\n
618.3465	0.09	1236693	keystroke_s	s	n/a
618.4965	0.09	1236993	keystroke_t	t	n/a
618.6015	0.12	1237203	keystroke_a	a	n/a
618.7065	0.09	1237413	keystroke_t	t	n/a
618.8715	0.075	1237743	keystroke_e	e	n/a
619.2165	0.09	1238433	keystroke_m	m	n/a
619.3515	0.075	1238703	keystroke_e	e	n/a
619.4715	0.09	1238943	keystroke_n	n	n/a
619.6065	0.12	1239213	keystroke_t	t	n/a
619.7565	0.09	1239513	keystroke_Key.space	Key.space	n/a
620.3415	0.0745	1240683	keystroke_b	b	n/a
620.5215	0.0895	1241043	keystroke_i	i	n/a
620.6565	0.075	1241313	keystroke_r	r	n/a
620.881	0.105	1241762	keystroke_m	m	n/a
621.136	0.075	1242272	keystroke_i	i	n/a
621.346	0.09	1242692	keystroke_n	n	n/a
621.541	0.105	1243082	keystroke_g	g	n/a
622.021	0.045	1244042	keystroke_h	h	n/a
622.966	0.075	1245932	keystroke_a	a	n/a
623.086	0.075	1246172	keystroke_m	m	n/a
623.221	0.075	1246442	keystroke_Key.space	Key.space	n/a
623.446	0.075	1246892	keystroke_n	n	n/a
623.596	0.12	1247192	keystroke_o	o	n/a
623.971	0.075	1247942	keystroke_t	t	n/a
624.076	0.09	1248152	keystroke_e	e	n/a
624.346	0.15	1248692	keystroke_s	s	n/a
624.796	0.03	1249592	keystroke_Key.space	Key.space	n/a
624.931	0.09	1249862	keystroke_a	a	n/a
625.111	0.075	1250222	keystroke_d	d	n/a
625.246	0.105	1250492	keystroke_d	d	n/a
625.591	0.075	1251182	keystroke_i	i	n/a
625.696	0.075	1251392	keystroke_t	t	n/a
625.831	0.075	1251662	keystroke_i	i	n/a
626.011	0.09	1252022	keystroke_o	o	n/a
626.206	0.075	1252412	keystroke_n	n	n/a
626.536	0.06	1253072	keystroke_Key.enter	Key.enter	n/a
626.6005	9.2225	1253201	prompt	n/a	determine nascar fighting conditions\n
627.661	0.075	1255322	keystroke_d	d	n/a
627.751	0.075	1255502	keystroke_e	e	n/a
627.841	0.075	1255682	keystroke_t	t	n/a
627.946	0.09	1255892	keystroke_e	e	n/a
