onset	duration	sample	value	key	prompt_text
3.5275	11.305	7055	prompt	n/a	the quick brown fox jumps over a lazy dog\n
4.9065	0.0125	9813	keystroke_t	t	n/a
4.934	0.0295	9868	keystroke_h	h	n/a
5.1285	0.076	10257	keystroke_e	e	n/a
5.279	0.0745	10558	keystroke_Key.space	Key.space	n/a
5.474	0.105	10948	keystroke_q	q	n/a
5.6385	0.1205	11277	keystroke_u	u	n/a
5.699	0.0895	11398	keystroke_i	i	n/a
5.8875	0.0445	11775	keystroke_c	c	n/a
6.2475	0.09	12495	keystroke_k	k	n/a
6.352	0.137	12704	keystroke_Key.space	Key.space	n/a
6.715	0.089	13430	keystroke_b	b	n/a
6.864	0.105	13728	keystroke_r	r	n/a
7.119	0.12	14238	keystroke_o	o	n/a
7.209	0.105	14418	keystroke_w	w	n/a
7.3585	0.1055	14717	keystroke_n	n	n/a
7.509	0.0895	15018	keystroke_Key.space	Key.space	n/a
7.944	0.0895	15888	keystroke_f	f	n/a
8.1395	0.089	16279	keystroke_o	o	n/a
8.2435	0.12	16487	keystroke_x	x	n/a
8.409	0.075	16818	keystroke_Key.space	Key.space	n/a
8.829	0.0445	17658	keystroke_j	j	n/a
8.844	0.1055	17688	keystroke_u	u	n/a
9.0695	0.1795	18139	keystroke_m	m	n/a
9.3535	0.15	18707	keystroke_p	p	n/a
9.609	0.15	19218	keystroke_s	s	n/a
9.8185	0.105	19637	keystroke_Key.space	Key.space	n/a
10.4485	0.0605	20897	keystroke_o	o	n/a
10.6435	0.0755	21287	keystroke_v	v	n/a
10.809	0.135	21618	keystroke_e	e	n/a
10.8835	0.135	21767	keystroke_r	r	n/a
11.079	0.0595	22158	keystroke_Key.space	Key.space	n/a
11.109	0.1495	22218	keystroke_a	a	n/a
11.2435	0.09	22487	keystroke_Key.space	Key.space	n/a
11.4235	0.105	22847	keystroke_l	l	n/a
11.543	0.0905	23086	keystroke_a	a	n/a
12.0835	0.105	24167	keystroke_Key.backspace	Key.backspace	n/a
12.9995	0.089	25999	keystroke_a	a	n/a
13.2835	0.09	26567	keystroke_z	z	n/a
13.6435	0.0605	27287	keystroke_y	y	n/a
13.734	0.0895	27468	keystroke_Key.space	Key.space	n/a
14.3035	0.12	28607	keystroke_d	d	n/a
14.379	0.0895	28758	keystroke_o	o	n/a
14.5595	0.074	29119	keystroke_g	g	n/a
14.724	0.1045	29448	keystroke_Key.enter	Key.enter	n/a
14.8385	10.93	29677	prompt	n/a	exciting wiring spell championship\n
15.519	0.1045	31038	keystroke_e	e	n/a
15.744	0.1195	31488	keystroke_x	x	n/a
15.9085	0.105	31817	keystroke_i	i	n/a
16.509	0.0895	33018	keystroke_Key.backspace	Key.backspace	n/a
16.5835	0.09	33167	keystroke_c	c	n/a
17.169	0.0895	34338	keystroke_i	i	n/a
17.319	0.0895	34638	keystroke_t	t	n/a
17.3945	0.089	34789	keystroke_i	i	n/a
17.634	0.0455	35268	keystroke_b	b	n/a
18.0685	0.105	36137	keystroke_Key.backspace	Key.backspace	n/a
18.729	0.09	37458	keystroke_n	n	n/a
18.8035	0.03	37607	keystroke_g	g	n/a
18.9085	0.075	37817	keystroke_Key.space	Key.space	n/a
19.5235	0.105	39047	keystroke_w	w	n/a
19.7185	0.0755	39437	keystroke_i	i	n/a
20.184	0.0895	40368	keystroke_r	r	n/a
20.2435	0.1355	40487	keystroke_i	i	n/a
20.424	0.1045	40848	keystroke_n	n	n/a
20.5135	0.0905	41027	keystroke_g	g	n/a
20.7085	0.09	41417	keystroke_Key.space	Key.space	n/a
20.979	0.12	41958	keystroke_s	s	n/a
21.2485	0.0905	42497	keystroke_p	p	n/a
21.3685	0.105	42737	keystroke_e	e	n/a
21.6085	0.076	43217	keystroke_l	l	n/a
21.759	0.1045	43518	keystroke_l	l	n/a
21.849	0.09	43698	keystroke_Key.space	Key.space	n/a
22.134	0.1045	44268	keystroke_c	c	n/a
22.2985	0.1205	44597	keystroke_h	h	n/a
22.3885	0.0895	44777	keystroke_a	a	n/a
23.0485	0.1205	46097	keystroke_m	m	n/a
23.469	0.12	46938	keystroke_p	p	n/a
23.754	0.105	47508	keystroke_i	i	n/a
23.8135	0.105	47627	keystroke_o	o	n/a
23.9785	0.1055	47957	keystroke_n	n	n/a
24.189	0.105	48378	keystroke_s	s	n/a
24.504	0.0895	49008	keystroke_h	h	n/a
24.7895	0.0895	49579	keystroke_i	i	n/a
25.2835	0.09	50567	keystroke_p	p	n/a
25.6435	0.12	51287	keystroke_Key.enter	Key.enter	n/a
25.7745	11.571	51549	prompt	n/a	corporations infringement astronomy exotic\n
26.7985	0.1205	53597	keystroke_c	c	n/a
26.859	0.1195	53718	keystroke_o	o	n/a
27.0235	0.106	54047	keystroke_r	r	n/a
27.654	0.0745	55308	keystroke_p	p	n/a
27.803	0.091	55606	keystroke_o	o	n/a
28.104	0.105	56208	keystroke_r	r	n/a
28.224	0.0905	56448	keystroke_a	a	n/a
28.434	0.0905	56868	keystroke_t	t	n/a
28.629	0.1205	57258	keystroke_i	i	n/a
28.6885	0.1505	57377	keystroke_o	o	n/a
28.84	0.104	57680	keystroke_n	n	n/a
28.959	0.105	57918	keystroke_s	s	n/a
29.154	0.105	58308	keystroke_Key.space	Key.space	n/a
29.9185	0.105	59837	keystroke_i	i	n/a
29.979	0.1195	59958	keystroke_n	n	n/a
30.609	0.075	61218	keystroke_f	f	n/a
30.909	0.1055	61818	keystroke_r	r	n/a
31.0295	0.105	62059	keystroke_i	i	n/a
31.4645	0.0895	62929	keystroke_g	g	n/a
31.6435	0.105	63287	keystroke_e	e	n/a
32.484	0.105	64968	keystroke_m	m	n/a
32.5745	0.0745	65149	keystroke_e	e	n/a
32.694	0.105	65388	keystroke_n	n	n/a
32.889	0.09	65778	keystroke_t	t	n/a
33.309	0.0905	66618	keystroke_Key.space	Key.space	n/a
33.6095	0.1195	67219	keystroke_a	a	n/a
33.7135	0.1505	67427	keystroke_s	s	n/a
33.999	0.09	67998	keystroke_t	t	n/a
34.209	0.105	68418	keystroke_r	r	n/a
34.389	0.1195	68778	keystroke_o	o	n/a
34.644	0.135	69288	keystroke_n	n	n/a
34.749	0.1645	69498	keystroke_o	o	n/a
34.974	0.1495	69948	keystroke_m	m	n/a
35.229	0.105	70458	keystroke_y	y	n/a
35.484	0.105	70968	keystroke_Key.space	Key.space	n/a
36.069	0.105	72138	keystroke_e	e	n/a
36.279	0.105	72558	keystroke_x	x	n/a
36.414	0.12	72828	keystroke_o	o	n/a
36.729	0.1045	73458	keystroke_t	t	n/a
36.849	0.09	73698	keystroke_i	i	n/a
36.9545	0.105	73909	keystroke_c	c	n/a
37.254	0.09	74508	keystroke_Key.enter	Key.enter	n/a
37.35	9.551	74700	prompt	n/a	roman tray privacy amino\n
38.124	0.1205	76248	keystroke_r	r	n/a
38.2295	0.089	76459	keystroke_o	o	n/a
38.424	0.105	76848	keystroke_m	m	n/a
38.499	0.09	76998	keystroke_a	a	n/a
38.679	0.105	77358	keystroke_n	n	n/a
38.874	0.105	77748	keystroke_Key.space	Key.space	n/a
39.3545	0.0445	78709	keystroke_t	t	n/a
39.459	0.0895	78918	keystroke_r	r	n/a
39.5935	0.09	79187	keystroke_a	a	n/a
39.744	0.135	79488	keystroke_y	y	n/a
39.8935	0.1055	79787	keystroke_Key.space	Key.space	n/a
40.599	0.105	81198	keystroke_p	p	n/a
40.749	0.135	81498	keystroke_r	r	n/a
40.9135	0.1205	81827	keystroke_i	i	n/a
41.364	0.09	82728	keystroke_v	v	n/a
41.559	0.0745	83118	keystroke_a	a	n/a
41.7695	0.09	83539	keystroke_c	c	n/a
42.1595	0.1045	84319	keystroke_y	y	n/a
42.458	0.0915	84916	keystroke_Key.space	Key.space	n/a
42.984	0.0905	85968	keystroke_a	a	n/a
43.2395	0.1195	86479	keystroke_m	m	n/a
43.3285	0.12	86657	keystroke_o	o	n/a
45.5655	0.0435	91131	keystroke_Key.backspace	Key.backspace	n/a
46.089	0.1055	92178	keystroke_i	i	n/a
46.344	0.1355	92688	keystroke_n	n	n/a
46.4485	0.105	92897	keystroke_o	o	n/a
46.7785	0.1205	93557	keystroke_Key.enter	Key.enter	n/a
46.9055	8.365	93811	prompt	n/a	particles returns claims flat\n
47.904	0.105	95808	keystroke_p	p	n/a
47.949	0.09	95898	keystroke_a	a	n/a
48.189	0.0895	96378	keystroke_r	r	n/a
48.909	0.165	97818	keystroke_t	t	n/a
49.059	0.03	98118	keystroke_i	i	n/a
49.163	0.106	98326	keystroke_c	c	n/a
49.344	0.1355	98688	keystroke_l	l	n/a
49.599	0.0595	99198	keystroke_e	e	n/a
49.704	0.09	99408	keystroke_s	s	n/a
50.349	0.09	100698	keystroke_Key.space	Key.space	n/a
50.739	0.0745	101478	keystroke_r	r	n/a
50.7985	0.1205	101597	keystroke_e	e	n/a
51.039	0.0745	102078	keystroke_t	t	n/a
51.489	0.09	102978	keystroke_u	u	n/a
51.6085	0.12	103217	keystroke_r	r	n/a
51.7585	0.1355	103517	keystroke_n	n	n/a
51.909	0.12	103818	keystroke_s	s	n/a
52.134	0.135	104268	keystroke_Key.space	Key.space	n/a
52.614	0.09	105228	keystroke_c	c	n/a
52.7485	0.1205	105497	keystroke_l	l	n/a
52.87	0.0735	105740	keystroke_a	a	n/a
53.019	0.18	106038	keystroke_i	i	n/a
53.124	0.135	106248	keystroke_m	m	n/a
53.2735	0.1205	106547	keystroke_s	s	n/a
53.499	0.1045	106998	keystroke_Key.space	Key.space	n/a
54.3395	0.1195	108679	keystroke_f	f	n/a
54.474	0.105	108948	keystroke_l	l	n/a
54.594	0.105	109188	keystroke_a	a	n/a
54.804	0.09	109608	keystroke_t	t	n/a
55.134	0.1345	110268	keystroke_Key.enter	Key.enter	n/a
55.273	8.5645	110546	prompt	n/a	unemployment challenged lone carb\n
56.2885	0.136	112577	keystroke_u	u	n/a
56.3485	0.121	112697	keystroke_n	n	n/a
56.649	0.12	113298	keystroke_e	e	n/a
56.784	0.12	113568	keystroke_m	m	n/a
57.459	0.0895	114918	keystroke_p	p	n/a
57.6535	0.09	115307	keystroke_l	l	n/a
57.8335	0.1055	115667	keystroke_o	o	n/a
58.329	0.09	116658	keystroke_y	y	n/a
58.584	0.105	117168	keystroke_m	m	n/a
58.674	0.09	117348	keystroke_e	e	n/a
58.778	0.136	117556	keystroke_n	n	n/a
58.929	0.105	117858	keystroke_t	t	n/a
59.154	0.105	118308	keystroke_Key.space	Key.space	n/a
59.439	0.09	118878	keystroke_c	c	n/a
59.574	0.1045	119148	keystroke_h	h	n/a
59.6345	0.0745	119269	keystroke_a	a	n/a
60.0235	0.06	120047	keystroke_l	l	n/a
60.174	0.075	120348	keystroke_l	l	n/a
60.2335	0.105	120467	keystroke_e	e	n/a
60.414	0.1195	120828	keystroke_n	n	n/a
60.5485	0.09	121097	keystroke_g	g	n/a
60.6835	0.12	121367	keystroke_e	e	n/a
60.894	0.135	121788	keystroke_d	d	n/a
61.119	0.1195	122238	keystroke_Key.space	Key.space	n/a
61.7035	0.0755	123407	keystroke_l	l	n/a
61.854	0.12	123708	keystroke_o	o	n/a
62.049	0.1495	124098	keystroke_n	n	n/a
62.1245	0.164	124249	keystroke_e	e	n/a
62.2735	0.1195	124547	keystroke_Key.space	Key.space	n/a
62.559	0.075	125118	keystroke_c	c	n/a
62.6645	0.119	125329	keystroke_a	a	n/a
62.8285	0.12	125657	keystroke_r	r	n/a
63.5185	0.0755	127037	keystroke_b	b	n/a
63.683	0.1505	127366	keystroke_Key.enter	Key.enter	n/a
63.8485	9.2125	127697	prompt	n/a	infected attacked hybrid produced\n
64.7935	0.1055	129587	keystroke_i	i	n/a
64.884	0.1195	129768	keystroke_n	n	n/a
65.139	0.0745	130278	keystroke_f	f	n/a
65.2585	0.151	130517	keystroke_e	e	n/a
65.5895	0.119	131179	keystroke_c	c	n/a
65.9485	0.09	131897	keystroke_t	t	n/a
66.0995	0.1195	132199	keystroke_e	e	n/a
66.309	0.105	132618	keystroke_d	d	n/a
66.4885	0.12	132977	keystroke_Key.space	Key.space	n/a
66.848	0.106	133696	keystroke_a	a	n/a
67.1185	0.0745	134237	keystroke_t	t	n/a
67.2985	0.0595	134597	keystroke_t	t	n/a
67.433	0.09	134866	keystroke_a	a	n/a
67.614	0.09	135228	keystroke_c	c	n/a
67.7185	0.105	135437	keystroke_k	k	n/a
67.8385	0.0905	135677	keystroke_e	e	n/a
68.019	0.135	136038	keystroke_d	d	n/a
68.2435	0.1195	136487	keystroke_Key.space	Key.space	n/a
69.0095	0.119	138019	keystroke_h	h	n/a
69.0995	0.089	138199	keystroke_y	y	n/a
69.399	0.015	138798	keystroke_b	b	n/a
69.834	0.106	139668	keystroke_r	r	n/a
70.0585	0.105	140117	keystroke_i	i	n/a
70.1485	0.1205	140297	keystroke_d	d	n/a
70.884	0.1045	141768	keystroke_Key.space	Key.space	n/a
71.244	0.135	142488	keystroke_p	p	n/a
71.469	0.1045	142938	keystroke_r	r	n/a
71.529	0.135	143058	keystroke_o	o	n/a
71.724	0.1195	143448	keystroke_d	d	n/a
71.859	0.1045	143718	keystroke_u	u	n/a
72.008	0.1355	144016	keystroke_c	c	n/a
72.1285	0.135	144257	keystroke_e	e	n/a
72.3245	0.149	144649	keystroke_d	d	n/a
72.9085	0.1505	145817	keystroke_Key.enter	Key.enter	n/a
73.0665	10.7485	146133	prompt	n/a	gadgets handbags cologne praise\n
74.1085	0.0755	148217	keystroke_g	g	n/a
74.259	0.12	148518	keystroke_a	a	n/a
75.249	0.1195	150498	keystroke_d	d	n/a
75.6385	0.0605	151277	keystroke_g	g	n/a
75.744	0.195	151488	keystroke_e	e	n/a
75.924	0.1195	151848	keystroke_t	t	n/a
76.0595	0.1195	152119	keystroke_s	s	n/a
76.3135	0.12	152627	keystroke_Key.space	Key.space	n/a
77.169	0.104	154338	keystroke_h	h	n/a
77.199	0.119	154398	keystroke_a	a	n/a
77.3635	0.135	154727	keystroke_n	n	n/a
77.4535	0.1355	154907	keystroke_d	d	n/a
78.009	0.1195	156018	keystroke_b	b	n/a
78.084	0.1045	156168	keystroke_a	a	n/a
78.414	0.105	156828	keystroke_g	g	n/a
78.549	0.15	157098	keystroke_s	s	n/a
78.8635	0.1205	157727	keystroke_Key.space	Key.space	n/a
79.329	0.1045	158658	keystroke_c	c	n/a
79.4485	0.06	158897	keystroke_o	o	n/a
79.613	0.091	159226	keystroke_l	l	n/a
79.7645	0.1035	159529	keystroke_o	o	n/a
79.989	0.105	159978	keystroke_g	g	n/a
80.079	0.0895	160158	keystroke_n	n	n/a
80.154	0.15	160308	keystroke_e	e	n/a
80.334	0.12	160668	keystroke_Key.space	Key.space	n/a
81.0535	0.106	162107	keystroke_p	p	n/a
81.174	0.1205	162348	keystroke_r	r	n/a
81.3085	0.105	162617	keystroke_a	a	n/a
81.4745	0.0895	162949	keystroke_i	i	n/a
81.4885	0.1205	162977	keystroke_s	s	n/a
82.104	0.045	164208	keystroke_s	s	n/a
82.1335	0.1055	164267	keystroke_e	e	n/a
82.5835	0.0895	165167	keystroke_Key.backspace	Key.backspace	n/a
82.7485	0.135	165497	keystroke_Key.backspace	Key.backspace	n/a
82.8245	0.149	165649	keystroke_e	e	n/a
83.678	0.1355	167356	keystroke_Key.enter	Key.enter	n/a
83.8205	8.709	167641	prompt	n/a	patient competing oxide magazines\n
84.7885	0.0905	169577	keystroke_p	p	n/a
84.8335	0.1205	169667	keystroke_a	a	n/a
85.134	0.09	170268	keystroke_t	t	n/a
85.209	0.105	170418	keystroke_i	i	n/a
85.419	0.119	170838	keystroke_e	e	n/a
85.554	0.105	171108	keystroke_n	n	n/a
85.703	0.121	171406	keystroke_t	t	n/a
85.899	0.119	171798	keystroke_Key.space	Key.space	n/a
86.3185	0.1205	172637	keystroke_c	c	n/a
86.5285	0.1655	173057	keystroke_o	o	n/a
86.679	0.1195	173358	keystroke_m	m	n/a
86.8885	0.1205	173777	keystroke_p	p	n/a
87.099	0.15	174198	keystroke_l	l	n/a
87.204	0.12	174408	keystroke_e	e	n/a
87.4735	0.12	174947	keystroke_t	t	n/a
88.044	0.15	176088	keystroke_i	i	n/a
88.164	0.12	176328	keystroke_n	n	n/a
88.239	0.104	176478	keystroke_g	g	n/a
88.4035	0.135	176807	keystroke_Key.space	Key.space	n/a
89.169	0.12	178338	keystroke_o	o	n/a
89.274	0.105	178548	keystroke_x	x	n/a
89.394	0.119	178788	keystroke_i	i	n/a
89.5285	0.0455	179057	keystroke_d	d	n/a
89.6935	0.1195	179387	keystroke_e	e	n/a
89.904	0.1045	179808	keystroke_Key.space	Key.space	n/a
90.3385	0.105	180677	keystroke_m	m	n/a
90.399	0.1045	180798	keystroke_a	a	n/a
90.8635	0.0755	181727	keystroke_g	g	n/a
91.0285	0.0905	182057	keystroke_a	a	n/a
91.719	0.105	183438	keystroke_z	z	n/a
91.778	0.0905	183556	keystroke_i	i	n/a
91.974	0.1045	183948	keystroke_n	n	n/a
92.0485	0.12	184097	keystroke_e	e	n/a
92.229	0.1045	184458	keystroke_s	s	n/a
92.3935	0.135	184787	keystroke_Key.enter	Key.enter	n/a
92.5335	10.2875	185067	prompt	n/a	existed textiles audio service\n
93.744	0.104	187488	keystroke_e	e	n/a
94.164	0.0895	188328	keystroke_x	x	n/a
94.2835	0.1355	188567	keystroke_i	i	n/a
94.5535	0.075	189107	keystroke_s	s	n/a
95.154	0.09	190308	keystroke_t	t	n/a
95.303	0.121	190606	keystroke_e	e	n/a
95.5295	0.104	191059	keystroke_d	d	n/a
95.6935	0.1205	191387	keystroke_Key.space	Key.space	n/a
96.3995	0.044	192799	keystroke_t	t	n/a
96.489	0.0895	192978	keystroke_e	e	n/a
96.6985	0.135	193397	keystroke_x	x	n/a
97.089	0.1045	194178	keystroke_t	t	n/a
97.179	0.0895	194358	keystroke_i	i	n/a
97.404	0.1195	194808	keystroke_l	l	n/a
97.494	0.1495	194988	keystroke_e	e	n/a
97.6135	0.15	195227	keystroke_s	s	n/a
97.793	0.1205	195586	keystroke_Key.space	Key.space	n/a
98.0485	0.075	196097	keystroke_a	a	n/a
98.1235	0.12	196247	keystroke_d	d	n/a
98.994	0.075	197988	keystroke_Key.backspace	Key.backspace	n/a
99.579	0.119	199158	keystroke_u	u	n/a
99.668	0.106	199336	keystroke_d	d	n/a
99.804	0.12	199608	keystroke_i	i	n/a
100.029	0.09	200058	keystroke_o	o	n/a
100.6885	0.0605	201377	keystroke_Key.space	Key.space	n/a
101.4385	0.15	202877	keystroke_s	s	n/a
101.5585	0.1055	203117	keystroke_e	e	n/a
101.7685	0.075	203537	keystroke_r	r	n/a
101.9635	0.09	203927	keystroke_v	v	n/a
102.294	0.1195	204588	keystroke_i	i	n/a
102.3685	0.107	204737	keystroke_c	c	n/a
102.4595	0.119	204919	keystroke_e	e	n/a
102.669	0.15	205338	keystroke_Key.enter	Key.enter	n/a
102.8255	5.92	205651	prompt	n/a	superb miss builds sure\n
103.554	0.105	207108	keystroke_s	s	n/a
103.764	0.09	207528	keystroke_u	u	n/a
104.004	0.1345	208008	keystroke_p	p	n/a
104.079	0.135	208158	keystroke_e	e	n/a
104.154	0.1195	208308	keystroke_r	r	n/a
104.424	0.09	208848	keystroke_b	b	n/a
104.7835	0.1055	209567	keystroke_Key.space	Key.space	n/a
105.2035	0.1205	210407	keystroke_m	m	n/a
105.279	0.1345	210558	keystroke_i	i	n/a
105.369	0.105	210738	keystroke_s	s	n/a
105.5345	0.1785	211069	keystroke_s	s	n/a
105.698	0.1205	211396	keystroke_Key.space	Key.space	n/a
106.2085	0.09	212417	keystroke_b	b	n/a
106.3135	0.195	212627	keystroke_u	u	n/a
106.554	0.1495	213108	keystroke_i	i	n/a
106.839	0.1495	213678	keystroke_l	l	n/a
106.9735	0.12	213947	keystroke_d	d	n/a
107.1385	0.1205	214277	keystroke_s	s	n/a
107.5585	0.15	215117	keystroke_Key.space	Key.space	n/a
108.0995	0.1345	216199	keystroke_s	s	n/a
108.219	0.1355	216438	keystroke_u	u	n/a
108.324	0.105	216648	keystroke_r	r	n/a
108.3995	0.1345	216799	keystroke_e	e	n/a
108.5935	0.15	217187	keystroke_Key.enter	Key.enter	n/a
108.7485	8.4875	217497	prompt	n/a	anna hazardous maldives seemed\n
109.4335	0.09	218867	keystroke_a	a	n/a
109.569	0.0895	219138	keystroke_n	n	n/a
109.719	0.135	219438	keystroke_n	n	n/a
109.824	0.1195	219648	keystroke_a	a	n/a
110.0935	0.106	220187	keystroke_Key.space	Key.space	n/a
110.544	0.119	221088	keystroke_h	h	n/a
110.6195	0.1195	221239	keystroke_a	a	n/a
110.7835	0.0905	221567	keystroke_r	r	n/a
111.2035	0.1055	222407	keystroke_Key.backspace	Key.backspace	n/a
111.2635	0.075	222527	keystroke_z	z	n/a
111.444	0.105	222888	keystroke_a	a	n/a
111.609	0.1045	223218	keystroke_r	r	n/a
111.804	0.075	223608	keystroke_a	a	n/a
112.179	0.12	224358	keystroke_Key.backspace	Key.backspace	n/a
112.314	0.1195	224628	keystroke_d	d	n/a
112.7345	0.1045	225469	keystroke_o	o	n/a
112.974	0.12	225948	keystroke_u	u	n/a
113.049	0.135	226098	keystroke_s	s	n/a
113.4085	0.1045	226817	keystroke_Key.space	Key.space	n/a
113.9035	0.1205	227807	keystroke_m	m	n/a
113.994	0.1195	227988	keystroke_a	a	n/a
114.279	0.1205	228558	keystroke_l	l	n/a
114.8335	0.105	229667	keystroke_d	d	n/a
114.894	0.1195	229788	keystroke_i	i	n/a
115.1335	0.075	230267	keystroke_v	v	n/a
115.2535	0.1355	230507	keystroke_e	e	n/a
115.392	0.1315	230784	keystroke_s	s	n/a
115.614	0.12	231228	keystroke_Key.space	Key.space	n/a
116.004	0.18	232008	keystroke_s	s	n/a
116.169	0.09	232338	keystroke_e	e	n/a
116.334	0.12	232668	keystroke_e	e	n/a
116.409	0.15	232818	keystroke_m	m	n/a
116.574	0.09	233148	keystroke_e	e	n/a
116.784	0.09	233568	keystroke_d	d	n/a
117.1135	0.1205	234227	keystroke_Key.enter	Key.enter	n/a
117.2405	5.6205	234481	prompt	n/a	town knife from rewards\n
118.0595	0.0895	236119	keystroke_t	t	n/a
118.134	0.12	236268	keystroke_o	o	n/a
118.2235	0.1055	236447	keystroke_w	w	n/a
118.374	0.119	236748	keystroke_n	n	n/a
118.479	0.105	236958	keystroke_Key.space	Key.space	n/a
118.885	0.119	237770	keystroke_k	k	n/a
119.034	0.135	238068	keystroke_n	n	n/a
119.124	0.12	238248	keystroke_i	i	n/a
119.1835	0.106	238367	keystroke_w	w	n/a
119.559	0.1195	239118	keystroke_Key.backspace	Key.backspace	n/a
119.664	0.1195	239328	keystroke_f	f	n/a
119.7535	0.135	239507	keystroke_e	e	n/a
119.934	0.1195	239868	keystroke_Key.space	Key.space	n/a
120.654	0.1045	241308	keystroke_f	f	n/a
120.834	0.12	241668	keystroke_r	r	n/a
120.8935	0.15	241787	keystroke_o	o	n/a
120.969	0.12	241938	keystroke_m	m	n/a
121.104	0.135	242208	keystroke_Key.space	Key.space	n/a
121.4335	0.1055	242867	keystroke_r	r	n/a
121.509	0.1045	243018	keystroke_e	e	n/a
121.839	0.1645	243678	keystroke_w	w	n/a
121.9585	0.1355	243917	keystroke_a	a	n/a
122.1385	0.1055	244277	keystroke_r	r	n/a
122.334	0.09	244668	keystroke_d	d	n/a
122.379	0.1045	244758	keystroke_s	s	n/a
122.754	0.105	245508	keystroke_Key.enter	Key.enter	n/a
122.868	9.262	245736	prompt	n/a	lions bloom especially electron\n
123.894	0.12	247788	keystroke_l	l	n/a
124.119	0.1045	248238	keystroke_i	i	n/a
124.1485	0.18	248297	keystroke_o	o	n/a
124.2685	0.135	248537	keystroke_n	n	n/a
124.3885	0.135	248777	keystroke_s	s	n/a
124.509	0.119	249018	keystroke_Key.space	Key.space	n/a
125.0935	0.1065	250187	keystroke_b	b	n/a
125.1845	0.0895	250369	keystroke_l	l	n/a
125.3635	0.1505	250727	keystroke_o	o	n/a
126.609	0.134	253218	keystroke_o	o	n/a
126.639	0.1195	253278	keystroke_m	m	n/a
126.9235	0.1345	253847	keystroke_Key.space	Key.space	n/a
127.164	0.135	254328	keystroke_e	e	n/a
127.254	0.15	254508	keystroke_s	s	n/a
127.494	0.165	254988	keystroke_p	p	n/a
127.5835	0.1355	255167	keystroke_e	e	n/a
128.0335	0.1055	256067	keystroke_c	c	n/a
128.154	0.1205	256308	keystroke_i	i	n/a
128.2765	0.1025	256553	keystroke_a	a	n/a
128.409	0.2255	256818	keystroke_l	l	n/a
128.919	0.1045	257838	keystroke_l	l	n/a
129.5785	0.105	259157	keystroke_y	y	n/a
129.879	0.12	259758	keystroke_Key.space	Key.space	n/a
130.1935	0.1205	260387	keystroke_e	e	n/a
130.299	0.1495	260598	keystroke_l	l	n/a
130.374	0.1195	260748	keystroke_e	e	n/a
130.584	0.12	261168	keystroke_c	c	n/a
131.139	0.09	262278	keystroke_t	t	n/a
131.319	0.1045	262638	keystroke_r	r	n/a
131.439	0.1345	262878	keystroke_o	o	n/a
131.6935	0.135	263387	keystroke_n	n	n/a
132.0235	0.105	264047	keystroke_Key.enter	Key.enter	n/a
132.1325	10.1995	264265	prompt	n/a	strategy beautiful drinks olympic\n
132.744	0.09	265488	keystroke_s	s	n/a
132.999	0.0445	265998	keystroke_t	t	n/a
133.179	0.1195	266358	keystroke_r	r	n/a
133.329	0.105	266658	keystroke_a	a	n/a
133.5235	0.09	267047	keystroke_t	t	n/a
133.6285	0.1355	267257	keystroke_e	e	n/a
134.1685	0.12	268337	keystroke_g	g	n/a
134.3935	0.1055	268787	keystroke_y	y	n/a
134.6485	0.1205	269297	keystroke_Key.space	Key.space	n/a
135.204	0.09	270408	keystroke_b	b	n/a
135.279	0.06	270558	keystroke_e	e	n/a
135.5485	0.0905	271097	keystroke_a	a	n/a
135.834	0.09	271668	keystroke_u	u	n/a
136.554	0.1055	273108	keystroke_t	t	n/a
136.7045	0.1345	273409	keystroke_i	i	n/a
137.0935	0.151	274187	keystroke_f	f	n/a
137.2295	0.09	274459	keystroke_u	u	n/a
137.4385	0.136	274877	keystroke_l	l	n/a
137.859	0.1345	275718	keystroke_Key.space	Key.space	n/a
138.399	0.105	276798	keystroke_d	d	n/a
138.609	0.12	277218	keystroke_r	r	n/a
138.789	0.1195	277578	keystroke_i	i	n/a
139.0885	0.1055	278177	keystroke_n	n	n/a
139.1345	0.1495	278269	keystroke_k	k	n/a
139.2235	0.1505	278447	keystroke_s	s	n/a
139.493	0.1205	278986	keystroke_Key.space	Key.space	n/a
140.409	0.105	280818	keystroke_o	o	n/a
140.619	0.105	281238	keystroke_l	l	n/a
141.28	0.1035	282560	keystroke_y	y	n/a
141.339	0.119	282678	keystroke_m	m	n/a
141.6685	0.0755	283337	keystroke_p	p	n/a
141.864	0.12	283728	keystroke_i	i	n/a
141.969	0.12	283938	keystroke_c	c	n/a
142.194	0.135	284388	keystroke_Key.enter	Key.enter	n/a
142.3425	9.183	284685	prompt	n/a	reports buried switches recipes\n
143.1095	0.044	286219	keystroke_r	r	n/a
143.1235	0.1355	286247	keystroke_e	e	n/a
143.574	0.09	287148	keystroke_p	p	n/a
143.754	0.12	287508	keystroke_o	o	n/a
144.549	0.1045	289098	keystroke_r	r	n/a
144.7285	0.105	289457	keystroke_t	t	n/a
144.8345	0.1645	289669	keystroke_s	s	n/a
145.0435	0.135	290087	keystroke_Key.space	Key.space	n/a
145.6445	0.12	291289	keystroke_b	b	n/a
145.8535	0.105	291707	keystroke_u	u	n/a
145.974	0.135	291948	keystroke_r	r	n/a
146.139	0.12	292278	keystroke_i	i	n/a
146.304	0.1045	292608	keystroke_e	e	n/a
146.4985	0.12	292997	keystroke_d	d	n/a
146.633	0.136	293266	keystroke_Key.space	Key.space	n/a
146.9335	0.1055	293867	keystroke_s	s	n/a
147.2335	0.12	294467	keystroke_w	w	n/a
147.564	0.1195	295128	keystroke_i	i	n/a
147.7435	0.12	295487	keystroke_t	t	n/a
147.8785	0.075	295757	keystroke_h	h	n/a
148.0285	0.1055	296057	keystroke_c	c	n/a
148.6885	0.105	297377	keystroke_Key.backspace	Key.backspace	n/a
148.8535	0.1205	297707	keystroke_Key.backspace	Key.backspace	n/a
149.259	0.0895	298518	keystroke_c	c	n/a
149.364	0.1045	298728	keystroke_h	h	n/a
149.529	0.1495	299058	keystroke_e	e	n/a
149.619	0.1795	299238	keystroke_s	s	n/a
149.8135	0.135	299627	keystroke_Key.space	Key.space	n/a
150.0985	0.1055	300197	keystroke_r	r	n/a
150.1585	0.165	300317	keystroke_e	e	n/a
150.579	0.105	301158	keystroke_c	c	n/a
150.759	0.105	301518	keystroke_i	i	n/a
150.968	0.136	301936	keystroke_p	p	n/a
151.074	0.135	302148	keystroke_e	e	n/a
151.1935	0.135	302387	keystroke_s	s	n/a
151.4035	0.12	302807	keystroke_Key.enter	Key.enter	n/a
151.53	12.8355	303060	prompt	n/a	tyler institutes campaign maternity\n
152.469	0.06	304938	keystroke_t	t	n/a
152.604	0.0895	305208	keystroke_y	y	n/a
152.7085	0.15	305417	keystroke_l	l	n/a
152.874	0.014	305748	keystroke_r	r	n/a
153.279	0.135	306558	keystroke_Key.backspace	Key.backspace	n/a
153.399	0.15	306798	keystroke_e	e	n/a
153.4435	0.1505	306887	keystroke_r	r	n/a
153.878	0.1055	307756	keystroke_Key.space	Key.space	n/a
154.314	0.135	308628	keystroke_i	i	n/a
154.419	0.09	308838	keystroke_n	n	n/a
154.494	0.12	308988	keystroke_s	s	n/a
154.7635	0.12	309527	keystroke_t	t	n/a
154.899	0.1045	309798	keystroke_i	i	n/a
155.6785	0.15	311357	keystroke_t	t	n/a
155.8135	0.0305	311627	keystroke_u	u	n/a
155.9035	0.075	311807	keystroke_r	r	n/a
155.993	0.1655	311986	keystroke_e	e	n/a
156.189	0.0895	312378	keystroke_s	s	n/a
157.8535	0.075	315707	keystroke_Key.backspace	Key.backspace	n/a
158.0185	0.0455	316037	keystroke_Key.backspace	Key.backspace	n/a
158.139	0.0745	316278	keystroke_Key.backspace	Key.backspace	n/a
159.204	0.0445	318408	keystroke_t	t	n/a
159.279	0.1345	318558	keystroke_e	e	n/a
159.369	0.1645	318738	keystroke_s	s	n/a
159.714	0.1195	319428	keystroke_Key.space	Key.space	n/a
160.1645	0.089	320329	keystroke_c	c	n/a
160.239	0.1345	320478	keystroke_a	a	n/a
160.7935	0.15	321587	keystroke_m	m	n/a
160.9285	0.165	321857	keystroke_p	p	n/a
161.0035	0.105	322007	keystroke_a	a	n/a
161.2435	0.121	322487	keystroke_i	i	n/a
161.4695	0.1045	322939	keystroke_g	g	n/a
161.5745	0.1345	323149	keystroke_n	n	n/a
162.1285	0.1505	324257	keystroke_Key.space	Key.space	n/a
162.564	0.1345	325128	keystroke_m	m	n/a
162.6545	0.1045	325309	keystroke_a	a	n/a
162.8935	0.09	325787	keystroke_t	t	n/a
162.999	0.15	325998	keystroke_e	e	n/a
163.104	0.1345	326208	keystroke_r	r	n/a
163.374	0.1495	326748	keystroke_n	n	n/a
163.494	0.1795	326988	keystroke_i	i	n/a
163.659	0.105	327318	keystroke_t	t	n/a
163.8835	0.1195	327767	keystroke_y	y	n/a
164.274	0.09	328548	keystroke_Key.enter	Key.enter	n/a
164.3705	6.385	328741	prompt	n/a	lord users waiver jason\n
165.174	0.105	330348	keystroke_l	l	n/a
165.3245	0.1495	330649	keystroke_o	o	n/a
165.459	0.1355	330918	keystroke_r	r	n/a
165.669	0.12	331338	keystroke_d	d	n/a
165.939	0.1045	331878	keystroke_Key.space	Key.space	n/a
166.299	0.136	332598	keystroke_u	u	n/a
166.389	0.105	332778	keystroke_s	s	n/a
166.464	0.15	332928	keystroke_e	e	n/a
166.749	0.1195	333498	keystroke_r	r	n/a
167.064	0.1195	334128	keystroke_s	s	n/a
167.244	0.119	334488	keystroke_Key.space	Key.space	n/a
167.7235	0.1205	335447	keystroke_w	w	n/a
167.799	0.1345	335598	keystroke_a	a	n/a
168.0095	0.119	336019	keystroke_i	i	n/a
168.1295	0.104	336259	keystroke_v	v	n/a
168.2635	0.15	336527	keystroke_e	e	n/a
168.3845	0.1495	336769	keystroke_r	r	n/a
168.519	0.12	337038	keystroke_Key.space	Key.space	n/a
169.8385	0.1055	339677	keystroke_j	j	n/a
169.8845	0.1195	339769	keystroke_a	a	n/a
170.019	0.1195	340038	keystroke_s	s	n/a
170.1235	0.106	340247	keystroke_o	o	n/a
170.3635	0.1055	340727	keystroke_n	n	n/a
170.6185	0.135	341237	keystroke_Key.enter	Key.enter	n/a
170.76	11.0955	341520	prompt	n/a	happens adjustment centered hazardous\n
171.623	0.106	343246	keystroke_h	h	n/a
171.683	0.106	343366	keystroke_a	a	n/a
172.059	0.09	344118	keystroke_p	p	n/a
172.1635	0.1055	344327	keystroke_p	p	n/a
172.344	0.135	344688	keystroke_e	e	n/a
172.57	0.104	345140	keystroke_n	n	n/a
172.764	0.1055	345528	keystroke_s	s	n/a
173.0935	0.1195	346187	keystroke_Key.space	Key.space	n/a
173.469	0.0895	346938	keystroke_a	a	n/a
173.544	0.135	347088	keystroke_d	d	n/a
174.369	0.105	348738	keystroke_j	j	n/a
174.429	0.105	348858	keystroke_u	u	n/a
174.654	0.135	349308	keystroke_s	s	n/a
175.344	0.105	350688	keystroke_t	t	n/a
175.569	0.075	351138	keystroke_m	m	n/a
175.6585	0.075	351317	keystroke_e	e	n/a
175.749	0.1195	351498	keystroke_n	n	n/a
175.944	0.09	351888	keystroke_t	t	n/a
176.258	0.1055	352516	keystroke_Key.space	Key.space	n/a
176.634	0.1045	353268	keystroke_c	c	n/a
176.844	0.09	353688	keystroke_e	e	n/a
176.9795	0.119	353959	keystroke_n	n	n/a
177.129	0.09	354258	keystroke_t	t	n/a
177.279	0.15	354558	keystroke_e	e	n/a
177.519	0.0895	355038	keystroke_r	r	n/a
177.6685	0.091	355337	keystroke_e	e	n/a
177.8635	0.075	355727	keystroke_d	d	n/a
178.0585	0.121	356117	keystroke_Key.space	Key.space	n/a
178.7935	0.105	357587	keystroke_h	h	n/a
178.839	0.1355	357678	keystroke_a	a	n/a
179.0635	0.12	358127	keystroke_z	z	n/a
179.318	0.0905	358636	keystroke_a	a	n/a
179.904	0.1045	359808	keystroke_r	r	n/a
180.294	0.09	360588	keystroke_d	d	n/a
180.429	0.105	360858	keystroke_o	o	n/a
180.684	0.105	361368	keystroke_u	u	n/a
180.759	0.12	361518	keystroke_r	r	n/a
181.3895	0.104	362779	keystroke_Key.backspace	Key.backspace	n/a
181.4635	0.12	362927	keystroke_s	s	n/a
181.7335	0.1205	363467	keystroke_Key.enter	Key.enter	n/a
181.86	8.561	363720	prompt	n/a	wound tramadol dish regulations\n
182.724	0.135	365448	keystroke_w	w	n/a
182.8735	0.1055	365747	keystroke_o	o	n/a
183.144	0.1345	366288	keystroke_u	u	n/a
183.2185	0.075	366437	keystroke_n	n	n/a
183.2635	0.165	366527	keystroke_d	d	n/a
183.4885	0.1345	366977	keystroke_Key.space	Key.space	n/a
184.1035	0.09	368207	keystroke_t	t	n/a
184.2985	0.0905	368597	keystroke_r	r	n/a
184.404	0.1195	368808	keystroke_a	a	n/a
184.659	0.105	369318	keystroke_d	d	n/a
185.004	0.1045	370008	keystroke_Key.backspace	Key.backspace	n/a
185.259	0.164	370518	keystroke_m	m	n/a
185.3335	0.1205	370667	keystroke_a	a	n/a
185.7085	0.105	371417	keystroke_d	d	n/a
185.9935	0.105	371987	keystroke_o	o	n/a
186.2035	0.135	372407	keystroke_l	l	n/a
186.9835	0.09	373967	keystroke_Key.space	Key.space	n/a
187.239	0.119	374478	keystroke_d	d	n/a
187.418	0.1205	374836	keystroke_i	i	n/a
187.524	0.1205	375048	keystroke_s	s	n/a
187.7035	0.15	375407	keystroke_h	h	n/a
187.899	0.1495	375798	keystroke_Key.space	Key.space	n/a
188.484	0.1055	376968	keystroke_r	r	n/a
188.5435	0.136	377087	keystroke_e	e	n/a
189.0385	0.075	378077	keystroke_g	g	n/a
189.0835	0.12	378167	keystroke_u	u	n/a
189.2935	0.135	378587	keystroke_l	l	n/a
189.3535	0.105	378707	keystroke_a	a	n/a
189.5185	0.1355	379037	keystroke_t	t	n/a
189.6235	0.15	379247	keystroke_i	i	n/a
189.684	0.21	379368	keystroke_o	o	n/a
189.819	0.135	379638	keystroke_n	n	n/a
189.969	0.135	379938	keystroke_s	s	n/a
190.284	0.135	380568	keystroke_Key.enter	Key.enter	n/a
190.425	5.5905	380850	prompt	n/a	collar minute cart argue\n
191.094	0.121	382188	keystroke_c	c	n/a
191.169	0.09	382338	keystroke_o	o	n/a
191.364	0.075	382728	keystroke_l	l	n/a
191.485	0.104	382970	keystroke_l	l	n/a
191.5735	0.1505	383147	keystroke_a	a	n/a
191.739	0.1195	383478	keystroke_r	r	n/a
192.1735	0.12	384347	keystroke_Key.space	Key.space	n/a
192.714	0.12	385428	keystroke_m	m	n/a
192.7735	0.1655	385547	keystroke_i	i	n/a
193.059	0.1195	386118	keystroke_n	n	n/a
193.088	0.181	386176	keystroke_u	u	n/a
193.2235	0.09	386447	keystroke_t	t	n/a
193.3585	0.1505	386717	keystroke_e	e	n/a
193.569	0.1345	387138	keystroke_Key.space	Key.space	n/a
193.869	0.09	387738	keystroke_c	c	n/a
193.989	0.1195	387978	keystroke_a	a	n/a
194.1535	0.135	388307	keystroke_r	r	n/a
194.349	0.1195	388698	keystroke_t	t	n/a
194.4835	0.105	388967	keystroke_Key.space	Key.space	n/a
194.724	0.105	389448	keystroke_a	a	n/a
195.1135	0.0905	390227	keystroke_r	r	n/a
195.4135	0.105	390827	keystroke_g	g	n/a
195.5035	0.0905	391007	keystroke_u	u	n/a
195.6385	0.1205	391277	keystroke_e	e	n/a
195.8635	0.15	391727	keystroke_Key.enter	Key.enter	n/a
196.02	10.0905	392040	prompt	n/a	courtesy apparent hack billy\n
196.6135	0.1205	393227	keystroke_c	c	n/a
196.824	0.12	393648	keystroke_o	o	n/a
197.079	0.135	394158	keystroke_u	u	n/a
198.2035	0.12	396407	keystroke_r	r	n/a
198.459	0.09	396918	keystroke_t	t	n/a
198.564	0.12	397128	keystroke_e	e	n/a
199.163	0.121	398326	keystroke_s	s	n/a
199.344	0.1345	398688	keystroke_y	y	n/a
199.554	0.15	399108	keystroke_Key.space	Key.space	n/a
199.853	0.12	399706	keystroke_a	a	n/a
200.213	0.076	400426	keystroke_p	p	n/a
200.3485	0.1655	400697	keystroke_p	p	n/a
201.6385	0.003	403277	keystroke_r	r	n/a
201.6455	0.003	403291	keystroke_e	e	n/a
201.6505	0.003	403301	keystroke_n	n	n/a
202.3435	0.12	404687	keystroke_t	t	n/a
203.0485	0.12	406097	keystroke_Key.space	Key.space	n/a
203.7385	0.105	407477	keystroke_h	h	n/a
203.7835	0.105	407567	keystroke_a	a	n/a
203.933	0.1205	407866	keystroke_c	c	n/a
204.038	0.12	408076	keystroke_k	k	n/a
204.233	0.121	408466	keystroke_Key.space	Key.space	n/a
204.565	0.1185	409130	keystroke_s	s	n/a
204.983	0.106	409966	keystroke_Key.backspace	Key.backspace	n/a
205.254	0.0895	410508	keystroke_b	b	n/a
205.3735	0.105	410747	keystroke_i	i	n/a
205.584	0.075	411168	keystroke_l	l	n/a
205.7185	0.1045	411437	keystroke_l	l	n/a
205.779	0.1495	411558	keystroke_y	y	n/a
205.988	0.1205	411976	keystroke_Key.enter	Key.enter	n/a
206.115	16.9155	412230	prompt	n/a	occupational germany garbage inappropriate\n
207.0685	0.09	414137	keystroke_c	c	n/a
207.4135	0.09	414827	keystroke_Key.backspace	Key.backspace	n/a
207.639	0.12	415278	keystroke_o	o	n/a
207.745	0.089	415490	keystroke_c	c	n/a
207.939	0.105	415878	keystroke_c	c	n/a
208.553	0.091	417106	keystroke_u	u	n/a
208.8085	0.135	417617	keystroke_p	p	n/a
208.883	0.1205	417766	keystroke_a	a	n/a
209.1545	0.119	418309	keystroke_t	t	n/a
209.2445	0.1045	418489	keystroke_i	i	n/a
209.3195	0.149	418639	keystroke_o	o	n/a
209.4535	0.1355	418907	keystroke_n	n	n/a
209.5735	0.046	419147	keystroke_s	s	n/a
209.934	0.0895	419868	keystroke_Key.backspace	Key.backspace	n/a
210.054	0.1045	420108	keystroke_a	a	n/a
210.2035	0.15	420407	keystroke_l	l	n/a
210.849	0.1345	421698	keystroke_Key.space	Key.space	n/a
211.3595	0.03	422719	keystroke_g	g	n/a
211.4195	0.164	422839	keystroke_e	e	n/a
211.5385	0.1055	423077	keystroke_r	r	n/a
211.719	0.12	423438	keystroke_m	m	n/a
211.824	0.105	423648	keystroke_a	a	n/a
211.9435	0.105	423887	keystroke_n	n	n/a
212.244	0.15	424488	keystroke_y	y	n/a
212.7235	0.1355	425447	keystroke_Key.space	Key.space	n/a
216.37	0.0135	432740	keystroke_g	g	n/a
216.444	0.1195	432888	keystroke_a	a	n/a
216.5785	0.0895	433157	keystroke_r	r	n/a
216.864	0.149	433728	keystroke_b	b	n/a
216.924	0.1195	433848	keystroke_a	a	n/a
217.3595	0.104	434719	keystroke_g	g	n/a
217.4795	0.104	434959	keystroke_e	e	n/a
218.049	0.105	436098	keystroke_Key.space	Key.space	n/a
218.424	0.1045	436848	keystroke_i	i	n/a
218.559	0.1205	437118	keystroke_n	n	n/a
218.664	0.1045	437328	keystroke_a	a	n/a
218.8585	0.12	437717	keystroke_a	a	n/a
219.4135	0.1205	438827	keystroke_Key.backspace	Key.backspace	n/a
220.1485	0.06	440297	keystroke_p	p	n/a
220.299	0.0895	440598	keystroke_p	p	n/a
220.419	0.135	440838	keystroke_r	r	n/a
220.6735	0.1205	441347	keystroke_o	o	n/a
221.439	0.105	442878	keystroke_p	p	n/a
221.9935	0.105	443987	keystroke_r	r	n/a
222.1585	0.135	444317	keystroke_i	i	n/a
222.2335	0.15	444467	keystroke_a	a	n/a
222.4885	0.0905	444977	keystroke_t	t	n/a
222.579	0.1195	445158	keystroke_e	e	n/a
222.894	0.1345	445788	keystroke_Key.enter	Key.enter	n/a
223.036	10.885	446072	prompt	n/a	passenger acids outsourcing wrapped\n
223.808	0.106	447616	keystroke_p	p	n/a
223.868	0.1515	447736	keystroke_a	a	n/a
223.9435	0.1205	447887	keystroke_s	s	n/a
224.154	0.165	448308	keystroke_s	s	n/a
224.289	0.135	448578	keystroke_e	e	n/a
224.754	0.105	449508	keystroke_n	n	n/a
224.844	0.09	449688	keystroke_g	g	n/a
225.039	0.2245	450078	keystroke_e	e	n/a
225.2335	0.12	450467	keystroke_r	r	n/a
225.534	0.1045	451068	keystroke_Key.space	Key.space	n/a
225.6995	0.119	451399	keystroke_a	a	n/a
226.119	0.09	452238	keystroke_c	c	n/a
226.164	0.105	452328	keystroke_i	i	n/a
226.374	0.135	452748	keystroke_d	d	n/a
226.539	0.135	453078	keystroke_s	s	n/a
226.869	0.12	453738	keystroke_Key.space	Key.space	n/a
227.5735	0.1195	455147	keystroke_o	o	n/a
227.844	0.1345	455688	keystroke_u	u	n/a
227.934	0.1055	455868	keystroke_t	t	n/a
228.9085	0.15	457817	keystroke_s	s	n/a
229.0435	0.0905	458087	keystroke_o	o	n/a
229.899	0.1055	459798	keystroke_u	u	n/a
229.989	0.1195	459978	keystroke_c	c	n/a
230.2435	0.1205	460487	keystroke_i	i	n/a
230.454	0.12	460908	keystroke_n	n	n/a
230.559	0.105	461118	keystroke_g	g	n/a
230.829	0.12	461658	keystroke_Key.space	Key.space	n/a
231.1285	0.1045	462257	keystroke_w	w	n/a
231.564	0.105	463128	keystroke_r	r	n/a
231.7135	0.1055	463427	keystroke_a	a	n/a
232.3285	0.075	464657	keystroke_p	p	n/a
232.4635	0.1205	464927	keystroke_p	p	n/a
232.494	0.12	464988	keystroke_e	e	n/a
232.6895	0.1795	465379	keystroke_d	d	n/a
233.769	0.149	467538	keystroke_Key.enter	Key.enter	n/a
233.9255	6.775	467851	prompt	n/a	roulette racing watched colored\n
234.7135	0.0895	469427	keystroke_r	r	n/a
234.788	0.12	469576	keystroke_o	o	n/a
234.9835	0.1345	469967	keystroke_u	u	n/a
235.1035	0.06	470207	keystroke_t	t	n/a
235.404	0.0745	470808	keystroke_Key.backspace	Key.backspace	n/a
235.6135	0.135	471227	keystroke_l	l	n/a
235.6885	0.1195	471377	keystroke_e	e	n/a
235.9135	0.0755	471827	keystroke_t	t	n/a
236.0635	0.1055	472127	keystroke_t	t	n/a
236.183	0.165	472366	keystroke_e	e	n/a
236.378	0.136	472756	keystroke_Key.space	Key.space	n/a
236.7985	0.105	473597	keystroke_r	r	n/a
236.889	0.12	473778	keystroke_a	a	n/a
237.084	0.1045	474168	keystroke_c	c	n/a
237.2045	0.119	474409	keystroke_i	i	n/a
237.369	0.105	474738	keystroke_n	n	n/a
237.4435	0.09	474887	keystroke_g	g	n/a
237.609	0.1345	475218	keystroke_Key.space	Key.space	n/a
237.8935	0.1655	475787	keystroke_w	w	n/a
237.9685	0.1055	475937	keystroke_a	a	n/a
238.209	0.105	476418	keystroke_t	t	n/a
238.449	0.1195	476898	keystroke_c	c	n/a
238.5835	0.091	477167	keystroke_h	h	n/a
238.643	0.1365	477286	keystroke_e	e	n/a
238.854	0.1345	477708	keystroke_d	d	n/a
239.0185	0.15	478037	keystroke_Key.space	Key.space	n/a
239.3635	0.105	478727	keystroke_c	c	n/a
239.4835	0.09	478967	keystroke_o	o	n/a
239.679	0.09	479358	keystroke_l	l	n/a
239.8285	0.1945	479657	keystroke_o	o	n/a
239.964	0.1195	479928	keystroke_r	r	n/a
240.1135	0.1355	480227	keystroke_e	e	n/a
240.3235	0.135	480647	keystroke_d	d	n/a
240.5335	0.165	481067	keystroke_Key.enter	Key.enter	n/a
240.7045	6.551	481409	prompt	n/a	kids arrange jaguar counter\n
241.4635	0.12	482927	keystroke_k	k	n/a
241.524	0.1345	483048	keystroke_i	i	n/a
241.5845	0.119	483169	keystroke_d	d	n/a
241.6885	0.165	483377	keystroke_s	s	n/a
241.868	0.151	483736	keystroke_Key.space	Key.space	n/a
242.078	0.1365	484156	keystroke_a	a	n/a
242.2585	0.1355	484517	keystroke_r	r	n/a
242.409	0.1045	484818	keystroke_a	a	n/a
242.7835	0.15	485567	keystroke_Key.backspace	Key.backspace	n/a
242.919	0.0895	485838	keystroke_r	r	n/a
243.0235	0.1055	486047	keystroke_a	a	n/a
243.5635	0.12	487127	keystroke_n	n	n/a
243.699	0.0895	487398	keystroke_g	g	n/a
243.819	0.195	487638	keystroke_e	e	n/a
244.044	0.135	488088	keystroke_Key.space	Key.space	n/a
244.749	0.105	489498	keystroke_j	j	n/a
244.839	0.104	489678	keystroke_a	a	n/a
245.2285	0.091	490457	keystroke_g	g	n/a
245.3345	0.119	490669	keystroke_u	u	n/a
245.4545	0.105	490909	keystroke_a	a	n/a
245.6035	0.1205	491207	keystroke_r	r	n/a
245.799	0.165	491598	keystroke_Key.space	Key.space	n/a
246.234	0.135	492468	keystroke_c	c	n/a
246.339	0.105	492678	keystroke_o	o	n/a
246.5785	0.1655	493157	keystroke_u	u	n/a
246.6685	0.1055	493337	keystroke_n	n	n/a
246.7285	0.1055	493457	keystroke_t	t	n/a
246.848	0.1655	493696	keystroke_e	e	n/a
246.939	0.1345	493878	keystroke_r	r	n/a
247.1185	0.135	494237	keystroke_Key.enter	Key.enter	n/a
247.2595	8.9505	494519	prompt	n/a	trigger query reprint kentucky\n
248.0485	0.1055	496097	keystroke_t	t	n/a
248.259	0.12	496518	keystroke_r	r	n/a
248.3935	0.1055	496787	keystroke_i	i	n/a
248.649	0.045	497298	keystroke_g	g	n/a
248.663	0.046	497326	keystroke_f	f	n/a
249.2485	0.1355	498497	keystroke_Key.backspace	Key.backspace	n/a
249.3385	0.0905	498677	keystroke_g	g	n/a
249.474	0.255	498948	keystroke_e	e	n/a
249.639	0.1345	499278	keystroke_r	r	n/a
249.909	0.12	499818	keystroke_s	s	n/a
250.2535	0.1355	500507	keystroke_Key.backspace	Key.backspace	n/a
250.404	0.135	500808	keystroke_Key.space	Key.space	n/a
250.944	0.1045	501888	keystroke_q	q	n/a
251.109	0.1045	502218	keystroke_u	u	n/a
251.1985	0.1505	502397	keystroke_e	e	n/a
251.9935	0.12	503987	keystroke_r	r	n/a
252.0685	0.1205	504137	keystroke_y	y	n/a
252.279	0.1495	504558	keystroke_Key.space	Key.space	n/a
252.774	0.09	505548	keystroke_r	r	n/a
252.834	0.135	505668	keystroke_e	e	n/a
253.059	0.134	506118	keystroke_p	p	n/a
253.239	0.135	506478	keystroke_r	r	n/a
253.3435	0.1655	506687	keystroke_i	i	n/a
253.5835	0.1205	507167	keystroke_n	n	n/a
253.643	0.1505	507286	keystroke_t	t	n/a
253.8385	0.165	507677	keystroke_Key.space	Key.space	n/a
254.514	0.105	509028	keystroke_k	k	n/a
254.589	0.12	509178	keystroke_e	e	n/a
254.7835	0.1355	509567	keystroke_n	n	n/a
254.9785	0.1205	509957	keystroke_t	t	n/a
255.114	0.12	510228	keystroke_u	u	n/a
255.3235	0.121	510647	keystroke_c	c	n/a
255.414	0.12	510828	keystroke_k	k	n/a
255.6845	0.0895	511369	keystroke_y	y	n/a
256.1035	0.105	512207	keystroke_Key.enter	Key.enter	n/a
256.2135	7.903	512427	prompt	n/a	olive women conspiracy we've\n
257.213	0.0605	514426	keystroke_o	o	n/a
257.3485	0.075	514697	keystroke_l	l	n/a
257.4985	0.1505	514997	keystroke_i	i	n/a
257.618	0.105	515236	keystroke_v	v	n/a
257.664	0.165	515328	keystroke_e	e	n/a
257.904	0.1195	515808	keystroke_Key.space	Key.space	n/a
258.159	0.1195	516318	keystroke_w	w	n/a
258.2485	0.105	516497	keystroke_o	o	n/a
258.4285	0.105	516857	keystroke_m	m	n/a
258.5035	0.1355	517007	keystroke_e	e	n/a
258.624	0.135	517248	keystroke_n	n	n/a
258.774	0.1345	517548	keystroke_Key.space	Key.space	n/a
259.133	0.106	518266	keystroke_c	c	n/a
259.253	0.1205	518506	keystroke_o	o	n/a
259.4935	0.12	518987	keystroke_n	n	n/a
259.5835	0.1055	519167	keystroke_s	s	n/a
259.899	0.1345	519798	keystroke_p	p	n/a
260.1385	0.135	520277	keystroke_i	i	n/a
260.3035	0.12	520607	keystroke_r	r	n/a
260.4535	0.0905	520907	keystroke_a	a	n/a
260.649	0.12	521298	keystroke_c	c	n/a
260.799	0.119	521598	keystroke_y	y	n/a
261.084	0.1195	522168	keystroke_Key.space	Key.space	n/a
261.369	0.1495	522738	keystroke_w	w	n/a
261.415	0.149	522830	keystroke_e	e	n/a
261.819	0.15	523638	keystroke_'	'	n/a
261.999	0.12	523998	keystroke_b	b	n/a
262.104	0.105	524208	keystroke_e	e	n/a
262.7785	0.075	525557	keystroke_Key.backspace	Key.backspace	n/a
262.9435	0.105	525887	keystroke_Key.backspace	Key.backspace	n/a
263.6185	0.136	527237	keystroke_v	v	n/a
263.709	0.135	527418	keystroke_e	e	n/a
263.9785	0.135	527957	keystroke_Key.enter	Key.enter	n/a
264.1365	7.764	528273	prompt	n/a	taiwan solving deadline reduction\n
265.0135	0.09	530027	keystroke_t	t	n/a
265.1635	0.12	530327	keystroke_a	a	n/a
265.2835	0.12	530567	keystroke_i	i	n/a
265.4785	0.15	530957	keystroke_w	w	n/a
265.5535	0.15	531107	keystroke_a	a	n/a
265.6885	0.105	531377	keystroke_n	n	n/a
265.8995	0.149	531799	keystroke_Key.space	Key.space	n/a
266.3035	0.12	532607	keystroke_s	s	n/a
266.4085	0.075	532817	keystroke_o	o	n/a
266.5735	0.105	533147	keystroke_l	l	n/a
266.8135	0.075	533627	keystroke_v	v	n/a
266.949	0.104	533898	keystroke_i	i	n/a
267.143	0.135	534286	keystroke_n	n	n/a
267.219	0.149	534438	keystroke_g	g	n/a
267.428	0.151	534856	keystroke_Key.space	Key.space	n/a
267.878	0.091	535756	keystroke_d	d	n/a
268.059	0.09	536118	keystroke_e	e	n/a
268.193	0.137	536386	keystroke_a	a	n/a
268.298	0.151	536596	keystroke_d	d	n/a
268.9735	0.0745	537947	keystroke_l	l	n/a
269.1385	0.1355	538277	keystroke_i	i	n/a
269.304	0.119	538608	keystroke_n	n	n/a
269.393	0.151	538786	keystroke_e	e	n/a
269.559	0.119	539118	keystroke_Key.space	Key.space	n/a
269.768	0.106	539536	keystroke_r	r	n/a
269.829	0.134	539658	keystroke_e	e	n/a
270.024	0.149	540048	keystroke_d	d	n/a
270.204	0.119	540408	keystroke_i	i	n/a
270.563	0.075	541126	keystroke_Key.backspace	Key.backspace	n/a
270.803	0.12	541606	keystroke_u	u	n/a
270.878	0.105	541756	keystroke_c	c	n/a
271.134	0.119	542268	keystroke_t	t	n/a
271.239	0.164	542478	keystroke_i	i	n/a
271.313	0.211	542626	keystroke_o	o	n/a
271.463	0.1355	542926	keystroke_n	n	n/a
271.763	0.1355	543526	keystroke_Key.enter	Key.enter	n/a
271.909	8.241	543818	prompt	n/a	launched mpegs insider vsnet\n
272.7085	0.105	545417	keystroke_l	l	n/a
272.7685	0.105	545537	keystroke_a	a	n/a
272.9635	0.15	545927	keystroke_u	u	n/a
273.0685	0.09	546137	keystroke_n	n	n/a
273.294	0.0445	546588	keystroke_c	c	n/a
273.5035	0.12	547007	keystroke_h	h	n/a
273.6085	0.12	547217	keystroke_e	e	n/a
273.8185	0.1645	547637	keystroke_d	d	n/a
273.998	0.12	547996	keystroke_Key.space	Key.space	n/a
274.523	0.105	549046	keystroke_m	m	n/a
274.658	0.136	549316	keystroke_p	p	n/a
274.823	0.151	549646	keystroke_e	e	n/a
275.169	0.104	550338	keystroke_g	g	n/a
275.363	0.12	550726	keystroke_s	s	n/a
275.783	0.121	551566	keystroke_Key.space	Key.space	n/a
276.579	0.194	553158	keystroke_i	i	n/a
276.7445	0.1195	553489	keystroke_n	n	n/a
276.879	0.135	553758	keystroke_s	s	n/a
276.984	0.1345	553968	keystroke_i	i	n/a
277.2235	0.0905	554447	keystroke_d	d	n/a
277.4335	0.105	554867	keystroke_e	e	n/a
277.8985	0.1055	555797	keystroke_r	r	n/a
278.168	0.1055	556336	keystroke_Key.space	Key.space	n/a
279.2035	0.06	558407	keystroke_v	v	n/a
279.2935	0.1055	558587	keystroke_s	s	n/a
279.4885	0.09	558977	keystroke_n	n	n/a
279.5935	0.12	559187	keystroke_e	e	n/a
279.8185	0.12	559637	keystroke_t	t	n/a
280.0435	0.1045	560087	keystroke_Key.enter	Key.enter	n/a
280.1545	10.1805	560309	prompt	n/a	accreditation increases citation contact\n
280.9585	0.15	561917	keystroke_a	a	n/a
281.1835	0.0905	562367	keystroke_c	c	n/a
281.3635	0.075	562727	keystroke_c	c	n/a
281.543	0.1355	563086	keystroke_r	r	n/a
281.6485	0.135	563297	keystroke_e	e	n/a
282.278	0.1055	564556	keystroke_d	d	n/a
282.398	0.1205	564796	keystroke_i	i	n/a
282.609	0.0895	565218	keystroke_t	t	n/a
282.7435	0.12	565487	keystroke_a	a	n/a
283.1635	0.12	566327	keystroke_t	t	n/a
283.2985	0.1655	566597	keystroke_i	i	n/a
283.3585	0.1955	566717	keystroke_o	o	n/a
283.5385	0.165	567077	keystroke_n	n	n/a
283.9135	0.1345	567827	keystroke_Key.space	Key.space	n/a
284.303	0.151	568606	keystroke_i	i	n/a
284.439	0.149	568878	keystroke_n	n	n/a
284.5585	0.09	569117	keystroke_c	c	n/a
284.7835	0.105	569567	keystroke_r	r	n/a
284.8585	0.12	569717	keystroke_e	e	n/a
285.0235	0.165	570047	keystroke_a	a	n/a
285.1285	0.2105	570257	keystroke_s	s	n/a
285.34	0.118	570680	keystroke_e	e	n/a
286.074	0.105	572148	keystroke_s	s	n/a
286.6135	0.1045	573227	keystroke_Key.space	Key.space	n/a
287.0785	0.075	574157	keystroke_c	c	n/a
287.3335	0.1355	574667	keystroke_i	i	n/a
287.3935	0.09	574787	keystroke_t	t	n/a
287.5435	0.075	575087	keystroke_a	a	n/a
287.7685	0.12	575537	keystroke_t	t	n/a
287.8735	0.166	575747	keystroke_i	i	n/a
287.9485	0.165	575897	keystroke_o	o	n/a
288.0835	0.165	576167	keystroke_n	n	n/a
288.3985	0.15	576797	keystroke_Key.space	Key.space	n/a
288.804	0.1195	577608	keystroke_c	c	n/a
288.9085	0.1355	577817	keystroke_o	o	n/a
289.1185	0.1355	578237	keystroke_n	n	n/a
289.2235	0.09	578447	keystroke_t	t	n/a
289.4485	0.12	578897	keystroke_a	a	n/a
289.764	0.075	579528	keystroke_c	c	n/a
289.944	0.104	579888	keystroke_t	t	n/a
290.2135	0.12	580427	keystroke_Key.enter	Key.enter	n/a
290.34	8.1105	580680	prompt	n/a	inspiration inner font timber\n
291.249	0.1495	582498	keystroke_i	i	n/a
291.338	0.135	582676	keystroke_n	n	n/a
291.4585	0.1505	582917	keystroke_s	s	n/a
291.639	0.15	583278	keystroke_p	p	n/a
291.8935	0.1655	583787	keystroke_i	i	n/a
292.4335	0.12	584867	keystroke_r	r	n/a
292.5695	0.089	585139	keystroke_a	a	n/a
292.7335	0.105	585467	keystroke_t	t	n/a
292.8245	0.074	585649	keystroke_i	i	n/a
292.8535	0.2105	585707	keystroke_o	o	n/a
292.9885	0.1345	585977	keystroke_n	n	n/a
293.3185	0.1345	586637	keystroke_Key.space	Key.space	n/a
293.784	0.1045	587568	keystroke_i	i	n/a
293.949	0.09	587898	keystroke_n	n	n/a
294.0685	0.12	588137	keystroke_n	n	n/a
294.458	0.1505	588916	keystroke_e	e	n/a
294.8785	0.09	589757	keystroke_Key.backspace	Key.backspace	n/a
295.433	0.2255	590866	keystroke_e	e	n/a
295.6435	0.03	591287	keystroke_r	r	n/a
295.8385	0.12	591677	keystroke_Key.space	Key.space	n/a
296.273	0.105	592546	keystroke_f	f	n/a
296.349	0.12	592698	keystroke_o	o	n/a
296.558	0.1505	593116	keystroke_n	n	n/a
296.634	0.12	593268	keystroke_t	t	n/a
296.7685	0.12	593537	keystroke_Key.space	Key.space	n/a
297.249	0.1045	594498	keystroke_t	t	n/a
297.339	0.15	594678	keystroke_i	i	n/a
297.458	0.0905	594916	keystroke_m	m	n/a
297.8185	0.09	595637	keystroke_b	b	n/a
297.9385	0.165	595877	keystroke_e	e	n/a
298.0135	0.135	596027	keystroke_r	r	n/a
298.328	0.12	596656	keystroke_Key.enter	Key.enter	n/a
298.455	13.2855	596910	prompt	n/a	karl tropical forth artwork\n
299.4985	0.1205	598997	keystroke_k	k	n/a
299.5585	0.12	599117	keystroke_a	a	n/a
299.6635	0.135	599327	keystroke_r	r	n/a
299.784	0.1345	599568	keystroke_l	l	n/a
299.9635	0.15	599927	keystroke_Key.space	Key.space	n/a
300.4135	0.105	600827	keystroke_t	t	n/a
300.6085	0.09	601217	keystroke_p	p	n/a
301.5235	0.1045	603047	keystroke_Key.backspace	Key.backspace	n/a
301.9135	0.0755	603827	keystroke_r	r	n/a
302.3485	0.1195	604697	keystroke_o	o	n/a
302.784	0.0745	605568	keystroke_p	p	n/a
303.0535	0.06	606107	keystroke_i	i	n/a
303.128	0.106	606256	keystroke_c	c	n/a
303.264	0.12	606528	keystroke_a	a	n/a
303.489	0.1345	606978	keystroke_l	l	n/a
304.3585	0.09	608717	keystroke_f	f	n/a
304.464	0.1195	608928	keystroke_o	o	n/a
304.5685	0.105	609137	keystroke_r	r	n/a
304.7485	0.12	609497	keystroke_t	t	n/a
304.8085	0.135	609617	keystroke_h	h	n/a
305.2285	0.075	610457	keystroke_Key.backspace	Key.backspace	n/a
305.3935	0.045	610787	keystroke_Key.backspace	Key.backspace	n/a
305.5135	0.06	611027	keystroke_Key.backspace	Key.backspace	n/a
305.634	0.1045	611268	keystroke_Key.backspace	Key.backspace	n/a
305.993	0.135	611986	keystroke_Key.space	Key.space	n/a
306.278	0.0755	612556	keystroke_Key.backspace	Key.backspace	n/a
306.4135	0.1195	612827	keystroke_Key.backspace	Key.backspace	n/a
306.578	0.1205	613156	keystroke_Key.space	Key.space	n/a
307.494	0.0745	614988	keystroke_f	f	n/a
307.583	0.0905	615166	keystroke_o	o	n/a
307.688	0.105	615376	keystroke_r	r	n/a
307.8535	0.15	615707	keystroke_t	t	n/a
307.9435	0.12	615887	keystroke_h	h	n/a
308.139	0.1345	616278	keystroke_Key.space	Key.space	n/a
308.5135	0.12	617027	keystroke_a	a	n/a
308.919	0.105	617838	keystroke_r	r	n/a
309.069	0.12	618138	keystroke_t	t	n/a
309.324	0.134	618648	keystroke_w	w	n/a
309.4135	0.0595	618827	keystroke_a	a	n/a
309.5185	0.12	619037	keystroke_o	o	n/a
310.254	0.0895	620508	keystroke_Key.backspace	Key.backspace	n/a
310.4035	0.135	620807	keystroke_Key.backspace	Key.backspace	n/a
311.169	0.1045	622338	keystroke_o	o	n/a
311.2435	0.135	622487	keystroke_r	r	n/a
311.3635	0.1205	622727	keystroke_k	k	n/a
311.633	0.106	623266	keystroke_Key.enter	Key.enter	n/a
311.744	8.0065	623488	prompt	n/a	charitable till wealth stud\n
312.4885	0.0905	624977	keystroke_c	c	n/a
312.638	0.106	625276	keystroke_h	h	n/a
312.6985	0.12	625397	keystroke_a	a	n/a
312.8935	0.1205	625787	keystroke_r	r	n/a
313.3585	0.1205	626717	keystroke_i	i	n/a
313.4635	0.0905	626927	keystroke_a	a	n/a
313.8385	0.1195	627677	keystroke_Key.backspace	Key.backspace	n/a
313.944	0.0745	627888	keystroke_t	t	n/a
314.078	0.1055	628156	keystroke_a	a	n/a
314.363	0.106	628726	keystroke_b	b	n/a
314.9185	0.12	629837	keystroke_l	l	n/a
315.009	0.2245	630018	keystroke_e	e	n/a
315.3835	0.1355	630767	keystroke_Key.space	Key.space	n/a
315.6685	0.105	631337	keystroke_t	t	n/a
315.7585	0.105	631517	keystroke_i	i	n/a
316.0585	0.075	632117	keystroke_l	l	n/a
316.1935	0.09	632387	keystroke_l	l	n/a
316.3585	0.15	632717	keystroke_Key.space	Key.space	n/a
316.7335	0.135	633467	keystroke_w	w	n/a
317.2735	0.1355	634547	keystroke_e	e	n/a
317.529	0.045	635058	keystroke_a	a	n/a
317.8135	0.105	635627	keystroke_l	l	n/a
318.2935	0.09	636587	keystroke_t	t	n/a
318.3545	0.104	636709	keystroke_h	h	n/a
318.564	0.119	637128	keystroke_Key.space	Key.space	n/a
318.9385	0.1355	637877	keystroke_s	s	n/a
319.2245	0.0895	638449	keystroke_t	t	n/a
319.284	0.12	638568	keystroke_u	u	n/a
319.419	0.1945	638838	keystroke_d	d	n/a
319.6285	0.12	639257	keystroke_Key.enter	Key.enter	n/a
319.7545	12.326	639509	prompt	n/a	laptops suggestions expansion transform\n
320.589	0.089	641178	keystroke_l	l	n/a
320.6185	0.1195	641237	keystroke_a	a	n/a
320.8285	0.1195	641657	keystroke_p	p	n/a
321.084	0.1195	642168	keystroke_t	t	n/a
321.143	0.1505	642286	keystroke_o	o	n/a
321.2335	0.135	642467	keystroke_p	p	n/a
321.594	0.1195	643188	keystroke_s	s	n/a
321.939	0.15	643878	keystroke_Key.space	Key.space	n/a
322.5235	0.105	645047	keystroke_s	s	n/a
322.703	0.1205	645406	keystroke_u	u	n/a
322.9585	0.075	645917	keystroke_g	g	n/a
323.1385	0.06	646277	keystroke_g	g	n/a
323.2585	0.195	646517	keystroke_e	e	n/a
323.3485	0.15	646697	keystroke_s	s	n/a
323.4685	0.135	646937	keystroke_t	t	n/a
323.7085	0.1205	647417	keystroke_i	i	n/a
323.7535	0.1955	647507	keystroke_o	o	n/a
323.934	0.1345	647868	keystroke_n	n	n/a
324.233	0.0755	648466	keystroke_Key.space	Key.space	n/a
324.5485	0.135	649097	keystroke_Key.backspace	Key.backspace	n/a
324.6985	0.09	649397	keystroke_s	s	n/a
324.8035	0.165	649607	keystroke_Key.space	Key.space	n/a
325.689	0.1045	651378	keystroke_e	e	n/a
326.0935	0.09	652187	keystroke_x	x	n/a
326.2135	0.105	652427	keystroke_p	p	n/a
326.3785	0.106	652757	keystroke_a	a	n/a
326.8435	0.12	653687	keystroke_n	n	n/a
326.9645	0.0895	653929	keystroke_s	s	n/a
327.039	0.1045	654078	keystroke_i	i	n/a
327.083	0.1955	654166	keystroke_o	o	n/a
327.234	0.09	654468	keystroke_n	n	n/a
327.384	0.1495	654768	keystroke_Key.space	Key.space	n/a
327.8035	0.12	655607	keystroke_t	t	n/a
327.9385	0.12	655877	keystroke_r	r	n/a
328.1485	0.105	656297	keystroke_a	a	n/a
328.3585	0.135	656717	keystroke_n	n	n/a
328.5085	0.105	657017	keystroke_s	s	n/a
328.7635	0.09	657527	keystroke_o	o	n/a
328.9435	0.0755	657887	keystroke_f	f	n/a
329.408	0.075	658816	keystroke_Key.backspace	Key.backspace	n/a
329.5285	0.136	659057	keystroke_Key.backspace	Key.backspace	n/a
331.029	0.09	662058	keystroke_f	f	n/a
331.104	0.1045	662208	keystroke_o	o	n/a
331.239	0.1195	662478	keystroke_r	r	n/a
331.4335	0.0905	662867	keystroke_m	m	n/a
331.9435	0.135	663887	keystroke_Key.enter	Key.enter	n/a
332.085	7.99	664170	prompt	n/a	finances chemicals blocks diego\n
333.354	0.105	666708	keystroke_f	f	n/a
333.429	0.075	666858	keystroke_i	i	n/a
333.593	0.1055	667186	keystroke_n	n	n/a
333.6685	0.075	667337	keystroke_a	a	n/a
333.8185	0.12	667637	keystroke_n	n	n/a
333.984	0.1195	667968	keystroke_c	c	n/a
334.0885	0.1205	668177	keystroke_e	e	n/a
334.434	0.105	668868	keystroke_s	s	n/a
334.824	0.1045	669648	keystroke_Key.space	Key.space	n/a
335.0485	0.0905	670097	keystroke_c	c	n/a
335.153	0.105	670306	keystroke_h	h	n/a
335.274	0.1195	670548	keystroke_e	e	n/a
335.454	0.15	670908	keystroke_m	m	n/a
335.544	0.1195	671088	keystroke_i	i	n/a
335.664	0.1195	671328	keystroke_c	c	n/a
335.7985	0.12	671597	keystroke_a	a	n/a
335.9635	0.165	671927	keystroke_l	l	n/a
336.219	0.1195	672438	keystroke_s	s	n/a
336.5635	0.12	673127	keystroke_Key.space	Key.space	n/a
337.029	0.09	674058	keystroke_b	b	n/a
337.134	0.06	674268	keystroke_l	l	n/a
337.284	0.0895	674568	keystroke_o	o	n/a
337.329	0.1195	674658	keystroke_c	c	n/a
337.5235	0.121	675047	keystroke_k	k	n/a
338.1235	0.1205	676247	keystroke_s	s	n/a
338.363	0.1055	676726	keystroke_Key.space	Key.space	n/a
338.5735	0.1205	677147	keystroke_d	d	n/a
338.709	0.1335	677418	keystroke_i	i	n/a
338.8585	0.089	677717	keystroke_e	e	n/a
339.0825	0.106	678165	keystroke_g	g	n/a
339.488	0.1355	678976	keystroke_o	o	n/a
339.939	0.1345	679878	keystroke_Key.enter	Key.enter	n/a
340.081	10.5835	680162	prompt	n/a	water cardiovascular entitled replied\n
340.7485	0.1805	681497	keystroke_w	w	n/a
340.8685	0.09	681737	keystroke_a	a	n/a
341.019	0.1195	682038	keystroke_t	t	n/a
341.124	0.164	682248	keystroke_e	e	n/a
341.244	0.15	682488	keystroke_r	r	n/a
341.454	0.105	682908	keystroke_Key.space	Key.space	n/a
341.7835	0.045	683567	keystroke_c	c	n/a
341.8735	0.105	683747	keystroke_a	a	n/a
342.0385	0.1055	684077	keystroke_r	r	n/a
342.218	0.075	684436	keystroke_i	i	n/a
342.653	0.105	685306	keystroke_Key.backspace	Key.backspace	n/a
342.743	0.12	685486	keystroke_d	d	n/a
342.9085	0.105	685817	keystroke_i	i	n/a
343.8685	0.105	687737	keystroke_o	o	n/a
344.0035	0.075	688007	keystroke_v	v	n/a
344.1685	0.1655	688337	keystroke_a	a	n/a
344.2585	0.1505	688517	keystroke_s	s	n/a
344.9335	0.1055	689867	keystroke_c	c	n/a
345.009	0.105	690018	keystroke_u	u	n/a
345.2485	0.1345	690497	keystroke_l	l	n/a
345.7885	0.105	691577	keystroke_a	a	n/a
345.938	0.105	691876	keystroke_r	r	n/a
346.419	0.135	692838	keystroke_Key.space	Key.space	n/a
347.0635	0.1355	694127	keystroke_e	e	n/a
347.154	0.12	694308	keystroke_n	n	n/a
347.3485	0.135	694697	keystroke_t	t	n/a
347.484	0.1195	694968	keystroke_i	i	n/a
347.6485	0.12	695297	keystroke_t	t	n/a
347.8135	0.1355	695627	keystroke_e	e	n/a
348.249	0.09	696498	keystroke_Key.backspace	Key.backspace	n/a
348.5635	0.135	697127	keystroke_l	l	n/a
348.684	0.1345	697368	keystroke_e	e	n/a
348.8935	0.12	697787	keystroke_d	d	n/a
349.0435	0.1205	698087	keystroke_Key.space	Key.space	n/a
349.4335	0.09	698867	keystroke_r	r	n/a
349.478	0.12	698956	keystroke_e	e	n/a
349.7335	0.106	699467	keystroke_p	p	n/a
349.9585	0.075	699917	keystroke_l	l	n/a
350.1085	0.1645	700217	keystroke_i	i	n/a
350.2135	0.1055	700427	keystroke_e	e	n/a
350.379	0.119	700758	keystroke_d	d	n/a
350.514	0.1495	701028	keystroke_Key.enter	Key.enter	n/a
350.6685	11.0965	701337	prompt	n/a	establish category barely painful\n
351.3985	0.1655	702797	keystroke_e	e	n/a
351.489	0.15	702978	keystroke_s	s	n/a
351.774	0.0895	703548	keystroke_t	t	n/a
351.923	0.105	703846	keystroke_a	a	n/a
352.2235	0.0755	704447	keystroke_b	b	n/a
352.344	0.09	704688	keystroke_l	l	n/a
352.5535	0.135	705107	keystroke_i	i	n/a
352.6445	0.1195	705289	keystroke_s	s	n/a
352.809	0.135	705618	keystroke_h	h	n/a
353.1685	0.1495	706337	keystroke_Key.space	Key.space	n/a
353.9635	0.0155	707927	keystroke_c	c	n/a
354.864	0.105	709728	keystroke_a	a	n/a
355.359	0.09	710718	keystroke_t	t	n/a
355.539	0.1495	711078	keystroke_e	e	n/a
355.8535	0.105	711707	keystroke_g	g	n/a
355.9885	0.1355	711977	keystroke_o	o	n/a
356.1385	0.12	712277	keystroke_r	r	n/a
356.544	0.1345	713088	keystroke_y	y	n/a
357.4435	0.135	714887	keystroke_Key.space	Key.space	n/a
357.8335	0.0905	715667	keystroke_b	b	n/a
357.909	0.075	715818	keystroke_a	a	n/a
358.0285	0.135	716057	keystroke_r	r	n/a
358.1785	0.12	716357	keystroke_e	e	n/a
358.5235	0.1055	717047	keystroke_l	l	n/a
358.824	0.1195	717648	keystroke_y	y	n/a
359.0335	0.12	718067	keystroke_Key.space	Key.space	n/a
359.679	0.09	719358	keystroke_p	p	n/a
359.739	0.1195	719478	keystroke_a	a	n/a
359.9335	0.18	719867	keystroke_i	i	n/a
360.0985	0.1205	720197	keystroke_n	n	n/a
360.473	0.091	720946	keystroke_g	g	n/a
360.849	0.1045	721698	keystroke_Key.backspace	Key.backspace	n/a
360.9385	0.12	721877	keystroke_f	f	n/a
361.1035	0.12	722207	keystroke_u	u	n/a
361.3435	0.135	722687	keystroke_l	l	n/a
361.674	0.089	723348	keystroke_Key.enter	Key.enter	n/a
361.769	6.7765	723538	prompt	n/a	electrical be ideas rally\n
362.4685	0.105	724937	keystroke_e	e	n/a
362.6035	0.1195	725207	keystroke_l	l	n/a
362.6785	0.1045	725357	keystroke_e	e	n/a
362.874	0.1045	725748	keystroke_c	c	n/a
363.114	0.104	726228	keystroke_t	t	n/a
363.308	0.1205	726616	keystroke_r	r	n/a
363.413	0.1355	726826	keystroke_i	i	n/a
363.609	0.06	727218	keystroke_c	c	n/a
363.699	0.1195	727398	keystroke_a	a	n/a
363.8485	0.136	727697	keystroke_l	l	n/a
364.0885	0.12	728177	keystroke_Key.space	Key.space	n/a
364.614	0.0295	729228	keystroke_b	b	n/a
364.629	0.06	729258	keystroke_e	e	n/a
364.704	0.059	729408	keystroke_Key.space	Key.space	n/a
364.9885	0.075	729977	keystroke_i	i	n/a
365.003	0.0455	730006	keystroke_o	o	n/a
365.0185	0.09	730037	keystroke_d	d	n/a
365.184	0.1195	730368	keystroke_e	e	n/a
365.364	0.105	730728	keystroke_a	a	n/a
365.6785	0.06	731357	keystroke_Key.backspace	Key.backspace	n/a
365.7985	0.0595	731597	keystroke_Key.backspace	Key.backspace	n/a
365.948	0.0455	731896	keystroke_Key.backspace	Key.backspace	n/a
366.0685	0.075	732137	keystroke_Key.backspace	Key.backspace	n/a
366.203	0.09	732406	keystroke_d	d	n/a
366.8035	0.1505	733607	keystroke_e	e	n/a
366.969	0.2095	733938	keystroke_a	a	n/a
367.059	0.1795	734118	keystroke_s	s	n/a
367.388	0.1205	734776	keystroke_Key.space	Key.space	n/a
367.6735	0.105	735347	keystroke_r	r	n/a
367.793	0.0905	735586	keystroke_a	a	n/a
367.9585	0.09	735917	keystroke_l	l	n/a
368.124	0.12	736248	keystroke_l	l	n/a
368.229	0.119	736458	keystroke_y	y	n/a
368.393	0.15	736786	keystroke_Key.enter	Key.enter	n/a
368.5535	9.3515	737107	prompt	n/a	finland identification reflection dryer\n
369.789	0.105	739578	keystroke_f	f	n/a
369.849	0.149	739698	keystroke_i	i	n/a
369.9385	0.105	739877	keystroke_n	n	n/a
370.2085	0.135	740417	keystroke_l	l	n/a
370.298	0.09	740596	keystroke_a	a	n/a
370.4485	0.135	740897	keystroke_n	n	n/a
370.5685	0.1645	741137	keystroke_d	d	n/a
370.7785	0.1505	741557	keystroke_Key.space	Key.space	n/a
371.3785	0.1205	742757	keystroke_i	i	n/a
371.469	0.0755	742938	keystroke_d	d	n/a
371.619	0.1345	743238	keystroke_e	e	n/a
371.7235	0.135	743447	keystroke_n	n	n/a
372.234	0.1205	744468	keystroke_t	t	n/a
372.3835	0.105	744767	keystroke_i	i	n/a
372.6835	0.106	745367	keystroke_f	f	n/a
372.7435	0.12	745487	keystroke_i	i	n/a
373.0285	0.12	746057	keystroke_c	c	n/a
373.1335	0.105	746267	keystroke_a	a	n/a
373.3435	0.105	746687	keystroke_t	t	n/a
373.4185	0.135	746837	keystroke_i	i	n/a
373.4635	0.195	746927	keystroke_o	o	n/a
373.5985	0.15	747197	keystroke_n	n	n/a
373.9585	0.1355	747917	keystroke_Key.space	Key.space	n/a
374.1985	0.09	748397	keystroke_r	r	n/a
374.243	0.1505	748486	keystroke_e	e	n/a
374.544	0.1045	749088	keystroke_f	f	n/a
374.664	0.135	749328	keystroke_l	l	n/a
375.0985	0.135	750197	keystroke_e	e	n/a
375.2935	0.105	750587	keystroke_c	c	n/a
375.5185	0.1055	751037	keystroke_t	t	n/a
375.654	0.1495	751308	keystroke_i	i	n/a
375.714	0.1645	751428	keystroke_o	o	n/a
375.8185	0.1495	751637	keystroke_n	n	n/a
376.1335	0.12	752267	keystroke_Key.space	Key.space	n/a
376.614	0.1195	753228	keystroke_d	d	n/a
377.019	0.1045	754038	keystroke_r	r	n/a
377.094	0.1045	754188	keystroke_y	y	n/a
377.3035	0.15	754607	keystroke_e	e	n/a
377.4985	0.135	754997	keystroke_r	r	n/a
377.7835	0.1205	755567	keystroke_Key.enter	Key.enter	n/a
377.9085	12.702	755817	prompt	n/a	assessing torture focus minister\n
378.519	0.1345	757038	keystroke_a	a	n/a
378.594	0.1195	757188	keystroke_s	s	n/a
378.7885	0.15	757577	keystroke_s	s	n/a
379.1185	0.105	758237	keystroke_e	e	n/a
379.1785	0.135	758357	keystroke_r	r	n/a
380.394	0.15	760788	keystroke_Key.backspace	Key.backspace	n/a
380.53	0.059	761060	keystroke_s	s	n/a
380.694	0.105	761388	keystroke_s	s	n/a
382.0435	0.12	764087	keystroke_i	i	n/a
382.1335	0.09	764267	keystroke_n	n	n/a
382.1785	0.1055	764357	keystroke_g	g	n/a
382.374	0.119	764748	keystroke_Key.space	Key.space	n/a
383.1985	0.105	766397	keystroke_t	t	n/a
383.3335	0.135	766667	keystroke_o	o	n/a
384.0535	0.105	768107	keystroke_r	r	n/a
384.2785	0.105	768557	keystroke_t	t	n/a
384.3085	0.09	768617	keystroke_u	u	n/a
384.788	0.12	769576	keystroke_r	r	n/a
384.8485	0.165	769697	keystroke_e	e	n/a
385.2535	0.1195	770507	keystroke_Key.space	Key.space	n/a
385.4935	0.12	770987	keystroke_f	f	n/a
385.6285	0.1205	771257	keystroke_o	o	n/a
385.928	0.0755	771856	keystroke_u	u	n/a
385.9735	0.1355	771947	keystroke_c	c	n/a
386.1535	0.075	772307	keystroke_e	e	n/a
386.6935	0.075	773387	keystroke_Key.backspace	Key.backspace	n/a
386.8435	0.0745	773687	keystroke_Key.backspace	Key.backspace	n/a
386.9785	0.105	773957	keystroke_Key.backspace	Key.backspace	n/a
387.429	0.119	774858	keystroke_c	c	n/a
387.7735	0.105	775547	keystroke_u	u	n/a
387.894	0.1345	775788	keystroke_s	s	n/a
388.178	0.105	776356	keystroke_Key.space	Key.space	n/a
388.4485	0.1355	776897	keystroke_m	m	n/a
388.57	0.268	777140	keystroke_i	i	n/a
388.8235	0.1355	777647	keystroke_n	n	n/a
388.929	0.1645	777858	keystroke_i	i	n/a
389.1835	0.1495	778367	keystroke_s	s	n/a
389.3185	0.105	778637	keystroke_t	t	n/a
390.098	0.1345	780196	keystroke_e	e	n/a
390.1735	0.1355	780347	keystroke_r	r	n/a
390.4735	0.135	780947	keystroke_Key.enter	Key.enter	n/a
390.614	7.7065	781228	prompt	n/a	lunch filename foods divine\n
391.7635	0.015	783527	keystroke_l	l	n/a
391.9285	0.1505	783857	keystroke_u	u	n/a
392.2145	0.029	784429	keystroke_c	c	n/a
392.5285	0.09	785057	keystroke_Key.backspace	Key.backspace	n/a
392.799	0.0745	785598	keystroke_n	n	n/a
392.8885	0.12	785777	keystroke_c	c	n/a
392.9935	0.1205	785987	keystroke_h	h	n/a
393.278	0.136	786556	keystroke_Key.space	Key.space	n/a
393.954	0.1045	787908	keystroke_f	f	n/a
394.014	0.1045	788028	keystroke_i	i	n/a
394.2235	0.105	788447	keystroke_l	l	n/a
394.6285	0.12	789257	keystroke_e	e	n/a
394.8985	0.09	789797	keystroke_n	n	n/a
395.093	0.091	790186	keystroke_a	a	n/a
395.1235	0.1205	790247	keystroke_m	m	n/a
395.349	0.09	790698	keystroke_e	e	n/a
395.813	0.1355	791626	keystroke_Key.space	Key.space	n/a
396.098	0.1055	792196	keystroke_f	f	n/a
396.2185	0.06	792437	keystroke_o	o	n/a
396.3535	0.18	792707	keystroke_o	o	n/a
396.443	0.121	792886	keystroke_d	d	n/a
396.548	0.1655	793096	keystroke_s	s	n/a
396.743	0.135	793486	keystroke_Key.space	Key.space	n/a
397.029	0.135	794058	keystroke_d	d	n/a
397.1345	0.1185	794269	keystroke_i	i	n/a
397.4035	0.09	794807	keystroke_v	v	n/a
397.4785	0.135	794957	keystroke_i	i	n/a
397.8535	0.1345	795707	keystroke_n	n	n/a
397.9735	0.121	795947	keystroke_e	e	n/a
398.213	0.1055	796426	keystroke_Key.enter	Key.enter	n/a
398.325	7.255	796650	prompt	n/a	packet commands analyst happy\n
399.0535	0.075	798107	keystroke_p	p	n/a
399.0985	0.105	798197	keystroke_a	a	n/a
399.2635	0.09	798527	keystroke_c	c	n/a
399.3385	0.12	798677	keystroke_k	k	n/a
399.4595	0.134	798919	keystroke_e	e	n/a
399.6385	0.12	799277	keystroke_t	t	n/a
399.8485	0.12	799697	keystroke_Key.space	Key.space	n/a
400.1485	0.06	800297	keystroke_c	c	n/a
400.1935	0.09	800387	keystroke_o	o	n/a
400.4185	0.045	800837	keystroke_m	m	n/a
400.553	0.076	801106	keystroke_m	m	n/a
400.6435	0.075	801287	keystroke_a	a	n/a
400.7485	0.1345	801497	keystroke_n	n	n/a
400.899	0.104	801798	keystroke_d	d	n/a
401.018	0.105	802036	keystroke_s	s	n/a
401.3185	0.12	802637	keystroke_Key.space	Key.space	n/a
401.5585	0.09	803117	keystroke_a	a	n/a
401.7235	0.12	803447	keystroke_n	n	n/a
401.8135	0.105	803627	keystroke_a	a	n/a
402.0235	0.105	804047	keystroke_l	l	n/a
403.0135	0.105	806027	keystroke_y	y	n/a
403.1935	0.1355	806387	keystroke_s	s	n/a
403.33	0.1335	806660	keystroke_t	t	n/a
403.7185	0.135	807437	keystroke_Key.space	Key.space	n/a
404.574	0.105	809148	keystroke_h	h	n/a
404.7235	0.1055	809447	keystroke_a	a	n/a
405.024	0.089	810048	keystroke_p	p	n/a
405.1735	0.105	810347	keystroke_p	p	n/a
405.293	0.1355	810586	keystroke_y	y	n/a
405.4585	0.12	810917	keystroke_Key.enter	Key.enter	n/a
405.5845	10.0305	811169	prompt	n/a	carlos student camping guild\n
406.5095	0.089	813019	keystroke_c	c	n/a
406.6435	0.09	813287	keystroke_a	a	n/a
406.7935	0.1045	813587	keystroke_r	r	n/a
406.9135	0.09	813827	keystroke_l	l	n/a
407.0635	0.165	814127	keystroke_o	o	n/a
407.169	0.1195	814338	keystroke_s	s	n/a
407.2895	0.164	814579	keystroke_Key.space	Key.space	n/a
407.7835	0.1345	815567	keystroke_s	s	n/a
408.099	0.104	816198	keystroke_t	t	n/a
408.1735	0.1495	816347	keystroke_u	u	n/a
408.339	0.104	816678	keystroke_n	n	n/a
409.4785	0.09	818957	keystroke_Key.backspace	Key.backspace	n/a
409.5535	0.0595	819107	keystroke_d	d	n/a
409.7185	0.105	819437	keystroke_e	e	n/a
409.8685	0.12	819737	keystroke_n	n	n/a
410.0485	0.1345	820097	keystroke_t	t	n/a
410.4685	0.135	820937	keystroke_Key.space	Key.space	n/a
410.7535	0.0745	821507	keystroke_c	c	n/a
410.858	0.1055	821716	keystroke_a	a	n/a
411.203	0.1505	822406	keystroke_p	p	n/a
412.073	0.0755	824146	keystroke_Key.backspace	Key.backspace	n/a
412.718	0.1655	825436	keystroke_m	m	n/a
412.8535	0.1655	825707	keystroke_p	p	n/a
413.1385	0.1345	826277	keystroke_i	i	n/a
413.274	0.1345	826548	keystroke_n	n	n/a
413.3935	0.1195	826787	keystroke_g	g	n/a
413.828	0.1055	827656	keystroke_Key.space	Key.space	n/a
414.4285	0.12	828857	keystroke_g	g	n/a
414.5335	0.045	829067	keystroke_u	u	n/a
414.5635	0.03	829127	keystroke_i	i	n/a
414.6985	0.12	829397	keystroke_l	l	n/a
415.329	0.1195	830658	keystroke_d	d	n/a
415.493	0.12	830986	keystroke_Key.enter	Key.enter	n/a
415.621	10.7205	831242	prompt	n/a	tuning terminal corporations vary\n
416.4385	0.12	832877	keystroke_t	t	n/a
416.5435	0.15	833087	keystroke_u	u	n/a
416.6945	0.149	833389	keystroke_n	n	n/a
416.828	0.1805	833656	keystroke_i	i	n/a
416.919	0.15	833838	keystroke_n	n	n/a
417.054	0.134	834108	keystroke_g	g	n/a
417.233	0.1355	834466	keystroke_Key.space	Key.space	n/a
417.564	0.1045	835128	keystroke_t	t	n/a
417.653	0.166	835306	keystroke_e	e	n/a
417.7735	0.1495	835547	keystroke_r	r	n/a
417.999	0.1345	835998	keystroke_m	m	n/a
418.1485	0.1655	836297	keystroke_i	i	n/a
418.2385	0.0895	836477	keystroke_a	a	n/a
418.3585	0.1195	836717	keystroke_n	n	n/a
418.584	0.1045	837168	keystroke_l	l	n/a
418.989	0.1195	837978	keystroke_Key.space	Key.space	n/a
419.4535	0.09	838907	keystroke_c	c	n/a
419.7235	0.075	839447	keystroke_Key.backspace	Key.backspace	n/a
419.8585	0.0745	839717	keystroke_Key.backspace	Key.backspace	n/a
420.0085	0.0595	840017	keystroke_Key.backspace	Key.backspace	n/a
420.158	0.1205	840316	keystroke_Key.backspace	Key.backspace	n/a
420.5035	0.135	841007	keystroke_Key.backspace	Key.backspace	n/a
421.434	0.09	842868	keystroke_n	n	n/a
421.509	0.104	843018	keystroke_a	a	n/a
421.659	0.1345	843318	keystroke_l	l	n/a
421.8535	0.15	843707	keystroke_Key.space	Key.space	n/a
422.349	0.075	844698	keystroke_c	c	n/a
422.4685	0.135	844937	keystroke_o	o	n/a
422.6785	0.12	845357	keystroke_r	r	n/a
423.324	0.0745	846648	keystroke_p	p	n/a
423.473	0.136	846946	keystroke_o	o	n/a
423.7435	0.135	847487	keystroke_r	r	n/a
423.9085	0.075	847817	keystroke_a	a	n/a
424.0885	0.105	848177	keystroke_t	t	n/a
424.1185	0.12	848237	keystroke_i	i	n/a
424.1635	0.255	848327	keystroke_o	o	n/a
424.3135	0.12	848627	keystroke_n	n	n/a
424.4035	0.135	848807	keystroke_s	s	n/a
424.6135	0.135	849227	keystroke_Key.space	Key.space	n/a
425.2435	0.045	850487	keystroke_v	v	n/a
425.3635	0.12	850727	keystroke_a	a	n/a
425.6035	0.135	851207	keystroke_r	r	n/a
425.8435	0.1195	851687	keystroke_y	y	n/a
426.2185	0.12	852437	keystroke_Key.enter	Key.enter	n/a
426.346	10.7945	852692	prompt	n/a	ieee horizontal entertainment career\n
427.5835	0.12	855167	keystroke_i	i	n/a
428.139	0.0745	856278	keystroke_e	e	n/a
428.288	0.09	856576	keystroke_e	e	n/a
428.4535	0.12	856907	keystroke_e	e	n/a
428.7385	0.135	857477	keystroke_Key.space	Key.space	n/a
429.623	0.076	859246	keystroke_h	h	n/a
429.6685	0.195	859337	keystroke_o	o	n/a
429.8635	0.1495	859727	keystroke_r	r	n/a
429.9985	0.1045	859997	keystroke_i	i	n/a
430.3285	0.12	860657	keystroke_z	z	n/a
430.4935	0.12	860987	keystroke_o	o	n/a
430.7935	0.09	861587	keystroke_n	n	n/a
431.0335	0.06	862067	keystroke_t	t	n/a
431.1845	0.104	862369	keystroke_a	a	n/a
431.3185	0.12	862637	keystroke_l	l	n/a
431.483	0.15	862966	keystroke_Key.space	Key.space	n/a
431.978	0.1205	863956	keystroke_e	e	n/a
432.083	0.1055	864166	keystroke_n	n	n/a
432.2635	0.1205	864527	keystroke_t	t	n/a
432.428	0.166	864856	keystroke_e	e	n/a
432.518	0.135	865036	keystroke_r	r	n/a
432.969	0.1045	865938	keystroke_t	t	n/a
433.1335	0.105	866267	keystroke_a	a	n/a
433.2835	0.135	866567	keystroke_i	i	n/a
433.448	0.1055	866896	keystroke_n	n	n/a
433.674	0.0895	867348	keystroke_m	m	n/a
433.7935	0.105	867587	keystroke_e	e	n/a
433.914	0.09	867828	keystroke_n	n	n/a
434.0485	0.09	868097	keystroke_t	t	n/a
434.363	0.12	868726	keystroke_Key.space	Key.space	n/a
435.1735	0.075	870347	keystroke_c	c	n/a
435.2935	0.134	870587	keystroke_a	a	n/a
435.4885	0.105	870977	keystroke_r	r	n/a
435.6985	0.0755	871397	keystroke_r	r	n/a
436.088	0.1205	872176	keystroke_Key.backspace	Key.backspace	n/a
436.1935	0.105	872387	keystroke_e	e	n/a
436.3885	0.105	872777	keystroke_e	e	n/a
436.5685	0.09	873137	keystroke_r	r	n/a
437.0335	0.105	874067	keystroke_Key.enter	Key.enter	n/a
437.1455	8.0345	874291	prompt	n/a	realm adventure owen evening\n
437.844	0.09	875688	keystroke_r	r	n/a
437.874	0.1045	875748	keystroke_e	e	n/a
438.038	0.1205	876076	keystroke_a	a	n/a
438.144	0.105	876288	keystroke_l	l	n/a
438.3535	0.1055	876707	keystroke_m	m	n/a
438.533	0.1355	877066	keystroke_Key.space	Key.space	n/a
438.8935	0.105	877787	keystroke_a	a	n/a
439.3885	0.105	878777	keystroke_d	d	n/a
439.6435	0.075	879287	keystroke_v	v	n/a
439.748	0.1205	879496	keystroke_e	e	n/a
440.183	0.106	880366	keystroke_n	n	n/a
440.439	0.105	880878	keystroke_t	t	n/a
440.708	0.091	881416	keystroke_u	u	n/a
440.739	0.134	881478	keystroke_r	r	n/a
440.829	0.119	881658	keystroke_e	e	n/a
441.114	0.1195	882228	keystroke_Key.space	Key.space	n/a
441.7585	0.1045	883517	keystroke_o	o	n/a
441.878	0.196	883756	keystroke_w	w	n/a
441.968	0.1505	883936	keystroke_e	e	n/a
442.238	0.1055	884476	keystroke_n	n	n/a
442.448	0.151	884896	keystroke_Key.space	Key.space	n/a
442.8685	0.12	885737	keystroke_e	e	n/a
443.378	0.061	886756	keystroke_v	v	n/a
443.483	0.136	886966	keystroke_e	e	n/a
443.7235	0.1195	887447	keystroke_n	n	n/a
444.128	0.195	888256	keystroke_i	i	n/a
444.338	0.075	888676	keystroke_n	n	n/a
444.353	0.076	888706	keystroke_g	g	n/a
445.1335	0.045	890267	keystroke_Key.enter	Key.enter	n/a
445.185	10.9	890370	prompt	n/a	advertisements rational excited cycle\n
445.9135	0.1345	891827	keystroke_a	a	n/a
446.064	0.1195	892128	keystroke_d	d	n/a
447.3835	0.09	894767	keystroke_v	v	n/a
447.519	0.15	895038	keystroke_e	e	n/a
447.624	0.1345	895248	keystroke_r	r	n/a
447.8635	0.12	895727	keystroke_t	t	n/a
447.9535	0.135	895907	keystroke_i	i	n/a
448.1335	0.165	896267	keystroke_s	s	n/a
448.2385	0.12	896477	keystroke_e	e	n/a
448.4175	0.105	896835	keystroke_m	m	n/a
448.5535	0.1195	897107	keystroke_e	e	n/a
448.643	0.1205	897286	keystroke_n	n	n/a
448.8085	0.12	897617	keystroke_t	t	n/a
449.0335	0.1505	898067	keystroke_s	s	n/a
449.2285	0.165	898457	keystroke_Key.space	Key.space	n/a
449.8735	0.09	899747	keystroke_r	r	n/a
449.9785	0.09	899957	keystroke_a	a	n/a
450.3835	0.135	900767	keystroke_t	t	n/a
450.473	0.166	900946	keystroke_i	i	n/a
450.533	0.2105	901066	keystroke_o	o	n/a
450.683	0.1205	901366	keystroke_n	n	n/a
451.0735	0.135	902147	keystroke_a	a	n/a
451.2385	0.12	902477	keystroke_l	l	n/a
451.3285	0.18	902657	keystroke_Key.space	Key.space	n/a
452.139	0.1195	904278	keystroke_e	e	n/a
452.3485	0.12	904697	keystroke_x	x	n/a
453.3235	0.09	906647	keystroke_c	c	n/a
453.4435	0.1195	906887	keystroke_i	i	n/a
453.8185	0.09	907637	keystroke_t	t	n/a
453.9235	0.1205	907847	keystroke_e	e	n/a
454.1185	0.135	908237	keystroke_d	d	n/a
454.2685	0.135	908537	keystroke_Key.space	Key.space	n/a
454.5835	0.105	909167	keystroke_c	c	n/a
454.958	0.105	909916	keystroke_y	y	n/a
455.078	0.121	910156	keystroke_c	c	n/a
455.243	0.1355	910486	keystroke_l	l	n/a
455.738	0.1205	911476	keystroke_e	e	n/a
455.963	0.12	911926	keystroke_Key.enter	Key.enter	n/a
456.0905	7.6595	912181	prompt	n/a	ensure salvation thousand gene\n
456.8635	0.1195	913727	keystroke_e	e	n/a
457.058	0.121	914116	keystroke_n	n	n/a
457.223	0.1355	914446	keystroke_s	s	n/a
457.328	0.1205	914656	keystroke_u	u	n/a
457.4785	0.12	914957	keystroke_r	r	n/a
457.5385	0.165	915077	keystroke_e	e	n/a
457.718	0.121	915436	keystroke_Key.space	Key.space	n/a
458.019	0.089	916038	keystroke_s	s	n/a
458.1835	0.09	916367	keystroke_l	l	n/a
458.228	0.076	916456	keystroke_a	a	n/a
458.664	0.0595	917328	keystroke_v	v	n/a
458.798	0.1055	917596	keystroke_a	a	n/a
458.9935	0.105	917987	keystroke_t	t	n/a
459.0535	0.12	918107	keystroke_i	i	n/a
459.1285	0.15	918257	keystroke_o	o	n/a
459.2635	0.12	918527	keystroke_n	n	n/a
459.4885	0.12	918977	keystroke_Key.space	Key.space	n/a
459.6535	0.135	919307	keystroke_t	t	n/a
459.818	0.121	919636	keystroke_h	h	n/a
460.118	0.1055	920236	keystroke_o	o	n/a
460.344	0.119	920688	keystroke_u	u	n/a
460.3885	0.0905	920777	keystroke_s	s	n/a
460.5835	0.135	921167	keystroke_a	a	n/a
460.7035	0.135	921407	keystroke_n	n	n/a
460.8535	0.18	921707	keystroke_d	d	n/a
461.0485	0.195	922097	keystroke_Key.space	Key.space	n/a
462.7285	0.1055	925457	keystroke_g	g	n/a
463.1335	0.1055	926267	keystroke_e	e	n/a
463.2245	0.134	926449	keystroke_n	n	n/a
463.343	0.136	926686	keystroke_e	e	n/a
463.5985	0.1495	927197	keystroke_Key.enter	Key.enter	n/a
463.756	5.709	927512	prompt	n/a	womens require lake sapphire\n
464.4985	0.15	928997	keystroke_w	w	n/a
464.633	0.091	929266	keystroke_o	o	n/a
464.8135	0.12	929627	keystroke_m	m	n/a
464.9035	0.105	929807	keystroke_e	e	n/a
465.0385	0.105	930077	keystroke_n	n	n/a
465.0685	0.15	930137	keystroke_s	s	n/a
465.3235	0.12	930647	keystroke_Key.space	Key.space	n/a
465.578	0.121	931156	keystroke_r	r	n/a
465.6385	0.151	931277	keystroke_e	e	n/a
465.8635	0.12	931727	keystroke_q	q	n/a
465.9985	0.135	931997	keystroke_u	u	n/a
466.0585	0.135	932117	keystroke_i	i	n/a
466.2685	0.0895	932537	keystroke_r	r	n/a
466.3135	0.1795	932627	keystroke_e	e	n/a
466.5385	0.1355	933077	keystroke_Key.space	Key.space	n/a
466.8985	0.135	933797	keystroke_l	l	n/a
467.0035	0.09	934007	keystroke_a	a	n/a
467.154	0.1345	934308	keystroke_k	k	n/a
467.259	0.1645	934518	keystroke_e	e	n/a
467.4085	0.119	934817	keystroke_Key.space	Key.space	n/a
467.754	0.1195	935508	keystroke_s	s	n/a
467.9185	0.105	935837	keystroke_a	a	n/a
468.0535	0.09	936107	keystroke_p	p	n/a
468.2035	0.15	936407	keystroke_p	p	n/a
468.6835	0.105	937367	keystroke_h	h	n/a
468.774	0.1495	937548	keystroke_i	i	n/a
468.9385	0.15	937877	keystroke_r	r	n/a
469.0735	0.1345	938147	keystroke_e	e	n/a
469.328	0.135	938656	keystroke_Key.enter	Key.enter	n/a
469.4695	15.1755	938939	prompt	n/a	ecommerce sewing deutschland obligation\n
470.3035	0.135	940607	keystroke_e	e	n/a
470.5585	0.06	941117	keystroke_c	c	n/a
471.0985	0.105	942197	keystroke_o	o	n/a
471.3985	0.06	942797	keystroke_m	m	n/a
471.548	0.106	943096	keystroke_m	m	n/a
471.698	0.1355	943396	keystroke_e	e	n/a
471.8035	0.1505	943607	keystroke_r	r	n/a
471.969	0.0745	943938	keystroke_e	e	n/a
472.4035	0.119	944807	keystroke_Key.backspace	Key.backspace	n/a
472.493	0.1205	944986	keystroke_c	c	n/a
472.568	0.1955	945136	keystroke_e	e	n/a
472.8385	0.15	945677	keystroke_Key.space	Key.space	n/a
473.3185	0.105	946637	keystroke_s	s	n/a
473.4385	0.12	946877	keystroke_e	e	n/a
473.889	0.1045	947778	keystroke_w	w	n/a
474.4285	0.195	948857	keystroke_i	i	n/a
474.5635	0.12	949127	keystroke_n	n	n/a
474.5785	0.12	949157	keystroke_g	g	n/a
474.8635	0.135	949727	keystroke_Key.space	Key.space	n/a
475.5685	0.0595	951137	keystroke_d	d	n/a
475.7335	0.1045	951467	keystroke_e	e	n/a
476.0635	0.12	952127	keystroke_t	t	n/a
476.408	0.106	952816	keystroke_Key.backspace	Key.backspace	n/a
476.7985	0.1195	953597	keystroke_u	u	n/a
476.889	0.134	953778	keystroke_t	t	n/a
478.268	0.12	956536	keystroke_s	s	n/a
478.328	0.151	956656	keystroke_c	c	n/a
478.464	0.1045	956928	keystroke_h	h	n/a
479.154	0.09	958308	keystroke_l	l	n/a
479.2285	0.1195	958457	keystroke_a	a	n/a
479.3935	0.1195	958787	keystroke_n	n	n/a
479.4985	0.1495	958997	keystroke_d	d	n/a
479.7235	0.165	959447	keystroke_Key.space	Key.space	n/a
480.9235	0.285	961847	keystroke_o	o	n/a
481.1935	0.03	962387	keystroke_n	n	n/a
481.448	0.1205	962896	keystroke_l	l	n/a
481.8985	0.074	963797	keystroke_Key.backspace	Key.backspace	n/a
482.0325	0.09	964065	keystroke_Key.backspace	Key.backspace	n/a
482.1675	0.106	964335	keystroke_Key.backspace	Key.backspace	n/a
483.0835	0.074	966167	keystroke_o	o	n/a
483.1735	0.105	966347	keystroke_b	b	n/a
483.2925	0.076	966585	keystroke_l	l	n/a
483.578	0.0155	967156	keystroke_i	i	n/a
483.6835	0.074	967367	keystroke_g	g	n/a
483.848	0.0605	967696	keystroke_a	a	n/a
483.9685	0.1195	967937	keystroke_t	t	n/a
484.0735	0.0455	968147	keystroke_i	i	n/a
484.074	0.2095	968148	keystroke_o	o	n/a
484.208	0.1355	968416	keystroke_n	n	n/a
484.5685	0.075	969137	keystroke_Key.enter	Key.enter	n/a
484.6505	8.605	969301	prompt	n/a	mails gadgets filed consideration\n
485.514	0.119	971028	keystroke_m	m	n/a
485.618	0.105	971236	keystroke_a	a	n/a
485.723	0.12	971446	keystroke_i	i	n/a
485.979	0.104	971958	keystroke_l	l	n/a
486.0385	0.1205	972077	keystroke_s	s	n/a
486.2035	0.1345	972407	keystroke_Key.space	Key.space	n/a
486.668	0.075	973336	keystroke_g	g	n/a
486.848	0.12	973696	keystroke_a	a	n/a
487.058	0.1205	974116	keystroke_d	d	n/a
487.703	0.12	975406	keystroke_e	e	n/a
488.123	0.12	976246	keystroke_Key.backspace	Key.backspace	n/a
488.1985	0.1045	976397	keystroke_g	g	n/a
488.2885	0.15	976577	keystroke_e	e	n/a
488.453	0.135	976906	keystroke_t	t	n/a
488.8735	0.1345	977747	keystroke_s	s	n/a
489.0975	0.151	978195	keystroke_Key.space	Key.space	n/a
489.818	0.091	979636	keystroke_f	f	n/a
489.863	0.09	979726	keystroke_i	i	n/a
490.043	0.15	980086	keystroke_l	l	n/a
490.118	0.09	980236	keystroke_e	e	n/a
490.298	0.135	980596	keystroke_d	d	n/a
490.433	0.135	980866	keystroke_Key.space	Key.space	n/a
490.763	0.12	981526	keystroke_c	c	n/a
490.869	0.0895	981738	keystroke_o	o	n/a
491.0635	0.1195	982127	keystroke_n	n	n/a
491.138	0.1195	982276	keystroke_s	s	n/a
491.288	0.1205	982576	keystroke_i	i	n/a
491.4235	0.075	982847	keystroke_d	d	n/a
491.843	0.105	983686	keystroke_e	e	n/a
492.1885	0.105	984377	keystroke_r	r	n/a
492.3085	0.09	984617	keystroke_a	a	n/a
492.519	0.089	985038	keystroke_t	t	n/a
492.578	0.136	985156	keystroke_i	i	n/a
492.6375	0.1805	985275	keystroke_o	o	n/a
492.773	0.1505	985546	keystroke_n	n	n/a
493.148	0.105	986296	keystroke_Key.enter	Key.enter	n/a
493.259	8.816	986518	prompt	n/a	impressive twin african operator\n
494.0935	0.1495	988187	keystroke_i	i	n/a
494.168	0.09	988336	keystroke_m	m	n/a
494.3635	0.105	988727	keystroke_o	o	n/a
494.573	0.1355	989146	keystroke_r	r	n/a
494.8885	0.059	989777	keystroke_Key.backspace	Key.backspace	n/a
495.023	0.045	990046	keystroke_Key.backspace	Key.backspace	n/a
495.6685	0.09	991337	keystroke_p	p	n/a
495.6985	0.09	991397	keystroke_r	r	n/a
495.7435	0.15	991487	keystroke_e	e	n/a
495.8785	0.09	991757	keystroke_s	s	n/a
496.028	0.12	992056	keystroke_s	s	n/a
496.5685	0.135	993137	keystroke_i	i	n/a
496.6435	0.09	993287	keystroke_v	v	n/a
496.7785	0.12	993557	keystroke_e	e	n/a
497.138	0.1355	994276	keystroke_Key.space	Key.space	n/a
497.5135	0.0895	995027	keystroke_t	t	n/a
497.664	0.1045	995328	keystroke_w	w	n/a
497.7835	0.12	995567	keystroke_i	i	n/a
498.009	0.12	996018	keystroke_n	n	n/a
498.2035	0.1345	996407	keystroke_Key.space	Key.space	n/a
498.4735	0.1195	996947	keystroke_a	a	n/a
498.713	0.1055	997426	keystroke_f	f	n/a
498.9685	0.105	997937	keystroke_r	r	n/a
499.1035	0.1205	998207	keystroke_i	i	n/a
499.2535	0.105	998507	keystroke_c	c	n/a
499.3735	0.105	998747	keystroke_a	a	n/a
499.4925	0.1365	998985	keystroke_n	n	n/a
499.718	0.1505	999436	keystroke_Key.space	Key.space	n/a
500.4835	0.09	1000967	keystroke_o	o	n/a
500.6335	0.135	1001267	keystroke_p	p	n/a
500.7385	0.165	1001477	keystroke_e	e	n/a
500.8885	0.135	1001777	keystroke_r	r	n/a
501.099	0.12	1002198	keystroke_a	a	n/a
501.3385	0.12	1002677	keystroke_t	t	n/a
501.443	0.136	1002886	keystroke_i	i	n/a
501.488	0.1805	1002976	keystroke_o	o	n/a
501.638	0.1505	1003276	keystroke_n	n	n/a
501.953	0.1205	1003906	keystroke_Key.enter	Key.enter	n/a
502.089	10.021	1004178	prompt	n/a	partially stockholm palestine catalogs\n
503.258	0.135	1006516	keystroke_p	p	n/a
503.3185	0.0895	1006637	keystroke_a	a	n/a
503.439	0.119	1006878	keystroke_r	r	n/a
503.619	0.119	1007238	keystroke_t	t	n/a
503.708	0.15	1007416	keystroke_i	i	n/a
503.918	0.1055	1007836	keystroke_a	a	n/a
504.1585	0.105	1008317	keystroke_l	l	n/a
504.323	0.1355	1008646	keystroke_l	l	n/a
504.758	0.0455	1009516	keystroke_y	y	n/a
504.8485	0.1195	1009697	keystroke_Key.space	Key.space	n/a
505.389	0.134	1010778	keystroke_s	s	n/a
505.6285	0.105	1011257	keystroke_t	t	n/a
505.748	0.1205	1011496	keystroke_o	o	n/a
505.944	0.119	1011888	keystroke_c	c	n/a
506.079	0.1045	1012158	keystroke_k	k	n/a
506.468	0.1055	1012936	keystroke_h	h	n/a
506.5885	0.075	1013177	keystroke_o	o	n/a
506.783	0.106	1013566	keystroke_l	l	n/a
506.9935	0.15	1013987	keystroke_m	m	n/a
507.3075	0.136	1014615	keystroke_Key.space	Key.space	n/a
507.579	0.1045	1015158	keystroke_p	p	n/a
507.6685	0.09	1015337	keystroke_a	a	n/a
507.788	0.1355	1015576	keystroke_l	l	n/a
507.969	0.1345	1015938	keystroke_e	e	n/a
508.2535	0.03	1016507	keystroke_t	t	n/a
508.793	0.12	1017586	keystroke_Key.backspace	Key.backspace	n/a
508.898	0.1205	1017796	keystroke_s	s	n/a
509.168	0.105	1018336	keystroke_t	t	n/a
509.258	0.12	1018516	keystroke_i	i	n/a
509.3935	0.1355	1018787	keystroke_n	n	n/a
509.513	0.151	1019026	keystroke_e	e	n/a
509.708	0.135	1019416	keystroke_Key.space	Key.space	n/a
510.0685	0.105	1020137	keystroke_c	c	n/a
510.2025	0.106	1020405	keystroke_a	a	n/a
510.4135	0.09	1020827	keystroke_t	t	n/a
510.564	0.089	1021128	keystroke_a	a	n/a
510.683	0.1355	1021366	keystroke_l	l	n/a
510.9685	0.15	1021937	keystroke_o	o	n/a
511.3135	0.0905	1022627	keystroke_g	g	n/a
511.523	0.106	1023046	keystroke_s	s	n/a
511.9875	0.121	1023975	keystroke_Key.enter	Key.enter	n/a
512.115	11.981	1024230	prompt	n/a	disorder adaptive pakistan emission\n
512.798	0.1355	1025596	keystroke_d	d	n/a
513.0235	0.075	1026047	keystroke_i	i	n/a
513.323	0.0905	1026646	keystroke_Key.backspace	Key.backspace	n/a
513.9535	0.12	1027907	keystroke_i	i	n/a
514.0585	0.105	1028117	keystroke_s	s	n/a
514.539	0.1195	1029078	keystroke_o	o	n/a
514.7925	0.136	1029585	keystroke_r	r	n/a
515.364	0.1045	1030728	keystroke_d	d	n/a
515.5735	0.1495	1031147	keystroke_e	e	n/a
515.648	0.135	1031296	keystroke_r	r	n/a
516.053	0.135	1032106	keystroke_Key.space	Key.space	n/a
516.654	0.1195	1033308	keystroke_a	a	n/a
516.758	0.1205	1033516	keystroke_d	d	n/a
516.8935	0.1495	1033787	keystroke_a	a	n/a
517.088	0.135	1034176	keystroke_p	p	n/a
517.3585	0.1195	1034717	keystroke_t	t	n/a
517.463	0.135	1034926	keystroke_i	i	n/a
517.7035	0.105	1035407	keystroke_v	v	n/a
517.764	0.149	1035528	keystroke_e	e	n/a
517.958	0.1355	1035916	keystroke_Key.space	Key.space	n/a
518.438	0.105	1036876	keystroke_p	p	n/a
518.528	0.1205	1037056	keystroke_a	a	n/a
518.709	0.1345	1037418	keystroke_k	k	n/a
518.918	0.1655	1037836	keystroke_i	i	n/a
519.0385	0.15	1038077	keystroke_s	s	n/a
519.2035	0.06	1038407	keystroke_t	t	n/a
519.3535	0.0905	1038707	keystroke_a	a	n/a
519.459	0.1045	1038918	keystroke_n	n	n/a
519.653	0.1505	1039306	keystroke_Key.space	Key.space	n/a
519.999	0.105	1039998	keystroke_e	e	n/a
520.1335	0.165	1040267	keystroke_m	m	n/a
520.3135	0.104	1040627	keystroke_i	i	n/a
520.5085	0.075	1041017	keystroke_s	s	n/a
520.6885	0.12	1041377	keystroke_s	s	n/a
520.7935	0.225	1041587	keystroke_o	o	n/a
522.413	0.121	1044826	keystroke_Key.backspace	Key.backspace	n/a
523.3285	0.1505	1046657	keystroke_i	i	n/a
523.3885	0.1495	1046777	keystroke_o	o	n/a
523.508	0.135	1047016	keystroke_n	n	n/a
524.0025	0.0905	1048005	keystroke_Key.enter	Key.enter	n/a
524.1	17.0645	1048200	prompt	n/a	host alternatively dies nearby\n
525.3235	0.1195	1050647	keystroke_h	h	n/a
525.429	0.1645	1050858	keystroke_s	s	n/a
525.444	0.1045	1050888	keystroke_o	o	n/a
525.5785	0.12	1051157	keystroke_t	t	n/a
525.728	0.1355	1051456	keystroke_Key.space	Key.space	n/a
526.3285	0.1195	1052657	keystroke_a	a	n/a
526.5235	0.12	1053047	keystroke_l	l	n/a
527.1535	0.0895	1054307	keystroke_Key.backspace	Key.backspace	n/a
527.274	0.0895	1054548	keystroke_Key.backspace	Key.backspace	n/a
527.4385	0.06	1054877	keystroke_Key.backspace	Key.backspace	n/a
527.5885	0.045	1055177	keystroke_Key.backspace	Key.backspace	n/a
527.7085	0.0595	1055417	keystroke_Key.backspace	Key.backspace	n/a
527.8285	0.1045	1055657	keystroke_Key.backspace	Key.backspace	n/a
528.443	0.1355	1056886	keystroke_s	s	n/a
528.458	0.0455	1056916	keystroke_o	o	n/a
528.5635	0.12	1057127	keystroke_t	t	n/a
528.9685	0.075	1057937	keystroke_Key.backspace	Key.backspace	n/a
529.1035	0.0755	1058207	keystroke_Key.backspace	Key.backspace	n/a
529.253	0.1055	1058506	keystroke_Key.backspace	Key.backspace	n/a
529.6885	0.12	1059377	keystroke_o	o	n/a
529.734	0.104	1059468	keystroke_s	s	n/a
529.824	0.1345	1059648	keystroke_t	t	n/a
529.9735	0.12	1059947	keystroke_Key.space	Key.space	n/a
530.6035	0.075	1061207	keystroke_a	a	n/a
530.694	0.1045	1061388	keystroke_l	l	n/a
531.1435	0.075	1062287	keystroke_t	t	n/a
531.2635	0.135	1062527	keystroke_e	e	n/a
531.338	0.1355	1062676	keystroke_r	r	n/a
531.9535	0.1195	1063907	keystroke_n	n	n/a
532.088	0.1505	1064176	keystroke_i	i	n/a
532.3285	0.1045	1064657	keystroke_t	t	n/a
535.121	0.001	1070242	keystroke_Key.backspace	Key.backspace	n/a
535.763	0.105	1071526	keystroke_Key.backspace	Key.backspace	n/a
535.838	0.1205	1071676	keystroke_a	a	n/a
536.738	0.015	1073476	keystroke_t	t	n/a
536.754	0.0595	1073508	keystroke_i	i	n/a
536.843	0.1055	1073686	keystroke_v	v	n/a
536.9335	0.1345	1073867	keystroke_e	e	n/a
537.054	0.0745	1074108	keystroke_l	l	n/a
537.9985	0.105	1075997	keystroke_y	y	n/a
538.2235	0.1495	1076447	keystroke_Key.space	Key.space	n/a
538.5985	0.0905	1077197	keystroke_d	d	n/a
538.7635	0.105	1077527	keystroke_i	i	n/a
538.823	0.1205	1077646	keystroke_e	e	n/a
538.913	0.195	1077826	keystroke_s	s	n/a
539.0935	0.135	1078187	keystroke_Key.space	Key.space	n/a
539.888	0.061	1079776	keystroke_n	n	n/a
539.934	0.104	1079868	keystroke_e	e	n/a
540.008	0.1205	1080016	keystroke_a	a	n/a
540.1135	0.1355	1080227	keystroke_r	r	n/a
540.698	0.1205	1081396	keystroke_b	b	n/a
540.758	0.0905	1081516	keystroke_y	y	n/a
541.058	0.105	1082116	keystroke_Key.enter	Key.enter	n/a
541.169	13.361	1082338	prompt	n/a	scenario charity yugoslavia should've\n
542.1385	0.105	1084277	keystroke_s	s	n/a
542.349	0.029	1084698	keystroke_c	c	n/a
542.4985	0.105	1084997	keystroke_e	e	n/a
542.693	0.091	1085386	keystroke_n	n	n/a
542.724	0.0895	1085448	keystroke_a	a	n/a
543.383	0.12	1086766	keystroke_r	r	n/a
543.5185	0.1645	1087037	keystroke_i	i	n/a
543.608	0.1655	1087216	keystroke_o	o	n/a
543.9085	0.135	1087817	keystroke_Key.space	Key.space	n/a
544.2835	0.12	1088567	keystroke_c	c	n/a
544.4335	0.1055	1088867	keystroke_h	h	n/a
544.4785	0.1495	1088957	keystroke_a	a	n/a
544.6585	0.1495	1089317	keystroke_r	r	n/a
544.898	0.1355	1089796	keystroke_i	i	n/a
545.0485	0.12	1090097	keystroke_t	t	n/a
545.258	0.135	1090516	keystroke_y	y	n/a
545.4085	0.18	1090817	keystroke_Key.space	Key.space	n/a
546.189	0.1195	1092378	keystroke_y	y	n/a
546.819	0.1045	1093638	keystroke_u	u	n/a
547.358	0.1205	1094716	keystroke_g	g	n/a
547.448	0.1055	1094896	keystroke_o	o	n/a
547.703	0.0905	1095406	keystroke_r	r	n/a
548.0785	0.12	1096157	keystroke_Key.backspace	Key.backspace	n/a
548.183	0.135	1096366	keystroke_s	s	n/a
548.4085	0.1205	1096817	keystroke_l	l	n/a
548.6485	0.1055	1097297	keystroke_o	o	n/a
548.784	0.104	1097568	keystroke_a	a	n/a
549.113	0.0755	1098226	keystroke_Key.backspace	Key.backspace	n/a
549.218	0.1505	1098436	keystroke_Key.backspace	Key.backspace	n/a
549.729	0.1495	1099458	keystroke_a	a	n/a
550.629	0.1045	1101258	keystroke_v	v	n/a
550.8385	0.1195	1101677	keystroke_i	i	n/a
550.8985	0.12	1101797	keystroke_a	a	n/a
551.123	0.1505	1102246	keystroke_Key.space	Key.space	n/a
551.5735	0.105	1103147	keystroke_s	s	n/a
551.889	0.0745	1103778	keystroke_h	h	n/a
551.9035	0.09	1103807	keystroke_o	o	n/a
552.1135	0.09	1104227	keystroke_u	u	n/a
552.368	0.1205	1104736	keystroke_l	l	n/a
552.729	0.1045	1105458	keystroke_d	d	n/a
553.3885	0.06	1106777	keystroke_'	'	n/a
553.748	0.075	1107496	keystroke_v	v	n/a
553.8085	0.135	1107617	keystroke_e	e	n/a
554.4535	0.075	1108907	keystroke_Key.enter	Key.enter	n/a
554.5355	10.2275	1109071	prompt	n/a	planning urls wasn't path\n
555.6835	0.03	1111367	keystroke_p	p	n/a
555.6985	0.09	1111397	keystroke_l	l	n/a
555.758	0.1205	1111516	keystroke_a	a	n/a
555.984	0.104	1111968	keystroke_n	n	n/a
556.523	0.1205	1113046	keystroke_n	n	n/a
556.7485	0.165	1113497	keystroke_i	i	n/a
556.8235	0.1655	1113647	keystroke_n	n	n/a
556.928	0.15	1113856	keystroke_g	g	n/a
557.153	0.1355	1114306	keystroke_Key.space	Key.space	n/a
557.978	0.12	1115956	keystroke_u	u	n/a
558.068	0.1355	1116136	keystroke_r	r	n/a
558.233	0.15	1116466	keystroke_l	l	n/a
558.353	0.1505	1116706	keystroke_s	s	n/a
558.5485	0.135	1117097	keystroke_Key.space	Key.space	n/a
558.8635	0.18	1117727	keystroke_w	w	n/a
558.9535	0.135	1117907	keystroke_a	a	n/a
559.1485	0.1195	1118297	keystroke_n	n	n/a
559.433	0.09	1118866	keystroke_;	;	n/a
559.853	0.105	1119706	keystroke_Key.backspace	Key.backspace	n/a
560.153	0.12	1120306	keystroke_'	'	n/a
560.2585	0.12	1120517	keystroke_t	t	n/a
561.4735	0.075	1122947	keystroke_Key.backspace	Key.backspace	n/a
561.668	0.015	1123336	keystroke_Key.backspace	Key.backspace	n/a
561.728	0.1205	1123456	keystroke_Key.backspace	Key.backspace	n/a
561.8785	0.1345	1123757	keystroke_s	s	n/a
562.493	0.1055	1124986	keystroke_n	n	n/a
562.7935	0.105	1125587	keystroke_'	'	n/a
563.033	0.121	1126066	keystroke_t	t	n/a
563.543	0.1055	1127086	keystroke_Key.space	Key.space	n/a
564.0085	0.09	1128017	keystroke_p	p	n/a
564.0835	0.12	1128167	keystroke_a	a	n/a
564.2935	0.1045	1128587	keystroke_t	t	n/a
564.3685	0.1195	1128737	keystroke_h	h	n/a
564.653	0.1055	1129306	keystroke_Key.enter	Key.enter	n/a
564.767	11.1385	1129534	prompt	n/a	academy wanted shorter planner\n
565.4485	0.105	1130897	keystroke_a	a	n/a
565.6135	0.12	1131227	keystroke_c	c	n/a
565.7185	0.12	1131437	keystroke_a	a	n/a
565.9135	0.105	1131827	keystroke_d	d	n/a
566.2435	0.045	1132487	keystroke_d	d	n/a
566.3785	0.06	1132757	keystroke_e	e	n/a
566.7085	0.075	1133417	keystroke_Key.backspace	Key.backspace	n/a
566.828	0.1355	1133656	keystroke_Key.backspace	Key.backspace	n/a
566.919	0.1345	1133838	keystroke_e	e	n/a
567.4135	0.09	1134827	keystroke_m	m	n/a
567.6535	0.075	1135307	keystroke_y	y	n/a
567.773	0.0905	1135546	keystroke_Key.space	Key.space	n/a
567.8935	0.195	1135787	keystroke_w	w	n/a
567.9985	0.135	1135997	keystroke_a	a	n/a
568.1185	0.105	1136237	keystroke_n	n	n/a
568.238	0.12	1136476	keystroke_t	t	n/a
568.344	0.119	1136688	keystroke_e	e	n/a
568.5535	0.15	1137107	keystroke_d	d	n/a
568.8975	0.12	1137795	keystroke_Key.space	Key.space	n/a
569.1835	0.09	1138367	keystroke_s	s	n/a
569.3635	0.1045	1138727	keystroke_h	h	n/a
569.678	0.12	1139356	keystroke_o	o	n/a
569.768	0.12	1139536	keystroke_r	r	n/a
569.993	0.12	1139986	keystroke_t	t	n/a
570.143	0.1505	1140286	keystroke_e	e	n/a
570.2485	0.195	1140497	keystroke_r	r	n/a
571.1035	0.1195	1142207	keystroke_Key.space	Key.space	n/a
571.4485	0.1345	1142897	keystroke_p	p	n/a
571.5985	0.075	1143197	keystroke_a	a	n/a
571.613	0.12	1143226	keystroke_l	l	n/a
572.363	0.0755	1144726	keystroke_Key.backspace	Key.backspace	n/a
572.468	0.105	1144936	keystroke_Key.backspace	Key.backspace	n/a
572.7985	0.09	1145597	keystroke_a	a	n/a
573.3685	0.1195	1146737	keystroke_Key.backspace	Key.backspace	n/a
573.683	0.1045	1147366	keystroke_l	l	n/a
574.0135	0.09	1148027	keystroke_n	n	n/a
574.0735	0.09	1148147	keystroke_a	a	n/a
574.628	0.075	1149256	keystroke_Key.backspace	Key.backspace	n/a
574.7635	0.119	1149527	keystroke_Key.backspace	Key.backspace	n/a
574.8685	0.119	1149737	keystroke_a	a	n/a
575.0635	0.105	1150127	keystroke_n	n	n/a
575.3935	0.105	1150787	keystroke_n	n	n/a
575.5585	0.135	1151117	keystroke_e	e	n/a
575.6185	0.15	1151237	keystroke_r	r	n/a
575.7835	0.12	1151567	keystroke_Key.enter	Key.enter	n/a
575.9095	9.2355	1151819	prompt	n/a	agreement permission agree texture\n
576.593	0.09	1153186	keystroke_a	a	n/a
576.938	0.12	1153876	keystroke_g	g	n/a
577.1035	0.06	1154207	keystroke_r	r	n/a
577.1485	0.09	1154297	keystroke_e	e	n/a
577.3425	0.1055	1154685	keystroke_e	e	n/a
577.5225	0.121	1155045	keystroke_m	m	n/a
577.7035	0.0745	1155407	keystroke_t	t	n/a
577.794	0.074	1155588	keystroke_n	n	n/a
578.183	0.1205	1156366	keystroke_Key.backspace	Key.backspace	n/a
578.5735	0.09	1157147	keystroke_Key.backspace	Key.backspace	n/a
578.9185	0.1045	1157837	keystroke_e	e	n/a
579.338	0.0755	1158676	keystroke_n	n	n/a
579.4435	0.1195	1158887	keystroke_t	t	n/a
579.7435	0.0895	1159487	keystroke_Key.space	Key.space	n/a
580.0135	0.1345	1160027	keystroke_p	p	n/a
580.0735	0.1505	1160147	keystroke_e	e	n/a
580.133	0.165	1160266	keystroke_r	r	n/a
580.6285	0.12	1161257	keystroke_m	m	n/a
580.703	0.12	1161406	keystroke_i	i	n/a
581.3035	0.105	1162607	keystroke_s	s	n/a
581.483	0.09	1162966	keystroke_s	s	n/a
581.543	0.1505	1163086	keystroke_i	i	n/a
581.6185	0.165	1163237	keystroke_o	o	n/a
581.7385	0.135	1163477	keystroke_n	n	n/a
581.9625	0.121	1163925	keystroke_Key.space	Key.space	n/a
582.1885	0.105	1164377	keystroke_a	a	n/a
582.443	0.1045	1164886	keystroke_g	g	n/a
582.654	0.1495	1165308	keystroke_r	r	n/a
582.728	0.1505	1165456	keystroke_e	e	n/a
582.939	0.1345	1165878	keystroke_e	e	n/a
583.5385	0.12	1167077	keystroke_Key.space	Key.space	n/a
583.7485	0.1045	1167497	keystroke_t	t	n/a
583.8235	0.12	1167647	keystroke_e	e	n/a
584.033	0.15	1168066	keystroke_x	x	n/a
584.3035	0.1195	1168607	keystroke_t	t	n/a
584.6325	0.151	1169265	keystroke_u	u	n/a
584.693	0.1205	1169386	keystroke_r	r	n/a
584.7685	0.1495	1169537	keystroke_e	e	n/a
585.0385	0.105	1170077	keystroke_Key.enter	Key.enter	n/a
585.1545	12.7705	1170309	prompt	n/a	pensions utilization membership bradford\n
586.254	0.1045	1172508	keystroke_p	p	n/a
586.3135	0.1345	1172627	keystroke_e	e	n/a
586.568	0.15	1173136	keystroke_n	n	n/a
586.764	0.119	1173528	keystroke_s	s	n/a
586.8535	0.135	1173707	keystroke_i	i	n/a
586.9135	0.2245	1173827	keystroke_o	o	n/a
587.0185	0.1045	1174037	keystroke_n	n	n/a
587.1535	0.12	1174307	keystroke_s	s	n/a
587.318	0.15	1174636	keystroke_Key.space	Key.space	n/a
588.068	0.1055	1176136	keystroke_u	u	n/a
588.2185	0.105	1176437	keystroke_t	t	n/a
588.3085	0.135	1176617	keystroke_i	i	n/a
588.623	0.12	1177246	keystroke_l	l	n/a
588.819	0.134	1177638	keystroke_i	i	n/a
588.9235	0.119	1177847	keystroke_z	z	n/a
589.449	0.0745	1178898	keystroke_a	a	n/a
589.8835	0.12	1179767	keystroke_t	t	n/a
589.9885	0.1045	1179977	keystroke_i	i	n/a
590.0475	0.166	1180095	keystroke_o	o	n/a
590.153	0.1355	1180306	keystroke_n	n	n/a
590.3785	0.134	1180757	keystroke_Key.space	Key.space	n/a
590.9485	0.1045	1181897	keystroke_m	m	n/a
590.993	0.1055	1181986	keystroke_e	e	n/a
591.1285	0.105	1182257	keystroke_m	m	n/a
591.4735	0.0895	1182947	keystroke_b	b	n/a
591.638	0.1205	1183276	keystroke_e	e	n/a
591.6985	0.15	1183397	keystroke_r	r	n/a
591.8935	0.135	1183787	keystroke_s	s	n/a
592.0435	0.0895	1184087	keystroke_h	h	n/a
592.2675	0.1205	1184535	keystroke_i	i	n/a
592.5085	0.135	1185017	keystroke_p	p	n/a
593.0485	0.15	1186097	keystroke_Key.space	Key.space	n/a
593.5585	0.089	1187117	keystroke_b	b	n/a
593.6635	0.105	1187327	keystroke_r	r	n/a
593.8135	0.12	1187627	keystroke_a	a	n/a
594.0535	0.075	1188107	keystroke_f	f	n/a
594.2185	0.1195	1188437	keystroke_f	f	n/a
594.6835	0.1195	1189367	keystroke_o	o	n/a
594.7435	0.1195	1189487	keystroke_r	r	n/a
594.9385	0.12	1189877	keystroke_d	d	n/a
595.688	0.0905	1191376	keystroke_Key.backspace	Key.backspace	n/a
595.838	0.075	1191676	keystroke_Key.backspace	Key.backspace	n/a
595.973	0.06	1191946	keystroke_Key.backspace	Key.backspace	n/a
596.079	0.1495	1192158	keystroke_Key.backspace	Key.backspace	n/a
596.5285	0.0895	1193057	keystroke_Key.backspace	Key.backspace	n/a
596.6335	0.165	1193267	keystroke_d	d	n/a
597.248	0.0905	1194496	keystroke_f	f	n/a
597.413	0.1655	1194826	keystroke_o	o	n/a
597.518	0.0905	1195036	keystroke_r	r	n/a
597.6835	0.12	1195367	keystroke_d	d	n/a
597.8335	0.09	1195667	keystroke_Key.enter	Key.enter	n/a
597.9305	6.8345	1195861	prompt	n/a	severe cables schools entries\n
598.5535	0.135	1197107	keystroke_s	s	n/a
598.6435	0.12	1197287	keystroke_e	e	n/a
598.8535	0.0895	1197707	keystroke_v	v	n/a
598.9885	0.15	1197977	keystroke_e	e	n/a
599.0935	0.1345	1198187	keystroke_r	r	n/a
599.4235	0.12	1198847	keystroke_e	e	n/a
599.7085	0.105	1199417	keystroke_Key.space	Key.space	n/a
600.0385	0.045	1200077	keystroke_c	c	n/a
600.1285	0.09	1200257	keystroke_a	a	n/a
600.398	0.06	1200796	keystroke_b	b	n/a
600.504	0.119	1201008	keystroke_l	l	n/a
600.609	0.134	1201218	keystroke_e	e	n/a
600.893	0.1805	1201786	keystroke_s	s	n/a
601.1935	0.1195	1202387	keystroke_Key.space	Key.space	n/a
601.5385	0.09	1203077	keystroke_s	s	n/a
601.8385	0.105	1203677	keystroke_c	c	n/a
601.9135	0.12	1203827	keystroke_h	h	n/a
602.2435	0.09	1204487	keystroke_o	o	n/a
602.408	0.105	1204816	keystroke_o	o	n/a
602.5735	0.12	1205147	keystroke_l	l	n/a
602.6775	0.136	1205355	keystroke_s	s	n/a
602.8285	0.12	1205657	keystroke_Key.space	Key.space	n/a
603.1285	0.134	1206257	keystroke_e	e	n/a
603.2185	0.1195	1206437	keystroke_n	n	n/a
603.6085	0.1045	1207217	keystroke_t	t	n/a
603.8935	0.135	1207787	keystroke_r	r	n/a
604.013	0.0905	1208026	keystroke_i	i	n/a
604.2535	0.0745	1208507	keystroke_d	d	n/a
604.329	0.104	1208658	keystroke_s	s	n/a
604.7035	0.06	1209407	keystroke_Key.enter	Key.enter	n/a
604.7705	10.8095	1209541	prompt	n/a	charming night cincinnati drawing\n
605.948	0.09	1211896	keystroke_c	c	n/a
606.083	0.0755	1212166	keystroke_h	h	n/a
606.0985	0.0895	1212197	keystroke_a	a	n/a
