onset	duration	sample	value	key	prompt_text
3.383	19.554	6766	prompt	n/a	the quick brown fox jumps over a lazy dog\n
10.036	0.028	20072	keystroke_t	t	n/a
10.199	0.15	20398	keystroke_h	h	n/a
10.454	0.1355	20908	keystroke_e	e	n/a
10.7545	0.12	21509	keystroke_Key.space	Key.space	n/a
11.79	0.12	23580	keystroke_q	q	n/a
12.03	0.105	24060	keystroke_u	u	n/a
12.3	0.135	24600	keystroke_i	i	n/a
12.6	0.135	25200	keystroke_c	c	n/a
13.62	0.12	27240	keystroke_k	k	n/a
13.89	0.12	27780	keystroke_Key.space	Key.space	n/a
14.535	0.06	29070	keystroke_b	b	n/a
14.91	0.06	29820	keystroke_r	r	n/a
15.06	0.15	30120	keystroke_o	o	n/a
15.165	0.105	30330	keystroke_w	w	n/a
15.314	0.121	30628	keystroke_n	n	n/a
15.539	0.09	31078	keystroke_Key.space	Key.space	n/a
16.155	0.15	32310	keystroke_f	f	n/a
16.365	0.105	32730	keystroke_o	o	n/a
16.6495	0.06	33299	keystroke_x	x	n/a
16.9045	0.105	33809	keystroke_Key.space	Key.space	n/a
17.1595	0.09	34319	keystroke_j	j	n/a
17.4145	0.105	34829	keystroke_u	u	n/a
17.7145	0.12	35429	keystroke_m	m	n/a
17.9845	0.105	35969	keystroke_p	p	n/a
18.0745	0.105	36149	keystroke_s	s	n/a
18.4045	0.135	36809	keystroke_Key.space	Key.space	n/a
18.5695	0.1355	37139	keystroke_o	o	n/a
19.38	0.105	38760	keystroke_v	v	n/a
19.7395	0.165	39479	keystroke_e	e	n/a
19.8745	0.12	39749	keystroke_r	r	n/a
20.0995	0.12	40199	keystroke_Key.space	Key.space	n/a
20.2945	0.135	40589	keystroke_a	a	n/a
20.4745	0.12	40949	keystroke_Key.space	Key.space	n/a
20.864	0.165	41728	keystroke_l	l	n/a
21.059	0.135	42118	keystroke_a	a	n/a
21.434	0.136	42868	keystroke_z	z	n/a
21.645	0.15	43290	keystroke_y	y	n/a
21.749	0.135	43498	keystroke_Key.space	Key.space	n/a
22.034	0.165	44068	keystroke_d	d	n/a
22.185	0.089	44370	keystroke_o	o	n/a
22.499	0.136	44998	keystroke_g	g	n/a
22.799	0.135	45598	keystroke_Key.enter	Key.enter	n/a
22.941	8.9805	45882	prompt	n/a	retail silk railway cialis\n
23.97	0.18	47940	keystroke_r	r	n/a
24.255	0.104	48510	keystroke_e	e	n/a
24.554	0.135	49108	keystroke_t	t	n/a
24.72	0.12	49440	keystroke_a	a	n/a
24.87	0.15	49740	keystroke_i	i	n/a
25.275	0.134	50550	keystroke_l	l	n/a
25.589	0.135	51178	keystroke_Key.space	Key.space	n/a
25.859	0.105	51718	keystroke_s	s	n/a
26.115	0.135	52230	keystroke_i	i	n/a
26.414	0.12	52828	keystroke_l	l	n/a
26.699	0.105	53398	keystroke_k	k	n/a
26.939	0.12	53878	keystroke_Key.space	Key.space	n/a
27.209	0.181	54418	keystroke_r	r	n/a
27.404	0.135	54808	keystroke_a	a	n/a
27.554	0.106	55108	keystroke_i	i	n/a
27.84	0.12	55680	keystroke_l	l	n/a
28.275	0.21	56550	keystroke_w	w	n/a
28.47	0.12	56940	keystroke_a	a	n/a
28.62	0.12	57240	keystroke_y	y	n/a
29.07	0.135	58140	keystroke_Key.space	Key.space	n/a
29.745	0.135	59490	keystroke_c	c	n/a
29.94	0.105	59880	keystroke_i	i	n/a
30.27	0.12	60540	keystroke_a	a	n/a
30.465	0.12	60930	keystroke_l	l	n/a
30.72	0.135	61440	keystroke_i	i	n/a
30.9	0.12	61800	keystroke_s	s	n/a
31.755	0.165	63510	keystroke_Key.enter	Key.enter	n/a
31.925	9.6865	63850	prompt	n/a	property bottles subscription care\n
32.745	0.135	65490	keystroke_p	p	n/a
33.015	0.105	66030	keystroke_r	r	n/a
33.12	0.255	66240	keystroke_o	o	n/a
33.39	0.15	66780	keystroke_p	p	n/a
33.555	0.15	67110	keystroke_e	e	n/a
33.69	0.12	67380	keystroke_r	r	n/a
33.96	0.105	67920	keystroke_t	t	n/a
34.2	0.105	68400	keystroke_y	y	n/a
34.29	0.12	68580	keystroke_Key.space	Key.space	n/a
34.785	0.105	69570	keystroke_b	b	n/a
34.995	0.105	69990	keystroke_o	o	n/a
35.25	0.015	70500	keystroke_t	t	n/a
35.355	0.12	70710	keystroke_t	t	n/a
35.58	0.12	71160	keystroke_l	l	n/a
36.12	0.12	72240	keystroke_e	e	n/a
36.36	0.165	72720	keystroke_s	s	n/a
36.63	0.105	73260	keystroke_Key.space	Key.space	n/a
37.2	0.045	74400	keystroke_s	s	n/a
37.335	0.105	74670	keystroke_u	u	n/a
37.53	0.045	75060	keystroke_b	b	n/a
37.815	0.105	75630	keystroke_s	s	n/a
38.16	0.12	76320	keystroke_c	c	n/a
38.745	0.135	77490	keystroke_r	r	n/a
38.97	0.12	77940	keystroke_i	i	n/a
39.225	0.09	78450	keystroke_p	p	n/a
39.435	0.105	78870	keystroke_t	t	n/a
39.525	0.21	79050	keystroke_i	i	n/a
39.6	0.18	79200	keystroke_o	o	n/a
39.735	0.15	79470	keystroke_n	n	n/a
40.215	0.09	80430	keystroke_Key.space	Key.space	n/a
40.53	0.0895	81060	keystroke_c	c	n/a
40.9795	0.06	81959	keystroke_a	a	n/a
41.0245	0.15	82049	keystroke_r	r	n/a
41.1595	0.12	82319	keystroke_e	e	n/a
41.4895	0.12	82979	keystroke_Key.enter	Key.enter	n/a
41.6155	13.496	83231	prompt	n/a	defendant potential provincial fundraising\n
42.6295	0.105	85259	keystroke_d	d	n/a
42.8545	0.09	85709	keystroke_e	e	n/a
43.2445	0.12	86489	keystroke_f	f	n/a
43.4395	0.12	86879	keystroke_e	e	n/a
43.5595	0.12	87119	keystroke_n	n	n/a
43.8745	0.135	87749	keystroke_d	d	n/a
44.2195	0.105	88439	keystroke_a	a	n/a
44.3695	0.105	88739	keystroke_n	n	n/a
44.58	0.105	89160	keystroke_t	t	n/a
44.7	0.075	89400	keystroke_Key.space	Key.space	n/a
45.255	0.12	90510	keystroke_p	p	n/a
45.48	0.135	90960	keystroke_o	o	n/a
45.585	0.09	91170	keystroke_e	e	n/a
46.0945	0.12	92189	keystroke_Key.backspace	Key.backspace	n/a
46.2295	0.09	92459	keystroke_t	t	n/a
46.3945	0.105	92789	keystroke_e	e	n/a
46.5445	0.0755	93089	keystroke_n	n	n/a
46.65	0.105	93300	keystroke_t	t	n/a
46.785	0.105	93570	keystroke_i	i	n/a
46.965	0.12	93930	keystroke_a	a	n/a
47.1	0.135	94200	keystroke_l	l	n/a
47.37	0.135	94740	keystroke_Key.space	Key.space	n/a
47.79	0.165	95580	keystroke_p	p	n/a
48	0.12	96000	keystroke_r	r	n/a
48.105	0.135	96210	keystroke_o	o	n/a
48.855	0.09	97710	keystroke_v	v	n/a
49.02	0.12	98040	keystroke_i	i	n/a
49.215	0.135	98430	keystroke_n	n	n/a
49.47	0.135	98940	keystroke_c	c	n/a
49.56	0.12	99120	keystroke_i	i	n/a
49.935	0.15	99870	keystroke_a	a	n/a
50.115	0.12	100230	keystroke_l	l	n/a
50.6395	0.135	101279	keystroke_Key.space	Key.space	n/a
50.8945	0.09	101789	keystroke_f	f	n/a
51.0745	0.105	102149	keystroke_u	u	n/a
51.3595	0.09	102719	keystroke_n	n	n/a
51.51	0.0895	103020	keystroke_d	d	n/a
51.9145	0.135	103829	keystroke_r	r	n/a
52.0645	0.12	104129	keystroke_a	a	n/a
52.2595	0.135	104519	keystroke_i	i	n/a
52.485	0.0745	104970	keystroke_s	s	n/a
52.6195	0.135	105239	keystroke_i	i	n/a
53.3245	0.135	106649	keystroke_n	n	n/a
53.7895	0.105	107579	keystroke_g	g	n/a
54.9745	0.135	109949	keystroke_Key.enter	Key.enter	n/a
55.116	14.2605	110232	prompt	n/a	marriage messenger cleveland dutch\n
56.2645	0.03	112529	keystroke_m	m	n/a
56.4145	0.135	112829	keystroke_a	a	n/a
56.5345	0.105	113069	keystroke_r	r	n/a
56.7145	0.09	113429	keystroke_r	r	n/a
56.8345	0.135	113669	keystroke_i	i	n/a
56.9845	0.105	113969	keystroke_a	a	n/a
58.0345	0.105	116069	keystroke_g	g	n/a
58.2745	0.105	116549	keystroke_e	e	n/a
58.6345	0.12	117269	keystroke_Key.space	Key.space	n/a
59.0995	0.135	118199	keystroke_m	m	n/a
59.2645	0.105	118529	keystroke_e	e	n/a
59.5345	0.06	119069	keystroke_s	s	n/a
59.6845	0.075	119369	keystroke_s	s	n/a
59.8045	0.09	119609	keystroke_e	e	n/a
59.9545	0.135	119909	keystroke_n	n	n/a
61.2445	0.165	122489	keystroke_g	g	n/a
61.5895	0.18	123179	keystroke_e	e	n/a
61.7245	0.165	123449	keystroke_r	r	n/a
62.0845	0.12	124169	keystroke_Key.space	Key.space	n/a
62.9395	0.09	125879	keystroke_c	c	n/a
63.2695	0.12	126539	keystroke_l	l	n/a
63.4645	0.12	126929	keystroke_e	e	n/a
63.9145	0.105	127829	keystroke_v	v	n/a
64.2895	0.075	128579	keystroke_e	e	n/a
64.5745	0.135	129149	keystroke_l	l	n/a
64.7545	0.12	129509	keystroke_a	a	n/a
64.9495	0.105	129899	keystroke_n	n	n/a
65.1295	0.105	130259	keystroke_d	d	n/a
65.3845	0.075	130769	keystroke_Key.space	Key.space	n/a
65.6995	0.105	131399	keystroke_d	d	n/a
66.0295	0.135	132059	keystroke_u	u	n/a
67.7395	0.225	135479	keystroke_t	t	n/a
68.3545	0.12	136709	keystroke_c	c	n/a
68.5345	0.12	137069	keystroke_h	h	n/a
69.2395	0.135	138479	keystroke_Key.enter	Key.enter	n/a
69.3795	26.8025	138759	prompt	n/a	portuguese periodically confident advice\n
79.4275	0.057	158855	keystroke_p	p	n/a
79.6345	0.105	159269	keystroke_o	o	n/a
79.7545	0.06	159509	keystroke_r	r	n/a
80.0995	0.15	160199	keystroke_t	t	n/a
80.3845	0.12	160769	keystroke_u	u	n/a
80.79	0.12	161580	keystroke_g	g	n/a
81	0.105	162000	keystroke_e	e	n/a
81.33	0.135	162660	keystroke_s	s	n/a
81.54	0.18	163080	keystroke_e	e	n/a
84.887	0.043	169774	keystroke_Key.backspace	Key.backspace	n/a
85.08	0.105	170160	keystroke_Key.backspace	Key.backspace	n/a
85.455	0.135	170910	keystroke_Key.backspace	Key.backspace	n/a
85.755	0.15	171510	keystroke_u	u	n/a
86.07	0.105	172140	keystroke_e	e	n/a
86.415	0.135	172830	keystroke_s	s	n/a
86.715	0.135	173430	keystroke_e	e	n/a
87.06	0.105	174120	keystroke_Key.space	Key.space	n/a
87.51	0.15	175020	keystroke_p	p	n/a
87.78	0.045	175560	keystroke_e	e	n/a
87.795	0.18	175590	keystroke_r	r	n/a
88.08	0.105	176160	keystroke_i	i	n/a
88.17	0.18	176340	keystroke_o	o	n/a
88.665	0.09	177330	keystroke_d	d	n/a
88.77	0.105	177540	keystroke_i	i	n/a
89.16	0.12	178320	keystroke_a	a	n/a
89.76	0.105	179520	keystroke_Key.backspace	Key.backspace	n/a
89.925	0.09	179850	keystroke_c	c	n/a
90.255	0.09	180510	keystroke_a	a	n/a
90.405	0.075	180810	keystroke_l	l	n/a
90.555	0.105	181110	keystroke_l	l	n/a
90.885	0.165	181770	keystroke_y	y	n/a
90.99	0.15	181980	keystroke_Key.space	Key.space	n/a
91.56	0.12	183120	keystroke_c	c	n/a
91.695	0.12	183390	keystroke_o	o	n/a
91.8	0.135	183600	keystroke_n	n	n/a
92.25	0.135	184500	keystroke_f	f	n/a
92.505	0.135	185010	keystroke_i	i	n/a
92.91	0.09	185820	keystroke_d	d	n/a
93.135	0.09	186270	keystroke_e	e	n/a
93.24	0.165	186480	keystroke_n	n	n/a
93.375	0.105	186750	keystroke_t	t	n/a
93.63	0.12	187260	keystroke_Key.space	Key.space	n/a
94.08	0.12	188160	keystroke_a	a	n/a
94.41	0.075	188820	keystroke_d	d	n/a
94.98	0.09	189960	keystroke_v	v	n/a
95.13	0.12	190260	keystroke_i	i	n/a
95.415	0.12	190830	keystroke_c	c	n/a
95.7	0.12	191400	keystroke_e	e	n/a
96.075	0.105	192150	keystroke_Key.enter	Key.enter	n/a
96.187	7.8845	192374	prompt	n/a	my cache fought require\n
97.17	0.105	194340	keystroke_m	m	n/a
97.545	0.18	195090	keystroke_y	y	n/a
97.695	0.135	195390	keystroke_Key.space	Key.space	n/a
97.95	0.105	195900	keystroke_c	c	n/a
98.25	0.105	196500	keystroke_a	a	n/a
98.61	0.105	197220	keystroke_c	c	n/a
98.79	0.105	197580	keystroke_h	h	n/a
99.42	0.15	198840	keystroke_e	e	n/a
99.84	0.105	199680	keystroke_Key.space	Key.space	n/a
100.29	0.105	200580	keystroke_f	f	n/a
100.47	0.1945	200940	keystroke_o	o	n/a
100.6195	0.195	201239	keystroke_u	u	n/a
100.8295	0.12	201659	keystroke_g	g	n/a
100.9795	0.135	201959	keystroke_h	h	n/a
101.1745	0.105	202349	keystroke_t	t	n/a
101.5195	0.12	203039	keystroke_Key.space	Key.space	n/a
102.1195	0.135	204239	keystroke_r	r	n/a
102.2695	0.12	204539	keystroke_e	e	n/a
102.6445	0.105	205289	keystroke_q	q	n/a
102.8095	0.15	205619	keystroke_u	u	n/a
103.0195	0.18	206039	keystroke_i	i	n/a
103.1845	0.075	206369	keystroke_r	r	n/a
103.2445	0.135	206489	keystroke_e	e	n/a
103.9495	0.12	207899	keystroke_Key.enter	Key.enter	n/a
104.075	11.0065	208150	prompt	n/a	projection cage verse bowling\n
104.9105	0.15	209821	keystroke_p	p	n/a
105.1055	0.135	210211	keystroke_r	r	n/a
105.4055	0.255	210811	keystroke_o	o	n/a
106.1555	0.03	212311	keystroke_j	j	n/a
106.2455	0.09	212491	keystroke_e	e	n/a
106.5605	0.12	213121	keystroke_c	c	n/a
106.9805	0.135	213961	keystroke_t	t	n/a
107.1305	0.2545	214261	keystroke_i	i	n/a
107.265	0.09	214530	keystroke_o	o	n/a
107.3105	0.1345	214621	keystroke_n	n	n/a
107.7455	0.1195	215491	keystroke_Key.space	Key.space	n/a
108	0.1055	216000	keystroke_c	c	n/a
108.42	0.15	216840	keystroke_a	a	n/a
109.0945	0.046	218189	keystroke_g	g	n/a
109.4405	0.119	218881	keystroke_e	e	n/a
109.6945	0.09	219389	keystroke_Key.space	Key.space	n/a
110.7	0.075	221400	keystroke_v	v	n/a
111	0.165	222000	keystroke_e	e	n/a
111.15	0.135	222300	keystroke_r	r	n/a
111.435	0.135	222870	keystroke_s	s	n/a
111.585	0.165	223170	keystroke_e	e	n/a
112.17	0.135	224340	keystroke_Key.space	Key.space	n/a
112.92	0.075	225840	keystroke_b	b	n/a
113.115	0.165	226230	keystroke_o	o	n/a
113.31	0.15	226620	keystroke_w	w	n/a
113.52	0.12	227040	keystroke_l	l	n/a
113.76	0.21	227520	keystroke_i	i	n/a
113.94	0.15	227880	keystroke_n	n	n/a
114.06	0.105	228120	keystroke_g	g	n/a
114.96	0.12	229920	keystroke_Key.enter	Key.enter	n/a
115.084	10.078	230168	prompt	n/a	greece modules treo then\n
116.085	0.12	232170	keystroke_g	g	n/a
116.385	0.18	232770	keystroke_r	r	n/a
116.58	0.09	233160	keystroke_e	e	n/a
116.775	0.09	233550	keystroke_e	e	n/a
117.15	0.12	234300	keystroke_c	c	n/a
117.495	0.135	234990	keystroke_e	e	n/a
117.675	0.15	235350	keystroke_Key.space	Key.space	n/a
118.035	0.09	236070	keystroke_m	m	n/a
118.335	0.135	236670	keystroke_o	o	n/a
118.59	0.15	237180	keystroke_d	d	n/a
118.89	0.105	237780	keystroke_u	u	n/a
119.22	0.135	238440	keystroke_l	l	n/a
119.4	0.21	238800	keystroke_e	e	n/a
119.625	0.15	239250	keystroke_s	s	n/a
120.09	0.12	240180	keystroke_Key.space	Key.space	n/a
120.555	0.135	241110	keystroke_t	t	n/a
120.84	0.105	241680	keystroke_r	r	n/a
121.32	0.105	242640	keystroke_e	e	n/a
121.89	0.135	243780	keystroke_o	o	n/a
122.13	0.105	244260	keystroke_Key.space	Key.space	n/a
122.385	0.09	244770	keystroke_t	t	n/a
122.58	0.12	245160	keystroke_e	e	n/a
122.715	0.135	245430	keystroke_h	h	n/a
123.45	0.12	246900	keystroke_Key.backspace	Key.backspace	n/a
123.69	0.135	247380	keystroke_Key.backspace	Key.backspace	n/a
124.05	0.135	248100	keystroke_h	h	n/a
124.17	0.135	248340	keystroke_e	e	n/a
124.35	0.12	248700	keystroke_n	n	n/a
125.055	0.105	250110	keystroke_Key.enter	Key.enter	n/a
125.1645	13.767	250329	prompt	n/a	peripherals partnerships darkness graduate\n
126.15	0.165	252300	keystroke_p	p	n/a
126.375	0.06	252750	keystroke_e	e	n/a
126.405	0.165	252810	keystroke_r	r	n/a
126.63	0.135	253260	keystroke_i	i	n/a
127.305	0.06	254610	keystroke_p	p	n/a
127.47	0.135	254940	keystroke_h	h	n/a
127.665	0.18	255330	keystroke_e	e	n/a
127.815	0.135	255630	keystroke_r	r	n/a
128.325	0.12	256650	keystroke_a	a	n/a
128.535	0.135	257070	keystroke_l	l	n/a
128.805	0.15	257610	keystroke_s	s	n/a
129.075	0.105	258150	keystroke_Key.space	Key.space	n/a
129.315	0.165	258630	keystroke_p	p	n/a
129.495	0.135	258990	keystroke_a	a	n/a
129.6	0.135	259200	keystroke_r	r	n/a
129.9	0.09	259800	keystroke_t	t	n/a
130.17	0.12	260340	keystroke_n	n	n/a
130.35	0.135	260700	keystroke_e	e	n/a
130.455	0.105	260910	keystroke_r	r	n/a
130.755	0.135	261510	keystroke_s	s	n/a
130.92	0.135	261840	keystroke_h	h	n/a
131.1	0.195	262200	keystroke_i	i	n/a
131.385	0.135	262770	keystroke_p	p	n/a
131.535	0.165	263070	keystroke_s	s	n/a
131.745	0.105	263490	keystroke_Key.space	Key.space	n/a
132.09	0.12	264180	keystroke_d	d	n/a
132.48	0.12	264960	keystroke_a	a	n/a
132.705	0.105	265410	keystroke_r	r	n/a
133.11	0.09	266220	keystroke_k	k	n/a
133.41	0.12	266820	keystroke_n	n	n/a
133.635	0.195	267270	keystroke_e	e	n/a
133.785	0.09	267570	keystroke_w	w	n/a
134.115	0.075	268230	keystroke_s	s	n/a
134.715	0.105	269430	keystroke_Key.backspace	Key.backspace	n/a
134.895	0.12	269790	keystroke_Key.backspace	Key.backspace	n/a
135.15	0.075	270300	keystroke_s	s	n/a
135.495	0.15	270990	keystroke_s	s	n/a
135.81	0.09	271620	keystroke_Key.space	Key.space	n/a
136.2	0.15	272400	keystroke_g	g	n/a
136.845	0.09	273690	keystroke_r	r	n/a
137.085	0.09	274170	keystroke_a	a	n/a
137.385	0.12	274770	keystroke_d	d	n/a
137.565	0.135	275130	keystroke_u	u	n/a
137.76	0.18	275520	keystroke_a	a	n/a
138	0.12	276000	keystroke_t	t	n/a
138.435	0.12	276870	keystroke_e	e	n/a
138.8255	0.105	277651	keystroke_Key.enter	Key.enter	n/a
138.9345	12.597	277869	prompt	n/a	bandwidth familiar base spatial\n
139.8895	0.105	279779	keystroke_b	b	n/a
140.1745	0.12	280349	keystroke_a	a	n/a
140.3695	0.12	280739	keystroke_n	n	n/a
140.5345	0.1055	281069	keystroke_d	d	n/a
140.895	0.06	281790	keystroke_w	w	n/a
140.97	0.15	281940	keystroke_i	i	n/a
141.105	0.12	282210	keystroke_t	t	n/a
141.24	0.105	282480	keystroke_h	h	n/a
142.32	0.075	284640	keystroke_Key.backspace	Key.backspace	n/a
142.56	0.15	285120	keystroke_Key.backspace	Key.backspace	n/a
142.83	0.105	285660	keystroke_d	d	n/a
143.19	0.12	286380	keystroke_t	t	n/a
143.37	0.21	286740	keystroke_h	h	n/a
144.045	0.135	288090	keystroke_Key.space	Key.space	n/a
144.27	0.09	288540	keystroke_f	f	n/a
144.525	0.15	289050	keystroke_a	a	n/a
144.72	0.105	289440	keystroke_m	m	n/a
145.02	0.12	290040	keystroke_i	i	n/a
145.485	0.105	290970	keystroke_l	l	n/a
145.71	0.135	291420	keystroke_i	i	n/a
145.92	0.165	291840	keystroke_a	a	n/a
146.07	0.15	292140	keystroke_r	r	n/a
146.37	0.12	292740	keystroke_Key.space	Key.space	n/a
147.81	0.075	295620	keystroke_b	b	n/a
148.035	0.135	296070	keystroke_a	a	n/a
148.5	0.135	297000	keystroke_s	s	n/a
148.74	0.135	297480	keystroke_e	e	n/a
148.98	0.12	297960	keystroke_Key.space	Key.space	n/a
149.37	0.12	298740	keystroke_s	s	n/a
149.625	0.12	299250	keystroke_p	p	n/a
149.82	0.12	299640	keystroke_a	a	n/a
150.135	0.12	300270	keystroke_t	t	n/a
150.3	0.12	300600	keystroke_i	i	n/a
150.435	0.135	300870	keystroke_a	a	n/a
150.72	0.12	301440	keystroke_l	l	n/a
151.41	0.12	302820	keystroke_Key.enter	Key.enter	n/a
151.534	10.3925	303068	prompt	n/a	tested character date volunteers\n
152.415	0.12	304830	keystroke_t	t	n/a
152.655	0.09	305310	keystroke_e	e	n/a
152.865	0.12	305730	keystroke_s	s	n/a
153.15	0.105	306300	keystroke_t	t	n/a
153.375	0.09	306750	keystroke_e	e	n/a
153.66	0.12	307320	keystroke_d	d	n/a
153.825	0.135	307650	keystroke_Key.space	Key.space	n/a
154.08	0.12	308160	keystroke_c	c	n/a
154.29	0.135	308580	keystroke_h	h	n/a
154.59	0.12	309180	keystroke_a	a	n/a
154.845	0.09	309690	keystroke_r	r	n/a
155.01	0.105	310020	keystroke_a	a	n/a
155.37	0.09	310740	keystroke_c	c	n/a
155.745	0.12	311490	keystroke_t	t	n/a
155.97	0.195	311940	keystroke_e	e	n/a
156.105	0.12	312210	keystroke_r	r	n/a
156.645	0.135	313290	keystroke_Key.space	Key.space	n/a
156.975	0.12	313950	keystroke_d	d	n/a
157.26	0.165	314520	keystroke_a	a	n/a
157.455	0.135	314910	keystroke_t	t	n/a
157.695	0.15	315390	keystroke_e	e	n/a
157.995	0.135	315990	keystroke_Key.space	Key.space	n/a
159.105	0.09	318210	keystroke_v	v	n/a
159.33	0.135	318660	keystroke_o	o	n/a
159.615	0.135	319230	keystroke_l	l	n/a
159.93	0.075	319860	keystroke_u	u	n/a
160.185	0.09	320370	keystroke_n	n	n/a
160.38	0.09	320760	keystroke_t	t	n/a
160.62	0.09	321240	keystroke_e	e	n/a
160.815	0.15	321630	keystroke_e	e	n/a
160.95	0.135	321900	keystroke_r	r	n/a
161.22	0.105	322440	keystroke_s	s	n/a
161.79	0.135	323580	keystroke_Key.enter	Key.enter	n/a
161.9295	17.892	323859	prompt	n/a	animals senior load knowledgestorm\n
162.735	0.135	325470	keystroke_a	a	n/a
162.885	0.12	325770	keystroke_n	n	n/a
163.11	0.12	326220	keystroke_i	i	n/a
163.425	0.135	326850	keystroke_m	m	n/a
163.59	0.09	327180	keystroke_a	a	n/a
163.71	0.135	327420	keystroke_l	l	n/a
163.935	0.09	327870	keystroke_s	s	n/a
164.295	0.075	328590	keystroke_Key.space	Key.space	n/a
164.49	0.12	328980	keystroke_s	s	n/a
164.7295	0.135	329459	keystroke_e	e	n/a
164.9395	0.105	329879	keystroke_n	n	n/a
165.1945	0.1805	330389	keystroke_i	i	n/a
165.3445	0.12	330689	keystroke_o	o	n/a
165.4495	0.15	330899	keystroke_r	r	n/a
166.1845	0.015	332369	keystroke_Key.space	Key.space	n/a
166.4245	0.09	332849	keystroke_l	l	n/a
166.7095	0.12	333419	keystroke_o	o	n/a
166.8445	0.105	333689	keystroke_a	a	n/a
167.1295	0.12	334259	keystroke_d	d	n/a
167.3095	0.09	334619	keystroke_Key.space	Key.space	n/a
167.7445	0.135	335489	keystroke_k	k	n/a
168.0145	0.105	336029	keystroke_n	n	n/a
168.2695	0.09	336539	keystroke_o	o	n/a
168.4045	0.12	336809	keystroke_w	w	n/a
168.5545	0.165	337109	keystroke_l	l	n/a
168.7645	0.09	337529	keystroke_e	e	n/a
169.1095	0.105	338219	keystroke_d	d	n/a
171.9325	0.117	343865	keystroke_e	e	n/a
172.1845	0.135	344369	keystroke_s	s	n/a
172.5295	0.135	345059	keystroke_t	t	n/a
172.8445	0.12	345689	keystroke_o	o	n/a
172.9195	0.135	345839	keystroke_r	r	n/a
174.5245	0.135	349049	keystroke_Key.backspace	Key.backspace	n/a
174.8845	0.105	349769	keystroke_Key.backspace	Key.backspace	n/a
175.3195	0.09	350639	keystroke_Key.backspace	Key.backspace	n/a
175.6645	0.12	351329	keystroke_Key.backspace	Key.backspace	n/a
176.8645	0.12	353729	keystroke_Key.backspace	Key.backspace	n/a
177.5545	0.105	355109	keystroke_g	g	n/a
177.7645	0.105	355529	keystroke_e	e	n/a
178.0355	0.104	356071	keystroke_s	s	n/a
178.3345	0.105	356669	keystroke_t	t	n/a
178.5895	0.121	357179	keystroke_o	o	n/a
178.6945	0.105	357389	keystroke_r	r	n/a
178.9505	0.134	357901	keystroke_m	m	n/a
179.6995	0.12	359399	keystroke_Key.enter	Key.enter	n/a
179.8245	10.9915	359649	prompt	n/a	census badge browser specifications\n
180.8855	0.119	361771	keystroke_c	c	n/a
181.1695	0.09	362339	keystroke_e	e	n/a
181.3345	0.12	362669	keystroke_n	n	n/a
181.4695	0.105	362939	keystroke_s	s	n/a
181.6495	0.105	363299	keystroke_u	u	n/a
181.7395	0.135	363479	keystroke_s	s	n/a
182.1595	0.105	364319	keystroke_Key.space	Key.space	n/a
182.4895	0.09	364979	keystroke_b	b	n/a
182.7295	0.075	365459	keystroke_a	a	n/a
183.0145	0.09	366029	keystroke_d	d	n/a
183.3605	0.134	366721	keystroke_g	g	n/a
183.5545	0.105	367109	keystroke_e	e	n/a
183.7795	0.135	367559	keystroke_Key.space	Key.space	n/a
184.1995	0.105	368399	keystroke_b	b	n/a
184.5895	0.06	369179	keystroke_r	r	n/a
184.7545	0.106	369509	keystroke_o	o	n/a
184.8445	0.136	369689	keystroke_w	w	n/a
185.2945	0.09	370589	keystroke_s	s	n/a
185.5195	0.166	371039	keystroke_e	e	n/a
185.6395	0.15	371279	keystroke_r	r	n/a
185.8345	0.135	371669	keystroke_Key.space	Key.space	n/a
186.0895	0.12	372179	keystroke_s	s	n/a
186.2695	0.15	372539	keystroke_p	p	n/a
186.5395	0.105	373079	keystroke_e	e	n/a
186.8995	0.105	373799	keystroke_c	c	n/a
187.0495	0.12	374099	keystroke_i	i	n/a
187.4995	0.061	374999	keystroke_i	i	n/a
188.1145	0.105	376229	keystroke_Key.backspace	Key.backspace	n/a
188.3245	0.12	376649	keystroke_f	f	n/a
188.5355	0.105	377071	keystroke_i	i	n/a
188.7755	0.119	377551	keystroke_c	c	n/a
189.1195	0.12	378239	keystroke_a	a	n/a
189.3755	0.104	378751	keystroke_t	t	n/a
189.5245	0.165	379049	keystroke_i	i	n/a
189.5845	0.165	379169	keystroke_o	o	n/a
189.7055	0.149	379411	keystroke_n	n	n/a
189.8695	0.106	379739	keystroke_s	s	n/a
190.6945	0.12	381389	keystroke_Key.enter	Key.enter	n/a
190.8195	9.5515	381639	prompt	n/a	flowers clinics frequent propecia\n
191.7445	0.12	383489	keystroke_f	f	n/a
192.0595	0.105	384119	keystroke_l	l	n/a
192.2995	0.09	384599	keystroke_o	o	n/a
192.4195	0.1355	384839	keystroke_w	w	n/a
192.57	0.18	385140	keystroke_e	e	n/a
192.72	0.15	385440	keystroke_r	r	n/a
193.05	0.15	386100	keystroke_s	s	n/a
193.29	0.105	386580	keystroke_Key.space	Key.space	n/a
193.635	0.135	387270	keystroke_c	c	n/a
193.95	0.09	387900	keystroke_l	l	n/a
194.19	0.135	388380	keystroke_i	i	n/a
194.355	0.18	388710	keystroke_n	n	n/a
194.475	0.1345	388950	keystroke_i	i	n/a
194.8045	0.12	389609	keystroke_c	c	n/a
195.1195	0.12	390239	keystroke_s	s	n/a
195.4495	0.09	390899	keystroke_Key.space	Key.space	n/a
195.6445	0.12	391289	keystroke_f	f	n/a
196.0945	0.105	392189	keystroke_r	r	n/a
196.1995	0.12	392399	keystroke_e	e	n/a
196.575	0.0895	393150	keystroke_q	q	n/a
196.8445	0.09	393689	keystroke_u	u	n/a
196.9945	0.135	393989	keystroke_e	e	n/a
197.2345	0.135	394469	keystroke_n	n	n/a
197.3845	0.12	394769	keystroke_t	t	n/a
197.7595	0.12	395519	keystroke_Key.space	Key.space	n/a
198.0295	0.135	396059	keystroke_p	p	n/a
198.2845	0.135	396569	keystroke_r	r	n/a
198.5095	0.15	397019	keystroke_o	o	n/a
198.7645	0.09	397529	keystroke_p	p	n/a
198.9445	0.09	397889	keystroke_e	e	n/a
199.3045	0.12	398609	keystroke_c	c	n/a
199.4395	0.12	398879	keystroke_i	i	n/a
199.7545	0.12	399509	keystroke_a	a	n/a
200.2345	0.135	400469	keystroke_Key.enter	Key.enter	n/a
200.374	10.3775	400748	prompt	n/a	bald appraisal consolidation circles\n
201.645	0.09	403290	keystroke_b	b	n/a
201.915	0.12	403830	keystroke_a	a	n/a
202.185	0.06	404370	keystroke_l	l	n/a
202.515	0.06	405030	keystroke_d	d	n/a
202.725	0.09	405450	keystroke_Key.space	Key.space	n/a
202.98	0.12	405960	keystroke_a	a	n/a
203.22	0.06	406440	keystroke_p	p	n/a
203.355	0.105	406710	keystroke_p	p	n/a
203.61	0.15	407220	keystroke_r	r	n/a
203.82	0.09	407640	keystroke_a	a	n/a
203.97	0.09	407940	keystroke_i	i	n/a
204.18	0.105	408360	keystroke_s	s	n/a
204.42	0.09	408840	keystroke_a	a	n/a
204.54	0.12	409080	keystroke_l	l	n/a
204.975	0.09	409950	keystroke_Key.space	Key.space	n/a
205.47	0.12	410940	keystroke_c	c	n/a
205.605	0.135	411210	keystroke_o	o	n/a
205.71	0.135	411420	keystroke_n	n	n/a
205.86	0.12	411720	keystroke_s	s	n/a
206.085	0.105	412170	keystroke_o	o	n/a
206.4	0.12	412800	keystroke_l	l	n/a
206.655	0.12	413310	keystroke_i	i	n/a
206.88	0.09	413760	keystroke_d	d	n/a
207.15	0.12	414300	keystroke_a	a	n/a
207.3	0.15	414600	keystroke_t	t	n/a
207.465	0.12	414930	keystroke_i	i	n/a
207.51	0.135	415020	keystroke_o	o	n/a
207.57	0.135	415140	keystroke_n	n	n/a
207.93	0.09	415860	keystroke_Key.space	Key.space	n/a
208.17	0.12	416340	keystroke_c	c	n/a
208.275	0.135	416550	keystroke_i	i	n/a
208.59	0.09	417180	keystroke_r	r	n/a
209.01	0.135	418020	keystroke_c	c	n/a
209.28	0.12	418560	keystroke_l	l	n/a
209.445	0.105	418890	keystroke_e	e	n/a
210.12	0.09	420240	keystroke_s	s	n/a
210.615	0.135	421230	keystroke_Key.enter	Key.enter	n/a
210.755	9.446	421510	prompt	n/a	stickers victims numerous timber\n
211.755	0.105	423510	keystroke_s	s	n/a
212.07	0.105	424140	keystroke_t	t	n/a
212.28	0.12	424560	keystroke_i	i	n/a
212.505	0.105	425010	keystroke_c	c	n/a
212.715	0.09	425430	keystroke_k	k	n/a
212.91	0.15	425820	keystroke_e	e	n/a
213.03	0.09	426060	keystroke_r	r	n/a
213.255	0.105	426510	keystroke_s	s	n/a
213.57	0.075	427140	keystroke_Key.space	Key.space	n/a
213.885	0.105	427770	keystroke_v	v	n/a
214.095	0.09	428190	keystroke_i	i	n/a
214.305	0.12	428610	keystroke_c	c	n/a
214.68	0.12	429360	keystroke_t	t	n/a
214.86	0.12	429720	keystroke_i	i	n/a
215.13	0.105	430260	keystroke_m	m	n/a
215.4	0.135	430800	keystroke_s	s	n/a
215.64	0.03	431280	keystroke_Key.space	Key.space	n/a
215.835	0.105	431670	keystroke_n	n	n/a
216.18	0.075	432360	keystroke_u	u	n/a
216.45	0.12	432900	keystroke_m	m	n/a
216.765	0.15	433530	keystroke_e	e	n/a
216.9	0.12	433800	keystroke_r	r	n/a
217.065	0.21	434130	keystroke_o	o	n/a
217.23	0.135	434460	keystroke_u	u	n/a
217.74	0.135	435480	keystroke_s	s	n/a
218.025	0.105	436050	keystroke_Key.space	Key.space	n/a
218.43	0.12	436860	keystroke_t	t	n/a
218.565	0.075	437130	keystroke_i	i	n/a
218.745	0.135	437490	keystroke_m	m	n/a
219.24	0.075	438480	keystroke_b	b	n/a
219.54	0.18	439080	keystroke_e	e	n/a
219.675	0.12	439350	keystroke_r	r	n/a
220.065	0.135	440130	keystroke_Key.enter	Key.enter	n/a
220.206	12.775	440412	prompt	n/a	that'll reform meaningful potential\n
221.1595	0.12	442319	keystroke_t	t	n/a
221.3845	0.075	442769	keystroke_h	h	n/a
221.4745	0.15	442949	keystroke_a	a	n/a
221.5795	0.105	443159	keystroke_t	t	n/a
222.0445	0.135	444089	keystroke_'	'	n/a
222.3445	0.06	444689	keystroke_l	l	n/a
222.4795	0.1055	444959	keystroke_l	l	n/a
222.69	0.135	445380	keystroke_Key.space	Key.space	n/a
223.26	0.12	446520	keystroke_r	r	n/a
223.41	0.03	446820	keystroke_r	r	n/a
224.745	0.149	449490	keystroke_Key.backspace	Key.backspace	n/a
225.645	0.089	451290	keystroke_e	e	n/a
226.02	0.104	452040	keystroke_f	f	n/a
226.184	0.18	452368	keystroke_o	o	n/a
226.379	0.135	452758	keystroke_r	r	n/a
226.53	0.1345	453060	keystroke_m	m	n/a
227.3245	0.105	454649	keystroke_Key.space	Key.space	n/a
227.5945	0.12	455189	keystroke_m	m	n/a
227.6845	0.135	455369	keystroke_e	e	n/a
227.9245	0.12	455849	keystroke_a	a	n/a
228.0895	0.105	456179	keystroke_n	n	n/a
228.2695	0.135	456539	keystroke_i	i	n/a
228.4195	0.075	456839	keystroke_n	n	n/a
228.4945	0.1205	456989	keystroke_g	g	n/a
228.93	0.12	457860	keystroke_f	f	n/a
229.08	0.12	458160	keystroke_u	u	n/a
229.335	0.12	458670	keystroke_l	l	n/a
229.514	0.121	459028	keystroke_Key.space	Key.space	n/a
229.755	0.105	459510	keystroke_p	p	n/a
230.01	0.075	460020	keystroke_t	t	n/a
230.58	0.0895	461160	keystroke_Key.backspace	Key.backspace	n/a
230.8345	0.12	461669	keystroke_o	o	n/a
230.9695	0.105	461939	keystroke_t	t	n/a
231.2095	0.09	462419	keystroke_e	e	n/a
231.3145	0.105	462629	keystroke_n	n	n/a
231.5695	0.06	463139	keystroke_t	t	n/a
231.6895	0.075	463379	keystroke_i	i	n/a
231.8245	0.135	463649	keystroke_a	a	n/a
231.9445	0.15	463889	keystroke_l	l	n/a
232.8445	0.135	465689	keystroke_Key.enter	Key.enter	n/a
232.984	18.687	465968	prompt	n/a	nicaragua computational ebooks calibration\n
234.3895	0.015	468779	keystroke_n	n	n/a
234.5095	0.06	469019	keystroke_i	i	n/a
234.7795	0.09	469559	keystroke_c	c	n/a
235.1995	0.075	470399	keystroke_a	a	n/a
235.6045	0.15	471209	keystroke_r	r	n/a
235.7695	0.12	471539	keystroke_a	a	n/a
236.2945	0.09	472589	keystroke_g	g	n/a
236.4895	0.075	472979	keystroke_u	u	n/a
236.8195	0.15	473639	keystroke_a	a	n/a
237.2545	0.135	474509	keystroke_Key.space	Key.space	n/a
238.3045	0.105	476609	keystroke_c	c	n/a
241.6215	0.103	483243	keystroke_o	o	n/a
241.7095	0.135	483419	keystroke_n	n	n/a
242.0245	0.135	484049	keystroke_p	p	n/a
242.0995	0.135	484199	keystroke_u	u	n/a
242.8195	0.075	485639	keystroke_Key.backspace	Key.backspace	n/a
242.9545	0.105	485909	keystroke_Key.backspace	Key.backspace	n/a
243.2395	0.135	486479	keystroke_m	m	n/a
243.6445	0.09	487289	keystroke_Key.backspace	Key.backspace	n/a
243.8545	0.075	487709	keystroke_Key.backspace	Key.backspace	n/a
244.1395	0.15	488279	keystroke_m	m	n/a
244.4095	0.195	488819	keystroke_p	p	n/a
244.5595	0.105	489119	keystroke_u	u	n/a
244.7545	0.075	489509	keystroke_t	t	n/a
244.9345	0.15	489869	keystroke_a	a	n/a
245.0995	0.105	490199	keystroke_t	t	n/a
245.2195	0.165	490439	keystroke_i	i	n/a
245.3095	0.12	490619	keystroke_o	o	n/a
245.3995	0.12	490799	keystroke_n	n	n/a
245.5795	0.09	491159	keystroke_a	a	n/a
245.7445	0.135	491489	keystroke_l	l	n/a
246.7795	0.12	493559	keystroke_Key.space	Key.space	n/a
247.1395	0.105	494279	keystroke_e	e	n/a
247.4545	0.09	494909	keystroke_b	b	n/a
247.6795	0.09	495359	keystroke_o	o	n/a
247.8445	0.105	495689	keystroke_o	o	n/a
248.0695	0.09	496139	keystroke_k	k	n/a
248.2045	0.12	496409	keystroke_s	s	n/a
248.5945	0.105	497189	keystroke_Key.space	Key.space	n/a
249.0295	0.12	498059	keystroke_c	c	n/a
249.3445	0.135	498689	keystroke_a	a	n/a
249.5545	0.12	499109	keystroke_l	l	n/a
249.7945	0.165	499589	keystroke_i	i	n/a
250.0045	0.105	500009	keystroke_b	b	n/a
250.3645	0.15	500729	keystroke_r	r	n/a
250.5295	0.12	501059	keystroke_a	a	n/a
250.7095	0.075	501419	keystroke_t	t	n/a
250.8595	0.18	501719	keystroke_i	i	n/a
250.9045	0.165	501809	keystroke_o	o	n/a
251.0245	0.165	502049	keystroke_n	n	n/a
251.5495	0.12	503099	keystroke_Key.enter	Key.enter	n/a
251.674	11.9075	503348	prompt	n/a	establishment premium forgot exist\n
252.614	0.076	505228	keystroke_e	e	n/a
252.84	0.12	505680	keystroke_s	s	n/a
253.095	0.12	506190	keystroke_t	t	n/a
253.29	0.12	506580	keystroke_a	a	n/a
253.635	0.09	507270	keystroke_b	b	n/a
253.905	0.105	507810	keystroke_l	l	n/a
254.13	0.12	508260	keystroke_i	i	n/a
254.205	0.105	508410	keystroke_s	s	n/a
254.34	0.06	508680	keystroke_h	h	n/a
254.5945	0.105	509189	keystroke_m	m	n/a
254.7145	0.09	509429	keystroke_e	e	n/a
254.8495	0.09	509699	keystroke_n	n	n/a
254.9545	0.12	509909	keystroke_t	t	n/a
255.2095	0.135	510419	keystroke_Key.space	Key.space	n/a
255.9595	0.18	511919	keystroke_p	p	n/a
256.1095	0.135	512219	keystroke_r	r	n/a
256.2745	0.135	512549	keystroke_e	e	n/a
256.5145	0.0755	513029	keystroke_m	m	n/a
257.31	0.135	514620	keystroke_i	i	n/a
257.6095	0.12	515219	keystroke_u	u	n/a
257.9545	0.0905	515909	keystroke_m	m	n/a
258.2845	0.0905	516569	keystroke_Key.space	Key.space	n/a
258.4345	0.12	516869	keystroke_f	f	n/a
258.6	0.165	517200	keystroke_o	o	n/a
258.75	0.09	517500	keystroke_r	r	n/a
259.035	0.075	518070	keystroke_g	g	n/a
259.17	0.135	518340	keystroke_o	o	n/a
259.455	0.09	518910	keystroke_t	t	n/a
259.725	0.09	519450	keystroke_Key.space	Key.space	n/a
259.905	0.12	519810	keystroke_e	e	n/a
260.7445	0.105	521489	keystroke_x	x	n/a
260.9245	0.105	521849	keystroke_i	i	n/a
261.6145	0.09	523229	keystroke_Key.backspace	Key.backspace	n/a
262.0795	0.12	524159	keystroke_i	i	n/a
262.7245	0.075	525449	keystroke_s	s	n/a
263.0545	0.135	526109	keystroke_t	t	n/a
263.4895	0.09	526979	keystroke_Key.enter	Key.enter	n/a
263.587	12.684	527174	prompt	n/a	translations prevent rosa viewpicture\n
264.5395	0.12	529079	keystroke_t	t	n/a
264.7945	0.21	529589	keystroke_r	r	n/a
264.9895	0.105	529979	keystroke_a	a	n/a
265.1095	0.12	530219	keystroke_n	n	n/a
265.2745	0.135	530549	keystroke_s	s	n/a
265.6345	0.105	531269	keystroke_a	a	n/a
266.2195	0.09	532439	keystroke_Key.backspace	Key.backspace	n/a
266.9095	0.15	533819	keystroke_l	l	n/a
267.1045	0.165	534209	keystroke_a	a	n/a
267.2545	0.135	534509	keystroke_t	t	n/a
267.4195	0.195	534839	keystroke_i	i	n/a
267.5095	0.12	535019	keystroke_o	o	n/a
267.5695	0.165	535139	keystroke_n	n	n/a
267.7045	0.135	535409	keystroke_s	s	n/a
268.0795	0.105	536159	keystroke_Key.space	Key.space	n/a
268.3345	0.195	536669	keystroke_p	p	n/a
268.5445	0.12	537089	keystroke_r	r	n/a
269.0545	0.09	538109	keystroke_e	e	n/a
269.3695	0.12	538739	keystroke_v	v	n/a
269.5645	0.105	539129	keystroke_e	e	n/a
269.7145	0.135	539429	keystroke_n	n	n/a
269.8645	0.1045	539729	keystroke_t	t	n/a
270.104	0.105	540208	keystroke_Key.space	Key.space	n/a
270.9145	0.135	541829	keystroke_r	r	n/a
271.094	0.165	542188	keystroke_o	o	n/a
271.514	0.075	543028	keystroke_s	s	n/a
271.8445	0.1045	543689	keystroke_a	a	n/a
272.0245	0.12	544049	keystroke_Key.space	Key.space	n/a
272.729	0.06	545458	keystroke_v	v	n/a
272.909	0.12	545818	keystroke_i	i	n/a
273.059	0.165	546118	keystroke_e	e	n/a
273.255	0.059	546510	keystroke_w	w	n/a
274.109	0.105	548218	keystroke_p	p	n/a
274.334	0.135	548668	keystroke_i	i	n/a
274.605	0.12	549210	keystroke_c	c	n/a
275.069	0.12	550138	keystroke_t	t	n/a
275.294	0.151	550588	keystroke_u	u	n/a
275.43	0.135	550860	keystroke_r	r	n/a
275.699	0.121	551398	keystroke_e	e	n/a
276.149	0.12	552298	keystroke_Key.enter	Key.enter	n/a
276.274	11.472	552548	prompt	n/a	competitions incl totally year\n
277.364	0.135	554728	keystroke_c	c	n/a
277.56	0.075	555120	keystroke_o	o	n/a
277.739	0.06	555478	keystroke_j	j	n/a
277.784	0.136	555568	keystroke_m	m	n/a
278.549	0.06	557098	keystroke_Key.backspace	Key.backspace	n/a
278.744	0.045	557488	keystroke_Key.backspace	Key.backspace	n/a
279.03	0.1195	558060	keystroke_m	m	n/a
279.5545	0.135	559109	keystroke_p	p	n/a
279.7645	0.12	559529	keystroke_e	e	n/a
280.0495	0.105	560099	keystroke_t	t	n/a
280.3195	0.105	560639	keystroke_i	i	n/a
280.4395	0.06	560879	keystroke_t	t	n/a
280.5295	0.15	561059	keystroke_i	i	n/a
280.6495	0.12	561299	keystroke_o	o	n/a
280.7245	0.18	561449	keystroke_n	n	n/a
281.1445	0.06	562289	keystroke_s	s	n/a
281.6995	0.075	563399	keystroke_Key.space	Key.space	n/a
281.8645	0.12	563729	keystroke_i	i	n/a
282.0295	0.09	564059	keystroke_n	n	n/a
282.614	0.15	565228	keystroke_c	c	n/a
282.899	0.12	565798	keystroke_l	l	n/a
283.454	0.12	566908	keystroke_Key.space	Key.space	n/a
283.724	0.135	567448	keystroke_t	t	n/a
283.889	0.12	567778	keystroke_o	o	n/a
284.234	0.135	568468	keystroke_t	t	n/a
284.805	0.135	569610	keystroke_a	a	n/a
285.06	0.06	570120	keystroke_l	l	n/a
285.225	0.105	570450	keystroke_l	l	n/a
285.585	0.195	571170	keystroke_y	y	n/a
285.719	0.136	571438	keystroke_Key.space	Key.space	n/a
285.975	0.15	571950	keystroke_y	y	n/a
286.14	0.135	572280	keystroke_e	e	n/a
286.29	0.165	572580	keystroke_a	a	n/a
286.8745	0.075	573749	keystroke_r	r	n/a
287.609	0.135	575218	keystroke_Key.enter	Key.enter	n/a
287.749	9.027	575498	prompt	n/a	currently sleeps young taxation\n
288.7795	0.15	577559	keystroke_c	c	n/a
289.0345	0.105	578069	keystroke_u	u	n/a
289.3045	0.105	578609	keystroke_r	r	n/a
289.5145	0.09	579029	keystroke_r	r	n/a
289.6645	0.12	579329	keystroke_e	e	n/a
289.7695	0.165	579539	keystroke_n	n	n/a
289.9795	0.09	579959	keystroke_t	t	n/a
290.2345	0.165	580469	keystroke_l	l	n/a
290.7145	0.135	581429	keystroke_y	y	n/a
291.0595	0.135	582119	keystroke_Key.space	Key.space	n/a
291.2695	0.135	582539	keystroke_s	s	n/a
291.5245	0.135	583049	keystroke_l	l	n/a
291.6895	0.105	583379	keystroke_e	e	n/a
291.8995	0.09	583799	keystroke_e	e	n/a
292.2445	0.15	584489	keystroke_p	p	n/a
292.5745	0.135	585149	keystroke_s	s	n/a
292.8145	0.105	585629	keystroke_Key.space	Key.space	n/a
293.1295	0.195	586259	keystroke_y	y	n/a
293.3545	0.165	586709	keystroke_o	o	n/a
293.4445	0.12	586889	keystroke_u	u	n/a
293.6995	0.135	587399	keystroke_n	n	n/a
293.8495	0.09	587699	keystroke_g	g	n/a
294.1795	0.105	588359	keystroke_Key.space	Key.space	n/a
294.5995	0.165	589199	keystroke_t	t	n/a
294.8095	0.12	589619	keystroke_a	a	n/a
295.1995	0.12	590399	keystroke_x	x	n/a
295.5145	0.12	591029	keystroke_a	a	n/a
295.7545	0.09	591509	keystroke_t	t	n/a
295.9345	0.165	591869	keystroke_i	i	n/a
295.9945	0.165	591989	keystroke_o	o	n/a
296.0845	0.165	592169	keystroke_n	n	n/a
296.6545	0.12	593309	keystroke_Key.enter	Key.enter	n/a
296.779	8.7715	593558	prompt	n/a	standings quotes alfred half\n
297.9745	0.135	595949	keystroke_s	s	n/a
298.2745	0.1495	596549	keystroke_t	t	n/a
298.4545	0.1195	596909	keystroke_a	a	n/a
298.619	0.105	597238	keystroke_n	n	n/a
298.784	0.12	597568	keystroke_d	d	n/a
298.905	0.119	597810	keystroke_i	i	n/a
299.009	0.135	598018	keystroke_n	n	n/a
299.129	0.105	598258	keystroke_g	g	n/a
299.354	0.12	598708	keystroke_s	s	n/a
299.624	0.075	599248	keystroke_Key.space	Key.space	n/a
300.509	0.06	601018	keystroke_q	q	n/a
300.704	0.09	601408	keystroke_u	u	n/a
300.914	0.135	601828	keystroke_o	o	n/a
301.109	0.165	602218	keystroke_t	t	n/a
301.334	0.15	602668	keystroke_e	e	n/a
301.544	0.15	603088	keystroke_s	s	n/a
301.799	0.09	603598	keystroke_Key.space	Key.space	n/a
302.579	0.135	605158	keystroke_a	a	n/a
302.774	0.15	605548	keystroke_l	l	n/a
303.104	0.105	606208	keystroke_f	f	n/a
303.434	0.15	606868	keystroke_r	r	n/a
303.585	0.119	607170	keystroke_e	e	n/a
303.854	0.165	607708	keystroke_d	d	n/a
304.079	0.075	608158	keystroke_Key.space	Key.space	n/a
304.334	0.12	608668	keystroke_h	h	n/a
304.469	0.135	608938	keystroke_a	a	n/a
304.694	0.135	609388	keystroke_l	l	n/a
304.934	0.12	609868	keystroke_f	f	n/a
305.399	0.15	610798	keystroke_Key.enter	Key.enter	n/a
305.553	12.463	611106	prompt	n/a	trends pharmaceutical freeware safety\n
306.419	0.075	612838	keystroke_t	t	n/a
306.659	0.15	613318	keystroke_r	r	n/a
306.794	0.12	613588	keystroke_e	e	n/a
306.974	0.135	613948	keystroke_n	n	n/a
307.124	0.121	614248	keystroke_d	d	n/a
307.364	0.09	614728	keystroke_s	s	n/a
307.604	0.105	615208	keystroke_Key.space	Key.space	n/a
308.204	0.165	616408	keystroke_p	p	n/a
308.429	0.15	616858	keystroke_h	h	n/a
308.609	0.18	617218	keystroke_a	a	n/a
308.774	0.15	617548	keystroke_r	r	n/a
309.059	0.09	618118	keystroke_m	m	n/a
309.209	0.09	618418	keystroke_a	a	n/a
309.614	0.12	619228	keystroke_c	c	n/a
310.004	0.09	620008	keystroke_e	e	n/a
310.769	0.12	621538	keystroke_u	u	n/a
311.159	0.12	622318	keystroke_t	t	n/a
311.324	0.105	622648	keystroke_i	i	n/a
311.594	0.135	623188	keystroke_c	c	n/a
311.939	0.15	623878	keystroke_a	a	n/a
312.119	0.165	624238	keystroke_l	l	n/a
312.404	0.135	624808	keystroke_Key.space	Key.space	n/a
312.7645	0.12	625529	keystroke_f	f	n/a
313.1095	0.135	626219	keystroke_r	r	n/a
313.4995	0.075	626999	keystroke_e	e	n/a
313.6645	0.105	627329	keystroke_e	e	n/a
313.9645	0.15	627929	keystroke_w	w	n/a
314.0395	0.15	628079	keystroke_a	a	n/a
314.1445	0.165	628289	keystroke_r	r	n/a
314.3545	0.12	628709	keystroke_e	e	n/a
314.6995	0.135	629399	keystroke_Key.space	Key.space	n/a
315.0745	0.12	630149	keystroke_s	s	n/a
315.3895	0.075	630779	keystroke_a	a	n/a
315.6895	0.09	631379	keystroke_f	f	n/a
315.8695	0.105	631739	keystroke_e	e	n/a
316.1395	0.12	632279	keystroke_t	t	n/a
316.4695	0.165	632939	keystroke_y	y	n/a
317.9095	0.105	635819	keystroke_Key.enter	Key.enter	n/a
318.021	10.7495	636042	prompt	n/a	varies draw exist adventures\n
318.9445	0.09	637889	keystroke_v	v	n/a
319.2295	0.105	638459	keystroke_a	a	n/a
319.4095	0.075	638819	keystroke_r	r	n/a
319.5895	0.135	639179	keystroke_i	i	n/a
319.6645	0.15	639329	keystroke_e	e	n/a
319.8595	0.135	639719	keystroke_s	s	n/a
320.1595	0.105	640319	keystroke_Key.space	Key.space	n/a
320.4445	0.105	640889	keystroke_d	d	n/a
320.744	0.136	641488	keystroke_r	r	n/a
320.984	0.196	641968	keystroke_w	w	n/a
321.209	0.12	642418	keystroke_a	a	n/a
321.764	0.075	643528	keystroke_Key.backspace	Key.backspace	n/a
321.914	0.105	643828	keystroke_Key.backspace	Key.backspace	n/a
321.989	0.181	643978	keystroke_a	a	n/a
322.155	0.15	644310	keystroke_w	w	n/a
322.409	0.121	644818	keystroke_Key.space	Key.space	n/a
322.725	0.089	645450	keystroke_e	e	n/a
323.28	0.045	646560	keystroke_s	s	n/a
323.924	0.105	647848	keystroke_Key.backspace	Key.backspace	n/a
324.525	0.119	649050	keystroke_x	x	n/a
325.034	0.15	650068	keystroke_i	i	n/a
325.199	0.091	650398	keystroke_s	s	n/a
325.455	0.134	650910	keystroke_t	t	n/a
325.634	0.105	651268	keystroke_Key.space	Key.space	n/a
325.784	0.121	651568	keystroke_a	a	n/a
326.114	0.061	652228	keystroke_d	d	n/a
326.55	0.044	653100	keystroke_v	v	n/a
326.7	0.09	653400	keystroke_e	e	n/a
326.85	0.149	653700	keystroke_n	n	n/a
327.014	0.091	654028	keystroke_t	t	n/a
327.495	0.164	654990	keystroke_u	u	n/a
327.615	0.119	655230	keystroke_r	r	n/a
327.749	0.21	655498	keystroke_e	e	n/a
328.08	0.134	656160	keystroke_s	s	n/a
328.6495	0.12	657299	keystroke_Key.enter	Key.enter	n/a
328.7735	9.9575	657547	prompt	n/a	relief dozen lindsay jungle\n
329.6845	0.15	659369	keystroke_f	f	n/a
330.3745	0.105	660749	keystroke_Key.backspace	Key.backspace	n/a
330.5095	0.15	661019	keystroke_r	r	n/a
330.6745	0.105	661349	keystroke_e	e	n/a
330.8695	0.1355	661739	keystroke_l	l	n/a
331.1395	0.15	662279	keystroke_i	i	n/a
331.2595	0.09	662519	keystroke_e	e	n/a
331.6195	0.135	663239	keystroke_f	f	n/a
331.8595	0.105	663719	keystroke_Key.space	Key.space	n/a
332.1145	0.105	664229	keystroke_d	d	n/a
332.2795	0.12	664559	keystroke_o	o	n/a
333.2545	0.12	666509	keystroke_z	z	n/a
333.4795	0.135	666959	keystroke_e	e	n/a
333.6295	0.09	667259	keystroke_n	n	n/a
333.8845	0.06	667769	keystroke_Key.space	Key.space	n/a
334.3045	0.12	668609	keystroke_l	l	n/a
334.5295	0.15	669059	keystroke_i	i	n/a
334.6645	0.165	669329	keystroke_n	n	n/a
334.8295	0.12	669659	keystroke_d	d	n/a
335.1145	0.15	670229	keystroke_s	s	n/a
335.4445	0.135	670889	keystroke_a	a	n/a
335.6845	0.165	671369	keystroke_y	y	n/a
335.8645	0.12	671729	keystroke_Key.space	Key.space	n/a
336.3295	0.045	672659	keystroke_j	j	n/a
337.1245	0.09	674249	keystroke_u	u	n/a
337.4095	0.075	674819	keystroke_n	n	n/a
337.8145	0.15	675629	keystroke_g	g	n/a
338.0845	0.135	676169	keystroke_l	l	n/a
338.2045	0.105	676409	keystroke_e	e	n/a
338.6845	0.045	677369	keystroke_Key.enter	Key.enter	n/a
338.735	8.8015	677470	prompt	n/a	motorcycle wayne glen twist\n
339.6145	0.09	679229	keystroke_m	m	n/a
339.8995	0.15	679799	keystroke_o	o	n/a
340.0045	0.09	680009	keystroke_r	r	n/a
340.7545	0.075	681509	keystroke_Key.backspace	Key.backspace	n/a
340.8445	0.105	681689	keystroke_t	t	n/a
340.9945	0.135	681989	keystroke_o	o	n/a
341.0995	0.075	682199	keystroke_r	r	n/a
341.5945	0.06	683189	keystroke_c	c	n/a
341.7895	0.105	683579	keystroke_y	y	n/a
342.0745	0.12	684149	keystroke_c	c	n/a
342.2995	0.06	684599	keystroke_l	l	n/a
342.4795	0.105	684959	keystroke_e	e	n/a
342.8995	0.12	685799	keystroke_Key.space	Key.space	n/a
343.3795	0.165	686759	keystroke_w	w	n/a
343.4995	0.15	686999	keystroke_a	a	n/a
343.6645	0.09	687329	keystroke_y	y	n/a
343.8895	0.12	687779	keystroke_n	n	n/a
343.9945	0.105	687989	keystroke_e	e	n/a
344.1445	0.105	688289	keystroke_Key.space	Key.space	n/a
344.4145	0.105	688829	keystroke_g	g	n/a
344.894	0.165	689788	keystroke_l	l	n/a
345.029	0.105	690058	keystroke_e	e	n/a
345.194	0.075	690388	keystroke_n	n	n/a
345.629	0.12	691258	keystroke_Key.space	Key.space	n/a
346.034	0.135	692068	keystroke_t	t	n/a
346.274	0.106	692548	keystroke_w	w	n/a
346.394	0.15	692788	keystroke_i	i	n/a
346.725	0.104	693450	keystroke_s	s	n/a
346.995	0.06	693990	keystroke_t	t	n/a
347.43	0.104	694860	keystroke_Key.enter	Key.enter	n/a
347.54	9.776	695080	prompt	n/a	womens alternatives himself charter\n
348.27	0.165	696540	keystroke_w	w	n/a
348.465	0.1345	696930	keystroke_o	o	n/a
348.7045	0.12	697409	keystroke_m	m	n/a
348.8095	0.135	697619	keystroke_e	e	n/a
348.9595	0.105	697919	keystroke_n	n	n/a
349.2445	0.12	698489	keystroke_s	s	n/a
349.7695	0.12	699539	keystroke_Key.space	Key.space	n/a
350.1895	0.135	700379	keystroke_a	a	n/a
350.4295	0.165	700859	keystroke_l	l	n/a
350.639	0.105	701278	keystroke_t	t	n/a
350.984	0.24	701968	keystroke_e	e	n/a
351.179	0.135	702358	keystroke_r	r	n/a
351.375	0.134	702750	keystroke_n	n	n/a
351.524	0.151	703048	keystroke_a	a	n/a
351.644	0.105	703288	keystroke_t	t	n/a
351.809	0.105	703618	keystroke_i	i	n/a
352.034	0.135	704068	keystroke_v	v	n/a
352.214	0.12	704428	keystroke_e	e	n/a
352.394	0.12	704788	keystroke_s	s	n/a
352.949	0.12	705898	keystroke_Key.space	Key.space	n/a
353.279	0.121	706558	keystroke_h	h	n/a
353.429	0.151	706858	keystroke_i	i	n/a
353.669	0.106	707338	keystroke_m	m	n/a
353.789	0.105	707578	keystroke_s	s	n/a
353.984	0.091	707968	keystroke_e	e	n/a
354.089	0.105	708178	keystroke_l	l	n/a
354.855	0.104	709710	keystroke_f	f	n/a
355.109	0.075	710218	keystroke_Key.space	Key.space	n/a
355.469	0.12	710938	keystroke_c	c	n/a
355.634	0.106	711268	keystroke_h	h	n/a
356.1	0.164	712200	keystroke_a	a	n/a
356.249	0.12	712498	keystroke_r	r	n/a
356.52	0.12	713040	keystroke_t	t	n/a
356.759	0.18	713518	keystroke_e	e	n/a
356.894	0.106	713788	keystroke_r	r	n/a
357.179	0.135	714358	keystroke_Key.enter	Key.enter	n/a
357.3185	8.5325	714637	prompt	n/a	maintained petition rays relevance\n
358.154	0.151	716308	keystroke_m	m	n/a
358.319	0.106	716638	keystroke_a	a	n/a
358.484	0.166	716968	keystroke_i	i	n/a
358.65	0.134	717300	keystroke_n	n	n/a
358.8	0.119	717600	keystroke_t	t	n/a
358.934	0.106	717868	keystroke_a	a	n/a
359.054	0.166	718108	keystroke_i	i	n/a
359.159	0.165	718318	keystroke_n	n	n/a
359.294	0.091	718588	keystroke_e	e	n/a
359.579	0.15	719158	keystroke_d	d	n/a
359.744	0.105	719488	keystroke_Key.space	Key.space	n/a
360.314	0.15	720628	keystroke_p	p	n/a
360.479	0.105	720958	keystroke_e	e	n/a
360.749	0.06	721498	keystroke_t	t	n/a
360.899	0.15	721798	keystroke_i	i	n/a
361.394	0.09	722788	keystroke_t	t	n/a
361.574	0.24	723148	keystroke_i	i	n/a
361.694	0.21	723388	keystroke_o	o	n/a
361.844	0.12	723688	keystroke_n	n	n/a
362.249	0.105	724498	keystroke_Key.space	Key.space	n/a
362.669	0.165	725338	keystroke_r	r	n/a
362.849	0.12	725698	keystroke_a	a	n/a
363.014	0.15	726028	keystroke_y	y	n/a
363.194	0.15	726388	keystroke_s	s	n/a
363.329	0.12	726658	keystroke_Key.space	Key.space	n/a
363.554	0.135	727108	keystroke_r	r	n/a
363.764	0.09	727528	keystroke_e	e	n/a
363.914	0.105	727828	keystroke_l	l	n/a
364.004	0.09	728008	keystroke_e	e	n/a
364.334	0.105	728668	keystroke_v	v	n/a
364.634	0.075	729268	keystroke_a	a	n/a
364.739	0.135	729478	keystroke_n	n	n/a
365.054	0.12	730108	keystroke_c	c	n/a
365.384	0.105	730768	keystroke_e	e	n/a
365.729	0.12	731458	keystroke_Key.enter	Key.enter	n/a
365.8535	6.4025	731707	prompt	n/a	hair grave lauren herb\n
366.959	0.09	733918	keystroke_h	h	n/a
367.109	0.105	734218	keystroke_a	a	n/a
367.229	0.105	734458	keystroke_i	i	n/a
367.349	0.135	734698	keystroke_r	r	n/a
367.544	0.075	735088	keystroke_Key.space	Key.space	n/a
367.799	0.09	735598	keystroke_g	g	n/a
368.159	0.075	736318	keystroke_r	r	n/a
368.264	0.09	736528	keystroke_a	a	n/a
368.594	0.135	737188	keystroke_v	v	n/a
368.745	0.104	737490	keystroke_e	e	n/a
369.149	0.075	738298	keystroke_Key.space	Key.space	n/a
369.419	0.165	738838	keystroke_l	l	n/a
369.554	0.105	739108	keystroke_a	a	n/a
369.764	0.12	739528	keystroke_u	u	n/a
369.899	0.15	739798	keystroke_r	r	n/a
370.034	0.15	740068	keystroke_e	e	n/a
370.154	0.105	740308	keystroke_n	n	n/a
370.769	0.12	741538	keystroke_Key.space	Key.space	n/a
371.009	0.105	742018	keystroke_h	h	n/a
371.174	0.165	742348	keystroke_e	e	n/a
371.279	0.12	742558	keystroke_r	r	n/a
371.654	0.09	743308	keystroke_b	b	n/a
372.119	0.135	744238	keystroke_Key.enter	Key.enter	n/a
372.259	7.122	744518	prompt	n/a	spec joan principle gonna\n
373.229	0.12	746458	keystroke_s	s	n/a
373.439	0.12	746878	keystroke_p	p	n/a
373.574	0.06	747148	keystroke_e	e	n/a
373.859	0.09	747718	keystroke_c	c	n/a
374.114	0.105	748228	keystroke_Key.space	Key.space	n/a
374.414	0.105	748828	keystroke_j	j	n/a
374.564	0.18	749128	keystroke_o	o	n/a
374.789	0.165	749578	keystroke_a	a	n/a
374.939	0.105	749878	keystroke_n	n	n/a
375.404	0.12	750808	keystroke_Key.space	Key.space	n/a
375.614	0.12	751228	keystroke_p	p	n/a
375.899	0.12	751798	keystroke_r	r	n/a
376.034	0.135	752068	keystroke_i	i	n/a
376.154	0.135	752308	keystroke_n	n	n/a
376.7245	0.105	753449	keystroke_c	c	n/a
376.8145	0.18	753629	keystroke_i	i	n/a
377.0095	0.12	754019	keystroke_p	p	n/a
377.3395	0.135	754679	keystroke_l	l	n/a
377.5045	0.135	755009	keystroke_e	e	n/a
377.8495	0.12	755699	keystroke_Key.space	Key.space	n/a
378.1495	0.15	756299	keystroke_g	g	n/a
378.3145	0.15	756629	keystroke_o	o	n/a
378.5095	0.06	757019	keystroke_n	n	n/a
378.6295	0.105	757259	keystroke_n	n	n/a
378.8245	0.12	757649	keystroke_a	a	n/a
379.2595	0.12	758519	keystroke_Key.enter	Key.enter	n/a
379.3845	9.251	758769	prompt	n/a	valuable sorry prediction hawk\n
380.2645	0.135	760529	keystroke_v	v	n/a
380.6245	0.075	761249	keystroke_a	a	n/a
380.8195	0.12	761639	keystroke_l	l	n/a
381.134	0.075	762268	keystroke_u	u	n/a
381.269	0.1655	762538	keystroke_a	a	n/a
381.659	0.09	763318	keystroke_b	b	n/a
381.839	0.12	763678	keystroke_l	l	n/a
381.989	0.105	763978	keystroke_e	e	n/a
382.274	0.075	764548	keystroke_Key.space	Key.space	n/a
382.484	0.105	764968	keystroke_s	s	n/a
382.619	0.15	765238	keystroke_o	o	n/a
382.784	0.09	765568	keystroke_r	r	n/a
382.979	0.075	765958	keystroke_r	r	n/a
383.174	0.195	766348	keystroke_y	y	n/a
383.324	0.105	766648	keystroke_Key.space	Key.space	n/a
383.639	0.196	767278	keystroke_p	p	n/a
383.774	0.15	767548	keystroke_r	r	n/a
383.939	0.105	767878	keystroke_e	e	n/a
384.254	0.105	768508	keystroke_d	d	n/a
384.389	0.135	768778	keystroke_i	i	n/a
385.664	0.12	771328	keystroke_c	c	n/a
386.144	0.075	772288	keystroke_t	t	n/a
386.324	0.24	772648	keystroke_i	i	n/a
386.399	0.195	772798	keystroke_o	o	n/a
386.519	0.15	773038	keystroke_n	n	n/a
387.149	0.12	774298	keystroke_Key.space	Key.space	n/a
387.374	0.165	774748	keystroke_h	h	n/a
387.554	0.075	775108	keystroke_a	a	n/a
387.779	0.135	775558	keystroke_w	w	n/a
388.169	0.135	776338	keystroke_k	k	n/a
388.544	0.09	777088	keystroke_Key.enter	Key.enter	n/a
388.6385	9.717	777277	prompt	n/a	eval interviews supported teaching\n
389.504	0.09	779008	keystroke_e	e	n/a
389.864	0.105	779728	keystroke_v	v	n/a
390.164	0.105	780328	keystroke_a	a	n/a
390.329	0.135	780658	keystroke_l	l	n/a
390.569	0.12	781138	keystroke_Key.space	Key.space	n/a
390.704	0.15	781408	keystroke_i	i	n/a
390.839	0.15	781678	keystroke_n	n	n/a
391.004	0.105	782008	keystroke_t	t	n/a
391.169	0.195	782338	keystroke_e	e	n/a
391.319	0.09	782638	keystroke_r	r	n/a
391.694	0.09	783388	keystroke_v	v	n/a
391.829	0.165	783658	keystroke_i	i	n/a
392.024	0.135	784048	keystroke_e	e	n/a
392.144	0.105	784288	keystroke_w	w	n/a
393.119	0.135	786238	keystroke_s	s	n/a
393.704	0.15	787408	keystroke_Key.space	Key.space	n/a
393.974	0.105	787948	keystroke_s	s	n/a
394.139	0.12	788278	keystroke_u	u	n/a
394.319	0.09	788638	keystroke_p	p	n/a
394.529	0.105	789058	keystroke_p	p	n/a
394.754	0.15	789508	keystroke_o	o	n/a
395.129	0.135	790258	keystroke_r	r	n/a
395.429	0.09	790858	keystroke_t	t	n/a
395.654	0.075	791308	keystroke_e	e	n/a
395.924	0.135	791848	keystroke_d	d	n/a
396.089	0.105	792178	keystroke_Key.space	Key.space	n/a
396.509	0.105	793018	keystroke_t	t	n/a
396.749	0.15	793498	keystroke_e	e	n/a
396.914	0.075	793828	keystroke_a	a	n/a
397.244	0.105	794488	keystroke_c	c	n/a
397.409	0.165	794818	keystroke_h	h	n/a
397.559	0.135	795118	keystroke_i	i	n/a
397.679	0.135	795358	keystroke_n	n	n/a
397.829	0.045	795658	keystroke_g	g	n/a
398.234	0.12	796468	keystroke_Key.enter	Key.enter	n/a
398.3585	14.952	796717	prompt	n/a	machinery therapeutic determines recreational\n
399.374	0.135	798748	keystroke_m	m	n/a
399.524	0.09	799048	keystroke_a	a	n/a
399.854	0.12	799708	keystroke_c	c	n/a
399.989	0.12	799978	keystroke_h	h	n/a
400.124	0.15	800248	keystroke_i	i	n/a
400.259	0.15	800518	keystroke_n	n	n/a
400.424	0.181	800848	keystroke_e	e	n/a
400.544	0.15	801088	keystroke_r	r	n/a
400.814	0.211	801628	keystroke_y	y	n/a
401.009	0.135	802018	keystroke_Key.space	Key.space	n/a
401.789	0.06	803578	keystroke_t	t	n/a
401.924	0.135	803848	keystroke_h	h	n/a
402.044	0.15	804088	keystroke_e	e	n/a
402.149	0.09	804298	keystroke_r	r	n/a
402.329	0.12	804658	keystroke_a	a	n/a
402.569	0.15	805138	keystroke_p	p	n/a
403.919	0.105	807838	keystroke_e	e	n/a
404.6245	0.135	809249	keystroke_u	u	n/a
405.2845	0.075	810569	keystroke_t	t	n/a
405.5845	0.135	811169	keystroke_i	i	n/a
405.8395	0.09	811679	keystroke_v	v	n/a
406.5295	0.045	813059	keystroke_Key.backspace	Key.backspace	n/a
406.6495	0.075	813299	keystroke_c	c	n/a
407.0995	0.09	814199	keystroke_Key.space	Key.space	n/a
407.4295	0.12	814859	keystroke_d	d	n/a
407.7295	0.165	815459	keystroke_e	e	n/a
408.1645	0.135	816329	keystroke_t	t	n/a
408.4495	0.15	816899	keystroke_e	e	n/a
408.5845	0.105	817169	keystroke_r	r	n/a
408.7495	0.12	817499	keystroke_m	m	n/a
409.0045	0.165	818009	keystroke_i	i	n/a
409.1545	0.075	818309	keystroke_n	n	n/a
409.1845	0.075	818369	keystroke_e	e	n/a
409.5145	0.12	819029	keystroke_s	s	n/a
409.9795	0.075	819959	keystroke_Key.space	Key.space	n/a
410.2495	0.135	820499	keystroke_r	r	n/a
410.3695	0.15	820739	keystroke_e	e	n/a
410.8345	0.12	821669	keystroke_c	c	n/a
411.2245	0.135	822449	keystroke_r	r	n/a
411.3745	0.15	822749	keystroke_e	e	n/a
411.5095	0.12	823019	keystroke_a	a	n/a
411.7195	0.075	823439	keystroke_t	t	n/a
411.8545	0.18	823709	keystroke_i	i	n/a
411.9895	0.105	823979	keystroke_o	o	n/a
412.0495	0.15	824099	keystroke_n	n	n/a
412.2295	0.105	824459	keystroke_a	a	n/a
412.4245	0.12	824849	keystroke_l	l	n/a
413.1895	0.12	826379	keystroke_Key.enter	Key.enter	n/a
413.314	9.0115	826628	prompt	n/a	used suspected ashley coalition\n
414.2395	0.15	828479	keystroke_u	u	n/a
414.4045	0.105	828809	keystroke_s	s	n/a
414.5245	0.105	829049	keystroke_e	e	n/a
414.7945	0.12	829589	keystroke_d	d	n/a
414.9595	0.12	829919	keystroke_Key.space	Key.space	n/a
415.1395	0.135	830279	keystroke_s	s	n/a
415.3195	0.105	830639	keystroke_u	u	n/a
415.4395	0.15	830879	keystroke_s	s	n/a
415.6795	0.09	831359	keystroke_p	p	n/a
416.0845	0.105	832169	keystroke_e	e	n/a
416.4895	0.12	832979	keystroke_c	c	n/a
416.8945	0.135	833789	keystroke_t	t	n/a
417.1195	0.105	834239	keystroke_e	e	n/a
417.3745	0.135	834749	keystroke_d	d	n/a
417.5845	0.105	835169	keystroke_Key.space	Key.space	n/a
417.9595	0.105	835919	keystroke_a	a	n/a
418.1995	0.105	836399	keystroke_s	s	n/a
418.5895	0.06	837179	keystroke_h	h	n/a
418.8895	0.18	837779	keystroke_l	l	n/a
419.0395	0.135	838079	keystroke_e	e	n/a
419.2945	0.15	838589	keystroke_y	y	n/a
419.4145	0.135	838829	keystroke_Key.space	Key.space	n/a
419.9845	0.12	839969	keystroke_c	c	n/a
420.1795	0.135	840359	keystroke_o	o	n/a
420.3895	0.09	840779	keystroke_a	a	n/a
420.5995	0.105	841199	keystroke_l	l	n/a
420.8245	0.165	841649	keystroke_i	i	n/a
421.0195	0.12	842039	keystroke_t	t	n/a
421.1545	0.21	842309	keystroke_i	i	n/a
421.2145	0.165	842429	keystroke_o	o	n/a
421.3345	0.12	842669	keystroke_n	n	n/a
422.2195	0.105	844439	keystroke_Key.enter	Key.enter	n/a
422.328	7.273	844656	prompt	n/a	doing encryption dallas beam\n
423.2695	0.135	846539	keystroke_d	d	n/a
423.3895	0.12	846779	keystroke_o	o	n/a
423.4795	0.15	846959	keystroke_i	i	n/a
423.6145	0.075	847229	keystroke_n	n	n/a
423.6745	0.12	847349	keystroke_g	g	n/a
423.8545	0.075	847709	keystroke_Key.space	Key.space	n/a
424.0045	0.12	848009	keystroke_e	e	n/a
424.1695	0.105	848339	keystroke_n	n	n/a
424.4395	0.12	848879	keystroke_c	c	n/a
424.7995	0.105	849599	keystroke_r	r	n/a
425.3245	0.105	850649	keystroke_y	y	n/a
425.5645	0.12	851129	keystroke_p	p	n/a
425.8645	0.12	851729	keystroke_t	t	n/a
425.9695	0.18	851939	keystroke_i	i	n/a
426.0445	0.18	852089	keystroke_o	o	n/a
426.1345	0.105	852269	keystroke_n	n	n/a
426.5095	0.105	853019	keystroke_Key.space	Key.space	n/a
426.8695	0.09	853739	keystroke_d	d	n/a
427.0945	0.09	854189	keystroke_a	a	n/a
427.2445	0.075	854489	keystroke_l	l	n/a
427.3945	0.105	854789	keystroke_l	l	n/a
427.4995	0.105	854999	keystroke_a	a	n/a
427.7395	0.12	855479	keystroke_s	s	n/a
427.9645	0.075	855929	keystroke_Key.space	Key.space	n/a
428.3545	0.06	856709	keystroke_b	b	n/a
428.5345	0.12	857069	keystroke_e	e	n/a
428.7145	0.15	857429	keystroke_a	a	n/a
429.1345	0.12	858269	keystroke_m	m	n/a
429.4945	0.105	858989	keystroke_Key.enter	Key.enter	n/a
429.6055	9.416	859211	prompt	n/a	setup someone's sponsors variety\n
430.574	0.075	861148	keystroke_s	s	n/a
430.754	0.09	861508	keystroke_e	e	n/a
430.994	0.135	861988	keystroke_t	t	n/a
431.519	0.12	863038	keystroke_u	u	n/a
431.729	0.135	863458	keystroke_p	p	n/a
431.984	0.09	863968	keystroke_Key.space	Key.space	n/a
432.149	0.12	864298	keystroke_s	s	n/a
432.284	0.135	864568	keystroke_o	o	n/a
432.524	0.1355	865048	keystroke_m	m	n/a
432.7495	0.12	865499	keystroke_e	e	n/a
433.2445	0.195	866489	keystroke_o	o	n/a
433.4245	0.135	866849	keystroke_n	n	n/a
433.5445	0.105	867089	keystroke_e	e	n/a
433.8595	0.12	867719	keystroke_'	'	n/a
434.0095	0.12	868019	keystroke_s	s	n/a
434.2495	0.075	868499	keystroke_Key.space	Key.space	n/a
434.624	0.135	869248	keystroke_s	s	n/a
434.789	0.105	869578	keystroke_p	p	n/a
434.969	0.18	869938	keystroke_o	o	n/a
435.119	0.15	870238	keystroke_n	n	n/a
435.239	0.135	870478	keystroke_s	s	n/a
435.449	0.18	870898	keystroke_o	o	n/a
435.854	0.1355	871708	keystroke_r	r	n/a
436.6495	0.015	873299	keystroke_s	s	n/a
436.7395	0.09	873479	keystroke_Key.space	Key.space	n/a
436.9795	0.105	873959	keystroke_v	v	n/a
437.2795	0.135	874559	keystroke_a	a	n/a
437.6995	0.09	875399	keystroke_r	r	n/a
437.9395	0.15	875879	keystroke_i	i	n/a
438.0595	0.105	876119	keystroke_e	e	n/a
438.2995	0.105	876599	keystroke_t	t	n/a
438.4645	0.1355	876929	keystroke_y	y	n/a
438.914	0.105	877828	keystroke_Key.enter	Key.enter	n/a
439.024	8.442	878048	prompt	n/a	recovery framework isolated tied\n
439.905	0.15	879810	keystroke_r	r	n/a
440.07	0.105	880140	keystroke_e	e	n/a
440.6545	0.15	881309	keystroke_c	c	n/a
440.8345	0.12	881669	keystroke_o	o	n/a
441.0595	0.105	882119	keystroke_v	v	n/a
441.3895	0.18	882779	keystroke_e	e	n/a
441.5095	0.18	883019	keystroke_r	r	n/a
441.7945	0.165	883589	keystroke_y	y	n/a
441.9145	0.135	883829	keystroke_Key.space	Key.space	n/a
442.2145	0.075	884429	keystroke_f	f	n/a
442.4995	0.18	884999	keystroke_r	r	n/a
442.6495	0.105	885299	keystroke_a	a	n/a
442.8745	0.09	885749	keystroke_m	m	n/a
442.9945	0.105	885989	keystroke_e	e	n/a
443.2645	0.09	886529	keystroke_w	w	n/a
443.3845	0.09	886769	keystroke_o	o	n/a
443.4895	0.135	886979	keystroke_r	r	n/a
443.6395	0.105	887279	keystroke_k	k	n/a
444.1345	0.105	888269	keystroke_Key.space	Key.space	n/a
444.3145	0.135	888629	keystroke_i	i	n/a
444.8695	0.105	889739	keystroke_s	s	n/a
444.9895	0.09	889979	keystroke_o	o	n/a
445.2445	0.195	890489	keystroke_l	l	n/a
445.3795	0.15	890759	keystroke_a	a	n/a
445.5145	0.105	891029	keystroke_t	t	n/a
445.6795	0.105	891359	keystroke_e	e	n/a
445.9495	0.12	891899	keystroke_d	d	n/a
446.0545	0.12	892109	keystroke_Key.space	Key.space	n/a
446.3695	0.12	892739	keystroke_t	t	n/a
446.5495	0.105	893099	keystroke_i	i	n/a
446.6695	0.09	893339	keystroke_e	e	n/a
446.9395	0.135	893879	keystroke_d	d	n/a
447.3595	0.105	894719	keystroke_Key.enter	Key.enter	n/a
447.4695	13.8715	894939	prompt	n/a	cemetery synthetic korea wilson\n
448.3645	0.12	896729	keystroke_c	c	n/a
448.9945	0.12	897989	keystroke_e	e	n/a
449.2195	0.12	898439	keystroke_m	m	n/a
449.3245	0.105	898649	keystroke_e	e	n/a
449.6245	0.09	899249	keystroke_t	t	n/a
449.8645	0.12	899729	keystroke_a	a	n/a
449.9395	0.135	899879	keystroke_r	r	n/a
451.1395	0.12	902279	keystroke_Key.backspace	Key.backspace	n/a
451.3945	0.15	902789	keystroke_Key.backspace	Key.backspace	n/a
454.0665	0.088	908133	keystroke_e	e	n/a
454.1695	0.135	908339	keystroke_r	r	n/a
454.4395	0.12	908879	keystroke_y	y	n/a
454.7395	0.135	909479	keystroke_Key.space	Key.space	n/a
454.9345	0.135	909869	keystroke_s	s	n/a
455.0995	0.105	910199	keystroke_y	y	n/a
455.3995	0.105	910799	keystroke_n	n	n/a
455.5195	0.12	911039	keystroke_t	t	n/a
455.8355	0.119	911671	keystroke_h	h	n/a
455.9695	0.105	911939	keystroke_e	e	n/a
456.7045	0.06	913409	keystroke_t	t	n/a
456.7795	0.105	913559	keystroke_i	i	n/a
457.0795	0.135	914159	keystroke_c	c	n/a
457.5145	0.09	915029	keystroke_Key.space	Key.space	n/a
458.1295	0.135	916259	keystroke_k	k	n/a
458.3995	0.12	916799	keystroke_o	o	n/a
458.6695	0.15	917339	keystroke_r	r	n/a
458.8645	0.195	917729	keystroke_e	e	n/a
459.1195	0.105	918239	keystroke_a	a	n/a
459.4495	0.105	918899	keystroke_Key.space	Key.space	n/a
459.8995	0.165	919799	keystroke_w	w	n/a
460.0495	0.12	920099	keystroke_i	i	n/a
460.3795	0.12	920759	keystroke_l	l	n/a
460.545	0.1495	921090	keystroke_s	s	n/a
460.7095	0.195	921419	keystroke_o	o	n/a
460.8895	0.12	921779	keystroke_n	n	n/a
461.249	0.0905	922498	keystroke_Key.enter	Key.enter	n/a
461.3435	9.162	922687	prompt	n/a	right wiring silver springs\n
462.329	0.12	924658	keystroke_r	r	n/a
462.464	0.1355	924928	keystroke_i	i	n/a
462.6745	0.105	925349	keystroke_h	h	n/a
462.8095	0.135	925619	keystroke_t	t	n/a
463.5745	0.045	927149	keystroke_Key.backspace	Key.backspace	n/a
463.6795	0.105	927359	keystroke_Key.backspace	Key.backspace	n/a
463.9195	0.09	927839	keystroke_g	g	n/a
464.0695	0.135	928139	keystroke_h	h	n/a
464.1895	0.105	928379	keystroke_t	t	n/a
464.5195	0.1195	929039	keystroke_Key.space	Key.space	n/a
464.895	0.075	929790	keystroke_w	w	n/a
465.029	0.091	930058	keystroke_i	i	n/a
465.134	0.105	930268	keystroke_r	r	n/a
465.255	0.164	930510	keystroke_i	i	n/a
465.435	0.15	930870	keystroke_n	n	n/a
465.57	0.09	931140	keystroke_g	g	n/a
466.169	0.06	932338	keystroke_Key.space	Key.space	n/a
466.364	0.135	932728	keystroke_s	s	n/a
466.484	0.075	932968	keystroke_i	i	n/a
466.7245	0.135	933449	keystroke_l	l	n/a
467.0245	0.09	934049	keystroke_v	v	n/a
467.3095	0.165	934619	keystroke_e	e	n/a
467.4145	0.15	934829	keystroke_r	r	n/a
467.5945	0.15	935189	keystroke_Key.space	Key.space	n/a
467.7895	0.135	935579	keystroke_s	s	n/a
468.0445	0.15	936089	keystroke_p	p	n/a
468.2395	0.165	936479	keystroke_r	r	n/a
468.3745	0.135	936749	keystroke_i	i	n/a
468.5095	0.165	937019	keystroke_n	n	n/a
468.8845	0.15	937769	keystroke_s	s	n/a
469.6495	0.105	939299	keystroke_Key.backspace	Key.backspace	n/a
469.7995	0.105	939599	keystroke_g	g	n/a
470.0245	0.12	940049	keystroke_s	s	n/a
470.4145	0.09	940829	keystroke_Key.enter	Key.enter	n/a
470.5085	8.7575	941017	prompt	n/a	verbal enclosed promotes kenya\n
471.704	0.105	943408	keystroke_v	v	n/a
471.989	0.15	943978	keystroke_e	e	n/a
472.109	0.09	944218	keystroke_r	r	n/a
472.409	0.105	944818	keystroke_b	b	n/a
472.619	0.12	945238	keystroke_a	a	n/a
472.844	0.165	945688	keystroke_l	l	n/a
473.129	0.105	946258	keystroke_Key.space	Key.space	n/a
473.579	0.0905	947158	keystroke_e	e	n/a
473.7145	0.12	947429	keystroke_n	n	n/a
474	0.12	948000	keystroke_c	c	n/a
474.18	0.105	948360	keystroke_l	l	n/a
474.405	0.12	948810	keystroke_o	o	n/a
474.51	0.135	949020	keystroke_s	s	n/a
474.63	0.09	949260	keystroke_e	e	n/a
475.05	0.105	950100	keystroke_d	d	n/a
475.259	0.105	950518	keystroke_Key.space	Key.space	n/a
475.545	0.165	951090	keystroke_p	p	n/a
475.725	0.15	951450	keystroke_r	r	n/a
475.89	0.105	951780	keystroke_o	o	n/a
476.205	0.12	952410	keystroke_m	m	n/a
476.445	0.18	952890	keystroke_o	o	n/a
476.58	0.105	953160	keystroke_t	t	n/a
476.73	0.135	953460	keystroke_e	e	n/a
476.895	0.15	953790	keystroke_s	s	n/a
477.105	0.09	954210	keystroke_Key.space	Key.space	n/a
477.465	0.12	954930	keystroke_k	k	n/a
477.645	0.135	955290	keystroke_e	e	n/a
477.825	0.075	955650	keystroke_n	n	n/a
478.17	0.105	956340	keystroke_y	y	n/a
478.335	0.165	956670	keystroke_a	a	n/a
479.145	0.12	958290	keystroke_Key.enter	Key.enter	n/a
479.2685	10.4975	958537	prompt	n/a	combo pointer showed survivor\n
480.285	0.135	960570	keystroke_c	c	n/a
480.45	0.105	960900	keystroke_o	o	n/a
480.645	0.12	961290	keystroke_m	m	n/a
481.035	0.075	962070	keystroke_b	b	n/a
481.155	0.135	962310	keystroke_o	o	n/a
481.515	0.105	963030	keystroke_Key.space	Key.space	n/a
482.085	0.09	964170	keystroke_p	p	n/a
482.25	0.075	964500	keystroke_o	o	n/a
482.31	0.21	964620	keystroke_i	i	n/a
482.55	0.195	965100	keystroke_n	n	n/a
482.805	0.09	965610	keystroke_t	t	n/a
483.03	0.18	966060	keystroke_e	e	n/a
483.165	0.135	966330	keystroke_r	r	n/a
483.6	0.105	967200	keystroke_Key.space	Key.space	n/a
483.855	0.12	967710	keystroke_s	s	n/a
483.96	0.12	967920	keystroke_h	h	n/a
484.32	0.15	968640	keystroke_w	w	n/a
484.89	0.09	969780	keystroke_Key.backspace	Key.backspace	n/a
485.145	0.165	970290	keystroke_o	o	n/a
485.25	0.12	970500	keystroke_w	w	n/a
485.475	0.06	970950	keystroke_e	e	n/a
485.73	0.135	971460	keystroke_d	d	n/a
485.925	0.135	971850	keystroke_Key.space	Key.space	n/a
486.315	0.12	972630	keystroke_s	s	n/a
486.465	0.135	972930	keystroke_u	u	n/a
486.63	0.15	973260	keystroke_r	r	n/a
487.095	0.12	974190	keystroke_v	v	n/a
487.32	0.09	974640	keystroke_i	i	n/a
488.1	0.105	976200	keystroke_v	v	n/a
488.28	0.165	976560	keystroke_o	o	n/a
488.565	0.075	977130	keystroke_r	r	n/a
489.6	0.165	979200	keystroke_Key.enter	Key.enter	n/a
489.769	8.577	979538	prompt	n/a	innovations speaking classroom state\n
490.725	0.165	981450	keystroke_i	i	n/a
491.04	0.06	982080	keystroke_n	n	n/a
491.175	0.09	982350	keystroke_n	n	n/a
491.37	0.21	982740	keystroke_o	o	n/a
491.61	0.12	983220	keystroke_v	v	n/a
491.91	0.15	983820	keystroke_a	a	n/a
492.075	0.12	984150	keystroke_t	t	n/a
492.18	0.165	984360	keystroke_i	i	n/a
492.255	0.165	984510	keystroke_o	o	n/a
492.33	0.165	984660	keystroke_n	n	n/a
492.51	0.12	985020	keystroke_s	s	n/a
492.854	0.12	985708	keystroke_Key.space	Key.space	n/a
493.109	0.136	986218	keystroke_s	s	n/a
493.29	0.135	986580	keystroke_p	p	n/a
493.44	0.164	986880	keystroke_e	e	n/a
493.59	0.165	987180	keystroke_a	a	n/a
493.815	0.06	987630	keystroke_k	k	n/a
494.01	0.21	988020	keystroke_i	i	n/a
494.205	0.12	988410	keystroke_n	n	n/a
494.31	0.09	988620	keystroke_g	g	n/a
494.5345	0.09	989069	keystroke_Key.space	Key.space	n/a
494.9545	0.135	989909	keystroke_c	c	n/a
495.1945	0.09	990389	keystroke_l	l	n/a
495.4195	0.12	990839	keystroke_a	a	n/a
495.6595	0.06	991319	keystroke_s	s	n/a
495.8095	0.09	991619	keystroke_s	s	n/a
496.0495	0.135	992099	keystroke_r	r	n/a
496.2895	0.06	992579	keystroke_o	o	n/a
496.4395	0.15	992879	keystroke_o	o	n/a
496.7395	0.105	993479	keystroke_m	m	n/a
496.9945	0.105	993989	keystroke_Key.space	Key.space	n/a
497.1145	0.12	994229	keystroke_s	s	n/a
497.3545	0.15	994709	keystroke_t	t	n/a
497.5345	0.075	995069	keystroke_a	a	n/a
497.5795	0.15	995159	keystroke_t	t	n/a
497.7745	0.135	995549	keystroke_e	e	n/a
498.2395	0.105	996479	keystroke_Key.enter	Key.enter	n/a
498.3485	10.9475	996697	prompt	n/a	mines data arrange finances\n
499.3495	0.105	998699	keystroke_m	m	n/a
499.6045	0.15	999209	keystroke_i	i	n/a
499.7095	0.135	999419	keystroke_n	n	n/a
499.7995	0.105	999599	keystroke_e	e	n/a
500.0245	0.135	1000049	keystroke_s	s	n/a
500.3245	0.12	1000649	keystroke_Key.space	Key.space	n/a
500.5495	0.105	1001099	keystroke_d	d	n/a
500.804	0.1355	1001608	keystroke_a	a	n/a
500.924	0.15	1001848	keystroke_t	t	n/a
501.1195	0.0895	1002239	keystroke_a	a	n/a
501.539	0.105	1003078	keystroke_Key.space	Key.space	n/a
501.884	0.12	1003768	keystroke_a	a	n/a
502.049	0.09	1004098	keystroke_r	r	n/a
502.244	0.15	1004488	keystroke_r	r	n/a
502.634	0.12	1005268	keystroke_a	a	n/a
502.799	0.135	1005598	keystroke_n	n	n/a
503.009	0.06	1006018	keystroke_g	g	n/a
503.189	0.105	1006378	keystroke_e	e	n/a
503.489	0.105	1006978	keystroke_Key.space	Key.space	n/a
503.834	0.105	1007668	keystroke_f	f	n/a
503.984	0.135	1007968	keystroke_i	i	n/a
504.134	0.15	1008268	keystroke_n	n	n/a
504.359	0.105	1008718	keystroke_a	a	n/a
504.509	0.12	1009018	keystroke_n	n	n/a
505.244	0.09	1010488	keystroke_c	c	n/a
505.604	0.18	1011208	keystroke_e	e	n/a
505.814	0.12	1011628	keystroke_s	s	n/a
509.237	0.057	1018474	keystroke_Key.enter	Key.enter	n/a
509.299	11.277	1018598	prompt	n/a	tired convertible provisions photographers\n
510.15	0.074	1020300	keystroke_t	t	n/a
511.05	0.254	1022100	keystroke_i	i	n/a
511.2	0.074	1022400	keystroke_r	r	n/a
511.365	0.135	1022730	keystroke_e	e	n/a
511.665	0.135	1023330	keystroke_d	d	n/a
511.919	0.105	1023838	keystroke_Key.space	Key.space	n/a
512.249	0.166	1024498	keystroke_c	c	n/a
512.37	0.164	1024740	keystroke_o	o	n/a
512.505	0.149	1025010	keystroke_n	n	n/a
512.834	0.09	1025668	keystroke_v	v	n/a
513.164	0.136	1026328	keystroke_e	e	n/a
513.27	0.12	1026540	keystroke_r	r	n/a
513.54	0.119	1027080	keystroke_t	t	n/a
513.765	0.134	1027530	keystroke_i	i	n/a
513.959	0.09	1027918	keystroke_b	b	n/a
514.125	0.149	1028250	keystroke_l	l	n/a
514.244	0.121	1028488	keystroke_e	e	n/a
514.679	0.105	1029358	keystroke_Key.space	Key.space	n/a
515.1	0.165	1030200	keystroke_p	p	n/a
515.28	0.135	1030560	keystroke_r	r	n/a
515.399	0.121	1030798	keystroke_o	o	n/a
515.715	0.089	1031430	keystroke_v	v	n/a
515.865	0.105	1031730	keystroke_i	i	n/a
515.985	0.12	1031970	keystroke_s	s	n/a
516.09	0.194	1032180	keystroke_i	i	n/a
516.18	0.165	1032360	keystroke_o	o	n/a
516.254	0.166	1032508	keystroke_n	n	n/a
516.39	0.12	1032780	keystroke_s	s	n/a
517.005	0.089	1034010	keystroke_Key.space	Key.space	n/a
517.2	0.165	1034400	keystroke_p	p	n/a
517.47	0.12	1034940	keystroke_h	h	n/a
517.605	0.195	1035210	keystroke_o	o	n/a
517.83	0.105	1035660	keystroke_t	t	n/a
517.965	0.12	1035930	keystroke_o	o	n/a
518.311	0.089	1036622	keystroke_g	g	n/a
518.565	0.195	1037130	keystroke_r	r	n/a
518.715	0.12	1037430	keystroke_a	a	n/a
518.925	0.12	1037850	keystroke_p	p	n/a
519.135	0.135	1038270	keystroke_h	h	n/a
519.225	0.18	1038450	keystroke_e	e	n/a
519.345	0.12	1038690	keystroke_r	r	n/a
519.54	0.135	1039080	keystroke_s	s	n/a
520.455	0.1195	1040910	keystroke_Key.enter	Key.enter	n/a
520.579	7.587	1041158	prompt	n/a	pairs performed usgs illegal\n
521.3995	0.15	1042799	keystroke_p	p	n/a
521.5345	0.135	1043069	keystroke_a	a	n/a
521.6545	0.135	1043309	keystroke_i	i	n/a
521.8045	0.06	1043609	keystroke_r	r	n/a
522.0595	0.165	1044119	keystroke_s	s	n/a
522.2395	0.09	1044479	keystroke_Key.space	Key.space	n/a
522.6895	0.18	1045379	keystroke_p	p	n/a
522.7795	0.165	1045559	keystroke_e	e	n/a
522.8845	0.12	1045769	keystroke_r	r	n/a
523.1095	0.15	1046219	keystroke_f	f	n/a
523.2745	0.105	1046549	keystroke_o	o	n/a
523.3945	0.075	1046789	keystroke_r	r	n/a
523.5145	0.12	1047029	keystroke_m	m	n/a
523.6495	0.075	1047299	keystroke_e	e	n/a
523.9045	0.12	1047809	keystroke_d	d	n/a
524.2345	0.06	1048469	keystroke_Key.space	Key.space	n/a
524.5345	0.1505	1049069	keystroke_u	u	n/a
524.655	0.15	1049310	keystroke_s	s	n/a
525.33	0.105	1050660	keystroke_g	g	n/a
525.615	0.12	1051230	keystroke_s	s	n/a
525.96	0.06	1051920	keystroke_Key.space	Key.space	n/a
526.05	0.135	1052100	keystroke_i	i	n/a
526.485	0.075	1052970	keystroke_l	l	n/a
526.6645	0.165	1053329	keystroke_l	l	n/a
526.8745	0.075	1053749	keystroke_e	e	n/a
527.2795	0.135	1054559	keystroke_g	g	n/a
527.4595	0.12	1054919	keystroke_a	a	n/a
527.6395	0.105	1055279	keystroke_l	l	n/a
528.0445	0.12	1056089	keystroke_Key.enter	Key.enter	n/a
528.169	9.537	1056338	prompt	n/a	insulation porcelain verbal genetics\n
528.99	0.15	1057980	keystroke_i	i	n/a
529.154	0.151	1058308	keystroke_n	n	n/a
529.35	0.104	1058700	keystroke_s	s	n/a
529.575	0.105	1059150	keystroke_u	u	n/a
529.89	0.239	1059780	keystroke_l	l	n/a
530.069	0.136	1060138	keystroke_a	a	n/a
530.235	0.09	1060470	keystroke_t	t	n/a
530.385	0.165	1060770	keystroke_i	i	n/a
530.445	0.135	1060890	keystroke_o	o	n/a
530.52	0.1195	1061040	keystroke_n	n	n/a
530.9545	0.075	1061909	keystroke_Key.space	Key.space	n/a
531.1945	0.135	1062389	keystroke_p	p	n/a
531.4945	0.135	1062989	keystroke_o	o	n/a
531.7345	0.09	1063469	keystroke_r	r	n/a
532.1395	0.12	1064279	keystroke_c	c	n/a
532.4545	0.06	1064909	keystroke_e	e	n/a
532.6495	0.135	1065299	keystroke_l	l	n/a
532.7995	0.12	1065599	keystroke_a	a	n/a
532.9345	0.18	1065869	keystroke_i	i	n/a
533.0695	0.12	1066139	keystroke_n	n	n/a
533.5045	0.12	1067009	keystroke_Key.space	Key.space	n/a
533.7595	0.12	1067519	keystroke_v	v	n/a
534.0745	0.135	1068149	keystroke_e	e	n/a
534.1795	0.105	1068359	keystroke_r	r	n/a
534.5095	0.09	1069019	keystroke_b	b	n/a
534.7045	0.12	1069409	keystroke_a	a	n/a
534.9295	0.15	1069859	keystroke_l	l	n/a
535.2145	0.09	1070429	keystroke_Key.space	Key.space	n/a
535.5895	0.105	1071179	keystroke_g	g	n/a
535.7545	0.12	1071509	keystroke_e	e	n/a
535.9195	0.12	1071839	keystroke_n	n	n/a
536.0095	0.12	1072019	keystroke_e	e	n/a
536.2945	0.09	1072589	keystroke_t	t	n/a
536.4145	0.09	1072829	keystroke_i	i	n/a
536.6995	0.12	1073399	keystroke_c	c	n/a
536.9995	0.09	1073999	keystroke_s	s	n/a
537.5695	0.135	1075139	keystroke_Key.enter	Key.enter	n/a
537.71	14.576	1075420	prompt	n/a	prospective thereafter leave desperate\n
538.5895	0.18	1077179	keystroke_p	p	n/a
538.7545	0.09	1077509	keystroke_r	r	n/a
538.8745	0.12	1077749	keystroke_o	o	n/a
539.1445	0.15	1078289	keystroke_s	s	n/a
539.3245	0.15	1078649	keystroke_p	p	n/a
539.4595	0.105	1078919	keystroke_e	e	n/a
539.8045	0.135	1079609	keystroke_c	c	n/a
540.2095	0.105	1080419	keystroke_t	t	n/a
540.3595	0.135	1080719	keystroke_i	i	n/a
540.6445	0.15	1081289	keystroke_v	v	n/a
540.8095	0.135	1081619	keystroke_e	e	n/a
540.9595	0.075	1081919	keystroke_Key.space	Key.space	n/a
541.2145	0.075	1082429	keystroke_t	t	n/a
541.3195	0.15	1082639	keystroke_h	h	n/a
541.4245	0.15	1082849	keystroke_e	e	n/a
541.5295	0.135	1083059	keystroke_r	r	n/a
541.6495	0.105	1083299	keystroke_e	e	n/a
542.2045	0.105	1084409	keystroke_a	a	n/a
542.4595	0.12	1084919	keystroke_f	f	n/a
542.9995	0.15	1085999	keystroke_e	e	n/a
543.6295	0.135	1087259	keystroke_Key.backspace	Key.backspace	n/a
543.8245	0.105	1087649	keystroke_t	t	n/a
543.8395	0.03	1087679	keystroke_g	g	n/a
544.0195	0.225	1088039	keystroke_e	e	n/a
544.1845	0.135	1088369	keystroke_r	r	n/a
544.7245	0.105	1089449	keystroke_Key.backspace	Key.backspace	n/a
544.9045	0.075	1089809	keystroke_Key.backspace	Key.backspace	n/a
545.0095	0.135	1090019	keystroke_Key.backspace	Key.backspace	n/a
545.6395	0.105	1091279	keystroke_Key.backspace	Key.backspace	n/a
546.6595	0.075	1093319	keystroke_t	t	n/a
546.8845	0.18	1093769	keystroke_e	e	n/a
547.0045	0.135	1094009	keystroke_r	r	n/a
547.8745	0.12	1095749	keystroke_Key.space	Key.space	n/a
548.1895	0.12	1096379	keystroke_l	l	n/a
548.2795	0.15	1096559	keystroke_e	e	n/a
548.4445	0.105	1096889	keystroke_a	a	n/a
548.7595	0.12	1097519	keystroke_v	v	n/a
548.9095	0.12	1097819	keystroke_e	e	n/a
549.1345	0.09	1098269	keystroke_Key.space	Key.space	n/a
549.4195	0.105	1098839	keystroke_d	d	n/a
549.6745	0.105	1099349	keystroke_e	e	n/a
549.8995	0.135	1099799	keystroke_s	s	n/a
550.0945	0.135	1100189	keystroke_p	p	n/a
550.4395	0.18	1100879	keystroke_e	e	n/a
550.6645	0.15	1101329	keystroke_r	r	n/a
550.9345	0.12	1101869	keystroke_a	a	n/a
551.0995	0.105	1102199	keystroke_t	t	n/a
551.3245	0.09	1102649	keystroke_e	e	n/a
552.1795	0.105	1104359	keystroke_Key.enter	Key.enter	n/a
552.289	10.7825	1104578	prompt	n/a	mature sixth adventures strips\n
553.38	0.164	1106760	keystroke_m	m	n/a
553.619	0.075	1107238	keystroke_a	a	n/a
553.814	0.045	1107628	keystroke_t	t	n/a
553.979	0.09	1107958	keystroke_u	u	n/a
554.099	0.105	1108198	keystroke_r	r	n/a
554.189	0.165	1108378	keystroke_e	e	n/a
554.384	0.09	1108768	keystroke_Key.space	Key.space	n/a
554.6995	0.12	1109399	keystroke_s	s	n/a
554.8645	0.075	1109729	keystroke_i	i	n/a
555.1945	0.135	1110389	keystroke_x	x	n/a
555.7345	0.105	1111469	keystroke_t	t	n/a
555.8995	0.165	1111799	keystroke_h	h	n/a
556.0345	0.15	1112069	keystroke_Key.space	Key.space	n/a
556.2745	0.105	1112549	keystroke_a	a	n/a
556.5595	0.1045	1113119	keystroke_d	d	n/a
557.429	0.09	1114858	keystroke_v	v	n/a
557.714	0.09	1115428	keystroke_e	e	n/a
557.834	0.06	1115668	keystroke_n	n	n/a
558.284	0.105	1116568	keystroke_t	t	n/a
558.539	0.121	1117078	keystroke_u	u	n/a
558.63	0.12	1117260	keystroke_r	r	n/a
558.765	0.18	1117530	keystroke_e	e	n/a
558.975	0.12	1117950	keystroke_s	s	n/a
559.155	0.09	1118310	keystroke_Key.space	Key.space	n/a
559.35	0.105	1118700	keystroke_s	s	n/a
559.62	0.09	1119240	keystroke_t	t	n/a
559.86	0.09	1119720	keystroke_t	t	n/a
559.935	0.165	1119870	keystroke_i	i	n/a
560.16	0.12	1120320	keystroke_p	p	n/a
560.7295	0.075	1121459	keystroke_Key.backspace	Key.backspace	n/a
560.8645	0.12	1121729	keystroke_Key.backspace	Key.backspace	n/a
561.2695	0.105	1122539	keystroke_Key.backspace	Key.backspace	n/a
561.4345	0.12	1122869	keystroke_r	r	n/a
561.5845	0.165	1123169	keystroke_i	i	n/a
562.2145	0.15	1124429	keystroke_p	p	n/a
562.4695	0.135	1124939	keystroke_s	s	n/a
562.9495	0.12	1125899	keystroke_Key.enter	Key.enter	n/a
563.074	8.352	1126148	prompt	n/a	wings challenges anybody workstation\n
563.9545	0.09	1127909	keystroke_w	w	n/a
564.0895	0.12	1128179	keystroke_i	i	n/a
564.2105	0.164	1128421	keystroke_n	n	n/a
564.3595	0.09	1128719	keystroke_g	g	n/a
564.6295	0.135	1129259	keystroke_s	s	n/a
564.8695	0.06	1129739	keystroke_Key.space	Key.space	n/a
565.3645	0.135	1130729	keystroke_c	c	n/a
565.5745	0.09	1131149	keystroke_h	h	n/a
565.7695	0.135	1131539	keystroke_a	a	n/a
565.9645	0.045	1131929	keystroke_l	l	n/a
566.0995	0.12	1132199	keystroke_l	l	n/a
566.2345	0.09	1132469	keystroke_e	e	n/a
566.4145	0.09	1132829	keystroke_n	n	n/a
566.5345	0.09	1133069	keystroke_g	g	n/a
566.6695	0.105	1133339	keystroke_e	e	n/a
566.8645	0.12	1133729	keystroke_s	s	n/a
567.2395	0.12	1134479	keystroke_Key.space	Key.space	n/a
567.4945	0.18	1134989	keystroke_a	a	n/a
567.6295	0.09	1135259	keystroke_n	n	n/a
567.9895	0.12	1135979	keystroke_y	y	n/a
568.1995	0.09	1136399	keystroke_b	b	n/a
568.3645	0.105	1136729	keystroke_o	o	n/a
568.6495	0.105	1137299	keystroke_d	d	n/a
568.9045	0.15	1137809	keystroke_y	y	n/a
569.0395	0.135	1138079	keystroke_Key.space	Key.space	n/a
569.3095	0.105	1138619	keystroke_w	w	n/a
569.3995	0.09	1138799	keystroke_o	o	n/a
569.5045	0.12	1139009	keystroke_r	r	n/a
569.6545	0.09	1139309	keystroke_k	k	n/a
569.8495	0.15	1139699	keystroke_s	s	n/a
570.2245	0.135	1140449	keystroke_t	t	n/a
570.3745	0.135	1140749	keystroke_a	a	n/a
570.4945	0.09	1140989	keystroke_t	t	n/a
570.6145	0.15	1141229	keystroke_i	i	n/a
570.6895	0.105	1141379	keystroke_o	o	n/a
570.7495	0.135	1141499	keystroke_n	n	n/a
571.3195	0.105	1142639	keystroke_Key.enter	Key.enter	n/a
571.429	13.392	1142858	prompt	n/a	partially separate thoughts arrival\n
572.3995	0.165	1144799	keystroke_p	p	n/a
572.6095	0.18	1145219	keystroke_a	a	n/a
572.7295	0.15	1145459	keystroke_r	r	n/a
573.0145	0.09	1146029	keystroke_t	t	n/a
573.1345	0.105	1146269	keystroke_i	i	n/a
573.2545	0.105	1146509	keystroke_a	a	n/a
573.4345	0.075	1146869	keystroke_l	l	n/a
573.5845	0.105	1147169	keystroke_l	l	n/a
573.9595	0.18	1147919	keystroke_y	y	n/a
574.0645	0.165	1148129	keystroke_Key.space	Key.space	n/a
574.3045	0.135	1148609	keystroke_s	s	n/a
574.5445	0.09	1149089	keystroke_e	e	n/a
574.7395	0.15	1149479	keystroke_p	p	n/a
574.9345	0.135	1149869	keystroke_e	e	n/a
575.1445	0.165	1150289	keystroke_r	r	n/a
575.3845	0.135	1150769	keystroke_a	a	n/a
575.5345	0.12	1151069	keystroke_t	t	n/a
575.7445	0.09	1151489	keystroke_e	e	n/a
576.7795	0.075	1153559	keystroke_Key.backspace	Key.backspace	n/a
576.9145	0.075	1153829	keystroke_Key.backspace	Key.backspace	n/a
577.0795	0.195	1154159	keystroke_Key.backspace	Key.backspace	n/a
577.3645	0.075	1154729	keystroke_Key.backspace	Key.backspace	n/a
577.7695	0.105	1155539	keystroke_Key.backspace	Key.backspace	n/a
578.0095	0.12	1156019	keystroke_a	a	n/a
578.1595	0.15	1156319	keystroke_r	r	n/a
578.3245	0.18	1156649	keystroke_a	a	n/a
578.4895	0.135	1156979	keystroke_t	t	n/a
578.6695	0.09	1157339	keystroke_e	e	n/a
579.0895	0.105	1158179	keystroke_Key.space	Key.space	n/a
579.3445	0.12	1158689	keystroke_t	t	n/a
579.4795	0.12	1158959	keystroke_h	h	n/a
579.8095	0.09	1159619	keystroke_o	o	n/a
580.3495	0.09	1160699	keystroke_g	g	n/a
580.4545	0.105	1160909	keystroke_u	u	n/a
581.0245	0.045	1162049	keystroke_Key.backspace	Key.backspace	n/a
581.1445	0.09	1162289	keystroke_Key.backspace	Key.backspace	n/a
581.3695	0.105	1162739	keystroke_u	u	n/a
582.12	0.06	1164240	keystroke_g	g	n/a
582.3	0.135	1164600	keystroke_h	h	n/a
582.465	0.09	1164930	keystroke_t	t	n/a
582.854	0.135	1165708	keystroke_s	s	n/a
583.034	0.045	1166068	keystroke_Key.space	Key.space	n/a
583.319	0.12	1166638	keystroke_a	a	n/a
583.394	0.09	1166788	keystroke_r	r	n/a
583.559	0.105	1167118	keystroke_r	r	n/a
583.6795	0.1195	1167359	keystroke_i	i	n/a
583.9045	0.1195	1167809	keystroke_v	v	n/a
584.144	0.105	1168288	keystroke_a	a	n/a
584.279	0.15	1168558	keystroke_l	l	n/a
584.669	0.15	1169338	keystroke_Key.enter	Key.enter	n/a
584.824	6.552	1169648	prompt	n/a	spatial since winds grace\n
585.585	0.135	1171170	keystroke_s	s	n/a
585.84	0.135	1171680	keystroke_p	p	n/a
586.02	0.089	1172040	keystroke_a	a	n/a
586.199	0.09	1172398	keystroke_t	t	n/a
586.365	0.105	1172730	keystroke_i	i	n/a
586.604	0.1205	1173208	keystroke_a	a	n/a
586.7695	0.135	1173539	keystroke_l	l	n/a
587.0245	0.12	1174049	keystroke_Key.space	Key.space	n/a
587.2945	0.12	1174589	keystroke_s	s	n/a
587.4295	0.12	1174859	keystroke_i	i	n/a
587.5645	0.135	1175129	keystroke_n	n	n/a
587.789	0.1355	1175578	keystroke_c	c	n/a
588.1045	0.105	1176209	keystroke_e	e	n/a
588.2245	0.0895	1176449	keystroke_Key.space	Key.space	n/a
588.735	0.105	1177470	keystroke_w	w	n/a
588.81	0.165	1177620	keystroke_i	i	n/a
588.945	0.15	1177890	keystroke_n	n	n/a
589.17	0.12	1178340	keystroke_d	d	n/a
589.395	0.06	1178790	keystroke_s	s	n/a
589.664	0.076	1179328	keystroke_Key.space	Key.space	n/a
589.95	0.12	1179900	keystroke_g	g	n/a
590.25	0.1645	1180500	keystroke_r	r	n/a
590.3995	0.105	1180799	keystroke_a	a	n/a
590.729	0.09	1181458	keystroke_c	c	n/a
591.014	0.105	1182028	keystroke_e	e	n/a
591.269	0.105	1182538	keystroke_Key.enter	Key.enter	n/a
591.379	9.012	1182758	prompt	n/a	apply undefined truly transmitted\n
592.41	0.105	1184820	keystroke_a	a	n/a
592.694	0.12	1185388	keystroke_p	p	n/a
592.979	0.12	1185958	keystroke_p	p	n/a
593.369	0.121	1186738	keystroke_l	l	n/a
593.699	0.15	1187398	keystroke_y	y	n/a
593.759	0.15	1187518	keystroke_Key.space	Key.space	n/a
594.074	0.105	1188148	keystroke_u	u	n/a
594.314	0.105	1188628	keystroke_n	n	n/a
594.434	0.106	1188868	keystroke_d	d	n/a
594.69	0.09	1189380	keystroke_e	e	n/a
594.914	0.105	1189828	keystroke_f	f	n/a
595.02	0.164	1190040	keystroke_i	i	n/a
595.124	0.15	1190248	keystroke_n	n	n/a
595.244	0.09	1190488	keystroke_e	e	n/a
595.544	0.121	1191088	keystroke_d	d	n/a
595.784	0.09	1191568	keystroke_Key.space	Key.space	n/a
596.144	0.105	1192288	keystroke_t	t	n/a
596.384	0.09	1192768	keystroke_r	r	n/a
596.549	0.09	1193098	keystroke_u	u	n/a
596.939	0.06	1193878	keystroke_l	l	n/a
597.179	0.136	1194358	keystroke_y	y	n/a
597.269	0.15	1194538	keystroke_Key.space	Key.space	n/a
597.554	0.105	1195108	keystroke_t	t	n/a
597.809	0.165	1195618	keystroke_r	r	n/a
597.944	0.121	1195888	keystroke_a	a	n/a
598.079	0.105	1196158	keystroke_n	n	n/a
598.215	0.119	1196430	keystroke_s	s	n/a
598.574	0.105	1197148	keystroke_m	m	n/a
598.829	0.135	1197658	keystroke_i	i	n/a
598.994	0.06	1197988	keystroke_t	t	n/a
599.129	0.105	1198258	keystroke_t	t	n/a
599.34	0.089	1198680	keystroke_e	e	n/a
599.594	0.135	1199188	keystroke_d	d	n/a
600.269	0.12	1200538	keystroke_Key.enter	Key.enter	n/a
600.3935	5.668	1200787	prompt	n/a	jewel silver come drama\n
601.199	0.105	1202398	keystroke_j	j	n/a
601.379	0.165	1202758	keystroke_e	e	n/a
601.619	0.12	1203238	keystroke_w	w	n/a
601.769	0.135	1203538	keystroke_e	e	n/a
602.024	0.135	1204048	keystroke_l	l	n/a
602.294	0.12	1204588	keystroke_Key.space	Key.space	n/a
602.429	0.15	1204858	keystroke_s	s	n/a
602.549	0.075	1205098	keystroke_i	i	n/a
602.744	0.135	1205488	keystroke_l	l	n/a
603.029	0.105	1206058	keystroke_v	v	n/a
603.3145	0.1345	1206629	keystroke_e	e	n/a
603.419	0.105	1206838	keystroke_r	r	n/a
603.5545	0.105	1207109	keystroke_Key.space	Key.space	n/a
603.8395	0.105	1207679	keystroke_c	c	n/a
603.9445	0.12	1207889	keystroke_o	o	n/a
604.1545	0.12	1208309	keystroke_m	m	n/a
604.2895	0.12	1208579	keystroke_e	e	n/a
604.4695	0.06	1208939	keystroke_Key.space	Key.space	n/a
604.6945	0.105	1209389	keystroke_d	d	n/a
604.9945	0.165	1209989	keystroke_r	r	n/a
605.1445	0.12	1210289	keystroke_a	a	n/a
605.3095	0.105	1210619	keystroke_m	m	n/a
605.4295	0.09	1210859	keystroke_a	a	n/a
605.9545	0.105	1211909	keystroke_Key.enter	Key.enter	n/a
606.0645	8.1715	1212129	prompt	n/a	blow solomon medicine also\n
607.1845	0.09	1214369	keystroke_b	b	n/a
607.4995	0.06	1214999	keystroke_l	l	n/a
607.7995	0.135	1215599	keystroke_o	o	n/a
607.9195	0.135	1215839	keystroke_w	w	n/a
608.2795	0.09	1216559	keystroke_Key.space	Key.space	n/a
608.5045	0.09	1217009	keystroke_s	s	n/a
608.6395	0.09	1217279	keystroke_o	o	n/a
608.8945	0.12	1217789	keystroke_l	l	n/a
609.1495	0.135	1218299	keystroke_o	o	n/a
609.4495	0.12	1218899	keystroke_m	m	n/a
609.7495	0.15	1219499	keystroke_o	o	n/a
609.8695	0.09	1219739	keystroke_n	n	n/a
610.4695	0.075	1220939	keystroke_Key.space	Key.space	n/a
610.844	0.12	1221688	keystroke_m	m	n/a
611.009	0.06	1222018	keystroke_e	e	n/a
611.279	0.09	1222558	keystroke_d	d	n/a
611.384	0.075	1222768	keystroke_i	i	n/a
611.85	0.135	1223700	keystroke_c	c	n/a
612.194	0.09	1224388	keystroke_i	i	n/a
612.344	0.135	1224688	keystroke_n	n	n/a
612.435	0.105	1224870	keystroke_e	e	n/a
612.899	0.105	1225798	keystroke_Key.space	Key.space	n/a
613.394	0.135	1226788	keystroke_a	a	n/a
613.574	0.12	1227148	keystroke_l	l	n/a
613.709	0.12	1227418	keystroke_s	s	n/a
613.844	0.105	1227688	keystroke_o	o	n/a
614.129	0.105	1228258	keystroke_Key.enter	Key.enter	n/a
614.2395	7.4515	1228479	prompt	n/a	actors place sheet expenditure\n
615.1195	0.09	1230239	keystroke_a	a	n/a
615.4195	0.105	1230839	keystroke_c	c	n/a
615.8095	0.09	1231619	keystroke_t	t	n/a
615.9595	0.105	1231919	keystroke_o	o	n/a
616.0495	0.09	1232099	keystroke_r	r	n/a
616.3045	0.12	1232609	keystroke_s	s	n/a
616.576	0.073	1233152	keystroke_Key.space	Key.space	n/a
616.754	0.106	1233508	keystroke_p	p	n/a
617.025	0.165	1234050	keystroke_l	l	n/a
617.144	0.106	1234288	keystroke_a	a	n/a
617.46	0.119	1234920	keystroke_c	c	n/a
617.774	0.106	1235548	keystroke_e	e	n/a
617.924	0.105	1235848	keystroke_Key.space	Key.space	n/a
618.12	0.134	1236240	keystroke_s	s	n/a
618.285	0.135	1236570	keystroke_h	h	n/a
618.465	0.06	1236930	keystroke_e	e	n/a
618.6	0.1045	1237200	keystroke_e	e	n/a
618.8995	0.09	1237799	keystroke_t	t	n/a
619.0495	0.09	1238099	keystroke_Key.space	Key.space	n/a
619.3045	0.12	1238609	keystroke_e	e	n/a
619.6795	0.12	1239359	keystroke_x	x	n/a
619.8295	0.15	1239659	keystroke_p	p	n/a
620.0245	0.135	1240049	keystroke_e	e	n/a
620.2045	0.06	1240409	keystroke_n	n	n/a
620.3695	0.09	1240739	keystroke_d	d	n/a
620.4745	0.135	1240949	keystroke_i	i	n/a
620.729	0.0755	1241458	keystroke_t	t	n/a
620.8645	0.1195	1241729	keystroke_u	u	n/a
620.9995	0.135	1241999	keystroke_r	r	n/a
621.1195	0.1345	1242239	keystroke_e	e	n/a
621.585	0.105	1243170	keystroke_Key.enter	Key.enter	n/a
621.696	8.9655	1243392	prompt	n/a	builders tiger scan similar\n
622.83	0.09	1245660	keystroke_b	b	n/a
623.07	0.0895	1246140	keystroke_u	u	n/a
623.2645	0.09	1246529	keystroke_i	i	n/a
623.4295	0.135	1246859	keystroke_l	l	n/a
623.9395	0.105	1247879	keystroke_d	d	n/a
624.2545	0.12	1248509	keystroke_e	e	n/a
624.3445	0.105	1248689	keystroke_r	r	n/a
624.5845	0.12	1249169	keystroke_s	s	n/a
624.9745	0.12	1249949	keystroke_Key.space	Key.space	n/a
625.365	0.0895	1250730	keystroke_t	t	n/a
625.4545	0.12	1250909	keystroke_i	i	n/a
625.6645	0.075	1251329	keystroke_g	g	n/a
625.8445	0.24	1251689	keystroke_e	e	n/a
626.0245	0.15	1252049	keystroke_r	r	n/a
626.6095	0.12	1253219	keystroke_Key.space	Key.space	n/a
627.0745	0.045	1254149	keystroke_s	s	n/a
627.2995	0.105	1254599	keystroke_c	c	n/a
627.6595	0.075	1255319	keystroke_a	a	n/a
627.8095	0.075	1255619	keystroke_n	n	n/a
628.0045	0.12	1256009	keystroke_Key.space	Key.space	n/a
628.6345	0.12	1257269	keystroke_s	s	n/a
628.8895	0.105	1257779	keystroke_i	i	n/a
629.1595	0.09	1258319	keystroke_m	m	n/a
629.4295	0.09	1258859	keystroke_i	i	n/a
629.6695	0.15	1259339	keystroke_l	l	n/a
629.9695	0.135	1259939	keystroke_a	a	n/a
630.0895	0.12	1260179	keystroke_r	r	n/a
630.5245	0.135	1261049	keystroke_Key.enter	Key.enter	n/a
630.668	8.6185	1261336	prompt	n/a	belgium caution them charity\n
631.6195	0.09	1263239	keystroke_b	b	n/a
631.8595	0.105	1263719	keystroke_e	e	n/a
632.0995	0.135	1264199	keystroke_l	l	n/a
632.4445	0.135	1264889	keystroke_g	g	n/a
632.6095	0.12	1265219	keystroke_i	i	n/a
632.8945	0.12	1265789	keystroke_u	u	n/a
633.2695	0.105	1266539	keystroke_m	m	n/a
633.5695	0.06	1267139	keystroke_Key.space	Key.space	n/a
633.8395	0.09	1267679	keystroke_c	c	n/a
634.2595	0.105	1268519	keystroke_a	a	n/a
634.4545	0.105	1268909	keystroke_u	u	n/a
634.8595	0.12	1269719	keystroke_t	t	n/a
634.9495	0.21	1269899	keystroke_i	i	n/a
635.0395	0.165	1270079	keystroke_o	o	n/a
635.1445	0.12	1270289	keystroke_n	n	n/a
635.5795	0.12	1271159	keystroke_Key.space	Key.space	n/a
636.0145	0.105	1272029	keystroke_t	t	n/a
636.2395	0.135	1272479	keystroke_h	h	n/a
636.3445	0.135	1272689	keystroke_e	e	n/a
636.5845	0.075	1273169	keystroke_m	m	n/a
637.1245	0.105	1274249	keystroke_Key.space	Key.space	n/a
637.6045	0.12	1275209	keystroke_c	c	n/a
637.7845	0.12	1275569	keystroke_h	h	n/a
637.9945	0.135	1275989	keystroke_a	a	n/a
638.1295	0.12	1276259	keystroke_r	r	n/a
638.3095	0.15	1276619	keystroke_i	i	n/a
638.489	0.105	1276978	keystroke_t	t	n/a
638.669	0.12	1277338	keystroke_y	y	n/a
639.179	0.105	1278358	keystroke_Key.enter	Key.enter	n/a
639.291	7.69	1278582	prompt	n/a	forests congo accepted canon\n
640.094	0.135	1280188	keystroke_f	f	n/a
640.274	0.165	1280548	keystroke_o	o	n/a
640.424	0.121	1280848	keystroke_r	r	n/a
640.545	0.12	1281090	keystroke_e	e	n/a
640.77	0.09	1281540	keystroke_s	s	n/a
641.01	0.105	1282020	keystroke_t	t	n/a
641.31	0.135	1282620	keystroke_s	s	n/a
641.535	0.09	1283070	keystroke_Key.space	Key.space	n/a
641.82	0.135	1283640	keystroke_c	c	n/a
641.895	0.1645	1283790	keystroke_o	o	n/a
642.015	0.1345	1284030	keystroke_n	n	n/a
642.21	0.15	1284420	keystroke_g	g	n/a
642.3745	0.105	1284749	keystroke_o	o	n/a
642.9145	0.075	1285829	keystroke_Key.space	Key.space	n/a
643.1845	0.075	1286369	keystroke_a	a	n/a
643.5145	0.06	1287029	keystroke_c	c	n/a
643.6795	0.09	1287359	keystroke_c	c	n/a
643.9795	0.09	1287959	keystroke_e	e	n/a
644.1895	0.165	1288379	keystroke_p	p	n/a
644.3395	0.12	1288679	keystroke_t	t	n/a
644.5195	0.105	1289039	keystroke_e	e	n/a
644.7745	0.12	1289549	keystroke_d	d	n/a
644.9245	0.12	1289849	keystroke_Key.space	Key.space	n/a
645.3445	0.12	1290689	keystroke_c	c	n/a
645.614	0.105	1291228	keystroke_a	a	n/a
645.7795	0.0745	1291559	keystroke_n	n	n/a
646.139	0.18	1292278	keystroke_o	o	n/a
646.304	0.15	1292608	keystroke_n	n	n/a
646.9045	0.075	1293809	keystroke_Key.enter	Key.enter	n/a
646.9835	7.5875	1293967	prompt	n/a	i eval preston beside\n
647.7745	0.135	1295549	keystroke_i	i	n/a
648.1945	0.09	1296389	keystroke_Key.space	Key.space	n/a
648.3445	0.09	1296689	keystroke_e	e	n/a
648.6745	0.075	1297349	keystroke_v	v	n/a
648.8395	0.12	1297679	keystroke_a	a	n/a
648.9895	0.135	1297979	keystroke_l	l	n/a
649.2595	0.09	1298519	keystroke_Key.space	Key.space	n/a
649.5895	0.15	1299179	keystroke_p	p	n/a
649.7995	0.15	1299599	keystroke_r	r	n/a
649.9795	0.18	1299959	keystroke_e	e	n/a
650.1445	0.135	1300289	keystroke_s	s	n/a
650.3995	0.135	1300799	keystroke_t	t	n/a
650.5495	0.195	1301099	keystroke_o	o	n/a
650.654	0.1055	1301308	keystroke_n	n	n/a
650.864	0.1205	1301728	keystroke_Key.space	Key.space	n/a
651.134	0.075	1302268	keystroke_b	b	n/a
651.359	0.09	1302718	keystroke_e	e	n/a
651.614	0.0905	1303228	keystroke_s	s	n/a
651.719	0.15	1303438	keystroke_i	i	n/a
652.4095	0.15	1304819	keystroke_d	d	n/a
652.694	0.06	1305388	keystroke_e	e	n/a
654.449	0.12	1308898	keystroke_Key.enter	Key.enter	n/a
654.574	7.332	1309148	prompt	n/a	bigger petition hired drums\n
655.619	0.09	1311238	keystroke_b	b	n/a
655.829	0.12	1311658	keystroke_i	i	n/a
656.069	0.105	1312138	keystroke_g	g	n/a
656.264	0.09	1312528	keystroke_g	g	n/a
656.43	0.194	1312860	keystroke_e	e	n/a
656.594	0.105	1313188	keystroke_r	r	n/a
656.759	0.105	1313518	keystroke_Key.space	Key.space	n/a
657.239	0.121	1314478	keystroke_p	p	n/a
657.494	0.105	1314988	keystroke_e	e	n/a
657.734	0.06	1315468	keystroke_t	t	n/a
657.854	0.09	1315708	keystroke_i	i	n/a
657.929	0.09	1315858	keystroke_t	t	n/a
658.034	0.15	1316068	keystroke_i	i	n/a
658.124	0.15	1316248	keystroke_o	o	n/a
658.214	0.105	1316428	keystroke_n	n	n/a
658.679	0.12	1317358	keystroke_Key.space	Key.space	n/a
658.979	0.135	1317958	keystroke_h	h	n/a
659.204	0.12	1318408	keystroke_i	i	n/a
659.294	0.105	1318588	keystroke_r	r	n/a
659.444	0.045	1318888	keystroke_e	e	n/a
659.639	0.12	1319278	keystroke_d	d	n/a
659.789	0.12	1319578	keystroke_Key.space	Key.space	n/a
660.149	0.12	1320298	keystroke_d	d	n/a
660.434	0.105	1320868	keystroke_r	r	n/a
660.584	0.105	1321168	keystroke_u	u	n/a
660.914	0.03	1321828	keystroke_m	m	n/a
660.989	0.105	1321978	keystroke_s	s	n/a
661.799	0.105	1323598	keystroke_Key.enter	Key.enter	n/a
661.9085	10.3625	1323817	prompt	n/a	standings phrases cheapest template\n
662.654	0.12	1325308	keystroke_s	s	n/a
663.074	0.105	1326148	keystroke_a	a	n/a
663.554	0.09	1327108	keystroke_Key.backspace	Key.backspace	n/a
663.704	0.121	1327408	keystroke_t	t	n/a
663.854	0.105	1327708	keystroke_a	a	n/a
663.974	0.105	1327948	keystroke_n	n	n/a
664.139	0.121	1328278	keystroke_d	d	n/a
664.214	0.151	1328428	keystroke_i	i	n/a
664.349	0.06	1328698	keystroke_n	n	n/a
664.424	0.105	1328848	keystroke_g	g	n/a
664.785	0.119	1329570	keystroke_s	s	n/a
665.009	0.12	1330018	keystroke_Key.space	Key.space	n/a
665.279	0.135	1330558	keystroke_p	p	n/a
665.459	0.12	1330918	keystroke_h	h	n/a
665.624	0.15	1331248	keystroke_r	r	n/a
665.804	0.105	1331608	keystroke_a	a	n/a
666.119	0.075	1332238	keystroke_c	c	n/a
666.539	0.105	1333078	keystroke_Key.backspace	Key.backspace	n/a
666.689	0.121	1333378	keystroke_s	s	n/a
666.854	0.106	1333708	keystroke_e	e	n/a
667.004	0.135	1334008	keystroke_s	s	n/a
667.409	0.12	1334818	keystroke_Key.space	Key.space	n/a
667.934	0.135	1335868	keystroke_c	c	n/a
668.13	0.119	1336260	keystroke_h	h	n/a
668.294	0.166	1336588	keystroke_e	e	n/a
668.429	0.135	1336858	keystroke_a	a	n/a
668.76	0.119	1337520	keystroke_p	p	n/a
668.894	0.12	1337788	keystroke_e	e	n/a
669.119	0.12	1338238	keystroke_s	s	n/a
669.374	0.09	1338748	keystroke_t	t	n/a
669.749	0.105	1339498	keystroke_Key.space	Key.space	n/a
670.139	0.076	1340278	keystroke_t	t	n/a
670.32	0.119	1340640	keystroke_e	e	n/a
670.499	0.09	1340998	keystroke_m	m	n/a
670.724	0.075	1341448	keystroke_p	p	n/a
670.979	0.15	1341958	keystroke_l	l	n/a
671.204	0.135	1342408	keystroke_a	a	n/a
671.444	0.105	1342888	keystroke_t	t	n/a
671.579	0.105	1343158	keystroke_e	e	n/a
672.164	0.105	1344328	keystroke_Key.enter	Key.enter	n/a
672.2755	11.8755	1344551	prompt	n/a	fever malawi omaha simpson\n
673.139	0.105	1346278	keystroke_f	f	n/a
673.349	0.06	1346698	keystroke_e	e	n/a
673.619	0.09	1347238	keystroke_v	v	n/a
673.799	0.195	1347598	keystroke_e	e	n/a
674.009	0.075	1348018	keystroke_r	r	n/a
674.264	0.09	1348528	keystroke_Key.space	Key.space	n/a
674.985	0.09	1349970	keystroke_m	m	n/a
675.165	0.105	1350330	keystroke_a	a	n/a
675.36	0.135	1350720	keystroke_l	l	n/a
675.48	0.12	1350960	keystroke_a	a	n/a
675.765	0.135	1351530	keystroke_w	w	n/a
675.915	0.09	1351830	keystroke_i	i	n/a
676.425	0.12	1352850	keystroke_Key.space	Key.space	n/a
676.6945	0.165	1353389	keystroke_o	o	n/a
676.9945	0.135	1353989	keystroke_m	m	n/a
677.2045	0.06	1354409	keystroke_a	a	n/a
677.4895	0.105	1354979	keystroke_h	h	n/a
677.7295	0.12	1355459	keystroke_a	a	n/a
678.1945	0.045	1356389	keystroke_Key.space	Key.space	n/a
678.5245	0.12	1357049	keystroke_s	s	n/a
678.6895	0.12	1357379	keystroke_i	i	n/a
678.9595	0.105	1357919	keystroke_m	m	n/a
679.2595	0.06	1358519	keystroke_p	p	n/a
679.3495	0.09	1358699	keystroke_s	s	n/a
679.8595	0.225	1359719	keystroke_o	o	n/a
680.0395	0.105	1360079	keystroke_n	n	n/a
684.0765	0.073	1368153	keystroke_Key.enter	Key.enter	n/a
684.154	10.332	1368308	prompt	n/a	polish modern andorra browsers\n
685.154	0.1505	1370308	keystroke_p	p	n/a
685.844	0.105	1371688	keystroke_o	o	n/a
686.099	0.1205	1372198	keystroke_l	l	n/a
686.324	0.1205	1372648	keystroke_i	i	n/a
686.459	0.105	1372918	keystroke_s	s	n/a
686.534	0.105	1373068	keystroke_h	h	n/a
686.684	0.135	1373368	keystroke_Key.space	Key.space	n/a
687.329	0.12	1374658	keystroke_m	m	n/a
687.554	0.18	1375108	keystroke_o	o	n/a
687.749	0.075	1375498	keystroke_d	d	n/a
687.989	0.135	1375978	keystroke_e	e	n/a
688.094	0.135	1376188	keystroke_r	r	n/a
688.23	0.074	1376460	keystroke_n	n	n/a
688.409	0.12	1376818	keystroke_Key.space	Key.space	n/a
688.724	0.12	1377448	keystroke_a	a	n/a
688.919	0.105	1377838	keystroke_n	n	n/a
689.159	0.09	1378318	keystroke_d	d	n/a
689.279	0.135	1378558	keystroke_o	o	n/a
689.624	0.12	1379248	keystroke_r	r	n/a
689.804	0.15	1379608	keystroke_r	r	n/a
689.984	0.09	1379968	keystroke_a	a	n/a
690.344	0.12	1380688	keystroke_Key.space	Key.space	n/a
690.839	0.075	1381678	keystroke_b	b	n/a
691.259	0.06	1382518	keystroke_r	r	n/a
691.424	0.15	1382848	keystroke_o	o	n/a
691.514	0.12	1383028	keystroke_w	w	n/a
691.934	0.105	1383868	keystroke_s	s	n/a
692.234	0.225	1384468	keystroke_e	e	n/a
692.429	0.105	1384858	keystroke_r	r	n/a
692.909	0.105	1385818	keystroke_s	s	n/a
694.364	0.12	1388728	keystroke_Key.enter	Key.enter	n/a
694.489	7.7365	1388978	prompt	n/a	isolated featuring chevy onion\n
695.399	0.135	1390798	keystroke_i	i	n/a
695.549	0.15	1391098	keystroke_s	s	n/a
695.684	0.12	1391368	keystroke_o	o	n/a
695.984	0.33	1391968	keystroke_l	l	n/a
696.134	0.165	1392268	keystroke_a	a	n/a
696.284	0.135	1392568	keystroke_t	t	n/a
696.464	0.075	1392928	keystroke_e	e	n/a
696.674	0.105	1393348	keystroke_d	d	n/a
696.929	0.105	1393858	keystroke_Key.space	Key.space	n/a
697.514	0.075	1395028	keystroke_f	f	n/a
697.695	0.149	1395390	keystroke_e	e	n/a
697.889	0.105	1395778	keystroke_a	a	n/a
697.995	0.104	1395990	keystroke_t	t	n/a
698.219	0.105	1396438	keystroke_u	u	n/a
698.324	0.135	1396648	keystroke_r	r	n/a
698.729	0.24	1397458	keystroke_i	i	n/a
698.97	0.134	1397940	keystroke_n	n	n/a
699.089	0.105	1398178	keystroke_g	g	n/a
699.464	0.135	1398928	keystroke_Key.space	Key.space	n/a
699.869	0.135	1399738	keystroke_c	c	n/a
700.019	0.12	1400038	keystroke_h	h	n/a
700.199	0.09	1400398	keystroke_e	e	n/a
700.514	0.105	1401028	keystroke_v	v	n/a
700.694	0.15	1401388	keystroke_y	y	n/a
700.829	0.135	1401658	keystroke_Key.space	Key.space	n/a
701.099	0.165	1402198	keystroke_o	o	n/a
701.265	0.104	1402530	keystroke_n	n	n/a
701.489	0.255	1402978	keystroke_i	i	n/a
701.639	0.151	1403278	keystroke_o	o	n/a
701.76	0.134	1403520	keystroke_n	n	n/a
702.134	0.09	1404268	keystroke_Key.enter	Key.enter	n/a
702.2285	10.5575	1404457	prompt	n/a	vocal foundations supports handhelds\n
703.3495	0.135	1406699	keystroke_v	v	n/a
703.4995	0.135	1406999	keystroke_o	o	n/a
703.7545	0.105	1407509	keystroke_c	c	n/a
704.0245	0.105	1408049	keystroke_a	a	n/a
704.1445	0.09	1408289	keystroke_l	l	n/a
704.2945	0.12	1408589	keystroke_Key.space	Key.space	n/a
704.939	0.135	1409878	keystroke_f	f	n/a
705.089	0.165	1410178	keystroke_o	o	n/a
705.209	0.105	1410418	keystroke_u	u	n/a
705.449	0.105	1410898	keystroke_n	n	n/a
705.569	0.09	1411138	keystroke_d	d	n/a
705.809	0.15	1411618	keystroke_a	a	n/a
705.96	0.089	1411920	keystroke_t	t	n/a
706.034	0.195	1412068	keystroke_i	i	n/a
706.094	0.165	1412188	keystroke_o	o	n/a
706.184	0.135	1412368	keystroke_n	n	n/a
706.304	0.105	1412608	keystroke_s	s	n/a
706.604	0.075	1413208	keystroke_Key.space	Key.space	n/a
706.784	0.12	1413568	keystroke_s	s	n/a
706.949	0.09	1413898	keystroke_u	u	n/a
707.114	0.06	1414228	keystroke_p	p	n/a
707.264	0.18	1414528	keystroke_p	p	n/a
707.519	0.15	1415038	keystroke_o	o	n/a
707.759	0.105	1415518	keystroke_r	r	n/a
708.014	0.06	1416028	keystroke_t	t	n/a
708.404	0.09	1416808	keystroke_s	s	n/a
708.495	0.135	1416990	keystroke_Key.space	Key.space	n/a
708.87	0.12	1417740	keystroke_h	h	n/a
709.02	0.09	1418040	keystroke_a	a	n/a
709.2	0.09	1418400	keystroke_n	n	n/a
709.365	0.12	1418730	keystroke_d	d	n/a
709.875	0.105	1419750	keystroke_h	h	n/a
709.995	0.09	1419990	keystroke_e	e	n/a
710.19	0.18	1420380	keystroke_l	l	n/a
710.34	0.105	1420680	keystroke_f	f	n/a
