onset	duration	sample	value	key	prompt_text
58.23	0.163	116460	keystroke_Key.cmd	Key.cmd	n/a
58.3185	0.107	116637	keystroke_Key.tab	Key.tab	n/a
129.2695	0.075	258539	keystroke_v	v	n/a
129.314	0.1205	258628	keystroke_i	i	n/a
129.4795	0.12	258959	keystroke_s	s	n/a
129.555	0.0595	259110	keystroke_h	h	n/a
132.3295	0.27	264659	keystroke_Key.cmd	Key.cmd	n/a
132.4345	0.165	264869	keystroke_v	v	n/a
136.485	0.1495	272970	keystroke_Key.space	Key.space	n/a
136.6435	4.959	273287	prompt	n/a	the quick brown fox jumps over a lazy dog\n
137.01	0.09	274020	keystroke_t	t	n/a
137.025	0.105	274050	keystroke_h	h	n/a
137.145	0.135	274290	keystroke_e	e	n/a
137.235	0.1055	274470	keystroke_Key.space	Key.space	n/a
137.2945	0.1955	274589	keystroke_q	q	n/a
137.445	0.105	274890	keystroke_u	u	n/a
137.505	0.075	275010	keystroke_i	i	n/a
137.565	0.15	275130	keystroke_c	c	n/a
137.7	0.105	275400	keystroke_k	k	n/a
137.775	0.075	275550	keystroke_Key.space	Key.space	n/a
137.79	0.075	275580	keystroke_b	b	n/a
137.9545	0.136	275909	keystroke_r	r	n/a
138.06	0.0895	276120	keystroke_o	o	n/a
138.12	0.1345	276240	keystroke_w	w	n/a
138.27	0.075	276540	keystroke_n	n	n/a
138.3	0.09	276600	keystroke_Key.space	Key.space	n/a
138.36	0.12	276720	keystroke_f	f	n/a
138.495	0.1045	276990	keystroke_o	o	n/a
138.735	0.1195	277470	keystroke_x	x	n/a
138.8245	0.0755	277649	keystroke_Key.space	Key.space	n/a
138.93	0.09	277860	keystroke_j	j	n/a
139.11	0.075	278220	keystroke_u	u	n/a
139.26	0.1045	278520	keystroke_m	m	n/a
139.305	0.1495	278610	keystroke_p	p	n/a
139.395	0.1495	278790	keystroke_s	s	n/a
139.47	0.105	278940	keystroke_Key.space	Key.space	n/a
139.56	0.1045	279120	keystroke_o	o	n/a
139.6225	0.0875	279245	keystroke_v	v	n/a
139.7245	0.12	279449	keystroke_e	e	n/a
139.8295	0.0605	279659	keystroke_r	r	n/a
139.86	0.0595	279720	keystroke_Key.space	Key.space	n/a
139.95	0.1045	279900	keystroke_a	a	n/a
140.04	0.09	280080	keystroke_Key.space	Key.space	n/a
140.145	0.1345	280290	keystroke_l	l	n/a
140.2955	0.0745	280591	keystroke_a	a	n/a
140.505	0.135	281010	keystroke_z	z	n/a
140.625	0.1355	281250	keystroke_y	y	n/a
140.745	0.105	281490	keystroke_Key.space	Key.space	n/a
140.805	0.09	281610	keystroke_d	d	n/a
141.2845	0.1205	282569	keystroke_o	o	n/a
141.39	0.1195	282780	keystroke_g	g	n/a
141.525	0.075	283050	keystroke_Key.enter	Key.enter	n/a
141.606	5.503	283212	prompt	n/a	suppliers nintendo coaches figure\n
142.29	0.075	284580	keystroke_s	s	n/a
142.335	0.0745	284670	keystroke_u	u	n/a
142.53	0.075	285060	keystroke_p	p	n/a
142.6945	0.1055	285389	keystroke_p	p	n/a
142.845	0.1645	285690	keystroke_l	l	n/a
142.935	0.1495	285870	keystroke_i	i	n/a
143.0245	0.1655	286049	keystroke_e	e	n/a
143.1	0.15	286200	keystroke_r	r	n/a
143.205	0.135	286410	keystroke_s	s	n/a
143.3245	0.06	286649	keystroke_Key.space	Key.space	n/a
143.505	0.0595	287010	keystroke_n	n	n/a
143.715	0.0905	287430	keystroke_i	i	n/a
143.791	0.1185	287582	keystroke_n	n	n/a
144.375	0.1495	288750	keystroke_t	t	n/a
144.4795	0.1055	288959	keystroke_e	e	n/a
144.54	0.105	289080	keystroke_n	n	n/a
144.8095	0.151	289619	keystroke_d	d	n/a
144.9145	0.106	289829	keystroke_o	o	n/a
144.9755	0.119	289951	keystroke_Key.space	Key.space	n/a
145.4095	0.0905	290819	keystroke_c	c	n/a
145.455	0.105	290910	keystroke_o	o	n/a
145.5445	0.121	291089	keystroke_a	a	n/a
145.86	0.105	291720	keystroke_c	c	n/a
145.9495	0.0905	291899	keystroke_h	h	n/a
146.0555	0.1195	292111	keystroke_e	e	n/a
146.1	0.135	292200	keystroke_s	s	n/a
146.22	0.1045	292440	keystroke_Key.space	Key.space	n/a
146.4005	0.0895	292801	keystroke_f	f	n/a
146.475	0.09	292950	keystroke_i	i	n/a
146.58	0.0605	293160	keystroke_g	g	n/a
146.6555	0.0895	293311	keystroke_u	u	n/a
146.76	0.1495	293520	keystroke_r	r	n/a
146.8055	0.1495	293611	keystroke_e	e	n/a
147.0305	0.075	294061	keystroke_Key.enter	Key.enter	n/a
147.1125	5.5885	294225	prompt	n/a	magic lots principal photographer\n
147.84	0.09	295680	keystroke_m	m	n/a
147.915	0.12	295830	keystroke_a	a	n/a
148.05	0.12	296100	keystroke_g	g	n/a
148.1245	0.121	296249	keystroke_i	i	n/a
148.2455	0.134	296491	keystroke_c	c	n/a
148.35	0.075	296700	keystroke_Key.space	Key.space	n/a
148.455	0.09	296910	keystroke_l	l	n/a
148.62	0.18	297240	keystroke_o	o	n/a
148.7855	0.0895	297571	keystroke_t	t	n/a
148.8155	0.1045	297631	keystroke_s	s	n/a
148.86	0.075	297720	keystroke_Key.space	Key.space	n/a
148.9795	0.136	297959	keystroke_p	p	n/a
149.1	0.1345	298200	keystroke_r	r	n/a
149.175	0.15	298350	keystroke_i	i	n/a
149.3095	0.1205	298619	keystroke_n	n	n/a
149.475	0.135	298950	keystroke_c	c	n/a
149.535	0.135	299070	keystroke_i	i	n/a
149.685	0.15	299370	keystroke_a	a	n/a
150.345	0.0605	300690	keystroke_Key.backspace	Key.backspace	n/a
150.5255	0.149	301051	keystroke_p	p	n/a
150.63	0.135	301260	keystroke_a	a	n/a
150.75	0.09	301500	keystroke_l	l	n/a
150.945	0.1205	301890	keystroke_Key.space	Key.space	n/a
151.05	0.1355	302100	keystroke_p	p	n/a
151.17	0.1355	302340	keystroke_h	h	n/a
151.246	0.0895	302492	keystroke_o	o	n/a
151.3655	0.135	302731	keystroke_t	t	n/a
151.4405	0.12	302881	keystroke_o	o	n/a
151.8605	0.0895	303721	keystroke_g	g	n/a
152.0565	0.134	304113	keystroke_r	r	n/a
152.1305	0.12	304261	keystroke_a	a	n/a
152.2065	0.1185	304413	keystroke_p	p	n/a
152.295	0.1355	304590	keystroke_h	h	n/a
152.4155	0.1645	304831	keystroke_e	e	n/a
152.5055	0.1345	305011	keystroke_r	r	n/a
152.61	0.09	305220	keystroke_Key.enter	Key.enter	n/a
152.7045	7.693	305409	prompt	n/a	polyphonic teachers identifies microphone\n
153.2405	0.06	306481	keystroke_m	m	n/a
153.84	0.0755	307680	keystroke_Key.backspace	Key.backspace	n/a
154.065	0.1655	308130	keystroke_p	p	n/a
154.1855	0.12	308371	keystroke_o	o	n/a
154.395	0.09	308790	keystroke_l	l	n/a
154.53	0.1055	309060	keystroke_y	y	n/a
154.5455	0.015	309091	keystroke_l	l	n/a
154.8005	0.1065	309601	keystroke_p	p	n/a
154.8755	0.15	309751	keystroke_h	h	n/a
154.98	0.12	309960	keystroke_o	o	n/a
155.295	0.1205	310590	keystroke_n	n	n/a
155.3705	0.12	310741	keystroke_i	i	n/a
155.4305	0.1495	310861	keystroke_c	c	n/a
155.565	0.1505	311130	keystroke_Key.space	Key.space	n/a
155.7305	0.1495	311461	keystroke_t	t	n/a
155.8065	0.104	311613	keystroke_e	e	n/a
155.8955	0.09	311791	keystroke_a	a	n/a
156.21	0.1055	312420	keystroke_c	c	n/a
156.3005	0.12	312601	keystroke_h	h	n/a
156.42	0.15	312840	keystroke_e	e	n/a
156.4955	0.135	312991	keystroke_r	r	n/a
156.5855	0.105	313171	keystroke_s	s	n/a
156.6755	0.0895	313351	keystroke_Key.space	Key.space	n/a
157.365	0.045	314730	keystroke_i	i	n/a
157.5005	0.106	315001	keystroke_d	d	n/a
157.68	0.165	315360	keystroke_e	e	n/a
157.7705	0.105	315541	keystroke_n	n	n/a
157.8605	0.1045	315721	keystroke_t	t	n/a
157.995	0.1055	315990	keystroke_i	i	n/a
158.0565	0.119	316113	keystroke_f	f	n/a
158.2205	0.136	316441	keystroke_i	i	n/a
158.37	0.195	316740	keystroke_e	e	n/a
158.55	0.2105	317100	keystroke_s	s	n/a
158.745	0.0905	317490	keystroke_Key.space	Key.space	n/a
159.06	0.105	318120	keystroke_m	m	n/a
159.2405	0.105	318481	keystroke_i	i	n/a
159.3305	0.105	318661	keystroke_c	c	n/a
159.495	0.1355	318990	keystroke_r	r	n/a
159.5705	0.075	319141	keystroke_o	o	n/a
159.765	0.136	319530	keystroke_p	p	n/a
159.8855	0.121	319771	keystroke_h	h	n/a
159.9755	0.135	319951	keystroke_o	o	n/a
160.0955	0.1045	320191	keystroke_n	n	n/a
160.1855	0.121	320371	keystroke_e	e	n/a
160.291	0.1045	320582	keystroke_Key.enter	Key.enter	n/a
160.4005	4.3165	320801	prompt	n/a	knowing deployment younger meat\n
161.115	0.135	322230	keystroke_k	k	n/a
161.1905	0.12	322381	keystroke_n	n	n/a
161.265	0.1055	322530	keystroke_o	o	n/a
161.3255	0.18	322651	keystroke_w	w	n/a
161.491	0.1045	322982	keystroke_i	i	n/a
161.52	0.1055	323040	keystroke_n	n	n/a
161.6105	0.105	323221	keystroke_g	g	n/a
161.7005	0.09	323401	keystroke_Key.space	Key.space	n/a
161.806	0.0745	323612	keystroke_d	d	n/a
161.955	0.1055	323910	keystroke_e	e	n/a
162.015	0.1505	324030	keystroke_p	p	n/a
162.061	0.1195	324122	keystroke_l	l	n/a
162.2405	0.12	324481	keystroke_o	o	n/a
162.3005	0.09	324601	keystroke_y	y	n/a
162.795	0.0905	325590	keystroke_m	m	n/a
162.9005	0.1045	325801	keystroke_e	e	n/a
162.9755	0.105	325951	keystroke_n	n	n/a
163.0955	0.12	326191	keystroke_t	t	n/a
163.2005	0.0895	326401	keystroke_Key.space	Key.space	n/a
163.456	0.0745	326912	keystroke_y	y	n/a
163.606	0.1345	327212	keystroke_o	o	n/a
163.6655	0.091	327331	keystroke_u	u	n/a
163.8305	0.105	327661	keystroke_n	n	n/a
163.905	0.1055	327810	keystroke_g	g	n/a
164.07	0.0905	328140	keystroke_e	e	n/a
164.116	0.104	328232	keystroke_r	r	n/a
164.175	0.1055	328350	keystroke_Key.space	Key.space	n/a
164.2355	0.135	328471	keystroke_m	m	n/a
164.3255	0.135	328651	keystroke_e	e	n/a
164.4005	0.135	328801	keystroke_a	a	n/a
164.505	0.1355	329010	keystroke_t	t	n/a
164.6255	0.09	329251	keystroke_Key.enter	Key.enter	n/a
164.7205	4.4815	329441	prompt	n/a	gaming lanka unlock turn\n
165.45	0.1205	330900	keystroke_g	g	n/a
165.51	0.1205	331020	keystroke_a	a	n/a
165.5855	0.1045	331171	keystroke_m	m	n/a
165.705	0.1655	331410	keystroke_i	i	n/a
165.8105	0.0745	331621	keystroke_n	n	n/a
165.8565	0.1185	331713	keystroke_g	g	n/a
165.96	0.1205	331920	keystroke_Key.space	Key.space	n/a
166.0955	0.1345	332191	keystroke_l	l	n/a
166.2455	0.12	332491	keystroke_a	a	n/a
166.3205	0.075	332641	keystroke_n	n	n/a
166.4565	0.1785	332913	keystroke_k	k	n/a
166.62	0.0605	333240	keystroke_a	a	n/a
166.6955	0.0895	333391	keystroke_Key.space	Key.space	n/a
166.9355	0.045	333871	keystroke_u	u	n/a
167.0705	0.0895	334141	keystroke_n	n	n/a
167.2655	0.0755	334531	keystroke_l	l	n/a
167.4155	0.105	334831	keystroke_o	o	n/a
167.535	0.18	335070	keystroke_c	c	n/a
167.6405	0.0595	335281	keystroke_k	k	n/a
167.8065	0.1035	335613	keystroke_i	i	n/a
167.8355	0.122	335671	keystroke_n	n	n/a
167.9255	0.12	335851	keystroke_g	g	n/a
167.986	0.1045	335972	keystroke_Key.space	Key.space	n/a
168.1655	0.135	336331	keystroke_g	g	n/a
168.5565	0.104	337113	keystroke_Key.backspace	Key.backspace	n/a
168.646	0.1045	337292	keystroke_t	t	n/a
168.7655	0.06	337531	keystroke_u	u	n/a
168.8405	0.1195	337681	keystroke_r	r	n/a
168.9305	0.09	337861	keystroke_n	n	n/a
169.1255	0.0745	338251	keystroke_Key.enter	Key.enter	n/a
169.207	4.015	338414	prompt	n/a	object robot tracks reload\n
169.9655	0.1045	339931	keystroke_o	o	n/a
170.0405	0.1345	340081	keystroke_b	b	n/a
170.1455	0.1045	340291	keystroke_j	j	n/a
170.2355	0.105	340471	keystroke_e	e	n/a
170.4455	0.075	340891	keystroke_c	c	n/a
170.5655	0.105	341131	keystroke_t	t	n/a
170.6575	0.0875	341315	keystroke_Key.space	Key.space	n/a
170.9405	0.105	341881	keystroke_r	r	n/a
171	0.0905	342000	keystroke_o	o	n/a
171.1355	0.121	342271	keystroke_b	b	n/a
171.2105	0.1205	342421	keystroke_o	o	n/a
171.3455	0.09	342691	keystroke_t	t	n/a
171.451	0.105	342902	keystroke_Key.space	Key.space	n/a
171.5705	0.105	343141	keystroke_t	t	n/a
171.7505	0.0905	343501	keystroke_r	r	n/a
171.796	0.119	343592	keystroke_a	a	n/a
171.96	0.136	343920	keystroke_c	c	n/a
172.1255	0.105	344251	keystroke_k	k	n/a
172.2455	0.1205	344491	keystroke_s	s	n/a
172.3665	0.0895	344733	keystroke_Key.space	Key.space	n/a
172.5005	0.18	345001	keystroke_r	r	n/a
172.5905	0.15	345181	keystroke_e	e	n/a
172.7255	0.045	345451	keystroke_l	l	n/a
172.8755	0.09	345751	keystroke_o	o	n/a
172.951	0.119	345902	keystroke_a	a	n/a
173.086	0.1045	346172	keystroke_d	d	n/a
173.1305	0.09	346261	keystroke_Key.enter	Key.enter	n/a
173.2255	5.802	346451	prompt	n/a	handhelds that'd publicly below\n
173.9855	0.06	347971	keystroke_h	h	n/a
174.0755	0.12	348151	keystroke_a	a	n/a
174.181	0.075	348362	keystroke_n	n	n/a
174.2405	0.105	348481	keystroke_d	d	n/a
174.5255	0.1055	349051	keystroke_h	h	n/a
174.616	0.1045	349232	keystroke_e	e	n/a
174.706	0.1645	349412	keystroke_l	l	n/a
174.976	0.15	349952	keystroke_d	d	n/a
175.0655	0.1655	350131	keystroke_s	s	n/a
175.2155	0.06	350431	keystroke_Key.space	Key.space	n/a
175.4115	0.119	350823	keystroke_t	t	n/a
175.4855	0.09	350971	keystroke_h	h	n/a
175.621	0.1195	351242	keystroke_a	a	n/a
175.786	0.135	351572	keystroke_t	t	n/a
176.3255	0.12	352651	keystroke_'	'	n/a
176.4005	0.15	352801	keystroke_d	d	n/a
176.566	0.1045	353132	keystroke_Key.space	Key.space	n/a
176.776	0.165	353552	keystroke_p	p	n/a
176.881	0.12	353762	keystroke_u	u	n/a
177.001	0.1345	354002	keystroke_b	b	n/a
177.121	0.135	354242	keystroke_l	l	n/a
177.181	0.1345	354362	keystroke_i	i	n/a
177.301	0.1345	354602	keystroke_c	c	n/a
177.7805	0.165	355561	keystroke_l	l	n/a
177.9005	0.1355	355801	keystroke_y	y	n/a
177.991	0.12	355982	keystroke_Key.space	Key.space	n/a
178.321	0.105	356642	keystroke_b	b	n/a
178.456	0.1345	356912	keystroke_e	e	n/a
178.5755	0.0605	357151	keystroke_l	l	n/a
178.756	0.0895	357512	keystroke_o	o	n/a
178.8305	0.105	357661	keystroke_w	w	n/a
178.9505	0.0755	357901	keystroke_Key.enter	Key.enter	n/a
179.031	4.1965	358062	prompt	n/a	pattern cope bookstore expects\n
179.701	0.12	359402	keystroke_p	p	n/a
179.7905	0.105	359581	keystroke_a	a	n/a
179.866	0.09	359732	keystroke_t	t	n/a
180.0605	0.06	360121	keystroke_t	t	n/a
180.106	0.165	360212	keystroke_e	e	n/a
180.211	0.1195	360422	keystroke_r	r	n/a
180.316	0.0445	360632	keystroke_n	n	n/a
180.3305	0.0755	360661	keystroke_Key.space	Key.space	n/a
180.4355	0.1355	360871	keystroke_c	c	n/a
180.496	0.1495	360992	keystroke_o	o	n/a
180.556	0.15	361112	keystroke_p	p	n/a
180.7205	0.1355	361441	keystroke_e	e	n/a
180.841	0.1195	361682	keystroke_Key.space	Key.space	n/a
181.096	0.1645	362192	keystroke_b	b	n/a
181.216	0.0595	362432	keystroke_o	o	n/a
181.3205	0.1805	362641	keystroke_o	o	n/a
181.411	0.1345	362822	keystroke_k	k	n/a
181.576	0.15	363152	keystroke_s	s	n/a
181.711	0.075	363422	keystroke_t	t	n/a
181.771	0.105	363542	keystroke_o	o	n/a
181.8605	0.135	363721	keystroke_r	r	n/a
181.8905	0.1505	363781	keystroke_e	e	n/a
182.0255	0.09	364051	keystroke_Key.space	Key.space	n/a
182.221	0.105	364442	keystroke_e	e	n/a
182.4305	0.12	364861	keystroke_x	x	n/a
182.5355	0.1055	365071	keystroke_p	p	n/a
182.626	0.0595	365252	keystroke_e	e	n/a
182.806	0.09	365612	keystroke_c	c	n/a
182.971	0.105	365942	keystroke_t	t	n/a
183.0155	0.1355	366031	keystroke_s	s	n/a
183.1355	0.0905	366271	keystroke_Key.enter	Key.enter	n/a
183.2305	6.793	366461	prompt	n/a	rope italic hazardous miracle\n
183.976	0.135	367952	keystroke_r	r	n/a
184.051	0.1345	368102	keystroke_o	o	n/a
184.096	0.15	368192	keystroke_p	p	n/a
184.2305	0.1655	368461	keystroke_e	e	n/a
184.3805	0.0905	368761	keystroke_Key.space	Key.space	n/a
184.606	0.1195	369212	keystroke_i	i	n/a
184.681	0.1495	369362	keystroke_t	t	n/a
184.8155	0.12	369631	keystroke_a	a	n/a
185.0105	0.1955	370021	keystroke_l	l	n/a
185.1005	0.1355	370201	keystroke_i	i	n/a
185.191	0.18	370382	keystroke_c	c	n/a
185.341	0.105	370682	keystroke_Key.space	Key.space	n/a
185.656	0.0745	371312	keystroke_h	h	n/a
185.776	0.075	371552	keystroke_a	a	n/a
186.196	0.1045	372392	keystroke_z	z	n/a
186.406	0.105	372812	keystroke_a	a	n/a
187.366	0.1195	374732	keystroke_r	r	n/a
188.1605	0.1355	376321	keystroke_d	d	n/a
188.2505	0.1955	376501	keystroke_o	o	n/a
188.3705	0.1205	376741	keystroke_u	u	n/a
188.521	0.105	377042	keystroke_s	s	n/a
188.5955	0.105	377191	keystroke_Key.space	Key.space	n/a
189.106	0.12	378212	keystroke_m	m	n/a
189.181	0.165	378362	keystroke_i	i	n/a
189.361	0.105	378722	keystroke_r	r	n/a
189.436	0.1045	378872	keystroke_a	a	n/a
189.5855	0.105	379171	keystroke_c	c	n/a
189.706	0.135	379412	keystroke_l	l	n/a
189.826	0.0895	379652	keystroke_e	e	n/a
189.931	0.09	379862	keystroke_Key.enter	Key.enter	n/a
190.027	6.4605	380054	prompt	n/a	alfred sensors conjunction assistance\n
190.8005	0.1055	381601	keystroke_a	a	n/a
191.056	0.15	382112	keystroke_l	l	n/a
191.3405	0.0755	382681	keystroke_f	f	n/a
191.521	0.12	383042	keystroke_r	r	n/a
191.596	0.0895	383192	keystroke_e	e	n/a
191.791	0.12	383582	keystroke_d	d	n/a
191.896	0.0895	383792	keystroke_Key.space	Key.space	n/a
192.2705	0.0905	384541	keystroke_s	s	n/a
192.346	0.2245	384692	keystroke_e	e	n/a
192.556	0.0295	385112	keystroke_n	n	n/a
192.6005	0.0755	385201	keystroke_s	s	n/a
192.691	0.1195	385382	keystroke_o	o	n/a
192.766	0.165	385532	keystroke_r	r	n/a
192.8705	0.1355	385741	keystroke_s	s	n/a
193.0215	0.0895	386043	keystroke_Key.space	Key.space	n/a
193.3655	0.1355	386731	keystroke_c	c	n/a
193.426	0.1195	386852	keystroke_o	o	n/a
193.501	0.105	387002	keystroke_n	n	n/a
193.7705	0.0455	387541	keystroke_j	j	n/a
193.8905	0.0755	387781	keystroke_u	u	n/a
194.0705	0.0905	388141	keystroke_n	n	n/a
194.176	0.12	388352	keystroke_c	c	n/a
194.3705	0.136	388741	keystroke_t	t	n/a
194.4605	0.1505	388921	keystroke_i	i	n/a
194.521	0.1495	389042	keystroke_o	o	n/a
194.596	0.1045	389192	keystroke_n	n	n/a
194.656	0.135	389312	keystroke_Key.space	Key.space	n/a
194.956	0.105	389912	keystroke_a	a	n/a
195.076	0.075	390152	keystroke_s	s	n/a
195.241	0.0895	390482	keystroke_s	s	n/a
195.3155	0.1205	390631	keystroke_i	i	n/a
195.451	0.1195	390902	keystroke_s	s	n/a
195.691	0.1495	391382	keystroke_t	t	n/a
195.796	0.1495	391592	keystroke_a	a	n/a
195.991	0.12	391982	keystroke_n	n	n/a
196.0955	0.1055	392191	keystroke_c	c	n/a
196.291	0.105	392582	keystroke_e	e	n/a
196.3965	0.089	392793	keystroke_Key.enter	Key.enter	n/a
196.4905	5.1875	392981	prompt	n/a	vehicles light turtle sweden\n
197.236	0.0895	394472	keystroke_v	v	n/a
197.311	0.135	394622	keystroke_e	e	n/a
197.461	0.135	394922	keystroke_h	h	n/a
197.6705	0.1355	395341	keystroke_i	i	n/a
198.121	0.09	396242	keystroke_c	c	n/a
198.196	0.165	396392	keystroke_l	l	n/a
198.286	0.135	396572	keystroke_e	e	n/a
198.406	0.105	396812	keystroke_s	s	n/a
198.4955	0.0905	396991	keystroke_Key.space	Key.space	n/a
198.661	0.1795	397322	keystroke_l	l	n/a
198.736	0.12	397472	keystroke_i	i	n/a
198.8255	0.1055	397651	keystroke_g	g	n/a
198.946	0.12	397892	keystroke_h	h	n/a
198.991	0.1345	397982	keystroke_t	t	n/a
199.1105	0.1205	398221	keystroke_Key.space	Key.space	n/a
199.366	0.09	398732	keystroke_t	t	n/a
199.471	0.075	398942	keystroke_u	u	n/a
199.561	0.135	399122	keystroke_r	r	n/a
199.966	0.1045	399932	keystroke_t	t	n/a
200.086	0.12	400172	keystroke_l	l	n/a
200.191	0.105	400382	keystroke_e	e	n/a
200.281	0.12	400562	keystroke_Key.space	Key.space	n/a
200.6555	0.0755	401311	keystroke_s	s	n/a
200.806	0.0905	401612	keystroke_w	w	n/a
200.8515	0.1495	401703	keystroke_e	e	n/a
201.1065	0.1045	402213	keystroke_d	d	n/a
201.271	0.135	402542	keystroke_e	e	n/a
201.361	0.09	402722	keystroke_n	n	n/a
201.5405	0.1355	403081	keystroke_Key.enter	Key.enter	n/a
201.681	6.5065	403362	prompt	n/a	male festivals nicaragua restaurants\n
202.396	0.1045	404792	keystroke_m	m	n/a
202.516	0.105	405032	keystroke_a	a	n/a
202.6225	0.1635	405245	keystroke_l	l	n/a
202.726	0.105	405452	keystroke_e	e	n/a
202.816	0.1045	405632	keystroke_Key.space	Key.space	n/a
202.891	0.165	405782	keystroke_f	f	n/a
202.996	0.135	405992	keystroke_e	e	n/a
203.1615	0.1495	406323	keystroke_s	s	n/a
203.266	0.135	406532	keystroke_t	t	n/a
203.356	0.165	406712	keystroke_i	i	n/a
203.596	0.12	407192	keystroke_v	v	n/a
203.641	0.15	407282	keystroke_a	a	n/a
203.776	0.1495	407552	keystroke_l	l	n/a
203.866	0.15	407732	keystroke_s	s	n/a
204.001	0.075	408002	keystroke_Key.space	Key.space	n/a
204.241	0.135	408482	keystroke_n	n	n/a
204.346	0.15	408692	keystroke_i	i	n/a
204.451	0.135	408902	keystroke_c	c	n/a
204.556	0.12	409112	keystroke_a	a	n/a
204.751	0.1345	409502	keystroke_r	r	n/a
204.856	0.105	409712	keystroke_a	a	n/a
205.1255	0.121	410251	keystroke_g	g	n/a
205.231	0.105	410462	keystroke_u	u	n/a
205.3515	0.1045	410703	keystroke_a	a	n/a
205.4705	0.1055	410941	keystroke_Key.space	Key.space	n/a
206.626	0.09	413252	keystroke_r	r	n/a
206.6565	0.1795	413313	keystroke_e	e	n/a
206.761	0.1355	413522	keystroke_s	s	n/a
206.911	0.1505	413822	keystroke_t	t	n/a
207.0465	0.1195	414093	keystroke_a	a	n/a
207.256	0.1195	414512	keystroke_u	u	n/a
207.421	0.165	414842	keystroke_r	r	n/a
207.511	0.1205	415022	keystroke_a	a	n/a
207.6765	0.12	415353	keystroke_n	n	n/a
207.9015	0.1495	415803	keystroke_t	t	n/a
207.961	0.135	415922	keystroke_s	s	n/a
208.081	0.105	416162	keystroke_Key.enter	Key.enter	n/a
208.1905	5.4575	416381	prompt	n/a	subscription gimme rather discs\n
208.936	0.1205	417872	keystroke_s	s	n/a
209.041	0.1055	418082	keystroke_u	u	n/a
209.1315	0.1045	418263	keystroke_b	b	n/a
209.2515	0.165	418503	keystroke_s	s	n/a
209.5815	0.1495	419163	keystroke_c	c	n/a
209.7765	0.1045	419553	keystroke_r	r	n/a
209.8965	0.12	419793	keystroke_i	i	n/a
209.971	0.1515	419942	keystroke_p	p	n/a
210.1225	0.1185	420245	keystroke_t	t	n/a
210.1665	0.18	420333	keystroke_i	i	n/a
210.2565	0.1495	420513	keystroke_o	o	n/a
210.3315	0.12	420663	keystroke_n	n	n/a
210.3915	0.1345	420783	keystroke_Key.space	Key.space	n/a
210.601	0.121	421202	keystroke_g	g	n/a
210.7065	0.09	421413	keystroke_i	i	n/a
210.9015	0.075	421803	keystroke_m	m	n/a
211.0365	0.1645	422073	keystroke_m	m	n/a
211.141	0.12	422282	keystroke_e	e	n/a
211.2465	0.12	422493	keystroke_Key.space	Key.space	n/a
211.3815	0.15	422763	keystroke_r	r	n/a
211.5165	0.06	423033	keystroke_a	a	n/a
211.5915	0.1345	423183	keystroke_t	t	n/a
211.711	0.0905	423422	keystroke_h	h	n/a
211.8015	0.0895	423603	keystroke_e	e	n/a
211.846	0.135	423692	keystroke_r	r	n/a
211.9065	0.1045	423813	keystroke_Key.space	Key.space	n/a
212.056	0.0905	424112	keystroke_d	d	n/a
212.5065	0.1045	425013	keystroke_i	i	n/a
212.5665	0.165	425133	keystroke_s	s	n/a
213.2565	0.166	426513	keystroke_c	c	n/a
213.3765	0.1495	426753	keystroke_s	s	n/a
213.5415	0.105	427083	keystroke_Key.enter	Key.enter	n/a
213.6515	6.0265	427303	prompt	n/a	quantities debate refugees finance\n
214.501	0.0905	429002	keystroke_q	q	n/a
214.5915	0.06	429183	keystroke_u	u	n/a
214.7265	0.105	429453	keystroke_a	a	n/a
214.786	0.1055	429572	keystroke_n	n	n/a
214.9365	0.1045	429873	keystroke_t	t	n/a
215.026	0.0905	430052	keystroke_i	i	n/a
215.1615	0.1495	430323	keystroke_t	t	n/a
215.2665	0.135	430533	keystroke_i	i	n/a
215.3865	0.075	430773	keystroke_e	e	n/a
215.4165	0.15	430833	keystroke_s	s	n/a
215.551	0.09	431102	keystroke_Key.space	Key.space	n/a
215.7465	0.105	431493	keystroke_d	d	n/a
215.911	0.0755	431822	keystroke_e	e	n/a
216.301	0.1055	432602	keystroke_b	b	n/a
216.4065	0.15	432813	keystroke_a	a	n/a
216.5415	0.105	433083	keystroke_t	t	n/a
216.6315	0.12	433263	keystroke_e	e	n/a
216.722	0.1195	433444	keystroke_Key.space	Key.space	n/a
216.9165	0.135	433833	keystroke_r	r	n/a
217.021	0.06	434042	keystroke_e	e	n/a
217.1415	0.165	434283	keystroke_f	f	n/a
217.2915	0.12	434583	keystroke_u	u	n/a
217.4115	0.1045	434823	keystroke_s	s	n/a
217.7265	0.12	435453	keystroke_Key.backspace	Key.backspace	n/a
217.8315	0.1495	435663	keystroke_g	g	n/a
217.966	0.1205	435932	keystroke_e	e	n/a
218.206	0.1355	436412	keystroke_e	e	n/a
218.3865	0.15	436773	keystroke_s	s	n/a
218.5515	0.06	437103	keystroke_Key.space	Key.space	n/a
218.7165	0.1345	437433	keystroke_f	f	n/a
218.8065	0.12	437613	keystroke_i	i	n/a
218.881	0.1205	437762	keystroke_n	n	n/a
219.0765	0.165	438153	keystroke_a	a	n/a
219.181	0.1205	438362	keystroke_n	n	n/a
219.3315	0.105	438663	keystroke_c	c	n/a
219.541	0.1205	439082	keystroke_e	e	n/a
219.5865	0.09	439173	keystroke_Key.enter	Key.enter	n/a
219.6815	6.8365	439363	prompt	n/a	assuming exotic chapel brochures\n
220.4565	0.105	440913	keystroke_s	s	n/a
220.8015	0.09	441603	keystroke_Key.backspace	Key.backspace	n/a
220.8765	0.1045	441753	keystroke_a	a	n/a
220.922	0.1195	441844	keystroke_s	s	n/a
221.1165	0.12	442233	keystroke_s	s	n/a
221.221	0.06	442442	keystroke_u	u	n/a
221.401	0.1055	442802	keystroke_m	m	n/a
221.522	0.1645	443044	keystroke_i	i	n/a
221.611	0.1355	443222	keystroke_n	n	n/a
221.7015	0.135	443403	keystroke_g	g	n/a
221.7915	0.1805	443583	keystroke_Key.space	Key.space	n/a
222.1065	0.105	444213	keystroke_e	e	n/a
222.2865	0.1355	444573	keystroke_x	x	n/a
222.4665	0.107	444933	keystroke_o	o	n/a
222.7965	0.12	445593	keystroke_t	t	n/a
222.9015	0.1345	445803	keystroke_i	i	n/a
223.0225	0.1495	446045	keystroke_c	c	n/a
223.1565	0.09	446313	keystroke_Key.space	Key.space	n/a
223.3515	0.0595	446703	keystroke_e	e	n/a
223.6815	0.0755	447363	keystroke_Key.backspace	Key.backspace	n/a
223.727	0.1195	447454	keystroke_c	c	n/a
223.862	0.0895	447724	keystroke_h	h	n/a
223.951	0.1215	447902	keystroke_a	a	n/a
224.0415	0.1195	448083	keystroke_p	p	n/a
224.1765	0.12	448353	keystroke_e	e	n/a
224.4165	0.1645	448833	keystroke_l	l	n/a
224.536	0.1205	449072	keystroke_Key.space	Key.space	n/a
224.836	0.1205	449672	keystroke_b	b	n/a
225.106	0.12	450212	keystroke_r	r	n/a
225.211	0.0905	450422	keystroke_o	o	n/a
225.7665	0.15	451533	keystroke_c	c	n/a
225.872	0.0595	451744	keystroke_h	h	n/a
226.1265	0.03	452253	keystroke_u	u	n/a
226.1415	0.135	452283	keystroke_r	r	n/a
226.1725	0.15	452345	keystroke_e	e	n/a
226.2615	0.165	452523	keystroke_s	s	n/a
226.4115	0.105	452823	keystroke_Key.enter	Key.enter	n/a
226.521	15.837	453042	prompt	n/a	vanilla compound lewis asia\n
227.236	0.136	454472	keystroke_v	v	n/a
227.2965	0.1495	454593	keystroke_a	a	n/a
227.566	0.0905	455132	keystroke_n	n	n/a
227.6115	0.12	455223	keystroke_i	i	n/a
227.7465	0.12	455493	keystroke_a	a	n/a
227.8815	0.045	455763	keystroke_l	l	n/a
228.001	0.1355	456002	keystroke_l	l	n/a
228.181	0.18	456362	keystroke_Key.space	Key.space	n/a
228.6315	0.12	457263	keystroke_Key.backspace	Key.backspace	n/a
228.7225	0.119	457445	keystroke_a	a	n/a
228.8265	0.0745	457653	keystroke_Key.space	Key.space	n/a
229.081	0.0305	458162	keystroke_Key.backspace	Key.backspace	n/a
230.2515	0.045	460503	keystroke_Key.backspace	Key.backspace	n/a
230.4015	0.06	460803	keystroke_Key.backspace	Key.backspace	n/a
230.5665	0.075	461133	keystroke_Key.backspace	Key.backspace	n/a
231.1065	0.045	462213	keystroke_Key.backspace	Key.backspace	n/a
231.3465	0.0445	462693	keystroke_l	l	n/a
231.4665	0.075	462933	keystroke_l	l	n/a
231.586	0.105	463172	keystroke_a	a	n/a
231.706	0.1055	463412	keystroke_Key.space	Key.space	n/a
231.8565	0.1345	463713	keystroke_c	c	n/a
231.9165	0.1195	463833	keystroke_o	o	n/a
232.306	0.1205	464612	keystroke_m	m	n/a
232.4865	0.195	464973	keystroke_p	p	n/a
232.6665	0.1055	465333	keystroke_u	u	n/a
233.0115	0.1055	466023	keystroke_n	n	n/a
233.1015	0.15	466203	keystroke_d	d	n/a
233.176	0.1205	466352	keystroke_s	s	n/a
233.2665	0.09	466533	keystroke_Key.space	Key.space	n/a
233.4015	0.1205	466803	keystroke_l	l	n/a
233.4615	0.1205	466923	keystroke_e	e	n/a
233.6265	0.1645	467253	keystroke_v	v	n/a
233.6565	0.1655	467313	keystroke_e	e	n/a
233.806	0.0755	467612	keystroke_l	l	n/a
234.076	0.06	468152	keystroke_Key.backspace	Key.backspace	n/a
234.241	0.0455	468482	keystroke_Key.backspace	Key.backspace	n/a
234.391	0.0605	468782	keystroke_Key.backspace	Key.backspace	n/a
234.5265	0.075	469053	keystroke_Key.backspace	Key.backspace	n/a
234.691	0.075	469382	keystroke_Key.backspace	Key.backspace	n/a
234.8565	0.06	469713	keystroke_Key.backspace	Key.backspace	n/a
234.991	0.1205	469982	keystroke_Key.backspace	Key.backspace	n/a
235.1265	0.12	470253	keystroke_Key.space	Key.space	n/a
235.2615	0.105	470523	keystroke_l	l	n/a
235.561	0.1655	471122	keystroke_v	v	n/a
235.6665	0.165	471333	keystroke_e	e	n/a
236.0415	0.0605	472083	keystroke_Key.backspace	Key.backspace	n/a
236.191	0.0605	472382	keystroke_Key.backspace	Key.backspace	n/a
236.3565	0.0445	472713	keystroke_Key.backspace	Key.backspace	n/a
236.507	0.045	473014	keystroke_Key.backspace	Key.backspace	n/a
236.6565	0.06	473313	keystroke_Key.backspace	Key.backspace	n/a
236.823	0.1035	473646	keystroke_Key.backspace	Key.backspace	n/a
237.3315	0.075	474663	keystroke_Key.backspace	Key.backspace	n/a
237.5415	0.1495	475083	keystroke_o	o	n/a
237.6465	0.09	475293	keystroke_u	u	n/a
237.8115	0.09	475623	keystroke_n	n	n/a
237.872	0.1345	475744	keystroke_d	d	n/a
237.9465	0.135	475893	keystroke_s	s	n/a
238.0365	0.09	476073	keystroke_Key.space	Key.space	n/a
238.187	0.0595	476374	keystroke_l	l	n/a
238.4415	0.031	476883	keystroke_Key.backspace	Key.backspace	n/a
238.576	0.06	477152	keystroke_Key.backspace	Key.backspace	n/a
238.7265	0.1645	477453	keystroke_Key.backspace	Key.backspace	n/a
239.102	0.1045	478204	keystroke_Key.space	Key.space	n/a
239.222	0.119	478444	keystroke_l	l	n/a
239.3265	0.1045	478653	keystroke_e	e	n/a
239.446	0.1505	478892	keystroke_v	v	n/a
239.5215	0.135	479043	keystroke_e	e	n/a
239.6115	0.1345	479223	keystroke_l	l	n/a
240.031	0.0755	480062	keystroke_Key.backspace	Key.backspace	n/a
240.182	0.09	480364	keystroke_Key.backspace	Key.backspace	n/a
241.1415	0.1045	482283	keystroke_Key.backspace	Key.backspace	n/a
241.2915	0.12	482583	keystroke_w	w	n/a
241.4415	0.1345	482883	keystroke_i	i	n/a
241.561	0.1205	483122	keystroke_s	s	n/a
241.6665	0.09	483333	keystroke_Key.space	Key.space	n/a
241.8015	0.1345	483603	keystroke_a	a	n/a
241.951	0.106	483902	keystroke_s	s	n/a
242.057	0.104	484114	keystroke_i	i	n/a
242.1465	0.09	484293	keystroke_a	a	n/a
242.2815	0.075	484563	keystroke_Key.enter	Key.enter	n/a
242.361	6.3415	484722	prompt	n/a	tiffany fund theme controls\n
243.1815	0.135	486363	keystroke_t	t	n/a
243.2265	0.105	486453	keystroke_i	i	n/a
244.0815	0.09	488163	keystroke_f	f	n/a
244.2465	0.105	488493	keystroke_f	f	n/a
244.307	0.1345	488614	keystroke_a	a	n/a
244.4265	0.06	488853	keystroke_n	n	n/a
244.6065	0.075	489213	keystroke_y	y	n/a
244.666	0.106	489332	keystroke_Key.space	Key.space	n/a
245.012	0.1345	490024	keystroke_f	f	n/a
245.102	0.0595	490204	keystroke_u	u	n/a
245.2665	0.105	490533	keystroke_n	n	n/a
245.3265	0.1655	490653	keystroke_d	d	n/a
245.4465	0.075	490893	keystroke_Key.space	Key.space	n/a
245.6865	0.105	491373	keystroke_t	t	n/a
245.7615	0.06	491523	keystroke_h	h	n/a
245.8515	0.1205	491703	keystroke_e	e	n/a
245.9565	0.12	491913	keystroke_m	m	n/a
246.1215	0.15	492243	keystroke_e	e	n/a
246.8565	0.09	493713	keystroke_Key.space	Key.space	n/a
247.022	0.1645	494044	keystroke_c	c	n/a
247.0665	0.1495	494133	keystroke_o	o	n/a
247.1415	0.12	494283	keystroke_n	n	n/a
247.3665	0.15	494733	keystroke_r	r	n/a
247.472	0.059	494944	keystroke_o	o	n/a
247.7565	0.0745	495513	keystroke_Key.backspace	Key.backspace	n/a
247.922	0.0895	495844	keystroke_Key.backspace	Key.backspace	n/a
247.9965	0.0905	495993	keystroke_t	t	n/a
248.1615	0.1355	496323	keystroke_r	r	n/a
248.2365	0.045	496473	keystroke_o	o	n/a
248.3715	0.12	496743	keystroke_l	l	n/a
248.4765	0.1505	496953	keystroke_s	s	n/a
248.597	0.104	497194	keystroke_Key.enter	Key.enter	n/a
248.7085	5.3205	497417	prompt	n/a	grand shakira fountain prayers\n
249.4215	0.075	498843	keystroke_g	g	n/a
249.5865	0.15	499173	keystroke_r	r	n/a
249.8715	0.165	499743	keystroke_a	a	n/a
250.0215	0.105	500043	keystroke_n	n	n/a
250.1115	0.135	500223	keystroke_d	d	n/a
250.2165	0.09	500433	keystroke_Key.space	Key.space	n/a
250.3515	0.135	500703	keystroke_s	s	n/a
250.457	0.1045	500914	keystroke_h	h	n/a
250.5765	0.105	501153	keystroke_a	a	n/a
251.0565	0.045	502113	keystroke_k	k	n/a
251.2065	0.0905	502413	keystroke_i	i	n/a
251.252	0.1495	502504	keystroke_r	r	n/a
251.3415	0.12	502683	keystroke_a	a	n/a
251.432	0.1045	502864	keystroke_Key.space	Key.space	n/a
251.5965	0.1655	503193	keystroke_f	f	n/a
251.672	0.1345	503344	keystroke_o	o	n/a
251.7465	0.075	503493	keystroke_u	u	n/a
251.927	0.1045	503854	keystroke_n	n	n/a
252.0465	0.21	504093	keystroke_t	t	n/a
252.1515	0.18	504303	keystroke_a	a	n/a
252.3165	0.045	504633	keystroke_i	i	n/a
252.347	0.0445	504694	keystroke_n	n	n/a
252.377	0.0595	504754	keystroke_Key.space	Key.space	n/a
252.482	0.1645	504964	keystroke_p	p	n/a
252.5725	0.1345	505145	keystroke_l	l	n/a
252.6615	0.1505	505323	keystroke_a	a	n/a
253.037	0.045	506074	keystroke_Key.backspace	Key.backspace	n/a
253.172	0.0895	506344	keystroke_Key.backspace	Key.backspace	n/a
253.2765	0.15	506553	keystroke_r	r	n/a
253.367	0.1345	506734	keystroke_a	a	n/a
253.442	0.105	506884	keystroke_y	y	n/a
253.577	0.165	507154	keystroke_e	e	n/a
253.652	0.1645	507304	keystroke_r	r	n/a
253.7565	0.12	507513	keystroke_s	s	n/a
253.922	0.105	507844	keystroke_Key.enter	Key.enter	n/a
254.0325	7.3005	508065	prompt	n/a	considerations delaware tactics metadata\n
255.062	0.135	510124	keystroke_c	c	n/a
255.137	0.105	510274	keystroke_o	o	n/a
255.212	0.06	510424	keystroke_n	n	n/a
255.242	0.135	510484	keystroke_s	s	n/a
255.392	0.12	510784	keystroke_i	i	n/a
255.407	0.12	510814	keystroke_d	d	n/a
255.6015	0.1205	511203	keystroke_e	e	n/a
255.647	0.1495	511294	keystroke_r	r	n/a
255.722	0.15	511444	keystroke_a	a	n/a
255.9465	0.1505	511893	keystroke_t	t	n/a
256.082	0.1645	512164	keystroke_i	i	n/a
256.112	0.1495	512224	keystroke_o	o	n/a
256.157	0.12	512314	keystroke_n	n	n/a
256.397	0.1195	512794	keystroke_Key.space	Key.space	n/a
256.7265	0.165	513453	keystroke_Key.backspace	Key.backspace	n/a
256.832	0.12	513664	keystroke_s	s	n/a
256.907	0.09	513814	keystroke_Key.space	Key.space	n/a
257.012	0.0745	514024	keystroke_d	d	n/a
257.162	0.09	514324	keystroke_e	e	n/a
257.222	0.12	514444	keystroke_l	l	n/a
257.807	0.135	515614	keystroke_a	a	n/a
257.9865	0.1205	515973	keystroke_w	w	n/a
258.092	0.18	516184	keystroke_a	a	n/a
258.257	0.135	516514	keystroke_r	r	n/a
258.3165	0.1505	516633	keystroke_e	e	n/a
258.497	0.0895	516994	keystroke_Key.space	Key.space	n/a
259.157	0.105	518314	keystroke_t	t	n/a
259.247	0.12	518494	keystroke_a	a	n/a
259.427	0.0745	518854	keystroke_c	c	n/a
259.577	0.15	519154	keystroke_t	t	n/a
259.712	0.1045	519424	keystroke_i	i	n/a
259.8015	0.1355	519603	keystroke_c	c	n/a
259.922	0.1645	519844	keystroke_s	s	n/a
260.162	0.1195	520324	keystroke_Key.space	Key.space	n/a
260.327	0.165	520654	keystroke_m	m	n/a
260.4765	0.1055	520953	keystroke_e	e	n/a
260.567	0.1345	521134	keystroke_t	t	n/a
260.657	0.12	521314	keystroke_a	a	n/a
260.8225	0.2245	521645	keystroke_d	d	n/a
260.927	0.105	521854	keystroke_a	a	n/a
261.032	0.135	522064	keystroke_t	t	n/a
261.122	0.09	522244	keystroke_a	a	n/a
261.227	0.1045	522454	keystroke_Key.enter	Key.enter	n/a
261.3365	5.9365	522673	prompt	n/a	unlike elevation summit attorneys\n
262.157	0.0145	524314	keystroke_u	u	n/a
262.2615	0.1055	524523	keystroke_n	n	n/a
262.457	0.1495	524914	keystroke_l	l	n/a
262.5165	0.122	525033	keystroke_i	i	n/a
262.757	0.135	525514	keystroke_k	k	n/a
262.877	0.135	525754	keystroke_e	e	n/a
262.967	0.09	525934	keystroke_Key.space	Key.space	n/a
263.4165	0.06	526833	keystroke_e	e	n/a
263.492	0.135	526984	keystroke_l	l	n/a
263.582	0.1195	527164	keystroke_e	e	n/a
263.807	0.105	527614	keystroke_v	v	n/a
263.852	0.1345	527704	keystroke_a	a	n/a
264.0165	0.166	528033	keystroke_t	t	n/a
264.1215	0.165	528243	keystroke_i	i	n/a
264.167	0.1495	528334	keystroke_o	o	n/a
264.242	0.105	528484	keystroke_n	n	n/a
264.3015	0.135	528603	keystroke_Key.space	Key.space	n/a
264.5575	0.119	529115	keystroke_s	s	n/a
264.6315	0.09	529263	keystroke_u	u	n/a
264.767	0.12	529534	keystroke_b	b	n/a
265.1565	0.0905	530313	keystroke_Key.backspace	Key.backspace	n/a
265.3815	0.0455	530763	keystroke_m	m	n/a
265.517	0.121	531034	keystroke_m	m	n/a
265.5615	0.1355	531123	keystroke_i	i	n/a
265.682	0.1045	531364	keystroke_t	t	n/a
265.7715	0.0905	531543	keystroke_Key.space	Key.space	n/a
265.8775	0.134	531755	keystroke_a	a	n/a
266.027	0.105	532054	keystroke_t	t	n/a
266.2065	0.106	532413	keystroke_t	t	n/a
266.327	0.135	532654	keystroke_o	o	n/a
266.4015	0.1365	532803	keystroke_r	r	n/a
266.582	0.0745	533164	keystroke_n	n	n/a
266.7015	0.1365	533403	keystroke_e	e	n/a
266.852	0.12	533704	keystroke_y	y	n/a
267.017	0.1795	534034	keystroke_s	s	n/a
267.152	0.1195	534304	keystroke_Key.enter	Key.enter	n/a
267.2765	5.0225	534553	prompt	n/a	many grants collecting moral\n
267.992	0.06	535984	keystroke_m	m	n/a
268.067	0.1355	536134	keystroke_a	a	n/a
268.1715	0.0605	536343	keystroke_n	n	n/a
268.338	0.089	536676	keystroke_y	y	n/a
268.412	0.12	536824	keystroke_Key.space	Key.space	n/a
268.5465	0.0915	537093	keystroke_g	g	n/a
268.7125	0.1345	537425	keystroke_r	r	n/a
268.7565	0.1355	537513	keystroke_a	a	n/a
268.877	0.12	537754	keystroke_n	n	n/a
268.9675	0.209	537935	keystroke_d	d	n/a
269.4475	0.0595	538895	keystroke_Key.backspace	Key.backspace	n/a
269.492	0.1645	538984	keystroke_t	t	n/a
269.5815	0.1355	539163	keystroke_s	s	n/a
269.702	0.0595	539404	keystroke_Key.space	Key.space	n/a
269.942	0.105	539884	keystroke_c	c	n/a
270.4665	0.075	540933	keystroke_o	o	n/a
270.707	0.045	541414	keystroke_l	l	n/a
270.8265	0.0905	541653	keystroke_l	l	n/a
270.887	0.075	541774	keystroke_e	e	n/a
271.0665	0.1505	542133	keystroke_c	c	n/a
271.262	0.12	542524	keystroke_t	t	n/a
271.322	0.15	542644	keystroke_i	i	n/a
271.397	0.12	542794	keystroke_n	n	n/a
271.4715	0.1205	542943	keystroke_g	g	n/a
271.562	0.1055	543124	keystroke_Key.space	Key.space	n/a
271.682	0.12	543364	keystroke_m	m	n/a
271.757	0.1055	543514	keystroke_o	o	n/a
271.8475	0.179	543695	keystroke_r	r	n/a
271.922	0.1355	543844	keystroke_a	a	n/a
272.042	0.06	544084	keystroke_l	l	n/a
272.207	0.09	544414	keystroke_Key.enter	Key.enter	n/a
272.3025	6.0715	544605	prompt	n/a	dealt meets adopt formerly\n
272.9885	0.073	545977	keystroke_d	d	n/a
273.152	0.1505	546304	keystroke_e	e	n/a
273.2575	0.105	546515	keystroke_a	a	n/a
273.3475	0.1195	546695	keystroke_l	l	n/a
273.4825	0.1495	546965	keystroke_t	t	n/a
273.6465	0.106	547293	keystroke_h	h	n/a
274.157	0.075	548314	keystroke_Key.backspace	Key.backspace	n/a
274.247	0.105	548494	keystroke_Key.space	Key.space	n/a
274.442	0.105	548884	keystroke_m	m	n/a
274.5775	0.1045	549155	keystroke_e	e	n/a
274.7275	0.24	549455	keystroke_e	e	n/a
275.2525	0.15	550505	keystroke_t	t	n/a
275.372	0.135	550744	keystroke_s	s	n/a
275.4925	0.1195	550985	keystroke_Key.space	Key.space	n/a
275.912	0.105	551824	keystroke_a	a	n/a
276.032	0.1355	552064	keystroke_d	d	n/a
276.138	0.15	552276	keystroke_o	o	n/a
276.197	0.1805	552394	keystroke_p	p	n/a
276.3175	0.1495	552635	keystroke_t	t	n/a
276.4525	0.1045	552905	keystroke_Key.space	Key.space	n/a
276.738	0.104	553476	keystroke_f	f	n/a
276.812	0.105	553624	keystroke_o	o	n/a
276.9325	0.12	553865	keystroke_r	r	n/a
277.038	0.1045	554076	keystroke_m	m	n/a
277.127	0.135	554254	keystroke_e	e	n/a
277.1875	0.1345	554375	keystroke_r	r	n/a
277.427	0.0755	554854	keystroke_t	t	n/a
277.7275	0.105	555455	keystroke_Key.backspace	Key.backspace	n/a
277.938	0.1345	555876	keystroke_l	l	n/a
278.0575	0.1045	556115	keystroke_y	y	n/a
278.267	0.1055	556534	keystroke_Key.enter	Key.enter	n/a
278.377	4.812	556754	prompt	n/a	playing expanding forgotten comply\n
279.1375	0.135	558275	keystroke_p	p	n/a
279.197	0.1655	558394	keystroke_l	l	n/a
279.3175	0.135	558635	keystroke_a	a	n/a
279.438	0.044	558876	keystroke_y	y	n/a
279.5725	0.135	559145	keystroke_i	i	n/a
279.6475	0.105	559295	keystroke_n	n	n/a
279.738	0.1045	559476	keystroke_g	g	n/a
279.843	0.1045	559686	keystroke_Key.space	Key.space	n/a
279.9325	0.1195	559865	keystroke_e	e	n/a
280.1425	0.12	560285	keystroke_x	x	n/a
280.2325	0.1345	560465	keystroke_p	p	n/a
280.382	0.12	560764	keystroke_a	a	n/a
280.4725	0.1045	560945	keystroke_n	n	n/a
280.5925	0.1345	561185	keystroke_d	d	n/a
280.682	0.1355	561364	keystroke_i	i	n/a
280.7425	0.105	561485	keystroke_n	n	n/a
280.8175	0.1345	561635	keystroke_g	g	n/a
280.9375	0.09	561875	keystroke_Key.space	Key.space	n/a
281.1175	0.09	562235	keystroke_f	f	n/a
281.1925	0.1195	562385	keystroke_o	o	n/a
281.297	0.0905	562594	keystroke_r	r	n/a
281.492	0.15	562984	keystroke_g	g	n/a
281.6575	0.105	563315	keystroke_o	o	n/a
281.7625	0.075	563525	keystroke_t	t	n/a
281.9425	0.12	563885	keystroke_t	t	n/a
282.0475	0.1345	564095	keystroke_e	e	n/a
282.138	0.1045	564276	keystroke_n	n	n/a
282.197	0.1505	564394	keystroke_Key.space	Key.space	n/a
282.3325	0.1345	564665	keystroke_c	c	n/a
282.3925	0.15	564785	keystroke_o	o	n/a
282.4525	0.165	564905	keystroke_m	m	n/a
282.5275	0.165	565055	keystroke_p	p	n/a
282.6625	0.1345	565325	keystroke_l	l	n/a
282.8725	0.105	565745	keystroke_y	y	n/a
283.082	0.1055	566164	keystroke_Key.enter	Key.enter	n/a
283.192	5.7715	566384	prompt	n/a	invasion administrative ross surrey\n
283.9385	0.179	567877	keystroke_i	i	n/a
283.9975	0.15	567995	keystroke_n	n	n/a
284.1325	0.1055	568265	keystroke_v	v	n/a
284.207	0.1505	568414	keystroke_a	a	n/a
284.5525	0.1355	569105	keystroke_s	s	n/a
284.6725	0.165	569345	keystroke_i	i	n/a
284.7025	0.1495	569405	keystroke_o	o	n/a
284.7625	0.15	569525	keystroke_n	n	n/a
284.9275	0.2395	569855	keystroke_Key.space	Key.space	n/a
285.2725	0.105	570545	keystroke_a	a	n/a
285.3925	0.15	570785	keystroke_d	d	n/a
285.5875	0.12	571175	keystroke_m	m	n/a
285.6925	0.1045	571385	keystroke_i	i	n/a
285.782	0.1205	571564	keystroke_n	n	n/a
285.888	0.1495	571776	keystroke_i	i	n/a
285.9625	0.15	571925	keystroke_s	s	n/a
286.082	0.1055	572164	keystroke_t	t	n/a
286.247	0.12	572494	keystroke_r	r	n/a
286.3225	0.1345	572645	keystroke_a	a	n/a
286.488	0.1345	572976	keystroke_t	t	n/a
286.6075	0.15	573215	keystroke_i	i	n/a
286.7425	0.075	573485	keystroke_v	v	n/a
286.7725	0.15	573545	keystroke_e	e	n/a
286.8625	0.165	573725	keystroke_Key.space	Key.space	n/a
287.042	0.121	574084	keystroke_r	r	n/a
287.1475	0.1345	574295	keystroke_o	o	n/a
287.357	0.0905	574714	keystroke_s	s	n/a
287.5225	0.09	575045	keystroke_s	s	n/a
287.6275	0.0895	575255	keystroke_Key.space	Key.space	n/a
287.852	0.1055	575704	keystroke_s	s	n/a
287.973	0.06	575946	keystroke_u	u	n/a
288.227	0.0755	576454	keystroke_r	r	n/a
288.4075	0.12	576815	keystroke_r	r	n/a
288.4975	0.165	576995	keystroke_e	e	n/a
288.6475	0.09	577295	keystroke_y	y	n/a
288.8425	0.1195	577685	keystroke_Key.enter	Key.enter	n/a
288.9665	4.917	577933	prompt	n/a	pressure configure europe enjoy\n
289.667	0.1205	579334	keystroke_p	p	n/a
289.7425	0.1645	579485	keystroke_r	r	n/a
289.8325	0.1345	579665	keystroke_e	e	n/a
290.0275	0.075	580055	keystroke_s	s	n/a
290.178	0.119	580356	keystroke_s	s	n/a
290.312	0.0905	580624	keystroke_u	u	n/a
290.3575	0.1805	580715	keystroke_r	r	n/a
290.4325	0.1345	580865	keystroke_e	e	n/a
290.552	0.0755	581104	keystroke_Key.space	Key.space	n/a
290.7625	0.1345	581525	keystroke_c	c	n/a
290.852	0.1055	581704	keystroke_o	o	n/a
290.882	0.12	581764	keystroke_n	n	n/a
291.0175	0.18	582035	keystroke_f	f	n/a
291.182	0.0905	582364	keystroke_i	i	n/a
291.2885	0.0735	582577	keystroke_g	g	n/a
291.3775	0.0895	582755	keystroke_u	u	n/a
291.4525	0.15	582905	keystroke_r	r	n/a
291.4975	0.12	582995	keystroke_e	e	n/a
291.5875	0.09	583175	keystroke_Key.space	Key.space	n/a
292.0075	0.0745	584015	keystroke_e	e	n/a
292.0825	0.1355	584165	keystroke_u	u	n/a
292.203	0.1045	584406	keystroke_r	r	n/a
292.2925	0.165	584585	keystroke_o	o	n/a
292.367	0.1805	584734	keystroke_p	p	n/a
292.517	0.165	585034	keystroke_e	e	n/a
292.667	0.09	585334	keystroke_Key.space	Key.space	n/a
292.8625	0.1195	585725	keystroke_e	e	n/a
292.9525	0.075	585905	keystroke_n	n	n/a
293.1475	0.1345	586295	keystroke_j	j	n/a
293.3575	0.15	586715	keystroke_o	o	n/a
293.4625	0.1495	586925	keystroke_y	y	n/a
293.8075	0.0745	587615	keystroke_Key.enter	Key.enter	n/a
293.8865	6.1025	587773	prompt	n/a	creating manor expertise scenic\n
294.707	0.1055	589414	keystroke_c	c	n/a
294.8725	0.135	589745	keystroke_r	r	n/a
294.9625	0.1045	589925	keystroke_e	e	n/a
295.0075	0.18	590015	keystroke_a	a	n/a
295.2175	0.1495	590435	keystroke_t	t	n/a
295.382	0.1355	590764	keystroke_i	i	n/a
295.4285	0.119	590857	keystroke_n	n	n/a
295.5025	0.135	591005	keystroke_g	g	n/a
295.6225	0.105	591245	keystroke_Key.space	Key.space	n/a
295.7725	0.15	591545	keystroke_m	m	n/a
295.982	0.135	591964	keystroke_a	a	n/a
296.073	0.1045	592146	keystroke_n	n	n/a
296.162	0.1355	592324	keystroke_o	o	n/a
296.463	0.1495	592926	keystroke_r	r	n/a
296.5975	0.075	593195	keystroke_Key.space	Key.space	n/a
296.8075	0.09	593615	keystroke_e	e	n/a
297.0025	0.09	594005	keystroke_x	x	n/a
297.047	0.12	594094	keystroke_p	p	n/a
297.5575	0.15	595115	keystroke_e	e	n/a
297.6325	0.1195	595265	keystroke_r	r	n/a
297.9625	0.15	595925	keystroke_t	t	n/a
298.127	0.0905	596254	keystroke_i	i	n/a
298.2025	0.195	596405	keystroke_s	s	n/a
298.3225	0.1505	596645	keystroke_e	e	n/a
298.4875	0.135	596975	keystroke_Key.space	Key.space	n/a
298.982	0.1655	597964	keystroke_s	s	n/a
299.2525	0.1045	598505	keystroke_c	c	n/a
299.4175	0.12	598835	keystroke_e	e	n/a
299.5225	0.135	599045	keystroke_n	n	n/a
299.6425	0.1195	599285	keystroke_i	i	n/a
299.7325	0.1495	599465	keystroke_c	c	n/a
299.8975	0.09	599795	keystroke_Key.enter	Key.enter	n/a
299.993	5.186	599986	prompt	n/a	slovakia trunk amsterdam riverside\n
300.7075	0.1645	601415	keystroke_s	s	n/a
300.7975	0.06	601595	keystroke_l	l	n/a
300.9475	0.12	601895	keystroke_o	o	n/a
301.052	0.1205	602104	keystroke_v	v	n/a
301.1425	0.105	602285	keystroke_a	a	n/a
301.4875	0.045	602975	keystroke_k	k	n/a
301.6225	0.1045	603245	keystroke_i	i	n/a
301.7425	0.09	603485	keystroke_a	a	n/a
301.8175	0.09	603635	keystroke_Key.space	Key.space	n/a
301.9225	0.0745	603845	keystroke_t	t	n/a
302.0725	0.1495	604145	keystroke_r	r	n/a
302.1475	0.09	604295	keystroke_u	u	n/a
302.328	0.1045	604656	keystroke_n	n	n/a
302.3875	0.15	604775	keystroke_k	k	n/a
302.507	0.1055	605014	keystroke_Key.space	Key.space	n/a
302.6725	0.1345	605345	keystroke_a	a	n/a
302.763	0.1195	605526	keystroke_m	m	n/a
302.883	0.1345	605766	keystroke_s	s	n/a
302.9875	0.1195	605975	keystroke_t	t	n/a
303.1545	0.118	606309	keystroke_e	e	n/a
303.1975	0.15	606395	keystroke_r	r	n/a
303.407	0.121	606814	keystroke_d	d	n/a
303.4975	0.1645	606995	keystroke_a	a	n/a
303.6025	0.165	607205	keystroke_m	m	n/a
303.678	0.1045	607356	keystroke_Key.space	Key.space	n/a
304.007	0.1055	608014	keystroke_r	r	n/a
304.0825	0.135	608165	keystroke_i	i	n/a
304.2325	0.1055	608465	keystroke_v	v	n/a
304.3525	0.15	608705	keystroke_e	e	n/a
304.458	0.1345	608916	keystroke_r	r	n/a
304.622	0.1205	609244	keystroke_s	s	n/a
304.7575	0.12	609515	keystroke_i	i	n/a
304.8325	0.0745	609665	keystroke_d	d	n/a
304.983	0.1195	609966	keystroke_e	e	n/a
305.0725	0.105	610145	keystroke_Key.enter	Key.enter	n/a
305.182	4.167	610364	prompt	n/a	types outer drag projection\n
305.8675	0.12	611735	keystroke_t	t	n/a
305.9725	0.09	611945	keystroke_y	y	n/a
306.0775	0.165	612155	keystroke_p	p	n/a
306.167	0.1655	612334	keystroke_e	e	n/a
306.2875	0.1805	612575	keystroke_s	s	n/a
306.3925	0.105	612785	keystroke_Key.space	Key.space	n/a
306.528	0.179	613056	keystroke_o	o	n/a
306.633	0.12	613266	keystroke_u	u	n/a
306.6925	0.1195	613385	keystroke_t	t	n/a
306.8275	0.1645	613655	keystroke_e	e	n/a
306.903	0.1645	613806	keystroke_r	r	n/a
306.977	0.1055	613954	keystroke_Key.space	Key.space	n/a
307.1275	0.15	614255	keystroke_d	d	n/a
307.292	0.1205	614584	keystroke_r	r	n/a
307.3675	0.15	614735	keystroke_a	a	n/a
307.5325	0.12	615065	keystroke_g	g	n/a
307.6385	0.119	615277	keystroke_Key.space	Key.space	n/a
307.907	0.1055	615814	keystroke_p	p	n/a
307.9975	0.135	615995	keystroke_r	r	n/a
308.1045	0.1335	616209	keystroke_o	o	n/a
308.223	0.1045	616446	keystroke_j	j	n/a
308.3125	0.09	616625	keystroke_e	e	n/a
308.5375	0.0905	617075	keystroke_c	c	n/a
308.6875	0.1655	617375	keystroke_t	t	n/a
308.8375	0.1655	617675	keystroke_i	i	n/a
308.8975	0.1505	617795	keystroke_o	o	n/a
308.9875	0.135	617975	keystroke_n	n	n/a
309.273	0.0745	618546	keystroke_Key.enter	Key.enter	n/a
309.352	4.7225	618704	prompt	n/a	help mortgages throw all\n
310.0075	0.1055	620015	keystroke_h	h	n/a
310.068	0.1495	620136	keystroke_e	e	n/a
310.1725	0.1195	620345	keystroke_l	l	n/a
310.233	0.135	620466	keystroke_p	p	n/a
310.368	0.1345	620736	keystroke_Key.space	Key.space	n/a
310.683	0.1195	621366	keystroke_m	m	n/a
310.743	0.134	621486	keystroke_o	o	n/a
310.8475	0.09	621695	keystroke_r	r	n/a
311.0735	0.1495	622147	keystroke_t	t	n/a
311.358	0.0895	622716	keystroke_g	g	n/a
311.433	0.12	622866	keystroke_a	a	n/a
312.4375	0.135	624875	keystroke_g	g	n/a
312.5275	0.15	625055	keystroke_e	e	n/a
312.6635	0.119	625327	keystroke_s	s	n/a
312.7675	0.09	625535	keystroke_Key.space	Key.space	n/a
312.903	0.1195	625806	keystroke_t	t	n/a
313.0075	0.105	626015	keystroke_h	h	n/a
313.128	0.1495	626256	keystroke_r	r	n/a
313.248	0.12	626496	keystroke_o	o	n/a
313.338	0.12	626676	keystroke_w	w	n/a
313.443	0.09	626886	keystroke_Key.space	Key.space	n/a
313.563	0.135	627126	keystroke_a	a	n/a
313.6675	0.0605	627335	keystroke_l	l	n/a
313.7875	0.105	627575	keystroke_l	l	n/a
313.968	0.105	627936	keystroke_Key.enter	Key.enter	n/a
314.0775	6.207	628155	prompt	n/a	visa uncle presence indeed\n
315.0625	0.15	630125	keystroke_v	v	n/a
315.1375	0.1505	630275	keystroke_i	i	n/a
315.228	0.1645	630456	keystroke_s	s	n/a
315.3045	0.1335	630609	keystroke_a	a	n/a
315.454	0.074	630908	keystroke_Key.space	Key.space	n/a
315.604	0.0885	631208	keystroke_u	u	n/a
315.768	0.105	631536	keystroke_n	n	n/a
315.888	0.12	631776	keystroke_c	c	n/a
315.9925	0.1055	631985	keystroke_l	l	n/a
316.083	0.165	632166	keystroke_e	e	n/a
316.4885	0.104	632977	keystroke_Key.space	Key.space	n/a
316.5775	0.1505	633155	keystroke_p	p	n/a
316.683	0.1495	633366	keystroke_r	r	n/a
316.758	0.1045	633516	keystroke_e	e	n/a
316.923	0.1795	633846	keystroke_s	s	n/a
316.9975	0.1505	633995	keystroke_e	e	n/a
317.1625	0.1055	634325	keystroke_n	n	n/a
317.283	0.075	634566	keystroke_c	c	n/a
317.418	0.1045	634836	keystroke_e	e	n/a
317.4925	0.1055	634985	keystroke_Key.space	Key.space	n/a
317.613	0.091	635226	keystroke_i	i	n/a
317.658	0.1045	635316	keystroke_d	d	n/a
317.868	0.06	635736	keystroke_e	e	n/a
318.018	0.1045	636036	keystroke_e	e	n/a
318.483	0.06	636966	keystroke_Key.backspace	Key.backspace	n/a
318.648	0.075	637296	keystroke_Key.backspace	Key.backspace	n/a
318.798	0.0905	637596	keystroke_Key.backspace	Key.backspace	n/a
318.9775	0.1055	637955	keystroke_n	n	n/a
319.038	0.09	638076	keystroke_e	e	n/a
319.428	0.0755	638856	keystroke_Key.backspace	Key.backspace	n/a
319.5325	0.1355	639065	keystroke_d	d	n/a
319.743	0.1045	639486	keystroke_e	e	n/a
319.893	0.075	639786	keystroke_e	e	n/a
320.088	0.1195	640176	keystroke_d	d	n/a
320.1925	0.0905	640385	keystroke_Key.enter	Key.enter	n/a
320.2895	11.47	640579	prompt	n/a	respectively conflicts bowling promotes\n
321.0475	0.106	642095	keystroke_r	r	n/a
321.108	0.18	642216	keystroke_e	e	n/a
321.3035	0.1345	642607	keystroke_p	p	n/a
321.4525	0.1205	642905	keystroke_r	r	n/a
321.498	0.09	642996	keystroke_e	e	n/a
321.738	0.075	643476	keystroke_Key.backspace	Key.backspace	n/a
321.888	0.075	643776	keystroke_Key.backspace	Key.backspace	n/a
322.068	0.075	644136	keystroke_Key.backspace	Key.backspace	n/a
322.158	0.15	644316	keystroke_s	s	n/a
322.2625	0.1055	644525	keystroke_p	p	n/a
322.3535	0.0745	644707	keystroke_e	e	n/a
322.5475	0.12	645095	keystroke_c	c	n/a
322.713	0.12	645426	keystroke_t	t	n/a
322.833	0.09	645666	keystroke_i	i	n/a
322.938	0.15	645876	keystroke_v	v	n/a
323.043	0.12	646086	keystroke_e	e	n/a
323.104	0.1495	646208	keystroke_l	l	n/a
323.254	0.1785	646508	keystroke_y	y	n/a
323.4325	0.0605	646865	keystroke_Key.space	Key.space	n/a
323.508	0.15	647016	keystroke_c	c	n/a
323.5825	0.121	647165	keystroke_o	o	n/a
323.658	0.1195	647316	keystroke_n	n	n/a
323.958	0.1195	647916	keystroke_f	f	n/a
324.0625	0.1355	648125	keystroke_l	l	n/a
324.1375	0.1355	648275	keystroke_i	i	n/a
324.198	0.135	648396	keystroke_c	c	n/a
324.3625	0.1205	648725	keystroke_t	t	n/a
324.438	0.12	648876	keystroke_s	s	n/a
324.513	0.091	649026	keystroke_Key.space	Key.space	n/a
324.7525	0.1055	649505	keystroke_b	b	n/a
324.993	0.061	649986	keystroke_l	l	n/a
325.1885	0.089	650377	keystroke_o	o	n/a
325.488	0.0595	650976	keystroke_Key.backspace	Key.backspace	n/a
325.608	0.12	651216	keystroke_Key.backspace	Key.backspace	n/a
325.743	0.15	651486	keystroke_w	w	n/a
325.818	0.09	651636	keystroke_o	o	n/a
326.043	0.18	652086	keystroke_l	l	n/a
326.1325	0.1655	652265	keystroke_i	i	n/a
326.193	0.12	652386	keystroke_n	n	n/a
326.2535	0.1195	652507	keystroke_g	g	n/a
326.358	0.1045	652716	keystroke_Key.space	Key.space	n/a
326.4325	0.121	652865	keystroke_p	p	n/a
326.538	0.1345	653076	keystroke_r	r	n/a
326.613	0.1195	653226	keystroke_o	o	n/a
326.718	0.1205	653436	keystroke_m	m	n/a
326.793	0.165	653586	keystroke_o	o	n/a
326.913	0.135	653826	keystroke_t	t	n/a
327.0325	0.1505	654065	keystroke_e	e	n/a
327.228	0.1495	654456	keystroke_s	s	n/a
327.708	0.015	655416	keystroke_Key.backspace	Key.backspace	n/a
327.8275	0.076	655655	keystroke_Key.backspace	Key.backspace	n/a
327.9925	0.0455	655985	keystroke_Key.backspace	Key.backspace	n/a
328.143	0.045	656286	keystroke_Key.backspace	Key.backspace	n/a
328.293	0.045	656586	keystroke_Key.backspace	Key.backspace	n/a
328.428	0.0595	656856	keystroke_Key.backspace	Key.backspace	n/a
328.593	0.075	657186	keystroke_Key.backspace	Key.backspace	n/a
328.743	0.045	657486	keystroke_Key.backspace	Key.backspace	n/a
328.893	0.061	657786	keystroke_Key.backspace	Key.backspace	n/a
329.028	0.076	658056	keystroke_Key.backspace	Key.backspace	n/a
329.1925	0.0615	658385	keystroke_Key.backspace	Key.backspace	n/a
329.3585	0.059	658717	keystroke_Key.backspace	Key.backspace	n/a
329.538	0.045	659076	keystroke_Key.backspace	Key.backspace	n/a
329.688	0.0745	659376	keystroke_Key.backspace	Key.backspace	n/a
329.868	0.1045	659736	keystroke_Key.backspace	Key.backspace	n/a
330.138	0.105	660276	keystroke_o	o	n/a
330.258	0.165	660516	keystroke_w	w	n/a
330.513	0.1655	661026	keystroke_l	l	n/a
330.588	0.166	661176	keystroke_i	i	n/a
330.6625	0.1055	661325	keystroke_n	n	n/a
330.723	0.135	661446	keystroke_g	g	n/a
330.8135	0.104	661627	keystroke_Key.space	Key.space	n/a
330.8875	0.1205	661775	keystroke_p	p	n/a
330.993	0.1355	661986	keystroke_r	r	n/a
331.038	0.1205	662076	keystroke_o	o	n/a
331.143	0.12	662286	keystroke_m	m	n/a
331.2175	0.1505	662435	keystroke_o	o	n/a
331.323	0.135	662646	keystroke_t	t	n/a
331.3985	0.134	662797	keystroke_e	e	n/a
331.578	0.135	663156	keystroke_s	s	n/a
331.6675	0.0905	663335	keystroke_Key.enter	Key.enter	n/a
331.763	9.4615	663526	prompt	n/a	matched forwarding costume anna\n
332.5225	0.0975	665045	keystroke_m	m	n/a
332.598	0.1055	665196	keystroke_a	a	n/a
332.688	0.0895	665376	keystroke_t	t	n/a
332.8535	0.089	665707	keystroke_c	c	n/a
332.913	0.12	665826	keystroke_h	h	n/a
333.0175	0.137	666035	keystroke_e	e	n/a
333.093	0.135	666186	keystroke_s	s	n/a
333.198	0.1195	666396	keystroke_Key.space	Key.space	n/a
333.708	0.0455	667416	keystroke_Key.backspace	Key.backspace	n/a
333.8275	0.1205	667655	keystroke_Key.backspace	Key.backspace	n/a
333.9175	0.1655	667835	keystroke_d	d	n/a
334.038	0.075	668076	keystroke_Key.space	Key.space	n/a
334.0985	0.105	668197	keystroke_f	f	n/a
334.1885	0.1195	668377	keystroke_o	o	n/a
334.293	0.135	668586	keystroke_r	r	n/a
334.383	0.165	668766	keystroke_w	w	n/a
334.5035	0.1345	669007	keystroke_a	a	n/a
334.603	0.08	669206	keystroke_r	r	n/a
334.698	0.195	669396	keystroke_d	d	n/a
334.8635	0.195	669727	keystroke_i	i	n/a
334.938	0.1355	669876	keystroke_n	n	n/a
335.043	0.0895	670086	keystroke_g	g	n/a
335.1175	0.0905	670235	keystroke_Key.space	Key.space	n/a
335.2675	0.15	670535	keystroke_c	c	n/a
335.373	0.15	670746	keystroke_o	o	n/a
335.4325	0.121	670865	keystroke_n	n	n/a
335.733	0.135	671466	keystroke_s	s	n/a
335.9125	0.1505	671825	keystroke_t	t	n/a
336.0035	0.0445	672007	keystroke_u	u	n/a
336.168	0.09	672336	keystroke_m	m	n/a
336.2285	0.1495	672457	keystroke_e	e	n/a
336.3485	0.09	672697	keystroke_Key.space	Key.space	n/a
336.468	0.15	672936	keystroke_a	a	n/a
336.9485	0.0595	673897	keystroke_n	n	n/a
337.098	0.106	674196	keystroke_n	n	n/a
337.204	0.134	674408	keystroke_a	a	n/a
338.118	0.06	676236	keystroke_Key.backspace	Key.backspace	n/a
338.2835	0.075	676567	keystroke_Key.backspace	Key.backspace	n/a
338.463	0.03	676926	keystroke_Key.backspace	Key.backspace	n/a
338.6135	0.059	677227	keystroke_Key.backspace	Key.backspace	n/a
338.7785	0.0445	677557	keystroke_Key.backspace	Key.backspace	n/a
338.913	0.06	677826	keystroke_Key.backspace	Key.backspace	n/a
339.063	0.06	678126	keystroke_Key.backspace	Key.backspace	n/a
339.228	0.0595	678456	keystroke_Key.backspace	Key.backspace	n/a
339.378	0.1055	678756	keystroke_Key.backspace	Key.backspace	n/a
339.558	0.0455	679116	keystroke_Key.backspace	Key.backspace	n/a
339.7085	0.1045	679417	keystroke_Key.backspace	Key.backspace	n/a
339.9035	0.15	679807	keystroke_s	s	n/a
340.1435	0.135	680287	keystroke_t	t	n/a
340.2335	0.06	680467	keystroke_u	u	n/a
340.3835	0.105	680767	keystroke_m	m	n/a
340.473	0.105	680946	keystroke_e	e	n/a
340.563	0.0905	681126	keystroke_Key.space	Key.space	n/a
340.668	0.1355	681336	keystroke_a	a	n/a
340.788	0.0455	681576	keystroke_n	n	n/a
340.908	0.1055	681816	keystroke_n	n	n/a
341.028	0.1355	682056	keystroke_a	a	n/a
341.1335	0.0895	682267	keystroke_Key.enter	Key.enter	n/a
341.2285	4.8445	682457	prompt	n/a	students furnishings roles indicator\n
342.018	0.1055	684036	keystroke_s	s	n/a
342.1085	0.1195	684217	keystroke_t	t	n/a
342.243	0.0755	684486	keystroke_u	u	n/a
342.3335	0.09	684667	keystroke_d	d	n/a
342.4835	0.165	684967	keystroke_e	e	n/a
342.573	0.1055	685146	keystroke_n	n	n/a
342.6485	0.15	685297	keystroke_t	t	n/a
342.7235	0.165	685447	keystroke_s	s	n/a
342.828	0.1205	685656	keystroke_Key.space	Key.space	n/a
342.9635	0.105	685927	keystroke_f	f	n/a
343.054	0.074	686108	keystroke_u	u	n/a
343.143	0.1205	686286	keystroke_r	r	n/a
343.3085	0.1195	686617	keystroke_n	n	n/a
343.443	0.0905	686886	keystroke_i	i	n/a
343.5485	0.165	687097	keystroke_s	s	n/a
343.6685	0.1045	687337	keystroke_h	h	n/a
343.758	0.15	687516	keystroke_i	i	n/a
343.8635	0.135	687727	keystroke_n	n	n/a
343.938	0.1655	687876	keystroke_g	g	n/a
344.0135	0.135	688027	keystroke_s	s	n/a
344.1185	0.1045	688237	keystroke_Key.space	Key.space	n/a
344.313	0.135	688626	keystroke_r	r	n/a
344.388	0.0755	688776	keystroke_o	o	n/a
344.5535	0.12	689107	keystroke_l	l	n/a
344.628	0.1505	689256	keystroke_e	e	n/a
344.7185	0.15	689437	keystroke_s	s	n/a
344.7935	0.09	689587	keystroke_Key.space	Key.space	n/a
344.958	0.12	689916	keystroke_i	i	n/a
345.0185	0.12	690037	keystroke_n	n	n/a
345.1235	0.1195	690247	keystroke_d	d	n/a
345.2285	0.105	690457	keystroke_i	i	n/a
345.3485	0.135	690697	keystroke_c	c	n/a
345.4685	0.15	690937	keystroke_a	a	n/a
345.633	0.1355	691266	keystroke_t	t	n/a
345.7535	0.1045	691507	keystroke_o	o	n/a
345.843	0.1355	691686	keystroke_r	r	n/a
345.9935	0.075	691987	keystroke_Key.enter	Key.enter	n/a
346.076	4.434	692152	prompt	n/a	soldiers all swift stories\n
346.9085	0.1045	693817	keystroke_s	s	n/a
347.028	0.076	694056	keystroke_o	o	n/a
347.2085	0.165	694417	keystroke_l	l	n/a
347.8085	0.165	695617	keystroke_d	d	n/a
347.9585	0.105	695917	keystroke_i	i	n/a
348.0485	0.1195	696097	keystroke_e	e	n/a
348.108	0.15	696216	keystroke_r	r	n/a
348.243	0.1055	696486	keystroke_s	s	n/a
348.3335	0.12	696667	keystroke_Key.space	Key.space	n/a
348.528	0.135	697056	keystroke_a	a	n/a
348.6485	0.0595	697297	keystroke_l	l	n/a
348.7685	0.1195	697537	keystroke_l	l	n/a
348.843	0.106	697686	keystroke_Key.space	Key.space	n/a
348.9335	0.09	697867	keystroke_s	s	n/a
349.113	0.1055	698226	keystroke_w	w	n/a
349.2035	0.09	698407	keystroke_i	i	n/a
349.2785	0.09	698557	keystroke_f	f	n/a
349.4735	0.135	698947	keystroke_t	t	n/a
349.5335	0.0895	699067	keystroke_Key.space	Key.space	n/a
349.6685	0.135	699337	keystroke_s	s	n/a
349.788	0.106	699576	keystroke_t	t	n/a
349.8785	0.09	699757	keystroke_o	o	n/a
349.998	0.1055	699996	keystroke_r	r	n/a
350.1185	0.105	700237	keystroke_i	i	n/a
350.1935	0.165	700387	keystroke_e	e	n/a
350.2835	0.15	700567	keystroke_s	s	n/a
350.4185	0.09	700837	keystroke_Key.enter	Key.enter	n/a
350.514	5.231	701028	prompt	n/a	capacity teenage slideshow present\n
351.228	0.1355	702456	keystroke_c	c	n/a
351.3185	0.1045	702637	keystroke_a	a	n/a
351.408	0.1355	702816	keystroke_p	p	n/a
351.5285	0.091	703057	keystroke_a	a	n/a
351.6385	0.1445	703277	keystroke_c	c	n/a
351.769	0.0745	703538	keystroke_i	i	n/a
351.8585	0.1345	703717	keystroke_t	t	n/a
351.948	0.12	703896	keystroke_y	y	n/a
352.0555	0.0425	704111	keystroke_Key.space	Key.space	n/a
352.398	0.1505	704796	keystroke_t	t	n/a
352.5045	0.089	705009	keystroke_e	e	n/a
352.698	0.1065	705396	keystroke_e	e	n/a
352.8185	0.105	705637	keystroke_n	n	n/a
352.959	0.116	705918	keystroke_a	a	n/a
353.172	0.082	706344	keystroke_g	g	n/a
353.209	0.104	706418	keystroke_e	e	n/a
353.298	0.1055	706596	keystroke_Key.space	Key.space	n/a
353.433	0.1355	706866	keystroke_s	s	n/a
353.5385	0.18	707077	keystroke_l	l	n/a
353.6285	0.12	707257	keystroke_i	i	n/a
353.6885	0.09	707377	keystroke_d	d	n/a
353.854	0.0895	707708	keystroke_e	e	n/a
354.4085	0.105	708817	keystroke_s	s	n/a
354.528	0.075	709056	keystroke_h	h	n/a
354.5585	0.195	709117	keystroke_o	o	n/a
354.6485	0.1195	709297	keystroke_w	w	n/a
354.783	0.0455	709566	keystroke_Key.space	Key.space	n/a
354.8735	0.18	709747	keystroke_p	p	n/a
354.9635	0.1045	709927	keystroke_r	r	n/a
355.0385	0.0745	710077	keystroke_e	e	n/a
355.1585	0.15	710317	keystroke_s	s	n/a
355.2785	0.1195	710557	keystroke_e	e	n/a
355.414	0.1345	710828	keystroke_n	n	n/a
355.5185	0.1495	711037	keystroke_t	t	n/a
355.6385	0.105	711277	keystroke_Key.enter	Key.enter	n/a
355.748	6.432	711496	prompt	n/a	randy chevrolet leading instrumental\n
356.7185	0.135	713437	keystroke_r	r	n/a
356.8085	0.1045	713617	keystroke_a	a	n/a
356.9285	0.0755	713857	keystroke_n	n	n/a
357.0185	0.1645	714037	keystroke_d	d	n/a
357.1385	0.105	714277	keystroke_y	y	n/a
357.228	0.1205	714456	keystroke_Key.space	Key.space	n/a
357.828	0.1055	715656	keystroke_c	c	n/a
357.903	0.0905	715806	keystroke_h	h	n/a
357.9635	0.1195	715927	keystroke_e	e	n/a
358.1585	0.06	716317	keystroke_v	v	n/a
358.3235	0.136	716647	keystroke_r	r	n/a
358.4285	0.0455	716857	keystroke_o	o	n/a
358.609	0.1205	717218	keystroke_l	l	n/a
358.714	0.1345	717428	keystroke_e	e	n/a
358.774	0.134	717548	keystroke_t	t	n/a
358.8935	0.0745	717787	keystroke_Key.space	Key.space	n/a
359.058	0.1355	718116	keystroke_l	l	n/a
359.148	0.091	718296	keystroke_e	e	n/a
359.2385	0.105	718477	keystroke_a	a	n/a
359.359	0.1345	718718	keystroke_d	d	n/a
359.4335	0.1495	718867	keystroke_i	i	n/a
359.5085	0.105	719017	keystroke_n	n	n/a
359.568	0.1355	719136	keystroke_g	g	n/a
359.658	0.1355	719316	keystroke_Key.space	Key.space	n/a
359.7785	0.15	719557	keystroke_i	i	n/a
359.8385	0.12	719677	keystroke_n	n	n/a
359.929	0.1195	719858	keystroke_s	s	n/a
360.0185	0.09	720037	keystroke_t	t	n/a
360.1835	0.12	720367	keystroke_r	r	n/a
360.2585	0.0895	720517	keystroke_u	u	n/a
361.444	0.0745	722888	keystroke_m	m	n/a
361.533	0.121	723066	keystroke_e	e	n/a
361.608	0.105	723216	keystroke_n	n	n/a
361.668	0.136	723336	keystroke_t	t	n/a
361.7885	0.135	723577	keystroke_a	a	n/a
361.8785	0.0895	723757	keystroke_l	l	n/a
362.0735	0.105	724147	keystroke_Key.enter	Key.enter	n/a
362.183	6.1625	724366	prompt	n/a	designed phones bother dayton\n
362.8685	0.0895	725737	keystroke_d	d	n/a
363.0485	0.09	726097	keystroke_e	e	n/a
363.379	0.0745	726758	keystroke_s	s	n/a
363.4685	0.12	726937	keystroke_i	i	n/a
363.634	0.089	727268	keystroke_g	g	n/a
363.7085	0.105	727417	keystroke_n	n	n/a
363.769	0.0895	727538	keystroke_e	e	n/a
363.964	0.119	727928	keystroke_d	d	n/a
364.0535	0.12	728107	keystroke_Key.space	Key.space	n/a
364.1585	0.105	728317	keystroke_p	p	n/a
364.219	0.135	728438	keystroke_h	h	n/a
364.3385	0.165	728677	keystroke_o	o	n/a
364.458	0.1355	728916	keystroke_n	n	n/a
364.5185	0.1645	729037	keystroke_e	e	n/a
364.668	0.12	729336	keystroke_s	s	n/a
364.7585	0.12	729517	keystroke_Key.space	Key.space	n/a
365.1035	0.15	730207	keystroke_b	b	n/a
365.2085	0.1205	730417	keystroke_o	o	n/a
365.5985	0.135	731197	keystroke_t	t	n/a
365.6885	0.135	731377	keystroke_h	h	n/a
365.779	0.1495	731558	keystroke_e	e	n/a
365.854	0.135	731708	keystroke_r	r	n/a
365.9735	0.09	731947	keystroke_Key.space	Key.space	n/a
366.6635	0.18	733327	keystroke_d	d	n/a
367.0985	0.12	734197	keystroke_a	a	n/a
367.4435	0.075	734887	keystroke_y	y	n/a
367.8035	0.135	735607	keystroke_t	t	n/a
367.9235	0.135	735847	keystroke_o	o	n/a
368.013	0.1065	736026	keystroke_n	n	n/a
368.268	0.0755	736536	keystroke_Key.enter	Key.enter	n/a
368.3485	5.2165	736697	prompt	n/a	humanitarian describes donate mice\n
369.1685	0.06	738337	keystroke_h	h	n/a
369.3335	0.06	738667	keystroke_u	u	n/a
369.529	0.1045	739058	keystroke_m	m	n/a
369.679	0.1495	739358	keystroke_a	a	n/a
369.8135	0.105	739627	keystroke_n	n	n/a
369.9035	0.1205	739807	keystroke_i	i	n/a
370.0535	0.1505	740107	keystroke_t	t	n/a
370.22	0.0585	740440	keystroke_a	a	n/a
370.3835	0.1205	740767	keystroke_r	r	n/a
370.474	0.09	740948	keystroke_i	i	n/a
370.579	0.135	741158	keystroke_a	a	n/a
370.6985	0.1055	741397	keystroke_n	n	n/a
370.759	0.105	741518	keystroke_Key.space	Key.space	n/a
370.9685	0.0755	741937	keystroke_d	d	n/a
371.1335	0.0905	742267	keystroke_e	e	n/a
371.2385	0.151	742477	keystroke_s	s	n/a
371.404	0.1045	742808	keystroke_c	c	n/a
371.5535	0.1205	743107	keystroke_r	r	n/a
371.674	0.1195	743348	keystroke_i	i	n/a
371.779	0.0895	743558	keystroke_b	b	n/a
371.9435	0.1205	743887	keystroke_e	e	n/a
372.0335	0.1045	744067	keystroke_s	s	n/a
372.1535	0.0605	744307	keystroke_Key.space	Key.space	n/a
372.2885	0.12	744577	keystroke_d	d	n/a
372.334	0.1495	744668	keystroke_o	o	n/a
372.4235	0.135	744847	keystroke_n	n	n/a
372.5285	0.135	745057	keystroke_a	a	n/a
372.649	0.1345	745298	keystroke_t	t	n/a
372.7085	0.1505	745417	keystroke_e	e	n/a
372.8435	0.0605	745687	keystroke_Key.space	Key.space	n/a
372.9635	0.105	745927	keystroke_m	m	n/a
373.0385	0.1505	746077	keystroke_i	i	n/a
373.144	0.12	746288	keystroke_c	c	n/a
373.3535	0.15	746707	keystroke_e	e	n/a
373.459	0.1045	746918	keystroke_Key.enter	Key.enter	n/a
373.5675	4.978	747135	prompt	n/a	came give announced absolute\n
374.209	0.09	748418	keystroke_c	c	n/a
374.2685	0.1355	748537	keystroke_a	a	n/a
374.344	0.12	748688	keystroke_m	m	n/a
374.449	0.1195	748898	keystroke_e	e	n/a
374.5535	0.075	749107	keystroke_Key.space	Key.space	n/a
374.659	0.105	749318	keystroke_g	g	n/a
374.749	0.1195	749498	keystroke_i	i	n/a
374.8535	0.1205	749707	keystroke_v	v	n/a
374.899	0.1195	749798	keystroke_e	e	n/a
375.0035	0.1055	750007	keystroke_Key.space	Key.space	n/a
375.124	0.135	750248	keystroke_a	a	n/a
375.7535	0.0755	751507	keystroke_n	n	n/a
375.904	0.1045	751808	keystroke_n	n	n/a
376.0535	0.151	752107	keystroke_o	o	n/a
376.144	0.09	752288	keystroke_u	u	n/a
376.3235	0.1055	752647	keystroke_n	n	n/a
376.414	0.0895	752828	keystroke_c	c	n/a
376.579	0.075	753158	keystroke_e	e	n/a
376.729	0.12	753458	keystroke_d	d	n/a
376.804	0.09	753608	keystroke_Key.space	Key.space	n/a
376.909	0.105	753818	keystroke_a	a	n/a
377.029	0.15	754058	keystroke_b	b	n/a
377.239	0.015	754478	keystroke_o	o	n/a
377.5985	0.1055	755197	keystroke_Key.backspace	Key.backspace	n/a
377.72	0.1185	755440	keystroke_s	s	n/a
377.824	0.09	755648	keystroke_o	o	n/a
378.02	0.1335	756040	keystroke_l	l	n/a
378.109	0.135	756218	keystroke_u	u	n/a
378.2285	0.15	756457	keystroke_t	t	n/a
378.289	0.1495	756578	keystroke_e	e	n/a
378.454	0.09	756908	keystroke_Key.enter	Key.enter	n/a
378.5485	4.3765	757097	prompt	n/a	settle struck active have\n
379.2185	0.135	758437	keystroke_s	s	n/a
379.3085	0.1505	758617	keystroke_e	e	n/a
380.029	0.045	760058	keystroke_t	t	n/a
380.179	0.091	760358	keystroke_t	t	n/a
380.2695	0.1345	760539	keystroke_l	l	n/a
380.359	0.12	760718	keystroke_e	e	n/a
380.464	0.1045	760928	keystroke_Key.space	Key.space	n/a
380.7205	0.134	761441	keystroke_s	s	n/a
380.8235	0.045	761647	keystroke_t	t	n/a
380.989	0.0895	761978	keystroke_r	r	n/a
381.034	0.1195	762068	keystroke_u	u	n/a
381.17	0.0745	762340	keystroke_c	c	n/a
381.289	0.1345	762578	keystroke_t	t	n/a
381.3785	0.09	762757	keystroke_Key.space	Key.space	n/a
381.559	0.105	763118	keystroke_a	a	n/a
381.7095	0.104	763419	keystroke_c	c	n/a
381.859	0.105	763718	keystroke_t	t	n/a
381.9485	0.1215	763897	keystroke_i	i	n/a
382.0385	0.1505	764077	keystroke_v	v	n/a
382.114	0.135	764228	keystroke_e	e	n/a
382.204	0.12	764408	keystroke_Key.space	Key.space	n/a
382.3395	0.135	764679	keystroke_h	h	n/a
382.3835	0.136	764767	keystroke_a	a	n/a
382.5785	0.1655	765157	keystroke_v	v	n/a
382.7285	0.1205	765457	keystroke_e	e	n/a
382.834	0.0895	765668	keystroke_Key.enter	Key.enter	n/a
382.928	8.233	765856	prompt	n/a	pokemon commitments research christmas\n
383.764	0.1195	767528	keystroke_p	p	n/a
383.9295	0.1045	767859	keystroke_o	o	n/a
384.1985	0.166	768397	keystroke_k	k	n/a
384.364	0.106	768728	keystroke_e	e	n/a
384.514	0.1055	769028	keystroke_m	m	n/a
384.7535	0.1205	769507	keystroke_o	o	n/a
384.829	0.105	769658	keystroke_n	n	n/a
384.9195	0.15	769839	keystroke_Key.space	Key.space	n/a
385.144	0.1645	770288	keystroke_c	c	n/a
385.2195	0.1045	770439	keystroke_o	o	n/a
385.414	0.075	770828	keystroke_m	m	n/a
385.549	0.105	771098	keystroke_m	m	n/a
385.624	0.12	771248	keystroke_i	i	n/a
385.729	0.1195	771458	keystroke_t	t	n/a
385.834	0.075	771668	keystroke_m	m	n/a
385.939	0.12	771878	keystroke_e	e	n/a
386.0145	0.0895	772029	keystroke_n	n	n/a
386.1195	0.1795	772239	keystroke_t	t	n/a
386.224	0.135	772448	keystroke_s	s	n/a
386.344	0.09	772688	keystroke_Key.space	Key.space	n/a
386.689	0.15	773378	keystroke_r	r	n/a
386.824	0.12	773648	keystroke_e	e	n/a
386.959	0.1195	773918	keystroke_s	s	n/a
387.0635	0.12	774127	keystroke_e	e	n/a
387.199	0.1215	774398	keystroke_a	a	n/a
387.274	0.0895	774548	keystroke_r	r	n/a
387.439	0.15	774878	keystroke_c	c	n/a
387.5445	0.105	775089	keystroke_h	h	n/a
387.619	0.105	775238	keystroke_Key.space	Key.space	n/a
388.009	0.0455	776018	keystroke_s	s	n/a
388.2485	0.121	776497	keystroke_Key.backspace	Key.backspace	n/a
388.324	0.165	776648	keystroke_c	c	n/a
388.444	0.1045	776888	keystroke_h	h	n/a
388.5345	0.1195	777069	keystroke_s	s	n/a
389.329	0.105	778658	keystroke_Key.backspace	Key.backspace	n/a
389.4485	0.1505	778897	keystroke_r	r	n/a
389.5545	0.1345	779109	keystroke_i	i	n/a
389.674	0.135	779348	keystroke_s	s	n/a
389.7635	0.1505	779527	keystroke_t	t	n/a
390.0195	0.0895	780039	keystroke_m	m	n/a
390.124	0.12	780248	keystroke_a	a	n/a
390.199	0.1045	780398	keystroke_n	n	n/a
390.3635	0.1355	780727	keystroke_s	s	n/a
390.6335	0.0755	781267	keystroke_Key.backspace	Key.backspace	n/a
390.784	0.1055	781568	keystroke_Key.backspace	Key.backspace	n/a
390.889	0.165	781778	keystroke_s	s	n/a
391.0695	0.0895	782139	keystroke_Key.enter	Key.enter	n/a
391.1655	7.54	782331	prompt	n/a	principle endorsement illustrations surrey\n
391.9695	0.089	783939	keystroke_p	p	n/a
392.104	0.12	784208	keystroke_r	r	n/a
392.2085	0.1355	784417	keystroke_i	i	n/a
392.284	0.1355	784568	keystroke_n	n	n/a
392.4335	0.151	784867	keystroke_c	c	n/a
392.539	0.135	785078	keystroke_i	i	n/a
392.72	0.194	785440	keystroke_p	p	n/a
392.899	0.105	785798	keystroke_l	l	n/a
392.929	0.1045	785858	keystroke_e	e	n/a
393.079	0.105	786158	keystroke_Key.space	Key.space	n/a
393.6485	0.105	787297	keystroke_e	e	n/a
393.739	0.09	787478	keystroke_n	n	n/a
393.859	0.1505	787718	keystroke_d	d	n/a
393.979	0.105	787958	keystroke_o	o	n/a
394.099	0.18	788198	keystroke_r	r	n/a
394.294	0.18	788588	keystroke_s	s	n/a
394.459	0.165	788918	keystroke_e	e	n/a
394.7585	0.09	789517	keystroke_m	m	n/a
394.864	0.12	789728	keystroke_e	e	n/a
394.939	0.12	789878	keystroke_n	n	n/a
395.044	0.135	790088	keystroke_t	t	n/a
395.1635	0.0605	790327	keystroke_Key.space	Key.space	n/a
395.4335	0.0455	790867	keystroke_i	i	n/a
395.614	0.075	791228	keystroke_l	l	n/a
395.764	0.15	791528	keystroke_l	l	n/a
395.8695	0.1345	791739	keystroke_u	u	n/a
395.974	0.0745	791948	keystroke_s	s	n/a
396.034	0.0905	792068	keystroke_t	t	n/a
396.199	0.105	792398	keystroke_r	r	n/a
396.274	0.09	792548	keystroke_a	a	n/a
396.379	0.1355	792758	keystroke_t	t	n/a
396.4695	0.15	792939	keystroke_i	i	n/a
396.499	0.135	792998	keystroke_o	o	n/a
396.559	0.135	793118	keystroke_n	n	n/a
396.6485	0.1355	793297	keystroke_s	s	n/a
396.739	0.105	793478	keystroke_Key.space	Key.space	n/a
396.979	0.12	793958	keystroke_s	s	n/a
397.0695	0.09	794139	keystroke_u	u	n/a
397.4445	0.0445	794889	keystroke_r	r	n/a
397.5945	0.089	795189	keystroke_r	r	n/a
397.7445	0.0745	795489	keystroke_y	y	n/a
398.239	0.12	796478	keystroke_Key.backspace	Key.backspace	n/a
398.344	0.105	796688	keystroke_e	e	n/a
398.42	0.104	796840	keystroke_y	y	n/a
398.614	0.0905	797228	keystroke_Key.enter	Key.enter	n/a
398.7095	8.126	797419	prompt	n/a	quantity exchanges firmware geographical\n
399.5295	0.104	799059	keystroke_q	q	n/a
399.6195	0.0595	799239	keystroke_u	u	n/a
399.739	0.1345	799478	keystroke_a	a	n/a
399.799	0.105	799598	keystroke_n	n	n/a
399.949	0.1055	799898	keystroke_t	t	n/a
400.024	0.1055	800048	keystroke_i	i	n/a
400.13	0.1345	800260	keystroke_t	t	n/a
400.234	0.105	800468	keystroke_y	y	n/a
400.3095	0.1045	800619	keystroke_Key.space	Key.space	n/a
400.579	0.105	801158	keystroke_e	e	n/a
401.015	0.1045	802030	keystroke_x	x	n/a
401.239	0.15	802478	keystroke_c	c	n/a
401.359	0.0905	802718	keystroke_h	h	n/a
401.4645	0.12	802929	keystroke_a	a	n/a
401.5695	0.1045	803139	keystroke_n	n	n/a
401.6595	0.1195	803319	keystroke_g	g	n/a
401.7195	0.1345	803439	keystroke_e	e	n/a
401.7645	0.1645	803529	keystroke_s	s	n/a
401.9145	0.0595	803829	keystroke_Key.space	Key.space	n/a
402.0195	0.1045	804039	keystroke_f	f	n/a
402.139	0.0905	804278	keystroke_i	i	n/a
402.1845	0.195	804369	keystroke_r	r	n/a
402.3945	0.105	804789	keystroke_m	m	n/a
402.5445	0.18	805089	keystroke_a	a	n/a
402.949	0.135	805898	keystroke_Key.backspace	Key.backspace	n/a
403.069	0.1055	806138	keystroke_w	w	n/a
403.129	0.195	806258	keystroke_a	a	n/a
403.3395	0.15	806679	keystroke_r	r	n/a
403.3845	0.1645	806769	keystroke_e	e	n/a
403.6545	0.1195	807309	keystroke_Key.space	Key.space	n/a
404.8245	0.105	809649	keystroke_g	g	n/a
404.9445	0.1045	809889	keystroke_e	e	n/a
405.3795	0.15	810759	keystroke_o	o	n/a
405.7245	0.075	811449	keystroke_g	g	n/a
405.904	0.1355	811808	keystroke_r	r	n/a
405.949	0.1655	811898	keystroke_a	a	n/a
406.0995	0.1495	812199	keystroke_p	p	n/a
406.2195	0.12	812439	keystroke_h	h	n/a
406.3095	0.12	812619	keystroke_i	i	n/a
406.3695	0.1345	812739	keystroke_c	c	n/a
406.4595	0.135	812919	keystroke_a	a	n/a
406.5495	0.09	813099	keystroke_l	l	n/a
406.7595	0.0745	813519	keystroke_Key.enter	Key.enter	n/a
406.839	5.9515	813678	prompt	n/a	continues figures blink perceived\n
407.5395	0.15	815079	keystroke_c	c	n/a
407.6145	0.15	815229	keystroke_o	o	n/a
407.6745	0.12	815349	keystroke_n	n	n/a
407.779	0.1055	815558	keystroke_t	t	n/a
408.4845	0.075	816969	keystroke_i	i	n/a
408.6495	0.045	817299	keystroke_n	n	n/a
408.8145	0.105	817629	keystroke_u	u	n/a
408.8895	0.15	817779	keystroke_e	e	n/a
408.9795	0.15	817959	keystroke_s	s	n/a
409.0995	0.06	818199	keystroke_Key.space	Key.space	n/a
409.4895	0.105	818979	keystroke_f	f	n/a
409.6095	0.075	819219	keystroke_i	i	n/a
409.6995	0.09	819399	keystroke_g	g	n/a
409.8045	0.09	819609	keystroke_u	u	n/a
409.9095	0.1645	819819	keystroke_r	r	n/a
409.9695	0.1795	819939	keystroke_e	e	n/a
410.104	0.1505	820208	keystroke_s	s	n/a
410.2395	0.105	820479	keystroke_Key.space	Key.space	n/a
410.644	0.1655	821288	keystroke_b	b	n/a
410.734	0.1055	821468	keystroke_l	l	n/a
410.779	0.105	821558	keystroke_i	i	n/a
410.8845	0.165	821769	keystroke_n	n	n/a
411.0345	0.105	822069	keystroke_k	k	n/a
411.1095	0.12	822219	keystroke_Key.space	Key.space	n/a
411.289	0.1205	822578	keystroke_p	p	n/a
411.364	0.2105	822728	keystroke_e	e	n/a
411.4845	0.1345	822969	keystroke_r	r	n/a
411.7995	0.075	823599	keystroke_c	c	n/a
411.949	0.105	823898	keystroke_e	e	n/a
412.054	0.15	824108	keystroke_i	i	n/a
412.1295	0.135	824259	keystroke_v	v	n/a
412.2195	0.09	824439	keystroke_e	e	n/a
412.5645	0.12	825129	keystroke_d	d	n/a
412.6695	0.1195	825339	keystroke_Key.enter	Key.enter	n/a
412.7935	5.607	825587	prompt	n/a	compute blake harrison baltimore\n
413.509	0.1505	827018	keystroke_c	c	n/a
413.5395	0.1645	827079	keystroke_o	o	n/a
413.6145	0.105	827229	keystroke_m	m	n/a
413.689	0.21	827378	keystroke_p	p	n/a
413.84	0.074	827680	keystroke_u	u	n/a
413.8845	0.15	827769	keystroke_t	t	n/a
413.9595	0.165	827919	keystroke_e	e	n/a
414.0795	0.12	828159	keystroke_Key.space	Key.space	n/a
414.2445	0.165	828489	keystroke_b	b	n/a
414.4245	0.1045	828849	keystroke_l	l	n/a
414.5445	0.135	829089	keystroke_a	a	n/a
414.6195	0.1505	829239	keystroke_k	k	n/a
414.7545	0.105	829509	keystroke_e	e	n/a
414.7995	0.1045	829599	keystroke_Key.space	Key.space	n/a
415.114	0.0305	830228	keystroke_h	h	n/a
415.1295	0.03	830259	keystroke_i	i	n/a
415.174	0.1655	830348	keystroke_a	a	n/a
415.474	0.0455	830948	keystroke_Key.backspace	Key.backspace	n/a
415.6245	0.12	831249	keystroke_Key.backspace	Key.backspace	n/a
415.7595	0.135	831519	keystroke_a	a	n/a
415.8945	0.09	831789	keystroke_r	r	n/a
416.5395	0.135	833079	keystroke_r	r	n/a
416.674	0.0455	833348	keystroke_i	i	n/a
416.7945	0.105	833589	keystroke_s	s	n/a
416.8545	0.1195	833709	keystroke_o	o	n/a
416.9145	0.135	833829	keystroke_n	n	n/a
417.0345	0.12	834069	keystroke_Key.space	Key.space	n/a
417.1995	0.165	834399	keystroke_b	b	n/a
417.3195	0.1355	834639	keystroke_a	a	n/a
417.4395	0.09	834879	keystroke_l	l	n/a
417.574	0.1205	835148	keystroke_t	t	n/a
417.6795	0.09	835359	keystroke_i	i	n/a
417.844	0.1205	835688	keystroke_m	m	n/a
417.9495	0.1205	835899	keystroke_o	o	n/a
418.039	0.2105	836078	keystroke_r	r	n/a
418.145	0.1795	836290	keystroke_e	e	n/a
418.3095	0.0895	836619	keystroke_Key.enter	Key.enter	n/a
418.4035	6.252	836807	prompt	n/a	honor costs melbourne level\n
419.074	0.1055	838148	keystroke_h	h	n/a
419.2545	0.1045	838509	keystroke_o	o	n/a
419.389	0.1655	838778	keystroke_n	n	n/a
419.509	0.1205	839018	keystroke_o	o	n/a
419.659	0.1205	839318	keystroke_r	r	n/a
419.749	0.1055	839498	keystroke_Key.space	Key.space	n/a
420.004	0.1205	840008	keystroke_c	c	n/a
420.0795	0.12	840159	keystroke_o	o	n/a
420.1845	0.165	840369	keystroke_s	s	n/a
420.289	0.1505	840578	keystroke_t	t	n/a
420.4245	0.105	840849	keystroke_s	s	n/a
420.5145	0.0895	841029	keystroke_Key.space	Key.space	n/a
420.6945	0.09	841389	keystroke_m	m	n/a
420.784	0.1505	841568	keystroke_e	e	n/a
421.1145	0.105	842229	keystroke_l	l	n/a
421.399	0.1805	842798	keystroke_b	b	n/a
421.549	0.1505	843098	keystroke_o	o	n/a
421.625	0.1045	843250	keystroke_u	u	n/a
421.7145	0.1215	843429	keystroke_r	r	n/a
421.8495	0.1195	843699	keystroke_n	n	n/a
421.939	0.1505	843878	keystroke_e	e	n/a
422.1495	0.1045	844299	keystroke_Key.space	Key.space	n/a
422.3745	0.165	844749	keystroke_l	l	n/a
422.4645	0.12	844929	keystroke_e	e	n/a
422.629	0.1355	845258	keystroke_v	v	n/a
422.7045	0.1045	845409	keystroke_e	e	n/a
422.824	0.1505	845648	keystroke_l	l	n/a
424.5795	0.0745	849159	keystroke_Key.enter	Key.enter	n/a
424.659	5.2175	849318	prompt	n/a	brilliant match quarter floppy\n
425.374	0.1055	850748	keystroke_b	b	n/a
425.5845	0.165	851169	keystroke_r	r	n/a
425.6895	0.075	851379	keystroke_i	i	n/a
425.8695	0.0745	851739	keystroke_l	l	n/a
425.9745	0.1795	851949	keystroke_l	l	n/a
426.0645	0.1055	852129	keystroke_i	i	n/a
426.1695	0.1355	852339	keystroke_a	a	n/a
426.2895	0.1055	852579	keystroke_n	n	n/a
426.4245	0.12	852849	keystroke_t	t	n/a
426.529	0.105	853058	keystroke_Key.space	Key.space	n/a
426.9945	0.091	853989	keystroke_m	m	n/a
427.099	0.15	854198	keystroke_a	a	n/a
427.2045	0.0745	854409	keystroke_t	t	n/a
427.3695	0.105	854739	keystroke_c	c	n/a
427.4445	0.091	854889	keystroke_h	h	n/a
427.4895	0.105	854979	keystroke_Key.space	Key.space	n/a
427.6545	0.12	855309	keystroke_q	q	n/a
427.729	0.1205	855458	keystroke_u	u	n/a
427.91	0.119	855820	keystroke_a	a	n/a
428.1195	0.135	856239	keystroke_r	r	n/a
428.3595	0.076	856719	keystroke_t	t	n/a
428.4495	0.15	856899	keystroke_e	e	n/a
428.524	0.1355	857048	keystroke_r	r	n/a
428.614	0.09	857228	keystroke_Key.space	Key.space	n/a
428.75	0.134	857500	keystroke_f	f	n/a
428.8545	0.0595	857709	keystroke_l	l	n/a
429.0355	0.074	858071	keystroke_o	o	n/a
429.214	0.0605	858428	keystroke_p	p	n/a
429.484	0.015	858968	keystroke_p	p	n/a
429.559	0.1055	859118	keystroke_y	y	n/a
429.799	0.0755	859598	keystroke_Key.enter	Key.enter	n/a
429.8795	5.0365	859759	prompt	n/a	changed accuracy top addiction\n
430.76	0.12	861520	keystroke_c	c	n/a
430.836	0.074	861672	keystroke_h	h	n/a
430.925	0.135	861850	keystroke_a	a	n/a
431.029	0.1065	862058	keystroke_n	n	n/a
431.1195	0.15	862239	keystroke_g	g	n/a
431.2095	0.1045	862419	keystroke_e	e	n/a
431.405	0.1195	862810	keystroke_d	d	n/a
431.4945	0.0895	862989	keystroke_Key.space	Key.space	n/a
431.5995	0.075	863199	keystroke_a	a	n/a
431.72	0.104	863440	keystroke_c	c	n/a
431.8995	0.105	863799	keystroke_c	c	n/a
432.0195	0.12	864039	keystroke_u	u	n/a
432.0945	0.135	864189	keystroke_r	r	n/a
432.1855	0.104	864371	keystroke_a	a	n/a
432.725	0.135	865450	keystroke_c	c	n/a
432.814	0.1055	865628	keystroke_y	y	n/a
432.89	0.105	865780	keystroke_Key.space	Key.space	n/a
433.1445	0.135	866289	keystroke_t	t	n/a
433.236	0.1495	866472	keystroke_o	o	n/a
433.3095	0.135	866619	keystroke_p	p	n/a
433.3995	0.105	866799	keystroke_Key.space	Key.space	n/a
433.5195	0.099	867039	keystroke_a	a	n/a
433.6245	0.1045	867249	keystroke_d	d	n/a
433.8055	0.0895	867611	keystroke_d	d	n/a
433.94	0.0895	867880	keystroke_i	i	n/a
434.0445	0.12	868089	keystroke_c	c	n/a
434.255	0.1195	868510	keystroke_t	t	n/a
434.3145	0.1955	868629	keystroke_i	i	n/a
434.3895	0.1505	868779	keystroke_o	o	n/a
434.5545	0.1505	869109	keystroke_n	n	n/a
434.8095	0.105	869619	keystroke_Key.enter	Key.enter	n/a
434.9185	5.3975	869837	prompt	n/a	laundry than corporate picking\n
435.695	0.1195	871390	keystroke_l	l	n/a
435.7995	0.15	871599	keystroke_a	a	n/a
435.9205	0.0445	871841	keystroke_u	u	n/a
436.07	0.0895	872140	keystroke_n	n	n/a
436.145	0.1195	872290	keystroke_c	c	n/a
436.6095	0.12	873219	keystroke_Key.backspace	Key.backspace	n/a
436.6855	0.1345	873371	keystroke_d	d	n/a
436.8795	0.1195	873759	keystroke_r	r	n/a
436.9545	0.0755	873909	keystroke_y	y	n/a
437.0145	0.09	874029	keystroke_Key.space	Key.space	n/a
437.24	0.12	874480	keystroke_t	t	n/a
437.3145	0.0605	874629	keystroke_h	h	n/a
437.465	0.1495	874930	keystroke_a	a	n/a
437.5995	0.105	875199	keystroke_n	n	n/a
437.66	0.12	875320	keystroke_Key.space	Key.space	n/a
437.8855	0.164	875771	keystroke_c	c	n/a
438.005	0.1195	876010	keystroke_o	o	n/a
438.14	0.1045	876280	keystroke_r	r	n/a
438.2295	0.15	876459	keystroke_p	p	n/a
438.3205	0.165	876641	keystroke_o	o	n/a
438.44	0.15	876880	keystroke_r	r	n/a
438.545	0.12	877090	keystroke_a	a	n/a
438.86	0.165	877720	keystroke_t	t	n/a
438.9645	0.1055	877929	keystroke_e	e	n/a
439.0855	0.0895	878171	keystroke_Key.space	Key.space	n/a
439.28	0.1645	878560	keystroke_p	p	n/a
439.3855	0.105	878771	keystroke_i	i	n/a
439.475	0.195	878950	keystroke_c	c	n/a
439.625	0.0605	879250	keystroke_k	k	n/a
439.775	0.15	879550	keystroke_i	i	n/a
439.8795	0.135	879759	keystroke_n	n	n/a
440.0745	0.1655	880149	keystroke_g	g	n/a
440.225	0.0895	880450	keystroke_Key.enter	Key.enter	n/a
440.3185	4.3025	880637	prompt	n/a	realm closer former brand\n
441.065	0.1205	882130	keystroke_r	r	n/a
441.1095	0.1805	882219	keystroke_e	e	n/a
441.2145	0.105	882429	keystroke_a	a	n/a
441.3355	0.0895	882671	keystroke_l	l	n/a
441.7095	0.1355	883419	keystroke_m	m	n/a
441.7995	0.1205	883599	keystroke_Key.space	Key.space	n/a
442.085	0.12	884170	keystroke_c	c	n/a
442.16	0.0595	884320	keystroke_l	l	n/a
442.31	0.105	884620	keystroke_o	o	n/a
442.3695	0.1665	884739	keystroke_s	s	n/a
442.46	0.1945	884920	keystroke_e	e	n/a
442.5795	0.1055	885159	keystroke_r	r	n/a
442.6695	0.0755	885339	keystroke_Key.space	Key.space	n/a
442.805	0.1195	885610	keystroke_f	f	n/a
442.895	0.105	885790	keystroke_o	o	n/a
442.9855	0.1345	885971	keystroke_r	r	n/a
443.1045	0.106	886209	keystroke_m	m	n/a
443.195	0.15	886390	keystroke_e	e	n/a
443.285	0.135	886570	keystroke_r	r	n/a
443.705	0.12	887410	keystroke_Key.space	Key.space	n/a
443.8995	0.0905	887799	keystroke_b	b	n/a
444.08	0.135	888160	keystroke_r	r	n/a
444.1545	0.1205	888309	keystroke_a	a	n/a
444.29	0.105	888580	keystroke_n	n	n/a
444.41	0.135	888820	keystroke_d	d	n/a
444.53	0.09	889060	keystroke_Key.enter	Key.enter	n/a
444.624	6.387	889248	prompt	n/a	independent alerts featured priest\n
445.6695	0.105	891339	keystroke_i	i	n/a
445.9695	0.0455	891939	keystroke_Key.backspace	Key.backspace	n/a
446.345	0.1345	892690	keystroke_i	i	n/a
446.405	0.1495	892810	keystroke_n	n	n/a
446.495	0.105	892990	keystroke_d	d	n/a
446.675	0.135	893350	keystroke_e	e	n/a
446.8245	0.1055	893649	keystroke_p	p	n/a
446.9445	0.0755	893889	keystroke_d	d	n/a
447.095	0.0905	894190	keystroke_e	e	n/a
447.1395	0.1055	894279	keystroke_n	n	n/a
447.275	0.09	894550	keystroke_d	d	n/a
447.4395	0.1355	894879	keystroke_e	e	n/a
447.56	0.06	895120	keystroke_n	n	n/a
447.6355	0.089	895271	keystroke_t	t	n/a
447.7095	0.0905	895419	keystroke_Key.space	Key.space	n/a
447.9045	0.135	895809	keystroke_a	a	n/a
448.0545	0.1355	896109	keystroke_l	l	n/a
448.3545	0.181	896709	keystroke_e	e	n/a
448.43	0.12	896860	keystroke_r	r	n/a
448.6395	0.1505	897279	keystroke_t	t	n/a
449.0145	0.1055	898029	keystroke_s	s	n/a
449.105	0.1195	898210	keystroke_Key.space	Key.space	n/a
449.255	0.15	898510	keystroke_f	f	n/a
449.3745	0.18	898749	keystroke_e	e	n/a
449.45	0.1645	898900	keystroke_a	a	n/a
449.57	0.12	899140	keystroke_t	t	n/a
449.705	0.09	899410	keystroke_u	u	n/a
449.7795	0.1655	899559	keystroke_r	r	n/a
449.8245	0.135	899649	keystroke_e	e	n/a
449.9	0.1355	899800	keystroke_s	s	n/a
449.975	0.09	899950	keystroke_Key.space	Key.space	n/a
450.2	0.12	900400	keystroke_p	p	n/a
450.305	0.15	900610	keystroke_r	r	n/a
450.4395	0.1055	900879	keystroke_i	i	n/a
450.53	0.165	901060	keystroke_e	e	n/a
450.68	0.165	901360	keystroke_s	s	n/a
450.8295	0.1355	901659	keystroke_t	t	n/a
450.92	0.0895	901840	keystroke_Key.enter	Key.enter	n/a
451.014	5.8475	902028	prompt	n/a	mill conference loads kong\n
451.88	0.105	903760	keystroke_m	m	n/a
451.9695	0.1205	903939	keystroke_i	i	n/a
452.1795	0.06	904359	keystroke_l	l	n/a
452.315	0.105	904630	keystroke_l	l	n/a
452.405	0.09	904810	keystroke_Key.space	Key.space	n/a
452.6	0.12	905200	keystroke_o	o	n/a
452.66	0.015	905320	keystroke_c	c	n/a
453.1395	0.075	906279	keystroke_Key.backspace	Key.backspace	n/a
453.335	0.1045	906670	keystroke_Key.backspace	Key.backspace	n/a
453.545	0.165	907090	keystroke_c	c	n/a
453.605	0.1655	907210	keystroke_o	o	n/a
453.695	0.135	907390	keystroke_n	n	n/a
453.815	0.1345	907630	keystroke_f	f	n/a
453.935	0.1645	907870	keystroke_e	e	n/a
454.0395	0.1805	908079	keystroke_r	r	n/a
454.145	0.135	908290	keystroke_e	e	n/a
454.22	0.1345	908440	keystroke_n	n	n/a
454.3695	0.0755	908739	keystroke_c	c	n/a
454.55	0.1045	909100	keystroke_e	e	n/a
454.61	0.1045	909220	keystroke_Key.space	Key.space	n/a
454.745	0.075	909490	keystroke_l	l	n/a
454.9395	0.105	909879	keystroke_o	o	n/a
455.0295	0.0905	910059	keystroke_a	a	n/a
455.12	0.195	910240	keystroke_d	d	n/a
455.6005	0.1495	911201	keystroke_s	s	n/a
455.795	0.12	911590	keystroke_Key.space	Key.space	n/a
455.945	0.0445	911890	keystroke_k	k	n/a
456.305	0.09	912610	keystroke_o	o	n/a
456.4245	0.15	912849	keystroke_n	n	n/a
456.59	0.1495	913180	keystroke_g	g	n/a
456.785	0.075	913570	keystroke_Key.enter	Key.enter	n/a
456.865	4.722	913730	prompt	n/a	pest wrong organized corporate\n
457.5955	0.1195	915191	keystroke_p	p	n/a
457.76	0.195	915520	keystroke_e	e	n/a
458	0.18	916000	keystroke_s	s	n/a
458.165	0.105	916330	keystroke_t	t	n/a
458.2545	0.0755	916509	keystroke_Key.space	Key.space	n/a
458.495	0.1505	916990	keystroke_w	w	n/a
458.63	0.135	917260	keystroke_r	r	n/a
458.7645	0.121	917529	keystroke_o	o	n/a
458.8395	0.121	917679	keystroke_n	n	n/a
458.87	0.15	917740	keystroke_g	g	n/a
459.005	0.1045	918010	keystroke_Key.space	Key.space	n/a
459.1545	0.1355	918309	keystroke_o	o	n/a
459.245	0.135	918490	keystroke_r	r	n/a
459.4855	0.1495	918971	keystroke_g	g	n/a
459.59	0.09	919180	keystroke_a	a	n/a
459.7095	0.09	919419	keystroke_n	n	n/a
459.7545	0.1505	919509	keystroke_i	i	n/a
459.845	0.105	919690	keystroke_z	z	n/a
459.935	0.0895	919870	keystroke_e	e	n/a
460.13	0.12	920260	keystroke_d	d	n/a
460.235	0.0595	920470	keystroke_Key.space	Key.space	n/a
460.37	0.12	920740	keystroke_c	c	n/a
460.4295	0.1055	920859	keystroke_o	o	n/a
460.55	0.135	921100	keystroke_r	r	n/a
460.6705	0.1045	921341	keystroke_p	p	n/a
460.7	0.165	921400	keystroke_o	o	n/a
460.82	0.1195	921640	keystroke_r	r	n/a
460.9245	0.1355	921849	keystroke_a	a	n/a
461.2245	0.1655	922449	keystroke_t	t	n/a
461.3	0.15	922600	keystroke_e	e	n/a
461.4505	0.1345	922901	keystroke_Key.enter	Key.enter	n/a
461.5915	4.3155	923183	prompt	n/a	mortgage wild races coin\n
462.2895	0.105	924579	keystroke_m	m	n/a
462.3645	0.1355	924729	keystroke_o	o	n/a
462.44	0.09	924880	keystroke_r	r	n/a
462.65	0.075	925300	keystroke_t	t	n/a
462.8	0.135	925600	keystroke_g	g	n/a
462.89	0.165	925780	keystroke_a	a	n/a
463.04	0.15	926080	keystroke_t	t	n/a
463.115	0.135	926230	keystroke_e	e	n/a
463.2795	0.1055	926559	keystroke_Key.space	Key.space	n/a
463.4145	0.15	926829	keystroke_w	w	n/a
463.55	0.1205	927100	keystroke_i	i	n/a
463.6255	0.1645	927251	keystroke_l	l	n/a
463.7755	0.1495	927551	keystroke_d	d	n/a
463.8795	0.0905	927759	keystroke_Key.space	Key.space	n/a
464.136	0.149	928272	keystroke_r	r	n/a
464.24	0.15	928480	keystroke_a	a	n/a
464.4055	0.1045	928811	keystroke_c	c	n/a
464.601	0.1485	929202	keystroke_e	e	n/a
464.7055	0.1495	929411	keystroke_s	s	n/a
464.87	0.075	929740	keystroke_Key.space	Key.space	n/a
465.17	0.135	930340	keystroke_c	c	n/a
465.245	0.21	930490	keystroke_o	o	n/a
465.35	0.1945	930700	keystroke_i	i	n/a
465.5	0.1495	931000	keystroke_n	n	n/a
465.815	0.09	931630	keystroke_Key.enter	Key.enter	n/a
465.91	3.9715	931820	prompt	n/a	sisters issued alice bullet\n
466.58	0.105	933160	keystroke_s	s	n/a
466.67	0.135	933340	keystroke_i	i	n/a
466.79	0.135	933580	keystroke_s	s	n/a
466.9105	0.1345	933821	keystroke_t	t	n/a
467.03	0.165	934060	keystroke_e	e	n/a
467.21	0.165	934420	keystroke_r	r	n/a
467.315	0.1205	934630	keystroke_s	s	n/a
467.4205	0.0895	934841	keystroke_Key.space	Key.space	n/a
467.615	0.1045	935230	keystroke_i	i	n/a
467.675	0.0895	935350	keystroke_s	s	n/a
467.87	0.0605	935740	keystroke_s	s	n/a
467.9455	0.104	935891	keystroke_u	u	n/a
468.005	0.12	936010	keystroke_e	e	n/a
468.11	0.0905	936220	keystroke_s	s	n/a
468.1705	0.1195	936341	keystroke_Key.space	Key.space	n/a
468.38	0.135	936760	keystroke_a	a	n/a
468.47	0.1945	936940	keystroke_l	l	n/a
468.5605	0.1345	937121	keystroke_i	i	n/a
468.6205	0.089	937241	keystroke_c	c	n/a
468.815	0.0895	937630	keystroke_e	e	n/a
468.86	0.1045	937720	keystroke_Key.space	Key.space	n/a
469.01	0.1505	938020	keystroke_b	b	n/a
469.115	0.0595	938230	keystroke_u	u	n/a
469.325	0.06	938650	keystroke_l	l	n/a
469.4605	0.1195	938921	keystroke_l	l	n/a
469.5205	0.1945	939041	keystroke_e	e	n/a
469.6255	0.1345	939251	keystroke_t	t	n/a
469.805	0.075	939610	keystroke_Key.enter	Key.enter	n/a
469.885	6.342	939770	prompt	n/a	stomach held consent improve\n
470.5255	0.15	941051	keystroke_s	s	n/a
470.6755	0.0595	941351	keystroke_o	o	n/a
470.705	0.15	941410	keystroke_t	t	n/a
470.9605	0.1195	941921	keystroke_m	m	n/a
471.095	0.1205	942190	keystroke_a	a	n/a
471.3955	0.0445	942791	keystroke_Key.backspace	Key.backspace	n/a
471.5155	0.075	943031	keystroke_Key.backspace	Key.backspace	n/a
471.6805	0.0745	943361	keystroke_Key.backspace	Key.backspace	n/a
471.8455	0.104	943691	keystroke_Key.backspace	Key.backspace	n/a
471.9355	0.1345	943871	keystroke_t	t	n/a
472.0255	0.135	944051	keystroke_o	o	n/a
472.1155	0.1045	944231	keystroke_m	m	n/a
472.1755	0.09	944351	keystroke_a	a	n/a
472.3255	0.1795	944651	keystroke_c	c	n/a
472.4305	0.1045	944861	keystroke_h	h	n/a
472.52	0.06	945040	keystroke_Key.space	Key.space	n/a
472.6855	0.1195	945371	keystroke_h	h	n/a
472.7605	0.105	945521	keystroke_e	e	n/a
472.8805	0.18	945761	keystroke_l	l	n/a
473.0755	0.1045	946151	keystroke_d	d	n/a
473.5705	0.105	947141	keystroke_Key.space	Key.space	n/a
473.72	0.1355	947440	keystroke_c	c	n/a
473.7955	0.135	947591	keystroke_o	o	n/a
473.8405	0.12	947681	keystroke_n	n	n/a
473.9455	0.1345	947891	keystroke_s	s	n/a
474.035	0.135	948070	keystroke_e	e	n/a
474.1255	0.1345	948251	keystroke_n	n	n/a
474.2455	0.1045	948491	keystroke_t	t	n/a
474.3355	0.09	948671	keystroke_Key.space	Key.space	n/a
474.44	0.165	948880	keystroke_i	i	n/a
474.5455	0.135	949091	keystroke_m	m	n/a
474.62	0.1505	949240	keystroke_r	r	n/a
475.4005	0.1045	950801	keystroke_Key.backspace	Key.backspace	n/a
475.67	0.0305	951340	keystroke_p	p	n/a
475.6855	0.1345	951371	keystroke_r	r	n/a
475.7755	0.12	951551	keystroke_o	o	n/a
475.91	0.1355	951820	keystroke_v	v	n/a
475.9855	0.1195	951971	keystroke_e	e	n/a
476.1355	0.09	952271	keystroke_Key.enter	Key.enter	n/a
476.23	5.8765	952460	prompt	n/a	investigated gore during fundamental\n
476.9605	0.135	953921	keystroke_i	i	n/a
477.035	0.1055	954070	keystroke_n	n	n/a
477.0805	0.1195	954161	keystroke_v	v	n/a
477.1555	0.2095	954311	keystroke_e	e	n/a
477.2455	0.105	954491	keystroke_s	s	n/a
477.32	0.1355	954640	keystroke_t	t	n/a
477.41	0.1205	954820	keystroke_i	i	n/a
477.5455	0.15	955091	keystroke_g	g	n/a
477.65	0.1355	955300	keystroke_a	a	n/a
477.7705	0.1495	955541	keystroke_t	t	n/a
477.8455	0.09	955691	keystroke_e	e	n/a
478.04	0.0905	956080	keystroke_d	d	n/a
478.1155	0.0895	956231	keystroke_Key.space	Key.space	n/a
478.2505	0.105	956501	keystroke_g	g	n/a
478.3405	0.12	956681	keystroke_o	o	n/a
478.4305	0.15	956861	keystroke_r	r	n/a
478.5355	0.15	957071	keystroke_e	e	n/a
478.7455	0.0895	957491	keystroke_Key.space	Key.space	n/a
478.9855	0.1045	957971	keystroke_d	d	n/a
479.105	0.0755	958210	keystroke_u	u	n/a
479.795	0.1205	959590	keystroke_r	r	n/a
479.8705	0.1345	959741	keystroke_i	i	n/a
479.9305	0.105	959861	keystroke_n	n	n/a
480.02	0.0905	960040	keystroke_g	g	n/a
480.0805	0.1195	960161	keystroke_Key.space	Key.space	n/a
480.2305	0.165	960461	keystroke_f	f	n/a
480.3205	0.06	960641	keystroke_u	u	n/a
480.4705	0.1045	960941	keystroke_n	n	n/a
480.59	0.1055	961180	keystroke_d	d	n/a
480.665	0.15	961330	keystroke_a	a	n/a
480.7405	0.1045	961481	keystroke_m	m	n/a
481.4155	0.136	962831	keystroke_e	e	n/a
481.5515	0.119	963103	keystroke_n	n	n/a
481.6255	0.1345	963251	keystroke_t	t	n/a
481.7455	0.1065	963491	keystroke_a	a	n/a
481.805	0.0905	963610	keystroke_l	l	n/a
482	0.105	964000	keystroke_Key.enter	Key.enter	n/a
482.1095	4.9475	964219	prompt	n/a	no vietnamese conscious upgrading\n
482.841	0.061	965682	keystroke_n	n	n/a
482.8555	0.1645	965711	keystroke_o	o	n/a
483.005	0.0905	966010	keystroke_Key.space	Key.space	n/a
483.1705	0.195	966341	keystroke_v	v	n/a
483.3515	0.0585	966703	keystroke_i	i	n/a
483.4555	0.21	966911	keystroke_e	e	n/a
483.605	0.1505	967210	keystroke_t	t	n/a
483.7855	0.1195	967571	keystroke_n	n	n/a
483.9355	0.12	967871	keystroke_a	a	n/a
484.04	0.165	968080	keystroke_m	m	n/a
484.1305	0.121	968261	keystroke_e	e	n/a
484.3555	0.09	968711	keystroke_s	s	n/a
484.3705	0.1195	968741	keystroke_e	e	n/a
484.505	0.0605	969010	keystroke_Key.space	Key.space	n/a
484.6255	0.1795	969251	keystroke_c	c	n/a
484.7305	0.135	969461	keystroke_o	o	n/a
484.7905	0.12	969581	keystroke_n	n	n/a
485.12	0.12	970240	keystroke_s	s	n/a
485.2705	0.181	970541	keystroke_c	c	n/a
485.3755	0.1355	970751	keystroke_i	i	n/a
485.4655	0.21	970931	keystroke_o	o	n/a
485.555	0.15	971110	keystroke_u	u	n/a
485.69	0.106	971380	keystroke_s	s	n/a
485.7805	0.09	971561	keystroke_Key.space	Key.space	n/a
485.945	0.1505	971890	keystroke_u	u	n/a
486.02	0.1655	972040	keystroke_p	p	n/a
486.1405	0.1495	972281	keystroke_g	g	n/a
486.3955	0.1065	972791	keystroke_r	r	n/a
486.4555	0.1045	972911	keystroke_a	a	n/a
486.575	0.18	973150	keystroke_d	d	n/a
486.6805	0.135	973361	keystroke_i	i	n/a
486.7405	0.1055	973481	keystroke_n	n	n/a
486.8455	0.15	973691	keystroke_g	g	n/a
486.9655	0.09	973931	keystroke_Key.enter	Key.enter	n/a
487.06	6.177	974120	prompt	n/a	nickname icon compliant programs\n
487.971	0.09	975942	keystroke_n	n	n/a
488.0605	0.105	976121	keystroke_i	i	n/a
488.105	0.121	976210	keystroke_c	c	n/a
488.3305	0.105	976661	keystroke_k	k	n/a
488.7355	0.105	977471	keystroke_n	n	n/a
488.8705	0.15	977741	keystroke_a	a	n/a
488.9455	0.1195	977891	keystroke_m	m	n/a
489.0515	0.119	978103	keystroke_e	e	n/a
489.1555	0.075	978311	keystroke_Key.space	Key.space	n/a
489.3655	0.12	978731	keystroke_i	i	n/a
489.4705	0.1345	978941	keystroke_c	c	n/a
489.576	0.15	979152	keystroke_o	o	n/a
489.6515	0.1345	979303	keystroke_n	n	n/a
489.755	0.15	979510	keystroke_Key.space	Key.space	n/a
489.9355	0.15	979871	keystroke_c	c	n/a
490.0255	0.226	980051	keystroke_o	o	n/a
490.1015	0.254	980203	keystroke_m	m	n/a
490.311	0.1195	980622	keystroke_p	p	n/a
490.6255	0.2395	981251	keystroke_l	l	n/a
490.79	0.151	981580	keystroke_i	i	n/a
490.9255	0.1345	981851	keystroke_a	a	n/a
491.0305	0.135	982061	keystroke_n	n	n/a
491.1515	0.119	982303	keystroke_t	t	n/a
491.241	0.0605	982482	keystroke_Key.space	Key.space	n/a
491.4515	0.119	982903	keystroke_p	p	n/a
491.5855	0.105	983171	keystroke_r	r	n/a
491.6455	0.12	983291	keystroke_o	o	n/a
491.7805	0.075	983561	keystroke_g	g	n/a
491.931	0.1345	983862	keystroke_r	r	n/a
491.9755	0.1645	983951	keystroke_a	a	n/a
492.1555	0.1055	984311	keystroke_m	m	n/a
492.3055	0.135	984611	keystroke_s	s	n/a
493.146	0.09	986292	keystroke_Key.enter	Key.enter	n/a
493.24	6.297	986480	prompt	n/a	card gotten chemicals snowboard\n
494.061	0.1195	988122	keystroke_c	c	n/a
494.1655	0.105	988331	keystroke_a	a	n/a
494.2405	0.105	988481	keystroke_r	r	n/a
494.4205	0.1505	988841	keystroke_d	d	n/a
494.5255	0.09	989051	keystroke_Key.space	Key.space	n/a
494.6305	0.1655	989261	keystroke_g	g	n/a
494.781	0.1045	989562	keystroke_o	o	n/a
494.8705	0.09	989741	keystroke_t	t	n/a
495.0515	0.119	990103	keystroke_t	t	n/a
495.096	0.1345	990192	keystroke_e	e	n/a
495.1855	0.0895	990371	keystroke_n	n	n/a
495.231	0.105	990462	keystroke_Key.space	Key.space	n/a
495.3525	0.193	990705	keystroke_c	c	n/a
495.5305	0.0305	991061	keystroke_h	h	n/a
495.6055	0.105	991211	keystroke_e	e	n/a
495.696	0.12	991392	keystroke_m	m	n/a
495.7705	0.1345	991541	keystroke_i	i	n/a
495.846	0.1495	991692	keystroke_c	c	n/a
495.9655	0.12	991931	keystroke_a	a	n/a
496.055	0.15	992110	keystroke_l	l	n/a
496.161	0.15	992322	keystroke_s	s	n/a
496.2805	0.1355	992561	keystroke_Key.space	Key.space	n/a
496.926	0.1195	993852	keystroke_s	s	n/a
497.0305	0.09	994061	keystroke_n	n	n/a
497.1055	0.12	994211	keystroke_o	o	n/a
497.226	0.1195	994452	keystroke_w	w	n/a
497.4955	0.1205	994991	keystroke_b	b	n/a
497.631	0.1045	995262	keystroke_o	o	n/a
497.796	0.1055	995592	keystroke_a	a	n/a
498.1105	0.105	996221	keystroke_Key.backspace	Key.backspace	n/a
498.2905	0.1055	996581	keystroke_r	r	n/a
498.726	0.0895	997452	keystroke_Key.backspace	Key.backspace	n/a
498.921	0.12	997842	keystroke_o	o	n/a
499.026	0.1345	998052	keystroke_a	a	n/a
499.1015	0.104	998203	keystroke_r	r	n/a
499.266	0.1495	998532	keystroke_d	d	n/a
499.431	0.1045	998862	keystroke_Key.enter	Key.enter	n/a
499.541	5.126	999082	prompt	n/a	named clothes consumer describing\n
500.2105	0.105	1000421	keystroke_n	n	n/a
500.3015	0.134	1000603	keystroke_a	a	n/a
500.4205	0.1055	1000841	keystroke_m	m	n/a
500.5105	0.0755	1001021	keystroke_e	e	n/a
500.6905	0.09	1001381	keystroke_d	d	n/a
500.766	0.0745	1001532	keystroke_Key.space	Key.space	n/a
500.886	0.15	1001772	keystroke_c	c	n/a
500.9605	0.06	1001921	keystroke_l	l	n/a
501.141	0.0745	1002282	keystroke_o	o	n/a
501.231	0.105	1002462	keystroke_t	t	n/a
501.321	0.089	1002642	keystroke_h	h	n/a
501.3955	0.1505	1002791	keystroke_e	e	n/a
501.5755	0.1355	1003151	keystroke_s	s	n/a
501.696	0.105	1003392	keystroke_Key.space	Key.space	n/a
501.816	0.164	1003632	keystroke_c	c	n/a
501.9055	0.12	1003811	keystroke_o	o	n/a
501.9955	0.15	1003991	keystroke_n	n	n/a
502.206	0.18	1004412	keystroke_s	s	n/a
502.341	0.06	1004682	keystroke_u	u	n/a
502.5055	0.1205	1005011	keystroke_m	m	n/a
502.5805	0.18	1005161	keystroke_e	e	n/a
502.671	0.1045	1005342	keystroke_r	r	n/a
502.746	0.105	1005492	keystroke_Key.space	Key.space	n/a
502.896	0.105	1005792	keystroke_d	d	n/a
503.0905	0.12	1006181	keystroke_e	e	n/a
503.2855	0.075	1006571	keystroke_s	s	n/a
503.3755	0.15	1006751	keystroke_c	c	n/a
503.5855	0.12	1007171	keystroke_r	r	n/a
503.6905	0.061	1007381	keystroke_i	i	n/a
503.7955	0.1505	1007591	keystroke_b	b	n/a
503.9015	0.059	1007803	keystroke_i	i	n/a
504.2905	0.1355	1008581	keystroke_n	n	n/a
504.411	0.1345	1008822	keystroke_g	g	n/a
504.5605	0.105	1009121	keystroke_Key.enter	Key.enter	n/a
504.67	6.792	1009340	prompt	n/a	women bibliographic bedford differ\n
505.386	0.15	1010772	keystroke_w	w	n/a
505.491	0.135	1010982	keystroke_o	o	n/a
505.5805	0.121	1011161	keystroke_m	m	n/a
505.701	0.1795	1011402	keystroke_e	e	n/a
505.821	0.09	1011642	keystroke_n	n	n/a
505.8955	0.1205	1011791	keystroke_Key.space	Key.space	n/a
506.061	0.135	1012122	keystroke_b	b	n/a
506.1355	0.0905	1012271	keystroke_i	i	n/a
506.331	0.0745	1012662	keystroke_l	l	n/a
506.706	0.075	1013412	keystroke_Key.backspace	Key.backspace	n/a
506.856	0.1495	1013712	keystroke_b	b	n/a
506.9755	0.1505	1013951	keystroke_l	l	n/a
507.096	0.1345	1014192	keystroke_i	i	n/a
507.336	0.105	1014672	keystroke_o	o	n/a
507.5455	0.106	1015091	keystroke_g	g	n/a
507.726	0.1345	1015452	keystroke_r	r	n/a
507.771	0.135	1015542	keystroke_a	a	n/a
507.8755	0.1055	1015751	keystroke_p	p	n/a
507.952	0.1335	1015904	keystroke_h	h	n/a
508.041	0.165	1016082	keystroke_i	i	n/a
