onset	duration	sample	value	key	prompt_text
11.894	10.281	23788	prompt	n/a	the quick brown fox jumps over a lazy dog\n
14.2845	0.028	28569	keystroke_t	t	n/a
14.3275	0.09	28655	keystroke_h	h	n/a
14.448	0.1345	28896	keystroke_e	e	n/a
14.5375	0.105	29075	keystroke_Key.space	Key.space	n/a
14.8225	0.1345	29645	keystroke_q	q	n/a
14.957	0.09	29914	keystroke_u	u	n/a
15.197	0.091	30394	keystroke_i	i	n/a
15.4975	0.105	30995	keystroke_c	c	n/a
15.677	0.135	31354	keystroke_k	k	n/a
15.8275	0.09	31655	keystroke_Key.space	Key.space	n/a
16.4275	0.075	32855	keystroke_b	b	n/a
16.5475	0.09	33095	keystroke_r	r	n/a
16.6825	0.0905	33365	keystroke_o	o	n/a
16.848	0.1195	33696	keystroke_w	w	n/a
16.998	0.089	33996	keystroke_n	n	n/a
17.073	0.0895	34146	keystroke_Key.space	Key.space	n/a
17.238	0.105	34476	keystroke_f	f	n/a
17.3725	0.0905	34745	keystroke_o	o	n/a
17.583	0.1195	35166	keystroke_x	x	n/a
17.777	0.0755	35554	keystroke_Key.space	Key.space	n/a
17.9575	0.0755	35915	keystroke_j	j	n/a
18.168	0.075	36336	keystroke_u	u	n/a
18.707	0.105	37414	keystroke_m	m	n/a
19.053	0.0295	38106	keystroke_p	p	n/a
19.308	0.1195	38616	keystroke_s	s	n/a
19.4125	0.12	38825	keystroke_Key.space	Key.space	n/a
19.728	0.12	39456	keystroke_o	o	n/a
19.908	0.105	39816	keystroke_v	v	n/a
20.148	0.149	40296	keystroke_e	e	n/a
20.238	0.15	40476	keystroke_r	r	n/a
20.312	0.1355	40624	keystroke_Key.space	Key.space	n/a
20.463	0.105	40926	keystroke_a	a	n/a
20.523	0.105	41046	keystroke_Key.space	Key.space	n/a
20.658	0.12	41316	keystroke_l	l	n/a
20.762	0.0905	41524	keystroke_a	a	n/a
21.018	0.104	42036	keystroke_z	z	n/a
21.153	0.0895	42306	keystroke_y	y	n/a
21.2725	0.1195	42545	keystroke_Key.space	Key.space	n/a
21.453	0.12	42906	keystroke_d	d	n/a
21.633	0.105	43266	keystroke_o	o	n/a
21.782	0.09	43564	keystroke_g	g	n/a
22.0675	0.105	44135	keystroke_Key.enter	Key.enter	n/a
22.18	8.08	44360	prompt	n/a	football train urban diego\n
22.9375	0.09	45875	keystroke_f	f	n/a
23.0725	0.0905	46145	keystroke_o	o	n/a
23.208	0.1045	46416	keystroke_o	o	n/a
23.358	0.1045	46716	keystroke_t	t	n/a
23.5675	0.09	47135	keystroke_b	b	n/a
23.7925	0.0755	47585	keystroke_l	l	n/a
24.168	0.044	48336	keystroke_Key.backspace	Key.backspace	n/a
24.573	0.135	49146	keystroke_a	a	n/a
24.783	0.075	49566	keystroke_l	l	n/a
24.918	0.075	49836	keystroke_l	l	n/a
25.038	0.09	50076	keystroke_Key.space	Key.space	n/a
25.383	0.09	50766	keystroke_r	r	n/a
26.432	0.091	52864	keystroke_Key.backspace	Key.backspace	n/a
26.583	0.135	53166	keystroke_t	t	n/a
26.733	0.1045	53466	keystroke_r	r	n/a
26.8525	0.1045	53705	keystroke_a	a	n/a
27.122	0.121	54244	keystroke_i	i	n/a
27.198	0.1045	54396	keystroke_n	n	n/a
27.3475	0.12	54695	keystroke_Key.space	Key.space	n/a
27.903	0.09	55806	keystroke_u	u	n/a
28.1135	0.09	56227	keystroke_r	r	n/a
28.2775	0.0905	56555	keystroke_b	b	n/a
28.4125	0.1205	56825	keystroke_a	a	n/a
28.593	0.09	57186	keystroke_n	n	n/a
28.743	0.12	57486	keystroke_Key.space	Key.space	n/a
29.147	0.106	58294	keystroke_d	d	n/a
29.388	0.1205	58776	keystroke_i	i	n/a
29.5835	0.0895	59167	keystroke_e	e	n/a
29.838	0.0895	59676	keystroke_g	g	n/a
29.9725	0.091	59945	keystroke_o	o	n/a
30.168	0.0895	60336	keystroke_Key.enter	Key.enter	n/a
30.2675	5.632	60535	prompt	n/a	zero identical originally week\n
31.113	0.1195	62226	keystroke_z	z	n/a
31.398	0.1505	62796	keystroke_e	e	n/a
31.5325	0.1055	63065	keystroke_r	r	n/a
31.7435	0.089	63487	keystroke_o	o	n/a
31.8775	0.09	63755	keystroke_Key.space	Key.space	n/a
32.0435	0.0745	64087	keystroke_i	i	n/a
32.1475	0.09	64295	keystroke_d	d	n/a
32.328	0.0905	64656	keystroke_e	e	n/a
32.4635	0.0895	64927	keystroke_n	n	n/a
32.583	0.09	65166	keystroke_t	t	n/a
32.718	0.0895	65436	keystroke_i	i	n/a
32.9425	0.12	65885	keystroke_c	c	n/a
33.1075	0.1055	66215	keystroke_a	a	n/a
33.228	0.1045	66456	keystroke_l	l	n/a
33.348	0.0895	66696	keystroke_Key.space	Key.space	n/a
33.558	0.075	67116	keystroke_o	o	n/a
33.6925	0.0905	67385	keystroke_r	r	n/a
33.8125	0.09	67625	keystroke_i	i	n/a
33.9325	0.075	67865	keystroke_g	g	n/a
34.098	0.1195	68196	keystroke_i	i	n/a
34.188	0.105	68376	keystroke_n	n	n/a
34.3075	0.09	68615	keystroke_a	a	n/a
34.458	0.06	68916	keystroke_l	l	n/a
34.5925	0.0905	69185	keystroke_l	l	n/a
34.8325	0.106	69665	keystroke_y	y	n/a
34.908	0.1345	69816	keystroke_Key.space	Key.space	n/a
35.178	0.15	70356	keystroke_w	w	n/a
35.3425	0.0605	70685	keystroke_e	e	n/a
35.4775	0.075	70955	keystroke_e	e	n/a
35.598	0.105	71196	keystroke_k	k	n/a
35.8075	0.09	71615	keystroke_Key.enter	Key.enter	n/a
35.905	4.9895	71810	prompt	n/a	locked basic dealers lens\n
36.978	0.1045	73956	keystroke_l	l	n/a
37.173	0.09	74346	keystroke_o	o	n/a
37.323	0.105	74646	keystroke_c	c	n/a
37.429	0.0885	74858	keystroke_k	k	n/a
37.608	0.06	75216	keystroke_e	e	n/a
37.743	0.1345	75486	keystroke_d	d	n/a
37.833	0.1195	75666	keystroke_Key.space	Key.space	n/a
37.9825	0.0905	75965	keystroke_b	b	n/a
38.0885	0.0885	76177	keystroke_a	a	n/a
38.2675	0.105	76535	keystroke_s	s	n/a
38.3885	0.074	76777	keystroke_i	i	n/a
38.5075	0.12	77015	keystroke_c	c	n/a
38.6575	0.0755	77315	keystroke_Key.space	Key.space	n/a
38.823	0.09	77646	keystroke_d	d	n/a
39.0325	0.0905	78065	keystroke_e	e	n/a
39.1975	0.12	78395	keystroke_a	a	n/a
39.468	0.09	78936	keystroke_l	l	n/a
39.6785	0.1345	79357	keystroke_e	e	n/a
39.7985	0.1195	79597	keystroke_r	r	n/a
39.978	0.1345	79956	keystroke_s	s	n/a
40.083	0.09	80166	keystroke_Key.space	Key.space	n/a
40.3075	0.09	80615	keystroke_l	l	n/a
40.4125	0.09	80825	keystroke_e	e	n/a
40.5475	0.09	81095	keystroke_n	n	n/a
40.6675	0.12	81335	keystroke_s	s	n/a
40.803	0.09	81606	keystroke_Key.enter	Key.enter	n/a
40.8995	5.7105	81799	prompt	n/a	bear calculate greek services\n
41.538	0.09	83076	keystroke_b	b	n/a
41.5975	0.12	83195	keystroke_e	e	n/a
41.7635	0.1045	83527	keystroke_a	a	n/a
41.943	0.105	83886	keystroke_r	r	n/a
42.018	0.105	84036	keystroke_Key.space	Key.space	n/a
42.258	0.105	84516	keystroke_c	c	n/a
42.348	0.1195	84696	keystroke_a	a	n/a
42.438	0.105	84876	keystroke_l	l	n/a
42.603	0.0905	85206	keystroke_c	c	n/a
42.7225	0.09	85445	keystroke_u	u	n/a
42.948	0.0905	85896	keystroke_l	l	n/a
43.0385	0.104	86077	keystroke_a	a	n/a
43.3385	0.1195	86677	keystroke_t	t	n/a
43.473	0.12	86946	keystroke_e	e	n/a
43.578	0.105	87156	keystroke_Key.space	Key.space	n/a
44.043	0.0455	88086	keystroke_g	g	n/a
44.2675	0.135	88535	keystroke_r	r	n/a
44.523	0.06	89046	keystroke_e	e	n/a
44.643	0.075	89286	keystroke_e	e	n/a
44.8085	0.089	89617	keystroke_k	k	n/a
44.9125	0.0905	89825	keystroke_Key.space	Key.space	n/a
45.078	0.105	90156	keystroke_s	s	n/a
45.228	0.135	90456	keystroke_e	e	n/a
45.333	0.1045	90666	keystroke_r	r	n/a
45.6175	0.0905	91235	keystroke_v	v	n/a
45.8275	0.09	91655	keystroke_i	i	n/a
45.9485	0.1045	91897	keystroke_c	c	n/a
46.203	0.1355	92406	keystroke_e	e	n/a
46.323	0.1495	92646	keystroke_s	s	n/a
46.5025	0.105	93005	keystroke_Key.enter	Key.enter	n/a
46.616	10.271	93232	prompt	n/a	macintosh slideshow hayes tragedy\n
47.388	0.0905	94776	keystroke_m	m	n/a
48.0625	0.105	96125	keystroke_a	a	n/a
48.258	0.09	96516	keystroke_c	c	n/a
48.423	0.1495	96846	keystroke_i	i	n/a
48.543	0.0745	97086	keystroke_n	n	n/a
48.7075	0.075	97415	keystroke_t	t	n/a
48.8575	0.09	97715	keystroke_o	o	n/a
49.263	0.12	98526	keystroke_s	s	n/a
49.428	0.0905	98856	keystroke_h	h	n/a
49.578	0.075	99156	keystroke_Key.space	Key.space	n/a
49.968	0.105	99936	keystroke_s	s	n/a
50.418	0.0455	100836	keystroke_l	l	n/a
51.1375	0.076	102275	keystroke_i	i	n/a
51.4675	0.121	102935	keystroke_d	d	n/a
51.7385	0.09	103477	keystroke_e	e	n/a
51.963	0.1045	103926	keystroke_s	s	n/a
52.1275	0.1055	104255	keystroke_h	h	n/a
52.3525	0.105	104705	keystroke_o	o	n/a
52.4725	0.0905	104945	keystroke_w	w	n/a
52.5475	0.1355	105095	keystroke_Key.space	Key.space	n/a
52.8625	0.0755	105725	keystroke_h	h	n/a
52.953	0.1055	105906	keystroke_a	a	n/a
53.178	0.105	106356	keystroke_y	y	n/a
53.328	0.1645	106656	keystroke_e	e	n/a
53.4775	0.15	106955	keystroke_s	s	n/a
53.598	0.1195	107196	keystroke_Key.space	Key.space	n/a
54.213	0.09	108426	keystroke_t	t	n/a
54.2885	0.119	108577	keystroke_r	r	n/a
54.678	0.12	109356	keystroke_a	a	n/a
55.713	0.105	111426	keystroke_g	g	n/a
55.9685	0.1045	111937	keystroke_e	e	n/a
56.328	0.105	112656	keystroke_d	d	n/a
56.523	0.075	113046	keystroke_y	y	n/a
56.793	0.0895	113586	keystroke_Key.enter	Key.enter	n/a
56.893	6.967	113786	prompt	n/a	hudson kelly throws wendy\n
57.738	0.12	115476	keystroke_d	d	n/a
58.2625	0.075	116525	keystroke_Key.backspace	Key.backspace	n/a
58.5925	0.09	117185	keystroke_h	h	n/a
58.7585	0.09	117517	keystroke_u	u	n/a
58.923	0.1055	117846	keystroke_d	d	n/a
59.208	0.09	118416	keystroke_s	s	n/a
59.748	0.1345	119496	keystroke_o	o	n/a
59.8525	0.121	119705	keystroke_n	n	n/a
60.003	0.105	120006	keystroke_Key.space	Key.space	n/a
60.4535	0.105	120907	keystroke_k	k	n/a
60.573	0.09	121146	keystroke_e	e	n/a
60.708	0.075	121416	keystroke_l	l	n/a
60.8575	0.0905	121715	keystroke_l	l	n/a
60.9925	0.12	121985	keystroke_y	y	n/a
61.0975	0.12	122195	keystroke_Key.space	Key.space	n/a
61.353	0.105	122706	keystroke_t	t	n/a
61.503	0.089	123006	keystroke_h	h	n/a
61.638	0.09	123276	keystroke_r	r	n/a
61.8335	0.0895	123667	keystroke_o	o	n/a
62.178	0.089	124356	keystroke_w	w	n/a
62.433	0.1355	124866	keystroke_s	s	n/a
62.5975	0.0905	125195	keystroke_Key.space	Key.space	n/a
63.0325	0.1645	126065	keystroke_w	w	n/a
63.1675	0.09	126335	keystroke_e	e	n/a
63.288	0.0905	126576	keystroke_n	n	n/a
63.423	0.105	126846	keystroke_d	d	n/a
63.5585	0.0895	127117	keystroke_y	y	n/a
63.783	0.074	127566	keystroke_Key.enter	Key.enter	n/a
63.8685	8.451	127737	prompt	n/a	bridges soundtrack yorkshire utils\n
64.503	0.1045	129006	keystroke_b	b	n/a
64.638	0.09	129276	keystroke_r	r	n/a
64.7585	0.104	129517	keystroke_i	i	n/a
64.8775	0.09	129755	keystroke_d	d	n/a
65.088	0.0895	130176	keystroke_g	g	n/a
65.223	0.15	130446	keystroke_e	e	n/a
65.358	0.165	130716	keystroke_s	s	n/a
65.508	0.09	131016	keystroke_Key.space	Key.space	n/a
65.808	0.09	131616	keystroke_d	d	n/a
66.0925	0.0755	132185	keystroke_o	o	n/a
66.5125	0.06	133025	keystroke_Key.backspace	Key.backspace	n/a
66.6325	0.0755	133265	keystroke_Key.backspace	Key.backspace	n/a
66.7385	0.119	133477	keystroke_s	s	n/a
66.8875	0.106	133775	keystroke_o	o	n/a
67.188	0.105	134376	keystroke_u	u	n/a
67.232	0.121	134464	keystroke_n	n	n/a
67.383	0.09	134766	keystroke_d	d	n/a
67.6685	0.1045	135337	keystroke_t	t	n/a
67.803	0.0895	135606	keystroke_r	r	n/a
67.9225	0.121	135845	keystroke_a	a	n/a
68.193	0.09	136386	keystroke_c	c	n/a
68.328	0.105	136656	keystroke_k	k	n/a
68.493	0.09	136986	keystroke_Key.space	Key.space	n/a
68.9725	0.0755	137945	keystroke_y	y	n/a
69.198	0.1045	138396	keystroke_o	o	n/a
69.378	0.12	138756	keystroke_r	r	n/a
69.513	0.09	139026	keystroke_k	k	n/a
69.768	0.105	139536	keystroke_s	s	n/a
69.9035	0.074	139807	keystroke_h	h	n/a
70.1125	0.09	140225	keystroke_i	i	n/a
70.1885	0.1045	140377	keystroke_r	r	n/a
70.308	0.105	140616	keystroke_e	e	n/a
70.3975	0.105	140795	keystroke_Key.space	Key.space	n/a
70.833	0.105	141666	keystroke_u	u	n/a
71.2985	0.0745	142597	keystroke_t	t	n/a
71.463	0.12	142926	keystroke_i	i	n/a
71.688	0.105	143376	keystroke_l	l	n/a
71.8225	0.1205	143645	keystroke_s	s	n/a
72.198	0.1195	144396	keystroke_Key.enter	Key.enter	n/a
72.324	9.6105	144648	prompt	n/a	essex rides jurisdiction external\n
73.2925	0.0905	146585	keystroke_e	e	n/a
73.6385	0.074	147277	keystroke_s	s	n/a
73.788	0.1045	147576	keystroke_s	s	n/a
73.998	0.105	147996	keystroke_e	e	n/a
74.328	0.12	148656	keystroke_x	x	n/a
74.598	0.09	149196	keystroke_Key.space	Key.space	n/a
74.823	0.0895	149646	keystroke_r	r	n/a
74.958	0.0895	149916	keystroke_i	i	n/a
75.393	0.075	150786	keystroke_d	d	n/a
75.6325	0.1055	151265	keystroke_e	e	n/a
75.7225	0.1205	151445	keystroke_s	s	n/a
75.8125	0.12	151625	keystroke_Key.space	Key.space	n/a
76.263	0.105	152526	keystroke_j	j	n/a
76.473	0.09	152946	keystroke_u	u	n/a
76.623	0.09	153246	keystroke_r	r	n/a
76.758	0.1045	153516	keystroke_i	i	n/a
76.938	0.09	153876	keystroke_s	s	n/a
77.7025	0.1205	155405	keystroke_d	d	n/a
77.838	0.09	155676	keystroke_i	i	n/a
78.0175	0.09	156035	keystroke_c	c	n/a
78.3175	0.0605	156635	keystroke_t	t	n/a
78.4235	0.0595	156847	keystroke_i	i	n/a
78.6035	0.119	157207	keystroke_o	o	n/a
78.7525	0.1055	157505	keystroke_Key.space	Key.space	n/a
79.1725	0.06	158345	keystroke_Key.backspace	Key.backspace	n/a
79.413	0.09	158826	keystroke_n	n	n/a
79.4875	0.1055	158975	keystroke_Key.space	Key.space	n/a
79.6525	0.076	159305	keystroke_e	e	n/a
79.878	0.1045	159756	keystroke_x	x	n/a
80.193	0.0895	160386	keystroke_t	t	n/a
80.433	0.12	160866	keystroke_r	r	n/a
80.852	0.09	161704	keystroke_Key.backspace	Key.backspace	n/a
80.928	0.165	161856	keystroke_e	e	n/a
81.018	0.135	162036	keystroke_r	r	n/a
81.1975	0.0905	162395	keystroke_n	n	n/a
81.302	0.106	162604	keystroke_a	a	n/a
81.468	0.105	162936	keystroke_l	l	n/a
81.843	0.0895	163686	keystroke_Key.enter	Key.enter	n/a
81.9395	8.11	163879	prompt	n/a	effect attendance resource zones\n
82.6075	0.09	165215	keystroke_e	e	n/a
82.8185	0.06	165637	keystroke_f	f	n/a
82.9375	0.105	165875	keystroke_f	f	n/a
83.1325	0.075	166265	keystroke_e	e	n/a
83.3575	0.0905	166715	keystroke_c	c	n/a
83.6425	0.1055	167285	keystroke_t	t	n/a
83.7175	0.1505	167435	keystroke_Key.space	Key.space	n/a
83.9135	0.089	167827	keystroke_e	e	n/a
84.318	0.09	168636	keystroke_Key.backspace	Key.backspace	n/a
84.423	0.105	168846	keystroke_a	a	n/a
84.678	0.0445	169356	keystroke_t	t	n/a
84.768	0.09	169536	keystroke_t	t	n/a
84.9475	0.09	169895	keystroke_e	e	n/a
85.158	0.0905	170316	keystroke_n	n	n/a
85.2625	0.105	170525	keystroke_d	d	n/a
85.4575	0.106	170915	keystroke_a	a	n/a
85.5635	0.0895	171127	keystroke_n	n	n/a
85.713	0.075	171426	keystroke_c	c	n/a
85.9225	0.0905	171845	keystroke_e	e	n/a
85.983	0.135	171966	keystroke_Key.space	Key.space	n/a
86.283	0.12	172566	keystroke_r	r	n/a
86.3875	0.1055	172775	keystroke_e	e	n/a
86.7925	0.1205	173585	keystroke_s	s	n/a
86.943	0.075	173886	keystroke_o	o	n/a
87.183	0.075	174366	keystroke_u	u	n/a
87.318	0.104	174636	keystroke_r	r	n/a
87.8875	0.09	175775	keystroke_c	c	n/a
88.578	0.1055	177156	keystroke_e	e	n/a
88.6675	0.03	177335	keystroke_Key.space	Key.space	n/a
89.268	0.1195	178536	keystroke_z	z	n/a
89.5075	0.1205	179015	keystroke_o	o	n/a
89.598	0.0895	179196	keystroke_n	n	n/a
89.703	0.15	179406	keystroke_e	e	n/a
89.823	0.135	179646	keystroke_s	s	n/a
89.943	0.1045	179886	keystroke_Key.enter	Key.enter	n/a
90.053	6.8365	180106	prompt	n/a	piano weird armor ordinance\n
90.768	0.075	181536	keystroke_p	p	n/a
90.9625	0.0905	181925	keystroke_i	i	n/a
91.083	0.104	182166	keystroke_a	a	n/a
91.278	0.0745	182556	keystroke_n	n	n/a
91.488	0.0745	182976	keystroke_o	o	n/a
91.578	0.1045	183156	keystroke_Key.space	Key.space	n/a
91.8775	0.091	183755	keystroke_w	w	n/a
92.028	0.105	184056	keystroke_e	e	n/a
92.1775	0.1055	184355	keystroke_i	i	n/a
92.298	0.0745	184596	keystroke_r	r	n/a
92.523	0.1045	185046	keystroke_d	d	n/a
92.6125	0.0905	185225	keystroke_Key.space	Key.space	n/a
92.8075	0.1055	185615	keystroke_a	a	n/a
93.0175	0.0905	186035	keystroke_r	r	n/a
93.138	0.0905	186276	keystroke_m	m	n/a
93.333	0.1055	186666	keystroke_o	o	n/a
93.483	0.12	186966	keystroke_r	r	n/a
93.618	0.104	187236	keystroke_Key.space	Key.space	n/a
94.0975	0.03	188195	keystroke_a	a	n/a
94.788	0.09	189576	keystroke_Key.backspace	Key.backspace	n/a
95.1325	0.09	190265	keystroke_o	o	n/a
95.298	0.0895	190596	keystroke_r	r	n/a
95.538	0.09	191076	keystroke_d	d	n/a
95.703	0.105	191406	keystroke_i	i	n/a
95.853	0.105	191706	keystroke_n	n	n/a
96.032	0.12	192064	keystroke_a	a	n/a
96.2585	0.0895	192517	keystroke_n	n	n/a
96.378	0.075	192756	keystroke_c	c	n/a
96.618	0.09	193236	keystroke_e	e	n/a
96.7675	0.1205	193535	keystroke_Key.enter	Key.enter	n/a
96.8945	7.285	193789	prompt	n/a	retro listings alan opposite\n
97.6825	0.12	195365	keystroke_r	r	n/a
97.818	0.09	195636	keystroke_e	e	n/a
98.028	0.06	196056	keystroke_t	t	n/a
98.343	0.0895	196686	keystroke_r	r	n/a
98.5375	0.105	197075	keystroke_o	o	n/a
98.688	0.1045	197376	keystroke_Key.space	Key.space	n/a
99.287	0.091	198574	keystroke_l	l	n/a
99.528	0.1055	199056	keystroke_i	i	n/a
99.618	0.0905	199236	keystroke_s	s	n/a
99.8575	0.0755	199715	keystroke_t	t	n/a
99.993	0.1345	199986	keystroke_i	i	n/a
100.0975	0.1055	200195	keystroke_n	n	n/a
100.203	0.165	200406	keystroke_g	g	n/a
100.338	0.135	200676	keystroke_s	s	n/a
100.4275	0.135	200855	keystroke_Key.space	Key.space	n/a
100.668	0.075	201336	keystroke_a	a	n/a
100.773	0.09	201546	keystroke_l	l	n/a
100.923	0.12	201846	keystroke_a	a	n/a
101.267	0.1215	202534	keystroke_n	n	n/a
101.478	0.134	202956	keystroke_Key.space	Key.space	n/a
102.4525	0.09	204905	keystroke_o	o	n/a
102.768	0.045	205536	keystroke_p	p	n/a
102.9175	0.1055	205835	keystroke_p	p	n/a
103.173	0.0905	206346	keystroke_o	o	n/a
103.338	0.105	206676	keystroke_s	s	n/a
103.518	0.105	207036	keystroke_i	i	n/a
103.773	0.105	207546	keystroke_t	t	n/a
103.953	0.09	207906	keystroke_e	e	n/a
104.073	0.105	208146	keystroke_Key.enter	Key.enter	n/a
104.185	7.3295	208370	prompt	n/a	bingo farming shopzilla wishes\n
104.958	0.09	209916	keystroke_b	b	n/a
105.1825	0.15	210365	keystroke_i	i	n/a
105.3175	0.1205	210635	keystroke_n	n	n/a
105.453	0.104	210906	keystroke_g	g	n/a
105.663	0.089	211326	keystroke_o	o	n/a
105.768	0.1045	211536	keystroke_Key.space	Key.space	n/a
106.4125	0.1055	212825	keystroke_f	f	n/a
106.8325	0.106	213665	keystroke_a	a	n/a
107.043	0.09	214086	keystroke_r	r	n/a
107.163	0.0895	214326	keystroke_m	m	n/a
107.4025	0.1205	214805	keystroke_i	i	n/a
107.478	0.12	214956	keystroke_n	n	n/a
107.598	0.12	215196	keystroke_g	g	n/a
107.688	0.1045	215376	keystroke_Key.space	Key.space	n/a
108.033	0.105	216066	keystroke_s	s	n/a
108.183	0.09	216366	keystroke_h	h	n/a
108.3925	0.091	216785	keystroke_o	o	n/a
108.6185	0.09	217237	keystroke_p	p	n/a
108.963	0.1495	217926	keystroke_z	z	n/a
109.0975	0.0905	218195	keystroke_i	i	n/a
109.3075	0.075	218615	keystroke_l	l	n/a
109.443	0.1055	218886	keystroke_l	l	n/a
109.563	0.1045	219126	keystroke_a	a	n/a
109.6385	0.134	219277	keystroke_Key.space	Key.space	n/a
110.147	0.091	220294	keystroke_w	w	n/a
110.268	0.074	220536	keystroke_i	i	n/a
110.403	0.105	220806	keystroke_s	s	n/a
110.553	0.09	221106	keystroke_h	h	n/a
111.0625	0.1805	222125	keystroke_e	e	n/a
111.2575	0.135	222515	keystroke_s	s	n/a
111.408	0.1045	222816	keystroke_Key.enter	Key.enter	n/a
111.52	12.879	223040	prompt	n/a	thanksgiving restoration amenities millennium\n
112.3385	0.074	224677	keystroke_t	t	n/a
112.4275	0.09	224855	keystroke_h	h	n/a
112.5025	0.12	225005	keystroke_a	a	n/a
112.6375	0.0755	225275	keystroke_n	n	n/a
112.743	0.12	225486	keystroke_k	k	n/a
112.848	0.09	225696	keystroke_s	s	n/a
113.298	0.075	226596	keystroke_g	g	n/a
113.897	0.121	227794	keystroke_i	i	n/a
114.8425	0.105	229685	keystroke_v	v	n/a
115.2175	0.15	230435	keystroke_i	i	n/a
115.323	0.1195	230646	keystroke_n	n	n/a
115.458	0.105	230916	keystroke_g	g	n/a
115.593	0.1045	231186	keystroke_Key.space	Key.space	n/a
116.1035	0.119	232207	keystroke_r	r	n/a
116.2075	0.1655	232415	keystroke_e	e	n/a
116.358	0.12	232716	keystroke_s	s	n/a
116.598	0.075	233196	keystroke_t	t	n/a
116.898	0.105	233796	keystroke_o	o	n/a
117.138	0.09	234276	keystroke_r	r	n/a
117.3475	0.106	234695	keystroke_a	a	n/a
117.6325	0.0895	235265	keystroke_t	t	n/a
117.7825	0.105	235565	keystroke_i	i	n/a
118.023	0.12	236046	keystroke_o	o	n/a
118.113	0.134	236226	keystroke_n	n	n/a
118.2625	0.12	236525	keystroke_Key.space	Key.space	n/a
118.638	0.105	237276	keystroke_a	a	n/a
118.833	0.06	237666	keystroke_n	n	n/a
119.5525	0.075	239105	keystroke_Key.backspace	Key.backspace	n/a
119.868	0.105	239736	keystroke_m	m	n/a
120.018	0.105	240036	keystroke_e	e	n/a
120.1375	0.1045	240275	keystroke_n	n	n/a
120.4825	0.1055	240965	keystroke_i	i	n/a
120.7975	0.0905	241595	keystroke_t	t	n/a
120.918	0.09	241836	keystroke_i	i	n/a
121.113	0.165	242226	keystroke_e	e	n/a
121.262	0.18	242524	keystroke_s	s	n/a
121.427	0.1205	242854	keystroke_Key.space	Key.space	n/a
121.938	0.09	243876	keystroke_m	m	n/a
122.103	0.12	244206	keystroke_i	i	n/a
122.3275	0.0905	244655	keystroke_l	l	n/a
122.463	0.104	244926	keystroke_l	l	n/a
122.673	0.105	245346	keystroke_e	e	n/a
122.793	0.0895	245586	keystroke_n	n	n/a
123.513	0.045	247026	keystroke_n	n	n/a
123.663	0.09	247326	keystroke_i	i	n/a
123.9025	0.075	247805	keystroke_u	u	n/a
124.143	0.089	248286	keystroke_m	m	n/a
124.353	0.045	248706	keystroke_Key.enter	Key.enter	n/a
124.405	6.969	248810	prompt	n/a	fuel positive evaluation induction\n
125.117	0.075	250234	keystroke_f	f	n/a
125.282	0.1055	250564	keystroke_u	u	n/a
125.5075	0.0905	251015	keystroke_e	e	n/a
125.613	0.09	251226	keystroke_l	l	n/a
125.748	0.104	251496	keystroke_Key.space	Key.space	n/a
126.062	0.076	252124	keystroke_p	p	n/a
126.2725	0.09	252545	keystroke_o	o	n/a
126.4375	0.1205	252875	keystroke_s	s	n/a
126.648	0.075	253296	keystroke_i	i	n/a
126.918	0.09	253836	keystroke_t	t	n/a
127.0525	0.105	254105	keystroke_i	i	n/a
127.1725	0.09	254345	keystroke_v	v	n/a
127.383	0.105	254766	keystroke_e	e	n/a
127.457	0.106	254914	keystroke_Key.space	Key.space	n/a
127.743	0.105	255486	keystroke_e	e	n/a
127.983	0.105	255966	keystroke_v	v	n/a
128.148	0.1195	256296	keystroke_a	a	n/a
128.2825	0.1205	256565	keystroke_l	l	n/a
128.583	0.105	257166	keystroke_u	u	n/a
128.7325	0.105	257465	keystroke_a	a	n/a
128.9725	0.105	257945	keystroke_t	t	n/a
129.0925	0.105	258185	keystroke_i	i	n/a
129.317	0.0905	258634	keystroke_o	o	n/a
129.392	0.1055	258784	keystroke_n	n	n/a
129.513	0.1045	259026	keystroke_Key.space	Key.space	n/a
129.813	0.12	259626	keystroke_i	i	n/a
129.8725	0.1055	259745	keystroke_n	n	n/a
130.083	0.03	260166	keystroke_e	e	n/a
130.098	0.075	260196	keystroke_d	d	n/a
130.233	0.09	260466	keystroke_u	u	n/a
130.368	0.09	260736	keystroke_c	c	n/a
130.623	0.0745	261246	keystroke_t	t	n/a
130.727	0.091	261454	keystroke_i	i	n/a
130.922	0.136	261844	keystroke_o	o	n/a
131.0725	0.0755	262145	keystroke_n	n	n/a
131.282	0.0905	262564	keystroke_Key.enter	Key.enter	n/a
131.3815	7.418	262763	prompt	n/a	flower mobile fundamental showed\n
132.543	0.09	265086	keystroke_f	f	n/a
132.903	0.09	265806	keystroke_l	l	n/a
133.113	0.0895	266226	keystroke_o	o	n/a
133.247	0.121	266494	keystroke_w	w	n/a
133.427	0.075	266854	keystroke_e	e	n/a
133.607	0.1055	267214	keystroke_r	r	n/a
133.7425	0.1045	267485	keystroke_Key.space	Key.space	n/a
134.043	0.06	268086	keystroke_m	m	n/a
134.267	0.1055	268534	keystroke_o	o	n/a
134.568	0.0745	269136	keystroke_b	b	n/a
134.838	0.12	269676	keystroke_i	i	n/a
135.0775	0.1055	270155	keystroke_l	l	n/a
135.288	0.105	270576	keystroke_e	e	n/a
135.377	0.105	270754	keystroke_Key.space	Key.space	n/a
135.558	0.104	271116	keystroke_f	f	n/a
135.767	0.121	271534	keystroke_u	u	n/a
135.857	0.1055	271714	keystroke_n	n	n/a
136.022	0.136	272044	keystroke_d	d	n/a
136.188	0.1195	272376	keystroke_a	a	n/a
136.6685	0.089	273337	keystroke_m	m	n/a
136.833	0.0895	273666	keystroke_e	e	n/a
136.9525	0.076	273905	keystroke_n	n	n/a
137.118	0.09	274236	keystroke_t	t	n/a
137.253	0.135	274506	keystroke_a	a	n/a
137.373	0.105	274746	keystroke_l	l	n/a
137.463	0.105	274926	keystroke_Key.space	Key.space	n/a
137.748	0.12	275496	keystroke_s	s	n/a
137.883	0.075	275766	keystroke_h	h	n/a
138.063	0.105	276126	keystroke_o	o	n/a
138.183	0.089	276366	keystroke_w	w	n/a
138.4375	0.015	276875	keystroke_e	e	n/a
138.5425	0.09	277085	keystroke_d	d	n/a
138.6925	0.105	277385	keystroke_Key.enter	Key.enter	n/a
138.8035	9.416	277607	prompt	n/a	exhibitions bacterial concluded attendance\n
139.4575	0.0905	278915	keystroke_e	e	n/a
139.728	0.105	279456	keystroke_x	x	n/a
139.953	0.074	279906	keystroke_h	h	n/a
140.373	0.09	280746	keystroke_i	i	n/a
141.393	0.075	282786	keystroke_b	b	n/a
141.543	0.105	283086	keystroke_i	i	n/a
141.663	0.09	283326	keystroke_t	t	n/a
141.768	0.0895	283536	keystroke_i	i	n/a
141.9775	0.1055	283955	keystroke_o	o	n/a
142.0975	0.105	284195	keystroke_n	n	n/a
142.2175	0.1205	284435	keystroke_s	s	n/a
142.2925	0.1345	284585	keystroke_Key.space	Key.space	n/a
142.5025	0.1055	285005	keystroke_b	b	n/a
142.5925	0.09	285185	keystroke_a	a	n/a
142.7575	0.105	285515	keystroke_c	c	n/a
143.178	0.0895	286356	keystroke_t	t	n/a
143.388	0.135	286776	keystroke_e	e	n/a
143.478	0.105	286956	keystroke_r	r	n/a
143.6575	0.0905	287315	keystroke_i	i	n/a
143.8375	0.1195	287675	keystroke_a	a	n/a
143.973	0.09	287946	keystroke_l	l	n/a
144.078	0.089	288156	keystroke_Key.space	Key.space	n/a
144.3185	0.0895	288637	keystroke_c	c	n/a
144.5125	0.075	289025	keystroke_o	o	n/a
144.5725	0.1055	289145	keystroke_n	n	n/a
144.708	0.1045	289416	keystroke_c	c	n/a
144.8425	0.0905	289685	keystroke_l	l	n/a
145.0975	0.0745	290195	keystroke_u	u	n/a
145.188	0.0895	290376	keystroke_d	d	n/a
145.398	0.075	290796	keystroke_e	e	n/a
145.593	0.105	291186	keystroke_d	d	n/a
145.682	0.0905	291364	keystroke_Key.space	Key.space	n/a
145.9375	0.105	291875	keystroke_a	a	n/a
146.1625	0.075	292325	keystroke_t	t	n/a
146.298	0.0595	292596	keystroke_t	t	n/a
146.493	0.09	292986	keystroke_e	e	n/a
147.063	0.105	294126	keystroke_n	n	n/a
147.2425	0.105	294485	keystroke_d	d	n/a
147.4835	0.134	294967	keystroke_a	a	n/a
147.678	0.104	295356	keystroke_n	n	n/a
147.798	0.089	295596	keystroke_c	c	n/a
148.008	0.075	296016	keystroke_e	e	n/a
148.1275	0.0905	296255	keystroke_Key.enter	Key.enter	n/a
148.2295	14	296459	prompt	n/a	beauty accident venezuela autos\n
156.83	0.043	313660	keystroke_b	b	n/a
156.873	0.12	313746	keystroke_e	e	n/a
156.978	0.135	313956	keystroke_a	a	n/a
157.128	0.1055	314256	keystroke_u	u	n/a
157.293	0.075	314586	keystroke_t	t	n/a
157.443	0.0445	314886	keystroke_y	y	n/a
157.5175	0.0905	315035	keystroke_Key.space	Key.space	n/a
157.7275	0.0905	315455	keystroke_a	a	n/a
157.9385	0.075	315877	keystroke_c	c	n/a
158.0585	0.09	316117	keystroke_c	c	n/a
158.2235	0.015	316447	keystroke_i	i	n/a
158.3435	0.09	316687	keystroke_d	d	n/a
158.538	0.0755	317076	keystroke_e	e	n/a
158.673	0.09	317346	keystroke_n	n	n/a
158.838	0.12	317676	keystroke_t	t	n/a
158.928	0.105	317856	keystroke_Key.space	Key.space	n/a
159.183	0.09	318366	keystroke_v	v	n/a
159.393	0.09	318786	keystroke_e	e	n/a
159.513	0.09	319026	keystroke_n	n	n/a
159.6625	0.0755	319325	keystroke_e	e	n/a
160.098	0.1645	320196	keystroke_z	z	n/a
160.533	0.12	321066	keystroke_u	u	n/a
160.743	0.0905	321486	keystroke_e	e	n/a
160.8935	0.09	321787	keystroke_l	l	n/a
161.0275	0.121	322055	keystroke_a	a	n/a
161.1625	0.105	322325	keystroke_Key.space	Key.space	n/a
161.4185	0.09	322837	keystroke_a	a	n/a
161.5985	0.09	323197	keystroke_u	u	n/a
161.733	0.09	323466	keystroke_t	t	n/a
161.8685	0.09	323737	keystroke_o	o	n/a
161.9885	0.105	323977	keystroke_s	s	n/a
162.1225	0.105	324245	keystroke_Key.enter	Key.enter	n/a
162.2355	9.4135	324471	prompt	n/a	generic proved cornell pilot\n
163.038	0.0755	326076	keystroke_g	g	n/a
163.158	0.1045	326316	keystroke_e	e	n/a
163.2925	0.0755	326585	keystroke_n	n	n/a
163.3525	0.1795	326705	keystroke_e	e	n/a
163.518	0.105	327036	keystroke_r	r	n/a
163.758	0.0755	327516	keystroke_i	i	n/a
163.8635	0.105	327727	keystroke_c	c	n/a
163.998	0.0745	327996	keystroke_Key.space	Key.space	n/a
164.613	0.1055	329226	keystroke_p	p	n/a
164.733	0.06	329466	keystroke_r	r	n/a
164.838	0.105	329676	keystroke_o	o	n/a
165.048	0.0605	330096	keystroke_v	v	n/a
165.603	0.09	331206	keystroke_e	e	n/a
165.7985	0.1495	331597	keystroke_d	d	n/a
165.918	0.105	331836	keystroke_Key.space	Key.space	n/a
166.158	0.105	332316	keystroke_c	c	n/a
166.353	0.09	332706	keystroke_o	o	n/a
166.4875	0.105	332975	keystroke_r	r	n/a
166.653	0.09	333306	keystroke_n	n	n/a
166.833	0.09	333666	keystroke_e	e	n/a
166.998	0.075	333996	keystroke_l	l	n/a
167.163	0.1045	334326	keystroke_l	l	n/a
167.3575	0.09	334715	keystroke_Key.space	Key.space	n/a
168.9625	0.09	337925	keystroke_p	p	n/a
169.2785	0.074	338557	keystroke_u	u	n/a
169.593	0.075	339186	keystroke_l	l	n/a
169.908	0.045	339816	keystroke_Key.backspace	Key.backspace	n/a
170.043	0.075	340086	keystroke_Key.backspace	Key.backspace	n/a
170.9585	0.0595	341917	keystroke_i	i	n/a
171.138	0.075	342276	keystroke_l	l	n/a
171.3035	0.0745	342607	keystroke_o	o	n/a
171.423	0.12	342846	keystroke_t	t	n/a
171.558	0.0895	343116	keystroke_Key.enter	Key.enter	n/a
171.6515	6.838	343303	prompt	n/a	then caroline live olympus\n
172.3385	0.075	344677	keystroke_t	t	n/a
172.4435	0.0745	344887	keystroke_h	h	n/a
172.563	0.075	345126	keystroke_e	e	n/a
172.653	0.12	345306	keystroke_Key.space	Key.space	n/a
172.698	0.09	345396	keystroke_n	n	n/a
173.223	0.06	346446	keystroke_Key.backspace	Key.backspace	n/a
173.358	0.06	346716	keystroke_Key.backspace	Key.backspace	n/a
173.5825	0.076	347165	keystroke_n	n	n/a
173.6275	0.105	347255	keystroke_Key.space	Key.space	n/a
173.928	0.0905	347856	keystroke_c	c	n/a
174.033	0.1205	348066	keystroke_a	a	n/a
174.2285	0.0895	348457	keystroke_r	r	n/a
174.363	0.09	348726	keystroke_o	o	n/a
174.573	0.09	349146	keystroke_l	l	n/a
174.828	0.09	349656	keystroke_i	i	n/a
174.903	0.105	349806	keystroke_n	n	n/a
174.978	0.105	349956	keystroke_e	e	n/a
175.053	0.135	350106	keystroke_Key.space	Key.space	n/a
175.203	0.0895	350406	keystroke_l	l	n/a
175.3975	0.1055	350795	keystroke_i	i	n/a
175.488	0.0905	350976	keystroke_v	v	n/a
175.683	0.105	351366	keystroke_e	e	n/a
175.758	0.12	351516	keystroke_Key.space	Key.space	n/a
176.1635	0.0895	352327	keystroke_o	o	n/a
176.388	0.0895	352776	keystroke_l	l	n/a
176.643	0.075	353286	keystroke_y	y	n/a
177.1385	0.089	354277	keystroke_Key.backspace	Key.backspace	n/a
177.5285	0.104	355057	keystroke_y	y	n/a
177.6475	0.09	355295	keystroke_m	m	n/a
177.858	0.1055	355716	keystroke_p	p	n/a
178.143	0.0905	356286	keystroke_u	u	n/a
178.263	0.09	356526	keystroke_s	s	n/a
178.398	0.0895	356796	keystroke_Key.enter	Key.enter	n/a
178.4945	8.965	356989	prompt	n/a	newsletters norwegian personals china\n
179.342	0.091	358684	keystroke_n	n	n/a
179.463	0.075	358926	keystroke_e	e	n/a
179.643	0.075	359286	keystroke_w	w	n/a
179.8225	0.105	359645	keystroke_s	s	n/a
179.9725	0.105	359945	keystroke_l	l	n/a
180.1835	0.0895	360367	keystroke_e	e	n/a
180.3925	0.076	360785	keystroke_t	t	n/a
180.528	0.0755	361056	keystroke_t	t	n/a
180.6785	0.1195	361357	keystroke_e	e	n/a
180.7685	0.195	361537	keystroke_r	r	n/a
181.008	0.135	362016	keystroke_s	s	n/a
181.113	0.12	362226	keystroke_Key.space	Key.space	n/a
181.263	0.09	362526	keystroke_n	n	n/a
181.473	0.09	362946	keystroke_o	o	n/a
181.578	0.1055	363156	keystroke_r	r	n/a
182.1635	0.0895	364327	keystroke_v	v	n/a
182.583	0.075	365166	keystroke_Key.backspace	Key.backspace	n/a
182.6435	0.15	365287	keystroke_w	w	n/a
182.778	0.105	365556	keystroke_e	e	n/a
183.168	0.0895	366336	keystroke_g	g	n/a
183.3625	0.091	366725	keystroke_i	i	n/a
183.5885	0.09	367177	keystroke_e	e	n/a
184.293	0.09	368586	keystroke_Key.backspace	Key.backspace	n/a
184.398	0.0305	368796	keystroke_a	a	n/a
184.5325	0.075	369065	keystroke_n	n	n/a
184.6375	0.0905	369275	keystroke_Key.space	Key.space	n/a
184.9975	0.076	369995	keystroke_p	p	n/a
185.1175	0.151	370235	keystroke_e	e	n/a
185.2235	0.135	370447	keystroke_r	r	n/a
185.4925	0.106	370985	keystroke_s	s	n/a
185.6125	0.1355	371225	keystroke_o	o	n/a
185.718	0.105	371436	keystroke_n	n	n/a
185.8385	0.0895	371677	keystroke_a	a	n/a
185.9575	0.105	371915	keystroke_l	l	n/a
186.108	0.1045	372216	keystroke_s	s	n/a
186.228	0.09	372456	keystroke_Key.space	Key.space	n/a
186.5725	0.106	373145	keystroke_c	c	n/a
186.6925	0.0905	373385	keystroke_h	h	n/a
186.903	0.1195	373806	keystroke_i	i	n/a
186.993	0.12	373986	keystroke_n	n	n/a
187.128	0.105	374256	keystroke_a	a	n/a
187.338	0.119	374676	keystroke_Key.enter	Key.enter	n/a
187.4635	6.371	374927	prompt	n/a	administrator phone rubber canon\n
188.298	0.105	376596	keystroke_a	a	n/a
188.388	0.12	376776	keystroke_d	d	n/a
188.568	0.06	377136	keystroke_m	m	n/a
188.793	0.12	377586	keystroke_i	i	n/a
188.9285	0.1195	377857	keystroke_n	n	n/a
189.048	0.105	378096	keystroke_i	i	n/a
189.213	0.12	378426	keystroke_s	s	n/a
189.4535	0.0745	378907	keystroke_t	t	n/a
189.6325	0.105	379265	keystroke_r	r	n/a
189.7975	0.09	379595	keystroke_a	a	n/a
189.9925	0.09	379985	keystroke_t	t	n/a
190.1275	0.1055	380255	keystroke_o	o	n/a
190.263	0.12	380526	keystroke_r	r	n/a
190.368	0.105	380736	keystroke_Key.space	Key.space	n/a
190.668	0.1055	381336	keystroke_p	p	n/a
190.9225	0.075	381845	keystroke_h	h	n/a
191.1185	0.164	382237	keystroke_o	o	n/a
191.268	0.09	382536	keystroke_n	n	n/a
191.3725	0.1055	382745	keystroke_e	e	n/a
191.448	0.12	382896	keystroke_Key.space	Key.space	n/a
191.7635	0.105	383527	keystroke_r	r	n/a
191.913	0.0755	383826	keystroke_u	u	n/a
192.0925	0.06	384185	keystroke_b	b	n/a
192.2125	0.0755	384425	keystroke_b	b	n/a
192.303	0.149	384606	keystroke_e	e	n/a
192.407	0.121	384814	keystroke_r	r	n/a
192.482	0.12	384964	keystroke_Key.space	Key.space	n/a
192.9335	0.074	385867	keystroke_c	c	n/a
193.068	0.1045	386136	keystroke_a	a	n/a
193.2175	0.091	386435	keystroke_n	n	n/a
193.4425	0.1205	386885	keystroke_o	o	n/a
193.548	0.09	387096	keystroke_n	n	n/a
193.743	0.09	387486	keystroke_Key.enter	Key.enter	n/a
193.84	6.31	387680	prompt	n/a	trends misc ship vessels\n
194.583	0.105	389166	keystroke_t	t	n/a
194.718	0.105	389436	keystroke_r	r	n/a
194.898	0.12	389796	keystroke_a	a	n/a
195.438	0.0745	390876	keystroke_Key.backspace	Key.backspace	n/a
195.5425	0.105	391085	keystroke_e	e	n/a
195.8575	0.076	391715	keystroke_n	n	n/a
195.9625	0.136	391925	keystroke_d	d	n/a
196.1135	0.119	392227	keystroke_s	s	n/a
196.278	0.104	392556	keystroke_Key.space	Key.space	n/a
196.593	0.06	393186	keystroke_m	m	n/a
196.743	0.0905	393486	keystroke_i	i	n/a
196.8785	0.075	393757	keystroke_s	s	n/a
197.118	0.09	394236	keystroke_c	c	n/a
197.252	0.12	394504	keystroke_Key.space	Key.space	n/a
197.7185	0.1045	395437	keystroke_s	s	n/a
197.838	0.075	395676	keystroke_h	h	n/a
198.003	0.09	396006	keystroke_i	i	n/a
198.2575	0.09	396515	keystroke_p	p	n/a
198.378	0.104	396756	keystroke_Key.space	Key.space	n/a
198.798	0.09	397596	keystroke_v	v	n/a
199.008	0.0755	398016	keystroke_e	e	n/a
199.2025	0.075	398405	keystroke_s	s	n/a
199.3675	0.0755	398735	keystroke_s	s	n/a
199.548	0.1205	399096	keystroke_e	e	n/a
199.7135	0.105	399427	keystroke_l	l	n/a
199.8775	0.12	399755	keystroke_s	s	n/a
200.0425	0.106	400085	keystroke_Key.enter	Key.enter	n/a
200.154	7.4205	400308	prompt	n/a	computer districts internal haven\n
200.8675	0.106	401735	keystroke_c	c	n/a
201.018	0.09	402036	keystroke_o	o	n/a
201.093	0.09	402186	keystroke_m	m	n/a
201.288	0.075	402576	keystroke_p	p	n/a
201.5425	0.09	403085	keystroke_u	u	n/a
201.6775	0.075	403355	keystroke_t	t	n/a
201.8425	0.1355	403685	keystroke_e	e	n/a
201.9325	0.105	403865	keystroke_r	r	n/a
202.008	0.1195	404016	keystroke_Key.space	Key.space	n/a
202.2485	0.09	404497	keystroke_d	d	n/a
202.3525	0.091	404705	keystroke_i	i	n/a
202.4585	0.105	404917	keystroke_s	s	n/a
202.6685	0.119	405337	keystroke_t	t	n/a
202.7885	0.104	405577	keystroke_r	r	n/a
203.0435	0.09	406087	keystroke_i	i	n/a
203.163	0.1045	406326	keystroke_c	c	n/a
203.4625	0.1055	406925	keystroke_t	t	n/a
203.613	0.1495	407226	keystroke_s	s	n/a
203.748	0.1195	407496	keystroke_Key.space	Key.space	n/a
203.988	0.1045	407976	keystroke_i	i	n/a
204.048	0.105	408096	keystroke_n	n	n/a
204.1975	0.09	408395	keystroke_t	t	n/a
204.3475	0.135	408695	keystroke_e	e	n/a
204.4375	0.1055	408875	keystroke_r	r	n/a
204.6775	0.075	409355	keystroke_a	a	n/a
205.098	0.0745	410196	keystroke_Key.backspace	Key.backspace	n/a
205.353	0.0745	410706	keystroke_n	n	n/a
205.4125	0.09	410825	keystroke_a	a	n/a
205.5625	0.1055	411125	keystroke_l	l	n/a
205.683	0.0745	411366	keystroke_Key.space	Key.space	n/a
206.058	0.06	412116	keystroke_g	g	n/a
206.463	0.0745	412926	keystroke_Key.backspace	Key.backspace	n/a
206.7485	0.09	413497	keystroke_h	h	n/a
206.8225	0.09	413645	keystroke_a	a	n/a
206.9875	0.09	413975	keystroke_v	v	n/a
207.0935	0.09	414187	keystroke_e	e	n/a
207.2125	0.106	414425	keystroke_n	n	n/a
207.4525	0.12	414905	keystroke_Key.enter	Key.enter	n/a
207.58	3.9845	415160	prompt	n/a	form temp citations oral\n
208.218	0.075	416436	keystroke_f	f	n/a
208.338	0.075	416676	keystroke_o	o	n/a
208.443	0.105	416886	keystroke_r	r	n/a
208.578	0.0905	417156	keystroke_m	m	n/a
208.6525	0.09	417305	keystroke_Key.space	Key.space	n/a
208.848	0.0905	417696	keystroke_t	t	n/a
208.983	0.1055	417966	keystroke_e	e	n/a
209.073	0.075	418146	keystroke_m	m	n/a
209.268	0.105	418536	keystroke_p	p	n/a
209.4175	0.09	418835	keystroke_Key.space	Key.space	n/a
209.6585	0.0745	419317	keystroke_c	c	n/a
209.748	0.09	419496	keystroke_i	i	n/a
209.9125	0.09	419825	keystroke_t	t	n/a
210.0475	0.1505	420095	keystroke_a	a	n/a
210.213	0.0745	420426	keystroke_t	t	n/a
210.3335	0.0895	420667	keystroke_i	i	n/a
210.513	0.135	421026	keystroke_o	o	n/a
210.633	0.09	421266	keystroke_n	n	n/a
210.7085	0.09	421417	keystroke_s	s	n/a
210.768	0.105	421536	keystroke_Key.space	Key.space	n/a
210.918	0.09	421836	keystroke_o	o	n/a
211.038	0.0905	422076	keystroke_r	r	n/a
211.1875	0.1355	422375	keystroke_a	a	n/a
211.2925	0.09	422585	keystroke_l	l	n/a
211.4725	0.0905	422945	keystroke_Key.enter	Key.enter	n/a
211.5705	6.684	423141	prompt	n/a	tablets normally operates identity\n
212.1935	0.089	424387	keystroke_t	t	n/a
212.3275	0.105	424655	keystroke_a	a	n/a
212.4785	0.044	424957	keystroke_b	b	n/a
212.628	0.1195	425256	keystroke_l	l	n/a
212.763	0.09	425526	keystroke_e	e	n/a
212.9285	0.12	425857	keystroke_t	t	n/a
213.063	0.135	426126	keystroke_s	s	n/a
213.167	0.121	426334	keystroke_Key.space	Key.space	n/a
213.408	0.0905	426816	keystroke_n	n	n/a
213.618	0.06	427236	keystroke_o	o	n/a
213.6785	0.1045	427357	keystroke_r	r	n/a
213.8575	0.0905	427715	keystroke_m	m	n/a
213.9635	0.104	427927	keystroke_a	a	n/a
214.083	0.0755	428166	keystroke_l	l	n/a
214.2025	0.105	428405	keystroke_l	l	n/a
214.3675	0.1205	428735	keystroke_y	y	n/a
214.473	0.12	428946	keystroke_Key.space	Key.space	n/a
215.2375	0.075	430475	keystroke_o	o	n/a
215.433	0.0895	430866	keystroke_p	p	n/a
215.5085	0.1645	431017	keystroke_e	e	n/a
215.658	0.135	431316	keystroke_r	r	n/a
215.808	0.12	431616	keystroke_a	a	n/a
215.988	0.165	431976	keystroke_t	t	n/a
216.123	0.135	432246	keystroke_e	e	n/a
216.243	0.1355	432486	keystroke_s	s	n/a
216.348	0.135	432696	keystroke_Key.space	Key.space	n/a
216.6025	0.105	433205	keystroke_i	i	n/a
217.173	0.045	434346	keystroke_d	d	n/a
217.308	0.09	434616	keystroke_e	e	n/a
217.4435	0.0895	434887	keystroke_n	n	n/a
217.578	0.09	435156	keystroke_t	t	n/a
217.683	0.12	435366	keystroke_i	i	n/a
217.788	0.09	435576	keystroke_t	t	n/a
217.998	0.075	435996	keystroke_y	y	n/a
218.163	0.09	436326	keystroke_Key.enter	Key.enter	n/a
218.2595	6.37	436519	prompt	n/a	printing hugh gmbh surgeons\n
218.853	0.105	437706	keystroke_p	p	n/a
218.988	0.09	437976	keystroke_r	r	n/a
219.153	0.119	438306	keystroke_i	i	n/a
219.242	0.106	438484	keystroke_n	n	n/a
219.437	0.0755	438874	keystroke_t	t	n/a
219.558	0.1195	439116	keystroke_i	i	n/a
219.6485	0.12	439297	keystroke_n	n	n/a
219.738	0.09	439476	keystroke_g	g	n/a
219.7975	0.1355	439595	keystroke_Key.space	Key.space	n/a
220.248	0.1045	440496	keystroke_h	h	n/a
220.398	0.1055	440796	keystroke_u	u	n/a
220.683	0.075	441366	keystroke_g	g	n/a
220.908	0.0905	441816	keystroke_h	h	n/a
221.073	0.0895	442146	keystroke_Key.space	Key.space	n/a
221.6285	0.0885	443257	keystroke_g	g	n/a
221.793	0.09	443586	keystroke_m	m	n/a
222.2135	0.09	444427	keystroke_b	b	n/a
222.5125	0.1205	445025	keystroke_h	h	n/a
222.8425	0.09	445685	keystroke_Key.space	Key.space	n/a
223.5785	0.104	447157	keystroke_s	s	n/a
223.6985	0.0145	447397	keystroke_u	u	n/a
223.7275	0.015	447455	keystroke_r	r	n/a
223.9075	0.12	447815	keystroke_g	g	n/a
224.0125	0.105	448025	keystroke_e	e	n/a
224.178	0.09	448356	keystroke_o	o	n/a
224.2535	0.1045	448507	keystroke_n	n	n/a
224.3725	0.1355	448745	keystroke_s	s	n/a
224.538	0.0895	449076	keystroke_Key.enter	Key.enter	n/a
224.634	6.0585	449268	prompt	n/a	fruits processor butts generation\n
225.3485	0.0445	450697	keystroke_f	f	n/a
225.4525	0.0755	450905	keystroke_r	r	n/a
225.558	0.09	451116	keystroke_u	u	n/a
225.7375	0.09	451475	keystroke_i	i	n/a
225.7975	0.1055	451595	keystroke_t	t	n/a
225.9335	0.149	451867	keystroke_s	s	n/a
226.0525	0.135	452105	keystroke_Key.space	Key.space	n/a
226.413	0.105	452826	keystroke_p	p	n/a
226.593	0.1055	453186	keystroke_r	r	n/a
226.7425	0.1055	453485	keystroke_o	o	n/a
226.938	0.09	453876	keystroke_c	c	n/a
227.163	0.09	454326	keystroke_e	e	n/a
227.358	0.06	454716	keystroke_s	s	n/a
227.478	0.09	454956	keystroke_s	s	n/a
227.613	0.1045	455226	keystroke_o	o	n/a
227.7325	0.1205	455465	keystroke_r	r	n/a
227.823	0.12	455646	keystroke_Key.space	Key.space	n/a
228.018	0.075	456036	keystroke_b	b	n/a
228.1685	0.0895	456337	keystroke_u	u	n/a
228.2885	0.06	456577	keystroke_t	t	n/a
228.408	0.105	456816	keystroke_t	t	n/a
228.603	0.135	457206	keystroke_s	s	n/a
228.708	0.12	457416	keystroke_Key.space	Key.space	n/a
228.948	0.0755	457896	keystroke_g	g	n/a
229.083	0.0905	458166	keystroke_e	e	n/a
229.203	0.074	458406	keystroke_n	n	n/a
229.2925	0.2105	458585	keystroke_e	e	n/a
229.4885	0.1345	458977	keystroke_r	r	n/a
229.743	0.1355	459486	keystroke_a	a	n/a
229.938	0.09	459876	keystroke_t	t	n/a
230.073	0.104	460146	keystroke_i	i	n/a
230.283	0.135	460566	keystroke_o	o	n/a
230.3885	0.1045	460777	keystroke_n	n	n/a
230.613	0.075	461226	keystroke_Key.enter	Key.enter	n/a
230.6995	7.385	461399	prompt	n/a	criteria endless retrieve policies\n
231.2585	0.089	462517	keystroke_c	c	n/a
231.482	0.076	462964	keystroke_r	r	n/a
231.5725	0.09	463145	keystroke_i	i	n/a
231.6775	0.0755	463355	keystroke_t	t	n/a
231.873	0.105	463746	keystroke_e	e	n/a
232.0675	0.075	464135	keystroke_r	r	n/a
232.5925	0.105	465185	keystroke_i	i	n/a
232.7425	0.121	465485	keystroke_a	a	n/a
232.9825	0.09	465965	keystroke_Key.space	Key.space	n/a
233.2825	0.1055	466565	keystroke_e	e	n/a
233.4025	0.09	466805	keystroke_n	n	n/a
233.9275	0.091	467855	keystroke_d	d	n/a
234.0785	0.1035	468157	keystroke_l	l	n/a
234.2585	0.0745	468517	keystroke_e	e	n/a
234.453	0.06	468906	keystroke_s	s	n/a
234.618	0.0595	469236	keystroke_s	s	n/a
234.693	0.1045	469386	keystroke_Key.space	Key.space	n/a
234.873	0.1345	469746	keystroke_r	r	n/a
234.993	0.12	469986	keystroke_e	e	n/a
235.2475	0.0755	470495	keystroke_t	t	n/a
235.4575	0.0905	470915	keystroke_r	r	n/a
235.743	0.09	471486	keystroke_i	i	n/a
236.0575	0.0755	472115	keystroke_e	e	n/a
236.283	0.09	472566	keystroke_v	v	n/a
236.478	0.105	472956	keystroke_e	e	n/a
236.568	0.12	473136	keystroke_Key.space	Key.space	n/a
236.7325	0.09	473465	keystroke_p	p	n/a
237.018	0.0145	474036	keystroke_o	o	n/a
237.108	0.045	474216	keystroke_l	l	n/a
237.318	0.075	474636	keystroke_i	i	n/a
237.423	0.09	474846	keystroke_c	c	n/a
237.543	0.075	475086	keystroke_i	i	n/a
237.708	0.135	475416	keystroke_e	e	n/a
237.828	0.165	475656	keystroke_s	s	n/a
237.978	0.105	475956	keystroke_Key.enter	Key.enter	n/a
238.0905	9.309	476181	prompt	n/a	separation please thinking collection\n
238.6975	0.09	477395	keystroke_s	s	n/a
238.8635	0.0895	477727	keystroke_e	e	n/a
238.983	0.09	477966	keystroke_o	o	n/a
239.1475	0.151	478295	keystroke_a	a	n/a
239.3425	0.1205	478685	keystroke_r	r	n/a
239.448	0.135	478896	keystroke_a	a	n/a
239.8225	0.075	479645	keystroke_Key.backspace	Key.backspace	n/a
239.9425	0.0895	479885	keystroke_Key.backspace	Key.backspace	n/a
240.092	0.0605	480184	keystroke_Key.backspace	Key.backspace	n/a
240.2125	0.06	480425	keystroke_Key.backspace	Key.backspace	n/a
240.4525	0.0905	480905	keystroke_p	p	n/a
240.528	0.105	481056	keystroke_a	a	n/a
240.7375	0.1205	481475	keystroke_r	r	n/a
240.8425	0.1355	481685	keystroke_a	a	n/a
241.068	0.09	482136	keystroke_t	t	n/a
241.893	0.09	483786	keystroke_i	i	n/a
242.088	0.135	484176	keystroke_o	o	n/a
242.193	0.105	484386	keystroke_n	n	n/a
242.3125	0.105	484625	keystroke_Key.space	Key.space	n/a
242.628	0.1495	485256	keystroke_p	p	n/a
242.8375	0.105	485675	keystroke_l	l	n/a
242.9875	0.1205	485975	keystroke_e	e	n/a
243.093	0.105	486186	keystroke_a	a	n/a
243.3185	0.1195	486637	keystroke_s	s	n/a
243.5285	0.1195	487057	keystroke_e	e	n/a
243.618	0.12	487236	keystroke_Key.space	Key.space	n/a
243.798	0.0905	487596	keystroke_t	t	n/a
243.903	0.0755	487806	keystroke_h	h	n/a
244.113	0.105	488226	keystroke_i	i	n/a
244.2025	0.1655	488405	keystroke_n	n	n/a
244.3525	0.0905	488705	keystroke_k	k	n/a
244.592	0.121	489184	keystroke_i	i	n/a
244.6675	0.1055	489335	keystroke_n	n	n/a
244.788	0.075	489576	keystroke_g	g	n/a
244.818	0.1195	489636	keystroke_Key.space	Key.space	n/a
245.028	0.1045	490056	keystroke_c	c	n/a
245.1025	0.075	490205	keystroke_o	o	n/a
245.283	0.0605	490566	keystroke_l	l	n/a
245.403	0.075	490806	keystroke_l	l	n/a
245.493	0.0595	490986	keystroke_e	e	n/a
245.658	0.0905	491316	keystroke_c	c	n/a
245.898	0.0895	491796	keystroke_t	t	n/a
245.9725	0.09	491945	keystroke_i	i	n/a
246.2425	0.091	492485	keystroke_n	n	n/a
246.738	0.089	493476	keystroke_Key.backspace	Key.backspace	n/a
247.0225	0.1205	494045	keystroke_o	o	n/a
247.113	0.09	494226	keystroke_n	n	n/a
247.308	0.09	494616	keystroke_Key.enter	Key.enter	n/a
247.404	6.0555	494808	prompt	n/a	levy captured soccer council\n
248.0275	0.1045	496055	keystroke_l	l	n/a
248.133	0.075	496266	keystroke_e	e	n/a
248.327	0.106	496654	keystroke_v	v	n/a
248.448	0.0895	496896	keystroke_y	y	n/a
248.5525	0.09	497105	keystroke_Key.space	Key.space	n/a
248.748	0.105	497496	keystroke_c	c	n/a
248.868	0.12	497736	keystroke_a	a	n/a
248.973	0.105	497946	keystroke_p	p	n/a
249.1525	0.105	498305	keystroke_t	t	n/a
249.378	0.0895	498756	keystroke_u	u	n/a
249.4525	0.135	498905	keystroke_r	r	n/a
249.6175	0.1055	499235	keystroke_e	e	n/a
249.873	0.105	499746	keystroke_d	d	n/a
250.007	0.1055	500014	keystroke_Key.space	Key.space	n/a
250.367	0.105	500734	keystroke_s	s	n/a
250.578	0.089	501156	keystroke_o	o	n/a
250.728	0.045	501456	keystroke_c	c	n/a
250.8325	0.105	501665	keystroke_c	c	n/a
251.222	0.1505	502444	keystroke_e	e	n/a
251.3585	0.1195	502717	keystroke_r	r	n/a
251.4625	0.1055	502925	keystroke_Key.space	Key.space	n/a
251.793	0.105	503586	keystroke_c	c	n/a
251.943	0.075	503886	keystroke_o	o	n/a
252.198	0.12	504396	keystroke_u	u	n/a
252.258	0.135	504516	keystroke_n	n	n/a
252.4985	0.089	504997	keystroke_c	c	n/a
252.603	0.09	505206	keystroke_i	i	n/a
253.128	0.1055	506256	keystroke_l	l	n/a
253.353	0.105	506706	keystroke_Key.enter	Key.enter	n/a
253.464	5.4255	506928	prompt	n/a	revenue blend exams wendy\n
254.133	0.12	508266	keystroke_r	r	n/a
254.2385	0.1045	508477	keystroke_e	e	n/a
254.4775	0.0905	508955	keystroke_v	v	n/a
254.658	0.0905	509316	keystroke_e	e	n/a
254.763	0.075	509526	keystroke_n	n	n/a
255.033	0.09	510066	keystroke_u	u	n/a
255.4975	0.135	510995	keystroke_e	e	n/a
255.5875	0.15	511175	keystroke_Key.space	Key.space	n/a
256.0825	0.09	512165	keystroke_b	b	n/a
256.248	0.09	512496	keystroke_l	l	n/a
256.352	0.091	512704	keystroke_e	e	n/a
256.518	0.0905	513036	keystroke_n	n	n/a
256.623	0.135	513246	keystroke_d	d	n/a
256.743	0.1045	513486	keystroke_Key.space	Key.space	n/a
256.998	0.075	513996	keystroke_e	e	n/a
257.2235	0.0895	514447	keystroke_x	x	n/a
257.4475	0.075	514895	keystroke_a	a	n/a
257.5375	0.105	515075	keystroke_m	m	n/a
257.673	0.105	515346	keystroke_s	s	n/a
257.7925	0.1205	515585	keystroke_Key.space	Key.space	n/a
258.003	0.135	516006	keystroke_w	w	n/a
258.153	0.105	516306	keystroke_e	e	n/a
258.2725	0.1055	516545	keystroke_n	n	n/a
258.4225	0.1055	516845	keystroke_d	d	n/a
258.558	0.089	517116	keystroke_y	y	n/a
258.782	0.1055	517564	keystroke_Key.enter	Key.enter	n/a
258.895	9.5195	517790	prompt	n/a	debian she premium garbage\n
259.803	0.105	519606	keystroke_d	d	n/a
260.148	0.105	520296	keystroke_b	b	n/a
260.343	0.09	520686	keystroke_i	i	n/a
260.8375	0.0595	521675	keystroke_Key.backspace	Key.backspace	n/a
260.958	0.074	521916	keystroke_Key.backspace	Key.backspace	n/a
261.078	0.0905	522156	keystroke_e	e	n/a
261.243	0.09	522486	keystroke_b	b	n/a
261.408	0.1045	522816	keystroke_i	i	n/a
261.5585	0.0895	523117	keystroke_a	a	n/a
261.6775	0.105	523355	keystroke_n	n	n/a
261.8125	0.105	523625	keystroke_Key.space	Key.space	n/a
262.293	0.1045	524586	keystroke_s	s	n/a
262.3985	0.1045	524797	keystroke_h	h	n/a
262.517	0.106	525034	keystroke_e	e	n/a
262.578	0.12	525156	keystroke_Key.space	Key.space	n/a
262.743	0.105	525486	keystroke_p	p	n/a
262.848	0.1345	525696	keystroke_r	r	n/a
262.9675	0.0905	525935	keystroke_e	e	n/a
263.688	0.105	527376	keystroke_m	m	n/a
263.943	0.09	527886	keystroke_i	i	n/a
264.6475	0.0455	529295	keystroke_u	u	n/a
264.8575	0.09	529715	keystroke_m	m	n/a
264.9925	0.09	529985	keystroke_Key.space	Key.space	n/a
265.533	0.0895	531066	keystroke_g	g	n/a
265.6975	0.075	531395	keystroke_a	a	n/a
265.8475	0.105	531695	keystroke_r	r	n/a
266.1475	0.0605	532295	keystroke_g	g	n/a
266.7175	0.0905	533435	keystroke_b	b	n/a
266.913	0.0895	533826	keystroke_Key.backspace	Key.backspace	n/a
267.048	0.09	534096	keystroke_Key.backspace	Key.backspace	n/a
267.108	0.135	534216	keystroke_b	b	n/a
267.258	0.1345	534516	keystroke_a	a	n/a
267.693	0.0895	535386	keystroke_g	g	n/a
268.083	0.09	536166	keystroke_e	e	n/a
268.3225	0.09	536645	keystroke_Key.enter	Key.enter	n/a
268.42	4.944	536840	prompt	n/a	gloves basis meter candles\n
269.3575	0.0605	538715	keystroke_g	g	n/a
269.403	0.0295	538806	keystroke_l	l	n/a
269.4475	0.0305	538895	keystroke_o	o	n/a
269.492	0.091	538984	keystroke_v	v	n/a
269.958	0.135	539916	keystroke_e	e	n/a
270.1225	0.1355	540245	keystroke_s	s	n/a
270.2275	0.1055	540455	keystroke_Key.space	Key.space	n/a
270.4675	0.0755	540935	keystroke_b	b	n/a
270.6025	0.06	541205	keystroke_a	a	n/a
270.798	0.075	541596	keystroke_s	s	n/a
270.9325	0.0755	541865	keystroke_i	i	n/a
271.0225	0.1045	542045	keystroke_s	s	n/a
271.188	0.134	542376	keystroke_Key.space	Key.space	n/a
271.458	0.09	542916	keystroke_m	m	n/a
271.532	0.1065	543064	keystroke_e	e	n/a
271.727	0.0765	543454	keystroke_t	t	n/a
271.908	0.15	543816	keystroke_e	e	n/a
272.013	0.12	544026	keystroke_r	r	n/a
272.103	0.1345	544206	keystroke_Key.space	Key.space	n/a
272.373	0.09	544746	keystroke_c	c	n/a
272.478	0.12	544956	keystroke_a	a	n/a
272.6275	0.0755	545255	keystroke_n	n	n/a
272.748	0.12	545496	keystroke_d	d	n/a
272.912	0.106	545824	keystroke_l	l	n/a
273.033	0.1645	546066	keystroke_e	e	n/a
273.1825	0.1205	546365	keystroke_s	s	n/a
273.2575	0.105	546515	keystroke_Key.enter	Key.enter	n/a
273.368	8.1565	546736	prompt	n/a	structure wines prepare terminology\n
274.008	0.1195	548016	keystroke_s	s	n/a
274.248	0.12	548496	keystroke_t	t	n/a
274.3835	0.1195	548767	keystroke_r	r	n/a
274.548	0.09	549096	keystroke_u	u	n/a
274.698	0.09	549396	keystroke_c	c	n/a
274.938	0.0905	549876	keystroke_t	t	n/a
275.073	0.09	550146	keystroke_u	u	n/a
275.1475	0.1355	550295	keystroke_r	r	n/a
275.2675	0.1355	550535	keystroke_e	e	n/a
275.373	0.12	550746	keystroke_Key.space	Key.space	n/a
275.628	0.0895	551256	keystroke_w	w	n/a
275.7925	0.135	551585	keystroke_i	i	n/a
275.883	0.12	551766	keystroke_n	n	n/a
276.243	0.09	552486	keystroke_e	e	n/a
276.5875	0.135	553175	keystroke_s	s	n/a
276.7075	0.105	553415	keystroke_Key.space	Key.space	n/a
277.008	0.0745	554016	keystroke_r	r	n/a
277.473	0.1195	554946	keystroke_Key.backspace	Key.backspace	n/a
277.758	0.105	555516	keystroke_p	p	n/a
277.848	0.135	555696	keystroke_r	r	n/a
277.953	0.105	555906	keystroke_e	e	n/a
278.0885	0.1195	556177	keystroke_p	p	n/a
278.2225	0.1045	556445	keystroke_a	a	n/a
278.403	0.1195	556806	keystroke_r	r	n/a
278.5075	0.09	557015	keystroke_e	e	n/a
278.568	0.105	557136	keystroke_Key.space	Key.space	n/a
278.883	0.075	557766	keystroke_t	t	n/a
279.048	0.15	558096	keystroke_e	e	n/a
279.168	0.1055	558336	keystroke_r	r	n/a
279.288	0.0895	558576	keystroke_m	m	n/a
279.5875	0.105	559175	keystroke_i	i	n/a
279.6785	0.1045	559357	keystroke_n	n	n/a
279.7975	0.12	559595	keystroke_a	a	n/a
280.278	0.09	560556	keystroke_Key.backspace	Key.backspace	n/a
280.5625	0.09	561125	keystroke_o	o	n/a
280.7275	0.075	561455	keystroke_l	l	n/a
280.8775	0.106	561755	keystroke_o	o	n/a
281.0425	0.09	562085	keystroke_g	g	n/a
281.2225	0.06	562445	keystroke_y	y	n/a
281.417	0.105	562834	keystroke_Key.enter	Key.enter	n/a
281.529	9.191	563058	prompt	n/a	furnished she'll auctions hardware\n
282.228	0.075	564456	keystroke_f	f	n/a
282.408	0.09	564816	keystroke_u	u	n/a
282.603	0.09	565206	keystroke_r	r	n/a
282.7225	0.09	565445	keystroke_n	n	n/a
282.9025	0.105	565805	keystroke_i	i	n/a
283.323	0.1345	566646	keystroke_s	s	n/a
283.518	0.1345	567036	keystroke_h	h	n/a
283.773	0.074	567546	keystroke_e	e	n/a
283.9825	0.1055	567965	keystroke_d	d	n/a
284.0885	0.104	568177	keystroke_Key.space	Key.space	n/a
284.223	0.1195	568446	keystroke_s	s	n/a
284.343	0.09	568686	keystroke_h	h	n/a
284.463	0.0895	568926	keystroke_e	e	n/a
286.0375	0.0755	572075	keystroke_'	'	n/a
286.308	0.09	572616	keystroke_l	l	n/a
286.443	0.1055	572886	keystroke_l	l	n/a
286.5925	0.105	573185	keystroke_Key.space	Key.space	n/a
287.1025	0.0905	574205	keystroke_a	a	n/a
287.403	0.105	574806	keystroke_u	u	n/a
287.523	0.105	575046	keystroke_c	c	n/a
287.7775	0.09	575555	keystroke_t	t	n/a
287.898	0.1045	575796	keystroke_i	i	n/a
288.393	0.18	576786	keystroke_o	o	n/a
288.542	0.106	577084	keystroke_n	n	n/a
288.738	0.045	577476	keystroke_s	s	n/a
288.752	0.121	577504	keystroke_Key.space	Key.space	n/a
288.9775	0.105	577955	keystroke_h	h	n/a
289.0675	0.0755	578135	keystroke_a	a	n/a
289.248	0.075	578496	keystroke_r	r	n/a
289.562	0.09	579124	keystroke_d	d	n/a
289.847	0.106	579694	keystroke_w	w	n/a
290.0425	0.106	580085	keystroke_a	a	n/a
290.238	0.15	580476	keystroke_r	r	n/a
290.358	0.15	580716	keystroke_e	e	n/a
290.613	0.105	581226	keystroke_Key.enter	Key.enter	n/a
290.724	6.16	581448	prompt	n/a	capable for adjustment child\n
291.438	0.09	582876	keystroke_c	c	n/a
291.5575	0.105	583115	keystroke_a	a	n/a
291.9175	0.0905	583835	keystroke_p	p	n/a
292.0375	0.1205	584075	keystroke_a	a	n/a
292.638	0.075	585276	keystroke_b	b	n/a
292.833	0.12	585666	keystroke_l	l	n/a
292.938	0.09	585876	keystroke_e	e	n/a
293.012	0.136	586024	keystroke_Key.space	Key.space	n/a
293.178	0.075	586356	keystroke_f	f	n/a
293.298	0.075	586596	keystroke_o	o	n/a
293.388	0.1195	586776	keystroke_r	r	n/a
293.4775	0.1205	586955	keystroke_Key.space	Key.space	n/a
294.093	0.0745	588186	keystroke_a	a	n/a
294.1525	0.1205	588305	keystroke_d	d	n/a
294.422	0.0755	588844	keystroke_j	j	n/a
294.6025	0.09	589205	keystroke_u	u	n/a
294.6775	0.09	589355	keystroke_s	s	n/a
294.903	0.0745	589806	keystroke_t	t	n/a
295.008	0.09	590016	keystroke_m	m	n/a
295.112	0.106	590224	keystroke_e	e	n/a
295.233	0.075	590466	keystroke_n	n	n/a
295.323	0.135	590646	keystroke_t	t	n/a
295.4425	0.105	590885	keystroke_Key.space	Key.space	n/a
295.727	0.105	591454	keystroke_c	c	n/a
295.848	0.059	591696	keystroke_h	h	n/a
296.0125	0.09	592025	keystroke_i	i	n/a
296.433	0.105	592866	keystroke_l	l	n/a
296.629	0.103	593258	keystroke_d	d	n/a
296.762	0.1205	593524	keystroke_Key.enter	Key.enter	n/a
296.8885	10.3905	593777	prompt	n/a	privilege stability meter every\n
297.7075	0.12	595415	keystroke_r	r	n/a
298.127	0.12	596254	keystroke_Key.backspace	Key.backspace	n/a
298.368	0.12	596736	keystroke_p	p	n/a
298.473	0.0895	596946	keystroke_r	r	n/a
298.6525	0.0605	597305	keystroke_o	o	n/a
299.117	0.075	598234	keystroke_Key.backspace	Key.backspace	n/a
299.372	0.09	598744	keystroke_i	i	n/a
299.568	0.1045	599136	keystroke_v	v	n/a
299.7325	0.09	599465	keystroke_i	i	n/a
299.987	0.1055	599974	keystroke_l	l	n/a
301.1725	0.09	602345	keystroke_e	e	n/a
301.4275	0.09	602855	keystroke_d	d	n/a
301.787	0.0905	603574	keystroke_g	g	n/a
301.893	0.1195	603786	keystroke_e	e	n/a
302.0125	0.12	604025	keystroke_Key.space	Key.space	n/a
302.642	0.09	605284	keystroke_Key.backspace	Key.backspace	n/a
302.793	0.0895	605586	keystroke_Key.backspace	Key.backspace	n/a
302.928	0.074	605856	keystroke_Key.backspace	Key.backspace	n/a
303.0925	0.045	606185	keystroke_Key.backspace	Key.backspace	n/a
303.1825	0.135	606365	keystroke_g	g	n/a
303.3325	0.1355	606665	keystroke_e	e	n/a
303.4375	0.1195	606875	keystroke_Key.space	Key.space	n/a
303.978	0.075	607956	keystroke_s	s	n/a
304.1875	0.0905	608375	keystroke_t	t	n/a
304.308	0.12	608616	keystroke_a	a	n/a
304.4725	0.045	608945	keystroke_b	b	n/a
304.6225	0.105	609245	keystroke_i	i	n/a
304.8175	0.09	609635	keystroke_l	l	n/a
304.9825	0.1055	609965	keystroke_i	i	n/a
305.1025	0.0755	610205	keystroke_t	t	n/a
305.267	0.0905	610534	keystroke_y	y	n/a
305.3425	0.1195	610685	keystroke_Key.space	Key.space	n/a
305.537	0.09	611074	keystroke_m	m	n/a
305.6125	0.1045	611225	keystroke_e	e	n/a
305.762	0.135	611524	keystroke_t	t	n/a
305.927	0.181	611854	keystroke_e	e	n/a
306.063	0.12	612126	keystroke_r	r	n/a
306.167	0.12	612334	keystroke_Key.space	Key.space	n/a
306.347	0.091	612694	keystroke_e	e	n/a
306.573	0.09	613146	keystroke_v	v	n/a
306.768	0.12	613536	keystroke_e	e	n/a
306.873	0.104	613746	keystroke_r	r	n/a
306.978	0.09	613956	keystroke_y	y	n/a
307.1875	0.09	614375	keystroke_Key.enter	Key.enter	n/a
307.284	5.7545	614568	prompt	n/a	down trading pick associations\n
307.8325	0.12	615665	keystroke_d	d	n/a
307.9825	0.09	615965	keystroke_o	o	n/a
308.1025	0.105	616205	keystroke_w	w	n/a
308.2375	0.075	616475	keystroke_n	n	n/a
308.2825	0.1055	616565	keystroke_Key.space	Key.space	n/a
308.7475	0.135	617495	keystroke_t	t	n/a
308.8835	0.104	617767	keystroke_r	r	n/a
309.0025	0.09	618005	keystroke_a	a	n/a
309.1375	0.105	618275	keystroke_d	d	n/a
309.3625	0.1205	618725	keystroke_i	i	n/a
309.4525	0.1045	618905	keystroke_n	n	n/a
309.558	0.12	619116	keystroke_g	g	n/a
309.602	0.135	619204	keystroke_Key.space	Key.space	n/a
309.827	0.0905	619654	keystroke_p	p	n/a
310.068	0.074	620136	keystroke_i	i	n/a
310.157	0.12	620314	keystroke_c	c	n/a
310.307	0.12	620614	keystroke_k	k	n/a
310.427	0.0905	620854	keystroke_Key.space	Key.space	n/a
311.0275	0.0905	622055	keystroke_a	a	n/a
311.2525	0.0605	622505	keystroke_s	s	n/a
311.3725	0.09	622745	keystroke_s	s	n/a
311.5375	0.1055	623075	keystroke_o	o	n/a
311.657	0.135	623314	keystroke_c	c	n/a
311.837	0.075	623674	keystroke_i	i	n/a
311.957	0.1205	623914	keystroke_a	a	n/a
312.227	0.091	624454	keystroke_t	t	n/a
312.333	0.0745	624666	keystroke_i	i	n/a
312.5575	0.1345	625115	keystroke_o	o	n/a
312.677	0.1055	625354	keystroke_n	n	n/a
312.7975	0.12	625595	keystroke_s	s	n/a
312.9325	0.105	625865	keystroke_Key.enter	Key.enter	n/a
313.045	6.5645	626090	prompt	n/a	manitoba blocked tions perhaps\n
313.7125	0.045	627425	keystroke_m	m	n/a
313.773	0.0895	627546	keystroke_a	a	n/a
313.8775	0.075	627755	keystroke_n	n	n/a
314.118	0.09	628236	keystroke_i	i	n/a
314.3425	0.0745	628685	keystroke_t	t	n/a
314.4625	0.075	628925	keystroke_o	o	n/a
314.6575	0.09	629315	keystroke_b	b	n/a
314.7775	0.135	629555	keystroke_a	a	n/a
314.868	0.134	629736	keystroke_Key.space	Key.space	n/a
315.8125	0.105	631625	keystroke_b	b	n/a
315.9185	0.1195	631837	keystroke_l	l	n/a
316.1575	0.09	632315	keystroke_o	o	n/a
316.2775	0.12	632555	keystroke_c	c	n/a
316.4425	0.1055	632885	keystroke_k	k	n/a
316.5775	0.075	633155	keystroke_e	e	n/a
316.7875	0.1205	633575	keystroke_d	d	n/a
316.893	0.09	633786	keystroke_Key.space	Key.space	n/a
317.328	0.09	634656	keystroke_t	t	n/a
317.463	0.09	634926	keystroke_i	i	n/a
317.673	0.15	635346	keystroke_o	o	n/a
317.793	0.089	635586	keystroke_n	n	n/a
317.898	0.12	635796	keystroke_s	s	n/a
317.988	0.1195	635976	keystroke_Key.space	Key.space	n/a
318.483	0.105	636966	keystroke_p	p	n/a
318.6175	0.135	637235	keystroke_e	e	n/a
318.7075	0.12	637415	keystroke_r	r	n/a
318.9925	0.075	637985	keystroke_h	h	n/a
319.098	0.105	638196	keystroke_a	a	n/a
319.2475	0.105	638495	keystroke_p	p	n/a
319.3675	0.105	638735	keystroke_s	s	n/a
319.5025	0.1055	639005	keystroke_Key.enter	Key.enter	n/a
319.614	7.21	639228	prompt	n/a	simultaneously skill timeline baker\n
320.2675	0.09	640535	keystroke_s	s	n/a
320.3725	0.0905	640745	keystroke_i	i	n/a
320.5825	0.09	641165	keystroke_m	m	n/a
320.8225	0.075	641645	keystroke_u	u	n/a
321.033	0.0895	642066	keystroke_l	l	n/a
321.1975	0.1055	642395	keystroke_t	t	n/a
321.378	0.12	642756	keystroke_a	a	n/a
321.5125	0.0755	643025	keystroke_n	n	n/a
322.158	0.12	644316	keystroke_e	e	n/a
322.3675	0.09	644735	keystroke_o	o	n/a
322.593	0.0895	645186	keystroke_u	u	n/a
322.6975	0.12	645395	keystroke_s	s	n/a
322.9375	0.0905	645875	keystroke_l	l	n/a
323.1625	0.105	646325	keystroke_y	y	n/a
323.2375	0.1355	646475	keystroke_Key.space	Key.space	n/a
323.5525	0.1055	647105	keystroke_s	s	n/a
323.628	0.09	647256	keystroke_k	k	n/a
323.793	0.074	647586	keystroke_i	i	n/a
323.988	0.06	647976	keystroke_l	l	n/a
324.138	0.074	648276	keystroke_l	l	n/a
324.227	0.121	648454	keystroke_Key.space	Key.space	n/a
324.4675	0.0605	648935	keystroke_t	t	n/a
324.573	0.135	649146	keystroke_i	i	n/a
324.663	0.09	649326	keystroke_m	m	n/a
324.753	0.1345	649506	keystroke_e	e	n/a
325.203	0.12	650406	keystroke_l	l	n/a
325.473	0.104	650946	keystroke_i	i	n/a
325.548	0.09	651096	keystroke_n	n	n/a
325.608	0.12	651216	keystroke_e	e	n/a
325.668	0.149	651336	keystroke_Key.space	Key.space	n/a
326.088	0.104	652176	keystroke_b	b	n/a
326.208	0.105	652416	keystroke_a	a	n/a
326.357	0.1355	652714	keystroke_k	k	n/a
326.463	0.1645	652926	keystroke_e	e	n/a
326.597	0.106	653194	keystroke_r	r	n/a
326.732	0.09	653464	keystroke_Key.enter	Key.enter	n/a
326.83	6.714	653660	prompt	n/a	antibodies semi chapter transaction\n
327.543	0.135	655086	keystroke_a	a	n/a
327.633	0.09	655266	keystroke_n	n	n/a
327.858	0.075	655716	keystroke_t	t	n/a
328.037	0.091	656074	keystroke_i	i	n/a
328.5925	0.0595	657185	keystroke_b	b	n/a
328.772	0.091	657544	keystroke_o	o	n/a
328.8775	0.0905	657755	keystroke_d	d	n/a
328.997	0.09	657994	keystroke_i	i	n/a
329.102	0.1355	658204	keystroke_e	e	n/a
329.223	0.1195	658446	keystroke_s	s	n/a
329.3125	0.12	658625	keystroke_Key.space	Key.space	n/a
329.4925	0.105	658985	keystroke_s	s	n/a
329.6575	0.1205	659315	keystroke_e	e	n/a
329.763	0.0895	659526	keystroke_m	m	n/a
329.9575	0.105	659915	keystroke_i	i	n/a
330.0475	0.105	660095	keystroke_Key.space	Key.space	n/a
330.318	0.1345	660636	keystroke_c	c	n/a
330.468	0.0895	660936	keystroke_h	h	n/a
330.573	0.12	661146	keystroke_a	a	n/a
330.8575	0.0905	661715	keystroke_p	p	n/a
331.0375	0.0745	662075	keystroke_t	t	n/a
331.2025	0.165	662405	keystroke_e	e	n/a
331.323	0.1195	662646	keystroke_r	r	n/a
331.4125	0.12	662825	keystroke_Key.space	Key.space	n/a
331.7275	0.075	663455	keystroke_t	t	n/a
331.8625	0.1055	663725	keystroke_r	r	n/a
331.968	0.135	663936	keystroke_a	a	n/a
332.148	0.105	664296	keystroke_n	n	n/a
332.238	0.1045	664476	keystroke_s	s	n/a
332.4325	0.0905	664865	keystroke_a	a	n/a
332.598	0.09	665196	keystroke_c	c	n/a
332.8675	0.0745	665735	keystroke_t	t	n/a
332.957	0.09	665914	keystroke_i	i	n/a
333.1675	0.1205	666335	keystroke_o	o	n/a
333.243	0.12	666486	keystroke_n	n	n/a
333.4525	0.09	666905	keystroke_Key.enter	Key.enter	n/a
333.549	6.34	667098	prompt	n/a	contact lawyer thread strips\n
334.158	0.074	668316	keystroke_c	c	n/a
334.5175	0.15	669035	keystroke_o	o	n/a
334.6375	0.12	669275	keystroke_n	n	n/a
334.7725	0.0905	669545	keystroke_t	t	n/a
334.9375	0.12	669875	keystroke_a	a	n/a
335.1625	0.105	670325	keystroke_c	c	n/a
335.4175	0.12	670835	keystroke_t	t	n/a
335.4925	0.12	670985	keystroke_Key.space	Key.space	n/a
335.6425	0.105	671285	keystroke_l	l	n/a
335.7175	0.09	671435	keystroke_a	a	n/a
335.868	0.104	671736	keystroke_w	w	n/a
336.572	0.105	673144	keystroke_y	y	n/a
337.007	0.1355	674014	keystroke_e	e	n/a
337.1575	0.1645	674315	keystroke_r	r	n/a
337.3075	0.1195	674615	keystroke_Key.space	Key.space	n/a
337.458	0.09	674916	keystroke_t	t	n/a
337.578	0.089	675156	keystroke_h	h	n/a
337.6825	0.1505	675365	keystroke_r	r	n/a
337.892	0.135	675784	keystroke_e	e	n/a
338.043	0.134	676086	keystroke_a	a	n/a
338.1925	0.1195	676385	keystroke_d	d	n/a
338.297	0.12	676594	keystroke_Key.space	Key.space	n/a
338.6425	0.1495	677285	keystroke_s	s	n/a
338.868	0.1645	677736	keystroke_t	t	n/a
339.047	0.1055	678094	keystroke_r	r	n/a
339.2125	0.1045	678425	keystroke_i	i	n/a
339.482	0.1055	678964	keystroke_p	p	n/a
339.6325	0.1045	679265	keystroke_s	s	n/a
339.782	0.1055	679564	keystroke_Key.enter	Key.enter	n/a
339.894	18.85	679788	prompt	n/a	cardiovascular require requiring wrestling\n
340.518	0.119	681036	keystroke_c	c	n/a
340.787	0.105	681574	keystroke_a	a	n/a
341.0125	0.09	682025	keystroke_r	r	n/a
341.3275	0.0905	682655	keystroke_d	d	n/a
341.4775	0.09	682955	keystroke_i	i	n/a
341.6725	0.09	683345	keystroke_o	o	n/a
341.8075	0.12	683615	keystroke_v	v	n/a
341.9575	0.105	683915	keystroke_a	a	n/a
342.1525	0.105	684305	keystroke_s	s	n/a
342.4225	0.105	684845	keystroke_c	c	n/a
342.5575	0.0895	685115	keystroke_u	u	n/a
342.783	0.105	685566	keystroke_l	l	n/a
342.873	0.105	685746	keystroke_a	a	n/a
343.068	0.12	686136	keystroke_r	r	n/a
343.143	0.119	686286	keystroke_Key.space	Key.space	n/a
343.292	0.151	686584	keystroke_r	r	n/a
343.398	0.12	686796	keystroke_e	e	n/a
343.713	0.06	687426	keystroke_q	q	n/a
343.938	0.105	687876	keystroke_u	u	n/a
344.1925	0.03	688385	keystroke_i	i	n/a
344.2525	0.12	688505	keystroke_r	r	n/a
344.3575	0.15	688715	keystroke_e	e	n/a
344.4775	0.1195	688955	keystroke_Key.space	Key.space	n/a
344.6725	0.135	689345	keystroke_r	r	n/a
344.7775	0.105	689555	keystroke_e	e	n/a
346.338	0.09	692676	keystroke_u	u	n/a
346.518	0.12	693036	keystroke_i	i	n/a
346.592	0.091	693184	keystroke_r	r	n/a
346.773	0.1645	693546	keystroke_i	i	n/a
346.8775	0.135	693755	keystroke_n	n	n/a
346.998	0.1045	693996	keystroke_g	g	n/a
347.0875	0.12	694175	keystroke_Key.space	Key.space	n/a
347.492	0.106	694984	keystroke_w	w	n/a
347.658	0.1045	695316	keystroke_r	r	n/a
348.392	0.0455	696784	keystroke_Key.backspace	Key.backspace	n/a
348.5125	0.0895	697025	keystroke_Key.backspace	Key.backspace	n/a
348.662	0.0755	697324	keystroke_Key.backspace	Key.backspace	n/a
348.7975	0.075	697595	keystroke_Key.backspace	Key.backspace	n/a
348.9475	0.075	697895	keystroke_Key.backspace	Key.backspace	n/a
349.0975	0.0905	698195	keystroke_Key.backspace	Key.backspace	n/a
351.152	0.105	702304	keystroke_i	i	n/a
351.2725	0.1055	702545	keystroke_n	n	n/a
351.3925	0.105	702785	keystroke_g	g	n/a
351.452	0.135	702904	keystroke_Key.space	Key.space	n/a
351.6625	0.1355	703325	keystroke_w	w	n/a
352.2775	0.09	704555	keystroke_Key.backspace	Key.backspace	n/a
352.427	0.075	704854	keystroke_Key.backspace	Key.backspace	n/a
352.577	0.075	705154	keystroke_Key.backspace	Key.backspace	n/a
352.7275	0.1045	705455	keystroke_Key.backspace	Key.backspace	n/a
353.267	0.09	706534	keystroke_Key.backspace	Key.backspace	n/a
354.5875	0.0895	709175	keystroke_Key.backspace	Key.backspace	n/a
354.752	0.091	709504	keystroke_Key.backspace	Key.backspace	n/a
355.2625	0.075	710525	keystroke_Key.backspace	Key.backspace	n/a
355.4125	0.1205	710825	keystroke_q	q	n/a
355.6375	0.09	711275	keystroke_u	u	n/a
355.8325	0.0905	711665	keystroke_i	i	n/a
355.968	0.0595	711936	keystroke_r	r	n/a
356.178	0.1645	712356	keystroke_i	i	n/a
356.553	0.119	713106	keystroke_n	n	n/a
356.703	0.135	713406	keystroke_g	g	n/a
356.793	0.135	713586	keystroke_Key.space	Key.space	n/a
357.018	0.18	714036	keystroke_w	w	n/a
357.213	0.105	714426	keystroke_r	r	n/a
357.618	0.149	715236	keystroke_e	e	n/a
357.7525	0.1345	715505	keystroke_s	s	n/a
357.902	0.091	715804	keystroke_t	t	n/a
358.097	0.09	716194	keystroke_l	l	n/a
358.3525	0.12	716705	keystroke_i	i	n/a
358.4275	0.0905	716855	keystroke_n	n	n/a
358.518	0.089	717036	keystroke_g	g	n/a
358.6525	0.0895	717305	keystroke_Key.enter	Key.enter	n/a
358.748	6.2065	717496	prompt	n/a	indigenous mile apparent chances\n
359.448	0.105	718896	keystroke_i	i	n/a
359.5225	0.1045	719045	keystroke_n	n	n/a
359.703	0.104	719406	keystroke_d	d	n/a
359.838	0.0745	719676	keystroke_i	i	n/a
360.3925	0.09	720785	keystroke_g	g	n/a
360.5425	0.1355	721085	keystroke_e	e	n/a
360.7225	0.09	721445	keystroke_n	n	n/a
361.053	0.0895	722106	keystroke_o	o	n/a
361.277	0.06	722554	keystroke_u	u	n/a
361.352	0.0905	722704	keystroke_s	s	n/a
361.397	0.1205	722794	keystroke_Key.space	Key.space	n/a
361.7275	0.0895	723455	keystroke_m	m	n/a
361.908	0.089	723816	keystroke_i	i	n/a
362.0875	0.12	724175	keystroke_l	l	n/a
362.1625	0.1195	724325	keystroke_e	e	n/a
362.237	0.135	724474	keystroke_Key.space	Key.space	n/a
362.417	0.1205	724834	keystroke_a	a	n/a
362.5525	0.0905	725105	keystroke_p	p	n/a
362.702	0.105	725404	keystroke_p	p	n/a
362.9725	0.0895	725945	keystroke_a	a	n/a
363.152	0.136	726304	keystroke_r	r	n/a
363.273	0.105	726546	keystroke_e	e	n/a
363.408	0.075	726816	keystroke_n	n	n/a
363.528	0.0895	727056	keystroke_t	t	n/a
363.602	0.105	727204	keystroke_Key.space	Key.space	n/a
363.843	0.089	727686	keystroke_c	c	n/a
363.977	0.076	727954	keystroke_h	h	n/a
364.037	0.1055	728074	keystroke_a	a	n/a
364.1875	0.1045	728375	keystroke_n	n	n/a
364.307	0.091	728614	keystroke_c	c	n/a
364.5625	0.15	729125	keystroke_e	e	n/a
364.6825	0.1345	729365	keystroke_s	s	n/a
364.832	0.12	729664	keystroke_Key.enter	Key.enter	n/a
364.959	9.4005	729918	prompt	n/a	logging divorce enhancement proprietary\n
365.598	0.0745	731196	keystroke_l	l	n/a
365.763	0.104	731526	keystroke_o	o	n/a
365.882	0.061	731764	keystroke_g	g	n/a
366.018	0.09	732036	keystroke_g	g	n/a
366.138	0.105	732276	keystroke_i	i	n/a
366.213	0.1195	732426	keystroke_n	n	n/a
366.3025	0.12	732605	keystroke_g	g	n/a
366.3775	0.135	732755	keystroke_Key.space	Key.space	n/a
366.603	0.089	733206	keystroke_d	d	n/a
366.7075	0.0745	733415	keystroke_i	i	n/a
366.7975	0.105	733595	keystroke_v	v	n/a
367.0225	0.0895	734045	keystroke_o	o	n/a
367.2025	0.075	734405	keystroke_r	r	n/a
367.443	0.0895	734886	keystroke_c	c	n/a
367.667	0.106	735334	keystroke_e	e	n/a
367.757	0.1205	735514	keystroke_Key.space	Key.space	n/a
368.7475	0.0745	737495	keystroke_e	e	n/a
368.837	0.06	737674	keystroke_n	n	n/a
369.0325	0.0895	738065	keystroke_h	h	n/a
369.107	0.09	738214	keystroke_a	a	n/a
369.392	0.076	738784	keystroke_n	n	n/a
369.528	0.09	739056	keystroke_c	c	n/a
369.7525	0.0745	739505	keystroke_e	e	n/a
369.8875	0.0745	739775	keystroke_m	m	n/a
369.9775	0.0595	739955	keystroke_e	e	n/a
370.067	0.075	740134	keystroke_n	n	n/a
370.2025	0.12	740405	keystroke_t	t	n/a
370.292	0.1205	740584	keystroke_Key.space	Key.space	n/a
370.6075	0.105	741215	keystroke_p	p	n/a
370.8025	0.075	741605	keystroke_r	r	n/a
370.9075	0.105	741815	keystroke_o	o	n/a
371.148	0.0745	742296	keystroke_p	p	n/a
371.507	0.0905	743014	keystroke_r	r	n/a
372.497	0.106	744994	keystroke_i	i	n/a
372.7675	0.09	745535	keystroke_e	e	n/a
372.9925	0.06	745985	keystroke_t	t	n/a
373.3825	0.105	746765	keystroke_a	a	n/a
373.938	0.0295	747876	keystroke_r	r	n/a
374.0275	0.0905	748055	keystroke_y	y	n/a
374.267	0.09	748534	keystroke_Key.enter	Key.enter	n/a
374.363	7.211	748726	prompt	n/a	handle warrant markers word\n
375.108	0.074	750216	keystroke_h	h	n/a
375.197	0.121	750394	keystroke_a	a	n/a
375.318	0.075	750636	keystroke_n	n	n/a
375.377	0.105	750754	keystroke_d	d	n/a
375.513	0.105	751026	keystroke_l	l	n/a
375.632	0.106	751264	keystroke_e	e	n/a
375.707	0.135	751414	keystroke_Key.space	Key.space	n/a
375.947	0.136	751894	keystroke_w	w	n/a
376.098	0.1045	752196	keystroke_a	a	n/a
376.307	0.0755	752614	keystroke_t	t	n/a
376.397	0.1205	752794	keystroke_t	t	n/a
377.147	0.06	754294	keystroke_Key.backspace	Key.backspace	n/a
377.267	0.0905	754534	keystroke_Key.backspace	Key.backspace	n/a
377.342	0.09	754684	keystroke_r	r	n/a
377.492	0.106	754984	keystroke_r	r	n/a
377.612	0.136	755224	keystroke_a	a	n/a
377.7925	0.09	755585	keystroke_n	n	n/a
377.9425	0.1045	755885	keystroke_t	t	n/a
378.032	0.1205	756064	keystroke_Key.space	Key.space	n/a
378.2725	0.09	756545	keystroke_m	m	n/a
378.4075	0.1205	756815	keystroke_a	a	n/a
378.5575	0.1045	757115	keystroke_r	r	n/a
378.6775	0.105	757355	keystroke_k	k	n/a
378.7825	0.12	757565	keystroke_e	e	n/a
379.2775	0.18	758555	keystroke_r	r	n/a
379.5325	0.075	759065	keystroke_s	s	n/a
379.5475	0.165	759095	keystroke_Key.space	Key.space	n/a
380.163	0.0745	760326	keystroke_w	w	n/a
380.2225	0.105	760445	keystroke_o	o	n/a
380.3575	0.105	760715	keystroke_r	r	n/a
380.5525	0.075	761105	keystroke_l	l	n/a
381.153	0.0895	762306	keystroke_Key.backspace	Key.backspace	n/a
381.2875	0.12	762575	keystroke_d	d	n/a
381.4675	0.105	762935	keystroke_Key.enter	Key.enter	n/a
381.578	7.661	763156	prompt	n/a	catalog marina estimation updated\n
382.667	0.09	765334	keystroke_c	c	n/a
382.832	0.1205	765664	keystroke_a	a	n/a
383.042	0.106	766084	keystroke_t	t	n/a
383.1625	0.12	766325	keystroke_a	a	n/a
383.343	0.09	766686	keystroke_l	l	n/a
383.538	0.105	767076	keystroke_o	o	n/a
383.643	0.1045	767286	keystroke_g	g	n/a
383.717	0.12	767434	keystroke_Key.space	Key.space	n/a
383.958	0.0745	767916	keystroke_m	m	n/a
384.017	0.0755	768034	keystroke_a	a	n/a
384.182	0.075	768364	keystroke_r	r	n/a
384.3025	0.09	768605	keystroke_i	i	n/a
384.4825	0.1045	768965	keystroke_n	n	n/a
384.632	0.105	769264	keystroke_a	a	n/a
384.767	0.12	769534	keystroke_Key.space	Key.space	n/a
385.0225	0.165	770045	keystroke_e	e	n/a
385.2025	0.1205	770405	keystroke_s	s	n/a
385.3525	0.105	770705	keystroke_t	t	n/a
385.5325	0.105	771065	keystroke_i	i	n/a
385.6975	0.105	771395	keystroke_m	m	n/a
385.8325	0.12	771665	keystroke_a	a	n/a
386.0875	0.0905	772175	keystroke_t	t	n/a
386.2075	0.0905	772415	keystroke_i	i	n/a
386.4025	0.105	772805	keystroke_o	o	n/a
386.5525	0.105	773105	keystroke_Key.space	Key.space	n/a
386.9725	0.075	773945	keystroke_Key.backspace	Key.backspace	n/a
387.228	0.0745	774456	keystroke_n	n	n/a
387.2875	0.09	774575	keystroke_Key.space	Key.space	n/a
387.4525	0.09	774905	keystroke_u	u	n/a
387.6625	0.1055	775325	keystroke_p	p	n/a
387.7825	0.135	775565	keystroke_d	d	n/a
387.9025	0.135	775805	keystroke_a	a	n/a
388.128	0.105	776256	keystroke_t	t	n/a
388.2475	0.09	776495	keystroke_a	a	n/a
388.652	0.1205	777304	keystroke_Key.backspace	Key.backspace	n/a
388.787	0.09	777574	keystroke_e	e	n/a
388.982	0.0905	777964	keystroke_d	d	n/a
389.1625	0.075	778325	keystroke_Key.enter	Key.enter	n/a
389.2425	6.2065	778485	prompt	n/a	lanes beatles configuration enemy\n
390.167	0.105	780334	keystroke_l	l	n/a
390.257	0.0905	780514	keystroke_a	a	n/a
390.393	0.09	780786	keystroke_n	n	n/a
390.4675	0.1355	780935	keystroke_e	e	n/a
390.588	0.12	781176	keystroke_s	s	n/a
390.648	0.149	781296	keystroke_Key.space	Key.space	n/a
390.827	0.075	781654	keystroke_b	b	n/a
390.858	0.134	781716	keystroke_e	e	n/a
390.993	0.12	781986	keystroke_a	a	n/a
391.172	0.0905	782344	keystroke_t	t	n/a
391.2775	0.1055	782555	keystroke_l	l	n/a
391.352	0.15	782704	keystroke_e	e	n/a
391.4875	0.1195	782975	keystroke_s	s	n/a
391.5625	0.1345	783125	keystroke_Key.space	Key.space	n/a
391.982	0.0905	783964	keystroke_c	c	n/a
392.117	0.09	784234	keystroke_o	o	n/a
392.193	0.105	784386	keystroke_n	n	n/a
392.912	0.105	785824	keystroke_f	f	n/a
393.0625	0.105	786125	keystroke_i	i	n/a
393.2725	0.09	786545	keystroke_g	g	n/a
393.4075	0.09	786815	keystroke_u	u	n/a
393.5575	0.12	787115	keystroke_r	r	n/a
393.7075	0.15	787415	keystroke_a	a	n/a
393.9175	0.09	787835	keystroke_t	t	n/a
394.0225	0.09	788045	keystroke_i	i	n/a
394.233	0.1045	788466	keystroke_o	o	n/a
394.3225	0.1055	788645	keystroke_n	n	n/a
394.4425	0.09	788885	keystroke_Key.space	Key.space	n/a
394.5625	0.075	789125	keystroke_e	e	n/a
394.6525	0.0905	789305	keystroke_n	n	n/a
394.7275	0.0905	789455	keystroke_e	e	n/a
395.0575	0.0905	790115	keystroke_m	m	n/a
395.2225	0.075	790445	keystroke_y	y	n/a
395.3425	0.105	790685	keystroke_Key.enter	Key.enter	n/a
395.4565	8.3625	790913	prompt	n/a	nuke fraser new massage\n
396.4975	0.075	792995	keystroke_n	n	n/a
396.5875	0.075	793175	keystroke_u	u	n/a
396.797	0.1355	793594	keystroke_k	k	n/a
396.887	0.1055	793774	keystroke_e	e	n/a
396.9765	0.151	793953	keystroke_Key.space	Key.space	n/a
397.1425	0.045	794285	keystroke_f	f	n/a
397.292	0.1205	794584	keystroke_r	r	n/a
397.577	0.105	795154	keystroke_z	z	n/a
397.9675	0.015	795935	keystroke_e	e	n/a
398.2375	0.075	796475	keystroke_Key.backspace	Key.backspace	n/a
398.3715	0.076	796743	keystroke_Key.backspace	Key.backspace	n/a
398.5075	0.105	797015	keystroke_a	a	n/a
398.7325	0.12	797465	keystroke_z	z	n/a
399.0475	0.1355	798095	keystroke_e	e	n/a
399.4675	0.044	798935	keystroke_Key.backspace	Key.backspace	n/a
399.5275	0.074	799055	keystroke_Key.backspace	Key.backspace	n/a
399.8575	0.12	799715	keystroke_s	s	n/a
400.0525	0.194	800105	keystroke_e	e	n/a
400.232	0.1495	800464	keystroke_r	r	n/a
400.457	0.1055	800914	keystroke_Key.space	Key.space	n/a
400.878	0.09	801756	keystroke_n	n	n/a
401.028	0.0895	802056	keystroke_e	e	n/a
401.2375	0.105	802475	keystroke_w	w	n/a
401.3425	0.12	802685	keystroke_Key.space	Key.space	n/a
401.8675	0.075	803735	keystroke_m	m	n/a
401.9125	0.09	803825	keystroke_a	a	n/a
402.4075	0.06	804815	keystroke_s	s	n/a
402.5425	0.105	805085	keystroke_s	s	n/a
402.8725	0.09	805745	keystroke_g	g	n/a
403.2775	0.0895	806555	keystroke_Key.backspace	Key.backspace	n/a
403.353	0.1345	806706	keystroke_a	a	n/a
403.502	0.1205	807004	keystroke_g	g	n/a
403.607	0.135	807214	keystroke_e	e	n/a
403.7275	0.09	807455	keystroke_Key.enter	Key.enter	n/a
403.8235	6.2655	807647	prompt	n/a	shipment fate nobody amount\n
404.417	0.1055	808834	keystroke_s	s	n/a
404.5375	0.075	809075	keystroke_h	h	n/a
404.7025	0.1055	809405	keystroke_i	i	n/a
404.9425	0.075	809885	keystroke_p	p	n/a
405.1975	0.075	810395	keystroke_m	m	n/a
405.3325	0.09	810665	keystroke_e	e	n/a
405.453	0.0895	810906	keystroke_n	n	n/a
405.587	0.1055	811174	keystroke_t	t	n/a
405.662	0.1205	811324	keystroke_Key.space	Key.space	n/a
405.8725	0.12	811745	keystroke_f	f	n/a
406.0075	0.09	812015	keystroke_a	a	n/a
406.2025	0.1345	812405	keystroke_t	t	n/a
406.322	0.1205	812644	keystroke_e	e	n/a
406.3975	0.135	812795	keystroke_Key.space	Key.space	n/a
406.547	0.0755	813094	keystroke_n	n	n/a
406.712	0.09	813424	keystroke_o	o	n/a
406.967	0.046	813934	keystroke_b	b	n/a
407.1775	0.089	814355	keystroke_o	o	n/a
407.9125	0.104	815825	keystroke_d	d	n/a
408.0625	0.0755	816125	keystroke_y	y	n/a
408.1525	0.09	816305	keystroke_Key.space	Key.space	n/a
408.3175	0.09	816635	keystroke_w	w	n/a
408.422	0.09	816844	keystroke_o	o	n/a
408.7825	0.0745	817565	keystroke_Key.backspace	Key.backspace	n/a
408.932	0.06	817864	keystroke_Key.backspace	Key.backspace	n/a
409.0075	0.1045	818015	keystroke_a	a	n/a
409.173	0.059	818346	keystroke_m	m	n/a
409.352	0.0755	818704	keystroke_o	o	n/a
409.592	0.09	819184	keystroke_u	u	n/a
409.6375	0.1205	819275	keystroke_n	n	n/a
409.863	0.0895	819726	keystroke_t	t	n/a
409.982	0.1055	819964	keystroke_Key.enter	Key.enter	n/a
410.093	15.2665	820186	prompt	n/a	genealogy lessons malta laptops\n
410.9275	0.0745	821855	keystroke_g	g	n/a
411.077	0.091	822154	keystroke_e	e	n/a
412.112	0.09	824224	keystroke_n	n	n/a
412.3975	0.1355	824795	keystroke_e	e	n/a
412.5475	0.135	825095	keystroke_a	a	n/a
413.0425	0.075	826085	keystroke_l	l	n/a
413.3425	0.09	826685	keystroke_o	o	n/a
413.5525	0.075	827105	keystroke_g	g	n/a
413.7925	0.09	827585	keystroke_y	y	n/a
413.9125	0.105	827825	keystroke_Key.space	Key.space	n/a
414.2875	0.09	828575	keystroke_l	l	n/a
414.378	0.074	828756	keystroke_e	e	n/a
414.557	0.061	829114	keystroke_s	s	n/a
414.7225	0.06	829445	keystroke_s	s	n/a
414.8265	0.076	829653	keystroke_i	i	n/a
415.007	0.195	830014	keystroke_o	o	n/a
415.1425	0.105	830285	keystroke_n	n	n/a
415.217	0.1355	830434	keystroke_s	s	n/a
415.307	0.1205	830614	keystroke_Key.space	Key.space	n/a
415.472	0.0905	830944	keystroke_m	m	n/a
415.533	0.104	831066	keystroke_a	a	n/a
416.042	0.1055	832084	keystroke_t	t	n/a
416.448	0.089	832896	keystroke_Key.backspace	Key.backspace	n/a
416.6875	0.1045	833375	keystroke_l	l	n/a
416.7775	0.135	833555	keystroke_t	t	n/a
416.927	0.135	833854	keystroke_a	a	n/a
417.077	0.1355	834154	keystroke_Key.space	Key.space	n/a
417.8425	0.105	835685	keystroke_l	l	n/a
417.9925	0.1345	835985	keystroke_a	a	n/a
418.112	0.1055	836224	keystroke_p	p	n/a
418.353	0.0895	836706	keystroke_t	t	n/a
418.472	0.0905	836944	keystroke_o	o	n/a
418.6825	0.09	837365	keystroke_p	p	n/a
418.8925	0.0905	837785	keystroke_n	n	n/a
419.0275	0.1045	838055	keystroke_s	s	n/a
419.912	0.075	839824	keystroke_=	=	n/a
420.092	0.046	840184	keystroke_=	=	n/a
420.242	0.0305	840484	keystroke_=	=	n/a
420.7825	0.105	841565	keystroke_Key.backspace	Key.backspace	n/a
421.0675	0.105	842135	keystroke_Key.backspace	Key.backspace	n/a
421.2175	0.135	842435	keystroke_Key.backspace	Key.backspace	n/a
421.457	0.0595	842914	keystroke_Key.backspace	Key.backspace	n/a
421.6975	0.075	843395	keystroke_Key.backspace	Key.backspace	n/a
421.9675	0.1045	843935	keystroke_Key.backspace	Key.backspace	n/a
423.182	0.0755	846364	keystroke_p	p	n/a
423.2725	0.1195	846545	keystroke_s	s	n/a
425.237	0.12	850474	keystroke_Key.enter	Key.enter	n/a
425.365	12.804	850730	prompt	n/a	imagination myanmar agencies norm\n
426.093	0.134	852186	keystroke_i	i	n/a
426.1975	0.1195	852395	keystroke_m	m	n/a
426.333	0.104	852666	keystroke_a	a	n/a
426.5575	0.075	853115	keystroke_g	g	n/a
426.663	0.1195	853326	keystroke_i	i	n/a
426.7365	0.091	853473	keystroke_n	n	n/a
426.8415	0.106	853683	keystroke_a	a	n/a
427.0675	0.075	854135	keystroke_t	t	n/a
427.1275	0.0905	854255	keystroke_i	i	n/a
427.3375	0.09	854675	keystroke_o	o	n/a
427.4425	0.09	854885	keystroke_n	n	n/a
427.5475	0.09	855095	keystroke_Key.space	Key.space	n/a
427.6985	0.089	855397	keystroke_m	m	n/a
427.9975	0.09	855995	keystroke_y	y	n/a
428.3275	0.12	856655	keystroke_a	a	n/a
428.4625	0.1045	856925	keystroke_n	n	n/a
428.7625	0.09	857525	keystroke_m	m	n/a
428.8975	0.12	857795	keystroke_e	e	n/a
429.1675	0.105	858335	keystroke_r	r	n/a
429.6625	0.06	859325	keystroke_Key.backspace	Key.backspace	n/a
429.768	0.104	859536	keystroke_a	a	n/a
429.782	0.0605	859564	keystroke_Key.backspace	Key.backspace	n/a
429.9465	0.121	859893	keystroke_r	r	n/a
430.0375	0.15	860075	keystroke_Key.space	Key.space	n/a
431.9275	0.06	863855	keystroke_Key.backspace	Key.backspace	n/a
432.0775	0.03	864155	keystroke_Key.backspace	Key.backspace	n/a
432.2125	0.06	864425	keystroke_Key.backspace	Key.backspace	n/a
432.903	0.1045	865806	keystroke_a	a	n/a
433.067	0.1355	866134	keystroke_r	r	n/a
433.217	0.12	866434	keystroke_Key.space	Key.space	n/a
433.938	0.1345	867876	keystroke_a	a	n/a
434.2075	0.09	868415	keystroke_n	n	n/a
434.3125	0.105	868625	keystroke_e	e	n/a
434.4925	0.075	868985	keystroke_n	n	n/a
435.1675	0.03	870335	keystroke_=	=	n/a
435.3175	0.045	870635	keystroke_Key.backspace	Key.backspace	n/a
435.422	0.0905	870844	keystroke_Key.backspace	Key.backspace	n/a
435.572	0.075	871144	keystroke_Key.backspace	Key.backspace	n/a
435.7075	0.0745	871415	keystroke_Key.backspace	Key.backspace	n/a
435.8725	0.0745	871745	keystroke_g	g	n/a
435.9925	0.1355	871985	keystroke_e	e	n/a
436.142	0.09	872284	keystroke_n	n	n/a
436.3975	0.0905	872795	keystroke_c	c	n/a
436.562	0.0905	873124	keystroke_i	i	n/a
436.7125	0.165	873425	keystroke_e	e	n/a
436.8925	0.1205	873785	keystroke_s	s	n/a
436.9975	0.12	873995	keystroke_Key.space	Key.space	n/a
437.4775	0.075	874955	keystroke_n	n	n/a
437.6725	0.105	875345	keystroke_o	o	n/a
437.7625	0.105	875525	keystroke_r	r	n/a
437.9125	0.09	875825	keystroke_m	m	n/a
438.0625	0.105	876125	keystroke_Key.enter	Key.enter	n/a
438.1735	10.856	876347	prompt	n/a	possibly creative madagascar select\n
438.767	0.09	877534	keystroke_p	p	n/a
439.007	0.0755	878014	keystroke_o	o	n/a
439.1575	0.0755	878315	keystroke_s	s	n/a
439.2925	0.0905	878585	keystroke_s	s	n/a
439.427	0.0905	878854	keystroke_i	i	n/a
439.697	0.105	879394	keystroke_b	b	n/a
439.8775	0.104	879755	keystroke_l	l	n/a
440.1775	0.09	880355	keystroke_y	y	n/a
440.2525	0.105	880505	keystroke_Key.space	Key.space	n/a
440.5675	0.075	881135	keystroke_c	c	n/a
440.8225	0.135	881645	keystroke_r	r	n/a
440.9425	0.12	881885	keystroke_e	e	n/a
441.0475	0.105	882095	keystroke_a	a	n/a
441.3775	0.09	882755	keystroke_t	t	n/a
441.5425	0.105	883085	keystroke_i	i	n/a
441.828	0.0135	883656	keystroke_v	v	n/a
441.9475	0.089	883895	keystroke_e	e	n/a
442.007	0.1195	884014	keystroke_Key.space	Key.space	n/a
442.2175	0.09	884435	keystroke_m	m	n/a
442.2925	0.12	884585	keystroke_a	a	n/a
442.4275	0.135	884855	keystroke_d	d	n/a
442.5925	0.1205	885185	keystroke_a	a	n/a
442.9815	0.136	885963	keystroke_s	s	n/a
443.9425	0.075	887885	keystroke_Key.backspace	Key.backspace	n/a
445.2925	0.1045	890585	keystroke_g	g	n/a
445.457	0.1505	890914	keystroke_a	a	n/a
445.7425	0.105	891485	keystroke_s	s	n/a
446.342	0.0905	892684	keystroke_c	c	n/a
446.597	0.105	893194	keystroke_a	a	n/a
446.778	0.119	893556	keystroke_r	r	n/a
446.912	0.09	893824	keystroke_Key.space	Key.space	n/a
447.227	0.09	894454	keystroke_a	a	n/a
447.6175	0.105	895235	keystroke_Key.backspace	Key.backspace	n/a
447.708	0.0595	895416	keystroke_s	s	n/a
447.8425	0.075	895685	keystroke_e	e	n/a
447.9625	0.075	895925	keystroke_l	l	n/a
448.0075	0.09	896015	keystroke_e	e	n/a
448.308	0.0895	896616	keystroke_c	c	n/a
448.6225	0.075	897245	keystroke_t	t	n/a
448.922	0.1055	897844	keystroke_Key.enter	Key.enter	n/a
449.0335	7.4205	898067	prompt	n/a	vehicles instrumental disclose playback\n
449.7475	0.0905	899495	keystroke_v	v	n/a
450.1675	0.135	900335	keystroke_e	e	n/a
450.4525	0.0895	900905	keystroke_h	h	n/a
450.6775	0.12	901355	keystroke_i	i	n/a
450.8425	0.105	901685	keystroke_c	c	n/a
451.052	0.1205	902104	keystroke_l	l	n/a
451.2475	0.15	902495	keystroke_e	e	n/a
451.382	0.135	902764	keystroke_s	s	n/a
451.472	0.1205	902944	keystroke_Key.space	Key.space	n/a
451.727	0.091	903454	keystroke_i	i	n/a
451.772	0.121	903544	keystroke_n	n	n/a
451.878	0.075	903756	keystroke_s	s	n/a
452.0575	0.0895	904115	keystroke_t	t	n/a
452.148	0.1045	904296	keystroke_r	r	n/a
452.283	0.0895	904566	keystroke_u	u	n/a
452.6725	0.09	905345	keystroke_m	m	n/a
452.7775	0.09	905555	keystroke_e	e	n/a
452.898	0.0745	905796	keystroke_n	n	n/a
453.0025	0.1055	906005	keystroke_t	t	n/a
453.1675	0.135	906335	keystroke_a	a	n/a
453.273	0.089	906546	keystroke_l	l	n/a
453.3625	0.105	906725	keystroke_Key.space	Key.space	n/a
453.843	0.105	907686	keystroke_d	d	n/a
453.9625	0.1055	907925	keystroke_i	i	n/a
454.0825	0.074	908165	keystroke_s	s	n/a
454.2775	0.105	908555	keystroke_c	c	n/a
454.4425	0.105	908885	keystroke_l	l	n/a
454.652	0.09	909304	keystroke_o	o	n/a
454.728	0.105	909456	keystroke_s	s	n/a
454.862	0.165	909724	keystroke_e	e	n/a
454.9525	0.15	909905	keystroke_Key.space	Key.space	n/a
455.132	0.106	910264	keystroke_p	p	n/a
455.2975	0.12	910595	keystroke_l	l	n/a
455.432	0.105	910864	keystroke_a	a	n/a
455.627	0.0905	911254	keystroke_y	y	n/a
455.852	0.075	911704	keystroke_b	b	n/a
455.942	0.0905	911884	keystroke_a	a	n/a
456.0925	0.12	912185	keystroke_c	c	n/a
456.1675	0.105	912335	keystroke_k	k	n/a
456.3625	0.09	912725	keystroke_Key.enter	Key.enter	n/a
456.459	7	912918	prompt	n/a	systems duck alliance thermal\n
457.0225	0.089	914045	keystroke_s	s	n/a
457.1875	0.1045	914375	keystroke_u	u	n/a
457.2625	0.15	914525	keystroke_s	s	n/a
457.562	0.0605	915124	keystroke_t	t	n/a
457.832	0.075	915664	keystroke_Key.backspace	Key.backspace	n/a
457.9675	0.0745	915935	keystroke_Key.backspace	Key.backspace	n/a
458.3275	0.0745	916655	keystroke_y	y	n/a
458.672	0.0755	917344	keystroke_Key.backspace	Key.backspace	n/a
458.7925	0.059	917585	keystroke_Key.backspace	Key.backspace	n/a
459.0475	0.09	918095	keystroke_y	y	n/a
459.1225	0.105	918245	keystroke_s	s	n/a
459.3325	0.135	918665	keystroke_t	t	n/a
459.4825	0.105	918965	keystroke_e	e	n/a
459.5575	0.105	919115	keystroke_m	m	n/a
459.7525	0.105	919505	keystroke_s	s	n/a
459.8425	0.135	919685	keystroke_Key.space	Key.space	n/a
460.188	0.12	920376	keystroke_d	d	n/a
460.322	0.09	920644	keystroke_u	u	n/a
460.442	0.121	920884	keystroke_c	c	n/a
460.578	0.074	921156	keystroke_k	k	n/a
460.622	0.12	921244	keystroke_Key.space	Key.space	n/a
460.773	0.12	921546	keystroke_a	a	n/a
460.877	0.045	921754	keystroke_l	l	n/a
460.967	0.0755	921934	keystroke_l	l	n/a
461.148	0.09	922296	keystroke_i	i	n/a
461.253	0.1045	922506	keystroke_a	a	n/a
461.3875	0.1345	922775	keystroke_n	n	n/a
461.477	0.09	922954	keystroke_c	c	n/a
461.6875	0.1195	923375	keystroke_e	e	n/a
461.7475	0.135	923495	keystroke_Key.space	Key.space	n/a
461.9725	0.09	923945	keystroke_t	t	n/a
462.2275	0.09	924455	keystroke_h	h	n/a
462.4675	0.2245	924935	keystroke_e	e	n/a
462.6625	0.1045	925325	keystroke_r	r	n/a
462.872	0.06	925744	keystroke_m	m	n/a
463.0075	0.135	926015	keystroke_a	a	n/a
463.158	0.104	926316	keystroke_l	l	n/a
463.367	0.0905	926734	keystroke_Key.enter	Key.enter	n/a
463.4635	6.402	926927	prompt	n/a	central indexed spaces gonna\n
464.1625	0.09	928325	keystroke_c	c	n/a
464.3575	0.105	928715	keystroke_e	e	n/a
464.4625	0.075	928925	keystroke_n	n	n/a
464.5675	0.12	929135	keystroke_t	t	n/a
465.0325	0.1045	930065	keystroke_r	r	n/a
465.182	0.166	930364	keystroke_a	a	n/a
465.3325	0.105	930665	keystroke_l	l	n/a
465.4525	0.1045	930905	keystroke_Key.space	Key.space	n/a
465.6775	0.09	931355	keystroke_i	i	n/a
466.157	0.12	932314	keystroke_n	n	n/a
466.352	0.121	932704	keystroke_d	d	n/a
466.6375	0.075	933275	keystroke_e	e	n/a
466.9375	0.135	933875	keystroke_x	x	n/a
467.2525	0.0745	934505	keystroke_e	e	n/a
467.4475	0.1195	934895	keystroke_d	d	n/a
467.612	0.0755	935224	keystroke_Key.space	Key.space	n/a
467.8825	0.12	935765	keystroke_s	s	n/a
468.0175	0.1045	936035	keystroke_p	p	n/a
468.1975	0.0905	936395	keystroke_a	a	n/a
468.3775	0.105	936755	keystroke_c	c	n/a
468.6925	0.075	937385	keystroke_e	e	n/a
468.7525	0.165	937505	keystroke_s	s	n/a
468.8875	0.12	937775	keystroke_Key.space	Key.space	n/a
469.1275	0.075	938255	keystroke_g	g	n/a
469.2475	0.075	938495	keystroke_o	o	n/a
469.4125	0.075	938825	keystroke_n	n	n/a
469.5475	0.075	939095	keystroke_n	n	n/a
469.6525	0.105	939305	keystroke_a	a	n/a
469.758	0.1045	939516	keystroke_Key.enter	Key.enter	n/a
469.8705	10.3735	939741	prompt	n/a	branch tampa columbus configuration\n
470.508	0.0745	941016	keystroke_b	b	n/a
470.5975	0.135	941195	keystroke_r	r	n/a
470.7475	0.1205	941495	keystroke_e	e	n/a
470.9725	0.12	941945	keystroke_a	a	n/a
471.3175	0.0745	942635	keystroke_Key.backspace	Key.backspace	n/a
471.437	0.0755	942874	keystroke_Key.backspace	Key.backspace	n/a
471.5275	0.105	943055	keystroke_a	a	n/a
471.6925	0.09	943385	keystroke_n	n	n/a
471.8275	0.1055	943655	keystroke_c	c	n/a
471.978	0.0745	943956	keystroke_h	h	n/a
472.0985	0.104	944197	keystroke_Key.space	Key.space	n/a
472.4425	0.105	944885	keystroke_t	t	n/a
472.6675	0.135	945335	keystroke_a	a	n/a
472.7875	0.09	945575	keystroke_m	m	n/a
472.998	0.1045	945996	keystroke_p	p	n/a
473.1625	0.105	946325	keystroke_a	a	n/a
473.3125	0.12	946625	keystroke_Key.space	Key.space	n/a
473.8225	0.105	947645	keystroke_c	c	n/a
473.9425	0.075	947885	keystroke_o	o	n/a
474.137	0.0905	948274	keystroke_l	l	n/a
474.467	0.106	948934	keystroke_u	u	n/a
474.7225	0.0905	949445	keystroke_m	m	n/a
475.0225	0.075	950045	keystroke_b	b	n/a
475.1875	0.09	950375	keystroke_u	u	n/a
475.2925	0.105	950585	keystroke_s	s	n/a
475.5015	0.12	951003	keystroke_Key.space	Key.space	n/a
476.1025	0.089	952205	keystroke_c	c	n/a
476.267	0.12	952534	keystroke_o	o	n/a
476.327	0.03	952654	keystroke_l	l	n/a
476.417	0.0755	952834	keystroke_n	n	n/a
476.5375	0.105	953075	keystroke_f	f	n/a
477.0775	0.0745	954155	keystroke_Key.backspace	Key.backspace	n/a
477.2125	0.074	954425	keystroke_Key.backspace	Key.backspace	n/a
477.6325	0.075	955265	keystroke_Key.backspace	Key.backspace	n/a
477.9025	0.0755	955805	keystroke_n	n	n/a
478.143	0.0745	956286	keystroke_f	f	n/a
478.2775	0.105	956555	keystroke_i	i	n/a
478.923	0.074	957846	keystroke_g	g	n/a
479.013	0.0895	958026	keystroke_u	u	n/a
479.2375	0.12	958475	keystroke_r	r	n/a
479.3875	0.1505	958775	keystroke_a	a	n/a
479.5825	0.075	959165	keystroke_t	t	n/a
479.6725	0.09	959345	keystroke_i	i	n/a
479.868	0.1345	959736	keystroke_o	o	n/a
479.973	0.0745	959946	keystroke_n	n	n/a
480.1525	0.09	960305	keystroke_Key.enter	Key.enter	n/a
480.249	5.2155	960498	prompt	n/a	interfaces leaf cage disorder\n
481.0075	0.1195	962015	keystroke_i	i	n/a
481.0975	0.1355	962195	keystroke_n	n	n/a
481.218	0.074	962436	keystroke_t	t	n/a
481.3225	0.1645	962645	keystroke_e	e	n/a
481.442	0.1055	962884	keystroke_r	r	n/a
481.6825	0.105	963365	keystroke_f	f	n/a
481.7725	0.12	963545	keystroke_a	a	n/a
481.9675	0.09	963935	keystroke_c	c	n/a
482.1925	0.15	964385	keystroke_e	e	n/a
482.3275	0.12	964655	keystroke_s	s	n/a
482.4025	0.1195	964805	keystroke_Key.space	Key.space	n/a
482.583	0.12	965166	keystroke_l	l	n/a
482.6425	0.1205	965285	keystroke_e	e	n/a
482.867	0.136	965734	keystroke_a	a	n/a
483.0175	0.12	966035	keystroke_f	f	n/a
483.138	0.1195	966276	keystroke_Key.space	Key.space	n/a
483.4225	0.105	966845	keystroke_c	c	n/a
483.573	0.0895	967146	keystroke_a	a	n/a
483.7675	0.12	967535	keystroke_g	g	n/a
483.888	0.1345	967776	keystroke_e	e	n/a
483.9925	0.12	967985	keystroke_Key.space	Key.space	n/a
484.1725	0.12	968345	keystroke_d	d	n/a
484.3225	0.09	968645	keystroke_i	i	n/a
484.4275	0.105	968855	keystroke_s	s	n/a
484.622	0.09	969244	keystroke_o	o	n/a
484.742	0.075	969484	keystroke_r	r	n/a
484.937	0.0905	969874	keystroke_d	d	n/a
485.102	0.12	970204	keystroke_e	e	n/a
485.237	0.12	970474	keystroke_r	r	n/a
485.3425	0.1195	970685	keystroke_Key.enter	Key.enter	n/a
485.478	9.046	970956	prompt	n/a	ralph safely jelsoft craps\n
486.2715	0.106	972543	keystroke_r	r	n/a
486.4375	0.12	972875	keystroke_a	a	n/a
486.5725	0.075	973145	keystroke_p	p	n/a
488.117	0.06	976234	keystroke_Key.backspace	Key.backspace	n/a
488.3425	0.0445	976685	keystroke_l	l	n/a
488.553	0.104	977106	keystroke_p	p	n/a
488.837	0.075	977674	keystroke_h	h	n/a
489.0175	0.1045	978035	keystroke_Key.space	Key.space	n/a
489.257	0.046	978514	keystroke_s	s	n/a
489.677	0.0755	979354	keystroke_Key.backspace	Key.backspace	n/a
489.9025	0.09	979805	keystroke_s	s	n/a
490.0975	0.09	980195	keystroke_a	a	n/a
490.5475	0.12	981095	keystroke_e	e	n/a
490.9075	0.075	981815	keystroke_Key.backspace	Key.backspace	n/a
490.9675	0.165	981935	keystroke_f	f	n/a
491.088	0.119	982176	keystroke_e	e	n/a
491.268	0.1045	982536	keystroke_l	l	n/a
491.507	0.1055	983014	keystroke_y	y	n/a
491.582	0.1195	983164	keystroke_Key.space	Key.space	n/a
492.003	0.105	984006	keystroke_j	j	n/a
492.212	0.105	984424	keystroke_e	e	n/a
492.348	0.119	984696	keystroke_l	l	n/a
492.527	0.106	985054	keystroke_s	s	n/a
492.647	0.1055	985294	keystroke_o	o	n/a
492.7975	0.09	985595	keystroke_f	f	n/a
493.0525	0.105	986105	keystroke_t	t	n/a
493.1275	0.12	986255	keystroke_Key.space	Key.space	n/a
493.472	0.09	986944	keystroke_c	c	n/a
493.727	0.0755	987454	keystroke_r	r	n/a
493.8175	0.1045	987635	keystroke_a	a	n/a
493.9375	0.105	987875	keystroke_p	p	n/a
494.057	0.12	988114	keystroke_s	s	n/a
494.402	0.12	988804	keystroke_Key.enter	Key.enter	n/a
494.5275	4.9775	989055	prompt	n/a	training thee examines permits\n
495.213	0.1045	990426	keystroke_t	t	n/a
495.3625	0.12	990725	keystroke_r	r	n/a
495.4975	0.12	990995	keystroke_a	a	n/a
495.6475	0.0755	991295	keystroke_i	i	n/a
495.7075	0.089	991415	keystroke_n	n	n/a
495.8275	0.1205	991655	keystroke_i	i	n/a
495.9165	0.106	991833	keystroke_n	n	n/a
496.0515	0.106	992103	keystroke_g	g	n/a
496.127	0.1345	992254	keystroke_Key.space	Key.space	n/a
496.3525	0.09	992705	keystroke_t	t	n/a
496.4575	0.075	992915	keystroke_h	h	n/a
496.607	0.09	993214	keystroke_e	e	n/a
496.7725	0.135	993545	keystroke_e	e	n/a
496.8625	0.12	993725	keystroke_Key.space	Key.space	n/a
497.0715	0.091	994143	keystroke_e	e	n/a
497.3275	0.135	994655	keystroke_x	x	n/a
497.5975	0.09	995195	keystroke_a	a	n/a
497.7475	0.075	995495	keystroke_m	m	n/a
497.9725	0.135	995945	keystroke_i	i	n/a
498.0775	0.0905	996155	keystroke_n	n	n/a
498.153	0.1345	996306	keystroke_e	e	n/a
498.257	0.15	996514	keystroke_s	s	n/a
498.347	0.135	996694	keystroke_Key.space	Key.space	n/a
498.557	0.106	997114	keystroke_p	p	n/a
498.632	0.15	997264	keystroke_e	e	n/a
498.752	0.1055	997504	keystroke_r	r	n/a
498.8875	0.0895	997775	keystroke_m	m	n/a
499.0825	0.0895	998165	keystroke_i	i	n/a
499.172	0.1055	998344	keystroke_t	t	n/a
499.3225	0.105	998645	keystroke_s	s	n/a
499.3825	0.1195	998765	keystroke_Key.enter	Key.enter	n/a
499.519	10.71	999038	prompt	n/a	relying pregnancy implementing highs\n
500.3425	0.1055	1000685	keystroke_r	r	n/a
500.462	0.09	1000924	keystroke_e	e	n/a
500.5375	0.1645	1001075	keystroke_p	p	n/a
500.657	0.1205	1001314	keystroke_l	l	n/a
500.8375	0.105	1001675	keystroke_y	y	n/a
501.1215	0.105	1002243	keystroke_i	i	n/a
501.497	0.0605	1002994	keystroke_Key.backspace	Key.backspace	n/a
501.6325	0.059	1003265	keystroke_Key.backspace	Key.backspace	n/a
501.767	0.0595	1003534	keystroke_Key.backspace	Key.backspace	n/a
501.8715	0.061	1003743	keystroke_Key.backspace	Key.backspace	n/a
502.1425	0.075	1004285	keystroke_l	l	n/a
502.2775	0.0905	1004555	keystroke_y	y	n/a
502.5015	0.136	1005003	keystroke_i	i	n/a
502.6075	0.119	1005215	keystroke_n	n	n/a
502.7425	0.105	1005485	keystroke_g	g	n/a
502.8015	0.12	1005603	keystroke_Key.space	Key.space	n/a
503.0275	0.075	1006055	keystroke_p	p	n/a
503.0875	0.12	1006175	keystroke_e	e	n/a
503.1915	0.09	1006383	keystroke_r	r	n/a
503.687	0.075	1007374	keystroke_g	g	n/a
504.077	0.075	1008154	keystroke_Key.backspace	Key.backspace	n/a
504.227	0.0605	1008454	keystroke_Key.backspace	Key.backspace	n/a
504.3475	0.0745	1008695	keystroke_Key.backspace	Key.backspace	n/a
504.407	0.15	1008814	keystroke_r	r	n/a
504.558	0.074	1009116	keystroke_e	e	n/a
505.0825	0.045	1010165	keystroke_g	g	n/a
505.367	0.075	1010734	keystroke_n	n	n/a
505.457	0.1205	1010914	keystroke_a	a	n/a
506.1025	0.1195	1012205	keystroke_n	n	n/a
506.5975	0.075	1013195	keystroke_c	c	n/a
506.6725	0.09	1013345	keystroke_y	y	n/a
506.8225	0.12	1013645	keystroke_Key.space	Key.space	n/a
507.5575	0.1045	1015115	keystroke_i	i	n/a
507.6025	0.1195	1015205	keystroke_m	m	n/a
507.857	0.166	1015714	keystroke_p	p	n/a
507.9775	0.09	1015955	keystroke_l	l	n/a
508.0675	0.0895	1016135	keystroke_e	e	n/a
508.383	0.075	1016766	keystroke_m	m	n/a
508.4875	0.09	1016975	keystroke_e	e	n/a
508.6525	0.075	1017305	keystroke_n	n	n/a
508.757	0.0755	1017514	keystroke_t	t	n/a
508.9525	0.0905	1017905	keystroke_i	i	n/a
509.027	0.09	1018054	keystroke_n	n	n/a
509.132	0.12	1018264	keystroke_g	g	n/a
509.207	0.12	1018414	keystroke_Key.space	Key.space	n/a
509.5675	0.0445	1019135	keystroke_h	h	n/a
509.687	0.0755	1019374	keystroke_i	i	n/a
509.7925	0.09	1019585	keystroke_g	g	n/a
509.8975	0.075	1019795	keystroke_h	h	n/a
510.017	0.1055	1020034	keystroke_s	s	n/a
510.1375	0.0895	1020275	keystroke_Key.enter	Key.enter	n/a
510.234	8.77	1020468	prompt	n/a	deaf folder functioning tiffany\n
510.903	0.1195	1021806	keystroke_d	d	n/a
511.1275	0.105	1022255	keystroke_e	e	n/a
511.2475	0.135	1022495	keystroke_a	a	n/a
511.3525	0.15	1022705	keystroke_f	f	n/a
511.4875	0.105	1022975	keystroke_Key.space	Key.space	n/a
511.7425	0.1195	1023485	keystroke_f	f	n/a
512.4925	0.0905	1024985	keystroke_o	o	n/a
512.7175	0.09	1025435	keystroke_d	d	n/a
513.137	0.0755	1026274	keystroke_Key.backspace	Key.backspace	n/a
513.3475	0.09	1026695	keystroke_l	l	n/a
513.4225	0.0895	1026845	keystroke_d	d	n/a
513.6625	0.15	1027325	keystroke_e	e	n/a
513.7975	0.12	1027595	keystroke_r	r	n/a
513.8725	0.104	1027745	keystroke_Key.space	Key.space	n/a
514.0975	0.0905	1028195	keystroke_f	f	n/a
514.2315	0.075	1028463	keystroke_o	o	n/a
514.4875	0.0745	1028975	keystroke_u	u	n/a
514.532	0.1355	1029064	keystroke_n	n	n/a
515.222	0.03	1030444	keystroke_Key.backspace	Key.backspace	n/a
515.357	0.045	1030714	keystroke_Key.backspace	Key.backspace	n/a
515.477	0.06	1030954	keystroke_Key.backspace	Key.backspace	n/a
515.778	0.1045	1031556	keystroke_u	u	n/a
515.8375	0.105	1031675	keystroke_n	n	n/a
515.9875	0.104	1031975	keystroke_c	c	n/a
516.4675	0.045	1032935	keystroke_t	t	n/a
516.557	0.06	1033114	keystroke_i	i	n/a
516.8575	0.135	1033715	keystroke_o	o	n/a
517.082	0.1205	1034164	keystroke_n	n	n/a
517.307	0.1205	1034614	keystroke_i	i	n/a
517.382	0.12	1034764	keystroke_n	n	n/a
517.487	0.151	1034974	keystroke_g	g	n/a
517.577	0.1355	1035154	keystroke_Key.space	Key.space	n/a
518.0415	0.091	1036083	keystroke_t	t	n/a
518.1175	0.09	1036235	keystroke_i	i	n/a
518.2375	0.075	1036475	keystroke_f	f	n/a
518.3575	0.135	1036715	keystroke_f	f	n/a
518.4775	0.12	1036955	keystroke_a	a	n/a
518.5975	0.12	1037195	keystroke_n	n	n/a
518.7765	0.076	1037553	keystroke_y	y	n/a
518.9125	0.09	1037825	keystroke_Key.enter	Key.enter	n/a
519.0085	6.745	1038017	prompt	n/a	sean lots conditions abandoned\n
519.5875	0.105	1039175	keystroke_s	s	n/a
519.7525	0.12	1039505	keystroke_e	e	n/a
519.8725	0.15	1039745	keystroke_a	a	n/a
520.157	0.09	1040314	keystroke_n	n	n/a
520.262	0.1055	1040524	keystroke_Key.space	Key.space	n/a
520.5175	0.1195	1041035	keystroke_l	l	n/a
520.7425	0.0755	1041485	keystroke_o	o	n/a
520.8925	0.1045	1041785	keystroke_t	t	n/a
521.012	0.1355	1042024	keystroke_s	s	n/a
521.0875	0.1195	1042175	keystroke_Key.space	Key.space	n/a
521.3875	0.12	1042775	keystroke_c	c	n/a
