onset	duration	sample	value	key	prompt_text
6.186	20.424	12372	prompt	n/a	the quick brown fox jumps over a lazy dog\n
14.5645	0.058	29129	keystroke_t	t	n/a
14.6075	0.105	29215	keystroke_h	h	n/a
14.7275	0.12	29455	keystroke_e	e	n/a
14.8325	0.12	29665	keystroke_Key.space	Key.space	n/a
15.7475	0.105	31495	keystroke_q	q	n/a
15.9125	0.105	31825	keystroke_u	u	n/a
16.1375	0.075	32275	keystroke_i	i	n/a
16.3325	0.015	32665	keystroke_n	n	n/a
16.7525	0.06	33505	keystroke_Key.backspace	Key.backspace	n/a
16.9025	0.12	33805	keystroke_c	c	n/a
17.0975	0.09	34195	keystroke_k	k	n/a
17.3075	0.09	34615	keystroke_Key.space	Key.space	n/a
17.5775	0.075	35155	keystroke_b	b	n/a
17.7575	0.12	35515	keystroke_r	r	n/a
18.1475	0.105	36295	keystroke_o	o	n/a
18.4625	0.015	36925	keystroke_w	w	n/a
18.9125	0.075	37825	keystroke_n	n	n/a
19.0475	0.135	38095	keystroke_Key.space	Key.space	n/a
19.2575	0.105	38515	keystroke_f	f	n/a
19.3775	0.12	38755	keystroke_o	o	n/a
19.6775	0.12	39355	keystroke_x	x	n/a
19.8575	0.12	39715	keystroke_Key.space	Key.space	n/a
20.1725	0.075	40345	keystroke_j	j	n/a
20.3525	0.09	40705	keystroke_u	u	n/a
20.5925	0.12	41185	keystroke_m	m	n/a
20.7275	0.12	41455	keystroke_p	p	n/a
21.1025	0.135	42205	keystroke_s	s	n/a
21.2675	0.12	42535	keystroke_Key.space	Key.space	n/a
21.5525	0.105	43105	keystroke_o	o	n/a
21.8525	0.09	43705	keystroke_v	v	n/a
22.0025	0.195	44005	keystroke_e	e	n/a
22.1225	0.12	44245	keystroke_r	r	n/a
22.3175	0.12	44635	keystroke_Key.space	Key.space	n/a
22.4525	0.135	44905	keystroke_a	a	n/a
22.6175	0.135	45235	keystroke_Key.space	Key.space	n/a
23.2925	0.105	46585	keystroke_l	l	n/a
23.3975	0.12	46795	keystroke_a	a	n/a
23.7275	0.12	47455	keystroke_x	x	n/a
23.9675	0.075	47935	keystroke_y	y	n/a
24.6875	0.075	49375	keystroke_Key.backspace	Key.backspace	n/a
24.8675	0.09	49735	keystroke_Key.backspace	Key.backspace	n/a
25.0025	0.135	50005	keystroke_z	z	n/a
25.1675	0.09	50335	keystroke_y	y	n/a
25.3925	0.105	50785	keystroke_Key.space	Key.space	n/a
25.9625	0.135	51925	keystroke_d	d	n/a
26.0825	0.12	52165	keystroke_o	o	n/a
26.2625	0.12	52525	keystroke_g	g	n/a
26.5325	0.075	53065	keystroke_Key.enter	Key.enter	n/a
26.614	6.73	53228	prompt	n/a	crop not largely tenant\n
27.6875	0.12	55375	keystroke_c	c	n/a
27.8675	0.12	55735	keystroke_r	r	n/a
28.0775	0.105	56155	keystroke_o	o	n/a
28.3025	0.09	56605	keystroke_p	p	n/a
28.4975	0.1195	56995	keystroke_Key.space	Key.space	n/a
28.722	0.105	57444	keystroke_n	n	n/a
28.917	0.075	57834	keystroke_o	o	n/a
29.083	0.075	58166	keystroke_t	t	n/a
29.217	0.105	58434	keystroke_Key.space	Key.space	n/a
29.487	0.105	58974	keystroke_l	l	n/a
29.608	0.179	59216	keystroke_a	a	n/a
29.772	0.09	59544	keystroke_r	r	n/a
30.087	0.105	60174	keystroke_e	e	n/a
30.582	0.075	61164	keystroke_Key.backspace	Key.backspace	n/a
30.627	0.165	61254	keystroke_g	g	n/a
30.748	0.135	61496	keystroke_e	e	n/a
30.913	0.104	61826	keystroke_l	l	n/a
31.303	0.074	62606	keystroke_y	y	n/a
31.827	0.09	63654	keystroke_Key.space	Key.space	n/a
32.202	0.09	64404	keystroke_t	t	n/a
32.262	0.135	64524	keystroke_e	e	n/a
32.443	0.09	64886	keystroke_n	n	n/a
32.592	0.12	65184	keystroke_a	a	n/a
32.772	0.09	65544	keystroke_n	n	n/a
33.027	0.091	66054	keystroke_t	t	n/a
33.267	0.075	66534	keystroke_Key.enter	Key.enter	n/a
33.3485	10.601	66697	prompt	n/a	therapy libs enforcement contractor\n
34.363	0.104	68726	keystroke_t	t	n/a
34.452	0.09	68904	keystroke_h	h	n/a
34.633	0.164	69266	keystroke_e	e	n/a
34.977	0.135	69954	keystroke_r	r	n/a
35.113	0.134	70226	keystroke_a	a	n/a
35.547	0.106	71094	keystroke_p	p	n/a
35.817	0.105	71634	keystroke_y	y	n/a
36.102	0.12	72204	keystroke_Key.space	Key.space	n/a
36.342	0.12	72684	keystroke_l	l	n/a
36.567	0.06	73134	keystroke_o	o	n/a
37.122	0.075	74244	keystroke_Key.backspace	Key.backspace	n/a
37.363	0.089	74726	keystroke_i	i	n/a
37.587	0.075	75174	keystroke_b	b	n/a
37.783	0.119	75566	keystroke_s	s	n/a
37.932	0.105	75864	keystroke_Key.space	Key.space	n/a
38.428	0.119	76856	keystroke_e	e	n/a
38.562	0.075	77124	keystroke_n	n	n/a
38.937	0.09	77874	keystroke_f	f	n/a
39.058	0.089	78116	keystroke_o	o	n/a
39.133	0.12	78266	keystroke_r	r	n/a
39.538	0.12	79076	keystroke_c	c	n/a
39.747	0.105	79494	keystroke_e	e	n/a
40.018	0.104	80036	keystroke_m	m	n/a
40.183	0.12	80366	keystroke_e	e	n/a
40.288	0.074	80576	keystroke_n	n	n/a
40.422	0.105	80844	keystroke_t	t	n/a
41.262	0.12	82524	keystroke_Key.space	Key.space	n/a
41.487	0.135	82974	keystroke_c	c	n/a
41.608	0.119	83216	keystroke_o	o	n/a
41.817	0.075	83634	keystroke_n	n	n/a
41.997	0.136	83994	keystroke_t	t	n/a
42.087	0.181	84174	keystroke_r	r	n/a
42.237	0.105	84474	keystroke_a	a	n/a
42.658	0.104	85316	keystroke_c	c	n/a
42.897	0.106	85794	keystroke_t	t	n/a
43.138	0.089	86276	keystroke_o	o	n/a
43.302	0.09	86604	keystroke_r	r	n/a
43.497	0.105	86994	keystroke_Key.space	Key.space	n/a
43.872	0.075	87744	keystroke_Key.enter	Key.enter	n/a
43.9525	13.3175	87905	prompt	n/a	debian i'm translator generator\n
44.892	0.075	89784	keystroke_d	d	n/a
45.088	0.059	90176	keystroke_e	e	n/a
45.658	0.059	91316	keystroke_b	b	n/a
45.808	0.089	91616	keystroke_i	i	n/a
45.958	0.134	91916	keystroke_a	a	n/a
46.138	0.06	92276	keystroke_n	n	n/a
48.0275	0.18	96055	keystroke_Key.space	Key.space	n/a
48.3875	0.06	96775	keystroke_i	i	n/a
49.1525	0.12	98305	keystroke_'	'	n/a
50.3685	0.075	100737	keystroke_m	m	n/a
50.5775	0.09	101155	keystroke_Key.space	Key.space	n/a
50.9235	0.15	101847	keystroke_t	t	n/a
51.0285	0.15	102057	keystroke_r	r	n/a
51.1475	0.15	102295	keystroke_a	a	n/a
51.3125	0.091	102625	keystroke_n	n	n/a
51.6285	0.12	103257	keystroke_s	s	n/a
51.7635	0.09	103527	keystroke_l	l	n/a
51.9135	0.149	103827	keystroke_a	a	n/a
52.2735	0.105	104547	keystroke_t	t	n/a
52.3935	0.12	104787	keystroke_o	o	n/a
52.5585	0.12	105117	keystroke_r	r	n/a
52.8135	0.105	105627	keystroke_Key.space	Key.space	n/a
53.5635	0.12	107127	keystroke_g	g	n/a
53.6685	0.105	107337	keystroke_e	e	n/a
53.8625	0.106	107725	keystroke_n	n	n/a
54.0125	0.106	108025	keystroke_e	e	n/a
55.7085	0.15	111417	keystroke_r	r	n/a
55.8135	0.135	111627	keystroke_a	a	n/a
56.6675	0.076	113335	keystroke_t	t	n/a
56.7585	0.09	113517	keystroke_o	o	n/a
56.9085	0.09	113817	keystroke_r	r	n/a
57.1925	0.076	114385	keystroke_Key.enter	Key.enter	n/a
57.273	14.6815	114546	prompt	n/a	arkansas provided collective how's\n
58.4075	0.166	116815	keystroke_a	a	n/a
58.5735	0.105	117147	keystroke_r	r	n/a
59.1735	0.074	118347	keystroke_k	k	n/a
59.2785	0.135	118557	keystroke_a	a	n/a
59.4585	0.09	118917	keystroke_n	n	n/a
59.9985	0.15	119997	keystroke_s	s	n/a
60.1335	0.12	120267	keystroke_a	a	n/a
60.4335	0.12	120867	keystroke_s	s	n/a
60.6875	0.121	121375	keystroke_Key.space	Key.space	n/a
60.9285	0.075	121857	keystroke_p	p	n/a
61.0785	0.09	122157	keystroke_r	r	n/a
61.2735	0.105	122547	keystroke_o	o	n/a
61.6035	0.105	123207	keystroke_v	v	n/a
61.7685	0.09	123537	keystroke_e	e	n/a
62.2485	0.074	124497	keystroke_Key.backspace	Key.backspace	n/a
62.4735	0.09	124947	keystroke_i	i	n/a
62.6535	0.105	125307	keystroke_d	d	n/a
63.3285	0.075	126657	keystroke_e	e	n/a
63.5535	0.075	127107	keystroke_d	d	n/a
63.8235	0.12	127647	keystroke_Key.space	Key.space	n/a
64.1235	0.135	128247	keystroke_c	c	n/a
64.2735	0.105	128547	keystroke_o	o	n/a
64.5285	0.045	129057	keystroke_l	l	n/a
64.6785	0.105	129357	keystroke_l	l	n/a
64.8435	0.0895	129687	keystroke_e	e	n/a
65.098	0.09	130196	keystroke_c	c	n/a
65.383	0.075	130766	keystroke_t	t	n/a
65.578	0.105	131156	keystroke_i	i	n/a
66.148	0.105	132296	keystroke_v	v	n/a
66.343	0.105	132686	keystroke_e	e	n/a
68.323	0.12	136646	keystroke_Key.space	Key.space	n/a
68.638	0.075	137276	keystroke_h	h	n/a
68.863	0.06	137726	keystroke_o	o	n/a
70.183	0.12	140366	keystroke_w	w	n/a
70.843	0.15	141686	keystroke_'	'	n/a
70.933	0.15	141866	keystroke_s	s	n/a
71.173	0.12	142346	keystroke_Key.space	Key.space	n/a
71.803	0.15	143606	keystroke_Key.enter	Key.enter	n/a
71.958	9.297	143916	prompt	n/a	nomination ranch hitachi deemed\n
72.808	0.105	145616	keystroke_n	n	n/a
72.988	0.12	145976	keystroke_o	o	n/a
73.288	0.105	146576	keystroke_m	m	n/a
73.453	0.12	146906	keystroke_i	i	n/a
73.723	0.105	147446	keystroke_n	n	n/a
73.888	0.21	147776	keystroke_a	a	n/a
74.068	0.15	148136	keystroke_t	t	n/a
74.548	0.12	149096	keystroke_i	i	n/a
74.773	0.09	149546	keystroke_o	o	n/a
74.953	0.09	149906	keystroke_n	n	n/a
75.328	0.12	150656	keystroke_Key.space	Key.space	n/a
75.718	0.18	151436	keystroke_r	r	n/a
75.913	0.15	151826	keystroke_a	a	n/a
76.183	0.09	152366	keystroke_n	n	n/a
76.363	0.12	152726	keystroke_c	c	n/a
76.723	0.09	153446	keystroke_h	h	n/a
77.188	0.075	154376	keystroke_Key.space	Key.space	n/a
77.713	0.075	155426	keystroke_h	h	n/a
77.833	0.12	155666	keystroke_i	i	n/a
77.998	0.135	155996	keystroke_t	t	n/a
78.163	0.135	156326	keystroke_a	a	n/a
78.418	0.121	156836	keystroke_c	c	n/a
78.553	0.09	157106	keystroke_h	h	n/a
78.733	0.09	157466	keystroke_i	i	n/a
78.943	0.12	157886	keystroke_Key.space	Key.space	n/a
79.243	0.105	158486	keystroke_d	d	n/a
79.513	0.045	159026	keystroke_e	e	n/a
79.633	0.105	159266	keystroke_e	e	n/a
79.828	0.12	159656	keystroke_m	m	n/a
80.278	0.09	160556	keystroke_e	e	n/a
80.533	0.09	161066	keystroke_d	d	n/a
81.148	0.105	162296	keystroke_Key.enter	Key.enter	n/a
81.2585	12.581	162517	prompt	n/a	rotation professionals imports objectives\n
82.228	0.09	164456	keystroke_r	r	n/a
82.348	0.09	164696	keystroke_o	o	n/a
82.513	0.09	165026	keystroke_t	t	n/a
82.708	0.12	165416	keystroke_a	a	n/a
82.873	0.09	165746	keystroke_t	t	n/a
83.023	0.09	166046	keystroke_i	i	n/a
83.218	0.09	166436	keystroke_o	o	n/a
83.383	0.09	166766	keystroke_n	n	n/a
83.578	0.105	167156	keystroke_Key.space	Key.space	n/a
83.893	0.09	167786	keystroke_p	p	n/a
84.043	0.09	168086	keystroke_r	r	n/a
84.208	0.09	168416	keystroke_o	o	n/a
84.403	0.075	168806	keystroke_f	f	n/a
85.378	0.105	170756	keystroke_e	e	n/a
85.648	0.075	171296	keystroke_s	s	n/a
85.813	0.12	171626	keystroke_s	s	n/a
85.948	0.09	171896	keystroke_i	i	n/a
86.143	0.075	172286	keystroke_o	o	n/a
86.323	0.06	172646	keystroke_n	n	n/a
86.593	0.135	173186	keystroke_a	a	n/a
86.803	0.12	173606	keystroke_l	l	n/a
87.298	0.12	174596	keystroke_s	s	n/a
87.493	0.135	174986	keystroke_Key.space	Key.space	n/a
87.808	0.105	175616	keystroke_i	i	n/a
88.033	0.09	176066	keystroke_m	m	n/a
88.783	0.075	177566	keystroke_p	p	n/a
88.963	0.09	177926	keystroke_o	o	n/a
89.143	0.09	178286	keystroke_r	r	n/a
89.338	0.075	178676	keystroke_t	t	n/a
89.548	0.12	179096	keystroke_s	s	n/a
90.253	0.135	180506	keystroke_Key.space	Key.space	n/a
90.763	0.105	181526	keystroke_o	o	n/a
91.018	0.075	182036	keystroke_b	b	n/a
92.248	0.015	184496	keystroke_j	j	n/a
92.293	0.09	184586	keystroke_e	e	n/a
92.593	0.105	185186	keystroke_c	c	n/a
92.863	0.09	185726	keystroke_t	t	n/a
93.043	0.09	186086	keystroke_i	i	n/a
93.223	0.105	186446	keystroke_v	v	n/a
93.388	0.09	186776	keystroke_e	e	n/a
93.568	0.105	187136	keystroke_s	s	n/a
93.748	0.09	187496	keystroke_Key.enter	Key.enter	n/a
93.844	10.736	187688	prompt	n/a	wheels lonely wichita beaches\n
94.664	0.119	189328	keystroke_w	w	n/a
94.768	0.105	189536	keystroke_h	h	n/a
94.903	0.09	189806	keystroke_e	e	n/a
95.098	0.105	190196	keystroke_e	e	n/a
95.278	0.12	190556	keystroke_l	l	n/a
95.413	0.12	190826	keystroke_s	s	n/a
95.593	0.105	191186	keystroke_Key.space	Key.space	n/a
95.953	0.105	191906	keystroke_l	l	n/a
96.148	0.105	192296	keystroke_o	o	n/a
96.328	0.12	192656	keystroke_n	n	n/a
96.493	0.12	192986	keystroke_e	e	n/a
97.348	0.075	194696	keystroke_l	l	n/a
97.618	0.075	195236	keystroke_y	y	n/a
98.353	0.12	196706	keystroke_Key.space	Key.space	n/a
98.908	0.105	197816	keystroke_w	w	n/a
99.043	0.105	198086	keystroke_o	o	n/a
100.5135	0.03	201027	keystroke_Key.backspace	Key.backspace	n/a
101.3085	0.105	202617	keystroke_i	i	n/a
101.6535	0.105	203307	keystroke_c	c	n/a
101.7735	0.075	203547	keystroke_h	h	n/a
101.9385	0.075	203877	keystroke_i	i	n/a
102.6285	0.135	205257	keystroke_t	t	n/a
102.7485	0.135	205497	keystroke_a	a	n/a
102.9435	0.135	205887	keystroke_Key.space	Key.space	n/a
103.2435	0.075	206487	keystroke_b	b	n/a
103.3335	0.18	206667	keystroke_e	e	n/a
103.4535	0.135	206907	keystroke_a	a	n/a
103.7235	0.135	207447	keystroke_c	c	n/a
103.8735	0.075	207747	keystroke_h	h	n/a
104.0085	0.195	208017	keystroke_e	e	n/a
104.1585	0.135	208317	keystroke_s	s	n/a
104.4735	0.105	208947	keystroke_Key.enter	Key.enter	n/a
104.5845	19.3155	209169	prompt	n/a	conference quantities interested minerals\n
105.5235	0.12	211047	keystroke_c	c	n/a
105.6285	0.12	211257	keystroke_o	o	n/a
105.8235	0.09	211647	keystroke_n	n	n/a
105.9735	0.105	211947	keystroke_f	f	n/a
106.1385	0.15	212277	keystroke_e	e	n/a
106.2585	0.09	212517	keystroke_r	r	n/a
106.3935	0.105	212787	keystroke_e	e	n/a
106.5435	0.09	213087	keystroke_n	n	n/a
106.7085	0.135	213417	keystroke_c	c	n/a
106.8885	0.075	213777	keystroke_e	e	n/a
107.0685	0.105	214137	keystroke_Key.space	Key.space	n/a
107.8635	0.12	215727	keystroke_q	q	n/a
107.9985	0.09	215997	keystroke_u	u	n/a
108.4485	0.12	216897	keystroke_a	a	n/a
108.6885	0.12	217377	keystroke_n	n	n/a
108.9435	0.09	217887	keystroke_t	t	n/a
109.1385	0.06	218277	keystroke_i	i	n/a
109.3035	0.06	218607	keystroke_t	t	n/a
109.7385	0.18	219477	keystroke_e	e	n/a
109.8585	0.15	219717	keystroke_s	s	n/a
110.6385	0.12	221277	keystroke_Key.space	Key.space	n/a
110.9235	0.12	221847	keystroke_i	i	n/a
117.7055	0.013	235411	keystroke_Key.backspace	Key.backspace	n/a
117.8235	0.09	235647	keystroke_Key.backspace	Key.backspace	n/a
118.0335	0.045	236067	keystroke_Key.backspace	Key.backspace	n/a
118.1835	0.075	236367	keystroke_Key.backspace	Key.backspace	n/a
119.1435	0.075	238287	keystroke_i	i	n/a
119.2635	0.18	238527	keystroke_e	e	n/a
119.3835	0.135	238767	keystroke_s	s	n/a
119.6235	0.105	239247	keystroke_Key.space	Key.space	n/a
120.1785	0.075	240357	keystroke_i	i	n/a
120.3135	0.09	240627	keystroke_n	n	n/a
120.4485	0.12	240897	keystroke_t	t	n/a
120.5385	0.18	241077	keystroke_e	e	n/a
120.6885	0.165	241377	keystroke_r	r	n/a
120.8385	0.105	241677	keystroke_e	e	n/a
121.2135	0.12	242427	keystroke_s	s	n/a
121.5585	0.09	243117	keystroke_t	t	n/a
121.7535	0.09	243507	keystroke_e	e	n/a
121.9635	0.105	243927	keystroke_d	d	n/a
122.2485	0.105	244497	keystroke_Key.space	Key.space	n/a
122.5185	0.105	245037	keystroke_m	m	n/a
122.6535	0.105	245307	keystroke_i	i	n/a
122.8335	0.075	245667	keystroke_n	n	n/a
122.9535	0.165	245907	keystroke_e	e	n/a
123.0885	0.12	246177	keystroke_r	r	n/a
123.2535	0.135	246507	keystroke_a	a	n/a
123.4035	0.12	246807	keystroke_l	l	n/a
123.5985	0.12	247197	keystroke_s	s	n/a
123.8385	0.06	247677	keystroke_Key.enter	Key.enter	n/a
123.9035	10.437	247807	prompt	n/a	proceedings plates expired baseline\n
124.7535	0.105	249507	keystroke_p	p	n/a
124.9035	0.09	249807	keystroke_r	r	n/a
125.2185	0.06	250437	keystroke_o	o	n/a
125.5035	0.09	251007	keystroke_c	c	n/a
126.2535	0.06	252507	keystroke_e	e	n/a
126.3885	0.075	252777	keystroke_e	e	n/a
126.5985	0.075	253197	keystroke_d	d	n/a
126.7785	0.09	253557	keystroke_i	i	n/a
126.9435	0.075	253887	keystroke_n	n	n/a
127.0485	0.1055	254097	keystroke_g	g	n/a
127.274	0.075	254548	keystroke_s	s	n/a
127.768	0.105	255536	keystroke_Key.space	Key.space	n/a
127.994	0.059	255988	keystroke_p	p	n/a
128.174	0.09	256348	keystroke_l	l	n/a
128.294	0.135	256588	keystroke_a	a	n/a
128.534	0.09	257068	keystroke_t	t	n/a
128.669	0.09	257338	keystroke_e	e	n/a
128.834	0.12	257668	keystroke_s	s	n/a
129.014	0.119	258028	keystroke_Key.space	Key.space	n/a
129.403	0.076	258806	keystroke_e	e	n/a
129.614	0.12	259228	keystroke_x	x	n/a
130.004	0.09	260008	keystroke_p	p	n/a
130.409	0.06	260818	keystroke_i	i	n/a
130.544	0.105	261088	keystroke_r	r	n/a
130.678	0.091	261356	keystroke_e	e	n/a
131.069	0.105	262138	keystroke_d	d	n/a
131.264	0.12	262528	keystroke_Key.space	Key.space	n/a
131.684	0.06	263368	keystroke_b	b	n/a
131.804	0.12	263608	keystroke_a	a	n/a
131.999	0.105	263998	keystroke_s	s	n/a
132.314	0.09	264628	keystroke_e	e	n/a
132.524	0.09	265048	keystroke_Key.space	Key.space	n/a
132.989	0.09	265978	keystroke_Key.backspace	Key.backspace	n/a
133.229	0.09	266458	keystroke_l	l	n/a
133.469	0.075	266938	keystroke_i	i	n/a
133.649	0.09	267298	keystroke_n	n	n/a
133.829	0.09	267658	keystroke_e	e	n/a
134.294	0.045	268588	keystroke_Key.enter	Key.enter	n/a
134.344	11.366	268688	prompt	n/a	wikipedia isolated model synthesis\n
135.359	0.12	270718	keystroke_w	w	n/a
135.524	0.12	271048	keystroke_i	i	n/a
135.779	0.09	271558	keystroke_k	k	n/a
135.974	0.075	271948	keystroke_i	i	n/a
136.634	0.09	273268	keystroke_p	p	n/a
136.784	0.105	273568	keystroke_e	e	n/a
137.054	0.09	274108	keystroke_d	d	n/a
137.189	0.09	274378	keystroke_i	i	n/a
137.354	0.12	274708	keystroke_a	a	n/a
137.774	0.09	275548	keystroke_Key.space	Key.space	n/a
139.829	0.075	279658	keystroke_i	i	n/a
139.964	0.12	279928	keystroke_s	s	n/a
140.114	0.0745	280228	keystroke_o	o	n/a
140.5935	0.075	281187	keystroke_l	l	n/a
140.7285	0.15	281457	keystroke_a	a	n/a
140.9535	0.105	281907	keystroke_t	t	n/a
141.1035	0.09	282207	keystroke_e	e	n/a
141.3135	0.12	282627	keystroke_d	d	n/a
141.4935	0.135	282987	keystroke_Key.space	Key.space	n/a
141.9435	0.12	283887	keystroke_m	m	n/a
142.0785	0.105	284157	keystroke_o	o	n/a
142.2435	0.09	284487	keystroke_d	d	n/a
142.4385	0.105	284877	keystroke_e	e	n/a
142.6185	0.09	285237	keystroke_l	l	n/a
142.9335	0.09	285867	keystroke_Key.space	Key.space	n/a
143.3085	0.12	286617	keystroke_s	s	n/a
143.3985	0.105	286797	keystroke_y	y	n/a
143.6535	0.09	287307	keystroke_n	n	n/a
143.8185	0.09	287637	keystroke_t	t	n/a
144.2085	0.075	288417	keystroke_h	h	n/a
144.4035	0.105	288807	keystroke_e	e	n/a
144.9885	0.12	289977	keystroke_s	s	n/a
145.1235	0.075	290247	keystroke_i	i	n/a
145.2585	0.075	290517	keystroke_s	s	n/a
145.6635	0.045	291327	keystroke_Key.enter	Key.enter	n/a
145.7135	8.7865	291427	prompt	n/a	shine turned bailey seafood\n
146.5035	0.12	293007	keystroke_s	s	n/a
146.5935	0.075	293187	keystroke_h	h	n/a
146.7435	0.09	293487	keystroke_i	i	n/a
146.9235	0.06	293847	keystroke_n	n	n/a
147.0435	0.105	294087	keystroke_e	e	n/a
147.2085	0.105	294417	keystroke_Key.space	Key.space	n/a
147.4185	0.075	294837	keystroke_t	t	n/a
147.5685	0.06	295137	keystroke_i	i	n/a
147.5835	0.046	295167	keystroke_u	u	n/a
147.7485	0.075	295497	keystroke_r	r	n/a
148.3185	0.03	296637	keystroke_Key.backspace	Key.backspace	n/a
148.4835	0.075	296967	keystroke_Key.backspace	Key.backspace	n/a
149.0685	0.045	298137	keystroke_Key.backspace	Key.backspace	n/a
149.9685	0.075	299937	keystroke_u	u	n/a
150.1335	0.075	300267	keystroke_r	r	n/a
150.3135	0.06	300627	keystroke_n	n	n/a
150.4635	0.075	300927	keystroke_e	e	n/a
150.6885	0.105	301377	keystroke_d	d	n/a
150.8835	0.105	301767	keystroke_Key.space	Key.space	n/a
151.3785	0.075	302757	keystroke_b	b	n/a
151.4985	0.135	302997	keystroke_a	a	n/a
151.6185	0.09	303237	keystroke_i	i	n/a
151.8285	0.075	303657	keystroke_l	l	n/a
151.9785	0.12	303957	keystroke_e	e	n/a
152.2635	0.075	304527	keystroke_y	y	n/a
152.5635	0.105	305127	keystroke_Key.space	Key.space	n/a
152.9235	0.18	305847	keystroke_s	s	n/a
153.0585	0.18	306117	keystroke_e	e	n/a
153.2235	0.15	306447	keystroke_a	a	n/a
153.7635	0.09	307527	keystroke_f	f	n/a
153.8835	0.06	307767	keystroke_o	o	n/a
154.0785	0.075	308157	keystroke_o	o	n/a
154.2135	0.105	308427	keystroke_d	d	n/a
154.4235	0.075	308847	keystroke_Key.enter	Key.enter	n/a
154.5035	12.027	309007	prompt	n/a	preview handbook privilege quizzes\n
155.3235	0.09	310647	keystroke_p	p	n/a
155.4735	0.12	310947	keystroke_r	r	n/a
155.5635	0.135	311127	keystroke_e	e	n/a
156.1185	0.105	312237	keystroke_v	v	n/a
156.2535	0.09	312507	keystroke_i	i	n/a
156.4035	0.21	312807	keystroke_e	e	n/a
156.5685	0.135	313137	keystroke_w	w	n/a
157.0935	0.105	314187	keystroke_Key.space	Key.space	n/a
157.3185	0.06	314637	keystroke_h	h	n/a
157.4535	0.12	314907	keystroke_a	a	n/a
157.6035	0.09	315207	keystroke_n	n	n/a
157.7835	0.09	315567	keystroke_d	d	n/a
158.1285	0.075	316257	keystroke_b	b	n/a
158.4135	0.09	316827	keystroke_o	o	n/a
158.6835	0.075	317367	keystroke_o	o	n/a
158.9085	0.09	317817	keystroke_k	k	n/a
159.1335	0.105	318267	keystroke_Key.space	Key.space	n/a
159.4185	0.09	318837	keystroke_p	p	n/a
159.5835	0.09	319167	keystroke_r	r	n/a
159.7935	0.06	319587	keystroke_i	i	n/a
160.2885	0.09	320577	keystroke_v	v	n/a
160.4835	0.075	320967	keystroke_i	i	n/a
161.3685	0.075	322737	keystroke_l	l	n/a
161.5935	0.075	323187	keystroke_e	e	n/a
162.0885	0.075	324177	keystroke_g	g	n/a
162.2535	0.075	324507	keystroke_e	e	n/a
162.5235	0.105	325047	keystroke_Key.space	Key.space	n/a
163.1685	0.12	326337	keystroke_q	q	n/a
163.3335	0.105	326667	keystroke_u	u	n/a
163.5285	0.09	327057	keystroke_i	i	n/a
163.9335	0.165	327867	keystroke_z	z	n/a
164.1135	0.15	328227	keystroke_z	z	n/a
165.8235	0.12	331647	keystroke_e	e	n/a
166.0485	0.12	332097	keystroke_s	s	n/a
166.4535	0.075	332907	keystroke_Key.enter	Key.enter	n/a
166.5335	6.5825	333067	prompt	n/a	thongs shop mounting drew\n
167.4445	0.089	334889	keystroke_t	t	n/a
167.5485	0.075	335097	keystroke_h	h	n/a
167.7135	0.09	335427	keystroke_o	o	n/a
167.8785	0.091	335757	keystroke_n	n	n/a
168.0885	0.105	336177	keystroke_g	g	n/a
168.3135	0.12	336627	keystroke_s	s	n/a
168.6135	0.105	337227	keystroke_Key.space	Key.space	n/a
168.9735	0.12	337947	keystroke_s	s	n/a
169.0785	0.09	338157	keystroke_h	h	n/a
169.2735	0.09	338547	keystroke_o	o	n/a
169.4835	0.075	338967	keystroke_p	p	n/a
169.7685	0.105	339537	keystroke_Key.space	Key.space	n/a
170.0985	0.09	340197	keystroke_m	m	n/a
170.2195	0.119	340439	keystroke_o	o	n/a
170.4135	0.075	340827	keystroke_u	u	n/a
170.5945	0.089	341189	keystroke_n	n	n/a
170.7435	0.075	341487	keystroke_t	t	n/a
170.8635	0.09	341727	keystroke_i	i	n/a
171.0135	0.105	342027	keystroke_n	n	n/a
171.1785	0.075	342357	keystroke_g	g	n/a
171.3435	0.09	342687	keystroke_Key.space	Key.space	n/a
172.1545	0.074	344309	keystroke_d	d	n/a
172.3635	0.075	344727	keystroke_r	r	n/a
172.5735	0.105	345147	keystroke_e	e	n/a
172.7685	0.09	345537	keystroke_w	w	n/a
173.0385	0.075	346077	keystroke_Key.enter	Key.enter	n/a
173.1185	7.557	346237	prompt	n/a	promises half winner seniors\n
173.8785	0.105	347757	keystroke_p	p	n/a
174.0135	0.09	348027	keystroke_r	r	n/a
174.1635	0.09	348327	keystroke_o	o	n/a
175.1985	0.075	350397	keystroke_m	m	n/a
175.3185	0.105	350637	keystroke_i	i	n/a
175.4985	0.105	350997	keystroke_s	s	n/a
175.7235	0.12	351447	keystroke_e	e	n/a
176.0235	0.105	352047	keystroke_s	s	n/a
176.3085	0.09	352617	keystroke_Key.space	Key.space	n/a
176.6985	0.075	353397	keystroke_h	h	n/a
176.7885	0.135	353577	keystroke_a	a	n/a
176.9385	0.105	353877	keystroke_l	l	n/a
177.3585	0.105	354717	keystroke_f	f	n/a
177.5685	0.075	355137	keystroke_Key.space	Key.space	n/a
177.7935	0.105	355587	keystroke_w	w	n/a
177.9135	0.09	355827	keystroke_i	i	n/a
178.1085	0.06	356217	keystroke_n	n	n/a
178.2735	0.075	356547	keystroke_n	n	n/a
178.4085	0.18	356817	keystroke_e	e	n/a
178.5285	0.12	357057	keystroke_r	r	n/a
178.7535	0.12	357507	keystroke_Key.space	Key.space	n/a
179.0835	0.195	358167	keystroke_s	s	n/a
179.2335	0.12	358467	keystroke_e	e	n/a
179.3985	0.09	358797	keystroke_n	n	n/a
179.5485	0.105	359097	keystroke_i	i	n/a
180.0285	0.075	360057	keystroke_o	o	n/a
180.1785	0.105	360357	keystroke_r	r	n/a
180.3885	0.09	360777	keystroke_s	s	n/a
180.5835	0.09	361167	keystroke_Key.enter	Key.enter	n/a
180.6785	15.087	361357	prompt	n/a	serial association alternatives cheque\n
181.6335	0.24	363267	keystroke_s	s	n/a
181.7685	0.195	363537	keystroke_e	e	n/a
181.9185	0.105	363837	keystroke_r	r	n/a
182.0835	0.075	364167	keystroke_i	i	n/a
182.2785	0.075	364557	keystroke_o	o	n/a
182.3835	0.12	364767	keystroke_a	a	n/a
182.5785	0.12	365157	keystroke_l	l	n/a
182.8335	0.105	365667	keystroke_Key.space	Key.space	n/a
183.0735	0.09	366147	keystroke_a	a	n/a
183.3135	0.09	366627	keystroke_s	s	n/a
183.5235	0.12	367047	keystroke_s	s	n/a
183.6735	0.105	367347	keystroke_o	o	n/a
183.8835	0.105	367767	keystroke_c	c	n/a
184.4835	0.09	368967	keystroke_i	i	n/a
184.7085	0.12	369417	keystroke_a	a	n/a
185.1135	0.09	370227	keystroke_t	t	n/a
185.2335	0.075	370467	keystroke_i	i	n/a
185.4285	0.075	370857	keystroke_o	o	n/a
185.5785	0.075	371157	keystroke_n	n	n/a
185.7585	0.12	371517	keystroke_Key.space	Key.space	n/a
186.0285	0.12	372057	keystroke_a	a	n/a
186.1635	0.075	372327	keystroke_l	l	n/a
186.3585	0.12	372717	keystroke_t	t	n/a
186.9435	0.12	373887	keystroke_e	e	n/a
187.0485	0.12	374097	keystroke_r	r	n/a
187.3485	0.06	374697	keystroke_n	n	n/a
187.4685	0.135	374937	keystroke_a	a	n/a
187.7985	0.09	375597	keystroke_t	t	n/a
187.9785	0.075	375957	keystroke_i	i	n/a
188.3385	0.075	376677	keystroke_o	o	n/a
189.7935	0.09	379587	keystroke_Key.backspace	Key.backspace	n/a
192.1515	0.057	384303	keystroke_v	v	n/a
192.2385	0.12	384477	keystroke_e	e	n/a
192.4945	0.104	384989	keystroke_s	s	n/a
193.1535	0.105	386307	keystroke_Key.space	Key.space	n/a
193.3785	0.12	386757	keystroke_c	c	n/a
193.4685	0.09	386937	keystroke_h	h	n/a
193.6635	0.09	387327	keystroke_e	e	n/a
195.0435	0.12	390087	keystroke_q	q	n/a
195.1785	0.105	390357	keystroke_u	u	n/a
195.4485	0.09	390897	keystroke_e	e	n/a
195.6585	0.105	391317	keystroke_Key.enter	Key.enter	n/a
195.7685	10.962	391537	prompt	n/a	notion cohen belize israel\n
196.5135	0.075	393027	keystroke_n	n	n/a
196.6485	0.105	393297	keystroke_o	o	n/a
196.7985	0.09	393597	keystroke_t	t	n/a
196.9485	0.075	393897	keystroke_i	i	n/a
197.1285	0.09	394257	keystroke_o	o	n/a
197.3085	0.06	394617	keystroke_n	n	n/a
197.6985	0.105	395397	keystroke_Key.space	Key.space	n/a
198.0435	0.135	396087	keystroke_c	c	n/a
198.1635	0.075	396327	keystroke_h	h	n/a
198.8385	0.075	397677	keystroke_Key.backspace	Key.backspace	n/a
199.7685	0.075	399537	keystroke_o	o	n/a
200.0385	0.03	400077	keystroke_h	h	n/a
200.1285	0.12	400257	keystroke_e	e	n/a
200.2785	0.075	400557	keystroke_n	n	n/a
200.4885	0.09	400977	keystroke_Key.space	Key.space	n/a
202.1385	0.075	404277	keystroke_b	b	n/a
202.2885	0.09	404577	keystroke_e	e	n/a
202.7235	0.105	405447	keystroke_l	l	n/a
202.8735	0.09	405747	keystroke_i	i	n/a
203.2635	0.135	406527	keystroke_z	z	n/a
203.8785	0.105	407757	keystroke_e	e	n/a
204.0585	0.105	408117	keystroke_Key.space	Key.space	n/a
204.5235	0.09	409047	keystroke_i	i	n/a
204.6585	0.12	409317	keystroke_s	s	n/a
204.9885	0.135	409977	keystroke_r	r	n/a
205.0935	0.105	410187	keystroke_e	e	n/a
205.5135	0.075	411027	keystroke_Key.backspace	Key.backspace	n/a
205.6045	0.164	411209	keystroke_a	a	n/a
205.9335	0.09	411867	keystroke_e	e	n/a
206.0835	0.12	412167	keystroke_l	l	n/a
206.6685	0.06	413337	keystroke_Key.enter	Key.enter	n/a
206.733	8.1725	413466	prompt	n/a	andorra framing denmark thanks\n
207.7935	0.135	415587	keystroke_a	a	n/a
207.9435	0.09	415887	keystroke_n	n	n/a
208.1385	0.09	416277	keystroke_d	d	n/a
208.3185	0.09	416637	keystroke_o	o	n/a
208.4695	0.089	416939	keystroke_r	r	n/a
208.6335	0.106	417267	keystroke_r	r	n/a
209.2035	0.12	418407	keystroke_a	a	n/a
209.4435	0.135	418887	keystroke_Key.space	Key.space	n/a
210.1185	0.135	420237	keystroke_f	f	n/a
210.2235	0.18	420447	keystroke_r	r	n/a
210.3885	0.105	420777	keystroke_a	a	n/a
210.6885	0.105	421377	keystroke_m	m	n/a
210.8395	0.104	421679	keystroke_i	i	n/a
210.9895	0.104	421979	keystroke_n	n	n/a
211.1085	0.09	422217	keystroke_g	g	n/a
211.2885	0.105	422577	keystroke_Key.space	Key.space	n/a
211.9645	0.074	423929	keystroke_d	d	n/a
212.1585	0.075	424317	keystroke_e	e	n/a
212.3085	0.075	424617	keystroke_n	n	n/a
212.5335	0.09	425067	keystroke_m	m	n/a
212.6835	0.15	425367	keystroke_a	a	n/a
212.8485	0.076	425697	keystroke_r	r	n/a
212.9995	0.104	425999	keystroke_k	k	n/a
213.6585	0.09	427317	keystroke_Key.space	Key.space	n/a
213.8995	0.09	427799	keystroke_t	t	n/a
214.0035	0.076	428007	keystroke_h	h	n/a
214.1695	0.12	428339	keystroke_a	a	n/a
214.2745	0.09	428549	keystroke_n	n	n/a
214.3945	0.12	428789	keystroke_k	k	n/a
214.5435	0.121	429087	keystroke_s	s	n/a
214.8145	0.089	429629	keystroke_Key.enter	Key.enter	n/a
214.9095	9.671	429819	prompt	n/a	blanket majority worker hotels\n
215.894	0.075	431788	keystroke_b	b	n/a
216.044	0.12	432088	keystroke_l	l	n/a
216.269	0.105	432538	keystroke_a	a	n/a
216.434	0.09	432868	keystroke_n	n	n/a
216.899	0.09	433798	keystroke_k	k	n/a
217.034	0.105	434068	keystroke_e	e	n/a
217.289	0.09	434578	keystroke_t	t	n/a
217.544	0.09	435088	keystroke_Key.space	Key.space	n/a
217.769	0.09	435538	keystroke_m	m	n/a
217.904	0.135	435808	keystroke_a	a	n/a
218.159	0.09	436318	keystroke_j	j	n/a
218.324	0.105	436648	keystroke_o	o	n/a
218.549	0.105	437098	keystroke_r	r	n/a
218.744	0.075	437488	keystroke_i	i	n/a
218.924	0.09	437848	keystroke_t	t	n/a
219.659	0.075	439318	keystroke_y	y	n/a
219.869	0.105	439738	keystroke_Key.space	Key.space	n/a
220.259	0.21	440518	keystroke_w	w	n/a
220.439	0.135	440878	keystroke_o	o	n/a
221.249	0.045	442498	keystroke_k	k	n/a
221.819	0.09	443638	keystroke_Key.backspace	Key.backspace	n/a
222.029	0.075	444058	keystroke_r	r	n/a
222.134	0.075	444268	keystroke_k	k	n/a
222.479	0.165	444958	keystroke_e	e	n/a
222.599	0.12	445198	keystroke_r	r	n/a
223.049	0.12	446098	keystroke_Key.space	Key.space	n/a
223.559	0.075	447118	keystroke_h	h	n/a
223.709	0.105	447418	keystroke_o	o	n/a
223.889	0.12	447778	keystroke_t	t	n/a
223.994	0.12	447988	keystroke_e	e	n/a
224.159	0.075	448318	keystroke_l	l	n/a
224.339	0.12	448678	keystroke_s	s	n/a
224.504	0.075	449008	keystroke_Key.enter	Key.enter	n/a
224.5835	15.702	449167	prompt	n/a	performance hosting possibility jokes\n
225.479	0.105	450958	keystroke_p	p	n/a
225.599	0.18	451198	keystroke_e	e	n/a
225.704	0.12	451408	keystroke_r	r	n/a
226.859	0.075	453718	keystroke_f	f	n/a
226.949	0.12	453898	keystroke_o	o	n/a
227.114	0.075	454228	keystroke_r	r	n/a
227.264	0.075	454528	keystroke_m	m	n/a
227.399	0.12	454798	keystroke_a	a	n/a
227.579	0.075	455158	keystroke_n	n	n/a
227.864	0.12	455728	keystroke_c	c	n/a
228.059	0.09	456118	keystroke_e	e	n/a
228.254	0.105	456508	keystroke_Key.space	Key.space	n/a
228.539	0.06	457078	keystroke_h	h	n/a
228.689	0.09	457378	keystroke_o	o	n/a
228.824	0.195	457648	keystroke_s	s	n/a
229.02	0.074	458040	keystroke_t	t	n/a
229.154	0.105	458308	keystroke_i	i	n/a
229.334	0.105	458668	keystroke_n	n	n/a
229.469	0.09	458938	keystroke_g	g	n/a
229.634	0.105	459268	keystroke_Key.space	Key.space	n/a
230.039	0.12	460078	keystroke_p	p	n/a
230.204	0.09	460408	keystroke_o	o	n/a
230.459	0.09	460918	keystroke_s	s	n/a
230.639	0.135	461278	keystroke_s	s	n/a
230.834	0.105	461668	keystroke_i	i	n/a
231.089	0.075	462178	keystroke_b	b	n/a
231.479	0.09	462958	keystroke_i	i	n/a
231.749	0.105	463498	keystroke_l	l	n/a
232.304	0.075	464608	keystroke_t	t	n/a
232.409	0.09	464818	keystroke_y	y	n/a
233.084	0.105	466168	keystroke_Key.space	Key.space	n/a
233.489	0.06	466978	keystroke_j	j	n/a
233.624	0.09	467248	keystroke_o	o	n/a
234.179	0.075	468358	keystroke_Key.backspace	Key.backspace	n/a
234.374	0.06	468748	keystroke_Key.backspace	Key.backspace	n/a
234.554	0.09	469108	keystroke_Key.backspace	Key.backspace	n/a
234.899	0.075	469798	keystroke_Key.backspace	Key.backspace	n/a
236.5345	0.105	473069	keystroke_Key.backspace	Key.backspace	n/a
237.5545	0.075	475109	keystroke_i	i	n/a
237.9735	0.075	475947	keystroke_t	t	n/a
238.1085	0.075	476217	keystroke_y	y	n/a
238.3195	0.09	476639	keystroke_Key.space	Key.space	n/a
239.2345	0.06	478469	keystroke_j	j	n/a
239.3395	0.12	478679	keystroke_o	o	n/a
239.5495	0.075	479099	keystroke_k	k	n/a
239.6845	0.12	479369	keystroke_e	e	n/a
239.8795	0.195	479759	keystroke_s	s	n/a
240.2095	0.075	480419	keystroke_Key.enter	Key.enter	n/a
240.288	7.0625	480576	prompt	n/a	apart funding message still\n
241.1245	0.12	482249	keystroke_a	a	n/a
241.2285	0.106	482457	keystroke_p	p	n/a
241.4245	0.135	482849	keystroke_a	a	n/a
241.5445	0.12	483089	keystroke_r	r	n/a
242.5645	0.105	485129	keystroke_t	t	n/a
242.8195	0.135	485639	keystroke_Key.space	Key.space	n/a
243.0895	0.09	486179	keystroke_f	f	n/a
243.2245	0.09	486449	keystroke_u	u	n/a
243.3895	0.09	486779	keystroke_n	n	n/a
243.5245	0.09	487049	keystroke_d	d	n/a
243.6595	0.105	487319	keystroke_i	i	n/a
243.8245	0.09	487649	keystroke_n	n	n/a
243.9745	0.105	487949	keystroke_g	g	n/a
244.1395	0.09	488279	keystroke_Key.space	Key.space	n/a
244.3945	0.045	488789	keystroke_m	m	n/a
244.4995	0.06	488999	keystroke_e	e	n/a
244.7245	0.09	489449	keystroke_s	s	n/a
244.9195	0.09	489839	keystroke_s	s	n/a
245.0995	0.12	490199	keystroke_a	a	n/a
245.2945	0.12	490589	keystroke_g	g	n/a
245.4295	0.105	490859	keystroke_e	e	n/a
245.6695	0.105	491339	keystroke_Key.space	Key.space	n/a
245.8645	0.12	491729	keystroke_s	s	n/a
246.1495	0.09	492299	keystroke_t	t	n/a
246.3295	0.09	492659	keystroke_i	i	n/a
246.6145	0.06	493229	keystroke_l	l	n/a
246.7645	0.09	493529	keystroke_l	l	n/a
247.2745	0.075	494549	keystroke_Key.enter	Key.enter	n/a
247.3535	12.4025	494707	prompt	n/a	bigger bare gamespot arbitration\n
248.1745	0.06	496349	keystroke_b	b	n/a
248.3095	0.105	496619	keystroke_i	i	n/a
248.4595	0.075	496919	keystroke_g	g	n/a
248.6395	0.075	497279	keystroke_g	g	n/a
248.8045	0.15	497609	keystroke_e	e	n/a
248.9095	0.105	497819	keystroke_r	r	n/a
249.1195	0.12	498239	keystroke_Key.space	Key.space	n/a
249.4645	0.06	498929	keystroke_b	b	n/a
249.5845	0.12	499169	keystroke_a	a	n/a
250.1245	0.105	500249	keystroke_r	r	n/a
250.2445	0.105	500489	keystroke_e	e	n/a
250.4095	0.135	500819	keystroke_Key.space	Key.space	n/a
251.0395	0.105	502079	keystroke_g	g	n/a
251.1295	0.15	502259	keystroke_a	a	n/a
251.3245	0.12	502649	keystroke_m	m	n/a
252.4195	0.09	504839	keystroke_e	e	n/a
252.7495	0.105	505499	keystroke_s	s	n/a
252.8695	0.105	505739	keystroke_p	p	n/a
253.1095	0.075	506219	keystroke_o	o	n/a
253.514	0.09	507028	keystroke_t	t	n/a
253.889	0.105	507778	keystroke_Key.space	Key.space	n/a
254.159	0.165	508318	keystroke_a	a	n/a
255.029	0.06	510058	keystroke_r	r	n/a
255.164	0.075	510328	keystroke_b	b	n/a
255.344	0.075	510688	keystroke_i	i	n/a
256.034	0.075	512068	keystroke_t	t	n/a
256.274	0.165	512548	keystroke_r	r	n/a
256.574	0.12	513148	keystroke_a	a	n/a
257.129	0.075	514258	keystroke_t	t	n/a
257.249	0.075	514498	keystroke_i	i	n/a
257.444	0.075	514888	keystroke_o	o	n/a
257.624	0.075	515248	keystroke_n	n	n/a
259.694	0.06	519388	keystroke_Key.enter	Key.enter	n/a
259.7595	10.3315	519519	prompt	n/a	fast initiative oaks distributor\n
260.879	0.12	521758	keystroke_f	f	n/a
260.969	0.135	521938	keystroke_a	a	n/a
261.149	0.15	522298	keystroke_s	s	n/a
261.389	0.09	522778	keystroke_t	t	n/a
261.779	0.12	523558	keystroke_Key.space	Key.space	n/a
262.049	0.105	524098	keystroke_i	i	n/a
262.334	0.015	524668	keystroke_n	n	n/a
262.364	0.105	524728	keystroke_i	i	n/a
262.589	0.06	525178	keystroke_t	t	n/a
262.754	0.075	525508	keystroke_i	i	n/a
262.964	0.105	525928	keystroke_a	a	n/a
263.909	0.075	527818	keystroke_t	t	n/a
264.044	0.0905	528088	keystroke_i	i	n/a
264.2245	0.105	528449	keystroke_v	v	n/a
264.3895	0.075	528779	keystroke_e	e	n/a
264.5995	0.09	529199	keystroke_Key.space	Key.space	n/a
264.9595	0.09	529919	keystroke_o	o	n/a
265.1095	0.12	530219	keystroke_a	a	n/a
265.6045	0.09	531209	keystroke_k	k	n/a
265.7545	0.12	531509	keystroke_s	s	n/a
266.4595	0.105	532919	keystroke_Key.space	Key.space	n/a
266.9545	0.09	533909	keystroke_d	d	n/a
267.0595	0.1045	534119	keystroke_i	i	n/a
267.224	0.165	534448	keystroke_s	s	n/a
267.584	0.105	535168	keystroke_t	t	n/a
267.704	0.09	535408	keystroke_r	r	n/a
267.899	0.09	535798	keystroke_i	i	n/a
268.319	0.075	536638	keystroke_b	b	n/a
268.589	0.075	537178	keystroke_u	u	n/a
269.129	0.09	538258	keystroke_t	t	n/a
269.264	0.06	538528	keystroke_o	o	n/a
269.699	0.075	539398	keystroke_r	r	n/a
270.014	0.075	540028	keystroke_Key.enter	Key.enter	n/a
270.094	8.232	540188	prompt	n/a	folders depression tail phil\n
271.169	0.105	542338	keystroke_f	f	n/a
271.289	0.09	542578	keystroke_o	o	n/a
271.499	0.09	542998	keystroke_l	l	n/a
271.694	0.075	543388	keystroke_d	d	n/a
271.904	0.1355	543808	keystroke_e	e	n/a
271.994	0.1055	543988	keystroke_r	r	n/a
272.2345	0.09	544469	keystroke_s	s	n/a
272.4295	0.09	544859	keystroke_Key.space	Key.space	n/a
272.759	0.075	545518	keystroke_d	d	n/a
272.954	0.045	545908	keystroke_e	e	n/a
273.074	0.105	546148	keystroke_p	p	n/a
273.404	0.045	546808	keystroke_e	e	n/a
273.779	0.09	547558	keystroke_Key.backspace	Key.backspace	n/a
273.899	0.105	547798	keystroke_r	r	n/a
273.989	0.12	547978	keystroke_e	e	n/a
274.5595	0.075	549119	keystroke_s	s	n/a
274.7095	0.105	549419	keystroke_s	s	n/a
274.8295	0.075	549659	keystroke_i	i	n/a
274.9945	0.075	549989	keystroke_o	o	n/a
275.1595	0.075	550319	keystroke_n	n	n/a
275.4595	0.1045	550919	keystroke_Key.space	Key.space	n/a
275.804	0.12	551608	keystroke_t	t	n/a
275.894	0.135	551788	keystroke_a	a	n/a
276.059	0.09	552118	keystroke_i	i	n/a
276.269	0.06	552538	keystroke_l	l	n/a
276.5395	0.09	553079	keystroke_Key.space	Key.space	n/a
276.7645	0.09	553529	keystroke_p	p	n/a
276.959	0.075	553918	keystroke_h	h	n/a
277.154	0.06	554308	keystroke_i	i	n/a
277.709	0.075	555418	keystroke_l	l	n/a
278.249	0.075	556498	keystroke_Key.enter	Key.enter	n/a
278.3285	10.9325	556657	prompt	n/a	prospects fotos signatures adopt\n
279.434	0.105	558868	keystroke_p	p	n/a
279.599	0.09	559198	keystroke_r	r	n/a
279.749	0.075	559498	keystroke_o	o	n/a
280.049	0.105	560098	keystroke_s	s	n/a
280.364	0.105	560728	keystroke_p	p	n/a
280.619	0.09	561238	keystroke_e	e	n/a
280.979	0.09	561958	keystroke_c	c	n/a
281.789	0.075	563578	keystroke_t	t	n/a
281.999	0.075	563998	keystroke_s	s	n/a
282.209	0.135	564418	keystroke_Key.space	Key.space	n/a
282.554	0.09	565108	keystroke_f	f	n/a
282.674	0.105	565348	keystroke_o	o	n/a
282.869	0.075	565738	keystroke_t	t	n/a
283.034	0.075	566068	keystroke_o	o	n/a
283.184	0.12	566368	keystroke_s	s	n/a
283.364	0.105	566728	keystroke_Key.space	Key.space	n/a
284.189	0.105	568378	keystroke_s	s	n/a
284.324	0.09	568648	keystroke_i	i	n/a
284.519	0.075	569038	keystroke_g	g	n/a
284.699	0.075	569398	keystroke_n	n	n/a
284.834	0.15	569668	keystroke_a	a	n/a
286.499	0.075	572998	keystroke_t	t	n/a
286.619	0.105	573238	keystroke_u	u	n/a
286.754	0.1205	573508	keystroke_r	r	n/a
286.8445	0.12	573689	keystroke_e	e	n/a
287.4595	0.135	574919	keystroke_s	s	n/a
287.6545	0.105	575309	keystroke_Key.space	Key.space	n/a
287.9545	0.105	575909	keystroke_a	a	n/a
288.3445	0.075	576689	keystroke_d	d	n/a
288.4795	0.09	576959	keystroke_o	o	n/a
288.7645	0.06	577529	keystroke_p	p	n/a
288.9595	0.06	577919	keystroke_t	t	n/a
289.1845	0.075	578369	keystroke_Key.enter	Key.enter	n/a
289.2635	8.2325	578527	prompt	n/a	indoor newest edge mother\n
289.9945	0.09	579989	keystroke_i	i	n/a
290.1745	0.075	580349	keystroke_n	n	n/a
290.4145	0.09	580829	keystroke_d	d	n/a
290.5495	0.075	581099	keystroke_o	o	n/a
290.8045	0.105	581609	keystroke_o	o	n/a
291.0145	0.075	582029	keystroke_r	r	n/a
291.1945	0.105	582389	keystroke_Key.space	Key.space	n/a
292.5895	0.06	585179	keystroke_n	n	n/a
292.6945	0.195	585389	keystroke_e	e	n/a
292.8745	0.12	585749	keystroke_w	w	n/a
293.1295	0.09	586259	keystroke_e	e	n/a
293.3845	0.135	586769	keystroke_s	s	n/a
293.6245	0.09	587249	keystroke_t	t	n/a
293.8945	0.12	587789	keystroke_Key.space	Key.space	n/a
294.3145	0.075	588629	keystroke_e	e	n/a
294.5095	0.09	589019	keystroke_d	d	n/a
294.8245	0.075	589649	keystroke_g	g	n/a
295.0045	0.09	590009	keystroke_e	e	n/a
295.4845	0.105	590969	keystroke_Key.space	Key.space	n/a
295.7395	0.06	591479	keystroke_n	n	n/a
296.1745	0.09	592349	keystroke_Key.backspace	Key.backspace	n/a
296.4145	0.09	592829	keystroke_m	m	n/a
296.5645	0.12	593129	keystroke_o	o	n/a
296.7595	0.09	593519	keystroke_t	t	n/a
296.9095	0.075	593819	keystroke_h	h	n/a
297.0445	0.165	594089	keystroke_e	e	n/a
297.1495	0.12	594299	keystroke_r	r	n/a
297.4045	0.09	594809	keystroke_Key.enter	Key.enter	n/a
297.4995	10.917	594999	prompt	n/a	climb touched medicines algebra\n
298.6495	0.105	597299	keystroke_c	c	n/a
298.7845	0.09	597569	keystroke_l	l	n/a
298.9645	0.105	597929	keystroke_i	i	n/a
299.1745	0.09	598349	keystroke_m	m	n/a
299.6995	0.06	599399	keystroke_b	b	n/a
300.2395	0.12	600479	keystroke_Key.space	Key.space	n/a
300.5845	0.075	601169	keystroke_t	t	n/a
300.7045	0.075	601409	keystroke_o	o	n/a
300.8845	0.075	601769	keystroke_u	u	n/a
301.1845	0.165	602369	keystroke_c	c	n/a
301.4395	0.075	602879	keystroke_h	h	n/a
301.5445	0.15	603089	keystroke_e	e	n/a
301.8145	0.12	603629	keystroke_d	d	n/a
301.9645	0.12	603929	keystroke_Key.space	Key.space	n/a
302.3695	0.075	604739	keystroke_m	m	n/a
302.5045	0.09	605009	keystroke_e	e	n/a
302.7145	0.075	605429	keystroke_d	d	n/a
302.8495	0.09	605699	keystroke_i	i	n/a
303.0295	0.105	606059	keystroke_c	c	n/a
303.1795	0.105	606359	keystroke_i	i	n/a
303.3595	0.09	606719	keystroke_n	n	n/a
303.7795	0.09	607559	keystroke_e	e	n/a
304.0645	0.09	608129	keystroke_s	s	n/a
304.3195	0.09	608639	keystroke_Key.space	Key.space	n/a
304.5895	0.105	609179	keystroke_a	a	n/a
304.7245	0.09	609449	keystroke_l	l	n/a
304.9495	0.075	609899	keystroke_g	g	n/a
305.1595	0.18	610319	keystroke_e	e	n/a
305.3095	0.09	610619	keystroke_r	r	n/a
306.8695	0.075	613739	keystroke_Key.backspace	Key.backspace	n/a
307.7095	0.06	615419	keystroke_b	b	n/a
307.8145	0.105	615629	keystroke_r	r	n/a
307.9345	0.15	615869	keystroke_a	a	n/a
308.3395	0.075	616679	keystroke_Key.enter	Key.enter	n/a
308.4195	10.497	616839	prompt	n/a	parade experiment relatives associations\n
309.2995	0.105	618599	keystroke_p	p	n/a
309.4195	0.165	618839	keystroke_a	a	n/a
309.7195	0.075	619439	keystroke_r	r	n/a
309.8995	0.09	619799	keystroke_a	a	n/a
310.3495	0.09	620699	keystroke_d	d	n/a
310.5595	0.075	621119	keystroke_e	e	n/a
310.7095	0.105	621419	keystroke_Key.space	Key.space	n/a
310.9345	0.09	621869	keystroke_e	e	n/a
311.2645	0.12	622529	keystroke_x	x	n/a
311.4445	0.09	622889	keystroke_p	p	n/a
311.6395	0.18	623279	keystroke_e	e	n/a
311.7755	0.104	623551	keystroke_r	r	n/a
311.9545	0.075	623909	keystroke_i	i	n/a
312.3595	0.105	624719	keystroke_m	m	n/a
312.4795	0.105	624959	keystroke_e	e	n/a
312.6145	0.076	625229	keystroke_n	n	n/a
312.7795	0.06	625559	keystroke_t	t	n/a
313.5595	0.12	627119	keystroke_Key.space	Key.space	n/a
313.8595	0.09	627719	keystroke_r	r	n/a
313.9045	0.18	627809	keystroke_e	e	n/a
314.1595	0.135	628319	keystroke_l	l	n/a
314.8345	0.12	629669	keystroke_a	a	n/a
315.1495	0.06	630299	keystroke_t	t	n/a
315.2845	0.09	630569	keystroke_i	i	n/a
315.4645	0.09	630929	keystroke_v	v	n/a
315.6595	0.075	631319	keystroke_e	e	n/a
315.8545	0.09	631709	keystroke_s	s	n/a
316.0195	0.12	632039	keystroke_Key.space	Key.space	n/a
316.3195	0.09	632639	keystroke_a	a	n/a
316.6045	0.075	633209	keystroke_s	s	n/a
316.7845	0.09	633569	keystroke_s	s	n/a
316.9945	0.09	633989	keystroke_o	o	n/a
317.1605	0.119	634321	keystroke_c	c	n/a
317.3695	0.075	634739	keystroke_i	i	n/a
317.5045	0.166	635009	keystroke_a	a	n/a
317.6995	0.09	635399	keystroke_t	t	n/a
317.8495	0.091	635699	keystroke_i	i	n/a
318.0445	0.075	636089	keystroke_o	o	n/a
318.1945	0.076	636389	keystroke_n	n	n/a
318.4795	0.12	636959	keystroke_s	s	n/a
318.8545	0.06	637709	keystroke_Key.enter	Key.enter	n/a
318.9195	7.377	637839	prompt	n/a	dropped charged ocean marble\n
319.8295	0.075	639659	keystroke_d	d	n/a
320.0095	0.06	640019	keystroke_r	r	n/a
320.1445	0.105	640289	keystroke_o	o	n/a
320.3555	0.075	640711	keystroke_p	p	n/a
320.5195	0.09	641039	keystroke_p	p	n/a
320.6695	0.105	641339	keystroke_e	e	n/a
320.8645	0.091	641729	keystroke_d	d	n/a
321.0445	0.09	642089	keystroke_Key.space	Key.space	n/a
321.2995	0.135	642599	keystroke_c	c	n/a
321.4645	0.076	642929	keystroke_h	h	n/a
321.6605	0.15	643321	keystroke_a	a	n/a
321.7945	0.09	643589	keystroke_r	r	n/a
322.0495	0.09	644099	keystroke_g	g	n/a
322.2595	0.075	644519	keystroke_e	e	n/a
322.5145	0.106	645029	keystroke_d	d	n/a
322.7395	0.09	645479	keystroke_Key.space	Key.space	n/a
322.9795	0.075	645959	keystroke_o	o	n/a
323.3545	0.09	646709	keystroke_c	c	n/a
323.5505	0.164	647101	keystroke_e	e	n/a
323.6705	0.119	647341	keystroke_a	a	n/a
323.8805	0.089	647761	keystroke_n	n	n/a
324.1195	0.09	648239	keystroke_Key.space	Key.space	n/a
324.3905	0.075	648781	keystroke_m	m	n/a
324.5395	0.165	649079	keystroke_a	a	n/a
324.7345	0.09	649469	keystroke_r	r	n/a
325.2145	0.075	650429	keystroke_b	b	n/a
325.4255	0.074	650851	keystroke_l	l	n/a
325.9055	0.09	651811	keystroke_e	e	n/a
326.2195	0.075	652439	keystroke_Key.enter	Key.enter	n/a
326.3095	4.217	652619	prompt	n/a	proceed hotels atlanta keeping\n
327.0455	0.104	654091	keystroke_p	p	n/a
327.1945	0.075	654389	keystroke_r	r	n/a
327.3595	0.061	654719	keystroke_o	o	n/a
327.6455	0.104	655291	keystroke_c	c	n/a
327.9145	0.061	655829	keystroke_e	e	n/a
328.0805	0.089	656161	keystroke_e	e	n/a
328.3195	0.166	656639	keystroke_d	d	n/a
328.6645	0.105	657329	keystroke_Key.space	Key.space	n/a
329.1155	0.044	658231	keystroke_h	h	n/a
329.2655	0.09	658531	keystroke_o	o	n/a
329.4305	0.09	658861	keystroke_t	t	n/a
329.6405	0.074	659281	keystroke_e	e	n/a
329.8055	0.089	659611	keystroke_l	l	n/a
330.0895	0.091	660179	keystroke_s	s	n/a
330.4645	0.06	660929	keystroke_Key.enter	Key.enter	n/a
330.529	8.4275	661058	prompt	n/a	nail searches apparently friendly\n
331.0955	0.165	662191	keystroke_a	a	n/a
331.2605	0.089	662521	keystroke_t	t	n/a
331.7855	0.075	663571	keystroke_l	l	n/a
331.9055	0.119	663811	keystroke_a	a	n/a
332.0555	0.075	664111	keystroke_n	n	n/a
332.4145	0.091	664829	keystroke_t	t	n/a
332.6105	0.105	665221	keystroke_a	a	n/a
332.8195	0.106	665639	keystroke_Key.space	Key.space	n/a
333.1655	0.12	666331	keystroke_a	a	n/a
333.2995	0.075	666599	keystroke_p	p	n/a
333.4805	0.089	666961	keystroke_p	p	n/a
333.6455	0.12	667291	keystroke_a	a	n/a
333.8255	0.089	667651	keystroke_r	r	n/a
334.0205	0.089	668041	keystroke_e	e	n/a
334.2155	0.105	668431	keystroke_n	n	n/a
334.3805	0.075	668761	keystroke_t	t	n/a
334.7555	0.09	669511	keystroke_l	l	n/a
335.0555	0.074	670111	keystroke_y	y	n/a
335.7	0.135	671400	keystroke_Key.space	Key.space	n/a
335.97	0.09	671940	keystroke_f	f	n/a
336.075	0.09	672150	keystroke_r	r	n/a
336.225	0.09	672450	keystroke_i	i	n/a
336.39	0.09	672780	keystroke_e	e	n/a
336.555	0.075	673110	keystroke_n	n	n/a
336.72	0.075	673440	keystroke_d	d	n/a
337.05	0.105	674100	keystroke_l	l	n/a
337.38	0.06	674760	keystroke_y	y	n/a
338.895	0.06	677790	keystroke_Key.enter	Key.enter	n/a
338.959	6.9725	677918	prompt	n/a	files western manga launches\n
339.915	0.09	679830	keystroke_f	f	n/a
340.02	0.09	680040	keystroke_i	i	n/a
340.215	0.09	680430	keystroke_l	l	n/a
340.35	0.135	680700	keystroke_e	e	n/a
340.59	0.09	681180	keystroke_s	s	n/a
340.785	0.09	681570	keystroke_Key.space	Key.space	n/a
341.055	0.195	682110	keystroke_w	w	n/a
341.175	0.12	682350	keystroke_e	e	n/a
341.475	0.12	682950	keystroke_s	s	n/a
341.745	0.075	683490	keystroke_t	t	n/a
341.925	0.15	683850	keystroke_e	e	n/a
342.045	0.105	684090	keystroke_r	r	n/a
342.255	0.075	684510	keystroke_n	n	n/a
342.435	0.12	684870	keystroke_Key.space	Key.space	n/a
342.78	0.09	685560	keystroke_m	m	n/a
342.915	0.12	685830	keystroke_a	a	n/a
343.065	0.075	686130	keystroke_n	n	n/a
343.26	0.06	686520	keystroke_g	g	n/a
343.44	0.12	686880	keystroke_a	a	n/a
343.815	0.135	687630	keystroke_Key.space	Key.space	n/a
344.1	0.09	688200	keystroke_l	l	n/a
344.22	0.135	688440	keystroke_a	a	n/a
344.4	0.09	688800	keystroke_u	u	n/a
344.835	0.075	689670	keystroke_n	n	n/a
345.105	0.105	690210	keystroke_c	c	n/a
345.27	0.075	690540	keystroke_h	h	n/a
345.42	0.135	690840	keystroke_e	e	n/a
345.675	0.105	691350	keystroke_s	s	n/a
345.855	0.075	691710	keystroke_Key.enter	Key.enter	n/a
345.9345	11.052	691869	prompt	n/a	yacht epinions particle cement\n
348.1375	0.013	696275	keystroke_y	y	n/a
348.2105	0.105	696421	keystroke_a	a	n/a
348.4355	0.105	696871	keystroke_c	c	n/a
348.5705	0.09	697141	keystroke_h	h	n/a
349.3355	0.075	698671	keystroke_t	t	n/a
349.5445	0.105	699089	keystroke_Key.space	Key.space	n/a
349.8605	0.09	699721	keystroke_e	e	n/a
349.9955	0.09	699991	keystroke_p	p	n/a
351.2395	0.076	702479	keystroke_i	i	n/a
351.4205	0.075	702841	keystroke_n	n	n/a
351.5705	0.105	703141	keystroke_i	i	n/a
351.9005	0.075	703801	keystroke_o	o	n/a
352.1255	0.06	704251	keystroke_n	n	n/a
352.5755	0.105	705151	keystroke_s	s	n/a
352.7995	0.106	705599	keystroke_Key.space	Key.space	n/a
353.2805	0.075	706561	keystroke_p	p	n/a
353.4005	0.165	706801	keystroke_a	a	n/a
353.6255	0.075	707251	keystroke_r	r	n/a
353.8205	0.06	707641	keystroke_t	t	n/a
353.9705	0.09	707941	keystroke_i	i	n/a
354.1505	0.105	708301	keystroke_c	c	n/a
354.3145	0.106	708629	keystroke_l	l	n/a
354.7955	0.075	709591	keystroke_e	e	n/a
355.1255	0.105	710251	keystroke_Key.space	Key.space	n/a
355.8455	0.15	711691	keystroke_c	c	n/a
355.9655	0.105	711931	keystroke_e	e	n/a
356.0855	0.09	712171	keystroke_m	m	n/a
356.2505	0.09	712501	keystroke_e	e	n/a
356.3855	0.06	712771	keystroke_n	n	n/a
356.5205	0.075	713041	keystroke_t	t	n/a
356.9255	0.06	713851	keystroke_Key.enter	Key.enter	n/a
356.9895	13.4375	713979	prompt	n/a	serious disks ordinary patent\n
357.7205	0.195	715441	keystroke_s	s	n/a
357.8105	0.195	715621	keystroke_e	e	n/a
357.9755	0.09	715951	keystroke_r	r	n/a
358.1105	0.075	716221	keystroke_i	i	n/a
358.2755	0.09	716551	keystroke_o	o	n/a
358.6655	0.09	717331	keystroke_u	u	n/a
358.9355	0.105	717871	keystroke_s	s	n/a
359.2645	0.091	718529	keystroke_Key.space	Key.space	n/a
360.0155	0.105	720031	keystroke_d	d	n/a
360.1505	0.09	720301	keystroke_i	i	n/a
360.3005	0.105	720601	keystroke_s	s	n/a
360.4505	0.09	720901	keystroke_l	l	n/a
361.02	0.105	722040	keystroke_s	s	n/a
361.215	0.105	722430	keystroke_Key.space	Key.space	n/a
361.7855	0.075	723571	keystroke_o	o	n/a
361.9205	0.075	723841	keystroke_r	r	n/a
362.1005	0.045	724201	keystroke_i	i	n/a
362.5955	0.06	725191	keystroke_Key.backspace	Key.backspace	n/a
362.7455	0.075	725491	keystroke_d	d	n/a
362.8805	0.06	725761	keystroke_i	i	n/a
363.7805	0.075	727561	keystroke_Key.backspace	Key.backspace	n/a
363.9755	0.06	727951	keystroke_Key.backspace	Key.backspace	n/a
364.1555	0.06	728311	keystroke_Key.backspace	Key.backspace	n/a
364.3205	0.06	728641	keystroke_Key.backspace	Key.backspace	n/a
364.5005	0.06	729001	keystroke_Key.backspace	Key.backspace	n/a
364.6655	0.075	729331	keystroke_Key.backspace	Key.backspace	n/a
365.1305	0.045	730261	keystroke_Key.backspace	Key.backspace	n/a
365.8355	0.075	731671	keystroke_k	k	n/a
365.9855	0.12	731971	keystroke_s	s	n/a
366.1505	0.09	732301	keystroke_Key.space	Key.space	n/a
366.9305	0.075	733861	keystroke_o	o	n/a
367.0655	0.06	734131	keystroke_r	r	n/a
367.2605	0.075	734521	keystroke_d	d	n/a
367.4105	0.09	734821	keystroke_i	i	n/a
367.5905	0.075	735181	keystroke_n	n	n/a
367.7255	0.165	735451	keystroke_a	a	n/a
367.9355	0.105	735871	keystroke_r	r	n/a
368.1305	0.075	736261	keystroke_y	y	n/a
368.4755	0.09	736951	keystroke_Key.space	Key.space	n/a
368.7605	0.045	737521	keystroke_p	p	n/a
368.8805	0.15	737761	keystroke_a	a	n/a
369.1355	0.09	738271	keystroke_t	t	n/a
369.7655	0.09	739531	keystroke_e	e	n/a
369.8855	0.09	739771	keystroke_n	n	n/a
370.0505	0.09	740101	keystroke_t	t	n/a
370.3505	0.075	740701	keystroke_Key.enter	Key.enter	n/a
370.43	6.6265	740860	prompt	n/a	mature motivated wider for\n
371.1755	0.09	742351	keystroke_m	m	n/a
371.2955	0.21	742591	keystroke_a	a	n/a
371.5205	0.12	743041	keystroke_t	t	n/a
371.7155	0.075	743431	keystroke_u	u	n/a
371.8655	0.09	743731	keystroke_r	r	n/a
372.0905	0.06	744181	keystroke_e	e	n/a
372.2255	0.105	744451	keystroke_Key.space	Key.space	n/a
372.6155	0.09	745231	keystroke_m	m	n/a
372.7205	0.12	745441	keystroke_o	o	n/a
372.9005	0.075	745801	keystroke_t	t	n/a
373.0355	0.075	746071	keystroke_i	i	n/a
373.6505	0.09	747301	keystroke_v	v	n/a
373.7855	0.135	747571	keystroke_a	a	n/a
374.0555	0.105	748111	keystroke_t	t	n/a
374.3555	0.075	748711	keystroke_e	e	n/a
374.5655	0.12	749131	keystroke_d	d	n/a
374.7455	0.12	749491	keystroke_Key.space	Key.space	n/a
375.3005	0.12	750601	keystroke_w	w	n/a
375.4355	0.09	750871	keystroke_i	i	n/a
375.6455	0.09	751291	keystroke_d	d	n/a
375.8555	0.18	751711	keystroke_e	e	n/a
375.9905	0.12	751981	keystroke_r	r	n/a
376.2005	0.12	752401	keystroke_Key.space	Key.space	n/a
376.5605	0.09	753121	keystroke_f	f	n/a
376.6655	0.105	753331	keystroke_o	o	n/a
376.8305	0.075	753661	keystroke_r	r	n/a
376.9955	0.06	753991	keystroke_Key.enter	Key.enter	n/a
377.059	9.5675	754118	prompt	n/a	around mathematical hosting milwaukee\n
377.9105	0.135	755821	keystroke_a	a	n/a
378.1505	0.09	756301	keystroke_r	r	n/a
378.2705	0.135	756541	keystroke_o	o	n/a
378.4355	0.09	756871	keystroke_u	u	n/a
378.645	0.09	757290	keystroke_n	n	n/a
379.1105	0.09	758221	keystroke_d	d	n/a
379.2605	0.12	758521	keystroke_Key.space	Key.space	n/a
379.4855	0.105	758971	keystroke_m	m	n/a
379.6055	0.18	759211	keystroke_a	a	n/a
379.8005	0.075	759601	keystroke_t	t	n/a
379.9505	0.09	759901	keystroke_h	h	n/a
380.1305	0.09	760261	keystroke_e	e	n/a
380.5205	0.105	761041	keystroke_m	m	n/a
380.6405	0.15	761281	keystroke_a	a	n/a
380.8805	0.09	761761	keystroke_t	t	n/a
381.0155	0.105	762031	keystroke_i	i	n/a
381.1955	0.15	762391	keystroke_c	c	n/a
381.4055	0.15	762811	keystroke_a	a	n/a
381.6005	0.12	763201	keystroke_l	l	n/a
381.9155	0.12	763831	keystroke_Key.space	Key.space	n/a
382.3805	0.06	764761	keystroke_h	h	n/a
382.5155	0.105	765031	keystroke_o	o	n/a
382.6355	0.165	765271	keystroke_s	s	n/a
382.8155	0.105	765631	keystroke_t	t	n/a
382.9505	0.09	765901	keystroke_i	i	n/a
383.1155	0.09	766231	keystroke_n	n	n/a
383.2655	0.09	766531	keystroke_g	g	n/a
383.4005	0.09	766801	keystroke_Key.space	Key.space	n/a
383.6855	0.18	767371	keystroke_m	m	n/a
383.8505	0.12	767701	keystroke_i	i	n/a
384.4055	0.075	768811	keystroke_l	l	n/a
385.3055	0.195	770611	keystroke_w	w	n/a
385.4555	0.135	770911	keystroke_a	a	n/a
385.6055	0.105	771211	keystroke_u	u	n/a
385.7855	0.12	771571	keystroke_l	l	n/a
386.0255	0.105	772051	keystroke_k	k	n/a
386.2055	0.06	772411	keystroke_e	e	n/a
386.3705	0.09	772741	keystroke_e	e	n/a
386.5355	0.09	773071	keystroke_Key.enter	Key.enter	n/a
386.63	13.842	773260	prompt	n/a	observer heath acrylic vincent\n
387.5105	0.075	775021	keystroke_o	o	n/a
387.6905	0.075	775381	keystroke_b	b	n/a
388.0955	0.225	776191	keystroke_s	s	n/a
388.2005	0.165	776401	keystroke_e	e	n/a
388.3055	0.105	776611	keystroke_r	r	n/a
388.5755	0.075	777151	keystroke_v	v	n/a
388.7405	0.18	777481	keystroke_e	e	n/a
388.8905	0.075	777781	keystroke_r	r	n/a
389.0855	0.12	778171	keystroke_Key.space	Key.space	n/a
389.5505	0.075	779101	keystroke_h	h	n/a
389.6855	0.15	779371	keystroke_e	e	n/a
389.8505	0.135	779701	keystroke_a	a	n/a
390.2255	0.09	780451	keystroke_t	t	n/a
390.3755	0.09	780751	keystroke_h	h	n/a
390.6155	0.105	781231	keystroke_Key.space	Key.space	n/a
390.9605	0.105	781921	keystroke_a	a	n/a
391.1705	0.105	782341	keystroke_c	c	n/a
391.4405	0.105	782881	keystroke_r	r	n/a
391.7855	0.075	783571	keystroke_y	y	n/a
391.9955	0.105	783991	keystroke_l	l	n/a
392.1905	0.075	784381	keystroke_i	i	n/a
392.3855	0.12	784771	keystroke_c	c	n/a
393.0005	0.12	786001	keystroke_Key.space	Key.space	n/a
393.3605	0.09	786721	keystroke_v	v	n/a
393.4955	0.09	786991	keystroke_o	o	n/a
393.6755	0.075	787351	keystroke_n	n	n/a
393.7655	0.21	787531	keystroke_c	c	n/a
393.9605	0.12	787921	keystroke_e	e	n/a
394.3655	0.09	788731	keystroke_n	n	n/a
394.5455	0.09	789091	keystroke_t	t	n/a
395.1455	0.09	790291	keystroke_Key.backspace	Key.backspace	n/a
395.3405	0.075	790681	keystroke_Key.backspace	Key.backspace	n/a
395.5355	0.045	791071	keystroke_Key.backspace	Key.backspace	n/a
395.7155	0.06	791431	keystroke_Key.backspace	Key.backspace	n/a
395.9105	0.075	791821	keystroke_Key.backspace	Key.backspace	n/a
396.2405	0.09	792481	keystroke_Key.backspace	Key.backspace	n/a
396.8555	0.06	793711	keystroke_o	o	n/a
396.8705	0.03	793741	keystroke_i	i	n/a
397.0355	0.06	794071	keystroke_n	n	n/a
398.1605	0.075	796321	keystroke_Key.backspace	Key.backspace	n/a
398.3855	0.075	796771	keystroke_Key.backspace	Key.backspace	n/a
398.6105	0.06	797221	keystroke_Key.backspace	Key.backspace	n/a
399.2105	0.06	798421	keystroke_i	i	n/a
399.3605	0.075	798721	keystroke_n	n	n/a
399.5105	0.12	799021	keystroke_c	c	n/a
399.6155	0.105	799231	keystroke_e	e	n/a
400.0805	0.06	800161	keystroke_n	n	n/a
400.2005	0.075	800401	keystroke_t	t	n/a
400.3955	0.075	800791	keystroke_Key.enter	Key.enter	n/a
400.4755	12.7615	800951	prompt	n/a	subject ordered presidential manage\n
401.4305	0.105	802861	keystroke_s	s	n/a
401.5355	0.075	803071	keystroke_u	u	n/a
401.7305	0.09	803461	keystroke_b	b	n/a
402.4805	0.06	804961	keystroke_j	j	n/a
402.6005	0.09	805201	keystroke_e	e	n/a
402.8255	0.09	805651	keystroke_c	c	n/a
403.0505	0.075	806101	keystroke_t	t	n/a
403.2605	0.09	806521	keystroke_Key.space	Key.space	n/a
403.7555	0.09	807511	keystroke_o	o	n/a
403.8755	0.09	807751	keystroke_r	r	n/a
404.0705	0.105	808141	keystroke_d	d	n/a
404.2055	0.195	808411	keystroke_e	e	n/a
404.3555	0.075	808711	keystroke_r	r	n/a
404.8055	0.105	809611	keystroke_d	d	n/a
405.0755	0.09	810151	keystroke_Key.space	Key.space	n/a
405.8855	0.045	811771	keystroke_Key.backspace	Key.backspace	n/a
406.0655	0.09	812131	keystroke_Key.backspace	Key.backspace	n/a
406.2455	0.105	812491	keystroke_e	e	n/a
406.4705	0.075	812941	keystroke_d	d	n/a
406.6355	0.105	813271	keystroke_Key.space	Key.space	n/a
407.2955	0.105	814591	keystroke_p	p	n/a
407.4155	0.09	814831	keystroke_r	r	n/a
407.4755	0.18	814951	keystroke_e	e	n/a
407.6405	0.135	815281	keystroke_s	s	n/a
407.8955	0.105	815791	keystroke_i	i	n/a
408.4205	0.09	816841	keystroke_d	d	n/a
408.6155	0.09	817231	keystroke_e	e	n/a
408.7355	0.075	817471	keystroke_n	n	n/a
408.8705	0.075	817741	keystroke_t	t	n/a
408.9605	0.075	817921	keystroke_i	i	n/a
409.1555	0.045	818311	keystroke_o	o	n/a
409.5455	0.075	819091	keystroke_Key.backspace	Key.backspace	n/a
409.6505	0.12	819301	keystroke_a	a	n/a
409.8005	0.06	819601	keystroke_n	n	n/a
410.9855	0.075	821971	keystroke_Key.backspace	Key.backspace	n/a
411.2705	0.075	822541	keystroke_l	l	n/a
411.6005	0.075	823201	keystroke_Key.space	Key.space	n/a
412.1705	0.06	824341	keystroke_m	m	n/a
412.2905	0.135	824581	keystroke_a	a	n/a
412.4105	0.075	824821	keystroke_n	n	n/a
412.5755	0.12	825151	keystroke_a	a	n/a
412.7105	0.075	825421	keystroke_g	g	n/a
412.8605	0.075	825721	keystroke_e	e	n/a
413.1755	0.06	826351	keystroke_Key.enter	Key.enter	n/a
413.241	11.246	826482	prompt	n/a	golf beginner coverage volumes\n
414.5855	0.09	829171	keystroke_g	g	n/a
414.6905	0.09	829381	keystroke_o	o	n/a
414.8855	0.09	829771	keystroke_l	l	n/a
415.0505	0.075	830101	keystroke_f	f	n/a
415.1855	0.09	830371	keystroke_Key.space	Key.space	n/a
415.8905	0.075	831781	keystroke_b	b	n/a
416.0255	0.105	832051	keystroke_e	e	n/a
416.1755	0.075	832351	keystroke_g	g	n/a
416.3705	0.075	832741	keystroke_o	o	n/a
416.3855	0.045	832771	keystroke_i	i	n/a
416.5355	0.09	833071	keystroke_n	n	n/a
417.4205	0.06	834841	keystroke_Key.backspace	Key.backspace	n/a
417.6005	0.06	835201	keystroke_Key.backspace	Key.backspace	n/a
417.7655	0.105	835531	keystroke_Key.backspace	Key.backspace	n/a
418.5455	0.075	837091	keystroke_i	i	n/a
419.3405	0.06	838681	keystroke_n	n	n/a
419.4905	0.075	838981	keystroke_n	n	n/a
419.5955	0.195	839191	keystroke_e	e	n/a
419.7155	0.12	839431	keystroke_r	r	n/a
419.8955	0.12	839791	keystroke_Key.space	Key.space	n/a
420.4955	0.12	840991	keystroke_c	c	n/a
420.6005	0.105	841201	keystroke_o	o	n/a
421.0205	0.075	842041	keystroke_v	v	n/a
421.2155	0.15	842431	keystroke_e	e	n/a
421.3205	0.105	842641	keystroke_r	r	n/a
421.5155	0.12	843031	keystroke_a	a	n/a
421.8155	0.075	843631	keystroke_g	g	n/a
422.0705	0.105	844141	keystroke_e	e	n/a
422.3855	0.105	844771	keystroke_Key.space	Key.space	n/a
422.8655	0.09	845731	keystroke_v	v	n/a
422.9705	0.09	845941	keystroke_o	o	n/a
423.1955	0.075	846391	keystroke_l	l	n/a
423.4205	0.09	846841	keystroke_u	u	n/a
423.6755	0.09	847351	keystroke_m	m	n/a
423.8555	0.165	847711	keystroke_e	e	n/a
424.0055	0.15	848011	keystroke_s	s	n/a
424.4105	0.075	848821	keystroke_Key.enter	Key.enter	n/a
424.49	8.502	848980	prompt	n/a	chain time legacy exports\n
425.2655	0.12	850531	keystroke_c	c	n/a
425.3855	0.075	850771	keystroke_h	h	n/a
425.5505	0.135	851101	keystroke_a	a	n/a
425.6705	0.09	851341	keystroke_i	i	n/a
425.8205	0.105	851641	keystroke_n	n	n/a
426.1805	0.105	852361	keystroke_Key.space	Key.space	n/a
426.5555	0.075	853111	keystroke_t	t	n/a
426.6455	0.09	853291	keystroke_i	i	n/a
426.8255	0.09	853651	keystroke_m	m	n/a
426.9305	0.12	853861	keystroke_e	e	n/a
427.1105	0.105	854221	keystroke_Key.space	Key.space	n/a
427.9505	0.09	855901	keystroke_l	l	n/a
428.0855	0.135	856171	keystroke_e	e	n/a
429.3455	0.075	858691	keystroke_g	g	n/a
429.3905	0.135	858781	keystroke_a	a	n/a
429.8555	0.12	859711	keystroke_c	c	n/a
430.0355	0.09	860071	keystroke_y	y	n/a
430.4555	0.105	860911	keystroke_Key.space	Key.space	n/a
430.8905	0.075	861781	keystroke_e	e	n/a
431.1305	0.105	862261	keystroke_x	x	n/a
431.3705	0.105	862741	keystroke_p	p	n/a
431.5805	0.075	863161	keystroke_o	o	n/a
431.7455	0.105	863491	keystroke_r	r	n/a
431.9705	0.105	863941	keystroke_t	t	n/a
432.3605	0.12	864721	keystroke_s	s	n/a
432.9155	0.075	865831	keystroke_Key.enter	Key.enter	n/a
432.9965	11.8455	865993	prompt	n/a	rentals creature perception different\n
433.9805	0.12	867961	keystroke_r	r	n/a
434.0555	0.15	868111	keystroke_e	e	n/a
434.2505	0.09	868501	keystroke_n	n	n/a
434.3705	0.105	868741	keystroke_t	t	n/a
434.5055	0.135	869011	keystroke_a	a	n/a
434.6855	0.09	869371	keystroke_l	l	n/a
435.0305	0.12	870061	keystroke_s	s	n/a
435.6605	0.105	871321	keystroke_Key.backspace	Key.backspace	n/a
436.1255	0.12	872251	keystroke_s	s	n/a
436.3205	0.105	872641	keystroke_Key.space	Key.space	n/a
437.0405	0.105	874081	keystroke_c	c	n/a
437.2055	0.105	874411	keystroke_r	r	n/a
437.4305	0.105	874861	keystroke_e	e	n/a
437.5505	0.15	875101	keystroke_a	a	n/a
438.0905	0.09	876181	keystroke_t	t	n/a
438.2405	0.09	876481	keystroke_u	u	n/a
438.3755	0.135	876751	keystroke_r	r	n/a
438.7205	0.105	877441	keystroke_e	e	n/a
438.9605	0.135	877921	keystroke_Key.space	Key.space	n/a
439.3205	0.075	878641	keystroke_p	p	n/a
439.6955	0.165	879391	keystroke_e	e	n/a
439.8755	0.09	879751	keystroke_r	r	n/a
440.2055	0.12	880411	keystroke_c	c	n/a
441.5705	0.105	883141	keystroke_e	e	n/a
441.7055	0.105	883411	keystroke_p	p	n/a
441.8855	0.075	883771	keystroke_t	t	n/a
442.0205	0.06	884041	keystroke_i	i	n/a
442.2155	0.075	884431	keystroke_o	o	n/a
442.3805	0.075	884761	keystroke_n	n	n/a
442.5755	0.09	885151	keystroke_Key.space	Key.space	n/a
442.9955	0.105	885991	keystroke_d	d	n/a
443.1155	0.09	886231	keystroke_i	i	n/a
443.2655	0.09	886531	keystroke_f	f	n/a
443.4155	0.105	886831	keystroke_f	f	n/a
443.6105	0.135	887221	keystroke_e	e	n/a
443.7155	0.09	887431	keystroke_r	r	n/a
444.2405	0.075	888481	keystroke_e	e	n/a
444.4205	0.075	888841	keystroke_n	n	n/a
444.5705	0.105	889141	keystroke_t	t	n/a
444.7805	0.06	889561	keystroke_Key.enter	Key.enter	n/a
444.845	10.077	889690	prompt	n/a	accessible yale detroit harbor\n
445.6055	0.105	891211	keystroke_a	a	n/a
445.8605	0.09	891721	keystroke_c	c	n/a
446.0855	0.09	892171	keystroke_c	c	n/a
446.3705	0.09	892741	keystroke_e	e	n/a
446.5955	0.09	893191	keystroke_s	s	n/a
446.7905	0.09	893581	keystroke_s	s	n/a
446.9705	0.105	893941	keystroke_i	i	n/a
447.4805	0.075	894961	keystroke_b	b	n/a
447.6605	0.105	895321	keystroke_l	l	n/a
447.8555	0.09	895711	keystroke_e	e	n/a
448.0205	0.09	896041	keystroke_Key.space	Key.space	n/a
448.5155	0.09	897031	keystroke_y	y	n/a
448.6805	0.135	897361	keystroke_a	a	n/a
448.8305	0.105	897661	keystroke_l	l	n/a
449.0255	0.105	898051	keystroke_e	e	n/a
449.1905	0.105	898381	keystroke_Key.space	Key.space	n/a
449.5955	0.09	899191	keystroke_d	d	n/a
449.7905	0.105	899581	keystroke_e	e	n/a
450.0005	0.075	900001	keystroke_t	t	n/a
450.2105	0.075	900421	keystroke_r	r	n/a
450.3905	0.075	900781	keystroke_o	o	n/a
450.5855	0.075	901171	keystroke_i	i	n/a
450.8255	0.09	901651	keystroke_t	t	n/a
451.0805	0.105	902161	keystroke_Key.space	Key.space	n/a
453.7075	0.001	907415	keystroke_h	h	n/a
453.7805	0.18	907561	keystroke_a	a	n/a
453.9905	0.075	907981	keystroke_r	r	n/a
454.2305	0.075	908461	keystroke_b	b	n/a
454.4255	0.075	908851	keystroke_o	o	n/a
454.5905	0.09	909181	keystroke_r	r	n/a
454.8455	0.075	909691	keystroke_Key.enter	Key.enter	n/a
454.925	8.742	909850	prompt	n/a	raymond donation rest evolution\n
455.7905	0.135	911581	keystroke_r	r	n/a
455.8955	0.15	911791	keystroke_a	a	n/a
456.1505	0.105	912301	keystroke_y	y	n/a
456.5255	0.135	913051	keystroke_m	m	n/a
456.6755	0.105	913351	keystroke_o	o	n/a
456.8705	0.09	913741	keystroke_n	n	n/a
457.0805	0.135	914161	keystroke_d	d	n/a
457.2455	0.12	914491	keystroke_Key.space	Key.space	n/a
457.8155	0.105	915631	keystroke_d	d	n/a
457.9355	0.09	915871	keystroke_o	o	n/a
458.1005	0.09	916201	keystroke_n	n	n/a
458.2655	0.165	916531	keystroke_a	a	n/a
458.4455	0.09	916891	keystroke_t	t	n/a
458.5655	0.09	917131	keystroke_i	i	n/a
458.7605	0.075	917521	keystroke_o	o	n/a
458.9105	0.09	917821	keystroke_n	n	n/a
459.1205	0.09	918241	keystroke_Key.space	Key.space	n/a
459.6755	0.135	919351	keystroke_r	r	n/a
459.7805	0.18	919561	keystroke_e	e	n/a
459.9155	0.135	919831	keystroke_s	s	n/a
460.1105	0.09	920221	keystroke_t	t	n/a
460.2905	0.135	920581	keystroke_Key.space	Key.space	n/a
460.7255	0.075	921451	keystroke_e	e	n/a
460.9505	0.09	921901	keystroke_v	v	n/a
461.1605	0.09	922321	keystroke_o	o	n/a
461.4005	0.105	922801	keystroke_l	l	n/a
461.8205	0.06	923641	keystroke_u	u	n/a
462.4805	0.09	924961	keystroke_t	t	n/a
462.6155	0.06	925231	keystroke_i	i	n/a
462.7805	0.09	925561	keystroke_o	o	n/a
462.9605	0.06	925921	keystroke_n	n	n/a
463.6205	0.045	927241	keystroke_Key.enter	Key.enter	n/a
463.6705	13.422	927341	prompt	n/a	comparisons possess completing allocated\n
464.0255	0.045	928051	keystroke_k	k	n/a
464.7455	0.06	929491	keystroke_Key.backspace	Key.backspace	n/a
465.4505	0.105	930901	keystroke_c	c	n/a
465.5705	0.09	931141	keystroke_o	o	n/a
465.7355	0.12	931471	keystroke_m	m	n/a
465.8855	0.09	931771	keystroke_p	p	n/a
466.0655	0.165	932131	keystroke_a	a	n/a
466.2455	0.09	932491	keystroke_r	r	n/a
466.9805	0.075	933961	keystroke_i	i	n/a
468.0305	0.12	936061	keystroke_s	s	n/a
468.1355	0.09	936271	keystroke_o	o	n/a
468.3005	0.09	936601	keystroke_n	n	n/a
468.4655	0.105	936931	keystroke_s	s	n/a
468.6605	0.105	937321	keystroke_Key.space	Key.space	n/a
470.0705	0.075	940141	keystroke_p	p	n/a
470.2655	0.075	940531	keystroke_o	o	n/a
470.6105	0.09	941221	keystroke_s	s	n/a
470.7755	0.12	941551	keystroke_s	s	n/a
470.9555	0.09	941911	keystroke_e	e	n/a
471.1655	0.075	942331	keystroke_s	s	n/a
471.3455	0.12	942691	keystroke_s	s	n/a
471.4955	0.12	942991	keystroke_Key.space	Key.space	n/a
471.9755	0.105	943951	keystroke_c	c	n/a
472.0955	0.09	944191	keystroke_o	o	n/a
472.2605	0.12	944521	keystroke_m	m	n/a
472.5005	0.075	945001	keystroke_p	p	n/a
472.8155	0.105	945631	keystroke_e	e	n/a
473.2655	0.075	946531	keystroke_Key.backspace	Key.backspace	n/a
473.5355	0.09	947071	keystroke_l	l	n/a
473.6855	0.09	947371	keystroke_e	e	n/a
474.1055	0.075	948211	keystroke_t	t	n/a
474.2405	0.09	948481	keystroke_i	i	n/a
474.4355	0.075	948871	keystroke_n	n	n/a
474.6005	0.075	949201	keystroke_g	g	n/a
474.7505	0.09	949501	keystroke_Key.space	Key.space	n/a
475.5155	0.12	951031	keystroke_a	a	n/a
475.6505	0.075	951301	keystroke_l	l	n/a
475.8155	0.09	951631	keystroke_l	l	n/a
476.0105	0.06	952021	keystroke_o	o	n/a
476.1305	0.12	952261	keystroke_c	c	n/a
476.2655	0.15	952531	keystroke_a	a	n/a
476.4755	0.09	952951	keystroke_t	t	n/a
476.6705	0.09	953341	keystroke_e	e	n/a
476.8505	0.075	953701	keystroke_d	d	n/a
477.0155	0.075	954031	keystroke_Key.enter	Key.enter	n/a
477.095	17.1725	954190	prompt	n/a	artificial doctors composite uniprotkb\n
478.0505	0.135	956101	keystroke_a	a	n/a
478.2905	0.09	956581	keystroke_r	r	n/a
478.8305	0.075	957661	keystroke_t	t	n/a
478.9655	0.09	957931	keystroke_i	i	n/a
479.1155	0.105	958231	keystroke_f	f	n/a
479.2805	0.075	958561	keystroke_i	i	n/a
479.9855	0.12	959971	keystroke_c	c	n/a
480.1205	0.09	960241	keystroke_i	i	n/a
480.2555	0.135	960511	keystroke_a	a	n/a
480.4355	0.12	960871	keystroke_l	l	n/a
480.7205	0.105	961441	keystroke_Key.space	Key.space	n/a
481.1555	0.12	962311	keystroke_d	d	n/a
481.2905	0.135	962581	keystroke_o	o	n/a
481.4265	0.119	962853	keystroke_c	c	n/a
481.7405	0.09	963481	keystroke_o	o	n/a
481.8605	0.105	963721	keystroke_t	t	n/a
482.2505	0.045	964501	keystroke_Key.backspace	Key.backspace	n/a
482.4005	0.075	964801	keystroke_Key.backspace	Key.backspace	n/a
482.5655	0.09	965131	keystroke_t	t	n/a
482.6705	0.045	965341	keystroke_o	o	n/a
483.3155	0.135	966631	keystroke_r	r	n/a
483.5555	0.135	967111	keystroke_s	s	n/a
483.8105	0.135	967621	keystroke_Key.space	Key.space	n/a
484.1255	0.135	968251	keystroke_c	c	n/a
484.2755	0.105	968551	keystroke_o	o	n/a
484.4405	0.135	968881	keystroke_m	m	n/a
484.6205	0.12	969241	keystroke_o	o	n/a
486.0905	0.09	972181	keystroke_Key.backspace	Key.backspace	n/a
486.3455	0.06	972691	keystroke_p	p	n/a
486.5405	0.105	973081	keystroke_o	o	n/a
487.1255	0.15	974251	keystroke_s	s	n/a
487.2305	0.12	974461	keystroke_i	i	n/a
487.4105	0.165	974821	keystroke_t	t	n/a
487.5905	0.105	975181	keystroke_e	e	n/a
487.7555	0.12	975511	keystroke_Key.space	Key.space	n/a
488.3705	0.09	976741	keystroke_u	u	n/a
488.5505	0.09	977101	keystroke_n	n	n/a
488.6855	0.105	977371	keystroke_i	i	n/a
490.0955	0.15	980191	keystroke_p	p	n/a
490.2905	0.12	980581	keystroke_r	r	n/a
490.5605	0.09	981121	keystroke_o	o	n/a
492.1805	0.06	984361	keystroke_t	t	n/a
492.4955	0.105	984991	keystroke_k	k	n/a
493.0805	0.06	986161	keystroke_b	b	n/a
494.2205	0.045	988441	keystroke_Key.enter	Key.enter	n/a
494.2715	10.106	988543	prompt	n/a	trunk indirect exposure chip\n
495.6015	0.104	991203	keystroke_t	t	n/a
495.6605	0.15	991321	keystroke_r	r	n/a
495.8405	0.105	991681	keystroke_u	u	n/a
496.0205	0.09	992041	keystroke_n	n	n/a
496.1705	0.09	992341	keystroke_k	k	n/a
496.3505	0.105	992701	keystroke_Key.space	Key.space	n/a
496.5755	0.12	993151	keystroke_u	u	n/a
496.8005	0.06	993601	keystroke_n	n	n/a
497.2505	0.06	994501	keystroke_Key.backspace	Key.backspace	n/a
497.4155	0.075	994831	keystroke_Key.backspace	Key.backspace	n/a
497.6705	0.09	995341	keystroke_i	i	n/a
497.8355	0.075	995671	keystroke_n	n	n/a
498.5555	0.135	997111	keystroke_d	d	n/a
498.6755	0.09	997351	keystroke_i	i	n/a
498.8105	0.15	997621	keystroke_r	r	n/a
498.9615	0.089	997923	keystroke_e	e	n/a
499.1705	0.09	998341	keystroke_c	c	n/a
499.4405	0.075	998881	keystroke_t	t	n/a
499.6805	0.105	999361	keystroke_Key.space	Key.space	n/a
500.1155	0.06	1000231	keystroke_e	e	n/a
500.3405	0.105	1000681	keystroke_x	x	n/a
500.5055	0.105	1001011	keystroke_p	p	n/a
500.7905	0.06	1001581	keystroke_o	o	n/a
501.2415	0.104	1002483	keystroke_s	s	n/a
501.7955	0.045	1003591	keystroke_u	u	n/a
501.9455	0.18	1003891	keystroke_r	r	n/a
502.1105	0.105	1004221	keystroke_e	e	n/a
502.8605	0.135	1005721	keystroke_Key.space	Key.space	n/a
503.0555	0.135	1006111	keystroke_c	c	n/a
503.1755	0.09	1006351	keystroke_h	h	n/a
503.3105	0.12	1006621	keystroke_i	i	n/a
503.9105	0.045	1007821	keystroke_p	p	n/a
504.3005	0.075	1008601	keystroke_Key.enter	Key.enter	n/a
504.38	11.4575	1008760	prompt	n/a	translator security lyrics vampire\n
505.2005	0.135	1010401	keystroke_r	r	n/a
505.3205	0.045	1010641	keystroke_a	a	n/a
505.6505	0.105	1011301	keystroke_Key.backspace	Key.backspace	n/a
505.7855	0.165	1011571	keystroke_t	t	n/a
505.9055	0.195	1011811	keystroke_r	r	n/a
506.0405	0.135	1012081	keystroke_a	a	n/a
506.2055	0.105	1012411	keystroke_n	n	n/a
506.5955	0.06	1013191	keystroke_Key.backspace	Key.backspace	n/a
506.7905	0.06	1013581	keystroke_Key.backspace	Key.backspace	n/a
507.0005	0.03	1014001	keystroke_Key.backspace	Key.backspace	n/a
507.1655	0.06	1014331	keystroke_Key.backspace	Key.backspace	n/a
507.3305	0.075	1014661	keystroke_Key.backspace	Key.backspace	n/a
507.9005	0.12	1015801	keystroke_t	t	n/a
507.9605	0.18	1015921	keystroke_r	r	n/a
508.0965	0.134	1016193	keystroke_a	a	n/a
508.2155	0.09	1016431	keystroke_n	n	n/a
508.3955	0.135	1016791	keystroke_s	s	n/a
508.5455	0.09	1017091	keystroke_l	l	n/a
508.7255	0.12	1017451	keystroke_a	a	n/a
509.1305	0.091	1018261	keystroke_t	t	n/a
509.2665	0.089	1018533	keystroke_o	o	n/a
509.4455	0.075	1018891	keystroke_r	r	n/a
510.0755	0.135	1020151	keystroke_Key.space	Key.space	n/a
510.2855	0.225	1020571	keystroke_s	s	n/a
510.4505	0.105	1020901	keystroke_e	e	n/a
510.6755	0.12	1021351	keystroke_c	c	n/a
510.9005	0.106	1021801	keystroke_u	u	n/a
511.0655	0.105	1022131	keystroke_r	r	n/a
511.2305	0.09	1022461	keystroke_i	i	n/a
511.3805	0.075	1022761	keystroke_t	t	n/a
511.5465	0.075	1023093	keystroke_y	y	n/a
511.7705	0.09	1023541	keystroke_Key.space	Key.space	n/a
512.3255	0.105	1024651	keystroke_l	l	n/a
512.5505	0.075	1025101	keystroke_y	y	n/a
512.9865	0.074	1025973	keystroke_r	r	n/a
513.2415	0.014	1026483	keystroke_i	i	n/a
513.3155	0.135	1026631	keystroke_c	c	n/a
513.4805	0.15	1026961	keystroke_s	s	n/a
513.7355	0.12	1027471	keystroke_Key.space	Key.space	n/a
514.3805	0.12	1028761	keystroke_v	v	n/a
514.4705	0.135	1028941	keystroke_a	a	n/a
514.6805	0.105	1029361	keystroke_m	m	n/a
515.0265	0.075	1030053	keystroke_p	p	n/a
515.2205	0.09	1030441	keystroke_i	i	n/a
515.4305	0.136	1030861	keystroke_r	r	n/a
515.5505	0.12	1031101	keystroke_e	e	n/a
515.7605	0.075	1031521	keystroke_Key.enter	Key.enter	n/a
515.84	8.1575	1031680	prompt	n/a	cylinder venice karl divide\n
516.7055	0.136	1033411	keystroke_c	c	n/a
516.8555	0.105	1033711	keystroke_y	y	n/a
517.0805	0.105	1034161	keystroke_l	l	n/a
517.2915	0.089	1034583	keystroke_i	i	n/a
517.5455	0.06	1035091	keystroke_n	n	n/a
517.6955	0.105	1035391	keystroke_d	d	n/a
517.9365	0.149	1035873	keystroke_e	e	n/a
518.0415	0.119	1036083	keystroke_r	r	n/a
518.3405	0.09	1036681	keystroke_Key.space	Key.space	n/a
519.1355	0.106	1038271	keystroke_v	v	n/a
519.2715	0.104	1038543	keystroke_e	e	n/a
519.4365	0.075	1038873	keystroke_n	n	n/a
519.5855	0.106	1039171	keystroke_i	i	n/a
519.7815	0.224	1039563	keystroke_c	c	n/a
519.9915	0.126	1039983	keystroke_e	e	n/a
520.1855	0.105	1040371	keystroke_Key.space	Key.space	n/a
520.8005	0.106	1041601	keystroke_k	k	n/a
520.9505	0.181	1041901	keystroke_a	a	n/a
521.2365	0.09	1042473	keystroke_r	r	n/a
521.4315	0.12	1042863	keystroke_l	l	n/a
521.7305	0.106	1043461	keystroke_Key.space	Key.space	n/a
522.3755	0.091	1044751	keystroke_d	d	n/a
522.5265	0.09	1045053	keystroke_i	i	n/a
522.6605	0.09	1045321	keystroke_v	v	n/a
522.8555	0.091	1045711	keystroke_i	i	n/a
523.4565	0.06	1046913	keystroke_d	d	n/a
523.6665	0.06	1047333	keystroke_e	e	n/a
523.9355	0.06	1047871	keystroke_Key.enter	Key.enter	n/a
524.001	10.7825	1048002	prompt	n/a	yamaha resources danger fundraising\n
525.1215	0.09	1050243	keystroke_y	y	n/a
525.3015	0.12	1050603	keystroke_a	a	n/a
525.5265	0.105	1051053	keystroke_m	m	n/a
525.6915	0.12	1051383	keystroke_a	a	n/a
526.4705	0.076	1052941	keystroke_h	h	n/a
526.5905	0.135	1053181	keystroke_a	a	n/a
527.1455	0.106	1054291	keystroke_Key.space	Key.space	n/a
527.4755	0.121	1054951	keystroke_r	r	n/a
527.5665	0.12	1055133	keystroke_e	e	n/a
528.0015	0.105	1056003	keystroke_s	s	n/a
528.1355	0.136	1056271	keystroke_o	o	n/a
528.3315	0.09	1056663	keystroke_u	u	n/a
528.7215	0.044	1057443	keystroke_r	r	n/a
528.9915	0.12	1057983	keystroke_c	c	n/a
529.2465	0.09	1058493	keystroke_e	e	n/a
529.4855	0.106	1058971	keystroke_s	s	n/a
529.7115	0.105	1059423	keystroke_Key.space	Key.space	n/a
530.1315	0.165	1060263	keystroke_d	d	n/a
530.2505	0.121	1060501	keystroke_a	a	n/a
530.4015	0.09	1060803	keystroke_n	n	n/a
530.5665	0.105	1061133	keystroke_g	g	n/a
530.6855	0.211	1061371	keystroke_e	e	n/a
530.8665	0.105	1061733	keystroke_r	r	n/a
531.0615	0.119	1062123	keystroke_Key.space	Key.space	n/a
531.4815	0.105	1062963	keystroke_d	d	n/a
531.9315	0.075	1063863	keystroke_Key.backspace	Key.backspace	n/a
532.1865	0.03	1064373	keystroke_f	f	n/a
532.2915	0.06	1064583	keystroke_u	u	n/a
532.4715	0.089	1064943	keystroke_n	n	n/a
532.6065	0.105	1065213	keystroke_d	d	n/a
532.8315	0.12	1065663	keystroke_r	r	n/a
532.9815	0.15	1065963	keystroke_a	a	n/a
533.1765	0.12	1066353	keystroke_i	i	n/a
533.6415	0.09	1067283	keystroke_s	s	n/a
533.7615	0.075	1067523	keystroke_i	i	n/a
533.9415	0.075	1067883	keystroke_n	n	n/a
534.0615	0.105	1068123	keystroke_g	g	n/a
534.7065	0.075	1069413	keystroke_Key.enter	Key.enter	n/a
534.7865	9.731	1069573	prompt	n/a	reject sheer philadelphia buried\n
535.5765	0.135	1071153	keystroke_r	r	n/a
535.6665	0.15	1071333	keystroke_e	e	n/a
536.1765	0.075	1072353	keystroke_j	j	n/a
536.2965	0.12	1072593	keystroke_e	e	n/a
536.5215	0.09	1073043	keystroke_c	c	n/a
536.7465	0.075	1073493	keystroke_t	t	n/a
536.8965	0.12	1073793	keystroke_Key.space	Key.space	n/a
537.0465	0.135	1074093	keystroke_s	s	n/a
537.1665	0.075	1074333	keystroke_h	h	n/a
537.3615	0.09	1074723	keystroke_e	e	n/a
537.5865	0.105	1075173	keystroke_e	e	n/a
537.7665	0.09	1075533	keystroke_r	r	n/a
537.9315	0.12	1075863	keystroke_Key.space	Key.space	n/a
538.2315	0.105	1076463	keystroke_p	p	n/a
538.4415	0.075	1076883	keystroke_h	h	n/a
538.6215	0.075	1077243	keystroke_i	i	n/a
538.8165	0.09	1077633	keystroke_l	l	n/a
540.0915	0.12	1080183	keystroke_a	a	n/a
540.4815	0.06	1080963	keystroke_d	d	n/a
540.6615	0.075	1081323	keystroke_e	e	n/a
540.8565	0.09	1081713	keystroke_l	l	n/a
541.5765	0.09	1083153	keystroke_p	p	n/a
541.7715	0.075	1083543	keystroke_h	h	n/a
541.9365	0.09	1083873	keystroke_i	i	n/a
542.1615	0.105	1084323	keystroke_a	a	n/a
543.0915	0.12	1086183	keystroke_Key.space	Key.space	n/a
543.4215	0.075	1086843	keystroke_b	b	n/a
543.5715	0.105	1087143	keystroke_u	u	n/a
543.7365	0.09	1087473	keystroke_r	r	n/a
543.9315	0.09	1087863	keystroke_i	i	n/a
544.0665	0.09	1088133	keystroke_e	e	n/a
544.2615	0.09	1088523	keystroke_d	d	n/a
544.4565	0.06	1088913	keystroke_Key.enter	Key.enter	n/a
544.522	9.7755	1089044	prompt	n/a	rotation mortality presents copper\n
545.7165	0.105	1091433	keystroke_r	r	n/a
545.8515	0.09	1091703	keystroke_o	o	n/a
546.1515	0.12	1092303	keystroke_a	a	n/a
546.7665	0.105	1093533	keystroke_Key.backspace	Key.backspace	n/a
546.8865	0.135	1093773	keystroke_t	t	n/a
547.0065	0.15	1094013	keystroke_a	a	n/a
547.4265	0.105	1094853	keystroke_t	t	n/a
547.5315	0.075	1095063	keystroke_i	i	n/a
547.7115	0.075	1095423	keystroke_o	o	n/a
547.8765	0.075	1095753	keystroke_n	n	n/a
548.0565	0.09	1096113	keystroke_Key.space	Key.space	n/a
548.4315	0.105	1096863	keystroke_m	m	n/a
548.7315	0.105	1097463	keystroke_o	o	n/a
549.0315	0.09	1098063	keystroke_r	r	n/a
549.2565	0.105	1098513	keystroke_t	t	n/a
549.4515	0.135	1098903	keystroke_a	a	n/a
550.1715	0.075	1100343	keystroke_l	l	n/a
550.3515	0.09	1100703	keystroke_i	i	n/a
550.6365	0.09	1101273	keystroke_t	t	n/a
550.7865	0.09	1101573	keystroke_y	y	n/a
551.0265	0.105	1102053	keystroke_Key.space	Key.space	n/a
551.3415	0.09	1102683	keystroke_p	p	n/a
551.4615	0.135	1102923	keystroke_r	r	n/a
551.5815	0.105	1103163	keystroke_e	e	n/a
551.8065	0.165	1103613	keystroke_s	s	n/a
551.9565	0.09	1103913	keystroke_e	e	n/a
552.1665	0.09	1104333	keystroke_n	n	n/a
552.3615	0.09	1104723	keystroke_t	t	n/a
552.5715	0.09	1105143	keystroke_s	s	n/a
552.7515	0.105	1105503	keystroke_Key.space	Key.space	n/a
553.1565	0.135	1106313	keystroke_c	c	n/a
553.3065	0.09	1106613	keystroke_o	o	n/a
553.5465	0.06	1107093	keystroke_p	p	n/a
553.7265	0.09	1107453	keystroke_p	p	n/a
553.8765	0.195	1107753	keystroke_e	e	n/a
554.0115	0.12	1108023	keystroke_r	r	n/a
554.2215	0.075	1108443	keystroke_Key.enter	Key.enter	n/a
554.3	9.0125	1108600	prompt	n/a	codes moments modules snake\n
555.1365	0.12	1110273	keystroke_c	c	n/a
555.2565	0.105	1110513	keystroke_o	o	n/a
555.4665	0.09	1110933	keystroke_d	d	n/a
555.6615	0.18	1111323	keystroke_e	e	n/a
555.7965	0.135	1111593	keystroke_s	s	n/a
555.9765	0.12	1111953	keystroke_Key.space	Key.space	n/a
556.2615	0.09	1112523	keystroke_m	m	n/a
556.4115	0.105	1112823	keystroke_o	o	n/a
556.6365	0.045	1113273	keystroke_m	m	n/a
556.6515	0.015	1113303	keystroke_n	n	n/a
556.7565	0.12	1113513	keystroke_e	e	n/a
557.6115	0.06	1115223	keystroke_Key.backspace	Key.backspace	n/a
557.8515	0.09	1115703	keystroke_Key.backspace	Key.backspace	n/a
558.5415	0.12	1117083	keystroke_e	e	n/a
558.6915	0.075	1117383	keystroke_n	n	n/a
558.8265	0.09	1117653	keystroke_t	t	n/a
559.0215	0.12	1118043	keystroke_s	s	n/a
559.1715	0.12	1118343	keystroke_Key.space	Key.space	n/a
559.5465	0.15	1119093	keystroke_m	m	n/a
560.3415	0.075	1120683	keystroke_o	o	n/a
560.9415	0.105	1121883	keystroke_d	d	n/a
561.0765	0.075	1122153	keystroke_u	u	n/a
561.2565	0.09	1122513	keystroke_l	l	n/a
561.4065	0.21	1122813	keystroke_e	e	n/a
561.5265	0.18	1123053	keystroke_s	s	n/a
561.8415	0.135	1123683	keystroke_Key.space	Key.space	n/a
562.4265	0.12	1124853	keystroke_s	s	n/a
562.5615	0.09	1125123	keystroke_n	n	n/a
562.7115	0.15	1125423	keystroke_a	a	n/a
562.8765	0.06	1125753	keystroke_k	k	n/a
563.0265	0.075	1126053	keystroke_e	e	n/a
563.2515	0.06	1126503	keystroke_Key.enter	Key.enter	n/a
563.3155	9.5075	1126631	prompt	n/a	refinance sage habits southampton\n
564.5865	0.075	1129173	keystroke_r	r	n/a
564.6315	0.135	1129263	keystroke_e	e	n/a
564.8715	0.09	1129743	keystroke_f	f	n/a
565.0065	0.105	1130013	keystroke_i	i	n/a
565.1865	0.09	1130373	keystroke_n	n	n/a
565.3065	0.135	1130613	keystroke_a	a	n/a
565.4565	0.075	1130913	keystroke_n	n	n/a
565.7715	0.12	1131543	keystroke_c	c	n/a
565.9215	0.135	1131843	keystroke_e	e	n/a
566.0565	0.12	1132113	keystroke_Key.space	Key.space	n/a
566.4465	0.105	1132893	keystroke_s	s	n/a
566.5365	0.135	1133073	keystroke_a	a	n/a
566.8365	0.105	1133673	keystroke_g	g	n/a
566.9265	0.135	1133853	keystroke_e	e	n/a
567.1665	0.12	1134333	keystroke_Key.space	Key.space	n/a
567.6465	0.09	1135293	keystroke_h	h	n/a
567.7815	0.135	1135563	keystroke_a	a	n/a
568.1115	0.09	1136223	keystroke_b	b	n/a
568.3965	0.015	1136793	keystroke_i	i	n/a
568.5165	0.09	1137033	keystroke_t	t	n/a
568.8465	0.105	1137693	keystroke_s	s	n/a
569.0715	0.105	1138143	keystroke_Key.space	Key.space	n/a
569.5815	0.15	1139163	keystroke_s	s	n/a
569.6865	0.12	1139373	keystroke_o	o	n/a
569.8515	0.09	1139703	keystroke_u	u	n/a
570.0465	0.09	1140093	keystroke_t	t	n/a
570.1815	0.09	1140363	keystroke_h	h	n/a
570.9915	0.09	1141983	keystroke_h	h	n/a
571.1415	0.12	1142283	keystroke_a	a	n/a
571.3515	0.15	1142703	keystroke_m	m	n/a
571.5315	0.105	1143063	keystroke_p	p	n/a
572.0415	0.09	1144083	keystroke_t	t	n/a
572.2815	0.105	1144563	keystroke_o	o	n/a
572.4915	0.075	1144983	keystroke_n	n	n/a
572.7165	0.105	1145433	keystroke_Key.enter	Key.enter	n/a
572.8265	10.4965	1145653	prompt	n/a	mightn't consumer reviewed techno\n
573.5565	0.15	1147113	keystroke_m	m	n/a
573.6915	0.12	1147383	keystroke_i	i	n/a
574.4865	0.015	1148973	keystroke_g	g	n/a
574.5315	0.105	1149063	keystroke_h	h	n/a
574.7115	0.09	1149423	keystroke_t	t	n/a
575.8215	0.09	1151643	keystroke_n	n	n/a
576.0165	0.12	1152033	keystroke_'	'	n/a
576.2115	0.105	1152423	keystroke_t	t	n/a
576.4965	0.12	1152993	keystroke_Key.space	Key.space	n/a
577.2765	0.1795	1154553	keystroke_c	c	n/a
577.396	0.105	1154792	keystroke_o	o	n/a
577.591	0.075	1155182	keystroke_n	n	n/a
577.741	0.12	1155482	keystroke_s	s	n/a
577.966	0.09	1155932	keystroke_u	u	n/a
578.176	0.09	1156352	keystroke_m	m	n/a
578.311	0.225	1156622	keystroke_e	e	n/a
578.491	0.105	1156982	keystroke_r	r	n/a
578.701	0.12	1157402	keystroke_Key.space	Key.space	n/a
579.046	0.12	1158092	keystroke_r	r	n/a
579.136	0.12	1158272	keystroke_e	e	n/a
579.376	0.105	1158752	keystroke_v	v	n/a
579.556	0.09	1159112	keystroke_i	i	n/a
579.706	0.135	1159412	keystroke_e	e	n/a
580.291	0.105	1160582	keystroke_w	w	n/a
580.681	0.09	1161362	keystroke_e	e	n/a
580.876	0.105	1161752	keystroke_d	d	n/a
581.176	0.12	1162352	keystroke_Key.space	Key.space	n/a
581.866	0.09	1163732	keystroke_t	t	n/a
582.046	0.105	1164092	keystroke_e	e	n/a
582.301	0.135	1164602	keystroke_c	c	n/a
582.496	0.091	1164992	keystroke_h	h	n/a
582.736	0.09	1165472	keystroke_n	n	n/a
582.946	0.09	1165892	keystroke_o	o	n/a
583.246	0.075	1166492	keystroke_Key.enter	Key.enter	n/a
583.326	6.177	1166652	prompt	n/a	stayed caps helen faqs\n
584.056	0.135	1168112	keystroke_s	s	n/a
584.206	0.135	1168412	keystroke_t	t	n/a
584.356	0.135	1168712	keystroke_a	a	n/a
584.716	0.075	1169432	keystroke_y	y	n/a
584.896	0.09	1169792	keystroke_e	e	n/a
585.076	0.105	1170152	keystroke_d	d	n/a
585.241	0.135	1170482	keystroke_Key.space	Key.space	n/a
585.646	0.12	1171292	keystroke_c	c	n/a
585.781	0.12	1171562	keystroke_a	a	n/a
585.916	0.12	1171832	keystroke_p	p	n/a
586.081	0.165	1172162	keystroke_s	s	n/a
586.291	0.15	1172582	keystroke_Key.space	Key.space	n/a
586.681	0.09	1173362	keystroke_h	h	n/a
586.816	0.12	1173632	keystroke_e	e	n/a
586.981	0.06	1173962	keystroke_l	l	n/a
587.131	0.09	1174262	keystroke_e	e	n/a
587.356	0.09	1174712	keystroke_n	n	n/a
587.656	0.09	1175312	keystroke_Key.space	Key.space	n/a
588.016	0.135	1176032	keystroke_f	f	n/a
588.121	0.12	1176242	keystroke_a	a	n/a
588.946	0.105	1177892	keystroke_q	q	n/a
589.171	0.105	1178342	keystroke_s	s	n/a
589.426	0.075	1178852	keystroke_Key.enter	Key.enter	n/a
589.5055	10.992	1179011	prompt	n/a	champagne plots inform authority\n
590.701	0.12	1181402	keystroke_c	c	n/a
590.836	0.075	1181672	keystroke_h	h	n/a
590.971	0.165	1181942	keystroke_a	a	n/a
591.121	0.105	1182242	keystroke_m	m	n/a
591.841	0.105	1183682	keystroke_p	p	n/a
591.961	0.15	1183922	keystroke_a	a	n/a
592.141	0.105	1184282	keystroke_g	g	n/a
592.336	0.03	1184672	keystroke_e	e	n/a
592.756	0.075	1185512	keystroke_Key.backspace	Key.backspace	n/a
592.966	0.09	1185932	keystroke_n	n	n/a
593.101	0.075	1186202	keystroke_e	e	n/a
593.281	0.09	1186562	keystroke_Key.space	Key.space	n/a
594.211	0.135	1188422	keystroke_p	p	n/a
594.481	0.135	1188962	keystroke_l	l	n/a
594.736	0.076	1189472	keystroke_o	o	n/a
595.4705	0.105	1190941	keystroke_t	t	n/a
595.6805	0.12	1191361	keystroke_s	s	n/a
596.2055	0.165	1192411	keystroke_Key.space	Key.space	n/a
596.5355	0.09	1193071	keystroke_i	i	n/a
596.6855	0.105	1193371	keystroke_n	n	n/a
596.8205	0.105	1193641	keystroke_f	f	n/a
596.9405	0.106	1193881	keystroke_o	o	n/a
597.0605	0.09	1194121	keystroke_r	r	n/a
597.1955	0.105	1194391	keystroke_m	m	n/a
597.4805	0.09	1194961	keystroke_Key.space	Key.space	n/a
597.7505	0.135	1195501	keystroke_a	a	n/a
597.9605	0.105	1195921	keystroke_u	u	n/a
598.3055	0.09	1196611	keystroke_t	t	n/a
598.4565	0.075	1196913	keystroke_h	h	n/a
598.6355	0.09	1197271	keystroke_o	o	n/a
599.3705	0.076	1198741	keystroke_r	r	n/a
599.4905	0.135	1198981	keystroke_i	i	n/a
599.6705	0.091	1199341	keystroke_t	t	n/a
599.8365	0.089	1199673	keystroke_y	y	n/a
600.4205	0.075	1200841	keystroke_Key.enter	Key.enter	n/a
600.501	9.6415	1201002	prompt	n/a	reported html visiting cruise\n
601.2755	0.106	1202551	keystroke_r	r	n/a
601.3505	0.135	1202701	keystroke_e	e	n/a
601.5315	0.12	1203063	keystroke_p	p	n/a
601.7705	0.09	1203541	keystroke_o	o	n/a
601.9055	0.105	1203811	keystroke_r	r	n/a
602.8055	0.076	1205611	keystroke_t	t	n/a
603.0455	0.06	1206091	keystroke_e	e	n/a
603.2255	0.075	1206451	keystroke_d	d	n/a
603.4055	0.105	1206811	keystroke_Key.space	Key.space	n/a
603.7955	0.09	1207591	keystroke_h	h	n/a
604.3065	0.105	1208613	keystroke_t	t	n/a
604.4705	0.12	1208941	keystroke_m	m	n/a
604.9805	0.09	1209961	keystroke_l	l	n/a
605.1755	0.12	1210351	keystroke_Key.space	Key.space	n/a
605.5355	0.09	1211071	keystroke_v	v	n/a
605.6555	0.09	1211311	keystroke_i	i	n/a
605.8055	0.12	1211611	keystroke_s	s	n/a
605.9565	0.09	1211913	keystroke_i	i	n/a
606.1355	0.061	1212271	keystroke_t	t	n/a
606.3455	0.03	1212691	keystroke_n	n	n/a
606.7955	0.075	1213591	keystroke_Key.backspace	Key.backspace	n/a
607.5155	0.075	1215031	keystroke_i	i	n/a
607.6505	0.106	1215301	keystroke_n	n	n/a
607.8005	0.106	1215601	keystroke_g	g	n/a
607.9655	0.075	1215931	keystroke_Key.space	Key.space	n/a
608.7315	0.119	1217463	keystroke_c	c	n/a
608.9255	0.09	1217851	keystroke_r	r	n/a
609.0455	0.091	1218091	keystroke_u	u	n/a
609.2405	0.091	1218481	keystroke_i	i	n/a
609.6005	0.21	1219201	keystroke_s	s	n/a
609.7655	0.105	1219531	keystroke_e	e	n/a
610.0505	0.09	1220101	keystroke_Key.enter	Key.enter	n/a
610.1455	6.537	1220291	prompt	n/a	women screens hint grown\n
611.1315	0.119	1222263	keystroke_w	w	n/a
611.2665	0.09	1222533	keystroke_o	o	n/a
611.4455	0.09	1222891	keystroke_m	m	n/a
611.6255	0.09	1223251	keystroke_e	e	n/a
611.8065	0.075	1223613	keystroke_n	n	n/a
612.0155	0.12	1224031	keystroke_Key.space	Key.space	n/a
612.5855	0.091	1225171	keystroke_s	s	n/a
612.7505	0.091	1225501	keystroke_c	c	n/a
613.0365	0.12	1226073	keystroke_r	r	n/a
613.3655	0.06	1226731	keystroke_e	e	n/a
613.5005	0.106	1227001	keystroke_e	e	n/a
613.6815	0.089	1227363	keystroke_n	n	n/a
613.9955	0.09	1227991	keystroke_s	s	n/a
614.2205	0.09	1228441	keystroke_Key.space	Key.space	n/a
614.6105	0.076	1229221	keystroke_h	h	n/a
614.7755	0.075	1229551	keystroke_i	i	n/a
614.9565	0.089	1229913	keystroke_n	n	n/a
615.0905	0.091	1230181	keystroke_t	t	n/a
615.4655	0.09	1230931	keystroke_Key.space	Key.space	n/a
615.8115	0.12	1231623	keystroke_g	g	n/a
615.9155	0.091	1231831	keystroke_r	r	n/a
616.0665	0.09	1232133	keystroke_o	o	n/a
616.2005	0.12	1232401	keystroke_w	w	n/a
616.3355	0.091	1232671	keystroke_n	n	n/a
616.6055	0.076	1233211	keystroke_Key.enter	Key.enter	n/a
616.685	10.4975	1233370	prompt	n/a	nurse draft passport google\n
617.4905	0.106	1234981	keystroke_n	n	n/a
617.6115	0.119	1235223	keystroke_u	u	n/a
617.7605	0.151	1235521	keystroke_r	r	n/a
618.1505	0.106	1236301	keystroke_s	s	n/a
618.3915	0.075	1236783	keystroke_e	e	n/a
618.5705	0.12	1237141	keystroke_Key.space	Key.space	n/a
618.9915	0.015	1237983	keystroke_f	f	n/a
619.4115	0.089	1238823	keystroke_Key.backspace	Key.backspace	n/a
619.5455	0.105	1239091	keystroke_d	d	n/a
619.7865	0.165	1239573	keystroke_r	r	n/a
619.9365	0.135	1239873	keystroke_a	a	n/a
620.6565	0.075	1241313	keystroke_f	f	n/a
620.8505	0.075	1241701	keystroke_t	t	n/a
621.0905	0.105	1242181	keystroke_Key.space	Key.space	n/a
621.4965	0.105	1242993	keystroke_p	p	n/a
621.6165	0.15	1243233	keystroke_a	a	n/a
621.9015	0.09	1243803	keystroke_s	s	n/a
622.1115	0.12	1244223	keystroke_s	s	n/a
622.3065	0.075	1244613	keystroke_p	p	n/a
622.3365	0.03	1244673	keystroke_o	o	n/a
623.5365	0.09	1247073	keystroke_r	r	n/a
623.7315	0.09	1247463	keystroke_t	t	n/a
624.1655	0.121	1248331	keystroke_Key.space	Key.space	n/a
624.5415	0.075	1249083	keystroke_g	g	n/a
624.7365	0.06	1249473	keystroke_o	o	n/a
624.9015	0.105	1249803	keystroke_o	o	n/a
625.3665	0.03	1250733	keystroke_f	f	n/a
625.3815	0.06	1250763	keystroke_g	g	n/a
626.1615	0.059	1252323	keystroke_Key.backspace	Key.backspace	n/a
626.3255	0.091	1252651	keystroke_Key.backspace	Key.backspace	n/a
626.4465	0.09	1252893	keystroke_g	g	n/a
626.5965	0.09	1253193	keystroke_l	l	n/a
626.7765	0.09	1253553	keystroke_e	e	n/a
627.1065	0.074	1254213	keystroke_Key.enter	Key.enter	n/a
627.185	11.0375	1254370	prompt	n/a	shop default dimension mathematics\n
627.9615	0.135	1255923	keystroke_s	s	n/a
628.0665	0.075	1256133	keystroke_h	h	n/a
628.2465	0.075	1256493	keystroke_p	p	n/a
629.7015	0.075	1259403	keystroke_Key.backspace	Key.backspace	n/a
630.0465	0.06	1260093	keystroke_o	o	n/a
630.2265	0.06	1260453	keystroke_p	p	n/a
630.4365	0.105	1260873	keystroke_Key.space	Key.space	n/a
631.2165	0.075	1262433	keystroke_d	d	n/a
631.4115	0.075	1262823	keystroke_e	e	n/a
631.6215	0.105	1263243	keystroke_f	f	n/a
631.7565	0.105	1263513	keystroke_a	a	n/a
631.9065	0.105	1263813	keystroke_u	u	n/a
632.1015	0.12	1264203	keystroke_l	l	n/a
632.4765	0.105	1264953	keystroke_t	t	n/a
632.6865	0.12	1265373	keystroke_Key.space	Key.space	n/a
633.4365	0.09	1266873	keystroke_d	d	n/a
633.5565	0.09	1267113	keystroke_i	i	n/a
633.7365	0.105	1267473	keystroke_m	m	n/a
633.8565	0.12	1267713	keystroke_e	e	n/a
634.0065	0.075	1268013	keystroke_n	n	n/a
634.8165	0.135	1269633	keystroke_s	s	n/a
634.9515	0.06	1269903	keystroke_i	i	n/a
635.1165	0.075	1270233	keystroke_o	o	n/a
635.2815	0.09	1270563	keystroke_n	n	n/a
635.7765	0.105	1271553	keystroke_Key.space	Key.space	n/a
636.0465	0.09	1272093	keystroke_m	m	n/a
636.1515	0.165	1272303	keystroke_a	a	n/a
636.3465	0.09	1272693	keystroke_t	t	n/a
636.4665	0.09	1272933	keystroke_h	h	n/a
636.6315	0.09	1273263	keystroke_e	e	n/a
636.7815	0.09	1273563	keystroke_m	m	n/a
637.1265	0.12	1274253	keystroke_a	a	n/a
637.4115	0.075	1274823	keystroke_t	t	n/a
637.5465	0.105	1275093	keystroke_i	i	n/a
637.7565	0.12	1275513	keystroke_c	c	n/a
637.9665	0.09	1275933	keystroke_s	s	n/a
638.1315	0.09	1276263	keystroke_Key.enter	Key.enter	n/a
638.227	11.726	1276454	prompt	n/a	puppy complexity upgrading tracking\n
639.0315	0.075	1278063	keystroke_p	p	n/a
639.1665	0.075	1278333	keystroke_u	u	n/a
639.4515	0.06	1278903	keystroke_p	p	n/a
639.6165	0.075	1279233	keystroke_p	p	n/a
639.7965	0.075	1279593	keystroke_y	y	n/a
640.2765	0.09	1280553	keystroke_Key.space	Key.space	n/a
640.6065	0.105	1281213	keystroke_c	c	n/a
640.7565	0.09	1281513	keystroke_o	o	n/a
641.5965	0.105	1283193	keystroke_m	m	n/a
641.7765	0.09	1283553	keystroke_p	p	n/a
642.0315	0.12	1284063	keystroke_l	l	n/a
642.2565	0.12	1284513	keystroke_e	e	n/a
643.0515	0.12	1286103	keystroke_x	x	n/a
643.2165	0.105	1286433	keystroke_i	i	n/a
643.3815	0.105	1286763	keystroke_t	t	n/a
643.5315	0.075	1287063	keystroke_y	y	n/a
643.7715	0.12	1287543	keystroke_Key.space	Key.space	n/a
644.4915	0.075	1288983	keystroke_u	u	n/a
644.6565	0.105	1289313	keystroke_p	p	n/a
645.1215	0.15	1290243	keystroke_g	g	n/a
645.2265	0.165	1290453	keystroke_r	r	n/a
645.3615	0.15	1290723	keystroke_a	a	n/a
645.6315	0.105	1291263	keystroke_d	d	n/a
645.7665	0.075	1291533	keystroke_i	i	n/a
645.9015	0.105	1291803	keystroke_n	n	n/a
646.0515	0.105	1292103	keystroke_g	g	n/a
646.2465	0.09	1292493	keystroke_Key.space	Key.space	n/a
648.0315	0.12	1296063	keystroke_t	t	n/a
648.1065	0.165	1296213	keystroke_r	r	n/a
648.2265	0.135	1296453	keystroke_a	a	n/a
648.4965	0.135	1296993	keystroke_c	c	n/a
649.1415	0.075	1298283	keystroke_k	k	n/a
649.3365	0.09	1298673	keystroke_i	i	n/a
649.5015	0.09	1299003	keystroke_n	n	n/a
649.6665	0.105	1299333	keystroke_g	g	n/a
649.8615	0.09	1299723	keystroke_Key.enter	Key.enter	n/a
649.9565	10.9465	1299913	prompt	n/a	upcoming fishing signup themes\n
652.324	0.042	1304648	keystroke_i	i	n/a
652.381	0.105	1304762	keystroke_p	p	n/a
653.161	0.06	1306322	keystroke_Key.backspace	Key.backspace	n/a
653.341	0.075	1306682	keystroke_Key.backspace	Key.backspace	n/a
653.656	0.09	1307312	keystroke_u	u	n/a
653.866	0.075	1307732	keystroke_p	p	n/a
654.541	0.12	1309082	keystroke_c	c	n/a
654.631	0.09	1309262	keystroke_o	o	n/a
654.811	0.09	1309622	keystroke_m	m	n/a
654.931	0.105	1309862	keystroke_i	i	n/a
655.081	0.12	1310162	keystroke_n	n	n/a
655.246	0.105	1310492	keystroke_g	g	n/a
655.396	0.105	1310792	keystroke_Key.space	Key.space	n/a
656.116	0.09	1312232	keystroke_f	f	n/a
656.236	0.09	1312472	keystroke_i	i	n/a
656.401	0.12	1312802	keystroke_s	s	n/a
656.536	0.09	1313072	keystroke_h	h	n/a
656.701	0.09	1313402	keystroke_i	i	n/a
656.851	0.105	1313702	keystroke_n	n	n/a
657.016	0.09	1314032	keystroke_g	g	n/a
657.151	0.09	1314302	keystroke_Key.space	Key.space	n/a
658.171	0.12	1316342	keystroke_s	s	n/a
658.292	0.119	1316584	keystroke_i	i	n/a
658.501	0.09	1317002	keystroke_g	g	n/a
658.636	0.09	1317272	keystroke_n	n	n/a
658.861	0.09	1317722	keystroke_u	u	n/a
659.041	0.075	1318082	keystroke_p	p	n/a
659.611	0.105	1319222	keystroke_Key.space	Key.space	n/a
659.956	0.09	1319912	keystroke_t	t	n/a
660.047	0.089	1320094	keystroke_h	h	n/a
660.181	0.105	1320362	keystroke_e	e	n/a
660.301	0.09	1320602	keystroke_m	m	n/a
660.466	0.15	1320932	keystroke_e	e	n/a
660.601	0.135	1321202	keystroke_s	s	n/a
660.796	0.105	1321592	keystroke_Key.enter	Key.enter	n/a
660.906	7.5415	1321812	prompt	n/a	merchants applied message along\n
661.831	0.075	1323662	keystroke_m	m	n/a
661.951	0.195	1323902	keystroke_e	e	n/a
662.101	0.09	1324202	keystroke_r	r	n/a
662.476	0.12	1324952	keystroke_c	c	n/a
662.611	0.09	1325222	keystroke_h	h	n/a
662.761	0.135	1325522	keystroke_a	a	n/a
662.911	0.09	1325822	keystroke_n	n	n/a
663.061	0.105	1326122	keystroke_t	t	n/a
663.301	0.09	1326602	keystroke_s	s	n/a
663.466	0.105	1326932	keystroke_Key.space	Key.space	n/a
663.781	0.12	1327562	keystroke_a	a	n/a
663.946	0.075	1327892	keystroke_p	p	n/a
664.111	0.09	1328222	keystroke_p	p	n/a
664.471	0.09	1328942	keystroke_l	l	n/a
664.666	0.06	1329332	keystroke_i	i	n/a
664.831	0.105	1329662	keystroke_e	e	n/a
665.071	0.105	1330142	keystroke_d	d	n/a
665.266	0.105	1330532	keystroke_Key.space	Key.space	n/a
665.581	0.09	1331162	keystroke_m	m	n/a
665.716	0.105	1331432	keystroke_e	e	n/a
665.941	0.105	1331882	keystroke_s	s	n/a
666.121	0.15	1332242	keystroke_s	s	n/a
666.316	0.12	1332632	keystroke_a	a	n/a
666.496	0.09	1332992	keystroke_g	g	n/a
666.691	0.09	1333382	keystroke_e	e	n/a
666.886	0.105	1333772	keystroke_Key.space	Key.space	n/a
667.547	0.104	1335094	keystroke_a	a	n/a
667.681	0.09	1335362	keystroke_l	l	n/a
667.861	0.075	1335722	keystroke_o	o	n/a
668.041	0.075	1336082	keystroke_n	n	n/a
668.176	0.09	1336352	keystroke_g	g	n/a
668.371	0.075	1336742	keystroke_Key.enter	Key.enter	n/a
668.4505	12.2225	1336901	prompt	n/a	modern brown sussex obviously\n
669.196	0.105	1338392	keystroke_m	m	n/a
669.331	0.12	1338662	keystroke_o	o	n/a
669.691	0.075	1339382	keystroke_d	d	n/a
669.901	0.15	1339802	keystroke_e	e	n/a
670.006	0.105	1340012	keystroke_r	r	n/a
670.186	0.075	1340372	keystroke_n	n	n/a
670.366	0.105	1340732	keystroke_Key.space	Key.space	n/a
670.786	0.075	1341572	keystroke_b	b	n/a
670.921	0.105	1341842	keystroke_r	r	n/a
671.071	0.09	1342142	keystroke_o	o	n/a
671.206	0.105	1342412	keystroke_w	w	n/a
671.371	0.075	1342742	keystroke_n	n	n/a
671.551	0.09	1343102	keystroke_Key.space	Key.space	n/a
672.196	0.105	1344392	keystroke_s	s	n/a
672.316	0.09	1344632	keystroke_u	u	n/a
672.451	0.09	1344902	keystroke_s	s	n/a
672.616	0.12	1345232	keystroke_s	s	n/a
672.901	0.045	1345802	keystroke_e	e	n/a
673.696	0.075	1347392	keystroke_x	x	n/a
673.996	0.12	1347992	keystroke_Key.space	Key.space	n/a
677.149	0.012	1354298	keystroke_o	o	n/a
678.016	0.06	1356032	keystroke_b	b	n/a
678.421	0.09	1356842	keystroke_v	v	n/a
678.556	0.075	1357112	keystroke_i	i	n/a
679.096	0.12	1358192	keystroke_o	o	n/a
679.276	0.075	1358552	keystroke_u	u	n/a
679.426	0.135	1358852	keystroke_s	s	n/a
679.606	0.15	1359212	keystroke_l	l	n/a
679.861	0.075	1359722	keystroke_y	y	n/a
680.566	0.105	1361132	keystroke_Key.enter	Key.enter	n/a
680.6765	10.0315	1361353	prompt	n/a	rehab reservations insert featuring\n
681.841	0.15	1363682	keystroke_r	r	n/a
681.961	0.12	1363922	keystroke_e	e	n/a
682.157	0.074	1364314	keystroke_h	h	n/a
682.277	0.134	1364554	keystroke_a	a	n/a
682.981	0.075	1365962	keystroke_b	b	n/a
683.146	0.12	1366292	keystroke_Key.space	Key.space	n/a
683.401	0.121	1366802	keystroke_r	r	n/a
683.491	0.135	1366982	keystroke_e	e	n/a
683.686	0.18	1367372	keystroke_s	s	n/a
683.807	0.194	1367614	keystroke_e	e	n/a
683.986	0.075	1367972	keystroke_r	r	n/a
684.542	0.134	1369084	keystroke_v	v	n/a
684.631	0.165	1369262	keystroke_a	a	n/a
684.901	0.105	1369802	keystroke_t	t	n/a
685.066	0.045	1370132	keystroke_i	i	n/a
685.231	0.075	1370462	keystroke_o	o	n/a
685.382	0.089	1370764	keystroke_n	n	n/a
685.532	0.119	1371064	keystroke_s	s	n/a
685.726	0.105	1371452	keystroke_Key.space	Key.space	n/a
686.176	0.09	1372352	keystroke_i	i	n/a
686.341	0.075	1372682	keystroke_n	n	n/a
686.461	0.15	1372922	keystroke_s	s	n/a
686.806	0.165	1373612	keystroke_e	e	n/a
686.926	0.121	1373852	keystroke_r	r	n/a
687.166	0.075	1374332	keystroke_t	t	n/a
687.556	0.09	1375112	keystroke_Key.space	Key.space	n/a
688.216	0.135	1376432	keystroke_f	f	n/a
688.366	0.045	1376732	keystroke_r	r	n/a
688.846	0.09	1377692	keystroke_Key.backspace	Key.backspace	n/a
688.967	0.135	1377934	keystroke_e	e	n/a
689.116	0.12	1378232	keystroke_a	a	n/a
689.791	0.076	1379582	keystroke_t	t	n/a
689.926	0.09	1379852	keystroke_u	u	n/a
690.061	0.09	1380122	keystroke_r	r	n/a
690.182	0.089	1380364	keystroke_i	i	n/a
690.331	0.0915	1380662	keystroke_n	n	n/a
690.4815	0.105	1380963	keystroke_g	g	n/a
690.6315	0.075	1381263	keystroke_Key.enter	Key.enter	n/a
690.7105	7.708	1381421	prompt	n/a	roof earned propose confusion\n
691.5915	0.09	1383183	keystroke_r	r	n/a
691.7115	0.075	1383423	keystroke_o	o	n/a
691.9065	0.075	1383813	keystroke_o	o	n/a
692.0415	0.106	1384083	keystroke_f	f	n/a
692.2065	0.09	1384413	keystroke_Key.space	Key.space	n/a
692.8215	0.195	1385643	keystroke_e	e	n/a
692.9715	0.121	1385943	keystroke_a	a	n/a
693.1665	0.075	1386333	keystroke_r	r	n/a
693.3165	0.09	1386633	keystroke_n	n	n/a
693.4815	0.075	1386963	keystroke_e	e	n/a
693.6615	0.105	1387323	keystroke_d	d	n/a
693.8415	0.12	1387683	keystroke_Key.space	Key.space	n/a
694.2615	0.076	1388523	keystroke_p	p	n/a
694.3965	0.105	1388793	keystroke_r	r	n/a
694.6075	0.059	1389215	keystroke_o	o	n/a
695.4615	0.075	1390923	keystroke_p	p	n/a
