onset	duration	sample	value	key	prompt_text
5.9975	11.708	11995	prompt	n/a	the quick brown fox jumps over a lazy dog\n
9.4545	0.0435	18909	keystroke_t	t	n/a
9.499	0.134	18998	keystroke_h	h	n/a
9.634	0.104	19268	keystroke_e	e	n/a
9.753	0.15	19506	keystroke_Key.space	Key.space	n/a
10.053	0.135	20106	keystroke_q	q	n/a
10.218	0.12	20436	keystroke_u	u	n/a
10.308	0.12	20616	keystroke_i	i	n/a
10.5175	0.12	21035	keystroke_c	c	n/a
10.6525	0.2105	21305	keystroke_k	k	n/a
10.818	0.135	21636	keystroke_Key.space	Key.space	n/a
11.208	0.105	22416	keystroke_b	b	n/a
11.463	0.0905	22926	keystroke_r	r	n/a
11.5835	0.12	23167	keystroke_o	o	n/a
11.9585	0.0895	23917	keystroke_w	w	n/a
12.183	0.1495	24366	keystroke_n	n	n/a
12.4225	0.15	24845	keystroke_Key.space	Key.space	n/a
12.8735	0.105	25747	keystroke_f	f	n/a
12.9935	0.1345	25987	keystroke_o	o	n/a
13.158	0.12	26316	keystroke_x	x	n/a
13.293	0.1195	26586	keystroke_Key.space	Key.space	n/a
13.383	0.1055	26766	keystroke_j	j	n/a
13.5925	0.1055	27185	keystroke_u	u	n/a
13.803	0.1805	27606	keystroke_m	m	n/a
13.9685	0.135	27937	keystroke_p	p	n/a
14.1185	0.105	28237	keystroke_s	s	n/a
14.2535	0.135	28507	keystroke_Key.space	Key.space	n/a
14.4335	0.12	28867	keystroke_o	o	n/a
14.643	0.075	29286	keystroke_v	v	n/a
14.763	0.135	29526	keystroke_e	e	n/a
14.868	0.12	29736	keystroke_r	r	n/a
14.973	0.12	29946	keystroke_Key.space	Key.space	n/a
15.108	0.135	30216	keystroke_a	a	n/a
15.228	0.12	30456	keystroke_Key.space	Key.space	n/a
15.468	0.06	30936	keystroke_l	l	n/a
16.113	0.135	32226	keystroke_a	a	n/a
16.263	0.105	32526	keystroke_z	z	n/a
16.443	0.135	32886	keystroke_y	y	n/a
16.593	0.135	33186	keystroke_Key.space	Key.space	n/a
17.028	0.105	34056	keystroke_d	d	n/a
17.118	0.12	34236	keystroke_o	o	n/a
17.328	0.09	34656	keystroke_g	g	n/a
17.5825	0.12	35165	keystroke_Key.enter	Key.enter	n/a
17.71	8.965	35420	prompt	n/a	immune tribunal guarantees peers\n
18.6035	0.12	37207	keystroke_i	i	n/a
18.8135	0.119	37627	keystroke_m	m	n/a
18.9635	0.12	37927	keystroke_m	m	n/a
19.2335	0.105	38467	keystroke_u	u	n/a
19.4585	0.1045	38917	keystroke_n	n	n/a
19.608	0.09	39216	keystroke_e	e	n/a
19.7435	0.134	39487	keystroke_Key.space	Key.space	n/a
20.0285	0.105	40057	keystroke_t	t	n/a
20.268	0.075	40536	keystroke_r	r	n/a
20.448	0.12	40896	keystroke_i	i	n/a
20.718	0.105	41436	keystroke_b	b	n/a
20.958	0.135	41916	keystroke_u	u	n/a
21.273	0.12	42546	keystroke_n	n	n/a
21.603	0.1055	43206	keystroke_a	a	n/a
21.8135	0.164	43627	keystroke_l	l	n/a
21.9475	0.135	43895	keystroke_Key.space	Key.space	n/a
22.623	0.105	45246	keystroke_g	g	n/a
22.863	0.135	45726	keystroke_u	u	n/a
23.7485	0.15	47497	keystroke_a	a	n/a
23.9885	0.105	47977	keystroke_r	r	n/a
24.2135	0.12	48427	keystroke_a	a	n/a
24.3485	0.15	48697	keystroke_n	n	n/a
24.5285	0.1195	49057	keystroke_t	t	n/a
24.693	0.105	49386	keystroke_e	e	n/a
24.888	0.0905	49776	keystroke_e	e	n/a
25.0835	0.105	50167	keystroke_s	s	n/a
25.2485	0.15	50497	keystroke_Key.space	Key.space	n/a
25.5335	0.105	51067	keystroke_p	p	n/a
25.6535	0.075	51307	keystroke_e	e	n/a
25.8185	0.09	51637	keystroke_e	e	n/a
25.9835	0.12	51967	keystroke_r	r	n/a
26.2085	0.105	52417	keystroke_s	s	n/a
26.5535	0.12	53107	keystroke_Key.enter	Key.enter	n/a
26.6785	12.087	53357	prompt	n/a	threads encoding careers observations\n
27.5575	0.135	55115	keystroke_t	t	n/a
27.6625	0.105	55325	keystroke_h	h	n/a
27.9025	0.106	55805	keystroke_r	r	n/a
28.2025	0.105	56405	keystroke_a	a	n/a
28.908	0.105	57816	keystroke_Key.backspace	Key.backspace	n/a
29.028	0.135	58056	keystroke_e	e	n/a
29.178	0.18	58356	keystroke_a	a	n/a
29.403	0.105	58806	keystroke_d	d	n/a
29.703	0.105	59406	keystroke_s	s	n/a
29.8535	0.12	59707	keystroke_Key.space	Key.space	n/a
30.1225	0.105	60245	keystroke_e	e	n/a
30.2585	0.134	60517	keystroke_n	n	n/a
30.4535	0.134	60907	keystroke_c	c	n/a
30.6325	0.12	61265	keystroke_o	o	n/a
30.813	0.075	61626	keystroke_d	d	n/a
31.008	0.15	62016	keystroke_i	i	n/a
31.083	0.15	62166	keystroke_n	n	n/a
31.233	0.105	62466	keystroke_g	g	n/a
31.353	0.15	62706	keystroke_Key.space	Key.space	n/a
31.668	0.12	63336	keystroke_c	c	n/a
32.2225	0.106	64445	keystroke_a	a	n/a
32.4625	0.136	64925	keystroke_r	r	n/a
32.7475	0.09	65495	keystroke_e	e	n/a
32.9125	0.09	65825	keystroke_e	e	n/a
33.1085	0.1045	66217	keystroke_r	r	n/a
33.3935	0.105	66787	keystroke_s	s	n/a
33.5285	0.1645	67057	keystroke_Key.space	Key.space	n/a
33.918	0.15	67836	keystroke_o	o	n/a
34.188	0.135	68376	keystroke_b	b	n/a
34.908	0.045	69816	keystroke_s	s	n/a
35.2235	0.1195	70447	keystroke_e	e	n/a
35.463	0.1055	70926	keystroke_r	r	n/a
35.8675	0.121	71735	keystroke_v	v	n/a
36.093	0.1345	72186	keystroke_a	a	n/a
36.543	0.0745	73086	keystroke_i	i	n/a
37.053	0.1355	74106	keystroke_Key.backspace	Key.backspace	n/a
37.2335	0.09	74467	keystroke_t	t	n/a
37.4135	0.135	74827	keystroke_i	i	n/a
37.5185	0.165	75037	keystroke_o	o	n/a
37.6385	0.15	75277	keystroke_n	n	n/a
37.8035	0.12	75607	keystroke_s	s	n/a
38.643	0.12	77286	keystroke_Key.enter	Key.enter	n/a
38.769	10.976	77538	prompt	n/a	objects luck spine spectrum\n
40.1135	0.105	80227	keystroke_o	o	n/a
40.3385	0.105	80677	keystroke_b	b	n/a
40.4735	0.09	80947	keystroke_j	j	n/a
40.6985	0.135	81397	keystroke_u	u	n/a
40.8185	0.09	81637	keystroke_e	e	n/a
41.0585	0.09	82117	keystroke_c	c	n/a
41.5085	0.09	83017	keystroke_Key.backspace	Key.backspace	n/a
41.6885	0.075	83377	keystroke_Key.backspace	Key.backspace	n/a
41.8835	0.06	83767	keystroke_Key.backspace	Key.backspace	n/a
43.0385	0.105	86077	keystroke_e	e	n/a
43.758	0.12	87516	keystroke_c	c	n/a
44.163	0.12	88326	keystroke_t	t	n/a
44.523	0.105	89046	keystroke_s	s	n/a
44.7625	0.165	89525	keystroke_Key.space	Key.space	n/a
44.9575	0.15	89915	keystroke_l	l	n/a
45.1675	0.15	90335	keystroke_u	u	n/a
45.4825	0.12	90965	keystroke_c	c	n/a
45.7075	0.21	91415	keystroke_k	k	n/a
45.9025	0.165	91805	keystroke_Key.space	Key.space	n/a
46.3975	0.105	92795	keystroke_s	s	n/a
46.5325	0.106	93065	keystroke_p	p	n/a
46.7275	0.135	93455	keystroke_i	i	n/a
46.8035	0.1795	93607	keystroke_n	n	n/a
46.968	0.12	93936	keystroke_e	e	n/a
47.073	0.15	94146	keystroke_Key.space	Key.space	n/a
47.328	0.12	94656	keystroke_s	s	n/a
47.463	0.135	94926	keystroke_p	p	n/a
47.613	0.105	95226	keystroke_e	e	n/a
47.898	0.09	95796	keystroke_c	c	n/a
48.138	0.09	96276	keystroke_t	t	n/a
48.9035	0.09	97807	keystroke_r	r	n/a
49.0385	0.135	98077	keystroke_u	u	n/a
49.3385	0.12	98677	keystroke_m	m	n/a
49.6385	0.105	99277	keystroke_Key.enter	Key.enter	n/a
49.7485	7.811	99497	prompt	n/a	where's work after length\n
51.243	0.09	102486	keystroke_w	w	n/a
51.378	0.15	102756	keystroke_h	h	n/a
51.468	0.12	102936	keystroke_e	e	n/a
51.573	0.1205	103146	keystroke_r	r	n/a
51.6785	0.09	103357	keystroke_e	e	n/a
51.8435	0.135	103687	keystroke_'	'	n/a
52.3075	0.09	104615	keystroke_s	s	n/a
52.5625	0.165	105125	keystroke_Key.space	Key.space	n/a
52.9225	0.0155	105845	keystroke_w	w	n/a
54.048	0.12	108096	keystroke_o	o	n/a
54.273	0.12	108546	keystroke_r	r	n/a
54.453	0.1945	108906	keystroke_k	k	n/a
54.618	0.1355	109236	keystroke_Key.space	Key.space	n/a
54.9775	0.121	109955	keystroke_a	a	n/a
55.0825	0.121	110165	keystroke_f	f	n/a
55.353	0.105	110706	keystroke_t	t	n/a
55.518	0.1505	111036	keystroke_e	e	n/a
55.623	0.1355	111246	keystroke_r	r	n/a
55.7725	0.135	111545	keystroke_Key.space	Key.space	n/a
56.0725	0.12	112145	keystroke_l	l	n/a
56.2535	0.105	112507	keystroke_e	e	n/a
56.4035	0.12	112807	keystroke_n	n	n/a
56.5675	0.121	113135	keystroke_g	g	n/a
56.9735	0.1195	113947	keystroke_t	t	n/a
57.153	0.1355	114306	keystroke_h	h	n/a
57.4525	0.1055	114905	keystroke_Key.enter	Key.enter	n/a
57.5635	6.866	115127	prompt	n/a	members duty lamb dollars\n
58.3375	0.1355	116675	keystroke_m	m	n/a
58.503	0.12	117006	keystroke_e	e	n/a
58.713	0.1805	117426	keystroke_m	m	n/a
59.2385	0.09	118477	keystroke_b	b	n/a
59.4635	0.18	118927	keystroke_e	e	n/a
59.6735	0.1045	119347	keystroke_r	r	n/a
59.883	0.105	119766	keystroke_s	s	n/a
60.018	0.165	120036	keystroke_Key.space	Key.space	n/a
60.423	0.105	120846	keystroke_d	d	n/a
60.558	0.135	121116	keystroke_u	u	n/a
60.723	0.105	121446	keystroke_t	t	n/a
60.918	0.135	121836	keystroke_y	y	n/a
61.023	0.165	122046	keystroke_Key.space	Key.space	n/a
61.5185	0.15	123037	keystroke_l	l	n/a
61.7135	0.15	123427	keystroke_a	a	n/a
61.9685	0.15	123937	keystroke_m	m	n/a
62.2085	0.12	124417	keystroke_b	b	n/a
62.3725	0.105	124745	keystroke_Key.space	Key.space	n/a
62.5975	0.106	125195	keystroke_d	d	n/a
62.7185	0.105	125437	keystroke_o	o	n/a
62.9435	0.105	125887	keystroke_l	l	n/a
63.0935	0.105	126187	keystroke_l	l	n/a
63.5285	0.1345	127057	keystroke_a	a	n/a
63.783	0.12	127566	keystroke_r	r	n/a
64.023	0.1195	128046	keystroke_s	s	n/a
64.3075	0.12	128615	keystroke_Key.enter	Key.enter	n/a
64.434	9.041	128868	prompt	n/a	notre february wichita rewards\n
65.2525	0.166	130505	keystroke_n	n	n/a
65.3885	0.1195	130777	keystroke_o	o	n/a
65.598	0.12	131196	keystroke_t	t	n/a
65.883	0.075	131766	keystroke_r	r	n/a
66.228	0.105	132456	keystroke_e	e	n/a
66.453	0.1645	132906	keystroke_Key.space	Key.space	n/a
66.7985	0.105	133597	keystroke_f	f	n/a
67.0235	0.104	134047	keystroke_e	e	n/a
67.2925	0.091	134585	keystroke_b	b	n/a
67.5335	0.089	135067	keystroke_r	r	n/a
67.728	0.135	135456	keystroke_u	u	n/a
67.908	0.12	135816	keystroke_a	a	n/a
68.058	0.12	136116	keystroke_r	r	n/a
68.2975	0.181	136595	keystroke_y	y	n/a
68.4475	0.195	136895	keystroke_Key.space	Key.space	n/a
69.8125	0.12	139625	keystroke_w	w	n/a
70.0235	0.119	140047	keystroke_i	i	n/a
70.2925	0.135	140585	keystroke_c	c	n/a
70.4875	0.15	140975	keystroke_h	h	n/a
70.5925	0.135	141185	keystroke_i	i	n/a
70.788	0.135	141576	keystroke_t	t	n/a
70.998	0.135	141996	keystroke_a	a	n/a
71.178	0.12	142356	keystroke_Key.space	Key.space	n/a
71.343	0.12	142686	keystroke_r	r	n/a
71.478	0.1055	142956	keystroke_e	e	n/a
71.8685	0.105	143737	keystroke_w	w	n/a
72.1235	0.1795	144247	keystroke_a	a	n/a
72.498	0.105	144996	keystroke_r	r	n/a
72.798	0.105	145596	keystroke_d	d	n/a
73.023	0.105	146046	keystroke_s	s	n/a
73.368	0.105	146736	keystroke_Key.enter	Key.enter	n/a
73.481	9.8035	146962	prompt	n/a	defendant realtors toward expressions\n
74.253	0.09	148506	keystroke_d	d	n/a
74.4625	0.1055	148925	keystroke_e	e	n/a
74.6575	0.0905	149315	keystroke_f	f	n/a
74.9275	0.105	149855	keystroke_e	e	n/a
75.1075	0.12	150215	keystroke_n	n	n/a
75.288	0.1045	150576	keystroke_d	d	n/a
75.498	0.1045	150996	keystroke_a	a	n/a
75.6475	0.1355	151295	keystroke_n	n	n/a
75.858	0.105	151716	keystroke_t	t	n/a
76.008	0.1655	152016	keystroke_Key.space	Key.space	n/a
76.3535	0.12	152707	keystroke_r	r	n/a
76.5935	0.12	153187	keystroke_e	e	n/a
76.9235	0.105	153847	keystroke_a	a	n/a
77.1635	0.135	154327	keystroke_l	l	n/a
77.4185	0.12	154837	keystroke_t	t	n/a
77.6735	0.12	155347	keystroke_o	o	n/a
77.9135	0.09	155827	keystroke_r	r	n/a
78.1985	0.1195	156397	keystroke_s	s	n/a
78.423	0.1645	156846	keystroke_Key.space	Key.space	n/a
78.8725	0.075	157745	keystroke_t	t	n/a
79.0225	0.15	158045	keystroke_o	o	n/a
79.2025	0.12	158405	keystroke_w	w	n/a
79.4875	0.1505	158975	keystroke_a	a	n/a
79.698	0.105	159396	keystroke_r	r	n/a
79.998	0.1055	159996	keystroke_d	d	n/a
80.1935	0.12	160387	keystroke_Key.space	Key.space	n/a
80.4635	0.09	160927	keystroke_e	e	n/a
81.1385	0.135	162277	keystroke_x	x	n/a
81.3785	0.1345	162757	keystroke_p	p	n/a
81.573	0.12	163146	keystroke_r	r	n/a
81.678	0.12	163356	keystroke_e	e	n/a
82.008	0.075	164016	keystroke_s	s	n/a
82.173	0.075	164346	keystroke_s	s	n/a
82.398	0.12	164796	keystroke_i	i	n/a
82.488	0.15	164976	keystroke_o	o	n/a
82.563	0.18	165126	keystroke_n	n	n/a
82.863	0.0905	165726	keystroke_s	s	n/a
83.1635	0.119	166327	keystroke_Key.enter	Key.enter	n/a
83.2875	6.552	166575	prompt	n/a	articles errors client handles\n
84.063	0.15	168126	keystroke_a	a	n/a
84.333	0.105	168666	keystroke_r	r	n/a
84.588	0.06	169176	keystroke_t	t	n/a
84.708	0.135	169416	keystroke_i	i	n/a
85.1275	0.105	170255	keystroke_c	c	n/a
85.3375	0.135	170675	keystroke_l	l	n/a
85.5025	0.105	171005	keystroke_e	e	n/a
85.6825	0.105	171365	keystroke_s	s	n/a
85.8325	0.151	171665	keystroke_Key.space	Key.space	n/a
86.3135	0.075	172627	keystroke_e	e	n/a
86.5385	0.06	173077	keystroke_r	r	n/a
86.7035	0.075	173407	keystroke_r	r	n/a
86.8235	0.12	173647	keystroke_o	o	n/a
86.9585	0.09	173917	keystroke_r	r	n/a
87.2275	0.09	174455	keystroke_s	s	n/a
87.3475	0.135	174695	keystroke_Key.space	Key.space	n/a
87.5725	0.1505	175145	keystroke_c	c	n/a
87.738	0.045	175476	keystroke_l	l	n/a
87.813	0.15	175626	keystroke_i	i	n/a
87.993	0.105	175986	keystroke_e	e	n/a
88.128	0.135	176256	keystroke_n	n	n/a
88.278	0.12	176556	keystroke_t	t	n/a
88.413	0.135	176826	keystroke_Key.space	Key.space	n/a
88.623	0.12	177246	keystroke_h	h	n/a
88.743	0.12	177486	keystroke_a	a	n/a
88.878	0.12	177756	keystroke_n	n	n/a
89.028	0.075	178056	keystroke_d	d	n/a
89.178	0.1645	178356	keystroke_l	l	n/a
89.3575	0.0755	178715	keystroke_e	e	n/a
89.508	0.1055	179016	keystroke_s	s	n/a
89.7175	0.1205	179435	keystroke_Key.enter	Key.enter	n/a
89.844	7.0755	179688	prompt	n/a	inexpensive expired one resort\n
90.708	0.15	181416	keystroke_i	i	n/a
90.813	0.165	181626	keystroke_n	n	n/a
90.948	0.075	181896	keystroke_e	e	n/a
91.188	0.12	182376	keystroke_x	x	n/a
91.458	0.1045	182916	keystroke_p	p	n/a
91.6675	0.105	183335	keystroke_e	e	n/a
91.7875	0.12	183575	keystroke_n	n	n/a
91.968	0.105	183936	keystroke_s	s	n/a
92.088	0.105	184176	keystroke_i	i	n/a
92.253	0.105	184506	keystroke_v	v	n/a
92.343	0.09	184686	keystroke_e	e	n/a
92.5075	0.15	185015	keystroke_Key.space	Key.space	n/a
92.808	0.105	185616	keystroke_e	e	n/a
93.048	0.165	186096	keystroke_x	x	n/a
93.228	0.135	186456	keystroke_p	p	n/a
93.678	0.105	187356	keystroke_i	i	n/a
93.873	0.12	187746	keystroke_r	r	n/a
94.053	0.09	188106	keystroke_e	e	n/a
94.293	0.09	188586	keystroke_d	d	n/a
94.443	0.15	188886	keystroke_Key.space	Key.space	n/a
94.653	0.135	189306	keystroke_o	o	n/a
94.743	0.165	189486	keystroke_n	n	n/a
94.878	0.105	189756	keystroke_e	e	n/a
95.013	0.135	190026	keystroke_Key.space	Key.space	n/a
95.3725	0.12	190745	keystroke_r	r	n/a
95.433	0.0755	190866	keystroke_e	e	n/a
95.9875	0.09	191975	keystroke_s	s	n/a
96.1375	0.12	192275	keystroke_o	o	n/a
96.3185	0.0895	192637	keystroke_r	r	n/a
96.558	0.075	193116	keystroke_t	t	n/a
96.813	0.105	193626	keystroke_Key.enter	Key.enter	n/a
96.923	8.2165	193846	prompt	n/a	ottawa christine served writings\n
97.7135	0.1345	195427	keystroke_o	o	n/a
97.908	0.09	195816	keystroke_t	t	n/a
98.073	0.135	196146	keystroke_t	t	n/a
98.403	0.135	196806	keystroke_a	a	n/a
98.658	0.12	197316	keystroke_w	w	n/a
98.913	0.135	197826	keystroke_a	a	n/a
99.063	0.12	198126	keystroke_Key.space	Key.space	n/a
99.3925	0.12	198785	keystroke_c	c	n/a
99.5575	0.165	199115	keystroke_h	h	n/a
99.8125	0.135	199625	keystroke_r	r	n/a
100.0375	0.135	200075	keystroke_i	i	n/a
100.4575	0.12	200915	keystroke_s	s	n/a
100.683	0.09	201366	keystroke_t	t	n/a
100.878	0.12	201756	keystroke_i	i	n/a
101.103	0.135	202206	keystroke_n	n	n/a
101.283	0.105	202566	keystroke_e	e	n/a
101.508	0.165	203016	keystroke_Key.space	Key.space	n/a
102.063	0.09	204126	keystroke_s	s	n/a
102.273	0.12	204546	keystroke_e	e	n/a
102.483	0.105	204966	keystroke_r	r	n/a
102.753	0.1205	205506	keystroke_v	v	n/a
102.9785	0.06	205957	keystroke_e	e	n/a
103.1585	0.105	206317	keystroke_d	d	n/a
103.2925	0.151	206585	keystroke_Key.space	Key.space	n/a
103.5325	0.091	207065	keystroke_w	w	n/a
103.773	0.075	207546	keystroke_r	r	n/a
103.953	0.12	207906	keystroke_i	i	n/a
104.1175	0.12	208235	keystroke_t	t	n/a
104.3425	0.151	208685	keystroke_i	i	n/a
104.4325	0.195	208865	keystroke_n	n	n/a
104.6125	0.09	209225	keystroke_g	g	n/a
104.7925	0.09	209585	keystroke_s	s	n/a
105.0325	0.1055	210065	keystroke_Key.enter	Key.enter	n/a
105.143	8.0515	210286	prompt	n/a	interstate structural fonts claimed\n
105.813	0.165	211626	keystroke_i	i	n/a
105.918	0.18	211836	keystroke_n	n	n/a
106.308	0.105	212616	keystroke_t	t	n/a
106.488	0.12	212976	keystroke_e	e	n/a
106.578	0.12	213156	keystroke_r	r	n/a
106.878	0.0605	213756	keystroke_s	s	n/a
106.9535	0.105	213907	keystroke_t	t	n/a
107.1185	0.135	214237	keystroke_a	a	n/a
107.2385	0.075	214477	keystroke_t	t	n/a
107.6125	0.09	215225	keystroke_e	e	n/a
107.7775	0.15	215555	keystroke_Key.space	Key.space	n/a
108.093	0.12	216186	keystroke_s	s	n/a
108.288	0.1045	216576	keystroke_t	t	n/a
108.5275	0.09	217055	keystroke_r	r	n/a
108.6925	0.12	217385	keystroke_u	u	n/a
108.8725	0.105	217745	keystroke_c	c	n/a
109.0825	0.09	218165	keystroke_t	t	n/a
109.2625	0.12	218525	keystroke_u	u	n/a
109.4575	0.105	218915	keystroke_r	r	n/a
109.5775	0.105	219155	keystroke_a	a	n/a
109.7425	0.135	219485	keystroke_l	l	n/a
109.8325	0.135	219665	keystroke_Key.space	Key.space	n/a
110.1025	0.09	220205	keystroke_f	f	n/a
110.2225	0.165	220445	keystroke_o	o	n/a
110.3725	0.135	220745	keystroke_n	n	n/a
110.538	0.105	221076	keystroke_t	t	n/a
110.703	0.105	221406	keystroke_s	s	n/a
110.838	0.1495	221676	keystroke_Key.space	Key.space	n/a
111.3625	0.045	222725	keystroke_c	c	n/a
111.4525	0.165	222905	keystroke_l	l	n/a
111.6475	0.09	223295	keystroke_a	a	n/a
112.3525	0.06	224705	keystroke_i	i	n/a
112.4575	0.135	224915	keystroke_m	m	n/a
112.6225	0.075	225245	keystroke_e	e	n/a
112.8325	0.09	225665	keystroke_d	d	n/a
113.088	0.105	226176	keystroke_Key.enter	Key.enter	n/a
113.199	9.145	226398	prompt	n/a	lafayette oriental taxi macedonia\n
114.1085	0.119	228217	keystroke_l	l	n/a
114.3025	0.12	228605	keystroke_a	a	n/a
114.4675	0.12	228935	keystroke_f	f	n/a
114.7375	0.105	229475	keystroke_a	a	n/a
114.8885	0.134	229777	keystroke_y	y	n/a
116.1625	0.09	232325	keystroke_e	e	n/a
116.4325	0.06	232865	keystroke_t	t	n/a
116.5525	0.12	233105	keystroke_t	t	n/a
116.7775	0.09	233555	keystroke_e	e	n/a
116.9875	0.15	233975	keystroke_Key.space	Key.space	n/a
117.4825	0.1355	234965	keystroke_o	o	n/a
117.663	0.105	235326	keystroke_r	r	n/a
118.0375	0.09	236075	keystroke_i	i	n/a
118.218	0.1045	236436	keystroke_e	e	n/a
118.413	0.1345	236826	keystroke_n	n	n/a
118.5775	0.105	237155	keystroke_t	t	n/a
118.7575	0.1055	237515	keystroke_a	a	n/a
118.878	0.1645	237756	keystroke_l	l	n/a
118.998	0.15	237996	keystroke_Key.space	Key.space	n/a
119.3135	0.104	238627	keystroke_t	t	n/a
119.5225	0.09	239045	keystroke_a	a	n/a
119.7775	0.135	239555	keystroke_x	x	n/a
119.9425	0.165	239885	keystroke_i	i	n/a
120.0925	0.165	240185	keystroke_Key.space	Key.space	n/a
120.3775	0.135	240755	keystroke_m	m	n/a
120.5275	0.09	241055	keystroke_a	a	n/a
120.8725	0.105	241745	keystroke_c	c	n/a
121.127	0.091	242254	keystroke_e	e	n/a
121.353	0.075	242706	keystroke_d	d	n/a
121.548	0.1495	243096	keystroke_o	o	n/a
121.7125	0.105	243425	keystroke_n	n	n/a
121.8775	0.1205	243755	keystroke_i	i	n/a
122.043	0.09	244086	keystroke_a	a	n/a
122.238	0.105	244476	keystroke_Key.enter	Key.enter	n/a
122.347	9.7775	244694	prompt	n/a	maintained sponsors draft customers\n
123.318	0.12	246636	keystroke_m	m	n/a
123.423	0.135	246846	keystroke_a	a	n/a
123.603	0.12	247206	keystroke_i	i	n/a
123.708	0.1195	247416	keystroke_n	n	n/a
124.1275	0.1055	248255	keystroke_a	a	n/a
124.727	0.106	249454	keystroke_Key.backspace	Key.backspace	n/a
124.863	0.105	249726	keystroke_t	t	n/a
125.028	0.12	250056	keystroke_a	a	n/a
125.1625	0.1805	250325	keystroke_i	i	n/a
125.2825	0.165	250565	keystroke_n	n	n/a
125.4325	0.09	250865	keystroke_e	e	n/a
125.6575	0.09	251315	keystroke_d	d	n/a
125.8075	0.15	251615	keystroke_Key.space	Key.space	n/a
126.2125	0.105	252425	keystroke_s	s	n/a
126.3625	0.12	252725	keystroke_p	p	n/a
126.5725	0.136	253145	keystroke_o	o	n/a
126.6935	0.12	253387	keystroke_n	n	n/a
126.9325	0.106	253865	keystroke_s	s	n/a
127.0675	0.12	254135	keystroke_o	o	n/a
127.2775	0.106	254555	keystroke_r	r	n/a
127.5175	0.1055	255035	keystroke_s	s	n/a
127.683	0.15	255366	keystroke_Key.space	Key.space	n/a
128.343	0.09	256686	keystroke_d	d	n/a
128.703	0.045	257406	keystroke_r	r	n/a
128.928	0.15	257856	keystroke_a	a	n/a
129.138	0.105	258276	keystroke_f	f	n/a
129.4225	0.105	258845	keystroke_t	t	n/a
129.633	0.15	259266	keystroke_Key.space	Key.space	n/a
130.083	0.135	260166	keystroke_c	c	n/a
130.338	0.135	260676	keystroke_u	u	n/a
130.533	0.135	261066	keystroke_s	s	n/a
130.728	0.09	261456	keystroke_t	t	n/a
130.863	0.15	261726	keystroke_o	o	n/a
131.043	0.12	262086	keystroke_m	m	n/a
131.223	0.165	262446	keystroke_e	e	n/a
131.448	0.1195	262896	keystroke_r	r	n/a
131.7025	0.105	263405	keystroke_s	s	n/a
132.0185	0.105	264037	keystroke_Key.enter	Key.enter	n/a
132.1275	11.832	264255	prompt	n/a	cholesterol seem coaching deviation\n
132.8885	0.1495	265777	keystroke_c	c	n/a
133.053	0.105	266106	keystroke_h	h	n/a
133.2025	0.105	266405	keystroke_o	o	n/a
133.428	0.1195	266856	keystroke_l	l	n/a
133.533	0.1205	267066	keystroke_e	e	n/a
133.7575	0.105	267515	keystroke_s	s	n/a
133.9685	0.119	267937	keystroke_t	t	n/a
134.3125	0.09	268625	keystroke_e	e	n/a
134.5075	0.12	269015	keystroke_r	r	n/a
134.853	0.105	269706	keystroke_o	o	n/a
135.108	0.165	270216	keystroke_l	l	n/a
135.243	0.165	270486	keystroke_Key.space	Key.space	n/a
135.438	0.105	270876	keystroke_s	s	n/a
135.6025	0.09	271205	keystroke_e	e	n/a
135.7825	0.105	271565	keystroke_e	e	n/a
136.098	0.15	272196	keystroke_Key.space	Key.space	n/a
136.728	0.045	273456	keystroke_o	o	n/a
137.1625	0.09	274325	keystroke_Key.backspace	Key.backspace	n/a
137.2535	0.119	274507	keystroke_c	c	n/a
137.4475	0.12	274895	keystroke_o	o	n/a
137.6425	0.12	275285	keystroke_a	a	n/a
138.0025	0.105	276005	keystroke_c	c	n/a
138.2425	0.09	276485	keystroke_h	h	n/a
138.3175	0.15	276635	keystroke_i	i	n/a
138.4525	0.135	276905	keystroke_n	n	n/a
138.6325	0.105	277265	keystroke_g	g	n/a
138.933	0.1645	277866	keystroke_Key.space	Key.space	n/a
139.293	0.0745	278586	keystroke_d	d	n/a
139.4725	0.0905	278945	keystroke_e	e	n/a
139.713	0.105	279426	keystroke_v	v	n/a
139.878	0.135	279756	keystroke_i	i	n/a
140.043	0.1505	280086	keystroke_a	a	n/a
140.1775	0.106	280355	keystroke_t	t	n/a
140.3425	0.105	280685	keystroke_i	i	n/a
140.3885	0.194	280777	keystroke_o	o	n/a
140.5075	0.21	281015	keystroke_n	n	n/a
141.3175	0.135	282635	keystroke_Key.backspace	Key.backspace	n/a
142.9525	0.165	285905	keystroke_n	n	n/a
143.853	0.105	287706	keystroke_Key.enter	Key.enter	n/a
143.9625	15.5215	287925	prompt	n/a	compaq support holy proceeding\n
144.993	0.12	289986	keystroke_c	c	n/a
145.218	0.12	290436	keystroke_o	o	n/a
145.518	0.15	291036	keystroke_m	m	n/a
146.103	0.135	292206	keystroke_a	a	n/a
146.8525	0.1205	293705	keystroke_Key.backspace	Key.backspace	n/a
147.2275	0.135	294455	keystroke_p	p	n/a
147.5725	0.12	295145	keystroke_q	q	n/a
148.4425	0.105	296885	keystroke_=	=	n/a
148.7125	0.0755	297425	keystroke_a	a	n/a
149.5225	0.075	299045	keystroke_Key.backspace	Key.backspace	n/a
149.8225	0.075	299645	keystroke_Key.backspace	Key.backspace	n/a
150.2725	0.075	300545	keystroke_Key.backspace	Key.backspace	n/a
151.2025	0.15	302405	keystroke_a	a	n/a
151.623	0.105	303246	keystroke_q	q	n/a
151.9525	0.1655	303905	keystroke_Key.space	Key.space	n/a
152.313	0.12	304626	keystroke_s	s	n/a
152.628	0.135	305256	keystroke_u	u	n/a
153.048	0.135	306096	keystroke_p	p	n/a
153.318	0.135	306636	keystroke_o	o	n/a
153.813	0.09	307626	keystroke_o	o	n/a
154.158	0.12	308316	keystroke_Key.backspace	Key.backspace	n/a
154.458	0.09	308916	keystroke_Key.backspace	Key.backspace	n/a
154.743	0.1045	309486	keystroke_p	p	n/a
154.9525	0.135	309905	keystroke_o	o	n/a
155.1625	0.105	310325	keystroke_r	r	n/a
155.4025	0.105	310805	keystroke_t	t	n/a
155.5675	0.15	311135	keystroke_Key.space	Key.space	n/a
156.048	0.12	312096	keystroke_h	h	n/a
156.153	0.12	312306	keystroke_o	o	n/a
156.363	0.09	312726	keystroke_l	l	n/a
156.5725	0.151	313145	keystroke_y	y	n/a
156.6925	0.165	313385	keystroke_Key.space	Key.space	n/a
157.0985	0.12	314197	keystroke_p	p	n/a
157.2925	0.106	314585	keystroke_r	r	n/a
157.4435	0.135	314887	keystroke_o	o	n/a
157.6985	0.134	315397	keystroke_c	c	n/a
158.1175	0.106	316235	keystroke_e	e	n/a
158.4025	0.09	316805	keystroke_e	e	n/a
158.7185	0.09	317437	keystroke_d	d	n/a
158.8985	0.165	317797	keystroke_i	i	n/a
158.9575	0.166	317915	keystroke_n	n	n/a
159.0785	0.089	318157	keystroke_g	g	n/a
159.3625	0.12	318725	keystroke_Key.enter	Key.enter	n/a
159.487	9.507	318974	prompt	n/a	proceedings addiction portuguese parking\n
160.1125	0.12	320225	keystroke_p	p	n/a
160.2925	0.105	320585	keystroke_r	r	n/a
160.413	0.1045	320826	keystroke_o	o	n/a
161.1335	0.1185	322267	keystroke_c	c	n/a
161.373	0.075	322746	keystroke_e	e	n/a
161.553	0.09	323106	keystroke_e	e	n/a
161.778	0.09	323556	keystroke_d	d	n/a
161.943	0.15	323886	keystroke_i	i	n/a
162.033	0.135	324066	keystroke_n	n	n/a
162.138	0.105	324276	keystroke_g	g	n/a
162.363	0.105	324726	keystroke_s	s	n/a
162.528	0.135	325056	keystroke_Key.space	Key.space	n/a
162.978	0.045	325956	keystroke_s	s	n/a
163.5175	0.0305	327035	keystroke_Key.backspace	Key.backspace	n/a
163.5325	0.1055	327065	keystroke_a	a	n/a
163.698	0.09	327396	keystroke_d	d	n/a
163.878	0.105	327756	keystroke_d	d	n/a
164.043	0.135	328086	keystroke_i	i	n/a
164.133	0.105	328266	keystroke_c	c	n/a
164.373	0.075	328746	keystroke_t	t	n/a
164.508	0.105	329016	keystroke_i	i	n/a
164.583	0.135	329166	keystroke_o	o	n/a
164.688	0.15	329376	keystroke_n	n	n/a
164.808	0.15	329616	keystroke_Key.space	Key.space	n/a
165.228	0.12	330456	keystroke_p	p	n/a
165.738	0.105	331476	keystroke_o	o	n/a
165.918	0.105	331836	keystroke_r	r	n/a
166.2475	0.105	332495	keystroke_t	t	n/a
166.4425	0.105	332885	keystroke_u	u	n/a
166.6375	0.105	333275	keystroke_g	g	n/a
166.8475	0.105	333695	keystroke_u	u	n/a
167.1325	0.105	334265	keystroke_e	e	n/a
167.3725	0.1805	334745	keystroke_s	s	n/a
167.508	0.105	335016	keystroke_e	e	n/a
167.658	0.15	335316	keystroke_Key.space	Key.space	n/a
167.838	0.15	335676	keystroke_p	p	n/a
168.018	0.195	336036	keystroke_a	a	n/a
168.198	0.0905	336396	keystroke_r	r	n/a
168.3625	0.09	336725	keystroke_k	k	n/a
168.5435	0.165	337087	keystroke_i	i	n/a
168.6185	0.149	337237	keystroke_n	n	n/a
168.7385	0.0745	337477	keystroke_g	g	n/a
168.888	0.105	337776	keystroke_Key.enter	Key.enter	n/a
168.997	10.273	337994	prompt	n/a	clara moved qualified variations\n
169.9975	0.09	339995	keystroke_c	c	n/a
170.1625	0.136	340325	keystroke_l	l	n/a
170.7935	0.089	341587	keystroke_a	a	n/a
171.3325	0.091	342665	keystroke_r	r	n/a
171.5285	0.1195	343057	keystroke_a	a	n/a
171.708	0.12	343416	keystroke_Key.space	Key.space	n/a
172.023	0.15	344046	keystroke_m	m	n/a
172.143	0.15	344286	keystroke_o	o	n/a
172.398	0.105	344796	keystroke_v	v	n/a
172.548	0.06	345096	keystroke_e	e	n/a
172.728	0.09	345456	keystroke_d	d	n/a
172.863	0.15	345726	keystroke_Key.space	Key.space	n/a
173.343	0.12	346686	keystroke_q	q	n/a
173.7025	0.135	347405	keystroke_u	u	n/a
173.9875	0.135	347975	keystroke_a	a	n/a
174.3175	0.12	348635	keystroke_l	l	n/a
174.5425	0.12	349085	keystroke_i	i	n/a
174.8125	0.09	349625	keystroke_f	f	n/a
175.0525	0.12	350105	keystroke_i	i	n/a
175.3075	0.09	350615	keystroke_e	e	n/a
175.638	0.075	351276	keystroke_d	d	n/a
175.818	0.15	351636	keystroke_Key.space	Key.space	n/a
176.118	0.12	352236	keystroke_v	v	n/a
176.403	0.12	352806	keystroke_a	a	n/a
176.658	0.12	353316	keystroke_i	i	n/a
177.6175	0.12	355235	keystroke_Key.backspace	Key.backspace	n/a
177.8275	0.105	355655	keystroke_r	r	n/a
177.9775	0.105	355955	keystroke_i	i	n/a
178.1425	0.135	356285	keystroke_a	a	n/a
178.533	0.09	357066	keystroke_t	t	n/a
178.653	0.135	357306	keystroke_i	i	n/a
178.728	0.15	357456	keystroke_o	o	n/a
178.803	0.1495	357606	keystroke_n	n	n/a
178.9375	0.105	357875	keystroke_s	s	n/a
179.1625	0.105	358325	keystroke_Key.enter	Key.enter	n/a
179.276	6.7435	358552	prompt	n/a	answered teen structures engaged\n
179.943	0.12	359886	keystroke_a	a	n/a
180.078	0.105	360156	keystroke_n	n	n/a
180.243	0.075	360486	keystroke_s	s	n/a
180.468	0.045	360936	keystroke_w	w	n/a
180.573	0.135	361146	keystroke_e	e	n/a
180.738	0.105	361476	keystroke_r	r	n/a
180.888	0.09	361776	keystroke_e	e	n/a
181.083	0.09	362166	keystroke_d	d	n/a
181.203	0.135	362406	keystroke_Key.space	Key.space	n/a
181.548	0.075	363096	keystroke_t	t	n/a
181.698	0.09	363396	keystroke_e	e	n/a
181.878	0.09	363756	keystroke_e	e	n/a
182.103	0.135	364206	keystroke_n	n	n/a
182.208	0.165	364416	keystroke_Key.space	Key.space	n/a
182.343	0.1195	364686	keystroke_s	s	n/a
182.4925	0.09	364985	keystroke_t	t	n/a
182.6725	0.09	365345	keystroke_r	r	n/a
182.8225	0.12	365645	keystroke_u	u	n/a
182.9725	0.09	365945	keystroke_c	c	n/a
183.1225	0.09	366245	keystroke_t	t	n/a
183.2725	0.09	366545	keystroke_u	u	n/a
183.3925	0.105	366785	keystroke_r	r	n/a
183.6925	0.075	367385	keystroke_e	e	n/a
183.858	0.105	367716	keystroke_s	s	n/a
184.038	0.15	368076	keystroke_Key.space	Key.space	n/a
184.443	0.091	368886	keystroke_e	e	n/a
184.563	0.105	369126	keystroke_n	n	n/a
184.833	0.09	369666	keystroke_g	g	n/a
185.043	0.09	370086	keystroke_a	a	n/a
185.298	0.09	370596	keystroke_g	g	n/a
185.4925	0.0755	370985	keystroke_e	e	n/a
185.673	0.09	371346	keystroke_d	d	n/a
185.898	0.12	371796	keystroke_Key.enter	Key.enter	n/a
186.022	8.172	372044	prompt	n/a	justice distribute validation bali\n
186.663	0.09	373326	keystroke_j	j	n/a
186.873	0.12	373746	keystroke_u	u	n/a
186.963	0.1045	373926	keystroke_s	s	n/a
187.0825	0.12	374165	keystroke_t	t	n/a
187.2175	0.105	374435	keystroke_i	i	n/a
187.3675	0.09	374735	keystroke_c	c	n/a
187.5925	0.06	375185	keystroke_e	e	n/a
187.8625	0.1655	375725	keystroke_Key.space	Key.space	n/a
188.418	0.0895	376836	keystroke_d	d	n/a
188.5825	0.136	377165	keystroke_i	i	n/a
188.8075	0.12	377615	keystroke_s	s	n/a
189.0485	0.104	378097	keystroke_t	t	n/a
189.272	0.09	378544	keystroke_r	r	n/a
189.392	0.105	378784	keystroke_i	i	n/a
189.557	0.105	379114	keystroke_b	b	n/a
189.722	0.1215	379444	keystroke_u	u	n/a
189.8575	0.09	379715	keystroke_t	t	n/a
189.9775	0.1055	379955	keystroke_e	e	n/a
190.1125	0.1655	380225	keystroke_Key.space	Key.space	n/a
190.3225	0.135	380645	keystroke_v	v	n/a
190.518	0.1045	381036	keystroke_a	a	n/a
190.8175	0.06	381635	keystroke_l	l	n/a
190.908	0.12	381816	keystroke_i	i	n/a
191.073	0.1195	382146	keystroke_d	d	n/a
191.2525	0.21	382505	keystroke_a	a	n/a
191.4635	0.104	382927	keystroke_t	t	n/a
191.5825	0.105	383165	keystroke_i	i	n/a
191.6425	0.105	383285	keystroke_o	o	n/a
191.7325	0.0755	383465	keystroke_n	n	n/a
192.213	0.12	384426	keystroke_Key.space	Key.space	n/a
193.2925	0.12	386585	keystroke_b	b	n/a
193.4425	0.135	386885	keystroke_a	a	n/a
193.6675	0.15	387335	keystroke_l	l	n/a
193.8025	0.12	387605	keystroke_i	i	n/a
194.1025	0.09	388205	keystroke_Key.enter	Key.enter	n/a
194.198	9.341	388396	prompt	n/a	starting dallas dispatch consultation\n
194.8825	0.12	389765	keystroke_s	s	n/a
195.168	0.15	390336	keystroke_t	t	n/a
195.633	0.1345	391266	keystroke_a	a	n/a
195.9175	0.075	391835	keystroke_r	r	n/a
196.113	0.09	392226	keystroke_t	t	n/a
196.277	0.1805	392554	keystroke_i	i	n/a
196.382	0.1505	392764	keystroke_n	n	n/a
196.5175	0.09	393035	keystroke_g	g	n/a
196.6225	0.15	393245	keystroke_Key.space	Key.space	n/a
197.283	0.09	394566	keystroke_d	d	n/a
197.403	0.12	394806	keystroke_a	a	n/a
197.583	0.09	395166	keystroke_l	l	n/a
197.763	0.12	395526	keystroke_l	l	n/a
197.898	0.18	395796	keystroke_a	a	n/a
198.063	0.105	396126	keystroke_s	s	n/a
198.2875	0.1355	396575	keystroke_Key.space	Key.space	n/a
199.053	0.105	398106	keystroke_d	d	n/a
199.263	0.1195	398526	keystroke_i	i	n/a
199.4275	0.1205	398855	keystroke_s	s	n/a
199.668	0.105	399336	keystroke_p	p	n/a
200.177	0.166	400354	keystroke_a	a	n/a
200.358	0.09	400716	keystroke_t	t	n/a
200.657	0.091	401314	keystroke_c	c	n/a
200.823	0.12	401646	keystroke_h	h	n/a
200.912	0.15	401824	keystroke_Key.space	Key.space	n/a
201.107	0.105	402214	keystroke_c	c	n/a
201.197	0.151	402394	keystroke_o	o	n/a
201.287	0.12	402574	keystroke_n	n	n/a
201.542	0.0905	403084	keystroke_s	s	n/a
201.7075	0.1345	403415	keystroke_u	u	n/a
201.887	0.1205	403774	keystroke_l	l	n/a
202.0675	0.105	404135	keystroke_t	t	n/a
202.2175	0.12	404435	keystroke_a	a	n/a
202.3225	0.09	404645	keystroke_t	t	n/a
202.4425	0.09	404885	keystroke_i	i	n/a
202.5175	0.12	405035	keystroke_o	o	n/a
202.6075	0.105	405215	keystroke_n	n	n/a
203.388	0.15	406776	keystroke_Key.enter	Key.enter	n/a
203.543	11.036	407086	prompt	n/a	roster convergence rides swingers\n
204.7675	0.09	409535	keystroke_r	r	n/a
204.8585	0.15	409717	keystroke_o	o	n/a
204.9925	0.12	409985	keystroke_s	s	n/a
205.0975	0.105	410195	keystroke_t	t	n/a
205.2775	0.1195	410555	keystroke_e	e	n/a
205.368	0.12	410736	keystroke_r	r	n/a
205.502	0.105	411004	keystroke_Key.space	Key.space	n/a
205.802	0.09	411604	keystroke_c	c	n/a
205.907	0.12	411814	keystroke_o	o	n/a
206.012	0.12	412024	keystroke_n	n	n/a
206.237	0.105	412474	keystroke_v	v	n/a
206.402	0.15	412804	keystroke_e	e	n/a
206.537	0.105	413074	keystroke_r	r	n/a
206.867	0.1355	413734	keystroke_g	g	n/a
207.4375	0.12	414875	keystroke_e	e	n/a
207.6475	0.12	415295	keystroke_n	n	n/a
207.9025	0.09	415805	keystroke_c	c	n/a
208.127	0.075	416254	keystroke_e	e	n/a
208.307	0.1505	416614	keystroke_Key.space	Key.space	n/a
208.9675	0.12	417935	keystroke_r	r	n/a
209.1175	0.12	418235	keystroke_i	i	n/a
209.2675	0.075	418535	keystroke_d	d	n/a
209.4625	0.045	418925	keystroke_e	e	n/a
209.5975	0.075	419195	keystroke_s	s	n/a
209.703	0.134	419406	keystroke_Key.space	Key.space	n/a
209.943	0.0895	419886	keystroke_w	w	n/a
210.1075	0.135	420215	keystroke_i	i	n/a
210.2425	0.165	420485	keystroke_n	n	n/a
210.4225	0.105	420845	keystroke_g	g	n/a
210.5575	0.135	421115	keystroke_e	e	n/a
210.6625	0.12	421325	keystroke_r	r	n/a
211.157	0.135	422314	keystroke_Key.backspace	Key.backspace	n/a
211.367	0.075	422734	keystroke_Key.backspace	Key.backspace	n/a
211.5625	0.045	423125	keystroke_Key.backspace	Key.backspace	n/a
211.7125	0.075	423425	keystroke_Key.backspace	Key.backspace	n/a
211.9225	0.09	423845	keystroke_Key.backspace	Key.backspace	n/a
212.432	0.12	424864	keystroke_Key.backspace	Key.backspace	n/a
212.808	0.119	425616	keystroke_s	s	n/a
213.092	0.105	426184	keystroke_w	w	n/a
213.317	0.136	426634	keystroke_i	i	n/a
213.408	0.149	426816	keystroke_n	n	n/a
213.602	0.12	427204	keystroke_g	g	n/a
213.842	0.165	427684	keystroke_e	e	n/a
214.022	0.12	428044	keystroke_r	r	n/a
214.247	0.12	428494	keystroke_s	s	n/a
214.472	0.105	428944	keystroke_Key.enter	Key.enter	n/a
214.582	9.5825	429164	prompt	n/a	pine interactive paypal journalists\n
215.808	0.1345	431616	keystroke_p	p	n/a
216.0025	0.165	432005	keystroke_i	i	n/a
216.1225	0.15	432245	keystroke_n	n	n/a
216.2575	0.105	432515	keystroke_e	e	n/a
216.3775	0.165	432755	keystroke_Key.space	Key.space	n/a
216.8725	0.06	433745	keystroke_i	i	n/a
216.9175	0.105	433835	keystroke_n	n	n/a
216.9925	0.12	433985	keystroke_t	t	n/a
217.1575	0.12	434315	keystroke_e	e	n/a
217.2475	0.12	434495	keystroke_r	r	n/a
217.7275	0.12	435455	keystroke_a	a	n/a
217.8925	0.12	435785	keystroke_c	c	n/a
218.0875	0.12	436175	keystroke_t	t	n/a
218.2375	0.135	436475	keystroke_i	i	n/a
218.5825	0.165	437165	keystroke_v	v	n/a
218.7325	0.12	437465	keystroke_e	e	n/a
218.9125	0.165	437825	keystroke_Key.space	Key.space	n/a
219.1975	0.1355	438395	keystroke_p	p	n/a
219.318	0.135	438636	keystroke_a	a	n/a
220.233	0.135	440466	keystroke_y	y	n/a
220.428	0.12	440856	keystroke_p	p	n/a
220.563	0.105	441126	keystroke_a	a	n/a
220.758	0.18	441516	keystroke_l	l	n/a
220.908	0.179	441816	keystroke_Key.space	Key.space	n/a
221.162	0.1505	442324	keystroke_j	j	n/a
221.2825	0.135	442565	keystroke_o	o	n/a
221.4925	0.135	442985	keystroke_u	u	n/a
222.078	0.12	444156	keystroke_r	r	n/a
222.333	0.12	444666	keystroke_n	n	n/a
222.558	0.075	445116	keystroke_a	a	n/a
222.708	0.12	445416	keystroke_l	l	n/a
223.083	0.105	446166	keystroke_i	i	n/a
223.308	0.1345	446616	keystroke_s	s	n/a
223.4875	0.135	446975	keystroke_t	t	n/a
223.7875	0.105	447575	keystroke_s	s	n/a
224.0875	0.075	448175	keystroke_Key.enter	Key.enter	n/a
224.169	11.7105	448338	prompt	n/a	powers finished railroad hospitals\n
224.8825	0.12	449765	keystroke_p	p	n/a
225.1525	0.06	450305	keystroke_w	w	n/a
225.6775	0.09	451355	keystroke_Key.backspace	Key.backspace	n/a
225.9325	0.12	451865	keystroke_o	o	n/a
226.0975	0.09	452195	keystroke_w	w	n/a
226.2925	0.09	452585	keystroke_e	e	n/a
226.7875	0.135	453575	keystroke_r	r	n/a
227.0575	0.105	454115	keystroke_s	s	n/a
227.433	0.12	454866	keystroke_Key.space	Key.space	n/a
227.6575	0.12	455315	keystroke_h	h	n/a
227.7625	0.12	455525	keystroke_i	i	n/a
227.8835	0.194	455767	keystroke_n	n	n/a
228.0175	0.15	456035	keystroke_i	i	n/a
228.4225	0.12	456845	keystroke_Key.backspace	Key.backspace	n/a
228.6325	0.075	457265	keystroke_Key.backspace	Key.backspace	n/a
228.8275	0.045	457655	keystroke_Key.backspace	Key.backspace	n/a
228.9625	0.09	457925	keystroke_Key.backspace	Key.backspace	n/a
229.353	0.09	458706	keystroke_f	f	n/a
229.563	0.12	459126	keystroke_i	i	n/a
229.653	0.18	459306	keystroke_n	n	n/a
229.803	0.12	459606	keystroke_i	i	n/a
229.923	0.105	459846	keystroke_s	s	n/a
230.043	0.135	460086	keystroke_h	h	n/a
230.253	0.105	460506	keystroke_e	e	n/a
230.538	0.09	461076	keystroke_d	d	n/a
230.733	0.15	461466	keystroke_Key.space	Key.space	n/a
231.528	0.105	463056	keystroke_r	r	n/a
231.753	0.105	463506	keystroke_a	a	n/a
231.933	0.09	463866	keystroke_l	l	n/a
232.113	0.12	464226	keystroke_i	i	n/a
232.383	0.12	464766	keystroke_r	r	n/a
232.533	0.09	465066	keystroke_o	o	n/a
232.803	0.1195	465606	keystroke_a	a	n/a
232.9675	0.105	465935	keystroke_d	d	n/a
233.2675	0.15	466535	keystroke_Key.space	Key.space	n/a
233.5525	0.15	467105	keystroke_h	h	n/a
233.9425	0.135	467885	keystroke_o	o	n/a
234.1225	0.105	468245	keystroke_s	s	n/a
234.3775	0.135	468755	keystroke_p	p	n/a
234.8125	0.12	469625	keystroke_i	i	n/a
235.0225	0.135	470045	keystroke_t	t	n/a
235.2625	0.105	470525	keystroke_a	a	n/a
235.383	0.135	470766	keystroke_l	l	n/a
235.548	0.09	471096	keystroke_s	s	n/a
235.773	0.105	471546	keystroke_Key.enter	Key.enter	n/a
235.8825	8.082	471765	prompt	n/a	natural kruger array exchange\n
236.6875	0.105	473375	keystroke_n	n	n/a
237.048	0.12	474096	keystroke_a	a	n/a
237.228	0.135	474456	keystroke_t	t	n/a
237.693	0.105	475386	keystroke_u	u	n/a
237.903	0.105	475806	keystroke_r	r	n/a
238.128	0.12	476256	keystroke_a	a	n/a
238.323	0.165	476646	keystroke_l	l	n/a
238.473	0.165	476946	keystroke_Key.space	Key.space	n/a
238.8925	0.135	477785	keystroke_k	k	n/a
239.1475	0.105	478295	keystroke_r	r	n/a
239.3725	0.12	478745	keystroke_u	u	n/a
239.5525	0.105	479105	keystroke_g	g	n/a
239.8375	0.135	479675	keystroke_e	e	n/a
239.9425	0.135	479885	keystroke_r	r	n/a
240.1075	0.15	480215	keystroke_Key.space	Key.space	n/a
240.2725	0.105	480545	keystroke_a	a	n/a
240.4075	0.09	480815	keystroke_r	r	n/a
240.5725	0.105	481145	keystroke_r	r	n/a
240.7075	0.135	481415	keystroke_a	a	n/a
240.9025	0.12	481805	keystroke_y	y	n/a
240.9925	0.1645	481985	keystroke_Key.space	Key.space	n/a
241.307	0.09	482614	keystroke_e	e	n/a
241.862	0.135	483724	keystroke_x	x	n/a
242.207	0.075	484414	keystroke_c	c	n/a
242.432	0.12	484864	keystroke_h	h	n/a
243.108	0.119	486216	keystroke_a	a	n/a
243.287	0.165	486574	keystroke_n	n	n/a
243.482	0.1055	486964	keystroke_g	g	n/a
243.5725	0.12	487145	keystroke_e	e	n/a
243.8725	0.09	487745	keystroke_Key.enter	Key.enter	n/a
243.967	9.612	487934	prompt	n/a	million interpreted addressed ethernet\n
244.893	0.165	489786	keystroke_m	m	n/a
245.028	0.105	490056	keystroke_i	i	n/a
245.253	0.12	490506	keystroke_l	l	n/a
245.433	0.105	490866	keystroke_l	l	n/a
245.613	0.12	491226	keystroke_i	i	n/a
245.748	0.12	491496	keystroke_o	o	n/a
245.853	0.12	491706	keystroke_n	n	n/a
245.958	0.15	491916	keystroke_Key.space	Key.space	n/a
246.123	0.1045	492246	keystroke_i	i	n/a
246.2125	0.135	492425	keystroke_n	n	n/a
246.3625	0.09	492725	keystroke_t	t	n/a
246.498	0.18	492996	keystroke_e	e	n/a
246.858	0.12	493716	keystroke_p	p	n/a
247.023	0.09	494046	keystroke_r	r	n/a
247.248	0.105	494496	keystroke_e	e	n/a
247.518	0.09	495036	keystroke_t	t	n/a
247.653	0.09	495306	keystroke_e	e	n/a
247.863	0.09	495726	keystroke_d	d	n/a
247.998	0.165	495996	keystroke_Key.space	Key.space	n/a
248.298	0.105	496596	keystroke_a	a	n/a
248.478	0.09	496956	keystroke_d	d	n/a
248.643	0.105	497286	keystroke_d	d	n/a
248.883	0.105	497766	keystroke_r	r	n/a
249.033	0.135	498066	keystroke_e	e	n/a
249.318	0.09	498636	keystroke_s	s	n/a
249.543	0.06	499086	keystroke_s	s	n/a
249.738	0.075	499476	keystroke_e	e	n/a
249.978	0.105	499956	keystroke_d	d	n/a
250.173	0.135	500346	keystroke_Key.space	Key.space	n/a
250.428	0.12	500856	keystroke_e	e	n/a
250.683	0.12	501366	keystroke_t	t	n/a
250.818	0.15	501636	keystroke_h	h	n/a
250.953	0.135	501906	keystroke_e	e	n/a
251.163	0.15	502326	keystroke_n	n	n/a
251.913	0.1045	503826	keystroke_Key.backspace	Key.backspace	n/a
252.0775	0.09	504155	keystroke_r	r	n/a
252.9475	0.135	505895	keystroke_n	n	n/a
253.1875	0.105	506375	keystroke_e	e	n/a
253.2625	0.105	506525	keystroke_t	t	n/a
253.4875	0.09	506975	keystroke_Key.enter	Key.enter	n/a
253.582	10.557	507164	prompt	n/a	pros recognized myrtle bugs\n
255.123	0.135	510246	keystroke_p	p	n/a
255.303	0.09	510606	keystroke_r	r	n/a
255.438	0.12	510876	keystroke_o	o	n/a
255.573	0.12	511146	keystroke_s	s	n/a
255.708	0.135	511416	keystroke_Key.space	Key.space	n/a
256.293	0.105	512586	keystroke_r	r	n/a
256.458	0.12	512916	keystroke_e	e	n/a
256.893	0.12	513786	keystroke_c	c	n/a
257.058	0.1345	514116	keystroke_o	o	n/a
257.7775	0.075	515555	keystroke_g	g	n/a
257.9725	0.135	515945	keystroke_n	n	n/a
258.1975	0.135	516395	keystroke_i	i	n/a
258.4375	0.165	516875	keystroke_z	z	n/a
258.6625	0.0895	517325	keystroke_e	e	n/a
258.9025	0.105	517805	keystroke_d	d	n/a
259.0375	0.12	518075	keystroke_Key.space	Key.space	n/a
259.3075	0.1205	518615	keystroke_m	m	n/a
260.027	0.15	520054	keystroke_;	;	n/a
260.042	0.12	520084	keystroke_y	y	n/a
260.882	0.105	521764	keystroke_Key.backspace	Key.backspace	n/a
261.077	0.075	522154	keystroke_Key.backspace	Key.backspace	n/a
261.7675	0.06	523535	keystroke_y	y	n/a
261.9475	0.105	523895	keystroke_r	r	n/a
262.2325	0.12	524465	keystroke_t	t	n/a
262.4425	0.105	524885	keystroke_l	l	n/a
262.5925	0.09	525185	keystroke_e	e	n/a
262.9825	0.15	525965	keystroke_Key.space	Key.space	n/a
263.418	0.1195	526836	keystroke_b	b	n/a
263.568	0.1495	527136	keystroke_u	u	n/a
263.7325	0.075	527465	keystroke_g	g	n/a
263.8675	0.12	527735	keystroke_s	s	n/a
264.0325	0.105	528065	keystroke_Key.enter	Key.enter	n/a
264.1425	12.1615	528285	prompt	n/a	writings roommate knowledgestorm loss\n
264.9475	0.0745	529895	keystroke_w	w	n/a
265.142	0.105	530284	keystroke_r	r	n/a
265.293	0.119	530586	keystroke_i	i	n/a
265.472	0.1055	530944	keystroke_t	t	n/a
265.5925	0.18	531185	keystroke_i	i	n/a
265.6975	0.15	531395	keystroke_n	n	n/a
265.8175	0.09	531635	keystroke_g	g	n/a
265.9975	0.105	531995	keystroke_s	s	n/a
266.1175	0.135	532235	keystroke_Key.space	Key.space	n/a
266.3725	0.09	532745	keystroke_r	r	n/a
266.5525	0.06	533105	keystroke_o	o	n/a
266.7475	0.09	533495	keystroke_o	o	n/a
266.9425	0.1495	533885	keystroke_m	m	n/a
267.4825	0.105	534965	keystroke_m	m	n/a
267.6625	0.165	535325	keystroke_a	a	n/a
267.8575	0.09	535715	keystroke_t	t	n/a
268.0075	0.09	536015	keystroke_e	e	n/a
268.1425	0.21	536285	keystroke_Key.space	Key.space	n/a
268.3675	0.165	536735	keystroke_k	k	n/a
268.5025	0.21	537005	keystroke_n	n	n/a
268.9675	0.12	537935	keystroke_o	o	n/a
269.7775	0.015	539555	keystroke_w	w	n/a
270.0025	0.135	540005	keystroke_l	l	n/a
270.2725	0.09	540545	keystroke_e	e	n/a
270.5125	0.105	541025	keystroke_d	d	n/a
270.8425	0.105	541685	keystroke_g	g	n/a
271.0825	0.0905	542165	keystroke_e	e	n/a
271.563	0.015	543126	keystroke_s	s	n/a
271.9525	0.12	543905	keystroke_t	t	n/a
272.1325	0.12	544265	keystroke_o	o	n/a
272.3725	0.0755	544745	keystroke_r	r	n/a
272.688	0.15	545376	keystroke_Key.space	Key.space	n/a
272.853	0.105	545706	keystroke_l	l	n/a
273.063	0.135	546126	keystroke_o	o	n/a
273.213	0.075	546426	keystroke_s	s	n/a
273.603	0.12	547206	keystroke_Key.backspace	Key.backspace	n/a
273.798	0.09	547596	keystroke_Key.backspace	Key.backspace	n/a
273.978	0.09	547956	keystroke_Key.backspace	Key.backspace	n/a
274.143	0.09	548286	keystroke_Key.backspace	Key.backspace	n/a
274.458	0.105	548916	keystroke_m	m	n/a
275.313	0.165	550626	keystroke_Key.space	Key.space	n/a
275.478	0.105	550956	keystroke_l	l	n/a
275.658	0.12	551316	keystroke_o	o	n/a
275.808	0.075	551616	keystroke_s	s	n/a
275.973	0.105	551946	keystroke_s	s	n/a
276.183	0.12	552366	keystroke_Key.enter	Key.enter	n/a
276.309	7.0905	552618	prompt	n/a	lexington split multi myers\n
278.058	0.134	556116	keystroke_l	l	n/a
278.267	0.106	556534	keystroke_e	e	n/a
278.492	0.121	556984	keystroke_x	x	n/a
278.658	0.134	557316	keystroke_i	i	n/a
278.762	0.15	557524	keystroke_n	n	n/a
278.882	0.09	557764	keystroke_g	g	n/a
279.092	0.09	558184	keystroke_t	t	n/a
279.197	0.135	558394	keystroke_o	o	n/a
279.272	0.18	558544	keystroke_n	n	n/a
279.437	0.15	558874	keystroke_Key.space	Key.space	n/a
279.752	0.105	559504	keystroke_s	s	n/a
279.873	0.105	559746	keystroke_p	p	n/a
280.022	0.105	560044	keystroke_l	l	n/a
280.172	0.12	560344	keystroke_i	i	n/a
280.307	0.12	560614	keystroke_t	t	n/a
280.412	0.135	560824	keystroke_Key.space	Key.space	n/a
280.6525	0.12	561305	keystroke_m	m	n/a
280.8775	0.135	561755	keystroke_u	u	n/a
281.0575	0.105	562115	keystroke_l	l	n/a
281.3425	0.105	562685	keystroke_t	t	n/a
281.5075	0.12	563015	keystroke_i	i	n/a
281.7325	0.165	563465	keystroke_Key.space	Key.space	n/a
282.3175	0.045	564635	keystroke_m	m	n/a
282.498	0.105	564996	keystroke_y	y	n/a
282.708	0.15	565416	keystroke_e	e	n/a
282.843	0.12	565686	keystroke_r	r	n/a
283.038	0.09	566076	keystroke_s	s	n/a
283.278	0.1195	566556	keystroke_Key.enter	Key.enter	n/a
283.406	7.8685	566812	prompt	n/a	trust telephony letting experiencing\n
284.327	0.121	568654	keystroke_t	t	n/a
284.583	0.09	569166	keystroke_r	r	n/a
284.732	0.15	569464	keystroke_u	u	n/a
284.898	0.12	569796	keystroke_s	s	n/a
284.987	0.1205	569974	keystroke_t	t	n/a
285.1225	0.12	570245	keystroke_Key.space	Key.space	n/a
285.4525	0.09	570905	keystroke_t	t	n/a
285.6025	0.1505	571205	keystroke_e	e	n/a
285.797	0.12	571594	keystroke_l	l	n/a
285.932	0.0905	571864	keystroke_e	e	n/a
286.187	0.12	572374	keystroke_p	p	n/a
286.397	0.12	572794	keystroke_h	h	n/a
286.502	0.12	573004	keystroke_o	o	n/a
286.697	0.135	573394	keystroke_n	n	n/a
287.012	0.12	574024	keystroke_y	y	n/a
287.117	0.165	574234	keystroke_Key.space	Key.space	n/a
287.4775	0.105	574955	keystroke_l	l	n/a
287.6125	0.12	575225	keystroke_e	e	n/a
287.7925	0.075	575585	keystroke_t	t	n/a
287.9575	0.105	575915	keystroke_t	t	n/a
288.0775	0.165	576155	keystroke_i	i	n/a
288.1825	0.15	576365	keystroke_n	n	n/a
288.3175	0.075	576635	keystroke_g	g	n/a
288.4525	0.15	576905	keystroke_Key.space	Key.space	n/a
288.6325	0.09	577265	keystroke_e	e	n/a
288.8875	0.12	577775	keystroke_x	x	n/a
289.1125	0.12	578225	keystroke_p	p	n/a
289.3375	0.15	578675	keystroke_e	e	n/a
289.4725	0.135	578945	keystroke_r	r	n/a
289.6675	0.105	579335	keystroke_i	i	n/a
289.8175	0.105	579635	keystroke_e	e	n/a
290.117	0.12	580234	keystroke_n	n	n/a
290.387	0.09	580774	keystroke_c	c	n/a
290.537	0.18	581074	keystroke_i	i	n/a
290.672	0.18	581344	keystroke_n	n	n/a
290.867	0.09	581734	keystroke_g	g	n/a
291.182	0.0905	582364	keystroke_Key.enter	Key.enter	n/a
291.2775	11.1565	582555	prompt	n/a	sensitivity riverside millennium merry\n
291.9175	0.09	583835	keystroke_s	s	n/a
292.1425	0.09	584285	keystroke_e	e	n/a
292.3075	0.15	584615	keystroke_n	n	n/a
292.4425	0.09	584885	keystroke_s	s	n/a
292.6225	0.12	585245	keystroke_i	i	n/a
292.8025	0.12	585605	keystroke_t	t	n/a
292.9675	0.12	585935	keystroke_i	i	n/a
293.1025	0.105	586205	keystroke_v	v	n/a
293.2375	0.12	586475	keystroke_i	i	n/a
293.3875	0.09	586775	keystroke_t	t	n/a
293.567	0.135	587134	keystroke_y	y	n/a
293.672	0.165	587344	keystroke_Key.space	Key.space	n/a
294.017	0.12	588034	keystroke_r	r	n/a
294.4375	0.105	588875	keystroke_i	i	n/a
294.6775	0.165	589355	keystroke_v	v	n/a
294.8575	0.135	589715	keystroke_e	e	n/a
295.1425	0.105	590285	keystroke_r	r	n/a
295.3825	0.12	590765	keystroke_i	i	n/a
295.8325	0.12	591665	keystroke_s	s	n/a
296.3425	0.09	592685	keystroke_Key.backspace	Key.backspace	n/a
296.5075	0.105	593015	keystroke_Key.backspace	Key.backspace	n/a
296.5975	0.105	593195	keystroke_s	s	n/a
296.7925	0.12	593585	keystroke_i	i	n/a
296.928	0.06	593856	keystroke_d	d	n/a
297.093	0.09	594186	keystroke_e	e	n/a
297.272	0.15	594544	keystroke_Key.space	Key.space	n/a
297.872	0.151	595744	keystroke_m	m	n/a
298.067	0.151	596134	keystroke_i	i	n/a
298.322	0.091	596644	keystroke_l	l	n/a
298.517	0.09	597034	keystroke_l	l	n/a
298.727	0.09	597454	keystroke_e	e	n/a
298.877	0.15	597754	keystroke_n	n	n/a
299.133	0.104	598266	keystroke_n	n	n/a
299.433	0.149	598866	keystroke_u	u	n/a
300.3025	0.12	600605	keystroke_Key.backspace	Key.backspace	n/a
300.5725	0.075	601145	keystroke_i	i	n/a
300.7825	0.09	601565	keystroke_u	u	n/a
301.0075	0.105	602015	keystroke_m	m	n/a
301.1425	0.135	602285	keystroke_Key.space	Key.space	n/a
301.4575	0.12	602915	keystroke_m	m	n/a
301.5925	0.105	603185	keystroke_e	e	n/a
301.8175	0.075	603635	keystroke_r	r	n/a
301.9675	0.105	603935	keystroke_r	r	n/a
302.1025	0.105	604205	keystroke_y	y	n/a
302.342	0.0905	604684	keystroke_Key.enter	Key.enter	n/a
302.437	7.3475	604874	prompt	n/a	pharmacy clinton monetary lots\n
303.1375	0.135	606275	keystroke_p	p	n/a
303.3925	0.12	606785	keystroke_h	h	n/a
303.767	0.135	607534	keystroke_a	a	n/a
304.052	0.075	608104	keystroke_r	r	n/a
304.262	0.135	608524	keystroke_m	m	n/a
304.847	0.105	609694	keystroke_a	a	n/a
305.057	0.105	610114	keystroke_c	c	n/a
305.267	0.15	610534	keystroke_y	y	n/a
305.357	0.165	610714	keystroke_Key.space	Key.space	n/a
305.687	0.105	611374	keystroke_c	c	n/a
305.912	0.105	611824	keystroke_l	l	n/a
306.122	0.105	612244	keystroke_i	i	n/a
306.212	0.135	612424	keystroke_n	n	n/a
306.437	0.105	612874	keystroke_t	t	n/a
306.587	0.15	613174	keystroke_o	o	n/a
306.692	0.135	613384	keystroke_n	n	n/a
306.812	0.135	613624	keystroke_Key.space	Key.space	n/a
307.112	0.12	614224	keystroke_m	m	n/a
307.233	0.134	614466	keystroke_o	o	n/a
307.5475	0.12	615095	keystroke_n	n	n/a
307.7575	0.105	615515	keystroke_e	e	n/a
308.012	0.09	616024	keystroke_t	t	n/a
308.252	0.165	616504	keystroke_a	a	n/a
308.387	0.105	616774	keystroke_r	r	n/a
308.598	0.12	617196	keystroke_y	y	n/a
308.673	0.1495	617346	keystroke_Key.space	Key.space	n/a
308.988	0.075	617976	keystroke_l	l	n/a
309.168	0.09	618336	keystroke_o	o	n/a
309.258	0.09	618516	keystroke_t	t	n/a
309.423	0.105	618846	keystroke_s	s	n/a
309.677	0.105	619354	keystroke_Key.enter	Key.enter	n/a
309.7875	12.1315	619575	prompt	n/a	independently complaint gratuit shoulder\n
310.6675	0.12	621335	keystroke_i	i	n/a
310.7575	0.15	621515	keystroke_n	n	n/a
310.9525	0.075	621905	keystroke_d	d	n/a
311.1475	0.075	622295	keystroke_e	e	n/a
311.2825	0.105	622565	keystroke_p	p	n/a
311.4175	0.09	622835	keystroke_e	e	n/a
311.552	0.091	623104	keystroke_n	n	n/a
311.673	0.059	623346	keystroke_d	d	n/a
311.882	0.061	623764	keystroke_e	e	n/a
312.003	0.089	624006	keystroke_n	n	n/a
312.182	0.075	624364	keystroke_l	l	n/a
312.197	0.075	624394	keystroke_t	t	n/a
312.467	0.15	624934	keystroke_y	y	n/a
312.587	0.135	625174	keystroke_Key.space	Key.space	n/a
313.292	0.105	626584	keystroke_Key.backspace	Key.backspace	n/a
313.487	0.0755	626974	keystroke_Key.backspace	Key.backspace	n/a
313.6675	0.075	627335	keystroke_Key.backspace	Key.backspace	n/a
313.8325	0.075	627665	keystroke_Key.backspace	Key.backspace	n/a
314.0125	0.075	628025	keystroke_t	t	n/a
314.1475	0.105	628295	keystroke_l	l	n/a
314.3125	0.105	628625	keystroke_y	y	n/a
314.5825	0.1195	629165	keystroke_Key.space	Key.space	n/a
315.2125	0.105	630425	keystroke_c	c	n/a
315.3025	0.105	630605	keystroke_o	o	n/a
315.3925	0.18	630785	keystroke_m	m	n/a
315.5275	0.135	631055	keystroke_p	p	n/a
315.9475	0.1195	631895	keystroke_a	a	n/a
316.532	0.12	633064	keystroke_Key.backspace	Key.backspace	n/a
316.787	0.105	633574	keystroke_l	l	n/a
316.9525	0.12	633905	keystroke_a	a	n/a
317.1175	0.12	634235	keystroke_i	i	n/a
317.1925	0.1345	634385	keystroke_n	n	n/a
317.312	0.105	634624	keystroke_t	t	n/a
317.507	0.12	635014	keystroke_Key.space	Key.space	n/a
318.212	0.105	636424	keystroke_g	g	n/a
318.7525	0.09	637505	keystroke_r	r	n/a
318.9325	0.09	637865	keystroke_a	a	n/a
319.1575	0.105	638315	keystroke_t	t	n/a
319.3975	0.165	638795	keystroke_u	u	n/a
319.5325	0.15	639065	keystroke_i	i	n/a
319.6975	0.09	639395	keystroke_t	t	n/a
319.8025	0.15	639605	keystroke_Key.space	Key.space	n/a
320.0725	0.105	640145	keystroke_s	s	n/a
320.1785	0.119	640357	keystroke_h	h	n/a
320.2825	0.165	640565	keystroke_o	o	n/a
320.5075	0.135	641015	keystroke_u	u	n/a
320.9425	0.075	641885	keystroke_l	l	n/a
321.1375	0.09	642275	keystroke_d	d	n/a
321.4225	0.18	642845	keystroke_e	e	n/a
321.5575	0.12	643115	keystroke_r	r	n/a
321.8275	0.09	643655	keystroke_Key.enter	Key.enter	n/a
321.923	8.411	643846	prompt	n/a	stopped surgeons nonprofit viruses\n
322.803	0.119	645606	keystroke_s	s	n/a
322.967	0.1205	645934	keystroke_t	t	n/a
323.1175	0.105	646235	keystroke_o	o	n/a
323.2825	0.105	646565	keystroke_p	p	n/a
323.4475	0.1195	646895	keystroke_p	p	n/a
323.5225	0.0745	647045	keystroke_e	e	n/a
323.687	0.09	647374	keystroke_d	d	n/a
323.807	0.1355	647614	keystroke_Key.space	Key.space	n/a
324.0925	0.09	648185	keystroke_s	s	n/a
324.2425	0.135	648485	keystroke_u	u	n/a
324.4225	0.09	648845	keystroke_r	r	n/a
324.7675	0.09	649535	keystroke_g	g	n/a
324.9175	0.09	649835	keystroke_e	e	n/a
325.1275	0.075	650255	keystroke_i	i	n/a
325.1875	0.18	650375	keystroke_o	o	n/a
325.3075	0.135	650615	keystroke_n	n	n/a
325.4575	0.105	650915	keystroke_s	s	n/a
325.6075	0.105	651215	keystroke_Key.space	Key.space	n/a
325.7875	0.12	651575	keystroke_n	n	n/a
325.8775	0.12	651755	keystroke_o	o	n/a
326.0425	0.12	652085	keystroke_n	n	n/a
326.2975	0.135	652595	keystroke_p	p	n/a
326.5075	0.09	653015	keystroke_r	r	n/a
326.6575	0.12	653315	keystroke_o	o	n/a
327.2425	0.06	654485	keystroke_i	i	n/a
327.3475	0.1055	654695	keystroke_f	f	n/a
327.722	0.105	655444	keystroke_Key.backspace	Key.backspace	n/a
327.887	0.0905	655774	keystroke_Key.backspace	Key.backspace	n/a
327.9475	0.105	655895	keystroke_f	f	n/a
328.1275	0.075	656255	keystroke_i	i	n/a
328.2475	0.0745	656495	keystroke_t	t	n/a
328.352	0.15	656704	keystroke_Key.space	Key.space	n/a
328.592	0.105	657184	keystroke_v	v	n/a
328.727	0.135	657454	keystroke_i	i	n/a
328.922	0.105	657844	keystroke_r	r	n/a
329.072	0.15	658144	keystroke_u	u	n/a
329.2675	0.075	658535	keystroke_s	s	n/a
329.777	0.075	659554	keystroke_e	e	n/a
329.942	0.105	659884	keystroke_s	s	n/a
330.227	0.105	660454	keystroke_Key.enter	Key.enter	n/a
330.337	10.7215	660674	prompt	n/a	boundary marking individually permissions\n
331.307	0.105	662614	keystroke_b	b	n/a
331.487	0.135	662974	keystroke_o	o	n/a
331.607	0.105	663214	keystroke_u	u	n/a
331.817	0.105	663634	keystroke_n	n	n/a
331.937	0.105	663874	keystroke_d	d	n/a
332.267	0.135	664534	keystroke_a	a	n/a
332.582	0.12	665164	keystroke_r	r	n/a
332.822	0.135	665644	keystroke_y	y	n/a
332.897	0.15	665794	keystroke_Key.space	Key.space	n/a
333.2575	0.135	666515	keystroke_m	m	n/a
333.4075	0.12	666815	keystroke_a	a	n/a
333.557	0.136	667114	keystroke_r	r	n/a
333.842	0.105	667684	keystroke_k	k	n/a
334.083	0.165	668166	keystroke_i	i	n/a
334.188	0.179	668376	keystroke_n	n	n/a
334.382	0.09	668764	keystroke_g	g	n/a
334.532	0.135	669064	keystroke_Key.space	Key.space	n/a
335.0125	0.1345	670025	keystroke_i	i	n/a
335.102	0.1655	670204	keystroke_n	n	n/a
335.4175	0.105	670835	keystroke_d	d	n/a
335.5825	0.12	671165	keystroke_i	i	n/a
335.7775	0.135	671555	keystroke_v	v	n/a
335.9275	0.12	671855	keystroke_i	i	n/a
336.1825	0.1045	672365	keystroke_d	d	n/a
336.422	0.15	672844	keystroke_u	u	n/a
336.647	0.09	673294	keystroke_a	a	n/a
337.322	0.09	674644	keystroke_l	l	n/a
337.547	0.09	675094	keystroke_l	l	n/a
337.832	0.135	675664	keystroke_y	y	n/a
337.937	0.165	675874	keystroke_Key.space	Key.space	n/a
338.507	0.15	677014	keystroke_p	p	n/a
338.717	0.18	677434	keystroke_e	e	n/a
338.852	0.135	677704	keystroke_r	r	n/a
339.092	0.1655	678184	keystroke_m	m	n/a
339.2125	0.12	678425	keystroke_i	i	n/a
339.737	0.0905	679474	keystroke_s	s	n/a
339.9175	0.09	679835	keystroke_s	s	n/a
340.0525	0.12	680105	keystroke_i	i	n/a
340.1425	0.105	680285	keystroke_o	o	n/a
340.2025	0.165	680405	keystroke_n	n	n/a
340.622	0.075	681244	keystroke_s	s	n/a
340.952	0.105	681904	keystroke_Key.enter	Key.enter	n/a
341.0615	8.5325	682123	prompt	n/a	beneficial preference perform stars\n
341.777	0.105	683554	keystroke_b	b	n/a
342.0025	0.09	684005	keystroke_e	e	n/a
342.1825	0.12	684365	keystroke_n	n	n/a
342.4225	0.105	684845	keystroke_e	e	n/a
342.7675	0.105	685535	keystroke_f	f	n/a
342.9925	0.12	685985	keystroke_i	i	n/a
343.2325	0.135	686465	keystroke_c	c	n/a
343.3975	0.15	686795	keystroke_i	i	n/a
343.7875	0.12	687575	keystroke_a	a	n/a
343.9225	0.18	687845	keystroke_l	l	n/a
344.0575	0.15	688115	keystroke_Key.space	Key.space	n/a
344.3875	0.135	688775	keystroke_p	p	n/a
344.8225	0.12	689645	keystroke_r	r	n/a
344.9275	0.12	689855	keystroke_e	e	n/a
345.1225	0.135	690245	keystroke_f	f	n/a
345.3025	0.135	690605	keystroke_e	e	n/a
345.4225	0.1495	690845	keystroke_r	r	n/a
345.557	0.075	691114	keystroke_e	e	n/a
345.647	0.12	691294	keystroke_n	n	n/a
345.812	0.075	691624	keystroke_c	c	n/a
346.007	0.09	692014	keystroke_e	e	n/a
346.112	0.15	692224	keystroke_Key.space	Key.space	n/a
346.292	0.15	692584	keystroke_p	p	n/a
346.472	0.12	692944	keystroke_e	e	n/a
346.562	0.105	693124	keystroke_r	r	n/a
346.757	0.09	693514	keystroke_f	f	n/a
346.9225	0.09	693845	keystroke_o	o	n/a
347.3275	0.105	694655	keystroke_r	r	n/a
347.567	0.165	695134	keystroke_m	m	n/a
347.687	0.105	695374	keystroke_Key.space	Key.space	n/a
348.152	0.1205	696304	keystroke_s	s	n/a
348.3175	0.105	696635	keystroke_t	t	n/a
348.7075	0.2095	697415	keystroke_a	a	n/a
348.977	0.15	697954	keystroke_r	r	n/a
349.2625	0.09	698525	keystroke_s	s	n/a
349.5025	0.09	699005	keystroke_Key.enter	Key.enter	n/a
349.5965	4.9175	699193	prompt	n/a	duty server glory mounted\n
350.2375	0.12	700475	keystroke_d	d	n/a
350.4325	0.12	700865	keystroke_u	u	n/a
350.5675	0.105	701135	keystroke_t	t	n/a
350.7325	0.105	701465	keystroke_y	y	n/a
350.8075	0.135	701615	keystroke_Key.space	Key.space	n/a
350.9725	0.135	701945	keystroke_s	s	n/a
351.0925	0.135	702185	keystroke_e	e	n/a
351.1825	0.12	702365	keystroke_r	r	n/a
351.4225	0.09	702845	keystroke_v	v	n/a
351.602	0.105	703204	keystroke_e	e	n/a
351.677	0.105	703354	keystroke_r	r	n/a
351.797	0.135	703594	keystroke_Key.space	Key.space	n/a
352.262	0.075	704524	keystroke_g	g	n/a
352.382	0.09	704764	keystroke_l	l	n/a
352.577	0.105	705154	keystroke_o	o	n/a
352.712	0.105	705424	keystroke_r	r	n/a
352.907	0.1205	705814	keystroke_y	y	n/a
352.982	0.15	705964	keystroke_Key.space	Key.space	n/a
353.297	0.12	706594	keystroke_m	m	n/a
353.447	0.135	706894	keystroke_o	o	n/a
353.612	0.09	707224	keystroke_u	u	n/a
353.807	0.1055	707614	keystroke_n	n	n/a
353.8975	0.12	707795	keystroke_t	t	n/a
354.0325	0.06	708065	keystroke_e	e	n/a
354.2275	0.09	708455	keystroke_d	d	n/a
354.4225	0.09	708845	keystroke_Key.enter	Key.enter	n/a
354.5165	5.6225	709033	prompt	n/a	joins answering layout group\n
355.1275	0.1195	710255	keystroke_j	j	n/a
355.262	0.105	710524	keystroke_o	o	n/a
355.382	0.135	710764	keystroke_i	i	n/a
355.472	0.15	710944	keystroke_n	n	n/a
355.607	0.0905	711214	keystroke_s	s	n/a
355.7275	0.135	711455	keystroke_Key.space	Key.space	n/a
355.9225	0.12	711845	keystroke_a	a	n/a
356.0425	0.12	712085	keystroke_n	n	n/a
356.1925	0.09	712385	keystroke_s	s	n/a
356.4025	0.09	712805	keystroke_w	w	n/a
356.5525	0.12	713105	keystroke_e	e	n/a
356.6425	0.12	713285	keystroke_r	r	n/a
356.7925	0.135	713585	keystroke_i	i	n/a
356.8675	0.135	713735	keystroke_n	n	n/a
356.9875	0.09	713975	keystroke_g	g	n/a
357.1075	0.119	714215	keystroke_Key.space	Key.space	n/a
357.437	0.15	714874	keystroke_l	l	n/a
357.767	0.09	715534	keystroke_a	a	n/a
358.052	0.12	716104	keystroke_y	y	n/a
358.247	0.18	716494	keystroke_o	o	n/a
358.352	0.135	716704	keystroke_u	u	n/a
358.547	0.135	717094	keystroke_t	t	n/a
358.742	0.165	717484	keystroke_Key.space	Key.space	n/a
359.2525	0.09	718505	keystroke_g	g	n/a
359.4475	0.105	718895	keystroke_r	r	n/a
359.5675	0.195	719135	keystroke_o	o	n/a
359.6725	0.12	719345	keystroke_u	u	n/a
359.7475	0.165	719495	keystroke_p	p	n/a
360.0325	0.105	720065	keystroke_Key.enter	Key.enter	n/a
360.142	7.767	720284	prompt	n/a	equal outstanding plane engaged\n
360.9925	0.135	721985	keystroke_e	e	n/a
361.1725	0.12	722345	keystroke_q	q	n/a
361.3675	0.15	722735	keystroke_u	u	n/a
362.072	0.1355	724144	keystroke_a	a	n/a
362.282	0.1505	724564	keystroke_l	l	n/a
362.3875	0.15	724775	keystroke_Key.space	Key.space	n/a
362.6875	0.135	725375	keystroke_o	o	n/a
362.7925	0.12	725585	keystroke_u	u	n/a
363.3175	0.12	726635	keystroke_t	t	n/a
363.572	0.1355	727144	keystroke_s	s	n/a
363.7975	0.12	727595	keystroke_t	t	n/a
363.9775	0.12	727955	keystroke_a	a	n/a
364.1125	0.119	728225	keystroke_n	n	n/a
364.2775	0.135	728555	keystroke_d	d	n/a
364.4275	0.18	728855	keystroke_i	i	n/a
364.5325	0.165	729065	keystroke_n	n	n/a
364.7125	0.06	729425	keystroke_g	g	n/a
364.8615	0.136	729723	keystroke_Key.space	Key.space	n/a
365.5225	0.105	731045	keystroke_p	p	n/a
365.7025	0.135	731405	keystroke_l	l	n/a
365.7925	0.12	731585	keystroke_a	a	n/a
365.9575	0.105	731915	keystroke_n	n	n/a
366.1075	0.09	732215	keystroke_e	e	n/a
366.2125	0.135	732425	keystroke_Key.space	Key.space	n/a
366.467	0.075	732934	keystroke_e	e	n/a
366.587	0.075	733174	keystroke_n	n	n/a
366.902	0.09	733804	keystroke_g	g	n/a
367.097	0.18	734194	keystroke_a	a	n/a
367.247	0.105	734494	keystroke_g	g	n/a
367.397	0.0905	734794	keystroke_e	e	n/a
367.5925	0.09	735185	keystroke_d	d	n/a
367.8025	0.105	735605	keystroke_Key.enter	Key.enter	n/a
367.912	6.192	735824	prompt	n/a	list repair symptoms topics\n
368.5675	0.09	737135	keystroke_l	l	n/a
368.7325	0.12	737465	keystroke_i	i	n/a
368.8225	0.195	737645	keystroke_s	s	n/a
368.9875	0.105	737975	keystroke_t	t	n/a
369.1075	0.135	738215	keystroke_Key.space	Key.space	n/a
369.2725	0.15	738545	keystroke_r	r	n/a
369.4225	0.075	738845	keystroke_e	e	n/a
369.572	0.135	739144	keystroke_p	p	n/a
369.782	0.15	739564	keystroke_a	a	n/a
370.037	0.12	740074	keystroke_i	i	n/a
370.202	0.09	740404	keystroke_r	r	n/a
370.397	0.12	740794	keystroke_Key.space	Key.space	n/a
370.8325	0.09	741665	keystroke_s	s	n/a
370.9665	0.121	741933	keystroke_y	y	n/a
371.2375	0.18	742475	keystroke_m	m	n/a
371.3875	0.15	742775	keystroke_p	p	n/a
371.6875	0.135	743375	keystroke_t	t	n/a
371.9425	0.135	743885	keystroke_o	o	n/a
372.1225	0.135	744245	keystroke_m	m	n/a
372.3475	0.104	744695	keystroke_s	s	n/a
372.5265	0.12	745053	keystroke_Key.space	Key.space	n/a
372.9315	0.105	745863	keystroke_t	t	n/a
373.0375	0.135	746075	keystroke_o	o	n/a
373.1415	0.135	746283	keystroke_p	p	n/a
373.3525	0.119	746705	keystroke_i	i	n/a
373.4725	0.0895	746945	keystroke_c	c	n/a
373.682	0.075	747364	keystroke_e	e	n/a
373.817	0.09	747634	keystroke_s	s	n/a
373.997	0.105	747994	keystroke_Key.enter	Key.enter	n/a
374.108	7.271	748216	prompt	n/a	prairie game hacker disorder\n
375.107	0.135	750214	keystroke_p	p	n/a
375.347	0.12	750694	keystroke_r	r	n/a
375.617	0.09	751234	keystroke_a	a	n/a
375.857	0.1645	751714	keystroke_i	i	n/a
376.1265	0.09	752253	keystroke_r	r	n/a
376.2915	0.15	752583	keystroke_i	i	n/a
376.5165	0.09	753033	keystroke_e	e	n/a
376.6815	0.135	753363	keystroke_Key.space	Key.space	n/a
377.4765	0.091	754953	keystroke_g	g	n/a
377.5965	0.135	755193	keystroke_a	a	n/a
377.7165	0.135	755433	keystroke_m	m	n/a
377.8215	0.09	755643	keystroke_e	e	n/a
377.972	0.105	755944	keystroke_Key.space	Key.space	n/a
378.302	0.105	756604	keystroke_h	h	n/a
378.392	0.105	756784	keystroke_a	a	n/a
378.662	0.075	757324	keystroke_c	c	n/a
378.752	0.121	757504	keystroke_k	k	n/a
378.902	0.12	757804	keystroke_e	e	n/a
379.007	0.135	758014	keystroke_r	r	n/a
379.157	0.135	758314	keystroke_Key.space	Key.space	n/a
379.397	0.0895	758794	keystroke_d	d	n/a
379.5165	0.0905	759033	keystroke_i	i	n/a
380.072	0.09	760144	keystroke_s	s	n/a
380.267	0.106	760534	keystroke_o	o	n/a
380.522	0.105	761044	keystroke_r	r	n/a
380.762	0.075	761524	keystroke_d	d	n/a
380.957	0.09	761914	keystroke_e	e	n/a
381.017	0.12	762034	keystroke_r	r	n/a
381.257	0.12	762514	keystroke_Key.enter	Key.enter	n/a
381.3815	6.612	762763	prompt	n/a	pasta distributors lose loans\n
382.0975	0.12	764195	keystroke_p	p	n/a
382.2325	0.135	764465	keystroke_a	a	n/a
382.3825	0.15	764765	keystroke_s	s	n/a
382.5475	0.09	765095	keystroke_t	t	n/a
382.7125	0.12	765425	keystroke_a	a	n/a
382.8625	0.135	765725	keystroke_Key.space	Key.space	n/a
383.2975	0.045	766595	keystroke_d	d	n/a
383.3575	0.135	766715	keystroke_i	i	n/a
383.5525	0.105	767105	keystroke_s	s	n/a
383.8525	0.09	767705	keystroke_t	t	n/a
384.0475	0.09	768095	keystroke_r	r	n/a
384.182	0.105	768364	keystroke_i	i	n/a
384.362	0.12	768724	keystroke_b	b	n/a
384.527	0.12	769054	keystroke_u	u	n/a
384.707	0.09	769414	keystroke_t	t	n/a
385.007	0.12	770014	keystroke_i	i	n/a
385.5315	0.091	771063	keystroke_Key.backspace	Key.backspace	n/a
385.757	0.105	771514	keystroke_o	o	n/a
385.922	0.09	771844	keystroke_r	r	n/a
386.117	0.09	772234	keystroke_s	s	n/a
386.222	0.135	772444	keystroke_Key.space	Key.space	n/a
386.372	0.075	772744	keystroke_l	l	n/a
386.522	0.1205	773044	keystroke_o	o	n/a
386.6125	0.135	773225	keystroke_s	s	n/a
386.7175	0.105	773435	keystroke_e	e	n/a
386.8525	0.15	773705	keystroke_Key.space	Key.space	n/a
386.9875	0.075	773975	keystroke_l	l	n/a
387.1375	0.105	774275	keystroke_o	o	n/a
387.2875	0.134	774575	keystroke_a	a	n/a
387.4375	0.12	774875	keystroke_n	n	n/a
387.6165	0.106	775233	keystroke_s	s	n/a
387.8865	0.105	775773	keystroke_Key.enter	Key.enter	n/a
387.997	6.777	775994	prompt	n/a	week executives alien legitimate\n
388.6365	0.075	777273	keystroke_w	w	n/a
388.7875	0.075	777575	keystroke_e	e	n/a
388.9515	0.09	777903	keystroke_e	e	n/a
389.0575	0.149	778115	keystroke_k	k	n/a
389.1765	0.15	778353	keystroke_Key.space	Key.space	n/a
389.522	0.106	779044	keystroke_e	e	n/a
389.747	0.135	779494	keystroke_x	x	n/a
389.942	0.105	779884	keystroke_e	e	n/a
390.212	0.0905	780424	keystroke_c	c	n/a
390.4675	0.135	780935	keystroke_u	u	n/a
390.5875	0.12	781175	keystroke_t	t	n/a
390.7525	0.135	781505	keystroke_i	i	n/a
390.9025	0.1495	781805	keystroke_v	v	n/a
391.022	0.105	782044	keystroke_e	e	n/a
391.172	0.12	782344	keystroke_s	s	n/a
391.307	0.1505	782614	keystroke_Key.space	Key.space	n/a
391.5775	0.12	783155	keystroke_a	a	n/a
391.7265	0.091	783453	keystroke_l	l	n/a
391.8775	0.119	783755	keystroke_i	i	n/a
392.0725	0.105	784145	keystroke_e	e	n/a
392.2375	0.105	784475	keystroke_n	n	n/a
392.3125	0.149	784625	keystroke_Key.space	Key.space	n/a
392.5965	0.106	785193	keystroke_l	l	n/a
392.7325	0.089	785465	keystroke_e	e	n/a
392.9565	0.106	785913	keystroke_g	g	n/a
393.1515	0.135	786303	keystroke_i	i	n/a
393.3775	0.1195	786755	keystroke_t	t	n/a
393.827	0.135	787654	keystroke_i	i	n/a
394.052	0.135	788104	keystroke_m	m	n/a
394.217	0.135	788434	keystroke_a	a	n/a
394.322	0.135	788644	keystroke_t	t	n/a
394.472	0.075	788944	keystroke_e	e	n/a
394.682	0.09	789364	keystroke_Key.enter	Key.enter	n/a
394.7785	5.98	789557	prompt	n/a	ruby scanned appreciated tours\n
395.537	0.0755	791074	keystroke_r	r	n/a
395.7175	0.12	791435	keystroke_u	u	n/a
395.9125	0.09	791825	keystroke_b	b	n/a
396.0475	0.135	792095	keystroke_y	y	n/a
396.1525	0.135	792305	keystroke_Key.space	Key.space	n/a
396.3925	0.0895	792785	keystroke_s	s	n/a
396.617	0.09	793234	keystroke_c	c	n/a
396.737	0.105	793474	keystroke_a	a	n/a
396.887	0.105	793774	keystroke_n	n	n/a
397.067	0.1205	794134	keystroke_n	n	n/a
397.2025	0.06	794405	keystroke_e	e	n/a
397.3525	0.09	794705	keystroke_d	d	n/a
397.5025	0.135	795005	keystroke_Key.space	Key.space	n/a
397.7865	0.1205	795573	keystroke_a	a	n/a
397.952	0.09	795904	keystroke_p	p	n/a
398.117	0.12	796234	keystroke_p	p	n/a
398.312	0.105	796624	keystroke_r	r	n/a
398.522	0.09	797044	keystroke_e	e	n/a
398.882	0.105	797764	keystroke_c	c	n/a
399.017	0.105	798034	keystroke_i	i	n/a
399.227	0.15	798454	keystroke_a	a	n/a
399.362	0.12	798724	keystroke_t	t	n/a
399.467	0.075	798934	keystroke_e	e	n/a
399.662	0.075	799324	keystroke_d	d	n/a
399.752	0.15	799504	keystroke_Key.space	Key.space	n/a
400.007	0.075	800014	keystroke_t	t	n/a
400.112	0.15	800224	keystroke_o	o	n/a
400.232	0.15	800464	keystroke_u	u	n/a
400.322	0.09	800644	keystroke_r	r	n/a
400.472	0.0905	800944	keystroke_s	s	n/a
400.6525	0.105	801305	keystroke_Key.enter	Key.enter	n/a
400.7615	9.372	801523	prompt	n/a	appointments information guru list\n
401.4175	0.135	802835	keystroke_a	a	n/a
401.5825	0.09	803165	keystroke_p	p	n/a
401.7325	0.15	803465	keystroke_p	p	n/a
401.942	0.075	803884	keystroke_o	o	n/a
402.302	0.225	804604	keystroke_i	i	n/a
402.467	0.165	804934	keystroke_n	n	n/a
402.692	0.075	805384	keystroke_t	t	n/a
403.052	0.075	806104	keystroke_e	e	n/a
403.172	0.105	806344	keystroke_m	m	n/a
403.577	0.09	807154	keystroke_n	n	n/a
403.862	0.09	807724	keystroke_Key.backspace	Key.backspace	n/a
404.042	0.075	808084	keystroke_Key.backspace	Key.backspace	n/a
404.222	0.075	808444	keystroke_Key.backspace	Key.backspace	n/a
404.462	0.105	808924	keystroke_m	m	n/a
404.582	0.0755	809164	keystroke_e	e	n/a
404.7175	0.105	809435	keystroke_n	n	n/a
404.8225	0.09	809645	keystroke_t	t	n/a
405.0325	0.09	810065	keystroke_s	s	n/a
405.2275	0.12	810455	keystroke_Key.space	Key.space	n/a
405.5125	0.105	811025	keystroke_i	i	n/a
405.7075	0.09	811415	keystroke_f	f	n/a
406.0975	0.104	812195	keystroke_Key.backspace	Key.backspace	n/a
406.3375	0.09	812675	keystroke_n	n	n/a
406.4575	0.09	812915	keystroke_f	f	n/a
406.5625	0.105	813125	keystroke_o	o	n/a
406.6825	0.105	813365	keystroke_r	r	n/a
406.7275	0.12	813455	keystroke_m	m	n/a
406.9225	0.12	813845	keystroke_a	a	n/a
406.9975	0.12	813995	keystroke_t	t	n/a
407.1025	0.105	814205	keystroke_i	i	n/a
407.1625	0.15	814325	keystroke_o	o	n/a
407.2225	0.15	814445	keystroke_n	n	n/a
407.3575	0.135	814715	keystroke_Key.space	Key.space	n/a
408.197	0.0895	816394	keystroke_g	g	n/a
408.3165	0.121	816633	keystroke_u	u	n/a
408.6025	0.1195	817205	keystroke_r	r	n/a
408.692	0.105	817384	keystroke_u	u	n/a
408.872	0.165	817744	keystroke_Key.space	Key.space	n/a
409.022	0.135	818044	keystroke_l	l	n/a
409.652	0.12	819304	keystroke_i	i	n/a
409.787	0.15	819574	keystroke_s	s	n/a
409.8925	0.1045	819785	keystroke_t	t	n/a
410.042	0.09	820084	keystroke_Key.enter	Key.enter	n/a
410.1375	9.746	820275	prompt	n/a	demonstrates phpbb manhattan evaluating\n
410.8815	0.06	821763	keystroke_d	d	n/a
411.0615	0.076	822123	keystroke_e	e	n/a
411.1675	0.12	822335	keystroke_m	m	n/a
411.2565	0.135	822513	keystroke_o	o	n/a
411.4065	0.135	822813	keystroke_n	n	n/a
411.602	0.165	823204	keystroke_s	s	n/a
411.752	0.1045	823504	keystroke_t	t	n/a
411.9315	0.15	823863	keystroke_r	r	n/a
412.2615	0.135	824523	keystroke_t	t	n/a
412.7565	0.12	825513	keystroke_Key.backspace	Key.backspace	n/a
412.8915	0.135	825783	keystroke_a	a	n/a
412.9815	0.12	825963	keystroke_t	t	n/a
413.2065	0.075	826413	keystroke_e	e	n/a
413.4465	0.075	826893	keystroke_s	s	n/a
413.582	0.15	827164	keystroke_Key.space	Key.space	n/a
414.512	0.1355	829024	keystroke_p	p	n/a
414.8125	0.15	829625	keystroke_h	h	n/a
415.2625	0.136	830525	keystroke_p	p	n/a
415.5325	0.105	831065	keystroke_b	b	n/a
415.7275	0.105	831455	keystroke_b	b	n/a
415.9375	0.12	831875	keystroke_Key.space	Key.space	n/a
416.2525	0.135	832505	keystroke_m	m	n/a
416.3725	0.105	832745	keystroke_a	a	n/a
416.5225	0.09	833045	keystroke_n	n	n/a
416.7475	0.1195	833495	keystroke_h	h	n/a
416.8825	0.105	833765	keystroke_a	a	n/a
417.0775	0.09	834155	keystroke_t	t	n/a
417.257	0.075	834514	keystroke_t	t	n/a
417.407	0.12	834814	keystroke_a	a	n/a
417.542	0.1355	835084	keystroke_n	n	n/a
417.6465	0.136	835293	keystroke_Key.space	Key.space	n/a
417.8725	0.12	835745	keystroke_e	e	n/a
418.127	0.105	836254	keystroke_v	v	n/a
418.277	0.105	836554	keystroke_a	a	n/a
418.502	0.1805	837004	keystroke_l	l	n/a
418.6665	0.15	837333	keystroke_u	u	n/a
418.8765	0.211	837753	keystroke_a	a	n/a
419.0565	0.121	838113	keystroke_t	t	n/a
419.1925	0.1645	838385	keystroke_i	i	n/a
419.327	0.135	838654	keystroke_n	n	n/a
419.552	0.0605	839104	keystroke_g	g	n/a
419.7765	0.105	839553	keystroke_Key.enter	Key.enter	n/a
419.887	8.2165	839774	prompt	n/a	fresh mysql finding warriors\n
420.677	0.09	841354	keystroke_f	f	n/a
420.932	0.1195	841864	keystroke_r	r	n/a
421.0665	0.12	842133	keystroke_e	e	n/a
421.3065	0.105	842613	keystroke_s	s	n/a
421.4725	0.134	842945	keystroke_h	h	n/a
421.5765	0.15	843153	keystroke_Key.space	Key.space	n/a
422.297	0.1045	844594	keystroke_m	m	n/a
422.5515	0.12	845103	keystroke_y	y	n/a
422.7015	0.1055	845403	keystroke_s	s	n/a
423.077	0.12	846154	keystroke_q	q	n/a
423.8275	0.105	847655	keystroke_l	l	n/a
424.0525	0.12	848105	keystroke_Key.space	Key.space	n/a
424.3825	0.105	848765	keystroke_f	f	n/a
424.5175	0.15	849035	keystroke_i	i	n/a
424.6225	0.135	849245	keystroke_n	n	n/a
424.8025	0.105	849605	keystroke_d	d	n/a
424.9525	0.09	849905	keystroke_i	i	n/a
424.9825	0.15	849965	keystroke_n	n	n/a
425.1025	0.09	850205	keystroke_g	g	n/a
425.2075	0.165	850415	keystroke_Key.space	Key.space	n/a
425.4475	0.135	850895	keystroke_w	w	n/a
425.7775	0.15	851555	keystroke_a	a	n/a
426.0175	0.075	852035	keystroke_r	r	n/a
426.1825	0.09	852365	keystroke_r	r	n/a
426.2875	0.135	852575	keystroke_i	i	n/a
426.4975	0.045	852995	keystroke_r	r	n/a
426.6325	0.12	853265	keystroke_o	o	n/a
427.2025	0.105	854405	keystroke_Key.backspace	Key.backspace	n/a
427.3665	0.091	854733	keystroke_Key.backspace	Key.backspace	n/a
427.592	0.105	855184	keystroke_o	o	n/a
427.682	0.09	855364	keystroke_r	r	n/a
427.847	0.09	855694	keystroke_s	s	n/a
427.997	0.105	855994	keystroke_Key.enter	Key.enter	n/a
428.1065	9.6725	856213	prompt	n/a	french tommy matching title\n
430.6535	0.044	861307	keystroke_f	f	n/a
430.907	0.105	861814	keystroke_r	r	n/a
431.102	0.105	862204	keystroke_e	e	n/a
431.342	0.135	862684	keystroke_n	n	n/a
431.642	0.105	863284	keystroke_c	c	n/a
432.182	0.045	864364	keystroke_e	e	n/a
432.707	0.12	865414	keystroke_Key.backspace	Key.backspace	n/a
432.962	0.135	865924	keystroke_h	h	n/a
433.082	0.15	866164	keystroke_Key.space	Key.space	n/a
433.352	0.105	866704	keystroke_t	t	n/a
433.472	0.0745	866944	keystroke_o	o	n/a
433.532	0.105	867064	keystroke_m	m	n/a
433.712	0.105	867424	keystroke_m	m	n/a
433.952	0.135	867904	keystroke_y	y	n/a
434.042	0.165	868084	keystroke_Key.space	Key.space	n/a
434.3565	0.121	868713	keystroke_m	m	n/a
434.5075	0.134	869015	keystroke_a	a	n/a
434.6575	0.119	869315	keystroke_t	t	n/a
435.1375	0.12	870275	keystroke_h	h	n/a
435.5565	0.105	871113	keystroke_Key.backspace	Key.backspace	n/a
435.6775	0.089	871355	keystroke_c	c	n/a
435.8275	0.09	871655	keystroke_h	h	n/a
435.9015	0.165	871803	keystroke_i	i	n/a
436.0215	0.135	872043	keystroke_n	n	n/a
436.0965	0.09	872193	keystroke_g	g	n/a
436.2165	0.15	872433	keystroke_Key.space	Key.space	n/a
436.3815	0.061	872763	keystroke_l	l	n/a
436.727	0.09	873454	keystroke_Key.backspace	Key.backspace	n/a
436.892	0.105	873784	keystroke_t	t	n/a
437.012	0.105	874024	keystroke_i	i	n/a
437.207	0.12	874414	keystroke_t	t	n/a
437.357	0.105	874714	keystroke_l	l	n/a
437.492	0.0745	874984	keystroke_e	e	n/a
437.6715	0.105	875343	keystroke_Key.enter	Key.enter	n/a
437.783	7.4055	875566	prompt	n/a	coverage trembl lazy makeup\n
438.4815	0.105	876963	keystroke_c	c	n/a
438.5415	0.1355	877083	keystroke_o	o	n/a
438.707	0.105	877414	keystroke_v	v	n/a
438.872	0.135	877744	keystroke_e	e	n/a
438.992	0.105	877984	keystroke_r	r	n/a
439.172	0.105	878344	keystroke_a	a	n/a
439.277	0.12	878554	keystroke_g	g	n/a
439.382	0.105	878764	keystroke_e	e	n/a
439.547	0.165	879094	keystroke_Key.space	Key.space	n/a
440.012	0.1045	880024	keystroke_t	t	n/a
440.2515	0.105	880503	keystroke_r	r	n/a
440.4015	0.09	880803	keystroke_e	e	n/a
440.5965	0.135	881193	keystroke_m	m	n/a
440.8375	0.089	881675	keystroke_b	b	n/a
441.0165	0.12	882033	keystroke_l	l	n/a
441.512	0.09	883024	keystroke_Key.space	Key.space	n/a
441.737	0.105	883474	keystroke_l	l	n/a
441.917	0.105	883834	keystroke_a	a	n/a
442.172	0.105	884344	keystroke_z	z	n/a
442.382	0.15	884764	keystroke_y	y	n/a
442.487	0.15	884974	keystroke_Key.space	Key.space	n/a
442.802	0.105	885604	keystroke_m	m	n/a
442.922	0.12	885844	keystroke_a	a	n/a
443.267	0.09	886534	keystroke_e	e	n/a
443.5525	0.18	887105	keystroke_u	u	n/a
444.0475	0.09	888095	keystroke_Key.backspace	Key.backspace	n/a
444.212	0.105	888424	keystroke_Key.backspace	Key.backspace	n/a
444.452	0.09	888904	keystroke_k	k	n/a
444.557	0.09	889114	keystroke_e	e	n/a
444.692	0.135	889384	keystroke_u	u	n/a
444.797	0.12	889594	keystroke_p	p	n/a
445.097	0.09	890194	keystroke_Key.enter	Key.enter	n/a
445.192	9.3265	890384	prompt	n/a	instruments celebs variance alert\n
446.027	0.18	892054	keystroke_i	i	n/a
446.162	0.165	892324	keystroke_n	n	n/a
446.342	0.15	892684	keystroke_s	s	n/a
446.477	0.09	892954	keystroke_t	t	n/a
446.657	0.105	893314	keystroke_r	r	n/a
446.837	0.15	893674	keystroke_u	u	n/a
447.077	0.105	894154	keystroke_c	c	n/a
447.812	0.105	895624	keystroke_Key.backspace	Key.backspace	n/a
448.112	0.1205	896224	keystroke_m	m	n/a
448.2775	0.105	896555	keystroke_e	e	n/a
448.4275	0.12	896855	keystroke_n	n	n/a
448.5775	0.045	897155	keystroke_t	t	n/a
448.6675	0.1045	897335	keystroke_s	s	n/a
448.787	0.15	897574	keystroke_Key.space	Key.space	n/a
449.162	0.09	898324	keystroke_c	c	n/a
449.3875	0.12	898775	keystroke_e	e	n/a
449.5825	0.12	899165	keystroke_l	l	n/a
449.7925	0.09	899585	keystroke_e	e	n/a
450.2575	0.075	900515	keystroke_b	b	n/a
450.4675	0.105	900935	keystroke_s	s	n/a
450.6175	0.165	901235	keystroke_Key.space	Key.space	n/a
451.322	0.135	902644	keystroke_v	v	n/a
451.472	0.15	902944	keystroke_a	a	n/a
451.832	0.15	903664	keystroke_r	r	n/a
452.132	0.12	904264	keystroke_i	i	n/a
452.432	0.105	904864	keystroke_a	a	n/a
452.612	0.135	905224	keystroke_n	n	n/a
452.807	0.075	905614	keystroke_c	c	n/a
453.017	0.075	906034	keystroke_e	e	n/a
453.152	0.135	906304	keystroke_Key.space	Key.space	n/a
453.317	0.12	906634	keystroke_a	a	n/a
453.482	0.135	906964	keystroke_l	l	n/a
453.797	0.135	907594	keystroke_e	e	n/a
453.947	0.12	907894	keystroke_r	r	n/a
454.202	0.09	908404	keystroke_t	t	n/a
454.412	0.105	908824	keystroke_Key.enter	Key.enter	n/a
454.5215	11.3225	909043	prompt	n/a	gradually adipex consultation recall\n
455.3265	0.105	910653	keystroke_g	g	n/a
455.582	0.135	911164	keystroke_r	r	n/a
455.822	0.15	911644	keystroke_a	a	n/a
456.182	0.09	912364	keystroke_d	d	n/a
456.392	0.1195	912784	keystroke_u	u	n/a
456.5415	0.105	913083	keystroke_a	a	n/a
456.6915	0.0755	913383	keystroke_l	l	n/a
456.887	0.105	913774	keystroke_l	l	n/a
457.022	0.135	914044	keystroke_y	y	n/a
457.112	0.165	914224	keystroke_Key.space	Key.space	n/a
457.352	0.135	914704	keystroke_a	a	n/a
457.727	0.09	915454	keystroke_d	d	n/a
457.907	0.1195	915814	keystroke_i	i	n/a
458.0865	0.135	916173	keystroke_p	p	n/a
458.3715	0.105	916743	keystroke_e	e	n/a
458.612	0.1205	917224	keystroke_x	x	n/a
458.7925	0.12	917585	keystroke_Key.space	Key.space	n/a
459.107	0.1505	918214	keystroke_x	x	n/a
459.7675	0.12	919535	keystroke_Key.backspace	Key.backspace	n/a
459.8725	0.105	919745	keystroke_x	x	n/a
460.3225	0.12	920645	keystroke_Key.backspace	Key.backspace	n/a
460.5775	0.09	921155	keystroke_d	d	n/a
461.2225	0.12	922445	keystroke_Key.backspace	Key.backspace	n/a
461.3575	0.075	922715	keystroke_c	c	n/a
461.5225	0.1495	923045	keystroke_o	o	n/a
461.627	0.12	923254	keystroke_n	n	n/a
462.0475	0.06	924095	keystroke_s	s	n/a
463.142	0.09	926284	keystroke_u	u	n/a
463.337	0.12	926674	keystroke_l	l	n/a
463.607	0.12	927214	keystroke_t	t	n/a
463.802	0.15	927604	keystroke_a	a	n/a
463.937	0.09	927874	keystroke_t	t	n/a
464.072	0.105	928144	keystroke_i	i	n/a
464.148	0.134	928296	keystroke_o	o	n/a
464.237	0.135	928474	keystroke_n	n	n/a
464.342	0.165	928684	keystroke_Key.space	Key.space	n/a
464.6125	0.105	929225	keystroke_r	r	n/a
464.7325	0.105	929465	keystroke_e	e	n/a
465.0325	0.045	930065	keystroke_c	c	n/a
465.0925	0.105	930185	keystroke_a	a	n/a
465.2725	0.09	930545	keystroke_l	l	n/a
465.4525	0.135	930905	keystroke_l	l	n/a
465.7225	0.119	931445	keystroke_Key.enter	Key.enter	n/a
465.851	10.4625	931702	prompt	n/a	synthesis boot conversation touched\n
466.5915	0.121	933183	keystroke_s	s	n/a
466.8165	0.106	933633	keystroke_y	y	n/a
467.4165	0.105	934833	keystroke_t	t	n/a
467.942	0.12	935884	keystroke_Key.backspace	Key.backspace	n/a
468.197	0.09	936394	keystroke_n	n	n/a
468.452	0.09	936904	keystroke_t	t	n/a
468.557	0.135	937114	keystroke_h	h	n/a
468.782	0.105	937564	keystroke_e	e	n/a
469.4125	0.12	938825	keystroke_s	s	n/a
469.712	0.135	939424	keystroke_i	i	n/a
469.997	0.09	939994	keystroke_s	s	n/a
470.162	0.1505	940324	keystroke_Key.space	Key.space	n/a
470.5225	0.1195	941045	keystroke_b	b	n/a
470.627	0.09	941254	keystroke_o	o	n/a
470.807	0.12	941614	keystroke_o	o	n/a
470.942	0.075	941884	keystroke_t	t	n/a
471.047	0.12	942094	keystroke_Key.space	Key.space	n/a
471.287	0.09	942574	keystroke_c	c	n/a
471.362	0.135	942724	keystroke_o	o	n/a
471.482	0.15	942964	keystroke_n	n	n/a
471.617	0.06	943234	keystroke_v	v	n/a
471.707	0.135	943414	keystroke_e	e	n/a
471.827	0.105	943654	keystroke_r	r	n/a
471.992	0.0905	943984	keystroke_s	s	n/a
472.5775	0.12	945155	keystroke_a	a	n/a
472.6675	0.105	945335	keystroke_t	t	n/a
472.7865	0.105	945573	keystroke_i	i	n/a
472.8475	0.134	945695	keystroke_o	o	n/a
472.9365	0.136	945873	keystroke_n	n	n/a
473.0565	0.15	946113	keystroke_Key.space	Key.space	n/a
473.912	0.09	947824	keystroke_t	t	n/a
474.032	0.135	948064	keystroke_o	o	n/a
474.182	0.045	948364	keystroke_i	i	n/a
474.9025	0.119	949805	keystroke_Key.backspace	Key.backspace	n/a
475.187	0.1195	950374	keystroke_u	u	n/a
475.3815	0.09	950763	keystroke_c	c	n/a
475.5015	0.12	951003	keystroke_h	h	n/a
475.7265	0.09	951453	keystroke_e	e	n/a
475.9815	0.06	951963	keystroke_d	d	n/a
476.2065	0.106	952413	keystroke_Key.enter	Key.enter	n/a
476.3185	14.125	952637	prompt	n/a	magnificent dependent occasions quantitative\n
477.1225	0.12	954245	keystroke_m	m	n/a
477.2875	0.105	954575	keystroke_a	a	n/a
477.4365	0.1205	954873	keystroke_g	g	n/a
477.752	0.1805	955504	keystroke_n	n	n/a
477.8875	0.12	955775	keystroke_i	i	n/a
478.1865	0.105	956373	keystroke_f	f	n/a
478.3225	0.089	956645	keystroke_i	i	n/a
478.607	0.06	957214	keystroke_d	d	n/a
479.192	0.1195	958384	keystroke_Key.backspace	Key.backspace	n/a
479.2965	0.09	958593	keystroke_c	c	n/a
479.5215	0.075	959043	keystroke_e	e	n/a
479.7015	0.09	959403	keystroke_n	n	n/a
479.8365	0.09	959673	keystroke_t	t	n/a
480.0015	0.12	960003	keystroke_Key.space	Key.space	n/a
480.3915	0.06	960783	keystroke_d	d	n/a
480.5715	0.075	961143	keystroke_e	e	n/a
480.7215	0.135	961443	keystroke_p	p	n/a
480.8865	0.105	961773	keystroke_e	e	n/a
481.0215	0.12	962043	keystroke_n	n	n/a
481.1715	0.06	962343	keystroke_d	d	n/a
481.3365	0.075	962673	keystroke_e	e	n/a
481.5165	0.135	963033	keystroke_n	n	n/a
481.6215	0.135	963243	keystroke_Key.space	Key.space	n/a
481.7415	0.0905	963483	keystroke_t	t	n/a
482.537	0.015	965074	keystroke_Key.backspace	Key.backspace	n/a
482.597	0.105	965194	keystroke_Key.backspace	Key.backspace	n/a
482.717	0.075	965434	keystroke_t	t	n/a
482.852	0.105	965704	keystroke_Key.space	Key.space	n/a
483.212	0.105	966424	keystroke_o	o	n/a
483.542	0.0895	967084	keystroke_c	c	n/a
483.7215	0.09	967443	keystroke_c	c	n/a
483.9765	0.1055	967953	keystroke_a	a	n/a
484.292	0.09	968584	keystroke_s	s	n/a
484.487	0.12	968974	keystroke_i	i	n/a
484.592	0.15	969184	keystroke_o	o	n/a
484.697	0.12	969394	keystroke_n	n	n/a
484.847	0.105	969694	keystroke_s	s	n/a
484.997	0.105	969994	keystroke_Key.space	Key.space	n/a
485.8375	0.119	971675	keystroke_q	q	n/a
486.0175	0.119	972035	keystroke_u	u	n/a
486.2265	0.105	972453	keystroke_a	a	n/a
486.3925	0.1345	972785	keystroke_n	n	n/a
486.977	0.12	973954	keystroke_t	t	n/a
487.7865	0.1505	975573	keystroke_i	i	n/a
487.997	0.12	975994	keystroke_t	t	n/a
489.422	0.165	978844	keystroke_a	a	n/a
489.632	0.075	979264	keystroke_t	t	n/a
489.767	0.12	979534	keystroke_i	i	n/a
489.932	0.105	979864	keystroke_v	v	n/a
490.022	0.105	980044	keystroke_e	e	n/a
490.337	0.105	980674	keystroke_Key.enter	Key.enter	n/a
490.448	8.7405	980896	prompt	n/a	duty yoga authorization structures\n
491.402	0.09	982804	keystroke_d	d	n/a
491.627	0.12	983254	keystroke_u	u	n/a
491.762	0.075	983524	keystroke_t	t	n/a
491.882	0.135	983764	keystroke_y	y	n/a
492.002	0.12	984004	keystroke_Key.space	Key.space	n/a
492.227	0.12	984454	keystroke_y	y	n/a
492.362	0.15	984724	keystroke_o	o	n/a
492.572	0.09	985144	keystroke_g	g	n/a
492.767	0.12	985534	keystroke_a	a	n/a
492.947	0.12	985894	keystroke_Key.space	Key.space	n/a
493.8765	0.09	987753	keystroke_a	a	n/a
494.0115	0.12	988023	keystroke_u	u	n/a
494.1625	0.134	988325	keystroke_t	t	n/a
494.2665	0.1355	988533	keystroke_h	h	n/a
494.537	0.09	989074	keystroke_o	o	n/a
494.882	0.105	989764	keystroke_r	r	n/a
495.047	0.135	990094	keystroke_i	i	n/a
495.257	0.09	990514	keystroke_z	z	n/a
495.512	0.105	991024	keystroke_a	a	n/a
495.662	0.09	991324	keystroke_t	t	n/a
495.782	0.105	991564	keystroke_i	i	n/a
495.857	0.15	991714	keystroke_o	o	n/a
495.977	0.165	991954	keystroke_n	n	n/a
496.097	0.15	992194	keystroke_Key.space	Key.space	n/a
496.5915	0.135	993183	keystroke_s	s	n/a
496.7715	0.075	993543	keystroke_t	t	n/a
496.9365	0.105	993873	keystroke_r	r	n/a
497.1015	0.1205	994203	keystroke_u	u	n/a
497.267	0.1805	994534	keystroke_c	c	n/a
497.8975	0.135	995795	keystroke_t	t	n/a
498.0925	0.105	996185	keystroke_u	u	n/a
498.2575	0.09	996515	keystroke_r	r	n/a
498.572	0.09	997144	keystroke_e	e	n/a
498.7975	0.09	997595	keystroke_s	s	n/a
499.0825	0.105	998165	keystroke_Key.enter	Key.enter	n/a
499.1915	7.542	998383	prompt	n/a	motivated master sublime heritage\n
499.892	0.165	999784	keystroke_m	m	n/a
500.012	0.15	1000024	keystroke_o	o	n/a
500.2675	0.075	1000535	keystroke_t	t	n/a
500.4025	0.105	1000805	keystroke_i	i	n/a
500.5975	0.12	1001195	keystroke_v	v	n/a
500.8975	0.12	1001795	keystroke_a	a	n/a
501.1525	0.105	1002305	keystroke_t	t	n/a
501.3025	0.075	1002605	keystroke_e	e	n/a
501.527	0.09	1003054	keystroke_d	d	n/a
501.677	0.105	1003354	keystroke_Key.space	Key.space	n/a
501.767	0.15	1003534	keystroke_m	m	n/a
501.932	0.12	1003864	keystroke_a	a	n/a
502.022	0.12	1004044	keystroke_s	s	n/a
502.187	0.06	1004374	keystroke_t	t	n/a
502.307	0.12	1004614	keystroke_e	e	n/a
502.397	0.135	1004794	keystroke_r	r	n/a
502.562	0.135	1005124	keystroke_Key.space	Key.space	n/a
503.0575	0.09	1006115	keystroke_s	s	n/a
503.2075	0.135	1006415	keystroke_u	u	n/a
503.3875	0.075	1006775	keystroke_b	b	n/a
503.552	0.18	1007104	keystroke_l	l	n/a
503.717	0.1345	1007434	keystroke_i	i	n/a
503.8215	0.151	1007643	keystroke_m	m	n/a
504.0015	0.105	1008003	keystroke_e	e	n/a
504.1665	0.105	1008333	keystroke_Key.space	Key.space	n/a
504.587	0.135	1009174	keystroke_h	h	n/a
504.782	0.15	1009564	keystroke_e	e	n/a
504.917	0.105	1009834	keystroke_r	r	n/a
505.052	0.105	1010104	keystroke_i	i	n/a
505.4415	0.1205	1010883	keystroke_t	t	n/a
506.042	0.15	1012084	keystroke_a	a	n/a
506.207	0.135	1012414	keystroke_g	g	n/a
506.312	0.12	1012624	keystroke_e	e	n/a
506.627	0.105	1013254	keystroke_Key.enter	Key.enter	n/a
506.737	5.4115	1013474	prompt	n/a	woods bunny career senate\n
507.4225	0.09	1014845	keystroke_w	w	n/a
507.5275	0.105	1015055	keystroke_o	o	n/a
507.6925	0.12	1015385	keystroke_o	o	n/a
507.8425	0.105	1015685	keystroke_d	d	n/a
507.9925	0.105	1015985	keystroke_s	s	n/a
508.1125	0.1345	1016225	keystroke_Key.space	Key.space	n/a
508.337	0.12	1016674	keystroke_b	b	n/a
508.487	0.09	1016974	keystroke_u	u	n/a
508.727	0.0755	1017454	keystroke_n	n	n/a
508.9075	0.075	1017815	keystroke_n	n	n/a
509.1325	0.1195	1018265	keystroke_y	y	n/a
509.2075	0.1045	1018415	keystroke_Key.space	Key.space	n/a
509.357	0.15	1018714	keystroke_c	c	n/a
509.6565	0.121	1019313	keystroke_a	a	n/a
509.8665	0.076	1019733	keystroke_r	r	n/a
510.1075	0.045	1020215	keystroke_e	e	n/a
510.242	0.09	1020484	keystroke_e	e	n/a
510.467	0.075	1020934	keystroke_r	r	n/a
510.602	0.15	1021204	keystroke_Key.space	Key.space	n/a
511.007	0.1045	1022014	keystroke_s	s	n/a
511.1565	0.09	1022313	keystroke_e	e	n/a
511.367	0.12	1022734	keystroke_n	n	n/a
511.562	0.165	1023124	keystroke_a	a	n/a
511.697	0.12	1023394	keystroke_t	t	n/a
511.802	0.09	1023604	keystroke_e	e	n/a
512.042	0.105	1024084	keystroke_Key.enter	Key.enter	n/a
512.152	6.1315	1024304	prompt	n/a	donald nicole powell notified\n
512.792	0.09	1025584	keystroke_d	d	n/a
512.897	0.135	1025794	keystroke_o	o	n/a
513.002	0.135	1026004	keystroke_n	n	n/a
513.197	0.1045	1026394	keystroke_a	a	n/a
513.4065	0.105	1026813	keystroke_l	l	n/a
513.617	0.0895	1027234	keystroke_d	d	n/a
513.752	0.0895	1027504	keystroke_Key.space	Key.space	n/a
514.007	0.135	1028014	keystroke_n	n	n/a
514.307	0.12	1028614	keystroke_i	i	n/a
514.472	0.105	1028944	keystroke_c	c	n/a
514.607	0.105	1029214	keystroke_o	o	n/a
514.817	0.105	1029634	keystroke_l	l	n/a
514.937	0.075	1029874	keystroke_e	e	n/a
515.0575	0.12	1030115	keystroke_Key.space	Key.space	n/a
515.2675	0.0595	1030535	keystroke_p	p	n/a
515.492	0.045	1030984	keystroke_o	o	n/a
515.8225	0.075	1031645	keystroke_w	w	n/a
516.0015	0.0905	1032003	keystroke_e	e	n/a
516.182	0.075	1032364	keystroke_l	l	n/a
516.362	0.135	1032724	keystroke_l	l	n/a
516.482	0.09	1032964	keystroke_Key.space	Key.space	n/a
516.842	0.105	1033684	keystroke_n	n	n/a
516.917	0.12	1033834	keystroke_o	o	n/a
517.307	0.09	1034614	keystroke_t	t	n/a
517.442	0.105	1034884	keystroke_i	i	n/a
517.562	0.105	1035124	keystroke_f	f	n/a
517.682	0.105	1035364	keystroke_i	i	n/a
517.802	0.075	1035604	keystroke_e	e	n/a
517.982	0.09	1035964	keystroke_d	d	n/a
518.192	0.09	1036384	keystroke_Key.enter	Key.enter	n/a
518.286	8.6225	1036572	prompt	n/a	immunology comfortable zoloft boards\n
519.0465	0.121	1038093	keystroke_i	i	n/a
519.2715	0.09	1038543	keystroke_m	m	n/a
519.4525	0.104	1038905	keystroke_m	m	n/a
519.7065	0.12	1039413	keystroke_u	u	n/a
519.9765	0.15	1039953	keystroke_n	n	n/a
520.1125	0.134	1040225	keystroke_o	o	n/a
520.4115	0.0755	1040823	keystroke_l	l	n/a
520.592	0.105	1041184	keystroke_o	o	n/a
520.757	0.12	1041514	keystroke_g	g	n/a
521.0115	0.12	1042023	keystroke_y	y	n/a
521.1015	0.165	1042203	keystroke_Key.space	Key.space	n/a
521.432	0.1045	1042864	keystroke_c	c	n/a
521.552	0.12	1043104	keystroke_o	o	n/a
521.792	0.105	1043584	keystroke_m	m	n/a
521.972	0.075	1043944	keystroke_f	f	n/a
522.137	0.105	1044274	keystroke_o	o	n/a
522.257	0.105	1044514	keystroke_r	r	n/a
522.617	0.15	1045234	keystroke_t	t	n/a
522.872	0.165	1045744	keystroke_a	a	n/a
523.037	0.09	1046074	keystroke_b	b	n/a
523.187	0.1045	1046374	keystroke_l	l	n/a
523.3665	0.075	1046733	keystroke_e	e	n/a
523.4865	0.1205	1046973	keystroke_Key.space	Key.space	n/a
523.787	0.1345	1047574	keystroke_z	z	n/a
523.9065	0.09	1047813	keystroke_o	o	n/a
524.2065	0.09	1048413	keystroke_l	l	n/a
524.582	0.105	1049164	keystroke_o	o	n/a
524.852	0.09	1049704	keystroke_f	f	n/a
525.077	0.09	1050154	keystroke_t	t	n/a
525.227	0.135	1050454	keystroke_Key.space	Key.space	n/a
525.587	0.09	1051174	keystroke_b	b	n/a
525.752	0.09	1051504	keystroke_o	o	n/a
525.9765	0.15	1051953	keystroke_a	a	n/a
526.1115	0.12	1052223	keystroke_r	r	n/a
526.3515	0.09	1052703	keystroke_d	d	n/a
526.5315	0.09	1053063	keystroke_s	s	n/a
526.8015	0.105	1053603	keystroke_Key.enter	Key.enter	n/a
526.912	5.3665	1053824	prompt	n/a	down baking mailto whale\n
527.5815	0.105	1055163	keystroke_d	d	n/a
527.7015	0.12	1055403	keystroke_o	o	n/a
527.8665	0.075	1055733	keystroke_w	w	n/a
527.9565	0.135	1055913	keystroke_n	n	n/a
528.0925	0.134	1056185	keystroke_Key.space	Key.space	n/a
528.3015	0.105	1056603	keystroke_b	b	n/a
528.4365	0.12	1056873	keystroke_a	a	n/a
528.5865	0.09	1057173	keystroke_k	k	n/a
528.7965	0.105	1057593	keystroke_i	i	n/a
528.8565	0.135	1057713	keystroke_n	n	n/a
528.9465	0.105	1057893	keystroke_g	g	n/a
529.0965	0.12	1058193	keystroke_Key.space	Key.space	n/a
529.2315	0.165	1058463	keystroke_m	m	n/a
529.4865	0.06	1058973	keystroke_a	a	n/a
529.9515	0.105	1059903	keystroke_i	i	n/a
530.1765	0.135	1060353	keystroke_l	l	n/a
530.6865	0.105	1061373	keystroke_t	t	n/a
530.8515	0.12	1061703	keystroke_o	o	n/a
531.0315	0.15	1062063	keystroke_Key.space	Key.space	n/a
531.2865	0.075	1062573	keystroke_w	w	n/a
531.4065	0.09	1062813	keystroke_h	h	n/a
531.632	0.135	1063264	keystroke_a	a	n/a
531.827	0.12	1063654	keystroke_l	l	n/a
532.022	0.075	1064044	keystroke_e	e	n/a
532.157	0.1195	1064314	keystroke_Key.enter	Key.enter	n/a
532.2815	10.632	1064563	prompt	n/a	leads float marcus workshop\n
532.9665	0.135	1065933	keystroke_l	l	n/a
533.0865	0.135	1066173	keystroke_e	e	n/a
533.3415	0.15	1066683	keystroke_a	a	n/a
533.627	0.075	1067254	keystroke_d	d	n/a
533.9265	0.075	1067853	keystroke_s	s	n/a
534.1365	0.135	1068273	keystroke_Key.space	Key.space	n/a
534.9015	0.12	1069803	keystroke_f	f	n/a
535.0365	0.09	1070073	keystroke_o	o	n/a
535.2315	0.105	1070463	keystroke_l	l	n/a
535.4265	0.1355	1070853	keystroke_a	a	n/a
535.637	0.105	1071274	keystroke_t	t	n/a
535.982	0.105	1071964	keystroke_Key.backspace	Key.backspace	n/a
536.162	0.09	1072324	keystroke_Key.backspace	Key.backspace	n/a
536.357	0.045	1072714	keystroke_Key.backspace	Key.backspace	n/a
536.462	0.09	1072924	keystroke_Key.backspace	Key.backspace	n/a
536.747	0.105	1073494	keystroke_l	l	n/a
536.987	0.12	1073974	keystroke_o	o	n/a
537.167	0.18	1074334	keystroke_a	a	n/a
537.377	0.12	1074754	keystroke_t	t	n/a
537.617	0.12	1075234	keystroke_Key.space	Key.space	n/a
538.0825	0.135	1076165	keystroke_m	m	n/a
538.6675	0.15	1077335	keystroke_a	a	n/a
538.8475	0.1195	1077695	keystroke_r	r	n/a
539.207	0.105	1078414	keystroke_c	c	n/a
539.342	0.135	1078684	keystroke_u	u	n/a
539.507	0.12	1079014	keystroke_s	s	n/a
539.642	0.165	1079284	keystroke_Key.space	Key.space	n/a
540.047	0.09	1080094	keystroke_w	w	n/a
540.182	0.105	1080364	keystroke_o	o	n/a
540.347	0.135	1080694	keystroke_r	r	n/a
540.707	0.105	1081414	keystroke_k	k	n/a
540.857	0.105	1081714	keystroke_s	s	n/a
541.6065	0.15	1083213	keystroke_h	h	n/a
541.7715	0.225	1083543	keystroke_o	o	n/a
541.9515	0.12	1083903	keystroke_p	p	n/a
542.747	0.1645	1085494	keystroke_Key.enter	Key.enter	n/a
542.916	8.638	1085832	prompt	n/a	distance stylus findings powered\n
544.007	0.135	1088014	keystroke_d	d	n/a
544.187	0.12	1088374	keystroke_i	i	n/a
544.367	0.075	1088734	keystroke_s	s	n/a
545.282	0.105	1090564	keystroke_t	t	n/a
545.432	0.1195	1090864	keystroke_a	a	n/a
545.5665	0.135	1091133	keystroke_n	n	n/a
545.7165	0.075	1091433	keystroke_c	c	n/a
545.9115	0.075	1091823	keystroke_e	e	n/a
546.0465	0.15	1092093	keystroke_Key.space	Key.space	n/a
546.2865	0.12	1092573	keystroke_s	s	n/a
546.3915	0.135	1092783	keystroke_t	t	n/a
546.5415	0.15	1093083	keystroke_y	y	n/a
546.7065	0.135	1093413	keystroke_l	l	n/a
546.9615	0.106	1093923	keystroke_u	u	n/a
547.0675	0.104	1094135	keystroke_s	s	n/a
547.2165	0.135	1094433	keystroke_Key.space	Key.space	n/a
547.4565	0.106	1094913	keystroke_f	f	n/a
547.5915	0.136	1095183	keystroke_i	i	n/a
547.6815	0.12	1095363	keystroke_n	n	n/a
547.8175	0.104	1095635	keystroke_d	d	n/a
548.0115	0.12	1096023	keystroke_i	i	n/a
548.0565	0.195	1096113	keystroke_n	n	n/a
548.4615	0.12	1096923	keystroke_s	s	n/a
548.8515	0.1055	1097703	keystroke_Key.backspace	Key.backspace	n/a
548.942	0.09	1097884	keystroke_g	g	n/a
549.1215	0.106	1098243	keystroke_s	s	n/a
549.2415	0.15	1098483	keystroke_Key.space	Key.space	n/a
549.767	0.15	1099534	keystroke_p	p	n/a
550.007	0.135	1100014	keystroke_o	o	n/a
550.157	0.12	1100314	keystroke_w	w	n/a
550.5015	0.285	1101003	keystroke_e	e	n/a
550.8015	0.1505	1101603	keystroke_r	r	n/a
551.042	0.09	1102084	keystroke_e	e	n/a
551.237	0.09	1102474	keystroke_d	d	n/a
551.447	0.1045	1102894	keystroke_Key.enter	Key.enter	n/a
551.56	7.358	1103120	prompt	n/a	ridge mime services powder\n
552.4215	0.075	1104843	keystroke_r	r	n/a
552.5115	0.105	1105023	keystroke_i	i	n/a
552.6765	0.105	1105353	keystroke_d	d	n/a
552.8565	0.15	1105713	keystroke_g	g	n/a
552.9765	0.105	1105953	keystroke_e	e	n/a
553.1115	0.135	1106223	keystroke_Key.space	Key.space	n/a
553.4415	0.165	1106883	keystroke_m	m	n/a
553.8765	0.12	1107753	keystroke_i	i	n/a
554.0565	0.135	1108113	keystroke_m	m	n/a
554.522	0.0745	1109044	keystroke_e	e	n/a
555.3615	0.105	1110723	keystroke_Key.space	Key.space	n/a
555.8265	0.12	1111653	keystroke_s	s	n/a
556.0065	0.18	1112013	keystroke_e	e	n/a
556.1415	0.12	1112283	keystroke_r	r	n/a
556.4115	0.105	1112823	keystroke_v	v	n/a
556.5315	0.12	1113063	keystroke_i	i	n/a
556.6525	0.089	1113305	keystroke_c	c	n/a
556.8615	0.075	1113723	keystroke_e	e	n/a
556.9965	0.105	1113993	keystroke_s	s	n/a
557.1315	0.135	1114263	keystroke_Key.space	Key.space	n/a
557.2965	0.135	1114593	keystroke_p	p	n/a
557.5065	0.135	1115013	keystroke_o	o	n/a
557.8965	0.105	1115793	keystroke_w	w	n/a
558.3315	0.045	1116663	keystroke_d	d	n/a
558.4665	0.135	1116933	keystroke_e	e	n/a
558.5565	0.135	1117113	keystroke_r	r	n/a
558.8115	0.105	1117623	keystroke_Key.enter	Key.enter	n/a
558.923	8.47	1117846	prompt	n/a	hobby platform publishing cloth\n
559.6215	0.09	1119243	keystroke_b	b	n/a
559.7415	0.075	1119483	keystroke_o	o	n/a
560.176	0.075	1120352	keystroke_Key.backspace	Key.backspace	n/a
560.312	0.074	1120624	keystroke_Key.backspace	Key.backspace	n/a
560.5365	0.075	1121073	keystroke_h	h	n/a
560.5965	0.135	1121193	keystroke_o	o	n/a
560.7165	0.075	1121433	keystroke_b	b	n/a
560.9115	0.075	1121823	keystroke_b	b	n/a
561.0915	0.135	1122183	keystroke_y	y	n/a
561.1815	0.1945	1122363	keystroke_Key.space	Key.space	n/a
561.752	0.089	1123504	keystroke_p	p	n/a
561.916	0.15	1123832	keystroke_l	l	n/a
562.036	0.135	1124072	keystroke_a	a	n/a
562.877	0.09	1125754	keystroke_t	t	n/a
563.102	0.089	1126204	keystroke_f	f	n/a
563.207	0.1495	1126414	keystroke_o	o	n/a
563.4465	0.0905	1126893	keystroke_r	r	n/a
563.7165	0.135	1127433	keystroke_m	m	n/a
563.8665	0.1505	1127733	keystroke_Key.space	Key.space	n/a
564.422	0.195	1128844	keystroke_p	p	n/a
564.602	0.135	1129204	keystroke_u	u	n/a
564.887	0.075	1129774	keystroke_b	b	n/a
565.007	0.12	1130014	keystroke_l	l	n/a
565.187	0.105	1130374	keystroke_i	i	n/a
565.337	0.09	1130674	keystroke_s	s	n/a
565.472	0.1045	1130944	keystroke_h	h	n/a
565.5465	0.166	1131093	keystroke_i	i	n/a
565.6815	0.135	1131363	keystroke_n	n	n/a
565.7865	0.09	1131573	keystroke_g	g	n/a
565.9365	0.121	1131873	keystroke_Key.space	Key.space	n/a
566.5065	0.121	1133013	keystroke_c	c	n/a
566.6415	0.075	1133283	keystroke_l	l	n/a
566.8065	0.1055	1133613	keystroke_o	o	n/a
566.957	0.09	1133914	keystroke_t	t	n/a
567.077	0.105	1134154	keystroke_h	h	n/a
567.3015	0.09	1134603	keystroke_Key.enter	Key.enter	n/a
567.396	9.927	1134792	prompt	n/a	florida coupons marine list\n
568.052	0.105	1136104	keystroke_f	f	n/a
568.187	0.09	1136374	keystroke_l	l	n/a
568.472	0.12	1136944	keystroke_o	o	n/a
568.742	0.135	1137484	keystroke_r	r	n/a
568.907	0.135	1137814	keystroke_i	i	n/a
569.102	0.0595	1138204	keystroke_d	d	n/a
569.5365	0.12	1139073	keystroke_a	a	n/a
569.7315	0.135	1139463	keystroke_Key.space	Key.space	n/a
570.122	0.1045	1140244	keystroke_c	c	n/a
570.4815	0.06	1140963	keystroke_o	o	n/a
570.5715	0.09	1141143	keystroke_o	o	n/a
570.8415	0.1655	1141683	keystroke_u	u	n/a
571.022	0.12	1142044	keystroke_p	p	n/a
571.4265	0.09	1142853	keystroke_Key.backspace	Key.backspace	n/a
571.6215	0.0755	1143243	keystroke_Key.backspace	Key.backspace	n/a
571.9515	0.09	1143903	keystroke_Key.backspace	Key.backspace	n/a
572.2365	0.1505	1144473	keystroke_u	u	n/a
572.447	0.135	1144894	keystroke_p	p	n/a
572.687	0.165	1145374	keystroke_o	o	n/a
574.9985	0.0735	1149997	keystroke_n	n	n/a
575.2365	0.1055	1150473	keystroke_s	s	n/a
575.401	0.1355	1150802	keystroke_Key.space	Key.space	n/a
575.8365	0.12	1151673	keystroke_m	m	n/a
575.9715	0.105	1151943	keystroke_a	a	n/a
576.2415	0.1205	1152483	keystroke_r	r	n/a
576.377	0.135	1152754	keystroke_i	i	n/a
576.467	0.134	1152934	keystroke_n	n	n/a
576.602	0.09	1153204	keystroke_e	e	n/a
576.692	0.134	1153384	keystroke_Key.space	Key.space	n/a
576.781	0.1055	1153562	keystroke_l	l	n/a
576.901	0.105	1153802	keystroke_i	i	n/a
576.976	0.12	1153952	keystroke_s	s	n/a
577.066	0.12	1154132	keystroke_t	t	n/a
577.201	0.12	1154402	keystroke_Key.enter	Key.enter	n/a
577.327	4.901	1154654	prompt	n/a	boxing beach buried huntington\n
578.0565	0.105	1156113	keystroke_b	b	n/a
578.1765	0.105	1156353	keystroke_o	o	n/a
578.3115	0.105	1156623	keystroke_x	x	n/a
578.4315	0.135	1156863	keystroke_i	i	n/a
578.5515	0.09	1157103	keystroke_n	n	n/a
578.6115	0.09	1157223	keystroke_g	g	n/a
578.7315	0.135	1157463	keystroke_Key.space	Key.space	n/a
578.9115	0.0605	1157823	keystroke_b	b	n/a
