onset	duration	sample	value	key	prompt_text
4.1865	13.4385	8373	prompt	n/a	the quick brown fox jumps over a lazy dog\n
7.5145	0.001	15029	keystroke	t	n/a
7.5265	0.089	15053	keystroke	h	n/a
7.6305	0.09	15261	keystroke	e	n/a
7.8565	0.15	15713	keystroke	Key.space	n/a
8.7865	0.105	17573	keystroke	q	n/a
8.952	0.1045	17904	keystroke	u	n/a
9.1765	0.075	18353	keystroke	i	n/a
9.3415	0.09	18683	keystroke	c	n/a
9.4615	0.09	18923	keystroke	k	n/a
9.7015	0.1055	19403	keystroke	Key.space	n/a
9.9715	0.06	19943	keystroke	b	n/a
10.0615	0.12	20123	keystroke	r	n/a
10.571	0.075	21142	keystroke	o	n/a
10.706	0.09	21412	keystroke	w	n/a
10.841	0.0905	21682	keystroke	n	n/a
11.1265	0.1045	22253	keystroke	Key.space	n/a
11.576	0.06	23152	keystroke	f	n/a
11.696	0.0745	23392	keystroke	o	n/a
11.8165	0.0905	23633	keystroke	x	n/a
11.966	0.12	23932	keystroke	Key.space	n/a
12.6715	0.091	25343	keystroke	j	n/a
12.927	0.074	25854	keystroke	u	n/a
13.197	0.105	26394	keystroke	m	n/a
13.437	0.074	26874	keystroke	p	n/a
13.556	0.075	27112	keystroke	s	n/a
13.706	0.12	27412	keystroke	Key.space	n/a
14.1565	0.075	28313	keystroke	o	n/a
14.262	0.075	28524	keystroke	v	n/a
14.442	0.105	28884	keystroke	e	n/a
14.532	0.09	29064	keystroke	r	n/a
14.637	0.12	29274	keystroke	Key.space	n/a
14.952	0.135	29904	keystroke	a	n/a
15.072	0.12	30144	keystroke	Key.space	n/a
15.372	0.09	30744	keystroke	l	n/a
15.567	0.09	31134	keystroke	a	n/a
15.7925	0.074	31585	keystroke	z	n/a
15.9575	0.09	31915	keystroke	y	n/a
16.1515	0.12	32303	keystroke	Key.space	n/a
16.4515	0.135	32903	keystroke	d	n/a
16.6315	0.075	33263	keystroke	o	n/a
16.8115	0.045	33623	keystroke	g	n/a
17.5165	0.105	35033	keystroke	Key.enter	n/a
17.632	11.3775	35264	prompt	n/a	textile investigations teens successful\n
18.4765	0.09	36953	keystroke	e	n/a
19.3465	0.15	38693	keystroke	Key.backspace	n/a
19.7365	0.075	39473	keystroke	t	n/a
19.9315	0.09	39863	keystroke	e	n/a
20.1715	0.105	40343	keystroke	x	n/a
20.4565	0.045	40913	keystroke	t	n/a
20.6365	0.06	41273	keystroke	i	n/a
21.1915	0.09	42383	keystroke	l	n/a
21.2965	0.075	42593	keystroke	e	n/a
21.5065	0.12	43013	keystroke	Key.space	n/a
21.7325	0.075	43465	keystroke	i	n/a
21.9725	0.015	43945	keystroke	n	n/a
22.0015	0.091	44003	keystroke	v	n/a
22.2265	0.09	44453	keystroke	e	n/a
22.4225	0.105	44845	keystroke	s	n/a
22.752	0.0745	45504	keystroke	t	n/a
22.8865	0.06	45773	keystroke	i	n/a
23.0365	0.075	46073	keystroke	g	n/a
23.2165	0.165	46433	keystroke	a	n/a
23.4265	0.06	46853	keystroke	t	n/a
23.5165	0.09	47033	keystroke	i	n/a
23.6215	0.135	47243	keystroke	o	n/a
23.7265	0.12	47453	keystroke	n	n/a
23.8315	0.075	47663	keystroke	s	n/a
24.2065	0.12	48413	keystroke	Key.space	n/a
24.6415	0.06	49283	keystroke	e	n/a
25.3915	0.0905	50783	keystroke	Key.backspace	n/a
25.722	0.06	51444	keystroke	t	n/a
25.917	0.075	51834	keystroke	e	n/a
26.097	0.075	52194	keystroke	e	n/a
26.322	0.06	52644	keystroke	n	n/a
26.487	0.075	52974	keystroke	s	n/a
26.711	0.09	53422	keystroke	Key.space	n/a
26.937	0.075	53874	keystroke	s	n/a
27.042	0.075	54084	keystroke	u	n/a
27.207	0.075	54414	keystroke	c	n/a
27.387	0.075	54774	keystroke	c	n/a
27.551	0.061	55102	keystroke	e	n/a
27.747	0.075	55494	keystroke	s	n/a
27.926	0.091	55852	keystroke	s	n/a
28.122	0.09	56244	keystroke	f	n/a
28.271	0.106	56542	keystroke	u	n/a
28.467	0.075	56934	keystroke	l	n/a
28.916	0.09	57832	keystroke	Key.enter	n/a
29.016	13.6935	58032	prompt	n/a	functionality activity attorneys legislation\n
29.757	0.09	59514	keystroke	f	n/a
29.951	0.076	59902	keystroke	u	n/a
30.237	0.075	60474	keystroke	n	n/a
30.447	0.075	60894	keystroke	c	n/a
30.687	0.075	61374	keystroke	t	n/a
30.822	0.1345	61644	keystroke	i	n/a
30.9725	0.104	61945	keystroke	o	n/a
31.0465	0.12	62093	keystroke	n	n/a
31.212	0.105	62424	keystroke	a	n/a
31.332	0.06	62664	keystroke	l	n/a
31.452	0.105	62904	keystroke	i	n/a
31.572	0.075	63144	keystroke	t	n/a
31.692	0.075	63384	keystroke	y	n/a
32.097	0.105	64194	keystroke	Key.space	n/a
32.427	0.135	64854	keystroke	a	n/a
32.592	0.09	65184	keystroke	c	n/a
32.967	0.075	65934	keystroke	i	n/a
34.302	0.075	68604	keystroke	Key.backspace	n/a
34.992	0.09	69984	keystroke	t	n/a
35.262	0.06	70524	keystroke	i	n/a
35.457	0.045	70914	keystroke	v	n/a
35.577	0.105	71154	keystroke	i	n/a
35.697	0.075	71394	keystroke	t	n/a
35.832	0.075	71664	keystroke	y	n/a
36.387	0.135	72774	keystroke	Key.space	n/a
36.687	0.15	73374	keystroke	a	n/a
36.912	0.06	73824	keystroke	t	n/a
37.032	0.106	74064	keystroke	t	n/a
37.302	0.075	74604	keystroke	o	n/a
37.392	0.075	74784	keystroke	r	n/a
37.542	0.09	75084	keystroke	n	n/a
37.647	0.09	75294	keystroke	e	n/a
37.827	0.075	75654	keystroke	y	n/a
38.022	0.045	76044	keystroke	s	n/a
38.247	0.105	76494	keystroke	Key.space	n/a
39.162	0.0595	78324	keystroke	l	n/a
39.267	0.0745	78534	keystroke	e	n/a
39.4765	0.09	78953	keystroke	g	n/a
39.6565	0.0755	79313	keystroke	i	n/a
39.762	0.1045	79524	keystroke	s	n/a
40.0615	0.12	80123	keystroke	a	n/a
40.9765	0.105	81953	keystroke	Key.backspace	n/a
41.6525	0.104	83305	keystroke	l	n/a
41.8015	0.195	83603	keystroke	a	n/a
41.9665	0.09	83933	keystroke	t	n/a
42.0715	0.105	84143	keystroke	i	n/a
42.1915	0.105	84383	keystroke	o	n/a
42.2665	0.135	84533	keystroke	n	n/a
42.5965	0.105	85193	keystroke	Key.enter	n/a
42.7105	6.9695	85421	prompt	n/a	moore permits spec unwrap\n
43.7225	0.059	87445	keystroke	m	n/a
43.9465	0.061	87893	keystroke	o	n/a
44.0815	0.09	88163	keystroke	o	n/a
44.2315	0.15	88463	keystroke	r	n/a
44.3365	0.105	88673	keystroke	e	n/a
44.5315	0.105	89063	keystroke	Key.space	n/a
44.8615	0.105	89723	keystroke	p	n/a
45.0265	0.12	90053	keystroke	e	n/a
45.1165	0.105	90233	keystroke	r	n/a
45.3865	0.09	90773	keystroke	m	n/a
46.4065	0.075	92813	keystroke	i	n/a
46.6025	0.059	93205	keystroke	t	n/a
46.7665	0.09	93533	keystroke	s	n/a
46.9315	0.12	93863	keystroke	Key.space	n/a
47.1565	0.0755	94313	keystroke	s	n/a
47.337	0.089	94674	keystroke	p	n/a
47.412	0.09	94824	keystroke	e	n/a
47.591	0.091	95182	keystroke	c	n/a
47.771	0.105	95542	keystroke	Key.space	n/a
48.087	0.075	96174	keystroke	u	n/a
48.372	0.075	96744	keystroke	n	n/a
48.612	0.075	97224	keystroke	w	n/a
48.762	0.09	97524	keystroke	r	n/a
48.987	0.105	97974	keystroke	a	n/a
49.137	0.119	98274	keystroke	p	n/a
49.587	0.089	99174	keystroke	Key.enter	n/a
49.686	7.8385	99372	prompt	n/a	peoples graduation viewing nasa\n
50.952	0.09	101904	keystroke	p	n/a
51.072	0.09	102144	keystroke	e	n/a
51.192	0.134	102384	keystroke	o	n/a
51.342	0.12	102684	keystroke	p	n/a
51.567	0.09	103134	keystroke	l	n/a
51.612	0.075	103224	keystroke	e	n/a
51.987	0.09	103974	keystroke	s	n/a
52.272	0.119	104544	keystroke	Key.space	n/a
52.752	0.06	105504	keystroke	g	n/a
52.947	0.06	105894	keystroke	r	n/a
53.067	0.119	106134	keystroke	a	n/a
53.247	0.09	106494	keystroke	d	n/a
53.412	0.06	106824	keystroke	u	n/a
53.487	0.18	106974	keystroke	a	n/a
53.668	0.059	107336	keystroke	t	n/a
53.757	0.09	107514	keystroke	i	n/a
53.862	0.12	107724	keystroke	o	n/a
53.952	0.119	107904	keystroke	n	n/a
54.537	0.12	109074	keystroke	Key.space	n/a
54.837	0.09	109674	keystroke	v	n/a
55.062	0.06	110124	keystroke	i	n/a
55.137	0.165	110274	keystroke	e	n/a
55.271	0.091	110542	keystroke	w	n/a
55.707	0.09	111414	keystroke	i	n/a
55.827	0.075	111654	keystroke	n	n/a
55.917	0.09	111834	keystroke	g	n/a
56.277	0.09	112554	keystroke	Key.space	n/a
56.577	0.075	113154	keystroke	n	n/a
56.682	0.12	113364	keystroke	a	n/a
56.922	0.045	113844	keystroke	s	n/a
57.012	0.12	114024	keystroke	a	n/a
57.387	0.135	114774	keystroke	Key.enter	n/a
57.53	13.0885	115060	prompt	n/a	ladies securities floors bankruptcy\n
58.437	0.06	116874	keystroke	l	n/a
58.557	0.12	117114	keystroke	a	n/a
58.678	0.089	117356	keystroke	d	n/a
58.812	0.075	117624	keystroke	i	n/a
58.902	0.06	117804	keystroke	e	n/a
59.067	0.09	118134	keystroke	s	n/a
59.187	0.105	118374	keystroke	Key.space	n/a
59.412	0.105	118824	keystroke	s	n/a
59.547	0.105	119094	keystroke	e	n/a
60.357	0.105	120714	keystroke	c	n/a
60.537	0.09	121074	keystroke	u	n/a
60.762	0.09	121524	keystroke	r	n/a
60.897	0.09	121794	keystroke	i	n/a
61.032	0.075	122064	keystroke	t	n/a
61.152	0.075	122304	keystroke	y	n/a
62.127	0.09	124254	keystroke	=	n/a
63.717	0.105	127434	keystroke	Key.backspace	n/a
64.077	0.105	128154	keystroke	Key.backspace	n/a
65.142	0.06	130284	keystroke	i	n/a
65.232	0.075	130464	keystroke	e	n/a
65.412	0.09	130824	keystroke	s	n/a
65.517	0.105	131034	keystroke	Key.space	n/a
65.697	0.09	131394	keystroke	f	n/a
65.787	0.075	131574	keystroke	l	n/a
65.967	0.06	131934	keystroke	o	n/a
66.132	0.06	132264	keystroke	o	n/a
66.222	0.09	132444	keystroke	r	n/a
66.432	0.09	132864	keystroke	s	n/a
66.747	0.105	133494	keystroke	Key.space	n/a
67.227	0.074	134454	keystroke	b	n/a
67.421	0.106	134842	keystroke	a	n/a
67.557	0.09	135114	keystroke	n	n/a
67.707	0.075	135414	keystroke	k	n/a
68.396	0.106	136792	keystroke	r	n/a
68.622	0.105	137244	keystroke	u	n/a
68.906	0.091	137812	keystroke	p	n/a
69.102	0.074	138204	keystroke	t	n/a
69.327	0.09	138654	keystroke	c	n/a
70.017	0.075	140034	keystroke	y	n/a
70.511	0.105	141022	keystroke	Key.enter	n/a
70.623	7.2705	141246	prompt	n/a	decades oman ringtones this\n
71.397	0.09	142794	keystroke	d	n/a
71.607	0.074	143214	keystroke	e	n/a
71.816	0.136	143632	keystroke	c	n/a
71.982	0.15	143964	keystroke	a	n/a
72.132	0.06	144264	keystroke	d	n/a
72.282	0.075	144564	keystroke	e	n/a
72.447	0.104	144894	keystroke	s	n/a
72.866	0.106	145732	keystroke	Key.space	n/a
73.332	0.09	146664	keystroke	o	n/a
73.557	0.075	147114	keystroke	m	n/a
73.722	0.105	147444	keystroke	a	n/a
73.812	0.075	147624	keystroke	n	n/a
74.187	0.119	148374	keystroke	Key.space	n/a
74.682	0.075	149364	keystroke	r	n/a
74.847	0.075	149694	keystroke	i	n/a
75.1765	0.075	150353	keystroke	n	n/a
75.7915	0.09	151583	keystroke	g	n/a
76.0765	0.075	152153	keystroke	t	n/a
76.1965	0.09	152393	keystroke	o	n/a
76.3615	0.075	152723	keystroke	n	n/a
76.4515	0.075	152903	keystroke	e	n/a
76.6315	0.09	153263	keystroke	s	n/a
76.8865	0.09	153773	keystroke	Key.space	n/a
77.0515	0.075	154103	keystroke	t	n/a
77.1715	0.12	154343	keystroke	h	n/a
77.3065	0.09	154613	keystroke	i	n/a
77.4415	0.09	154883	keystroke	s	n/a
77.7865	0.105	155573	keystroke	Key.enter	n/a
77.9015	10.792	155803	prompt	n/a	invitation portfolio deluxe dollar\n
78.7015	0.075	157403	keystroke	i	n/a
78.8515	0.075	157703	keystroke	n	n/a
79.0315	0.09	158063	keystroke	v	n/a
79.2115	0.045	158423	keystroke	i	n/a
79.4065	0.075	158813	keystroke	t	n/a
79.6315	0.165	159263	keystroke	a	n/a
79.8415	0.075	159683	keystroke	t	n/a
79.9315	0.0455	159863	keystroke	i	n/a
79.992	0.105	159984	keystroke	o	n/a
80.082	0.12	160164	keystroke	n	n/a
80.561	0.121	161122	keystroke	Key.space	n/a
80.997	0.12	161994	keystroke	p	n/a
81.4765	0.06	162953	keystroke	o	n/a
81.5825	0.089	163165	keystroke	r	n/a
81.7765	0.075	163553	keystroke	t	n/a
82.0465	0.105	164093	keystroke	f	n/a
82.1815	0.06	164363	keystroke	o	n/a
82.4065	0.105	164813	keystroke	l	n/a
82.5715	0.135	165143	keystroke	i	n/a
82.6915	0.105	165383	keystroke	o	n/a
83.0665	0.09	166133	keystroke	Key.space	n/a
83.3965	0.075	166793	keystroke	d	n/a
83.5765	0.075	167153	keystroke	e	n/a
83.7415	0.105	167483	keystroke	l	n/a
83.9515	0.076	167903	keystroke	u	n/a
84.1615	0.09	168323	keystroke	z	n/a
84.2815	0.09	168563	keystroke	e	n/a
85.4965	0.075	170993	keystroke	Key.backspace	n/a
85.7515	0.09	171503	keystroke	Key.backspace	n/a
86.4115	0.075	172823	keystroke	x	n/a
86.6215	0.075	173243	keystroke	e	n/a
87.2065	0.12	174413	keystroke	Key.space	n/a
87.5965	0.075	175193	keystroke	d	n/a
87.7165	0.0755	175433	keystroke	o	n/a
87.927	0.075	175854	keystroke	l	n/a
88.091	0.075	176182	keystroke	l	n/a
88.182	0.15	176364	keystroke	a	n/a
88.271	0.09	176542	keystroke	r	n/a
88.571	0.12	177142	keystroke	Key.enter	n/a
88.699	9.5645	177398	prompt	n/a	simulation modular optional dance\n
89.442	0.1045	178884	keystroke	s	n/a
89.5765	0.075	179153	keystroke	i	n/a
89.8015	0.09	179603	keystroke	m	n/a
90.0265	0.075	180053	keystroke	u	n/a
90.251	0.076	180502	keystroke	l	n/a
90.371	0.195	180742	keystroke	a	n/a
90.507	0.089	181014	keystroke	t	n/a
90.552	0.089	181104	keystroke	i	n/a
90.656	0.06	181312	keystroke	o	n/a
90.701	0.135	181402	keystroke	n	n/a
91.182	0.119	182364	keystroke	Key.space	n/a
91.586	0.075	183172	keystroke	m	n/a
91.706	0.075	183412	keystroke	o	n/a
91.826	0.09	183652	keystroke	d	n/a
91.961	0.091	183922	keystroke	u	n/a
92.187	0.075	184374	keystroke	l	n/a
92.291	0.12	184582	keystroke	a	n/a
92.381	0.075	184762	keystroke	r	n/a
92.906	0.12	185812	keystroke	Key.space	n/a
93.266	0.136	186532	keystroke	o	n/a
93.446	0.12	186892	keystroke	p	n/a
93.597	0.089	187194	keystroke	t	n/a
93.716	0.12	187432	keystroke	i	n/a
93.896	0.12	187792	keystroke	n	n/a
94.002	0.119	188004	keystroke	a	n/a
95.051	0.12	190102	keystroke	Key.backspace	n/a
95.351	0.075	190702	keystroke	Key.backspace	n/a
95.831	0.09	191662	keystroke	o	n/a
95.967	0.09	191934	keystroke	n	n/a
96.072	0.104	192144	keystroke	a	n/a
96.192	0.09	192384	keystroke	l	n/a
96.612	0.119	193224	keystroke	Key.space	n/a
97.076	0.076	194152	keystroke	d	n/a
97.212	0.15	194424	keystroke	a	n/a
97.377	0.09	194754	keystroke	n	n/a
97.467	0.12	194934	keystroke	c	n/a
97.572	0.09	195144	keystroke	e	n/a
98.187	0.074	196374	keystroke	Key.enter	n/a
98.2685	8.32	196537	prompt	n/a	logged picked rendering keyboard\n
98.937	0.075	197874	keystroke	l	n/a
99.147	0.06	198294	keystroke	o	n/a
99.237	0.075	198474	keystroke	g	n/a
99.402	0.075	198804	keystroke	g	n/a
99.582	0.075	199164	keystroke	e	n/a
99.761	0.091	199522	keystroke	d	n/a
100.136	0.105	200272	keystroke	Key.space	n/a
100.541	0.106	201082	keystroke	p	n/a
100.706	0.076	201412	keystroke	i	n/a
100.827	0.105	201654	keystroke	c	n/a
100.962	0.09	201924	keystroke	k	n/a
101.097	0.09	202194	keystroke	e	n/a
101.307	0.074	202614	keystroke	d	n/a
101.636	0.135	203272	keystroke	Key.space	n/a
102.087	0.105	204174	keystroke	r	n/a
102.987	0.075	205974	keystroke	e	n/a
103.257	0.045	206514	keystroke	n	n/a
103.422	0.105	206844	keystroke	d	n/a
103.752	0.135	207504	keystroke	e	n/a
103.842	0.105	207684	keystroke	r	n/a
104.007	0.075	208014	keystroke	i	n/a
104.111	0.076	208222	keystroke	n	n/a
104.171	0.09	208342	keystroke	g	n/a
104.457	0.12	208914	keystroke	Key.space	n/a
104.877	0.075	209754	keystroke	k	n/a
104.982	0.09	209964	keystroke	e	n/a
105.116	0.075	210232	keystroke	y	n/a
105.402	0.09	210804	keystroke	b	n/a
105.552	0.075	211104	keystroke	o	n/a
105.687	0.135	211374	keystroke	a	n/a
105.777	0.089	211554	keystroke	r	n/a
105.956	0.09	211912	keystroke	d	n/a
106.527	0.059	213054	keystroke	Key.enter	n/a
106.593	8.8455	213186	prompt	n/a	sustainability school steel perspectives\n
107.637	0.09	215274	keystroke	s	n/a
107.786	0.076	215572	keystroke	u	n/a
107.877	0.105	215754	keystroke	s	n/a
108.027	0.09	216054	keystroke	t	n/a
108.177	0.119	216354	keystroke	a	n/a
108.297	0.075	216594	keystroke	i	n/a
108.431	0.076	216862	keystroke	n	n/a
108.612	0.105	217224	keystroke	a	n/a
108.761	0.106	217522	keystroke	b	n/a
108.957	0.075	217914	keystroke	i	n/a
109.152	0.134	218304	keystroke	l	n/a
109.257	0.105	218514	keystroke	i	n/a
109.392	0.075	218784	keystroke	t	n/a
109.497	0.075	218994	keystroke	y	n/a
109.781	0.105	219562	keystroke	Key.space	n/a
110.4115	0.09	220823	keystroke	s	n/a
110.5465	0.12	221093	keystroke	c	n/a
110.6515	0.075	221303	keystroke	h	n/a
110.8165	0.075	221633	keystroke	o	n/a
111.0415	0.075	222083	keystroke	o	n/a
111.2665	0.075	222533	keystroke	l	n/a
111.6415	0.075	223283	keystroke	Key.space	n/a
111.9265	0.06	223853	keystroke	s	n/a
112.0615	0.09	224123	keystroke	t	n/a
112.2865	0.075	224573	keystroke	e	n/a
112.4365	0.09	224873	keystroke	e	n/a
112.6615	0.075	225323	keystroke	l	n/a
112.9465	0.12	225893	keystroke	Key.space	n/a
113.2615	0.12	226523	keystroke	p	n/a
113.3965	0.12	226793	keystroke	e	n/a
113.5015	0.09	227003	keystroke	r	n/a
113.6965	0.09	227393	keystroke	s	n/a
113.8765	0.105	227753	keystroke	p	n/a
113.9665	0.09	227933	keystroke	e	n/a
114.1765	0.075	228353	keystroke	c	n/a
114.4015	0.06	228803	keystroke	t	n/a
114.4915	0.075	228983	keystroke	i	n/a
114.6415	0.075	229283	keystroke	v	n/a
114.7915	0.09	229583	keystroke	e	n/a
114.9715	0.09	229943	keystroke	s	n/a
115.3315	0.105	230663	keystroke	Key.enter	n/a
115.4445	6.1605	230889	prompt	n/a	regard strikes priest like\n
116.2165	0.09	232433	keystroke	r	n/a
116.3215	0.09	232643	keystroke	e	n/a
116.4865	0.105	232973	keystroke	g	n/a
116.6665	0.195	233333	keystroke	a	n/a
116.7865	0.105	233573	keystroke	r	n/a
116.9515	0.09	233903	keystroke	d	n/a
117.3715	0.135	234743	keystroke	Key.space	n/a
117.6415	0.09	235283	keystroke	s	n/a
117.7615	0.075	235523	keystroke	t	n/a
117.9265	0.09	235853	keystroke	r	n/a
118.0615	0.075	236123	keystroke	i	n/a
118.2715	0.06	236543	keystroke	k	n/a
118.3615	0.045	236723	keystroke	e	n/a
118.5115	0.09	237023	keystroke	s	n/a
118.8565	0.15	237713	keystroke	Key.space	n/a
119.3515	0.105	238703	keystroke	p	n/a
119.4715	0.075	238943	keystroke	r	n/a
119.6515	0.075	239303	keystroke	i	n/a
119.7275	0.074	239455	keystroke	e	n/a
119.9065	0.12	239813	keystroke	s	n/a
120.4465	0.06	240893	keystroke	t	n/a
120.6265	0.135	241253	keystroke	Key.space	n/a
120.8365	0.06	241673	keystroke	l	n/a
120.9565	0.075	241913	keystroke	i	n/a
121.1665	0.075	242333	keystroke	k	n/a
121.2425	0.074	242485	keystroke	e	n/a
121.5265	0.075	243053	keystroke	Key.enter	n/a
121.61	7.719	243220	prompt	n/a	leadership party where's eagles\n
122.4715	0.09	244943	keystroke	l	n/a
122.5465	0.075	245093	keystroke	e	n/a
122.7115	0.15	245423	keystroke	a	n/a
122.9515	0.075	245903	keystroke	d	n/a
123.1315	0.12	246263	keystroke	e	n/a
123.2215	0.09	246443	keystroke	r	n/a
123.4165	0.105	246833	keystroke	s	n/a
123.5065	0.075	247013	keystroke	h	n/a
123.5965	0.135	247193	keystroke	i	n/a
123.7325	0.119	247465	keystroke	p	n/a
124.0465	0.135	248093	keystroke	Key.space	n/a
124.3165	0.12	248633	keystroke	p	n/a
124.3915	0.165	248783	keystroke	a	n/a
124.4965	0.105	248993	keystroke	r	n/a
124.7065	0.09	249413	keystroke	t	n/a
124.8125	0.089	249625	keystroke	y	n/a
125.2465	0.09	250493	keystroke	Key.space	n/a
125.5165	0.075	251033	keystroke	w	n/a
125.7115	0.06	251423	keystroke	h	n/a
125.9215	0.12	251843	keystroke	e	n/a
126.0565	0.12	252113	keystroke	r	n/a
126.1465	0.105	252293	keystroke	e	n/a
127.9015	0.105	255803	keystroke	;	n/a
128.0365	0.09	256073	keystroke	s	n/a
129.2215	0.105	258443	keystroke	Key.enter	n/a
129.335	0.2035	258670	prompt	n/a	biodiversity lives organize yours\n
129.4165	0.12	258833	keystroke	Key.enter	n/a
129.545	9.5925	259090	prompt	n/a	granny canon terror prayer\n
131.3525	0.074	262705	keystroke	g	n/a
131.5465	0.075	263093	keystroke	r	n/a
131.6965	0.12	263393	keystroke	a	n/a
131.9515	0.061	263903	keystroke	n	n/a
132.2065	0.0745	264413	keystroke	n	n/a
132.416	0.075	264832	keystroke	y	n/a
132.971	0.12	265942	keystroke	Key.space	n/a
133.166	0.075	266332	keystroke	c	n/a
133.271	0.135	266542	keystroke	a	n/a
134.352	0.104	268704	keystroke	n	n/a
134.996	0.135	269992	keystroke	o	n/a
135.176	0.09	270352	keystroke	n	n/a
135.746	0.12	271492	keystroke	Key.space	n/a
135.986	0.06	271972	keystroke	t	n/a
136.106	0.09	272212	keystroke	e	n/a
136.301	0.06	272602	keystroke	r	n/a
136.421	0.09	272842	keystroke	r	n/a
136.616	0.076	273232	keystroke	o	n/a
136.676	0.075	273352	keystroke	r	n/a
136.856	0.12	273712	keystroke	Key.space	n/a
137.622	0.09	275244	keystroke	p	n/a
137.726	0.09	275452	keystroke	r	n/a
137.907	0.104	275814	keystroke	a	n/a
138.027	0.09	276054	keystroke	y	n/a
138.161	0.121	276322	keystroke	e	n/a
138.252	0.12	276504	keystroke	r	n/a
139.046	0.09	278092	keystroke	Key.enter	n/a
139.142	12.191	278284	prompt	n/a	continuously practitioner corresponding owns\n
140.697	0.074	281394	keystroke	c	n/a
140.862	0.074	281724	keystroke	o	n/a
140.997	0.104	281994	keystroke	n	n/a
141.206	0.076	282412	keystroke	t	n/a
141.311	0.076	282622	keystroke	i	n/a
141.506	0.091	283012	keystroke	n	n/a
142.2415	0.089	284483	keystroke	u	n/a
142.5715	0.0905	285143	keystroke	o	n/a
142.6905	0.106	285381	keystroke	u	n/a
142.826	0.0895	285652	keystroke	s	n/a
143.0655	0.106	286131	keystroke	l	n/a
143.2015	0.089	286403	keystroke	y	n/a
143.5155	0.105	287031	keystroke	Key.space	n/a
144.0855	0.121	288171	keystroke	p	n/a
144.1915	0.09	288383	keystroke	r	n/a
144.6865	0.149	289373	keystroke	a	n/a
144.8815	0.089	289763	keystroke	c	n/a
145.1355	0.061	290271	keystroke	t	n/a
145.2265	0.06	290453	keystroke	i	n/a
145.3605	0.075	290721	keystroke	t	n/a
145.4655	0.105	290931	keystroke	i	n/a
145.5855	0.091	291171	keystroke	o	n/a
145.7065	0.09	291413	keystroke	n	n/a
145.7815	0.104	291563	keystroke	e	n/a
145.8715	0.09	291743	keystroke	r	n/a
146.8755	0.075	293751	keystroke	Key.space	n/a
147.6265	0.089	295253	keystroke	c	n/a
147.7765	0.09	295553	keystroke	o	n/a
147.8815	0.06	295763	keystroke	r	n/a
148.0465	0.105	296093	keystroke	r	n/a
148.1365	0.09	296273	keystroke	e	n/a
148.3165	0.089	296633	keystroke	s	n/a
148.4355	0.136	296871	keystroke	p	n/a
148.6015	0.105	297203	keystroke	o	n/a
148.7515	0.075	297503	keystroke	n	n/a
148.8415	0.09	297683	keystroke	d	n/a
148.9765	0.045	297953	keystroke	i	n/a
149.0655	0.076	298131	keystroke	n	n/a
149.1265	0.075	298253	keystroke	g	n/a
149.8465	0.09	299693	keystroke	Key.space	n/a
150.1615	0.075	300323	keystroke	o	n/a
150.2515	0.075	300503	keystroke	w	n/a
150.5515	0.075	301103	keystroke	n	n/a
150.7315	0.06	301463	keystroke	s	n/a
151.2265	0.105	302453	keystroke	Key.enter	n/a
151.338	10.7655	302676	prompt	n/a	bikini the approved elevation\n
152.2465	0.09	304493	keystroke	b	n/a
152.4715	0.075	304943	keystroke	i	n/a
152.7115	0.09	305423	keystroke	k	n/a
152.9065	0.06	305813	keystroke	i	n/a
153.0715	0.105	306143	keystroke	n	n/a
153.2065	0.075	306413	keystroke	i	n/a
153.7615	0.075	307523	keystroke	Key.space	n/a
153.9265	0.075	307853	keystroke	t	n/a
154.0315	0.09	308063	keystroke	h	n/a
154.1065	0.075	308213	keystroke	e	n/a
154.2555	0.106	308511	keystroke	Key.space	n/a
154.5115	0.09	309023	keystroke	a	n/a
154.6315	0.105	309263	keystroke	p	n/a
154.7965	0.135	309593	keystroke	p	n/a
154.9465	0.075	309893	keystroke	r	n/a
155.096	0.06	310192	keystroke	o	n/a
155.171	0.09	310342	keystroke	v	n/a
155.322	0.075	310644	keystroke	e	n/a
155.471	0.09	310942	keystroke	d	n/a
155.666	0.12	311332	keystroke	Key.space	n/a
155.892	0.0735	311784	keystroke	e	n/a
156.2365	0.075	312473	keystroke	l	n/a
156.3865	0.045	312773	keystroke	e	n/a
156.5665	0.105	313133	keystroke	v	n/a
156.7465	0.195	313493	keystroke	a	n/a
156.9115	0.075	313823	keystroke	t	n/a
157.0615	0.0745	314123	keystroke	o	n/a
159.041	0.12	318082	keystroke	]	n/a
160.136	0.075	320272	keystroke	Key.backspace	n/a
160.361	0.06	320722	keystroke	Key.backspace	n/a
161.007	0.119	322014	keystroke	i	n/a
161.141	0.1205	322282	keystroke	o	n/a
161.2315	0.135	322463	keystroke	n	n/a
162.011	0.09	324022	keystroke	Key.enter	n/a
162.1085	8.65	324217	prompt	n/a	dark saddam fundamentals screensavers\n
162.881	0.075	325762	keystroke	d	n/a
163.016	0.165	326032	keystroke	a	n/a
163.151	0.09	326302	keystroke	r	n/a
163.256	0.06	326512	keystroke	k	n/a
163.571	0.105	327142	keystroke	Key.space	n/a
163.991	0.075	327982	keystroke	s	n/a
164.021	0.165	328042	keystroke	a	n/a
164.846	0.105	329692	keystroke	d	n/a
165.041	0.105	330082	keystroke	d	n/a
165.281	0.105	330562	keystroke	a	n/a
165.401	0.06	330802	keystroke	m	n/a
165.626	0.09	331252	keystroke	Key.space	n/a
165.761	0.09	331522	keystroke	f	n/a
165.896	0.06	331792	keystroke	u	n/a
166.196	0.06	332392	keystroke	n	n/a
167.426	0.075	334852	keystroke	d	n/a
167.561	0.135	335122	keystroke	a	n/a
167.771	0.06	335542	keystroke	m	n/a
167.861	0.09	335722	keystroke	e	n/a
167.981	0.075	335962	keystroke	n	n/a
168.057	0.089	336114	keystroke	t	n/a
168.236	0.09	336472	keystroke	a	n/a
168.311	0.075	336622	keystroke	l	n/a
168.416	0.09	336832	keystroke	s	n/a
168.5515	0.104	337103	keystroke	Key.space	n/a
168.7155	0.09	337431	keystroke	s	n/a
168.8815	0.075	337763	keystroke	c	n/a
169.0915	0.09	338183	keystroke	r	n/a
169.2415	0.105	338483	keystroke	e	n/a
169.4065	0.09	338813	keystroke	e	n/a
169.5265	0.075	339053	keystroke	n	n/a
169.6605	0.106	339321	keystroke	s	n/a
169.8555	0.165	339711	keystroke	a	n/a
169.9605	0.105	339921	keystroke	v	n/a
170.1265	0.15	340253	keystroke	e	n/a
170.2605	0.091	340521	keystroke	r	n/a
170.4715	0.074	340943	keystroke	s	n/a
170.6515	0.105	341303	keystroke	Key.enter	n/a
170.764	7.0595	341528	prompt	n/a	obligation amendments intended vertical\n
171.7005	0.091	343401	keystroke	o	n/a
171.8815	0.059	343763	keystroke	b	n/a
172.0765	0.09	344153	keystroke	l	n/a
172.2265	0.06	344453	keystroke	i	n/a
172.3465	0.09	344693	keystroke	g	n/a
172.5115	0.135	345023	keystroke	a	n/a
172.7065	0.06	345413	keystroke	t	n/a
172.7815	0.09	345563	keystroke	i	n/a
172.8405	0.135	345681	keystroke	o	n/a
172.9465	0.12	345893	keystroke	n	n/a
173.4265	0.12	346853	keystroke	Key.space	n/a
173.651	0.105	347302	keystroke	a	n/a
173.801	0.105	347602	keystroke	m	n/a
173.906	0.075	347812	keystroke	e	n/a
174.041	0.0755	348082	keystroke	n	n/a
174.146	0.09	348292	keystroke	d	n/a
174.4165	0.0595	348833	keystroke	m	n/a
174.506	0.075	349012	keystroke	e	n/a
174.6265	0.0445	349253	keystroke	n	n/a
174.686	0.075	349372	keystroke	t	n/a
174.881	0.09	349762	keystroke	s	n/a
175.002	0.104	350004	keystroke	Key.space	n/a
175.227	0.074	350454	keystroke	i	n/a
175.331	0.0755	350662	keystroke	n	n/a
175.496	0.075	350992	keystroke	t	n/a
175.631	0.105	351262	keystroke	e	n/a
175.871	0.075	351742	keystroke	n	n/a
175.961	0.06	351922	keystroke	d	n/a
176.111	0.075	352222	keystroke	e	n/a
176.276	0.06	352552	keystroke	d	n/a
176.396	0.105	352792	keystroke	Key.space	n/a
176.546	0.09	353092	keystroke	v	n/a
176.7865	0.075	353573	keystroke	e	n/a
176.8465	0.09	353693	keystroke	r	n/a
177.0565	0.075	354113	keystroke	t	n/a
177.1465	0.06	354293	keystroke	i	n/a
177.2515	0.12	354503	keystroke	c	n/a
177.3865	0.12	354773	keystroke	a	n/a
177.4615	0.06	354923	keystroke	l	n/a
177.7465	0.075	355493	keystroke	Key.enter	n/a
177.831	12.0825	355662	prompt	n/a	compliant wednesday goals variety\n
178.4665	0.105	356933	keystroke	c	n/a
178.6465	0.09	357293	keystroke	o	n/a
178.8555	0.106	357711	keystroke	m	n/a
179.0515	0.104	358103	keystroke	p	n/a
179.2615	0.075	358523	keystroke	l	n/a
181.5135	0.013	363027	keystroke	i	n/a
181.5715	0.15	363143	keystroke	a	n/a
181.6905	0.06	363381	keystroke	n	n/a
181.7655	0.076	363531	keystroke	t	n/a
182.0215	0.105	364043	keystroke	Key.space	n/a
182.7265	0.134	365453	keystroke	w	n/a
182.8315	0.104	365663	keystroke	e	n/a
183.0565	0.06	366113	keystroke	d	n/a
183.2965	0.075	366593	keystroke	n	n/a
183.4015	0.06	366803	keystroke	e	n/a
183.5665	0.075	367133	keystroke	s	n/a
184.1365	0.075	368273	keystroke	d	n/a
184.2715	0.105	368543	keystroke	a	n/a
184.3915	0.06	368783	keystroke	y	n/a
184.7805	0.09	369561	keystroke	Key.space	n/a
185.0965	0.06	370193	keystroke	g	n/a
185.2465	0.075	370493	keystroke	o	n/a
187.9495	0.057	375899	keystroke	a	n/a
187.9615	0.09	375923	keystroke	l	n/a
188.0815	0.09	376163	keystroke	s	n/a
188.2765	0.075	376553	keystroke	Key.space	n/a
188.6215	0.09	377243	keystroke	v	n/a
188.8315	0.18	377663	keystroke	a	n/a
188.9815	0.075	377963	keystroke	r	n/a
189.2365	0.09	378473	keystroke	i	n/a
189.3105	0.106	378621	keystroke	e	n/a
189.4315	0.09	378863	keystroke	t	n/a
189.5365	0.045	379073	keystroke	y	n/a
189.8215	0.089	379643	keystroke	Key.enter	n/a
189.918	7.06	379836	prompt	n/a	over colleague encouraging insertion\n
190.7965	0.09	381593	keystroke	o	n/a
190.9315	0.09	381863	keystroke	v	n/a
191.0815	0.105	382163	keystroke	e	n/a
191.1565	0.105	382313	keystroke	r	n/a
191.3815	0.09	382763	keystroke	Key.space	n/a
191.6065	0.075	383213	keystroke	c	n/a
191.7115	0.075	383423	keystroke	o	n/a
191.9215	0.06	383843	keystroke	l	n/a
192.0715	0.075	384143	keystroke	l	n/a
192.1915	0.09	384383	keystroke	e	n/a
192.3565	0.15	384713	keystroke	a	n/a
192.4915	0.075	384983	keystroke	g	n/a
192.6565	0.06	385313	keystroke	u	n/a
192.7165	0.075	385433	keystroke	e	n/a
193.1365	0.12	386273	keystroke	Key.space	n/a
193.4665	0.075	386933	keystroke	e	n/a
193.6315	0.06	387263	keystroke	n	n/a
193.7515	0.075	387503	keystroke	c	n/a
193.8715	0.105	387743	keystroke	o	n/a
193.9915	0.09	387983	keystroke	u	n/a
194.0515	0.09	388103	keystroke	r	n/a
194.2015	0.15	388403	keystroke	a	n/a
194.3215	0.09	388643	keystroke	g	n/a
194.4265	0.075	388853	keystroke	i	n/a
194.5165	0.09	389033	keystroke	n	n/a
194.5765	0.075	389153	keystroke	g	n/a
194.9815	0.075	389963	keystroke	Key.space	n/a
195.4615	0.06	390923	keystroke	i	n/a
195.5515	0.075	391103	keystroke	n	n/a
195.7165	0.075	391433	keystroke	s	n/a
195.9855	0.15	391971	keystroke	e	n/a
196.1055	0.075	392211	keystroke	r	n/a
196.2855	0.09	392571	keystroke	t	n/a
196.3915	0.135	392783	keystroke	i	n/a
196.5105	0.105	393021	keystroke	o	n/a
196.6015	0.165	393203	keystroke	n	n/a
196.8865	0.089	393773	keystroke	Key.enter	n/a
196.982	16.451	393964	prompt	n/a	choose controversial degrees november\n
197.7265	0.105	395453	keystroke	c	n/a
197.8605	0.061	395721	keystroke	h	n/a
197.9965	0.059	395993	keystroke	o	n/a
198.1315	0.074	396263	keystroke	o	n/a
198.2215	0.105	396443	keystroke	s	n/a
198.3105	0.09	396621	keystroke	e	n/a
198.581	0.12	397162	keystroke	Key.space	n/a
199.136	0.075	398272	keystroke	c	n/a
199.226	0.09	398452	keystroke	o	n/a
199.346	0.09	398692	keystroke	n	n/a
199.466	0.075	398932	keystroke	t	n/a
199.616	0.09	399232	keystroke	r	n/a
199.766	0.075	399532	keystroke	o	n/a
199.9465	0.0745	399893	keystroke	v	n/a
200.141	0.105	400282	keystroke	e	n/a
200.231	0.105	400462	keystroke	r	n/a
200.441	0.105	400882	keystroke	s	n/a
200.606	0.045	401212	keystroke	i	n/a
200.726	0.09	401452	keystroke	a	n/a
200.816	0.09	401632	keystroke	l	n/a
201.161	0.09	402322	keystroke	Key.space	n/a
201.476	0.06	402952	keystroke	d	n/a
201.611	0.09	403222	keystroke	e	n/a
201.791	0.09	403582	keystroke	g	n/a
201.986	0.12	403972	keystroke	r	n/a
202.121	0.075	404242	keystroke	e	n/a
202.286	0.09	404572	keystroke	e	n/a
202.511	0.09	405022	keystroke	s	n/a
202.751	0.105	405502	keystroke	Key.space	n/a
203.591	0.045	407182	keystroke	n	n/a
203.651	0.09	407302	keystroke	o	n/a
203.801	0.09	407602	keystroke	v	n/a
203.936	0.09	407872	keystroke	e	n/a
204.071	0.06	408142	keystroke	m	n/a
204.221	0.075	408442	keystroke	n	n/a
204.281	0.105	408562	keystroke	e	n/a
204.371	0.09	408742	keystroke	r	n/a
206.381	0.03	412762	keystroke	Key.backspace	n/a
206.546	0.105	413092	keystroke	Key.backspace	n/a
206.741	0.105	413482	keystroke	Key.backspace	n/a
206.951	0.075	413902	keystroke	Key.backspace	n/a
207.716	0.105	415432	keystroke	Key.backspace	n/a
208.301	0.045	416602	keystroke	m	n/a
208.691	0.09	417382	keystroke	e	n/a
209.8465	0.105	419693	keystroke	Key.backspace	n/a
211.2565	0.105	422513	keystroke	Key.backspace	n/a
211.9765	0.09	423953	keystroke	e	n/a
212.1565	0.06	424313	keystroke	m	n/a
212.4715	0.075	424943	keystroke	b	n/a
212.6815	0.105	425363	keystroke	e	n/a
212.7565	0.09	425513	keystroke	r	n/a
213.3265	0.105	426653	keystroke	Key.enter	n/a
213.4375	6.97	426875	prompt	n/a	celebs majority pursue deposit\n
214.1815	0.09	428363	keystroke	c	n/a
214.4065	0.09	428813	keystroke	e	n/a
214.6915	0.12	429383	keystroke	l	n/a
214.7965	0.075	429593	keystroke	e	n/a
214.9315	0.075	429863	keystroke	b	n/a
215.0665	0.09	430133	keystroke	s	n/a
215.2915	0.09	430583	keystroke	Key.space	n/a
215.4865	0.09	430973	keystroke	m	n/a
215.5915	0.12	431183	keystroke	a	n/a
215.9365	0.06	431873	keystroke	j	n/a
216.1015	0.09	432203	keystroke	o	n/a
216.2515	0.105	432503	keystroke	r	n/a
216.3715	0.105	432743	keystroke	i	n/a
216.5065	0.06	433013	keystroke	t	n/a
216.6115	0.09	433223	keystroke	y	n/a
216.9865	0.06	433973	keystroke	Key.space	n/a
217.5115	0.105	435023	keystroke	p	n/a
217.9615	0.075	435923	keystroke	u	n/a
218.0665	0.075	436133	keystroke	r	n/a
218.3365	0.105	436673	keystroke	s	n/a
218.4565	0.09	436913	keystroke	u	n/a
218.5765	0.045	437153	keystroke	e	n/a
218.8165	0.09	437633	keystroke	Key.space	n/a
218.9215	0.09	437843	keystroke	d	n/a
219.0865	0.105	438173	keystroke	e	n/a
219.2815	0.09	438563	keystroke	p	n/a
219.4465	0.09	438893	keystroke	o	n/a
219.5665	0.12	439133	keystroke	s	n/a
219.8965	0.075	439793	keystroke	i	n/a
219.9565	0.075	439913	keystroke	t	n/a
220.3015	0.105	440603	keystroke	Key.enter	n/a
220.4115	8.007	440823	prompt	n/a	trauma prescription canada screen\n
221.2615	0.06	442523	keystroke	t	n/a
221.4715	0.09	442943	keystroke	r	n/a
221.8015	0.105	443603	keystroke	a	n/a
222.5065	0.075	445013	keystroke	u	n/a
222.7615	0.06	445523	keystroke	m	n/a
222.8365	0.105	445673	keystroke	a	n/a
223.1815	0.135	446363	keystroke	Key.space	n/a
223.7815	0.06	447563	keystroke	p	n/a
224.3215	0.09	448643	keystroke	r	n/a
224.4715	0.075	448943	keystroke	e	n/a
224.6965	0.105	449393	keystroke	s	n/a
224.9065	0.075	449813	keystroke	c	n/a
225.1015	0.06	450203	keystroke	r	n/a
225.2215	0.075	450443	keystroke	i	n/a
225.3865	0.09	450773	keystroke	p	n/a
225.4615	0.06	450923	keystroke	t	n/a
225.5665	0.09	451133	keystroke	i	n/a
225.6415	0.12	451283	keystroke	o	n/a
225.7315	0.12	451463	keystroke	n	n/a
226.0015	0.1045	452003	keystroke	Key.space	n/a
226.316	0.09	452632	keystroke	c	n/a
226.451	0.12	452902	keystroke	a	n/a
226.602	0.059	453204	keystroke	n	n/a
226.706	0.12	453412	keystroke	a	n/a
226.841	0.12	453682	keystroke	d	n/a
226.946	0.09	453892	keystroke	a	n/a
227.111	0.105	454222	keystroke	Key.space	n/a
227.261	0.105	454522	keystroke	s	n/a
227.411	0.075	454822	keystroke	c	n/a
227.606	0.09	455212	keystroke	r	n/a
227.756	0.075	455512	keystroke	e	n/a
227.906	0.105	455812	keystroke	e	n/a
228.026	0.105	456052	keystroke	n	n/a
228.311	0.105	456622	keystroke	Key.enter	n/a
228.424	22.4045	456848	prompt	n/a	survival unavailable darkness brutal\n
229.346	0.105	458692	keystroke	s	n/a
229.556	0.075	459112	keystroke	u	n/a
229.661	0.09	459322	keystroke	r	n/a
229.886	0.075	459772	keystroke	v	n/a
230.006	0.06	460012	keystroke	i	n/a
230.096	0.09	460192	keystroke	v	n/a
230.336	0.09	460672	keystroke	a	n/a
230.516	0.06	461032	keystroke	l	n/a
230.756	0.105	461512	keystroke	Key.space	n/a
231.401	0.06	462802	keystroke	u	n/a
231.611	0.06	463222	keystroke	n	n/a
231.791	0.12	463582	keystroke	a	n/a
232.212	0.074	464424	keystroke	v	n/a
232.331	0.075	464662	keystroke	i	n/a
232.556	0.075	465112	keystroke	l	n/a
232.616	0.12	465232	keystroke	a	n/a
232.796	0.105	465592	keystroke	b	n/a
232.946	0.075	465892	keystroke	i	n/a
233.157	0.09	466314	keystroke	l	n/a
233.231	0.12	466462	keystroke	i	n/a
233.352	0.059	466704	keystroke	t	n/a
233.426	0.09	466852	keystroke	y	n/a
233.831	0.06	467662	keystroke	Key.space	n/a
235.286	0.09	470572	keystroke	Key.backspace	n/a
235.946	0.135	471892	keystroke	Key.backspace	n/a
236.2305	0.1055	472461	keystroke	Key.backspace	n/a
236.487	0.074	472974	keystroke	Key.backspace	n/a
238.9035	0.013	477807	keystroke	i	n/a
239.0205	0.09	478041	keystroke	t	n/a
239.1265	0.059	478253	keystroke	y	n/a
240.4605	0.105	480921	keystroke	Key.backspace	n/a
240.6555	0.06	481311	keystroke	Key.backspace	n/a
240.8205	0.06	481641	keystroke	Key.backspace	n/a
243.823	0.028	487646	keystroke	Key.backspace	n/a
243.956	0.06	487912	keystroke	Key.backspace	n/a
244.151	0.045	488302	keystroke	Key.backspace	n/a
244.301	0.09	488602	keystroke	Key.backspace	n/a
244.691	0.09	489382	keystroke	Key.backspace	n/a
244.886	0.09	489772	keystroke	Key.backspace	n/a
246.791	0.135	493582	keystroke	a	n/a
246.911	0.075	493822	keystroke	i	n/a
247.076	0.12	494152	keystroke	l	n/a
247.151	0.135	494302	keystroke	a	n/a
247.301	0.075	494602	keystroke	b	n/a
247.406	0.0905	494812	keystroke	l	n/a
247.466	0.09	494932	keystroke	e	n/a
247.751	0.09	495502	keystroke	Key.space	n/a
248.426	0.09	496852	keystroke	d	n/a
248.576	0.18	497152	keystroke	a	n/a
248.696	0.076	497392	keystroke	r	n/a
248.831	0.105	497662	keystroke	k	n/a
249.056	0.09	498112	keystroke	n	n/a
249.131	0.075	498262	keystroke	e	n/a
249.311	0.06	498622	keystroke	s	n/a
249.431	0.105	498862	keystroke	s	n/a
249.581	0.075	499162	keystroke	Key.space	n/a
249.776	0.075	499552	keystroke	b	n/a
249.926	0.09	499852	keystroke	r	n/a
250.076	0.075	500152	keystroke	u	n/a
250.181	0.09	500362	keystroke	t	n/a
250.331	0.105	500662	keystroke	a	n/a
250.406	0.105	500812	keystroke	l	n/a
250.721	0.1055	501442	keystroke	Key.enter	n/a
250.8325	11.561	501665	prompt	n/a	customize editor azerbaijan wins\n
251.5465	0.09	503093	keystroke	c	n/a
251.7115	0.06	503423	keystroke	u	n/a
251.8765	0.135	503753	keystroke	s	n/a
251.9965	0.075	503993	keystroke	t	n/a
252.1765	0.06	504353	keystroke	o	n/a
252.5365	0.09	505073	keystroke	m	n/a
255.434	0.012	510868	keystroke	i	n/a
255.521	0.12	511042	keystroke	z	n/a
255.7015	0.075	511403	keystroke	e	n/a
256.0315	0.105	512063	keystroke	Key.space	n/a
256.3315	0.09	512663	keystroke	e	n/a
256.5415	0.09	513083	keystroke	d	n/a
256.6465	0.075	513293	keystroke	i	n/a
256.7515	0.06	513503	keystroke	t	n/a
256.9315	0.045	513863	keystroke	o	n/a
256.9465	0.045	513893	keystroke	r	n/a
257.1855	0.061	514371	keystroke	Key.space	n/a
257.4715	0.105	514943	keystroke	a	n/a
257.7565	0.12	515513	keystroke	z	n/a
258.0415	0.12	516083	keystroke	e	n/a
258.1465	0.105	516293	keystroke	r	n/a
258.5365	0.075	517073	keystroke	b	n/a
259.2865	0.12	518573	keystroke	a	n/a
259.6015	0.09	519203	keystroke	i	n/a
259.8865	0.06	519773	keystroke	j	n/a
260.0815	0.12	520163	keystroke	a	n/a
260.2165	0.06	520433	keystroke	n	n/a
261.2815	0.12	522563	keystroke	Key.space	n/a
261.6115	0.09	523223	keystroke	w	n/a
261.7315	0.09	523463	keystroke	i	n/a
261.8665	0.105	523733	keystroke	n	n/a
262.0015	0.075	524003	keystroke	s	n/a
262.2865	0.105	524573	keystroke	Key.enter	n/a
262.399	10.0745	524798	prompt	n/a	remainder mongolia necklace grill\n
263.1565	0.075	526313	keystroke	r	n/a
263.2465	0.075	526493	keystroke	e	n/a
263.3815	0.075	526763	keystroke	m	n/a
263.6665	0.075	527333	keystroke	i	n/a
264.731	0.075	529462	keystroke	Key.backspace	n/a
265.346	0.105	530692	keystroke	a	n/a
265.481	0.075	530962	keystroke	i	n/a
265.601	0.075	531202	keystroke	n	n/a
265.751	0.075	531502	keystroke	d	n/a
265.916	0.09	531832	keystroke	e	n/a
265.991	0.075	531982	keystroke	r	n/a
266.156	0.075	532312	keystroke	Key.space	n/a
266.366	0.075	532732	keystroke	m	n/a
266.621	0.09	533242	keystroke	o	n/a
266.816	0.075	533632	keystroke	n	n/a
267.026	0.0755	534052	keystroke	g	n/a
267.251	0.075	534502	keystroke	o	n/a
267.536	0.075	535072	keystroke	l	n/a
267.656	0.075	535312	keystroke	i	n/a
267.761	0.105	535522	keystroke	a	n/a
268.151	0.12	536302	keystroke	Key.space	n/a
268.601	0.075	537202	keystroke	n	n/a
268.706	0.09	537412	keystroke	e	n/a
268.901	0.075	537802	keystroke	c	n/a
269.021	0.09	538042	keystroke	k	n/a
270.9255	0.105	541851	keystroke	l	n/a
271.0155	0.135	542031	keystroke	a	n/a
271.1355	0.15	542271	keystroke	c	n/a
271.2555	0.106	542511	keystroke	e	n/a
271.4055	0.105	542811	keystroke	Key.space	n/a
271.5255	0.045	543051	keystroke	g	n/a
271.6605	0.09	543321	keystroke	r	n/a
271.7515	0.074	543503	keystroke	i	n/a
271.9305	0.045	543861	keystroke	l	n/a
272.0505	0.075	544101	keystroke	l	n/a
272.3805	0.09	544761	keystroke	Key.enter	n/a
272.479	8.4835	544958	prompt	n/a	defining commerce memphis fifty\n
273.2515	0.059	546503	keystroke	d	n/a
273.4155	0.06	546831	keystroke	e	n/a
273.5505	0.105	547101	keystroke	f	n/a
273.7305	0.075	547461	keystroke	i	n/a
273.9255	0.075	547851	keystroke	n	n/a
274.0305	0.105	548061	keystroke	i	n/a
274.1655	0.09	548331	keystroke	n	n/a
274.5855	0.075	549171	keystroke	g	n/a
275.231	0.12	550462	keystroke	Key.space	n/a
275.756	0.09	551512	keystroke	c	n/a
276.056	0.075	552112	keystroke	o	n/a
276.281	0.195	552562	keystroke	m	n/a
276.746	0.075	553492	keystroke	m	n/a
277.001	0.15	554002	keystroke	e	n/a
277.091	0.105	554182	keystroke	r	n/a
277.346	0.105	554692	keystroke	c	n/a
277.421	0.105	554842	keystroke	e	n/a
277.676	0.105	555352	keystroke	Key.space	n/a
278.006	0.075	556012	keystroke	m	n/a
278.126	0.09	556252	keystroke	e	n/a
278.366	0.12	556732	keystroke	m	n/a
278.621	0.12	557242	keystroke	p	n/a
278.786	0.075	557572	keystroke	h	n/a
278.921	0.075	557842	keystroke	i	n/a
279.041	0.09	558082	keystroke	s	n/a
279.266	0.105	558532	keystroke	Key.space	n/a
279.461	0.09	558922	keystroke	f	n/a
279.701	0.06	559402	keystroke	i	n/a
279.836	0.075	559672	keystroke	f	n/a
280.061	0.06	560122	keystroke	t	n/a
280.211	0.075	560422	keystroke	y	n/a
280.841	0.12	561682	keystroke	Key.enter	n/a
280.9665	7.8265	561933	prompt	n/a	saving illustrations luxury quickly\n
281.591	0.09	563182	keystroke	s	n/a
281.741	0.15	563482	keystroke	a	n/a
281.861	0.09	563722	keystroke	v	n/a
281.981	0.09	563962	keystroke	i	n/a
282.101	0.09	564202	keystroke	n	n/a
282.146	0.075	564292	keystroke	g	n/a
282.581	0.105	565162	keystroke	Key.space	n/a
283.076	0.06	566152	keystroke	i	n/a
283.3155	0.06	566631	keystroke	l	n/a
283.4805	0.06	566961	keystroke	l	n/a
283.6005	0.075	567201	keystroke	u	n/a
283.7655	0.09	567531	keystroke	s	n/a
283.9305	0.075	567861	keystroke	t	n/a
284.1255	0.075	568251	keystroke	r	n/a
284.2605	0.165	568521	keystroke	a	n/a
284.4705	0.075	568941	keystroke	t	n/a
284.5755	0.105	569151	keystroke	i	n/a
284.6965	0.089	569393	keystroke	o	n/a
284.7555	0.12	569511	keystroke	n	n/a
284.8905	0.0605	569781	keystroke	s	n/a
285.0855	0.1055	570171	keystroke	Key.space	n/a
285.4155	0.075	570831	keystroke	l	n/a
285.6555	0.06	571311	keystroke	u	n/a
285.8955	0.075	571791	keystroke	x	n/a
286.2105	0.06	572421	keystroke	u	n/a
286.4055	0.075	572811	keystroke	r	n/a
286.5705	0.06	573141	keystroke	y	n/a
286.9305	0.075	573861	keystroke	Key.space	n/a
287.3055	0.09	574611	keystroke	q	n/a
287.4705	0.105	574941	keystroke	u	n/a
287.6355	0.075	575271	keystroke	i	n/a
287.8005	0.09	575601	keystroke	c	n/a
287.9805	0.06	575961	keystroke	k	n/a
288.1755	0.09	576351	keystroke	l	n/a
288.3555	0.075	576711	keystroke	y	n/a
288.6855	0.105	577371	keystroke	Key.enter	n/a
288.7975	7.66	577595	prompt	n/a	batman operate arena flour\n
289.6005	0.075	579201	keystroke	b	n/a
289.7355	0.135	579471	keystroke	a	n/a
289.8855	0.03	579771	keystroke	r	n/a
290.0505	0.075	580101	keystroke	m	n/a
291.2355	0.045	582471	keystroke	Key.backspace	n/a
291.4905	0.045	582981	keystroke	Key.backspace	n/a
292.1205	0.06	584241	keystroke	t	n/a
292.3455	0.06	584691	keystroke	m	n/a
292.4655	0.09	584931	keystroke	a	n/a
292.5705	0.06	585141	keystroke	n	n/a
292.8105	0.105	585621	keystroke	Key.space	n/a
293.0655	0.12	586131	keystroke	o	n/a
293.2305	0.12	586461	keystroke	p	n/a
293.3655	0.18	586731	keystroke	e	n/a
293.5305	0.06	587061	keystroke	r	n/a
293.7105	0.135	587421	keystroke	a	n/a
293.8755	0.105	587751	keystroke	t	n/a
293.9655	0.09	587931	keystroke	e	n/a
294.3405	0.09	588681	keystroke	Key.space	n/a
294.5505	0.135	589101	keystroke	a	n/a
294.8655	0.045	589731	keystroke	r	n/a
294.8805	0.075	589761	keystroke	e	n/a
295.0155	0.06	590031	keystroke	n	n/a
295.1055	0.105	590211	keystroke	a	n/a
295.2555	0.105	590511	keystroke	Key.space	n/a
295.4505	0.09	590901	keystroke	f	n/a
295.5855	0.06	591171	keystroke	l	n/a
295.7655	0.09	591531	keystroke	o	n/a
295.8855	0.106	591771	keystroke	u	n/a
295.9755	0.075	591951	keystroke	r	n/a
296.3805	0.075	592761	keystroke	Key.enter	n/a
296.467	6.9355	592934	prompt	n/a	stick verified beads seeds\n
297.1755	0.105	594351	keystroke	s	n/a
297.4755	0.075	594951	keystroke	t	n/a
297.8955	0.0605	595791	keystroke	i	n/a
298.061	0.075	596122	keystroke	c	n/a
298.151	0.09	596302	keystroke	k	n/a
298.766	0.104	597532	keystroke	Key.space	n/a
298.886	0.075	597772	keystroke	v	n/a
299.036	0.1045	598072	keystroke	e	n/a
299.1105	0.12	598221	keystroke	r	n/a
299.7105	0.06	599421	keystroke	i	n/a
299.8605	0.075	599721	keystroke	f	n/a
299.9505	0.06	599901	keystroke	i	n/a
300.0255	0.075	600051	keystroke	e	n/a
300.1755	0.105	600351	keystroke	d	n/a
300.5655	0.12	601131	keystroke	Key.space	n/a
300.926	0.045	601852	keystroke	b	n/a
301.076	0.075	602152	keystroke	e	n/a
301.3	0.136	602600	keystroke	a	n/a
301.496	0.075	602992	keystroke	d	n/a
301.721	0.09	603442	keystroke	s	n/a
302.036	0.104	604072	keystroke	Key.space	n/a
302.396	0.09	604792	keystroke	s	n/a
302.561	0.075	605122	keystroke	e	n/a
302.741	0.06	605482	keystroke	e	n/a
302.905	0.091	605810	keystroke	d	n/a
303.026	0.105	606052	keystroke	s	n/a
303.295	0.105	606590	keystroke	Key.enter	n/a
303.407	9.1905	606814	prompt	n/a	colony tours uncle backgrounds\n
304.241	0.09	608482	keystroke	c	n/a
304.391	0.104	608782	keystroke	o	n/a
304.735	0.076	609470	keystroke	l	n/a
304.916	0.09	609832	keystroke	o	n/a
305.111	0.075	610222	keystroke	n	n/a
305.336	0.06	610672	keystroke	u	n/a
306.296	0.09	612592	keystroke	Key.backspace	n/a
306.821	0.045	613642	keystroke	y	n/a
307.436	0.105	614872	keystroke	Key.space	n/a
307.856	0.075	615712	keystroke	t	n/a
308.096	0.105	616192	keystroke	o	n/a
308.231	0.075	616462	keystroke	u	n/a
308.321	0.06	616642	keystroke	r	n/a
308.471	0.075	616942	keystroke	s	n/a
308.831	0.074	617662	keystroke	Key.space	n/a
309.311	0.045	618622	keystroke	u	n/a
309.506	0.075	619012	keystroke	n	n/a
309.671	0.09	619342	keystroke	c	n/a
309.836	0.09	619672	keystroke	l	n/a
309.941	0.075	619882	keystroke	e	n/a
310.466	0.105	620932	keystroke	Key.space	n/a
310.766	0.075	621532	keystroke	b	n/a
310.886	0.135	621772	keystroke	a	n/a
311.006	0.09	622012	keystroke	c	n/a
311.081	0.06	622162	keystroke	k	n/a
311.351	0.06	622702	keystroke	g	n/a
311.516	0.075	623032	keystroke	r	n/a
311.665	0.121	623330	keystroke	o	n/a
311.801	0.075	623602	keystroke	u	n/a
312.011	0.075	624022	keystroke	n	n/a
312.1	0.076	624200	keystroke	d	n/a
312.236	0.12	624472	keystroke	s	n/a
312.491	0.105	624982	keystroke	Key.enter	n/a
312.605	9.3535	625210	prompt	n/a	spokesman cache ferrari inspiration\n
313.346	0.075	626692	keystroke	s	n/a
313.571	0.105	627142	keystroke	p	n/a
314.006	0.075	628012	keystroke	o	n/a
314.291	0.075	628582	keystroke	k	n/a
314.426	0.075	628852	keystroke	e	n/a
314.606	0.075	629212	keystroke	s	n/a
314.906	0.06	629812	keystroke	m	n/a
314.996	0.09	629992	keystroke	a	n/a
315.116	0.06	630232	keystroke	n	n/a
315.341	0.075	630682	keystroke	Key.space	n/a
315.536	0.105	631072	keystroke	c	n/a
315.671	0.105	631342	keystroke	a	n/a
315.896	0.075	631792	keystroke	c	n/a
316.016	0.075	632032	keystroke	h	n/a
316.136	0.075	632272	keystroke	e	n/a
316.391	0.06	632782	keystroke	Key.space	n/a
316.601	0.09	633202	keystroke	d	n/a
317.441	0.105	634882	keystroke	Key.backspace	n/a
317.966	0.075	635932	keystroke	f	n/a
318.131	0.075	636262	keystroke	e	n/a
318.356	0.06	636712	keystroke	r	n/a
318.491	0.105	636982	keystroke	r	n/a
318.776	0.105	637552	keystroke	a	n/a
318.986	0.075	637972	keystroke	r	n/a
319.121	0.06	638242	keystroke	i	n/a
319.661	0.09	639322	keystroke	Key.space	n/a
320.036	0.075	640072	keystroke	i	n/a
320.156	0.075	640312	keystroke	n	n/a
320.336	0.09	640672	keystroke	s	n/a
320.621	0.09	641242	keystroke	p	n/a
320.846	0.06	641692	keystroke	i	n/a
320.951	0.09	641902	keystroke	r	n/a
321.116	0.1345	642232	keystroke	a	n/a
321.2655	0.06	642531	keystroke	t	n/a
321.3405	0.09	642681	keystroke	i	n/a
321.4455	0.121	642891	keystroke	o	n/a
321.5355	0.135	643071	keystroke	n	n/a
321.8655	0.09	643731	keystroke	Key.enter	n/a
321.9645	6.579	643929	prompt	n/a	routes township keyboard lesbian\n
322.8705	0.075	645741	keystroke	r	n/a
323.0205	0.075	646041	keystroke	o	n/a
323.1405	0.075	646281	keystroke	u	n/a
323.2755	0.045	646551	keystroke	t	n/a
323.3655	0.09	646731	keystroke	e	n/a
323.5755	0.075	647151	keystroke	s	n/a
324.0255	0.045	648051	keystroke	Key.space	n/a
324.3705	0.075	648741	keystroke	t	n/a
324.5205	0.075	649041	keystroke	o	n/a
324.7005	0.075	649401	keystroke	w	n/a
324.8655	0.045	649731	keystroke	n	n/a
325.2705	0.105	650541	keystroke	s	n/a
325.4355	0.09	650871	keystroke	h	n/a
325.5855	0.105	651171	keystroke	i	n/a
325.7355	0.105	651471	keystroke	p	n/a
325.9905	0.105	651981	keystroke	Key.space	n/a
326.2305	0.06	652461	keystroke	k	n/a
326.3205	0.075	652641	keystroke	e	n/a
326.4255	0.075	652851	keystroke	y	n/a
326.6955	0.06	653391	keystroke	b	n/a
326.8005	0.06	653601	keystroke	o	n/a
326.8905	0.165	653781	keystroke	a	n/a
327.0105	0.06	654021	keystroke	r	n/a
327.1455	0.09	654291	keystroke	d	n/a
327.3855	0.075	654771	keystroke	Key.space	n/a
327.5655	0.075	655131	keystroke	l	n/a
327.6105	0.075	655221	keystroke	e	n/a
327.7605	0.09	655521	keystroke	s	n/a
327.8655	0.09	655731	keystroke	b	n/a
328.0155	0.105	656031	keystroke	i	n/a
328.1355	0.09	656271	keystroke	a	n/a
328.2105	0.09	656421	keystroke	n	n/a
328.4505	0.09	656901	keystroke	Key.enter	n/a
328.5485	8.8145	657097	prompt	n/a	woods apparatus jobs ministry\n
329.1705	0.09	658341	keystroke	w	n/a
329.4255	0.06	658851	keystroke	o	n/a
329.5605	0.075	659121	keystroke	o	n/a
329.6505	0.045	659301	keystroke	d	n/a
329.8005	0.075	659601	keystroke	s	n/a
329.9805	0.03	659961	keystroke	Key.space	n/a
330.6555	0.09	661311	keystroke	a	n/a
330.7605	0.075	661521	keystroke	p	n/a
330.9105	0.105	661821	keystroke	p	n/a
332.066	0.105	664132	keystroke	a	n/a
332.261	0.045	664522	keystroke	r	n/a
332.381	0.09	664762	keystroke	a	n/a
334.091	0.06	668182	keystroke	t	n/a
334.196	0.06	668392	keystroke	u	n/a
334.271	0.09	668542	keystroke	s	n/a
334.511	0.105	669022	keystroke	Key.space	n/a
335.2905	0.105	670581	keystroke	j	n/a
335.4255	0.105	670851	keystroke	o	n/a
335.5605	0.075	671121	keystroke	b	n/a
335.6505	0.09	671301	keystroke	s	n/a
335.8005	0.105	671601	keystroke	Key.space	n/a
336.0105	0.09	672021	keystroke	m	n/a
336.1905	0.06	672381	keystroke	i	n/a
336.3255	0.09	672651	keystroke	n	n/a
336.4605	0.06	672921	keystroke	i	n/a
336.5655	0.09	673131	keystroke	s	n/a
336.6865	0.074	673373	keystroke	t	n/a
336.8205	0.105	673641	keystroke	r	n/a
336.9265	0.074	673853	keystroke	y	n/a
337.256	0.105	674512	keystroke	Key.enter	n/a
337.3675	6.9855	674735	prompt	n/a	gamespot talking dame olive\n
338.231	0.06	676462	keystroke	g	n/a
338.336	0.135	676672	keystroke	a	n/a
338.501	0.06	677002	keystroke	m	n/a
338.606	0.06	677212	keystroke	e	n/a
338.771	0.0895	677542	keystroke	s	n/a
339.3705	0.06	678741	keystroke	p	n/a
339.6855	0.06	679371	keystroke	o	n/a
339.7605	0.045	679521	keystroke	t	n/a
340.2705	0.135	680541	keystroke	Key.space	n/a
340.7505	0.06	681501	keystroke	t	n/a
340.8555	0.105	681711	keystroke	a	n/a
340.9905	0.075	681981	keystroke	k	n/a
341.1705	0.06	682341	keystroke	i	n/a
341.2605	0.075	682521	keystroke	n	n/a
341.3655	0.045	682731	keystroke	g	n/a
342.0405	0.105	684081	keystroke	Key.space	n/a
342.2805	0.075	684561	keystroke	d	n/a
342.4005	0.135	684801	keystroke	a	n/a
342.5055	0.075	685011	keystroke	m	n/a
342.6405	0.06	685281	keystroke	e	n/a
342.9855	0.105	685971	keystroke	Key.space	n/a
343.2855	0.09	686571	keystroke	o	n/a
343.6455	0.06	687291	keystroke	l	n/a
343.7955	0.06	687591	keystroke	i	n/a
343.8855	0.075	687771	keystroke	v	n/a
343.9755	0.09	687951	keystroke	e	n/a
344.2605	0.09	688521	keystroke	Key.enter	n/a
344.358	6.1745	688716	prompt	n/a	harry download rack hope\n
345.2655	0.075	690531	keystroke	h	n/a
345.3855	0.15	690771	keystroke	a	n/a
345.5365	0.074	691073	keystroke	r	n/a
345.6855	0.09	691371	keystroke	r	n/a
345.8205	0.06	691641	keystroke	y	n/a
346.2555	0.09	692511	keystroke	Key.space	n/a
346.6755	0.075	693351	keystroke	d	n/a
346.7655	0.06	693531	keystroke	o	n/a
346.9305	0.075	693861	keystroke	w	n/a
347.0205	0.075	694041	keystroke	n	n/a
347.2605	0.075	694521	keystroke	l	n/a
347.5455	0.045	695091	keystroke	o	n/a
347.6355	0.075	695271	keystroke	a	n/a
347.6955	0.075	695391	keystroke	d	n/a
348.1905	0.09	696381	keystroke	Key.space	n/a
348.8355	0.09	697671	keystroke	r	n/a
349.0005	0.15	698001	keystroke	a	n/a
349.1355	0.075	698271	keystroke	c	n/a
349.2555	0.06	698511	keystroke	k	n/a
349.5105	0.09	699021	keystroke	Key.space	n/a
349.7205	0.09	699441	keystroke	h	n/a
349.8255	0.135	699651	keystroke	o	n/a
350.0055	0.09	700011	keystroke	p	n/a
350.0805	0.075	700161	keystroke	e	n/a
350.4405	0.09	700881	keystroke	Key.enter	n/a
350.5375	9.1005	701075	prompt	n/a	luke death uganda logging\n
351.3555	0.09	702711	keystroke	l	n/a
351.4905	0.075	702981	keystroke	i	n/a
352.7505	0.12	705501	keystroke	Key.backspace	n/a
353.2905	0.075	706581	keystroke	u	n/a
353.5605	0.075	707121	keystroke	k	n/a
353.6505	0.075	707301	keystroke	e	n/a
354.0405	0.105	708081	keystroke	Key.space	n/a
354.2955	0.045	708591	keystroke	d	n/a
354.5205	0.075	709041	keystroke	e	n/a
354.6555	0.135	709311	keystroke	a	n/a
354.8355	0.075	709671	keystroke	t	n/a
354.9255	0.06	709851	keystroke	h	n/a
355.541	0.089	711082	keystroke	Key.space	n/a
356.366	0.075	712732	keystroke	u	n/a
356.545	0.091	713090	keystroke	g	n/a
356.6955	0.09	713391	keystroke	a	n/a
356.8005	0.075	713601	keystroke	n	n/a
356.9205	0.09	713841	keystroke	d	n/a
356.9955	0.135	713991	keystroke	a	n/a
357.4005	0.12	714801	keystroke	Key.space	n/a
358.0305	0.03	716061	keystroke	l	n/a
358.1955	0.045	716391	keystroke	o	n/a
358.691	0.059	717382	keystroke	g	n/a
358.841	0.09	717682	keystroke	g	n/a
359.066	0.09	718132	keystroke	i	n/a
359.2	0.106	718400	keystroke	n	n/a
359.261	0.075	718522	keystroke	g	n/a
359.561	0.075	719122	keystroke	Key.enter	n/a
359.6425	10.87	719285	prompt	n/a	shakespeare rights sophisticated period\n
360.266	0.09	720532	keystroke	s	n/a
360.386	0.06	720772	keystroke	h	n/a
360.806	0.074	721612	keystroke	a	n/a
360.911	0.059	721822	keystroke	k	n/a
361.016	0.074	722032	keystroke	e	n/a
361.225	0.091	722450	keystroke	s	n/a
361.645	0.091	723290	keystroke	p	n/a
361.75	0.075	723500	keystroke	e	n/a
361.856	0.134	723712	keystroke	a	n/a
361.93	0.106	723860	keystroke	r	n/a
362.17	0.03	724340	keystroke	e	n/a
362.62	0.09	725240	keystroke	Key.space	n/a
364.814	0	729628	keystroke	r	n/a
364.814	0.056	729628	keystroke	i	n/a
364.945	0.076	729890	keystroke	g	n/a
365.05	0.06	730100	keystroke	h	n/a
365.155	0.06	730310	keystroke	t	n/a
365.366	0.074	730732	keystroke	s	n/a
366.085	0.105	732170	keystroke	Key.space	n/a
366.296	0.119	732592	keystroke	s	n/a
366.4	0.09	732800	keystroke	o	n/a
366.611	0.105	733222	keystroke	p	n/a
366.761	0.09	733522	keystroke	h	n/a
366.911	0.075	733822	keystroke	i	n/a
367.075	0.075	734150	keystroke	s	n/a
367.345	0.045	734690	keystroke	t	n/a
367.435	0.0905	734870	keystroke	i	n/a
367.6755	0.09	735351	keystroke	c	n/a
367.8105	0.12	735621	keystroke	a	n/a
367.9155	0.105	735831	keystroke	t	n/a
368.0055	0.09	736011	keystroke	e	n/a
368.1705	0.09	736341	keystroke	d	n/a
368.5455	0.06	737091	keystroke	Key.space	n/a
369.5055	0.105	739011	keystroke	p	n/a
369.5805	0.09	739161	keystroke	e	n/a
369.6555	0.09	739311	keystroke	r	n/a
369.7755	0.09	739551	keystroke	i	n/a
369.9255	0.045	739851	keystroke	o	n/a
369.9855	0.075	739971	keystroke	d	n/a
370.4055	0.105	740811	keystroke	Key.enter	n/a
370.516	8.8615	741032	prompt	n/a	tulsa guitars harper sample\n
371.29	0.061	742580	keystroke	t	n/a
371.591	0.06	743182	keystroke	u	n/a
371.831	0.06	743662	keystroke	l	n/a
371.906	0.089	743812	keystroke	s	n/a
371.981	0.12	743962	keystroke	a	n/a
372.4	0.061	744800	keystroke	Key.space	n/a
373.211	0.045	746422	keystroke	g	n/a
373.361	0.075	746722	keystroke	u	n/a
373.511	0.09	747022	keystroke	i	n/a
373.691	0.075	747382	keystroke	t	n/a
373.886	0.135	747772	keystroke	a	n/a
373.991	0.09	747982	keystroke	r	n/a
374.126	0.105	748252	keystroke	s	n/a
374.395	0.105	748790	keystroke	Key.space	n/a
374.981	0.12	749962	keystroke	a	n/a
375.221	0.059	750442	keystroke	r	n/a
375.85	0.075	751700	keystroke	Key.backspace	n/a
376.51	0.06	753020	keystroke	Key.backspace	n/a
376.961	0.059	753922	keystroke	h	n/a
377.05	0.106	754100	keystroke	a	n/a
377.126	0.075	754252	keystroke	r	n/a
377.29	0.1205	754580	keystroke	p	n/a
377.3955	0.12	754791	keystroke	e	n/a
377.5005	0.0605	755001	keystroke	r	n/a
377.9055	0.105	755811	keystroke	Key.space	n/a
378.236	0.0745	756472	keystroke	s	n/a
378.3705	0.105	756741	keystroke	a	n/a
378.4905	0.09	756981	keystroke	m	n/a
378.7005	0.09	757401	keystroke	p	n/a
378.9105	0.105	757821	keystroke	l	n/a
379.0005	0.06	758001	keystroke	e	n/a
379.3005	0.075	758601	keystroke	Key.enter	n/a
379.382	10.886	758764	prompt	n/a	cons frontier seas joke\n
380.1405	0.06	760281	keystroke	o	n/a
380.2455	0.09	760491	keystroke	c	n/a
380.5755	0.03	761151	keystroke	n	n/a
380.7555	0.045	761511	keystroke	s	n/a
383.009	0.012	766018	keystroke	Key.backspace	n/a
383.096	0.09	766192	keystroke	Key.backspace	n/a
383.321	0.09	766642	keystroke	Key.backspace	n/a
383.516	0.105	767032	keystroke	Key.backspace	n/a
383.8905	0.06	767781	keystroke	c	n/a
384.0255	0.09	768051	keystroke	o	n/a
384.2055	0.075	768411	keystroke	n	n/a
384.341	0.06	768682	keystroke	s	n/a
384.506	0.09	769012	keystroke	Key.space	n/a
384.611	0.09	769222	keystroke	f	n/a
384.806	0.0745	769612	keystroke	r	n/a
384.9255	0.09	769851	keystroke	o	n/a
385.0755	0.105	770151	keystroke	n	n/a
385.3305	0.075	770661	keystroke	t	n/a
385.4655	0.075	770931	keystroke	i	n/a
385.5855	0.105	771171	keystroke	e	n/a
385.6605	0.075	771321	keystroke	r	n/a
386.0205	0.105	772041	keystroke	Key.space	n/a
386.3505	0.09	772701	keystroke	s	n/a
386.6355	0.09	773271	keystroke	e	n/a
386.7705	0.15	773541	keystroke	a	n/a
386.8905	0.09	773781	keystroke	s	n/a
387.0405	0.12	774081	keystroke	Key.space	n/a
387.6105	0.075	775221	keystroke	j	n/a
388.316	0.06	776632	keystroke	k	n/a
389.171	0.105	778342	keystroke	Key.backspace	n/a
389.591	0.075	779182	keystroke	o	n/a
389.816	0.075	779632	keystroke	k	n/a
389.906	0.09	779812	keystroke	e	n/a
390.176	0.09	780352	keystroke	Key.enter	n/a
390.2775	7.9105	780555	prompt	n/a	typical portions injured adverse\n
391.016	0.0895	782032	keystroke	t	n/a
391.2405	0.06	782481	keystroke	y	n/a
391.4505	0.09	782901	keystroke	p	n/a
391.6305	0.075	783261	keystroke	i	n/a
391.7055	0.12	783411	keystroke	c	n/a
391.8105	0.12	783621	keystroke	a	n/a
391.9455	0.09	783891	keystroke	l	n/a
392.3205	0.075	784641	keystroke	Key.space	n/a
392.7855	0.09	785571	keystroke	p	n/a
393.0405	0.0455	786081	keystroke	o	n/a
393.131	0.075	786262	keystroke	r	n/a
393.355	0.09	786710	keystroke	t	n/a
393.505	0.091	787010	keystroke	i	n/a
393.745	0.105	787490	keystroke	o	n/a
393.881	0.075	787762	keystroke	n	n/a
393.986	0.105	787972	keystroke	s	n/a
394.361	0.12	788722	keystroke	Key.space	n/a
395.381	0.06	790762	keystroke	i	n/a
395.47	0.076	790940	keystroke	n	n/a
395.681	0.0605	791362	keystroke	j	n/a
395.875	0.046	791750	keystroke	u	n/a
396.01	0.121	792020	keystroke	r	n/a
396.116	0.09	792232	keystroke	e	n/a
396.296	0.09	792592	keystroke	d	n/a
396.565	0.09	793130	keystroke	Key.space	n/a
396.94	0.121	793880	keystroke	a	n/a
397.016	0.104	794032	keystroke	d	n/a
397.241	0.12	794482	keystroke	v	n/a
397.421	0.12	794842	keystroke	e	n/a
397.511	0.104	795022	keystroke	r	n/a
397.69	0.136	795380	keystroke	s	n/a
397.781	0.105	795562	keystroke	e	n/a
398.0655	0.1205	796131	keystroke	Key.enter	n/a
398.1985	8.4195	796397	prompt	n/a	sonic sunday rack optics\n
398.936	0.105	797872	keystroke	s	n/a
399.086	0.015	798172	keystroke	o	n/a
399.236	0.059	798472	keystroke	n	n/a
399.521	0.09	799042	keystroke	c	n/a
400.916	0.075	801832	keystroke	Key.backspace	n/a
401.336	0.045	802672	keystroke	i	n/a
401.426	0.075	802852	keystroke	c	n/a
401.756	0.075	803512	keystroke	Key.space	n/a
402.011	0.105	804022	keystroke	s	n/a
402.146	0.075	804292	keystroke	u	n/a
402.386	0.075	804772	keystroke	n	n/a
402.521	0.135	805042	keystroke	d	n/a
402.626	0.135	805252	keystroke	a	n/a
402.776	0.06	805552	keystroke	y	n/a
403.406	0.105	806812	keystroke	Key.space	n/a
403.676	0.075	807352	keystroke	r	n/a
403.856	0.165	807712	keystroke	a	n/a
403.991	0.09	807982	keystroke	c	n/a
404.126	0.09	808252	keystroke	k	n/a
404.606	0.09	809212	keystroke	Key.space	n/a
405.071	0.09	810142	keystroke	o	n/a
405.221	0.12	810442	keystroke	p	n/a
405.386	0.075	810772	keystroke	t	n/a
405.506	0.06	811012	keystroke	i	n/a
406.031	0.045	812062	keystroke	c	n/a
406.211	0.075	812422	keystroke	s	n/a
406.526	0.09	813052	keystroke	Key.enter	n/a
406.624	8.513	813248	prompt	n/a	cheers fans shows goal\n
407.291	0.105	814582	keystroke	c	n/a
407.411	0.06	814822	keystroke	h	n/a
407.591	0.06	815182	keystroke	e	n/a
407.756	0.105	815512	keystroke	e	n/a
407.846	0.105	815692	keystroke	r	n/a
408.011	0.105	816022	keystroke	s	n/a
408.176	0.09	816352	keystroke	Key.space	n/a
408.356	0.105	816712	keystroke	f	n/a
408.476	0.12	816952	keystroke	a	n/a
408.611	0.06	817222	keystroke	n	n/a
408.746	0.075	817492	keystroke	s	n/a
408.956	0.089	817912	keystroke	Key.space	n/a
409.121	0.06	818242	keystroke	s	n/a
409.376	0.06	818752	keystroke	o	n/a
409.466	0.075	818932	keystroke	w	n/a
410.141	0.09	820282	keystroke	Key.backspace	n/a
410.291	0.105	820582	keystroke	Key.backspace	n/a
410.741	0.075	821482	keystroke	h	n/a
410.951	0.06	821902	keystroke	o	n/a
411.041	0.075	822082	keystroke	w	n/a
411.236	0.06	822472	keystroke	s	n/a
411.581	0.09	823162	keystroke	Key.space	n/a
411.926	0.075	823852	keystroke	g	n/a
412.106	0.03	824212	keystroke	a	n/a
412.766	0.06	825532	keystroke	=	n/a
413.7105	0.1045	827421	keystroke	Key.backspace	n/a
413.875	0.09	827750	keystroke	Key.backspace	n/a
414.295	0.06	828590	keystroke	o	n/a
414.49	0.09	828980	keystroke	a	n/a
414.595	0.06	829190	keystroke	l	n/a
415.045	0.09	830090	keystroke	Key.enter	n/a
415.143	6.1445	830286	prompt	n/a	axis sunday wheat highest\n
415.825	0.12	831650	keystroke	a	n/a
416.02	0.09	832040	keystroke	x	n/a
416.155	0.075	832310	keystroke	i	n/a
416.275	0.075	832550	keystroke	s	n/a
416.47	0.06	832940	keystroke	Key.space	n/a
416.635	0.075	833270	keystroke	s	n/a
416.725	0.06	833450	keystroke	u	n/a
416.935	0.06	833870	keystroke	n	n/a
417.445	0.06	834890	keystroke	d	n/a
417.595	0.105	835190	keystroke	a	n/a
417.701	0.074	835402	keystroke	y	n/a
417.955	0.12	835910	keystroke	Key.space	n/a
418.12	0.105	836240	keystroke	w	n/a
418.27	0.06	836540	keystroke	h	n/a
418.631	0.074	837262	keystroke	e	n/a
418.735	0.135	837470	keystroke	a	n/a
418.855	0.075	837710	keystroke	t	n/a
419.215	0.075	838430	keystroke	Key.space	n/a
420.055	0.06	840110	keystroke	h	n/a
420.355	0.075	840710	keystroke	i	n/a
420.475	0.06	840950	keystroke	g	n/a
420.55	0.06	841100	keystroke	h	n/a
420.76	0.06	841520	keystroke	e	n/a
420.895	0.105	841790	keystroke	s	n/a
420.985	0.09	841970	keystroke	t	n/a
421.195	0.09	842390	keystroke	Key.enter	n/a
421.292	5.201	842584	prompt	n/a	materials why's greeting spider\n
422.381	0.075	844762	keystroke	m	n/a
422.515	0.195	845030	keystroke	a	n/a
422.681	0.089	845362	keystroke	t	n/a
422.815	0.105	845630	keystroke	e	n/a
422.89	0.12	845780	keystroke	r	n/a
423.04	0.075	846080	keystroke	i	n/a
423.145	0.105	846290	keystroke	a	n/a
423.266	0.059	846532	keystroke	l	n/a
423.34	0.09	846680	keystroke	s	n/a
423.745	0.09	847490	keystroke	Key.space	n/a
423.985	0.075	847970	keystroke	w	n/a
424.075	0.06	848150	keystroke	h	n/a
424.255	0.06	848510	keystroke	y	n/a
424.78	0.09	849560	keystroke	s	n/a
425.635	0.075	851270	keystroke	Key.backspace	n/a
426.355	0.135	852710	keystroke	Key.enter	n/a
426.498	7.749	852996	prompt	n/a	mainland up thermal officer\n
426.52	0.075	853040	keystroke	s	n/a
428.545	0.09	857090	keystroke	Key.backspace	n/a
429.19	0.075	858380	keystroke	m	n/a
429.281	0.089	858562	keystroke	a	n/a
429.415	0.105	858830	keystroke	i	n/a
429.565	0.075	859130	keystroke	n	n/a
430.21	0.091	860420	keystroke	l	n/a
430.315	0.136	860630	keystroke	a	n/a
430.405	0.075	860810	keystroke	n	n/a
430.495	0.091	860990	keystroke	d	n/a
430.87	0.06	861740	keystroke	Key.space	n/a
431.065	0.105	862130	keystroke	u	n/a
431.185	0.121	862370	keystroke	p	n/a
431.335	0.135	862670	keystroke	Key.space	n/a
431.711	0.074	863422	keystroke	t	n/a
431.906	0.074	863812	keystroke	h	n/a
431.995	0.105	863990	keystroke	e	n/a
432.07	0.09	864140	keystroke	r	n/a
432.206	0.075	864412	keystroke	m	n/a
432.326	0.119	864652	keystroke	a	n/a
432.446	0.074	864892	keystroke	l	n/a
432.715	0.075	865430	keystroke	Key.space	n/a
433.195	0.06	866390	keystroke	o	n/a
433.27	0.075	866540	keystroke	f	n/a
433.42	0.075	866840	keystroke	f	n/a
433.556	0.074	867112	keystroke	i	n/a
433.66	0.106	867320	keystroke	c	n/a
433.796	0.104	867592	keystroke	e	n/a
433.885	0.09	867770	keystroke	r	n/a
434.185	0.06	868370	keystroke	Key.enter	n/a
434.2515	7.721	868503	prompt	n/a	transcript eventually period imaging\n
434.92	0.061	869840	keystroke	t	n/a
435.085	0.091	870170	keystroke	r	n/a
435.341	0.104	870682	keystroke	a	n/a
435.491	0.075	870982	keystroke	n	n/a
435.685	0.106	871370	keystroke	s	n/a
435.865	0.09	871730	keystroke	c	n/a
436.045	0.076	872090	keystroke	r	n/a
436.15	0.12	872300	keystroke	i	n/a
436.33	0.106	872660	keystroke	p	n/a
436.421	0.059	872842	keystroke	t	n/a
436.63	0.09	873260	keystroke	Key.space	n/a
436.885	0.091	873770	keystroke	e	n/a
437.125	0.09	874250	keystroke	v	n/a
437.32	0.075	874640	keystroke	e	n/a
437.966	0.075	875932	keystroke	n	n/a
438.175	0.075	876350	keystroke	t	n/a
438.311	0.0595	876622	keystroke	u	n/a
438.4305	0.12	876861	keystroke	a	n/a
438.5355	0.045	877071	keystroke	l	n/a
438.6705	0.105	877341	keystroke	l	n/a
438.8055	0.09	877611	keystroke	y	n/a
439.0905	0.075	878181	keystroke	Key.space	n/a
439.3905	0.105	878781	keystroke	p	n/a
439.5105	0.06	879021	keystroke	e	n/a
439.5555	0.09	879111	keystroke	r	n/a
439.6755	0.075	879351	keystroke	i	n/a
439.7805	0.105	879561	keystroke	o	n/a
439.8705	0.06	879741	keystroke	d	n/a
439.9905	0.135	879981	keystroke	Key.space	n/a
440.2755	0.09	880551	keystroke	i	n/a
440.5455	0.075	881091	keystroke	m	n/a
440.6955	0.135	881391	keystroke	a	n/a
440.8455	0.03	881691	keystroke	g	n/a
440.9205	0.09	881841	keystroke	i	n/a
441.0555	0.075	882111	keystroke	n	n/a
441.1005	0.075	882201	keystroke	g	n/a
441.8655	0.105	883731	keystroke	Key.enter	n/a
441.9785	9.279	883957	prompt	n/a	doctrine instrumental change dealers\n
442.7355	0.06	885471	keystroke	d	n/a
443.3805	0.06	886761	keystroke	o	n/a
443.4705	0.09	886941	keystroke	c	n/a
443.7105	0.075	887421	keystroke	t	n/a
443.8755	0.045	887751	keystroke	r	n/a
443.9955	0.045	887991	keystroke	i	n/a
444.1605	0.06	888321	keystroke	n	n/a
444.2355	0.045	888471	keystroke	e	n/a
444.7005	0.09	889401	keystroke	Key.space	n/a
444.9855	0.075	889971	keystroke	i	n/a
445.1205	0.06	890241	keystroke	n	n/a
445.3305	0.09	890661	keystroke	s	n/a
445.4355	0.09	890871	keystroke	t	n/a
445.6305	0.075	891261	keystroke	r	n/a
445.7655	0.075	891531	keystroke	u	n/a
447.0705	0.075	894141	keystroke	m	n/a
447.1465	0.074	894293	keystroke	e	n/a
447.2655	0.06	894531	keystroke	n	n/a
447.3555	0.06	894711	keystroke	t	n/a
447.5055	0.105	895011	keystroke	a	n/a
447.5955	0.075	895191	keystroke	l	n/a
447.8805	0.105	895761	keystroke	Key.space	n/a
448.3005	0.06	896601	keystroke	c	n/a
448.4355	0.045	896871	keystroke	h	n/a
448.5555	0.15	897111	keystroke	a	n/a
448.6755	0.06	897351	keystroke	n	n/a
448.7655	0.075	897531	keystroke	g	n/a
448.8705	0.105	897741	keystroke	e	n/a
449.6505	0.105	899301	keystroke	Key.space	n/a
450.1755	0.06	900351	keystroke	d	n/a
450.3405	0.075	900681	keystroke	e	n/a
450.4755	0.12	900951	keystroke	a	n/a
450.6105	0.075	901221	keystroke	l	n/a
450.7455	0.12	901491	keystroke	e	n/a
450.8355	0.075	901671	keystroke	r	n/a
451.0155	0.09	902031	keystroke	s	n/a
451.1655	0.09	902331	keystroke	Key.enter	n/a
451.263	7.1065	902526	prompt	n/a	replacing exit forbes sense\n
452.0505	0.135	904101	keystroke	r	n/a
452.1555	0.075	904311	keystroke	e	n/a
452.3655	0.12	904731	keystroke	p	n/a
452.5905	0.075	905181	keystroke	l	n/a
452.7105	0.09	905421	keystroke	a	n/a
452.7555	0.105	905511	keystroke	c	n/a
452.9505	0.06	905901	keystroke	i	n/a
453.0555	0.075	906111	keystroke	n	n/a
453.1455	0.075	906291	keystroke	g	n/a
453.8355	0.09	907671	keystroke	Key.space	n/a
454.0155	0.09	908031	keystroke	e	n/a
454.2105	0.09	908421	keystroke	x	n/a
454.4355	0.075	908871	keystroke	i	n/a
454.5255	0.06	909051	keystroke	t	n/a
454.9305	0.105	909861	keystroke	Key.space	n/a
455.0505	0.075	910101	keystroke	f	n/a
455.1555	0.09	910311	keystroke	o	n/a
455.2605	0.06	910521	keystroke	r	n/a
455.4555	0.06	910911	keystroke	b	n/a
455.5605	0.06	911121	keystroke	e	n/a
455.7255	0.105	911451	keystroke	s	n/a
456.1605	0.105	912321	keystroke	Key.space	n/a
456.3255	0.105	912651	keystroke	s	n/a
456.4905	0.06	912981	keystroke	e	n/a
456.6255	0.09	913251	keystroke	n	n/a
456.7305	0.135	913461	keystroke	s	n/a
456.8355	0.075	913671	keystroke	e	n/a
458.2605	0.105	916521	keystroke	Key.enter	n/a
458.3755	8.902	916751	prompt	n/a	asbestos asset registrar clock\n
459.2055	0.15	918411	keystroke	a	n/a
459.3255	0.09	918651	keystroke	s	n/a
459.8055	0.075	919611	keystroke	b	n/a
459.9555	0.15	919911	keystroke	e	n/a
460.4505	0.09	920901	keystroke	s	n/a
460.6455	0.06	921291	keystroke	t	n/a
460.8255	0.06	921651	keystroke	o	n/a
460.9605	0.075	921921	keystroke	s	n/a
461.2155	0.075	922431	keystroke	Key.space	n/a
461.8305	0.105	923661	keystroke	a	n/a
462.1005	0.075	924201	keystroke	s	n/a
462.2655	0.075	924531	keystroke	s	n/a
462.4455	0.105	924891	keystroke	e	n/a
462.5655	0.045	925131	keystroke	t	n/a
462.8205	0.075	925641	keystroke	Key.space	n/a
463.706	0.089	927412	keystroke	r	n/a
463.885	0.09	927770	keystroke	e	n/a
464.111	0.074	928222	keystroke	g	n/a
464.215	0.061	928430	keystroke	i	n/a
464.336	0.104	928672	keystroke	s	n/a
464.47	0.076	928940	keystroke	t	n/a
465.445	0.06	930890	keystroke	r	n/a
465.626	0.105	931252	keystroke	a	n/a
465.701	0.075	931402	keystroke	r	n/a
465.94	0.12	931880	keystroke	Key.space	n/a
466.151	0.09	932302	keystroke	c	n/a
466.435	0.06	932870	keystroke	l	n/a
466.615	0.075	933230	keystroke	o	n/a
466.826	0.075	933652	keystroke	c	n/a
466.915	0.076	933830	keystroke	k	n/a
467.185	0.09	934370	keystroke	Key.enter	n/a
467.283	5.529	934566	prompt	n/a	retro ozone homes you\n
467.966	0.105	935932	keystroke	r	n/a
468.04	0.106	936080	keystroke	e	n/a
468.22	0.076	936440	keystroke	t	n/a
468.37	0.09	936740	keystroke	r	n/a
468.506	0.06	937012	keystroke	o	n/a
468.655	0.12	937310	keystroke	Key.space	n/a
468.925	0.076	937850	keystroke	o	n/a
469.12	0.106	938240	keystroke	z	n/a
469.48	0.076	938960	keystroke	o	n/a
469.631	0.074	939262	keystroke	n	n/a
469.72	0.061	939440	keystroke	e	n/a
470.47	0.12	940940	keystroke	Key.space	n/a
470.801	0.06	941602	keystroke	h	n/a
471.011	0.074	942022	keystroke	o	n/a
471.221	0.075	942442	keystroke	m	n/a
471.341	0.06	942682	keystroke	e	n/a
471.4905	0.09	942981	keystroke	s	n/a
471.8655	0.075	943731	keystroke	Key.space	n/a
472.1655	0.0755	944331	keystroke	y	n/a
472.3905	0.105	944781	keystroke	o	n/a
472.4805	0.09	944961	keystroke	u	n/a
472.7205	0.089	945441	keystroke	Key.enter	n/a
472.817	6.19	945634	prompt	n/a	loads classics failing seriously\n
474.0105	0.06	948021	keystroke	l	n/a
474.2955	0.045	948591	keystroke	o	n/a
474.4005	0.12	948801	keystroke	a	n/a
474.5055	0.045	949011	keystroke	d	n/a
474.6105	0.12	949221	keystroke	s	n/a
474.7905	0.09	949581	keystroke	Key.space	n/a
475.0455	0.075	950091	keystroke	c	n/a
475.1505	0.075	950301	keystroke	l	n/a
475.2705	0.075	950541	keystroke	a	n/a
475.4055	0.075	950811	keystroke	s	n/a
475.5555	0.09	951111	keystroke	s	n/a
475.6755	0.09	951351	keystroke	i	n/a
475.7805	0.06	951561	keystroke	c	n/a
476.0655	0.075	952131	keystroke	s	n/a
476.3205	0.075	952641	keystroke	Key.space	n/a
476.4105	0.075	952821	keystroke	f	n/a
476.5455	0.09	953091	keystroke	a	n/a
476.6505	0.075	953301	keystroke	i	n/a
476.8305	0.075	953661	keystroke	l	n/a
476.9505	0.09	953901	keystroke	i	n/a
477.086	0.074	954172	keystroke	n	n/a
477.131	0.074	954262	keystroke	g	n/a
477.431	0.059	954862	keystroke	Key.space	n/a
477.61	0.105	955220	keystroke	s	n/a
477.701	0.074	955402	keystroke	e	n/a
477.761	0.09	955522	keystroke	r	n/a
477.895	0.105	955790	keystroke	i	n/a
478.015	0.105	956030	keystroke	o	n/a
478.136	0.104	956272	keystroke	u	n/a
478.225	0.075	956450	keystroke	s	n/a
478.376	0.089	956752	keystroke	l	n/a
478.496	0.074	956992	keystroke	y	n/a
478.9	0.105	957800	keystroke	Key.enter	n/a
479.014	7.6135	958028	prompt	n/a	nightlife integrated sydney computing\n
479.876	0.074	959752	keystroke	n	n/a
479.98	0.09	959960	keystroke	i	n/a
480.13	0.06	960260	keystroke	g	n/a
480.236	0.074	960472	keystroke	h	n/a
480.326	0.074	960652	keystroke	t	n/a
480.58	0.075	961160	keystroke	l	n/a
480.76	0.061	961520	keystroke	i	n/a
480.821	0.135	961642	keystroke	f	n/a
480.91	0.105	961820	keystroke	e	n/a
481.075	0.12	962150	keystroke	Key.space	n/a
481.33	0.075	962660	keystroke	i	n/a
481.435	0.076	962870	keystroke	n	n/a
481.57	0.075	963140	keystroke	t	n/a
481.69	0.091	963380	keystroke	e	n/a
481.885	0.075	963770	keystroke	g	n/a
482.095	0.09	964190	keystroke	r	n/a
482.23	0.12	964460	keystroke	a	n/a
482.32	0.12	964640	keystroke	t	n/a
482.425	0.075	964850	keystroke	e	n/a
482.5905	0.0595	965181	keystroke	d	n/a
482.83	0.105	965660	keystroke	Key.space	n/a
483.1	0.09	966200	keystroke	s	n/a
483.295	0.061	966590	keystroke	y	n/a
483.91	0.09	967820	keystroke	d	n/a
484.3	0.06	968600	keystroke	n	n/a
484.481	0.059	968962	keystroke	e	n/a
484.57	0.075	969140	keystroke	y	n/a
484.93	0.09	969860	keystroke	Key.space	n/a
485.29	0.075	970580	keystroke	c	n/a
485.395	0.075	970790	keystroke	o	n/a
485.575	0.105	971150	keystroke	m	n/a
485.77	0.135	971540	keystroke	p	n/a
485.89	0.075	971780	keystroke	u	n/a
486.025	0.06	972050	keystroke	t	n/a
486.115	0.0755	972230	keystroke	i	n/a
486.2205	0.0895	972441	keystroke	n	n/a
486.265	0.0755	972530	keystroke	g	n/a
486.535	0.09	973070	keystroke	Key.enter	n/a
486.634	9.5785	973268	prompt	n/a	plug waterproof holdem appointments\n
487.48	0.06	974960	keystroke	p	n/a
487.615	0.105	975230	keystroke	l	n/a
487.765	0.075	975530	keystroke	u	n/a
487.855	0.075	975710	keystroke	g	n/a
488.035	0.12	976070	keystroke	Key.space	n/a
488.23	0.09	976460	keystroke	w	n/a
488.38	0.196	976760	keystroke	a	n/a
488.59	0.015	977180	keystroke	t	n/a
488.635	0.135	977270	keystroke	e	n/a
488.725	0.105	977450	keystroke	r	n/a
489.31	0.075	978620	keystroke	p	n/a
489.4	0.076	978800	keystroke	r	n/a
489.52	0.061	979040	keystroke	o	n/a
489.64	0.09	979280	keystroke	o	n/a
489.716	0.075	979432	keystroke	f	n/a
489.94	0.105	979880	keystroke	Key.space	n/a
490.3	0.09	980600	keystroke	h	n/a
490.435	0.075	980870	keystroke	o	n/a
490.66	0.091	981320	keystroke	l	n/a
490.795	0.09	981590	keystroke	d	n/a
491.005	0.06	982010	keystroke	e	n/a
491.11	0.075	982220	keystroke	m	n/a
491.305	0.075	982610	keystroke	Key.space	n/a
491.47	0.106	982940	keystroke	a	n/a
491.56	0.091	983120	keystroke	p	n/a
491.711	0.104	983422	keystroke	p	n/a
491.891	0.105	983782	keystroke	o	n/a
492.115	0.105	984230	keystroke	i	n/a
492.28	0.075	984560	keystroke	n	n/a
494.969	0.001	989938	keystroke	t	n/a
495.13	0.06	990260	keystroke	m	n/a
495.235	0.076	990470	keystroke	e	n/a
495.341	0.089	990682	keystroke	n	n/a
495.461	0.075	990922	keystroke	t	n/a
495.79	0.075	991580	keystroke	s	n/a
496.121	0.089	992242	keystroke	Key.enter	n/a
496.2185	19.1345	992437	prompt	n/a	share venice sheffield conservative\n
496.9305	0.105	993861	keystroke	s	n/a
497.0205	0.06	994041	keystroke	h	n/a
497.0955	0.12	994191	keystroke	a	n/a
497.1855	0.12	994371	keystroke	r	n/a
497.2455	0.105	994491	keystroke	e	n/a
497.4255	0.09	994851	keystroke	Key.space	n/a
497.7255	0.075	995451	keystroke	v	n/a
497.9055	0.09	995811	keystroke	e	n/a
498.1005	0.075	996201	keystroke	i	n/a
498.4905	0.06	996981	keystroke	n	n/a
498.8655	0.015	997731	keystroke	Key.backspace	n/a
499.5705	0.105	999141	keystroke	Key.backspace	n/a
499.7505	0.075	999501	keystroke	Key.backspace	n/a
500.2905	0.075	1000581	keystroke	e	n/a
500.4555	0.09	1000911	keystroke	n	n/a
500.5755	0.09	1001151	keystroke	i	n/a
500.6355	0.135	1001271	keystroke	c	n/a
500.7405	0.105	1001481	keystroke	e	n/a
500.9205	0.075	1001841	keystroke	Key.space	n/a
502.7355	0.105	1005471	keystroke	s	n/a
502.8105	0.075	1005621	keystroke	h	n/a
502.9605	0.09	1005921	keystroke	e	n/a
503.1405	0.075	1006281	keystroke	f	n/a
503.2905	0.075	1006581	keystroke	f	n/a
503.4255	0.09	1006851	keystroke	i	n/a
503.5005	0.045	1007001	keystroke	e	n/a
503.6355	0.09	1007271	keystroke	d	n/a
504.4605	0.105	1008921	keystroke	Key.space	n/a
504.9855	0.105	1009971	keystroke	c	n/a
505.1055	0.075	1010211	keystroke	o	n/a
505.2255	0.075	1010451	keystroke	n	n/a
505.3455	0.075	1010691	keystroke	v	n/a
505.4955	0.135	1010991	keystroke	e	n/a
505.6005	0.12	1011201	keystroke	r	n/a
506.83	0.121	1013660	keystroke	Key.backspace	n/a
507.04	0.105	1014080	keystroke	Key.backspace	n/a
507.206	0.089	1014412	keystroke	Key.backspace	n/a
507.476	0.12	1014952	keystroke	s	n/a
507.61	0.151	1015220	keystroke	e	n/a
507.731	0.06	1015462	keystroke	r	n/a
507.941	0.075	1015882	keystroke	f	n/a
507.956	0.045	1015912	keystroke	v	n/a
508.091	0.21	1016182	keystroke	a	n/a
508.271	0.045	1016542	keystroke	t	n/a
508.391	0.06	1016782	keystroke	i	n/a
510.3555	0.1205	1020711	keystroke	=	n/a
511.3905	0.075	1022781	keystroke	Key.backspace	n/a
511.6005	0.09	1023201	keystroke	Key.backspace	n/a
511.7955	0.105	1023591	keystroke	Key.backspace	n/a
512.0055	0.075	1024011	keystroke	Key.backspace	n/a
512.1705	0.105	1024341	keystroke	Key.backspace	n/a
513.1155	0.075	1026231	keystroke	Key.backspace	n/a
514.0305	0.105	1028061	keystroke	v	n/a
514.1955	0.21	1028391	keystroke	a	n/a
514.3455	0.09	1028691	keystroke	t	n/a
514.4655	0.075	1028931	keystroke	i	n/a
514.5555	0.105	1029111	keystroke	v	n/a
514.6755	0.09	1029351	keystroke	e	n/a
515.2455	0.105	1030491	keystroke	Key.enter	n/a
515.3585	7.885	1030717	prompt	n/a	bullet astrology container assembled\n
516.0255	0.045	1032051	keystroke	b	n/a
516.371	0.06	1032742	keystroke	u	n/a
516.61	0.075	1033220	keystroke	l	n/a
516.761	0.075	1033522	keystroke	l	n/a
516.88	0.151	1033760	keystroke	e	n/a
517.001	0.089	1034002	keystroke	t	n/a
517.255	0.12	1034510	keystroke	Key.space	n/a
517.555	0.106	1035110	keystroke	a	n/a
517.675	0.12	1035350	keystroke	s	n/a
517.84	0.075	1035680	keystroke	t	n/a
518.005	0.06	1036010	keystroke	r	n/a
518.11	0.075	1036220	keystroke	o	n/a
518.32	0.045	1036640	keystroke	l	n/a
518.47	0.09	1036940	keystroke	o	n/a
518.515	0.09	1037030	keystroke	g	n/a
518.665	0.09	1037330	keystroke	y	n/a
518.83	0.091	1037660	keystroke	Key.space	n/a
519.386	0.09	1038772	keystroke	c	n/a
519.506	0.075	1039012	keystroke	o	n/a
519.701	0.075	1039402	keystroke	n	n/a
519.866	0.045	1039732	keystroke	t	n/a
520.016	0.105	1040032	keystroke	a	n/a
520.136	0.06	1040272	keystroke	i	n/a
520.241	0.09	1040482	keystroke	n	n/a
520.346	0.09	1040692	keystroke	e	n/a
520.406	0.105	1040812	keystroke	r	n/a
521.23	0.12	1042460	keystroke	Key.space	n/a
521.621	0.075	1043242	keystroke	a	n/a
521.801	0.0895	1043602	keystroke	s	n/a
521.9655	0.06	1043931	keystroke	s	n/a
522.1305	0.075	1044261	keystroke	e	n/a
522.325	0.06	1044650	keystroke	m	n/a
522.505	0.06	1045010	keystroke	b	n/a
522.715	0.06	1045430	keystroke	l	n/a
522.805	0.075	1045610	keystroke	e	n/a
522.985	0.09	1045970	keystroke	d	n/a
523.15	0.09	1046300	keystroke	Key.enter	n/a
523.249	6.383	1046498	prompt	n/a	june lovers madison newly\n
524.065	0.06	1048130	keystroke	j	n/a
524.23	0.061	1048460	keystroke	u	n/a
524.425	0.075	1048850	keystroke	n	n/a
524.53	0.045	1049060	keystroke	e	n/a
524.68	0.105	1049360	keystroke	Key.space	n/a
524.845	0.09	1049690	keystroke	l	n/a
525.055	0.046	1050110	keystroke	o	n/a
525.07	0.09	1050140	keystroke	v	n/a
525.235	0.12	1050470	keystroke	e	n/a
525.326	0.075	1050652	keystroke	r	n/a
525.49	0.075	1050980	keystroke	s	n/a
525.61	0.075	1051220	keystroke	Key.space	n/a
525.865	0.075	1051730	keystroke	m	n/a
525.955	0.12	1051910	keystroke	a	n/a
526.36	0.061	1052720	keystroke	d	n/a
526.495	0.045	1052990	keystroke	i	n/a
526.63	0.075	1053260	keystroke	s	n/a
526.72	0.076	1053440	keystroke	o	n/a
526.81	0.09	1053620	keystroke	n	n/a
527.6045	0.076	1055209	keystroke	Key.space	n/a
528.4305	0.06	1056861	keystroke	n	n/a
528.4605	0.135	1056921	keystroke	e	n/a
528.5655	0.12	1057131	keystroke	w	n/a
528.8805	0.12	1057761	keystroke	l	n/a
529.0455	0.03	1058091	keystroke	y	n/a
529.5405	0.09	1059081	keystroke	Key.enter	n/a
529.637	6.22	1059274	prompt	n/a	revision focuses mineral thinks\n
530.2605	0.09	1060521	keystroke	r	n/a
530.3355	0.09	1060671	keystroke	e	n/a
530.6505	0.075	1061301	keystroke	v	n/a
530.7705	0.03	1061541	keystroke	i	n/a
530.8755	0.075	1061751	keystroke	s	n/a
530.9355	0.09	1061871	keystroke	i	n/a
531.0405	0.105	1062081	keystroke	o	n/a
531.1155	0.1055	1062231	keystroke	n	n/a
532.06	0.075	1064120	keystroke	Key.space	n/a
532.195	0.045	1064390	keystroke	f	n/a
532.316	0.075	1064632	keystroke	o	n/a
532.435	0.09	1064870	keystroke	c	n/a
532.556	0.074	1065112	keystroke	u	n/a
532.676	0.104	1065352	keystroke	s	n/a
532.796	0.075	1065592	keystroke	e	n/a
532.96	0.076	1065920	keystroke	s	n/a
533.17	0.09	1066340	keystroke	Key.space	n/a
533.65	0.076	1067300	keystroke	m	n/a
533.831	0.059	1067662	keystroke	i	n/a
533.951	0.075	1067902	keystroke	n	n/a
534.056	0.075	1068112	keystroke	e	n/a
534.146	0.104	1068292	keystroke	r	n/a
534.265	0.09	1068530	keystroke	a	n/a
534.46	0.075	1068920	keystroke	l	n/a
534.76	0.09	1069520	keystroke	Key.space	n/a
534.925	0.061	1069850	keystroke	t	n/a
535	0.076	1070000	keystroke	h	n/a
535.105	0.075	1070210	keystroke	i	n/a
535.226	0.105	1070452	keystroke	n	n/a
535.36	0.045	1070720	keystroke	k	n/a
535.571	0.075	1071142	keystroke	s	n/a
535.78	0.075	1071560	keystroke	Key.enter	n/a
535.8615	9.987	1071723	prompt	n/a	magazines democratic muze jury\n
536.696	0.09	1073392	keystroke	m	n/a
536.771	0.119	1073542	keystroke	a	n/a
536.906	0.105	1073812	keystroke	g	n/a
537.026	0.105	1074052	keystroke	a	n/a
537.251	0.075	1074502	keystroke	z	n/a
537.371	0.075	1074742	keystroke	i	n/a
537.476	0.075	1074952	keystroke	n	n/a
537.551	0.074	1075102	keystroke	e	n/a
537.82	0.06	1075640	keystroke	s	n/a
538.03	0.06	1076060	keystroke	Key.space	n/a
538.256	0.059	1076512	keystroke	d	n/a
538.496	0.06	1076992	keystroke	e	n/a
538.705	0.091	1077410	keystroke	m	n/a
538.976	0.09	1077952	keystroke	o	n/a
539.141	0.074	1078282	keystroke	c	n/a
539.455	0.075	1078910	keystroke	r	n/a
539.621	0.119	1079242	keystroke	a	n/a
539.966	0.059	1079932	keystroke	t	n/a
540.206	0.0445	1080412	keystroke	i	n/a
540.235	0.075	1080470	keystroke	c	n/a
540.5045	0.0605	1081009	keystroke	Key.space	n/a
541.585	0.0905	1083170	keystroke	m	n/a
541.8545	0.06	1083709	keystroke	u	n/a
542.1545	0.06	1084309	keystroke	e	n/a
543.295	0.12	1086590	keystroke	Key.backspace	n/a
543.701	0.089	1087402	keystroke	z	n/a
543.85	0.06	1087700	keystroke	e	n/a
544.45	0.105	1088900	keystroke	Key.space	n/a
544.78	0.06	1089560	keystroke	j	n/a
544.931	0.059	1089862	keystroke	u	n/a
545.051	0.075	1090102	keystroke	r	n/a
545.186	0.045	1090372	keystroke	y	n/a
545.725	0.12	1091450	keystroke	Key.enter	n/a
545.8545	7.7775	1091709	prompt	n/a	dynamic msgid thickness east\n
546.4455	0.074	1092891	keystroke	d	n/a
546.6255	0.059	1093251	keystroke	y	n/a
546.9545	0.06	1093909	keystroke	n	n/a
547.0595	0.105	1094119	keystroke	a	n/a
547.1955	0.075	1094391	keystroke	m	n/a
547.4045	0.06	1094809	keystroke	i	n/a
547.4505	0.089	1094901	keystroke	c	n/a
547.6595	0.105	1095319	keystroke	Key.space	n/a
549.085	0.06	1098170	keystroke	m	n/a
549.22	0.09	1098440	keystroke	s	n/a
549.415	0.09	1098830	keystroke	g	n/a
549.55	0.075	1099100	keystroke	i	n/a
549.73	0.075	1099460	keystroke	d	n/a
550.2555	0.09	1100511	keystroke	Key.space	n/a
550.5105	0.06	1101021	keystroke	t	n/a
550.6	0.03	1101200	keystroke	h	n/a
550.736	0.044	1101472	keystroke	i	n/a
550.855	0.09	1101710	keystroke	c	n/a
551.005	0.06	1102010	keystroke	k	n/a
551.335	0.045	1102670	keystroke	n	n/a
551.455	0.075	1102910	keystroke	e	n/a
551.65	0.06	1103300	keystroke	s	n/a
551.8	0.09	1103600	keystroke	s	n/a
552.4305	0.09	1104861	keystroke	Key.space	n/a
552.7605	0.09	1105521	keystroke	e	n/a
553.0005	0.15	1106001	keystroke	a	n/a
553.1205	0.15	1106241	keystroke	s	n/a
553.2105	0.09	1106421	keystroke	t	n/a
553.5405	0.09	1107081	keystroke	Key.enter	n/a
553.6365	7.1515	1107273	prompt	n/a	implies plant establishment samba\n
554.3955	0.045	1108791	keystroke	i	n/a
554.5755	0.075	1109151	keystroke	m	n/a
554.7855	0.075	1109571	keystroke	p	n/a
555.0105	0.06	1110021	keystroke	l	n/a
555.1905	0.06	1110381	keystroke	i	n/a
555.2955	0.075	1110591	keystroke	e	n/a
555.4755	0.09	1110951	keystroke	s	n/a
555.8505	0.09	1111701	keystroke	Key.space	n/a
556.1805	0.105	1112361	keystroke	p	n/a
556.3455	0.06	1112691	keystroke	l	n/a
556.5105	0.12	1113021	keystroke	a	n/a
556.6305	0.045	1113261	keystroke	n	n/a
556.7205	0.075	1113441	keystroke	t	n/a
557.0205	0.06	1114041	keystroke	Key.space	n/a
557.4255	0.075	1114851	keystroke	e	n/a
557.6205	0.075	1115241	keystroke	s	n/a
557.7855	0.075	1115571	keystroke	t	n/a
557.9805	0.09	1115961	keystroke	a	n/a
558.1305	0.06	1116261	keystroke	b	n/a
558.3705	0.06	1116741	keystroke	l	n/a
558.4755	0.06	1116951	keystroke	i	n/a
558.6105	0.075	1117221	keystroke	s	n/a
558.7005	0.045	1117401	keystroke	h	n/a
559.0755	0.075	1118151	keystroke	m	n/a
559.1655	0.075	1118331	keystroke	e	n/a
559.2705	0.045	1118541	keystroke	n	n/a
559.3455	0.075	1118691	keystroke	t	n/a
559.5705	0.075	1119141	keystroke	Key.space	n/a
559.8555	0.075	1119711	keystroke	s	n/a
559.9605	0.12	1119921	keystroke	a	n/a
560.1255	0.06	1120251	keystroke	m	n/a
560.3505	0.045	1120701	keystroke	b	n/a
560.4105	0.09	1120821	keystroke	a	n/a
560.7255	0.06	1121451	keystroke	Key.enter	n/a
560.7945	8.678	1121589	prompt	n/a	gregory quick merger confirmed\n
561.7155	0.06	1123431	keystroke	g	n/a
561.9105	0.105	1123821	keystroke	r	n/a
561.9855	0.105	1123971	keystroke	e	n/a
562.1505	0.09	1124301	keystroke	g	n/a
562.3005	0.075	1124601	keystroke	o	n/a
562.3605	0.075	1124721	keystroke	r	n/a
562.5105	0.075	1125021	keystroke	y	n/a
562.8255	0.105	1125651	keystroke	Key.space	n/a
563.2455	0.09	1126491	keystroke	q	n/a
563.3655	0.06	1126731	keystroke	u	n/a
563.5155	0.0745	1127031	keystroke	i	n/a
563.68	0.075	1127360	keystroke	c	n/a
563.77	0.06	1127540	keystroke	k	n/a
564.3405	0.09	1128681	keystroke	Key.space	n/a
564.7755	0.075	1129551	keystroke	m	n/a
564.8805	0.105	1129761	keystroke	e	n/a
564.9555	0.105	1129911	keystroke	r	n/a
565.1805	0.09	1130361	keystroke	g	n/a
565.3155	0.12	1130631	keystroke	e	n/a
565.4055	0.075	1130811	keystroke	r	n/a
565.9905	0.075	1131981	keystroke	Key.space	n/a
566.2455	0.09	1132491	keystroke	c	n/a
566.336	0.089	1132672	keystroke	o	n/a
566.47	0.0755	1132940	keystroke	n	n/a
566.62	0.06	1133240	keystroke	f	n/a
566.725	0.045	1133450	keystroke	i	n/a
566.875	0.075	1133750	keystroke	r	n/a
567.13	0.045	1134260	keystroke	e	n/a
568.15	0.06	1136300	keystroke	Key.backspace	n/a
568.8255	0.0745	1137651	keystroke	m	n/a
568.9755	0.0745	1137951	keystroke	e	n/a
569.1555	0.0745	1138311	keystroke	d	n/a
569.395	0.075	1138790	keystroke	Key.enter	n/a
569.477	5.26	1138954	prompt	n/a	iran route dust nvidia\n
570.7005	0.06	1141401	keystroke	i	n/a
570.8505	0.075	1141701	keystroke	r	n/a
570.9855	0.135	1141971	keystroke	a	n/a
571.1055	0.075	1142211	keystroke	n	n/a
571.2405	0.12	1142481	keystroke	Key.space	n/a
571.4955	0.09	1142991	keystroke	r	n/a
571.6005	0.09	1143201	keystroke	o	n/a
571.6915	0.089	1143383	keystroke	u	n/a
571.8105	0.12	1143621	keystroke	t	n/a
571.9315	0.089	1143863	keystroke	e	n/a
572.1705	0.075	1144341	keystroke	Key.space	n/a
572.3805	0.09	1144761	keystroke	d	n/a
572.5005	0.06	1145001	keystroke	u	n/a
572.7405	0.135	1145481	keystroke	s	n/a
572.8455	0.09	1145691	keystroke	t	n/a
573.0855	0.12	1146171	keystroke	Key.space	n/a
573.7155	0.06	1147431	keystroke	n	n/a
573.9105	0.09	1147821	keystroke	v	n/a
574.0605	0.075	1148121	keystroke	i	n/a
574.1955	0.075	1148391	keystroke	d	n/a
574.3305	0.045	1148661	keystroke	i	n/a
574.3905	0.12	1148781	keystroke	a	n/a
574.6455	0.0895	1149291	keystroke	Key.enter	n/a
574.742	9.701	1149484	prompt	n/a	anna bradley paypal berlin\n
575.455	0.1205	1150910	keystroke	a	n/a
575.6205	0.0295	1151241	keystroke	n	n/a
575.725	0.075	1151450	keystroke	n	n/a
575.995	0.0905	1151990	keystroke	a	n/a
576.16	0.045	1152320	keystroke	Key.space	n/a
576.4	0.046	1152800	keystroke	b	n/a
576.686	0.06	1153372	keystroke	r	n/a
576.835	0.105	1153670	keystroke	a	n/a
576.925	0.09	1153850	keystroke	d	n/a
577.12	0.06	1154240	keystroke	l	n/a
577.3	0.075	1154600	keystroke	e	n/a
577.405	0.06	1154810	keystroke	y	n/a
577.63	0.075	1155260	keystroke	Key.space	n/a
577.885	0.12	1155770	keystroke	a	n/a
578.02	0.075	1156040	keystroke	y	n/a
580.228	0	1160456	keystroke	Key.backspace	n/a
580.39	0.09	1160780	keystroke	Key.backspace	n/a
580.975	0.105	1161950	keystroke	p	n/a
581.14	0.1055	1162280	keystroke	a	n/a
581.2605	0.045	1162521	keystroke	y	n/a
581.5755	0.09	1163151	keystroke	p	n/a
581.8005	0.105	1163601	keystroke	a	n/a
581.9205	0.06	1163841	keystroke	l	n/a
582.9255	0.06	1165851	keystroke	Key.space	n/a
583.3005	0.075	1166601	keystroke	b	n/a
583.4805	0.12	1166961	keystroke	e	n/a
583.5705	0.12	1167141	keystroke	r	n/a
583.8105	0.075	1167621	keystroke	l	n/a
583.9605	0.09	1167921	keystroke	i	n/a
584.0805	0.105	1168161	keystroke	n	n/a
584.3505	0.09	1168701	keystroke	Key.enter	n/a
584.45	8.723	1168900	prompt	n/a	conscious reef guest grade\n
585.1605	0.09	1170321	keystroke	c	n/a
585.2805	0.075	1170561	keystroke	o	n/a
585.4155	0.075	1170831	keystroke	n	n/a
585.5655	0.12	1171131	keystroke	s	n/a
585.7005	0.09	1171401	keystroke	c	n/a
585.8205	0.105	1171641	keystroke	i	n/a
586.0305	0.105	1172061	keystroke	o	n/a
586.1655	0.09	1172331	keystroke	u	n/a
586.3005	0.09	1172601	keystroke	s	n/a
586.5855	0.075	1173171	keystroke	Key.space	n/a
587.0205	0.075	1174041	keystroke	r	n/a
587.2005	0.06	1174401	keystroke	e	n/a
587.3055	0.12	1174611	keystroke	e	n/a
587.5605	0.09	1175121	keystroke	f	n/a
587.8605	0.12	1175721	keystroke	Key.space	n/a
588.3405	0.075	1176681	keystroke	g	n/a
588.4605	0.075	1176921	keystroke	u	n/a
588.6405	0.165	1177281	keystroke	s	n/a
588.7905	0.075	1177581	keystroke	t	n/a
590.17	0.0755	1180340	keystroke	Key.backspace	n/a
590.515	0.105	1181030	keystroke	Key.backspace	n/a
590.95	0.09	1181900	keystroke	e	n/a
591.1	0.12	1182200	keystroke	s	n/a
591.19	0.105	1182380	keystroke	t	n/a
591.565	0.06	1183130	keystroke	Key.space	n/a
592.225	0.075	1184450	keystroke	g	n/a
592.435	0.075	1184870	keystroke	r	n/a
592.57	0.15	1185140	keystroke	a	n/a
592.705	0.075	1185410	keystroke	d	n/a
592.855	0.09	1185710	keystroke	e	n/a
593.065	0.105	1186130	keystroke	Key.enter	n/a
593.1785	6.5185	1186357	prompt	n/a	preferences boost legal nevada\n
594.0705	0.0745	1188141	keystroke	p	n/a
594.19	0.135	1188380	keystroke	r	n/a
594.28	0.12	1188560	keystroke	e	n/a
594.64	0.105	1189280	keystroke	f	n/a
594.835	0.105	1189670	keystroke	e	n/a
594.9105	0.1195	1189821	keystroke	r	n/a
595.15	0.09	1190300	keystroke	e	n/a
595.2105	0.075	1190421	keystroke	n	n/a
595.36	0.12	1190720	keystroke	c	n/a
595.465	0.075	1190930	keystroke	e	n/a
595.63	0.09	1191260	keystroke	s	n/a
595.93	0.075	1191860	keystroke	Key.space	n/a
596.32	0.06	1192640	keystroke	b	n/a
596.59	0.06	1193180	keystroke	o	n/a
596.74	0.075	1193480	keystroke	o	n/a
596.89	0.105	1193780	keystroke	s	n/a
597.011	0.089	1194022	keystroke	t	n/a
597.205	0.075	1194410	keystroke	Key.space	n/a
597.49	0.06	1194980	keystroke	l	n/a
597.58	0.105	1195160	keystroke	e	n/a
597.73	0.18	1195460	keystroke	g	n/a
597.88	0.091	1195760	keystroke	a	n/a
598	0.09	1196000	keystroke	l	n/a
598.21	0.09	1196420	keystroke	Key.space	n/a
598.465	0.075	1196930	keystroke	n	n/a
598.525	0.12	1197050	keystroke	e	n/a
598.93	0.075	1197860	keystroke	v	n/a
599.065	0.12	1198130	keystroke	a	n/a
599.246	0.1195	1198492	keystroke	d	n/a
599.3355	0.119	1198671	keystroke	a	n/a
599.5905	0.104	1199181	keystroke	Key.enter	n/a
599.702	9.205	1199404	prompt	n/a	typically engagement wars volvo\n
600.88	0.075	1201760	keystroke	t	n/a
601	0.09	1202000	keystroke	y	n/a
601.345	0.105	1202690	keystroke	p	n/a
601.6	0.0605	1203200	keystroke	i	n/a
601.69	0.135	1203380	keystroke	c	n/a
601.81	0.105	1203620	keystroke	a	n/a
601.93	0.045	1203860	keystroke	l	n/a
602.05	0.12	1204100	keystroke	l	n/a
602.215	0.075	1204430	keystroke	y	n/a
602.77	0.105	1205540	keystroke	Key.space	n/a
603.235	0.075	1206470	keystroke	e	n/a
603.295	0.075	1206590	keystroke	n	n/a
603.5505	0.0445	1207101	keystroke	g	n/a
603.655	0.135	1207310	keystroke	a	n/a
603.715	0.135	1207430	keystroke	g	n/a
603.835	0.09	1207670	keystroke	e	n/a
604.2255	0.0895	1208451	keystroke	m	n/a
604.3	0.075	1208600	keystroke	e	n/a
604.42	0.06	1208840	keystroke	n	n/a
604.495	0.06	1208990	keystroke	t	n/a
604.825	0.0605	1209650	keystroke	Key.space	n/a
605.3355	0.0445	1210671	keystroke	w	n/a
605.455	0.135	1210910	keystroke	a	n/a
605.56	0.09	1211120	keystroke	r	n/a
605.71	0.075	1211420	keystroke	s	n/a
605.86	0.075	1211720	keystroke	Key.space	n/a
606.055	0.075	1212110	keystroke	v	n/a
606.145	0.06	1212290	keystroke	o	n/a
606.4	0.06	1212800	keystroke	l	n/a
606.52	0.075	1213040	keystroke	v	n/a
607.06	0.06	1214120	keystroke	s	n/a
608.02	0.09	1216040	keystroke	Key.backspace	n/a
608.305	0.045	1216610	keystroke	o	n/a
608.8	0.105	1217600	keystroke	Key.enter	n/a
608.9125	7.5995	1217825	prompt	n/a	bother howto jury capable\n
609.715	0.075	1219430	keystroke	b	n/a
609.941	0.059	1219882	keystroke	o	n/a
610.03	0.075	1220060	keystroke	t	n/a
610.12	0.075	1220240	keystroke	h	n/a
610.18	0.105	1220360	keystroke	e	n/a
610.27	0.075	1220540	keystroke	r	n/a
610.48	0.06	1220960	keystroke	Key.space	n/a
610.691	0.074	1221382	keystroke	h	n/a
610.856	0.09	1221712	keystroke	w	n/a
611.77	0.075	1223540	keystroke	Key.backspace	n/a
612.326	0.059	1224652	keystroke	o	n/a
612.43	0.075	1224860	keystroke	w	n/a
612.625	0.06	1225250	keystroke	t	n/a
612.76	0.075	1225520	keystroke	o	n/a
613.96	0.09	1227920	keystroke	Key.space	n/a
614.2	0.03	1228400	keystroke	j	n/a
614.321	0.074	1228642	keystroke	u	n/a
614.455	0.075	1228910	keystroke	r	n/a
614.576	0.044	1229152	keystroke	y	n/a
614.905	0.075	1229810	keystroke	Key.space	n/a
615.16	0.12	1230320	keystroke	c	n/a
615.296	0.104	1230592	keystroke	a	n/a
615.535	0.09	1231070	keystroke	p	n/a
615.641	0.09	1231282	keystroke	a	n/a
615.76	0.09	1231520	keystroke	b	n/a
615.971	0.074	1231942	keystroke	l	n/a
616.06	0.075	1232120	keystroke	e	n/a
616.42	0.09	1232840	keystroke	Key.enter	n/a
616.5165	8.801	1233033	prompt	n/a	tucson decide shed corporate\n
617.305	0.06	1234610	keystroke	t	n/a
617.441	0.075	1234882	keystroke	u	n/a
617.816	0.09	1235632	keystroke	s	n/a
619.36	0.105	1238720	keystroke	Key.backspace	n/a
619.705	0.09	1239410	keystroke	c	n/a
619.975	0.075	1239950	keystroke	s	n/a
620.08	0.09	1240160	keystroke	o	n/a
620.185	0.09	1240370	keystroke	n	n/a
620.7255	0.105	1241451	keystroke	Key.space	n/a
621.1755	0.075	1242351	keystroke	d	n/a
621.3555	0.075	1242711	keystroke	e	n/a
621.5655	0.075	1243131	keystroke	c	n/a
621.7005	0.09	1243401	keystroke	i	n/a
621.8055	0.045	1243611	keystroke	d	n/a
621.9705	0.06	1243941	keystroke	e	n/a
622.3305	0.075	1244661	keystroke	Key.space	n/a
622.5105	0.09	1245021	keystroke	s	n/a
622.6155	0.045	1245231	keystroke	h	n/a
622.6905	0.06	1245381	keystroke	e	n/a
623.3805	0.0745	1246761	keystroke	d	n/a
623.6355	0.09	1247271	keystroke	Key.space	n/a
623.7555	0.09	1247511	keystroke	c	n/a
623.9805	0.03	1247961	keystroke	o	n/a
624.0255	0.075	1248051	keystroke	r	n/a
624.1905	0.09	1248381	keystroke	p	n/a
624.3555	0.09	1248711	keystroke	o	n/a
624.4605	0.105	1248921	keystroke	r	n/a
624.6105	0.105	1249221	keystroke	a	n/a
624.6855	0.09	1249371	keystroke	t	n/a
624.7455	0.12	1249491	keystroke	e	n/a
625.24	0.075	1250480	keystroke	Key.enter	n/a
625.3225	6.22	1250645	prompt	n/a	throws pros fort return\n
625.96	0.06	1251920	keystroke	t	n/a
626.05	0.045	1252100	keystroke	h	n/a
626.185	0.06	1252370	keystroke	r	n/a
626.291	0.059	1252582	keystroke	o	n/a
626.366	0.059	1252732	keystroke	w	n/a
626.545	0.09	1253090	keystroke	s	n/a
626.695	0.09	1253390	keystroke	Key.space	n/a
626.965	0.105	1253930	keystroke	p	n/a
627.085	0.075	1254170	keystroke	r	n/a
627.235	0.075	1254470	keystroke	o	n/a
627.88	0.075	1255760	keystroke	s	n/a
628.6	0.09	1257200	keystroke	Key.space	n/a
629.83	0.09	1259660	keystroke	f	n/a
629.95	0.075	1259900	keystroke	o	n/a
630.041	0.059	1260082	keystroke	r	n/a
630.205	0.075	1260410	keystroke	t	n/a
630.34	0.105	1260680	keystroke	Key.space	n/a
630.475	0.105	1260950	keystroke	r	n/a
630.565	0.09	1261130	keystroke	e	n/a
630.7155	0.075	1261431	keystroke	t	n/a
630.8355	0.075	1261671	keystroke	u	n/a
630.9555	0.045	1261911	keystroke	r	n/a
631.1505	0.06	1262301	keystroke	n	n/a
631.4805	0.06	1262961	keystroke	Key.enter	n/a
631.5495	11.827	1263099	prompt	n/a	lincoln coast liable cocktail\n
632.4855	0.06	1264971	keystroke	i	n/a
634.0455	0.09	1268091	keystroke	Key.backspace	n/a
634.5705	0.06	1269141	keystroke	l	n/a
634.7505	0.06	1269501	keystroke	i	n/a
634.9005	0.075	1269801	keystroke	c	n/a
635.9055	0.075	1271811	keystroke	Key.backspace	n/a
636.2355	0.06	1272471	keystroke	n	n/a
636.4455	0.105	1272891	keystroke	c	n/a
636.6105	0.075	1273221	keystroke	o	n/a
636.8505	0.075	1273701	keystroke	l	n/a
637.2705	0.06	1274541	keystroke	n	n/a
637.8855	0.09	1275771	keystroke	Key.space	n/a
638.3805	0.09	1276761	keystroke	c	n/a
638.5605	0.06	1277121	keystroke	o	n/a
638.6955	0.15	1277391	keystroke	a	n/a
638.8155	0.165	1277631	keystroke	s	n/a
638.9055	0.105	1277811	keystroke	t	n/a
639.2805	0.105	1278561	keystroke	Key.space	n/a
639.8655	0.075	1279731	keystroke	l	n/a
640.0305	0.06	1280061	keystroke	i	n/a
640.1355	0.1195	1280271	keystroke	a	n/a
640.256	0.074	1280512	keystroke	b	n/a
640.51	0.075	1281020	keystroke	e	n/a
640.9	0.045	1281800	keystroke	Key.backspace	n/a
641.1405	0.075	1282281	keystroke	l	n/a
641.2005	0.06	1282401	keystroke	e	n/a
641.5005	0.09	1283001	keystroke	Key.space	n/a
641.8755	0.09	1283751	keystroke	c	n/a
642.1455	0.06	1284291	keystroke	o	n/a
642.2955	0.09	1284591	keystroke	c	n/a
642.4155	0.075	1284831	keystroke	k	n/a
642.5655	0.075	1285131	keystroke	t	n/a
642.7305	0.09	1285461	keystroke	a	n/a
642.8505	0.075	1285701	keystroke	i	n/a
642.9855	0.12	1285971	keystroke	l	n/a
643.3005	0.075	1286601	keystroke	Key.enter	n/a
643.382	5.74	1286764	prompt	n/a	here fotos the hourly\n
644.1255	0.06	1288251	keystroke	h	n/a
644.7855	0.105	1289571	keystroke	e	n/a
644.9055	0.12	1289811	keystroke	r	n/a
644.9805	0.09	1289961	keystroke	e	n/a
645.2355	0.105	1290471	keystroke	Key.space	n/a
645.6105	0.09	1291221	keystroke	f	n/a
645.7155	0.06	1291431	keystroke	o	n/a
645.8655	0.06	1291731	keystroke	t	n/a
645.9405	0.06	1291881	keystroke	o	n/a
646.0455	0.09	1292091	keystroke	s	n/a
646.3005	0.105	1292601	keystroke	Key.space	n/a
646.6155	0.09	1293231	keystroke	t	n/a
646.7355	0.09	1293471	keystroke	h	n/a
646.8105	0.09	1293621	keystroke	e	n/a
646.9755	0.06	1293951	keystroke	Key.space	n/a
647.485	0.06	1294970	keystroke	h	n/a
647.68	0.06	1295360	keystroke	o	n/a
648.22	0.0755	1296440	keystroke	u	n/a
648.2655	0.0895	1296531	keystroke	r	n/a
648.5055	0.075	1297011	keystroke	l	n/a
648.6255	0.075	1297251	keystroke	y	n/a
649.0305	0.09	1298061	keystroke	Key.enter	n/a
649.128	7.2245	1298256	prompt	n/a	achieve handheld resist tours\n
649.7655	0.15	1299531	keystroke	a	n/a
649.8705	0.105	1299741	keystroke	c	n/a
650.02	0.075	1300040	keystroke	h	n/a
650.125	0.06	1300250	keystroke	i	n/a
650.2755	0.0745	1300551	keystroke	e	n/a
650.4405	0.1045	1300881	keystroke	v	n/a
650.5605	0.075	1301121	keystroke	e	n/a
650.8	0.12	1301600	keystroke	Key.space	n/a
651.4605	0.06	1302921	keystroke	h	n/a
651.9855	0.135	1303971	keystroke	a	n/a
652.1055	0.06	1304211	keystroke	n	n/a
652.2105	0.06	1304421	keystroke	d	n/a
652.8255	0.045	1305651	keystroke	h	n/a
652.9155	0.06	1305831	keystroke	e	n/a
653.0805	0.075	1306161	keystroke	l	n/a
653.1705	0.075	1306341	keystroke	d	n/a
654.1	0.09	1308200	keystroke	Key.space	n/a
654.355	0.135	1308710	keystroke	r	n/a
654.46	0.045	1308920	keystroke	e	n/a
654.625	0.09	1309250	keystroke	s	n/a
654.76	0.06	1309520	keystroke	i	n/a
654.895	0.105	1309790	keystroke	s	n/a
655.015	0.075	1310030	keystroke	t	n/a
655.285	0.105	1310570	keystroke	Key.space	n/a
655.526	0.074	1311052	keystroke	t	n/a
655.645	0.105	1311290	keystroke	o	n/a
655.795	0.09	1311590	keystroke	u	n/a
655.87	0.06	1311740	keystroke	r	n/a
656.005	0.105	1312010	keystroke	s	n/a
656.23	0.12	1312460	keystroke	Key.enter	n/a
656.359	12.263	1312718	prompt	n/a	continuing ourselves nowhere disco\n
657.085	0.09	1314170	keystroke	c	n/a
657.22	0.075	1314440	keystroke	o	n/a
657.445	0.075	1314890	keystroke	n	n/a
657.64	0.075	1315280	keystroke	t	n/a
657.73	0.075	1315460	keystroke	i	n/a
657.88	0.06	1315760	keystroke	n	n/a
658.105	0.06	1316210	keystroke	u	n/a
658.315	0.075	1316630	keystroke	i	n/a
658.42	0.075	1316840	keystroke	n	n/a
658.51	0.075	1317020	keystroke	g	n/a
658.765	0.06	1317530	keystroke	Key.space	n/a
659.395	0.06	1318790	keystroke	o	n/a
659.545	0.06	1319090	keystroke	u	n/a
659.59	0.06	1319180	keystroke	r	n/a
659.83	0.105	1319660	keystroke	s	n/a
659.905	0.12	1319810	keystroke	e	n/a
660.13	0.06	1320260	keystroke	l	n/a
660.205	0.09	1320410	keystroke	v	n/a
660.355	0.075	1320710	keystroke	e	n/a
660.52	0.075	1321040	keystroke	s	n/a
661.075	0.075	1322150	keystroke	Key.space	n/a
661.5255	0.075	1323051	keystroke	n	n/a
661.6155	0.075	1323231	keystroke	o	n/a
661.7205	0.09	1323441	keystroke	w	n/a
662.0955	0.075	1324191	keystroke	e	n/a
663.8805	0.105	1327761	keystroke	=	n/a
664.5855	0.0445	1329171	keystroke	Key.backspace	n/a
664.7505	0.0745	1329501	keystroke	Key.backspace	n/a
666.46	0.06	1332920	keystroke	h	n/a
