onset	duration	sample	value	key	prompt_text
2.305	19.179	4610	prompt	n/a	the quick brown fox jumps over a lazy dog\n
3.6955	0.112	7391	keystroke_Key.alt_gr	Key.alt_gr	n/a
7.425	0.136	14850	keystroke_t	t	n/a
7.545	0.1125	15090	keystroke_h	h	n/a
7.649	0.113	15298	keystroke_e	e	n/a
7.802	0.072	15604	keystroke_Key.space	Key.space	n/a
8.266	0.168	16532	keystroke_q	q	n/a
8.394	0.192	16788	keystroke_u	u	n/a
9.138	0.112	18276	keystroke_i	i	n/a
9.274	0.152	18548	keystroke_c	c	n/a
9.41	0.072	18820	keystroke_k	k	n/a
9.418	0.056	18836	keystroke_j	j	n/a
10.066	0.12	20132	keystroke_=	=	n/a
10.266	0.096	20532	keystroke_=	=	n/a
10.914	0.072	21828	keystroke_Key.backspace	Key.backspace	n/a
11.074	0.08	22148	keystroke_Key.backspace	Key.backspace	n/a
11.226	0.096	22452	keystroke_Key.backspace	Key.backspace	n/a
11.402	0.096	22804	keystroke_Key.backspace	Key.backspace	n/a
11.698	0.08	23396	keystroke_Key.backspace	Key.backspace	n/a
12.53	0.152	25060	keystroke_c	c	n/a
12.61	0.112	25220	keystroke_k	k	n/a
12.93	0.12	25860	keystroke_Key.space	Key.space	n/a
13.178	0.152	26356	keystroke_b	b	n/a
13.33	0.16	26660	keystroke_r	r	n/a
13.522	0.048	27044	keystroke_o	o	n/a
13.762	0.152	27524	keystroke_w	w	n/a
13.922	0.104	27844	keystroke_n	n	n/a
14.186	0.096	28372	keystroke_Key.space	Key.space	n/a
14.386	0.136	28772	keystroke_f	f	n/a
14.506	0.088	29012	keystroke_o	o	n/a
14.898	0.128	29796	keystroke_x	x	n/a
15.09	0.128	30180	keystroke_Key.space	Key.space	n/a
15.434	0.128	30868	keystroke_j	j	n/a
15.602	0.128	31204	keystroke_u	u	n/a
15.802	0.136	31604	keystroke_m	m	n/a
16.01	0.088	32020	keystroke_p	p	n/a
16.498	0.128	32996	keystroke_s	s	n/a
16.746	0.104	33492	keystroke_Key.space	Key.space	n/a
16.978	0.136	33956	keystroke_o	o	n/a
17.106	0.12	34212	keystroke_v	v	n/a
17.194	0.192	34388	keystroke_e	e	n/a
17.386	0.168	34772	keystroke_r	r	n/a
17.778	0.128	35556	keystroke_Key.space	Key.space	n/a
17.978	0.16	35956	keystroke_a	a	n/a
18.106	0.096	36212	keystroke_Key.space	Key.space	n/a
18.322	0.168	36644	keystroke_l	l	n/a
18.45	0.096	36900	keystroke_a	a	n/a
18.666	0.128	37332	keystroke_z	z	n/a
18.97	0.176	37940	keystroke_y	y	n/a
19.282	0.112	38564	keystroke_Key.space	Key.space	n/a
19.514	0.136	39028	keystroke_d	d	n/a
19.634	0.136	39268	keystroke_o	o	n/a
19.786	0.152	39572	keystroke_g	g	n/a
21.402	0.08	42804	keystroke_Key.enter	Key.enter	n/a
21.488	17.6025	42976	prompt	n/a	who'll viewers aboriginal been\n
22.674	0.184	45348	keystroke_w	w	n/a
22.834	0.128	45668	keystroke_g	g	n/a
22.842	0.088	45684	keystroke_h	h	n/a
22.906	0.192	45812	keystroke_i	i	n/a
23.378	0.064	46756	keystroke_=	=	n/a
23.53	0.088	47060	keystroke_=	=	n/a
24.13	0.064	48260	keystroke_Key.backspace	Key.backspace	n/a
24.274	0.096	48548	keystroke_Key.backspace	Key.backspace	n/a
24.426	0.088	48852	keystroke_Key.backspace	Key.backspace	n/a
24.594	0.096	49188	keystroke_Key.backspace	Key.backspace	n/a
24.762	0.088	49524	keystroke_Key.backspace	Key.backspace	n/a
25.969	0.152	51938	keystroke_h	h	n/a
26.097	0.144	52194	keystroke_o	o	n/a
26.457	0.128	52914	keystroke_;	;	n/a
27.721	0.096	55442	keystroke_Key.backspace	Key.backspace	n/a
28.465	0.12	56930	keystroke_'	'	n/a
29.314	0.088	58628	keystroke_l	l	n/a
29.474	0.072	58948	keystroke_l	l	n/a
29.674	0.096	59348	keystroke_Key.space	Key.space	n/a
30.058	0.128	60116	keystroke_v	v	n/a
31.066	0.096	62132	keystroke_i	i	n/a
31.218	0.248	62436	keystroke_e	e	n/a
31.314	0.176	62628	keystroke_w	w	n/a
31.994	0.192	63988	keystroke_e	e	n/a
32.194	0.184	64388	keystroke_r	r	n/a
32.442	0.152	64884	keystroke_s	s	n/a
32.602	0.104	65204	keystroke_Key.space	Key.space	n/a
32.898	0.1355	65796	keystroke_a	a	n/a
33.2015	0.128	66403	keystroke_b	b	n/a
33.6735	0.153	67347	keystroke_r	r	n/a
33.8495	0.112	67699	keystroke_i	i	n/a
35.1935	0.072	70387	keystroke_Key.backspace	Key.backspace	n/a
35.3775	0.064	70755	keystroke_Key.backspace	Key.backspace	n/a
36.4975	0.12	72995	keystroke_o	o	n/a
36.6575	0.128	73315	keystroke_r	r	n/a
36.7855	0.104	73571	keystroke_i	i	n/a
36.9625	0.167	73925	keystroke_g	g	n/a
37.1215	0.1435	74243	keystroke_i	i	n/a
37.217	0.144	74434	keystroke_n	n	n/a
37.362	0.191	74724	keystroke_a	a	n/a
37.489	0.12	74978	keystroke_l	l	n/a
37.809	0.096	75618	keystroke_Key.space	Key.space	n/a
38.025	0.112	76050	keystroke_b	b	n/a
38.138	0.071	76276	keystroke_e	e	n/a
38.297	0.144	76594	keystroke_e	e	n/a
38.425	0.128	76850	keystroke_n	n	n/a
39.009	0.08	78018	keystroke_Key.enter	Key.enter	n/a
39.0935	7.917	78187	prompt	n/a	worn earn depends miles\n
42.177	0.112	84354	keystroke_w	w	n/a
42.521	0.104	85042	keystroke_o	o	n/a
42.769	0.144	85538	keystroke_r	r	n/a
42.945	0.112	85890	keystroke_n	n	n/a
43.289	0.088	86578	keystroke_Key.space	Key.space	n/a
43.545	0.296	87090	keystroke_e	e	n/a
43.649	0.152	87298	keystroke_a	a	n/a
43.793	0.152	87586	keystroke_r	r	n/a
43.977	0.096	87954	keystroke_n	n	n/a
44.249	0.096	88498	keystroke_Key.space	Key.space	n/a
44.569	0.152	89138	keystroke_d	d	n/a
44.657	0.152	89314	keystroke_e	e	n/a
44.825	0.104	89650	keystroke_p	p	n/a
44.985	0.144	89970	keystroke_e	e	n/a
45.137	0.104	90274	keystroke_n	n	n/a
45.265	0.176	90530	keystroke_d	d	n/a
45.393	0.16	90786	keystroke_s	s	n/a
45.609	0.088	91218	keystroke_Key.space	Key.space	n/a
46.057	0.104	92114	keystroke_m	m	n/a
46.225	0.176	92450	keystroke_i	i	n/a
46.361	0.152	92722	keystroke_l	l	n/a
46.505	0.088	93010	keystroke_e	e	n/a
46.705	0.104	93410	keystroke_s	s	n/a
46.905	0.104	93810	keystroke_Key.enter	Key.enter	n/a
47.0135	9.5645	94027	prompt	n/a	morrison blackjack parker arrivals\n
47.729	0.152	95458	keystroke_m	m	n/a
47.945	0.12	95890	keystroke_o	o	n/a
48.105	0.088	96210	keystroke_r	r	n/a
48.273	0.12	96546	keystroke_r	r	n/a
48.377	0.0885	96754	keystroke_i	i	n/a
48.5855	0.176	97171	keystroke_s	s	n/a
48.7455	0.128	97491	keystroke_o	o	n/a
48.8255	0.112	97651	keystroke_n	n	n/a
49.0495	0.08	98099	keystroke_Key.space	Key.space	n/a
49.2335	0.104	98467	keystroke_b	b	n/a
49.3855	0.12	98771	keystroke_l	l	n/a
49.4495	0.136	98899	keystroke_a	a	n/a
49.6735	0.112	99347	keystroke_c	c	n/a
49.7455	0.12	99491	keystroke_k	k	n/a
50.1615	0.136	100323	keystroke_j	j	n/a
50.3295	0.128	100659	keystroke_a	a	n/a
50.5055	0.176	101011	keystroke_c	c	n/a
50.6655	0.096	101331	keystroke_k	k	n/a
50.8655	0.072	101731	keystroke_Key.space	Key.space	n/a
51.0895	0.104	102179	keystroke_o	o	n/a
51.1695	0.128	102339	keystroke_a	a	n/a
52.481	0.08	104962	keystroke_Key.backspace	Key.backspace	n/a
52.633	0.088	105266	keystroke_Key.backspace	Key.backspace	n/a
53.425	0.12	106850	keystroke_p	p	n/a
53.521	0.168	107042	keystroke_a	a	n/a
53.657	0.128	107314	keystroke_r	r	n/a
53.769	0.152	107538	keystroke_k	k	n/a
54.001	0.152	108002	keystroke_e	e	n/a
54.169	0.144	108338	keystroke_r	r	n/a
54.361	0.12	108722	keystroke_Key.space	Key.space	n/a
54.705	0.136	109410	keystroke_a	a	n/a
54.905	0.088	109810	keystroke_r	r	n/a
55.057	0.112	110114	keystroke_r	r	n/a
55.185	0.112	110370	keystroke_i	i	n/a
55.369	0.192	110738	keystroke_v	v	n/a
55.481	0.184	110962	keystroke_a	a	n/a
56.009	0.112	112018	keystroke_l	l	n/a
56.185	0.152	112370	keystroke_s	s	n/a
56.489	0.088	112978	keystroke_Key.enter	Key.enter	n/a
56.5805	10.589	113161	prompt	n/a	sarah memphis logitech lace\n
57.3845	0.176	114769	keystroke_s	s	n/a
57.5125	0.152	115025	keystroke_a	a	n/a
57.7525	0.192	115505	keystroke_r	r	n/a
57.8645	0.1675	115729	keystroke_a	a	n/a
58.2	0.0885	116400	keystroke_h	h	n/a
58.4885	0.088	116977	keystroke_Key.space	Key.space	n/a
58.7205	0.112	117441	keystroke_m	m	n/a
58.8405	0.136	117681	keystroke_e	e	n/a
59.0885	0.128	118177	keystroke_m	m	n/a
59.3685	0.096	118737	keystroke_o	o	n/a
59.6645	0.16	119329	keystroke_h	h	n/a
59.7765	0.12	119553	keystroke_i	i	n/a
59.9205	0.152	119841	keystroke_c	c	n/a
60.2165	0.088	120433	keystroke_Key.backspace	Key.backspace	n/a
60.4005	0.08	120801	keystroke_Key.backspace	Key.backspace	n/a
60.5605	0.112	121121	keystroke_Key.backspace	Key.backspace	n/a
60.7605	0.064	121521	keystroke_Key.backspace	Key.backspace	n/a
63.2485	0.088	126497	keystroke_p	p	n/a
63.5045	0.144	127009	keystroke_h	h	n/a
63.6165	0.128	127233	keystroke_i	i	n/a
63.8005	0.152	127601	keystroke_s	s	n/a
64.1205	0.096	128241	keystroke_Key.space	Key.space	n/a
64.4965	0.096	128993	keystroke_l	l	n/a
64.7285	0.112	129457	keystroke_o	o	n/a
64.9605	0.136	129921	keystroke_g	g	n/a
65.0725	0.104	130145	keystroke_i	i	n/a
65.3845	0.136	130769	keystroke_t	t	n/a
65.5685	0.12	131137	keystroke_e	e	n/a
65.8165	0.144	131633	keystroke_c	c	n/a
65.9525	0.064	131905	keystroke_h	h	n/a
66.1525	0.08	132305	keystroke_Key.space	Key.space	n/a
66.3445	0.128	132689	keystroke_l	l	n/a
66.4565	0.136	132913	keystroke_a	a	n/a
66.6165	0.192	133233	keystroke_c	c	n/a
66.7285	0.184	133457	keystroke_e	e	n/a
67.0645	0.104	134129	keystroke_Key.enter	Key.enter	n/a
67.1725	6.1575	134345	prompt	n/a	clothing great dream rosa\n
68.2005	0.1835	136401	keystroke_c	c	n/a
68.304	0.088	136608	keystroke_l	l	n/a
68.496	0.088	136992	keystroke_o	o	n/a
68.728	0.1605	137456	keystroke_t	t	n/a
68.848	0.12	137696	keystroke_h	h	n/a
68.9365	0.1435	137873	keystroke_i	i	n/a
69.144	0.096	138288	keystroke_n	n	n/a
69.216	0.128	138432	keystroke_g	g	n/a
69.352	0.096	138704	keystroke_Key.space	Key.space	n/a
69.488	0.096	138976	keystroke_g	g	n/a
69.728	0.2	139456	keystroke_r	r	n/a
69.832	0.256	139664	keystroke_e	e	n/a
69.92	0.144	139840	keystroke_a	a	n/a
70.072	0.128	140144	keystroke_t	t	n/a
70.184	0.088	140368	keystroke_Key.space	Key.space	n/a
70.392	0.12	140784	keystroke_d	d	n/a
70.68	0.208	141360	keystroke_r	r	n/a
70.768	0.2	141536	keystroke_e	e	n/a
70.864	0.168	141728	keystroke_a	a	n/a
71.128	0.096	142256	keystroke_s	s	n/a
71.48	0.08	142960	keystroke_Key.backspace	Key.backspace	n/a
71.744	0.12	143488	keystroke_m	m	n/a
72.064	0.096	144128	keystroke_Key.space	Key.space	n/a
72.568	0.152	145136	keystroke_r	r	n/a
72.721	0.087	145442	keystroke_o	o	n/a
72.872	0.192	145744	keystroke_s	s	n/a
73.024	0.16	146048	keystroke_a	a	n/a
73.232	0.096	146464	keystroke_Key.enter	Key.enter	n/a
73.3325	5.438	146665	prompt	n/a	assist view smith crimes\n
73.976	0.152	147952	keystroke_a	a	n/a
74.144	0.1045	148288	keystroke_s	s	n/a
74.336	0.1525	148672	keystroke_s	s	n/a
74.4965	0.08	148993	keystroke_i	i	n/a
74.6085	0.1275	149217	keystroke_s	s	n/a
75.0325	0.136	150065	keystroke_t	t	n/a
75.2565	0.1035	150513	keystroke_Key.space	Key.space	n/a
75.5205	0.136	151041	keystroke_v	v	n/a
75.6645	0.12	151329	keystroke_i	i	n/a
75.7765	0.248	151553	keystroke_e	e	n/a
75.9045	0.184	151809	keystroke_w	w	n/a
76.1765	0.104	152353	keystroke_Key.space	Key.space	n/a
76.721	0.144	153442	keystroke_s	s	n/a
76.881	0.112	153762	keystroke_m	m	n/a
77.017	0.112	154034	keystroke_i	i	n/a
77.1845	0.1365	154369	keystroke_t	t	n/a
77.385	0.096	154770	keystroke_h	h	n/a
77.617	0.088	155234	keystroke_Key.space	Key.space	n/a
77.769	0.12	155538	keystroke_c	c	n/a
78.025	0.12	156050	keystroke_r	r	n/a
78.113	0.088	156226	keystroke_i	i	n/a
78.288	0.129	156576	keystroke_m	m	n/a
78.368	0.088	156736	keystroke_e	e	n/a
78.585	0.079	157170	keystroke_s	s	n/a
78.688	0.08	157376	keystroke_Key.enter	Key.enter	n/a
78.776	7.6175	157552	prompt	n/a	principles issues hierarchy thats\n
79.464	0.104	158928	keystroke_p	p	n/a
79.616	0.16	159232	keystroke_r	r	n/a
79.752	0.12	159504	keystroke_i	i	n/a
80.032	0.112	160064	keystroke_n	n	n/a
80.448	0.152	160896	keystroke_c	c	n/a
80.584	0.08	161168	keystroke_i	i	n/a
80.792	0.104	161584	keystroke_p	p	n/a
81.017	0.103	162034	keystroke_l	l	n/a
81.121	0.087	162242	keystroke_e	e	n/a
81.345	0.111	162690	keystroke_s	s	n/a
81.457	0.071	162914	keystroke_Key.space	Key.space	n/a
81.672	0.088	163344	keystroke_i	i	n/a
81.88	0.08	163760	keystroke_s	s	n/a
82.048	0.112	164096	keystroke_s	s	n/a
82.152	0.096	164304	keystroke_u	u	n/a
82.272	0.088	164544	keystroke_e	e	n/a
82.488	0.104	164976	keystroke_s	s	n/a
82.568	0.088	165136	keystroke_Key.space	Key.space	n/a
82.816	0.184	165632	keystroke_h	h	n/a
82.968	0.137	165936	keystroke_i	i	n/a
83.152	0.128	166304	keystroke_e	e	n/a
83.368	0.137	166736	keystroke_r	r	n/a
83.672	0.16	167344	keystroke_a	a	n/a
84.608	0.096	169216	keystroke_r	r	n/a
84.864	0.112	169728	keystroke_c	c	n/a
84.992	0.104	169984	keystroke_h	h	n/a
85.192	0.072	170384	keystroke_y	y	n/a
85.408	0.112	170816	keystroke_Key.space	Key.space	n/a
85.72	0.136	171440	keystroke_t	t	n/a
85.857	0.103	171714	keystroke_h	h	n/a
85.929	0.151	171858	keystroke_a	a	n/a
86.04	0.089	172080	keystroke_t	t	n/a
86.232	0.08	172464	keystroke_s	s	n/a
86.304	0.088	172608	keystroke_Key.enter	Key.enter	n/a
86.3965	6.2375	172793	prompt	n/a	suites returns tony cheapest\n
87.152	0.168	174304	keystroke_s	s	n/a
87.408	0.192	174816	keystroke_u	u	n/a
87.504	0.136	175008	keystroke_i	i	n/a
87.648	0.128	175296	keystroke_t	t	n/a
87.728	0.096	175456	keystroke_e	e	n/a
87.968	0.08	175936	keystroke_s	s	n/a
88.064	0.088	176128	keystroke_Key.space	Key.space	n/a
88.256	0.169	176512	keystroke_r	r	n/a
88.336	0.12	176672	keystroke_e	e	n/a
88.536	0.104	177072	keystroke_t	t	n/a
88.664	0.089	177328	keystroke_u	u	n/a
88.736	0.136	177472	keystroke_r	r	n/a
88.88	0.096	177760	keystroke_n	n	n/a
89.048	0.144	178096	keystroke_s	s	n/a
89.496	0.096	178992	keystroke_Key.space	Key.space	n/a
89.664	0.144	179328	keystroke_t	t	n/a
89.752	0.136	179504	keystroke_o	o	n/a
89.912	0.12	179824	keystroke_n	n	n/a
90.072	0.104	180144	keystroke_y	y	n/a
90.272	0.088	180544	keystroke_Key.space	Key.space	n/a
90.488	0.136	180976	keystroke_c	c	n/a
90.592	0.096	181184	keystroke_h	h	n/a
90.744	0.256	181488	keystroke_e	e	n/a
90.88	0.152	181760	keystroke_a	a	n/a
91.136	0.088	182272	keystroke_p	p	n/a
91.416	0.096	182832	keystroke_e	e	n/a
91.664	0.088	183328	keystroke_s	s	n/a
91.856	0.12	183712	keystroke_t	t	n/a
92.528	0.104	185056	keystroke_Key.enter	Key.enter	n/a
92.6365	8.757	185273	prompt	n/a	medicaid ringtone kingdom interact\n
93.504	0.104	187008	keystroke_m	m	n/a
93.609	0.111	187218	keystroke_e	e	n/a
93.8	0.144	187600	keystroke_d	d	n/a
93.96	0.032	187920	keystroke_u	u	n/a
94.664	0.104	189328	keystroke_Key.backspace	Key.backspace	n/a
95.401	0.103	190802	keystroke_i	i	n/a
95.561	0.183	191122	keystroke_c	c	n/a
95.672	0.168	191344	keystroke_a	a	n/a
96.096	0.144	192192	keystroke_i	i	n/a
96.344	0.152	192688	keystroke_d	d	n/a
96.56	0.112	193120	keystroke_Key.space	Key.space	n/a
97.417	0.127	194834	keystroke_r	r	n/a
97.536	0.128	195072	keystroke_i	i	n/a
97.632	0.12	195264	keystroke_n	n	n/a
97.712	0.096	195424	keystroke_g	g	n/a
97.912	0.136	195824	keystroke_t	t	n/a
97.992	0.144	195984	keystroke_o	o	n/a
98.08	0.144	196160	keystroke_n	n	n/a
98.216	0.152	196432	keystroke_e	e	n/a
98.416	0.096	196832	keystroke_Key.space	Key.space	n/a
98.736	0.088	197472	keystroke_k	k	n/a
98.928	0.12	197856	keystroke_i	i	n/a
99.009	0.119	198018	keystroke_n	n	n/a
99.088	0.104	198176	keystroke_g	g	n/a
99.329	0.111	198658	keystroke_d	d	n/a
99.425	0.087	198850	keystroke_o	o	n/a
99.632	0.112	199264	keystroke_m	m	n/a
99.904	0.096	199808	keystroke_Key.space	Key.space	n/a
100.129	0.135	200258	keystroke_i	i	n/a
100.232	0.112	200464	keystroke_n	n	n/a
100.296	0.121	200592	keystroke_t	t	n/a
100.384	0.176	200768	keystroke_e	e	n/a
100.504	0.136	201008	keystroke_r	r	n/a
100.704	0.144	201408	keystroke_a	a	n/a
100.952	0.073	201904	keystroke_c	c	n/a
101.152	0.088	202304	keystroke_t	t	n/a
101.304	0.088	202608	keystroke_Key.enter	Key.enter	n/a
101.3965	6.845	202793	prompt	n/a	rabbit sentence stood shame\n
102.192	0.1525	204384	keystroke_r	r	n/a
102.2725	0.184	204545	keystroke_a	a	n/a
102.5045	0.08	205009	keystroke_b	b	n/a
102.6485	0.088	205297	keystroke_b	b	n/a
102.8085	0.088	205617	keystroke_i	i	n/a
102.9205	0.128	205841	keystroke_t	t	n/a
103.0885	0.104	206177	keystroke_Key.space	Key.space	n/a
103.4565	0.088	206913	keystroke_s	s	n/a
103.6645	0.112	207329	keystroke_e	e	n/a
103.7845	0.096	207569	keystroke_n	n	n/a
104.5765	0.168	209153	keystroke_t	t	n/a
104.6645	0.184	209329	keystroke_e	e	n/a
104.9205	0.096	209841	keystroke_n	n	n/a
105.2005	0.176	210401	keystroke_c	c	n/a
105.2805	0.168	210561	keystroke_e	e	n/a
105.4645	0.096	210929	keystroke_Key.space	Key.space	n/a
105.9525	0.128	211905	keystroke_s	s	n/a
106.1365	0.136	212273	keystroke_t	t	n/a
106.2885	0.064	212577	keystroke_o	o	n/a
106.4245	0.104	212849	keystroke_o	o	n/a
106.5525	0.168	213105	keystroke_d	d	n/a
106.7045	0.088	213409	keystroke_Key.space	Key.space	n/a
107.4245	0.12	214849	keystroke_s	s	n/a
107.5365	0.088	215073	keystroke_h	h	n/a
107.6165	0.152	215233	keystroke_a	a	n/a
107.7845	0.128	215569	keystroke_m	m	n/a
107.9045	0.128	215809	keystroke_e	e	n/a
108.1205	0.12	216241	keystroke_Key.enter	Key.enter	n/a
108.244	8.5655	216488	prompt	n/a	evolution multiple signatures measures\n
109.0405	0.1195	218081	keystroke_e	e	n/a
109.272	0.1525	218544	keystroke_v	v	n/a
109.3765	0.088	218753	keystroke_o	o	n/a
109.5845	0.0955	219169	keystroke_l	l	n/a
109.8	0.08	219600	keystroke_u	u	n/a
109.984	0.128	219968	keystroke_t	t	n/a
110.032	0.2	220064	keystroke_i	i	n/a
110.112	0.136	220224	keystroke_o	o	n/a
110.2005	0.0955	220401	keystroke_n	n	n/a
110.408	0.056	220816	keystroke_Key.space	Key.space	n/a
110.576	0.112	221152	keystroke_m	m	n/a
110.9365	0.024	221873	keystroke_u	u	n/a
111.344	0.088	222688	keystroke_l	l	n/a
111.784	0.12	223568	keystroke_t	t	n/a
111.912	0.08	223824	keystroke_i	i	n/a
112.088	0.088	224176	keystroke_p	p	n/a
112.296	0.096	224592	keystroke_l	l	n/a
112.4	0.112	224800	keystroke_e	e	n/a
112.52	0.08	225040	keystroke_Key.space	Key.space	n/a
112.688	0.112	225376	keystroke_s	s	n/a
112.808	0.072	225616	keystroke_i	i	n/a
112.944	0.1445	225888	keystroke_g	g	n/a
113.064	0.088	226128	keystroke_n	n	n/a
113.312	0.16	226624	keystroke_a	a	n/a
113.728	0.104	227456	keystroke_t	t	n/a
113.864	0.096	227728	keystroke_u	u	n/a
113.976	0.152	227952	keystroke_r	r	n/a
114.408	0.152	228816	keystroke_e	e	n/a
114.896	0.152	229792	keystroke_s	s	n/a
115.112	0.08	230224	keystroke_Key.space	Key.space	n/a
115.336	0.128	230672	keystroke_m	m	n/a
115.432	0.224	230864	keystroke_e	e	n/a
115.536	0.176	231072	keystroke_a	a	n/a
115.88	0.12	231760	keystroke_s	s	n/a
116.064	0.12	232128	keystroke_u	u	n/a
116.136	0.184	232272	keystroke_r	r	n/a
116.216	0.136	232432	keystroke_e	e	n/a
116.464	0.112	232928	keystroke_s	s	n/a
116.704	0.104	233408	keystroke_Key.enter	Key.enter	n/a
116.8125	2.821	233625	prompt	n/a	trek adventures guild wendy\n
117.576	0.08	235152	keystroke_t	t	n/a
117.776	0.184	235552	keystroke_r	r	n/a
117.88	0.176	235760	keystroke_e	e	n/a
118.112	0.096	236224	keystroke_k	k	n/a
118.36	0.08	236720	keystroke_Key.space	Key.space	n/a
119.248	0.096	238496	keystroke_Key.backspace	Key.backspace	n/a
119.576	0.056	239152	keystroke_Key.enter	Key.enter	n/a
119.636	6.189	239272	prompt	n/a	meyer beijing elimination routers\n
120.536	0.128	241072	keystroke_m	m	n/a
120.696	0.112	241392	keystroke_e	e	n/a
120.944	0.088	241888	keystroke_y	y	n/a
121.216	0.184	242432	keystroke_e	e	n/a
121.328	0.176	242656	keystroke_r	r	n/a
121.528	0.088	243056	keystroke_Key.space	Key.space	n/a
121.752	0.088	243504	keystroke_b	b	n/a
121.848	0.16	243696	keystroke_e	e	n/a
121.992	0.088	243984	keystroke_i	i	n/a
122.16	0.12	244320	keystroke_j	j	n/a
122.248	0.128	244496	keystroke_i	i	n/a
122.432	0.104	244864	keystroke_n	n	n/a
122.528	0.12	245056	keystroke_g	g	n/a
122.696	0.096	245392	keystroke_Key.space	Key.space	n/a
123.04	0.16	246080	keystroke_e	e	n/a
123.256	0.232	246512	keystroke_l	l	n/a
123.392	0.152	246784	keystroke_i	i	n/a
123.64	0.128	247280	keystroke_m	m	n/a
123.784	0.152	247568	keystroke_i	i	n/a
123.896	0.112	247792	keystroke_n	n	n/a
124.04	0.144	248080	keystroke_a	a	n/a
124.216	0.16	248432	keystroke_t	t	n/a
124.312	0.192	248624	keystroke_i	i	n/a
124.384	0.136	248768	keystroke_o	o	n/a
124.448	0.104	248896	keystroke_n	n	n/a
124.64	0.096	249280	keystroke_Key.space	Key.space	n/a
124.808	0.144	249616	keystroke_r	r	n/a
124.904	0.216	249808	keystroke_o	o	n/a
125.024	0.136	250048	keystroke_u	u	n/a
125.168	0.128	250336	keystroke_t	t	n/a
125.248	0.176	250496	keystroke_e	e	n/a
125.4	0.096	250800	keystroke_r	r	n/a
125.584	0.144	251168	keystroke_s	s	n/a
125.72	0.104	251440	keystroke_Key.enter	Key.enter	n/a
125.8275	8.2135	251655	prompt	n/a	scholar bean settle loans\n
126.504	0.144	253008	keystroke_s	s	n/a
126.728	0.16	253456	keystroke_c	c	n/a
127.84	0.104	255680	keystroke_h	h	n/a
127.984	0.128	255968	keystroke_o	o	n/a
128.64	0.104	257280	keystroke_l	l	n/a
128.848	0.176	257696	keystroke_a	a	n/a
128.984	0.152	257968	keystroke_r	r	n/a
129.104	0.08	258208	keystroke_Key.space	Key.space	n/a
129.296	0.096	258592	keystroke_b	b	n/a
129.384	0.104	258768	keystroke_e	e	n/a
129.752	0.168	259504	keystroke_a	a	n/a
129.904	0.088	259808	keystroke_n	n	n/a
130.1035	0.088	260207	keystroke_Key.space	Key.space	n/a
130.256	0.128	260512	keystroke_s	s	n/a
130.672	0.12	261344	keystroke_e	e	n/a
131.248	0.128	262496	keystroke_t	t	n/a
131.432	0.08	262864	keystroke_l	l	n/a
131.936	0.072	263872	keystroke_Key.backspace	Key.backspace	n/a
132.088	0.112	264176	keystroke_t	t	n/a
132.216	0.088	264432	keystroke_l	l	n/a
132.336	0.136	264672	keystroke_e	e	n/a
132.584	0.112	265168	keystroke_Key.space	Key.space	n/a
133.008	0.096	266016	keystroke_l	l	n/a
133.216	0.088	266432	keystroke_o	o	n/a
133.312	0.144	266624	keystroke_a	a	n/a
133.472	0.08	266944	keystroke_n	n	n/a
133.68	0.128	267360	keystroke_s	s	n/a
133.936	0.104	267872	keystroke_Key.enter	Key.enter	n/a
134.044	8.5565	268088	prompt	n/a	aerospace insured relationship ended\n
135.112	0.112	270224	keystroke_a	a	n/a
135.28	0.168	270560	keystroke_e	e	n/a
135.4	0.16	270800	keystroke_r	r	n/a
135.568	0.112	271136	keystroke_o	o	n/a
136.096	0.144	272192	keystroke_s	s	n/a
136.256	0.08	272512	keystroke_p	p	n/a
136.52	0.152	273040	keystroke_a	a	n/a
136.912	0.16	273824	keystroke_c	c	n/a
137.008	0.176	274016	keystroke_e	e	n/a
137.192	0.096	274384	keystroke_Key.space	Key.space	n/a
137.432	0.144	274864	keystroke_i	i	n/a
137.544	0.136	275088	keystroke_n	n	n/a
137.728	0.136	275456	keystroke_s	s	n/a
137.856	0.104	275712	keystroke_u	u	n/a
137.992	0.168	275984	keystroke_r	r	n/a
138.08	0.152	276160	keystroke_e	e	n/a
138.352	0.112	276704	keystroke_d	d	n/a
138.4795	0.088	276959	keystroke_Key.space	Key.space	n/a
138.6635	0.192	277327	keystroke_r	r	n/a
138.7435	0.16	277487	keystroke_e	e	n/a
138.9515	0.0885	277903	keystroke_l	l	n/a
139.104	0.1275	278208	keystroke_a	a	n/a
139.3355	0.144	278671	keystroke_t	t	n/a
139.4875	0.2725	278975	keystroke_i	i	n/a
139.592	0.16	279184	keystroke_o	o	n/a
139.696	0.136	279392	keystroke_n	n	n/a
139.952	0.1835	279904	keystroke_s	s	n/a
140.0475	0.1605	280095	keystroke_h	h	n/a
140.1195	0.2315	280239	keystroke_i	i	n/a
140.271	0.152	280542	keystroke_p	p	n/a
140.551	0.096	281102	keystroke_Key.space	Key.space	n/a
140.679	0.136	281358	keystroke_e	e	n/a
140.807	0.096	281614	keystroke_n	n	n/a
140.975	0.072	281950	keystroke_e	e	n/a
141.4395	0.1035	282879	keystroke_Key.backspace	Key.backspace	n/a
141.815	0.12	283630	keystroke_d	d	n/a
142.135	0.096	284270	keystroke_e	e	n/a
142.335	0.12	284670	keystroke_d	d	n/a
142.495	0.1045	284990	keystroke_Key.enter	Key.enter	n/a
142.603	6.3335	285206	prompt	n/a	perhaps task ratios expand\n
143.3435	0.112	286687	keystroke_p	p	n/a
143.5115	0.176	287023	keystroke_e	e	n/a
143.6235	0.16	287247	keystroke_r	r	n/a
143.8795	0.12	287759	keystroke_h	h	n/a
144.0315	0.168	288063	keystroke_a	a	n/a
144.2395	0.128	288479	keystroke_p	p	n/a
144.4635	0.144	288927	keystroke_s	s	n/a
144.943	0.1045	289886	keystroke_Key.space	Key.space	n/a
145.167	0.16	290334	keystroke_t	t	n/a
145.263	0.152	290526	keystroke_a	a	n/a
145.399	0.104	290798	keystroke_k	k	n/a
145.519	0.152	291038	keystroke_s	s	n/a
146.183	0.064	292366	keystroke_Key.backspace	Key.backspace	n/a
146.335	0.072	292670	keystroke_Key.backspace	Key.backspace	n/a
146.447	0.16	292894	keystroke_s	s	n/a
146.583	0.104	293166	keystroke_k	k	n/a
146.823	0.08	293646	keystroke_Key.space	Key.space	n/a
146.967	0.144	293934	keystroke_r	r	n/a
147.047	0.168	294094	keystroke_a	a	n/a
147.223	0.16	294446	keystroke_t	t	n/a
147.319	0.16	294638	keystroke_i	i	n/a
147.415	0.128	294830	keystroke_o	o	n/a
147.535	0.144	295070	keystroke_s	s	n/a
147.751	0.096	295502	keystroke_Key.space	Key.space	n/a
148.015	0.08	296030	keystroke_e	e	n/a
148.239	0.096	296478	keystroke_x	x	n/a
148.327	0.104	296654	keystroke_p	p	n/a
148.447	0.136	296894	keystroke_a	a	n/a
148.567	0.096	297134	keystroke_n	n	n/a
148.655	0.136	297310	keystroke_d	d	n/a
148.839	0.096	297678	keystroke_Key.enter	Key.enter	n/a
148.939	8.5335	297878	prompt	n/a	assistance signed communication strengthen\n
149.711	0.136	299422	keystroke_a	a	n/a
149.895	0.096	299790	keystroke_s	s	n/a
150.087	0.12	300174	keystroke_s	s	n/a
150.367	0.112	300734	keystroke_i	i	n/a
150.543	0.136	301086	keystroke_s	s	n/a
150.975	0.144	301950	keystroke_t	t	n/a
151.079	0.176	302158	keystroke_a	a	n/a
151.231	0.096	302462	keystroke_n	n	n/a
151.399	0.176	302798	keystroke_c	c	n/a
151.471	0.152	302942	keystroke_e	e	n/a
151.599	0.088	303198	keystroke_Key.space	Key.space	n/a
151.783	0.12	303566	keystroke_s	s	n/a
151.951	0.096	303902	keystroke_i	i	n/a
152.119	0.16	304238	keystroke_g	g	n/a
152.287	0.096	304574	keystroke_n	n	n/a
152.607	0.088	305214	keystroke_e	e	n/a
152.807	0.104	305614	keystroke_d	d	n/a
152.895	0.08	305790	keystroke_Key.space	Key.space	n/a
153.2235	0.1515	306447	keystroke_c	c	n/a
153.359	0.104	306718	keystroke_o	o	n/a
153.543	0.104	307086	keystroke_m	m	n/a
153.711	0.104	307422	keystroke_m	m	n/a
153.951	0.104	307902	keystroke_u	u	n/a
154.119	0.152	308238	keystroke_n	n	n/a
154.215	0.112	308430	keystroke_i	i	n/a
154.287	0.12	308574	keystroke_c	c	n/a
154.367	0.144	308734	keystroke_a	a	n/a
154.583	0.152	309166	keystroke_t	t	n/a
154.743	0.248	309486	keystroke_i	i	n/a
154.839	0.16	309678	keystroke_o	o	n/a
154.911	0.12	309822	keystroke_n	n	n/a
155.159	0.08	310318	keystroke_Key.space	Key.space	n/a
155.399	0.144	310798	keystroke_s	s	n/a
155.623	0.096	311246	keystroke_t	t	n/a
155.807	0.208	311614	keystroke_r	r	n/a
155.911	0.184	311822	keystroke_e	e	n/a
156.207	0.104	312414	keystroke_n	n	n/a
156.367	0.136	312734	keystroke_g	g	n/a
156.815	0.128	313630	keystroke_t	t	n/a
156.935	0.08	313870	keystroke_h	h	n/a
157.015	0.144	314030	keystroke_e	e	n/a
157.143	0.096	314286	keystroke_n	n	n/a
157.367	0.104	314734	keystroke_Key.enter	Key.enter	n/a
157.4765	6.532	314953	prompt	n/a	primarily joined romance mainland\n
158.143	0.096	316286	keystroke_p	p	n/a
158.279	0.16	316558	keystroke_r	r	n/a
158.415	0.08	316830	keystroke_i	i	n/a
158.567	0.128	317134	keystroke_m	m	n/a
158.671	0.168	317342	keystroke_a	a	n/a
158.775	0.16	317550	keystroke_r	r	n/a
158.943	0.104	317886	keystroke_i	i	n/a
159.271	0.112	318542	keystroke_l	l	n/a
159.503	0.12	319006	keystroke_y	y	n/a
159.687	0.088	319374	keystroke_Key.space	Key.space	n/a
160.431	0.184	320862	keystroke_j	j	n/a
160.591	0.224	321182	keystroke_o	o	n/a
160.639	0.224	321278	keystroke_i	i	n/a
160.839	0.128	321678	keystroke_n	n	n/a
161.111	0.096	322222	keystroke_e	e	n/a
161.311	0.112	322622	keystroke_d	d	n/a
161.383	0.096	322766	keystroke_Key.space	Key.space	n/a
161.599	0.176	323198	keystroke_r	r	n/a
161.743	0.12	323486	keystroke_o	o	n/a
161.871	0.112	323742	keystroke_m	m	n/a
162.015	0.144	324030	keystroke_a	a	n/a
162.135	0.096	324270	keystroke_n	n	n/a
162.271	0.176	324542	keystroke_c	c	n/a
162.343	0.176	324686	keystroke_e	e	n/a
162.471	0.088	324942	keystroke_Key.space	Key.space	n/a
162.679	0.112	325358	keystroke_m	m	n/a
162.799	0.176	325598	keystroke_a	a	n/a
162.863	0.232	325726	keystroke_i	i	n/a
163.023	0.152	326046	keystroke_n	n	n/a
163.311	0.12	326622	keystroke_l	l	n/a
163.455	0.184	326910	keystroke_a	a	n/a
163.647	0.112	327294	keystroke_n	n	n/a
163.759	0.128	327518	keystroke_d	d	n/a
163.911	0.096	327822	keystroke_Key.enter	Key.enter	n/a
164.011	7.3655	328022	prompt	n/a	participating poker super baby\n
164.815	0.096	329630	keystroke_p	p	n/a
165.023	0.152	330046	keystroke_a	a	n/a
165.135	0.16	330270	keystroke_r	r	n/a
165.551	0.12	331102	keystroke_t	t	n/a
165.647	0.088	331294	keystroke_i	i	n/a
165.983	0.144	331966	keystroke_i	i	n/a
166.431	0.088	332862	keystroke_Key.backspace	Key.backspace	n/a
166.599	0.152	333198	keystroke_c	c	n/a
166.695	0.112	333390	keystroke_i	i	n/a
166.927	0.128	333854	keystroke_p	p	n/a
167.079	0.136	334158	keystroke_a	a	n/a
167.351	0.144	334702	keystroke_t	t	n/a
167.471	0.16	334942	keystroke_i	i	n/a
167.591	0.112	335182	keystroke_n	n	n/a
167.687	0.112	335374	keystroke_g	g	n/a
167.815	0.088	335630	keystroke_Key.space	Key.space	n/a
168.055	0.112	336110	keystroke_p	p	n/a
168.2875	0.064	336575	keystroke_o	o	n/a
168.7595	0.128	337519	keystroke_k	k	n/a
168.9035	0.208	337807	keystroke_e	e	n/a
168.9995	0.176	337999	keystroke_r	r	n/a
169.2475	0.088	338495	keystroke_Key.space	Key.space	n/a
169.4155	0.176	338831	keystroke_s	s	n/a
169.4875	0.104	338975	keystroke_u	u	n/a
169.7195	0.136	339439	keystroke_p	p	n/a
169.8315	0.224	339663	keystroke_e	e	n/a
169.9355	0.184	339871	keystroke_r	r	n/a
170.1675	0.104	340335	keystroke_Key.space	Key.space	n/a
170.5195	0.112	341039	keystroke_b	b	n/a
170.6315	0.12	341263	keystroke_a	a	n/a
170.9115	0.112	341823	keystroke_b	b	n/a
171.0715	0.12	342143	keystroke_y	y	n/a
171.2715	0.104	342543	keystroke_Key.enter	Key.enter	n/a
171.3795	11.7885	342759	prompt	n/a	simplified poison conference disciplines\n
172.1995	0.184	344399	keystroke_s	s	n/a
172.3195	0.104	344639	keystroke_i	i	n/a
172.4795	0.152	344959	keystroke_m	m	n/a
172.5995	0.152	345199	keystroke_i	i	n/a
173.3995	0.088	346799	keystroke_Key.backspace	Key.backspace	n/a
174.2555	0.112	348511	keystroke_p	p	n/a
174.5035	0.096	349007	keystroke_l	l	n/a
174.7435	0.104	349487	keystroke_i	i	n/a
174.9515	0.128	349903	keystroke_f	f	n/a
175.0795	0.096	350159	keystroke_i	i	n/a
175.4315	0.0955	350863	keystroke_e	e	n/a
175.647	0.1365	351294	keystroke_d	d	n/a
175.7275	0.08	351455	keystroke_Key.space	Key.space	n/a
175.9675	0.112	351935	keystroke_p	p	n/a
176.2075	0.216	352415	keystroke_o	o	n/a
176.3195	0.208	352639	keystroke_i	i	n/a
176.5195	0.128	353039	keystroke_n	n	n/a
177.1675	0.088	354335	keystroke_Key.backspace	Key.backspace	n/a
177.8075	0.176	355615	keystroke_s	s	n/a
177.9195	0.128	355839	keystroke_o	o	n/a
177.9995	0.112	355999	keystroke_n	n	n/a
178.2235	0.088	356447	keystroke_Key.space	Key.space	n/a
178.7595	0.168	357519	keystroke_c	c	n/a
178.9435	0.144	357887	keystroke_o	o	n/a
179.0315	0.12	358063	keystroke_n	n	n/a
179.2235	0.136	358447	keystroke_f	f	n/a
179.3915	0.168	358783	keystroke_e	e	n/a
179.4955	0.224	358991	keystroke_r	r	n/a
179.6875	0.2	359375	keystroke_e	e	n/a
179.8795	0.088	359759	keystroke_n	n	n/a
179.9915	0.176	359983	keystroke_c	c	n/a
180.0635	0.168	360127	keystroke_e	e	n/a
180.1595	0.104	360319	keystroke_Key.space	Key.space	n/a
180.4155	0.232	360831	keystroke_d	d	n/a
180.6235	0.104	361247	keystroke_i	i	n/a
180.6955	0.168	361391	keystroke_s	s	n/a
181.0955	0.16	362191	keystroke_c	c	n/a
181.2475	0.12	362495	keystroke_i	i	n/a
181.583	0.104	363166	keystroke_p	p	n/a
181.839	0.112	363678	keystroke_l	l	n/a
182.215	0.1925	364430	keystroke_i	i	n/a
182.3835	0.1195	364767	keystroke_n	n	n/a
182.495	0.136	364990	keystroke_e	e	n/a
182.9115	0.1355	365823	keystroke_s	s	n/a
183.079	0.088	366158	keystroke_Key.enter	Key.enter	n/a
183.171	6.021	366342	prompt	n/a	where'd cooling exports dish\n
183.7915	0.128	367583	keystroke_w	w	n/a
183.927	0.08	367854	keystroke_h	h	n/a
184.023	0.128	368046	keystroke_e	e	n/a
184.111	0.2085	368222	keystroke_r	r	n/a
184.2395	0.144	368479	keystroke_e	e	n/a
184.543	0.128	369086	keystroke_'	'	n/a
184.783	0.128	369566	keystroke_d	d	n/a
185.239	0.095	370478	keystroke_Key.space	Key.space	n/a
185.591	0.168	371182	keystroke_c	c	n/a
185.727	0.088	371454	keystroke_o	o	n/a
185.823	0.112	371646	keystroke_o	o	n/a
186.023	0.088	372046	keystroke_l	l	n/a
186.575	0.168	373150	keystroke_i	i	n/a
186.703	0.128	373406	keystroke_n	n	n/a
186.791	0.144	373582	keystroke_g	g	n/a
186.958	0.096	373916	keystroke_Key.space	Key.space	n/a
187.071	0.088	374142	keystroke_e	e	n/a
187.295	0.112	374590	keystroke_x	x	n/a
187.391	0.088	374782	keystroke_p	p	n/a
187.639	0.096	375278	keystroke_o	o	n/a
187.775	0.12	375550	keystroke_r	r	n/a
187.975	0.12	375950	keystroke_t	t	n/a
188.119	0.136	376238	keystroke_s	s	n/a
188.287	0.103	376574	keystroke_Key.space	Key.space	n/a
188.503	0.152	377006	keystroke_d	d	n/a
188.655	0.08	377310	keystroke_i	i	n/a
188.767	0.16	377534	keystroke_s	s	n/a
188.895	0.088	377790	keystroke_h	h	n/a
189.087	0.103	378174	keystroke_Key.enter	Key.enter	n/a
189.1945	7.4615	378389	prompt	n/a	arbitrary medicines classroom nikon\n
190.295	0.184	380590	keystroke_a	a	n/a
190.471	0.168	380942	keystroke_r	r	n/a
190.663	0.152	381326	keystroke_b	b	n/a
190.791	0.104	381582	keystroke_i	i	n/a
191.031	0.096	382062	keystroke_t	t	n/a
191.231	0.2	382462	keystroke_r	r	n/a
191.359	0.184	382718	keystroke_a	a	n/a
191.967	0.112	383934	keystroke_r	r	n/a
192.239	0.0955	384478	keystroke_y	y	n/a
192.4305	0.088	384861	keystroke_Key.space	Key.space	n/a
192.6545	0.136	385309	keystroke_m	m	n/a
192.8625	0.128	385725	keystroke_e	e	n/a
193.0865	0.112	386173	keystroke_d	d	n/a
193.1905	0.08	386381	keystroke_i	i	n/a
193.3425	0.136	386685	keystroke_c	c	n/a
193.4385	0.136	386877	keystroke_i	i	n/a
193.5265	0.1365	387053	keystroke_n	n	n/a
193.6545	0.072	387309	keystroke_e	e	n/a
193.8545	0.088	387709	keystroke_s	s	n/a
193.9585	0.08	387917	keystroke_Key.space	Key.space	n/a
194.0785	0.136	388157	keystroke_c	c	n/a
194.1905	0.104	388381	keystroke_l	l	n/a
194.2865	0.144	388573	keystroke_a	a	n/a
194.4465	0.12	388893	keystroke_s	s	n/a
194.6705	0.136	389341	keystroke_s	s	n/a
194.9185	0.152	389837	keystroke_r	r	n/a
195.0385	0.08	390077	keystroke_o	o	n/a
195.191	0.0955	390382	keystroke_o	o	n/a
195.3425	0.088	390685	keystroke_m	m	n/a
195.5265	0.08	391053	keystroke_Key.space	Key.space	n/a
195.7105	0.16	391421	keystroke_n	n	n/a
195.7905	0.12	391581	keystroke_i	i	n/a
196.0225	0.208	392045	keystroke_k	k	n/a
196.1665	0.168	392333	keystroke_o	o	n/a
196.2785	0.128	392557	keystroke_n	n	n/a
196.567	0.088	393134	keystroke_Key.enter	Key.enter	n/a
196.659	6.085	393318	prompt	n/a	stability lounge mentioned vital\n
197.4785	0.104	394957	keystroke_s	s	n/a
197.6385	0.144	395277	keystroke_t	t	n/a
197.7265	0.184	395453	keystroke_a	a	n/a
197.9585	0.136	395917	keystroke_b	b	n/a
198.0545	0.12	396109	keystroke_i	i	n/a
198.2625	0.2	396525	keystroke_l	l	n/a
198.3265	0.152	396653	keystroke_i	i	n/a
198.5265	0.12	397053	keystroke_t	t	n/a
198.7505	0.112	397501	keystroke_y	y	n/a
198.8865	0.096	397773	keystroke_Key.space	Key.space	n/a
199.2625	0.08	398525	keystroke_l	l	n/a
199.4385	0.216	398877	keystroke_o	o	n/a
199.5665	0.16	399133	keystroke_u	u	n/a
200.3105	0.168	400621	keystroke_g	g	n/a
200.3825	0.168	400765	keystroke_e	e	n/a
200.5345	0.096	401069	keystroke_Key.space	Key.space	n/a
200.7585	0.12	401517	keystroke_m	m	n/a
200.8545	0.152	401709	keystroke_e	e	n/a
201.0145	0.08	402029	keystroke_n	n	n/a
201.1265	0.152	402253	keystroke_t	t	n/a
201.2065	0.224	402413	keystroke_i	i	n/a
201.2945	0.128	402589	keystroke_o	o	n/a
201.3345	0.152	402669	keystroke_n	n	n/a
201.4465	0.088	402893	keystroke_e	e	n/a
201.6385	0.104	403277	keystroke_d	d	n/a
201.7185	0.096	403437	keystroke_Key.space	Key.space	n/a
201.8945	0.128	403789	keystroke_v	v	n/a
202.0385	0.104	404077	keystroke_i	i	n/a
202.2225	0.168	404445	keystroke_t	t	n/a
202.3345	0.168	404669	keystroke_a	a	n/a
202.4385	0.088	404877	keystroke_l	l	n/a
202.6465	0.096	405293	keystroke_Key.enter	Key.enter	n/a
202.748	10.1475	405496	prompt	n/a	tire dating declaration involved\n
203.4545	0.08	406909	keystroke_t	t	n/a
203.6145	0.136	407229	keystroke_r	r	n/a
203.7265	0.096	407453	keystroke_i	i	n/a
203.8305	0.144	407661	keystroke_e	e	n/a
204.0145	0.096	408029	keystroke_Key.space	Key.space	n/a
204.1585	0.128	408317	keystroke_d	d	n/a
204.2385	0.128	408477	keystroke_a	a	n/a
204.4545	0.16	408909	keystroke_t	t	n/a
204.6545	0.136	409309	keystroke_i	i	n/a
204.7425	0.152	409485	keystroke_n	n	n/a
204.8545	0.128	409709	keystroke_g	g	n/a
205.0625	0.112	410125	keystroke_Key.space	Key.space	n/a
206.8385	0.136	413677	keystroke_t	t	n/a
206.9665	0.096	413933	keystroke_i	i	n/a
207.1185	0.168	414237	keystroke_r	r	n/a
207.2065	0.144	414413	keystroke_e	e	n/a
207.9585	0.096	415917	keystroke_Key.space	Key.space	n/a
208.302	0.1115	416604	keystroke_d	d	n/a
208.366	0.144	416732	keystroke_a	a	n/a
208.574	0.12	417148	keystroke_t	t	n/a
208.686	0.128	417372	keystroke_i	i	n/a
208.774	0.104	417548	keystroke_n	n	n/a
208.854	0.104	417708	keystroke_g	g	n/a
208.966	0.0885	417932	keystroke_Key.space	Key.space	n/a
209.1585	0.24	418317	keystroke_d	d	n/a
209.2785	0.152	418557	keystroke_e	e	n/a
209.8945	0.1355	419789	keystroke_c	c	n/a
210.0065	0.1035	420013	keystroke_l	l	n/a
210.174	0.1525	420348	keystroke_a	a	n/a
210.3585	0.112	420717	keystroke_r	r	n/a
210.5105	0.1515	421021	keystroke_a	a	n/a
210.694	0.168	421388	keystroke_t	t	n/a
210.798	0.216	421596	keystroke_i	i	n/a
210.87	0.136	421740	keystroke_o	o	n/a
210.958	0.104	421916	keystroke_n	n	n/a
211.15	0.08	422300	keystroke_Key.space	Key.space	n/a
211.318	0.1685	422636	keystroke_i	i	n/a
211.4065	0.144	422813	keystroke_n	n	n/a
211.5505	0.1355	423101	keystroke_v	v	n/a
211.702	0.088	423404	keystroke_o	o	n/a
211.9185	0.0795	423837	keystroke_l	l	n/a
212.238	0.16	424476	keystroke_v	v	n/a
212.334	0.12	424668	keystroke_e	e	n/a
212.534	0.104	425068	keystroke_d	d	n/a
212.79	0.104	425580	keystroke_Key.enter	Key.enter	n/a
212.8985	5.949	425797	prompt	n/a	billing warm feeds exports\n
213.55	0.152	427100	keystroke_b	b	n/a
213.654	0.112	427308	keystroke_i	i	n/a
213.8865	0.0795	427773	keystroke_l	l	n/a
214.0385	0.1435	428077	keystroke_l	l	n/a
214.1345	0.1835	428269	keystroke_i	i	n/a
214.27	0.136	428540	keystroke_n	n	n/a
214.422	0.144	428844	keystroke_g	g	n/a
214.582	0.096	429164	keystroke_Key.space	Key.space	n/a
214.822	0.224	429644	keystroke_w	w	n/a
214.91	0.176	429820	keystroke_a	a	n/a
215.158	0.168	430316	keystroke_r	r	n/a
215.31	0.096	430620	keystroke_m	m	n/a
215.51	0.096	431020	keystroke_Key.space	Key.space	n/a
215.678	0.128	431356	keystroke_f	f	n/a
215.75	0.136	431500	keystroke_e	e	n/a
215.958	0.104	431916	keystroke_e	e	n/a
216.158	0.104	432316	keystroke_d	d	n/a
216.342	0.168	432684	keystroke_s	s	n/a
216.574	0.088	433148	keystroke_Key.space	Key.space	n/a
216.71	0.08	433420	keystroke_e	e	n/a
216.926	0.096	433852	keystroke_x	x	n/a
217.022	0.088	434044	keystroke_p	p	n/a
217.166	0.128	434332	keystroke_e	e	n/a
217.294	0.2	434588	keystroke_r	r	n/a
217.854	0.056	435708	keystroke_Key.backspace	Key.backspace	n/a
217.982	0.08	435964	keystroke_Key.backspace	Key.backspace	n/a
218.19	0.088	436380	keystroke_o	o	n/a
218.294	0.08	436588	keystroke_r	r	n/a
218.4455	0.112	436891	keystroke_t	t	n/a
218.6055	0.136	437211	keystroke_s	s	n/a
218.7575	0.088	437515	keystroke_Key.enter	Key.enter	n/a
218.85	6.8855	437700	prompt	n/a	divide saturday adoption pledge\n
219.5655	0.145	439131	keystroke_d	d	n/a
219.7175	0.08	439435	keystroke_i	i	n/a
219.8775	0.096	439755	keystroke_v	v	n/a
219.9745	0.088	439949	keystroke_i	i	n/a
220.1255	0.177	440251	keystroke_d	d	n/a
220.3735	0.128	440747	keystroke_e	e	n/a
220.6695	0.096	441339	keystroke_Key.space	Key.space	n/a
220.8375	0.144	441675	keystroke_s	s	n/a
221.0375	0.177	442075	keystroke_a	a	n/a
221.3735	0.128	442747	keystroke_t	t	n/a
221.6055	0.12	443211	keystroke_u	u	n/a
221.7095	0.12	443419	keystroke_r	r	n/a
221.9735	0.136	443947	keystroke_d	d	n/a
222.0615	0.128	444123	keystroke_a	a	n/a
222.3735	0.12	444747	keystroke_y	y	n/a
222.7575	0.096	445515	keystroke_Key.space	Key.space	n/a
222.9975	0.16	445995	keystroke_a	a	n/a
223.1655	0.16	446331	keystroke_d	d	n/a
223.3575	0.112	446715	keystroke_o	o	n/a
223.5735	0.096	447147	keystroke_p	p	n/a
223.7975	0.128	447595	keystroke_t	t	n/a
223.8855	0.24	447771	keystroke_i	i	n/a
223.9575	0.169	447915	keystroke_o	o	n/a
224.0775	0.128	448155	keystroke_n	n	n/a
224.3495	0.072	448699	keystroke_Key.space	Key.space	n/a
224.6055	0.096	449211	keystroke_p	p	n/a
224.8375	0.112	449675	keystroke_l	l	n/a
224.9815	0.128	449963	keystroke_e	e	n/a
225.2535	0.096	450507	keystroke_d	d	n/a
225.4535	0.128	450907	keystroke_g	g	n/a
225.5095	0.176	451019	keystroke_e	e	n/a
225.6775	0.056	451355	keystroke_Key.enter	Key.enter	n/a
225.738	9.765	451476	prompt	n/a	mustn't licensed communication korean\n
226.6135	0.112	453227	keystroke_m	m	n/a
226.8535	0.112	453707	keystroke_u	u	n/a
226.9815	0.128	453963	keystroke_s	s	n/a
227.2215	0.136	454443	keystroke_t	t	n/a
227.5575	0.088	455115	keystroke_n	n	n/a
228.0375	0.112	456075	keystroke_'	'	n/a
228.2455	0.144	456491	keystroke_t	t	n/a
228.5655	0.088	457131	keystroke_Key.space	Key.space	n/a
229.0375	0.136	458075	keystroke_l	l	n/a
229.4215	0.097	458843	keystroke_i	i	n/a
229.7255	0.16	459451	keystroke_c	c	n/a
229.8065	0.159	459613	keystroke_e	e	n/a
229.9585	0.095	459917	keystroke_n	n	n/a
230.2055	0.128	460411	keystroke_s	s	n/a
231.3415	0.088	462683	keystroke_e	e	n/a
231.5095	0.152	463019	keystroke_d	d	n/a
231.6145	0.087	463229	keystroke_Key.space	Key.space	n/a
231.8455	0.16	463691	keystroke_c	c	n/a
231.9495	0.112	463899	keystroke_o	o	n/a
232.1495	0.104	464299	keystroke_m	m	n/a
232.3095	0.096	464619	keystroke_m	m	n/a
232.5655	0.112	465131	keystroke_u	u	n/a
232.7495	0.16	465499	keystroke_n	n	n/a
232.8455	0.136	465691	keystroke_i	i	n/a
233.1495	0.16	466299	keystroke_c	c	n/a
233.2215	0.176	466443	keystroke_a	a	n/a
233.5495	0.152	467099	keystroke_t	t	n/a
233.6375	0.208	467275	keystroke_i	i	n/a
233.7095	0.144	467419	keystroke_o	o	n/a
233.7815	0.112	467563	keystroke_n	n	n/a
234.0055	0.08	468011	keystroke_Key.space	Key.space	n/a
234.1975	0.136	468395	keystroke_k	k	n/a
234.4135	0.112	468827	keystroke_o	o	n/a
234.6695	0.216	469339	keystroke_r	r	n/a
234.7575	0.2	469515	keystroke_e	e	n/a
234.8375	0.168	469675	keystroke_a	a	n/a
235.3975	0.104	470795	keystroke_Key.enter	Key.enter	n/a
235.5055	6.445	471011	prompt	n/a	sampling adapter snap bolt\n
236.469	0.232	472938	keystroke_s	s	n/a
236.597	0.184	473194	keystroke_a	a	n/a
236.741	0.104	473482	keystroke_m	m	n/a
236.917	0.112	473834	keystroke_p	p	n/a
237.133	0.1205	474266	keystroke_l	l	n/a
237.2775	0.016	474555	keystroke_l	l	n/a
237.2945	0.1505	474589	keystroke_i	i	n/a
237.421	0.12	474842	keystroke_n	n	n/a
237.525	0.144	475050	keystroke_g	g	n/a
237.637	0.104	475274	keystroke_Key.space	Key.space	n/a
237.845	0.152	475690	keystroke_a	a	n/a
238.301	0.176	476602	keystroke_d	d	n/a
238.405	0.192	476810	keystroke_a	a	n/a
238.605	0.088	477210	keystroke_p	p	n/a
238.821	0.128	477642	keystroke_t	t	n/a
238.893	0.2	477786	keystroke_e	e	n/a
239.069	0.168	478138	keystroke_r	r	n/a
239.221	0.104	478442	keystroke_Key.space	Key.space	n/a
239.429	0.128	478858	keystroke_s	s	n/a
239.565	0.096	479130	keystroke_n	n	n/a
239.645	0.16	479290	keystroke_a	a	n/a
239.845	0.064	479690	keystroke_p	p	n/a
240.301	0.096	480602	keystroke_Key.space	Key.space	n/a
240.669	0.12	481338	keystroke_b	b	n/a
240.997	0.056	481994	keystroke_o	o	n/a
241.509	0.08	483018	keystroke_l	l	n/a
241.733	0.144	483466	keystroke_t	t	n/a
241.861	0.088	483722	keystroke_Key.enter	Key.enter	n/a
241.953	6.061	483906	prompt	n/a	trans spreading august worm\n
242.661	0.096	485322	keystroke_t	t	n/a
242.861	0.152	485722	keystroke_r	r	n/a
242.9335	0.1835	485867	keystroke_a	a	n/a
243.069	0.088	486138	keystroke_n	n	n/a
243.229	0.128	486458	keystroke_s	s	n/a
243.773	0.096	487546	keystroke_Key.space	Key.space	n/a
243.941	0.12	487882	keystroke_s	s	n/a
244.069	0.104	488138	keystroke_p	p	n/a
244.229	0.216	488458	keystroke_r	r	n/a
244.325	0.184	488650	keystroke_e	e	n/a
244.405	0.168	488810	keystroke_a	a	n/a
244.621	0.136	489242	keystroke_d	d	n/a
244.725	0.144	489450	keystroke_i	i	n/a
244.829	0.104	489658	keystroke_n	n	n/a
244.917	0.144	489834	keystroke_g	g	n/a
245.029	0.104	490058	keystroke_Key.space	Key.space	n/a
245.213	0.152	490426	keystroke_a	a	n/a
245.469	0.104	490938	keystroke_u	u	n/a
245.701	0.144	491402	keystroke_g	g	n/a
245.829	0.112	491658	keystroke_u	u	n/a
246.005	0.112	492010	keystroke_s	s	n/a
246.501	0.136	493002	keystroke_t	t	n/a
246.717	0.088	493434	keystroke_Key.space	Key.space	n/a
246.965	0.176	493930	keystroke_w	w	n/a
247.101	0.096	494202	keystroke_o	o	n/a
247.205	0.2	494410	keystroke_r	r	n/a
247.629	0.104	495258	keystroke_m	m	n/a
247.9085	0.104	495817	keystroke_Key.enter	Key.enter	n/a
248.019	7.659	496038	prompt	n/a	andrews alternatively north as\n
248.717	0.184	497434	keystroke_a	a	n/a
248.861	0.144	497722	keystroke_d	d	n/a
249.037	0.12	498074	keystroke_n	n	n/a
249.565	0.072	499130	keystroke_Key.backspace	Key.backspace	n/a
249.701	0.072	499402	keystroke_Key.backspace	Key.backspace	n/a
249.917	0.096	499834	keystroke_n	n	n/a
250.085	0.12	500170	keystroke_d	d	n/a
250.365	0.2	500730	keystroke_r	r	n/a
250.477	0.152	500954	keystroke_e	e	n/a
251.301	0.104	502602	keystroke_w	w	n/a
251.573	0.12	503146	keystroke_s	s	n/a
251.741	0.104	503482	keystroke_Key.space	Key.space	n/a
251.909	0.176	503818	keystroke_a	a	n/a
252.029	0.104	504058	keystroke_l	l	n/a
252.325	0.136	504650	keystroke_t	t	n/a
252.445	0.192	504890	keystroke_e	e	n/a
252.573	0.152	505146	keystroke_r	r	n/a
252.701	0.12	505402	keystroke_n	n	n/a
252.837	0.12	505674	keystroke_a	a	n/a
253.013	0.136	506026	keystroke_t	t	n/a
253.141	0.112	506282	keystroke_i	i	n/a
253.341	0.144	506682	keystroke_v	v	n/a
253.413	0.192	506826	keystroke_e	e	n/a
253.661	0.144	507322	keystroke_l	l	n/a
253.853	0.136	507706	keystroke_y	y	n/a
254.061	0.1035	508122	keystroke_Key.space	Key.space	n/a
254.5485	0.144	509097	keystroke_n	n	n/a
254.6445	0.128	509289	keystroke_o	o	n/a
254.7405	0.08	509481	keystroke_r	r	n/a
254.9085	0.152	509817	keystroke_t	t	n/a
255.0205	0.08	510041	keystroke_h	h	n/a
255.2445	0.096	510489	keystroke_Key.space	Key.space	n/a
255.3325	0.224	510665	keystroke_a	a	n/a
255.4525	0.152	510905	keystroke_s	s	n/a
255.6045	0.072	511209	keystroke_Key.enter	Key.enter	n/a
255.681	7.509	511362	prompt	n/a	lime mineral yugoslavia dude\n
256.2765	0.208	512553	keystroke_l	l	n/a
256.3975	0.135	512795	keystroke_i	i	n/a
256.6525	0.144	513305	keystroke_m	m	n/a
256.7885	0.152	513577	keystroke_e	e	n/a
256.9565	0.08	513913	keystroke_Key.space	Key.space	n/a
257.2045	0.136	514409	keystroke_m	m	n/a
257.3885	0.192	514777	keystroke_i	i	n/a
257.533	0.1515	515066	keystroke_n	n	n/a
257.7325	0.176	515465	keystroke_e	e	n/a
257.8685	0.152	515737	keystroke_r	r	n/a
257.9965	0.184	515993	keystroke_a	a	n/a
258.1485	0.096	516297	keystroke_l	l	n/a
258.3565	0.088	516713	keystroke_Key.space	Key.space	n/a
258.8925	0.168	517785	keystroke_y	y	n/a
258.9805	0.16	517961	keystroke_u	u	n/a
259.2525	0.16	518505	keystroke_g	g	n/a
259.3565	0.104	518713	keystroke_o	o	n/a
260.9485	0.096	521897	keystroke_s	s	n/a
261.0845	0.088	522169	keystroke_l	l	n/a
261.1805	0.144	522361	keystroke_a	a	n/a
261.6845	0.136	523369	keystroke_v	v	n/a
261.8365	0.112	523673	keystroke_i	i	n/a
261.9725	0.16	523945	keystroke_a	a	n/a
262.2845	0.088	524569	keystroke_Key.space	Key.space	n/a
262.5325	0.1365	525065	keystroke_d	d	n/a
262.653	0.096	525306	keystroke_u	u	n/a
262.8125	0.128	525625	keystroke_d	d	n/a
262.9565	0.168	525913	keystroke_e	e	n/a
263.1005	0.088	526201	keystroke_Key.enter	Key.enter	n/a
263.1925	7.2305	526385	prompt	n/a	pattern presentations bottles cornwall\n
264.0765	0.12	528153	keystroke_p	p	n/a
264.2605	0.128	528521	keystroke_a	a	n/a
264.4925	0.104	528985	keystroke_t	t	n/a
264.6605	0.104	529321	keystroke_t	t	n/a
264.7405	0.216	529481	keystroke_e	e	n/a
264.8685	0.176	529737	keystroke_r	r	n/a
264.9805	0.096	529961	keystroke_n	n	n/a
265.2525	0.088	530505	keystroke_Key.space	Key.space	n/a
265.6605	0.128	531321	keystroke_p	p	n/a
265.8205	0.16	531641	keystroke_r	r	n/a
265.8925	0.104	531785	keystroke_e	e	n/a
266.1405	0.064	532281	keystroke_s	s	n/a
266.3085	0.096	532617	keystroke_e	e	n/a
266.4205	0.104	532841	keystroke_n	n	n/a
266.5965	0.152	533193	keystroke_t	t	n/a
266.7085	0.128	533417	keystroke_a	a	n/a
266.8765	0.16	533753	keystroke_t	t	n/a
266.9965	0.232	533993	keystroke_i	i	n/a
267.0765	0.144	534153	keystroke_o	o	n/a
267.1405	0.168	534281	keystroke_n	n	n/a
267.3005	0.152	534601	keystroke_s	s	n/a
267.5005	0.08	535001	keystroke_Key.space	Key.space	n/a
267.7165	0.128	535433	keystroke_b	b	n/a
267.8205	0.104	535641	keystroke_o	o	n/a
268.0045	0.088	536009	keystroke_t	t	n/a
268.1565	0.128	536313	keystroke_t	t	n/a
268.2685	0.096	536537	keystroke_l	l	n/a
268.3485	0.096	536697	keystroke_e	e	n/a
268.5565	0.12	537113	keystroke_s	s	n/a
268.6685	0.096	537337	keystroke_Key.space	Key.space	n/a
268.9805	0.168	537961	keystroke_c	c	n/a
269.1645	0.064	538329	keystroke_o	o	n/a
269.3485	0.144	538697	keystroke_r	r	n/a
269.5245	0.104	539049	keystroke_n	n	n/a
269.7165	0.192	539433	keystroke_w	w	n/a
269.8205	0.176	539641	keystroke_a	a	n/a
269.9805	0.088	539961	keystroke_l	l	n/a
270.1325	0.08	540265	keystroke_l	l	n/a
270.3405	0.08	540681	keystroke_Key.enter	Key.enter	n/a
270.426	5.124	540852	prompt	n/a	align tract cult hands\n
271.2125	0.168	542425	keystroke_a	a	n/a
271.3085	0.184	542617	keystroke_l	l	n/a
271.4045	0.136	542809	keystroke_i	i	n/a
271.5725	0.128	543145	keystroke_g	g	n/a
271.7565	0.056	543513	keystroke_n	n	n/a
272.0125	0.12	544025	keystroke_Key.space	Key.space	n/a
272.1725	0.088	544345	keystroke_t	t	n/a
272.3565	0.136	544713	keystroke_r	r	n/a
272.4445	0.168	544889	keystroke_a	a	n/a
272.6445	0.12	545289	keystroke_c	c	n/a
272.9245	0.144	545849	keystroke_t	t	n/a
273.2765	0.088	546553	keystroke_Key.space	Key.space	n/a
273.7165	0.128	547433	keystroke_c	c	n/a
273.8365	0.1045	547673	keystroke_u	u	n/a
274.0285	0.112	548057	keystroke_l	l	n/a
274.1565	0.144	548313	keystroke_t	t	n/a
274.421	0.1035	548842	keystroke_Key.space	Key.space	n/a
274.893	0.104	549786	keystroke_h	h	n/a
274.989	0.1355	549978	keystroke_a	a	n/a
275.1245	0.096	550249	keystroke_n	n	n/a
275.1805	0.184	550361	keystroke_d	d	n/a
275.2845	0.1845	550569	keystroke_s	s	n/a
275.461	0.0875	550922	keystroke_Key.enter	Key.enter	n/a
275.553	6.7175	551106	prompt	n/a	hewlett lucas reproduce kinds\n
276.5165	0.104	553033	keystroke_h	h	n/a
276.6765	0.232	553353	keystroke_e	e	n/a
276.7805	0.16	553561	keystroke_w	w	n/a
277.1645	0.096	554329	keystroke_l	l	n/a
277.4285	0.136	554857	keystroke_e	e	n/a
277.7485	0.088	555497	keystroke_t	t	n/a
277.9245	0.12	555849	keystroke_t	t	n/a
278.0765	0.096	556153	keystroke_Key.space	Key.space	n/a
278.2925	0.104	556585	keystroke_l	l	n/a
278.5085	0.104	557017	keystroke_u	u	n/a
278.6605	0.12	557321	keystroke_c	c	n/a
278.7085	0.2	557417	keystroke_a	a	n/a
278.8765	0.128	557753	keystroke_s	s	n/a
279.0685	0.096	558137	keystroke_Key.space	Key.space	n/a
279.3005	0.2	558601	keystroke_r	r	n/a
279.3965	0.168	558793	keystroke_e	e	n/a
279.6365	0.096	559273	keystroke_p	p	n/a
279.8765	0.184	559753	keystroke_r	r	n/a
280.0845	0.096	560169	keystroke_o	o	n/a
280.5645	0.128	561129	keystroke_d	d	n/a
280.7005	0.08	561401	keystroke_u	u	n/a
280.8605	0.144	561721	keystroke_c	c	n/a
281.1085	0.144	562217	keystroke_e	e	n/a
281.1885	0.08	562377	keystroke_Key.space	Key.space	n/a
281.3965	0.12	562793	keystroke_k	k	n/a
281.6285	0.2	563257	keystroke_i	i	n/a
281.6525	0.144	563305	keystroke_n	n	n/a
281.7805	0.168	563561	keystroke_d	d	n/a
281.8765	0.16	563753	keystroke_s	s	n/a
282.1725	0.096	564345	keystroke_Key.enter	Key.enter	n/a
282.2735	8.5805	564547	prompt	n/a	matrix decide subscribers projected\n
283.0685	0.136	566137	keystroke_m	m	n/a
283.2205	0.136	566441	keystroke_a	a	n/a
283.4845	0.08	566969	keystroke_t	t	n/a
283.6605	0.12	567321	keystroke_r	r	n/a
283.7965	0.096	567593	keystroke_i	i	n/a
283.9565	0.152	567913	keystroke_x	x	n/a
284.1645	0.096	568329	keystroke_Key.space	Key.space	n/a
284.5565	0.168	569113	keystroke_d	d	n/a
284.6845	0.136	569369	keystroke_e	e	n/a
284.9565	0.104	569913	keystroke_c	c	n/a
285.0685	0.088	570137	keystroke_i	i	n/a
285.2125	0.168	570425	keystroke_d	d	n/a
285.3245	0.16	570649	keystroke_e	e	n/a
285.5805	0.096	571161	keystroke_Key.space	Key.space	n/a
285.9485	0.152	571897	keystroke_s	s	n/a
286.0365	0.088	572073	keystroke_u	u	n/a
286.2285	0.12	572457	keystroke_b	b	n/a
286.5885	0.096	573177	keystroke_s	s	n/a
286.7965	0.128	573593	keystroke_c	c	n/a
287.1085	0.128	574217	keystroke_r	r	n/a
287.2685	0.104	574537	keystroke_i	i	n/a
287.4285	0.128	574857	keystroke_b	b	n/a
287.5485	0.136	575097	keystroke_e	e	n/a
287.6365	0.128	575273	keystroke_r	r	n/a
287.8285	0.16	575657	keystroke_s	s	n/a
287.9965	0.08	575993	keystroke_Key.space	Key.space	n/a
288.1885	0.12	576377	keystroke_p	p	n/a
288.3245	0.144	576649	keystroke_r	r	n/a
288.4365	0.088	576873	keystroke_o	o	n/a
288.6205	0.136	577241	keystroke_j	j	n/a
288.7085	0.104	577417	keystroke_e	e	n/a
289.7565	0.168	579513	keystroke_c	c	n/a
290.2205	0.144	580441	keystroke_t	t	n/a
290.3005	0.112	580601	keystroke_e	e	n/a
290.5085	0.16	581017	keystroke_d	d	n/a
290.7485	0.104	581497	keystroke_Key.enter	Key.enter	n/a
290.857	8.869	581714	prompt	n/a	employers webster centered wayne\n
291.5165	0.192	583033	keystroke_e	e	n/a
291.6445	0.096	583289	keystroke_m	m	n/a
291.8285	0.08	583657	keystroke_p	p	n/a
292.0445	0.08	584089	keystroke_l	l	n/a
292.2285	0.096	584457	keystroke_o	o	n/a
292.4845	0.12	584969	keystroke_y	y	n/a
292.6445	0.184	585289	keystroke_e	e	n/a
292.7565	0.152	585513	keystroke_r	r	n/a
293.0205	0.136	586041	keystroke_s	s	n/a
293.1645	0.08	586329	keystroke_Key.space	Key.space	n/a
293.3245	0.104	586649	keystroke_w	w	n/a
293.5565	0.152	587113	keystroke_e	e	n/a
293.6925	0.112	587385	keystroke_b	b	n/a
293.8765	0.112	587753	keystroke_s	s	n/a
294.0445	0.144	588089	keystroke_t	t	n/a
294.1325	0.24	588265	keystroke_e	e	n/a
294.2925	0.136	588585	keystroke_r	r	n/a
294.4205	0.096	588841	keystroke_Key.space	Key.space	n/a
294.7005	0.184	589401	keystroke_e	e	n/a
295.1725	0.08	590345	keystroke_Key.backspace	Key.backspace	n/a
295.3405	0.096	590681	keystroke_Key.backspace	Key.backspace	n/a
296.5405	0.096	593081	keystroke_Key.space	Key.space	n/a
296.9565	0.2	593913	keystroke_c	c	n/a
297.0765	0.2	594153	keystroke_e	e	n/a
297.2445	0.136	594489	keystroke_n	n	n/a
297.5965	0.136	595193	keystroke_t	t	n/a
297.6925	0.248	595385	keystroke_e	e	n/a
297.8445	0.1765	595689	keystroke_r	r	n/a
298.109	0.112	596218	keystroke_e	e	n/a
298.325	0.152	596650	keystroke_d	d	n/a
298.452	0.089	596904	keystroke_Key.space	Key.space	n/a
298.709	0.232	597418	keystroke_w	w	n/a
298.829	0.152	597658	keystroke_a	a	n/a
299.125	0.088	598250	keystroke_y	y	n/a
299.253	0.104	598506	keystroke_n	n	n/a
299.341	0.152	598682	keystroke_e	e	n/a
299.621	0.103	599242	keystroke_Key.enter	Key.enter	n/a
299.7285	12.517	599457	prompt	n/a	computer yukon bermuda informational\n
300.557	0.216	601114	keystroke_c	c	n/a
300.661	0.144	601322	keystroke_o	o	n/a
300.733	0.128	601466	keystroke_m	m	n/a
300.925	0.112	601850	keystroke_p	p	n/a
301.157	0.104	602314	keystroke_u	u	n/a
301.293	0.136	602586	keystroke_t	t	n/a
301.397	0.232	602794	keystroke_e	e	n/a
301.541	0.184	603082	keystroke_r	r	n/a
301.733	0.104	603466	keystroke_Key.space	Key.space	n/a
302.101	0.176	604202	keystroke_y	y	n/a
302.205	0.128	604410	keystroke_u	u	n/a
302.501	0.176	605002	keystroke_k	k	n/a
302.813	0.136	605626	keystroke_o	o	n/a
302.973	0.104	605946	keystroke_n	n	n/a
303.317	0.119	606634	keystroke_Key.space	Key.space	n/a
304.213	0.096	608426	keystroke_Key.backspace	Key.backspace	n/a
304.405	0.104	608810	keystroke_Key.backspace	Key.backspace	n/a
304.613	0.119	609226	keystroke_Key.backspace	Key.backspace	n/a
304.821	0.08	609642	keystroke_Key.backspace	Key.backspace	n/a
305.701	0.136	611402	keystroke_k	k	n/a
306.029	0.16	612058	keystroke_o	o	n/a
306.157	0.12	612314	keystroke_n	n	n/a
306.5	0.072	613000	keystroke_Key.space	Key.space	n/a
306.989	0.112	613978	keystroke_b	b	n/a
307.189	0.2	614378	keystroke_e	e	n/a
307.325	0.152	614650	keystroke_r	r	n/a
307.517	0.088	615034	keystroke_m	m	n/a
307.765	0.096	615530	keystroke_u	u	n/a
308.005	0.088	616010	keystroke_d	d	n/a
308.229	0.144	616458	keystroke_a	a	n/a
308.405	0.087	616810	keystroke_Key.space	Key.space	n/a
308.629	0.176	617258	keystroke_i	i	n/a
308.765	0.144	617530	keystroke_n	n	n/a
310.341	0.152	620682	keystroke_f	f	n/a
310.604	0.097	621208	keystroke_o	o	n/a
310.725	0.144	621450	keystroke_r	r	n/a
310.901	0.128	621802	keystroke_m	m	n/a
311.021	0.128	622042	keystroke_a	a	n/a
311.213	0.136	622426	keystroke_t	t	n/a
311.261	0.224	622522	keystroke_i	i	n/a
311.349	0.152	622698	keystroke_o	o	n/a
311.413	0.152	622826	keystroke_n	n	n/a
311.717	0.176	623434	keystroke_a	a	n/a
311.869	0.104	623738	keystroke_l	l	n/a
312.14	0.104	624280	keystroke_Key.enter	Key.enter	n/a
312.2485	4.0775	624497	prompt	n/a	thread changelog feels earrings\n
313.197	0.112	626394	keystroke_t	t	n/a
313.34	0.081	626680	keystroke_h	h	n/a
313.413	0.232	626826	keystroke_r	r	n/a
313.501	0.232	627002	keystroke_e	e	n/a
313.621	0.184	627242	keystroke_a	a	n/a
313.997	0.16	627994	keystroke_d	d	n/a
314.244	0.104	628488	keystroke_Key.space	Key.space	n/a
314.741	0.184	629482	keystroke_c	c	n/a
314.853	0.104	629706	keystroke_h	h	n/a
314.941	0.184	629882	keystroke_a	a	n/a
315.117	0.152	630234	keystroke_n	n	n/a
315.317	0.208	630634	keystroke_g	g	n/a
315.397	0.2	630794	keystroke_e	e	n/a
315.709	0.096	631418	keystroke_l	l	n/a
315.901	0.12	631802	keystroke_o	o	n/a
316.005	0.16	632010	keystroke_g	g	n/a
316.228	0.096	632456	keystroke_Key.enter	Key.enter	n/a
316.329	6.1485	632658	prompt	n/a	certain global andorra smell\n
317.3	0.128	634600	keystroke_c	c	n/a
317.517	0.152	635034	keystroke_e	e	n/a
317.621	0.12	635242	keystroke_r	r	n/a
317.813	0.151	635626	keystroke_t	t	n/a
317.909	0.208	635818	keystroke_a	a	n/a
318.028	0.153	636056	keystroke_i	i	n/a
318.149	0.111	636298	keystroke_n	n	n/a
318.388	0.088	636776	keystroke_Key.space	Key.space	n/a
318.565	0.159	637130	keystroke_g	g	n/a
318.669	0.087	637338	keystroke_l	l	n/a
318.861	0.111	637722	keystroke_o	o	n/a
319.157	0.112	638314	keystroke_b	b	n/a
319.317	0.159	638634	keystroke_a	a	n/a
319.429	0.08	638858	keystroke_l	l	n/a
319.676	0.08	639352	keystroke_Key.space	Key.space	n/a
320.157	0.176	640314	keystroke_a	a	n/a
320.301	0.112	640602	keystroke_n	n	n/a
320.429	0.128	640858	keystroke_d	d	n/a
320.756	0.097	641512	keystroke_o	o	n/a
320.98	0.0805	641960	keystroke_r	r	n/a
321.1405	0.1845	642281	keystroke_r	r	n/a
321.253	0.191	642506	keystroke_a	a	n/a
321.421	0.096	642842	keystroke_Key.space	Key.space	n/a
321.572	0.137	643144	keystroke_s	s	n/a
321.693	0.136	643386	keystroke_m	m	n/a
321.844	0.169	643688	keystroke_e	e	n/a
321.997	0.088	643994	keystroke_l	l	n/a
322.157	0.0715	644314	keystroke_l	l	n/a
322.3805	0.096	644761	keystroke_Key.enter	Key.enter	n/a
322.483	6.6025	644966	prompt	n/a	consciousness career without wrote\n
323.3245	0.176	646649	keystroke_c	c	n/a
323.4765	0.128	646953	keystroke_o	o	n/a
323.5325	0.128	647065	keystroke_n	n	n/a
323.7805	0.144	647561	keystroke_s	s	n/a
324.3005	0.176	648601	keystroke_c	c	n/a
324.4445	0.144	648889	keystroke_i	i	n/a
324.5325	0.304	649065	keystroke_o	o	n/a
324.7085	0.136	649417	keystroke_u	u	n/a
324.9565	0.144	649913	keystroke_s	s	n/a
325.1885	0.12	650377	keystroke_n	n	n/a
325.3165	0.104	650633	keystroke_e	e	n/a
325.5725	0.072	651145	keystroke_s	s	n/a
325.7245	0.128	651449	keystroke_s	s	n/a
325.8365	0.112	651673	keystroke_Key.space	Key.space	n/a
325.9645	0.184	651929	keystroke_c	c	n/a
326.0925	0.16	652185	keystroke_a	a	n/a
326.3325	0.176	652665	keystroke_r	r	n/a
326.4285	0.168	652857	keystroke_e	e	n/a
326.6925	0.136	653385	keystroke_e	e	n/a
326.8685	0.168	653737	keystroke_r	r	n/a
327.0685	0.096	654137	keystroke_Key.space	Key.space	n/a
327.2205	0.136	654441	keystroke_w	w	n/a
327.3165	0.12	654633	keystroke_i	i	n/a
327.4925	0.136	654985	keystroke_t	t	n/a
327.6045	0.104	655209	keystroke_h	h	n/a
327.7885	0.272	655577	keystroke_o	o	n/a
327.9085	0.1435	655817	keystroke_u	u	n/a
328.0285	0.1195	656057	keystroke_t	t	n/a
328.212	0.088	656424	keystroke_Key.space	Key.space	n/a
328.316	0.1845	656632	keystroke_w	w	n/a
328.4685	0.152	656937	keystroke_r	r	n/a
328.5885	0.112	657177	keystroke_o	o	n/a
328.7245	0.192	657449	keystroke_t	t	n/a
328.8045	0.152	657609	keystroke_e	e	n/a
328.9885	0.096	657977	keystroke_Key.enter	Key.enter	n/a
329.0885	7.461	658177	prompt	n/a	immunology double berkeley broker\n
329.7405	0.104	659481	keystroke_i	i	n/a
329.9405	0.096	659881	keystroke_m	m	n/a
330.1005	0.096	660201	keystroke_m	m	n/a
330.7485	0.104	661497	keystroke_u	u	n/a
331.0845	0.096	662169	keystroke_n	n	n/a
331.2445	0.096	662489	keystroke_o	o	n/a
331.4525	0.08	662905	keystroke_l	l	n/a
331.6445	0.096	663289	keystroke_o	o	n/a
331.7805	0.104	663561	keystroke_g	g	n/a
332.0285	0.08	664057	keystroke_y	y	n/a
332.1245	0.104	664249	keystroke_Key.space	Key.space	n/a
332.3805	0.16	664761	keystroke_d	d	n/a
332.4925	0.2075	664985	keystroke_o	o	n/a
332.58	0.128	665160	keystroke_u	u	n/a
332.78	0.144	665560	keystroke_b	b	n/a
332.892	0.1285	665784	keystroke_l	l	n/a
333.0285	0.144	666057	keystroke_e	e	n/a
333.1645	0.072	666329	keystroke_Key.space	Key.space	n/a
333.3805	0.08	666761	keystroke_b	b	n/a
333.6605	0.216	667321	keystroke_e	e	n/a
333.7885	0.1915	667577	keystroke_r	r	n/a
334.092	0.104	668184	keystroke_k	k	n/a
334.3005	0.144	668601	keystroke_e	e	n/a
334.516	0.104	669032	keystroke_l	l	n/a
334.812	0.1765	669624	keystroke_e	e	n/a
335.132	0.1205	670264	keystroke_y	y	n/a
335.3325	0.096	670665	keystroke_Key.space	Key.space	n/a
335.748	0.1045	671496	keystroke_b	b	n/a
335.8845	0.136	671769	keystroke_r	r	n/a
335.9805	0.088	671961	keystroke_o	o	n/a
336.156	0.12	672312	keystroke_k	k	n/a
336.228	0.184	672456	keystroke_e	e	n/a
336.316	0.144	672632	keystroke_r	r	n/a
336.46	0.088	672920	keystroke_Key.enter	Key.enter	n/a
336.5525	8.8525	673105	prompt	n/a	mouth identification chart coffee\n
337.284	0.12	674568	keystroke_m	m	n/a
337.388	0.208	674776	keystroke_o	o	n/a
337.548	0.104	675096	keystroke_u	u	n/a
337.748	0.112	675496	keystroke_t	t	n/a
337.836	0.104	675672	keystroke_h	h	n/a
338.124	0.088	676248	keystroke_Key.space	Key.space	n/a
338.476	0.112	676952	keystroke_i	i	n/a
338.7	0.168	677400	keystroke_d	d	n/a
338.796	0.168	677592	keystroke_e	e	n/a
338.956	0.104	677912	keystroke_n	n	n/a
339.356	0.128	678712	keystroke_i	i	n/a
339.54	0.064	679080	keystroke_t	t	n/a
339.828	0.08	679656	keystroke_Key.backspace	Key.backspace	n/a
339.988	0.08	679976	keystroke_Key.backspace	Key.backspace	n/a
340.156	0.128	680312	keystroke_t	t	n/a
340.268	0.104	680536	keystroke_i	i	n/a
340.492	0.152	680984	keystroke_f	f	n/a
340.604	0.08	681208	keystroke_i	i	n/a
341.196	0.176	682392	keystroke_c	c	n/a
341.332	0.144	682664	keystroke_a	a	n/a
341.564	0.16	683128	keystroke_t	t	n/a
341.644	0.224	683288	keystroke_i	i	n/a
341.692	0.168	683384	keystroke_o	o	n/a
341.788	0.152	683576	keystroke_n	n	n/a
342.116	0.096	684232	keystroke_Key.space	Key.space	n/a
342.268	0.192	684536	keystroke_c	c	n/a
342.484	0.128	684968	keystroke_h	h	n/a
342.668	0.168	685336	keystroke_a	a	n/a
342.852	0.128	685704	keystroke_r	r	n/a
343.076	0.112	686152	keystroke_t	t	n/a
343.26	0.096	686520	keystroke_Key.space	Key.space	n/a
343.532	0.112	687064	keystroke_o	o	n/a
343.876	0.08	687752	keystroke_Key.backspace	Key.backspace	n/a
344.036	0.144	688072	keystroke_c	c	n/a
344.148	0.104	688296	keystroke_o	o	n/a
344.524	0.096	689048	keystroke_f	f	n/a
344.692	0.12	689384	keystroke_f	f	n/a
344.78	0.176	689560	keystroke_e	e	n/a
345.076	0.152	690152	keystroke_e	e	n/a
345.308	0.096	690616	keystroke_Key.enter	Key.enter	n/a
345.4075	6.8775	690815	prompt	n/a	engaging remain auckland scenic\n
346.26	0.176	692520	keystroke_e	e	n/a
346.388	0.104	692776	keystroke_n	n	n/a
346.588	0.168	693176	keystroke_g	g	n/a
346.716	0.16	693432	keystroke_a	a	n/a
346.9	0.152	693800	keystroke_g	g	n/a
347.06	0.144	694120	keystroke_i	i	n/a
347.148	0.12	694296	keystroke_n	n	n/a
347.204	0.144	694408	keystroke_g	g	n/a
347.428	0.112	694856	keystroke_Key.space	Key.space	n/a
347.868	0.192	695736	keystroke_r	r	n/a
347.956	0.144	695912	keystroke_e	e	n/a
348.108	0.104	696216	keystroke_m	m	n/a
348.228	0.184	696456	keystroke_a	a	n/a
348.356	0.128	696712	keystroke_i	i	n/a
348.436	0.096	696872	keystroke_n	n	n/a
348.628	0.096	697256	keystroke_Key.space	Key.space	n/a
348.996	0.208	697992	keystroke_a	a	n/a
349.236	0.104	698472	keystroke_u	u	n/a
349.396	0.168	698792	keystroke_c	c	n/a
349.548	0.096	699096	keystroke_k	k	n/a
349.748	0.096	699496	keystroke_l	l	n/a
349.852	0.176	699704	keystroke_a	a	n/a
349.98	0.096	699960	keystroke_n	n	n/a
350.108	0.144	700216	keystroke_d	d	n/a
350.268	0.088	700536	keystroke_Key.space	Key.space	n/a
350.516	0.12	701032	keystroke_s	s	n/a
350.948	0.128	701896	keystroke_c	c	n/a
351.124	0.192	702248	keystroke_e	e	n/a
351.324	0.088	702648	keystroke_n	n	n/a
351.532	0.096	703064	keystroke_i	i	n/a
351.668	0.176	703336	keystroke_c	c	n/a
352.188	0.0955	704376	keystroke_Key.enter	Key.enter	n/a
352.288	10.949	704576	prompt	n/a	yugoslavia inspired readily wagon\n
353.1475	0.16	706295	keystroke_y	y	n/a
353.2595	0.16	706519	keystroke_u	u	n/a
353.5555	0.168	707111	keystroke_g	g	n/a
353.6755	0.088	707351	keystroke_o	o	n/a
354.4275	0.152	708855	keystroke_s	s	n/a
354.6755	0.112	709351	keystroke_l	l	n/a
355.2515	0.152	710503	keystroke_a	a	n/a
355.5715	0.128	711143	keystroke_v	v	n/a
355.7235	0.112	711447	keystroke_i	i	n/a
355.8595	0.176	711719	keystroke_a	a	n/a
356.0195	0.072	712039	keystroke_Key.space	Key.space	n/a
356.2355	0.12	712471	keystroke_i	i	n/a
356.3155	0.136	712631	keystroke_n	n	n/a
356.9235	0.16	713847	keystroke_s	s	n/a
357.2355	0.12	714471	keystroke_o	o	n/a
357.4835	0.112	714967	keystroke_u	u	n/a
357.8755	0.064	715751	keystroke_Key.backspace	Key.backspace	n/a
358.0195	0.08	716039	keystroke_Key.backspace	Key.backspace	n/a
358.2845	0.128	716569	keystroke_p	p	n/a
359.6515	0.12	719303	keystroke_i	i	n/a
359.7725	0.151	719545	keystroke_r	r	n/a
359.8435	0.12	719687	keystroke_e	e	n/a
360.0675	0.137	720135	keystroke_d	d	n/a
360.1955	0.096	720391	keystroke_Key.space	Key.space	n/a
360.4515	0.192	720903	keystroke_r	r	n/a
360.4995	0.2	720999	keystroke_e	e	n/a
360.6115	0.152	721223	keystroke_a	a	n/a
360.9075	0.16	721815	keystroke_d	d	n/a
361.1555	0.08	722311	keystroke_i	i	n/a
361.3875	0.12	722775	keystroke_l	l	n/a
361.6835	0.112	723367	keystroke_y	y	n/a
361.9155	0.104	723831	keystroke_Key.space	Key.space	n/a
362.1235	0.176	724247	keystroke_w	w	n/a
362.1955	0.136	724391	keystroke_a	a	n/a
362.4115	0.152	724823	keystroke_g	g	n/a
362.5075	0.184	725015	keystroke_o	o	n/a
362.7555	0.096	725511	keystroke_n	n	n/a
363.1555	0.08	726311	keystroke_Key.enter	Key.enter	n/a
363.2395	6.837	726479	prompt	n/a	opened graham justify undo\n
363.963	0.104	727926	keystroke_o	o	n/a
364.163	0.08	728326	keystroke_p	p	n/a
364.267	0.1605	728534	keystroke_e	e	n/a
364.4115	0.08	728823	keystroke_n	n	n/a
364.5555	0.08	729111	keystroke_e	e	n/a
364.7555	0.144	729511	keystroke_d	d	n/a
364.8675	0.088	729735	keystroke_Key.space	Key.space	n/a
365.6355	0.112	731271	keystroke_g	g	n/a
365.9155	0.184	731831	keystroke_r	r	n/a
366.0355	0.192	732071	keystroke_a	a	n/a
366.1715	0.096	732343	keystroke_p	p	n/a
366.3955	0.104	732791	keystroke_h	h	n/a
366.5395	0.168	733079	keystroke_a	a	n/a
366.6915	0.136	733383	keystroke_m	m	n/a
366.987	0.064	733974	keystroke_Key.space	Key.space	n/a
367.1955	0.12	734391	keystroke_j	j	n/a
367.4035	0.136	734807	keystroke_u	u	n/a
367.5715	0.136	735143	keystroke_s	s	n/a
367.8195	0.152	735639	keystroke_t	t	n/a
367.9795	0.128	735959	keystroke_i	i	n/a
368.3875	0.12	736775	keystroke_f	f	n/a
368.8195	0.104	737639	keystroke_y	y	n/a
369.0195	0.1035	738039	keystroke_Key.space	Key.space	n/a
369.2915	0.113	738583	keystroke_u	u	n/a
369.4675	0.1195	738935	keystroke_n	n	n/a
369.6195	0.144	739239	keystroke_d	d	n/a
369.7235	0.089	739447	keystroke_o	o	n/a
369.9635	0.1115	739927	keystroke_Key.enter	Key.enter	n/a
370.079	10.4055	740158	prompt	n/a	jail fairfield hawaiian direct\n
370.6835	0.1195	741367	keystroke_j	j	n/a
370.867	0.184	741734	keystroke_a	a	n/a
370.971	0.144	741942	keystroke_i	i	n/a
371.323	0.088	742646	keystroke_l	l	n/a
371.731	0.112	743462	keystroke_Key.space	Key.space	n/a
371.971	0.16	743942	keystroke_f	f	n/a
372.163	0.208	744326	keystroke_a	a	n/a
372.403	0.104	744806	keystroke_i	i	n/a
372.659	0.176	745318	keystroke_r	r	n/a
374.963	0.12	749926	keystroke_f	f	n/a
375.139	0.096	750278	keystroke_i	i	n/a
375.243	0.144	750486	keystroke_e	e	n/a
375.483	0.08	750966	keystroke_l	l	n/a
375.659	0.144	751318	keystroke_d	d	n/a
375.843	0.072	751686	keystroke_Key.space	Key.space	n/a
376.419	0.089	752838	keystroke_h	h	n/a
376.531	0.12	753062	keystroke_a	a	n/a
376.803	0.24	753606	keystroke_w	w	n/a
376.899	0.208	753798	keystroke_a	a	n/a
377.131	0.08	754262	keystroke_i	i	n/a
377.323	0.096	754646	keystroke_i	i	n/a
377.555	0.144	755110	keystroke_n	n	n/a
378.307	0.08	756614	keystroke_Key.backspace	Key.backspace	n/a
378.443	0.176	756886	keystroke_a	a	n/a
378.571	0.096	757142	keystroke_n	n	n/a
378.819	0.08	757638	keystroke_Key.space	Key.space	n/a
378.987	0.128	757974	keystroke_d	d	n/a
379.116	0.071	758232	keystroke_i	i	n/a
379.2825	0.2	758565	keystroke_r	r	n/a
379.3945	0.176	758789	keystroke_e	e	n/a
379.716	0.111	759432	keystroke_c	c	n/a
379.979	0.16	759958	keystroke_t	t	n/a
380.379	0.104	760758	keystroke_Key.enter	Key.enter	n/a
380.4875	8.053	760975	prompt	n/a	syndrome serial resource exclusively\n
381.347	0.088	762694	keystroke_s	s	n/a
381.635	0.072	763270	keystroke_y	y	n/a
381.787	0.112	763574	keystroke_n	n	n/a
381.971	0.12	763942	keystroke_d	d	n/a
382.195	0.144	764390	keystroke_r	r	n/a
382.283	0.136	764566	keystroke_o	o	n/a
382.443	0.152	764886	keystroke_m	m	n/a
382.587	0.152	765174	keystroke_e	e	n/a
382.795	0.096	765590	keystroke_Key.space	Key.space	n/a
383.075	0.104	766150	keystroke_s	s	n/a
383.291	0.152	766582	keystroke_e	e	n/a
383.387	0.152	766774	keystroke_r	r	n/a
383.515	0.104	767030	keystroke_i	i	n/a
383.651	0.184	767302	keystroke_a	a	n/a
383.779	0.088	767558	keystroke_l	l	n/a
384.011	0.08	768022	keystroke_Key.space	Key.space	n/a
384.211	0.192	768422	keystroke_r	r	n/a
384.315	0.136	768630	keystroke_e	e	n/a
384.611	0.152	769222	keystroke_s	s	n/a
384.803	0.192	769606	keystroke_o	o	n/a
384.891	0.136	769782	keystroke_u	u	n/a
385.083	0.128	770166	keystroke_r	r	n/a
385.435	0.168	770870	keystroke_c	c	n/a
385.547	0.16	771094	keystroke_e	e	n/a
385.795	0.096	771590	keystroke_Key.space	Key.space	n/a
385.979	0.104	771958	keystroke_e	e	n/a
386.235	0.08	772470	keystroke_x	x	n/a
386.483	0.176	772966	keystroke_c	c	n/a
386.667	0.112	773334	keystroke_l	l	n/a
386.931	0.104	773862	keystroke_u	u	n/a
387.243	0.12	774486	keystroke_s	s	n/a
387.371	0.08	774742	keystroke_i	i	n/a
387.491	0.192	774982	keystroke_v	v	n/a
387.611	0.16	775222	keystroke_e	e	n/a
387.779	0.104	775558	keystroke_l	l	n/a
388.051	0.16	776102	keystroke_y	y	n/a
388.451	0.088	776902	keystroke_Key.enter	Key.enter	n/a
388.543	7.1575	777086	prompt	n/a	providing motherboard void phone\n
389.187	0.104	778374	keystroke_p	p	n/a
389.331	0.144	778662	keystroke_r	r	n/a
389.443	0.096	778886	keystroke_o	o	n/a
389.675	0.144	779350	keystroke_v	v	n/a
389.907	0.088	779814	keystroke_i	i	n/a
390.115	0.152	780230	keystroke_d	d	n/a
390.371	0.144	780742	keystroke_i	i	n/a
390.467	0.136	780934	keystroke_n	n	n/a
390.603	0.144	781206	keystroke_g	g	n/a
390.731	0.08	781462	keystroke_Key.space	Key.space	n/a
390.979	0.128	781958	keystroke_m	m	n/a
391.131	0.12	782262	keystroke_o	o	n/a
391.331	0.168	782662	keystroke_t	t	n/a
391.387	0.136	782774	keystroke_h	h	n/a
391.603	0.208	783206	keystroke_e	e	n/a
391.723	0.152	783446	keystroke_r	r	n/a
391.883	0.08	783766	keystroke_b	b	n/a
392.043	0.112	784086	keystroke_o	o	n/a
392.459	0.184	784918	keystroke_a	a	n/a
392.875	0.104	785750	keystroke_r	r	n/a
393.139	0.16	786278	keystroke_d	d	n/a
393.411	0.104	786822	keystroke_Key.space	Key.space	n/a
393.603	0.16	787206	keystroke_v	v	n/a
393.763	0.208	787526	keystroke_o	o	n/a
393.843	0.16	787686	keystroke_i	i	n/a
394.003	0.176	788006	keystroke_d	d	n/a
394.219	0.088	788438	keystroke_Key.space	Key.space	n/a
394.771	0.104	789542	keystroke_p	p	n/a
394.939	0.144	789878	keystroke_h	h	n/a
395.051	0.16	790102	keystroke_o	o	n/a
395.219	0.112	790438	keystroke_n	n	n/a
395.323	0.144	790646	keystroke_e	e	n/a
395.611	0.088	791222	keystroke_Key.enter	Key.enter	n/a
395.704	8.6125	791408	prompt	n/a	selective resistance values cliff\n
396.403	0.1115	792806	keystroke_s	s	n/a
396.619	0.112	793238	keystroke_e	e	n/a
396.755	0.104	793510	keystroke_l	l	n/a
396.843	0.104	793686	keystroke_e	e	n/a
397.043	0.12	794086	keystroke_c	c	n/a
397.443	0.088	794886	keystroke_t	t	n/a
397.547	0.112	795094	keystroke_i	i	n/a
397.731	0.176	795462	keystroke_v	v	n/a
397.835	0.168	795670	keystroke_e	e	n/a
398.0505	0.104	796101	keystroke_Key.space	Key.space	n/a
398.763	0.184	797526	keystroke_r	r	n/a
398.875	0.128	797750	keystroke_e	e	n/a
399.5865	0.112	799173	keystroke_s	s	n/a
399.7465	0.08	799493	keystroke_i	i	n/a
399.8425	0.136	799685	keystroke_s	s	n/a
400.0825	0.192	800165	keystroke_t	t	n/a
400.1945	0.2	800389	keystroke_a	a	n/a
400.3305	0.128	800661	keystroke_n	n	n/a
400.5385	0.152	801077	keystroke_c	c	n/a
400.7865	0.168	801573	keystroke_e	e	n/a
400.9705	0.104	801941	keystroke_Key.space	Key.space	n/a
401.3545	0.208	802709	keystroke_v	v	n/a
401.4665	0.192	802933	keystroke_a	a	n/a
401.5785	0.088	803157	keystroke_l	l	n/a
401.8105	0.088	803621	keystroke_u	u	n/a
401.9065	0.08	803813	keystroke_e	e	n/a
402.1225	0.088	804245	keystroke_s	s	n/a
402.2425	0.08	804485	keystroke_Key.space	Key.space	n/a
402.4105	0.176	804821	keystroke_c	c	n/a
402.5385	0.096	805077	keystroke_l	l	n/a
402.7545	0.088	805509	keystroke_o	o	n/a
402.9545	0.064	805909	keystroke_f	f	n/a
403.2905	0.064	806581	keystroke_Key.backspace	Key.backspace	n/a
403.4345	0.08	806869	keystroke_Key.backspace	Key.backspace	n/a
403.6505	0.096	807301	keystroke_i	i	n/a
403.7625	0.08	807525	keystroke_f	f	n/a
403.9305	0.096	807861	keystroke_f	f	n/a
404.2425	0.072	808485	keystroke_Key.enter	Key.enter	n/a
404.319	7.1645	808638	prompt	n/a	demonstrates greece supplied witch\n
405.0505	0.208	810101	keystroke_d	d	n/a
405.1785	0.184	810357	keystroke_e	e	n/a
405.3545	0.088	810709	keystroke_m	m	n/a
405.5385	0.168	811077	keystroke_o	o	n/a
405.6345	0.136	811269	keystroke_n	n	n/a
405.8025	0.112	811605	keystroke_s	s	n/a
406.0185	0.104	812037	keystroke_t	t	n/a
406.2425	0.152	812485	keystroke_r	r	n/a
406.3305	0.184	812661	keystroke_a	a	n/a
406.6745	0.144	813349	keystroke_t	t	n/a
406.7625	0.096	813525	keystroke_e	e	n/a
407.0025	0.12	814005	keystroke_s	s	n/a
407.1465	0.0955	814293	keystroke_Key.space	Key.space	n/a
407.346	0.0795	814692	keystroke_g	g	n/a
407.5625	0.1435	815125	keystroke_r	r	n/a
407.666	0.128	815332	keystroke_e	e	n/a
407.8895	0.136	815779	keystroke_e	e	n/a
408.13	0.216	816260	keystroke_c	c	n/a
408.226	0.152	816452	keystroke_e	e	n/a
408.386	0.096	816772	keystroke_Key.space	Key.space	n/a
408.562	0.16	817124	keystroke_s	s	n/a
408.762	0.112	817524	keystroke_u	u	n/a
409.0175	0.1045	818035	keystroke_p	p	n/a
409.194	0.08	818388	keystroke_p	p	n/a
409.386	0.088	818772	keystroke_l	l	n/a
409.602	0.104	819204	keystroke_i	i	n/a
409.738	0.096	819476	keystroke_e	e	n/a
409.946	0.104	819892	keystroke_d	d	n/a
410.05	0.088	820100	keystroke_Key.space	Key.space	n/a
410.338	0.16	820676	keystroke_w	w	n/a
410.466	0.088	820932	keystroke_i	i	n/a
410.682	0.112	821364	keystroke_t	t	n/a
410.962	0.184	821924	keystroke_c	c	n/a
411.114	0.08	822228	keystroke_h	h	n/a
411.41	0.072	822820	keystroke_Key.enter	Key.enter	n/a
411.4865	6.012	822973	prompt	n/a	managers heading traveling islamic\n
412.146	0.088	824292	keystroke_m	m	n/a
412.266	0.104	824532	keystroke_a	a	n/a
412.354	0.096	824708	keystroke_n	n	n/a
412.466	0.104	824932	keystroke_a	a	n/a
412.626	0.144	825252	keystroke_g	g	n/a
412.722	0.192	825444	keystroke_e	e	n/a
412.89	0.136	825780	keystroke_r	r	n/a
413.098	0.1355	826196	keystroke_s	s	n/a
413.2175	0.072	826435	keystroke_Key.space	Key.space	n/a
413.4415	0.104	826883	keystroke_h	h	n/a
413.5375	0.1995	827075	keystroke_e	e	n/a
413.657	0.176	827314	keystroke_a	a	n/a
413.809	0.1445	827618	keystroke_d	d	n/a
413.9615	0.168	827923	keystroke_i	i	n/a
414.0735	0.128	828147	keystroke_n	n	n/a
414.1615	0.12	828323	keystroke_g	g	n/a
414.3055	0.104	828611	keystroke_Key.space	Key.space	n/a
414.4815	0.104	828963	keystroke_t	t	n/a
414.6975	0.144	829395	keystroke_r	r	n/a
414.7855	0.176	829571	keystroke_a	a	n/a
415.0655	0.12	830131	keystroke_v	v	n/a
415.2175	0.168	830435	keystroke_e	e	n/a
415.3615	0.096	830723	keystroke_l	l	n/a
415.5535	0.176	831107	keystroke_i	i	n/a
415.6815	0.12	831363	keystroke_n	n	n/a
415.7615	0.136	831523	keystroke_g	g	n/a
415.8975	0.088	831795	keystroke_Key.space	Key.space	n/a
416.1295	0.08	832259	keystroke_i	i	n/a
416.2735	0.144	832547	keystroke_s	s	n/a
416.4575	0.08	832915	keystroke_l	l	n/a
416.6095	0.152	833219	keystroke_a	a	n/a
416.8015	0.112	833603	keystroke_m	m	n/a
417.0175	0.104	834035	keystroke_i	i	n/a
417.1055	0.144	834211	keystroke_c	c	n/a
417.4095	0.088	834819	keystroke_Key.enter	Key.enter	n/a
417.5035	5.507	835007	prompt	n/a	tooth keyboard toner gras\n
418.1935	0.12	836387	keystroke_t	t	n/a
418.3055	0.072	836611	keystroke_o	o	n/a
418.4415	0.104	836883	keystroke_o	o	n/a
418.5695	0.144	837139	keystroke_t	t	n/a
418.7215	0.088	837443	keystroke_h	h	n/a
419.0815	0.08	838163	keystroke_Key.space	Key.space	n/a
419.529	0.104	839058	keystroke_k	k	n/a
419.625	0.1205	839250	keystroke_e	e	n/a
419.8655	0.112	839731	keystroke_y	y	n/a
420.1775	0.128	840355	keystroke_b	b	n/a
420.2815	0.136	840563	keystroke_o	o	n/a
420.3855	0.176	840771	keystroke_a	a	n/a
420.4975	0.12	840995	keystroke_r	r	n/a
420.7295	0.152	841459	keystroke_d	d	n/a
420.9535	0.096	841907	keystroke_Key.space	Key.space	n/a
421.2735	0.136	842547	keystroke_t	t	n/a
421.3935	0.152	842787	keystroke_o	o	n/a
421.4895	0.136	842979	keystroke_n	n	n/a
421.6255	0.1525	843251	keystroke_e	e	n/a
421.866	0.16	843732	keystroke_r	r	n/a
422.122	0.096	844244	keystroke_Key.space	Key.space	n/a
422.234	0.112	844468	keystroke_g	g	n/a
422.45	0.168	844900	keystroke_r	r	n/a
422.538	0.184	845076	keystroke_a	a	n/a
422.738	0.152	845476	keystroke_s	s	n/a
422.914	0.096	845828	keystroke_Key.enter	Key.enter	n/a
423.013	5.494	846026	prompt	n/a	denial chips event partnership\n
423.842	0.192	847684	keystroke_d	d	n/a
423.946	0.152	847892	keystroke_e	e	n/a
424.162	0.12	848324	keystroke_n	n	n/a
424.266	0.12	848532	keystroke_i	i	n/a
424.442	0.176	848884	keystroke_a	a	n/a
424.578	0.096	849156	keystroke_l	l	n/a
424.794	0.08	849588	keystroke_Key.space	Key.space	n/a
424.93	0.2	849860	keystroke_c	c	n/a
425.042	0.144	850084	keystroke_h	h	n/a
425.114	0.16	850228	keystroke_i	i	n/a
425.266	0.112	850532	keystroke_p	p	n/a
425.41	0.1435	850820	keystroke_s	s	n/a
425.5855	0.096	851171	keystroke_Key.space	Key.space	n/a
425.7295	0.104	851459	keystroke_e	e	n/a
425.8895	0.1765	851779	keystroke_v	v	n/a
425.978	0.184	851956	keystroke_e	e	n/a
426.098	0.112	852196	keystroke_n	n	n/a
426.258	0.16	852516	keystroke_t	t	n/a
426.41	0.088	852820	keystroke_Key.space	Key.space	n/a
426.626	0.136	853252	keystroke_p	p	n/a
426.746	0.136	853492	keystroke_a	a	n/a
426.826	0.112	853652	keystroke_r	r	n/a
427.018	0.144	854036	keystroke_t	t	n/a
427.378	0.112	854756	keystroke_n	n	n/a
427.506	0.16	855012	keystroke_e	e	n/a
427.586	0.144	855172	keystroke_r	r	n/a
427.826	0.184	855652	keystroke_s	s	n/a
427.914	0.152	855828	keystroke_h	h	n/a
427.986	0.192	855972	keystroke_i	i	n/a
428.13	0.152	856260	keystroke_p	p	n/a
428.41	0.096	856820	keystroke_Key.enter	Key.enter	n/a
428.51	6.2365	857020	prompt	n/a	build equilibrium pendant financing\n
429.178	0.168	858356	keystroke_b	b	n/a
429.266	0.168	858532	keystroke_u	u	n/a
429.346	0.104	858692	keystroke_i	i	n/a
429.554	0.096	859108	keystroke_l	l	n/a
429.714	0.128	859428	keystroke_d	d	n/a
429.85	0.104	859700	keystroke_Key.space	Key.space	n/a
430.0575	0.1045	860115	keystroke_e	e	n/a
430.298	0.176	860596	keystroke_q	q	n/a
430.394	0.168	860788	keystroke_u	u	n/a
430.482	0.096	860964	keystroke_i	i	n/a
430.714	0.184	861428	keystroke_l	l	n/a
430.802	0.136	861604	keystroke_i	i	n/a
431.034	0.096	862068	keystroke_b	b	n/a
431.202	0.152	862404	keystroke_r	r	n/a
431.338	0.072	862676	keystroke_i	i	n/a
431.498	0.104	862996	keystroke_u	u	n/a
431.722	0.104	863444	keystroke_m	m	n/a
431.938	0.08	863876	keystroke_Key.space	Key.space	n/a
432.138	0.104	864276	keystroke_p	p	n/a
432.29	0.1435	864580	keystroke_e	e	n/a
432.394	0.1115	864788	keystroke_n	n	n/a
432.5935	0.128	865187	keystroke_d	d	n/a
432.6815	0.176	865363	keystroke_a	a	n/a
432.8095	0.136	865619	keystroke_n	n	n/a
433.1215	0.136	866243	keystroke_t	t	n/a
433.3135	0.088	866627	keystroke_Key.space	Key.space	n/a
433.5055	0.152	867011	keystroke_f	f	n/a
433.6335	0.144	867267	keystroke_i	i	n/a
433.7855	0.12	867571	keystroke_n	n	n/a
433.9855	0.144	867971	keystroke_a	a	n/a
434.0895	0.096	868179	keystroke_n	n	n/a
434.2335	0.112	868467	keystroke_c	c	n/a
434.3455	0.136	868691	keystroke_i	i	n/a
434.4335	0.112	868867	keystroke_n	n	n/a
434.5055	0.12	869011	keystroke_g	g	n/a
434.6415	0.104	869283	keystroke_Key.enter	Key.enter	n/a
434.7495	9.1255	869499	prompt	n/a	category relative serves proceedings\n
435.4495	0.144	870899	keystroke_c	c	n/a
435.5695	0.128	871139	keystroke_a	a	n/a
435.7775	0.152	871555	keystroke_t	t	n/a
435.8815	0.176	871763	keystroke_a	a	n/a
436.3535	0.08	872707	keystroke_Key.backspace	Key.backspace	n/a
436.5375	0.144	873075	keystroke_e	e	n/a
437.0175	0.112	874035	keystroke_g	g	n/a
437.1215	0.088	874243	keystroke_o	o	n/a
437.2575	0.112	874515	keystroke_r	r	n/a
437.4975	0.12	874995	keystroke_y	y	n/a
437.6575	0.096	875315	keystroke_Key.space	Key.space	n/a
437.8415	0.168	875683	keystroke_r	r	n/a
437.9455	0.136	875891	keystroke_e	e	n/a
438.0495	0.096	876099	keystroke_l	l	n/a
438.1855	0.128	876371	keystroke_a	a	n/a
438.3615	0.12	876723	keystroke_t	t	n/a
438.4655	0.112	876931	keystroke_i	i	n/a
438.6335	0.2	877267	keystroke_v	v	n/a
438.7375	0.184	877475	keystroke_e	e	n/a
439.2575	0.096	878515	keystroke_Key.space	Key.space	n/a
439.7055	0.096	879411	keystroke_s	s	n/a
439.9055	0.216	879811	keystroke_e	e	n/a
439.9695	0.144	879939	keystroke_r	r	n/a
440.2415	0.152	880483	keystroke_v	v	n/a
440.3295	0.112	880659	keystroke_e	e	n/a
440.5535	0.12	881107	keystroke_s	s	n/a
440.6655	0.08	881331	keystroke_Key.space	Key.space	n/a
440.89	0.104	881780	keystroke_p	p	n/a
441.002	0.12	882004	keystroke_r	r	n/a
441.13	0.128	882260	keystroke_o	o	n/a
441.394	0.12	882788	keystroke_e	e	n/a
441.818	0.096	883636	keystroke_Key.backspace	Key.backspace	n/a
442.21	0.16	884420	keystroke_c	c	n/a
442.314	0.12	884628	keystroke_e	e	n/a
442.514	0.128	885028	keystroke_e	e	n/a
442.802	0.152	885604	keystroke_d	d	n/a
442.946	0.136	885892	keystroke_i	i	n/a
443.042	0.12	886084	keystroke_n	n	n/a
443.138	0.136	886276	keystroke_g	g	n/a
443.482	0.112	886964	keystroke_s	s	n/a
443.778	0.095	887556	keystroke_Key.enter	Key.enter	n/a
443.878	8.629	887756	prompt	n/a	studying waterproof jamaica observer\n
444.57	0.104	889140	keystroke_s	s	n/a
444.762	0.112	889524	keystroke_t	t	n/a
444.89	0.096	889780	keystroke_u	u	n/a
445.026	0.144	890052	keystroke_d	d	n/a
445.178	0.168	890356	keystroke_i	i	n/a
445.282	0.16	890564	keystroke_n	n	n/a
445.834	0.064	891668	keystroke_=	=	n/a
446.018	0.031	892036	keystroke_Key.backspace	Key.backspace	n/a
446.026	0.016	892052	keystroke_=	=	n/a
446.2575	0.104	892515	keystroke_Key.backspace	Key.backspace	n/a
446.4575	0.104	892915	keystroke_Key.backspace	Key.backspace	n/a
446.6335	0.08	893267	keystroke_Key.backspace	Key.backspace	n/a
446.8655	0.136	893731	keystroke_y	y	n/a
447.1055	0.1685	894211	keystroke_i	i	n/a
447.258	0.128	894516	keystroke_n	n	n/a
447.362	0.144	894724	keystroke_g	g	n/a
447.57	0.104	895140	keystroke_Key.space	Key.space	n/a
447.698	0.24	895396	keystroke_w	w	n/a
447.866	0.128	895732	keystroke_a	a	n/a
448.098	0.1195	896196	keystroke_t	t	n/a
448.17	0.2395	896340	keystroke_e	e	n/a
448.3135	0.16	896627	keystroke_r	r	n/a
448.5055	0.12	897011	keystroke_p	p	n/a
448.6175	0.16	897235	keystroke_r	r	n/a
448.7695	0.088	897539	keystroke_o	o	n/a
448.9295	0.088	897859	keystroke_o	o	n/a
449.122	0.1355	898244	keystroke_f	f	n/a
449.2655	0.088	898531	keystroke_Key.space	Key.space	n/a
449.4895	0.128	898979	keystroke_j	j	n/a
449.6415	0.144	899283	keystroke_a	a	n/a
449.7935	0.12	899587	keystroke_m	m	n/a
449.9215	0.16	899843	keystroke_a	a	n/a
450.1775	0.104	900355	keystroke_i	i	n/a
450.4335	0.2005	900867	keystroke_c	c	n/a
450.57	0.1995	901140	keystroke_a	a	n/a
450.7855	0.072	901571	keystroke_Key.space	Key.space	n/a
451.0015	0.104	902003	keystroke_o	o	n/a
451.2255	0.096	902451	keystroke_b	b	n/a
451.4255	0.1285	902851	keystroke_s	s	n/a
451.642	0.2155	903284	keystroke_e	e	n/a
451.714	0.1515	903428	keystroke_r	r	n/a
451.9775	0.136	903955	keystroke_v	v	n/a
452.0735	0.1845	904147	keystroke_e	e	n/a
452.234	0.176	904468	keystroke_r	r	n/a
452.3935	0.1125	904787	keystroke_Key.enter	Key.enter	n/a
452.5095	6.6055	905019	prompt	n/a	german phrases resort battle\n
453.2575	0.16	906515	keystroke_g	g	n/a
453.3535	0.192	906707	keystroke_e	e	n/a
453.5295	0.1525	907059	keystroke_r	r	n/a
453.674	0.0715	907348	keystroke_m	m	n/a
453.7945	0.1425	907589	keystroke_a	a	n/a
453.89	0.087	907780	keystroke_n	n	n/a
454.105	0.072	908210	keystroke_Key.space	Key.space	n/a
454.306	0.096	908612	keystroke_p	p	n/a
454.546	0.0965	909092	keystroke_h	h	n/a
454.7385	0.1675	909477	keystroke_r	r	n/a
454.8265	0.1585	909653	keystroke_a	a	n/a
455.025	0.121	910050	keystroke_s	s	n/a
455.241	0.0815	910482	keystroke_e	e	n/a
455.449	0.097	910898	keystroke_s	s	n/a
455.6095	0.088	911219	keystroke_Key.space	Key.space	n/a
455.81	0.191	911620	keystroke_r	r	n/a
455.866	0.127	911732	keystroke_e	e	n/a
456.129	0.097	912258	keystroke_s	s	n/a
456.249	0.1045	912498	keystroke_o	o	n/a
456.3775	0.1285	912755	keystroke_r	r	n/a
456.617	0.12	913234	keystroke_t	t	n/a
456.794	0.119	913588	keystroke_s	s	n/a
457.361	0.072	914722	keystroke_Key.backspace	Key.backspace	n/a
457.617	0.064	915234	keystroke_Key.space	Key.space	n/a
457.81	0.087	915620	keystroke_b	b	n/a
457.906	0.208	915812	keystroke_a	a	n/a
458.329	0.112	916658	keystroke_t	t	n/a
458.522	0.135	917044	keystroke_t	t	n/a
458.666	0.079	917332	keystroke_l	l	n/a
458.761	0.144	917522	keystroke_e	e	n/a
459.033	0.08	918066	keystroke_Key.enter	Key.enter	n/a
459.118	7.493	918236	prompt	n/a	medal click photograph broken\n
459.786	0.104	919572	keystroke_m	m	n/a
459.866	0.104	919732	keystroke_e	e	n/a
460.05	0.136	920100	keystroke_d	d	n/a
460.233	0.184	920466	keystroke_a	a	n/a
460.361	0.088	920722	keystroke_l	l	n/a
460.681	0.088	921362	keystroke_Key.space	Key.space	n/a
460.858	0.16	921716	keystroke_c	c	n/a
460.985	0.225	921970	keystroke_l	l	n/a
461.137	0.112	922274	keystroke_i	i	n/a
461.369	0.169	922738	keystroke_c	c	n/a
461.489	0.104	922978	keystroke_k	k	n/a
462.377	0.08	924754	keystroke_Key.space	Key.space	n/a
462.61	0.104	925220	keystroke_p	p	n/a
462.818	0.103	925636	keystroke_h	h	n/a
463.017	0.097	926034	keystroke_o	o	n/a
463.281	0.145	926562	keystroke_t	t	n/a
463.361	0.08	926722	keystroke_o	o	n/a
463.641	0.097	927282	keystroke_g	g	n/a
463.833	0.208	927666	keystroke_r	r	n/a
463.929	0.208	927858	keystroke_a	a	n/a
464.057	0.088	928114	keystroke_p	p	n/a
464.298	0.079	928596	keystroke_h	h	n/a
464.537	0.088	929074	keystroke_Key.space	Key.space	n/a
465.01	0.096	930020	keystroke_b	b	n/a
465.114	0.144	930228	keystroke_r	r	n/a
465.21	0.104	930420	keystroke_o	o	n/a
465.418	0.119	930836	keystroke_k	k	n/a
465.513	0.192	931026	keystroke_e	e	n/a
465.602	0.167	931204	keystroke_r	r	n/a
466.025	0.064	932050	keystroke_Key.backspace	Key.backspace	n/a
466.257	0.081	932514	keystroke_n	n	n/a
466.498	0.111	932996	keystroke_Key.enter	Key.enter	n/a
466.613	7.3495	933226	prompt	n/a	above filling negotiation submitted\n
467.385	0.16	934770	keystroke_a	a	n/a
467.513	0.088	935026	keystroke_b	b	n/a
467.641	0.088	935282	keystroke_o	o	n/a
467.753	0.2	935506	keystroke_v	v	n/a
467.865	0.184	935730	keystroke_e	e	n/a
468.081	0.104	936162	keystroke_Key.space	Key.space	n/a
468.417	0.177	936834	keystroke_f	f	n/a
468.506	0.095	937012	keystroke_i	i	n/a
468.714	0.079	937428	keystroke_l	l	n/a
468.865	0.192	937730	keystroke_l	l	n/a
468.993	0.168	937986	keystroke_i	i	n/a
469.129	0.128	938258	keystroke_n	n	n/a
469.249	0.144	938498	keystroke_g	g	n/a
469.385	0.096	938770	keystroke_Key.space	Key.space	n/a
469.641	0.112	939282	keystroke_n	n	n/a
469.769	0.152	939538	keystroke_e	e	n/a
470.361	0.136	940722	keystroke_g	g	n/a
470.513	0.072	941026	keystroke_o	o	n/a
470.769	0.128	941538	keystroke_t	t	n/a
470.898	0.103	941796	keystroke_i	i	n/a
471.081	0.152	942162	keystroke_a	a	n/a
471.529	0.16	943058	keystroke_t	t	n/a
471.649	0.248	943298	keystroke_i	i	n/a
471.738	0.167	943476	keystroke_o	o	n/a
471.833	0.136	943666	keystroke_n	n	n/a
472.097	0.096	944194	keystroke_Key.space	Key.space	n/a
472.345	0.192	944690	keystroke_s	s	n/a
472.473	0.12	944946	keystroke_u	u	n/a
472.617	0.104	945234	keystroke_b	b	n/a
472.849	0.12	945698	keystroke_m	m	n/a
472.961	0.144	945922	keystroke_i	i	n/a
473.161	0.104	946322	keystroke_t	t	n/a
473.361	0.16	946722	keystroke_t	t	n/a
473.497	0.112	946994	keystroke_e	e	n/a
473.729	0.12	947458	keystroke_d	d	n/a
473.873	0.088	947746	keystroke_Key.enter	Key.enter	n/a
473.9655	6.389	947931	prompt	n/a	strength comic consecutive converter\n
474.625	0.08	949250	keystroke_s	s	n/a
474.785	0.104	949570	keystroke_t	t	n/a
474.985	0.184	949970	keystroke_r	r	n/a
475.065	0.184	950130	keystroke_e	e	n/a
475.225	0.088	950450	keystroke_n	n	n/a
475.345	0.112	950690	keystroke_g	g	n/a
475.553	0.161	951106	keystroke_t	t	n/a
475.649	0.057	951298	keystroke_h	h	n/a
475.849	0.072	951698	keystroke_Key.space	Key.space	n/a
475.985	0.2	951970	keystroke_c	c	n/a
476.113	0.104	952226	keystroke_o	o	n/a
476.297	0.112	952594	keystroke_m	m	n/a
476.506	0.096	953012	keystroke_i	i	n/a
476.625	0.168	953250	keystroke_c	c	n/a
476.753	0.096	953506	keystroke_Key.space	Key.space	n/a
476.937	0.184	953874	keystroke_c	c	n/a
477.097	0.136	954194	keystroke_o	o	n/a
477.185	0.112	954370	keystroke_n	n	n/a
477.457	0.08	954914	keystroke_s	s	n/a
477.633	0.112	955266	keystroke_e	e	n/a
477.801	0.176	955602	keystroke_v	v	n/a
478.073	0.12	956146	keystroke_u	u	n/a
478.345	0.12	956690	keystroke_t	t	n/a
478.466	0.103	956932	keystroke_i	i	n/a
478.601	0.176	957202	keystroke_v	v	n/a
478.697	0.176	957394	keystroke_e	e	n/a
478.825	0.104	957650	keystroke_Key.space	Key.space	n/a
479.081	0.168	958162	keystroke_c	c	n/a
479.193	0.128	958386	keystroke_o	o	n/a
479.265	0.128	958530	keystroke_n	n	n/a
479.377	0.128	958754	keystroke_v	v	n/a
479.457	0.208	958914	keystroke_e	e	n/a
479.633	0.16	959266	keystroke_r	r	n/a
479.881	0.144	959762	keystroke_t	t	n/a
479.977	0.233	959954	keystroke_e	e	n/a
480.105	0.176	960210	keystroke_r	r	n/a
480.265	0.088	960530	keystroke_Key.enter	Key.enter	n/a
480.357	13.941	960714	prompt	n/a	diamond idea examining declare\n
481.025	0.136	962050	keystroke_d	d	n/a
481.177	0.104	962354	keystroke_i	i	n/a
481.289	0.16	962578	keystroke_a	a	n/a
481.409	0.12	962818	keystroke_m	m	n/a
481.585	0.192	963170	keystroke_o	o	n/a
481.729	0.12	963458	keystroke_n	n	n/a
482.169	0.152	964338	keystroke_d	d	n/a
482.361	0.088	964722	keystroke_Key.space	Key.space	n/a
482.705	0.096	965410	keystroke_i	i	n/a
482.873	0.208	965746	keystroke_d	d	n/a
483.017	0.248	966034	keystroke_e	e	n/a
483.121	0.192	966242	keystroke_a	a	n/a
483.305	0.08	966610	keystroke_Key.space	Key.space	n/a
483.585	0.072	967170	keystroke_e	e	n/a
483.921	0.216	967842	keystroke_a	a	n/a
484.537	0.096	969074	keystroke_Key.backspace	Key.backspace	n/a
484.706	0.159	969412	keystroke_x	x	n/a
484.866	0.183	969732	keystroke_a	a	n/a
485.05	0.103	970100	keystroke_m	m	n/a
485.265	0.176	970530	keystroke_i	i	n/a
485.385	0.136	970770	keystroke_n	n	n/a
485.505	0.176	971010	keystroke_g	g	n/a
488.217	0.096	976434	keystroke_Key.backspace	Key.backspace	n/a
488.497	0.088	976994	keystroke_Key.backspace	Key.backspace	n/a
488.697	0.088	977394	keystroke_Key.backspace	Key.backspace	n/a
490.001	0.128	980002	keystroke_n	n	n/a
490.385	0.072	980770	keystroke_Key.backspace	Key.backspace	n/a
490.649	0.192	981298	keystroke_i	i	n/a
490.793	0.144	981586	keystroke_n	n	n/a
491.425	0.144	982850	keystroke_i	i	n/a
491.513	0.112	983026	keystroke_n	n	n/a
491.649	0.152	983298	keystroke_g	g	n/a
491.761	0.0795	983522	keystroke_Key.space	Key.space	n/a
492.0005	0.192	984001	keystroke_d	d	n/a
492.105	0.1435	984210	keystroke_e	e	n/a
492.377	0.144	984754	keystroke_c	c	n/a
492.465	0.096	984930	keystroke_l	l	n/a
493.553	0.145	987106	keystroke_a	a	n/a
493.745	0.2245	987490	keystroke_r	r	n/a
493.8335	0.1835	987667	keystroke_e	e	n/a
494.185	0.112	988370	keystroke_Key.enter	Key.enter	n/a
494.301	8.8535	988602	prompt	n/a	egyptian believes defend replica\n
495.033	0.144	990066	keystroke_e	e	n/a
495.369	0.144	990738	keystroke_g	g	n/a
495.8015	0.1115	991603	keystroke_y	y	n/a
497.3535	0.0955	994707	keystroke_p	p	n/a
497.593	0.144	995186	keystroke_t	t	n/a
497.729	0.088	995458	keystroke_i	i	n/a
497.857	0.16	995714	keystroke_a	a	n/a
497.977	0.088	995954	keystroke_n	n	n/a
498.217	0.096	996434	keystroke_Key.space	Key.space	n/a
498.529	0.104	997058	keystroke_b	b	n/a
498.649	0.152	997298	keystroke_e	e	n/a
498.809	0.232	997618	keystroke_l	l	n/a
498.897	0.16	997794	keystroke_i	i	n/a
498.977	0.136	997954	keystroke_e	e	n/a
499.137	0.192	998274	keystroke_v	v	n/a
499.233	0.144	998466	keystroke_e	e	n/a
499.401	0.2	998802	keystroke_d	d	n/a
499.633	0.104	999266	keystroke_Key.space	Key.space	n/a
499.849	0.176	999698	keystroke_d	d	n/a
499.945	0.16	999890	keystroke_e	e	n/a
500.169	0.176	1000338	keystroke_f	f	n/a
500.265	0.184	1000530	keystroke_e	e	n/a
500.433	0.096	1000866	keystroke_n	n	n/a
500.657	0.168	1001314	keystroke_d	d	n/a
500.889	0.104	1001778	keystroke_Key.space	Key.space	n/a
501.809	0.2	1003618	keystroke_r	r	n/a
501.897	0.168	1003794	keystroke_e	e	n/a
502.097	0.096	1004194	keystroke_p	p	n/a
502.329	0.104	1004658	keystroke_l	l	n/a
502.601	0.088	1005202	keystroke_i	i	n/a
502.809	0.168	1005618	keystroke_c	c	n/a
502.873	0.184	1005746	keystroke_a	a	n/a
503.073	0.08	1006146	keystroke_Key.enter	Key.enter	n/a
503.158	6.8445	1006316	prompt	n/a	taking attempts nathan wiki\n
503.849	0.144	1007698	keystroke_t	t	n/a
503.953	0.168	1007906	keystroke_a	a	n/a
504.065	0.096	1008130	keystroke_k	k	n/a
504.265	0.152	1008530	keystroke_i	i	n/a
504.369	0.12	1008738	keystroke_n	n	n/a
504.441	0.136	1008882	keystroke_g	g	n/a
504.593	0.096	1009186	keystroke_Key.space	Key.space	n/a
504.753	0.112	1009506	keystroke_a	a	n/a
504.977	0.096	1009954	keystroke_t	t	n/a
505.177	0.072	1010354	keystroke_t	t	n/a
506.057	0.168	1012114	keystroke_e	e	n/a
506.193	0.0875	1012386	keystroke_m	m	n/a
506.4645	0.12	1012929	keystroke_p	p	n/a
506.8725	0.12	1013745	keystroke_t	t	n/a
507.0645	0.152	1014129	keystroke_s	s	n/a
507.1845	0.096	1014369	keystroke_Key.space	Key.space	n/a
507.4885	0.12	1014977	keystroke_n	n	n/a
507.6245	0.152	1015249	keystroke_a	a	n/a
507.8965	0.16	1015793	keystroke_t	t	n/a
508.0645	0.08	1016129	keystroke_h	h	n/a
508.1765	0.152	1016353	keystroke_a	a	n/a
508.2885	0.0965	1016577	keystroke_n	n	n/a
508.5205	0.088	1017041	keystroke_Key.space	Key.space	n/a
508.9525	0.16	1017905	keystroke_w	w	n/a
509.0805	0.064	1018161	keystroke_i	i	n/a
509.2645	0.072	1018529	keystroke_k	k	n/a
509.4405	0.088	1018881	keystroke_i	i	n/a
509.9045	0.096	1019809	keystroke_Key.enter	Key.enter	n/a
510.008	7.274	1020016	prompt	n/a	decades love forecasts website\n
510.6805	0.176	1021361	keystroke_d	d	n/a
510.7765	0.128	1021553	keystroke_e	e	n/a
511.0325	0.152	1022065	keystroke_c	c	n/a
511.1205	0.256	1022241	keystroke_a	a	n/a
511.2565	0.168	1022513	keystroke_s	s	n/a
511.72	0.096	1023440	keystroke_Key.backspace	Key.backspace	n/a
511.824	0.192	1023648	keystroke_d	d	n/a
511.912	0.112	1023824	keystroke_e	e	n/a
512.184	0.0955	1024368	keystroke_s	s	n/a
512.2955	0.088	1024591	keystroke_Key.space	Key.space	n/a
512.552	0.104	1025104	keystroke_l	l	n/a
512.76	0.12	1025520	keystroke_o	o	n/a
512.848	0.208	1025696	keystroke_v	v	n/a
512.952	0.176	1025904	keystroke_e	e	n/a
513.144	0.088	1026288	keystroke_Key.space	Key.space	n/a
513.496	0.16	1026992	keystroke_f	f	n/a
513.704	0.088	1027408	keystroke_o	o	n/a
513.856	0.152	1027712	keystroke_r	r	n/a
514.416	0.136	1028832	keystroke_e	e	n/a
514.848	0.176	1029696	keystroke_c	c	n/a
514.904	0.224	1029808	keystroke_a	a	n/a
515.056	0.16	1030112	keystroke_s	s	n/a
515.32	0.176	1030640	keystroke_t	t	n/a
515.416	0.184	1030832	keystroke_s	s	n/a
515.624	0.088	1031248	keystroke_Key.space	Key.space	n/a
515.72	0.104	1031440	keystroke_w	w	n/a
515.92	0.16	1031840	keystroke_e	e	n/a
516.032	0.088	1032064	keystroke_b	b	n/a
516.256	0.16	1032512	keystroke_s	s	n/a
516.4	0.088	1032800	keystroke_i	i	n/a
516.544	0.176	1033088	keystroke_t	t	n/a
516.6	0.192	1033200	keystroke_e	e	n/a
517.176	0.104	1034352	keystroke_Key.enter	Key.enter	n/a
517.2855	9.892	1034571	prompt	n/a	trunk projection telephone ellis\n
517.928	0.096	1035856	keystroke_t	t	n/a
518.144	0.12	1036288	keystroke_r	r	n/a
518.224	0.112	1036448	keystroke_u	u	n/a
518.448	0.184	1036896	keystroke_n	n	n/a
518.568	0.144	1037136	keystroke_k	k	n/a
518.888	0.08	1037776	keystroke_Key.space	Key.space	n/a
519.136	0.12	1038272	keystroke_p	p	n/a
519.296	0.144	1038592	keystroke_r	r	n/a
519.376	0.096	1038752	keystroke_o	o	n/a
519.576	0.112	1039152	keystroke_j	j	n/a
519.664	0.112	1039328	keystroke_e	e	n/a
519.864	0.12	1039728	keystroke_c	c	n/a
520.144	0.192	1040288	keystroke_t	t	n/a
520.328	0.24	1040656	keystroke_i	i	n/a
520.424	0.152	1040848	keystroke_o	o	n/a
520.512	0.136	1041024	keystroke_n	n	n/a
520.768	0.088	1041536	keystroke_Key.space	Key.space	n/a
521.024	0.152	1042048	keystroke_e	e	n/a
521.376	0.072	1042752	keystroke_Key.backspace	Key.backspace	n/a
521.52	0.16	1043040	keystroke_t	t	n/a
521.6	0.152	1043200	keystroke_e	e	n/a
521.704	0.096	1043408	keystroke_l	l	n/a
521.84	0.112	1043680	keystroke_e	e	n/a
522.04	0.144	1044080	keystroke_c	c	n/a
522.264	0.112	1044528	keystroke_p	p	n/a
522.48	0.144	1044960	keystroke_h	h	n/a
522.6	0.152	1045200	keystroke_o	o	n/a
522.784	0.104	1045568	keystroke_n	n	n/a
522.896	0.136	1045792	keystroke_e	e	n/a
523.008	0.096	1046016	keystroke_Key.space	Key.space	n/a
523.272	0.144	1046544	keystroke_e	e	n/a
523.472	0.104	1046944	keystroke_l	l	n/a
523.648	0.1045	1047296	keystroke_l	l	n/a
523.8805	0.088	1047761	keystroke_i	i	n/a
524.2165	0.136	1048433	keystroke_s	s	n/a
527.0165	0.16	1054033	keystroke_Key.enter	Key.enter	n/a
527.1805	10.0375	1054361	prompt	n/a	reservations seasons casio venue\n
527.9125	0.2	1055825	keystroke_r	r	n/a
528.0165	0.136	1056033	keystroke_e	e	n/a
528.2885	0.08	1056577	keystroke_s	s	n/a
528.4725	0.16	1056945	keystroke_e	e	n/a
528.5765	0.128	1057153	keystroke_r	r	n/a
528.8805	0.16	1057761	keystroke_v	v	n/a
528.9285	0.2	1057857	keystroke_a	a	n/a
529.2885	0.152	1058577	keystroke_t	t	n/a
529.4645	0.096	1058929	keystroke_u	u	n/a
529.4965	0.136	1058993	keystroke_i	i	n/a
529.9445	0.08	1059889	keystroke_Key.backspace	Key.backspace	n/a
530.1125	0.08	1060225	keystroke_Key.backspace	Key.backspace	n/a
530.5125	0.256	1061025	keystroke_i	i	n/a
530.6245	0.168	1061249	keystroke_o	o	n/a
530.7525	0.112	1061505	keystroke_n	n	n/a
530.9445	0.144	1061889	keystroke_s	s	n/a
531.0485	0.096	1062097	keystroke_Key.space	Key.space	n/a
531.6645	0.104	1063329	keystroke_s	s	n/a
531.8805	0.168	1063761	keystroke_e	e	n/a
531.9925	0.192	1063985	keystroke_a	a	n/a
532.2005	0.016	1064401	keystroke_a	a	n/a
532.2085	0.144	1064417	keystroke_s	s	n/a
532.4085	0.144	1064817	keystroke_o	o	n/a
532.4885	0.128	1064977	keystroke_n	n	n/a
532.6245	0.136	1065249	keystroke_s	s	n/a
532.8885	0.08	1065777	keystroke_Key.backspace	Key.backspace	n/a
533.0565	0.088	1066113	keystroke_Key.backspace	Key.backspace	n/a
533.2245	0.088	1066449	keystroke_Key.backspace	Key.backspace	n/a
533.4005	0.088	1066801	keystroke_Key.backspace	Key.backspace	n/a
533.5685	0.08	1067137	keystroke_Key.backspace	Key.backspace	n/a
533.9925	0.112	1067985	keystroke_s	s	n/a
534.0485	0.152	1068097	keystroke_o	o	n/a
534.1605	0.104	1068321	keystroke_n	n	n/a
534.2245	0.136	1068449	keystroke_s	s	n/a
534.3925	0.104	1068785	keystroke_Key.space	Key.space	n/a
534.7525	0.208	1069505	keystroke_c	c	n/a
534.8725	0.168	1069745	keystroke_a	a	n/a
535.2085	0.192	1070417	keystroke_s	s	n/a
535.3525	0.184	1070705	keystroke_i	i	n/a
535.4565	0.12	1070913	keystroke_o	o	n/a
535.6885	0.104	1071377	keystroke_Key.space	Key.space	n/a
535.8805	0.136	1071761	keystroke_v	v	n/a
536.0245	0.184	1072049	keystroke_e	e	n/a
536.2165	0.096	1072433	keystroke_n	n	n/a
536.4485	0.12	1072897	keystroke_u	u	n/a
536.5765	0.176	1073153	keystroke_e	e	n/a
537.1125	0.104	1074225	keystroke_Key.enter	Key.enter	n/a
537.2205	6.405	1074441	prompt	n/a	denver realistic gnome effort\n
537.9925	0.216	1075985	keystroke_d	d	n/a
538.1205	0.152	1076241	keystroke_e	e	n/a
538.2405	0.096	1076481	keystroke_n	n	n/a
538.4485	0.1595	1076897	keystroke_v	v	n/a
538.568	0.216	1077136	keystroke_e	e	n/a
