onset	duration	sample	value	key	prompt_text
1.326	21.57	2652	prompt	n/a	the quick brown fox jumps over a lazy dog\n
8.57	0.012	17140	keystroke	t	n/a
8.612	0.105	17224	keystroke	h	n/a
8.702	0.12	17404	keystroke	e	n/a
9.122	0.135	18244	keystroke	Key.space	n/a
13.5805	0.027	27161	keystroke	q	n/a
13.5925	0.105	27185	keystroke	u	n/a
13.7575	0.075	27515	keystroke	i	n/a
13.8625	0.12	27725	keystroke	c	n/a
14.0425	0.09	28085	keystroke	k	n/a
14.2825	0.09	28565	keystroke	Key.space	n/a
14.5225	0.075	29045	keystroke	b	n/a
14.7175	0.105	29435	keystroke	r	n/a
15.0925	0.09	30185	keystroke	w	n/a
15.2125	0.0905	30425	keystroke	o	n/a
15.4525	0.06	30905	keystroke	Key.backspace	n/a
15.5725	0.075	31145	keystroke	Key.backspace	n/a
15.7525	0.09	31505	keystroke	w	n/a
15.7975	0.06	31595	keystroke	o	n/a
16.233	0.074	32466	keystroke	Key.backspace	n/a
16.353	0.09	32706	keystroke	Key.backspace	n/a
16.548	0.075	33096	keystroke	o	n/a
16.683	0.09	33366	keystroke	w	n/a
16.833	0.06	33666	keystroke	n	n/a
17.193	0.09	34386	keystroke	Key.space	n/a
17.268	0.135	34536	keystroke	j	n/a
17.433	0.105	34866	keystroke	o	n/a
17.763	0.075	35526	keystroke	Key.backspace	n/a
17.867	0.1055	35734	keystroke	Key.backspace	n/a
18.1825	0.105	36365	keystroke	f	n/a
18.2575	0.12	36515	keystroke	o	n/a
18.438	0.105	36876	keystroke	x	n/a
18.618	0.09	37236	keystroke	Key.space	n/a
18.753	0.075	37506	keystroke	j	n/a
18.918	0.075	37836	keystroke	u	n/a
19.1125	0.12	38225	keystroke	m	n/a
19.2325	0.09	38465	keystroke	p	n/a
19.2925	0.135	38585	keystroke	s	n/a
19.5175	0.135	39035	keystroke	Key.space	n/a
19.6675	0.105	39335	keystroke	o	n/a
19.7275	0.075	39455	keystroke	v	n/a
19.8775	0.135	39755	keystroke	e	n/a
19.9985	0.074	39997	keystroke	r	n/a
20.0875	0.09	40175	keystroke	Key.space	n/a
20.1925	0.135	40385	keystroke	a	n/a
20.3125	0.12	40625	keystroke	Key.space	n/a
20.4025	0.135	40805	keystroke	l	n/a
20.5825	0.21	41165	keystroke	z	n/a
21.0025	0.045	42005	keystroke	y	n/a
21.1975	0.075	42395	keystroke	Key.backspace	n/a
21.3325	0.09	42665	keystroke	Key.backspace	n/a
21.4075	0.06	42815	keystroke	a	n/a
21.5875	0.09	43175	keystroke	z	n/a
21.8875	0.045	43775	keystroke	y	n/a
21.9925	0.0905	43985	keystroke	Key.space	n/a
22.2325	0.105	44465	keystroke	d	n/a
22.3225	0.105	44645	keystroke	o	n/a
22.4425	0.105	44885	keystroke	g	n/a
22.7725	0.12	45545	keystroke	Key.enter	n/a
22.9025	12.458	45805	prompt	n/a	reputation intense demanding arab\n
23.523	0.105	47046	keystroke	r	n/a
23.613	0.135	47226	keystroke	e	n/a
23.973	0.075	47946	keystroke	p	n/a
24.138	0.06	48276	keystroke	u	n/a
24.258	0.09	48516	keystroke	t	n/a
24.663	0.09	49326	keystroke	a	n/a
24.873	0.09	49746	keystroke	t	n/a
24.948	0.225	49896	keystroke	i	n/a
24.993	0.135	49986	keystroke	o	n/a
25.083	0.12	50166	keystroke	n	n/a
25.458	0.075	50916	keystroke	Key.space	n/a
25.578	0.165	51156	keystroke	i	n/a
25.728	0.09	51456	keystroke	n	n/a
25.953	0.075	51906	keystroke	t	n/a
26.1025	0.09	52205	keystroke	e	n/a
26.2825	0.105	52565	keystroke	s	n/a
26.4625	0.105	52925	keystroke	e	n/a
26.6125	0.09	53225	keystroke	Key.space	n/a
26.8975	0.091	53795	keystroke	d	n/a
27.0625	0.105	54125	keystroke	e	n/a
27.2875	0.0755	54575	keystroke	m	n/a
27.588	0.135	55176	keystroke	a	n/a
27.828	0.045	55656	keystroke	d	n/a
28.128	0.06	56256	keystroke	Key.backspace	n/a
28.308	0.06	56616	keystroke	n	n/a
28.398	0.105	56796	keystroke	d	n/a
28.503	0.105	57006	keystroke	i	n/a
28.5475	0.1055	57095	keystroke	n	n/a
28.698	0.105	57396	keystroke	g	n/a
29.133	0.089	58266	keystroke	Key.space	n/a
29.523	0.09	59046	keystroke	a	n/a
29.733	0.03	59466	keystroke	r	n/a
29.868	0.105	59736	keystroke	a	n/a
30.077	0.0765	60154	keystroke	b	n/a
34.818	0.06	69636	keystroke	n	n/a
35.2675	0.09	70535	keystroke	Key.enter	n/a
35.3675	9.818	70735	prompt	n/a	hometown downtown outputs trustees\n
36.1675	0.09	72335	keystroke	h	n/a
36.2585	0.149	72517	keystroke	o	n/a
36.3775	0.106	72755	keystroke	m	n/a
36.4675	0.105	72935	keystroke	e	n/a
36.648	0.09	73296	keystroke	l	n/a
36.888	0.06	73776	keystroke	Key.backspace	n/a
36.963	0.09	73926	keystroke	t	n/a
37.113	0.105	74226	keystroke	o	n/a
37.173	0.12	74346	keystroke	w	n/a
37.338	0.09	74676	keystroke	n	n/a
37.743	0.105	75486	keystroke	Key.space	n/a
37.953	0.075	75906	keystroke	d	n/a
38.134	0.059	76268	keystroke	e	n/a
38.433	0.03	76866	keystroke	Key.backspace	n/a
38.718	0.105	77436	keystroke	o	n/a
38.868	0.105	77736	keystroke	w	n/a
39.093	0.075	78186	keystroke	n	n/a
39.363	0.105	78726	keystroke	t	n/a
39.498	0.09	78996	keystroke	o	n/a
39.648	0.09	79296	keystroke	w	n/a
40.053	0.06	80106	keystroke	n	n/a
40.293	0.12	80586	keystroke	Key.space	n/a
40.743	0.12	81486	keystroke	o	n/a
40.968	0.12	81936	keystroke	u	n/a
41.163	0.105	82326	keystroke	t	n/a
41.433	0.075	82866	keystroke	p	n/a
41.598	0.1205	83196	keystroke	u	n/a
41.8685	0.075	83737	keystroke	t	n/a
42.0935	0.104	84187	keystroke	s	n/a
42.2435	0.104	84487	keystroke	Key.space	n/a
42.588	0.06	85176	keystroke	t	n/a
42.813	0.09	85626	keystroke	r	n/a
43.713	0.12	87426	keystroke	u	n/a
44.238	0.09	88476	keystroke	s	n/a
44.448	0.075	88896	keystroke	t	n/a
44.598	0.105	89196	keystroke	e	n/a
44.778	0.075	89556	keystroke	e	n/a
44.943	0.09	89886	keystroke	s	n/a
45.063	0.12	90126	keystroke	Key.enter	n/a
45.1925	5.753	90385	prompt	n/a	sample buzz ride apart\n
45.7975	0.135	91595	keystroke	a	n/a
46.3375	0.09	92675	keystroke	Key.backspace	n/a
46.3835	0.134	92767	keystroke	s	n/a
46.504	0.1195	93008	keystroke	a	n/a
46.5935	0.104	93187	keystroke	m	n/a
46.7435	0.104	93487	keystroke	p	n/a
46.9535	0.165	93907	keystroke	l	n/a
47.1025	0.136	94205	keystroke	e	n/a
47.3425	0.105	94685	keystroke	Key.space	n/a
47.7035	0.059	95407	keystroke	b	n/a
47.7775	0.091	95555	keystroke	u	n/a
48.0335	0.089	96067	keystroke	z	n/a
48.2135	0.09	96427	keystroke	z	n/a
48.6025	0.091	97205	keystroke	Key.space	n/a
49.0225	0.046	98045	keystroke	r	n/a
49.0835	0.105	98167	keystroke	i	n/a
49.2635	0.075	98527	keystroke	d	n/a
49.4735	0.1195	98947	keystroke	e	n/a
49.698	0.09	99396	keystroke	Key.space	n/a
49.908	0.135	99816	keystroke	a	n/a
50.073	0.135	100146	keystroke	p	n/a
50.223	0.105	100446	keystroke	a	n/a
50.433	0.09	100866	keystroke	r	n/a
50.628	0.105	101256	keystroke	t	n/a
50.823	0.12	101646	keystroke	Key.enter	n/a
50.9505	6.6695	101901	prompt	n/a	mini autumn tract silver\n
51.844	0.134	103688	keystroke	m	n/a
51.963	0.15	103926	keystroke	i	n/a
52.083	0.135	104166	keystroke	n	n/a
52.233	0.09	104466	keystroke	i	n/a
52.743	0.105	105486	keystroke	Key.space	n/a
52.893	0.135	105786	keystroke	a	n/a
53.133	0.09	106266	keystroke	u	n/a
53.358	0.075	106716	keystroke	t	n/a
53.583	0.075	107166	keystroke	u	n/a
53.778	0.105	107556	keystroke	m	n/a
54.153	0.09	108306	keystroke	Key.backspace	n/a
54.483	0.09	108966	keystroke	m	n/a
54.648	0.091	109296	keystroke	n	n/a
55.128	0.12	110256	keystroke	Key.space	n/a
55.398	0.075	110796	keystroke	t	n/a
55.608	0.06	111216	keystroke	r	n/a
55.758	0.105	111516	keystroke	a	n/a
55.968	0.105	111936	keystroke	c	n/a
56.223	0.105	112446	keystroke	t	n/a
56.448	0.12	112896	keystroke	Key.space	n/a
56.793	0.135	113586	keystroke	s	n/a
56.868	0.18	113736	keystroke	l	n/a
56.958	0.135	113916	keystroke	i	n/a
57.078	0.045	114156	keystroke	v	n/a
57.168	0.165	114336	keystroke	e	n/a
57.303	0.09	114606	keystroke	r	n/a
57.498	0.12	114996	keystroke	Key.enter	n/a
57.6255	9.1895	115251	prompt	n/a	plan chapter appearing entrepreneurs\n
58.263	0.09	116526	keystroke	p	n/a
58.443	0.105	116886	keystroke	l	n/a
58.623	0.105	117246	keystroke	a	n/a
58.848	0.09	117696	keystroke	n	n/a
59.073	0.12	118146	keystroke	Key.space	n/a
59.328	0.135	118656	keystroke	c	n/a
59.478	0.09	118956	keystroke	h	n/a
59.688	0.15	119376	keystroke	a	n/a
59.823	0.075	119646	keystroke	p	n/a
60.033	0.06	120066	keystroke	t	n/a
60.258	0.1055	120516	keystroke	e	n/a
60.9035	0.089	121807	keystroke	r	n/a
61.0975	0.105	122195	keystroke	Key.space	n/a
61.3235	0.105	122647	keystroke	a	n/a
61.4585	0.045	122917	keystroke	p	n/a
61.6075	0.106	123215	keystroke	p	n/a
61.7285	0.149	123457	keystroke	e	n/a
61.9385	0.075	123877	keystroke	a	n/a
62.0885	0.105	124177	keystroke	r	n/a
62.1775	0.166	124355	keystroke	i	n/a
62.2675	0.121	124535	keystroke	n	n/a
62.3885	0.105	124777	keystroke	g	n/a
62.6725	0.135	125345	keystroke	Key.space	n/a
62.9725	0.105	125945	keystroke	e	n/a
63.0935	0.09	126187	keystroke	n	n/a
63.3335	0.044	126667	keystroke	t	n/a
63.6025	0.091	127205	keystroke	e	n/a
64.0225	0.09	128045	keystroke	Key.backspace	n/a
64.1285	0.119	128257	keystroke	r	n/a
64.3675	0.121	128735	keystroke	e	n/a
64.5925	0.121	129185	keystroke	p	n/a
64.8335	0.09	129667	keystroke	r	n/a
65.0725	0.091	130145	keystroke	e	n/a
65.3585	0.09	130717	keystroke	n	n/a
65.7335	0.134	131467	keystroke	e	n/a
66.1975	0.091	132395	keystroke	u	n/a
66.3635	0.059	132727	keystroke	r	n/a
66.5735	0.09	133147	keystroke	s	n/a
66.7085	0.104	133417	keystroke	Key.enter	n/a
66.8205	7.946	133641	prompt	n/a	mirrors establish source wallpapers\n
67.4135	0.105	134827	keystroke	m	n/a
67.5335	0.105	135067	keystroke	i	n/a
68.0285	0.06	136057	keystroke	r	n/a
68.1635	0.09	136327	keystroke	r	n/a
68.2235	0.12	136447	keystroke	o	n/a
68.4635	0.075	136927	keystroke	r	n/a
69.4385	0.105	138877	keystroke	s	n/a
69.6025	0.091	139205	keystroke	Key.space	n/a
69.768	0.075	139536	keystroke	e	n/a
69.963	0.12	139926	keystroke	s	n/a
70.233	0.09	140466	keystroke	t	n/a
70.428	0.135	140856	keystroke	a	n/a
70.638	0.06	141276	keystroke	b	n/a
70.713	0.18	141426	keystroke	l	n/a
70.803	0.12	141606	keystroke	i	n/a
70.938	0.105	141876	keystroke	s	n/a
71.118	0.09	142236	keystroke	h	n/a
71.283	0.135	142566	keystroke	Key.space	n/a
71.598	0.105	143196	keystroke	s	n/a
71.718	0.075	143436	keystroke	o	n/a
71.853	0.105	143706	keystroke	u	n/a
71.973	0.075	143946	keystroke	r	n/a
72.228	0.09	144456	keystroke	c	n/a
72.468	0.09	144936	keystroke	e	n/a
72.603	0.09	145206	keystroke	Key.space	n/a
72.753	0.09	145506	keystroke	w	n/a
72.873	0.1195	145746	keystroke	a	n/a
72.9775	0.075	145955	keystroke	l	n/a
73.0825	0.12	146165	keystroke	l	n/a
73.4885	0.12	146977	keystroke	p	n/a
73.6385	0.119	147277	keystroke	a	n/a
74.1035	0.105	148207	keystroke	p	n/a
74.1935	0.165	148387	keystroke	e	n/a
74.3435	0.06	148687	keystroke	r	n/a
74.5085	0.105	149017	keystroke	s	n/a
74.6425	0.121	149285	keystroke	Key.enter	n/a
74.774	13.176	149548	prompt	n/a	ambien quantity proposals foundation\n
75.2885	0.12	150577	keystroke	a	n/a
75.4385	0.135	150877	keystroke	m	n/a
75.8285	0.075	151657	keystroke	b	n/a
75.8735	0.135	151747	keystroke	i	n/a
75.9635	0.09	151927	keystroke	n	n/a
76.1585	0.09	152317	keystroke	e	n/a
77.0135	0.06	154027	keystroke	Key.backspace	n/a
77.1475	0.061	154295	keystroke	Key.backspace	n/a
77.2385	0.12	154477	keystroke	e	n/a
77.3735	0.045	154747	keystroke	n	n/a
77.8985	0.09	155797	keystroke	Key.space	n/a
78.0935	0.0895	156187	keystroke	q	n/a
78.243	0.09	156486	keystroke	u	n/a
81.036	0.0875	162072	keystroke	a	n/a
81.2285	0.12	162457	keystroke	n	n/a
81.6485	0.135	163297	keystroke	t	n/a
81.7985	0.09	163597	keystroke	i	n/a
81.9485	0.135	163897	keystroke	t	n/a
82.3385	0.105	164677	keystroke	y	n/a
82.4885	0.135	164977	keystroke	Key.space	n/a
82.6985	0.12	165397	keystroke	p	n/a
82.8785	0.105	165757	keystroke	r	n/a
83.0735	0.09	166147	keystroke	o	n/a
83.3885	0.09	166777	keystroke	p	n/a
83.5835	0.105	167167	keystroke	o	n/a
83.7335	0.12	167467	keystroke	s	n/a
84.0485	0.135	168097	keystroke	l	n/a
84.4235	0.075	168847	keystroke	Key.backspace	n/a
84.5285	0.165	169057	keystroke	a	n/a
84.6635	0.135	169327	keystroke	l	n/a
84.7835	0.1195	169567	keystroke	s	n/a
85.083	0.12	170166	keystroke	Key.space	n/a
85.383	0.105	170766	keystroke	o	n/a
85.743	0.091	171486	keystroke	f	n/a
85.938	0.06	171876	keystroke	Key.backspace	n/a
86.058	0.09	172116	keystroke	Key.backspace	n/a
86.193	0.1355	172386	keystroke	f	n/a
86.253	0.1055	172506	keystroke	o	n/a
86.3425	0.106	172685	keystroke	u	n/a
86.5685	0.075	173137	keystroke	n	n/a
86.6885	0.12	173377	keystroke	d	n/a
87.0185	0.09	174037	keystroke	a	n/a
87.2285	0.075	174457	keystroke	t	n/a
87.3185	0.225	174637	keystroke	i	n/a
87.3785	0.12	174757	keystroke	o	n/a
87.4535	0.15	174907	keystroke	n	n/a
87.8435	0.105	175687	keystroke	Key.enter	n/a
87.954	6.9405	175908	prompt	n/a	minus suzuki routine finishing\n
88.5035	0.09	177007	keystroke	m	n/a
88.6535	0.135	177307	keystroke	i	n/a
88.7435	0.12	177487	keystroke	n	n/a
89.0285	0.105	178057	keystroke	u	n/a
89.2385	0.12	178477	keystroke	s	n/a
89.3735	0.15	178747	keystroke	Key.space	n/a
89.5685	0.135	179137	keystroke	s	n/a
89.7935	0.12	179587	keystroke	u	n/a
90.1385	0.135	180277	keystroke	z	n/a
90.3485	0.12	180697	keystroke	u	n/a
90.633	0.06	181266	keystroke	k	n/a
90.783	0.09	181566	keystroke	i	n/a
90.948	0.105	181896	keystroke	Key.space	n/a
91.248	0.09	182496	keystroke	r	n/a
91.353	0.075	182706	keystroke	o	n/a
91.758	0.105	183516	keystroke	u	n/a
91.938	0.09	183876	keystroke	t	n/a
92.148	0.135	184296	keystroke	i	n/a
92.223	0.105	184446	keystroke	n	n/a
92.418	0.105	184836	keystroke	e	n/a
92.808	0.105	185616	keystroke	Key.space	n/a
93.063	0.075	186126	keystroke	f	n/a
93.139	0.119	186278	keystroke	i	n/a
93.348	0.105	186696	keystroke	n	n/a
93.513	0.15	187026	keystroke	i	n/a
93.993	0.12	187986	keystroke	s	n/a
94.188	0.09	188376	keystroke	h	n/a
94.323	0.18	188646	keystroke	i	n/a
94.398	0.135	188796	keystroke	n	n/a
94.518	0.12	189036	keystroke	g	n/a
94.788	0.105	189576	keystroke	Key.enter	n/a
94.901	8.9645	189802	prompt	n/a	thick entering writings wildlife\n
95.479	0.089	190958	keystroke	t	n/a
95.553	0.12	191106	keystroke	h	n/a
95.628	0.09	191256	keystroke	i	n/a
95.793	0.12	191586	keystroke	c	n/a
96.018	0.135	192036	keystroke	k	n/a
96.198	0.105	192396	keystroke	Key.space	n/a
96.453	0.075	192906	keystroke	t	n/a
96.603	0.15	193206	keystroke	e	n/a
96.993	0.075	193986	keystroke	Key.backspace	n/a
97.143	0.075	194286	keystroke	Key.backspace	n/a
97.248	0.105	194496	keystroke	e	n/a
97.354	0.074	194708	keystroke	n	n/a
97.473	0.075	194946	keystroke	t	n/a
97.608	0.165	195216	keystroke	e	n/a
97.758	0.09	195516	keystroke	r	n/a
97.863	0.135	195726	keystroke	i	n/a
97.953	0.105	195906	keystroke	n	n/a
98.088	0.12	196176	keystroke	g	n/a
98.418	0.12	196836	keystroke	Key.space	n/a
98.898	0.06	197796	keystroke	w	n/a
99.408	0.105	198816	keystroke	r	n/a
99.513	0.09	199026	keystroke	i	n/a
99.783	0.105	199566	keystroke	t	n/a
100.7125	0.1355	201425	keystroke	i	n/a
100.7875	0.1055	201575	keystroke	n	n/a
100.908	0.105	201816	keystroke	g	n/a
101.133	0.15	202266	keystroke	s	n/a
101.298	0.09	202596	keystroke	Key.space	n/a
101.958	0.12	203916	keystroke	w	n/a
102.063	0.09	204126	keystroke	i	n/a
102.348	0.105	204696	keystroke	l	n/a
102.528	0.1055	205056	keystroke	d	n/a
102.9625	0.166	205925	keystroke	l	n/a
103.0675	0.121	206135	keystroke	i	n/a
103.1725	0.136	206345	keystroke	f	n/a
103.2625	0.121	206525	keystroke	e	n/a
103.7425	0.121	207485	keystroke	Key.enter	n/a
103.871	6.7895	207742	prompt	n/a	guests hints smile books\n
104.568	0.09	209136	keystroke	g	n/a
104.703	0.1205	209406	keystroke	u	n/a
104.7935	0.105	209587	keystroke	e	n/a
105.0035	0.06	210007	keystroke	s	n/a
105.1685	0.075	210337	keystroke	t	n/a
105.3635	0.105	210727	keystroke	s	n/a
105.4835	0.105	210967	keystroke	Key.space	n/a
106.1885	0.105	212377	keystroke	h	n/a
106.2485	0.165	212497	keystroke	i	n/a
106.3985	0.105	212797	keystroke	n	n/a
107.4925	0.091	214985	keystroke	t	n/a
107.7035	0.135	215407	keystroke	s	n/a
107.8535	0.074	215707	keystroke	Key.space	n/a
108.0625	0.121	216125	keystroke	s	n/a
108.2285	0.105	216457	keystroke	m	n/a
108.3475	0.06	216695	keystroke	i	n/a
109.3825	0.105	218765	keystroke	l	n/a
109.5175	0.135	219035	keystroke	e	n/a
109.6975	0.105	219395	keystroke	Key.space	n/a
109.9075	0.075	219815	keystroke	b	n/a
110.0275	0.06	220055	keystroke	o	n/a
110.1625	0.15	220325	keystroke	o	n/a
110.2375	0.135	220475	keystroke	k	n/a
110.3275	0.12	220655	keystroke	s	n/a
110.5375	0.12	221075	keystroke	Key.enter	n/a
110.6645	8.1255	221329	prompt	n/a	peter regardless fees afterwards\n
111.2885	0.104	222577	keystroke	p	n/a
111.3785	0.15	222757	keystroke	e	n/a
111.7235	0.044	223447	keystroke	t	n/a
111.8285	0.164	223657	keystroke	e	n/a
111.9635	0.104	223927	keystroke	r	n/a
112.0825	0.12	224165	keystroke	Key.space	n/a
112.3085	0.119	224617	keystroke	r	n/a
112.4585	0.12	224917	keystroke	e	n/a
112.6375	0.121	225275	keystroke	g	n/a
112.8325	0.121	225665	keystroke	a	n/a
112.9835	0.089	225967	keystroke	r	n/a
113.1785	0.09	226357	keystroke	d	n/a
113.9725	0.121	227945	keystroke	l	n/a
114.0775	0.076	228155	keystroke	e	n/a
114.2585	0.075	228517	keystroke	s	n/a
114.4375	0.106	228875	keystroke	s	n/a
114.5275	0.09	229055	keystroke	Key.space	n/a
114.6785	0.074	229357	keystroke	f	n/a
114.7235	0.105	229447	keystroke	e	n/a
114.9485	0.044	229897	keystroke	e	n/a
115.2935	0.105	230587	keystroke	s	n/a
115.5035	0.089	231007	keystroke	Key.space	n/a
115.7725	0.106	231545	keystroke	a	n/a
116.0125	0.105	232025	keystroke	f	n/a
116.2835	0.059	232567	keystroke	t	n/a
116.4175	0.211	232835	keystroke	e	n/a
116.5385	0.105	233077	keystroke	r	n/a
117.303	0.105	234606	keystroke	w	n/a
117.438	0.075	234876	keystroke	o	n/a
117.753	0.03	235506	keystroke	Key.backspace	n/a
117.813	0.09	235626	keystroke	a	n/a
117.993	0.06	235986	keystroke	r	n/a
118.158	0.135	236316	keystroke	d	n/a
118.278	0.105	236556	keystroke	s	n/a
118.683	0.105	237366	keystroke	Key.enter	n/a
118.7955	11.1705	237591	prompt	n/a	comparison meets complement doug\n
119.343	0.135	238686	keystroke	c	n/a
119.4625	0.1805	238925	keystroke	o	n/a
119.628	0.165	239256	keystroke	m	n/a
119.8075	0.105	239615	keystroke	p	n/a
120.1525	0.075	240305	keystroke	a	n/a
120.4375	0.03	240875	keystroke	r	n/a
121.3075	0.105	242615	keystroke	i	n/a
121.5625	0.105	243125	keystroke	s	n/a
121.6825	0.135	243365	keystroke	o	n/a
121.7875	0.075	243575	keystroke	n	n/a
121.8775	0.09	243755	keystroke	Key.space	n/a
122.0425	0.106	244085	keystroke	m	n/a
122.1625	0.105	244325	keystroke	e	n/a
122.5825	0.105	245165	keystroke	e	n/a
122.7775	0.075	245555	keystroke	t	n/a
123.0325	0.135	246065	keystroke	s	n/a
123.1975	0.09	246395	keystroke	Key.space	n/a
124.5325	0.225	249065	keystroke	o	n/a
124.6525	0.18	249305	keystroke	m	n/a
125.0125	0.06	250025	keystroke	Key.backspace	n/a
125.1475	0.09	250295	keystroke	Key.backspace	n/a
125.2525	0.09	250505	keystroke	c	n/a
125.3575	0.195	250715	keystroke	o	n/a
125.4775	0.12	250955	keystroke	m	n/a
125.7325	0.09	251465	keystroke	p	n/a
125.9575	0.151	251915	keystroke	l	n/a
126.0475	0.135	252095	keystroke	i	n/a
127.0675	0.0755	254135	keystroke	Key.backspace	n/a
127.248	0.165	254496	keystroke	e	n/a
127.428	0.075	254856	keystroke	m	n/a
127.668	0.09	255336	keystroke	e	n/a
127.743	0.075	255486	keystroke	n	n/a
127.878	0.105	255756	keystroke	t	n/a
128.388	0.12	256776	keystroke	Key.space	n/a
128.628	0.105	257256	keystroke	d	n/a
128.792	0.106	257584	keystroke	o	n/a
129.033	0.09	258066	keystroke	u	n/a
129.153	0.12	258306	keystroke	g	n/a
129.813	0.15	259626	keystroke	Key.enter	n/a
129.973	10.4915	259946	prompt	n/a	posing around sodium berkeley\n
130.4585	0.104	260917	keystroke	p	n/a
130.6985	0.09	261397	keystroke	o	n/a
130.8035	0.12	261607	keystroke	s	n/a
130.9985	0.119	261997	keystroke	i	n/a
131.2075	0.091	262415	keystroke	n	n/a
131.3435	0.12	262687	keystroke	g	n/a
131.6125	0.045	263225	keystroke	Key.space	n/a
131.8985	0.09	263797	keystroke	a	n/a
132.1085	0.09	264217	keystroke	r	n/a
132.1235	0.105	264247	keystroke	o	n/a
132.2125	0.121	264425	keystroke	u	n/a
132.5285	0.105	265057	keystroke	n	n/a
132.6785	0.1045	265357	keystroke	d	n/a
132.843	0.105	265686	keystroke	Key.space	n/a
133.158	0.09	266316	keystroke	s	n/a
133.278	0.075	266556	keystroke	o	n/a
133.728	0.09	267456	keystroke	d	n/a
133.818	0.06	267636	keystroke	u	n/a
134.298	0.105	268596	keystroke	i	n/a
134.673	0.0605	269346	keystroke	Key.backspace	n/a
134.793	0.075	269586	keystroke	Key.backspace	n/a
134.9435	0.075	269887	keystroke	Key.backspace	n/a
135.1235	0.09	270247	keystroke	u	n/a
135.303	0.105	270606	keystroke	d	n/a
135.4385	0.1045	270877	keystroke	i	n/a
136.368	0.06	272736	keystroke	Key.backspace	n/a
136.503	0.06	273006	keystroke	Key.backspace	n/a
136.638	0.075	273276	keystroke	Key.backspace	n/a
136.758	0.12	273516	keystroke	d	n/a
136.923	0.135	273846	keystroke	i	n/a
137.193	0.09	274386	keystroke	u	n/a
137.418	0.09	274836	keystroke	m	n/a
137.838	0.09	275676	keystroke	Key.space	n/a
138.048	0.09	276096	keystroke	b	n/a
138.243	0.105	276486	keystroke	a	n/a
138.543	0.09	277086	keystroke	Key.backspace	n/a
138.618	0.12	277236	keystroke	e	n/a
138.753	0.15	277506	keystroke	r	n/a
138.978	0.105	277956	keystroke	k	n/a
139.143	0.1495	278286	keystroke	e	n/a
139.6525	0.1055	279305	keystroke	l	n/a
139.818	0.0745	279636	keystroke	e	n/a
140.0575	0.06	280115	keystroke	y	n/a
140.3575	0.105	280715	keystroke	Key.enter	n/a
140.4695	8.3055	280939	prompt	n/a	obituaries sauce beef that's\n
141.1085	0.12	282217	keystroke	o	n/a
141.5285	0.075	283057	keystroke	b	n/a
141.7685	0.104	283537	keystroke	i	n/a
142.0985	0.105	284197	keystroke	t	n/a
142.7285	0.089	285457	keystroke	u	n/a
143.0125	0.121	286025	keystroke	a	n/a
143.3125	0.091	286625	keystroke	r	n/a
143.4935	0.105	286987	keystroke	i	n/a
143.5535	0.12	287107	keystroke	e	n/a
143.7785	0.09	287557	keystroke	s	n/a
143.9125	0.121	287825	keystroke	Key.space	n/a
144.168	0.075	288336	keystroke	s	n/a
144.318	0.135	288636	keystroke	a	n/a
144.618	0.09	289236	keystroke	u	n/a
144.843	0.105	289686	keystroke	c	n/a
145.098	0.105	290196	keystroke	e	n/a
145.278	0.105	290556	keystroke	Key.space	n/a
145.833	0.045	291666	keystroke	b	n/a
145.983	0.105	291966	keystroke	e	n/a
146.208	0.105	292416	keystroke	e	n/a
146.373	0.12	292746	keystroke	f	n/a
146.703	0.105	293406	keystroke	Key.space	n/a
147.003	0.1205	294006	keystroke	h	n/a
147.3325	0.09	294665	keystroke	Key.backspace	n/a
147.4085	0.09	294817	keystroke	t	n/a
147.5285	0.119	295057	keystroke	h	n/a
147.6325	0.09	295265	keystroke	a	n/a
147.7375	0.091	295475	keystroke	t	n/a
147.9775	0.106	295955	keystroke	'	n/a
148.1285	0.104	296257	keystroke	s	n/a
148.6525	0.12	297305	keystroke	Key.enter	n/a
148.7795	8.275	297559	prompt	n/a	cruises offices bandwidth artist\n
149.3425	0.15	298685	keystroke	c	n/a
149.7035	0.075	299407	keystroke	r	n/a
150.1235	0.059	300247	keystroke	u	n/a
150.2875	0.106	300575	keystroke	i	n/a
150.4385	0.1045	300877	keystroke	s	n/a
150.588	0.09	301176	keystroke	i	n/a
150.708	0.0745	301416	keystroke	s	n/a
150.948	0.0595	301896	keystroke	Key.backspace	n/a
151.083	0.0595	302166	keystroke	Key.backspace	n/a
151.278	0.075	302556	keystroke	e	n/a
151.428	0.15	302856	keystroke	s	n/a
151.728	0.12	303456	keystroke	Key.space	n/a
151.983	0.12	303966	keystroke	o	n/a
152.073	0.0595	304146	keystroke	f	n/a
152.2375	0.09	304475	keystroke	f	n/a
152.4175	0.12	304835	keystroke	i	n/a
152.5975	0.106	305195	keystroke	c	n/a
152.8075	0.06	305615	keystroke	e	n/a
152.9575	0.135	305915	keystroke	s	n/a
153.0775	0.12	306155	keystroke	Key.space	n/a
153.3175	0.09	306635	keystroke	b	n/a
153.4675	0.12	306935	keystroke	a	n/a
153.6175	0.075	307235	keystroke	n	n/a
153.7075	0.105	307415	keystroke	d	n/a
153.9025	0.105	307805	keystroke	w	n/a
154.0675	0.12	308135	keystroke	i	n/a
154.6675	0.09	309335	keystroke	d	n/a
154.9525	0.075	309905	keystroke	t	n/a
155.1025	0.12	310205	keystroke	h	n/a
155.3425	0.12	310685	keystroke	Key.space	n/a
155.6575	0.12	311315	keystroke	a	n/a
155.8825	0.105	311765	keystroke	r	n/a
156.1075	0.075	312215	keystroke	t	n/a
156.3475	0.12	312695	keystroke	i	n/a
156.5875	0.09	313175	keystroke	s	n/a
156.7975	0.06	313595	keystroke	t	n/a
156.9325	0.12	313865	keystroke	Key.enter	n/a
157.0595	11.245	314119	prompt	n/a	strike i'll released individuals\n
157.578	0.12	315156	keystroke	s	n/a
157.818	0.09	315636	keystroke	t	n/a
158.013	0.06	316026	keystroke	r	n/a
158.058	0.105	316116	keystroke	i	n/a
158.268	0.12	316536	keystroke	k	n/a
158.373	0.15	316746	keystroke	e	n/a
158.538	0.12	317076	keystroke	Key.space	n/a
158.703	0.09	317406	keystroke	i	n/a
158.898	0.18	317796	keystroke	l	n/a
159.093	0.06	318186	keystroke	l	n/a
159.483	0.075	318966	keystroke	Key.backspace	n/a
159.648	0.06	319296	keystroke	Key.backspace	n/a
161.448	0.105	322896	keystroke	'	n/a
161.748	0.03	323496	keystroke	;	n/a
161.898	0.075	323796	keystroke	;	n/a
162.483	0.075	324966	keystroke	Key.backspace	n/a
162.633	0.06	325266	keystroke	Key.backspace	n/a
162.828	0.09	325656	keystroke	l	n/a
163.023	0.075	326046	keystroke	l	n/a
163.398	0.105	326796	keystroke	Key.space	n/a
163.623	0.12	327246	keystroke	r	n/a
163.728	0.105	327456	keystroke	e	n/a
163.908	0.15	327816	keystroke	l	n/a
164.013	0.105	328026	keystroke	e	n/a
164.178	0.15	328356	keystroke	a	n/a
164.268	0.075	328536	keystroke	s	n/a
164.388	0.105	328776	keystroke	e	n/a
164.613	0.105	329226	keystroke	d	n/a
164.703	0.075	329406	keystroke	Key.space	n/a
164.808	0.195	329616	keystroke	i	n/a
164.928	0.135	329856	keystroke	n	n/a
165.528	0.12	331056	keystroke	d	n/a
165.678	0.105	331356	keystroke	i	n/a
165.813	0.1045	331626	keystroke	v	n/a
166.3525	0.09	332705	keystroke	i	n/a
166.9075	0.12	333815	keystroke	d	n/a
167.1175	0.09	334235	keystroke	u	n/a
167.2825	0.135	334565	keystroke	a	n/a
167.3725	0.12	334745	keystroke	l	n/a
167.5075	0.105	335015	keystroke	s	n/a
168.1675	0.135	336335	keystroke	Key.enter	n/a
168.3095	11.6055	336619	prompt	n/a	therapeutic sustained grateful nottingham\n
169.0375	0.09	338075	keystroke	t	n/a
169.1575	0.105	338315	keystroke	h	n/a
169.2475	0.135	338495	keystroke	e	n/a
169.6525	0.09	339305	keystroke	r	n/a
169.9525	0.09	339905	keystroke	a	n/a
170.2525	0.105	340505	keystroke	p	n/a
170.7025	0.105	341405	keystroke	e	n/a
171.0925	0.09	342185	keystroke	u	n/a
171.2725	0.09	342545	keystroke	t	n/a
171.3775	0.105	342755	keystroke	i	n/a
171.5725	0.105	343145	keystroke	c	n/a
171.8725	0.12	343745	keystroke	Key.space	n/a
172.1425	0.09	344285	keystroke	s	n/a
172.4425	0.135	344885	keystroke	u	n/a
172.5625	0.09	345125	keystroke	s	n/a
172.7575	0.075	345515	keystroke	t	n/a
173.0125	0.12	346025	keystroke	a	n/a
173.1475	0.135	346295	keystroke	i	n/a
173.2225	0.105	346445	keystroke	n	n/a
173.3725	0.09	346745	keystroke	e	n/a
173.8225	0.06	347645	keystroke	Key.backspace	n/a
174.1825	0.09	348365	keystroke	e	n/a
174.393	0.075	348786	keystroke	d	n/a
174.482	0.121	348964	keystroke	Key.space	n/a
174.873	0.09	349746	keystroke	g	n/a
175.053	0.075	350106	keystroke	r	n/a
175.263	0.075	350526	keystroke	a	n/a
175.383	0.12	350766	keystroke	t	n/a
175.578	0.12	351156	keystroke	e	n/a
175.683	0.12	351366	keystroke	f	n/a
175.863	0.135	351726	keystroke	u	n/a
176.237	0.031	352474	keystroke	Key.backspace	n/a
176.358	0.06	352716	keystroke	Key.backspace	n/a
177.378	0.105	354756	keystroke	f	n/a
177.468	0.09	354936	keystroke	u	n/a
177.573	0.135	355146	keystroke	l	n/a
177.753	0.12	355506	keystroke	Key.space	n/a
178.023	0.18	356046	keystroke	n	n/a
178.3375	0.105	356675	keystroke	o	n/a
178.5635	0.089	357127	keystroke	t	n/a
178.7125	0.106	357425	keystroke	t	n/a
178.8025	0.166	357605	keystroke	i	n/a
178.8925	0.121	357785	keystroke	n	n/a
178.9975	0.09	357995	keystroke	g	n/a
179.2085	0.075	358417	keystroke	h	n/a
179.3435	0.134	358687	keystroke	a	n/a
179.4475	0.09	358895	keystroke	m	n/a
179.7925	0.12	359585	keystroke	Key.enter	n/a
179.9205	5.4095	359841	prompt	n/a	saying guards also sara\n
180.4835	0.1195	360967	keystroke	s	n/a
180.633	0.105	361266	keystroke	a	n/a
180.813	0.105	361626	keystroke	y	n/a
180.903	0.1795	361806	keystroke	i	n/a
180.978	0.135	361956	keystroke	n	n/a
181.0975	0.06	362195	keystroke	g	n/a
181.2925	0.12	362585	keystroke	Key.space	n/a
181.8175	0.106	363635	keystroke	g	n/a
182.0275	0.12	364055	keystroke	u	n/a
182.1775	0.105	364355	keystroke	r	n/a
182.8375	0.12	365675	keystroke	Key.backspace	n/a
182.9425	0.075	365885	keystroke	a	n/a
183.0775	0.105	366155	keystroke	r	n/a
183.3025	0.105	366605	keystroke	d	n/a
183.4235	0.135	366847	keystroke	s	n/a
183.5725	0.12	367145	keystroke	Key.space	n/a
183.7225	0.12	367445	keystroke	a	n/a
183.8585	0.104	367717	keystroke	l	n/a
183.9775	0.12	367955	keystroke	s	n/a
184.1285	0.089	368257	keystroke	o	n/a
184.2925	0.15	368585	keystroke	Key.space	n/a
184.5635	0.134	369127	keystroke	a	n/a
184.9225	0.076	369845	keystroke	r	n/a
185.0875	0.105	370175	keystroke	a	n/a
185.2375	0.09	370475	keystroke	Key.enter	n/a
185.338	8.1215	370676	prompt	n/a	fatty bloggers converter affiliated\n
186.2275	0.0755	372455	keystroke	f	n/a
186.378	0.105	372756	keystroke	a	n/a
186.648	0.06	373296	keystroke	t	n/a
186.813	0.12	373626	keystroke	t	n/a
187.083	0.075	374166	keystroke	y	n/a
187.263	0.105	374526	keystroke	Key.space	n/a
187.578	0.09	375156	keystroke	b	n/a
187.698	0.075	375396	keystroke	l	n/a
187.863	0.09	375726	keystroke	o	n/a
187.968	0.06	375936	keystroke	g	n/a
188.313	0.105	376626	keystroke	g	n/a
188.523	0.165	377046	keystroke	e	n/a
188.688	0.075	377376	keystroke	r	n/a
188.883	0.105	377766	keystroke	s	n/a
189.003	0.135	378006	keystroke	Key.space	n/a
189.168	0.12	378336	keystroke	c	n/a
189.273	0.105	378546	keystroke	o	n/a
189.348	0.09	378696	keystroke	n	n/a
189.483	0.09	378966	keystroke	v	n/a
189.678	0.135	379356	keystroke	e	n/a
189.813	0.075	379626	keystroke	r	n/a
190.098	0.06	380196	keystroke	t	n/a
190.203	0.165	380406	keystroke	e	n/a
190.338	0.105	380676	keystroke	r	n/a
190.458	0.09	380916	keystroke	Key.space	n/a
190.668	0.1055	381336	keystroke	a	n/a
190.818	0.105	381636	keystroke	f	n/a
191.013	0.105	382026	keystroke	f	n/a
191.5975	0.075	383195	keystroke	i	n/a
191.8075	0.12	383615	keystroke	l	n/a
192.0625	0.106	384125	keystroke	i	n/a
192.4225	0.135	384845	keystroke	a	n/a
192.6935	0.0885	385387	keystroke	t	n/a
192.828	0.105	385656	keystroke	e	n/a
193.037	0.09	386074	keystroke	d	n/a
193.323	0.134	386646	keystroke	Key.enter	n/a
193.465	12.1595	386930	prompt	n/a	forecasts scripting linear raise\n
194.013	0.089	388026	keystroke	f	n/a
194.133	0.104	388266	keystroke	o	n/a
194.208	0.074	388416	keystroke	r	n/a
194.478	0.12	388956	keystroke	e	n/a
194.732	0.106	389464	keystroke	g	n/a
195.318	0.03	390636	keystroke	c	n/a
195.363	0.105	390726	keystroke	Key.backspace	n/a
195.543	0.075	391086	keystroke	Key.backspace	n/a
195.768	0.135	391536	keystroke	c	n/a
195.904	0.194	391808	keystroke	a	n/a
196.068	0.119	392136	keystroke	s	n/a
196.773	0.075	393546	keystroke	t	n/a
196.968	0.135	393936	keystroke	s	n/a
197.132	0.105	394264	keystroke	Key.space	n/a
197.582	0.106	395164	keystroke	c	n/a
197.988	0.075	395976	keystroke	r	n/a
198.078	0.135	396156	keystroke	i	n/a
198.303	0.105	396606	keystroke	p	n/a
198.438	0.105	396876	keystroke	t	n/a
198.588	0.15	397176	keystroke	i	n/a
198.888	0.06	397776	keystroke	Key.backspace	n/a
199.023	0.06	398046	keystroke	Key.backspace	n/a
199.157	0.061	398314	keystroke	Key.backspace	n/a
199.293	0.075	398586	keystroke	Key.backspace	n/a
199.443	0.0595	398886	keystroke	Key.backspace	n/a
199.5775	0.075	399155	keystroke	Key.backspace	n/a
199.6535	0.089	399307	keystroke	s	n/a
199.7875	0.12	399575	keystroke	c	n/a
200.0275	0.12	400055	keystroke	r	n/a
200.1625	0.135	400325	keystroke	i	n/a
200.4175	0.105	400835	keystroke	p	n/a
200.6575	0.09	401315	keystroke	t	n/a
200.7325	0.165	401465	keystroke	i	n/a
200.8375	0.09	401675	keystroke	n	n/a
200.9285	0.134	401857	keystroke	g	n/a
201.4525	0.075	402905	keystroke	Key.space	n/a
201.6325	0.075	403265	keystroke	l	n/a
201.7525	0.135	403505	keystroke	i	n/a
201.8275	0.12	403655	keystroke	n	n/a
202.0975	0.12	404195	keystroke	e	n/a
202.2775	0.075	404555	keystroke	a	n/a
202.4725	0.105	404945	keystroke	r	n/a
202.7725	0.105	405545	keystroke	Key.space	n/a
203.1775	0.06	406355	keystroke	r	n/a
203.2525	0.075	406505	keystroke	i	n/a
203.3725	0.075	406745	keystroke	s	n/a
203.5225	0.105	407045	keystroke	e	n/a
204.0175	0.075	408035	keystroke	Key.backspace	n/a
204.1375	0.075	408275	keystroke	Key.backspace	n/a
204.8125	0.075	409625	keystroke	Key.backspace	n/a
204.9325	0.12	409865	keystroke	a	n/a
205.0675	0.09	410135	keystroke	i	n/a
205.1435	0.089	410287	keystroke	s	n/a
205.3075	0.12	410615	keystroke	e	n/a
205.4875	0.135	410975	keystroke	Key.enter	n/a
205.629	12.2205	411258	prompt	n/a	photo quest macintosh blacks\n
206.1025	0.09	412205	keystroke	p	n/a
206.2825	0.105	412565	keystroke	h	n/a
206.3725	0.12	412745	keystroke	o	n/a
206.6575	0.105	413315	keystroke	t	n/a
206.9575	0.09	413915	keystroke	o	n/a
207.1075	0.12	414215	keystroke	Key.space	n/a
207.4685	0.074	414937	keystroke	q	n/a
207.6185	0.089	415237	keystroke	u	n/a
207.7085	0.09	415417	keystroke	e	n/a
207.8735	0.074	415747	keystroke	s	n/a
208.0525	0.105	416105	keystroke	t	n/a
208.1725	0.12	416345	keystroke	Key.space	n/a
208.3825	0.12	416765	keystroke	m	n/a
208.8485	0.134	417697	keystroke	a	n/a
209.2675	0.06	418535	keystroke	Key.backspace	n/a
209.3735	0.12	418747	keystroke	c	n/a
209.6425	0.165	419285	keystroke	i	n/a
209.7935	0.09	419587	keystroke	n	n/a
210.1375	0.076	420275	keystroke	t	n/a
210.2875	0.136	420575	keystroke	o	n/a
210.3925	0.136	420785	keystroke	s	n/a
210.9925	0.09	421985	keystroke	h	n/a
211.6075	0.09	423215	keystroke	Key.space	n/a
211.8325	0.075	423665	keystroke	b	n/a
211.9675	0.105	423935	keystroke	l	n/a
212.0425	0.09	424085	keystroke	a	n/a
212.2075	0.12	424415	keystroke	c	n/a
212.3125	0.165	424625	keystroke	k	n/a
212.4625	0.105	424925	keystroke	s	n/a
215.9725	0.075	431945	keystroke	Key.left	n/a
216.1225	0.075	432245	keystroke	Key.left	n/a
216.2725	0.105	432545	keystroke	Key.left	n/a
216.6775	0.105	433355	keystroke	Key.left	n/a
216.9025	0.15	433805	keystroke	a	n/a
217.758	0.09	435516	keystroke	Key.enter	n/a
217.854	9.476	435708	prompt	n/a	toolkit drive trainer explaining\n
218.643	0.0905	437286	keystroke	t	n/a
218.718	0.06	437436	keystroke	o	n/a
218.868	0.12	437736	keystroke	o	n/a
218.988	0.12	437976	keystroke	k	n/a
219.708	0.075	439416	keystroke	Key.backspace	n/a
219.933	0.135	439866	keystroke	l	n/a
220.038	0.09	440076	keystroke	i	n/a
220.353	0.075	440706	keystroke	Key.backspace	n/a
220.533	0.105	441066	keystroke	k	n/a
220.683	0.105	441366	keystroke	e	n/a
221.178	0.06	442356	keystroke	Key.backspace	n/a
221.373	0.09	442746	keystroke	i	n/a
221.493	0.12	442986	keystroke	t	n/a
221.628	0.09	443256	keystroke	Key.space	n/a
222.123	0.09	444246	keystroke	d	n/a
222.303	0.09	444606	keystroke	r	n/a
222.378	0.135	444756	keystroke	i	n/a
222.528	0.075	445056	keystroke	v	n/a
222.858	0.12	445716	keystroke	e	n/a
223.053	0.135	446106	keystroke	Key.space	n/a
223.308	0.075	446616	keystroke	t	n/a
223.473	0.06	446946	keystroke	r	n/a
223.6825	0.15	447365	keystroke	a	n/a
223.8475	0.15	447695	keystroke	i	n/a
223.9375	0.135	447875	keystroke	n	n/a
224.0875	0.1505	448175	keystroke	e	n/a
224.223	0.12	448446	keystroke	r	n/a
224.357	0.09	448714	keystroke	Key.space	n/a
224.4775	0.105	448955	keystroke	e	n/a
224.7025	0.12	449405	keystroke	x	n/a
224.8675	0.09	449735	keystroke	p	n/a
225.0625	0.105	450125	keystroke	l	n/a
225.1825	0.135	450365	keystroke	a	n/a
225.3625	0.09	450725	keystroke	n	n/a
225.6775	0.105	451355	keystroke	i	n/a
225.9475	0.075	451895	keystroke	Key.backspace	n/a
226.0975	0.09	452195	keystroke	Key.backspace	n/a
226.2925	0.135	452585	keystroke	i	n/a
226.3825	0.105	452765	keystroke	n	n/a
226.5625	0.18	453125	keystroke	i	n/a
226.6375	0.135	453275	keystroke	n	n/a
226.8175	0.135	453635	keystroke	g	n/a
227.2075	0.12	454415	keystroke	Key.enter	n/a
227.335	10.645	454670	prompt	n/a	industries tide hide acdbentity\n
227.957	0.105	455914	keystroke	i	n/a
228.108	0.074	456216	keystroke	n	n/a
228.348	0.09	456696	keystroke	d	n/a
228.527	0.091	457054	keystroke	u	n/a
228.663	0.075	457326	keystroke	s	n/a
228.963	0.075	457926	keystroke	t	n/a
229.127	0.091	458254	keystroke	r	n/a
229.202	0.121	458404	keystroke	i	n/a
229.292	0.091	458584	keystroke	e	n/a
229.473	0.12	458946	keystroke	s	n/a
229.593	0.089	459186	keystroke	Key.space	n/a
229.893	0.075	459786	keystroke	t	n/a
230.013	0.119	460026	keystroke	i	n/a
230.163	0.105	460326	keystroke	d	n/a
230.358	0.119	460716	keystroke	e	n/a
230.478	0.12	460956	keystroke	Key.space	n/a
230.599	0.133	461198	keystroke	h	n/a
230.703	0.149	461406	keystroke	i	n/a
230.822	0.076	461644	keystroke	d	n/a
231.018	0.09	462036	keystroke	e	n/a
231.093	0.104	462186	keystroke	Key.space	n/a
231.348	0.104	462696	keystroke	a	n/a
231.513	0.12	463026	keystroke	c	n/a
232.982	0.151	465964	keystroke	d	n/a
233.463	0.104	466926	keystroke	b	n/a
234.468	0.134	468936	keystroke	e	n/a
234.588	0.09	469176	keystroke	n	n/a
234.813	0.089	469626	keystroke	i	n/a
235.128	0.074	470256	keystroke	Key.backspace	n/a
235.233	0.105	470466	keystroke	t	n/a
235.308	0.105	470616	keystroke	i	n/a
235.473	0.149	470946	keystroke	l	n/a
236.192	0.076	472384	keystroke	Key.backspace	n/a
236.418	0.029	472836	keystroke	Key.backspace	n/a
236.462	0.105	472924	keystroke	Key.backspace	n/a
236.703	0.09	473406	keystroke	t	n/a
236.808	0.105	473616	keystroke	i	n/a
237.422	0.091	474844	keystroke	t	n/a
237.632	0.1055	475264	keystroke	y	n/a
237.8575	0.12	475715	keystroke	Key.enter	n/a
237.9855	10.4045	475971	prompt	n/a	edmonton rest began gone\n
238.6375	0.105	477275	keystroke	e	n/a
238.8475	0.105	477695	keystroke	d	n/a
239.1475	0.151	478295	keystroke	o	n/a
239.3725	0.105	478745	keystroke	n	n/a
239.8525	0.075	479705	keystroke	t	n/a
239.9125	0.12	479825	keystroke	o	n/a
239.9885	0.104	479977	keystroke	m	n/a
240.1075	0.105	480215	keystroke	Key.space	n/a
240.3325	0.09	480665	keystroke	r	n/a
240.6475	0.105	481295	keystroke	e	n/a
240.8125	0.09	481625	keystroke	s	n/a
241.0975	0.015	482195	keystroke	t	n/a
242.3125	0.09	484625	keystroke	Key.backspace	n/a
242.4775	0.06	484955	keystroke	Key.backspace	n/a
242.6125	0.06	485225	keystroke	Key.backspace	n/a
242.7325	0.09	485465	keystroke	Key.backspace	n/a
242.8825	0.075	485765	keystroke	Key.backspace	n/a
243.0175	0.09	486035	keystroke	Key.backspace	n/a
243.1675	0.075	486335	keystroke	Key.backspace	n/a
243.3175	0.06	486635	keystroke	Key.backspace	n/a
243.4375	0.09	486875	keystroke	Key.backspace	n/a
243.6025	0.09	487205	keystroke	Key.backspace	n/a
244.0385	0.089	488077	keystroke	m	n/a
244.2475	0.121	488495	keystroke	o	n/a
244.3695	0.088	488739	keystroke	n	n/a
244.5775	0.091	489155	keystroke	t	n/a
244.6375	0.15	489275	keystroke	o	n/a
244.7125	0.106	489425	keystroke	n	n/a
244.8025	0.12	489605	keystroke	Key.space	n/a
244.9825	0.105	489965	keystroke	r	n/a
245.1025	0.09	490205	keystroke	e	n/a
245.2385	0.119	490477	keystroke	s	n/a
245.4175	0.075	490835	keystroke	t	n/a
245.4935	0.104	490987	keystroke	Key.space	n/a
245.8235	0.09	491647	keystroke	e	n/a
246.0925	0.09	492185	keystroke	Key.backspace	n/a
246.1685	0.075	492337	keystroke	b	n/a
246.3175	0.135	492635	keystroke	e	n/a
246.6325	0.105	493265	keystroke	g	n/a
246.8135	0.12	493627	keystroke	a	n/a
246.9625	0.121	493925	keystroke	n	n/a
247.1275	0.0905	494255	keystroke	Key.space	n/a
247.322	0.106	494644	keystroke	g	n/a
247.413	0.15	494826	keystroke	o	n/a
247.488	0.135	494976	keystroke	n	n/a
247.577	0.106	495154	keystroke	e	n/a
248.2675	0.12	496535	keystroke	Key.enter	n/a
248.395	7.1045	496790	prompt	n/a	cancer severe categories bike\n
249.0625	0.135	498125	keystroke	c	n/a
249.2125	0.151	498425	keystroke	a	n/a
249.5125	0.076	499025	keystroke	c	n/a
249.6185	0.119	499237	keystroke	n	n/a
249.7225	0.12	499445	keystroke	e	n/a
249.8725	0.106	499745	keystroke	r	n/a
249.9925	0.106	499985	keystroke	Key.space	n/a
250.233	0.09	500466	keystroke	s	n/a
250.398	0.105	500796	keystroke	e	n/a
250.518	0.105	501036	keystroke	r	n/a
251.463	0.075	502926	keystroke	Key.backspace	n/a
251.597	0.1055	503194	keystroke	v	n/a
251.837	0.09	503674	keystroke	e	n/a
252.108	0.075	504216	keystroke	r	n/a
252.228	0.12	504456	keystroke	e	n/a
252.438	0.12	504876	keystroke	Key.space	n/a
252.618	0.135	505236	keystroke	c	n/a
252.783	0.1045	505566	keystroke	a	n/a
252.9775	0.09	505955	keystroke	t	n/a
253.1875	0.105	506375	keystroke	a	n/a
253.5625	0.105	507125	keystroke	Key.backspace	n/a
253.6525	0.09	507305	keystroke	e	n/a
253.863	0.09	507726	keystroke	g	n/a
253.968	0.105	507936	keystroke	o	n/a
254.118	0.075	508236	keystroke	r	n/a
254.238	0.105	508476	keystroke	i	n/a
254.313	0.09	508626	keystroke	e	n/a
254.508	0.105	509016	keystroke	s	n/a
254.598	0.105	509196	keystroke	Key.space	n/a
254.778	0.06	509556	keystroke	b	n/a
254.852	0.12	509704	keystroke	i	n/a
255.047	0.136	510094	keystroke	k	n/a
255.168	0.104	510336	keystroke	e	n/a
255.378	0.119	510756	keystroke	Key.enter	n/a
255.504	7.4655	511008	prompt	n/a	ruled revisions enlarge champions\n
256.1575	0.075	512315	keystroke	r	n/a
256.2625	0.09	512525	keystroke	u	n/a
256.4725	0.15	512945	keystroke	l	n/a
256.7725	0.075	513545	keystroke	e	n/a
256.9375	0.135	513875	keystroke	d	n/a
257.0575	0.105	514115	keystroke	Key.space	n/a
257.2975	0.075	514595	keystroke	r	n/a
257.5225	0.135	515045	keystroke	e	n/a
257.8675	0.09	515735	keystroke	v	n/a
258.0475	0.09	516095	keystroke	i	n/a
258.2125	0.1055	516425	keystroke	s	n/a
258.318	0.225	516636	keystroke	i	n/a
258.377	0.15	516754	keystroke	o	n/a
258.483	0.105	516966	keystroke	n	n/a
258.602	0.121	517204	keystroke	s	n/a
258.752	0.12	517504	keystroke	Key.space	n/a
258.962	0.076	517924	keystroke	e	n/a
259.188	0.089	518376	keystroke	n	n/a
259.533	0.15	519066	keystroke	l	n/a
259.667	0.076	519334	keystroke	a	n/a
259.818	0.09	519636	keystroke	r	n/a
260.028	0.074	520056	keystroke	g	n/a
260.4025	0.12	520805	keystroke	e	n/a
260.5975	0.12	521195	keystroke	Key.space	n/a
260.8525	0.135	521705	keystroke	c	n/a
261.0025	0.105	522005	keystroke	h	n/a
261.1225	0.1355	522245	keystroke	a	n/a
261.797	0.12	523594	keystroke	m	n/a
261.962	0.106	523924	keystroke	p	n/a
262.172	0.09	524344	keystroke	i	n/a
262.338	0.134	524676	keystroke	o	n/a
262.427	0.135	524854	keystroke	n	n/a
262.577	0.075	525154	keystroke	s	n/a
262.877	0.09	525754	keystroke	Key.enter	n/a
262.9745	5.3355	525949	prompt	n/a	aerial gulf role vanilla\n
263.583	0.134	527166	keystroke	a	n/a
264.1675	0.105	528335	keystroke	e	n/a
264.4525	0.075	528905	keystroke	r	n/a
264.5725	0.105	529145	keystroke	i	n/a
264.737	0.121	529474	keystroke	a	n/a
264.8425	0.105	529685	keystroke	l	n/a
264.9625	0.0895	529925	keystroke	Key.space	n/a
265.158	0.089	530316	keystroke	g	n/a
265.443	0.119	530886	keystroke	u	n/a
265.578	0.134	531156	keystroke	l	n/a
265.817	0.12	531634	keystroke	f	n/a
265.997	0.09	531994	keystroke	Key.space	n/a
266.252	0.06	532504	keystroke	r	n/a
266.298	0.104	532596	keystroke	o	n/a
266.463	0.134	532926	keystroke	l	n/a
266.567	0.12	533134	keystroke	e	n/a
266.657	0.105	533314	keystroke	Key.space	n/a
266.867	0.121	533734	keystroke	v	n/a
267.063	0.105	534126	keystroke	a	n/a
267.273	0.089	534546	keystroke	n	n/a
267.468	0.09	534936	keystroke	i	n/a
267.662	0.046	535324	keystroke	l	n/a
267.813	0.074	535626	keystroke	l	n/a
267.933	0.119	535866	keystroke	a	n/a
268.203	0.105	536406	keystroke	Key.enter	n/a
268.315	12.175	536630	prompt	n/a	toyota completing paypal tough\n
268.968	0.105	537936	keystroke	t	n/a
269.057	0.121	538114	keystroke	o	n/a
269.238	0.089	538476	keystroke	y	n/a
269.808	0.09	539616	keystroke	o	n/a
269.958	0.15	539916	keystroke	t	n/a
270.212	0.121	540424	keystroke	a	n/a
270.347	0.105	540694	keystroke	Key.space	n/a
270.543	0.119	541086	keystroke	c	n/a
270.647	0.211	541294	keystroke	o	n/a
270.797	0.18	541594	keystroke	m	n/a
270.947	0.151	541894	keystroke	p	n/a
271.233	0.09	542466	keystroke	l	n/a
271.427	0.15	542854	keystroke	e	n/a
271.668	0.09	543336	keystroke	t	n/a
272.118	0.179	544236	keystroke	i	n/a
272.223	0.12	544446	keystroke	n	n/a
272.358	0.135	544716	keystroke	g	n/a
272.552	0.135	545104	keystroke	Key.space	n/a
272.927	0.06	545854	keystroke	Key.backspace	n/a
273.077	0.06	546154	keystroke	Key.backspace	n/a
273.197	0.075	546394	keystroke	Key.backspace	n/a
273.348	0.09	546696	keystroke	Key.backspace	n/a
274.2775	0.1805	548555	keystroke	i	n/a
274.3675	0.1205	548735	keystroke	n	n/a
274.5025	0.1355	549005	keystroke	g	n/a
274.6225	0.12	549245	keystroke	Key.space	n/a
274.863	0.06	549726	keystroke	c	n/a
275.2975	0.075	550595	keystroke	Key.backspace	n/a
275.5375	0.09	551075	keystroke	p	n/a
275.6125	0.09	551225	keystroke	a	n/a
275.7775	0.12	551555	keystroke	y	n/a
276.1525	0.12	552305	keystroke	a	n/a
276.4225	0.09	552845	keystroke	Key.backspace	n/a
277.0685	0.089	554137	keystroke	p	n/a
277.2025	0.12	554405	keystroke	a	n/a
277.3075	0.105	554615	keystroke	l	n/a
277.563	0.12	555126	keystroke	Key.space	n/a
278.913	0.0895	557826	keystroke	t	n/a
279.0625	0.06	558125	keystroke	h	n/a
279.4375	0.075	558875	keystroke	Key.backspace	n/a
279.6175	0.105	559235	keystroke	o	n/a
279.7675	0.075	559535	keystroke	u	n/a
279.9025	0.105	559805	keystroke	g	n/a
279.9775	0.135	559955	keystroke	h	n/a
280.3825	0.105	560765	keystroke	Key.enter	n/a
280.496	9.3235	560992	prompt	n/a	raise indianapolis ebooks trading\n
281.0575	0.09	562115	keystroke	r	n/a
281.207	0.106	562414	keystroke	i	n/a
281.522	0.045	563044	keystroke	Key.backspace	n/a
281.597	0.1205	563194	keystroke	a	n/a
281.718	0.1045	563436	keystroke	i	n/a
281.7925	0.1045	563585	keystroke	s	n/a
282.017	0.091	564034	keystroke	e	n/a
282.333	0.104	564666	keystroke	Key.space	n/a
282.528	0.135	565056	keystroke	i	n/a
282.633	0.075	565266	keystroke	n	n/a
282.933	0.15	565866	keystroke	d	n/a
283.067	0.121	566134	keystroke	i	n/a
283.189	0.119	566378	keystroke	a	n/a
283.293	0.119	566586	keystroke	n	n/a
283.473	0.105	566946	keystroke	a	n/a
283.847	0.091	567694	keystroke	o	n/a
284.222	0.075	568444	keystroke	Key.backspace	n/a
284.463	0.105	568926	keystroke	p	n/a
284.627	0.136	569254	keystroke	o	n/a
285.138	0.09	570276	keystroke	l	n/a
285.183	0.15	570366	keystroke	i	n/a
285.648	0.105	571296	keystroke	e	n/a
286.008	0.075	572016	keystroke	Key.backspace	n/a
286.113	0.134	572226	keystroke	s	n/a
286.338	0.075	572676	keystroke	Key.space	n/a
286.488	0.105	572976	keystroke	e	n/a
286.847	0.075	573694	keystroke	b	n/a
286.938	0.075	573876	keystroke	o	n/a
287.073	0.12	574146	keystroke	o	n/a
287.133	0.119	574266	keystroke	k	n/a
287.298	0.12	574596	keystroke	s	n/a
287.613	0.105	575226	keystroke	Key.space	n/a
287.988	0.075	575976	keystroke	t	n/a
288.468	0.075	576936	keystroke	r	n/a
288.648	0.12	577296	keystroke	a	n/a
288.828	0.12	577656	keystroke	d	n/a
289.008	0.195	578016	keystroke	i	n/a
289.128	0.105	578256	keystroke	n	n/a
289.188	0.105	578376	keystroke	g	n/a
289.698	0.12	579396	keystroke	Key.enter	n/a
289.8255	6.939	579651	prompt	n/a	faith planners changes attack\n
290.418	0.1045	580836	keystroke	f	n/a
290.5975	0.135	581195	keystroke	a	n/a
290.7625	0.105	581525	keystroke	i	n/a
290.8975	0.105	581795	keystroke	t	n/a
291.0475	0.105	582095	keystroke	h	n/a
291.2275	0.105	582455	keystroke	Key.space	n/a
291.4375	0.105	582875	keystroke	p	n/a
291.5875	0.135	583175	keystroke	a	n/a
292.0675	0.045	584135	keystroke	Key.backspace	n/a
292.2475	0.075	584495	keystroke	l	n/a
292.3825	0.105	584765	keystroke	a	n/a
292.4575	0.075	584915	keystroke	n	n/a
292.5925	0.105	585185	keystroke	n	n/a
292.8775	0.105	585755	keystroke	e	n/a
293.0575	0.075	586115	keystroke	r	n/a
293.2375	0.135	586475	keystroke	s	n/a
293.3725	0.105	586745	keystroke	Key.space	n/a
293.5385	0.1335	587077	keystroke	c	n/a
293.703	0.104	587406	keystroke	h	n/a
293.777	0.12	587554	keystroke	a	n/a
294.797	0.09	589594	keystroke	n	n/a
294.9475	0.105	589895	keystroke	g	n/a
295.0975	0.09	590195	keystroke	e	n/a
295.2925	0.105	590585	keystroke	s	n/a
295.3825	0.105	590765	keystroke	Key.space	n/a
295.6975	0.09	591395	keystroke	a	n/a
295.8775	0.06	591755	keystroke	t	n/a
296.0125	0.075	592025	keystroke	t	n/a
296.2075	0.06	592415	keystroke	a	n/a
296.3275	0.105	592655	keystroke	c	n/a
296.4475	0.105	592895	keystroke	k	n/a
296.6575	0.105	593315	keystroke	Key.enter	n/a
296.7725	6.172	593545	prompt	n/a	robbie milton vacuum brothers\n
297.4225	0.075	594845	keystroke	r	n/a
297.5125	0.09	595025	keystroke	o	n/a
297.6475	0.075	595295	keystroke	b	n/a
297.8275	0.075	595655	keystroke	b	n/a
297.903	0.0895	595806	keystroke	i	n/a
298.0225	0.15	596045	keystroke	e	n/a
298.1575	0.1045	596315	keystroke	Key.space	n/a
298.412	0.105	596824	keystroke	m	n/a
298.562	0.105	597124	keystroke	i	n/a
298.727	0.12	597454	keystroke	l	n/a
299.132	0.09	598264	keystroke	t	n/a
299.207	0.12	598414	keystroke	o	n/a
299.283	0.074	598566	keystroke	n	n/a
299.387	0.105	598774	keystroke	Key.space	n/a
299.687	0.09	599374	keystroke	v	n/a
299.8225	0.09	599645	keystroke	a	n/a
300.0025	0.09	600005	keystroke	c	n/a
300.2575	0.105	600515	keystroke	c	n/a
300.5575	0.075	601115	keystroke	Key.backspace	n/a
300.7375	0.075	601475	keystroke	u	n/a
300.9025	0.06	601805	keystroke	u	n/a
301.1125	0.105	602225	keystroke	m	n/a
301.3975	0.105	602795	keystroke	Key.space	n/a
301.6675	0.075	603335	keystroke	b	n/a
301.893	0.074	603786	keystroke	r	n/a
302.012	0.106	604024	keystroke	o	n/a
302.177	0.09	604354	keystroke	t	n/a
302.313	0.075	604626	keystroke	h	n/a
302.372	0.106	604744	keystroke	e	n/a
302.463	0.09	604926	keystroke	r	n/a
302.658	0.134	605316	keystroke	s	n/a
302.822	0.12	605644	keystroke	Key.enter	n/a
302.9505	10.659	605901	prompt	n/a	shade forum illustrations taxes\n
303.4675	0.075	606935	keystroke	s	n/a
303.6025	0.105	607205	keystroke	a	n/a
303.7225	0.075	607445	keystroke	d	n/a
303.9025	0.09	607805	keystroke	e	n/a
303.9775	0.135	607955	keystroke	Key.space	n/a
304.1275	0.105	608255	keystroke	f	n/a
304.292	0.1205	608584	keystroke	o	n/a
304.562	0.105	609124	keystroke	r	n/a
304.9675	0.0895	609935	keystroke	u	n/a
305.177	0.09	610354	keystroke	m	n/a
306.167	0.06	612334	keystroke	Key.backspace	n/a
306.302	0.075	612604	keystroke	Key.backspace	n/a
306.437	0.09	612874	keystroke	Key.backspace	n/a
306.557	0.09	613114	keystroke	Key.backspace	n/a
306.737	0.06	613474	keystroke	Key.backspace	n/a
306.857	0.06	613714	keystroke	Key.backspace	n/a
306.992	0.06	613984	keystroke	Key.backspace	n/a
307.142	0.06	614284	keystroke	Key.backspace	n/a
307.277	0.06	614554	keystroke	Key.backspace	n/a
307.472	0.09	614944	keystroke	h	n/a
307.577	0.135	615154	keystroke	a	n/a
307.652	0.1505	615304	keystroke	d	n/a
307.9075	0.12	615815	keystroke	e	n/a
308.0875	0.1345	616175	keystroke	Key.space	n/a
308.252	0.135	616504	keystroke	f	n/a
308.477	0.135	616954	keystroke	o	n/a
308.777	0.136	617554	keystroke	r	n/a
308.927	0.075	617854	keystroke	u	n/a
309.1525	0.075	618305	keystroke	m	n/a
309.3475	0.135	618695	keystroke	Key.space	n/a
309.6775	0.09	619355	keystroke	i	n/a
309.8425	0.075	619685	keystroke	l	n/a
310.0075	0.105	620015	keystroke	l	n/a
310.2475	0.105	620495	keystroke	u	n/a
310.472	0.09	620944	keystroke	s	n/a
310.713	0.074	621426	keystroke	t	n/a
310.878	0.089	621756	keystroke	r	n/a
311.102	0.12	622204	keystroke	a	n/a
311.327	0.075	622654	keystroke	t	n/a
311.372	0.255	622744	keystroke	i	n/a
311.447	0.135	622894	keystroke	o	n/a
311.537	0.12	623074	keystroke	n	n/a
311.672	0.12	623344	keystroke	s	n/a
311.822	0.12	623644	keystroke	Key.space	n/a
312.332	0.09	624664	keystroke	t	n/a
312.527	0.12	625054	keystroke	a	n/a
312.797	0.09	625594	keystroke	x	n/a
312.977	0.075	625954	keystroke	e	n/a
313.127	0.105	626254	keystroke	s	n/a
313.487	0.1205	626974	keystroke	Key.enter	n/a
313.614	12.911	627228	prompt	n/a	math estimation coordinated imagine\n
314.2075	0.105	628415	keystroke	m	n/a
314.3275	0.09	628655	keystroke	a	n/a
314.5075	0.12	629015	keystroke	t	n/a
314.6575	0.045	629315	keystroke	h	n/a
314.8675	0.105	629735	keystroke	Key.space	n/a
315.1225	0.09	630245	keystroke	e	n/a
315.3185	0.119	630637	keystroke	s	n/a
315.7225	0.075	631445	keystroke	t	n/a
315.8575	0.09	631715	keystroke	i	n/a
315.9625	0.135	631925	keystroke	m	n/a
316.697	0.105	633394	keystroke	a	n/a
316.922	0.09	633844	keystroke	t	n/a
316.967	0.24	633934	keystroke	i	n/a
317.027	0.195	634054	keystroke	o	n/a
317.117	0.15	634234	keystroke	n	n/a
317.402	0.12	634804	keystroke	Key.space	n/a
318.212	0.135	636424	keystroke	c	n/a
318.332	0.105	636664	keystroke	o	n/a
318.452	0.06	636904	keystroke	r	n/a
318.617	0.075	637234	keystroke	r	n/a
318.872	0.105	637744	keystroke	d	n/a
319.652	0.06	639304	keystroke	Key.backspace	n/a
319.802	0.03	639604	keystroke	Key.backspace	n/a
319.908	0.075	639816	keystroke	Key.backspace	n/a
320.118	0.104	640236	keystroke	o	n/a
320.2825	0.105	640565	keystroke	r	n/a
320.643	0.104	641286	keystroke	d	n/a
320.867	0.1205	641734	keystroke	i	n/a
321.1975	0.105	642395	keystroke	n	n/a
321.3175	0.12	642635	keystroke	a	n/a
321.5415	0.061	643083	keystroke	t	n/a
321.5875	0.24	643175	keystroke	i	n/a
321.6925	0.119	643385	keystroke	o	n/a
321.7675	0.0745	643535	keystroke	n	n/a
322.1865	0.075	644373	keystroke	Key.backspace	n/a
322.3065	0.105	644613	keystroke	Key.backspace	n/a
322.4575	0.075	644915	keystroke	Key.backspace	n/a
323.8225	0.075	647645	keystroke	e	n/a
324.0025	0.105	648005	keystroke	d	n/a
324.4675	0.09	648935	keystroke	Key.space	n/a
324.6775	0.135	649355	keystroke	i	n/a
324.9775	0.09	649955	keystroke	m	n/a
325.1725	0.1055	650345	keystroke	a	n/a
325.382	0.076	650764	keystroke	g	n/a
325.892	0.166	651784	keystroke	i	n/a
325.997	0.106	651994	keystroke	n	n/a
326.162	0.121	652324	keystroke	e	n/a
326.402	0.12	652804	keystroke	Key.enter	n/a
326.53	8.02	653060	prompt	n/a	defendant shipping ordering magic\n
327.078	0.059	654156	keystroke	d	n/a
327.242	0.076	654484	keystroke	e	n/a
327.363	0.134	654726	keystroke	f	n/a
327.483	0.12	654966	keystroke	e	n/a
327.7665	0.12	655533	keystroke	n	n/a
327.9615	0.091	655923	keystroke	d	n/a
328.3975	0.09	656795	keystroke	a	n/a
328.5025	0.089	657005	keystroke	n	n/a
328.6365	0.091	657273	keystroke	t	n/a
328.8775	0.074	657755	keystroke	Key.space	n/a
329.2215	0.091	658443	keystroke	s	n/a
329.342	0.1655	658684	keystroke	h	n/a
329.4325	0.12	658865	keystroke	i	n/a
329.6275	0.0895	659255	keystroke	p	n/a
329.8075	0.075	659615	keystroke	p	n/a
329.9275	0.18	659855	keystroke	i	n/a
330.0315	0.105	660063	keystroke	n	n/a
330.1525	0.134	660305	keystroke	g	n/a
330.3015	0.105	660603	keystroke	Key.space	n/a
330.5875	0.12	661175	keystroke	o	n/a
330.8415	0.091	661683	keystroke	r	n/a
331.1275	0.059	662255	keystroke	d	n/a
331.2625	0.1355	662525	keystroke	e	n/a
331.338	0.12	662676	keystroke	r	n/a
331.442	0.136	662884	keystroke	i	n/a
331.517	0.1055	663034	keystroke	n	n/a
331.608	0.1195	663216	keystroke	g	n/a
331.7415	0.09	663483	keystroke	Key.space	n/a
332.3125	0.104	664625	keystroke	m	n/a
332.4625	0.104	664925	keystroke	a	n/a
332.6275	0.134	665255	keystroke	j	n/a
332.8525	0.105	665705	keystroke	g	n/a
333.1665	0.045	666333	keystroke	Key.backspace	n/a
333.3015	0.076	666603	keystroke	Key.backspace	n/a
333.3925	0.074	666785	keystroke	g	n/a
333.4975	0.105	666995	keystroke	i	n/a
333.6175	0.119	667235	keystroke	c	n/a
334.4125	0.1345	668825	keystroke	Key.enter	n/a
334.5555	9.699	669111	prompt	n/a	adidas agent beautifully zealand\n
335.177	0.135	670354	keystroke	a	n/a
335.328	0.0895	670656	keystroke	d	n/a
335.522	0.075	671044	keystroke	d	n/a
335.987	0.075	671974	keystroke	Key.backspace	n/a
336.212	0.09	672424	keystroke	i	n/a
336.512	0.12	673024	keystroke	d	n/a
336.647	0.15	673294	keystroke	a	n/a
336.767	0.09	673534	keystroke	s	n/a
336.947	0.12	673894	keystroke	Key.space	n/a
337.142	0.12	674284	keystroke	a	n/a
337.442	0.075	674884	keystroke	g	n/a
337.787	0.105	675574	keystroke	e	n/a
337.907	0.105	675814	keystroke	n	n/a
338.042	0.09	676084	keystroke	t	n/a
338.162	0.12	676324	keystroke	Key.space	n/a
338.477	0.09	676954	keystroke	b	n/a
339.017	0.09	678034	keystroke	e	n/a
339.212	0.12	678424	keystroke	a	n/a
339.392	0.09	678784	keystroke	u	n/a
339.572	0.105	679144	keystroke	t	n/a
339.707	0.105	679414	keystroke	i	n/a
340.052	0.135	680104	keystroke	f	n/a
340.262	0.06	680524	keystroke	u	n/a
340.742	0.075	681484	keystroke	Key.backspace	n/a
341.7025	0.09	683405	keystroke	u	n/a
341.8675	0.075	683735	keystroke	l	n/a
342.0175	0.135	684035	keystroke	l	n/a
342.1675	0.105	684335	keystroke	y	n/a
342.3175	0.1345	684635	keystroke	Key.space	n/a
342.632	0.105	685264	keystroke	z	n/a
342.842	0.09	685684	keystroke	e	n/a
343.007	0.105	686014	keystroke	a	n/a
343.187	0.18	686374	keystroke	l	n/a
343.457	0.105	686914	keystroke	a	n/a
343.682	0.12	687364	keystroke	n	n/a
343.772	0.12	687544	keystroke	d	n/a
344.147	0.105	688294	keystroke	Key.enter	n/a
344.259	8.216	688518	prompt	n/a	launch size transmitted window\n
344.808	0.089	689616	keystroke	l	n/a
344.958	0.15	689916	keystroke	a	n/a
345.108	0.089	690216	keystroke	u	n/a
345.227	0.12	690454	keystroke	c	n/a
345.3925	0.135	690785	keystroke	n	n/a
346.2175	0.045	692435	keystroke	Key.backspace	n/a
346.3375	0.15	692675	keystroke	Key.backspace	n/a
346.7425	0.045	693485	keystroke	n	n/a
346.8475	0.09	693695	keystroke	c	n/a
346.9525	0.15	693905	keystroke	h	n/a
347.1625	0.135	694325	keystroke	Key.space	n/a
347.4925	0.105	694985	keystroke	s	n/a
347.6275	0.12	695255	keystroke	i	n/a
347.7775	0.09	695555	keystroke	z	n/a
348.0025	0.105	696005	keystroke	e	n/a
348.1675	0.09	696335	keystroke	Key.space	n/a
348.3925	0.09	696785	keystroke	t	n/a
348.6325	0.075	697265	keystroke	r	n/a
348.8125	0.12	697625	keystroke	a	n/a
348.9475	0.06	697895	keystroke	n	n/a
349.0225	0.09	698045	keystroke	s	n/a
349.3675	0.105	698735	keystroke	m	n/a
349.4875	0.12	698975	keystroke	i	n/a
349.6525	0.075	699305	keystroke	t	n/a
349.8025	0.075	699605	keystroke	t	n/a
349.9825	0.12	699965	keystroke	e	n/a
350.1925	0.12	700385	keystroke	d	n/a
350.3725	0.105	700745	keystroke	Key.space	n/a
350.8525	0.03	701705	keystroke	s	n/a
351.1525	0.06	702305	keystroke	Key.backspace	n/a
351.2575	0.075	702515	keystroke	w	n/a
351.3475	0.105	702695	keystroke	i	n/a
351.4075	0.12	702815	keystroke	n	n/a
351.5125	0.09	703025	keystroke	d	n/a
351.7375	0.135	703475	keystroke	o	n/a
351.7525	0.105	703505	keystroke	w	n/a
352.352	0.12	704704	keystroke	Key.enter	n/a
352.479	10.7505	704958	prompt	n/a	usual modify butler instrumental\n
353.087	0.061	706174	keystroke	u	n/a
353.192	0.06	706384	keystroke	s	n/a
353.298	0.104	706596	keystroke	i	n/a
353.448	0.104	706896	keystroke	a	n/a
353.612	0.06	707224	keystroke	Key.backspace	n/a
353.748	0.089	707496	keystroke	Key.backspace	n/a
353.928	0.105	707856	keystroke	u	n/a
354.123	0.105	708246	keystroke	a	n/a
354.212	0.061	708424	keystroke	l	n/a
354.723	0.09	709446	keystroke	y	n/a
355.097	0.075	710194	keystroke	Key.backspace	n/a
355.397	0.12	710794	keystroke	Key.space	n/a
356.073	0.135	712146	keystroke	m	n/a
356.417	0.09	712834	keystroke	o	n/a
356.642	0.135	713284	keystroke	d	n/a
356.792	0.106	713584	keystroke	i	n/a
357.032	0.091	714064	keystroke	f	n/a
357.347	0.135	714694	keystroke	y	n/a
357.587	0.06	715174	keystroke	Key.space	n/a
357.752	0.105	715504	keystroke	b	n/a
357.918	0.105	715836	keystroke	u	n/a
358.068	0.134	716136	keystroke	t	n/a
358.833	0.12	717666	keystroke	l	n/a
358.938	0.104	717876	keystroke	e	n/a
359.162	0.105	718324	keystroke	r	n/a
359.808	0.09	719616	keystroke	Key.space	n/a
359.958	0.12	719916	keystroke	i	n/a
360.062	0.075	720124	keystroke	n	n/a
360.182	0.105	720364	keystroke	s	n/a
360.617	0.09	721234	keystroke	t	n/a
360.827	0.09	721654	keystroke	r	n/a
361.232	0.09	722464	keystroke	u	n/a
361.487	0.075	722974	keystroke	m	n/a
361.622	0.12	723244	keystroke	e	n/a
361.727	0.09	723454	keystroke	n	n/a
361.833	0.074	723666	keystroke	t	n/a
362.057	0.076	724114	keystroke	a	n/a
362.9125	0.075	725825	keystroke	l	n/a
363.1375	0.09	726275	keystroke	Key.enter	n/a
363.2355	8.454	726471	prompt	n/a	reverse existing markets ecological\n
363.8725	0.105	727745	keystroke	r	n/a
363.9925	0.15	727985	keystroke	e	n/a
364.2475	0.075	728495	keystroke	v	n/a
364.3675	0.105	728735	keystroke	e	n/a
364.4575	0.075	728915	keystroke	r	n/a
364.6675	0.12	729335	keystroke	s	n/a
364.9525	0.12	729905	keystroke	e	n/a
365.1025	0.09	730205	keystroke	Key.space	n/a
365.3575	0.075	730715	keystroke	e	n/a
365.5525	0.12	731105	keystroke	x	n/a
365.8675	0.12	731735	keystroke	i	n/a
366.2125	0.105	732425	keystroke	s	n/a
366.4225	0.12	732845	keystroke	t	n/a
366.6025	0.12	733205	keystroke	i	n/a
366.8725	0.09	733745	keystroke	n	n/a
366.9925	0.0905	733985	keystroke	g	n/a
367.097	0.105	734194	keystroke	Key.space	n/a
367.337	0.12	734674	keystroke	m	n/a
367.8775	0.105	735755	keystroke	a	n/a
368.0725	0.105	736145	keystroke	r	n/a
368.2825	0.12	736565	keystroke	k	n/a
368.4165	0.1205	736833	keystroke	e	n/a
368.612	0.105	737224	keystroke	t	n/a
368.852	0.09	737704	keystroke	Key.space	n/a
369.032	0.09	738064	keystroke	e	n/a
369.257	0.075	738514	keystroke	x	n/a
369.7375	0.105	739475	keystroke	Key.backspace	n/a
369.8575	0.12	739715	keystroke	c	n/a
370.098	0.119	740196	keystroke	o	n/a
370.352	0.121	740704	keystroke	l	n/a
370.577	0.12	741154	keystroke	o	n/a
370.757	0.105	741514	keystroke	g	n/a
370.937	0.135	741874	keystroke	i	n/a
371.087	0.136	742174	keystroke	c	n/a
371.237	0.135	742474	keystroke	a	n/a
371.327	0.12	742654	keystroke	l	n/a
371.567	0.12	743134	keystroke	Key.enter	n/a
371.7	10.564	743400	prompt	n/a	naturals reaching delicious china\n
372.212	0.091	744424	keystroke	n	n/a
372.377	0.135	744754	keystroke	a	n/a
372.602	0.121	745204	keystroke	u	n/a
373.382	0.075	746764	keystroke	Key.backspace	n/a
373.562	0.09	747124	keystroke	t	n/a
373.653	0.119	747306	keystroke	u	n/a
373.787	0.075	747574	keystroke	r	n/a
373.983	0.134	747966	keystroke	a	n/a
374.102	0.121	748204	keystroke	l	n/a
374.223	0.135	748446	keystroke	s	n/a
374.672	0.075	749344	keystroke	Key.space	n/a
374.898	0.104	749796	keystroke	r	n/a
375.032	0.105	750064	keystroke	e	n/a
375.257	0.105	750514	keystroke	a	n/a
375.422	0.12	750844	keystroke	s	n/a
375.737	0.06	751474	keystroke	Key.backspace	n/a
375.827	0.105	751654	keystroke	c	n/a
375.917	0.105	751834	keystroke	h	n/a
375.9775	0.2095	751955	keystroke	i	n/a
376.127	0.09	752254	keystroke	n	n/a
376.262	0.12	752524	keystroke	g	n/a
376.562	0.12	753124	keystroke	Key.space	n/a
376.817	0.075	753634	keystroke	d	n/a
376.997	0.09	753994	keystroke	e	n/a
377.117	0.165	754234	keystroke	l	n/a
377.207	0.12	754414	keystroke	i	n/a
377.297	0.09	754594	keystroke	e	n/a
377.702	0.075	755404	keystroke	c	n/a
377.792	0.075	755584	keystroke	Key.backspace	n/a
378.107	0.045	756214	keystroke	Key.backspace	n/a
378.242	0.09	756484	keystroke	c	n/a
378.317	0.135	756634	keystroke	i	n/a
378.482	0.18	756964	keystroke	o	n/a
378.602	0.135	757204	keystroke	u	n/a
379.022	0.12	758044	keystroke	Key.space	n/a
379.232	0.135	758464	keystroke	c	n/a
379.412	0.18	758824	keystroke	i	n/a
379.5625	0.1195	759125	keystroke	n	n/a
379.967	0.06	759934	keystroke	Key.backspace	n/a
380.102	0.075	760204	keystroke	Key.backspace	n/a
380.237	0.09	760474	keystroke	Key.backspace	n/a
380.372	0.09	760744	keystroke	Key.backspace	n/a
380.492	0.075	760984	keystroke	s	n/a
380.762	0.015	761524	keystroke	c	n/a
381.077	0.075	762154	keystroke	Key.backspace	n/a
381.182	0.12	762364	keystroke	Key.space	n/a
381.242	0.12	762484	keystroke	c	n/a
381.422	0.135	762844	keystroke	h	n/a
381.527	0.121	763054	keystroke	i	n/a
381.9175	0.0905	763835	keystroke	n	n/a
382.0525	0.1345	764105	keystroke	a	n/a
382.172	0.09	764344	keystroke	Key.enter	n/a
382.271	5.499	764542	prompt	n/a	down remain taxi league\n
382.757	0.12	765514	keystroke	d	n/a
382.892	0.12	765784	keystroke	o	n/a
383.027	0.09	766054	keystroke	w	n/a
383.132	0.09	766264	keystroke	n	n/a
383.342	0.09	766684	keystroke	Key.space	n/a
383.597	0.09	767194	keystroke	r	n/a
383.702	0.09	767404	keystroke	e	n/a
384.1225	0.12	768245	keystroke	m	n/a
384.2875	0.12	768575	keystroke	a	n/a
384.3625	0.15	768725	keystroke	i	n/a
384.4375	0.105	768875	keystroke	n	n/a
384.6775	0.09	769355	keystroke	Key.space	n/a
385.2025	0.105	770405	keystroke	t	n/a
385.3975	0.135	770795	keystroke	a	n/a
385.667	0.105	771334	keystroke	x	n/a
385.878	0.1195	771756	keystroke	i	n/a
386.0125	0.105	772025	keystroke	Key.space	n/a
386.2675	0.15	772535	keystroke	l	n/a
386.4475	0.12	772895	keystroke	e	n/a
386.6125	0.12	773225	keystroke	a	n/a
386.8375	0.15	773675	keystroke	u	n/a
387.2125	0.075	774425	keystroke	Key.backspace	n/a
387.3175	0.09	774635	keystroke	g	n/a
387.3925	0.135	774785	keystroke	u	n/a
387.5125	0.105	775025	keystroke	e	n/a
387.6475	0.12	775295	keystroke	Key.enter	n/a
387.775	8.559	775550	prompt	n/a	missions flight engine will\n
388.3525	0.105	776705	keystroke	m	n/a
388.4875	0.105	776975	keystroke	i	n/a
388.6075	0.075	777215	keystroke	s	n/a
388.7575	0.105	777515	keystroke	s	n/a
388.8475	0.24	777695	keystroke	i	n/a
388.9375	0.135	777875	keystroke	o	n/a
389.0125	0.12	778025	keystroke	n	n/a
389.2375	0.12	778475	keystroke	s	n/a
389.3725	0.105	778745	keystroke	Key.space	n/a
389.5675	0.075	779135	keystroke	f	n/a
389.6725	0.195	779345	keystroke	l	n/a
389.8375	0.135	779675	keystroke	i	n/a
390.0925	0.075	780185	keystroke	g	n/a
390.1525	0.12	780305	keystroke	h	n/a
390.2735	0.104	780547	keystroke	t	n/a
390.4375	0.0895	780875	keystroke	Key.space	n/a
390.632	0.105	781264	keystroke	e	n/a
390.752	0.09	781504	keystroke	n	n/a
390.977	0.075	781954	keystroke	j	n/a
391.142	0.18	782284	keystroke	i	n/a
391.232	0.12	782464	keystroke	n	n/a
391.802	0.135	783604	keystroke	e	n/a
391.907	0.12	783814	keystroke	Key.space	n/a
392.177	0.09	784354	keystroke	Key.backspace	n/a
392.297	0.09	784594	keystroke	Key.backspace	n/a
392.447	0.09	784894	keystroke	Key.backspace	n/a
392.612	0.045	785224	keystroke	Key.backspace	n/a
392.747	0.075	785494	keystroke	Key.backspace	n/a
393.662	0.075	787324	keystroke	n	n/a
393.767	0.09	787534	keystroke	g	n/a
393.932	0.06	787864	keystroke	Key.backspace	n/a
394.082	0.06	788164	keystroke	Key.backspace	n/a
394.172	0.15	788344	keystroke	g	n/a
394.307	0.135	788614	keystroke	i	n/a
394.382	0.12	788764	keystroke	n	n/a
395.162	0.12	790324	keystroke	e	n/a
395.297	0.105	790594	keystroke	Key.space	n/a
395.417	0.105	790834	keystroke	w	n/a
395.507	0.075	791014	keystroke	i	n/a
395.657	0.0455	791314	keystroke	l	n/a
395.777	0.105	791554	keystroke	l	n/a
396.242	0.09	792484	keystroke	Key.enter	n/a
396.3425	8.302	792685	prompt	n/a	infant proud propose legendary\n
396.9325	0.135	793865	keystroke	i	n/a
397.0525	0.09	794105	keystroke	n	n/a
397.2175	0.12	794435	keystroke	f	n/a
397.3825	0.12	794765	keystroke	a	n/a
397.862	0.09	795724	keystroke	n	n/a
397.967	0.105	795934	keystroke	t	n/a
398.147	0.135	796294	keystroke	Key.space	n/a
398.703	0.09	797406	keystroke	p	n/a
398.868	0.105	797736	keystroke	r	n/a
398.987	0.0745	797974	keystroke	o	n/a
399.138	0.09	798276	keystroke	u	n/a
399.2575	0.12	798515	keystroke	d	n/a
399.3925	0.105	798785	keystroke	Key.space	n/a
399.5725	0.09	799145	keystroke	p	n/a
399.7375	0.12	799475	keystroke	r	n/a
399.9625	0.105	799925	keystroke	o	n/a
400.1575	0.075	800315	keystroke	s	n/a
400.3975	0.075	800795	keystroke	Key.backspace	n/a
400.6075	0.135	801215	keystroke	p	n/a
400.8925	0.135	801785	keystroke	o	n/a
401.0125	0.09	802025	keystroke	s	n/a
401.2075	0.12	802415	keystroke	e	n/a
401.4325	0.12	802865	keystroke	Key.space	n/a
401.7175	0.15	803435	keystroke	k	n/a
402.0775	0.075	804155	keystroke	Key.backspace	n/a
402.2875	0.105	804575	keystroke	l	n/a
402.4075	0.075	804815	keystroke	e	n/a
402.5725	0.105	805145	keystroke	g	n/a
402.752	0.12	805504	keystroke	i	n/a
403.142	0.09	806284	keystroke	Key.backspace	n/a
403.277	0.105	806554	keystroke	e	n/a
403.367	0.09	806734	keystroke	n	n/a
403.532	0.135	807064	keystroke	d	n/a
403.877	0.105	807754	keystroke	a	n/a
404.042	0.135	808084	keystroke	r	n/a
404.282	0.12	808564	keystroke	y	n/a
404.507	0.135	809014	keystroke	Key.enter	n/a
404.6505	6.324	809301	prompt	n/a	ranked plant harbor conduct\n
405.242	0.03	810484	keystroke	r	n/a
405.392	0.105	810784	keystroke	a	n/a
405.437	0.15	810874	keystroke	n	n/a
405.498	0.134	810996	keystroke	k	n/a
405.602	0.075	811204	keystroke	e	n/a
405.797	0.09	811594	keystroke	d	n/a
405.872	0.12	811744	keystroke	Key.space	n/a
406.4875	0.105	812975	keystroke	p	n/a
406.6825	0.15	813365	keystroke	l	n/a
406.7875	0.12	813575	keystroke	a	n/a
406.9525	0.09	813905	keystroke	n	n/a
407.162	0.1055	814324	keystroke	t	n/a
407.4025	0.09	814805	keystroke	Key.space	n/a
407.6875	0.105	815375	keystroke	h	n/a
407.7625	0.105	815525	keystroke	a	n/a
407.9275	0.075	815855	keystroke	r	n/a
408.1225	0.09	816245	keystroke	b	n/a
408.2575	0.165	816515	keystroke	o	n/a
409.0375	0.105	818075	keystroke	r	n/a
409.1125	0.135	818225	keystroke	Key.space	n/a
409.4275	0.12	818855	keystroke	c	n/a
409.5325	0.12	819065	keystroke	o	n/a
409.6075	0.105	819215	keystroke	n	n/a
409.8475	0.09	819695	keystroke	d	n/a
409.9975	0.09	819995	keystroke	u	n/a
410.1025	0.09	820205	keystroke	c	n/a
410.6875	0.105	821375	keystroke	t	n/a
410.8675	0.105	821735	keystroke	Key.enter	n/a
410.9785	7.825	821957	prompt	n/a	approximate greeting camping mood\n
411.7225	0.135	823445	keystroke	a	n/a
411.9175	0.09	823835	keystroke	p	n/a
412.1125	0.075	824225	keystroke	p	n/a
412.3075	0.105	824615	keystroke	r	n/a
412.4275	0.12	824855	keystroke	o	n/a
412.6975	0.09	825395	keystroke	x	n/a
412.8475	0.105	825695	keystroke	i	n/a
413.0875	0.09	826175	keystroke	m	n/a
413.5375	0.089	827075	keystroke	a	n/a
413.7025	0.105	827405	keystroke	t	n/a
413.8675	0.119	827735	keystroke	e	n/a
414.0015	0.105	828003	keystroke	Key.space	n/a
414.2115	0.076	828423	keystroke	g	n/a
414.4075	0.09	828815	keystroke	r	n/a
414.8875	0.119	829775	keystroke	e	n/a
415.1275	0.105	830255	keystroke	e	n/a
415.3365	0.061	830673	keystroke	t	n/a
415.4125	0.12	830825	keystroke	i	n/a
415.4865	0.121	830973	keystroke	n	n/a
415.5925	0.104	831185	keystroke	g	n/a
415.7115	0.106	831423	keystroke	Key.space	n/a
415.9225	0.075	831845	keystroke	e	n/a
416.1475	0.075	832295	keystroke	Key.backspace	n/a
416.2075	0.135	832415	keystroke	c	n/a
416.3275	0.134	832655	keystroke	a	n/a
416.4475	0.105	832895	keystroke	p	n/a
416.7475	0.059	833495	keystroke	Key.backspace	n/a
416.8975	0.105	833795	keystroke	m	n/a
417.0175	0.105	834035	keystroke	p	n/a
417.1365	0.196	834273	keystroke	i	n/a
417.2275	0.12	834455	keystroke	n	n/a
417.3625	0.12	834725	keystroke	g	n/a
417.4825	0.09	834965	keystroke	Key.space	n/a
417.993	0.089	835986	keystroke	m	n/a
418.232	0.075	836464	keystroke	o	n/a
418.412	0.075	836824	keystroke	o	n/a
418.457	0.105	836914	keystroke	d	n/a
418.6225	0.179	837245	keystroke	Key.enter	n/a
418.8105	6.984	837621	prompt	n/a	mainstream dial learn failure\n
419.5375	0.135	839075	keystroke	m	n/a
419.6575	0.104	839315	keystroke	a	n/a
419.7775	0.149	839555	keystroke	i	n/a
419.8525	0.104	839705	keystroke	n	n/a
420.1815	0.076	840363	keystroke	s	n/a
420.3325	0.105	840665	keystroke	t	n/a
420.5115	0.12	841023	keystroke	r	n/a
420.6475	0.135	841295	keystroke	e	n/a
420.8275	0.12	841655	keystroke	a	n/a
420.9625	0.105	841925	keystroke	m	n/a
421.0815	0.075	842163	keystroke	Key.space	n/a
421.412	0.09	842824	keystroke	d	n/a
421.562	0.091	843124	keystroke	i	n/a
421.682	0.105	843364	keystroke	a	n/a
421.818	0.12	843636	keystroke	l	n/a
421.968	0.104	843936	keystroke	Key.space	n/a
422.223	0.15	844446	keystroke	l	n/a
422.5515	0.06	845103	keystroke	e	n/a
422.762	0.09	845524	keystroke	a	n/a
422.942	0.03	845884	keystroke	Key.backspace	n/a
423.3625	0.105	846725	keystroke	a	n/a
423.5575	0.105	847115	keystroke	r	n/a
423.6775	0.09	847355	keystroke	n	n/a
423.9025	0.12	847805	keystroke	Key.space	n/a
424.2175	0.09	848435	keystroke	f	n/a
424.3525	0.135	848705	keystroke	a	n/a
424.6375	0.105	849275	keystroke	i	n/a
424.8175	0.12	849635	keystroke	l	n/a
425.0425	0.105	850085	keystroke	u	n/a
425.1925	0.09	850385	keystroke	r	n/a
425.3875	0.105	850775	keystroke	e	n/a
425.6875	0.105	851375	keystroke	Key.enter	n/a
425.7995	8.6355	851599	prompt	n/a	weekend suites probe latvia\n
426.3025	0.09	852605	keystroke	w	n/a
426.4225	0.105	852845	keystroke	e	n/a
426.5875	0.12	853175	keystroke	e	n/a
426.7225	0.12	853445	keystroke	k	n/a
426.8575	0.09	853715	keystroke	e	n/a
427.0825	0.075	854165	keystroke	n	n/a
427.1875	0.135	854375	keystroke	d	n/a
427.4125	0.12	854825	keystroke	Key.space	n/a
427.7875	0.075	855575	keystroke	s	n/a
427.9525	0.105	855905	keystroke	u	n/a
428.1025	0.09	856205	keystroke	t	n/a
428.2525	0.135	856505	keystroke	i	n/a
428.4475	0.075	856895	keystroke	e	n/a
429.2725	0.06	858545	keystroke	Key.backspace	n/a
429.4075	0.06	858815	keystroke	Key.backspace	n/a
429.5425	0.075	859085	keystroke	Key.backspace	n/a
429.7375	0.09	859475	keystroke	i	n/a
429.9775	0.09	859955	keystroke	t	n/a
430.1425	0.09	860285	keystroke	e	n/a
430.3675	0.12	860735	keystroke	s	n/a
430.6825	0.09	861365	keystroke	Key.space	n/a
431.3575	0.105	862715	keystroke	p	n/a
431.6725	0.105	863345	keystroke	r	n/a
431.7625	0.12	863525	keystroke	o	n/a
431.9725	0.045	863945	keystroke	b	n/a
432.2275	0.12	864455	keystroke	e	n/a
432.3925	0.105	864785	keystroke	Key.space	n/a
432.7225	0.15	865445	keystroke	l	n/a
432.9175	0.15	865835	keystroke	a	n/a
433.4585	0.089	866917	keystroke	t	n/a
433.8175	0.105	867635	keystroke	v	n/a
433.9975	0.105	867995	keystroke	i	n/a
434.1025	0.105	868205	keystroke	a	n/a
434.3275	0.105	868655	keystroke	Key.enter	n/a
434.4405	8.6635	868881	prompt	n/a	twice psychiatry pope adidas\n
435.077	0.075	870154	keystroke	a	n/a
435.317	0.06	870634	keystroke	Key.backspace	n/a
435.422	0.075	870844	keystroke	t	n/a
435.587	0.09	871174	keystroke	i	n/a
436.037	0.045	872074	keystroke	Key.backspace	n/a
436.127	0.09	872254	keystroke	w	n/a
436.232	0.12	872464	keystroke	i	n/a
436.367	0.09	872734	keystroke	c	n/a
436.592	0.105	873184	keystroke	e	n/a
436.757	0.105	873514	keystroke	Key.space	n/a
436.997	0.12	873994	keystroke	p	n/a
437.357	0.075	874714	keystroke	s	n/a
437.702	0.15	875404	keystroke	y	n/a
438.0475	0.12	876095	keystroke	c	n/a
438.2425	0.105	876485	keystroke	h	n/a
438.602	0.075	877204	keystroke	i	n/a
438.843	0.104	877686	keystroke	a	n/a
439.232	0.105	878464	keystroke	t	n/a
439.412	0.09	878824	keystroke	r	n/a
439.637	0.075	879274	keystroke	y	n/a
439.727	0.09	879454	keystroke	Key.space	n/a
439.847	0.135	879694	keystroke	p	n/a
439.953	0.209	879906	keystroke	o	n/a
440.327	0.105	880654	keystroke	p	n/a
440.462	0.15	880924	keystroke	e	n/a
440.613	0.119	881226	keystroke	Key.space	n/a
440.792	0.135	881584	keystroke	a	n/a
440.972	0.105	881944	keystroke	d	n/a
441.212	0.045	882424	keystroke	d	n/a
441.527	0.06	883054	keystroke	Key.backspace	n/a
441.707	0.061	883414	keystroke	i	n/a
441.782	0.15	883564	keystroke	d	n/a
441.962	0.075	883924	keystroke	a	n/a
442.292	0.075	884584	keystroke	Key.backspace	n/a
442.652	0.15	885304	keystroke	a	n/a
442.757	0.105	885514	keystroke	s	n/a
442.967	0.135	885934	keystroke	Key.enter	n/a
443.1105	10.0435	886221	prompt	n/a	commons devices downloadable mating\n
443.853	0.059	887706	keystroke	c	n/a
443.897	0.12	887794	keystroke	o	n/a
444.002	0.21	888004	keystroke	m	n/a
444.362	0.105	888724	keystroke	m	n/a
444.632	0.09	889264	keystroke	n	n/a
444.782	0.075	889564	keystroke	s	n/a
445.052	0.06	890104	keystroke	Key.backspace	n/a
445.187	0.09	890374	keystroke	Key.backspace	n/a
445.397	0.105	890794	keystroke	o	n/a
445.472	0.105	890944	keystroke	n	n/a
445.562	0.135	891124	keystroke	s	n/a
445.682	0.105	891364	keystroke	Key.space	n/a
445.863	0.089	891726	keystroke	d	n/a
446.043	0.089	892086	keystroke	e	n/a
446.207	0.09	892414	keystroke	v	n/a
446.312	0.105	892624	keystroke	i	n/a
446.387	0.105	892774	keystroke	c	n/a
446.597	0.03	893194	keystroke	e	n/a
446.732	0.12	893464	keystroke	s	n/a
446.837	0.06	893674	keystroke	Key.space	n/a
447.017	0.09	894034	keystroke	c	n/a
447.137	0.09	894274	keystroke	o	n/a
447.647	0.06	895294	keystroke	Key.backspace	n/a
447.797	0.045	895594	keystroke	Key.backspace	n/a
447.857	0.09	895714	keystroke	d	n/a
447.977	0.105	895954	keystroke	o	n/a
448.113	0.089	896226	keystroke	w	n/a
448.232	0.075	896464	keystroke	n	n/a
448.878	0.089	897756	keystroke	l	n/a
449.0875	0.09	898175	keystroke	o	n/a
449.2075	0.105	898415	keystroke	a	n/a
449.2825	0.15	898565	keystroke	d	n/a
449.4775	0.135	898955	keystroke	a	n/a
449.8525	0.015	899705	keystroke	l	n/a
449.8675	0.06	899735	keystroke	b	n/a
450.5275	0.075	901055	keystroke	Key.backspace	n/a
450.6625	0.075	901325	keystroke	Key.backspace	n/a
450.7675	0.075	901535	keystroke	b	n/a
450.9025	0.105	901805	keystroke	l	n/a
451.0225	0.12	902045	keystroke	e	n/a
451.4725	0.12	902945	keystroke	Key.space	n/a
451.6375	0.105	903275	keystroke	m	n/a
451.7275	0.12	903455	keystroke	a	n/a
451.9375	0.075	903875	keystroke	t	n/a
451.9975	0.165	903995	keystroke	i	n/a
452.0725	0.135	904145	keystroke	n	n/a
452.2225	0.105	904445	keystroke	g	n/a
453.018	0.134	906036	keystroke	Key.enter	n/a
453.16	8.4995	906320	prompt	n/a	developing mines fabric pixels\n
453.813	0.074	907626	keystroke	d	n/a
453.993	0.0595	907986	keystroke	e	n/a
454.157	0.09	908314	keystroke	v	n/a
454.457	0.06	908914	keystroke	e	n/a
454.787	0.09	909574	keystroke	Key.backspace	n/a
455.027	0.105	910054	keystroke	l	n/a
455.492	0.09	910984	keystroke	e	n/a
455.762	0.06	911524	keystroke	Key.backspace	n/a
455.912	0.045	911824	keystroke	Key.backspace	n/a
456.107	0.12	912214	keystroke	e	n/a
456.197	0.12	912394	keystroke	l	n/a
456.437	0.105	912874	keystroke	o	n/a
456.977	0.12	913954	keystroke	p	n/a
457.382	0.136	914764	keystroke	i	n/a
457.472	0.12	914944	keystroke	n	n/a
457.622	0.12	915244	keystroke	g	n/a
457.727	0.12	915454	keystroke	Key.space	n/a
457.937	0.0905	915874	keystroke	m	n/a
458.0875	0.15	916175	keystroke	i	n/a
458.1625	0.12	916325	keystroke	n	n/a
458.4175	0.06	916835	keystroke	e	n/a
458.5975	0.105	917195	keystroke	s	n/a
458.7175	0.075	917435	keystroke	Key.space	n/a
458.9425	0.06	917885	keystroke	f	n/a
459.0775	0.1195	918155	keystroke	a	n/a
459.407	0.075	918814	keystroke	b	n/a
459.602	0.091	919204	keystroke	r	n/a
459.707	0.12	919414	keystroke	i	n/a
459.918	0.089	919836	keystroke	c	n/a
460.2625	0.105	920525	keystroke	Key.space	n/a
460.5775	0.09	921155	keystroke	p	n/a
460.7575	0.165	921515	keystroke	i	n/a
460.8775	0.105	921755	keystroke	x	n/a
461.1175	0.105	922235	keystroke	e	n/a
461.2375	0.15	922475	keystroke	l	n/a
461.3725	0.12	922745	keystroke	s	n/a
461.5375	0.12	923075	keystroke	Key.enter	n/a
461.665	8.0495	923330	prompt	n/a	advisory sorry ignored nasty\n
462.1825	0.075	924365	keystroke	a	n/a
462.287	0.105	924574	keystroke	d	n/a
462.527	0.105	925054	keystroke	v	n/a
462.812	0.105	925624	keystroke	i	n/a
463.427	0.105	926854	keystroke	s	n/a
463.637	0.105	927274	keystroke	o	n/a
463.772	0.075	927544	keystroke	r	n/a
463.982	0.09	927964	keystroke	y	n/a
464.072	0.12	928144	keystroke	Key.space	n/a
464.282	0.105	928564	keystroke	s	n/a
464.417	0.09	928834	keystroke	o	n/a
464.538	0.059	929076	keystroke	r	n/a
464.702	0.075	929404	keystroke	r	n/a
464.927	0.075	929854	keystroke	y	n/a
465.032	0.075	930064	keystroke	Key.space	n/a
465.182	0.12	930364	keystroke	i	n/a
465.557	0.12	931114	keystroke	g	n/a
466.382	0.12	932764	keystroke	n	n/a
466.487	0.15	932974	keystroke	o	n/a
466.577	0.12	933154	keystroke	r	n/a
466.682	0.135	933364	keystroke	e	n/a
466.907	0.1055	933814	keystroke	d	n/a
467.1475	0.119	934295	keystroke	Key.space	n/a
467.3875	0.06	934775	keystroke	n	n/a
467.4625	0.12	934925	keystroke	a	n/a
467.8675	0.09	935735	keystroke	s	n/a
468.1215	0.1355	936243	keystroke	t	n/a
468.557	0.09	937114	keystroke	y	n/a
469.592	0.12	939184	keystroke	Key.enter	n/a
469.7315	8.383	939463	prompt	n/a	glucose mere typical theta\n
470.507	0.105	941014	keystroke	g	n/a
470.627	0.12	941254	keystroke	l	n/a
471.272	0.09	942544	keystroke	u	n/a
471.467	0.15	942934	keystroke	c	n/a
471.632	0.09	943264	keystroke	o	n/a
471.812	0.105	943624	keystroke	s	n/a
472.352	0.105	944704	keystroke	e	n/a
472.697	0.09	945394	keystroke	Key.space	n/a
472.952	0.105	945904	keystroke	m	n/a
473.012	0.15	946024	keystroke	e	n/a
473.192	0.075	946384	keystroke	r	n/a
473.7775	0.12	947555	keystroke	e	n/a
474.0625	0.12	948125	keystroke	Key.space	n/a
474.317	0.105	948634	keystroke	t	n/a
474.602	0.075	949204	keystroke	y	n/a
474.7675	0.1045	949535	keystroke	p	n/a
474.9465	0.1355	949893	keystroke	e	n/a
475.2625	0.089	950525	keystroke	Key.backspace	n/a
475.8175	0.089	951635	keystroke	i	n/a
475.8925	0.134	951785	keystroke	c	n/a
476.0725	0.104	952145	keystroke	a	n/a
476.2815	0.106	952563	keystroke	l	n/a
476.7325	0.104	953465	keystroke	Key.space	n/a
477.0165	0.106	954033	keystroke	t	n/a
477.2265	0.121	954453	keystroke	h	n/a
477.3015	0.106	954603	keystroke	e	n/a
477.6465	0.061	955293	keystroke	t	n/a
477.8125	0.105	955625	keystroke	a	n/a
478.0065	0.105	956013	keystroke	Key.enter	n/a
478.1195	9.115	956239	prompt	n/a	ringtone flashing often caribbean\n
478.8175	0.075	957635	keystroke	r	n/a
478.9975	0.09	957995	keystroke	e	n/a
479.2815	0.061	958563	keystroke	Key.backspace	n/a
479.4765	0.151	958953	keystroke	i	n/a
479.5675	0.105	959135	keystroke	n	n/a
479.6875	0.105	959375	keystroke	g	n/a
480.1075	0.06	960215	keystroke	t	n/a
480.1525	0.135	960305	keystroke	o	n/a
480.2425	0.09	960485	keystroke	n	n/a
480.7675	0.105	961535	keystroke	Key.space	n/a
480.9475	0.09	961895	keystroke	f	n/a
481.0225	0.15	962045	keystroke	l	n/a
481.1875	0.135	962375	keystroke	a	n/a
481.3225	0.06	962645	keystroke	s	n/a
481.3825	0.1045	962765	keystroke	h	n/a
481.472	0.195	962944	keystroke	i	n/a
481.6075	0.1045	963215	keystroke	n	n/a
481.667	0.12	963334	keystroke	g	n/a
481.817	0.135	963634	keystroke	Key.space	n/a
482.432	0.09	964864	keystroke	f	n/a
482.507	0.105	965014	keystroke	o	n/a
482.822	0.03	965644	keystroke	Key.backspace	n/a
482.942	0.06	965884	keystroke	Key.backspace	n/a
483.152	0.105	966304	keystroke	o	n/a
483.2725	0.0895	966545	keystroke	f	n/a
483.482	0.075	966964	keystroke	t	n/a
483.902	0.105	967804	keystroke	e	n/a
484.022	0.105	968044	keystroke	n	n/a
484.157	0.09	968314	keystroke	Key.space	n/a
484.382	0.09	968764	keystroke	c	n/a
484.667	0.121	969334	keystroke	a	n/a
484.937	0.105	969874	keystroke	r	n/a
485.177	0.106	970354	keystroke	i	n/a
485.417	0.1055	970834	keystroke	b	n/a
485.7025	0.0445	971405	keystroke	b	n/a
485.942	0.135	971884	keystroke	e	n/a
486.182	0.135	972364	keystroke	a	n/a
486.302	0.12	972604	keystroke	n	n/a
487.112	0.12	974224	keystroke	Key.enter	n/a
487.2435	6.9805	974487	prompt	n/a	colonial dell dying ambassador\n
487.787	0.12	975574	keystroke	c	n/a
487.877	0.105	975754	keystroke	o	n/a
488.102	0.075	976204	keystroke	l	n/a
488.282	0.15	976564	keystroke	o	n/a
488.447	0.105	976894	keystroke	n	n/a
488.717	0.105	977434	keystroke	i	n/a
488.852	0.12	977704	keystroke	a	n/a
488.987	0.12	977974	keystroke	l	n/a
489.152	0.105	978304	keystroke	Key.space	n/a
489.317	0.12	978634	keystroke	d	n/a
489.422	0.09	978844	keystroke	i	n/a
489.557	0.105	979114	keystroke	e	n/a
489.737	0.06	979474	keystroke	Key.backspace	n/a
489.872	0.075	979744	keystroke	Key.backspace	n/a
489.992	0.12	979984	keystroke	e	n/a
490.127	0.03	980254	keystroke	l	n/a
490.277	0.09	980554	keystroke	l	n/a
490.412	0.105	980824	keystroke	Key.space	n/a
490.547	0.12	981094	keystroke	d	n/a
490.787	0.105	981574	keystroke	y	n/a
490.877	0.18	981754	keystroke	i	n/a
491.012	0.09	982024	keystroke	n	n/a
491.087	0.12	982174	keystroke	g	n/a
491.327	0.12	982654	keystroke	Key.space	n/a
491.837	0.12	983674	keystroke	a	n/a
492.002	0.12	984004	keystroke	m	n/a
492.272	0.09	984544	keystroke	b	n/a
492.542	0.09	985084	keystroke	a	n/a
492.722	0.09	985444	keystroke	s	n/a
492.887	0.105	985774	keystroke	s	n/a
493.037	0.105	986074	keystroke	o	n/a
493.397	0.075	986794	keystroke	Key.backspace	n/a
493.487	0.105	986974	keystroke	a	n/a
493.757	0.105	987514	keystroke	d	n/a
493.832	0.12	987664	keystroke	o	n/a
493.982	0.06	987964	keystroke	r	n/a
494.102	0.12	988204	keystroke	Key.enter	n/a
494.229	5.9805	988458	prompt	n/a	wednesday lips hack users\n
494.747	0.09	989494	keystroke	w	n/a
495.167	0.105	990334	keystroke	e	n/a
495.287	0.105	990574	keystroke	n	n/a
495.512	0.03	991024	keystroke	d	n/a
495.977	0.045	991954	keystroke	Key.backspace	n/a
496.097	0.06	992194	keystroke	Key.backspace	n/a
496.172	0.12	992344	keystroke	d	n/a
496.307	0.105	992614	keystroke	n	n/a
496.397	0.09	992794	keystroke	e	n/a
496.577	0.12	993154	keystroke	s	n/a
496.787	0.135	993574	keystroke	d	n/a
496.907	0.09	993814	keystroke	a	n/a
497.102	0.09	994204	keystroke	y	n/a
497.252	0.09	994504	keystroke	Key.space	n/a
497.462	0.105	994924	keystroke	l	n/a
497.552	0.135	995104	keystroke	i	n/a
497.732	0.12	995464	keystroke	p	n/a
497.867	0.105	995734	keystroke	s	n/a
498.002	0.105	996004	keystroke	Key.space	n/a
498.347	0.12	996694	keystroke	h	n/a
498.482	0.075	996964	keystroke	a	n/a
498.767	0.135	997534	keystroke	c	n/a
498.947	0.105	997894	keystroke	k	n/a
499.082	0.12	998164	keystroke	Key.space	n/a
499.412	0.09	998824	keystroke	u	n/a
499.487	0.075	998974	keystroke	s	n/a
499.622	0.15	999244	keystroke	e	n/a
499.757	0.09	999514	keystroke	r	n/a
500.073	0.014	1000146	keystroke	s	n/a
500.102	0.105	1000204	keystroke	Key.enter	n/a
500.2145	9.7445	1000429	prompt	n/a	arthritis hudson deposits on\n
500.853	0.105	1001706	keystroke	a	n/a
501.242	0.12	1002484	keystroke	r	n/a
501.557	0.09	1003114	keystroke	t	n/a
501.902	0.09	1003804	keystroke	h	n/a
502.397	0.1055	1004794	keystroke	r	n/a
502.5765	0.105	1005153	keystroke	i	n/a
503.3265	0.106	1006653	keystroke	t	n/a
503.6875	0.105	1007375	keystroke	i	n/a
503.9575	0.089	1007915	keystroke	s	n/a
504.1065	0.12	1008213	keystroke	Key.space	n/a
504.3615	0.121	1008723	keystroke	h	n/a
504.5575	0.119	1009115	keystroke	u	n/a
504.7975	0.104	1009595	keystroke	s	n/a
505.1715	0.091	1010343	keystroke	Key.backspace	n/a
505.2475	0.09	1010495	keystroke	d	n/a
505.3665	0.091	1010733	keystroke	s	n/a
505.4425	0.134	1010885	keystroke	o	n/a
505.5165	0.121	1011033	keystroke	n	n/a
505.8765	0.09	1011753	keystroke	Key.space	n/a
506.0715	0.091	1012143	keystroke	d	n/a
506.2665	0.076	1012533	keystroke	e	n/a
506.3715	0.105	1012743	keystroke	p	n/a
508.5565	0.02	1017113	keystroke	o	n/a
508.7115	0.106	1017423	keystroke	s	n/a
508.8615	0.121	1017723	keystroke	i	n/a
508.9975	0.09	1017995	keystroke	t	n/a
509.2365	0.076	1018473	keystroke	s	n/a
509.3575	0.119	1018715	keystroke	Key.space	n/a
509.5375	0.134	1019075	keystroke	o	n/a
509.6265	0.12	1019253	keystroke	n	n/a
509.8515	0.105	1019703	keystroke	Key.enter	n/a
509.963	6.717	1019926	prompt	n/a	become necklace adds patrick\n
510.5715	0.075	1021143	keystroke	b	n/a
510.7365	0.076	1021473	keystroke	e	n/a
510.9175	0.12	1021835	keystroke	c	n/a
511.0215	0.12	1022043	keystroke	o	n/a
511.0975	0.119	1022195	keystroke	m	n/a
511.1865	0.121	1022373	keystroke	e	n/a
511.2915	0.12	1022583	keystroke	Key.space	n/a
511.7715	0.106	1023543	keystroke	n	n/a
511.9825	0.089	1023965	keystroke	e	n/a
512.2215	0.12	1024443	keystroke	c	n/a
512.4165	0.121	1024833	keystroke	k	n/a
512.6125	0.105	1025225	keystroke	k	n/a
512.9865	0.09	1025973	keystroke	Key.backspace	n/a
513.1965	0.106	1026393	keystroke	l	n/a
513.2725	0.104	1026545	keystroke	e	n/a
513.5875	0.015	1027175	keystroke	s	n/a
513.7375	0.089	1027475	keystroke	Key.backspace	n/a
513.8125	0.089	1027625	keystroke	c	n/a
514.0225	0.105	1028045	keystroke	e	n/a
514.0825	0.119	1028165	keystroke	Key.space	n/a
514.3075	0.1195	1028615	keystroke	a	n/a
514.412	0.09	1028824	keystroke	d	n/a
514.562	0.105	1029124	keystroke	d	n/a
514.727	0.105	1029454	keystroke	s	n/a
514.862	0.09	1029724	keystroke	Key.space	n/a
515.237	0.12	1030474	keystroke	p	n/a
515.387	0.105	1030774	keystroke	a	n/a
515.612	0.12	1031224	keystroke	t	n/a
515.792	0.09	1031584	keystroke	r	n/a
515.867	0.135	1031734	keystroke	i	n/a
516.017	0.12	1032034	keystroke	c	n/a
516.347	0.09	1032694	keystroke	k	n/a
516.557	0.12	1033114	keystroke	Key.enter	n/a
516.6855	8.558	1033371	prompt	n/a	ieee banks indirect bradley\n
517.352	0.09	1034704	keystroke	l	n/a
517.592	0.06	1035184	keystroke	Key.backspace	n/a
517.757	0.0905	1035514	keystroke	i	n/a
517.9075	0.059	1035815	keystroke	e	n/a
518.0715	0.12	1036143	keystroke	e	n/a
518.3265	0.09	1036653	keystroke	e	n/a
518.6415	0.091	1037283	keystroke	Key.space	n/a
518.8825	0.06	1037765	keystroke	b	n/a
519.0475	0.09	1038095	keystroke	a	n/a
519.1525	0.15	1038305	keystroke	n	n/a
519.2125	0.12	1038425	keystroke	k	n/a
519.3165	0.1355	1038633	keystroke	s	n/a
519.902	0.105	1039804	keystroke	Key.space	n/a
520.082	0.18	1040164	keystroke	i	n/a
520.217	0.12	1040434	keystroke	n	n/a
520.412	0.105	1040824	keystroke	d	n/a
521.912	0.12	1043824	keystroke	i	n/a
522.092	0.105	1044184	keystroke	r	n/a
522.317	0.075	1044634	keystroke	e	n/a
522.527	0.09	1045054	keystroke	c	n/a
522.752	0.135	1045504	keystroke	t	n/a
523.082	0.09	1046164	keystroke	Key.space	n/a
523.457	0.09	1046914	keystroke	b	n/a
523.877	0.106	1047754	keystroke	r	n/a
524.117	0.12	1048234	keystroke	a	n/a
524.267	0.135	1048534	keystroke	d	n/a
524.432	0.18	1048864	keystroke	l	n/a
524.732	0.12	1049464	keystroke	e	n/a
524.927	0.12	1049854	keystroke	y	n/a
525.107	0.135	1050214	keystroke	Key.enter	n/a
525.2485	8.395	1050497	prompt	n/a	notes enhancements andrew hose\n
525.9165	0.12	1051833	keystroke	n	n/a
525.977	0.1345	1051954	keystroke	o	n/a
526.1265	0.0605	1052253	keystroke	t	n/a
526.292	0.0895	1052584	keystroke	e	n/a
526.4715	0.135	1052943	keystroke	s	n/a
526.5915	0.1055	1053183	keystroke	Key.space	n/a
526.7565	0.18	1053513	keystroke	i	n/a
526.8615	0.135	1053723	keystroke	n	n/a
527.2815	0.24	1054563	keystroke	Key.backspace	n/a
527.717	0.09	1055434	keystroke	Key.backspace	n/a
528.032	0.12	1056064	keystroke	e	n/a
528.137	0.06	1056274	keystroke	n	n/a
528.572	0.09	1057144	keystroke	h	n/a
528.707	0.12	1057414	keystroke	a	n/a
528.857	0.12	1057714	keystroke	n	n/a
529.052	0.12	1058104	keystroke	c	n/a
529.307	0.105	1058614	keystroke	e	n/a
529.517	0.075	1059034	keystroke	m	n/a
529.622	0.12	1059244	keystroke	e	n/a
529.712	0.105	1059424	keystroke	n	n/a
529.832	0.075	1059664	keystroke	t	n/a
530.042	0.105	1060084	keystroke	s	n/a
530.162	0.105	1060324	keystroke	Key.space	n/a
530.327	0.12	1060654	keystroke	a	n/a
530.448	0.134	1060896	keystroke	d	n/a
531.317	0.06	1062634	keystroke	Key.backspace	n/a
531.482	0.0905	1062964	keystroke	n	n/a
531.542	0.1055	1063084	keystroke	d	n/a
531.8265	0.136	1063653	keystroke	r	n/a
531.9475	0.12	1063895	keystroke	e	n/a
532.1875	0.104	1064375	keystroke	w	n/a
532.4425	0.104	1064885	keystroke	Key.space	n/a
532.6825	0.075	1065365	keystroke	h	n/a
532.8775	0.135	1065755	keystroke	o	n/a
533.2375	0.06	1066475	keystroke	s	n/a
533.3725	0.105	1066745	keystroke	e	n/a
533.5075	0.134	1067015	keystroke	Key.enter	n/a
533.648	5.411	1067296	prompt	n/a	candy logs normally holmes\n
534.2575	0.089	1068515	keystroke	c	n/a
534.3625	0.09	1068725	keystroke	a	n/a
534.4825	0.09	1068965	keystroke	n	n/a
534.6325	0.12	1069265	keystroke	d	n/a
534.9475	0.12	1069895	keystroke	y	n/a
535.1265	0.12	1070253	keystroke	Key.space	n/a
535.3665	0.106	1070733	keystroke	l	n/a
535.5625	0.104	1071125	keystroke	o	n/a
535.6075	0.09	1071215	keystroke	g	n/a
535.8175	0.135	1071635	keystroke	s	n/a
535.9665	0.091	1071933	keystroke	Key.space	n/a
536.282	0.105	1072564	keystroke	n	n/a
536.402	0.09	1072804	keystroke	o	n/a
536.507	0.09	1073014	keystroke	r	n/a
536.582	0.09	1073164	keystroke	m	n/a
536.687	0.135	1073374	keystroke	a	n/a
536.762	0.09	1073524	keystroke	l	n/a
536.912	0.12	1073824	keystroke	l	n/a
537.047	0.135	1074094	keystroke	y	n/a
537.167	0.105	1074334	keystroke	Key.space	n/a
537.5715	0.105	1075143	keystroke	h	n/a
537.6465	0.105	1075293	keystroke	o	n/a
538.1415	0.105	1076283	keystroke	l	n/a
538.3665	0.09	1076733	keystroke	m	n/a
538.5915	0.075	1077183	keystroke	e	n/a
538.7715	0.12	1077543	keystroke	s	n/a
538.9215	0.135	1077843	keystroke	Key.enter	n/a
539.064	7.345	1078128	prompt	n/a	famous locations joyce totally\n
539.717	0.075	1079434	keystroke	t	n/a
540.122	0.09	1080244	keystroke	Key.backspace	n/a
540.197	0.1055	1080394	keystroke	f	n/a
540.3325	0.105	1080665	keystroke	a	n/a
540.6325	0.134	1081265	keystroke	m	n/a
540.7515	0.105	1081503	keystroke	o	n/a
540.9165	0.12	1081833	keystroke	u	n/a
541.0515	0.105	1082103	keystroke	s	n/a
541.2315	0.105	1082463	keystroke	Key.space	n/a
541.4875	0.09	1082975	keystroke	l	n/a
541.6825	0.105	1083365	keystroke	o	n/a
541.7415	0.151	1083483	keystroke	c	n/a
541.9375	0.09	1083875	keystroke	a	n/a
542.1325	0.075	1084265	keystroke	t	n/a
542.1775	0.224	1084355	keystroke	i	n/a
542.2375	0.134	1084475	keystroke	o	n/a
542.3275	0.1045	1084655	keystroke	n	n/a
542.4765	0.12	1084953	keystroke	s	n/a
542.6265	0.09	1085253	keystroke	Key.space	n/a
542.8965	0.135	1085793	keystroke	j	n/a
543.0615	0.135	1086123	keystroke	o	n/a
543.6315	0.075	1087263	keystroke	y	n/a
543.9015	0.105	1087803	keystroke	c	n/a
544.1115	0.12	1088223	keystroke	e	n/a
544.2165	0.105	1088433	keystroke	Key.space	n/a
544.3665	0.105	1088733	keystroke	t	n/a
544.4865	0.105	1088973	keystroke	o	n/a
544.6065	0.12	1089213	keystroke	t	n/a
545.1015	0.121	1090203	keystroke	a	n/a
545.1915	0.075	1090383	keystroke	l	n/a
545.3415	0.15	1090683	keystroke	l	n/a
545.447	0.0905	1090894	keystroke	y	n/a
546.3165	0.09	1092633	keystroke	Key.enter	n/a
546.4145	7.8995	1092829	prompt	n/a	animated quantum each behavioral\n
546.9625	0.12	1093925	keystroke	a	n/a
547.1275	0.074	1094255	keystroke	n	n/a
547.2625	0.149	1094525	keystroke	i	n/a
547.3515	0.135	1094703	keystroke	m	n/a
547.5775	0.044	1095155	keystroke	a	n/a
547.6965	0.106	1095393	keystroke	t	n/a
547.8625	0.119	1095725	keystroke	e	n/a
548.0875	0.134	1096175	keystroke	d	n/a
548.2365	0.09	1096473	keystroke	Key.space	n/a
548.5815	0.061	1097163	keystroke	q	n/a
548.7165	0.136	1097433	keystroke	u	n/a
549.1825	0.105	1098365	keystroke	a	n/a
549.4225	0.09	1098845	keystroke	n	n/a
549.708	0.119	1099416	keystroke	t	n/a
550.157	0.105	1100314	keystroke	u	n/a
550.382	0.09	1100764	keystroke	m	n/a
550.487	0.09	1100974	keystroke	Key.space	n/a
550.637	0.09	1101274	keystroke	e	n/a
550.787	0.135	1101574	keystroke	a	n/a
550.937	0.135	1101874	keystroke	c	n/a
551.087	0.12	1102174	keystroke	h	n/a
551.177	0.105	1102354	keystroke	Key.space	n/a
551.4465	0.105	1102893	keystroke	b	n/a
551.6415	0.09	1103283	keystroke	e	n/a
551.8075	0.134	1103615	keystroke	h	n/a
551.9715	0.106	1103943	keystroke	a	n/a
552.1675	0.09	1104335	keystroke	v	n/a
552.3765	0.151	1104753	keystroke	i	n/a
552.5565	0.165	1105113	keystroke	o	n/a
552.7075	0.105	1105415	keystroke	r	n/a
552.9165	0.12	1105833	keystroke	a	n/a
553.0675	0.164	1106135	keystroke	l	n/a
554.2215	0.09	1108443	keystroke	Key.enter	n/a
554.318	16.601	1108636	prompt	n/a	porcelain ports donate omaha\n
555.0465	0.091	1110093	keystroke	p	n/a
555.6325	0.075	1111265	keystroke	o	n/a
555.8115	0.121	1111623	keystroke	r	n/a
556.3525	0.075	1112705	keystroke	c	n/a
556.5465	0.075	1113093	keystroke	e	n/a
556.6665	0.105	1113333	keystroke	l	n/a
556.8465	0.166	1113693	keystroke	i	n/a
556.9375	0.104	1113875	keystroke	n	n/a
557.0875	0.134	1114175	keystroke	e	n/a
557.3275	0.105	1114655	keystroke	Key.space	n/a
557.5675	0.149	1115135	keystroke	p	n/a
557.9565	0.06	1115913	keystroke	Key.backspace	n/a
558.0925	0.074	1116185	keystroke	Key.backspace	n/a
558.2275	0.075	1116455	keystroke	Key.backspace	n/a
558.3775	0.06	1116755	keystroke	Key.backspace	n/a
558.4965	0.091	1116993	keystroke	Key.backspace	n/a
560.5215	0.12	1121043	keystroke	a	n/a
560.6265	0.166	1121253	keystroke	i	n/a
560.7165	0.105	1121433	keystroke	n	n/a
560.987	0.105	1121974	keystroke	Key.space	n/a
561.467	0.09	1122934	keystroke	p	n/a
561.617	0.18	1123234	keystroke	o	n/a
561.947	0.09	1123894	keystroke	r	n/a
562.142	0.075	1124284	keystroke	t	n/a
562.412	0.12	1124824	keystroke	s	n/a
562.562	0.105	1125124	keystroke	Key.space	n/a
562.832	0.105	1125664	keystroke	p	n/a
563.252	0.075	1126504	keystroke	Key.backspace	n/a
563.357	0.105	1126714	keystroke	d	n/a
563.447	0.135	1126894	keystroke	o	n/a
563.552	0.12	1127104	keystroke	n	n/a
563.837	0.105	1127674	keystroke	i	n/a
564.197	0.1045	1128394	keystroke	Key.backspace	n/a
564.362	0.12	1128724	keystroke	t	n/a
564.542	0.15	1129084	keystroke	e	n/a
564.7515	0.12	1129503	keystroke	Key.space	n/a
564.9915	0.135	1129983	keystroke	o	n/a
565.247	0.075	1130494	keystroke	b	n/a
565.577	0.09	1131154	keystroke	Key.backspace	n/a
566.7475	0.075	1133495	keystroke	Key.backspace	n/a
566.8965	0.0755	1133793	keystroke	Key.backspace	n/a
567.032	0.075	1134064	keystroke	Key.backspace	n/a
567.182	0.075	1134364	keystroke	Key.backspace	n/a
568.097	0.09	1136194	keystroke	a	n/a
568.292	0.09	1136584	keystroke	t	n/a
568.442	0.15	1136884	keystroke	e	n/a
568.652	0.12	1137304	keystroke	Key.space	n/a
568.907	0.12	1137814	keystroke	d	n/a
569.072	0.045	1138144	keystroke	o	n/a
569.282	0.045	1138564	keystroke	Key.backspace	n/a
569.402	0.075	1138804	keystroke	Key.backspace	n/a
569.612	0.09	1139224	keystroke	o	n/a
569.822	0.105	1139644	keystroke	m	n/a
570.122	0.135	1140244	keystroke	a	n/a
570.437	0.135	1140874	keystroke	h	n/a
570.632	0.135	1141264	keystroke	a	n/a
570.782	0.135	1141564	keystroke	Key.enter	n/a
570.925	5.5595	1141850	prompt	n/a	fans missile wisdom worn\n
571.502	0.09	1143004	keystroke	f	n/a
571.667	0.12	1143334	keystroke	a	n/a
571.772	0.0895	1143544	keystroke	n	n/a
571.847	0.1345	1143694	keystroke	s	n/a
571.9825	0.089	1143965	keystroke	Key.space	n/a
572.2215	0.12	1144443	keystroke	m	n/a
572.3715	0.105	1144743	keystroke	i	n/a
572.4915	0.075	1144983	keystroke	s	n/a
572.7465	0.105	1145493	keystroke	s	n/a
572.927	0.105	1145854	keystroke	i	n/a
573.077	0.135	1146154	keystroke	l	n/a
573.227	0.165	1146454	keystroke	e	n/a
573.407	0.105	1146814	keystroke	Key.space	n/a
573.797	0.09	1147594	keystroke	w	n/a
573.872	0.105	1147744	keystroke	i	n/a
574.367	0.12	1148734	keystroke	s	n/a
574.592	0.09	1149184	keystroke	d	n/a
574.697	0.105	1149394	keystroke	o	n/a
574.937	0.09	1149874	keystroke	m	n/a
575.087	0.105	1150174	keystroke	Key.space	n/a
575.267	0.09	1150534	keystroke	w	n/a
575.342	0.09	1150684	keystroke	o	n/a
575.492	0.105	1150984	keystroke	r	n/a
575.582	0.12	1151164	keystroke	m	n/a
575.987	0.06	1151974	keystroke	Key.backspace	n/a
576.152	0.09	1152304	keystroke	n	n/a
576.362	0.12	1152724	keystroke	Key.enter	n/a
576.4895	8.3795	1152979	prompt	n/a	helpful session describing ships\n
577.127	0.12	1154254	keystroke	h	n/a
577.277	0.12	1154554	keystroke	e	n/a
577.367	0.15	1154734	keystroke	l	n/a
577.487	0.12	1154974	keystroke	p	n/a
577.712	0.12	1155424	keystroke	f	n/a
577.907	0.15	1155814	keystroke	u	n/a
578.072	0.135	1156144	keystroke	l	n/a
578.237	0.09	1156474	keystroke	Key.space	n/a
578.477	0.09	1156954	keystroke	s	n/a
578.687	0.045	1157374	keystroke	e	n/a
578.837	0.06	1157674	keystroke	e	n/a
579.152	0.075	1158304	keystroke	Key.backspace	n/a
579.257	0.06	1158514	keystroke	s	n/a
579.407	0.075	1158814	keystroke	s	n/a
579.467	0.24	1158934	keystroke	i	n/a
579.542	0.12	1159084	keystroke	o	n/a
579.617	0.12	1159234	keystroke	n	n/a
580.097	0.09	1160194	keystroke	Key.space	n/a
580.307	0.09	1160614	keystroke	d	n/a
580.487	0.12	1160974	keystroke	e	n/a
580.757	0.105	1161514	keystroke	s	n/a
581.012	0.105	1162024	keystroke	c	n/a
581.312	0.105	1162624	keystroke	r	n/a
581.492	0.12	1162984	keystroke	i	n/a
581.672	0.09	1163344	keystroke	b	n/a
581.792	0.21	1163584	keystroke	i	n/a
581.897	0.12	1163794	keystroke	n	n/a
582.032	0.135	1164064	keystroke	g	n/a
582.452	0.075	1164904	keystroke	Key.space	n/a
583.757	0.105	1167514	keystroke	s	n/a
583.982	0.135	1167964	keystroke	h	n/a
584.072	0.18	1168144	keystroke	i	n/a
584.252	0.135	1168504	keystroke	p	n/a
584.417	0.12	1168834	keystroke	s	n/a
584.762	0.105	1169524	keystroke	Key.enter	n/a
584.8795	13.999	1169759	prompt	n/a	experiment succeed identical environment\n
585.437	0.075	1170874	keystroke	e	n/a
585.647	0.09	1171294	keystroke	x	n/a
585.782	0.12	1171564	keystroke	p	n/a
585.872	0.135	1171744	keystroke	e	n/a
585.992	0.105	1171984	keystroke	r	n/a
586.098	0.119	1172196	keystroke	i	n/a
586.247	0.105	1172494	keystroke	a	n/a
586.517	0.075	1173034	keystroke	Key.backspace	n/a
586.787	0.075	1173574	keystroke	m	n/a
587.312	0.105	1174624	keystroke	e	n/a
587.402	0.09	1174804	keystroke	n	n/a
587.507	0.12	1175014	keystroke	t	n/a
587.732	0.105	1175464	keystroke	Key.space	n/a
587.942	0.09	1175884	keystroke	s	n/a
588.092	0.09	1176184	keystroke	u	n/a
588.212	0.075	1176424	keystroke	c	n/a
588.377	0.06	1176754	keystroke	c	n/a
588.542	0.075	1177084	keystroke	e	n/a
588.722	0.12	1177444	keystroke	d	n/a
588.902	0.105	1177804	keystroke	Key.space	n/a
589.397	0.075	1178794	keystroke	Key.backspace	n/a
589.547	0.06	1179094	keystroke	Key.backspace	n/a
589.682	0.06	1179364	keystroke	Key.backspace	n/a
589.817	0.09	1179634	keystroke	Key.backspace	n/a
590.8825	0.075	1181765	keystroke	c	n/a
591.377	0.24	1182754	keystroke	e	n/a
591.872	0.09	1183744	keystroke	e	n/a
592.097	0.105	1184194	keystroke	d	n/a
592.232	0.135	1184464	keystroke	Key.space	n/a
592.532	0.105	1185064	keystroke	i	n/a
592.847	0.06	1185694	keystroke	d	n/a
593.012	0.12	1186024	keystroke	e	n/a
593.147	0.09	1186294	keystroke	n	n/a
593.282	0.105	1186564	keystroke	t	n/a
593.402	0.12	1186804	keystroke	i	n/a
593.702	0.105	1187404	keystroke	c	n/a
593.822	0.075	1187644	keystroke	a	n/a
593.927	0.15	1187854	keystroke	l	n/a
594.107	0.09	1188214	keystroke	Key.space	n/a
594.392	0.105	1188784	keystroke	e	n/a
594.542	0.105	1189084	keystroke	n	n/a
595.112	0.12	1190224	keystroke	v	n/a
595.382	0.105	1190764	keystroke	i	n/a
595.907	0.105	1191814	keystroke	r	n/a
596.027	0.1055	1192054	keystroke	o	n/a
596.2375	0.0895	1192475	keystroke	m	n/a
596.357	0.105	1192714	keystroke	e	n/a
596.447	0.12	1192894	keystroke	n	n/a
596.597	0.12	1193194	keystroke	t	n/a
597.002	0.0595	1194004	keystroke	Key.backspace	n/a
597.1365	0.06	1194273	keystroke	Key.backspace	n/a
597.2565	0.09	1194513	keystroke	Key.backspace	n/a
