onset	duration	sample	value	key	prompt_text
7.661	12.349	15322	prompt	n/a	the quick brown fox jumps over a lazy dog\n
12.0595	0.013	24119	keystroke_t	t	n/a
12.1175	0.075	24235	keystroke_h	h	n/a
12.1625	0.075	24325	keystroke_e	e	n/a
12.3125	0.105	24625	keystroke_Key.space	Key.space	n/a
12.7475	0.09	25495	keystroke_q	q	n/a
12.8525	0.165	25705	keystroke_u	u	n/a
12.9725	0.09	25945	keystroke_i	i	n/a
13.1825	0.045	26365	keystroke_c	c	n/a
13.5875	0.075	27175	keystroke_k	k	n/a
13.7675	0.105	27535	keystroke_Key.space	Key.space	n/a
13.9925	0.06	27985	keystroke_b	b	n/a
14.2475	0.06	28495	keystroke_r	r	n/a
14.3825	0.09	28765	keystroke_o	o	n/a
14.6225	0.015	29245	keystroke_w	w	n/a
14.6525	0.06	29305	keystroke_n	n	n/a
14.8475	0.105	29695	keystroke_Key.space	Key.space	n/a
15.0725	0.045	30145	keystroke_f	f	n/a
15.1775	0.06	30355	keystroke_o	o	n/a
15.3575	0.06	30715	keystroke_x	x	n/a
16.0175	0.135	32035	keystroke_Key.space	Key.space	n/a
16.3775	0.075	32755	keystroke_j	j	n/a
16.5275	0.075	33055	keystroke_u	u	n/a
16.7225	0.105	33445	keystroke_m	m	n/a
16.8425	0.075	33685	keystroke_p	p	n/a
16.9775	0.06	33955	keystroke_s	s	n/a
17.2475	0.075	34495	keystroke_Key.space	Key.space	n/a
17.3375	0.075	34675	keystroke_o	o	n/a
17.4425	0.045	34885	keystroke_v	v	n/a
17.8025	0.105	35605	keystroke_e	e	n/a
17.9225	0.06	35845	keystroke_r	r	n/a
18.1625	0.075	36325	keystroke_Key.space	Key.space	n/a
18.2675	0.075	36535	keystroke_a	a	n/a
18.3575	0.09	36715	keystroke_Key.space	Key.space	n/a
18.4925	0.075	36985	keystroke_l	l	n/a
18.5825	0.06	37165	keystroke_a	a	n/a
18.8525	0.09	37705	keystroke_z	z	n/a
18.9575	0.09	37915	keystroke_y	y	n/a
19.1675	0.105	38335	keystroke_Key.space	Key.space	n/a
19.3325	0.06	38665	keystroke_d	d	n/a
19.4075	0.06	38815	keystroke_o	o	n/a
19.5425	0.045	39085	keystroke_g	g	n/a
19.9625	0.045	39925	keystroke_Key.enter	Key.enter	n/a
20.014	15.265	40028	prompt	n/a	anime manufacturers medicines votes\n
20.8475	0.06	41695	keystroke_a	a	n/a
20.9225	0.06	41845	keystroke_n	n	n/a
21.0575	0.06	42115	keystroke_i	i	n/a
21.2075	0.09	42415	keystroke_m	m	n/a
21.3125	0.045	42625	keystroke_e	e	n/a
21.5975	0.06	43195	keystroke_Key.space	Key.space	n/a
21.7775	0.06	43555	keystroke_m	m	n/a
21.8825	0.06	43765	keystroke_a	a	n/a
21.9875	0.045	43975	keystroke_n	n	n/a
25.5895	0.001	51179	keystroke_u	u	n/a
25.7975	0.06	51595	keystroke_f	f	n/a
26.0375	0.075	52075	keystroke_a	a	n/a
26.2325	0.09	52465	keystroke_c	c	n/a
26.5625	0.03	53125	keystroke_t	t	n/a
26.6375	0.06	53275	keystroke_u	u	n/a
26.8625	0.12	53725	keystroke_e	e	n/a
26.9675	0.061	53935	keystroke_r	r	n/a
28.1975	0.06	56395	keystroke_s	s	n/a
29.2625	0.0745	58525	keystroke_Key.backspace	Key.backspace	n/a
29.442	0.06	58884	keystroke_Key.backspace	Key.backspace	n/a
29.607	0.045	59214	keystroke_Key.backspace	Key.backspace	n/a
30.9425	0.06	61885	keystroke_r	r	n/a
31.107	0.06	62214	keystroke_e	e	n/a
31.197	0.0905	62394	keystroke_r	r	n/a
31.4225	0.045	62845	keystroke_s	s	n/a
31.7225	0.105	63445	keystroke_Key.space	Key.space	n/a
31.8725	0.09	63745	keystroke_m	m	n/a
31.9775	0.045	63955	keystroke_e	e	n/a
32.1575	0.045	64315	keystroke_d	d	n/a
32.2475	0.0745	64495	keystroke_i	i	n/a
32.367	0.075	64734	keystroke_c	c	n/a
32.772	0.075	65544	keystroke_i	i	n/a
32.937	0.06	65874	keystroke_n	n	n/a
33.0425	0.045	66085	keystroke_e	e	n/a
33.5375	0.0895	67075	keystroke_s	s	n/a
33.8075	0.1195	67615	keystroke_Key.space	Key.space	n/a
34.032	0.0605	68064	keystroke_v	v	n/a
34.137	0.0755	68274	keystroke_o	o	n/a
34.512	0.06	69024	keystroke_t	t	n/a
34.662	0.0905	69324	keystroke_e	e	n/a
34.8275	0.06	69655	keystroke_s	s	n/a
35.217	0.06	70434	keystroke_Key.enter	Key.enter	n/a
35.283	7.946	70566	prompt	n/a	quoted psychiatry hard emerging\n
36.537	0.075	73074	keystroke_q	q	n/a
36.672	0.09	73344	keystroke_u	u	n/a
36.822	0.105	73644	keystroke_o	o	n/a
36.912	0.075	73824	keystroke_t	t	n/a
37.062	0.06	74124	keystroke_e	e	n/a
37.272	0.045	74544	keystroke_d	d	n/a
37.917	0.09	75834	keystroke_Key.space	Key.space	n/a
38.217	0.075	76434	keystroke_p	p	n/a
38.367	0.06	76734	keystroke_s	s	n/a
38.502	0.075	77004	keystroke_y	y	n/a
38.637	0.075	77274	keystroke_c	c	n/a
38.742	0.09	77484	keystroke_h	h	n/a
38.937	0.045	77874	keystroke_i	i	n/a
39.477	0.075	78954	keystroke_a	a	n/a
39.657	0.045	79314	keystroke_t	t	n/a
39.957	0.045	79914	keystroke_r	r	n/a
40.048	0.074	80096	keystroke_y	y	n/a
40.392	0.075	80784	keystroke_Key.space	Key.space	n/a
40.557	0.09	81114	keystroke_h	h	n/a
40.632	0.09	81264	keystroke_a	a	n/a
40.767	0.09	81534	keystroke_r	r	n/a
41.022	0.045	82044	keystroke_d	d	n/a
41.127	0.105	82254	keystroke_Key.space	Key.space	n/a
41.277	0.045	82554	keystroke_e	e	n/a
41.367	0.075	82734	keystroke_m	m	n/a
41.547	0.12	83094	keystroke_e	e	n/a
41.637	0.09	83274	keystroke_r	r	n/a
42.3415	0.06	84683	keystroke_g	g	n/a
42.4615	0.045	84923	keystroke_i	i	n/a
42.5975	0.074	85195	keystroke_n	n	n/a
42.6865	0.06	85373	keystroke_g	g	n/a
43.1515	0.075	86303	keystroke_Key.enter	Key.enter	n/a
43.232	8.488	86464	prompt	n/a	cedar pads doug refugees\n
43.9765	0.105	87953	keystroke_c	c	n/a
44.2765	0.045	88553	keystroke_e	e	n/a
44.4415	0.075	88883	keystroke_d	d	n/a
44.6965	0.045	89393	keystroke_a	a	n/a
44.9365	0.045	89873	keystroke_r	r	n/a
45.5065	0.105	91013	keystroke_Key.space	Key.space	n/a
45.6415	0.06	91283	keystroke_p	p	n/a
45.7615	0.045	91523	keystroke_a	a	n/a
45.9115	0.06	91823	keystroke_d	d	n/a
46.0615	0.06	92123	keystroke_s	s	n/a
46.6015	0.135	93203	keystroke_Key.space	Key.space	n/a
46.8415	0.045	93683	keystroke_d	d	n/a
46.9315	0.09	93863	keystroke_o	o	n/a
47.1415	0.06	94283	keystroke_u	u	n/a
47.3515	0.03	94703	keystroke_g	g	n/a
47.9515	0.12	95903	keystroke_Key.space	Key.space	n/a
48.1615	0.045	96323	keystroke_r	r	n/a
48.2665	0.075	96533	keystroke_e	e	n/a
49.527	0.03	99054	keystroke_f	f	n/a
49.902	0.06	99804	keystroke_u	u	n/a
50.052	0.06	100104	keystroke_g	g	n/a
50.217	0.06	100434	keystroke_e	e	n/a
50.397	0.045	100794	keystroke_s	s	n/a
50.757	0.075	101514	keystroke_Key.backspace	Key.backspace	n/a
50.847	0.06	101694	keystroke_e	e	n/a
51.012	0.045	102024	keystroke_s	s	n/a
51.657	0.06	103314	keystroke_Key.enter	Key.enter	n/a
51.7255	7.3885	103451	prompt	n/a	buy maps marketplace opponent\n
52.677	0.075	105354	keystroke_b	b	n/a
52.812	0.075	105624	keystroke_u	u	n/a
53.007	0.06	106014	keystroke_y	y	n/a
53.202	0.09	106404	keystroke_Key.space	Key.space	n/a
53.337	0.12	106674	keystroke_m	m	n/a
53.487	0.09	106974	keystroke_a	a	n/a
53.562	0.075	107124	keystroke_p	p	n/a
53.712	0.06	107424	keystroke_s	s	n/a
54.432	0.09	108864	keystroke_Key.space	Key.space	n/a
54.552	0.105	109104	keystroke_m	m	n/a
54.672	0.045	109344	keystroke_a	a	n/a
54.822	0.045	109644	keystroke_r	r	n/a
55.407	0.075	110814	keystroke_k	k	n/a
55.542	0.06	111084	keystroke_e	e	n/a
55.722	0.06	111444	keystroke_t	t	n/a
55.902	0.06	111804	keystroke_p	p	n/a
56.082	0.075	112164	keystroke_l	l	n/a
56.172	0.06	112344	keystroke_a	a	n/a
56.352	0.09	112704	keystroke_c	c	n/a
56.532	0.045	113064	keystroke_e	e	n/a
56.787	0.12	113574	keystroke_Key.space	Key.space	n/a
56.967	0.135	113934	keystroke_o	o	n/a
57.132	0.09	114264	keystroke_p	p	n/a
57.312	0.075	114624	keystroke_p	p	n/a
57.537	0.075	115074	keystroke_o	o	n/a
57.732	0.045	115464	keystroke_n	n	n/a
57.822	0.06	115644	keystroke_e	e	n/a
57.927	0.075	115854	keystroke_n	n	n/a
58.077	0.06	116154	keystroke_t	t	n/a
59.052	0.06	118104	keystroke_Key.enter	Key.enter	n/a
59.117	11.7115	118234	prompt	n/a	jeep kingdom forgotten helps\n
59.877	0.09	119754	keystroke_j	j	n/a
60.042	0.06	120084	keystroke_e	e	n/a
60.192	0.06	120384	keystroke_e	e	n/a
60.357	0.075	120714	keystroke_p	p	n/a
60.582	0.075	121164	keystroke_Key.space	Key.space	n/a
60.792	0.09	121584	keystroke_k	k	n/a
60.987	0.075	121974	keystroke_i	i	n/a
61.122	0.09	122244	keystroke_n	n	n/a
61.212	0.06	122424	keystroke_g	g	n/a
61.347	0.03	122694	keystroke_o	o	n/a
61.452	0.105	122904	keystroke_m	m	n/a
61.842	0.09	123684	keystroke_Key.space	Key.space	n/a
62.352	0.075	124704	keystroke_o	o	n/a
62.712	0.075	125424	keystroke_Key.backspace	Key.backspace	n/a
62.862	0.09	125724	keystroke_f	f	n/a
63.357	0.06	126714	keystroke_Key.backspace	Key.backspace	n/a
63.522	0.075	127044	keystroke_Key.backspace	Key.backspace	n/a
63.687	0.06	127374	keystroke_Key.backspace	Key.backspace	n/a
64.212	0.06	128424	keystroke_Key.backspace	Key.backspace	n/a
64.692	0.06	129384	keystroke_d	d	n/a
64.992	0.045	129984	keystroke_o	o	n/a
65.142	0.09	130284	keystroke_m	m	n/a
65.292	0.12	130584	keystroke_Key.space	Key.space	n/a
66.102	0.075	132204	keystroke_f	f	n/a
66.222	0.06	132444	keystroke_o	o	n/a
66.312	0.045	132624	keystroke_r	r	n/a
66.492	0.015	132984	keystroke_g	g	n/a
66.567	0.045	133134	keystroke_o	o	n/a
66.657	0.045	133314	keystroke_t	t	n/a
67.182	0.06	134364	keystroke_Key.backspace	Key.backspace	n/a
68.172	0.09	136344	keystroke_t	t	n/a
68.367	0.09	136734	keystroke_t	t	n/a
68.607	0.0905	137214	keystroke_e	e	n/a
68.7425	0.06	137485	keystroke_n	n	n/a
69.1025	0.015	138205	keystroke_Key.space	Key.space	n/a
69.2225	0.075	138445	keystroke_h	h	n/a
69.3125	0.045	138625	keystroke_e	e	n/a
69.4175	0.075	138835	keystroke_l	l	n/a
69.6275	0.06	139255	keystroke_p	p	n/a
69.7025	0.075	139405	keystroke_s	s	n/a
70.7675	0.06	141535	keystroke_Key.enter	Key.enter	n/a
70.8355	11.829	141671	prompt	n/a	massive carriers phpbb steven\n
71.6075	0.075	143215	keystroke_m	m	n/a
71.7725	0.075	143545	keystroke_a	a	n/a
71.9225	0.075	143845	keystroke_s	s	n/a
72.0875	0.075	144175	keystroke_s	s	n/a
72.2225	0.06	144445	keystroke_i	i	n/a
72.2975	0.06	144595	keystroke_v	v	n/a
72.4775	0.06	144955	keystroke_e	e	n/a
72.6425	0.06	145285	keystroke_Key.space	Key.space	n/a
72.8225	0.09	145645	keystroke_c	c	n/a
73.0475	0.075	146095	keystroke_a	a	n/a
73.1975	0.06	146395	keystroke_r	r	n/a
73.3625	0.045	146725	keystroke_r	r	n/a
73.7075	0.09	147415	keystroke_i	i	n/a
73.8425	0.075	147685	keystroke_e	e	n/a
73.9625	0.0445	147925	keystroke_r	r	n/a
74.202	0.075	148404	keystroke_s	s	n/a
74.532	0.12	149064	keystroke_Key.space	Key.space	n/a
74.893	0.075	149786	keystroke_p	p	n/a
75.222	0.09	150444	keystroke_h	h	n/a
77.415	0.012	154830	keystroke_p	p	n/a
77.832	0.061	155664	keystroke_b	b	n/a
78.223	0.015	156446	keystroke_b	b	n/a
79.152	0.135	158304	keystroke_Key.space	Key.space	n/a
79.302	0.045	158604	keystroke_s	s	n/a
79.468	0.059	158936	keystroke_t	t	n/a
79.573	0.105	159146	keystroke_e	e	n/a
79.843	0.075	159686	keystroke_v	v	n/a
80.022	0.075	160044	keystroke_v	v	n/a
80.232	0.045	160464	keystroke_e	e	n/a
80.338	0.075	160676	keystroke_n	n	n/a
80.652	0.06	161304	keystroke_Key.backspace	Key.backspace	n/a
80.818	0.059	161636	keystroke_Key.backspace	Key.backspace	n/a
80.982	0.061	161964	keystroke_Key.backspace	Key.backspace	n/a
81.253	0.029	162506	keystroke_e	e	n/a
82.258	0.06	164516	keystroke_n	n	n/a
82.618	0.044	165236	keystroke_Key.enter	Key.enter	n/a
82.6685	7.75	165337	prompt	n/a	blocks denial interesting essays\n
83.533	0.075	167066	keystroke_b	b	n/a
83.6825	0.075	167365	keystroke_l	l	n/a
84.1625	0.09	168325	keystroke_o	o	n/a
84.2975	0.09	168595	keystroke_c	c	n/a
84.4325	0.075	168865	keystroke_k	k	n/a
84.6275	0.06	169255	keystroke_s	s	n/a
84.9265	0.091	169853	keystroke_Key.space	Key.space	n/a
85.1825	0.06	170365	keystroke_d	d	n/a
85.3475	0.06	170695	keystroke_e	e	n/a
85.4375	0.06	170875	keystroke_n	n	n/a
85.5575	0.06	171115	keystroke_i	i	n/a
85.6775	0.075	171355	keystroke_a	a	n/a
85.8125	0.06	171625	keystroke_l	l	n/a
85.9765	0.105	171953	keystroke_Key.space	Key.space	n/a
86.2475	0.06	172495	keystroke_i	i	n/a
86.3825	0.075	172765	keystroke_n	n	n/a
86.4725	0.09	172945	keystroke_t	t	n/a
86.6225	0.135	173245	keystroke_e	e	n/a
86.7425	0.06	173485	keystroke_r	r	n/a
86.7875	0.105	173575	keystroke_e	e	n/a
86.9675	0.09	173935	keystroke_s	s	n/a
87.1325	0.105	174265	keystroke_t	t	n/a
87.1925	0.075	174385	keystroke_i	i	n/a
87.3425	0.105	174685	keystroke_n	n	n/a
87.4025	0.075	174805	keystroke_g	g	n/a
87.4925	0.105	174985	keystroke_Key.space	Key.space	n/a
87.5825	0.06	175165	keystroke_e	e	n/a
87.8075	0.045	175615	keystroke_s	s	n/a
87.9575	0.045	175915	keystroke_s	s	n/a
88.1225	0.09	176245	keystroke_a	a	n/a
88.3025	0.06	176605	keystroke_r	r	n/a
88.4075	0.09	176815	keystroke_y	y	n/a
89.1125	0.06	178225	keystroke_Key.backspace	Key.backspace	n/a
89.2775	0.045	178555	keystroke_Key.backspace	Key.backspace	n/a
89.6075	0.09	179215	keystroke_y	y	n/a
89.8175	0.06	179635	keystroke_s	s	n/a
90.3725	0.045	180745	keystroke_Key.enter	Key.enter	n/a
90.4235	6.55	180847	prompt	n/a	treating ebony demo why're\n
91.3775	0.045	182755	keystroke_t	t	n/a
91.5575	0.06	183115	keystroke_r	r	n/a
91.6625	0.09	183325	keystroke_e	e	n/a
92.1725	0.105	184345	keystroke_a	a	n/a
92.3525	0.09	184705	keystroke_t	t	n/a
92.4875	0.06	184975	keystroke_i	i	n/a
92.6525	0.075	185305	keystroke_n	n	n/a
92.7125	0.09	185425	keystroke_g	g	n/a
92.8025	0.09	185605	keystroke_Key.space	Key.space	n/a
92.9075	0.045	185815	keystroke_e	e	n/a
93.0125	0.06	186025	keystroke_b	b	n/a
93.1925	0.075	186385	keystroke_o	o	n/a
93.3275	0.09	186655	keystroke_n	n	n/a
93.5525	0.075	187105	keystroke_y	y	n/a
93.7325	0.12	187465	keystroke_Key.space	Key.space	n/a
93.8375	0.06	187675	keystroke_d	d	n/a
94.0175	0.045	188035	keystroke_e	e	n/a
94.0775	0.15	188155	keystroke_m	m	n/a
94.2125	0.075	188425	keystroke_o	o	n/a
94.4075	0.12	188815	keystroke_Key.space	Key.space	n/a
94.6325	0.075	189265	keystroke_w	w	n/a
94.6925	0.09	189385	keystroke_h	h	n/a
94.9025	0.045	189805	keystroke_y	y	n/a
95.7425	0.105	191485	keystroke_'	'	n/a
95.8925	0.06	191785	keystroke_r	r	n/a
96.0125	0.045	192025	keystroke_e	e	n/a
96.9275	0.045	193855	keystroke_Key.enter	Key.enter	n/a
96.977	7.4215	193954	prompt	n/a	strain gilbert education race\n
98.0375	0.075	196075	keystroke_s	s	n/a
98.2175	0.075	196435	keystroke_t	t	n/a
98.3675	0.06	196735	keystroke_r	r	n/a
98.5625	0.06	197125	keystroke_a	a	n/a
98.7275	0.06	197455	keystroke_i	i	n/a
98.8925	0.06	197785	keystroke_n	n	n/a
99.4325	0.12	198865	keystroke_Key.space	Key.space	n/a
100.1225	0.06	200245	keystroke_g	g	n/a
100.2125	0.06	200425	keystroke_i	i	n/a
100.4525	0.06	200905	keystroke_l	l	n/a
100.6625	0.06	201325	keystroke_b	b	n/a
100.7825	0.09	201565	keystroke_e	e	n/a
100.8575	0.09	201715	keystroke_r	r	n/a
101.0975	0.03	202195	keystroke_t	t	n/a
101.4425	0.105	202885	keystroke_Key.space	Key.space	n/a
101.5925	0.06	203185	keystroke_e	e	n/a
101.7875	0.045	203575	keystroke_d	d	n/a
101.8925	0.075	203785	keystroke_u	u	n/a
102.0125	0.105	204025	keystroke_c	c	n/a
102.2525	0.075	204505	keystroke_a	a	n/a
102.3575	0.075	204715	keystroke_t	t	n/a
102.4025	0.15	204805	keystroke_i	i	n/a
102.4775	0.105	204955	keystroke_o	o	n/a
102.9125	0.06	205825	keystroke_n	n	n/a
103.0925	0.09	206185	keystroke_Key.space	Key.space	n/a
103.4225	0.105	206845	keystroke_r	r	n/a
103.5425	0.075	207085	keystroke_a	a	n/a
103.7375	0.09	207475	keystroke_c	c	n/a
103.9025	0.045	207805	keystroke_e	e	n/a
104.352	0.045	208704	keystroke_Key.enter	Key.enter	n/a
104.4015	9.208	208803	prompt	n/a	struct crossword spencer tobago\n
105.102	0.075	210204	keystroke_s	s	n/a
105.327	0.045	210654	keystroke_t	t	n/a
105.432	0.075	210864	keystroke_r	r	n/a
105.597	0.075	211194	keystroke_u	u	n/a
105.792	0.075	211584	keystroke_c	c	n/a
106.122	0.06	212244	keystroke_t	t	n/a
106.317	0.09	212634	keystroke_Key.space	Key.space	n/a
106.527	0.075	213054	keystroke_c	c	n/a
106.813	0.044	213626	keystroke_r	r	n/a
106.917	0.06	213834	keystroke_o	o	n/a
107.067	0.03	214134	keystroke_s	s	n/a
107.217	0.06	214434	keystroke_s	s	n/a
107.788	0.059	215576	keystroke_o	o	n/a
108.1325	0.075	216265	keystroke_Key.backspace	Key.backspace	n/a
108.7475	0.075	217495	keystroke_w	w	n/a
108.8525	0.09	217705	keystroke_o	o	n/a
108.9575	0.03	217915	keystroke_r	r	n/a
109.1675	0.045	218335	keystroke_d	d	n/a
109.4075	0.09	218815	keystroke_Key.space	Key.space	n/a
109.5425	0.075	219085	keystroke_s	s	n/a
109.6475	0.09	219295	keystroke_p	p	n/a
109.7975	0.06	219595	keystroke_e	e	n/a
109.9325	0.075	219865	keystroke_n	n	n/a
110.5325	0.075	221065	keystroke_c	c	n/a
110.8625	0.09	221725	keystroke_e	e	n/a
110.9675	0.06	221935	keystroke_r	r	n/a
111.2075	0.12	222415	keystroke_Key.space	Key.space	n/a
111.6275	0.045	223255	keystroke_t	t	n/a
111.7775	0.075	223555	keystroke_o	o	n/a
112.0175	0.06	224035	keystroke_b	b	n/a
112.4525	0.06	224905	keystroke_a	a	n/a
112.6325	0.075	225265	keystroke_g	g	n/a
112.7975	0.075	225595	keystroke_o	o	n/a
113.5625	0.045	227125	keystroke_Key.enter	Key.enter	n/a
113.613	15.0715	227226	prompt	n/a	who're plans contain gamecube\n
114.5825	0.06	229165	keystroke_w	w	n/a
114.7175	0.15	229435	keystroke_h	h	n/a
114.8075	0.105	229615	keystroke_o	o	n/a
115.9325	0.09	231865	keystroke_'	'	n/a
116.0375	0.09	232075	keystroke_r	r	n/a
116.1725	0.06	232345	keystroke_e	e	n/a
116.3675	0.12	232735	keystroke_Key.space	Key.space	n/a
116.5925	0.06	233185	keystroke_p	p	n/a
116.9825	0.09	233965	keystroke_l	l	n/a
117.5975	0.06	235195	keystroke_a	a	n/a
117.6725	0.06	235345	keystroke_n	n	n/a
117.8075	0.075	235615	keystroke_s	s	n/a
118.1075	0.105	236215	keystroke_Key.space	Key.space	n/a
118.3775	0.105	236755	keystroke_c	c	n/a
118.4675	0.06	236935	keystroke_o	o	n/a
118.5875	0.075	237175	keystroke_n	n	n/a
118.7225	0.06	237445	keystroke_t	t	n/a
118.9325	0.075	237865	keystroke_i	i	n/a
119.0975	0.075	238195	keystroke_n	n	n/a
119.6375	0.09	239275	keystroke_Key.backspace	Key.backspace	n/a
120.0425	0.075	240085	keystroke_a	a	n/a
120.1475	0.09	240295	keystroke_i	i	n/a
120.3875	0.06	240775	keystroke_n	n	n/a
120.8525	0.06	241705	keystroke_Key.backspace	Key.backspace	n/a
121.0175	0.075	242035	keystroke_Key.backspace	Key.backspace	n/a
121.1975	0.075	242395	keystroke_Key.backspace	Key.backspace	n/a
121.5575	0.06	243115	keystroke_Key.backspace	Key.backspace	n/a
121.9025	0.045	243805	keystroke_a	a	n/a
121.9775	0.075	243955	keystroke_i	i	n/a
122.1725	0.06	244345	keystroke_n	n	n/a
123.5225	0.09	247045	keystroke_Key.space	Key.space	n/a
123.7475	0.075	247495	keystroke_g	g	n/a
123.8825	0.075	247765	keystroke_a	a	n/a
124.0475	0.075	248095	keystroke_m	m	n/a
124.7975	0.015	249595	keystroke_e	e	n/a
126.7475	0.06	253495	keystroke_c	c	n/a
126.8675	0.105	253735	keystroke_u	u	n/a
127.0625	0.06	254125	keystroke_b	b	n/a
127.6475	0.03	255295	keystroke_e	e	n/a
128.6075	0.075	257215	keystroke_Key.enter	Key.enter	n/a
128.6885	11.4255	257377	prompt	n/a	invest recommendation limited irish\n
129.342	0.075	258684	keystroke_i	i	n/a
129.522	0.06	259044	keystroke_n	n	n/a
129.597	0.075	259194	keystroke_v	v	n/a
129.777	0.06	259554	keystroke_e	e	n/a
129.927	0.09	259854	keystroke_s	s	n/a
130.167	0.06	260334	keystroke_t	t	n/a
130.287	0.135	260574	keystroke_Key.space	Key.space	n/a
130.482	0.03	260964	keystroke_r	r	n/a
130.557	0.09	261114	keystroke_e	e	n/a
130.752	0.09	261504	keystroke_c	c	n/a
130.872	0.075	261744	keystroke_o	o	n/a
131.067	0.045	262134	keystroke_m	m	n/a
131.217	0.075	262434	keystroke_m	m	n/a
131.322	0.06	262644	keystroke_e	e	n/a
131.457	0.075	262914	keystroke_n	n	n/a
131.577	0.075	263154	keystroke_d	d	n/a
131.697	0.045	263394	keystroke_i	i	n/a
132.087	0.09	264174	keystroke_Key.backspace	Key.backspace	n/a
132.313	0.104	264626	keystroke_a	a	n/a
132.447	0.075	264894	keystroke_t	t	n/a
132.538	0.134	265076	keystroke_i	i	n/a
132.612	0.09	265224	keystroke_o	o	n/a
132.867	0.015	265734	keystroke_n	n	n/a
132.897	0.03	265794	keystroke_n	n	n/a
132.912	0.12	265824	keystroke_Key.space	Key.space	n/a
133.062	0.09	266124	keystroke_l	l	n/a
133.227	0.075	266454	keystroke_i	i	n/a
133.392	0.121	266784	keystroke_m	m	n/a
133.558	0.044	267116	keystroke_i	i	n/a
133.917	0.0755	267834	keystroke_Key.backspace	Key.backspace	n/a
134.1125	0.045	268225	keystroke_Key.backspace	Key.backspace	n/a
134.3075	0.075	268615	keystroke_Key.backspace	Key.backspace	n/a
134.5325	0.045	269065	keystroke_Key.backspace	Key.backspace	n/a
134.7275	0.06	269455	keystroke_Key.backspace	Key.backspace	n/a
134.9525	0.06	269905	keystroke_Key.backspace	Key.backspace	n/a
135.5075	0.097	271015	keystroke_Key.space	Key.space	n/a
136.3025	0.075	272605	keystroke_l	l	n/a
136.4375	0.09	272875	keystroke_i	i	n/a
136.5725	0.135	273145	keystroke_m	m	n/a
136.6775	0.105	273355	keystroke_i	i	n/a
137.4125	0.015	274825	keystroke_t	t	n/a
137.5925	0.06	275185	keystroke_e	e	n/a
137.8025	0.045	275605	keystroke_d	d	n/a
137.9225	0.105	275845	keystroke_Key.space	Key.space	n/a
138.5075	0.075	277015	keystroke_i	i	n/a
138.7325	0.075	277465	keystroke_r	r	n/a
138.9725	0.045	277945	keystroke_i	i	n/a
139.1525	0.075	278305	keystroke_s	s	n/a
139.2575	0.06	278515	keystroke_h	h	n/a
140.0525	0.06	280105	keystroke_Key.enter	Key.enter	n/a
140.1185	7.27	280237	prompt	n/a	counter sing shan't butler\n
140.9525	0.06	281905	keystroke_c	c	n/a
141.0275	0.09	282055	keystroke_o	o	n/a
141.2075	0.06	282415	keystroke_u	u	n/a
141.3725	0.105	282745	keystroke_n	n	n/a
141.4925	0.06	282985	keystroke_t	t	n/a
141.6425	0.105	283285	keystroke_e	e	n/a
141.7025	0.09	283405	keystroke_r	r	n/a
141.8375	0.135	283675	keystroke_Key.space	Key.space	n/a
142.1675	0.075	284335	keystroke_s	s	n/a
142.2275	0.075	284455	keystroke_i	i	n/a
142.3775	0.075	284755	keystroke_n	n	n/a
142.4675	0.06	284935	keystroke_g	g	n/a
142.6025	0.09	285205	keystroke_Key.space	Key.space	n/a
142.7675	0.045	285535	keystroke_s	s	n/a
142.8425	0.075	285685	keystroke_h	h	n/a
142.9625	0.075	285925	keystroke_a	a	n/a
143.0825	0.09	286165	keystroke_n	n	n/a
144.237	0.09	288474	keystroke_'	'	n/a
144.447	0.045	288894	keystroke_t	t	n/a
145.077	0.105	290154	keystroke_Key.space	Key.space	n/a
145.317	0.09	290634	keystroke_b	b	n/a
145.497	0.075	290994	keystroke_u	u	n/a
145.962	0.06	291924	keystroke_t	t	n/a
146.082	0.06	292164	keystroke_l	l	n/a
146.187	0.09	292374	keystroke_e	e	n/a
146.247	0.075	292494	keystroke_r	r	n/a
147.312	0.075	294624	keystroke_Key.enter	Key.enter	n/a
147.3915	10.377	294783	prompt	n/a	literally solution entitled hunting\n
148.032	0.06	296064	keystroke_l	l	n/a
148.182	0.075	296364	keystroke_i	i	n/a
148.347	0.06	296694	keystroke_t	t	n/a
148.662	0.09	297324	keystroke_e	e	n/a
148.767	0.06	297534	keystroke_r	r	n/a
148.932	0.09	297864	keystroke_a	a	n/a
149.037	0.06	298074	keystroke_l	l	n/a
149.172	0.075	298344	keystroke_l	l	n/a
149.412	0.09	298824	keystroke_y	y	n/a
149.622	0.105	299244	keystroke_Key.space	Key.space	n/a
149.712	0.075	299424	keystroke_s	s	n/a
149.802	0.075	299604	keystroke_o	o	n/a
150.192	0.09	300384	keystroke_l	l	n/a
150.837	0.06	301674	keystroke_Key.backspace	Key.backspace	n/a
151.7525	0.075	303505	keystroke_l	l	n/a
152.0225	0.045	304045	keystroke_u	u	n/a
152.4425	0.075	304885	keystroke_t	t	n/a
152.5325	0.15	305065	keystroke_i	i	n/a
152.5925	0.105	305185	keystroke_o	o	n/a
152.7725	0.06	305545	keystroke_n	n	n/a
152.9225	0.105	305845	keystroke_Key.space	Key.space	n/a
153.1925	0.045	306385	keystroke_e	e	n/a
153.2525	0.075	306505	keystroke_n	n	n/a
153.4625	0.06	306925	keystroke_t	t	n/a
153.7925	0.075	307585	keystroke_i	i	n/a
153.9575	0.06	307915	keystroke_t	t	n/a
154.1225	0.075	308245	keystroke_l	l	n/a
154.2875	0.06	308575	keystroke_e	e	n/a
154.4975	0.06	308995	keystroke_d	d	n/a
155.2025	0.09	310405	keystroke_Key.space	Key.space	n/a
155.5625	0.105	311125	keystroke_h	h	n/a
155.6525	0.09	311305	keystroke_u	u	n/a
155.8325	0.09	311665	keystroke_n	n	n/a
155.9675	0.06	311935	keystroke_t	t	n/a
156.4625	0.06	312925	keystroke_i	i	n/a
156.6125	0.06	313225	keystroke_n	n	n/a
156.6875	0.075	313375	keystroke_g	g	n/a
157.7075	0.06	315415	keystroke_Key.enter	Key.enter	n/a
157.772	8.832	315544	prompt	n/a	gathering allowing committee christian\n
158.4725	0.075	316945	keystroke_g	g	n/a
158.9375	0.075	317875	keystroke_a	a	n/a
159.1475	0.075	318295	keystroke_t	t	n/a
159.4175	0.015	318835	keystroke_h	h	n/a
159.4475	0.045	318895	keystroke_e	e	n/a
159.6725	0.075	319345	keystroke_r	r	n/a
159.9275	0.06	319855	keystroke_i	i	n/a
160.0925	0.06	320185	keystroke_n	n	n/a
160.1825	0.06	320365	keystroke_g	g	n/a
160.4375	0.09	320875	keystroke_Key.space	Key.space	n/a
160.6925	0.09	321385	keystroke_a	a	n/a
160.7675	0.06	321535	keystroke_l	l	n/a
160.9025	0.09	321805	keystroke_l	l	n/a
161.0675	0.075	322135	keystroke_o	o	n/a
161.1425	0.075	322285	keystroke_w	w	n/a
161.2625	0.06	322525	keystroke_i	i	n/a
161.4275	0.06	322855	keystroke_n	n	n/a
161.5025	0.06	323005	keystroke_g	g	n/a
161.5925	0.105	323185	keystroke_Key.space	Key.space	n/a
161.8475	0.045	323695	keystroke_c	c	n/a
161.9075	0.09	323815	keystroke_o	o	n/a
162.0875	0.075	324175	keystroke_m	m	n/a
162.9275	0.09	325855	keystroke_m	m	n/a
163.0625	0.075	326125	keystroke_i	i	n/a
163.2125	0.06	326425	keystroke_t	t	n/a
163.7525	0.045	327505	keystroke_t	t	n/a
164.0375	0.075	328075	keystroke_e	e	n/a
164.1875	0.045	328375	keystroke_e	e	n/a
164.4425	0.09	328885	keystroke_Key.space	Key.space	n/a
164.6825	0.09	329365	keystroke_c	c	n/a
164.7875	0.06	329575	keystroke_h	h	n/a
164.9225	0.06	329845	keystroke_r	r	n/a
165.0425	0.045	330085	keystroke_i	i	n/a
165.2225	0.06	330445	keystroke_s	s	n/a
165.4325	0.045	330865	keystroke_t	t	n/a
165.5075	0.075	331015	keystroke_i	i	n/a
165.6275	0.105	331255	keystroke_a	a	n/a
165.7175	0.045	331435	keystroke_n	n	n/a
166.5725	0.03	333145	keystroke_Key.enter	Key.enter	n/a
166.607	7.2865	333214	prompt	n/a	rings watches accepts vitamins\n
167.2775	0.045	334555	keystroke_r	r	n/a
167.3375	0.06	334675	keystroke_i	i	n/a
167.4725	0.075	334945	keystroke_n	n	n/a
167.5625	0.045	335125	keystroke_g	g	n/a
167.7875	0.06	335575	keystroke_s	s	n/a
168.0725	0.105	336145	keystroke_Key.space	Key.space	n/a
168.2975	0.075	336595	keystroke_w	w	n/a
168.4475	0.09	336895	keystroke_a	a	n/a
168.6275	0.075	337255	keystroke_t	t	n/a
169.0925	0.06	338185	keystroke_c	c	n/a
169.1825	0.075	338365	keystroke_h	h	n/a
169.272	0.0605	338544	keystroke_e	e	n/a
169.4525	0.06	338905	keystroke_s	s	n/a
169.5425	0.105	339085	keystroke_Key.space	Key.space	n/a
169.6925	0.075	339385	keystroke_a	a	n/a
169.9325	0.015	339865	keystroke_c	c	n/a
170.0375	0.0445	340075	keystroke_c	c	n/a
170.262	0.06	340524	keystroke_e	e	n/a
170.3825	0.06	340765	keystroke_p	p	n/a
170.5775	0.045	341155	keystroke_t	t	n/a
170.7875	0.045	341575	keystroke_s	s	n/a
171.0875	0.105	342175	keystroke_Key.space	Key.space	n/a
171.9425	0.06	343885	keystroke_v	v	n/a
172.0325	0.06	344065	keystroke_i	i	n/a
172.2125	0.06	344425	keystroke_t	t	n/a
172.3475	0.06	344695	keystroke_a	a	n/a
172.4525	0.105	344905	keystroke_m	m	n/a
172.5875	0.09	345175	keystroke_i	i	n/a
172.7675	0.045	345535	keystroke_n	n	n/a
172.8425	0.06	345685	keystroke_s	s	n/a
173.8475	0.045	347695	keystroke_Key.enter	Key.enter	n/a
173.898	6.191	347796	prompt	n/a	nations suite emerging cleaner\n
174.5825	0.105	349165	keystroke_n	n	n/a
174.7175	0.075	349435	keystroke_a	a	n/a
174.8375	0.09	349675	keystroke_t	t	n/a
174.8975	0.135	349795	keystroke_i	i	n/a
174.9725	0.105	349945	keystroke_o	o	n/a
175.1375	0.075	350275	keystroke_n	n	n/a
175.2275	0.06	350455	keystroke_s	s	n/a
175.4675	0.06	350935	keystroke_Key.space	Key.space	n/a
175.7525	0.075	351505	keystroke_s	s	n/a
175.8725	0.15	351745	keystroke_u	u	n/a
175.9625	0.105	351925	keystroke_i	i	n/a
176.1575	0.06	352315	keystroke_t	t	n/a
176.3675	0.03	352735	keystroke_e	e	n/a
176.6675	0.12	353335	keystroke_Key.space	Key.space	n/a
176.9825	0.03	353965	keystroke_e	e	n/a
177.087	0.09	354174	keystroke_m	m	n/a
177.192	0.0905	354384	keystroke_e	e	n/a
177.2975	0.0745	354595	keystroke_r	r	n/a
177.5225	0.075	355045	keystroke_g	g	n/a
177.642	0.0305	355284	keystroke_i	i	n/a
177.762	0.06	355524	keystroke_n	n	n/a
177.852	0.0455	355704	keystroke_g	g	n/a
177.927	0.105	355854	keystroke_Key.space	Key.space	n/a
178.1525	0.075	356305	keystroke_c	c	n/a
178.3775	0.075	356755	keystroke_l	l	n/a
178.513	0.0895	357026	keystroke_e	e	n/a
178.663	0.1045	357326	keystroke_a	a	n/a
178.798	0.0745	357596	keystroke_n	n	n/a
178.993	0.1045	357986	keystroke_e	e	n/a
179.0675	0.075	358135	keystroke_r	r	n/a
180.0125	0.075	360025	keystroke_Key.enter	Key.enter	n/a
180.092	8.2465	360184	prompt	n/a	labeled synthesis deferred newport\n
180.7025	0.12	361405	keystroke_l	l	n/a
180.8075	0.09	361615	keystroke_a	a	n/a
180.9275	0.075	361855	keystroke_b	b	n/a
181.1075	0.045	362215	keystroke_e	e	n/a
181.4225	0.06	362845	keystroke_l	l	n/a
181.9325	0.045	363865	keystroke_e	e	n/a
182.1425	0.03	364285	keystroke_d	d	n/a
182.2925	0.12	364585	keystroke_Key.space	Key.space	n/a
182.4425	0.075	364885	keystroke_s	s	n/a
182.6075	0.075	365215	keystroke_y	y	n/a
182.8625	0.045	365725	keystroke_n	n	n/a
183.5375	0.075	367075	keystroke_t	t	n/a
183.6275	0.09	367255	keystroke_h	h	n/a
184.0325	0.06	368065	keystroke_e	e	n/a
184.3325	0.045	368665	keystroke_s	s	n/a
184.4225	0.075	368845	keystroke_i	i	n/a
184.5275	0.045	369055	keystroke_s	s	n/a
184.8875	0.075	369775	keystroke_Key.space	Key.space	n/a
185.0525	0.045	370105	keystroke_d	d	n/a
185.2175	0.045	370435	keystroke_e	e	n/a
185.3675	0.03	370735	keystroke_f	f	n/a
185.6525	0.06	371305	keystroke_e	e	n/a
185.8325	0.045	371665	keystroke_r	r	n/a
185.9825	0.06	371965	keystroke_r	r	n/a
186.3425	0.06	372685	keystroke_e	e	n/a
186.5375	0.06	373075	keystroke_d	d	n/a
186.6425	0.09	373285	keystroke_Key.space	Key.space	n/a
186.7925	0.075	373585	keystroke_n	n	n/a
186.8525	0.06	373705	keystroke_e	e	n/a
187.0175	0.03	374035	keystroke_w	w	n/a
187.3475	0.06	374695	keystroke_p	p	n/a
187.5275	0.06	375055	keystroke_o	o	n/a
187.6175	0.06	375235	keystroke_r	r	n/a
187.7675	0.045	375535	keystroke_t	t	n/a
188.2625	0.075	376525	keystroke_Key.enter	Key.enter	n/a
188.342	8.487	376684	prompt	n/a	mandatory grill wrestling rugby\n
188.9375	0.12	377875	keystroke_m	m	n/a
189.0875	0.09	378175	keystroke_a	a	n/a
189.2075	0.06	378415	keystroke_n	n	n/a
189.3725	0.06	378745	keystroke_d	d	n/a
189.6125	0.045	379225	keystroke_a	a	n/a
189.9275	0.075	379855	keystroke_Key.backspace	Key.backspace	n/a
190.6475	0.06	381295	keystroke_a	a	n/a
191.0675	0.075	382135	keystroke_t	t	n/a
191.1575	0.075	382315	keystroke_o	o	n/a
191.2925	0.045	382585	keystroke_r	r	n/a
191.3975	0.075	382795	keystroke_y	y	n/a
191.7275	0.09	383455	keystroke_Key.space	Key.space	n/a
192.2525	0.06	384505	keystroke_g	g	n/a
192.3575	0.06	384715	keystroke_r	r	n/a
192.4625	0.06	384925	keystroke_i	i	n/a
192.6575	0.03	385315	keystroke_l	l	n/a
192.7925	0.06	385585	keystroke_l	l	n/a
192.8975	0.105	385795	keystroke_Key.space	Key.space	n/a
193.1225	0.075	386245	keystroke_w	w	n/a
193.3025	0.045	386605	keystroke_r	r	n/a
193.9775	0.06	387955	keystroke_e	e	n/a
194.1575	0.075	388315	keystroke_s	s	n/a
194.3525	0.075	388705	keystroke_t	t	n/a
194.5325	0.09	389065	keystroke_l	l	n/a
194.6825	0.09	389365	keystroke_i	i	n/a
194.8625	0.075	389725	keystroke_n	n	n/a
194.9525	0.075	389905	keystroke_g	g	n/a
195.0125	0.09	390025	keystroke_Key.space	Key.space	n/a
195.1325	0.045	390265	keystroke_r	r	n/a
195.4475	0.045	390895	keystroke_u	u	n/a
195.6425	0.045	391285	keystroke_g	g	n/a
195.9575	0.06	391915	keystroke_b	b	n/a
196.1225	0.06	392245	keystroke_y	y	n/a
196.7675	0.06	393535	keystroke_Key.enter	Key.enter	n/a
196.8315	7.0625	393663	prompt	n/a	terminal feat firewall rachel\n
197.5475	0.06	395095	keystroke_t	t	n/a
197.6675	0.105	395335	keystroke_e	e	n/a
197.7425	0.09	395485	keystroke_r	r	n/a
197.8625	0.09	395725	keystroke_m	m	n/a
198.0275	0.06	396055	keystroke_i	i	n/a
198.1625	0.06	396325	keystroke_n	n	n/a
198.2525	0.075	396505	keystroke_a	a	n/a
198.3725	0.075	396745	keystroke_l	l	n/a
198.5825	0.105	397165	keystroke_Key.space	Key.space	n/a
198.8675	0.075	397735	keystroke_f	f	n/a
199.0625	0.045	398125	keystroke_e	e	n/a
199.1975	0.105	398395	keystroke_a	a	n/a
199.3475	0.075	398695	keystroke_t	t	n/a
200.0075	0.12	400015	keystroke_Key.space	Key.space	n/a
200.2025	0.06	400405	keystroke_f	f	n/a
200.2925	0.075	400585	keystroke_i	i	n/a
200.4125	0.06	400825	keystroke_r	r	n/a
200.5025	0.06	401005	keystroke_e	e	n/a
201.0575	0.075	402115	keystroke_w	w	n/a
201.2225	0.09	402445	keystroke_a	a	n/a
201.3425	0.075	402685	keystroke_l	l	n/a
201.4925	0.075	402985	keystroke_l	l	n/a
201.6725	0.105	403345	keystroke_Key.space	Key.space	n/a
201.8675	0.06	403735	keystroke_r	r	n/a
201.9875	0.09	403975	keystroke_a	a	n/a
202.2125	0.075	404425	keystroke_c	c	n/a
202.6325	0.09	405265	keystroke_h	h	n/a
203.1875	0.06	406375	keystroke_e	e	n/a
203.3375	0.045	406675	keystroke_l	l	n/a
203.8475	0.045	407695	keystroke_Key.enter	Key.enter	n/a
203.897	9.267	407794	prompt	n/a	synthetic beef buck coupled\n
204.7925	0.06	409585	keystroke_s	s	n/a
205.0325	0.06	410065	keystroke_u	u	n/a
205.2425	0.075	410485	keystroke_n	n	n/a
205.8425	0.06	411685	keystroke_Key.backspace	Key.backspace	n/a
205.9775	0.075	411955	keystroke_Key.backspace	Key.backspace	n/a
206.6675	0.075	413335	keystroke_y	y	n/a
206.8775	0.0745	413755	keystroke_n	n	n/a
206.9975	0.075	413995	keystroke_t	t	n/a
207.087	0.0605	414174	keystroke_h	h	n/a
207.447	0.0605	414894	keystroke_e	e	n/a
207.567	0.075	415134	keystroke_t	t	n/a
207.6725	0.06	415345	keystroke_i	i	n/a
207.882	0.0905	415764	keystroke_c	c	n/a
208.782	0.075	417564	keystroke_Key.space	Key.space	n/a
208.977	0.06	417954	keystroke_b	b	n/a
209.067	0.045	418134	keystroke_e	e	n/a
209.217	0.045	418434	keystroke_e	e	n/a
209.367	0.0755	418734	keystroke_f	f	n/a
209.847	0.075	419694	keystroke_Key.space	Key.space	n/a
210.042	0.06	420084	keystroke_b	b	n/a
210.162	0.105	420324	keystroke_u	u	n/a
210.297	0.075	420594	keystroke_c	c	n/a
210.447	0.06	420894	keystroke_k	k	n/a
210.972	0.12	421944	keystroke_Key.space	Key.space	n/a
211.137	0.06	422274	keystroke_c	c	n/a
211.227	0.09	422454	keystroke_o	o	n/a
211.392	0.075	422784	keystroke_u	u	n/a
211.602	0.045	423204	keystroke_p	p	n/a
211.782	0.06	423564	keystroke_l	l	n/a
211.902	0.045	423804	keystroke_e	e	n/a
212.097	0.045	424194	keystroke_d	d	n/a
213.102	0.0605	426204	keystroke_Key.enter	Key.enter	n/a
213.1675	13.991	426335	prompt	n/a	included uzbekistan profiles its\n
213.8075	0.075	427615	keystroke_i	i	n/a
213.9725	0.06	427945	keystroke_n	n	n/a
214.0625	0.06	428125	keystroke_c	c	n/a
214.1525	0.075	428305	keystroke_l	l	n/a
214.3475	0.075	428695	keystroke_u	u	n/a
214.4675	0.06	428935	keystroke_d	d	n/a
214.6475	0.045	429295	keystroke_e	e	n/a
214.8275	0.03	429655	keystroke_d	d	n/a
215.4275	0.075	430855	keystroke_Key.space	Key.space	n/a
215.6225	0.075	431245	keystroke_u	u	n/a
215.9675	0.09	431935	keystroke_z	z	n/a
217.4525	0.045	434905	keystroke_b	b	n/a
217.6925	0.045	435385	keystroke_e	e	n/a
217.7975	0.075	435595	keystroke_k	k	n/a
218.0225	0.06	436045	keystroke_i	i	n/a
218.1275	0.09	436255	keystroke_s	s	n/a
218.9075	0.075	437815	keystroke_t	t	n/a
219.0275	0.105	438055	keystroke_a	a	n/a
219.1775	0.06	438355	keystroke_n	n	n/a
219.3425	0.105	438685	keystroke_Key.space	Key.space	n/a
219.4625	0.075	438925	keystroke_p	p	n/a
219.5825	0.045	439165	keystroke_r	r	n/a
219.7175	0.045	439435	keystroke_o	o	n/a
220.3775	0.105	440755	keystroke_f	f	n/a
220.4675	0.06	440935	keystroke_i	i	n/a
220.6475	0.06	441295	keystroke_l	l	n/a
220.7375	0.06	441475	keystroke_e	e	n/a
221.5025	0.06	443005	keystroke_s	s	n/a
225.254	0.001	450508	keystroke_i	i	n/a
225.852	0.09	451704	keystroke_Key.backspace	Key.backspace	n/a
226.017	0.1495	452034	keystroke_Key.space	Key.space	n/a
226.1965	0.075	452393	keystroke_i	i	n/a
226.3465	0.06	452693	keystroke_t	t	n/a
226.6315	0.0455	453263	keystroke_s	s	n/a
227.0965	0.06	454193	keystroke_Key.enter	Key.enter	n/a
227.1615	6.042	454323	prompt	n/a	corp bite lewis drain\n
227.967	0.0755	455934	keystroke_c	c	n/a
228.1025	0.075	456205	keystroke_o	o	n/a
228.2825	0.03	456565	keystroke_r	r	n/a
228.3875	0.0445	456775	keystroke_p	p	n/a
228.8065	0.12	457613	keystroke_Key.space	Key.space	n/a
229.1815	0.075	458363	keystroke_b	b	n/a
229.3165	0.09	458633	keystroke_i	i	n/a
229.4365	0.06	458873	keystroke_t	t	n/a
229.5715	0.045	459143	keystroke_e	e	n/a
229.9915	0.12	459983	keystroke_Key.space	Key.space	n/a
230.4265	0.075	460853	keystroke_l	l	n/a
230.5165	0.075	461033	keystroke_e	e	n/a
231.0265	0.06	462053	keystroke_w	w	n/a
231.1315	0.06	462263	keystroke_i	i	n/a
231.2365	0.06	462473	keystroke_s	s	n/a
231.5215	0.12	463043	keystroke_Key.space	Key.space	n/a
231.8065	0.06	463613	keystroke_d	d	n/a
232.0015	0.045	464003	keystroke_r	r	n/a
232.1215	0.09	464243	keystroke_a	a	n/a
232.2565	0.075	464513	keystroke_i	i	n/a
232.4065	0.06	464813	keystroke_n	n	n/a
233.1265	0.075	466253	keystroke_Key.enter	Key.enter	n/a
233.2065	9.192	466413	prompt	n/a	random family reggae shelf\n
234.0415	0.045	468083	keystroke_r	r	n/a
234.1615	0.075	468323	keystroke_a	a	n/a
234.2815	0.075	468563	keystroke_n	n	n/a
234.3715	0.06	468743	keystroke_d	d	n/a
234.4775	0.059	468955	keystroke_o	o	n/a
234.6115	0.09	469223	keystroke_m	m	n/a
235.4365	0.061	470873	keystroke_f	f	n/a
235.7065	0.075	471413	keystroke_a	a	n/a
236.2315	0.03	472463	keystroke_Key.backspace	Key.backspace	n/a
236.3515	0.075	472703	keystroke_Key.backspace	Key.backspace	n/a
236.5615	0.105	473123	keystroke_Key.space	Key.space	n/a
237.1765	0.09	474353	keystroke_f	f	n/a
237.3565	0.091	474713	keystroke_a	a	n/a
237.5225	0.104	475045	keystroke_m	m	n/a
237.7475	0.059	475495	keystroke_i	i	n/a
237.8975	0.075	475795	keystroke_l	l	n/a
238.1515	0.046	476303	keystroke_y	y	n/a
238.9765	0.12	477953	keystroke_Key.space	Key.space	n/a
239.3225	0.059	478645	keystroke_r	r	n/a
239.5615	0.06	479123	keystroke_e	e	n/a
239.8015	0.06	479603	keystroke_g	g	n/a
240.0865	0.09	480173	keystroke_g	g	n/a
240.2675	0.089	480535	keystroke_a	a	n/a
240.6565	0.06	481313	keystroke_e	e	n/a
241.2265	0.105	482453	keystroke_Key.space	Key.space	n/a
241.6165	0.06	483233	keystroke_s	s	n/a
241.6915	0.076	483383	keystroke_h	h	n/a
241.7975	0.044	483595	keystroke_e	e	n/a
241.9475	0.029	483895	keystroke_l	l	n/a
242.0075	0.029	484015	keystroke_f	f	n/a
242.3515	0.045	484703	keystroke_Key.enter	Key.enter	n/a
242.4015	6.432	484803	prompt	n/a	campbell wage danger quote\n
243.0565	0.076	486113	keystroke_c	c	n/a
243.2825	0.074	486565	keystroke_a	a	n/a
243.3575	0.134	486715	keystroke_m	m	n/a
243.4925	0.059	486985	keystroke_p	p	n/a
244.1225	0.075	488245	keystroke_b	b	n/a
244.4065	0.061	488813	keystroke_e	e	n/a
244.6325	0.044	489265	keystroke_l	l	n/a
244.7815	0.061	489563	keystroke_l	l	n/a
244.9925	0.074	489985	keystroke_Key.space	Key.space	n/a
245.2175	0.044	490435	keystroke_w	w	n/a
245.4115	0.061	490823	keystroke_a	a	n/a
245.5315	0.075	491063	keystroke_g	g	n/a
245.7265	0.03	491453	keystroke_e	e	n/a
246.1465	0.12	492293	keystroke_Key.space	Key.space	n/a
246.4615	0.075	492923	keystroke_d	d	n/a
246.6115	0.09	493223	keystroke_a	a	n/a
246.7165	0.076	493433	keystroke_n	n	n/a
246.8065	0.075	493613	keystroke_g	g	n/a
246.9865	0.105	493973	keystroke_e	e	n/a
247.0615	0.075	494123	keystroke_r	r	n/a
247.4515	0.12	494903	keystroke_Key.space	Key.space	n/a
248.0515	0.075	496103	keystroke_q	q	n/a
248.1565	0.09	496313	keystroke_u	u	n/a
248.2915	0.105	496583	keystroke_o	o	n/a
248.4115	0.06	496823	keystroke_t	t	n/a
248.5615	0.045	497123	keystroke_e	e	n/a
248.7865	0.045	497573	keystroke_Key.enter	Key.enter	n/a
248.8365	6.507	497673	prompt	n/a	desire many watershed glass\n
249.4915	0.075	498983	keystroke_d	d	n/a
249.8225	0.044	499645	keystroke_e	e	n/a
249.9725	0.059	499945	keystroke_s	s	n/a
250.1065	0.091	500213	keystroke_i	i	n/a
250.2565	0.075	500513	keystroke_r	r	n/a
250.3765	0.06	500753	keystroke_e	e	n/a
250.8115	0.105	501623	keystroke_Key.space	Key.space	n/a
251.0225	0.059	502045	keystroke_m	m	n/a
251.1115	0.075	502223	keystroke_a	a	n/a
251.2015	0.075	502403	keystroke_n	n	n/a
251.3975	0.075	502795	keystroke_y	y	n/a
251.5765	0.12	503153	keystroke_Key.space	Key.space	n/a
251.8015	0.075	503603	keystroke_w	w	n/a
251.9815	0.061	503963	keystroke_a	a	n/a
252.1015	0.075	504203	keystroke_t	t	n/a
252.2515	0.105	504503	keystroke_e	e	n/a
252.3265	0.09	504653	keystroke_r	r	n/a
252.6425	0.059	505285	keystroke_s	s	n/a
252.7615	0.105	505523	keystroke_h	h	n/a
252.8965	0.045	505793	keystroke_e	e	n/a
253.0925	0.044	506185	keystroke_d	d	n/a
253.3165	0.09	506633	keystroke_Key.space	Key.space	n/a
253.6925	0.075	507385	keystroke_l	l	n/a
254.0665	0.06	508133	keystroke_Key.backspace	Key.backspace	n/a
254.3675	0.074	508735	keystroke_g	g	n/a
254.4725	0.074	508945	keystroke_l	l	n/a
254.5765	0.091	509153	keystroke_a	a	n/a
254.7865	0.075	509573	keystroke_s	s	n/a
254.9375	0.075	509875	keystroke_s	s	n/a
255.2815	0.06	510563	keystroke_Key.enter	Key.enter	n/a
255.346	13.378	510692	prompt	n/a	king implied cornell holland\n
256.1065	0.061	512213	keystroke_k	k	n/a
256.2725	0.059	512545	keystroke_i	i	n/a
256.4515	0.061	512903	keystroke_n	n	n/a
256.5425	0.044	513085	keystroke_g	g	n/a
256.6315	0.075	513263	keystroke_Key.space	Key.space	n/a
256.7975	0.089	513595	keystroke_i	i	n/a
256.9615	0.136	513923	keystroke_m	m	n/a
257.1725	0.089	514345	keystroke_p	p	n/a
257.8175	0.06	515635	keystroke_i	i	n/a
258.0265	0.046	516053	keystroke_l	l	n/a
258.1925	0.059	516385	keystroke_i	i	n/a
258.3275	0.045	516655	keystroke_e	e	n/a
258.5225	0.045	517045	keystroke_d	d	n/a
258.6725	0.104	517345	keystroke_Key.space	Key.space	n/a
258.9265	0.061	517853	keystroke_c	c	n/a
259.0025	0.075	518005	keystroke_o	o	n/a
260.2315	0.045	520463	keystroke_Key.backspace	Key.backspace	n/a
260.4265	0.046	520853	keystroke_Key.backspace	Key.backspace	n/a
260.6075	0.06	521215	keystroke_Key.backspace	Key.backspace	n/a
260.7875	0.075	521575	keystroke_Key.backspace	Key.backspace	n/a
261.1175	0.09	522235	keystroke_Key.backspace	Key.backspace	n/a
261.6725	0.059	523345	keystroke_Key.backspace	Key.backspace	n/a
262.7975	0.075	525595	keystroke_Key.backspace	Key.backspace	n/a
263.0965	0.06	526193	keystroke_Key.backspace	Key.backspace	n/a
263.7575	0.09	527515	keystroke_l	l	n/a
264.3275	0.075	528655	keystroke_i	i	n/a
264.5065	0.061	529013	keystroke_e	e	n/a
264.6875	0.06	529375	keystroke_d	d	n/a
264.8525	0.105	529705	keystroke_Key.space	Key.space	n/a
265.3025	0.06	530605	keystroke_c	c	n/a
265.4225	0.06	530845	keystroke_o	o	n/a
265.9025	0.06	531805	keystroke_r	r	n/a
266.1425	0.045	532285	keystroke_n	n	n/a
266.2475	0.03	532495	keystroke_e	e	n/a
266.8775	0.06	533755	keystroke_l	l	n/a
267.0575	0.075	534115	keystroke_l	l	n/a
267.1775	0.135	534355	keystroke_Key.space	Key.space	n/a
267.4475	0.12	534895	keystroke_h	h	n/a
267.5375	0.075	535075	keystroke_o	o	n/a
267.7775	0.045	535555	keystroke_l	l	n/a
267.8975	0.105	535795	keystroke_l	l	n/a
268.1075	0.075	536215	keystroke_a	a	n/a
268.2125	0.045	536425	keystroke_n	n	n/a
268.3025	0.06	536605	keystroke_d	d	n/a
268.6625	0.06	537325	keystroke_Key.enter	Key.enter	n/a
268.7285	6.7155	537457	prompt	n/a	navigation stops norfolk sending\n
269.3675	0.075	538735	keystroke_n	n	n/a
269.5175	0.06	539035	keystroke_a	a	n/a
269.8475	0.03	539695	keystroke_v	v	n/a
269.9825	0.06	539965	keystroke_i	i	n/a
270.1925	0.075	540385	keystroke_g	g	n/a
270.3425	0.09	540685	keystroke_a	a	n/a
270.4475	0.105	540895	keystroke_t	t	n/a
270.5225	0.09	541045	keystroke_i	i	n/a
270.5825	0.075	541165	keystroke_o	o	n/a
270.7325	0.06	541465	keystroke_n	n	n/a
270.8525	0.105	541705	keystroke_Key.space	Key.space	n/a
270.9425	0.06	541885	keystroke_s	s	n/a
271.1225	0.045	542245	keystroke_t	t	n/a
271.1525	0.15	542305	keystroke_o	o	n/a
271.2275	0.105	542455	keystroke_p	p	n/a
271.4225	0.09	542845	keystroke_s	s	n/a
271.5425	0.135	543085	keystroke_Key.space	Key.space	n/a
272.5925	0.105	545185	keystroke_n	n	n/a
272.6675	0.12	545335	keystroke_o	o	n/a
272.8625	0.045	545725	keystroke_r	r	n/a
273.0725	0.06	546145	keystroke_f	f	n/a
273.2075	0.06	546415	keystroke_o	o	n/a
273.3875	0.09	546775	keystroke_l	l	n/a
273.5225	0.09	547045	keystroke_k	k	n/a
273.7025	0.135	547405	keystroke_Key.space	Key.space	n/a
274.0625	0.045	548125	keystroke_s	s	n/a
274.2425	0.03	548485	keystroke_e	e	n/a
274.3625	0.06	548725	keystroke_n	n	n/a
274.4525	0.045	548905	keystroke_d	d	n/a
274.5725	0.045	549145	keystroke_i	i	n/a
274.6775	0.075	549355	keystroke_n	n	n/a
274.7825	0.0595	549565	keystroke_g	g	n/a
275.3825	0.0595	550765	keystroke_Key.enter	Key.enter	n/a
275.4465	8.397	550893	prompt	n/a	afghanistan relatively special community\n
276.0875	0.075	552175	keystroke_a	a	n/a
276.2075	0.0895	552415	keystroke_f	f	n/a
276.402	0.0455	552804	keystroke_a	a	n/a
276.8525	0.075	553705	keystroke_Key.backspace	Key.backspace	n/a
277.062	0.045	554124	keystroke_g	g	n/a
277.872	0.045	555744	keystroke_h	h	n/a
277.992	0.0605	555984	keystroke_a	a	n/a
278.082	0.09	556164	keystroke_n	n	n/a
278.277	0.0455	556554	keystroke_i	i	n/a
278.412	0.0755	556824	keystroke_s	s	n/a
278.6375	0.0595	557275	keystroke_t	t	n/a
278.742	0.09	557484	keystroke_a	a	n/a
278.877	0.0605	557754	keystroke_n	n	n/a
279.087	0.09	558174	keystroke_Key.space	Key.space	n/a
279.312	0.06	558624	keystroke_r	r	n/a
279.417	0.075	558834	keystroke_e	e	n/a
279.537	0.09	559074	keystroke_l	l	n/a
280.152	0.06	560304	keystroke_a	a	n/a
280.272	0.075	560544	keystroke_t	t	n/a
280.377	0.075	560754	keystroke_i	i	n/a
280.542	0.06	561084	keystroke_v	v	n/a
280.677	0.06	561354	keystroke_e	e	n/a
280.782	0.09	561564	keystroke_l	l	n/a
281.007	0.075	562014	keystroke_y	y	n/a
281.187	0.09	562374	keystroke_Key.space	Key.space	n/a
281.217	0.09	562434	keystroke_s	s	n/a
281.337	0.06	562674	keystroke_p	p	n/a
281.427	0.045	562854	keystroke_e	e	n/a
281.577	0.075	563154	keystroke_c	c	n/a
281.667	0.06	563334	keystroke_i	i	n/a
281.802	0.075	563604	keystroke_a	a	n/a
281.907	0.075	563814	keystroke_l	l	n/a
282.042	0.105	564084	keystroke_Key.space	Key.space	n/a
282.312	0.075	564624	keystroke_c	c	n/a
282.402	0.045	564804	keystroke_o	o	n/a
282.552	0.045	565104	keystroke_m	m	n/a
282.687	0.09	565374	keystroke_m	m	n/a
282.897	0.06	565794	keystroke_u	u	n/a
283.047	0.12	566094	keystroke_n	n	n/a
283.152	0.09	566304	keystroke_i	i	n/a
283.302	0.045	566604	keystroke_t	t	n/a
283.392	0.075	566784	keystroke_y	y	n/a
283.797	0.045	567594	keystroke_Key.enter	Key.enter	n/a
283.8475	10.062	567695	prompt	n/a	lord figures ma'am ambassador\n
284.532	0.09	569064	keystroke_l	l	n/a
284.697	0.09	569394	keystroke_o	o	n/a
285.162	0.075	570324	keystroke_r	r	n/a
285.432	0.06	570864	keystroke_d	d	n/a
285.657	0.105	571314	keystroke_Key.space	Key.space	n/a
285.927	0.045	571854	keystroke_f	f	n/a
285.987	0.09	571974	keystroke_i	i	n/a
286.122	0.045	572244	keystroke_g	g	n/a
286.212	0.06	572424	keystroke_u	u	n/a
286.317	0.045	572634	keystroke_r	r	n/a
286.422	0.06	572844	keystroke_e	e	n/a
286.602	0.06	573204	keystroke_s	s	n/a
287.127	0.06	574254	keystroke_Key.space	Key.space	n/a
287.487	0.075	574974	keystroke_m	m	n/a
287.622	0.045	575244	keystroke_a	a	n/a
288.417	0.09	576834	keystroke_'	'	n/a
288.702	0.09	577404	keystroke_a	a	n/a
288.807	0.06	577614	keystroke_m	m	n/a
289.587	0.09	579174	keystroke_Key.space	Key.space	n/a
289.797	0.075	579594	keystroke_a	a	n/a
289.857	0.075	579714	keystroke_m	m	n/a
289.992	0.06	579984	keystroke_a	a	n/a
290.502	0.075	581004	keystroke_b	b	n/a
290.982	0.06	581964	keystroke_Key.backspace	Key.backspace	n/a
291.117	0.06	582234	keystroke_Key.backspace	Key.backspace	n/a
291.432	0.06	582864	keystroke_b	b	n/a
292.122	0.075	584244	keystroke_a	a	n/a
292.332	0.075	584664	keystroke_s	s	n/a
292.497	0.075	584994	keystroke_s	s	n/a
292.707	0.105	585414	keystroke_a	a	n/a
293.022	0.075	586044	keystroke_d	d	n/a
293.142	0.06	586284	keystroke_o	o	n/a
293.247	0.045	586494	keystroke_r	r	n/a
293.847	0.06	587694	keystroke_Key.enter	Key.enter	n/a
293.913	10.826	587826	prompt	n/a	empty knowledgestorm trembl lower\n
294.627	0.06	589254	keystroke_e	e	n/a
294.732	0.15	589464	keystroke_m	m	n/a
294.882	0.075	589764	keystroke_p	p	n/a
295.167	0.06	590334	keystroke_t	t	n/a
295.257	0.09	590514	keystroke_y	y	n/a
295.752	0.075	591504	keystroke_Key.space	Key.space	n/a
296.127	0.09	592254	keystroke_k	k	n/a
296.232	0.12	592464	keystroke_n	n	n/a
296.322	0.105	592644	keystroke_o	o	n/a
296.442	0.045	592884	keystroke_w	w	n/a
297.102	0.09	594204	keystroke_l	l	n/a
297.237	0.045	594474	keystroke_e	e	n/a
297.417	0.075	594834	keystroke_d	d	n/a
297.582	0.075	595164	keystroke_g	g	n/a
297.747	0.03	595494	keystroke_e	e	n/a
298.287	0.06	596574	keystroke_s	s	n/a
298.767	0.075	597534	keystroke_t	t	n/a
298.872	0.105	597744	keystroke_o	o	n/a
298.992	0.045	597984	keystroke_r	r	n/a
299.127	0.06	598254	keystroke_m	m	n/a
299.802	0.09	599604	keystroke_Key.space	Key.space	n/a
301.452	0.09	602904	keystroke_t	t	n/a
301.902	0.045	603804	keystroke_r	r	n/a
302.442	0.03	604884	keystroke_e	e	n/a
302.862	0.076	605724	keystroke_m	m	n/a
303.102	0.045	606204	keystroke_b	b	n/a
303.357	0.045	606714	keystroke_l	l	n/a
303.732	0.09	607464	keystroke_Key.space	Key.space	n/a
303.867	0.075	607734	keystroke_l	l	n/a
304.047	0.075	608094	keystroke_o	o	n/a
304.138	0.075	608276	keystroke_w	w	n/a
304.242	0.09	608484	keystroke_e	e	n/a
304.317	0.06	608634	keystroke_r	r	n/a
304.692	0.045	609384	keystroke_Key.enter	Key.enter	n/a
304.7425	13.0315	609485	prompt	n/a	characterized separately virtual thrown\n
305.517	0.075	611034	keystroke_s	s	n/a
305.907	0.075	611814	keystroke_Key.backspace	Key.backspace	n/a
306.013	0.075	612026	keystroke_c	c	n/a
306.192	0.015	612384	keystroke_h	h	n/a
306.252	0.105	612504	keystroke_a	a	n/a
306.552	0.045	613104	keystroke_r	r	n/a
306.657	0.075	613314	keystroke_a	a	n/a
306.883	0.089	613766	keystroke_c	c	n/a
307.152	0.045	614304	keystroke_t	t	n/a
307.257	0.09	614514	keystroke_e	e	n/a
307.317	0.075	614634	keystroke_r	r	n/a
307.977	0.061	615954	keystroke_i	i	n/a
308.097	0.12	616194	keystroke_z	z	n/a
308.352	0.075	616704	keystroke_e	e	n/a
308.592	0.046	617184	keystroke_d	d	n/a
308.667	0.12	617334	keystroke_Key.space	Key.space	n/a
308.788	0.075	617576	keystroke_s	s	n/a
309.013	0.014	618026	keystroke_e	e	n/a
309.147	0.075	618294	keystroke_p	p	n/a
310.527	0.136	621054	keystroke_a	a	n/a
310.677	0.075	621354	keystroke_r	r	n/a
310.962	0.076	621924	keystroke_a	a	n/a
311.097	0.06	622194	keystroke_t	t	n/a
311.277	0.045	622554	keystroke_e	e	n/a
311.352	0.075	622704	keystroke_l	l	n/a
311.592	0.06	623184	keystroke_y	y	n/a
311.997	0.12	623994	keystroke_Key.space	Key.space	n/a
312.327	0.061	624654	keystroke_i	i	n/a
312.763	0.059	625526	keystroke_Key.backspace	Key.backspace	n/a
312.868	0.09	625736	keystroke_c	c	n/a
313.137	0.061	626274	keystroke_i	i	n/a
313.527	0.075	627054	keystroke_Key.backspace	Key.backspace	n/a
313.663	0.059	627326	keystroke_Key.backspace	Key.backspace	n/a
314.323	0.06	628646	keystroke_v	v	n/a
314.428	0.06	628856	keystroke_i	i	n/a
314.563	0.045	629126	keystroke_r	r	n/a
314.803	0.075	629606	keystroke_t	t	n/a
314.983	0.044	629966	keystroke_u	u	n/a
315.042	0.121	630084	keystroke_a	a	n/a
315.222	0.061	630444	keystroke_l	l	n/a
315.447	0.075	630894	keystroke_Key.space	Key.space	n/a
315.688	0.075	631376	keystroke_t	t	n/a
315.747	0.045	631494	keystroke_h	h	n/a
315.838	0.044	631676	keystroke_r	r	n/a
315.943	0.074	631886	keystroke_o	o	n/a
316.093	0.06	632186	keystroke_w	w	n/a
316.198	0.03	632396	keystroke_n	n	n/a
317.713	0.06	635426	keystroke_Key.enter	Key.enter	n/a
317.7775	9.266	635555	prompt	n/a	reporters safari spears cardiff\n
318.583	0.06	637166	keystroke_r	r	n/a
318.688	0.06	637376	keystroke_e	e	n/a
318.853	0.09	637706	keystroke_p	p	n/a
319.048	0.06	638096	keystroke_o	o	n/a
319.123	0.06	638246	keystroke_r	r	n/a
319.288	0.06	638576	keystroke_t	t	n/a
319.513	0.075	639026	keystroke_e	e	n/a
319.573	0.06	639146	keystroke_r	r	n/a
319.888	0.06	639776	keystroke_s	s	n/a
320.563	0.12	641126	keystroke_Key.space	Key.space	n/a
320.848	0.06	641696	keystroke_s	s	n/a
321.028	0.045	642056	keystroke_a	a	n/a
321.193	0.06	642386	keystroke_f	f	n/a
321.418	0.045	642836	keystroke_a	a	n/a
321.673	0.06	643346	keystroke_r	r	n/a
321.808	0.06	643616	keystroke_i	i	n/a
322.408	0.105	644816	keystroke_Key.space	Key.space	n/a
322.558	0.06	645116	keystroke_s	s	n/a
322.828	0.06	645656	keystroke_p	p	n/a
322.9325	0.0605	645865	keystroke_e	e	n/a
323.128	0.0745	646256	keystroke_a	a	n/a
323.2325	0.0905	646465	keystroke_r	r	n/a
323.5325	0.0455	647065	keystroke_s	s	n/a
324.0125	0.135	648025	keystroke_Key.space	Key.space	n/a
324.1625	0.105	648325	keystroke_c	c	n/a
324.4025	0.06	648805	keystroke_a	a	n/a
324.5675	0.045	649135	keystroke_r	r	n/a
324.8675	0.045	649735	keystroke_d	d	n/a
325.2575	0.075	650515	keystroke_i	i	n/a
325.6025	0.045	651205	keystroke_f	f	n/a
325.7375	0.045	651475	keystroke_f	f	n/a
326.9675	0.075	653935	keystroke_Key.enter	Key.enter	n/a
327.047	7.3315	654094	prompt	n/a	to interact lookup makeup\n
327.9725	0.045	655945	keystroke_t	t	n/a
328.0625	0.105	656125	keystroke_o	o	n/a
328.1825	0.135	656365	keystroke_Key.space	Key.space	n/a
328.3175	0.075	656635	keystroke_i	i	n/a
328.4825	0.075	656965	keystroke_n	n	n/a
328.5725	0.06	657145	keystroke_t	t	n/a
328.7075	0.12	657415	keystroke_e	e	n/a
328.8875	0.045	657775	keystroke_r	r	n/a
329.1725	0.09	658345	keystroke_a	a	n/a
329.3825	0.06	658765	keystroke_c	c	n/a
329.6525	0.06	659305	keystroke_t	t	n/a
329.7575	0.09	659515	keystroke_Key.space	Key.space	n/a
329.9825	0.075	659965	keystroke_l	l	n/a
330.2075	0.045	660415	keystroke_o	o	n/a
330.3275	0.075	660655	keystroke_o	o	n/a
330.5225	0.075	661045	keystroke_k	k	n/a
331.0925	0.06	662185	keystroke_u	u	n/a
331.3625	0.045	662725	keystroke_p	p	n/a
331.9025	0.105	663805	keystroke_Key.space	Key.space	n/a
332.0825	0.075	664165	keystroke_m	m	n/a
332.2025	0.075	664405	keystroke_a	a	n/a
332.3375	0.045	664675	keystroke_k	k	n/a
332.4275	0.015	664855	keystroke_e	e	n/a
332.9225	0.06	665845	keystroke_u	u	n/a
333.1775	0.03	666355	keystroke_p	p	n/a
334.3175	0.06	668635	keystroke_Key.enter	Key.enter	n/a
334.3815	7.273	668763	prompt	n/a	widely ntsc tamil cope\n
335.0825	0.06	670165	keystroke_w	w	n/a
335.1725	0.075	670345	keystroke_i	i	n/a
335.2775	0.075	670555	keystroke_d	d	n/a
335.5025	0.03	671005	keystroke_e	e	n/a
335.5925	0.075	671185	keystroke_l	l	n/a
335.9375	0.09	671875	keystroke_y	y	n/a
336.2975	0.135	672595	keystroke_Key.space	Key.space	n/a
336.4925	0.06	672985	keystroke_i	i	n/a
336.8675	0.06	673735	keystroke_Key.backspace	Key.backspace	n/a
337.1225	0.06	674245	keystroke_n	n	n/a
337.2725	0.045	674545	keystroke_t	t	n/a
337.5575	0.075	675115	keystroke_s	s	n/a
337.7375	0.06	675475	keystroke_c	c	n/a
338.2025	0.105	676405	keystroke_Key.space	Key.space	n/a
338.5625	0.075	677125	keystroke_t	t	n/a
338.7275	0.09	677455	keystroke_a	a	n/a
338.8775	0.12	677755	keystroke_m	m	n/a
339.1175	0.015	678235	keystroke_i	i	n/a
339.2825	0.06	678565	keystroke_l	l	n/a
339.807	0.1355	679614	keystroke_Key.space	Key.space	n/a
339.9725	0.09	679945	keystroke_c	c	n/a
340.182	0.1355	680364	keystroke_o	o	n/a
340.257	0.105	680514	keystroke_p	p	n/a
340.422	0.06	680844	keystroke_e	e	n/a
341.577	0.0755	683154	keystroke_Key.enter	Key.enter	n/a
341.657	12.552	683314	prompt	n/a	consists invitations addressing residential\n
342.4175	0.0745	684835	keystroke_c	c	n/a
342.522	0.06	685044	keystroke_o	o	n/a
342.642	0.075	685284	keystroke_n	n	n/a
342.717	0.075	685434	keystroke_s	s	n/a
342.852	0.045	685704	keystroke_i	i	n/a
342.927	0.06	685854	keystroke_s	s	n/a
343.272	0.075	686544	keystroke_t	t	n/a
343.467	0.06	686934	keystroke_s	s	n/a
343.842	0.135	687684	keystroke_Key.space	Key.space	n/a
343.992	0.06	687984	keystroke_i	i	n/a
344.127	0.06	688254	keystroke_n	n	n/a
344.202	0.045	688404	keystroke_v	v	n/a
344.337	0.03	688674	keystroke_i	i	n/a
346.122	0.06	692244	keystroke_t	t	n/a
346.317	0.045	692634	keystroke_a	a	n/a
346.362	0.09	692724	keystroke_t	t	n/a
346.497	0.12	692994	keystroke_i	i	n/a
346.572	0.075	693144	keystroke_o	o	n/a
346.737	0.045	693474	keystroke_n	n	n/a
347.622	0.06	695244	keystroke_s	s	n/a
347.877	0.12	695754	keystroke_Key.space	Key.space	n/a
348.117	0.076	696234	keystroke_a	a	n/a
348.387	0.06	696774	keystroke_d	d	n/a
348.537	0.076	697074	keystroke_d	d	n/a
348.927	0.06	697854	keystroke_r	r	n/a
349.152	0.061	698304	keystroke_e	e	n/a
349.468	0.045	698936	keystroke_s	s	n/a
349.6175	0.06	699235	keystroke_s	s	n/a
349.9025	0.06	699805	keystroke_i	i	n/a
350.083	0.0745	700166	keystroke_n	n	n/a
350.1725	0.0455	700345	keystroke_g	g	n/a
350.7275	0.1205	701455	keystroke_Key.space	Key.space	n/a
350.8615	0.061	701723	keystroke_r	r	n/a
350.997	0.0755	701994	keystroke_e	e	n/a
351.1625	0.06	702325	keystroke_s	s	n/a
351.3425	0.06	702685	keystroke_i	i	n/a
351.5525	0.06	703105	keystroke_d	d	n/a
351.8225	0.045	703645	keystroke_e	e	n/a
351.9275	0.075	703855	keystroke_n	n	n/a
352.1375	0.045	704275	keystroke_t	t	n/a
352.2575	0.06	704515	keystroke_i	i	n/a
352.3625	0.075	704725	keystroke_a	a	n/a
352.4675	0.045	704935	keystroke_l	l	n/a
354.1625	0.045	708325	keystroke_Key.enter	Key.enter	n/a
354.2125	9.7765	708425	prompt	n/a	novels consider candles something's\n
355.0475	0.12	710095	keystroke_n	n	n/a
355.1525	0.09	710305	keystroke_o	o	n/a
355.2275	0.045	710455	keystroke_v	v	n/a
355.3775	0.045	710755	keystroke_e	e	n/a
355.4675	0.06	710935	keystroke_l	l	n/a
355.5725	0.06	711145	keystroke_s	s	n/a
356.4725	0.12	712945	keystroke_Key.space	Key.space	n/a
356.6075	0.09	713215	keystroke_c	c	n/a
356.6825	0.09	713365	keystroke_o	o	n/a
356.8025	0.09	713605	keystroke_n	n	n/a
356.8775	0.075	713755	keystroke_s	s	n/a
356.9975	0.06	713995	keystroke_i	i	n/a
357.0725	0.03	714145	keystroke_d	d	n/a
357.2375	0.12	714475	keystroke_e	e	n/a
357.3425	0.06	714685	keystroke_r	r	n/a
357.8975	0.12	715795	keystroke_Key.space	Key.space	n/a
358.1525	0.045	716305	keystroke_c	c	n/a
358.5275	0.075	717055	keystroke_a	a	n/a
358.6175	0.045	717235	keystroke_n	n	n/a
358.7675	0.06	717535	keystroke_d	d	n/a
359.0525	0.06	718105	keystroke_l	l	n/a
359.2025	0.03	718405	keystroke_e	e	n/a
359.4125	0.06	718825	keystroke_s	s	n/a
360.2675	0.12	720535	keystroke_Key.space	Key.space	n/a
360.5525	0.045	721105	keystroke_s	s	n/a
360.6125	0.075	721225	keystroke_o	o	n/a
360.7775	0.075	721555	keystroke_m	m	n/a
361.6475	0.075	723295	keystroke_e	e	n/a
361.8725	0.075	723745	keystroke_t	t	n/a
361.9625	0.135	723925	keystroke_h	h	n/a
362.0675	0.075	724135	keystroke_i	i	n/a
362.2475	0.06	724495	keystroke_n	n	n/a
362.3225	0.06	724645	keystroke_g	g	n/a
362.6525	0.075	725305	keystroke_'	'	n/a
362.8775	0.075	725755	keystroke_s	s	n/a
363.9275	0.06	727855	keystroke_Key.enter	Key.enter	n/a
363.992	10.677	727984	prompt	n/a	daniel variations listprice hungry\n
364.6175	0.06	729235	keystroke_d	d	n/a
364.7975	0.075	729595	keystroke_a	a	n/a
364.9175	0.06	729835	keystroke_n	n	n/a
365.2775	0.06	730555	keystroke_i	i	n/a
365.3825	0.045	730765	keystroke_e	e	n/a
365.5325	0.045	731065	keystroke_l	l	n/a
365.9675	0.12	731935	keystroke_Key.space	Key.space	n/a
366.2525	0.06	732505	keystroke_v	v	n/a
366.4325	0.075	732865	keystroke_a	a	n/a
366.5975	0.03	733195	keystroke_r	r	n/a
366.9725	0.06	733945	keystroke_i	i	n/a
367.7225	0.06	735445	keystroke_a	a	n/a
367.9175	0.06	735835	keystroke_t	t	n/a
367.9625	0.12	735925	keystroke_i	i	n/a
368.0375	0.075	736075	keystroke_o	o	n/a
368.1725	0.075	736345	keystroke_n	n	n/a
368.2925	0.075	736585	keystroke_s	s	n/a
368.8175	0.105	737635	keystroke_Key.space	Key.space	n/a
368.9825	0.09	737965	keystroke_l	l	n/a
369.1475	0.09	738295	keystroke_i	i	n/a
369.2825	0.06	738565	keystroke_s	s	n/a
369.5375	0.06	739075	keystroke_t	t	n/a
370.6925	0.105	741385	keystroke_p	p	n/a
370.8125	0.06	741625	keystroke_r	r	n/a
370.9025	0.09	741805	keystroke_i	i	n/a
371.1725	0.075	742345	keystroke_c	c	n/a
371.3075	0.06	742615	keystroke_e	e	n/a
372.0275	0.135	744055	keystroke_Key.space	Key.space	n/a
372.3275	0.105	744655	keystroke_h	h	n/a
372.4025	0.105	744805	keystroke_u	u	n/a
372.5825	0.075	745165	keystroke_n	n	n/a
372.6725	0.045	745345	keystroke_g	g	n/a
372.8225	0.03	745645	keystroke_r	r	n/a
372.9275	0.075	745855	keystroke_y	y	n/a
374.6525	0.015	749305	keystroke_Key.enter	Key.enter	n/a
374.6735	6.6405	749347	prompt	n/a	relevant heroes numbers beads\n
375.5225	0.075	751045	keystroke_r	r	n/a
375.7025	0.045	751405	keystroke_e	e	n/a
376.1675	0.075	752335	keystroke_l	l	n/a
376.3025	0.06	752605	keystroke_e	e	n/a
376.6025	0.075	753205	keystroke_v	v	n/a
376.7525	0.075	753505	keystroke_a	a	n/a
376.8725	0.075	753745	keystroke_n	n	n/a
376.9625	0.045	753925	keystroke_t	t	n/a
377.0675	0.075	754135	keystroke_Key.space	Key.space	n/a
377.2475	0.075	754495	keystroke_h	h	n/a
377.3225	0.075	754645	keystroke_e	e	n/a
377.4125	0.075	754825	keystroke_r	r	n/a
377.6075	0.075	755215	keystroke_o	o	n/a
377.7125	0.06	755425	keystroke_e	e	n/a
377.8925	0.045	755785	keystroke_s	s	n/a
378.057	0.105	756114	keystroke_Key.space	Key.space	n/a
378.403	0.089	756806	keystroke_n	n	n/a
378.552	0.076	757104	keystroke_u	u	n/a
378.717	0.12	757434	keystroke_m	m	n/a
378.972	0.061	757944	keystroke_b	b	n/a
379.047	0.045	758094	keystroke_e	e	n/a
379.078	0.089	758156	keystroke_r	r	n/a
379.287	0.06	758574	keystroke_s	s	n/a
379.453	0.089	758906	keystroke_Key.space	Key.space	n/a
379.603	0.075	759206	keystroke_l	l	n/a
379.933	0.067	759866	keystroke_Key.backspace	Key.backspace	n/a
380.203	0.045	760406	keystroke_b	b	n/a
380.278	0.12	760556	keystroke_e	e	n/a
380.413	0.09	760826	keystroke_a	a	n/a
380.608	0.059	761216	keystroke_d	d	n/a
380.742	0.075	761484	keystroke_s	s	n/a
381.267	0.045	762534	keystroke_Key.enter	Key.enter	n/a
381.3175	5.757	762635	prompt	n/a	looks easy certain segment\n
382.153	0.075	764306	keystroke_l	l	n/a
382.363	0.045	764726	keystroke_o	o	n/a
382.467	0.076	764934	keystroke_o	o	n/a
382.648	0.075	765296	keystroke_k	k	n/a
382.738	0.075	765476	keystroke_s	s	n/a
382.797	0.106	765594	keystroke_Key.space	Key.space	n/a
382.933	0.075	765866	keystroke_e	e	n/a
383.053	0.09	766106	keystroke_a	a	n/a
383.218	0.09	766436	keystroke_s	s	n/a
383.323	0.075	766646	keystroke_y	y	n/a
383.503	0.09	767006	keystroke_Key.space	Key.space	n/a
383.697	0.046	767394	keystroke_c	c	n/a
383.847	0.076	767694	keystroke_e	e	n/a
383.953	0.089	767906	keystroke_r	r	n/a
384.163	0.06	768326	keystroke_t	t	n/a
384.268	0.09	768536	keystroke_a	a	n/a
384.358	0.06	768716	keystroke_i	i	n/a
384.493	0.074	768986	keystroke_n	n	n/a
384.613	0.134	769226	keystroke_Key.space	Key.space	n/a
385.228	0.12	770456	keystroke_s	s	n/a
385.408	0.06	770816	keystroke_e	e	n/a
385.588	0.06	771176	keystroke_g	g	n/a
385.873	0.06	771746	keystroke_m	m	n/a
385.963	0.03	771926	keystroke_e	e	n/a
386.083	0.045	772166	keystroke_n	n	n/a
386.143	0.045	772286	keystroke_t	t	n/a
387.013	0.059	774026	keystroke_Key.enter	Key.enter	n/a
387.077	6.1915	774154	prompt	n/a	to threads bathroom sheer\n
387.7625	0.075	775525	keystroke_t	t	n/a
387.8525	0.135	775705	keystroke_o	o	n/a
387.9725	0.12	775945	keystroke_Key.space	Key.space	n/a
388.1075	0.09	776215	keystroke_t	t	n/a
388.2125	0.06	776425	keystroke_h	h	n/a
388.3025	0.045	776605	keystroke_r	r	n/a
388.3925	0.105	776785	keystroke_e	e	n/a
388.5875	0.09	777175	keystroke_a	a	n/a
388.7975	0.045	777595	keystroke_d	d	n/a
388.9325	0.06	777865	keystroke_s	s	n/a
389.0825	0.105	778165	keystroke_Key.space	Key.space	n/a
389.3675	0.105	778735	keystroke_b	b	n/a
389.6375	0.06	779275	keystroke_a	a	n/a
389.9675	0.045	779935	keystroke_t	t	n/a
390.1175	0.18	780235	keystroke_h	h	n/a
390.2975	0.09	780595	keystroke_o	o	n/a
390.7475	0.045	781495	keystroke_Key.backspace	Key.backspace	n/a
390.8525	0.045	781705	keystroke_r	r	n/a
391.0025	0.045	782005	keystroke_o	o	n/a
391.1525	0.06	782305	keystroke_o	o	n/a
391.3625	0.06	782725	keystroke_m	m	n/a
391.5125	0.105	783025	keystroke_Key.space	Key.space	n/a
391.7525	0.06	783505	keystroke_s	s	n/a
391.8275	0.06	783655	keystroke_h	h	n/a
391.9325	0.03	783865	keystroke_e	e	n/a
392.0675	0.075	784135	keystroke_e	e	n/a
392.3975	0.06	784795	keystroke_r	r	n/a
393.2075	0.06	786415	keystroke_Key.enter	Key.enter	n/a
393.2715	7.5575	786543	prompt	n/a	multimedia caring setup defendant\n
393.8975	0.105	787795	keystroke_m	m	n/a
394.0925	0.06	788185	keystroke_u	u	n/a
394.2875	0.075	788575	keystroke_l	l	n/a
394.6175	0.06	789235	keystroke_t	t	n/a
394.8725	0.06	789745	keystroke_i	i	n/a
395.2325	0.09	790465	keystroke_m	m	n/a
395.3375	0.03	790675	keystroke_e	e	n/a
395.5025	0.075	791005	keystroke_d	d	n/a
395.5925	0.045	791185	keystroke_i	i	n/a
395.6975	0.09	791395	keystroke_a	a	n/a
396.4025	0.105	792805	keystroke_Key.space	Key.space	n/a
396.5525	0.105	793105	keystroke_c	c	n/a
396.7325	0.06	793465	keystroke_a	a	n/a
396.8825	0.06	793765	keystroke_r	r	n/a
396.9875	0.06	793975	keystroke_i	i	n/a
397.1375	0.075	794275	keystroke_n	n	n/a
397.2275	0.045	794455	keystroke_g	g	n/a
397.2875	0.105	794575	keystroke_Key.space	Key.space	n/a
397.4075	0.075	794815	keystroke_s	s	n/a
397.5875	0.045	795175	keystroke_e	e	n/a
397.7525	0.045	795505	keystroke_t	t	n/a
397.9625	0.06	795925	keystroke_u	u	n/a
398.3375	0.03	796675	keystroke_p	p	n/a
398.6525	0.12	797305	keystroke_Key.space	Key.space	n/a
398.8475	0.06	797695	keystroke_d	d	n/a
399.0275	0.045	798055	keystroke_e	e	n/a
399.1325	0.06	798265	keystroke_f	f	n/a
399.2975	0.045	798595	keystroke_e	e	n/a
399.4025	0.06	798805	keystroke_n	n	n/a
399.5075	0.045	799015	keystroke_d	d	n/a
399.8375	0.06	799675	keystroke_a	a	n/a
399.9425	0.045	799885	keystroke_n	n	n/a
400.0475	0.045	800095	keystroke_t	t	n/a
400.7825	0.045	801565	keystroke_Key.enter	Key.enter	n/a
400.832	7.602	801664	prompt	n/a	broadband ruled simply pope\n
401.4725	0.06	802945	keystroke_b	b	n/a
401.7575	0.06	803515	keystroke_r	r	n/a
401.8625	0.06	803725	keystroke_o	o	n/a
401.9975	0.075	803995	keystroke_a	a	n/a
402.2375	0.045	804475	keystroke_d	d	n/a
402.6425	0.045	805285	keystroke_b	b	n/a
402.7325	0.075	805465	keystroke_a	a	n/a
402.8825	0.045	805765	keystroke_n	n	n/a
403.0025	0.045	806005	keystroke_d	d	n/a
403.6775	0.105	807355	keystroke_Key.space	Key.space	n/a
404.0975	0.03	808195	keystroke_r	r	n/a
404.1875	0.06	808375	keystroke_u	u	n/a
404.5625	0.06	809125	keystroke_l	l	n/a
404.6975	0.045	809395	keystroke_e	e	n/a
404.8925	0.06	809785	keystroke_d	d	n/a
405.5975	0.135	811195	keystroke_Key.space	Key.space	n/a
405.8975	0.075	811795	keystroke_s	s	n/a
405.9875	0.075	811975	keystroke_i	i	n/a
406.1525	0.12	812305	keystroke_m	m	n/a
406.2425	0.075	812485	keystroke_p	p	n/a
406.4225	0.12	812845	keystroke_l	l	n/a
406.6625	0.06	813325	keystroke_y	y	n/a
406.8425	0.12	813685	keystroke_Key.space	Key.space	n/a
406.9775	0.075	813955	keystroke_p	p	n/a
407.0975	0.135	814195	keystroke_o	o	n/a
407.2025	0.105	814405	keystroke_p	p	n/a
407.5775	0.045	815155	keystroke_e	e	n/a
408.3875	0.045	816775	keystroke_Key.enter	Key.enter	n/a
408.437	8.052	816874	prompt	n/a	sections cleaning incorrect impose\n
409.0925	0.075	818185	keystroke_s	s	n/a
409.2575	0.03	818515	keystroke_e	e	n/a
409.4225	0.09	818845	keystroke_c	c	n/a
409.6925	0.075	819385	keystroke_t	t	n/a
409.7225	0.105	819445	keystroke_i	i	n/a
409.7825	0.09	819565	keystroke_o	o	n/a
409.9475	0.075	819895	keystroke_n	n	n/a
410.0225	0.075	820045	keystroke_s	s	n/a
410.5175	0.105	821035	keystroke_Key.space	Key.space	n/a
410.8475	0.09	821695	keystroke_c	c	n/a
410.9975	0.06	821995	keystroke_l	l	n/a
411.1175	0.075	822235	keystroke_e	e	n/a
411.3425	0.045	822685	keystroke_a	a	n/a
411.7625	0.06	823525	keystroke_n	n	n/a
411.9275	0.045	823855	keystroke_i	i	n/a
412.0475	0.06	824095	keystroke_n	n	n/a
412.1225	0.075	824245	keystroke_g	g	n/a
413.2775	0.105	826555	keystroke_Key.space	Key.space	n/a
413.4125	0.075	826825	keystroke_i	i	n/a
413.5625	0.0745	827125	keystroke_n	n	n/a
413.6525	0.075	827305	keystroke_c	c	n/a
413.7575	0.075	827515	keystroke_o	o	n/a
413.967	0.0605	827934	keystroke_r	r	n/a
414.147	0.045	828294	keystroke_r	r	n/a
414.327	0.0455	828654	keystroke_e	e	n/a
414.462	0.12	828924	keystroke_c	c	n/a
414.762	0.06	829524	keystroke_t	t	n/a
414.8375	0.135	829675	keystroke_Key.space	Key.space	n/a
414.9875	0.075	829975	keystroke_i	i	n/a
415.1225	0.1795	830245	keystroke_m	m	n/a
415.2425	0.1045	830485	keystroke_p	p	n/a
415.4375	0.0895	830875	keystroke_o	o	n/a
415.542	0.075	831084	keystroke_s	s	n/a
415.737	0.045	831474	keystroke_e	e	n/a
416.427	0.06	832854	keystroke_Key.enter	Key.enter	n/a
416.4925	7.5565	832985	prompt	n/a	searching activated raymond sticky\n
417.102	0.06	834204	keystroke_s	s	n/a
417.252	0.075	834504	keystroke_e	e	n/a
417.417	0.105	834834	keystroke_a	a	n/a
417.582	0.06	835164	keystroke_r	r	n/a
417.867	0.06	835734	keystroke_c	c	n/a
417.972	0.09	835944	keystroke_h	h	n/a
418.047	0.09	836094	keystroke_i	i	n/a
418.212	0.075	836424	keystroke_n	n	n/a
418.272	0.06	836544	keystroke_g	g	n/a
418.362	0.12	836724	keystroke_Key.space	Key.space	n/a
418.512	0.09	837024	keystroke_a	a	n/a
418.6775	0.105	837355	keystroke_c	c	n/a
418.9775	0.045	837955	keystroke_t	t	n/a
419.0675	0.06	838135	keystroke_i	i	n/a
419.6675	0.06	839335	keystroke_v	v	n/a
419.8625	0.075	839725	keystroke_a	a	n/a
419.9975	0.075	839995	keystroke_t	t	n/a
420.1475	0.06	840295	keystroke_e	e	n/a
420.3425	0.06	840685	keystroke_d	d	n/a
420.4325	0.12	840865	keystroke_Key.space	Key.space	n/a
420.7475	0.06	841495	keystroke_r	r	n/a
420.9725	0.075	841945	keystroke_a	a	n/a
421.2275	0.09	842455	keystroke_y	y	n/a
421.6325	0.135	843265	keystroke_m	m	n/a
421.9325	0.09	843865	keystroke_o	o	n/a
422.0825	0.09	844165	keystroke_n	n	n/a
422.1875	0.075	844375	keystroke_d	d	n/a
422.2925	0.09	844585	keystroke_Key.space	Key.space	n/a
422.4575	0.09	844915	keystroke_s	s	n/a
422.6675	0.06	845335	keystroke_t	t	n/a
422.7575	0.09	845515	keystroke_i	i	n/a
422.9825	0.06	845965	keystroke_c	c	n/a
423.0575	0.06	846115	keystroke_k	k	n/a
423.6125	0.075	847225	keystroke_y	y	n/a
424.0175	0.03	848035	keystroke_Key.enter	Key.enter	n/a
424.052	6.1025	848104	prompt	n/a	coated recommends snap foto\n
424.9325	0.045	849865	keystroke_c	c	n/a
425.0525	0.075	850105	keystroke_o	o	n/a
425.1575	0.12	850315	keystroke_a	a	n/a
425.3525	0.075	850705	keystroke_t	t	n/a
425.5325	0.045	851065	keystroke_e	e	n/a
425.7125	0.045	851425	keystroke_d	d	n/a
425.8025	0.12	851605	keystroke_Key.space	Key.space	n/a
426.1775	0.06	852355	keystroke_r	r	n/a
426.2675	0.09	852535	keystroke_e	e	n/a
426.4625	0.075	852925	keystroke_c	c	n/a
426.5675	0.09	853135	keystroke_o	o	n/a
426.7625	0.045	853525	keystroke_m	m	n/a
426.8975	0.075	853795	keystroke_m	m	n/a
426.9875	0.06	853975	keystroke_e	e	n/a
427.1075	0.075	854215	keystroke_n	n	n/a
427.1975	0.06	854395	keystroke_d	d	n/a
427.3475	0.06	854695	keystroke_s	s	n/a
427.4975	0.06	854995	keystroke_Key.space	Key.space	n/a
427.6025	0.09	855205	keystroke_s	s	n/a
427.7075	0.105	855415	keystroke_n	n	n/a
428.4575	0.09	856915	keystroke_a	a	n/a
428.5775	0.075	857155	keystroke_p	p	n/a
428.8175	0.105	857635	keystroke_Key.space	Key.space	n/a
428.9975	0.075	857995	keystroke_f	f	n/a
429.1175	0.06	858235	keystroke_o	o	n/a
429.2975	0.06	858595	keystroke_t	t	n/a
429.4175	0.06	858835	keystroke_o	o	n/a
430.1225	0.03	860245	keystroke_Key.enter	Key.enter	n/a
430.158	8.741	860316	prompt	n/a	skills epinions breeding sometimes\n
430.9325	0.045	861865	keystroke_s	s	n/a
431.0375	0.0755	862075	keystroke_k	k	n/a
431.2175	0.06	862435	keystroke_i	i	n/a
431.3975	0.045	862795	keystroke_l	l	n/a
431.5325	0.075	863065	keystroke_l	l	n/a
431.7125	0.075	863425	keystroke_s	s	n/a
431.8025	0.12	863605	keystroke_Key.space	Key.space	n/a
432.4475	0.15	864895	keystroke_o	o	n/a
432.7925	0.075	865585	keystroke_Key.backspace	Key.backspace	n/a
432.9275	0.06	865855	keystroke_e	e	n/a
434.0525	0.075	868105	keystroke_p	p	n/a
434.2475	0.075	868495	keystroke_i	i	n/a
434.4125	0.09	868825	keystroke_n	n	n/a
434.5475	0.06	869095	keystroke_i	i	n/a
434.5625	0.12	869125	keystroke_o	o	n/a
434.7575	0.045	869515	keystroke_n	n	n/a
435.3425	0.075	870685	keystroke_s	s	n/a
435.5375	0.075	871075	keystroke_Key.space	Key.space	n/a
435.7325	0.075	871465	keystroke_b	b	n/a
435.8225	0.06	871645	keystroke_r	r	n/a
435.9725	0.03	871945	keystroke_e	e	n/a
436.1525	0.06	872305	keystroke_e	e	n/a
436.3475	0.075	872695	keystroke_d	d	n/a
436.4525	0.06	872905	keystroke_i	i	n/a
436.6025	0.075	873205	keystroke_n	n	n/a
436.6925	0.075	873385	keystroke_g	g	n/a
436.7975	0.075	873595	keystroke_Key.space	Key.space	n/a
437.5775	0.06	875155	keystroke_s	s	n/a
437.6825	0.075	875365	keystroke_o	o	n/a
437.8475	0.045	875695	keystroke_m	m	n/a
437.9075	0.06	875815	keystroke_e	e	n/a
438.1925	0.09	876385	keystroke_t	t	n/a
438.2825	0.045	876565	keystroke_i	i	n/a
438.3875	0.09	876775	keystroke_m	m	n/a
438.4775	0.075	876955	keystroke_e	e	n/a
438.6275	0.075	877255	keystroke_s	s	n/a
438.8675	0.03	877735	keystroke_Key.enter	Key.enter	n/a
438.9025	15.8965	877805	prompt	n/a	promised rendered deutsche massachusetts\n
439.6625	0.06	879325	keystroke_p	p	n/a
439.7825	0.045	879565	keystroke_r	r	n/a
439.8875	0.06	879775	keystroke_o	o	n/a
440.0225	0.09	880045	keystroke_m	m	n/a
440.1275	0.075	880255	keystroke_i	i	n/a
440.2175	0.09	880435	keystroke_s	s	n/a
440.4125	0.03	880825	keystroke_e	e	n/a
440.5925	0.015	881185	keystroke_d	d	n/a
440.9525	0.105	881905	keystroke_Key.space	Key.space	n/a
441.2975	0.06	882595	keystroke_r	r	n/a
441.4025	0.06	882805	keystroke_e	e	n/a
441.5525	0.06	883105	keystroke_n	n	n/a
441.6575	0.09	883315	keystroke_d	d	n/a
441.9725	0.075	883945	keystroke_e	e	n/a
442.0485	0.089	884097	keystroke_r	r	n/a
442.9025	0.06	885805	keystroke_e	e	n/a
443.1275	0.045	886255	keystroke_d	d	n/a
443.8625	0.105	887725	keystroke_Key.space	Key.space	n/a
444.1625	0.075	888325	keystroke_d	d	n/a
444.3425	0.03	888685	keystroke_e	e	n/a
445.0325	0.06	890065	keystroke_u	u	n/a
445.4225	0.075	890845	keystroke_s	s	n/a
445.5875	0.06	891175	keystroke_t	t	n/a
447.989	0.013	895978	keystroke_Key.backspace	Key.backspace	n/a
448.167	0.075	896334	keystroke_Key.backspace	Key.backspace	n/a
448.467	0.06	896934	keystroke_t	t	n/a
448.752	0.06	897504	keystroke_s	s	n/a
449.517	0.06	899034	keystroke_c	c	n/a
449.592	0.06	899184	keystroke_h	h	n/a
449.698	0.044	899396	keystroke_e	e	n/a
450.027	0.105	900054	keystroke_Key.space	Key.space	n/a
450.252	0.075	900504	keystroke_m	m	n/a
450.372	0.045	900744	keystroke_a	a	n/a
450.523	0.075	901046	keystroke_s	s	n/a
450.673	0.075	901346	keystroke_s	s	n/a
451.8425	0.0895	903685	keystroke_a	a	n/a
452.157	0.045	904314	keystroke_c	c	n/a
452.293	0.149	904586	keystroke_h	h	n/a
452.412	0.09	904824	keystroke_u	u	n/a
453.807	0.075	907614	keystroke_s	s	n/a
453.987	0.06	907974	keystroke_e	e	n/a
454.257	0.045	908514	keystroke_t	t	n/a
454.392	0.06	908784	keystroke_t	t	n/a
454.572	0.06	909144	keystroke_s	s	n/a
454.737	0.06	909474	keystroke_Key.enter	Key.enter	n/a
454.803	9.851	909606	prompt	n/a	academy hundreds is up\n
456.975	0.012	913950	keystroke_a	a	n/a
457.093	0.089	914186	keystroke_c	c	n/a
457.227	0.091	914454	keystroke_a	a	n/a
457.512	0.06	915024	keystroke_d	d	n/a
457.707	0.045	915414	keystroke_e	e	n/a
457.798	0.089	915596	keystroke_m	m	n/a
458.068	0.059	916136	keystroke_y	y	n/a
458.367	0.075	916734	keystroke_Key.space	Key.space	n/a
458.532	0.091	917064	keystroke_h	h	n/a
458.607	0.091	917214	keystroke_u	u	n/a
458.802	0.105	917604	keystroke_n	n	n/a
459.252	0.075	918504	keystroke_d	d	n/a
459.432	0.061	918864	keystroke_r	r	n/a
459.537	0.075	919074	keystroke_e	e	n/a
459.823	0.075	919646	keystroke_d	d	n/a
459.987	0.061	919974	keystroke_s	s	n/a
460.198	0.059	920396	keystroke_Key.space	Key.space	n/a
460.302	0.091	920604	keystroke_i	i	n/a
460.407	0.045	920814	keystroke_s	s	n/a
460.737	0.106	921474	keystroke_u	u	n/a
461.172	0.06	922344	keystroke_Key.backspace	Key.backspace	n/a
461.472	0.121	922944	keystroke_Key.space	Key.space	n/a
461.848	0.045	923696	keystroke_u	u	n/a
464.1	0	928200	keystroke_p	p	n/a
464.607	0.045	929214	keystroke_Key.enter	Key.enter	n/a
464.659	7.5555	929318	prompt	n/a	extra governments theft long\n
465.477	0.016	930954	keystroke_s	s	n/a
465.822	0.076	931644	keystroke_Key.backspace	Key.backspace	n/a
465.912	0.061	931824	keystroke_e	e	n/a
466.137	0.061	932274	keystroke_x	x	n/a
466.438	0.044	932876	keystroke_t	t	n/a
466.527	0.075	933054	keystroke_r	r	n/a
466.632	0.106	933264	keystroke_a	a	n/a
467.127	0.121	934254	keystroke_Key.space	Key.space	n/a
467.353	0.06	934706	keystroke_g	g	n/a
467.457	0.061	934914	keystroke_o	o	n/a
467.562	0.061	935124	keystroke_v	v	n/a
467.743	0.045	935486	keystroke_e	e	n/a
468.268	0.045	936536	keystroke_r	r	n/a
468.433	0.06	936866	keystroke_n	n	n/a
468.913	0.075	937826	keystroke_m	m	n/a
469.033	0.03	938066	keystroke_e	e	n/a
469.138	0.03	938276	keystroke_n	n	n/a
469.258	0.03	938516	keystroke_t	t	n/a
469.423	0.059	938846	keystroke_s	s	n/a
469.693	0.075	939386	keystroke_Key.space	Key.space	n/a
469.933	0.075	939866	keystroke_t	t	n/a
470.053	0.045	940106	keystroke_h	h	n/a
470.143	0.075	940286	keystroke_e	e	n/a
470.368	0.06	940736	keystroke_f	f	n/a
470.638	0.03	941276	keystroke_t	t	n/a
470.938	0.12	941876	keystroke_Key.space	Key.space	n/a
471.073	0.12	942146	keystroke_l	l	n/a
471.5375	0.075	943075	keystroke_o	o	n/a
471.6875	0.075	943375	keystroke_n	n	n/a
471.7775	0.0755	943555	keystroke_g	g	n/a
472.1675	0.045	944335	keystroke_Key.enter	Key.enter	n/a
472.217	4.4225	944434	prompt	n/a	cells login hollow help\n
472.9175	0.105	945835	keystroke_c	c	n/a
473.0825	0.0755	946165	keystroke_e	e	n/a
473.2625	0.075	946525	keystroke_l	l	n/a
473.383	0.1045	946766	keystroke_l	l	n/a
473.4875	0.06	946975	keystroke_s	s	n/a
473.5925	0.135	947185	keystroke_Key.space	Key.space	n/a
473.8175	0.075	947635	keystroke_l	l	n/a
474.0425	0.045	948085	keystroke_o	o	n/a
474.1325	0.045	948265	keystroke_g	g	n/a
474.3875	0.075	948775	keystroke_i	i	n/a
474.5675	0.045	949135	keystroke_n	n	n/a
474.7625	0.075	949525	keystroke_Key.space	Key.space	n/a
474.9575	0.09	949915	keystroke_h	h	n/a
475.0775	0.09	950155	keystroke_o	o	n/a
475.2875	0.06	950575	keystroke_l	l	n/a
475.4075	0.09	950815	keystroke_l	l	n/a
475.5725	0.09	951145	keystroke_o	o	n/a
475.6775	0.075	951355	keystroke_w	w	n/a
475.7375	0.075	951475	keystroke_Key.space	Key.space	n/a
475.9175	0.06	951835	keystroke_h	h	n/a
476.0075	0.03	952015	keystroke_e	e	n/a
476.0825	0.06	952165	keystroke_l	l	n/a
476.2775	0.06	952555	keystroke_p	p	n/a
476.5925	0.045	953185	keystroke_Key.enter	Key.enter	n/a
476.642	7.6315	953284	prompt	n/a	holes bailey infrared after\n
477.4175	0.135	954835	keystroke_h	h	n/a
477.5225	0.105	955045	keystroke_o	o	n/a
477.7325	0.06	955465	keystroke_l	l	n/a
477.8075	0.045	955615	keystroke_e	e	n/a
477.9725	0.06	955945	keystroke_s	s	n/a
478.1225	0.09	956245	keystroke_Key.space	Key.space	n/a
478.4375	0.09	956875	keystroke_b	b	n/a
478.6325	0.09	957265	keystroke_a	a	n/a
478.7075	0.075	957415	keystroke_i	i	n/a
478.8875	0.06	957775	keystroke_l	l	n/a
479.2625	0.06	958525	keystroke_e	e	n/a
479.3675	0.075	958735	keystroke_y	y	n/a
479.6975	0.12	959395	keystroke_Key.space	Key.space	n/a
479.8925	0.075	959785	keystroke_i	i	n/a
480.0425	0.075	960085	keystroke_n	n	n/a
480.9575	0.06	961915	keystroke_f	f	n/a
481.0925	0.06	962185	keystroke_r	r	n/a
481.1975	0.135	962395	keystroke_a	a	n/a
481.9925	0.03	963985	keystroke_r	r	n/a
482.2625	0.06	964525	keystroke_e	e	n/a
482.4725	0.03	964945	keystroke_d	d	n/a
482.7425	0.105	965485	keystroke_Key.space	Key.space	n/a
483.0275	0.075	966055	keystroke_a	a	n/a
483.2225	0.075	966445	keystroke_f	f	n/a
483.4325	0.06	966865	keystroke_t	t	n/a
483.5375	0.12	967075	keystroke_e	e	n/a
483.6125	0.075	967225	keystroke_r	r	n/a
484.1975	0.075	968395	keystroke_Key.enter	Key.enter	n/a
484.2765	9.2675	968553	prompt	n/a	predicted anime payment binary\n
484.9475	0.09	969895	keystroke_p	p	n/a
485.0525	0.06	970105	keystroke_r	r	n/a
485.1725	0.06	970345	keystroke_e	e	n/a
485.3675	0.045	970735	keystroke_d	d	n/a
485.4575	0.06	970915	keystroke_i	i	n/a
487.0775	0.105	974155	keystroke_c	c	n/a
487.4525	0.06	974905	keystroke_t	t	n/a
487.5725	0.075	975145	keystroke_e	e	n/a
487.7825	0.06	975565	keystroke_d	d	n/a
487.8725	0.135	975745	keystroke_Key.space	Key.space	n/a
487.9925	0.12	975985	keystroke_a	a	n/a
488.0975	0.075	976195	keystroke_n	n	n/a
488.2175	0.06	976435	keystroke_i	i	n/a
488.367	0.09	976734	keystroke_m	m	n/a
488.472	0.045	976944	keystroke_e	e	n/a
488.5775	0.105	977155	keystroke_Key.space	Key.space	n/a
488.892	0.09	977784	keystroke_p	p	n/a
488.997	0.09	977994	keystroke_a	a	n/a
489.192	0.105	978384	keystroke_y	y	n/a
489.462	0.09	978924	keystroke_m	m	n/a
489.582	0.03	979164	keystroke_e	e	n/a
489.687	0.03	979374	keystroke_n	n	n/a
489.762	0.06	979524	keystroke_t	t	n/a
489.867	0.075	979734	keystroke_Key.space	Key.space	n/a
489.987	0.06	979974	keystroke_l	l	n/a
490.152	0.06	980304	keystroke_i	i	n/a
490.557	0.09	981114	keystroke_Key.backspace	Key.backspace	n/a
490.947	0.06	981894	keystroke_Key.backspace	Key.backspace	n/a
491.982	0.06	983964	keystroke_b	b	n/a
492.132	0.075	984264	keystroke_i	i	n/a
492.237	0.105	984474	keystroke_n	n	n/a
492.492	0.105	984984	keystroke_a	a	n/a
492.642	0.075	985284	keystroke_r	r	n/a
492.762	0.075	985524	keystroke_y	y	n/a
493.482	0.06	986964	keystroke_Key.enter	Key.enter	n/a
493.547	7.092	987094	prompt	n/a	beaver colon downloads upper\n
494.487	0.075	988974	keystroke_b	b	n/a
494.577	0.06	989154	keystroke_e	e	n/a
494.697	0.09	989394	keystroke_a	a	n/a
495.357	0.09	990714	keystroke_v	v	n/a
495.552	0.105	991104	keystroke_e	e	n/a
495.642	0.075	991284	keystroke_r	r	n/a
495.777	0.12	991554	keystroke_Key.space	Key.space	n/a
496.062	0.06	992124	keystroke_c	c	n/a
496.152	0.06	992304	keystroke_o	o	n/a
496.332	0.075	992664	keystroke_l	l	n/a
496.512	0.06	993024	keystroke_o	o	n/a
496.662	0.045	993324	keystroke_n	n	n/a
496.782	0.135	993564	keystroke_Key.space	Key.space	n/a
497.052	0.045	994104	keystroke_d	d	n/a
497.202	0.03	994404	keystroke_o	o	n/a
497.292	0.06	994584	keystroke_w	w	n/a
497.382	0.045	994764	keystroke_n	n	n/a
497.802	0.09	995604	keystroke_l	l	n/a
497.967	0.105	995934	keystroke_o	o	n/a
498.057	0.075	996114	keystroke_a	a	n/a
498.237	0.06	996474	keystroke_d	d	n/a
499.317	0.045	998634	keystroke_s	s	n/a
499.542	0.09	999084	keystroke_Key.space	Key.space	n/a
499.767	0.09	999534	keystroke_u	u	n/a
499.977	0.075	999954	keystroke_p	p	n/a
500.082	0.09	1000164	keystroke_p	p	n/a
500.202	0.12	1000404	keystroke_e	e	n/a
500.292	0.09	1000584	keystroke_r	r	n/a
500.577	0.06	1001154	keystroke_Key.enter	Key.enter	n/a
500.642	10.602	1001284	prompt	n/a	projected flavor lectures adopted\n
501.372	0.06	1002744	keystroke_p	p	n/a
501.492	0.045	1002984	keystroke_r	r	n/a
501.597	0.075	1003194	keystroke_o	o	n/a
501.972	0.045	1003944	keystroke_j	j	n/a
502.077	0.015	1004154	keystroke_e	e	n/a
502.197	0.09	1004394	keystroke_c	c	n/a
502.482	0.03	1004964	keystroke_t	t	n/a
502.812	0.045	1005624	keystroke_e	e	n/a
502.992	0.045	1005984	keystroke_d	d	n/a
503.142	0.09	1006284	keystroke_Key.space	Key.space	n/a
504.177	0.06	1008354	keystroke_f	f	n/a
504.432	0.075	1008864	keystroke_l	l	n/a
504.552	0.09	1009104	keystroke_a	a	n/a
504.762	0.045	1009524	keystroke_v	v	n/a
505.212	0.075	1010424	keystroke_o	o	n/a
505.497	0.045	1010994	keystroke_r	r	n/a
505.557	0.12	1011114	keystroke_Key.space	Key.space	n/a
506.157	0.06	1012314	keystroke_l	l	n/a
506.232	0.045	1012464	keystroke_e	e	n/a
506.382	0.075	1012764	keystroke_c	c	n/a
506.727	0.06	1013454	keystroke_t	t	n/a
507.567	0.06	1015134	keystroke_u	u	n/a
507.657	0.06	1015314	keystroke_r	r	n/a
507.897	0.06	1015794	keystroke_e	e	n/a
508.062	0.06	1016124	keystroke_s	s	n/a
508.227	0.09	1016454	keystroke_Key.space	Key.space	n/a
509.577	0.075	1019154	keystroke_a	a	n/a
509.802	0.015	1019604	keystroke_d	d	n/a
510.012	0.105	1020024	keystroke_o	o	n/a
510.088	0.104	1020176	keystroke_p	p	n/a
510.432	0.031	1020864	keystroke_t	t	n/a
510.538	0.059	1021076	keystroke_e	e	n/a
510.717	0.06	1021434	keystroke_d	d	n/a
511.167	0.075	1022334	keystroke_Key.enter	Key.enter	n/a
511.247	9.4765	1022494	prompt	n/a	read danish distribution sodium\n
512.038	0.044	1024076	keystroke_r	r	n/a
512.127	0.09	1024254	keystroke_e	e	n/a
512.232	0.105	1024464	keystroke_a	a	n/a
512.427	0.06	1024854	keystroke_d	d	n/a
512.547	0.12	1025094	keystroke_Key.space	Key.space	n/a
512.757	0.075	1025514	keystroke_d	d	n/a
512.893	0.089	1025786	keystroke_a	a	n/a
513.027	0.09	1026054	keystroke_n	n	n/a
513.177	0.075	1026354	keystroke_i	i	n/a
513.267	0.06	1026534	keystroke_s	s	n/a
513.792	0.06	1027584	keystroke_h	h	n/a
513.927	0.135	1027854	keystroke_Key.space	Key.space	n/a
514.302	0.075	1028604	keystroke_d	d	n/a
514.452	0.03	1028904	keystroke_i	i	n/a
514.497	0.06	1028994	keystroke_s	s	n/a
515.337	0.06	1030674	keystroke_t	t	n/a
515.563	0.029	1031126	keystroke_r	r	n/a
517.257	0.076	1034514	keystroke_i	i	n/a
517.813	0.075	1035626	keystroke_b	b	n/a
517.932	0.09	1035864	keystroke_u	u	n/a
518.172	0.045	1036344	keystroke_t	t	n/a
518.232	0.151	1036464	keystroke_i	i	n/a
518.338	0.089	1036676	keystroke_o	o	n/a
518.488	0.075	1036976	keystroke_n	n	n/a
519.162	0.135	1038324	keystroke_Key.space	Key.space	n/a
519.327	0.075	1038654	keystroke_s	s	n/a
519.418	0.09	1038836	keystroke_o	o	n/a
519.582	0.031	1039164	keystroke_d	d	n/a
519.688	0.029	1039376	keystroke_i	i	n/a
519.958	0.044	1039916	keystroke_u	u	n/a
520.138	0.089	1040276	keystroke_m	m	n/a
520.647	0.075	1041294	keystroke_Key.enter	Key.enter	n/a
520.7275	5.9365	1041455	prompt	n/a	asking huge enrollment ross\n
521.428	0.105	1042856	keystroke_a	a	n/a
521.592	0.075	1043184	keystroke_s	s	n/a
521.697	0.045	1043394	keystroke_k	k	n/a
521.847	0.046	1043694	keystroke_i	i	n/a
521.968	0.06	1043936	keystroke_n	n	n/a
522.028	0.06	1044056	keystroke_g	g	n/a
522.102	0.09	1044204	keystroke_Key.space	Key.space	n/a
522.253	0.105	1044506	keystroke_h	h	n/a
522.342	0.076	1044684	keystroke_u	u	n/a
522.447	0.061	1044894	keystroke_g	g	n/a
522.598	0.044	1045196	keystroke_e	e	n/a
523.033	0.09	1046066	keystroke_Key.space	Key.space	n/a
523.348	0.045	1046696	keystroke_e	e	n/a
523.438	0.075	1046876	keystroke_n	n	n/a
523.677	0.031	1047354	keystroke_r	r	n/a
523.753	0.075	1047506	keystroke_o	o	n/a
523.948	0.06	1047896	keystroke_l	l	n/a
524.067	0.091	1048134	keystroke_l	l	n/a
524.518	0.045	1049036	keystroke_m	m	n/a
524.592	0.076	1049184	keystroke_e	e	n/a
524.697	0.045	1049394	keystroke_n	n	n/a
524.803	0.06	1049606	keystroke_t	t	n/a
525.793	0.089	1051586	keystroke_Key.space	Key.space	n/a
525.973	0.06	1051946	keystroke_r	r	n/a
526.078	0.06	1052156	keystroke_o	o	n/a
526.273	0.06	1052546	keystroke_s	s	n/a
526.423	0.075	1052846	keystroke_s	s	n/a
526.603	0.06	1053206	keystroke_Key.enter	Key.enter	n/a
526.6675	6.507	1053335	prompt	n/a	massive an welcome oakland\n
527.398	0.09	1054796	keystroke_m	m	n/a
527.503	0.045	1055006	keystroke_a	a	n/a
527.668	0.045	1055336	keystroke_s	s	n/a
527.818	0.09	1055636	keystroke_s	s	n/a
527.938	0.06	1055876	keystroke_i	i	n/a
528.043	0.045	1056086	keystroke_v	v	n/a
528.208	0.06	1056416	keystroke_e	e	n/a
528.313	0.09	1056626	keystroke_Key.space	Key.space	n/a
528.793	0.06	1057586	keystroke_a	a	n/a
528.898	0.045	1057796	keystroke_n	n	n/a
529.093	0.105	1058186	keystroke_Key.space	Key.space	n/a
530.023	0.06	1060046	keystroke_w	w	n/a
530.233	0.045	1060466	keystroke_e	e	n/a
530.458	0.09	1060916	keystroke_l	l	n/a
530.638	0.06	1061276	keystroke_c	c	n/a
530.683	0.075	1061366	keystroke_o	o	n/a
530.848	0.09	1061696	keystroke_m	m	n/a
531.3575	0.03	1062715	keystroke_e	e	n/a
531.5225	0.105	1063045	keystroke_Key.space	Key.space	n/a
531.7325	0.075	1063465	keystroke_o	o	n/a
531.8525	0.0755	1063705	keystroke_a	a	n/a
532.048	0.045	1064096	keystroke_k	k	n/a
532.2575	0.075	1064515	keystroke_l	l	n/a
532.3775	0.105	1064755	keystroke_a	a	n/a
532.4975	0.0455	1064995	keystroke_n	n	n/a
532.603	0.0445	1065206	keystroke_d	d	n/a
533.1275	0.0455	1066255	keystroke_Key.enter	Key.enter	n/a
533.1775	7.6765	1066355	prompt	n/a	oops invalid burke constitute\n
534.1175	0.0755	1068235	keystroke_o	o	n/a
534.2525	0.105	1068505	keystroke_o	o	n/a
534.3875	0.105	1068775	keystroke_p	p	n/a
534.5375	0.06	1069075	keystroke_s	s	n/a
534.703	0.1045	1069406	keystroke_Key.space	Key.space	n/a
534.8375	0.045	1069675	keystroke_i	i	n/a
534.9725	0.045	1069945	keystroke_n	n	n/a
535.5125	0.06	1071025	keystroke_v	v	n/a
535.6475	0.105	1071295	keystroke_a	a	n/a
535.7675	0.09	1071535	keystroke_l	l	n/a
535.9325	0.06	1071865	keystroke_i	i	n/a
536.0225	0.06	1072045	keystroke_d	d	n/a
536.2475	0.09	1072495	keystroke_Key.space	Key.space	n/a
536.5925	0.06	1073185	keystroke_b	b	n/a
536.7125	0.06	1073425	keystroke_u	u	n/a
536.8475	0.045	1073695	keystroke_r	r	n/a
536.9975	0.06	1073995	keystroke_k	k	n/a
537.1175	0.03	1074235	keystroke_e	e	n/a
537.748	0.1195	1075496	keystroke_Key.space	Key.space	n/a
537.9875	0.075	1075975	keystroke_c	c	n/a
538.0475	0.075	1076095	keystroke_o	o	n/a
538.1825	0.06	1076365	keystroke_n	n	n/a
538.2575	0.06	1076515	keystroke_s	s	n/a
539.0225	0.045	1078045	keystroke_t	t	n/a
539.1275	0.045	1078255	keystroke_i	i	n/a
539.2775	0.045	1078555	keystroke_t	t	n/a
539.9825	0.09	1079965	keystroke_u	u	n/a
540.2075	0.03	1080415	keystroke_t	t	n/a
540.3425	0.045	1080685	keystroke_e	e	n/a
540.8225	0.03	1081645	keystroke_Key.enter	Key.enter	n/a
540.857	10.812	1081714	prompt	n/a	scenarios passengers decision centers\n
541.5575	0.06	1083115	keystroke_s	s	n/a
541.9175	0.075	1083835	keystroke_c	c	n/a
542.0825	0.045	1084165	keystroke_e	e	n/a
542.5325	0.045	1085065	keystroke_n	n	n/a
542.7575	0.075	1085515	keystroke_a	a	n/a
542.8925	0.06	1085785	keystroke_r	r	n/a
543.3725	0.15	1086745	keystroke_i	i	n/a
543.5075	0.09	1087015	keystroke_o	o	n/a
544.2575	0.06	1088515	keystroke_s	s	n/a
544.4675	0.15	1088935	keystroke_Key.space	Key.space	n/a
544.6625	0.09	1089325	keystroke_p	p	n/a
544.7675	0.06	1089535	keystroke_a	a	n/a
544.9325	0.06	1089865	keystroke_s	s	n/a
545.0975	0.075	1090195	keystroke_s	s	n/a
545.3975	0.12	1090795	keystroke_l	l	n/a
546.1025	0.075	1092205	keystroke_Key.backspace	Key.backspace	n/a
546.3725	0.06	1092745	keystroke_e	e	n/a
546.5225	0.06	1093045	keystroke_n	n	n/a
546.7475	0.075	1093495	keystroke_g	g	n/a
546.9125	0.105	1093825	keystroke_e	e	n/a
546.9875	0.075	1093975	keystroke_r	r	n/a
547.1975	0.075	1094395	keystroke_s	s	n/a
547.4225	0.09	1094845	keystroke_Key.space	Key.space	n/a
547.5425	0.06	1095085	keystroke_d	d	n/a
547.7075	0.045	1095415	keystroke_e	e	n/a
547.8575	0.06	1095715	keystroke_c	c	n/a
547.9775	0.06	1095955	keystroke_i	i	n/a
548.0675	0.075	1096135	keystroke_s	s	n/a
548.2025	0.12	1096405	keystroke_i	i	n/a
548.2625	0.09	1096525	keystroke_o	o	n/a
548.4575	0.045	1096915	keystroke_n	n	n/a
549.2975	0.12	1098595	keystroke_Key.space	Key.space	n/a
549.5075	0.12	1099015	keystroke_c	c	n/a
549.9725	0.075	1099945	keystroke_e	e	n/a
550.1075	0.09	1100215	keystroke_n	n	n/a
550.2875	0.045	1100575	keystroke_t	t	n/a
550.5425	0.06	1101085	keystroke_e	e	n/a
550.5725	0.075	1101145	keystroke_r	r	n/a
550.7675	0.06	1101535	keystroke_s	s	n/a
551.5925	0.075	1103185	keystroke_Key.enter	Key.enter	n/a
551.6735	7.1505	1103347	prompt	n/a	boating ease spec handling\n
552.3425	0.09	1104685	keystroke_b	b	n/a
552.4925	0.06	1104985	keystroke_a	a	n/a
552.6125	0.09	1105225	keystroke_o	o	n/a
553.3625	0.06	1106725	keystroke_Key.backspace	Key.backspace	n/a
553.4825	0.075	1106965	keystroke_Key.backspace	Key.backspace	n/a
553.7525	0.045	1107505	keystroke_o	o	n/a
553.9625	0.075	1107925	keystroke_a	a	n/a
554.1125	0.075	1108225	keystroke_t	t	n/a
554.1875	0.06	1108375	keystroke_i	i	n/a
554.3225	0.075	1108645	keystroke_n	n	n/a
554.4125	0.075	1108825	keystroke_g	g	n/a
554.5175	0.105	1109035	keystroke_Key.space	Key.space	n/a
554.7575	0.09	1109515	keystroke_e	e	n/a
554.9075	0.09	1109815	keystroke_a	a	n/a
555.0725	0.075	1110145	keystroke_s	s	n/a
555.2675	0.03	1110535	keystroke_e	e	n/a
555.5825	0.09	1111165	keystroke_Key.space	Key.space	n/a
555.8525	0.09	1111705	keystroke_s	s	n/a
555.9575	0.075	1111915	keystroke_p	p	n/a
556.0625	0.045	1112125	keystroke_e	e	n/a
556.2275	0.06	1112455	keystroke_c	c	n/a
556.5275	0.09	1113055	keystroke_Key.space	Key.space	n/a
556.9175	0.075	1113835	keystroke_h	h	n/a
557.0525	0.075	1114105	keystroke_a	a	n/a
557.1275	0.075	1114255	keystroke_n	n	n/a
557.4725	0.03	1114945	keystroke_d	d	n/a
557.5625	0.06	1115125	keystroke_l	l	n/a
557.7275	0.06	1115455	keystroke_i	i	n/a
557.9075	0.09	1115815	keystroke_n	n	n/a
558.0275	0.045	1116055	keystroke_g	g	n/a
558.7475	0.075	1117495	keystroke_Key.enter	Key.enter	n/a
558.8275	10.4365	1117655	prompt	n/a	orlando organisation beaver cast\n
559.4975	0.075	1118995	keystroke_o	o	n/a
559.6325	0.045	1119265	keystroke_r	r	n/a
559.7525	0.075	1119505	keystroke_l	l	n/a
559.8875	0.09	1119775	keystroke_a	a	n/a
560.0075	0.06	1120015	keystroke_n	n	n/a
560.1125	0.045	1120225	keystroke_d	d	n/a
560.3825	0.06	1120765	keystroke_o	o	n/a
560.9075	0.105	1121815	keystroke_Key.space	Key.space	n/a
561.1625	0.046	1122325	keystroke_o	o	n/a
561.3275	0.045	1122655	keystroke_r	r	n/a
561.8375	0.046	1123675	keystroke_g	g	n/a
562.092	0.075	1124184	keystroke_a	a	n/a
562.258	0.0445	1124516	keystroke_n	n	n/a
563.307	0.03	1126614	keystroke_i	i	n/a
563.697	0.0615	1127394	keystroke_s	s	n/a
564.342	0.075	1128684	keystroke_a	a	n/a
564.462	0.075	1128924	keystroke_t	t	n/a
564.5225	0.1195	1129045	keystroke_i	i	n/a
564.583	0.089	1129166	keystroke_o	o	n/a
564.777	0.0605	1129554	keystroke_n	n	n/a
565.452	0.105	1130904	keystroke_Key.space	Key.space	n/a
565.602	0.075	1131204	keystroke_d	d	n/a
565.947	0.06	1131894	keystroke_Key.backspace	Key.backspace	n/a
566.292	0.045	1132584	keystroke_b	b	n/a
567.792	0.045	1135584	keystroke_e	e	n/a
567.927	0.06	1135854	keystroke_a	a	n/a
568.062	0.09	1136124	keystroke_v	v	n/a
568.258	0.089	1136516	keystroke_e	e	n/a
568.333	0.059	1136666	keystroke_r	r	n/a
568.422	0.12	1136844	keystroke_Key.space	Key.space	n/a
568.558	0.089	1137116	keystroke_c	c	n/a
568.708	0.089	1137416	keystroke_a	a	n/a
568.858	0.104	1137716	keystroke_s	s	n/a
569.037	0.075	1138074	keystroke_t	t	n/a
569.187	0.075	1138374	keystroke_Key.enter	Key.enter	n/a
569.2675	9.987	1138535	prompt	n/a	definition lexmark recommendation judicial\n
570.147	0.045	1140294	keystroke_d	d	n/a
570.312	0.03	1140624	keystroke_e	e	n/a
570.402	0.075	1140804	keystroke_f	f	n/a
570.508	0.059	1141016	keystroke_i	i	n/a
570.657	0.105	1141314	keystroke_n	n	n/a
570.777	0.075	1141554	keystroke_i	i	n/a
571.122	0.075	1142244	keystroke_t	t	n/a
571.243	0.179	1142486	keystroke_i	i	n/a
571.362	0.105	1142724	keystroke_o	o	n/a
571.542	0.075	1143084	keystroke_n	n	n/a
571.737	0.105	1143474	keystroke_Key.space	Key.space	n/a
572.172	0.09	1144344	keystroke_l	l	n/a
572.278	0.059	1144556	keystroke_e	e	n/a
572.502	0.06	1145004	keystroke_x	x	n/a
572.712	0.075	1145424	keystroke_m	m	n/a
572.833	0.104	1145666	keystroke_a	a	n/a
572.997	0.061	1145994	keystroke_r	r	n/a
573.087	0.06	1146174	keystroke_k	k	n/a
573.612	0.121	1147224	keystroke_Key.space	Key.space	n/a
573.852	0.06	1147704	keystroke_r	r	n/a
573.942	0.105	1147884	keystroke_e	e	n/a
574.137	0.06	1148274	keystroke_c	c	n/a
574.242	0.075	1148484	keystroke_o	o	n/a
574.933	0.089	1149866	keystroke_m	m	n/a
575.172	0.075	1150344	keystroke_m	m	n/a
575.487	0.03	1150974	keystroke_e	e	n/a
575.547	0.076	1151094	keystroke_n	n	n/a
575.667	0.075	1151334	keystroke_d	d	n/a
575.848	0.089	1151696	keystroke_a	a	n/a
575.952	0.12	1151904	keystroke_t	t	n/a
576.028	0.12	1152056	keystroke_i	i	n/a
576.087	0.091	1152174	keystroke_o	o	n/a
576.237	0.076	1152474	keystroke_n	n	n/a
576.387	0.09	1152774	keystroke_Key.space	Key.space	n/a
576.508	0.089	1153016	keystroke_j	j	n/a
576.687	0.075	1153374	keystroke_u	u	n/a
576.853	0.03	1153706	keystroke_d	d	n/a
578.322	0.061	1156644	keystroke_i	i	n/a
578.473	0.075	1156946	keystroke_c	c	n/a
578.592	0.046	1157184	keystroke_i	i	n/a
578.773	0.105	1157546	keystroke_a	a	n/a
578.892	0.046	1157784	keystroke_l	l	n/a
579.208	0.044	1158416	keystroke_Key.enter	Key.enter	n/a
579.257	5.4275	1158514	prompt	n/a	arch bunch forgotten night\n
579.913	0.104	1159826	keystroke_a	a	n/a
580.048	0.06	1160096	keystroke_r	r	n/a
580.303	0.059	1160606	keystroke_c	c	n/a
580.378	0.075	1160756	keystroke_h	h	n/a
580.617	0.075	1161234	keystroke_Key.space	Key.space	n/a
580.783	0.075	1161566	keystroke_b	b	n/a
580.902	0.091	1161804	keystroke_u	u	n/a
581.068	0.09	1162136	keystroke_n	n	n/a
581.503	0.06	1163006	keystroke_c	c	n/a
581.578	0.06	1163156	keystroke_h	h	n/a
581.758	0.104	1163516	keystroke_Key.space	Key.space	n/a
581.983	0.075	1163966	keystroke_f	f	n/a
582.088	0.075	1164176	keystroke_o	o	n/a
582.688	0.06	1165376	keystroke_r	r	n/a
582.853	0.075	1165706	keystroke_g	g	n/a
582.973	0.06	1165946	keystroke_o	o	n/a
583.078	0.045	1166156	keystroke_t	t	n/a
583.213	0.075	1166426	keystroke_t	t	n/a
583.393	0.03	1166786	keystroke_e	e	n/a
583.468	0.06	1166936	keystroke_n	n	n/a
583.633	0.075	1167266	keystroke_Key.space	Key.space	n/a
583.813	0.06	1167626	keystroke_n	n	n/a
583.918	0.105	1167836	keystroke_i	i	n/a
584.008	0.06	1168016	keystroke_g	g	n/a
584.083	0.075	1168166	keystroke_h	h	n/a
584.173	0.06	1168346	keystroke_t	t	n/a
584.623	0.06	1169246	keystroke_Key.enter	Key.enter	n/a
584.6875	6.792	1169375	prompt	n/a	null cold shepherd their\n
585.658	0.075	1171316	keystroke_n	n	n/a
585.838	0.045	1171676	keystroke_u	u	n/a
586.078	0.06	1172156	keystroke_l	l	n/a
586.198	0.105	1172396	keystroke_l	l	n/a
586.333	0.135	1172666	keystroke_Key.space	Key.space	n/a
586.693	0.045	1173386	keystroke_c	c	n/a
586.753	0.045	1173506	keystroke_o	o	n/a
586.918	0.06	1173836	keystroke_l	l	n/a
586.978	0.06	1173956	keystroke_d	d	n/a
587.083	0.075	1174166	keystroke_Key.space	Key.space	n/a
587.548	0.075	1175096	keystroke_s	s	n/a
587.638	0.06	1175276	keystroke_h	h	n/a
587.788	0.045	1175576	keystroke_e	e	n/a
588.028	0.06	1176056	keystroke_p	p	n/a
588.643	0.06	1177286	keystroke_h	h	n/a
588.838	0.045	1177676	keystroke_e	e	n/a
589.003	0.06	1178006	keystroke_r	r	n/a
589.183	0.075	1178366	keystroke_d	d	n/a
589.363	0.105	1178726	keystroke_Key.space	Key.space	n/a
589.603	0.06	1179206	keystroke_t	t	n/a
589.678	0.105	1179356	keystroke_h	h	n/a
589.768	0.105	1179536	keystroke_e	e	n/a
589.843	0.075	1179686	keystroke_r	r	n/a
589.963	0.075	1179926	keystroke_i	i	n/a
590.443	0.06	1180886	keystroke_Key.backspace	Key.backspace	n/a
590.593	0.045	1181186	keystroke_Key.backspace	Key.backspace	n/a
590.833	0.045	1181666	keystroke_i	i	n/a
590.923	0.045	1181846	keystroke_r	r	n/a
591.433	0.045	1182866	keystroke_Key.enter	Key.enter	n/a
591.4825	8.517	1182965	prompt	n/a	range indicator newcastle schema\n
592.363	0.075	1184726	keystroke_r	r	n/a
592.468	0.105	1184936	keystroke_a	a	n/a
592.603	0.075	1185206	keystroke_n	n	n/a
592.663	0.06	1185326	keystroke_g	g	n/a
592.843	0.045	1185686	keystroke_e	e	n/a
593.308	0.105	1186616	keystroke_Key.space	Key.space	n/a
593.488	0.075	1186976	keystroke_i	i	n/a
593.623	0.075	1187246	keystroke_n	n	n/a
593.683	0.075	1187366	keystroke_d	d	n/a
593.803	0.06	1187606	keystroke_i	i	n/a
593.893	0.09	1187786	keystroke_c	c	n/a
594.148	0.09	1188296	keystroke_a	a	n/a
594.283	0.075	1188566	keystroke_t	t	n/a
594.403	0.06	1188806	keystroke_o	o	n/a
594.493	0.045	1188986	keystroke_r	r	n/a
595.153	0.12	1190306	keystroke_Key.space	Key.space	n/a
595.348	0.075	1190696	keystroke_n	n	n/a
595.423	0.09	1190846	keystroke_e	e	n/a
595.572	0.0905	1191144	keystroke_w	w	n/a
595.917	0.06	1191834	keystroke_c	c	n/a
596.067	0.045	1192134	keystroke_a	a	n/a
596.187	0.091	1192374	keystroke_s	s	n/a
596.3975	0.0595	1192795	keystroke_t	t	n/a
596.7425	0.0445	1193485	keystroke_l	l	n/a
596.832	0.03	1193664	keystroke_e	e	n/a
597.267	0.09	1194534	keystroke_Key.space	Key.space	n/a
597.477	0.076	1194954	keystroke_s	s	n/a
597.6285	0.059	1195257	keystroke_c	c	n/a
597.7475	0.0595	1195495	keystroke_h	h	n/a
598.047	0.0455	1196094	keystroke_e	e	n/a
598.2575	0.0445	1196515	keystroke_m	m	n/a
598.347	0.0905	1196694	keystroke_a	a	n/a
599.937	0.06	1199874	keystroke_Key.enter	Key.enter	n/a
600.0035	9.086	1200007	prompt	n/a	dying removing moore generous\n
600.673	0.0745	1201346	keystroke_d	d	n/a
600.8375	0.0905	1201675	keystroke_y	y	n/a
601.153	0.059	1202306	keystroke_m	m	n/a
601.722	0.045	1203444	keystroke_Key.backspace	Key.backspace	n/a
601.978	0.045	1203956	keystroke_i	i	n/a
602.157	0.06	1204314	keystroke_n	n	n/a
602.232	0.061	1204464	keystroke_g	g	n/a
602.322	0.105	1204644	keystroke_Key.space	Key.space	n/a
602.502	0.061	1205004	keystroke_r	r	n/a
602.607	0.091	1205214	keystroke_e	e	n/a
602.728	0.134	1205456	keystroke_m	m	n/a
602.847	0.075	1205694	keystroke_o	o	n/a
602.967	0.061	1205934	keystroke_v	v	n/a
603.073	0.044	1206146	keystroke_i	i	n/a
603.208	0.06	1206416	keystroke_n	n	n/a
603.282	0.046	1206564	keystroke_g	g	n/a
603.792	0.12	1207584	keystroke_Key.space	Key.space	n/a
603.957	0.105	1207914	keystroke_m	m	n/a
604.122	0.06	1208244	keystroke_o	o	n/a
604.257	0.09	1208514	keystroke_o	o	n/a
604.692	0.061	1209384	keystroke_r	r	n/a
604.828	0.045	1209656	keystroke_e	e	n/a
605.292	0.09	1210584	keystroke_Key.space	Key.space	n/a
605.503	0.03	1211006	keystroke_g	g	n/a
605.667	0.015	1211334	keystroke_e	e	n/a
605.757	0.06	1211514	keystroke_n	n	n/a
606.523	0.075	1213046	keystroke_e	e	n/a
606.583	0.105	1213166	keystroke_r	r	n/a
606.703	0.089	1213406	keystroke_o	o	n/a
606.898	0.045	1213796	keystroke_u	u	n/a
607.003	0.045	1214006	keystroke_s	s	n/a
609.0125	0.075	1218025	keystroke_Key.enter	Key.enter	n/a
609.0925	9.81	1218185	prompt	n/a	surely monitors guam lexus\n
609.7025	0.076	1219405	keystroke_s	s	n/a
609.8375	0.06	1219675	keystroke_u	u	n/a
610.0035	0.059	1220007	keystroke_r	r	n/a
610.1975	0.031	1220395	keystroke_e	e	n/a
610.3025	0.075	1220605	keystroke_l	l	n/a
610.5575	0.06	1221115	keystroke_y	y	n/a
610.9325	0.12	1221865	keystroke_Key.space	Key.space	n/a
611.1285	0.119	1222257	keystroke_m	m	n/a
611.2175	0.105	1222435	keystroke_o	o	n/a
611.3675	0.075	1222735	keystroke_n	n	n/a
