onset	duration	sample	value	key	prompt_text
2.8875	12.161	5775	prompt	n/a	the quick brown fox jumps over a lazy dog\n
4.5935	0.0275	9187	keystroke_t	t	n/a
4.607	0.089	9214	keystroke_h	h	n/a
4.727	0.134	9454	keystroke_e	e	n/a
4.9055	0.076	9811	keystroke_Key.space	Key.space	n/a
5.356	0.1055	10712	keystroke_q	q	n/a
5.4315	0.1195	10863	keystroke_u	u	n/a
5.5065	0.0745	11013	keystroke_i	i	n/a
5.6115	0.135	11223	keystroke_c	c	n/a
5.7315	0.0595	11463	keystroke_k	k	n/a
5.836	0.09	11672	keystroke_Key.space	Key.space	n/a
6.87	0.075	13740	keystroke_b	b	n/a
7.095	0.1205	14190	keystroke_r	r	n/a
7.26	0.076	14520	keystroke_o	o	n/a
7.32	0.1055	14640	keystroke_w	w	n/a
7.4705	0.1045	14941	keystroke_n	n	n/a
7.59	0.0905	15180	keystroke_Key.space	Key.space	n/a
8.3405	0.03	16681	keystroke_f	f	n/a
8.3545	0.0305	16709	keystroke_o	o	n/a
8.4005	0.105	16801	keystroke_x	x	n/a
8.5205	0.09	17041	keystroke_Key.space	Key.space	n/a
9.7805	0.1045	19561	keystroke_j	j	n/a
10.2595	0.106	20519	keystroke_u	u	n/a
10.56	0.136	21120	keystroke_m	m	n/a
10.665	0.0905	21330	keystroke_o	o	n/a
11.5205	0.075	23041	keystroke_Key.backspace	Key.backspace	n/a
11.7905	0.1045	23581	keystroke_p	p	n/a
11.88	0.135	23760	keystroke_s	s	n/a
12	0.105	24000	keystroke_Key.space	Key.space	n/a
12.6155	0.09	25231	keystroke_o	o	n/a
12.645	0.0755	25290	keystroke_v	v	n/a
12.7805	0.15	25561	keystroke_e	e	n/a
12.8555	0.135	25711	keystroke_r	r	n/a
12.975	0.1055	25950	keystroke_Key.space	Key.space	n/a
13.0655	0.135	26131	keystroke_a	a	n/a
13.185	0.1055	26370	keystroke_Key.space	Key.space	n/a
13.47	0.12	26940	keystroke_l	l	n/a
13.5305	0.1045	27061	keystroke_a	a	n/a
13.7255	0.0895	27451	keystroke_z	z	n/a
13.965	0.0455	27930	keystroke_y	y	n/a
14.055	0.09	28110	keystroke_Key.space	Key.space	n/a
14.3405	0.164	28681	keystroke_d	d	n/a
14.6405	0.09	29281	keystroke_o	o	n/a
14.7145	0.121	29429	keystroke_g	g	n/a
14.9245	0.1205	29849	keystroke_Key.enter	Key.enter	n/a
15.057	6.096	30114	prompt	n/a	flex domestic predict protein\n
15.6905	0.105	31381	keystroke_f	f	n/a
16.0055	0.09	32011	keystroke_l	l	n/a
16.1105	0.105	32221	keystroke_e	e	n/a
16.32	0.1205	32640	keystroke_x	x	n/a
16.5445	0.076	33089	keystroke_Key.space	Key.space	n/a
16.9205	0.1045	33841	keystroke_d	d	n/a
16.9655	0.105	33931	keystroke_o	o	n/a
17.1605	0.12	34321	keystroke_m	m	n/a
17.2055	0.105	34411	keystroke_e	e	n/a
17.4155	0.105	34831	keystroke_s	s	n/a
17.58	0.0745	35160	keystroke_t	t	n/a
17.64	0.1205	35280	keystroke_i	i	n/a
17.8345	0.106	35669	keystroke_c	c	n/a
18.0455	0.0895	36091	keystroke_Key.space	Key.space	n/a
18.45	0.1055	36900	keystroke_p	p	n/a
18.6155	0.104	37231	keystroke_r	r	n/a
18.7055	0.105	37411	keystroke_e	e	n/a
18.915	0.1055	37830	keystroke_d	d	n/a
19.0655	0.119	38131	keystroke_i	i	n/a
19.2155	0.075	38431	keystroke_c	c	n/a
19.3955	0.09	38791	keystroke_t	t	n/a
19.5305	0.105	39061	keystroke_Key.space	Key.space	n/a
19.8605	0.12	39721	keystroke_p	p	n/a
19.951	0.1045	39902	keystroke_r	r	n/a
20.0845	0.121	40169	keystroke_o	o	n/a
20.3255	0.1055	40651	keystroke_t	t	n/a
20.5055	0.105	41011	keystroke_e	e	n/a
20.6255	0.135	41251	keystroke_i	i	n/a
20.8505	0.06	41701	keystroke_n	n	n/a
21.0755	0.0745	42151	keystroke_Key.enter	Key.enter	n/a
21.1575	12.205	42315	prompt	n/a	heated farmers mathematics foods\n
21.9755	0.1055	43951	keystroke_h	h	n/a
22.0355	0.1195	44071	keystroke_e	e	n/a
22.1255	0.105	44251	keystroke_a	a	n/a
22.2755	0.09	44551	keystroke_r	r	n/a
22.3955	0.12	44791	keystroke_e	e	n/a
22.5755	0.135	45151	keystroke_d	d	n/a
22.7255	0.105	45451	keystroke_Key.space	Key.space	n/a
23.2355	0.0595	46471	keystroke_f	f	n/a
23.6855	0.106	47371	keystroke_a	a	n/a
24.1355	0.12	48271	keystroke_r	r	n/a
24.2565	0.104	48513	keystroke_m	m	n/a
24.7655	0.074	49531	keystroke_Key.backspace	Key.backspace	n/a
24.9155	0.06	49831	keystroke_Key.backspace	Key.backspace	n/a
25.0505	0.045	50101	keystroke_Key.backspace	Key.backspace	n/a
25.1705	0.045	50341	keystroke_Key.backspace	Key.backspace	n/a
25.3045	0.061	50609	keystroke_Key.backspace	Key.backspace	n/a
25.4405	0.045	50881	keystroke_Key.backspace	Key.backspace	n/a
25.56	0.0605	51120	keystroke_Key.backspace	Key.backspace	n/a
25.6805	0.075	51361	keystroke_Key.backspace	Key.backspace	n/a
25.9805	0.12	51961	keystroke_t	t	n/a
26.085	0.1205	52170	keystroke_e	e	n/a
26.2955	0.12	52591	keystroke_d	d	n/a
26.4605	0.1195	52921	keystroke_Key.space	Key.space	n/a
26.9405	0.075	53881	keystroke_f	f	n/a
27.0455	0.09	54091	keystroke_a	a	n/a
27.1505	0.09	54301	keystroke_r	r	n/a
27.2555	0.09	54511	keystroke_m	m	n/a
27.3905	0.135	54781	keystroke_e	e	n/a
27.87	0.091	55740	keystroke_r	r	n/a
28.155	0.1205	56310	keystroke_s	s	n/a
28.3045	0.106	56609	keystroke_Key.space	Key.space	n/a
28.7555	0.105	57511	keystroke_m	m	n/a
28.8005	0.12	57601	keystroke_a	a	n/a
29.0255	0.06	58051	keystroke_t	t	n/a
29.1305	0.105	58261	keystroke_h	h	n/a
29.2205	0.09	58441	keystroke_e	e	n/a
29.4605	0.12	58921	keystroke_m	m	n/a
29.5355	0.1055	59071	keystroke_a	a	n/a
29.8055	0.0895	59611	keystroke_t	t	n/a
31.1255	0.09	62251	keystroke_i	i	n/a
31.1705	0.15	62341	keystroke_c	c	n/a
31.2755	0.12	62551	keystroke_s	s	n/a
31.4555	0.12	62911	keystroke_Key.space	Key.space	n/a
32.0405	0.105	64081	keystroke_f	f	n/a
32.1605	0.09	64321	keystroke_o	o	n/a
32.3105	0.105	64621	keystroke_o	o	n/a
32.4455	0.12	64891	keystroke_s	s	n/a
32.91	0.06	65820	keystroke_Key.backspace	Key.backspace	n/a
33.0005	0.104	66001	keystroke_d	d	n/a
33.0905	0.12	66181	keystroke_s	s	n/a
33.2255	0.135	66451	keystroke_Key.enter	Key.enter	n/a
33.369	8.7085	66738	prompt	n/a	employers clause much currencies\n
33.9755	0.105	67951	keystroke_e	e	n/a
34.2305	0.15	68461	keystroke_m	m	n/a
34.4255	0.105	68851	keystroke_p	p	n/a
34.6655	0.0745	69331	keystroke_l	l	n/a
34.83	0.1055	69660	keystroke_o	o	n/a
35.146	0.03	70292	keystroke_u	u	n/a
35.5355	0.104	71071	keystroke_Key.backspace	Key.backspace	n/a
36.076	0.09	72152	keystroke_y	y	n/a
36.136	0.1045	72272	keystroke_e	e	n/a
36.3	0.105	72600	keystroke_r	r	n/a
36.5555	0.1345	73111	keystroke_s	s	n/a
36.78	0.105	73560	keystroke_Key.space	Key.space	n/a
37.0355	0.105	74071	keystroke_c	c	n/a
37.156	0.105	74312	keystroke_l	l	n/a
37.29	0.1355	74580	keystroke_a	a	n/a
37.4855	0.105	74971	keystroke_u	u	n/a
37.5755	0.15	75151	keystroke_s	s	n/a
37.6655	0.12	75331	keystroke_e	e	n/a
37.7705	0.119	75541	keystroke_Key.space	Key.space	n/a
38.251	0.12	76502	keystroke_m	m	n/a
38.4	0.12	76800	keystroke_u	u	n/a
38.4755	0.1195	76951	keystroke_c	c	n/a
38.64	0.1055	77280	keystroke_h	h	n/a
38.7305	0.105	77461	keystroke_Key.space	Key.space	n/a
39.2255	0.1045	78451	keystroke_c	c	n/a
39.525	0.121	79050	keystroke_u	u	n/a
39.661	0.074	79322	keystroke_r	r	n/a
39.9155	0.0305	79831	keystroke_r	r	n/a
39.9305	0.105	79861	keystroke_e	e	n/a
40.0665	0.149	80133	keystroke_n	n	n/a
40.591	0.15	81182	keystroke_c	c	n/a
40.696	0.105	81392	keystroke_i	i	n/a
40.786	0.149	81572	keystroke_e	e	n/a
40.966	0.149	81932	keystroke_s	s	n/a
41.2055	0.12	82411	keystroke_Key.space	Key.space	n/a
41.685	0.1205	83370	keystroke_Key.backspace	Key.backspace	n/a
41.9555	0.12	83911	keystroke_Key.enter	Key.enter	n/a
42.0825	10.315	84165	prompt	n/a	believe filters switch complimentary\n
42.9155	0.1055	85831	keystroke_b	b	n/a
42.991	0.119	85982	keystroke_e	e	n/a
43.2915	0.0585	86583	keystroke_l	l	n/a
43.4555	0.105	86911	keystroke_i	i	n/a
43.53	0.1205	87060	keystroke_e	e	n/a
43.7705	0.075	87541	keystroke_v	v	n/a
43.9055	0.09	87811	keystroke_e	e	n/a
44.0995	0.106	88199	keystroke_Key.space	Key.space	n/a
44.3855	0.0905	88771	keystroke_s	s	n/a
44.5805	0.1205	89161	keystroke_w	w	n/a
44.85	0.1055	89700	keystroke_i	i	n/a
44.9855	0.1205	89971	keystroke_t	t	n/a
45.195	0.076	90390	keystroke_h	h	n/a
45.78	0.0905	91560	keystroke_Key.backspace	Key.backspace	n/a
45.9605	0.1205	91921	keystroke_c	c	n/a
46.096	0.12	92192	keystroke_h	h	n/a
46.471	0.1195	92942	keystroke_Key.space	Key.space	n/a
46.7705	0.0455	93541	keystroke_s	s	n/a
47.4755	0.12	94951	keystroke_Key.backspace	Key.backspace	n/a
47.61	0.105	95220	keystroke_c	c	n/a
47.731	0.1345	95462	keystroke_o	o	n/a
47.9255	0.105	95851	keystroke_m	m	n/a
48.1805	0.075	96361	keystroke_l	l	n/a
48.4655	0.1055	96931	keystroke_Key.backspace	Key.backspace	n/a
48.856	0.09	97712	keystroke_p	p	n/a
48.9905	0.1355	97981	keystroke_l	l	n/a
49.26	0.12	98520	keystroke_i	i	n/a
49.455	0.0905	98910	keystroke_m	m	n/a
49.546	0.1345	99092	keystroke_e	e	n/a
49.6505	0.12	99301	keystroke_n	n	n/a
49.816	0.1045	99632	keystroke_t	t	n/a
50.2205	0.105	100441	keystroke_r	r	n/a
50.7005	0.134	101401	keystroke_Key.backspace	Key.backspace	n/a
50.8955	0.1505	101791	keystroke_a	a	n/a
51.8415	0.1045	103683	keystroke_r	r	n/a
51.886	0.1045	103772	keystroke_y	y	n/a
52.2605	0.1345	104521	keystroke_Key.enter	Key.enter	n/a
52.4005	8.0375	104801	prompt	n/a	cache known silence thehun\n
53.071	0.0755	106142	keystroke_c	c	n/a
53.1755	0.1055	106351	keystroke_a	a	n/a
53.3705	0.1055	106741	keystroke_c	c	n/a
53.477	0.119	106954	keystroke_h	h	n/a
53.626	0.134	107252	keystroke_e	e	n/a
53.805	0.1355	107610	keystroke_Key.space	Key.space	n/a
54.2555	0.135	108511	keystroke_k	k	n/a
54.421	0.135	108842	keystroke_n	n	n/a
54.526	0.1195	109052	keystroke_o	o	n/a
54.557	0.119	109114	keystroke_w	w	n/a
54.781	0.0895	109562	keystroke_n	n	n/a
55.3505	0.12	110701	keystroke_Key.space	Key.space	n/a
55.5305	0.09	111061	keystroke_s	s	n/a
55.6955	0.12	111391	keystroke_i	i	n/a
55.9055	0.0905	111811	keystroke_l	l	n/a
56.0555	0.091	112111	keystroke_c	c	n/a
56.13	0.1205	112260	keystroke_e	e	n/a
56.445	0.076	112890	keystroke_Key.backspace	Key.backspace	n/a
56.596	0.105	113192	keystroke_Key.backspace	Key.backspace	n/a
57.361	0.104	114722	keystroke_e	e	n/a
57.451	0.105	114902	keystroke_n	n	n/a
57.6005	0.1055	115201	keystroke_c	c	n/a
57.691	0.105	115382	keystroke_e	e	n/a
58.066	0.1045	116132	keystroke_Key.space	Key.space	n/a
58.441	0.119	116882	keystroke_t	t	n/a
58.546	0.12	117092	keystroke_h	h	n/a
58.6515	0.1345	117303	keystroke_e	e	n/a
58.8455	0.1055	117691	keystroke_Key.space	Key.space	n/a
59.236	0.09	118472	keystroke_Key.backspace	Key.backspace	n/a
59.685	0.1055	119370	keystroke_h	h	n/a
59.715	0.181	119430	keystroke_u	u	n/a
59.896	0.135	119792	keystroke_n	n	n/a
60.3005	0.135	120601	keystroke_Key.enter	Key.enter	n/a
60.446	13.8515	120892	prompt	n/a	portuguese suspected affected appeals\n
61.4105	0.0755	122821	keystroke_p	p	n/a
61.6055	0.12	123211	keystroke_o	o	n/a
61.8005	0.1355	123601	keystroke_r	r	n/a
62.551	0.12	125102	keystroke_t	t	n/a
62.8355	0.12	125671	keystroke_u	u	n/a
64.1705	0.12	128341	keystroke_g	g	n/a
64.561	0.12	129122	keystroke_Key.backspace	Key.backspace	n/a
65.296	0.12	130592	keystroke_g	g	n/a
65.8655	0.12	131731	keystroke_u	u	n/a
65.9255	0.1205	131851	keystroke_e	e	n/a
66.166	0.135	132332	keystroke_s	s	n/a
66.271	0.1195	132542	keystroke_e	e	n/a
66.51	0.121	133020	keystroke_Key.space	Key.space	n/a
66.7655	0.12	133531	keystroke_s	s	n/a
67.0055	0.075	134011	keystroke_u	u	n/a
67.5605	0.1205	135121	keystroke_s	s	n/a
67.801	0.1045	135602	keystroke_p	p	n/a
67.8755	0.1355	135751	keystroke_e	e	n/a
68.6555	0.016	137311	keystroke_c	c	n/a
69.016	0.1045	138032	keystroke_t	t	n/a
69.136	0.12	138272	keystroke_e	e	n/a
69.3155	0.15	138631	keystroke_d	d	n/a
69.4505	0.135	138901	keystroke_Key.space	Key.space	n/a
70.0655	0.105	140131	keystroke_a	a	n/a
70.2755	0.06	140551	keystroke_f	f	n/a
70.4105	0.06	140821	keystroke_f	f	n/a
70.5155	0.1355	141031	keystroke_e	e	n/a
70.771	0.09	141542	keystroke_c	c	n/a
70.995	0.076	141990	keystroke_t	t	n/a
71.1	0.1205	142200	keystroke_e	e	n/a
71.2955	0.105	142591	keystroke_d	d	n/a
71.3855	0.135	142771	keystroke_Key.space	Key.space	n/a
72.0155	0.1205	144031	keystroke_a	a	n/a
72.2405	0.091	144481	keystroke_p	p	n/a
72.391	0.0755	144782	keystroke_p	p	n/a
72.5105	0.12	145021	keystroke_e	e	n/a
72.6905	0.1205	145381	keystroke_l	l	n/a
73.1555	0.105	146311	keystroke_a	a	n/a
73.4105	0.0755	146821	keystroke_Key.backspace	Key.backspace	n/a
73.6355	0.03	147271	keystroke_Key.backspace	Key.backspace	n/a
73.6505	0.135	147301	keystroke_a	a	n/a
73.7105	0.15	147421	keystroke_s	s	n/a
74.161	0.1345	148322	keystroke_Key.enter	Key.enter	n/a
74.3015	16.676	148603	prompt	n/a	indianapolis keith complaints johnston\n
75.2855	0.15	150571	keystroke_i	i	n/a
75.4055	0.135	150811	keystroke_n	n	n/a
75.7065	0.104	151413	keystroke_d	d	n/a
75.8255	0.1505	151651	keystroke_i	i	n/a
76.501	0.12	153002	keystroke_a	a	n/a
76.6955	0.09	153391	keystroke_n	n	n/a
77.0555	0.1355	154111	keystroke_a	a	n/a
78.0005	0.0905	156001	keystroke_p	p	n/a
78.181	0.12	156362	keystroke_o	o	n/a
78.391	0.1045	156782	keystroke_l	l	n/a
78.616	0.104	157232	keystroke_i	i	n/a
78.69	0.12	157380	keystroke_s	s	n/a
78.9155	0.105	157831	keystroke_Key.space	Key.space	n/a
79.6355	0.1055	159271	keystroke_k	k	n/a
79.711	0.1045	159422	keystroke_e	e	n/a
79.8305	0.12	159661	keystroke_i	i	n/a
80.0255	0.105	160051	keystroke_t	t	n/a
80.1005	0.121	160201	keystroke_h	h	n/a
80.251	0.0745	160502	keystroke_Key.space	Key.space	n/a
80.7315	0.104	161463	keystroke_c	c	n/a
80.8055	0.135	161611	keystroke_o	o	n/a
81.016	0.12	162032	keystroke_m	m	n/a
81.2105	0.12	162421	keystroke_p	p	n/a
81.4205	0.075	162841	keystroke_k	k	n/a
81.7655	0.0895	163531	keystroke_Key.backspace	Key.backspace	n/a
81.9755	0.12	163951	keystroke_l	l	n/a
82.051	0.1045	164102	keystroke_a	a	n/a
82.7105	0.12	165421	keystroke_i	i	n/a
82.815	0.1055	165630	keystroke_n	n	n/a
82.9055	0.1205	165811	keystroke_t	t	n/a
83.0555	0.1355	166111	keystroke_s	s	n/a
84.961	0.12	169922	keystroke_Key.space	Key.space	n/a
88.893	0.043	177786	keystroke_j	j	n/a
88.894	0.162	177788	keystroke_o	o	n/a
89.2205	0.12	178441	keystroke_h	h	n/a
89.4005	0.12	178801	keystroke_n	n	n/a
90.016	0.1345	180032	keystroke_s	s	n/a
90.301	0.105	180602	keystroke_t	t	n/a
90.451	0.12	180902	keystroke_o	o	n/a
90.676	0.105	181352	keystroke_n	n	n/a
90.886	0.09	181772	keystroke_Key.enter	Key.enter	n/a
90.982	8.516	181964	prompt	n/a	packages sage enquiry farmer\n
91.7855	0.1205	183571	keystroke_p	p	n/a
91.861	0.12	183722	keystroke_a	a	n/a
92.0415	0.104	184083	keystroke_c	c	n/a
92.13	0.1055	184260	keystroke_k	k	n/a
92.356	0.12	184712	keystroke_a	a	n/a
92.581	0.089	185162	keystroke_g	g	n/a
92.745	0.136	185490	keystroke_e	e	n/a
92.821	0.135	185642	keystroke_s	s	n/a
92.986	0.1345	185972	keystroke_Key.space	Key.space	n/a
93.661	0.1535	187322	keystroke_s	s	n/a
93.766	0.1045	187532	keystroke_a	a	n/a
93.93	0.076	187860	keystroke_g	g	n/a
94.021	0.15	188042	keystroke_e	e	n/a
94.201	0.104	188402	keystroke_Key.space	Key.space	n/a
95.8655	0.1655	191731	keystroke_i	i	n/a
95.9405	0.135	191881	keystroke_n	n	n/a
96.1965	0.1345	192393	keystroke_q	q	n/a
96.9455	0.135	193891	keystroke_u	u	n/a
97.0205	0.12	194041	keystroke_i	i	n/a
97.6955	0.105	195391	keystroke_r	r	n/a
97.936	0.1045	195872	keystroke_y	y	n/a
98.086	0.135	196172	keystroke_Key.space	Key.space	n/a
98.461	0.135	196922	keystroke_f	f	n/a
98.6255	0.1055	197251	keystroke_a	a	n/a
98.761	0.105	197522	keystroke_r	r	n/a
98.837	0.074	197674	keystroke_m	m	n/a
99.0915	0.12	198183	keystroke_e	e	n/a
99.166	0.1045	198332	keystroke_r	r	n/a
99.3605	0.1355	198721	keystroke_Key.enter	Key.enter	n/a
99.501	11.022	199002	prompt	n/a	equivalent casey acknowledged worlds\n
100.111	0.0895	200222	keystroke_a	a	n/a
100.5305	0.1345	201061	keystroke_Key.backspace	Key.backspace	n/a
100.681	0.1345	201362	keystroke_e	e	n/a
100.8005	0.1055	201601	keystroke_q	q	n/a
101.5505	0.134	203101	keystroke_u	u	n/a
101.6105	0.12	203221	keystroke_i	i	n/a
101.9105	0.075	203821	keystroke_v	v	n/a
102.0605	0.105	204121	keystroke_a	a	n/a
102.54	0.105	205080	keystroke_l	l	n/a
102.6305	0.09	205261	keystroke_e	e	n/a
102.8105	0.105	205621	keystroke_n	n	n/a
102.8855	0.105	205771	keystroke_t	t	n/a
103.0655	0.105	206131	keystroke_Key.space	Key.space	n/a
103.4405	0.12	206881	keystroke_c	c	n/a
103.606	0.1345	207212	keystroke_a	a	n/a
103.6955	0.1805	207391	keystroke_s	s	n/a
104.1305	0.09	208261	keystroke_e	e	n/a
104.28	0.1355	208560	keystroke_y	y	n/a
104.716	0.135	209432	keystroke_Key.space	Key.space	n/a
105.0155	0.1205	210031	keystroke_a	a	n/a
105.285	0.121	210570	keystroke_c	c	n/a
105.391	0.1045	210782	keystroke_k	k	n/a
105.6905	0.195	211381	keystroke_n	n	n/a
105.9005	0.12	211801	keystroke_o	o	n/a
106.0505	0.1355	212101	keystroke_w	w	n/a
107.0855	0.105	214171	keystroke_l	l	n/a
107.1755	0.105	214351	keystroke_e	e	n/a
107.5205	0.1195	215041	keystroke_d	d	n/a
108.3605	0.0905	216721	keystroke_g	g	n/a
108.4805	0.1205	216961	keystroke_e	e	n/a
108.6755	0.135	217351	keystroke_d	d	n/a
109.141	0.12	218282	keystroke_Key.space	Key.space	n/a
109.59	0.1065	219180	keystroke_w	w	n/a
109.681	0.09	219362	keystroke_o	o	n/a
109.785	0.1205	219570	keystroke_r	r	n/a
109.9205	0.105	219841	keystroke_l	l	n/a
110.0105	0.0895	220021	keystroke_d	d	n/a
110.086	0.1195	220172	keystroke_s	s	n/a
110.3555	0.165	220711	keystroke_Key.enter	Key.enter	n/a
110.527	11.9655	221054	prompt	n/a	society statewide solar saskatchewan\n
111.151	0.1195	222302	keystroke_s	s	n/a
111.4055	0.105	222811	keystroke_o	o	n/a
111.4955	0.09	222991	keystroke_c	c	n/a
111.6305	0.15	223261	keystroke_i	i	n/a
111.826	0.105	223652	keystroke_e	e	n/a
112.3355	0.135	224671	keystroke_t	t	n/a
112.4555	0.105	224911	keystroke_y	y	n/a
112.5755	0.1345	225151	keystroke_Key.space	Key.space	n/a
112.9355	0.09	225871	keystroke_s	s	n/a
113.0705	0.0755	226141	keystroke_o	o	n/a
113.2355	0.1055	226471	keystroke_l	l	n/a
113.3255	0.1355	226651	keystroke_a	a	n/a
113.446	0.1345	226892	keystroke_r	r	n/a
113.5955	0.135	227191	keystroke_Key.space	Key.space	n/a
114.015	0.135	228030	keystroke_s	s	n/a
114.106	0.12	228212	keystroke_a	a	n/a
114.871	0.12	229742	keystroke_c	c	n/a
114.9605	0.1205	229921	keystroke_j	j	n/a
115.4855	0.1195	230971	keystroke_Key.backspace	Key.backspace	n/a
117.091	0.09	234182	keystroke_s	s	n/a
117.7505	0.0605	235501	keystroke_Key.backspace	Key.backspace	n/a
117.9155	0.105	235831	keystroke_Key.backspace	Key.backspace	n/a
117.9605	0.135	235921	keystroke_s	s	n/a
119.326	0.105	238652	keystroke_k	k	n/a
119.4005	0.1355	238801	keystroke_a	a	n/a
120.316	0.09	240632	keystroke_t	t	n/a
120.5405	0.1055	241081	keystroke_c	c	n/a
120.66	0.0905	241320	keystroke_h	h	n/a
120.7805	0.1205	241561	keystroke_e	e	n/a
121.1105	0.165	242221	keystroke_w	w	n/a
121.2005	0.09	242401	keystroke_e	e	n/a
121.531	0.1045	243062	keystroke_Key.backspace	Key.backspace	n/a
121.576	0.104	243152	keystroke_a	a	n/a
122.1305	0.1195	244261	keystroke_n	n	n/a
122.3855	0.1055	244771	keystroke_Key.enter	Key.enter	n/a
122.496	10.0165	244992	prompt	n/a	bullet unemployment sorted massive\n
123.4205	0.12	246841	keystroke_b	b	n/a
123.6755	0.0905	247351	keystroke_u	u	n/a
123.886	0.0745	247772	keystroke_l	l	n/a
124.036	0.1195	248072	keystroke_l	l	n/a
124.0955	0.165	248191	keystroke_e	e	n/a
124.2305	0.1355	248461	keystroke_t	t	n/a
124.4555	0.1355	248911	keystroke_Key.space	Key.space	n/a
124.8905	0.135	249781	keystroke_u	u	n/a
124.951	0.09	249902	keystroke_n	n	n/a
125.4455	0.1055	250891	keystroke_e	e	n/a
125.5655	0.135	251131	keystroke_m	m	n/a
126.1055	0.1205	252211	keystroke_p	p	n/a
126.196	0.1345	252392	keystroke_l	l	n/a
126.66	0.106	253320	keystroke_o	o	n/a
127.3215	0.089	254643	keystroke_y	y	n/a
127.6055	0.1055	255211	keystroke_m	m	n/a
127.726	0.0595	255452	keystroke_e	e	n/a
127.8005	0.12	255601	keystroke_n	n	n/a
127.906	0.105	255812	keystroke_t	t	n/a
128.176	0.12	256352	keystroke_Key.space	Key.space	n/a
128.49	0.12	256980	keystroke_s	s	n/a
128.6255	0.1055	257251	keystroke_o	o	n/a
128.7155	0.1055	257431	keystroke_r	r	n/a
128.9705	0.091	257941	keystroke_t	t	n/a
129.2415	0.089	258483	keystroke_d	d	n/a
129.616	0.0895	259232	keystroke_Key.backspace	Key.backspace	n/a
129.811	0.12	259622	keystroke_e	e	n/a
130.0505	0.0905	260101	keystroke_d	d	n/a
130.3355	0.1355	260671	keystroke_Key.space	Key.space	n/a
130.951	0.1345	261902	keystroke_m	m	n/a
131.026	0.12	262052	keystroke_a	a	n/a
131.16	0.121	262320	keystroke_s	s	n/a
131.5205	0.105	263041	keystroke_s	s	n/a
131.7765	0.1195	263553	keystroke_i	i	n/a
131.851	0.075	263702	keystroke_v	v	n/a
131.9705	0.12	263941	keystroke_e	e	n/a
132.376	0.135	264752	keystroke_Key.enter	Key.enter	n/a
132.517	8.905	265034	prompt	n/a	requirement gary borders timeline\n
133.7405	0.1205	267481	keystroke_r	r	n/a
133.7855	0.165	267571	keystroke_e	e	n/a
134.0255	0.105	268051	keystroke_q	q	n/a
134.2205	0.15	268441	keystroke_u	u	n/a
134.2965	0.1195	268593	keystroke_i	i	n/a
134.5355	0.105	269071	keystroke_r	r	n/a
134.5955	0.1355	269191	keystroke_e	e	n/a
134.7905	0.12	269581	keystroke_m	m	n/a
134.925	0.121	269850	keystroke_e	e	n/a
134.985	0.1355	269970	keystroke_n	n	n/a
135.1515	0.1195	270303	keystroke_t	t	n/a
135.69	0.1205	271380	keystroke_Key.space	Key.space	n/a
136.2455	0.0905	272491	keystroke_g	g	n/a
136.3805	0.1205	272761	keystroke_a	a	n/a
136.5305	0.135	273061	keystroke_r	r	n/a
136.86	0.1355	273720	keystroke_y	y	n/a
137.1005	0.135	274201	keystroke_Key.space	Key.space	n/a
137.686	0.0895	275372	keystroke_b	b	n/a
137.76	0.106	275520	keystroke_o	o	n/a
137.9105	0.135	275821	keystroke_d	d	n/a
138.346	0.105	276692	keystroke_Key.backspace	Key.backspace	n/a
138.466	0.09	276932	keystroke_r	r	n/a
138.631	0.09	277262	keystroke_d	d	n/a
138.7955	0.135	277591	keystroke_e	e	n/a
138.9905	0.135	277981	keystroke_r	r	n/a
139.111	0.15	278222	keystroke_s	s	n/a
139.3655	0.1355	278731	keystroke_Key.space	Key.space	n/a
139.951	0.12	279902	keystroke_t	t	n/a
140.0565	0.089	280113	keystroke_i	i	n/a
140.1305	0.1205	280261	keystroke_m	m	n/a
140.236	0.135	280472	keystroke_e	e	n/a
140.461	0.135	280922	keystroke_l	l	n/a
140.6855	0.18	281371	keystroke_i	i	n/a
140.836	0.1045	281672	keystroke_n	n	n/a
141.0155	0.135	282031	keystroke_e	e	n/a
141.3155	0.105	282631	keystroke_Key.enter	Key.enter	n/a
141.427	7.285	282854	prompt	n/a	blogging sandra same favorites\n
142.32	0.1065	284640	keystroke_b	b	n/a
142.4105	0.105	284821	keystroke_l	l	n/a
142.5755	0.136	285151	keystroke_o	o	n/a
142.9355	0.075	285871	keystroke_g	g	n/a
143.071	0.119	286142	keystroke_g	g	n/a
143.1005	0.225	286201	keystroke_i	i	n/a
143.251	0.1195	286502	keystroke_n	n	n/a
144.0755	0.1045	288151	keystroke_g	g	n/a
144.6	0.09	289200	keystroke_Key.space	Key.space	n/a
144.9005	0.15	289801	keystroke_s	s	n/a
145.0355	0.106	290071	keystroke_a	a	n/a
145.1855	0.105	290371	keystroke_n	n	n/a
145.2455	0.15	290491	keystroke_d	d	n/a
145.561	0.12	291122	keystroke_r	r	n/a
145.681	0.1345	291362	keystroke_a	a	n/a
145.8905	0.12	291781	keystroke_Key.space	Key.space	n/a
146.161	0.1345	292322	keystroke_s	s	n/a
146.2505	0.1505	292501	keystroke_a	a	n/a
146.3105	0.1205	292621	keystroke_m	m	n/a
146.446	0.1195	292892	keystroke_e	e	n/a
146.5205	0.1205	293041	keystroke_Key.space	Key.space	n/a
147.016	0.075	294032	keystroke_f	f	n/a
147.136	0.06	294272	keystroke_a	a	n/a
147.301	0.105	294602	keystroke_v	v	n/a
147.436	0.135	294872	keystroke_o	o	n/a
147.795	0.1355	295590	keystroke_r	r	n/a
147.856	0.1045	295712	keystroke_i	i	n/a
148.006	0.1205	296012	keystroke_t	t	n/a
148.156	0.166	296312	keystroke_e	e	n/a
148.3055	0.15	296611	keystroke_s	s	n/a
148.576	0.1345	297152	keystroke_Key.enter	Key.enter	n/a
148.715	9.3425	297430	prompt	n/a	sheets rolling wide introductory\n
149.3705	0.09	298741	keystroke_s	s	n/a
149.5505	0.105	299101	keystroke_h	h	n/a
149.6405	0.076	299281	keystroke_e	e	n/a
149.8215	0.09	299643	keystroke_e	e	n/a
150.0015	0.09	300003	keystroke_t	t	n/a
150.061	0.18	300122	keystroke_s	s	n/a
150.2255	0.105	300451	keystroke_Key.space	Key.space	n/a
150.526	0.1195	301052	keystroke_s	s	n/a
150.8255	0.12	301651	keystroke_Key.backspace	Key.backspace	n/a
150.9755	0.15	301951	keystroke_r	r	n/a
151.1105	0.1065	302221	keystroke_o	o	n/a
151.306	0.09	302612	keystroke_l	l	n/a
151.4555	0.0755	302911	keystroke_l	l	n/a
151.621	0.15	303242	keystroke_i	i	n/a
151.695	0.121	303390	keystroke_n	n	n/a
151.786	0.105	303572	keystroke_g	g	n/a
151.9795	0.1065	303959	keystroke_Key.space	Key.space	n/a
152.4755	0.1655	304951	keystroke_w	w	n/a
152.6255	0.135	305251	keystroke_i	i	n/a
152.7305	0.105	305461	keystroke_d	d	n/a
152.9105	0.165	305821	keystroke_e	e	n/a
153.031	0.1345	306062	keystroke_Key.space	Key.space	n/a
153.4505	0.1505	306901	keystroke_i	i	n/a
153.6155	0.1205	307231	keystroke_n	n	n/a
153.7805	0.0905	307561	keystroke_t	t	n/a
153.9605	0.1355	307921	keystroke_r	r	n/a
154.1555	0.0905	308311	keystroke_i	i	n/a
154.486	0.09	308972	keystroke_Key.backspace	Key.backspace	n/a
154.681	0.135	309362	keystroke_o	o	n/a
155.3105	0.1205	310621	keystroke_d	d	n/a
155.5055	0.1195	311011	keystroke_u	u	n/a
155.581	0.1195	311162	keystroke_c	c	n/a
155.896	0.1045	311792	keystroke_t	t	n/a
156.1505	0.1205	312301	keystroke_o	o	n/a
156.2855	0.06	312571	keystroke_r	r	n/a
156.646	0.105	313292	keystroke_y	y	n/a
157.0955	0.105	314191	keystroke_\	\	n/a
157.666	0.1045	315332	keystroke_Key.backspace	Key.backspace	n/a
157.9355	0.12	315871	keystroke_Key.enter	Key.enter	n/a
158.062	7.285	316124	prompt	n/a	captured widespread server wall\n
158.7615	0.059	317523	keystroke_c	c	n/a
158.8355	0.105	317671	keystroke_a	a	n/a
159.031	0.1195	318062	keystroke_p	p	n/a
159.3605	0.1205	318721	keystroke_t	t	n/a
159.5555	0.1355	319111	keystroke_u	u	n/a
159.646	0.15	319292	keystroke_r	r	n/a
160.066	0.1195	320132	keystroke_e	e	n/a
160.2605	0.121	320521	keystroke_d	d	n/a
160.441	0.1345	320882	keystroke_Key.space	Key.space	n/a
160.756	0.1045	321512	keystroke_w	w	n/a
160.906	0.12	321812	keystroke_i	i	n/a
161.011	0.09	322022	keystroke_d	d	n/a
161.176	0.1045	322352	keystroke_e	e	n/a
161.4905	0.09	322981	keystroke_s	s	n/a
161.5955	0.1055	323191	keystroke_p	p	n/a
161.8205	0.1205	323641	keystroke_r	r	n/a
161.895	0.121	323790	keystroke_e	e	n/a
162.2105	0.1205	324421	keystroke_a	a	n/a
162.333	0.148	324666	keystroke_d	d	n/a
162.525	0.136	325050	keystroke_Key.space	Key.space	n/a
163.1255	0.195	326251	keystroke_s	s	n/a
163.275	0.1205	326550	keystroke_e	e	n/a
163.471	0.1345	326942	keystroke_r	r	n/a
163.696	0.0895	327392	keystroke_v	v	n/a
163.831	0.1645	327662	keystroke_e	e	n/a
163.936	0.134	327872	keystroke_r	r	n/a
164.22	0.121	328440	keystroke_Key.space	Key.space	n/a
164.5355	0.1345	329071	keystroke_w	w	n/a
164.6105	0.1655	329221	keystroke_a	a	n/a
164.8355	0.1055	329671	keystroke_l	l	n/a
165.031	0.09	330062	keystroke_l	l	n/a
165.195	0.15	330390	keystroke_Key.enter	Key.enter	n/a
165.353	6.9845	330706	prompt	n/a	whats precise exhibition quiz\n
165.8855	0.1205	331771	keystroke_w	w	n/a
166.2	0.121	332400	keystroke_h	h	n/a
166.23	0.121	332460	keystroke_a	a	n/a
166.38	0.106	332760	keystroke_t	t	n/a
166.5755	0.135	333151	keystroke_s	s	n/a
166.7405	0.1345	333481	keystroke_Key.space	Key.space	n/a
167.206	0.149	334412	keystroke_p	p	n/a
167.296	0.075	334592	keystroke_r	r	n/a
167.34	0.091	334680	keystroke_e	e	n/a
167.506	0.1195	335012	keystroke_c	c	n/a
167.6105	0.12	335221	keystroke_i	i	n/a
167.7605	0.165	335521	keystroke_s	s	n/a
167.8505	0.15	335701	keystroke_e	e	n/a
168.0605	0.135	336121	keystroke_Key.space	Key.space	n/a
168.4805	0.135	336961	keystroke_e	e	n/a
168.69	0.12	337380	keystroke_x	x	n/a
169.2905	0.12	338581	keystroke_h	h	n/a
169.56	0.076	339120	keystroke_i	i	n/a
169.8005	0.1055	339601	keystroke_b	b	n/a
169.921	0.104	339842	keystroke_i	i	n/a
170.3105	0.12	340621	keystroke_t	t	n/a
170.386	0.119	340772	keystroke_i	i	n/a
170.461	0.12	340922	keystroke_o	o	n/a
170.6105	0.1345	341221	keystroke_n	n	n/a
171.36	0.151	342720	keystroke_Key.space	Key.space	n/a
171.615	0.1205	343230	keystroke_q	q	n/a
171.781	0.134	343562	keystroke_u	u	n/a
171.8405	0.135	343681	keystroke_i	i	n/a
172.0205	0.105	344041	keystroke_z	z	n/a
172.2005	0.135	344401	keystroke_Key.enter	Key.enter	n/a
172.3415	10.016	344683	prompt	n/a	pressing arrival statutes environmental\n
173.3855	0.1355	346771	keystroke_p	p	n/a
173.4455	0.1045	346891	keystroke_r	r	n/a
173.5055	0.0895	347011	keystroke_e	e	n/a
173.656	0.09	347312	keystroke_s	s	n/a
173.8205	0.1345	347641	keystroke_s	s	n/a
173.8805	0.1205	347761	keystroke_i	i	n/a
174.0605	0.12	348121	keystroke_n	n	n/a
174.1055	0.1195	348211	keystroke_g	g	n/a
174.3	0.135	348600	keystroke_Key.space	Key.space	n/a
174.6605	0.105	349321	keystroke_a	a	n/a
174.871	0.09	349742	keystroke_r	r	n/a
175.036	0.105	350072	keystroke_r	r	n/a
175.111	0.105	350222	keystroke_i	i	n/a
175.246	0.09	350492	keystroke_v	v	n/a
175.4105	0.0895	350821	keystroke_a	a	n/a
175.561	0.12	351122	keystroke_l	l	n/a
175.7255	0.135	351451	keystroke_Key.space	Key.space	n/a
176.1305	0.1205	352261	keystroke_s	s	n/a
176.3105	0.09	352621	keystroke_t	t	n/a
176.4905	0.075	352981	keystroke_a	a	n/a
176.6255	0.0755	353251	keystroke_t	t	n/a
177.39	0.1205	354780	keystroke_u	u	n/a
177.495	0.1655	354990	keystroke_t	t	n/a
177.6755	0.18	355351	keystroke_e	e	n/a
177.8405	0.15	355681	keystroke_s	s	n/a
178.1105	0.1055	356221	keystroke_Key.space	Key.space	n/a
178.605	0.1205	357210	keystroke_e	e	n/a
178.7405	0.0895	357481	keystroke_n	n	n/a
179.3105	0.0905	358621	keystroke_v	v	n/a
179.6715	0.104	359343	keystroke_i	i	n/a
179.8355	0.12	359671	keystroke_r	r	n/a
180.0155	0.15	360031	keystroke_o	o	n/a
180.1355	0.15	360271	keystroke_n	n	n/a
181.036	0.0895	362072	keystroke_m	m	n/a
181.1265	0.1185	362253	keystroke_e	e	n/a
181.231	0.0745	362462	keystroke_n	n	n/a
181.351	0.1045	362702	keystroke_t	t	n/a
181.4855	0.121	362971	keystroke_a	a	n/a
181.7405	0.105	363481	keystroke_l	l	n/a
182.2205	0.135	364441	keystroke_Key.enter	Key.enter	n/a
182.363	9.76	364726	prompt	n/a	acceptable decisions rebecca produces\n
182.986	0.12	365972	keystroke_a	a	n/a
183.182	0.089	366364	keystroke_c	c	n/a
183.361	0.09	366722	keystroke_c	c	n/a
183.541	0.134	367082	keystroke_e	e	n/a
183.736	0.1195	367472	keystroke_p	p	n/a
183.931	0.104	367862	keystroke_t	t	n/a
184.0955	0.1055	368191	keystroke_a	a	n/a
184.3205	0.09	368641	keystroke_b	b	n/a
184.456	0.105	368912	keystroke_l	l	n/a
184.546	0.15	369092	keystroke_e	e	n/a
184.68	0.12	369360	keystroke_Key.space	Key.space	n/a
185.0855	0.105	370171	keystroke_d	d	n/a
185.385	0.106	370770	keystroke_c	c	n/a
185.4755	0.105	370951	keystroke_e	e	n/a
186.0755	0.06	372151	keystroke_Key.backspace	Key.backspace	n/a
186.2405	0.09	372481	keystroke_Key.backspace	Key.backspace	n/a
186.2705	0.12	372541	keystroke_e	e	n/a
186.4955	0.09	372991	keystroke_c	c	n/a
186.9905	0.12	373981	keystroke_i	i	n/a
187.0805	0.12	374161	keystroke_s	s	n/a
187.1855	0.136	374371	keystroke_i	i	n/a
187.2615	0.1345	374523	keystroke_o	o	n/a
187.3805	0.105	374761	keystroke_n	n	n/a
187.5005	0.1505	375001	keystroke_s	s	n/a
187.7105	0.105	375421	keystroke_Key.space	Key.space	n/a
187.9805	0.09	375961	keystroke_r	r	n/a
188.0555	0.12	376111	keystroke_e	e	n/a
188.3855	0.1055	376771	keystroke_b	b	n/a
188.5505	0.1195	377101	keystroke_e	e	n/a
188.76	0.09	377520	keystroke_c	c	n/a
188.9255	0.1045	377851	keystroke_c	c	n/a
189.1055	0.1055	378211	keystroke_a	a	n/a
189.3155	0.1205	378631	keystroke_Key.space	Key.space	n/a
189.645	0.12	379290	keystroke_p	p	n/a
189.7205	0.1195	379441	keystroke_r	r	n/a
190.1705	0.105	380341	keystroke_o	o	n/a
190.8	0.1205	381600	keystroke_d	d	n/a
190.9805	0.105	381961	keystroke_u	u	n/a
191.0405	0.135	382081	keystroke_c	c	n/a
191.1605	0.15	382321	keystroke_e	e	n/a
191.281	0.1645	382562	keystroke_s	s	n/a
191.4605	0.12	382921	keystroke_Key.space	Key.space	n/a
192	0.1205	384000	keystroke_Key.enter	Key.enter	n/a
192.1285	17.4385	384257	prompt	n/a	all sponsors exercises princeton\n
192.646	0.105	385292	keystroke_a	a	n/a
192.945	0.0905	385890	keystroke_l	l	n/a
193.0955	0.105	386191	keystroke_l	l	n/a
193.1855	0.12	386371	keystroke_Key.space	Key.space	n/a
193.5305	0.105	387061	keystroke_s	s	n/a
193.6055	0.1055	387211	keystroke_p	p	n/a
193.7855	0.1345	387571	keystroke_o	o	n/a
194.041	0.104	388082	keystroke_n	n	n/a
194.175	0.1055	388350	keystroke_c	c	n/a
194.2655	0.12	388531	keystroke_o	o	n/a
194.776	0.0595	389552	keystroke_r	r	n/a
195.256	0.09	390512	keystroke_s	s	n/a
195.4205	0.1195	390841	keystroke_Key.space	Key.space	n/a
195.8405	0.09	391681	keystroke_e	e	n/a
196.0205	0.12	392041	keystroke_x	x	n/a
196.2905	0.12	392581	keystroke_e	e	n/a
196.4255	0.12	392851	keystroke_r	r	n/a
198.4655	0.09	396931	keystroke_Key.backspace	Key.backspace	n/a
198.6305	0.06	397261	keystroke_Key.backspace	Key.backspace	n/a
198.7505	0.06	397501	keystroke_Key.backspace	Key.backspace	n/a
198.8855	0.06	397771	keystroke_Key.backspace	Key.backspace	n/a
199.0205	0.06	398041	keystroke_Key.backspace	Key.backspace	n/a
199.1555	0.075	398311	keystroke_Key.backspace	Key.backspace	n/a
199.2905	0.06	398581	keystroke_Key.backspace	Key.backspace	n/a
199.4255	0.06	398851	keystroke_Key.backspace	Key.backspace	n/a
199.5455	0.075	399091	keystroke_Key.backspace	Key.backspace	n/a
199.8005	0.045	399601	keystroke_Key.backspace	Key.backspace	n/a
200.7755	0.075	401551	keystroke_n	n	n/a
200.9695	0.106	401939	keystroke_s	s	n/a
201.0905	0.12	402181	keystroke_o	o	n/a
201.1805	0.121	402361	keystroke_r	r	n/a
201.4055	0.1195	402811	keystroke_s	s	n/a
201.631	0.1045	403262	keystroke_Key.space	Key.space	n/a
201.9305	0.105	403861	keystroke_e	e	n/a
202.1405	0.1205	404281	keystroke_x	x	n/a
202.456	0.1345	404912	keystroke_e	e	n/a
202.546	0.1045	405092	keystroke_r	r	n/a
202.9055	0.106	405811	keystroke_v	v	n/a
203.3855	0.0455	406771	keystroke_i	i	n/a
203.4455	0.09	406891	keystroke_c	c	n/a
203.7155	0.075	407431	keystroke_Key.backspace	Key.backspace	n/a
203.85	0.1055	407700	keystroke_Key.backspace	Key.backspace	n/a
204.0155	0.12	408031	keystroke_c	c	n/a
204.1505	0.12	408301	keystroke_i	i	n/a
204.525	0.076	409050	keystroke_Key.backspace	Key.backspace	n/a
204.6605	0.06	409321	keystroke_Key.backspace	Key.backspace	n/a
204.7955	0.09	409591	keystroke_Key.backspace	Key.backspace	n/a
205.2305	0.105	410461	keystroke_c	c	n/a
205.3365	0.104	410673	keystroke_i	i	n/a
206.221	0.12	412442	keystroke_z	z	n/a
206.5505	0.1195	413101	keystroke_Key.backspace	Key.backspace	n/a
206.641	0.134	413282	keystroke_s	s	n/a
206.731	0.105	413462	keystroke_e	e	n/a
206.8655	0.1205	413731	keystroke_s	s	n/a
207.1505	0.105	414301	keystroke_Key.space	Key.space	n/a
207.781	0.1045	415562	keystroke_p	p	n/a
207.8405	0.1355	415681	keystroke_r	r	n/a
208.0955	0.1055	416191	keystroke_i	i	n/a
208.246	0.105	416492	keystroke_n	n	n/a
208.515	0.12	417030	keystroke_c	c	n/a
208.621	0.135	417242	keystroke_e	e	n/a
208.89	0.105	417780	keystroke_t	t	n/a
209.025	0.12	418050	keystroke_o	o	n/a
209.2205	0.12	418441	keystroke_n	n	n/a
209.4905	0.075	418981	keystroke_Key.enter	Key.enter	n/a
209.571	8.426	419142	prompt	n/a	trick downloads worker timeline\n
210.406	0.03	420812	keystroke_t	t	n/a
210.5705	0.09	421141	keystroke_r	r	n/a
210.8105	0.0895	421621	keystroke_i	i	n/a
211.2915	0.089	422583	keystroke_c	c	n/a
211.3955	0.105	422791	keystroke_k	k	n/a
211.5305	0.135	423061	keystroke_Key.space	Key.space	n/a
211.935	0.105	423870	keystroke_d	d	n/a
212.055	0.121	424110	keystroke_o	o	n/a
212.386	0.0895	424772	keystroke_n	n	n/a
212.5355	0.106	425071	keystroke_w	w	n/a
212.7755	0.074	425551	keystroke_Key.backspace	Key.backspace	n/a
212.9255	0.1045	425851	keystroke_Key.backspace	Key.backspace	n/a
213.12	0.105	426240	keystroke_w	w	n/a
213.211	0.105	426422	keystroke_n	n	n/a
213.571	0.104	427142	keystroke_l	l	n/a
213.72	0.15	427440	keystroke_o	o	n/a
213.825	0.105	427650	keystroke_a	a	n/a
213.8855	0.135	427771	keystroke_d	d	n/a
214.0805	0.15	428161	keystroke_s	s	n/a
214.3505	0.12	428701	keystroke_Key.space	Key.space	n/a
214.6805	0.12	429361	keystroke_w	w	n/a
214.7705	0.0895	429541	keystroke_o	o	n/a
214.8755	0.135	429751	keystroke_r	r	n/a
215.071	0.1505	430142	keystroke_k	k	n/a
215.2355	0.135	430471	keystroke_e	e	n/a
215.3255	0.1345	430651	keystroke_r	r	n/a
215.5355	0.12	431071	keystroke_Key.space	Key.space	n/a
215.911	0.0895	431822	keystroke_t	t	n/a
215.9705	0.1345	431941	keystroke_i	i	n/a
216.061	0.0895	432122	keystroke_m	m	n/a
216.181	0.1045	432362	keystroke_e	e	n/a
216.2705	0.15	432541	keystroke_l	l	n/a
216.9005	0.12	433801	keystroke_i	i	n/a
217.0505	0.045	434101	keystroke_n	n	n/a
217.3955	0.1055	434791	keystroke_e	e	n/a
217.8755	0.1195	435751	keystroke_Key.enter	Key.enter	n/a
218.002	10.06	436004	prompt	n/a	commodities manchester hole familiar\n
218.626	0.135	437252	keystroke_c	c	n/a
218.745	0.1055	437490	keystroke_o	o	n/a
218.94	0.091	437880	keystroke_m	m	n/a
219.091	0.104	438182	keystroke_m	m	n/a
219.285	0.105	438570	keystroke_o	o	n/a
219.751	0.1045	439502	keystroke_d	d	n/a
219.8405	0.1045	439681	keystroke_i	i	n/a
220.1705	0.105	440341	keystroke_t	t	n/a
220.2455	0.135	440491	keystroke_i	i	n/a
220.3955	0.1655	440791	keystroke_e	e	n/a
220.5455	0.135	441091	keystroke_s	s	n/a
220.8005	0.1045	441601	keystroke_Key.space	Key.space	n/a
221.1005	0.12	442201	keystroke_m	m	n/a
221.1605	0.105	442321	keystroke_a	a	n/a
221.3405	0.135	442681	keystroke_c	c	n/a
221.4305	0.12	442861	keystroke_n	n	n/a
221.7305	0.09	443461	keystroke_h	h	n/a
221.806	0.1345	443612	keystroke_e	e	n/a
221.8805	0.12	443761	keystroke_r	r	n/a
222.555	0.105	445110	keystroke_Key.backspace	Key.backspace	n/a
222.705	0.0905	445410	keystroke_s	s	n/a
222.8105	0.1205	445621	keystroke_t	t	n/a
222.975	0.1505	445950	keystroke_e	e	n/a
223.0655	0.15	446131	keystroke_r	r	n/a
223.605	0.12	447210	keystroke_Key.space	Key.space	n/a
224.3105	0.1205	448621	keystroke_h	h	n/a
224.446	0.0445	448892	keystroke_o	o	n/a
224.6405	0.1205	449281	keystroke_l	l	n/a
224.6555	0.1065	449311	keystroke_e	e	n/a
224.8205	0.1195	449641	keystroke_Key.space	Key.space	n/a
225.4355	0.0605	450871	keystroke_f	f	n/a
225.75	0.135	451500	keystroke_a	a	n/a
225.931	0.12	451862	keystroke_m	m	n/a
226.1255	0.1205	452251	keystroke_i	i	n/a
226.6505	0.135	453301	keystroke_l	l	n/a
226.8605	0.1045	453721	keystroke_i	i	n/a
227.0705	0.0905	454141	keystroke_a	a	n/a
227.6115	0.104	455223	keystroke_r	r	n/a
227.925	0.135	455850	keystroke_Key.enter	Key.enter	n/a
228.065	10.152	456130	prompt	n/a	hazardous belongs vocabulary artist\n
229.0505	0.06	458101	keystroke_h	h	n/a
229.0655	0.1055	458131	keystroke_a	a	n/a
229.245	0.06	458490	keystroke_z	z	n/a
229.396	0.149	458792	keystroke_a	a	n/a
229.621	0.1045	459242	keystroke_r	r	n/a
230.0705	0.1055	460141	keystroke_d	d	n/a
230.161	0.12	460322	keystroke_o	o	n/a
230.416	0.119	460832	keystroke_u	u	n/a
230.52	0.106	461040	keystroke_s	s	n/a
230.686	0.119	461372	keystroke_Key.space	Key.space	n/a
231.316	0.0895	462632	keystroke_b	b	n/a
231.5555	0.15	463111	keystroke_e	e	n/a
231.7655	0.12	463531	keystroke_l	l	n/a
231.9605	0.135	463921	keystroke_o	o	n/a
232.4405	0.1045	464881	keystroke_n	n	n/a
232.4855	0.105	464971	keystroke_g	g	n/a
232.6205	0.15	465241	keystroke_s	s	n/a
232.8005	0.12	465601	keystroke_Key.space	Key.space	n/a
233.355	0.091	466710	keystroke_v	v	n/a
233.4755	0.09	466951	keystroke_o	o	n/a
233.76	0.0905	467520	keystroke_c	c	n/a
233.8805	0.12	467761	keystroke_a	a	n/a
234.1355	0.045	468271	keystroke_l	l	n/a
234.4205	0.15	468841	keystroke_Key.backspace	Key.backspace	n/a
234.736	0.119	469472	keystroke_b	b	n/a
234.841	0.1045	469682	keystroke_u	u	n/a
235.081	0.1195	470162	keystroke_l	l	n/a
235.185	0.1505	470370	keystroke_a	a	n/a
235.4105	0.106	470821	keystroke_r	r	n/a
235.846	0.104	471692	keystroke_y	y	n/a
235.965	0.121	471930	keystroke_Key.space	Key.space	n/a
236.235	0.106	472470	keystroke_a	a	n/a
236.5805	0.12	473161	keystroke_r	r	n/a
237.061	0.1045	474122	keystroke_t	t	n/a
237.3155	0.1355	474631	keystroke_i	i	n/a
237.496	0.149	474992	keystroke_s	s	n/a
237.6305	0.105	475261	keystroke_t	t	n/a
238.1105	0.105	476221	keystroke_Key.enter	Key.enter	n/a
238.2215	10.466	476443	prompt	n/a	decent specs basin cabinet\n
238.8755	0.03	477751	keystroke_d	d	n/a
238.9805	0.105	477961	keystroke_e	e	n/a
239.2055	0.09	478411	keystroke_c	c	n/a
239.2805	0.12	478561	keystroke_e	e	n/a
239.4455	0.105	478891	keystroke_n	n	n/a
239.5055	0.105	479011	keystroke_t	t	n/a
239.7005	0.12	479401	keystroke_Key.space	Key.space	n/a
239.8955	0.1355	479791	keystroke_s	s	n/a
240.001	0.1345	480002	keystroke_p	p	n/a
240.106	0.1495	480212	keystroke_e	e	n/a
240.3305	0.105	480661	keystroke_c	c	n/a
240.555	0.106	481110	keystroke_s	s	n/a
240.7945	0.106	481589	keystroke_Key.space	Key.space	n/a
241.845	0.1055	483690	keystroke_b	b	n/a
241.935	0.151	483870	keystroke_a	a	n/a
242.026	0.165	484052	keystroke_s	s	n/a
242.5805	0.105	485161	keystroke_i	i	n/a
242.8805	0.1055	485761	keystroke_c	c	n/a
243.51	0.12	487020	keystroke_Key.backspace	Key.backspace	n/a
243.9305	0.075	487861	keystroke_n	n	n/a
246.588	0.058	493176	keystroke_Key.space	Key.space	n/a
246.81	0.1055	493620	keystroke_c	c	n/a
246.93	0.0755	493860	keystroke_a	a	n/a
247.485	0.1055	494970	keystroke_b	b	n/a
247.5755	0.0745	495151	keystroke_i	i	n/a
247.771	0.089	495542	keystroke_n	n	n/a
247.845	0.1655	495690	keystroke_e	e	n/a
247.9955	0.135	495991	keystroke_t	t	n/a
248.5955	0.09	497191	keystroke_Key.enter	Key.enter	n/a
248.6925	10.9005	497385	prompt	n/a	establishment plots wrote sheep\n
249.6755	0.196	499351	keystroke_e	e	n/a
249.7815	0.1345	499563	keystroke_s	s	n/a
251.416	0.12	502832	keystroke_t	t	n/a
251.5955	0.075	503191	keystroke_a	a	n/a
251.9855	0.105	503971	keystroke_b	b	n/a
252.2855	0.105	504571	keystroke_l	l	n/a
252.451	0.119	504902	keystroke_i	i	n/a
252.5255	0.12	505051	keystroke_s	s	n/a
252.7055	0.12	505411	keystroke_h	h	n/a
252.931	0.0595	505862	keystroke_e	e	n/a
253.0505	0.06	506101	keystroke_m	m	n/a
253.3505	0.06	506701	keystroke_Key.backspace	Key.backspace	n/a
253.4855	0.09	506971	keystroke_Key.backspace	Key.backspace	n/a
254.1005	0.1045	508201	keystroke_Key.backspace	Key.backspace	n/a
254.836	0.09	509672	keystroke_m	m	n/a
254.911	0.104	509822	keystroke_e	e	n/a
255.0305	0.105	510061	keystroke_n	n	n/a
255.1655	0.1195	510331	keystroke_t	t	n/a
255.66	0.1205	511320	keystroke_Key.space	Key.space	n/a
256.021	0.1045	512042	keystroke_p	p	n/a
256.1855	0.15	512371	keystroke_l	l	n/a
256.3055	0.12	512611	keystroke_o	o	n/a
256.4105	0.12	512821	keystroke_t	t	n/a
256.5455	0.18	513091	keystroke_s	s	n/a
256.7405	0.105	513481	keystroke_Key.space	Key.space	n/a
257.1155	0.105	514231	keystroke_w	w	n/a
257.3555	0.136	514711	keystroke_r	r	n/a
257.4455	0.1205	514891	keystroke_o	o	n/a
257.596	0.119	515192	keystroke_t	t	n/a
257.745	0.151	515490	keystroke_e	e	n/a
257.91	0.12	515820	keystroke_Key.space	Key.space	n/a
258.4355	0.12	516871	keystroke_s	s	n/a
258.5405	0.09	517081	keystroke_h	h	n/a
258.6755	0.09	517351	keystroke_e	e	n/a
258.8395	0.136	517679	keystroke_e	e	n/a
259.2305	0.0895	518461	keystroke_p	p	n/a
259.485	0.105	518970	keystroke_Key.enter	Key.enter	n/a
259.598	9.5045	519196	prompt	n/a	boards reach oven darwin\n
260.7015	0.134	521403	keystroke_b	b	n/a
260.7905	0.165	521581	keystroke_o	o	n/a
261.5255	0.135	523051	keystroke_a	a	n/a
261.706	0.09	523412	keystroke_r	r	n/a
261.8865	0.089	523773	keystroke_d	d	n/a
261.9455	0.1505	523891	keystroke_s	s	n/a
262.17	0.121	524340	keystroke_Key.space	Key.space	n/a
262.4555	0.1055	524911	keystroke_r	r	n/a
262.5155	0.0755	525031	keystroke_e	e	n/a
262.651	0.1045	525302	keystroke_a	a	n/a
262.8005	0.105	525601	keystroke_c	c	n/a
262.907	0.1035	525814	keystroke_h	h	n/a
263.0555	0.105	526111	keystroke_Key.space	Key.space	n/a
263.4755	0.1195	526951	keystroke_o	o	n/a
263.551	0.075	527102	keystroke_v	v	n/a
263.6555	0.15	527311	keystroke_e	e	n/a
263.7755	0.075	527551	keystroke_r	r	n/a
263.881	0.1045	527762	keystroke_n	n	n/a
264.0605	0.105	528121	keystroke_Key.space	Key.space	n/a
264.51	0.1055	529020	keystroke_f	f	n/a
264.6455	0.1505	529291	keystroke_a	a	n/a
264.901	0.1195	529802	keystroke_r	r	n/a
265.3205	0.12	530641	keystroke_w	w	n/a
265.665	0.075	531330	keystroke_Key.backspace	Key.backspace	n/a
265.8155	0.06	531631	keystroke_Key.backspace	Key.backspace	n/a
265.9505	0.06	531901	keystroke_Key.backspace	Key.backspace	n/a
266.0705	0.105	532141	keystroke_Key.backspace	Key.backspace	n/a
266.1305	0.12	532261	keystroke_d	d	n/a
266.221	0.195	532442	keystroke_a	a	n/a
266.3715	0.1185	532743	keystroke_w	w	n/a
266.775	0.09	533550	keystroke_Key.backspace	Key.backspace	n/a
267.9605	0.105	535921	keystroke_r	r	n/a
268.5005	0.135	537001	keystroke_w	w	n/a
268.6505	0.135	537301	keystroke_i	i	n/a
268.741	0.1195	537482	keystroke_n	n	n/a
268.9655	0.135	537931	keystroke_Key.enter	Key.enter	n/a
269.112	19.3255	538224	prompt	n/a	statewide ancient mother champagne\n
270.105	0.1055	540210	keystroke_s	s	n/a
270.225	0.1055	540450	keystroke_t	t	n/a
270.375	0.105	540750	keystroke_a	a	n/a
270.511	0.12	541022	keystroke_t	t	n/a
270.616	0.1345	541232	keystroke_e	e	n/a
271.3205	0.105	542641	keystroke_w	w	n/a
271.395	0.1205	542790	keystroke_i	i	n/a
271.5005	0.105	543001	keystroke_d	d	n/a
271.6955	0.15	543391	keystroke_e	e	n/a
271.8605	0.1045	543721	keystroke_Key.space	Key.space	n/a
272.025	0.1055	544050	keystroke_a	a	n/a
272.1455	0.1205	544291	keystroke_n	n	n/a
272.3705	0.105	544741	keystroke_c	c	n/a
272.5205	0.1055	545041	keystroke_i	i	n/a
272.6105	0.12	545221	keystroke_e	e	n/a
272.7745	0.105	545549	keystroke_n	n	n/a
272.8955	0.12	545791	keystroke_t	t	n/a
273.225	0.105	546450	keystroke_Key.space	Key.space	n/a
273.72	0.136	547440	keystroke_m	m	n/a
273.781	0.164	547562	keystroke_o	o	n/a
273.931	0.119	547862	keystroke_t	t	n/a
274.095	0.121	548190	keystroke_h	h	n/a
274.17	0.135	548340	keystroke_e	e	n/a
274.246	0.1345	548492	keystroke_r	r	n/a
275.2655	0.135	550531	keystroke_Key.space	Key.space	n/a
275.4755	0.134	550951	keystroke_c	c	n/a
275.5955	0.105	551191	keystroke_h	h	n/a
275.7155	0.105	551431	keystroke_a	a	n/a
285.363	0.058	570726	keystroke_m	m	n/a
285.481	0.09	570962	keystroke_p	p	n/a
285.6	0.121	571200	keystroke_a	a	n/a
285.871	0.1045	571742	keystroke_g	g	n/a
286.051	0.0445	572102	keystroke_e	e	n/a
286.0805	0.09	572161	keystroke_n	n	n/a
286.231	0.0595	572462	keystroke_e	e	n/a
286.6205	0.075	573241	keystroke_Key.backspace	Key.backspace	n/a
286.7855	0.106	573571	keystroke_Key.backspace	Key.backspace	n/a
286.9365	0.104	573873	keystroke_e	e	n/a
287.175	0.076	574350	keystroke_Key.backspace	Key.backspace	n/a
287.326	0.1045	574652	keystroke_Key.backspace	Key.backspace	n/a
288.061	0.1045	576122	keystroke_n	n	n/a
288.136	0.1205	576272	keystroke_e	e	n/a
288.301	0.134	576602	keystroke_Key.enter	Key.enter	n/a
288.4405	8.2345	576881	prompt	n/a	having transexual pages delaware\n
289.2605	0.1055	578521	keystroke_h	h	n/a
289.381	0.1345	578762	keystroke_a	a	n/a
290.0105	0.12	580021	keystroke_v	v	n/a
290.116	0.1495	580232	keystroke_i	i	n/a
290.2055	0.1205	580411	keystroke_n	n	n/a
290.296	0.105	580592	keystroke_g	g	n/a
290.5205	0.1205	581041	keystroke_Key.space	Key.space	n/a
291.0455	0.1055	582091	keystroke_t	t	n/a
291.256	0.105	582512	keystroke_r	r	n/a
291.375	0.0905	582750	keystroke_a	a	n/a
292.0205	0.12	584041	keystroke_n	n	n/a
292.0955	0.196	584191	keystroke_s	s	n/a
292.2605	0.15	584521	keystroke_e	e	n/a
292.561	0.1205	585122	keystroke_x	x	n/a
293.1155	0.12	586231	keystroke_u	u	n/a
293.1755	0.1055	586351	keystroke_a	a	n/a
293.386	0.1205	586772	keystroke_l	l	n/a
293.536	0.105	587072	keystroke_Key.space	Key.space	n/a
293.866	0.12	587732	keystroke_p	p	n/a
293.9255	0.1055	587851	keystroke_a	a	n/a
294.166	0.075	588332	keystroke_g	g	n/a
294.256	0.18	588512	keystroke_e	e	n/a
294.346	0.15	588692	keystroke_s	s	n/a
294.5405	0.1355	589081	keystroke_Key.space	Key.space	n/a
295.0955	0.0605	590191	keystroke_d	d	n/a
295.2455	0.1055	590491	keystroke_e	e	n/a
295.3955	0.0895	590791	keystroke_l	l	n/a
295.4555	0.1505	590911	keystroke_a	a	n/a
295.6355	0.1345	591271	keystroke_w	w	n/a
295.801	0.119	591602	keystroke_a	a	n/a
295.9505	0.1355	591901	keystroke_r	r	n/a
296.3555	0.1055	592711	keystroke_e	e	n/a
296.535	0.136	593070	keystroke_Key.enter	Key.enter	n/a
296.68	8.693	593360	prompt	n/a	editorial buffer here chose\n
297.526	0.135	595052	keystroke_d	d	n/a
297.646	0.045	595292	keystroke_e	e	n/a
297.8255	0.0895	595651	keystroke_Key.backspace	Key.backspace	n/a
297.9755	0.135	595951	keystroke_Key.backspace	Key.backspace	n/a
298.111	0.1345	596222	keystroke_e	e	n/a
298.3205	0.1205	596641	keystroke_d	d	n/a
298.8755	0.12	597751	keystroke_i	i	n/a
299.0855	0.1055	598171	keystroke_t	t	n/a
299.206	0.135	598412	keystroke_o	o	n/a
299.3555	0.1205	598711	keystroke_r	r	n/a
299.656	0.1045	599312	keystroke_i	i	n/a
299.715	0.1205	599430	keystroke_a	a	n/a
299.8805	0.1345	599761	keystroke_l	l	n/a
300.045	0.1205	600090	keystroke_Key.space	Key.space	n/a
300.8555	0.0905	601711	keystroke_b	b	n/a
300.9755	0.09	601951	keystroke_u	u	n/a
301.156	0.0595	602312	keystroke_g	g	n/a
301.5005	0.12	603001	keystroke_Key.backspace	Key.backspace	n/a
301.6055	0.105	603211	keystroke_f	f	n/a
301.7855	0.12	603571	keystroke_f	f	n/a
301.9655	0.1645	603931	keystroke_e	e	n/a
302.0555	0.1205	604111	keystroke_r	r	n/a
302.4155	0.1055	604831	keystroke_Key.space	Key.space	n/a
302.971	0.12	605942	keystroke_h	h	n/a
302.986	0.12	605972	keystroke_e	e	n/a
303.211	0.0745	606422	keystroke_r	r	n/a
303.2855	0.165	606571	keystroke_e	e	n/a
303.7205	0.1205	607441	keystroke_Key.space	Key.space	n/a
304.2005	0.12	608401	keystroke_c	c	n/a
304.726	0.105	609452	keystroke_h	h	n/a
304.785	0.136	609570	keystroke_o	o	n/a
304.876	0.18	609752	keystroke_s	s	n/a
304.9955	0.1355	609991	keystroke_e	e	n/a
305.2355	0.135	610471	keystroke_Key.enter	Key.enter	n/a
305.377	10.5405	610754	prompt	n/a	develops township dash employer\n
306.045	0.075	612090	keystroke_d	d	n/a
306.2105	0.105	612421	keystroke_e	e	n/a
306.4805	0.06	612961	keystroke_v	v	n/a
306.6005	0.1205	613201	keystroke_e	e	n/a
306.901	0.179	613802	keystroke_l	l	n/a
307.036	0.15	614072	keystroke_o	o	n/a
307.3505	0.0905	614701	keystroke_p	p	n/a
307.4705	0.1205	614941	keystroke_s	s	n/a
307.6955	0.1205	615391	keystroke_Key.space	Key.space	n/a
308.3255	0.1055	616651	keystroke_t	t	n/a
308.4455	0.1205	616891	keystroke_o	o	n/a
308.536	0.134	617072	keystroke_w	w	n/a
309.1055	0.12	618211	keystroke_n	n	n/a
309.2105	0.1355	618421	keystroke_s	s	n/a
309.5255	0.0905	619051	keystroke_g	g	n/a
310.05	0.136	620100	keystroke_Key.backspace	Key.backspace	n/a
310.156	0.135	620312	keystroke_h	h	n/a
310.4855	0.15	620971	keystroke_i	i	n/a
310.5915	0.134	621183	keystroke_p	p	n/a
311.011	0.12	622022	keystroke_Key.space	Key.space	n/a
311.296	0.12	622592	keystroke_d	d	n/a
311.401	0.195	622802	keystroke_a	a	n/a
311.4905	0.1795	622981	keystroke_s	s	n/a
311.836	0.1195	623672	keystroke_h	h	n/a
312.0155	0.15	624031	keystroke_Key.space	Key.space	n/a
312.421	0.1495	624842	keystroke_e	e	n/a
312.676	0.1495	625352	keystroke_m	m	n/a
312.7655	0.135	625531	keystroke_p	p	n/a
312.931	0.1045	625862	keystroke_l	l	n/a
313.111	0.1345	626222	keystroke_o	o	n/a
313.5155	0.09	627031	keystroke_u	u	n/a
313.5305	0.06	627061	keystroke_y	y	n/a
313.561	0.1645	627122	keystroke_e	e	n/a
313.651	0.1345	627302	keystroke_r	r	n/a
313.9955	0.06	627991	keystroke_Key.backspace	Key.backspace	n/a
314.116	0.0745	628232	keystroke_Key.backspace	Key.backspace	n/a
314.2505	0.1205	628501	keystroke_Key.backspace	Key.backspace	n/a
315.076	0.1195	630152	keystroke_Key.backspace	Key.backspace	n/a
315.4355	0.12	630871	keystroke_y	y	n/a
315.481	0.1495	630962	keystroke_e	e	n/a
315.5405	0.1355	631081	keystroke_r	r	n/a
315.796	0.119	631592	keystroke_Key.enter	Key.enter	n/a
315.924	5.7835	631848	prompt	n/a	scan inclusive seeks harm\n
316.636	0.1045	633272	keystroke_s	s	n/a
316.755	0.12	633510	keystroke_c	c	n/a
316.9055	0.105	633811	keystroke_a	a	n/a
317.1005	0.075	634201	keystroke_n	n	n/a
317.2205	0.1045	634441	keystroke_Key.space	Key.space	n/a
317.97	0.105	635940	keystroke_i	i	n/a
318.001	0.105	636002	keystroke_n	n	n/a
318.135	0.1355	636270	keystroke_c	c	n/a
318.2555	0.12	636511	keystroke_l	l	n/a
318.4805	0.12	636961	keystroke_u	u	n/a
318.586	0.1495	637172	keystroke_s	s	n/a
318.7955	0.12	637591	keystroke_i	i	n/a
319.006	0.1045	638012	keystroke_v	v	n/a
319.1405	0.12	638281	keystroke_e	e	n/a
319.471	0.12	638942	keystroke_Key.space	Key.space	n/a
319.8005	0.1205	639601	keystroke_s	s	n/a
319.9955	0.12	639991	keystroke_e	e	n/a
320.1755	0.1355	640351	keystroke_e	e	n/a
320.266	0.105	640532	keystroke_k	k	n/a
320.3855	0.195	640771	keystroke_s	s	n/a
320.6105	0.135	641221	keystroke_Key.space	Key.space	n/a
321.075	0.0905	642150	keystroke_h	h	n/a
321.1215	0.134	642243	keystroke_a	a	n/a
321.2255	0.1205	642451	keystroke_r	r	n/a
321.361	0.089	642722	keystroke_m	m	n/a
321.601	0.104	643202	keystroke_Key.enter	Key.enter	n/a
321.712	10.7505	643424	prompt	n/a	silicon transcript vacations parameter\n
322.441	0.1195	644882	keystroke_s	s	n/a
322.681	0.1195	645362	keystroke_i	i	n/a
322.891	0.1045	645782	keystroke_l	l	n/a
323.04	0.1355	646080	keystroke_i	i	n/a
323.146	0.105	646292	keystroke_c	c	n/a
323.265	0.12	646530	keystroke_o	o	n/a
323.476	0.0895	646952	keystroke_n	n	n/a
323.61	0.1505	647220	keystroke_Key.space	Key.space	n/a
324.1055	0.0905	648211	keystroke_t	t	n/a
324.315	0.0905	648630	keystroke_r	r	n/a
324.421	0.135	648842	keystroke_a	a	n/a
324.57	0.076	649140	keystroke_n	n	n/a
324.7355	0.1055	649471	keystroke_s	s	n/a
324.9905	0.09	649981	keystroke_c	c	n/a
325.2605	0.1055	650521	keystroke_r	r	n/a
325.4105	0.105	650821	keystroke_i	i	n/a
325.8005	0.105	651601	keystroke_p	p	n/a
326.056	0.1195	652112	keystroke_t	t	n/a
326.341	0.1045	652682	keystroke_Key.space	Key.space	n/a
326.7455	0.0455	653491	keystroke_c	c	n/a
326.8355	0.09	653671	keystroke_a	a	n/a
327.256	0.075	654512	keystroke_v	v	n/a
327.45	0.0755	654900	keystroke_a	a	n/a
327.66	0.09	655320	keystroke_Key.backspace	Key.backspace	n/a
327.7955	0.0755	655591	keystroke_Key.backspace	Key.backspace	n/a
327.93	0.076	655860	keystroke_Key.backspace	Key.backspace	n/a
328.035	0.1055	656070	keystroke_Key.backspace	Key.backspace	n/a
328.4705	0.0755	656941	keystroke_v	v	n/a
328.5905	0.105	657181	keystroke_a	a	n/a
328.7855	0.1055	657571	keystroke_c	c	n/a
328.9055	0.09	657811	keystroke_a	a	n/a
329.3405	0.105	658681	keystroke_t	t	n/a
329.4155	0.18	658831	keystroke_i	i	n/a
329.5505	0.105	659101	keystroke_o	o	n/a
329.7005	0.1205	659401	keystroke_n	n	n/a
329.8355	0.135	659671	keystroke_s	s	n/a
330.0455	0.165	660091	keystroke_Key.space	Key.space	n/a
330.645	0.1205	661290	keystroke_p	p	n/a
330.721	0.15	661442	keystroke_a	a	n/a
330.916	0.12	661832	keystroke_r	r	n/a
331.051	0.135	662102	keystroke_a	a	n/a
331.635	0.0755	663270	keystroke_m	m	n/a
331.665	0.091	663330	keystroke_e	e	n/a
331.8765	0.104	663753	keystroke_t	t	n/a
332.026	0.165	664052	keystroke_e	e	n/a
332.1005	0.2115	664201	keystroke_r	r	n/a
332.3555	0.105	664711	keystroke_Key.enter	Key.enter	n/a
332.4675	10.9145	664935	prompt	n/a	freight federation skype neural\n
333.511	0.1345	667022	keystroke_f	f	n/a
333.6165	0.119	667233	keystroke_r	r	n/a
333.691	0.1345	667382	keystroke_e	e	n/a
334.2	0.121	668400	keystroke_i	i	n/a
334.306	0.0595	668612	keystroke_g	g	n/a
334.4255	0.135	668851	keystroke_h	h	n/a
334.5005	0.1505	669001	keystroke_t	t	n/a
334.741	0.09	669482	keystroke_Key.space	Key.space	n/a
335.101	0.09	670202	keystroke_f	f	n/a
335.206	0.12	670412	keystroke_e	e	n/a
335.491	0.12	670982	keystroke_d	d	n/a
335.5955	0.195	671191	keystroke_e	e	n/a
335.7755	0.1355	671551	keystroke_r	r	n/a
335.926	0.03	671852	keystroke_e	e	n/a
336.016	0.1345	672032	keystroke_a	a	n/a
336.2405	0.12	672481	keystroke_t	t	n/a
336.6005	0.151	673201	keystroke_i	i	n/a
336.6605	0.166	673321	keystroke_o	o	n/a
336.7655	0.15	673531	keystroke_n	n	n/a
337.44	0.0605	674880	keystroke_Key.backspace	Key.backspace	n/a
337.53	0.106	675060	keystroke_Key.backspace	Key.backspace	n/a
337.801	0.06	675602	keystroke_Key.backspace	Key.backspace	n/a
337.935	0.076	675870	keystroke_Key.backspace	Key.backspace	n/a
338.0855	0.0595	676171	keystroke_Key.backspace	Key.backspace	n/a
338.22	0.076	676440	keystroke_Key.backspace	Key.backspace	n/a
338.356	0.1195	676712	keystroke_a	a	n/a
339.016	0.134	678032	keystroke_t	t	n/a
339.12	0.136	678240	keystroke_i	i	n/a
339.181	0.135	678362	keystroke_o	o	n/a
339.2265	0.1495	678453	keystroke_n	n	n/a
339.7355	0.12	679471	keystroke_Key.space	Key.space	n/a
339.9605	0.1055	679921	keystroke_s	s	n/a
340.515	0.076	681030	keystroke_k	k	n/a
340.9205	0.105	681841	keystroke_y	y	n/a
341.461	0.1195	682922	keystroke_p	p	n/a
341.536	0.1645	683072	keystroke_e	e	n/a
341.6555	0.12	683311	keystroke_Key.space	Key.space	n/a
342.346	0.09	684692	keystroke_n	n	n/a
342.421	0.12	684842	keystroke_e	e	n/a
342.6155	0.1205	685231	keystroke_u	u	n/a
342.751	0.12	685502	keystroke_r	r	n/a
342.886	0.12	685772	keystroke_a	a	n/a
343.0505	0.1055	686101	keystroke_l	l	n/a
343.2605	0.12	686521	keystroke_Key.enter	Key.enter	n/a
343.3865	9.5955	686773	prompt	n/a	joshua answered everyday exploration\n
344.8055	0.09	689611	keystroke_j	j	n/a
344.8505	0.2255	689701	keystroke_o	o	n/a
345.1205	0.1355	690241	keystroke_s	s	n/a
345.225	0.1215	690450	keystroke_h	h	n/a
345.3905	0.1505	690781	keystroke_u	u	n/a
345.5105	0.166	691021	keystroke_a	a	n/a
345.6905	0.135	691381	keystroke_Key.space	Key.space	n/a
346.0055	0.15	692011	keystroke_a	a	n/a
346.1405	0.0755	692281	keystroke_n	n	n/a
346.2305	0.12	692461	keystroke_s	s	n/a
346.4855	0.15	692971	keystroke_w	w	n/a
346.5905	0.1505	693181	keystroke_e	e	n/a
346.8165	0.119	693633	keystroke_r	r	n/a
346.906	0.165	693812	keystroke_e	e	n/a
347.1305	0.18	694261	keystroke_d	d	n/a
347.355	0.1355	694710	keystroke_Key.space	Key.space	n/a
347.7305	0.12	695461	keystroke_e	e	n/a
347.971	0.075	695942	keystroke_v	v	n/a
348.091	0.1495	696182	keystroke_e	e	n/a
348.1955	0.135	696391	keystroke_r	r	n/a
348.3755	0.1355	696751	keystroke_y	y	n/a
348.5405	0.105	697081	keystroke_d	d	n/a
348.616	0.12	697232	keystroke_a	a	n/a
349.231	0.1045	698462	keystroke_y	y	n/a
349.396	0.134	698792	keystroke_Key.space	Key.space	n/a
349.77	0.1055	699540	keystroke_e	e	n/a
349.981	0.1195	699962	keystroke_x	x	n/a
350.1605	0.135	700321	keystroke_l	l	n/a
350.8355	0.09	701671	keystroke_Key.backspace	Key.backspace	n/a
351.3305	0.1205	702661	keystroke_p	p	n/a
351.436	0.1945	702872	keystroke_l	l	n/a
351.6155	0.075	703231	keystroke_o	o	n/a
351.7655	0.15	703531	keystroke_r	r	n/a
351.8855	0.12	703771	keystroke_a	a	n/a
352.126	0.1195	704252	keystroke_t	t	n/a
352.2605	0.1055	704521	keystroke_i	i	n/a
352.3205	0.1195	704641	keystroke_o	o	n/a
352.411	0.1195	704822	keystroke_n	n	n/a
352.846	0.1345	705692	keystroke_Key.enter	Key.enter	n/a
352.988	10.2545	705976	prompt	n/a	survivors prague surgery governing\n
353.746	0.1045	707492	keystroke_s	s	n/a
354.001	0.12	708002	keystroke_u	u	n/a
354.106	0.135	708212	keystroke_r	r	n/a
354.886	0.12	709772	keystroke_v	v	n/a
354.991	0.1045	709982	keystroke_i	i	n/a
355.8755	0.105	711751	keystroke_v	v	n/a
355.9815	0.1045	711963	keystroke_o	o	n/a
356.1605	0.1055	712321	keystroke_r	r	n/a
356.3105	0.15	712621	keystroke_s	s	n/a
356.4905	0.12	712981	keystroke_Key.space	Key.space	n/a
356.9705	0.12	713941	keystroke_p	p	n/a
357.181	0.105	714362	keystroke_r	r	n/a
357.331	0.0895	714662	keystroke_a	a	n/a
357.6155	0.075	715231	keystroke_g	g	n/a
357.7805	0.12	715561	keystroke_u	u	n/a
357.8705	0.15	715741	keystroke_e	e	n/a
358.0055	0.135	716011	keystroke_Key.space	Key.space	n/a
358.576	0.1195	717152	keystroke_s	s	n/a
358.8005	0.105	717601	keystroke_u	u	n/a
358.8755	0.12	717751	keystroke_r	r	n/a
359.085	0.0755	718170	keystroke_g	g	n/a
359.2055	0.165	718411	keystroke_e	e	n/a
359.3555	0.1355	718711	keystroke_r	r	n/a
360.0005	0.1205	720001	keystroke_y	y	n/a
360.1655	0.1205	720331	keystroke_Key.space	Key.space	n/a
361.2455	0.12	722491	keystroke_g	g	n/a
361.321	0.12	722642	keystroke_o	o	n/a
361.591	0.089	723182	keystroke_v	v	n/a
361.726	0.1795	723452	keystroke_e	e	n/a
361.8455	0.1355	723691	keystroke_r	r	n/a
362.4605	0.12	724921	keystroke_n	n	n/a
362.5955	0.1795	725191	keystroke_i	i	n/a
362.746	0.134	725492	keystroke_n	n	n/a
362.8355	0.105	725671	keystroke_g	g	n/a
363.106	0.134	726212	keystroke_Key.enter	Key.enter	n/a
363.2465	6.311	726493	prompt	n/a	telling maintaining parks sites\n
363.901	0.105	727802	keystroke_t	t	n/a
364.02	0.121	728040	keystroke_e	e	n/a
364.156	0.0745	728312	keystroke_l	l	n/a
364.306	0.1045	728612	keystroke_l	l	n/a
364.4705	0.18	728941	keystroke_i	i	n/a
364.5605	0.135	729121	keystroke_n	n	n/a
364.6355	0.121	729271	keystroke_g	g	n/a
364.8455	0.105	729691	keystroke_Key.space	Key.space	n/a
365.5805	0.1205	731161	keystroke_m	m	n/a
365.671	0.119	731342	keystroke_a	a	n/a
365.761	0.134	731522	keystroke_i	i	n/a
365.896	0.119	731792	keystroke_n	n	n/a
366.0605	0.105	732121	keystroke_t	t	n/a
366.1955	0.1345	732391	keystroke_a	a	n/a
366.2705	0.1355	732541	keystroke_i	i	n/a
366.42	0.106	732840	keystroke_n	n	n/a
366.871	0.15	733742	keystroke_i	i	n/a
367.036	0.09	734072	keystroke_n	n	n/a
367.156	0.12	734312	keystroke_g	g	n/a
367.38	0.1205	734760	keystroke_Key.space	Key.space	n/a
367.921	0.119	735842	keystroke_p	p	n/a
367.966	0.105	735932	keystroke_a	a	n/a
368.0855	0.1355	736171	keystroke_r	r	n/a
368.206	0.135	736412	keystroke_k	k	n/a
368.311	0.1195	736622	keystroke_s	s	n/a
368.4455	0.136	736891	keystroke_Key.space	Key.space	n/a
368.776	0.1345	737552	keystroke_s	s	n/a
368.8955	0.1355	737791	keystroke_i	i	n/a
369.001	0.105	738002	keystroke_t	t	n/a
369.1505	0.12	738301	keystroke_e	e	n/a
369.2855	0.165	738571	keystroke_s	s	n/a
369.4355	0.12	738871	keystroke_Key.enter	Key.enter	n/a
369.5645	5.858	739129	prompt	n/a	species missions concerts santa\n
370.171	0.105	740342	keystroke_s	s	n/a
370.2905	0.12	740581	keystroke_p	p	n/a
370.3955	0.12	740791	keystroke_e	e	n/a
370.636	0.105	741272	keystroke_c	c	n/a
370.756	0.105	741512	keystroke_i	i	n/a
370.815	0.18	741630	keystroke_e	e	n/a
370.921	0.18	741842	keystroke_s	s	n/a
371.116	0.1345	742232	keystroke_Key.space	Key.space	n/a
371.4	0.151	742800	keystroke_m	m	n/a
371.536	0.105	743072	keystroke_i	i	n/a
371.7305	0.0905	743461	keystroke_s	s	n/a
371.896	0.15	743792	keystroke_s	s	n/a
371.986	0.1195	743972	keystroke_i	i	n/a
372.06	0.196	744120	keystroke_o	o	n/a
372.1655	0.105	744331	keystroke_n	n	n/a
372.316	0.135	744632	keystroke_s	s	n/a
372.466	0.135	744932	keystroke_Key.space	Key.space	n/a
372.7355	0.135	745471	keystroke_c	c	n/a
372.8405	0.12	745681	keystroke_o	o	n/a
373.111	0.1045	746222	keystroke_n	n	n/a
373.2305	0.0905	746461	keystroke_c	c	n/a
373.321	0.225	746642	keystroke_e	e	n/a
373.501	0.15	747002	keystroke_r	r	n/a
373.726	0.09	747452	keystroke_t	t	n/a
373.8305	0.1655	747661	keystroke_s	s	n/a
373.9805	0.1205	747961	keystroke_Key.space	Key.space	n/a
374.341	0.1945	748682	keystroke_s	s	n/a
374.5505	0.075	749101	keystroke_a	a	n/a
374.7005	0.1205	749401	keystroke_n	n	n/a
374.926	0.059	749852	keystroke_t	t	n/a
375.1055	0.1355	750211	keystroke_a	a	n/a
375.285	0.1355	750570	keystroke_Key.enter	Key.enter	n/a
375.427	11.86	750854	prompt	n/a	choices generator holding that're\n
376.0055	0.105	752011	keystroke_c	c	n/a
376.2155	0.12	752431	keystroke_o	o	n/a
376.4405	0.1355	752881	keystroke_i	i	n/a
376.906	0.104	753812	keystroke_Key.backspace	Key.backspace	n/a
377.25	0.0755	754500	keystroke_h	h	n/a
377.67	0.0605	755340	keystroke_Key.backspace	Key.backspace	n/a
377.8055	0.1195	755611	keystroke_Key.backspace	Key.backspace	n/a
378.2855	0.1205	756571	keystroke_h	h	n/a
378.5555	0.0895	757111	keystroke_o	o	n/a
378.72	0.1205	757440	keystroke_i	i	n/a
378.766	0.105	757532	keystroke_c	c	n/a
378.855	0.1205	757710	keystroke_d	d	n/a
378.945	0.1805	757890	keystroke_s	s	n/a
379.591	0.074	759182	keystroke_Key.backspace	Key.backspace	n/a
379.7555	0.1195	759511	keystroke_Key.backspace	Key.backspace	n/a
380.206	0.1195	760412	keystroke_e	e	n/a
380.295	0.166	760590	keystroke_s	s	n/a
380.5055	0.1495	761011	keystroke_Key.space	Key.space	n/a
381.2115	0.104	762423	keystroke_g	g	n/a
381.3455	0.105	762691	keystroke_e	e	n/a
381.4655	0.1055	762931	keystroke_n	n	n/a
381.5555	0.1345	763111	keystroke_e	e	n/a
381.6605	0.1205	763321	keystroke_r	r	n/a
381.795	0.12	763590	keystroke_a	a	n/a
382.185	0.121	764370	keystroke_t	t	n/a
382.35	0.12	764700	keystroke_o	o	n/a
382.426	0.149	764852	keystroke_r	r	n/a
382.635	0.135	765270	keystroke_Key.space	Key.space	n/a
383.37	0.09	766740	keystroke_h	h	n/a
383.475	0.061	766950	keystroke_o	o	n/a
383.626	0.0895	767252	keystroke_l	l	n/a
383.7005	0.1205	767401	keystroke_d	d	n/a
383.8505	0.1195	767701	keystroke_i	i	n/a
384	0.0915	768000	keystroke_n	n	n/a
384.105	0.105	768210	keystroke_g	g	n/a
384.33	0.105	768660	keystroke_Key.space	Key.space	n/a
385.3955	0.106	770791	keystroke_t	t	n/a
385.4705	0.105	770941	keystroke_h	h	n/a
385.5605	0.121	771121	keystroke_a	a	n/a
385.7255	0.12	771451	keystroke_t	t	n/a
386.536	0.074	773072	keystroke_'	'	n/a
386.626	0.1185	773252	keystroke_r	r	n/a
386.7155	0.12	773431	keystroke_e	e	n/a
387.15	0.135	774300	keystroke_Key.enter	Key.enter	n/a
387.29	14.2625	774580	prompt	n/a	obtain indian adam accompanying\n
388.125	0.1205	776250	keystroke_o	o	n/a
388.396	0.0745	776792	keystroke_n	n	n/a
388.6955	0.104	777391	keystroke_Key.backspace	Key.backspace	n/a
388.8155	0.105	777631	keystroke_b	b	n/a
389.04	0.09	778080	keystroke_t	t	n/a
389.205	0.1055	778410	keystroke_a	a	n/a
389.88	0.196	779760	keystroke_i	i	n/a
390	0.105	780000	keystroke_n	n	n/a
390.1505	0.12	780301	keystroke_Key.space	Key.space	n/a
390.54	0.1655	781080	keystroke_i	i	n/a
390.675	0.0755	781350	keystroke_n	n	n/a
390.7655	0.0905	781531	keystroke_d	d	n/a
390.8705	0.15	781741	keystroke_i	i	n/a
390.99	0.105	781980	keystroke_a	a	n/a
391.261	0.075	782522	keystroke_n	n	n/a
391.41	0.1355	782820	keystroke_Key.space	Key.space	n/a
391.606	0.1045	783212	keystroke_d	d	n/a
391.6955	0.12	783391	keystroke_a	a	n/a
391.8305	0.0905	783661	keystroke_m	m	n/a
391.9505	0.1205	783901	keystroke_a	a	n/a
392.3705	0.075	784741	keystroke_Key.backspace	Key.backspace	n/a
392.5355	0.06	785071	keystroke_Key.backspace	Key.backspace	n/a
392.6555	0.06	785311	keystroke_Key.backspace	Key.backspace	n/a
392.7755	0.075	785551	keystroke_Key.backspace	Key.backspace	n/a
393.3755	0.15	786751	keystroke_a	a	n/a
393.691	0.075	787382	keystroke_a	a	n/a
393.826	0.089	787652	keystroke_d	d	n/a
394.0655	0.06	788131	keystroke_Key.backspace	Key.backspace	n/a
394.201	0.104	788402	keystroke_Key.backspace	Key.backspace	n/a
394.291	0.1195	788582	keystroke_d	d	n/a
394.3815	0.1185	788763	keystroke_a	a	n/a
394.891	0.1045	789782	keystroke_m	m	n/a
395.0105	0.1205	790021	keystroke_Key.space	Key.space	n/a
395.5205	0.12	791041	keystroke_a	a	n/a
395.7455	0.1055	791491	keystroke_c	c	n/a
396.091	0.045	792182	keystroke_o	o	n/a
396.211	0.105	792422	keystroke_o	o	n/a
396.5405	0.105	793081	keystroke_m	m	n/a
396.8255	0.09	793651	keystroke_Key.backspace	Key.backspace	n/a
396.9755	0.0755	793951	keystroke_Key.backspace	Key.backspace	n/a
397.1105	0.06	794221	keystroke_Key.backspace	Key.backspace	n/a
397.365	0.031	794730	keystroke_c	c	n/a
397.5155	0.1355	795031	keystroke_o	o	n/a
397.74	0.0905	795480	keystroke_m	m	n/a
398.9405	0.09	797881	keystroke_p	p	n/a
399.0455	0.015	798091	keystroke_a	a	n/a
400.426	0.1345	800852	keystroke_n	n	n/a
400.591	0.119	801182	keystroke_y	y	n/a
400.831	0.15	801662	keystroke_i	i	n/a
400.966	0.12	801932	keystroke_n	n	n/a
401.071	0.105	802142	keystroke_g	g	n/a
401.4305	0.1195	802861	keystroke_Key.enter	Key.enter	n/a
401.5565	11.4265	803113	prompt	n/a	logitech ontario counted significance\n
402.4055	0.0905	804811	keystroke_l	l	n/a
402.556	0.12	805112	keystroke_o	o	n/a
403.126	0.0895	806252	keystroke_g	g	n/a
403.2455	0.1045	806491	keystroke_i	i	n/a
403.336	0.12	806672	keystroke_t	t	n/a
403.575	0.121	807150	keystroke_e	e	n/a
403.755	0.136	807510	keystroke_h	h	n/a
403.98	0.106	807960	keystroke_c	c	n/a
404.475	0.0455	808950	keystroke_Key.backspace	Key.backspace	n/a
404.6105	0.075	809221	keystroke_Key.backspace	Key.backspace	n/a
404.7005	0.1055	809401	keystroke_c	c	n/a
404.8655	0.12	809731	keystroke_h	h	n/a
405.1655	0.1195	810331	keystroke_Key.space	Key.space	n/a
405.6305	0.1205	811261	keystroke_o	o	n/a
405.886	0.105	811772	keystroke_n	n	n/a
406.021	0.105	812042	keystroke_t	t	n/a
406.171	0.1045	812342	keystroke_a	a	n/a
406.3655	0.1045	812731	keystroke_r	r	n/a
406.4105	0.15	812821	keystroke_i	i	n/a
406.5155	0.1055	813031	keystroke_o	o	n/a
407.2955	0.09	814591	keystroke_Key.space	Key.space	n/a
407.4905	0.12	814981	keystroke_c	c	n/a
407.5655	0.12	815131	keystroke_o	o	n/a
407.851	0.135	815702	keystroke_u	u	n/a
407.941	0.075	815882	keystroke_n	n	n/a
408.031	0.12	816062	keystroke_t	t	n/a
408.1655	0.135	816331	keystroke_e	e	n/a
408.3905	0.12	816781	keystroke_d	d	n/a
408.5405	0.1205	817081	keystroke_Key.space	Key.space	n/a
408.811	0.1355	817622	keystroke_s	s	n/a
408.9315	0.134	817863	keystroke_i	i	n/a
409.1705	0.1205	818341	keystroke_g	g	n/a
409.3955	0.195	818791	keystroke_n	n	n/a
409.5605	0.1505	819121	keystroke_i	i	n/a
409.89	0.106	819780	keystroke_f	f	n/a
409.981	0.135	819962	keystroke_i	i	n/a
410.3405	0.075	820681	keystroke_c	c	n/a
410.445	0.09	820890	keystroke_a	a	n/a
411.1065	0.0895	822213	keystroke_n	n	n/a
411.5255	0.12	823051	keystroke_c	c	n/a
411.615	0.105	823230	keystroke_e	e	n/a
412.846	0.135	825692	keystroke_Key.enter	Key.enter	n/a
412.987	5.411	825974	prompt	n/a	cure russia night vancouver\n
413.641	0.0895	827282	keystroke_c	c	n/a
413.8505	0.12	827701	keystroke_u	u	n/a
413.9255	0.0905	827851	keystroke_r	r	n/a
413.985	0.135	827970	keystroke_e	e	n/a
414.135	0.12	828270	keystroke_Key.space	Key.space	n/a
414.5105	0.1495	829021	keystroke_r	r	n/a
414.795	0.121	829590	keystroke_u	u	n/a
414.885	0.1055	829770	keystroke_s	s	n/a
415.05	0.105	830100	keystroke_s	s	n/a
415.17	0.135	830340	keystroke_i	i	n/a
415.261	0.1495	830522	keystroke_a	a	n/a
415.4115	0.1345	830823	keystroke_Key.space	Key.space	n/a
415.8155	0.12	831631	keystroke_n	n	n/a
415.8455	0.15	831691	keystroke_i	i	n/a
416.0255	0.105	832051	keystroke_g	g	n/a
416.145	0.1215	832290	keystroke_h	h	n/a
416.2355	0.105	832471	keystroke_t	t	n/a
416.3705	0.1345	832741	keystroke_Key.space	Key.space	n/a
416.851	0.075	833702	keystroke_v	v	n/a
417.045	0.076	834090	keystroke_a	a	n/a
417.256	0.105	834512	keystroke_n	n	n/a
417.451	0.104	834902	keystroke_c	c	n/a
417.6	0.09	835200	keystroke_o	o	n/a
417.81	0.1055	835620	keystroke_u	u	n/a
417.885	0.0905	835770	keystroke_v	v	n/a
418.0055	0.2105	836011	keystroke_e	e	n/a
418.141	0.105	836282	keystroke_r	r	n/a
418.2905	0.1055	836581	keystroke_Key.enter	Key.enter	n/a
418.4025	9.205	836805	prompt	n/a	tobacco some gloves intelligent\n
419.1755	0.075	838351	keystroke_t	t	n/a
419.2355	0.09	838471	keystroke_o	o	n/a
419.461	0.0895	838922	keystroke_b	b	n/a
419.6705	0.12	839341	keystroke_a	a	n/a
419.865	0.105	839730	keystroke_c	c	n/a
420.045	0.09	840090	keystroke_c	c	n/a
420.15	0.12	840300	keystroke_o	o	n/a
420.3	0.15	840600	keystroke_Key.space	Key.space	n/a
420.6755	0.104	841351	keystroke_s	s	n/a
420.7055	0.135	841411	keystroke_o	o	n/a
420.9005	0.12	841801	keystroke_m	m	n/a
420.9605	0.135	841921	keystroke_e	e	n/a
421.0805	0.105	842161	keystroke_Key.space	Key.space	n/a
421.3355	0.09	842671	keystroke_l	l	n/a
421.5005	0.1205	843001	keystroke_o	o	n/a
421.8155	0.075	843631	keystroke_Key.backspace	Key.backspace	n/a
421.9655	0.09	843931	keystroke_Key.backspace	Key.backspace	n/a
422.0855	0.105	844171	keystroke_g	g	n/a
422.1905	0.12	844381	keystroke_l	l	n/a
422.385	0.105	844770	keystroke_o	o	n/a
422.61	0.2105	845220	keystroke_e	e	n/a
422.9105	0.12	845821	keystroke_s	s	n/a
423.1355	0.0895	846271	keystroke_Key.backspace	Key.backspace	n/a
423.2845	0.076	846569	keystroke_Key.backspace	Key.backspace	n/a
423.6145	0.121	847229	keystroke_v	v	n/a
424.1555	0.24	848311	keystroke_e	e	n/a
424.3205	0.15	848641	keystroke_s	s	n/a
424.5755	0.135	849151	keystroke_Key.space	Key.space	n/a
425.1005	0.1495	850201	keystroke_i	i	n/a
425.236	0.104	850472	keystroke_n	n	n/a
425.415	0.1055	850830	keystroke_t	t	n/a
425.5655	0.12	851131	keystroke_e	e	n/a
425.8055	0.075	851611	keystroke_l	l	n/a
425.9405	0.0905	851881	keystroke_l	l	n/a
426.4955	0.1355	852991	keystroke_i	i	n/a
426.781	0.105	853562	keystroke_g	g	n/a
426.916	0.1645	853832	keystroke_e	e	n/a
427.111	0.09	854222	keystroke_n	n	n/a
427.171	0.1195	854342	keystroke_t	t	n/a
427.471	0.134	854942	keystroke_Key.enter	Key.enter	n/a
427.6125	8.6195	855225	prompt	n/a	measure leaders neural schedule\n
428.401	0.134	856802	keystroke_m	m	n/a
428.4605	0.105	856921	keystroke_e	e	n/a
428.551	0.1795	857102	keystroke_a	a	n/a
428.6405	0.165	857281	keystroke_s	s	n/a
429.196	0.105	858392	keystroke_u	u	n/a
429.241	0.1045	858482	keystroke_r	r	n/a
429.286	0.1655	858572	keystroke_e	e	n/a
429.4355	0.135	858871	keystroke_Key.space	Key.space	n/a
429.6605	0.15	859321	keystroke_l	l	n/a
429.72	0.1205	859440	keystroke_e	e	n/a
429.8255	0.15	859651	keystroke_a	a	n/a
429.946	0.1345	859892	keystroke_d	d	n/a
430.3505	0.1645	860701	keystroke_e	e	n/a
430.4255	0.1505	860851	keystroke_r	r	n/a
430.666	0.1495	861332	keystroke_s	s	n/a
430.8905	0.1345	861781	keystroke_Key.space	Key.space	n/a
431.386	0.1195	862772	keystroke_n	n	n/a
431.4905	0.09	862981	keystroke_e	e	n/a
431.5205	0.1655	863041	keystroke_r	r	n/a
431.701	0.09	863402	keystroke_u	u	n/a
431.806	0.12	863612	keystroke_a	a	n/a
431.971	0.119	863942	keystroke_l	l	n/a
432.15	0.1355	864300	keystroke_Key.space	Key.space	n/a
432.5855	0.1055	865171	keystroke_s	s	n/a
432.766	0.045	865532	keystroke_h	h	n/a
432.812	0.1035	865624	keystroke_c	c	n/a
433.2305	0.06	866461	keystroke_Key.backspace	Key.backspace	n/a
433.3805	0.075	866761	keystroke_Key.backspace	Key.backspace	n/a
433.6355	0.1505	867271	keystroke_c	c	n/a
433.771	0.1195	867542	keystroke_h	h	n/a
433.9655	0.12	867931	keystroke_e	e	n/a
435.5405	0.1205	871081	keystroke_d	d	n/a
435.676	0.1045	871352	keystroke_u	u	n/a
435.8855	0.1205	871771	keystroke_l	l	n/a
435.9455	0.1205	871891	keystroke_e	e	n/a
436.111	0.119	872222	keystroke_Key.enter	Key.enter	n/a
436.237	9.205	872474	prompt	n/a	firefox observe mirrors decorative\n
437.176	0.105	874352	keystroke_f	f	n/a
437.251	0.12	874502	keystroke_i	i	n/a
437.386	0.12	874772	keystroke_r	r	n/a
437.476	0.12	874952	keystroke_e	e	n/a
437.866	0.1345	875732	keystroke_f	f	n/a
437.9855	0.105	875971	keystroke_i	i	n/a
438.15	0.1505	876300	keystroke_x	x	n/a
438.405	0.1355	876810	keystroke_Key.space	Key.space	n/a
438.9155	0.09	877831	keystroke_o	o	n/a
439.2455	0.09	878491	keystroke_b	b	n/a
439.3505	0.195	878701	keystroke_s	s	n/a
439.4855	0.1645	878971	keystroke_e	e	n/a
439.6055	0.1355	879211	keystroke_r	r	n/a
439.845	0.0905	879690	keystroke_v	v	n/a
440.0255	0.135	880051	keystroke_e	e	n/a
440.0855	0.135	880171	keystroke_r	r	n/a
441.21	0.0605	882420	keystroke_Key.backspace	Key.backspace	n/a
442.1255	0.135	884251	keystroke_Key.space	Key.space	n/a
442.41	0.1355	884820	keystroke_m	m	n/a
442.5005	0.105	885001	keystroke_i	i	n/a
442.6505	0.1055	885301	keystroke_r	r	n/a
442.8005	0.165	885601	keystroke_r	r	n/a
442.89	0.1355	885780	keystroke_o	o	n/a
443.085	0.12	886170	keystroke_r	r	n/a
443.385	0.151	886770	keystroke_s	s	n/a
443.5805	0.135	887161	keystroke_Key.space	Key.space	n/a
443.865	0.0905	887730	keystroke_d	d	n/a
444.0305	0.105	888061	keystroke_e	e	n/a
444.2555	0.105	888511	keystroke_c	c	n/a
444.3605	0.075	888721	keystroke_o	o	n/a
444.5405	0.105	889081	keystroke_r	r	n/a
444.6605	0.1055	889321	keystroke_a	a	n/a
444.8405	0.1205	889681	keystroke_t	t	n/a
444.9305	0.15	889861	keystroke_i	i	n/a
445.0955	0.09	890191	keystroke_v	v	n/a
445.1705	0.135	890341	keystroke_e	e	n/a
445.3205	0.12	890641	keystroke_Key.enter	Key.enter	n/a
445.448	6.0545	890896	prompt	n/a	until cheap murphy hottest\n
446.235	0.136	892470	keystroke_u	u	n/a
446.3105	0.0745	892621	keystroke_n	n	n/a
446.43	0.1205	892860	keystroke_t	t	n/a
446.5205	0.12	893041	keystroke_i	i	n/a
446.7605	0.12	893521	keystroke_l	l	n/a
446.8505	0.105	893701	keystroke_Key.space	Key.space	n/a
447.0005	0.135	894001	keystroke_c	c	n/a
447.2105	0.105	894421	keystroke_h	h	n/a
447.2855	0.105	894571	keystroke_e	e	n/a
447.3755	0.1805	894751	keystroke_a	a	n/a
447.5405	0.135	895081	keystroke_p	p	n/a
447.735	0.15	895470	keystroke_Key.space	Key.space	n/a
448.275	0.106	896550	keystroke_m	m	n/a
448.4855	0.1205	896971	keystroke_u	u	n/a
448.62	0.121	897240	keystroke_r	r	n/a
448.951	0.105	897902	keystroke_p	p	n/a
449.265	0.1055	898530	keystroke_h	h	n/a
449.5355	0.1055	899071	keystroke_y	y	n/a
449.701	0.1345	899402	keystroke_Key.space	Key.space	n/a
450.405	0.09	900810	keystroke_h	h	n/a
450.4505	0.105	900901	keystroke_o	o	n/a
450.631	0.105	901262	keystroke_t	t	n/a
450.7955	0.12	901591	keystroke_t	t	n/a
450.9755	0.1955	901951	keystroke_e	e	n/a
451.0205	0.1345	902041	keystroke_s	s	n/a
451.141	0.134	902282	keystroke_t	t	n/a
451.38	0.1195	902760	keystroke_Key.enter	Key.enter	n/a
451.5065	6.851	903013	prompt	n/a	plate sitemap improve push\n
452.3105	0.1195	904621	keystroke_p	p	n/a
452.445	0.1055	904890	keystroke_l	l	n/a
452.5955	0.0905	905191	keystroke_a	a	n/a
452.7755	0.105	905551	keystroke_t	t	n/a
452.911	0.1495	905822	keystroke_e	e	n/a
453.0755	0.12	906151	keystroke_Key.space	Key.space	n/a
453.3905	0.0895	906781	keystroke_s	s	n/a
453.8545	0.091	907709	keystroke_i	i	n/a
453.9755	0.135	907951	keystroke_t	t	n/a
454.1705	0.1055	908341	keystroke_e	e	n/a
454.4555	0.105	908911	keystroke_m	m	n/a
454.6205	0.105	909241	keystroke_a	a	n/a
454.86	0.0755	909720	keystroke_p	p	n/a
455.1	0.121	910200	keystroke_Key.space	Key.space	n/a
455.401	0.1645	910802	keystroke_i	i	n/a
455.5055	0.12	911011	keystroke_m	m	n/a
455.7455	0.135	911491	keystroke_p	p	n/a
456.1055	0.135	912211	keystroke_r	r	n/a
456.4955	0.09	912991	keystroke_o	o	n/a
456.57	0.1055	913140	keystroke_v	v	n/a
456.646	0.1345	913292	keystroke_e	e	n/a
457.0505	0.1345	914101	keystroke_Key.space	Key.space	n/a
457.456	0.1495	914912	keystroke_p	p	n/a
457.695	0.135	915390	keystroke_u	u	n/a
457.771	0.119	915542	keystroke_s	s	n/a
457.905	0.1205	915810	keystroke_h	h	n/a
458.2205	0.135	916441	keystroke_Key.enter	Key.enter	n/a
458.363	9.714	916726	prompt	n/a	stuart staying cleared director\n
459.0005	0.135	918001	keystroke_s	s	n/a
459.45	0.09	918900	keystroke_t	t	n/a
459.556	0.1045	919112	keystroke_i	i	n/a
459.6615	0.1035	919323	keystroke_r	r	n/a
459.7805	0.075	919561	keystroke_a	a	n/a
460.1855	0.0745	920371	keystroke_Key.backspace	Key.backspace	n/a
460.3505	0.0595	920701	keystroke_Key.backspace	Key.backspace	n/a
460.47	0.06	920940	keystroke_Key.backspace	Key.backspace	n/a
461.0105	0.1195	922021	keystroke_u	u	n/a
461.1155	0.12	922231	keystroke_a	a	n/a
461.5205	0.105	923041	keystroke_r	r	n/a
461.7005	0.135	923401	keystroke_t	t	n/a
462.0005	0.12	924001	keystroke_Key.space	Key.space	n/a
462.405	0.12	924810	keystroke_s	s	n/a
462.601	0.1045	925202	keystroke_t	t	n/a
462.7955	0.105	925591	keystroke_a	a	n/a
463.365	0.1055	926730	keystroke_y	y	n/a
463.5	0.1355	927000	keystroke_i	i	n/a
463.6505	0.09	927301	keystroke_n	n	n/a
463.786	0.1195	927572	keystroke_g	g	n/a
464.385	0.1355	928770	keystroke_Key.space	Key.space	n/a
464.8055	0.0755	929611	keystroke_c	c	n/a
464.9855	0.135	929971	keystroke_l	l	n/a
465.06	0.135	930120	keystroke_e	e	n/a
465.165	0.165	930330	keystroke_a	a	n/a
465.3905	0.105	930781	keystroke_r	r	n/a
465.465	0.1355	930930	keystroke_e	e	n/a
465.6745	0.151	931349	keystroke_d	d	n/a
466.3505	0.12	932701	keystroke_Key.space	Key.space	n/a
466.5605	0.15	933121	keystroke_d	d	n/a
466.7255	0.12	933451	keystroke_i	i	n/a
466.8605	0.12	933721	keystroke_r	r	n/a
466.9505	0.1205	933901	keystroke_e	e	n/a
467.1155	0.12	934231	keystroke_c	c	n/a
467.37	0.106	934740	keystroke_t	t	n/a
467.536	0.134	935072	keystroke_o	o	n/a
467.656	0.134	935312	keystroke_r	r	n/a
467.9405	0.1345	935881	keystroke_Key.enter	Key.enter	n/a
468.0855	10.9265	936171	prompt	n/a	authentication sized simple commonwealth\n
468.8855	0.09	937771	keystroke_a	a	n/a
469.1855	0.105	938371	keystroke_u	u	n/a
469.3505	0.12	938701	keystroke_t	t	n/a
469.4555	0.12	938911	keystroke_h	h	n/a
469.7105	0.09	939421	keystroke_e	e	n/a
469.92	0.121	939840	keystroke_n	n	n/a
470.1755	0.135	940351	keystroke_t	t	n/a
470.2655	0.12	940531	keystroke_i	i	n/a
470.5205	0.135	941041	keystroke_f	f	n/a
470.6255	0.105	941251	keystroke_i	i	n/a
471.9155	0.12	943831	keystroke_Key.backspace	Key.backspace	n/a
472.545	0.1055	945090	keystroke_Key.backspace	Key.backspace	n/a
472.6655	0.105	945331	keystroke_c	c	n/a
472.7855	0.105	945571	keystroke_a	a	n/a
473.1605	0.1195	946321	keystroke_t	t	n/a
473.2655	0.1345	946531	keystroke_i	i	n/a
473.341	0.135	946682	keystroke_o	o	n/a
473.4605	0.1345	946921	keystroke_n	n	n/a
473.6405	0.134	947281	keystroke_Key.space	Key.space	n/a
473.9255	0.1195	947851	keystroke_s	s	n/a
474.0155	0.165	948031	keystroke_i	i	n/a
474.1655	0.12	948331	keystroke_z	z	n/a
474.3305	0.1045	948661	keystroke_e	e	n/a
474.495	0.1655	948990	keystroke_d	d	n/a
474.661	0.1195	949322	keystroke_Key.space	Key.space	n/a
474.9455	0.15	949891	keystroke_s	s	n/a
475.1555	0.18	950311	keystroke_i	i	n/a
475.2755	0.135	950551	keystroke_m	m	n/a
475.4855	0.105	950971	keystroke_p	p	n/a
475.636	0.149	951272	keystroke_l	l	n/a
475.726	0.1645	951452	keystroke_e	e	n/a
475.8605	0.1345	951721	keystroke_Key.space	Key.space	n/a
476.2355	0.135	952471	keystroke_c	c	n/a
476.415	0.1205	952830	keystroke_o	o	n/a
476.67	0.075	953340	keystroke_m	m	n/a
476.8205	0.105	953641	keystroke_m	m	n/a
476.9265	0.179	953853	keystroke_o	o	n/a
477.091	0.0895	954182	keystroke_n	n	n/a
477.496	0.1495	954992	keystroke_w	w	n/a
477.586	0.1345	955172	keystroke_e	e	n/a
477.7955	0.12	955591	keystroke_a	a	n/a
477.9905	0.105	955981	keystroke_l	l	n/a
478.5155	0.105	957031	keystroke_t	t	n/a
478.6055	0.105	957211	keystroke_h	h	n/a
478.875	0.135	957750	keystroke_Key.enter	Key.enter	n/a
479.0175	10.7495	958035	prompt	n/a	removed inappropriate inspector cancel\n
479.626	0.12	959252	keystroke_r	r	n/a
479.715	0.121	959430	keystroke_e	e	n/a
479.88	0.15	959760	keystroke_m	m	n/a
479.9855	0.18	959971	keystroke_o	o	n/a
480.1955	0.105	960391	keystroke_v	v	n/a
480.3605	0.1495	960721	keystroke_e	e	n/a
480.57	0.1655	961140	keystroke_d	d	n/a
480.7205	0.135	961441	keystroke_Key.space	Key.space	n/a
481.1405	0.1045	962281	keystroke_i	i	n/a
481.155	0.1505	962310	keystroke_n	n	n/a
481.41	0.106	962820	keystroke_a	a	n/a
481.5905	0.1045	963181	keystroke_a	a	n/a
482.3555	0.09	964711	keystroke_Key.backspace	Key.backspace	n/a
482.6855	0.06	965371	keystroke_p	p	n/a
482.821	0.1195	965642	keystroke_p	p	n/a
483.0305	0.1055	966061	keystroke_r	r	n/a
483.196	0.105	966392	keystroke_o	o	n/a
483.9455	0.12	967891	keystroke_p	p	n/a
484.4555	0.105	968911	keystroke_r	r	n/a
484.5155	0.1195	969031	keystroke_i	i	n/a
484.62	0.1055	969240	keystroke_a	a	n/a
484.8305	0.1205	969661	keystroke_t	t	n/a
484.9355	0.15	969871	keystroke_e	e	n/a
485.2505	0.1195	970501	keystroke_Key.space	Key.space	n/a
485.5205	0.15	971041	keystroke_i	i	n/a
485.6255	0.105	971251	keystroke_n	n	n/a
485.7455	0.12	971491	keystroke_s	s	n/a
485.8805	0.15	971761	keystroke_p	p	n/a
486.0315	0.149	972063	keystroke_e	e	n/a
486.2105	0.135	972421	keystroke_c	c	n/a
486.4505	0.12	972901	keystroke_t	t	n/a
486.5855	0.135	973171	keystroke_o	o	n/a
486.7355	0.1055	973471	keystroke_r	r	n/a
487.08	0.1205	974160	keystroke_Key.space	Key.space	n/a
487.741	0.045	975482	keystroke_c	c	n/a
488.5805	0.12	977161	keystroke_a	a	n/a
488.6855	0.105	977371	keystroke_n	n	n/a
489.2545	0.076	978509	keystroke_c	c	n/a
489.3155	0.1045	978631	keystroke_e	e	n/a
489.4355	0.0905	978871	keystroke_l	l	n/a
489.645	0.12	979290	keystroke_Key.enter	Key.enter	n/a
489.7725	8.7405	979545	prompt	n/a	palm others litigation dresses\n
490.6055	0.1655	981211	keystroke_p	p	n/a
490.786	0.0895	981572	keystroke_l	l	n/a
490.8	0.0155	981600	keystroke_a	a	n/a
491.205	0.0755	982410	keystroke_Key.backspace	Key.backspace	n/a
491.34	0.091	982680	keystroke_Key.backspace	Key.backspace	n/a
491.4605	0.1195	982921	keystroke_a	a	n/a
491.566	0.134	983132	keystroke_l	l	n/a
491.8355	0.105	983671	keystroke_m	m	n/a
492.0305	0.1345	984061	keystroke_Key.space	Key.space	n/a
492.6155	0.09	985231	keystroke_o	o	n/a
492.8405	0.105	985681	keystroke_t	t	n/a
492.991	0.104	985982	keystroke_h	h	n/a
493.035	0.15	986070	keystroke_e	e	n/a
493.1255	0.12	986251	keystroke_r	r	n/a
493.2605	0.1795	986521	keystroke_s	s	n/a
493.4255	0.1345	986851	keystroke_Key.space	Key.space	n/a
493.845	0.0755	987690	keystroke_l	l	n/a
494.025	0.121	988050	keystroke_i	i	n/a
494.4605	0.12	988921	keystroke_t	t	n/a
494.521	0.1195	989042	keystroke_i	i	n/a
494.82	0.09	989640	keystroke_g	g	n/a
495.0155	0.0745	990031	keystroke_a	a	n/a
495.2555	0.105	990511	keystroke_t	t	n/a
495.331	0.1495	990662	keystroke_i	i	n/a
495.3455	0.21	990691	keystroke_o	o	n/a
495.4355	0.06	990871	keystroke_p	p	n/a
495.5705	0.1055	991141	keystroke_n	n	n/a
495.975	0.0605	991950	keystroke_Key.backspace	Key.backspace	n/a
496.11	0.1055	992220	keystroke_Key.backspace	Key.backspace	n/a
496.366	0.104	992732	keystroke_n	n	n/a
496.68	0.106	993360	keystroke_Key.space	Key.space	n/a
497.1605	0.1195	994321	keystroke_d	d	n/a
497.3855	0.105	994771	keystroke_r	r	n/a
497.4305	0.15	994861	keystroke_e	e	n/a
497.6255	0.045	995251	keystroke_s	s	n/a
497.761	0.149	995522	keystroke_s	s	n/a
497.895	0.15	995790	keystroke_e	e	n/a
498.1505	0.12	996301	keystroke_s	s	n/a
498.3905	0.12	996781	keystroke_Key.enter	Key.enter	n/a
498.521	8.571	997042	prompt	n/a	prev carried international practical\n
499.306	0.135	998612	keystroke_p	p	n/a
499.4705	0.12	998941	keystroke_r	r	n/a
499.5605	0.105	999121	keystroke_e	e	n/a
499.7255	0.121	999451	keystroke_c	c	n/a
499.875	0.135	999750	keystroke_Key.space	Key.space	n/a
500.0855	0.105	1000171	keystroke_c	c	n/a
500.221	0.1045	1000442	keystroke_a	a	n/a
500.3705	0.09	1000741	keystroke_r	r	n/a
500.5355	0.1195	1001071	keystroke_r	r	n/a
500.6255	0.12	1001251	keystroke_i	i	n/a
500.73	0.12	1001460	keystroke_e	e	n/a
500.9105	0.135	1001821	keystroke_d	d	n/a
501.015	0.1505	1002030	keystroke_Key.space	Key.space	n/a
501.33	0.1655	1002660	keystroke_i	i	n/a
501.4655	0.1205	1002931	keystroke_n	n	n/a
501.5555	0.105	1003111	keystroke_t	t	n/a
501.7055	0.1645	1003411	keystroke_e	e	n/a
501.811	0.1495	1003622	keystroke_r	r	n/a
503.01	0.1205	1006020	keystroke_n	n	n/a
503.085	0.135	1006170	keystroke_a	a	n/a
503.34	0.1055	1006680	keystroke_t	t	n/a
503.385	0.1505	1006770	keystroke_i	i	n/a
503.475	0.1205	1006950	keystroke_o	o	n/a
503.5805	0.09	1007161	keystroke_n	n	n/a
503.7305	0.1195	1007461	keystroke_a	a	n/a
503.9255	0.1355	1007851	keystroke_l	l	n/a
504.165	0.1355	1008330	keystroke_Key.space	Key.space	n/a
504.6605	0.12	1009321	keystroke_p	p	n/a
504.9155	0.12	1009831	keystroke_r	r	n/a
505.081	0.1345	1010162	keystroke_a	a	n/a
505.7705	0.105	1011541	keystroke_c	c	n/a
506.011	0.0745	1012022	keystroke_t	t	n/a
506.0555	0.12	1012111	keystroke_i	i	n/a
506.3405	0.105	1012681	keystroke_c	c	n/a
506.4755	0.12	1012951	keystroke_a	a	n/a
506.6855	0.1355	1013371	keystroke_l	l	n/a
506.985	0.1045	1013970	keystroke_Key.enter	Key.enter	n/a
507.109	9.0425	1014218	prompt	n/a	approach claim forbidden coating\n
507.7355	0.105	1015471	keystroke_a	a	n/a
507.8855	0.0905	1015771	keystroke_p	p	n/a
508.0355	0.105	1016071	keystroke_p	p	n/a
508.1705	0.105	1016341	keystroke_r	r	n/a
508.2455	0.105	1016491	keystroke_o	o	n/a
508.3955	0.135	1016791	keystroke_a	a	n/a
508.5895	0.121	1017179	keystroke_c	c	n/a
508.7555	0.03	1017511	keystroke_h	h	n/a
508.935	0.1355	1017870	keystroke_Key.space	Key.space	n/a
509.2355	0.105	1018471	keystroke_c	c	n/a
509.3855	0.09	1018771	keystroke_l	l	n/a
509.4605	0.09	1018921	keystroke_a	a	n/a
509.8205	0.0305	1019641	keystroke_i	i	n/a
509.836	0.105	1019672	keystroke_m	m	n/a
509.9855	0.135	1019971	keystroke_Key.space	Key.space	n/a
510.2705	0.12	1020541	keystroke_f	f	n/a
510.4055	0.1195	1020811	keystroke_o	o	n/a
510.5105	0.12	1021021	keystroke_r	r	n/a
511.1555	0.1655	1022311	keystroke_b	b	n/a
511.29	0.136	1022580	keystroke_i	i	n/a
511.47	0.0755	1022940	keystroke_d	d	n/a
511.815	0.1055	1023630	keystroke_d	d	n/a
512.0255	0.12	1024051	keystroke_e	e	n/a
512.2055	0.1045	1024411	keystroke_n	n	n/a
512.3555	0.15	1024711	keystroke_Key.space	Key.space	n/a
512.6705	0.1195	1025341	keystroke_c	c	n/a
512.8055	0.0745	1025611	keystroke_o	o	n/a
512.85	0.1055	1025700	keystroke_a	a	n/a
513.015	0.105	1026030	keystroke_t	t	n/a
513.135	0.18	1026270	keystroke_i	i	n/a
513.3005	0.1195	1026601	keystroke_n	n	n/a
513.436	0.1635	1026872	keystroke_g	g	n/a
513.615	0.15	1027230	keystroke_Key.space	Key.space	n/a
515.2655	0.09	1030531	keystroke_'	'	n/a
515.7755	0.0895	1031551	keystroke_Key.backspace	Key.backspace	n/a
516.0305	0.1195	1032061	keystroke_Key.enter	Key.enter	n/a
516.1555	11.216	1032311	prompt	n/a	heating good disease betty\n
517.021	0.0895	1034042	keystroke_h	h	n/a
517.065	0.1055	1034130	keystroke_e	e	n/a
517.1405	0.1045	1034281	keystroke_a	a	n/a
517.2905	0.1045	1034581	keystroke_t	t	n/a
517.306	0.1645	1034612	keystroke_i	i	n/a
517.4855	0.1205	1034971	keystroke_n	n	n/a
517.575	0.1055	1035150	keystroke_g	g	n/a
517.695	0.12	1035390	keystroke_Key.space	Key.space	n/a
518.1905	0.1045	1036381	keystroke_g	g	n/a
518.3105	0.0905	1036621	keystroke_o	o	n/a
518.46	0.1205	1036920	keystroke_o	o	n/a
518.536	0.1495	1037072	keystroke_d	d	n/a
518.655	0.1355	1037310	keystroke_Key.space	Key.space	n/a
518.8955	0.06	1037791	keystroke_d	d	n/a
519.0755	0.03	1038151	keystroke_o	o	n/a
519.0905	0.105	1038181	keystroke_e	e	n/a
519.4505	0.0595	1038901	keystroke_Key.backspace	Key.backspace	n/a
519.6	0.0605	1039200	keystroke_Key.backspace	Key.backspace	n/a
520.1555	0.1045	1040311	keystroke_e	e	n/a
520.4705	0.1045	1040941	keystroke_Key.backspace	Key.backspace	n/a
520.7255	0.12	1041451	keystroke_i	i	n/a
521.0555	0.089	1042111	keystroke_d	d	n/a
521.4155	0.105	1042831	keystroke_Key.backspace	Key.backspace	n/a
521.5055	0.12	1043011	keystroke_c	c	n/a
521.5955	0.135	1043191	keystroke_e	e	n/a
521.7605	0.165	1043521	keystroke_a	a	n/a
521.8805	0.24	1043761	keystroke_s	s	n/a
522.1055	0.105	1044211	keystroke_e	e	n/a
522.8105	0.1345	1045621	keystroke_Key.space	Key.space	n/a
523.245	0.0905	1046490	keystroke_b	b	n/a
523.306	0.1045	1046612	keystroke_e	e	n/a
523.53	0.241	1047060	keystroke_t	t	n/a
523.71	0.1055	1047420	keystroke_y	y	n/a
524.25	0.075	1048500	keystroke_Key.backspace	Key.backspace	n/a
527.0435	0.027	1054087	keystroke_t	t	n/a
527.1455	0.1045	1054291	keystroke_y	y	n/a
527.236	0.1335	1054472	keystroke_Key.enter	Key.enter	n/a
527.3755	8.6815	1054751	prompt	n/a	forums laugh possible hungarian\n
528.21	0.105	1056420	keystroke_f	f	n/a
528.585	0.09	1057170	keystroke_o	o	n/a
528.7655	0.105	1057531	keystroke_r	r	n/a
528.84	0.181	1057680	keystroke_u	u	n/a
528.9905	0.1195	1057981	keystroke_m	m	n/a
529.14	0.18	1058280	keystroke_s	s	n/a
529.3355	0.12	1058671	keystroke_Key.space	Key.space	n/a
529.8155	0.1195	1059631	keystroke_l	l	n/a
529.8905	0.12	1059781	keystroke_a	a	n/a
530.1305	0.12	1060261	keystroke_u	u	n/a
530.2515	0.089	1060503	keystroke_g	g	n/a
530.3555	0.105	1060711	keystroke_h	h	n/a
530.505	0.1195	1061010	keystroke_Key.space	Key.space	n/a
530.911	0.074	1061822	keystroke_p	p	n/a
531.06	0.135	1062120	keystroke_o	o	n/a
531.1805	0.0755	1062361	keystroke_s	s	n/a
531.3465	0.164	1062693	keystroke_s	s	n/a
531.4655	0.1045	1062931	keystroke_i	i	n/a
531.825	0.09	1063650	keystroke_b	b	n/a
531.961	0.1195	1063922	keystroke_l	l	n/a
532.1105	0.165	1064221	keystroke_e	e	n/a
532.2905	0.12	1064581	keystroke_Key.space	Key.space	n/a
532.89	0.1205	1065780	keystroke_h	h	n/a
532.9805	0.075	1065961	keystroke_u	u	n/a
533.1155	0.135	1066231	keystroke_n	n	n/a
533.2955	0.0905	1066591	keystroke_g	g	n/a
533.6105	0.1205	1067221	keystroke_r	r	n/a
534.0455	0.12	1068091	keystroke_Key.backspace	Key.backspace	n/a
534.1355	0.105	1068271	keystroke_a	a	n/a
534.36	0.136	1068720	keystroke_r	r	n/a
534.526	0.1495	1069052	keystroke_i	i	n/a
534.7505	0.045	1069501	keystroke_n	n	n/a
534.8705	0.105	1069741	keystroke_a	a	n/a
535.26	0.06	1070520	keystroke_Key.backspace	Key.backspace	n/a
535.3955	0.06	1070791	keystroke_Key.backspace	Key.backspace	n/a
535.545	0.1055	1071090	keystroke_a	a	n/a
535.6655	0.105	1071331	keystroke_n	n	n/a
535.9505	0.105	1071901	keystroke_Key.enter	Key.enter	n/a
536.062	5.53	1072124	prompt	n/a	army greece count classic\n
536.6255	0.135	1073251	keystroke_a	a	n/a
536.7905	0.12	1073581	keystroke_r	r	n/a
536.9115	0.119	1073823	keystroke_m	m	n/a
537.2255	0.105	1074451	keystroke_y	y	n/a
537.4055	0.165	1074811	keystroke_Key.space	Key.space	n/a
537.9005	0.1045	1075801	keystroke_g	g	n/a
537.99	0.1355	1075980	keystroke_r	r	n/a
538.0505	0.1195	1076101	keystroke_e	e	n/a
538.245	0.12	1076490	keystroke_e	e	n/a
538.4255	0.12	1076851	keystroke_c	c	n/a
538.5155	0.1505	1077031	keystroke_e	e	n/a
538.7105	0.105	1077421	keystroke_Key.space	Key.space	n/a
538.9355	0.15	1077871	keystroke_c	c	n/a
539.0705	0.105	1078141	keystroke_o	o	n/a
539.3105	0.1645	1078621	keystroke_u	u	n/a
539.4	0.1055	1078800	keystroke_n	n	n/a
539.4605	0.1345	1078921	keystroke_t	t	n/a
539.6105	0.1195	1079221	keystroke_Key.space	Key.space	n/a
540.226	0.1045	1080452	keystroke_c	c	n/a
540.3145	0.121	1080629	keystroke_l	l	n/a
540.4355	0.105	1080871	keystroke_a	a	n/a
540.495	0.12	1080990	keystroke_s	s	n/a
540.69	0.12	1081380	keystroke_s	s	n/a
541.171	0.134	1082342	keystroke_i	i	n/a
541.2155	0.15	1082431	keystroke_c	c	n/a
541.4705	0.12	1082941	keystroke_Key.enter	Key.enter	n/a
541.597	12.2655	1083194	prompt	n/a	accurate play simultaneously spies\n
542.2355	0.1045	1084471	keystroke_a	a	n/a
542.46	0.0605	1084920	keystroke_c	c	n/a
542.6255	0.0745	1085251	keystroke_c	c	n/a
542.8205	0.1345	1085641	keystroke_u	u	n/a
543.316	0.0895	1086632	keystroke_r	r	n/a
543.4205	0.1045	1086841	keystroke_a	a	n/a
543.6	0.105	1087200	keystroke_t	t	n/a
543.7655	0.135	1087531	keystroke_e	e	n/a
544.2	0.135	1088400	keystroke_Key.space	Key.space	n/a
544.876	0.1345	1089752	keystroke_p	p	n/a
544.9805	0.135	1089961	keystroke_l	l	n/a
545.1155	0.1345	1090231	keystroke_a	a	n/a
545.4005	0.12	1090801	keystroke_y	y	n/a
545.565	0.135	1091130	keystroke_Key.space	Key.space	n/a
546.24	0.12	1092480	keystroke_s	s	n/a
546.3	0.18	1092600	keystroke_i	i	n/a
546.39	0.15	1092780	keystroke_m	m	n/a
546.6605	0.12	1093321	keystroke_u	u	n/a
546.885	0.121	1093770	keystroke_l	l	n/a
547.2	0.1205	1094400	keystroke_t	t	n/a
547.4405	0.105	1094881	keystroke_a	a	n/a
547.561	0.135	1095122	keystroke_n	n	n/a
549.9925	0.058	1099985	keystroke_e	e	n/a
550.6355	0.1045	1101271	keystroke_o	o	n/a
550.891	0.104	1101782	keystroke_u	u	n/a
551.131	0.119	1102262	keystroke_l	l	n/a
551.5205	0.09	1103041	keystroke_Key.backspace	Key.backspace	n/a
551.595	0.12	1103190	keystroke_s	s	n/a
551.8345	0.136	1103669	keystroke_l	l	n/a
552.4655	0.12	1104931	keystroke_y	y	n/a
552.6155	0.135	1105231	keystroke_Key.space	Key.space	n/a
553.0365	0.119	1106073	keystroke_s	s	n/a
553.14	0.09	1106280	keystroke_p	p	n/a
553.3355	0.1355	1106671	keystroke_i	i	n/a
553.425	0.12	1106850	keystroke_e	e	n/a
553.56	0.1505	1107120	keystroke_s	s	n/a
553.7405	0.12	1107481	keystroke_Key.enter	Key.enter	n/a
553.867	8.3955	1107734	prompt	n/a	forgotten becomes growth achievements\n
554.9405	0.105	1109881	keystroke_f	f	n/a
555.0305	0.09	1110061	keystroke_o	o	n/a
555.1805	0.075	1110361	keystroke_r	r	n/a
555.3455	0.0895	1110691	keystroke_g	g	n/a
555.451	0.135	1110902	keystroke_o	o	n/a
555.5405	0.09	1111081	keystroke_t	t	n/a
555.7205	0.105	1111441	keystroke_t	t	n/a
555.8855	0.09	1111771	keystroke_e	e	n/a
555.9905	0.0455	1111981	keystroke_n	n	n/a
556.2305	0.12	1112461	keystroke_Key.space	Key.space	n/a
556.98	0.076	1113960	keystroke_b	b	n/a
557.041	0.09	1114082	keystroke_e	e	n/a
557.2355	0.1055	1114471	keystroke_c	c	n/a
557.3855	0.21	1114771	keystroke_o	o	n/a
557.5355	0.12	1115071	keystroke_k	k	n/a
557.6405	0.18	1115281	keystroke_e	e	n/a
557.7455	0.15	1115491	keystroke_s	s	n/a
557.8805	0.1205	1115761	keystroke_Key.space	Key.space	n/a
558.315	0.0755	1116630	keystroke_g	g	n/a
558.5255	0.1205	1117051	keystroke_r	r	n/a
558.6905	0.135	1117381	keystroke_o	o	n/a
558.795	0.105	1117590	keystroke_w	w	n/a
559.065	0.1205	1118130	keystroke_t	t	n/a
559.156	0.119	1118312	keystroke_h	h	n/a
559.29	0.1055	1118580	keystroke_Key.space	Key.space	n/a
559.8305	0.105	1119661	keystroke_a	a	n/a
559.9955	0.1345	1119991	keystroke_c	c	n/a
560.1905	0.1205	1120381	keystroke_h	h	n/a
560.46	0.135	1120920	keystroke_i	i	n/a
560.5505	0.1345	1121101	keystroke_e	e	n/a
560.8055	0.12	1121611	keystroke_v	v	n/a
560.9555	0.1195	1121911	keystroke_e	e	n/a
561.6305	0.12	1123261	keystroke_m	m	n/a
561.7055	0.105	1123411	keystroke_e	e	n/a
561.8105	0.1205	1123621	keystroke_n	n	n/a
561.9455	0.09	1123891	keystroke_t	t	n/a
562.005	0.1355	1124010	keystroke_s	s	n/a
562.1555	0.105	1124311	keystroke_Key.enter	Key.enter	n/a
562.2715	9.8005	1124543	prompt	n/a	gourmet printing damages barrier\n
563.1755	0.045	1126351	keystroke_o	o	n/a
563.7305	0.105	1127461	keystroke_Key.backspace	Key.backspace	n/a
563.8365	0.1035	1127673	keystroke_g	g	n/a
564.0005	0.09	1128001	keystroke_o	o	n/a
564.721	0.105	1129442	keystroke_u	u	n/a
564.796	0.1195	1129592	keystroke_r	r	n/a
564.9455	0.105	1129891	keystroke_m	m	n/a
565.0805	0.105	1130161	keystroke_e	e	n/a
565.4105	0.12	1130821	keystroke_t	t	n/a
565.815	0.12	1131630	keystroke_Key.space	Key.space	n/a
566.2655	0.135	1132531	keystroke_p	p	n/a
566.3855	0.1345	1132771	keystroke_r	r	n/a
566.5055	0.1195	1133011	keystroke_i	i	n/a
566.7455	0.105	1133491	keystroke_n	n	n/a
566.955	0.105	1133910	keystroke_t	t	n/a
567.0905	0.1495	1134181	keystroke_i	i	n/a
567.195	0.1355	1134390	keystroke_n	n	n/a
567.3155	0.105	1134631	keystroke_g	g	n/a
567.4955	0.12	1134991	keystroke_Key.space	Key.space	n/a
567.96	0.076	1135920	keystroke_d	d	n/a
568.037	0.104	1136074	keystroke_a	a	n/a
568.2005	0.1045	1136401	keystroke_m	m	n/a
568.32	0.121	1136640	keystroke_a	a	n/a
568.561	0.09	1137122	keystroke_g	g	n/a
568.68	0.166	1137360	keystroke_e	e	n/a
568.785	0.165	1137570	keystroke_s	s	n/a
568.9805	0.1355	1137961	keystroke_Key.space	Key.space	n/a
569.685	0.1205	1139370	keystroke_a	a	n/a
570.151	0.1045	1140302	keystroke_Key.backspace	Key.backspace	n/a
570.4505	0.09	1140901	keystroke_b	b	n/a
570.5105	0.135	1141021	keystroke_a	a	n/a
570.6905	0.105	1141381	keystroke_r	r	n/a
570.871	0.1195	1141742	keystroke_r	r	n/a
571.35	0.136	1142700	keystroke_i	i	n/a
571.5005	0.1655	1143001	keystroke_e	e	n/a
571.575	0.1355	1143150	keystroke_r	r	n/a
571.725	0.1355	1143450	keystroke_s	s	n/a
571.921	0.149	1143842	keystroke_Key.enter	Key.enter	n/a
572.077	7.961	1144154	prompt	n/a	choir everything handles peter\n
572.746	0.1195	1145492	keystroke_c	c	n/a
573.0455	0.09	1146091	keystroke_h	h	n/a
573.1505	0.0895	1146301	keystroke_o	o	n/a
573.3155	0.135	1146631	keystroke_i	i	n/a
573.51	0.1205	1147020	keystroke_r	r	n/a
573.72	0.12	1147440	keystroke_Key.space	Key.space	n/a
574.2005	0.09	1148401	keystroke_c	c	n/a
574.53	0.1205	1149060	keystroke_Key.backspace	Key.backspace	n/a
574.6355	0.075	1149271	keystroke_e	e	n/a
574.7555	0.105	1149511	keystroke_v	v	n/a
574.9205	0.135	1149841	keystroke_e	e	n/a
574.9955	0.12	1149991	keystroke_r	r	n/a
575.8205	0.105	1151641	keystroke_y	y	n/a
575.9855	0.135	1151971	keystroke_t	t	n/a
576.0755	0.18	1152151	keystroke_h	h	n/a
576.3595	0.121	1152719	keystroke_i	i	n/a
577.1105	0.1195	1154221	keystroke_n	n	n/a
577.17	0.1205	1154340	keystroke_g	g	n/a
577.3205	0.1495	1154641	keystroke_Key.space	Key.space	n/a
577.86	0.1055	1155720	keystroke_h	h	n/a
577.9205	0.105	1155841	keystroke_a	a	n/a
578.0555	0.165	1156111	keystroke_n	n	n/a
578.1605	0.135	1156321	keystroke_d	d	n/a
578.4755	0.12	1156951	keystroke_l	l	n/a
578.6105	0.12	1157221	keystroke_e	e	n/a
578.8055	0.1495	1157611	keystroke_s	s	n/a
578.9705	0.135	1157941	keystroke_Key.space	Key.space	n/a
579.36	0.135	1158720	keystroke_p	p	n/a
579.4205	0.1345	1158841	keystroke_e	e	n/a
579.585	0.12	1159170	keystroke_t	t	n/a
579.72	0.12	1159440	keystroke_e	e	n/a
579.7955	0.12	1159591	keystroke_r	r	n/a
579.961	0.0745	1159922	keystroke_Key.enter	Key.enter	n/a
580.042	7.9465	1160084	prompt	n/a	insight nascar yamaha ranks\n
580.8305	0.1355	1161661	keystroke_i	i	n/a
580.935	0.1205	1161870	keystroke_n	n	n/a
581.056	0.149	1162112	keystroke_s	s	n/a
581.1605	0.135	1162321	keystroke_i	i	n/a
581.3555	0.075	1162711	keystroke_g	g	n/a
581.4605	0.105	1162921	keystroke_h	h	n/a
581.5355	0.135	1163071	keystroke_t	t	n/a
581.7155	0.1355	1163431	keystroke_Key.space	Key.space	n/a
582.42	0.0755	1164840	keystroke_n	n	n/a
582.4655	0.165	1164931	keystroke_a	a	n/a
582.5555	0.1345	1165111	keystroke_s	s	n/a
582.7955	0.075	1165591	keystroke_c	c	n/a
582.9305	0.09	1165861	keystroke_a	a	n/a
583.171	0.105	1166342	keystroke_r	r	n/a
583.38	0.1205	1166760	keystroke_Key.space	Key.space	n/a
583.83	0.09	1167660	keystroke_u	u	n/a
583.9355	0.0295	1167871	keystroke_a	a	n/a
584.1155	0.12	1168231	keystroke_Key.backspace	Key.backspace	n/a
584.431	0.12	1168862	keystroke_y	y	n/a
584.895	0.091	1169790	keystroke_Key.backspace	Key.backspace	n/a
585.06	0.15	1170120	keystroke_Key.backspace	Key.backspace	n/a
585.706	0.1045	1171412	keystroke_y	y	n/a
585.766	0.09	1171532	keystroke_a	a	n/a
586.125	0.09	1172250	keystroke_m	m	n/a
586.2005	0.105	1172401	keystroke_a	a	n/a
586.455	0.105	1172910	keystroke_h	h	n/a
586.5455	0.15	1173091	keystroke_a	a	n/a
586.7105	0.1645	1173421	keystroke_Key.space	Key.space	n/a
587.1605	0.105	1174321	keystroke_r	r	n/a
587.2505	0.135	1174501	keystroke_a	a	n/a
587.4155	0.165	1174831	keystroke_n	n	n/a
587.5355	0.135	1175071	keystroke_k	k	n/a
