onset	duration	sample	value	key	prompt_text
9.3155	7.6535	18631	prompt	n/a	the quick brown fox jumps over a lazy dog\n
10.909	0.028	21818	keystroke_t	t	n/a
10.952	0.044	21904	keystroke_h	h	n/a
11.072	0.104	22144	keystroke_e	e	n/a
11.237	0.09	22474	keystroke_Key.space	Key.space	n/a
11.357	0.06	22714	keystroke_q	q	n/a
11.612	0.105	23224	keystroke_u	u	n/a
11.777	0.0745	23554	keystroke_i	i	n/a
11.8815	0.135	23763	keystroke_c	c	n/a
12.0315	0.105	24063	keystroke_k	k	n/a
12.1065	0.12	24213	keystroke_Key.space	Key.space	n/a
12.2565	0.105	24513	keystroke_b	b	n/a
12.3615	0.12	24723	keystroke_r	r	n/a
12.4965	0.06	24993	keystroke_o	o	n/a
12.5715	0.12	25143	keystroke_w	w	n/a
12.6765	0.075	25353	keystroke_n	n	n/a
12.7365	0.105	25473	keystroke_Key.space	Key.space	n/a
12.8715	0.09	25743	keystroke_f	f	n/a
12.9765	0.09	25953	keystroke_o	o	n/a
13.1265	0.135	26253	keystroke_x	x	n/a
13.2165	0.135	26433	keystroke_Key.space	Key.space	n/a
13.3365	0.0755	26673	keystroke_j	j	n/a
13.5165	0.06	27033	keystroke_u	u	n/a
13.6965	0.09	27393	keystroke_m	m	n/a
13.8015	0.105	27603	keystroke_p	p	n/a
13.9215	0.06	27843	keystroke_s	s	n/a
13.9965	0.105	27993	keystroke_Key.space	Key.space	n/a
14.1165	0.105	28233	keystroke_o	o	n/a
14.1765	0.075	28353	keystroke_v	v	n/a
14.3565	0.0895	28713	keystroke_e	e	n/a
14.4015	0.0745	28803	keystroke_r	r	n/a
14.491	0.076	28982	keystroke_Key.space	Key.space	n/a
14.7765	0.0295	29553	keystroke_Key.space	Key.space	n/a
15.061	0.1505	30122	keystroke_Key.backspace	Key.backspace	n/a
15.2265	0.06	30453	keystroke_a	a	n/a
15.2865	0.12	30573	keystroke_Key.space	Key.space	n/a
15.4815	0.1055	30963	keystroke_l	l	n/a
15.5715	0.0755	31143	keystroke_a	a	n/a
15.812	0.105	31624	keystroke_z	z	n/a
15.932	0.075	31864	keystroke_y	y	n/a
16.022	0.075	32044	keystroke_Key.space	Key.space	n/a
16.1565	0.09	32313	keystroke_d	d	n/a
16.3515	0.105	32703	keystroke_o	o	n/a
16.5015	0.12	33003	keystroke_g	g	n/a
16.846	0.12	33692	keystroke_Key.enter	Key.enter	n/a
16.975	6.5785	33950	prompt	n/a	shop eugene institutional scanners\n
17.6115	0.135	35223	keystroke_s	s	n/a
17.7475	0.0895	35495	keystroke_h	h	n/a
17.852	0.105	35704	keystroke_o	o	n/a
18.107	0.09	36214	keystroke_p	p	n/a
18.182	0.105	36364	keystroke_Key.space	Key.space	n/a
18.497	0.09	36994	keystroke_e	e	n/a
18.617	0.075	37234	keystroke_u	u	n/a
19.067	0.09	38134	keystroke_g	g	n/a
19.277	0.09	38554	keystroke_e	e	n/a
19.382	0.075	38764	keystroke_n	n	n/a
19.472	0.075	38944	keystroke_e	e	n/a
19.6965	0.075	39393	keystroke_Key.space	Key.space	n/a
20.0265	0.105	40053	keystroke_i	i	n/a
20.1015	0.09	40203	keystroke_n	n	n/a
20.1925	0.104	40385	keystroke_s	s	n/a
20.417	0.075	40834	keystroke_t	t	n/a
20.507	0.06	41014	keystroke_i	i	n/a
20.612	0.09	41224	keystroke_t	t	n/a
20.717	0.075	41434	keystroke_u	u	n/a
21.137	0.105	42274	keystroke_t	t	n/a
21.272	0.15	42544	keystroke_i	i	n/a
21.407	0.12	42814	keystroke_o	o	n/a
21.482	0.12	42964	keystroke_n	n	n/a
21.617	0.12	43234	keystroke_a	a	n/a
21.797	0.09	43594	keystroke_l	l	n/a
21.901	0.105	43802	keystroke_Key.space	Key.space	n/a
22.487	0.059	44974	keystroke_s	s	n/a
22.622	0.06	45244	keystroke_c	c	n/a
22.742	0.105	45484	keystroke_a	a	n/a
22.862	0.045	45724	keystroke_n	n	n/a
23.0115	0.06	46023	keystroke_n	n	n/a
23.0865	0.075	46173	keystroke_e	e	n/a
23.1315	0.075	46263	keystroke_r	r	n/a
23.3265	0.12	46653	keystroke_s	s	n/a
23.4615	0.09	46923	keystroke_Key.enter	Key.enter	n/a
23.5565	5.787	47113	prompt	n/a	objects glance mercy hungarian\n
24.152	0.12	48304	keystroke_o	o	n/a
24.332	0.09	48664	keystroke_b	b	n/a
24.647	0.075	49294	keystroke_j	j	n/a
25.082	0.045	50164	keystroke_e	e	n/a
25.277	0.09	50554	keystroke_c	c	n/a
25.517	0.075	51034	keystroke_t	t	n/a
25.7265	0.09	51453	keystroke_s	s	n/a
25.8615	0.09	51723	keystroke_Key.space	Key.space	n/a
25.9665	0.135	51933	keystroke_g	g	n/a
26.1165	0.06	52233	keystroke_l	l	n/a
26.2065	0.075	52413	keystroke_a	a	n/a
26.2965	0.09	52593	keystroke_n	n	n/a
26.4315	0.075	52863	keystroke_c	c	n/a
26.5815	0.105	53163	keystroke_e	e	n/a
26.7015	0.1055	53403	keystroke_Key.space	Key.space	n/a
26.822	0.09	53644	keystroke_m	m	n/a
26.852	0.15	53704	keystroke_e	e	n/a
26.972	0.075	53944	keystroke_r	r	n/a
27.197	0.12	54394	keystroke_c	c	n/a
27.3625	0.09	54725	keystroke_y	y	n/a
27.692	0.105	55384	keystroke_Key.space	Key.space	n/a
27.917	0.075	55834	keystroke_h	h	n/a
28.067	0.135	56134	keystroke_u	u	n/a
28.157	0.09	56314	keystroke_n	n	n/a
28.277	0.075	56554	keystroke_g	g	n/a
28.4715	0.075	56943	keystroke_a	a	n/a
28.6515	0.09	57303	keystroke_r	r	n/a
28.7565	0.06	57513	keystroke_i	i	n/a
28.8465	0.105	57693	keystroke_a	a	n/a
28.9665	0.075	57933	keystroke_n	n	n/a
29.2515	0.09	58503	keystroke_Key.enter	Key.enter	n/a
29.3465	6.177	58693	prompt	n/a	logitech climb jackson geological\n
30.047	0.06	60094	keystroke_l	l	n/a
30.167	0.09	60334	keystroke_o	o	n/a
30.272	0.12	60544	keystroke_g	g	n/a
30.422	0.09	60844	keystroke_i	i	n/a
30.572	0.075	61144	keystroke_t	t	n/a
30.722	0.09	61444	keystroke_e	e	n/a
30.962	0.12	61924	keystroke_c	c	n/a
31.083	0.0735	62166	keystroke_h	h	n/a
31.1715	0.075	62343	keystroke_Key.space	Key.space	n/a
31.4265	0.15	62853	keystroke_c	c	n/a
31.5615	0.0905	63123	keystroke_l	l	n/a
31.712	0.075	63424	keystroke_i	i	n/a
31.907	0.06	63814	keystroke_m	m	n/a
32.132	0.06	64264	keystroke_b	b	n/a
32.342	0.045	64684	keystroke_Key.space	Key.space	n/a
32.5965	0.075	65193	keystroke_j	j	n/a
32.6565	0.09	65313	keystroke_a	a	n/a
32.8665	0.09	65733	keystroke_c	c	n/a
32.9415	0.09	65883	keystroke_k	k	n/a
33.1065	0.105	66213	keystroke_s	s	n/a
33.1965	0.105	66393	keystroke_o	o	n/a
33.2715	0.075	66543	keystroke_n	n	n/a
33.3765	0.09	66753	keystroke_Key.space	Key.space	n/a
33.6165	0.075	67233	keystroke_g	g	n/a
33.7965	0.075	67593	keystroke_e	e	n/a
34.0965	0.06	68193	keystroke_o	o	n/a
34.3365	0.09	68673	keystroke_l	l	n/a
34.5465	0.075	69093	keystroke_o	o	n/a
34.6815	0.105	69363	keystroke_g	g	n/a
34.8315	0.09	69663	keystroke_i	i	n/a
34.9665	0.075	69933	keystroke_c	c	n/a
35.1315	0.0905	70263	keystroke_a	a	n/a
35.237	0.09	70474	keystroke_l	l	n/a
35.462	0.06	70924	keystroke_Key.enter	Key.enter	n/a
35.528	5.7855	71056	prompt	n/a	lane history tears involvement\n
36.0315	0.12	72063	keystroke_l	l	n/a
36.1365	0.12	72273	keystroke_a	a	n/a
36.2415	0.105	72483	keystroke_n	n	n/a
36.3615	0.09	72723	keystroke_e	e	n/a
36.4365	0.12	72873	keystroke_Key.space	Key.space	n/a
36.6015	0.12	73203	keystroke_h	h	n/a
36.7225	0.089	73445	keystroke_i	i	n/a
36.8265	0.075	73653	keystroke_s	s	n/a
37.0215	0.075	74043	keystroke_t	t	n/a
37.1115	0.09	74223	keystroke_o	o	n/a
37.2315	0.105	74463	keystroke_r	r	n/a
37.3515	0.105	74703	keystroke_y	y	n/a
37.4415	0.09	74883	keystroke_Key.space	Key.space	n/a
37.5915	0.075	75183	keystroke_h	h	n/a
37.8765	0.06	75753	keystroke_Key.backspace	Key.backspace	n/a
37.952	0.105	75904	keystroke_t	t	n/a
38.222	0.06	76444	keystroke_e	e	n/a
38.432	0.105	76864	keystroke_a	a	n/a
38.672	0.06	77344	keystroke_r	r	n/a
38.852	0.105	77704	keystroke_s	s	n/a
38.942	0.105	77884	keystroke_Key.space	Key.space	n/a
39.107	0.105	78214	keystroke_i	i	n/a
39.167	0.09	78334	keystroke_n	n	n/a
39.317	0.105	78634	keystroke_v	v	n/a
39.452	0.045	78904	keystroke_o	o	n/a
39.767	0.0745	79534	keystroke_l	l	n/a
39.8865	0.06	79773	keystroke_c	c	n/a
40.3065	0.06	80613	keystroke_Key.backspace	Key.backspace	n/a
40.3815	0.075	80763	keystroke_v	v	n/a
40.5465	0.075	81093	keystroke_e	e	n/a
40.6515	0.1055	81303	keystroke_m	m	n/a
40.757	0.06	81514	keystroke_e	e	n/a
40.862	0.06	81724	keystroke_n	n	n/a
40.907	0.09	81814	keystroke_t	t	n/a
41.237	0.075	82474	keystroke_Key.enter	Key.enter	n/a
41.317	4.812	82634	prompt	n/a	cannon folk genes consist\n
41.8215	0.09	83643	keystroke_c	c	n/a
41.9565	0.12	83913	keystroke_a	a	n/a
42.0615	0.045	84123	keystroke_n	n	n/a
42.1965	0.06	84393	keystroke_n	n	n/a
42.3765	0.075	84753	keystroke_o	o	n/a
42.4365	0.105	84873	keystroke_n	n	n/a
42.5425	0.104	85085	keystroke_Key.space	Key.space	n/a
42.7215	0.12	85443	keystroke_f	f	n/a
42.7965	0.075	85593	keystroke_o	o	n/a
42.977	0.09	85954	keystroke_l	l	n/a
43.517	0.1195	87034	keystroke_k	k	n/a
43.6515	0.06	87303	keystroke_Key.space	Key.space	n/a
43.9215	0.105	87843	keystroke_g	g	n/a
44.1165	0.09	88233	keystroke_e	e	n/a
44.2365	0.075	88473	keystroke_n	n	n/a
44.3415	0.0755	88683	keystroke_e	e	n/a
44.702	0.0895	89404	keystroke_s	s	n/a
44.8515	0.075	89703	keystroke_Key.space	Key.space	n/a
45.0315	0.09	90063	keystroke_c	c	n/a
45.1365	0.0905	90273	keystroke_o	o	n/a
45.1965	0.0755	90393	keystroke_n	n	n/a
45.332	0.075	90664	keystroke_s	s	n/a
45.4365	0.045	90873	keystroke_i	i	n/a
45.5265	0.0745	91053	keystroke_s	s	n/a
45.7065	0.075	91413	keystroke_t	t	n/a
46.037	0.09	92074	keystroke_Key.enter	Key.enter	n/a
46.141	6.197	92282	prompt	n/a	liable throat simpson animals\n
46.667	0.09	93334	keystroke_l	l	n/a
46.8315	0.075	93663	keystroke_i	i	n/a
46.9965	0.105	93993	keystroke_a	a	n/a
47.0565	0.075	94113	keystroke_b	b	n/a
47.3115	0.09	94623	keystroke_e	e	n/a
47.6865	0.045	95373	keystroke_Key.backspace	Key.backspace	n/a
47.9115	0.075	95823	keystroke_l	l	n/a
48.0315	0.06	96063	keystroke_e	e	n/a
48.0765	0.0905	96153	keystroke_Key.space	Key.space	n/a
48.287	0.075	96574	keystroke_t	t	n/a
48.332	0.09	96664	keystroke_h	h	n/a
48.452	0.105	96904	keystroke_r	r	n/a
48.5265	0.1205	97053	keystroke_o	o	n/a
48.7065	0.0755	97413	keystroke_a	a	n/a
48.9165	0.09	97833	keystroke_t	t	n/a
49.022	0.12	98044	keystroke_Key.space	Key.space	n/a
49.2615	0.12	98523	keystroke_s	s	n/a
49.367	0.105	98734	keystroke_i	i	n/a
49.427	0.105	98854	keystroke_m	m	n/a
49.607	0.09	99214	keystroke_p	p	n/a
49.817	0.12	99634	keystroke_s	s	n/a
49.952	0.06	99904	keystroke_o	o	n/a
50.237	0.0595	100474	keystroke_n	n	n/a
50.3565	0.12	100713	keystroke_Key.space	Key.space	n/a
50.6565	0.12	101313	keystroke_a	a	n/a
50.8215	0.075	101643	keystroke_n	n	n/a
51.0315	0.06	102063	keystroke_i	i	n/a
51.2415	0.06	102483	keystroke_m	m	n/a
51.3315	0.075	102663	keystroke_a	a	n/a
51.917	0.045	103834	keystroke_l	l	n/a
52.082	0.09	104164	keystroke_s	s	n/a
52.277	0.06	104554	keystroke_Key.enter	Key.enter	n/a
52.3425	6.791	104685	prompt	n/a	springs gregory premiere roger\n
52.877	0.1195	105754	keystroke_s	s	n/a
53.0565	0.075	106113	keystroke_p	p	n/a
53.1915	0.105	106383	keystroke_r	r	n/a
53.2975	0.104	106595	keystroke_i	i	n/a
53.3715	0.1205	106743	keystroke_n	n	n/a
53.447	0.105	106894	keystroke_g	g	n/a
53.642	0.09	107284	keystroke_s	s	n/a
53.747	0.105	107494	keystroke_Key.space	Key.space	n/a
54.167	0.075	108334	keystroke_g	g	n/a
54.362	0.06	108724	keystroke_r	r	n/a
54.542	0.075	109084	keystroke_e	e	n/a
54.752	0.09	109504	keystroke_g	g	n/a
54.827	0.075	109654	keystroke_o	o	n/a
55.007	0.105	110014	keystroke_r	r	n/a
55.202	0.075	110404	keystroke_y	y	n/a
55.307	0.09	110614	keystroke_Key.space	Key.space	n/a
55.487	0.09	110974	keystroke_p	p	n/a
55.8615	0.105	111723	keystroke_r	r	n/a
56.0715	0.075	112143	keystroke_e	e	n/a
56.417	0.075	112834	keystroke_m	m	n/a
56.567	0.09	113134	keystroke_i	i	n/a
56.642	0.09	113284	keystroke_e	e	n/a
56.852	0.075	113704	keystroke_r	r	n/a
57.077	0.06	114154	keystroke_e	e	n/a
57.467	0.09	114934	keystroke_Key.space	Key.space	n/a
57.932	0.15	115864	keystroke_r	r	n/a
58.052	0.105	116104	keystroke_o	o	n/a
58.337	0.075	116674	keystroke_g	g	n/a
58.532	0.075	117064	keystroke_e	e	n/a
58.577	0.09	117154	keystroke_r	r	n/a
59.012	0.12	118024	keystroke_Key.enter	Key.enter	n/a
59.136	5.9225	118272	prompt	n/a	blogger time subscribe bishop\n
59.8215	0.12	119643	keystroke_b	b	n/a
59.9565	0.075	119913	keystroke_l	l	n/a
60.1365	0.045	120273	keystroke_o	o	n/a
60.2415	0.03	120483	keystroke_d	d	n/a
60.6015	0.03	121203	keystroke_Key.backspace	Key.backspace	n/a
60.6165	0.06	121233	keystroke_g	g	n/a
60.7665	0.045	121533	keystroke_g	g	n/a
60.9165	0.105	121833	keystroke_e	e	n/a
60.9615	0.075	121923	keystroke_r	r	n/a
61.0965	0.105	122193	keystroke_Key.space	Key.space	n/a
61.3215	0.03	122643	keystroke_t	t	n/a
61.3965	0.06	122793	keystroke_i	i	n/a
61.622	0.075	123244	keystroke_m	m	n/a
61.682	0.09	123364	keystroke_e	e	n/a
61.832	0.0745	123664	keystroke_Key.space	Key.space	n/a
62.0265	0.12	124053	keystroke_s	s	n/a
62.1915	0.135	124383	keystroke_u	u	n/a
62.3115	0.09	124623	keystroke_b	b	n/a
62.4165	0.075	124833	keystroke_s	s	n/a
62.5965	0.09	125193	keystroke_c	c	n/a
62.8215	0.12	125643	keystroke_r	r	n/a
62.972	0.105	125944	keystroke_i	i	n/a
63.197	0.03	126394	keystroke_b	b	n/a
63.2865	0.09	126573	keystroke_e	e	n/a
63.4365	0.09	126873	keystroke_Key.space	Key.space	n/a
63.7365	0.12	127473	keystroke_b	b	n/a
63.9315	0.09	127863	keystroke_i	i	n/a
64.0365	0.09	128073	keystroke_s	s	n/a
64.1565	0.09	128313	keystroke_h	h	n/a
64.337	0.075	128674	keystroke_o	o	n/a
64.577	0.045	129154	keystroke_p	p	n/a
64.967	0.09	129934	keystroke_Key.enter	Key.enter	n/a
65.068	9.0355	130136	prompt	n/a	above signed nirvana uniform\n
65.6565	0.105	131313	keystroke_a	a	n/a
65.7765	0.075	131553	keystroke_b	b	n/a
65.9115	0.105	131823	keystroke_o	o	n/a
66.0615	0.135	132123	keystroke_v	v	n/a
66.2865	0.075	132573	keystroke_e	e	n/a
66.3915	0.105	132783	keystroke_Key.space	Key.space	n/a
66.5265	0.09	133053	keystroke_s	s	n/a
66.6015	0.075	133203	keystroke_i	i	n/a
66.7215	0.1205	133443	keystroke_g	g	n/a
66.857	0.06	133714	keystroke_n	n	n/a
67.202	0.09	134404	keystroke_e	e	n/a
67.412	0.09	134824	keystroke_d	d	n/a
67.547	0.135	135094	keystroke_Key.space	Key.space	n/a
67.697	0.0745	135394	keystroke_n	n	n/a
67.8165	0.06	135633	keystroke_i	i	n/a
67.982	0.075	135964	keystroke_r	r	n/a
68.2065	0.15	136413	keystroke_v	v	n/a
68.6715	0.09	137343	keystroke_a	a	n/a
68.7765	0.06	137553	keystroke_n	n	n/a
68.8665	0.09	137733	keystroke_a	a	n/a
68.9715	0.09	137943	keystroke_Key.space	Key.space	n/a
69.1515	0.076	138303	keystroke_i	i	n/a
69.4815	0.06	138963	keystroke_Key.backspace	Key.backspace	n/a
69.752	0.075	139504	keystroke_u	u	n/a
69.797	0.09	139594	keystroke_n	n	n/a
70.292	0.09	140584	keystroke_i	i	n/a
70.442	0.105	140884	keystroke_v	v	n/a
70.817	0.045	141634	keystroke_Key.backspace	Key.backspace	n/a
70.892	0.105	141784	keystroke_f	f	n/a
71.147	0.06	142294	keystroke_r	r	n/a
71.432	0.06	142864	keystroke_Key.backspace	Key.backspace	n/a
71.6715	0.06	143343	keystroke_i	i	n/a
71.7915	0.09	143583	keystroke_r	r	n/a
71.9265	0.09	143853	keystroke_n	n	n/a
72.3765	0.06	144753	keystroke_Key.backspace	Key.backspace	n/a
72.6165	0.075	145233	keystroke_Key.backspace	Key.backspace	n/a
73.0815	0.12	146163	keystroke_Key.backspace	Key.backspace	n/a
73.3215	0.09	146643	keystroke_o	o	n/a
73.5175	0.105	147035	keystroke_r	r	n/a
73.6365	0.09	147273	keystroke_m	m	n/a
74.012	0.09	148024	keystroke_Key.enter	Key.enter	n/a
74.112	6.666	148224	prompt	n/a	johns emerging acer frequencies\n
74.792	0.06	149584	keystroke_j	j	n/a
74.972	0.15	149944	keystroke_o	o	n/a
75.152	0.06	150304	keystroke_h	h	n/a
75.3765	0.06	150753	keystroke_n	n	n/a
75.6015	0.1055	151203	keystroke_s	s	n/a
75.752	0.0895	151504	keystroke_Key.space	Key.space	n/a
76.0815	0.09	152163	keystroke_e	e	n/a
76.1875	0.089	152375	keystroke_m	m	n/a
76.2625	0.06	152525	keystroke_e	e	n/a
76.427	0.06	152854	keystroke_r	r	n/a
76.622	0.075	153244	keystroke_g	g	n/a
76.742	0.105	153484	keystroke_i	i	n/a
76.817	0.075	153634	keystroke_n	n	n/a
77.102	0.075	154204	keystroke_g	g	n/a
77.207	0.0895	154414	keystroke_Key.space	Key.space	n/a
77.4015	0.06	154803	keystroke_c	c	n/a
77.716	0.075	155432	keystroke_Key.backspace	Key.backspace	n/a
77.747	0.1345	155494	keystroke_a	a	n/a
77.8965	0.1505	155793	keystroke_c	c	n/a
78.302	0.09	156604	keystroke_e	e	n/a
78.332	0.1045	156664	keystroke_r	r	n/a
78.526	0.09	157052	keystroke_Key.space	Key.space	n/a
78.827	0.104	157654	keystroke_f	f	n/a
79.051	0.06	158102	keystroke_r	r	n/a
79.232	0.0745	158464	keystroke_e	e	n/a
79.4415	0.045	158883	keystroke_q	q	n/a
79.5465	0.09	159093	keystroke_u	u	n/a
79.6515	0.075	159303	keystroke_e	e	n/a
79.7875	0.089	159575	keystroke_n	n	n/a
80.1015	0.09	160203	keystroke_c	c	n/a
80.207	0.075	160414	keystroke_i	i	n/a
80.297	0.09	160594	keystroke_e	e	n/a
80.477	0.105	160954	keystroke_s	s	n/a
80.687	0.0895	161374	keystroke_Key.enter	Key.enter	n/a
80.781	14.832	161562	prompt	n/a	measuring voyeurweb wicked flashers\n
81.3465	0.09	162693	keystroke_m	m	n/a
81.4665	0.075	162933	keystroke_e	e	n/a
81.677	0.015	163354	keystroke_a	a	n/a
81.7965	0.09	163593	keystroke_s	s	n/a
82.0065	0.075	164013	keystroke_u	u	n/a
82.3225	0.104	164645	keystroke_r	r	n/a
82.4415	0.1055	164883	keystroke_i	i	n/a
82.562	0.03	165124	keystroke_n	n	n/a
82.607	0.09	165214	keystroke_g	g	n/a
82.922	0.09	165844	keystroke_Key.space	Key.space	n/a
83.252	0.12	166504	keystroke_v	v	n/a
83.432	0.105	166864	keystroke_o	o	n/a
83.7165	0.09	167433	keystroke_y	y	n/a
83.9115	0.105	167823	keystroke_e	e	n/a
84.1815	0.075	168363	keystroke_r	r	n/a
84.5715	0.06	169143	keystroke_Key.backspace	Key.backspace	n/a
84.782	0.06	169564	keystroke_u	u	n/a
84.842	0.105	169684	keystroke_r	r	n/a
85.187	0.074	170374	keystroke_w	w	n/a
85.307	0.09	170614	keystroke_e	e	n/a
85.441	0.076	170882	keystroke_b	b	n/a
85.652	0.0745	171304	keystroke_Key.space	Key.space	n/a
85.8015	0.105	171603	keystroke_w	w	n/a
85.9665	0.09	171933	keystroke_i	i	n/a
86.1315	0.105	172263	keystroke_c	c	n/a
86.4315	0.09	172863	keystroke_k	k	n/a
86.5365	0.105	173073	keystroke_e	e	n/a
86.9715	0.105	173943	keystroke_t	t	n/a
87.4065	0.09	174813	keystroke_Key.backspace	Key.backspace	n/a
87.4815	0.12	174963	keystroke_d	d	n/a
87.6315	0.1205	175263	keystroke_Key.space	Key.space	n/a
87.8115	0.1055	175623	keystroke_f	f	n/a
87.9465	0.075	175893	keystroke_k	k	n/a
88.0515	0.1055	176103	keystroke_a	a	n/a
88.3065	0.06	176613	keystroke_s	s	n/a
89.311	0.06	178622	keystroke_h	h	n/a
89.401	0.2105	178802	keystroke_e	e	n/a
89.536	0.1055	179072	keystroke_r	r	n/a
89.807	0.134	179614	keystroke_s	s	n/a
91.8915	0.06	183783	keystroke_Key.backspace	Key.backspace	n/a
92.0565	0.075	184113	keystroke_Key.backspace	Key.backspace	n/a
92.1915	0.09	184383	keystroke_Key.backspace	Key.backspace	n/a
92.3565	0.075	184713	keystroke_Key.backspace	Key.backspace	n/a
92.507	0.09	185014	keystroke_Key.backspace	Key.backspace	n/a
92.672	0.09	185344	keystroke_Key.backspace	Key.backspace	n/a
92.867	0.075	185734	keystroke_Key.backspace	Key.backspace	n/a
93.557	0.06	187114	keystroke_l	l	n/a
93.677	0.075	187354	keystroke_a	a	n/a
93.887	0.06	187774	keystroke_s	s	n/a
93.962	0.075	187924	keystroke_h	h	n/a
94.127	0.09	188254	keystroke_e	e	n/a
94.187	0.075	188374	keystroke_r	r	n/a
94.847	0.105	189694	keystroke_s	s	n/a
95.5215	0.09	191043	keystroke_Key.enter	Key.enter	n/a
95.617	5.8915	191234	prompt	n/a	locking adsl index wherever\n
96.2115	0.075	192423	keystroke_l	l	n/a
96.3915	0.06	192783	keystroke_o	o	n/a
96.4815	0.09	192963	keystroke_c	c	n/a
96.5565	0.09	193113	keystroke_k	k	n/a
96.8115	0.105	193623	keystroke_i	i	n/a
96.8865	0.06	193773	keystroke_n	n	n/a
97.0065	0.105	194013	keystroke_g	g	n/a
97.1265	0.075	194253	keystroke_Key.space	Key.space	n/a
97.2615	0.075	194523	keystroke_a	a	n/a
97.982	0.075	195964	keystroke_d	d	n/a
98.132	0.09	196264	keystroke_s	s	n/a
98.312	0.09	196624	keystroke_l	l	n/a
98.687	0.12	197374	keystroke_Key.space	Key.space	n/a
98.852	0.105	197704	keystroke_i	i	n/a
98.927	0.09	197854	keystroke_n	n	n/a
99.317	0.075	198634	keystroke_d	d	n/a
99.512	0.06	199024	keystroke_e	e	n/a
99.722	0.12	199444	keystroke_x	x	n/a
99.902	0.09	199804	keystroke_Key.space	Key.space	n/a
100.082	0.105	200164	keystroke_w	w	n/a
100.202	0.09	200404	keystroke_h	h	n/a
100.307	0.075	200614	keystroke_e	e	n/a
100.487	0.06	200974	keystroke_r	r	n/a
100.622	0.075	201244	keystroke_e	e	n/a
100.862	0.105	201724	keystroke_v	v	n/a
101.012	0.12	202024	keystroke_e	e	n/a
101.087	0.09	202174	keystroke_r	r	n/a
101.402	0.105	202804	keystroke_Key.enter	Key.enter	n/a
101.5115	8.382	203023	prompt	n/a	supporters examples hebrew buddy\n
102.077	0.12	204154	keystroke_s	s	n/a
102.317	0.075	204634	keystroke_u	u	n/a
102.467	0.0595	204934	keystroke_p	p	n/a
102.6165	0.09	205233	keystroke_p	p	n/a
102.6915	0.09	205383	keystroke_o	o	n/a
102.8415	0.12	205683	keystroke_r	r	n/a
102.9315	0.105	205863	keystroke_t	t	n/a
103.3215	0.105	206643	keystroke_e	e	n/a
103.396	0.1055	206792	keystroke_r	r	n/a
103.772	0.105	207544	keystroke_s	s	n/a
104.792	0.135	209584	keystroke_Key.space	Key.space	n/a
104.972	0.075	209944	keystroke_e	e	n/a
105.182	0.09	210364	keystroke_x	x	n/a
105.332	0.105	210664	keystroke_a	a	n/a
105.467	0.09	210934	keystroke_m	m	n/a
105.6615	0.1205	211323	keystroke_p	p	n/a
105.947	0.105	211894	keystroke_l	l	n/a
106.112	0.075	212224	keystroke_e	e	n/a
106.322	0.135	212644	keystroke_s	s	n/a
106.472	0.12	212944	keystroke_Key.space	Key.space	n/a
106.847	0.075	213694	keystroke_h	h	n/a
107.012	0.075	214024	keystroke_e	e	n/a
108.047	0.06	216094	keystroke_b	b	n/a
108.167	0.09	216334	keystroke_r	r	n/a
108.362	0.075	216724	keystroke_e	e	n/a
108.557	0.075	217114	keystroke_w	w	n/a
108.692	0.09	217384	keystroke_Key.space	Key.space	n/a
108.9015	0.09	217803	keystroke_b	b	n/a
109.0215	0.06	218043	keystroke_u	u	n/a
109.1265	0.045	218253	keystroke_d	d	n/a
109.2615	0.075	218523	keystroke_d	d	n/a
109.3815	0.075	218763	keystroke_y	y	n/a
109.802	0.09	219604	keystroke_Key.enter	Key.enter	n/a
109.896	7.962	219792	prompt	n/a	positive utility receipt specific\n
110.5065	0.075	221013	keystroke_p	p	n/a
110.7465	0.045	221493	keystroke_o	o	n/a
111.1215	0.105	222243	keystroke_s	s	n/a
111.2715	0.09	222543	keystroke_i	i	n/a
111.4515	0.09	222903	keystroke_t	t	n/a
111.5715	0.09	223143	keystroke_i	i	n/a
111.7065	0.105	223413	keystroke_v	v	n/a
111.8565	0.105	223713	keystroke_e	e	n/a
111.9765	0.135	223953	keystroke_Key.space	Key.space	n/a
112.1415	0.075	224283	keystroke_u	u	n/a
112.3515	0.075	224703	keystroke_t	t	n/a
112.4565	0.045	224913	keystroke_i	i	n/a
112.6365	0.105	225273	keystroke_l	l	n/a
112.7265	0.09	225453	keystroke_i	i	n/a
112.8315	0.1055	225663	keystroke_t	t	n/a
113.057	0.12	226114	keystroke_y	y	n/a
113.132	0.06	226264	keystroke_Key.space	Key.space	n/a
113.432	0.075	226864	keystroke_r	r	n/a
113.612	0.045	227224	keystroke_e	e	n/a
114.107	0.12	228214	keystroke_c	c	n/a
114.527	0.105	229054	keystroke_e	e	n/a
114.736	0.091	229472	keystroke_i	i	n/a
114.947	0.075	229894	keystroke_p	p	n/a
115.082	0.105	230164	keystroke_t	t	n/a
115.6065	0.06	231213	keystroke_Key.space	Key.space	n/a
115.862	0.104	231724	keystroke_s	s	n/a
116.0415	0.0905	232083	keystroke_p	p	n/a
116.371	0.075	232742	keystroke_e	e	n/a
116.836	0.1205	233672	keystroke_c	c	n/a
116.9715	0.0745	233943	keystroke_i	i	n/a
117.1365	0.1045	234273	keystroke_f	f	n/a
117.287	0.0445	234574	keystroke_i	i	n/a
117.376	0.12	234752	keystroke_c	c	n/a
117.782	0.075	235564	keystroke_Key.enter	Key.enter	n/a
117.8615	6.8815	235723	prompt	n/a	consequence woods highlighted artist\n
118.457	0.12	236914	keystroke_c	c	n/a
118.667	0.165	237334	keystroke_o	o	n/a
118.787	0.075	237574	keystroke_n	n	n/a
118.877	0.15	237754	keystroke_s	s	n/a
119.012	0.09	238024	keystroke_e	e	n/a
119.312	0.09	238624	keystroke_q	q	n/a
119.417	0.105	238834	keystroke_u	u	n/a
119.507	0.06	239014	keystroke_e	e	n/a
119.7315	0.03	239463	keystroke_n	n	n/a
119.8215	0.12	239643	keystroke_c	c	n/a
119.9715	0.075	239943	keystroke_e	e	n/a
120.0765	0.105	240153	keystroke_Key.space	Key.space	n/a
120.3915	0.06	240783	keystroke_w	w	n/a
120.5115	0.045	241023	keystroke_o	o	n/a
120.6615	0.09	241323	keystroke_o	o	n/a
120.7665	0.105	241533	keystroke_d	d	n/a
120.9465	0.075	241893	keystroke_s	s	n/a
121.0665	0.075	242133	keystroke_Key.space	Key.space	n/a
121.2165	0.075	242433	keystroke_h	h	n/a
121.3515	0.09	242703	keystroke_i	i	n/a
121.4565	0.1205	242913	keystroke_g	g	n/a
121.5315	0.0755	243063	keystroke_h	h	n/a
121.698	0.119	243396	keystroke_l	l	n/a
121.802	0.135	243604	keystroke_i	i	n/a
121.982	0.09	243964	keystroke_g	g	n/a
122.222	0.075	244444	keystroke_h	h	n/a
122.282	0.135	244564	keystroke_t	t	n/a
122.6115	0.09	245223	keystroke_e	e	n/a
122.8065	0.105	245613	keystroke_d	d	n/a
122.8965	0.09	245793	keystroke_Key.space	Key.space	n/a
123.1065	0.015	246213	keystroke_s	s	n/a
123.5565	0.0455	247113	keystroke_Key.backspace	Key.backspace	n/a
123.587	0.09	247174	keystroke_a	a	n/a
123.767	0.075	247534	keystroke_r	r	n/a
123.9615	0.09	247923	keystroke_t	t	n/a
124.0815	0.09	248163	keystroke_i	i	n/a
124.2615	0.075	248523	keystroke_s	s	n/a
124.4565	0.06	248913	keystroke_t	t	n/a
124.6815	0.06	249363	keystroke_Key.enter	Key.enter	n/a
124.746	5.022	249492	prompt	n/a	kids studying classics compute\n
125.432	0.06	250864	keystroke_k	k	n/a
125.567	0.09	251134	keystroke_i	i	n/a
125.642	0.09	251284	keystroke_d	d	n/a
125.792	0.1045	251584	keystroke_s	s	n/a
125.9265	0.135	251853	keystroke_Key.space	Key.space	n/a
126.0465	0.075	252093	keystroke_s	s	n/a
126.2265	0.0905	252453	keystroke_t	t	n/a
126.302	0.06	252604	keystroke_u	u	n/a
126.4515	0.105	252903	keystroke_d	d	n/a
126.5715	0.09	253143	keystroke_y	y	n/a
126.7815	0.12	253563	keystroke_i	i	n/a
126.9765	0.075	253953	keystroke_n	n	n/a
127.1565	0.09	254313	keystroke_g	g	n/a
127.2615	0.09	254523	keystroke_Key.space	Key.space	n/a
127.3825	0.074	254765	keystroke_c	c	n/a
127.4865	0.09	254973	keystroke_l	l	n/a
127.5465	0.075	255093	keystroke_a	a	n/a
127.7425	0.044	255485	keystroke_s	s	n/a
127.8615	0.075	255723	keystroke_s	s	n/a
127.9375	0.104	255875	keystroke_i	i	n/a
128.1765	0.105	256353	keystroke_c	c	n/a
128.3265	0.105	256653	keystroke_s	s	n/a
128.4765	0.075	256953	keystroke_Key.space	Key.space	n/a
128.6115	0.135	257223	keystroke_c	c	n/a
128.7615	0.09	257523	keystroke_o	o	n/a
128.8365	0.06	257673	keystroke_m	m	n/a
128.9865	0.075	257973	keystroke_p	p	n/a
129.1965	0.06	258393	keystroke_u	u	n/a
129.3165	0.06	258633	keystroke_t	t	n/a
129.4515	0.105	258903	keystroke_e	e	n/a
129.677	0.09	259354	keystroke_Key.enter	Key.enter	n/a
129.7715	5.6065	259543	prompt	n/a	medal having tamil qatar\n
130.2915	0.105	260583	keystroke_m	m	n/a
130.3665	0.075	260733	keystroke_e	e	n/a
130.5615	0.075	261123	keystroke_d	d	n/a
130.757	0.09	261514	keystroke_a	a	n/a
130.907	0.075	261814	keystroke_l	l	n/a
131.027	0.09	262054	keystroke_Key.space	Key.space	n/a
131.372	0.075	262744	keystroke_h	h	n/a
131.448	0.074	262896	keystroke_a	a	n/a
131.612	0.135	263224	keystroke_v	v	n/a
131.762	0.12	263524	keystroke_i	i	n/a
131.837	0.09	263674	keystroke_n	n	n/a
131.957	0.1195	263914	keystroke_g	g	n/a
132.1515	0.075	264303	keystroke_Key.space	Key.space	n/a
132.4965	0.075	264993	keystroke_t	t	n/a
132.7215	0.105	265443	keystroke_a	a	n/a
132.8115	0.09	265623	keystroke_m	m	n/a
132.9615	0.06	265923	keystroke_i	i	n/a
133.1565	0.135	266313	keystroke_l	l	n/a
133.3065	0.09	266613	keystroke_Key.space	Key.space	n/a
133.7265	0.075	267453	keystroke_q	q	n/a
133.9365	0.105	267873	keystroke_a	a	n/a
134.2515	0.09	268503	keystroke_r	r	n/a
134.6715	0.06	269343	keystroke_Key.backspace	Key.backspace	n/a
134.7015	0.09	269403	keystroke_t	t	n/a
134.8965	0.135	269793	keystroke_a	a	n/a
135.0915	0.09	270183	keystroke_r	r	n/a
135.2565	0.12	270513	keystroke_Key.enter	Key.enter	n/a
135.3825	6.326	270765	prompt	n/a	herald insider played christopher\n
136.0215	0.0755	272043	keystroke_h	h	n/a
136.112	0.12	272224	keystroke_a	a	n/a
136.592	0.06	273184	keystroke_r	r	n/a
136.997	0.015	273994	keystroke_Key.backspace	Key.backspace	n/a
137.117	0.06	274234	keystroke_Key.backspace	Key.backspace	n/a
137.162	0.09	274324	keystroke_e	e	n/a
137.237	0.075	274474	keystroke_r	r	n/a
137.447	0.09	274894	keystroke_a	a	n/a
137.5965	0.12	275193	keystroke_l	l	n/a
137.7465	0.09	275493	keystroke_d	d	n/a
137.8515	0.075	275703	keystroke_Key.space	Key.space	n/a
138.0315	0.09	276063	keystroke_i	i	n/a
138.0615	0.12	276123	keystroke_n	n	n/a
138.2265	0.105	276453	keystroke_s	s	n/a
138.3165	0.105	276633	keystroke_i	i	n/a
138.572	0.0745	277144	keystroke_d	d	n/a
138.782	0.09	277564	keystroke_e	e	n/a
138.827	0.09	277654	keystroke_r	r	n/a
138.962	0.075	277924	keystroke_Key.space	Key.space	n/a
139.202	0.135	278404	keystroke_p	p	n/a
139.292	0.09	278584	keystroke_l	l	n/a
139.397	0.105	278794	keystroke_a	a	n/a
139.592	0.0895	279184	keystroke_y	y	n/a
139.6975	0.074	279395	keystroke_e	e	n/a
139.8765	0.075	279753	keystroke_d	d	n/a
139.9365	0.075	279873	keystroke_Key.space	Key.space	n/a
140.1475	0.074	280295	keystroke_c	c	n/a
140.2365	0.075	280473	keystroke_h	h	n/a
140.3565	0.06	280713	keystroke_r	r	n/a
140.4465	0.09	280893	keystroke_i	i	n/a
140.5515	0.075	281103	keystroke_s	s	n/a
140.7465	0.075	281493	keystroke_t	t	n/a
140.8815	0.09	281763	keystroke_o	o	n/a
141.0325	0.074	282065	keystroke_p	p	n/a
141.2565	0.075	282513	keystroke_h	h	n/a
141.3325	0.1045	282665	keystroke_e	e	n/a
141.4065	0.0605	282813	keystroke_r	r	n/a
141.6315	0.075	283263	keystroke_Key.enter	Key.enter	n/a
141.7165	5.6465	283433	prompt	n/a	major andreas congress alfred\n
142.3215	0.075	284643	keystroke_m	m	n/a
142.4265	0.09	284853	keystroke_a	a	n/a
142.5465	0.09	285093	keystroke_j	j	n/a
142.7115	0.075	285423	keystroke_o	o	n/a
142.922	0.135	285844	keystroke_r	r	n/a
143.072	0.06	286144	keystroke_Key.space	Key.space	n/a
143.357	0.105	286714	keystroke_a	a	n/a
143.522	0.045	287044	keystroke_n	n	n/a
143.582	0.075	287164	keystroke_d	d	n/a
143.822	0.09	287644	keystroke_r	r	n/a
144.002	0.06	288004	keystroke_e	e	n/a
144.137	0.09	288274	keystroke_a	a	n/a
144.347	0.075	288694	keystroke_s	s	n/a
144.437	0.09	288874	keystroke_Key.space	Key.space	n/a
144.6615	0.0895	289323	keystroke_c	c	n/a
144.7665	0.1195	289533	keystroke_o	o	n/a
144.8415	0.1055	289683	keystroke_n	n	n/a
145.082	0.0895	290164	keystroke_g	g	n/a
145.2915	0.045	290583	keystroke_r	r	n/a
145.4565	0.075	290913	keystroke_e	e	n/a
145.652	0.045	291304	keystroke_s	s	n/a
145.771	0.0455	291542	keystroke_s	s	n/a
145.8465	0.105	291693	keystroke_Key.space	Key.space	n/a
145.982	0.0445	291964	keystroke_a	a	n/a
146.0565	0.1055	292113	keystroke_l	l	n/a
146.206	0.12	292412	keystroke_f	f	n/a
146.431	0.09	292862	keystroke_r	r	n/a
146.596	0.091	293192	keystroke_e	e	n/a
147.062	0.075	294124	keystroke_d	d	n/a
147.287	0.075	294574	keystroke_Key.enter	Key.enter	n/a
147.368	6.58	294736	prompt	n/a	now acting discovery springer\n
148.0665	0.075	296133	keystroke_n	n	n/a
148.2015	0.106	296403	keystroke_o	o	n/a
148.3225	0.1045	296645	keystroke_w	w	n/a
148.472	0.075	296944	keystroke_Key.space	Key.space	n/a
148.622	0.06	297244	keystroke_a	a	n/a
148.817	0.075	297634	keystroke_c	c	n/a
149.102	0.015	298204	keystroke_t	t	n/a
149.372	0.075	298744	keystroke_i	i	n/a
149.627	0.09	299254	keystroke_n	n	n/a
149.9565	0.12	299913	keystroke_g	g	n/a
150.3465	0.105	300693	keystroke_Key.space	Key.space	n/a
150.6765	0.12	301353	keystroke_d	d	n/a
150.9315	0.075	301863	keystroke_i	i	n/a
151.217	0.075	302434	keystroke_s	s	n/a
151.427	0.09	302854	keystroke_c	c	n/a
151.547	0.0745	303094	keystroke_o	o	n/a
151.7565	0.075	303513	keystroke_v	v	n/a
151.9365	0.09	303873	keystroke_e	e	n/a
151.9965	0.09	303993	keystroke_r	r	n/a
152.1765	0.12	304353	keystroke_y	y	n/a
152.522	0.09	305044	keystroke_Key.space	Key.space	n/a
152.702	0.09	305404	keystroke_s	s	n/a
152.822	0.075	305644	keystroke_p	p	n/a
152.957	0.12	305914	keystroke_r	r	n/a
153.062	0.09	306124	keystroke_i	i	n/a
153.257	0.075	306514	keystroke_n	n	n/a
153.347	0.09	306694	keystroke_g	g	n/a
153.482	0.12	306964	keystroke_e	e	n/a
153.557	0.075	307114	keystroke_r	r	n/a
153.872	0.075	307744	keystroke_Key.enter	Key.enter	n/a
153.9515	8.1565	307903	prompt	n/a	which's ebony images competing\n
154.532	0.105	309064	keystroke_w	w	n/a
154.652	0.105	309304	keystroke_h	h	n/a
154.757	0.09	309514	keystroke_i	i	n/a
154.922	0.09	309844	keystroke_c	c	n/a
155.012	0.06	310024	keystroke_h	h	n/a
155.1925	0.104	310385	keystroke_'	'	n/a
155.3115	0.105	310623	keystroke_s	s	n/a
155.5665	0.09	311133	keystroke_Key.space	Key.space	n/a
155.7925	0.059	311585	keystroke_e	e	n/a
155.9115	0.06	311823	keystroke_b	b	n/a
156.0775	0.089	312155	keystroke_o	o	n/a
156.3765	0.09	312753	keystroke_n	n	n/a
156.6615	0.075	313323	keystroke_y	y	n/a
156.8415	0.091	313683	keystroke_Key.space	Key.space	n/a
159.4845	0.027	318969	keystroke_i	i	n/a
159.4965	0.075	318993	keystroke_m	m	n/a
159.6015	0.075	319203	keystroke_a	a	n/a
159.8565	0.105	319713	keystroke_g	g	n/a
160.0065	0.12	320013	keystroke_e	e	n/a
160.2315	0.12	320463	keystroke_s	s	n/a
160.3665	0.09	320733	keystroke_Key.space	Key.space	n/a
160.4865	0.12	320973	keystroke_c	c	n/a
160.5915	0.09	321183	keystroke_o	o	n/a
160.6665	0.075	321333	keystroke_m	m	n/a
160.8465	0.045	321693	keystroke_p	p	n/a
160.9065	0.075	321813	keystroke_e	e	n/a
161.1165	0.09	322233	keystroke_t	t	n/a
161.2215	0.03	322443	keystroke_i	i	n/a
161.5065	0.09	323013	keystroke_n	n	n/a
161.6415	0.075	323283	keystroke_g	g	n/a
162.032	0.075	324064	keystroke_Key.enter	Key.enter	n/a
162.1105	9.8075	324221	prompt	n/a	cumulative morning behind walnut\n
162.737	0.12	325474	keystroke_c	c	n/a
162.917	0.075	325834	keystroke_u	u	n/a
163.2165	0.075	326433	keystroke_m	m	n/a
163.442	0.06	326884	keystroke_u	u	n/a
163.8015	0.075	327603	keystroke_l	l	n/a
163.9515	0.105	327903	keystroke_a	a	n/a
164.1915	0.075	328383	keystroke_t	t	n/a
164.3265	0.06	328653	keystroke_i	i	n/a
164.4615	0.135	328923	keystroke_v	v	n/a
164.5815	0.075	329163	keystroke_e	e	n/a
164.6715	0.1055	329343	keystroke_Key.space	Key.space	n/a
164.822	0.09	329644	keystroke_m	m	n/a
165.137	0.015	330274	keystroke_o	o	n/a
165.167	0.015	330334	keystroke_r	r	n/a
165.632	0.12	331264	keystroke_i	i	n/a
165.737	0.12	331474	keystroke_n	n	n/a
165.842	0.075	331684	keystroke_g	g	n/a
165.932	0.09	331864	keystroke_Key.space	Key.space	n/a
166.082	0.091	332164	keystroke_b	b	n/a
166.202	0.105	332404	keystroke_e	e	n/a
166.322	0.075	332644	keystroke_h	h	n/a
166.562	0.06	333124	keystroke_i	i	n/a
166.592	0.12	333184	keystroke_n	n	n/a
167.0265	0.0605	334053	keystroke_Key.backspace	Key.backspace	n/a
167.177	0.045	334354	keystroke_Key.backspace	Key.backspace	n/a
167.3415	0.06	334683	keystroke_Key.backspace	Key.backspace	n/a
167.522	0.045	335044	keystroke_Key.backspace	Key.backspace	n/a
167.672	0.06	335344	keystroke_Key.backspace	Key.backspace	n/a
167.837	0.075	335674	keystroke_Key.backspace	Key.backspace	n/a
168.017	0.06	336034	keystroke_Key.backspace	Key.backspace	n/a
168.182	0.06	336364	keystroke_Key.backspace	Key.backspace	n/a
168.332	0.075	336664	keystroke_Key.backspace	Key.backspace	n/a
168.797	0.0595	337594	keystroke_n	n	n/a
169.0065	0.12	338013	keystroke_i	i	n/a
169.0675	0.119	338135	keystroke_n	n	n/a
169.3815	0.105	338763	keystroke_g	g	n/a
169.5015	0.105	339003	keystroke_Key.space	Key.space	n/a
169.891	0.075	339782	keystroke_b	b	n/a
169.996	0.106	339992	keystroke_e	e	n/a
170.146	0.0605	340292	keystroke_h	h	n/a
170.3265	0.135	340653	keystroke_i	i	n/a
170.4165	0.09	340833	keystroke_n	n	n/a
170.5965	0.105	341193	keystroke_d	d	n/a
170.7015	0.09	341403	keystroke_Key.space	Key.space	n/a
170.8665	0.09	341733	keystroke_w	w	n/a
171.0615	0.09	342123	keystroke_a	a	n/a
171.0915	0.09	342183	keystroke_l	l	n/a
171.2865	0.075	342573	keystroke_n	n	n/a
171.5115	0.0755	343023	keystroke_u	u	n/a
171.617	0.09	343234	keystroke_t	t	n/a
171.872	0.045	343744	keystroke_Key.enter	Key.enter	n/a
171.9225	7.7355	343845	prompt	n/a	where're viewer packets stakeholders\n
172.457	0.09	344914	keystroke_w	w	n/a
172.562	0.09	345124	keystroke_h	h	n/a
172.667	0.105	345334	keystroke_e	e	n/a
172.862	0.06	345724	keystroke_r	r	n/a
173.012	0.09	346024	keystroke_e	e	n/a
173.207	0.105	346414	keystroke_'	'	n/a
173.6115	0.06	347223	keystroke_r	r	n/a
173.7915	0.075	347583	keystroke_e	e	n/a
173.9415	0.06	347883	keystroke_Key.space	Key.space	n/a
174.2715	0.09	348543	keystroke_v	v	n/a
174.4665	0.075	348933	keystroke_i	i	n/a
174.5865	0.045	349173	keystroke_e	e	n/a
174.7665	0.06	349533	keystroke_w	w	n/a
174.9615	0.09	349923	keystroke_e	e	n/a
175.2165	0.09	350433	keystroke_r	r	n/a
175.3965	0.105	350793	keystroke_Key.space	Key.space	n/a
175.697	0.09	351394	keystroke_p	p	n/a
175.772	0.075	351544	keystroke_a	a	n/a
175.982	0.09	351964	keystroke_c	c	n/a
176.057	0.105	352114	keystroke_k	k	n/a
176.177	0.1045	352354	keystroke_e	e	n/a
176.3565	0.09	352713	keystroke_t	t	n/a
176.5815	0.105	353163	keystroke_s	s	n/a
176.7315	0.06	353463	keystroke_Key.space	Key.space	n/a
176.8365	0.075	353673	keystroke_s	s	n/a
177.0315	0.045	354063	keystroke_t	t	n/a
177.1965	0.09	354393	keystroke_a	a	n/a
177.3315	0.075	354663	keystroke_k	k	n/a
177.3765	0.075	354753	keystroke_e	e	n/a
177.6615	0.06	355323	keystroke_h	h	n/a
177.781	0.06	355562	keystroke_o	o	n/a
177.976	0.061	355952	keystroke_l	l	n/a
178.021	0.0605	356042	keystroke_d	d	n/a
178.1865	0.075	356373	keystroke_s	s	n/a
178.591	0.075	357182	keystroke_Key.backspace	Key.backspace	n/a
178.681	0.106	357362	keystroke_e	e	n/a
178.741	0.0755	357482	keystroke_r	r	n/a
178.966	0.075	357932	keystroke_s	s	n/a
179.5815	0.075	359163	keystroke_Key.enter	Key.enter	n/a
179.662	7.886	359324	prompt	n/a	highlighted becoming awarded engaged\n
180.662	0.089	361324	keystroke_h	h	n/a
180.871	0.076	361742	keystroke_i	i	n/a
181.037	0.119	362074	keystroke_g	g	n/a
181.111	0.075	362222	keystroke_h	h	n/a
181.351	0.09	362702	keystroke_l	l	n/a
181.592	0.059	363184	keystroke_i	i	n/a
181.711	0.12	363422	keystroke_g	g	n/a
181.816	0.075	363632	keystroke_h	h	n/a
181.922	0.089	363844	keystroke_t	t	n/a
182.101	0.091	364202	keystroke_e	e	n/a
182.3265	0.1055	364653	keystroke_d	d	n/a
182.446	0.09	364892	keystroke_Key.space	Key.space	n/a
182.7765	0.045	365553	keystroke_b	b	n/a
182.9565	0.06	365913	keystroke_e	e	n/a
183.3465	0.105	366693	keystroke_c	c	n/a
183.5115	0.12	367023	keystroke_o	o	n/a
183.6015	0.09	367203	keystroke_m	m	n/a
183.827	0.075	367654	keystroke_i	i	n/a
183.872	0.075	367744	keystroke_n	n	n/a
183.962	0.12	367924	keystroke_g	g	n/a
184.127	0.075	368254	keystroke_Key.space	Key.space	n/a
184.277	0.15	368554	keystroke_a	a	n/a
184.457	0.105	368914	keystroke_w	w	n/a
184.607	0.12	369214	keystroke_a	a	n/a
184.832	0.09	369664	keystroke_r	r	n/a
185.191	0.061	370382	keystroke_d	d	n/a
185.401	0.06	370802	keystroke_e	e	n/a
185.5815	0.0755	371163	keystroke_d	d	n/a
185.731	0.12	371462	keystroke_Key.space	Key.space	n/a
185.926	0.12	371852	keystroke_e	e	n/a
186.121	0.105	372242	keystroke_n	n	n/a
186.256	0.121	372512	keystroke_g	g	n/a
186.481	0.105	372962	keystroke_a	a	n/a
186.706	0.121	373412	keystroke_g	g	n/a
186.932	0.074	373864	keystroke_e	e	n/a
187.141	0.075	374282	keystroke_d	d	n/a
187.4865	0.06	374973	keystroke_Key.enter	Key.enter	n/a
187.551	7.977	375102	prompt	n/a	version sufficient physical dirty\n
189.287	0.135	378574	keystroke_v	v	n/a
189.452	0.09	378904	keystroke_e	e	n/a
189.512	0.06	379024	keystroke_r	r	n/a
189.707	0.09	379414	keystroke_s	s	n/a
189.902	0.12	379804	keystroke_i	i	n/a
190.007	0.12	380014	keystroke_o	o	n/a
190.082	0.09	380164	keystroke_n	n	n/a
190.412	0.09	380824	keystroke_Key.space	Key.space	n/a
190.562	0.0895	381124	keystroke_s	s	n/a
190.6665	0.075	381333	keystroke_u	u	n/a
190.8615	0.015	381723	keystroke_f	f	n/a
190.9815	0.075	381963	keystroke_f	f	n/a
191.1015	0.075	382203	keystroke_i	i	n/a
191.2365	0.09	382473	keystroke_c	c	n/a
191.3415	0.075	382683	keystroke_i	i	n/a
191.5365	0.0905	383073	keystroke_e	e	n/a
191.702	0.09	383404	keystroke_n	n	n/a
191.837	0.09	383674	keystroke_t	t	n/a
191.9865	0.105	383973	keystroke_Key.space	Key.space	n/a
192.1665	0.09	384333	keystroke_p	p	n/a
192.3465	0.075	384693	keystroke_h	h	n/a
192.5565	0.0605	385113	keystroke_y	y	n/a
192.707	0.12	385414	keystroke_s	s	n/a
192.887	0.09	385774	keystroke_i	i	n/a
193.232	0.105	386464	keystroke_a	a	n/a
193.6215	0.045	387243	keystroke_Key.backspace	Key.backspace	n/a
193.6815	0.06	387363	keystroke_c	c	n/a
193.8465	0.12	387693	keystroke_a	a	n/a
193.9965	0.105	387993	keystroke_l	l	n/a
194.0865	0.075	388173	keystroke_Key.space	Key.space	n/a
194.2365	0.09	388473	keystroke_d	d	n/a
194.3415	0.105	388683	keystroke_i	i	n/a
194.4615	0.09	388923	keystroke_r	r	n/a
194.7165	0.12	389433	keystroke_t	t	n/a
194.9415	0.045	389883	keystroke_y	y	n/a
195.4215	0.105	390843	keystroke_Key.enter	Key.enter	n/a
195.534	9.129	391068	prompt	n/a	developed champions historic haven't\n
196.172	0.09	392344	keystroke_d	d	n/a
196.367	0.075	392734	keystroke_e	e	n/a
196.532	0.074	393064	keystroke_p	p	n/a
196.636	0.075	393272	keystroke_e	e	n/a
197.776	0.1055	395552	keystroke_l	l	n/a
198.4065	0.045	396813	keystroke_Key.backspace	Key.backspace	n/a
198.5265	0.06	397053	keystroke_Key.backspace	Key.backspace	n/a
198.6465	0.105	397293	keystroke_Key.backspace	Key.backspace	n/a
198.797	0.09	397594	keystroke_v	v	n/a
198.977	0.09	397954	keystroke_e	e	n/a
199.112	0.045	398224	keystroke_l	l	n/a
199.307	0.06	398614	keystroke_o	o	n/a
199.472	0.075	398944	keystroke_p	p	n/a
199.577	0.06	399154	keystroke_e	e	n/a
199.787	0.09	399574	keystroke_d	d	n/a
199.892	0.06	399784	keystroke_Key.space	Key.space	n/a
200.027	0.105	400054	keystroke_c	c	n/a
200.177	0.015	400354	keystroke_h	h	n/a
200.252	0.09	400504	keystroke_a	a	n/a
200.357	0.075	400714	keystroke_m	m	n/a
200.807	0.03	401614	keystroke_p	p	n/a
201.062	0.135	402124	keystroke_i	i	n/a
201.227	0.12	402454	keystroke_o	o	n/a
201.272	0.12	402544	keystroke_n	n	n/a
201.437	0.12	402874	keystroke_s	s	n/a
201.8265	0.06	403653	keystroke_Key.space	Key.space	n/a
202.1265	0.06	404253	keystroke_h	h	n/a
202.2465	0.09	404493	keystroke_i	i	n/a
202.3515	0.1055	404703	keystroke_s	s	n/a
202.606	0.076	405212	keystroke_t	t	n/a
202.697	0.075	405394	keystroke_o	o	n/a
202.847	0.075	405694	keystroke_r	r	n/a
202.937	0.09	405874	keystroke_y	y	n/a
203.042	0.105	406084	keystroke_Key.space	Key.space	n/a
203.207	0.09	406414	keystroke_h	h	n/a
203.312	0.075	406624	keystroke_a	a	n/a
203.492	0.1045	406984	keystroke_v	v	n/a
203.7015	0.12	407403	keystroke_e	e	n/a
203.8365	0.12	407673	keystroke_n	n	n/a
204.0165	0.105	408033	keystroke_'	'	n/a
204.1365	0.075	408273	keystroke_t	t	n/a
204.5865	0.075	409173	keystroke_Key.enter	Key.enter	n/a
204.666	8.097	409332	prompt	n/a	wheels layers market habitat\n
205.2465	0.09	410493	keystroke_w	w	n/a
205.3215	0.09	410643	keystroke_h	h	n/a
205.4265	0.075	410853	keystroke_e	e	n/a
205.712	0.06	411424	keystroke_l	l	n/a
205.862	0.06	411724	keystroke_l	l	n/a
206.342	0.045	412684	keystroke_Key.backspace	Key.backspace	n/a
206.477	0.075	412954	keystroke_Key.backspace	Key.backspace	n/a
206.567	0.06	413134	keystroke_e	e	n/a
206.687	0.06	413374	keystroke_l	l	n/a
206.927	0.045	413854	keystroke_l	l	n/a
207.286	0.045	414572	keystroke_Key.backspace	Key.backspace	n/a
207.497	0.089	414994	keystroke_Key.space	Key.space	n/a
207.901	0.105	415802	keystroke_l	l	n/a
208.036	0.106	416072	keystroke_a	a	n/a
208.397	0.03	416794	keystroke_t	t	n/a
208.756	0.015	417512	keystroke_Key.backspace	Key.backspace	n/a
208.9665	0.105	417933	keystroke_y	y	n/a
209.1165	0.12	418233	keystroke_e	e	n/a
209.1915	0.075	418383	keystroke_r	r	n/a
209.4165	0.105	418833	keystroke_s	s	n/a
209.5965	0.09	419193	keystroke_Key.space	Key.space	n/a
209.9415	0.135	419883	keystroke_m	m	n/a
210.0165	0.09	420033	keystroke_a	a	n/a
210.2115	0.06	420423	keystroke_r	r	n/a
210.3465	0.105	420693	keystroke_k	k	n/a
210.4365	0.09	420873	keystroke_e	e	n/a
210.6165	0.1055	421233	keystroke_t	t	n/a
210.857	0.09	421714	keystroke_Key.space	Key.space	n/a
211.157	0.06	422314	keystroke_h	h	n/a
211.232	0.09	422464	keystroke_a	a	n/a
211.6515	0.105	423303	keystroke_b	b	n/a
211.8465	0.075	423693	keystroke_i	i	n/a
211.9965	0.09	423993	keystroke_t	t	n/a
212.2365	0.135	424473	keystroke_a	a	n/a
212.462	0.09	424924	keystroke_t	t	n/a
212.6865	0.075	425373	keystroke_Key.enter	Key.enter	n/a
212.767	7.226	425534	prompt	n/a	exceed drainage lose olympic\n
213.7215	0.075	427443	keystroke_e	e	n/a
214.0065	0.12	428013	keystroke_x	x	n/a
214.2315	0.105	428463	keystroke_c	c	n/a
214.4565	0.06	428913	keystroke_e	e	n/a
214.6815	0.105	429363	keystroke_e	e	n/a
214.9665	0.075	429933	keystroke_d	d	n/a
215.0565	0.12	430113	keystroke_Key.space	Key.space	n/a
215.2515	0.09	430503	keystroke_d	d	n/a
215.4165	0.075	430833	keystroke_r	r	n/a
215.6115	0.135	431223	keystroke_a	a	n/a
215.7165	0.075	431433	keystroke_i	i	n/a
216.017	0.045	432034	keystroke_n	n	n/a
216.212	0.12	432424	keystroke_a	a	n/a
216.482	0.1195	432964	keystroke_g	g	n/a
216.6165	0.105	433233	keystroke_e	e	n/a
216.7365	0.105	433473	keystroke_Key.space	Key.space	n/a
216.8715	0.075	433743	keystroke_l	l	n/a
217.0215	0.09	434043	keystroke_o	o	n/a
217.1415	0.135	434283	keystroke_s	s	n/a
217.2465	0.09	434493	keystroke_e	e	n/a
217.3515	0.09	434703	keystroke_Key.space	Key.space	n/a
217.5315	0.075	435063	keystroke_o	o	n/a
217.9215	0.105	435843	keystroke_l	l	n/a
218.2815	0.015	436563	keystroke_y	y	n/a
218.8065	0.075	437613	keystroke_m	m	n/a
218.9865	0.075	437973	keystroke_p	p	n/a
219.1815	0.09	438363	keystroke_i	i	n/a
219.3315	0.105	438663	keystroke_c	c	n/a
219.887	0.104	439774	keystroke_Key.enter	Key.enter	n/a
219.996	15.4325	439992	prompt	n/a	breaks road something's female\n
229.8345	0.013	459669	keystroke_b	b	n/a
229.8925	0.0745	459785	keystroke_r	r	n/a
230.057	0.075	460114	keystroke_e	e	n/a
230.5215	0.12	461043	keystroke_a	a	n/a
230.6565	0.105	461313	keystroke_k	k	n/a
230.7765	0.105	461553	keystroke_s	s	n/a
230.8825	0.089	461765	keystroke_Key.space	Key.space	n/a
231.137	0.12	462274	keystroke_r	r	n/a
231.272	0.06	462544	keystroke_o	o	n/a
231.362	0.075	462724	keystroke_a	a	n/a
231.527	0.105	463054	keystroke_d	d	n/a
231.662	0.09	463324	keystroke_Key.space	Key.space	n/a
232.007	0.105	464014	keystroke_s	s	n/a
232.097	0.12	464194	keystroke_o	o	n/a
232.247	0.105	464494	keystroke_m	m	n/a
232.367	0.06	464734	keystroke_e	e	n/a
232.577	0.045	465154	keystroke_t	t	n/a
232.607	0.075	465214	keystroke_h	h	n/a
232.727	0.135	465454	keystroke_i	i	n/a
232.817	0.105	465634	keystroke_n	n	n/a
232.907	0.09	465814	keystroke_g	g	n/a
233.072	0.105	466144	keystroke_'	'	n/a
233.222	0.105	466444	keystroke_s	s	n/a
233.417	0.0905	466834	keystroke_Key.space	Key.space	n/a
233.732	0.09	467464	keystroke_f	f	n/a
233.927	0.075	467854	keystroke_e	e	n/a
234.003	0.074	468006	keystroke_m	m	n/a
234.167	0.09	468334	keystroke_a	a	n/a
234.302	0.03	468604	keystroke_l	l	n/a
234.452	0.045	468904	keystroke_t	t	n/a
234.542	0.105	469084	keystroke_e	e	n/a
234.917	0.045	469834	keystroke_Key.backspace	Key.backspace	n/a
235.037	0.075	470074	keystroke_Key.backspace	Key.backspace	n/a
235.082	0.09	470164	keystroke_e	e	n/a
235.382	0.045	470764	keystroke_Key.enter	Key.enter	n/a
235.431	5.9375	470862	prompt	n/a	apple statutory received you\n
236.1765	0.105	472353	keystroke_a	a	n/a
236.4915	0.06	472983	keystroke_p	p	n/a
236.6415	0.0605	473283	keystroke_p	p	n/a
236.822	0.09	473644	keystroke_l	l	n/a
236.927	0.09	473854	keystroke_e	e	n/a
237.062	0.105	474124	keystroke_Key.space	Key.space	n/a
237.257	0.09	474514	keystroke_s	s	n/a
237.557	0.0755	475114	keystroke_t	t	n/a
237.737	0.105	475474	keystroke_a	a	n/a
237.977	0.12	475954	keystroke_t	t	n/a
238.112	0.075	476224	keystroke_u	u	n/a
238.3675	0.12	476735	keystroke_t	t	n/a
238.5775	0.075	477155	keystroke_o	o	n/a
238.6975	0.12	477395	keystroke_r	r	n/a
238.9375	0.105	477875	keystroke_y	y	n/a
239.0275	0.105	478055	keystroke_Key.space	Key.space	n/a
239.2075	0.075	478415	keystroke_r	r	n/a
239.3875	0.06	478775	keystroke_e	e	n/a
239.5675	0.0895	479135	keystroke_c	c	n/a
239.717	0.09	479434	keystroke_e	e	n/a
239.837	0.09	479674	keystroke_i	i	n/a
239.957	0.075	479914	keystroke_v	v	n/a
240.107	0.075	480214	keystroke_e	e	n/a
240.317	0.09	480634	keystroke_d	d	n/a
240.512	0.06	481024	keystroke_Key.space	Key.space	n/a
240.842	0.075	481684	keystroke_y	y	n/a
240.932	0.09	481864	keystroke_o	o	n/a
240.992	0.075	481984	keystroke_u	u	n/a
241.277	0.09	482554	keystroke_Key.enter	Key.enter	n/a
241.3705	9.328	482741	prompt	n/a	america treating electoral managers\n
241.967	0.12	483934	keystroke_a	a	n/a
242.132	0.105	484264	keystroke_m	m	n/a
242.4765	0.09	484953	keystroke_e	e	n/a
242.5675	0.059	485135	keystroke_r	r	n/a
243.0165	0.045	486033	keystroke_i	i	n/a
243.0915	0.075	486183	keystroke_c	c	n/a
243.2725	0.075	486545	keystroke_a	a	n/a
243.7815	0.105	487563	keystroke_Key.space	Key.space	n/a
244.2465	0.09	488493	keystroke_t	t	n/a
244.4415	0.06	488883	keystroke_r	r	n/a
244.6215	0.09	489243	keystroke_e	e	n/a
244.8615	0.121	489723	keystroke_a	a	n/a
245.222	0.105	490444	keystroke_t	t	n/a
245.312	0.105	490624	keystroke_i	i	n/a
245.387	0.105	490774	keystroke_n	n	n/a
245.477	0.09	490954	keystroke_g	g	n/a
245.582	0.075	491164	keystroke_Key.space	Key.space	n/a
245.807	0.06	491614	keystroke_a	a	n/a
245.972	0.045	491944	keystroke_l	l	n/a
246.272	0.03	492544	keystroke_Key.backspace	Key.backspace	n/a
246.5265	0.09	493053	keystroke_Key.backspace	Key.backspace	n/a
246.7215	0.075	493443	keystroke_e	e	n/a
246.9615	0.09	493923	keystroke_l	l	n/a
247.0665	0.045	494133	keystroke_e	e	n/a
247.2915	0.075	494583	keystroke_c	c	n/a
247.5165	0.075	495033	keystroke_t	t	n/a
247.6065	0.09	495213	keystroke_o	o	n/a
247.7115	0.0905	495423	keystroke_r	r	n/a
247.892	0.06	495784	keystroke_y	y	n/a
248.252	0.075	496504	keystroke_Key.backspace	Key.backspace	n/a
248.552	0.105	497104	keystroke_a	a	n/a
248.732	0.075	497464	keystroke_l	l	n/a
248.882	0.09	497764	keystroke_Key.space	Key.space	n/a
249.542	0.06	499084	keystroke_m	m	n/a
249.617	0.09	499234	keystroke_a	a	n/a
249.722	0.075	499444	keystroke_n	n	n/a
249.827	0.075	499654	keystroke_a	a	n/a
249.932	0.075	499864	keystroke_g	g	n/a
250.082	0.09	500164	keystroke_e	e	n/a
250.157	0.075	500314	keystroke_r	r	n/a
250.382	0.105	500764	keystroke_s	s	n/a
250.607	0.09	501214	keystroke_Key.enter	Key.enter	n/a
250.7015	5.247	501403	prompt	n/a	uncle moon around entries\n
251.417	0.105	502834	keystroke_u	u	n/a
251.567	0.105	503134	keystroke_n	n	n/a
251.747	0.18	503494	keystroke_c	c	n/a
251.897	0.06	503794	keystroke_l	l	n/a
252.227	0.105	504454	keystroke_e	e	n/a
252.4215	0.06	504843	keystroke_Key.space	Key.space	n/a
252.5865	0.06	505173	keystroke_m	m	n/a
252.7215	0.0455	505443	keystroke_o	o	n/a
252.872	0.12	505744	keystroke_o	o	n/a
252.977	0.075	505954	keystroke_n	n	n/a
253.307	0.0745	506614	keystroke_Key.space	Key.space	n/a
253.4265	0.09	506853	keystroke_a	a	n/a
253.637	0.09	507274	keystroke_r	r	n/a
253.757	0.09	507514	keystroke_o	o	n/a
254.072	0.045	508144	keystroke_u	u	n/a
254.312	0.06	508624	keystroke_n	n	n/a
254.387	0.105	508774	keystroke_d	d	n/a
254.537	0.09	509074	keystroke_Key.space	Key.space	n/a
254.687	0.12	509374	keystroke_e	e	n/a
254.792	0.105	509584	keystroke_n	n	n/a
254.942	0.105	509884	keystroke_t	t	n/a
255.152	0.09	510304	keystroke_r	r	n/a
255.257	0.12	510514	keystroke_i	i	n/a
255.392	0.06	510784	keystroke_e	e	n/a
255.602	0.09	511204	keystroke_s	s	n/a
255.857	0.09	511714	keystroke_Key.enter	Key.enter	n/a
255.956	9.3375	511912	prompt	n/a	catalogue developing stevens scenic\n
257.342	0.1045	514684	keystroke_c	c	n/a
257.5065	0.1055	515013	keystroke_a	a	n/a
257.732	0.0745	515464	keystroke_t	t	n/a
257.9415	0.136	515883	keystroke_a	a	n/a
258.1215	0.1055	516243	keystroke_l	l	n/a
258.3915	0.0905	516783	keystroke_o	o	n/a
258.557	0.06	517114	keystroke_g	g	n/a
258.692	0.075	517384	keystroke_u	u	n/a
258.857	0.09	517714	keystroke_e	e	n/a
259.007	0.09	518014	keystroke_Key.space	Key.space	n/a
259.337	0.06	518674	keystroke_d	d	n/a
259.547	0.06	519094	keystroke_e	e	n/a
259.7565	0.105	519513	keystroke_l	l	n/a
260.372	0.09	520744	keystroke_Key.backspace	Key.backspace	n/a
260.462	0.105	520924	keystroke_v	v	n/a
260.582	0.12	521164	keystroke_e	e	n/a
260.747	0.105	521494	keystroke_l	l	n/a
261.032	0.03	522064	keystroke_i	i	n/a
261.3775	0.0595	522755	keystroke_Key.backspace	Key.backspace	n/a
261.647	0.075	523294	keystroke_o	o	n/a
261.842	0.075	523684	keystroke_p	p	n/a
262.082	0.075	524164	keystroke_i	i	n/a
262.172	0.09	524344	keystroke_n	n	n/a
262.307	0.12	524614	keystroke_g	g	n/a
262.457	0.09	524914	keystroke_Key.space	Key.space	n/a
262.637	0.09	525274	keystroke_s	s	n/a
262.7865	0.0755	525573	keystroke_t	t	n/a
262.922	0.075	525844	keystroke_e	e	n/a
263.162	0.18	526324	keystroke_v	v	n/a
263.372	0.09	526744	keystroke_e	e	n/a
263.492	0.075	526984	keystroke_n	n	n/a
263.642	0.12	527284	keystroke_s	s	n/a
264.032	0.09	528064	keystroke_Key.space	Key.space	n/a
264.167	0.075	528334	keystroke_s	s	n/a
264.332	0.09	528664	keystroke_c	c	n/a
264.512	0.075	529024	keystroke_e	e	n/a
264.647	0.045	529294	keystroke_n	n	n/a
264.827	0.09	529654	keystroke_i	i	n/a
264.962	0.09	529924	keystroke_c	c	n/a
265.247	0.045	530494	keystroke_Key.enter	Key.enter	n/a
265.296	6.567	530592	prompt	n/a	asian based promise commissions\n
265.9065	0.09	531813	keystroke_a	a	n/a
266.1465	0.09	532293	keystroke_s	s	n/a
266.2515	0.06	532503	keystroke_i	i	n/a
266.3715	0.09	532743	keystroke_a	a	n/a
266.5065	0.045	533013	keystroke_n	n	n/a
267.0165	0.105	534033	keystroke_Key.space	Key.space	n/a
267.4515	0.09	534903	keystroke_b	b	n/a
267.5865	0.09	535173	keystroke_a	a	n/a
268.2015	0.075	536403	keystroke_s	s	n/a
268.3365	0.09	536673	keystroke_e	e	n/a
268.5015	0.12	537003	keystroke_d	d	n/a
268.6065	0.09	537213	keystroke_Key.space	Key.space	n/a
268.7565	0.09	537513	keystroke_p	p	n/a
268.8615	0.09	537723	keystroke_r	r	n/a
268.9665	0.075	537933	keystroke_o	o	n/a
269.1465	0.075	538293	keystroke_m	m	n/a
269.3565	0.075	538713	keystroke_i	i	n/a
269.5515	0.1355	539103	keystroke_s	s	n/a
269.6415	0.0905	539283	keystroke_e	e	n/a
269.837	0.075	539674	keystroke_Key.space	Key.space	n/a
270.242	0.105	540484	keystroke_c	c	n/a
270.302	0.075	540604	keystroke_o	o	n/a
270.467	0.06	540934	keystroke_m	m	n/a
270.617	0.075	541234	keystroke_m	m	n/a
270.797	0.06	541594	keystroke_i	i	n/a
270.887	0.045	541774	keystroke_s	s	n/a
271.022	0.1045	542044	keystroke_s	s	n/a
271.1115	0.15	542223	keystroke_i	i	n/a
271.2315	0.09	542463	keystroke_o	o	n/a
271.2465	0.12	542493	keystroke_n	n	n/a
271.3965	0.09	542793	keystroke_s	s	n/a
271.772	0.09	543544	keystroke_Key.enter	Key.enter	n/a
271.867	5.8915	543734	prompt	n/a	desperate lodge needn't it\n
273.3165	0.105	546633	keystroke_d	d	n/a
273.5115	0.075	547023	keystroke_e	e	n/a
273.6315	0.075	547263	keystroke_p	p	n/a
273.7515	0.1055	547503	keystroke_s	s	n/a
274.007	0.1055	548014	keystroke_e	e	n/a
274.0965	0.061	548193	keystroke_r	r	n/a
274.2925	0.059	548585	keystroke_a	a	n/a
274.5025	0.06	549005	keystroke_t	t	n/a
274.6225	0.09	549245	keystroke_e	e	n/a
274.7725	0.104	549545	keystroke_Key.space	Key.space	n/a
274.9515	0.046	549903	keystroke_l	l	n/a
275.1325	0.089	550265	keystroke_o	o	n/a
275.2515	0.076	550503	keystroke_d	d	n/a
275.4465	0.075	550893	keystroke_g	g	n/a
275.6125	0.089	551225	keystroke_e	e	n/a
275.7625	0.074	551525	keystroke_Key.space	Key.space	n/a
275.9875	0.074	551975	keystroke_n	n	n/a
276.0765	0.045	552153	keystroke_e	e	n/a
276.1975	0.074	552395	keystroke_e	e	n/a
276.3475	0.074	552695	keystroke_d	d	n/a
276.602	0.06	553204	keystroke_n	n	n/a
276.947	0.09	553894	keystroke_'	'	n/a
277.097	0.09	554194	keystroke_t	t	n/a
277.292	0.12	554584	keystroke_Key.space	Key.space	n/a
277.427	0.09	554854	keystroke_i	i	n/a
277.502	0.075	555004	keystroke_t	t	n/a
277.697	0.06	555394	keystroke_Key.enter	Key.enter	n/a
277.772	6.3765	555544	prompt	n/a	stations cure college lynn\n
278.7165	0.076	557433	keystroke_s	s	n/a
278.8665	0.075	557733	keystroke_t	t	n/a
278.9715	0.12	557943	keystroke_a	a	n/a
279.0765	0.09	558153	keystroke_t	t	n/a
279.302	0.09	558604	keystroke_i	i	n/a
279.497	0.075	558994	keystroke_t	t	n/a
279.962	0.03	559924	keystroke_Key.backspace	Key.backspace	n/a
280.232	0.075	560464	keystroke_o	o	n/a
280.412	0.075	560824	keystroke_n	n	n/a
280.517	0.12	561034	keystroke_s	s	n/a
280.862	0.075	561724	keystroke_Key.space	Key.space	n/a
280.982	0.105	561964	keystroke_c	c	n/a
281.102	0.09	562204	keystroke_u	u	n/a
281.237	0.075	562474	keystroke_r	r	n/a
281.417	0.075	562834	keystroke_e	e	n/a
281.522	0.09	563044	keystroke_Key.space	Key.space	n/a
281.717	0.105	563434	keystroke_c	c	n/a
281.777	0.075	563554	keystroke_o	o	n/a
281.972	0.03	563944	keystroke_l	l	n/a
282.107	0.105	564214	keystroke_l	l	n/a
282.317	0.105	564634	keystroke_g	g	n/a
282.692	0.075	565384	keystroke_Key.backspace	Key.backspace	n/a
282.782	0.075	565564	keystroke_e	e	n/a
282.902	0.09	565804	keystroke_g	g	n/a
283.037	0.075	566074	keystroke_e	e	n/a
283.127	0.075	566254	keystroke_Key.space	Key.space	n/a
283.292	0.1045	566584	keystroke_l	l	n/a
283.4865	0.075	566973	keystroke_y	y	n/a
283.7265	0.03	567453	keystroke_n	n	n/a
283.8165	0.1055	567633	keystroke_n	n	n/a
284.0865	0.0605	568173	keystroke_Key.enter	Key.enter	n/a
284.1535	8.335	568307	prompt	n/a	occurred matrix steam reviews\n
284.9565	0.061	569913	keystroke_o	o	n/a
285.1065	0.09	570213	keystroke_c	c	n/a
285.2565	0.1055	570513	keystroke_c	c	n/a
285.482	0.075	570964	keystroke_u	u	n/a
286.922	0.075	573844	keystroke_r	r	n/a
287.072	0.09	574144	keystroke_r	r	n/a
287.297	0.06	574594	keystroke_e	e	n/a
287.5215	0.1055	575043	keystroke_d	d	n/a
287.8815	0.075	575763	keystroke_Key.space	Key.space	n/a
288.2415	0.09	576483	keystroke_m	m	n/a
288.3015	0.105	576603	keystroke_a	a	n/a
288.5865	0.075	577173	keystroke_t	t	n/a
288.767	0.075	577534	keystroke_r	r	n/a
288.872	0.09	577744	keystroke_i	i	n/a
289.172	0.12	578344	keystroke_x	x	n/a
289.322	0.105	578644	keystroke_Key.space	Key.space	n/a
289.577	0.09	579154	keystroke_s	s	n/a
289.847	0.045	579694	keystroke_t	t	n/a
290.072	0.0745	580144	keystroke_e	e	n/a
290.2665	0.09	580533	keystroke_a	a	n/a
290.3715	0.09	580743	keystroke_m	m	n/a
290.4465	0.1055	580893	keystroke_Key.space	Key.space	n/a
290.6565	0.06	581313	keystroke_r	r	n/a
290.8215	0.06	581643	keystroke_e	e	n/a
291.0615	0.06	582123	keystroke_v	v	n/a
291.2115	0.075	582423	keystroke_i	i	n/a
291.4965	0.0905	582993	keystroke_e	e	n/a
291.692	0.06	583384	keystroke_w	w	n/a
291.917	0.075	583834	keystroke_s	s	n/a
292.412	0.075	584824	keystroke_Key.enter	Key.enter	n/a
292.492	5.8015	584984	prompt	n/a	innovation fall catalog utils\n
293.117	0.075	586234	keystroke_i	i	n/a
293.252	0.06	586504	keystroke_n	n	n/a
293.372	0.105	586744	keystroke_n	n	n/a
293.537	0.09	587074	keystroke_o	o	n/a
293.628	0.104	587256	keystroke_c	c	n/a
294.017	0.06	588034	keystroke_Key.backspace	Key.backspace	n/a
294.062	0.075	588124	keystroke_v	v	n/a
294.2265	0.105	588453	keystroke_a	a	n/a
294.4665	0.0765	588933	keystroke_t	t	n/a
294.5715	0.135	589143	keystroke_i	i	n/a
294.6465	0.105	589293	keystroke_o	o	n/a
294.692	0.1045	589384	keystroke_n	n	n/a
294.8715	0.075	589743	keystroke_Key.space	Key.space	n/a
295.2465	0.09	590493	keystroke_f	f	n/a
295.4715	0.09	590943	keystroke_a	a	n/a
295.5765	0.0455	591153	keystroke_l	l	n/a
295.712	0.09	591424	keystroke_l	l	n/a
295.772	0.075	591544	keystroke_Key.space	Key.space	n/a
295.892	0.09	591784	keystroke_c	c	n/a
296.042	0.105	592084	keystroke_a	a	n/a
296.297	0.075	592594	keystroke_t	t	n/a
296.492	0.105	592984	keystroke_a	a	n/a
296.582	0.045	593164	keystroke_l	l	n/a
296.747	0.06	593494	keystroke_o	o	n/a
296.927	0.0895	593854	keystroke_g	g	n/a
297.0915	0.075	594183	keystroke_Key.space	Key.space	n/a
297.3315	0.06	594663	keystroke_u	u	n/a
297.5715	0.0905	595143	keystroke_t	t	n/a
297.647	0.06	595294	keystroke_i	i	n/a
297.812	0.075	595624	keystroke_l	l	n/a
297.917	0.09	595834	keystroke_s	s	n/a
298.202	0.09	596404	keystroke_Key.enter	Key.enter	n/a
298.2955	8.5175	596591	prompt	n/a	upset convention concentration introduced\n
299.057	0.075	598114	keystroke_u	u	n/a
299.177	0.09	598354	keystroke_p	p	n/a
299.417	0.15	598834	keystroke_s	s	n/a
299.537	0.09	599074	keystroke_e	e	n/a
299.7915	0.09	599583	keystroke_t	t	n/a
299.927	0.0895	599854	keystroke_Key.space	Key.space	n/a
300.0925	0.105	600185	keystroke_c	c	n/a
300.1975	0.12	600395	keystroke_o	o	n/a
300.2575	0.135	600515	keystroke_n	n	n/a
300.4825	0.09	600965	keystroke_v	v	n/a
300.7075	0.075	601415	keystroke_e	e	n/a
300.8275	0.044	601655	keystroke_n	n	n/a
300.9625	0.1045	601925	keystroke_t	t	n/a
301.082	0.15	602164	keystroke_i	i	n/a
301.187	0.12	602374	keystroke_o	o	n/a
301.232	0.105	602464	keystroke_n	n	n/a
301.412	0.075	602824	keystroke_Key.space	Key.space	n/a
301.6375	0.104	603275	keystroke_c	c	n/a
301.7115	0.121	603423	keystroke_o	o	n/a
301.8015	0.106	603603	keystroke_n	n	n/a
301.9815	0.09	603963	keystroke_c	c	n/a
302.1915	0.075	604383	keystroke_e	e	n/a
302.2965	0.075	604593	keystroke_n	n	n/a
302.4465	0.105	604893	keystroke_t	t	n/a
302.6865	0.09	605373	keystroke_r	r	n/a
302.912	0.06	605824	keystroke_a	a	n/a
303.122	0.09	606244	keystroke_t	t	n/a
303.227	0.135	606454	keystroke_i	i	n/a
303.332	0.105	606664	keystroke_o	o	n/a
303.377	0.12	606754	keystroke_n	n	n/a
303.482	0.1045	606964	keystroke_Key.space	Key.space	n/a
303.887	0.105	607774	keystroke_o	o	n/a
304.5615	0.06	609123	keystroke_Key.backspace	Key.backspace	n/a
304.9065	0.12	609813	keystroke_i	i	n/a
304.9665	0.105	609933	keystroke_n	n	n/a
305.297	0.105	610594	keystroke_t	t	n/a
305.522	0.0595	611044	keystroke_r	r	n/a
305.6115	0.06	611223	keystroke_o	o	n/a
305.822	0.06	611644	keystroke_d	d	n/a
305.972	0.075	611944	keystroke_u	u	n/a
306.077	0.09	612154	keystroke_c	c	n/a
306.302	0.0745	612604	keystroke_e	e	n/a
306.4965	0.105	612993	keystroke_d	d	n/a
306.7365	0.075	613473	keystroke_Key.enter	Key.enter	n/a
306.8165	7.8865	613633	prompt	n/a	julia clicks religious outdoors\n
309.859	0.013	619718	keystroke_j	j	n/a
309.992	0.09	619984	keystroke_u	u	n/a
310.187	0.12	620374	keystroke_l	l	n/a
310.322	0.09	620644	keystroke_i	i	n/a
310.517	0.1205	621034	keystroke_a	a	n/a
310.6815	0.09	621363	keystroke_Key.space	Key.space	n/a
310.8765	0.106	621753	keystroke_c	c	n/a
311.0265	0.135	622053	keystroke_l	l	n/a
311.1765	0.09	622353	keystroke_i	i	n/a
311.3265	0.091	622653	keystroke_c	c	n/a
311.4315	0.105	622863	keystroke_k	k	n/a
311.5215	0.1505	623043	keystroke_s	s	n/a
311.702	0.09	623404	keystroke_Key.space	Key.space	n/a
311.882	0.06	623764	keystroke_r	r	n/a
312.032	0.09	624064	keystroke_e	e	n/a
312.137	0.075	624274	keystroke_l	l	n/a
312.347	0.075	624694	keystroke_i	i	n/a
312.542	0.09	625084	keystroke_g	g	n/a
312.647	0.075	625294	keystroke_i	i	n/a
312.767	0.15	625534	keystroke_o	o	n/a
312.857	0.09	625714	keystroke_u	u	n/a
312.992	0.12	625984	keystroke_s	s	n/a
313.157	0.075	626314	keystroke_Key.space	Key.space	n/a
313.3365	0.15	626673	keystroke_o	o	n/a
313.4415	0.075	626883	keystroke_u	u	n/a
313.5465	0.0905	627093	keystroke_t	t	n/a
313.832	0.105	627664	keystroke_d	d	n/a
313.967	0.045	627934	keystroke_o	o	n/a
314.117	0.075	628234	keystroke_o	o	n/a
314.162	0.075	628324	keystroke_r	r	n/a
314.402	0.075	628804	keystroke_s	s	n/a
314.642	0.06	629284	keystroke_Key.enter	Key.enter	n/a
314.706	7.317	629412	prompt	n/a	connection enquiry advisor tough\n
315.227	0.12	630454	keystroke_c	c	n/a
315.287	0.09	630574	keystroke_o	o	n/a
315.482	0.03	630964	keystroke_n	n	n/a
315.617	0.06	631234	keystroke_n	n	n/a
315.632	0.06	631264	keystroke_e	e	n/a
315.857	0.09	631714	keystroke_c	c	n/a
316.0965	0.075	632193	keystroke_t	t	n/a
316.2915	0.12	632583	keystroke_i	i	n/a
316.3815	0.15	632763	keystroke_o	o	n/a
316.4865	0.06	632973	keystroke_n	n	n/a
316.6215	0.105	633243	keystroke_s	s	n/a
316.7565	0.09	633513	keystroke_Key.space	Key.space	n/a
316.907	0.09	633814	keystroke_e	e	n/a
317.372	0.0895	634744	keystroke_n	n	n/a
317.6415	0.105	635283	keystroke_q	q	n/a
317.7315	0.1355	635463	keystroke_u	u	n/a
317.8215	0.1355	635643	keystroke_i	i	n/a
318.1365	0.1355	636273	keystroke_r	r	n/a
318.4815	0.135	636963	keystroke_y	y	n/a
318.6615	0.06	637323	keystroke_Key.space	Key.space	n/a
318.8115	0.045	637623	keystroke_a	a	n/a
318.9765	0.045	637953	keystroke_d	d	n/a
319.4715	0.12	638943	keystroke_v	v	n/a
319.8765	0.075	639753	keystroke_i	i	n/a
320.0715	0.105	640143	keystroke_s	s	n/a
320.1915	0.075	640383	keystroke_o	o	n/a
320.3565	0.09	640713	keystroke_r	r	n/a
320.5815	0.045	641163	keystroke_Key.space	Key.space	n/a
320.8365	0.06	641673	keystroke_t	t	n/a
320.9265	0.1655	641853	keystroke_o	o	n/a
321.122	0.105	642244	keystroke_u	u	n/a
321.272	0.12	642544	keystroke_g	g	n/a
321.392	0.0745	642784	keystroke_h	h	n/a
321.9315	0.09	643863	keystroke_Key.enter	Key.enter	n/a
322.027	7.6615	644054	prompt	n/a	striking outputs athletic companies\n
322.6065	0.12	645213	keystroke_s	s	n/a
323.162	0.06	646324	keystroke_t	t	n/a
323.357	0.09	646714	keystroke_r	r	n/a
323.507	0.075	647014	keystroke_i	i	n/a
323.702	0.075	647404	keystroke_k	k	n/a
323.927	0.105	647854	keystroke_i	i	n/a
324.002	0.075	648004	keystroke_n	n	n/a
324.062	0.105	648124	keystroke_g	g	n/a
324.197	0.09	648394	keystroke_Key.space	Key.space	n/a
324.437	0.105	648874	keystroke_u	u	n/a
324.542	0.045	649084	keystroke_o	o	n/a
324.812	0.06	649624	keystroke_Key.backspace	Key.backspace	n/a
325.127	0.075	650254	keystroke_Key.backspace	Key.backspace	n/a
325.382	0.15	650764	keystroke_o	o	n/a
325.472	0.105	650944	keystroke_u	u	n/a
325.6215	0.105	651243	keystroke_t	t	n/a
325.7715	0.075	651543	keystroke_p	p	n/a
326.2815	0.09	652563	keystroke_u	u	n/a
326.4015	0.075	652803	keystroke_t	t	n/a
326.6565	0.09	653313	keystroke_s	s	n/a
326.8065	0.09	653613	keystroke_Key.space	Key.space	n/a
326.927	0.075	653854	keystroke_a	a	n/a
327.197	0.09	654394	keystroke_t	t	n/a
327.272	0.06	654544	keystroke_h	h	n/a
327.422	0.105	654844	keystroke_l	l	n/a
327.512	0.0895	655024	keystroke_e	e	n/a
327.7965	0.09	655593	keystroke_t	t	n/a
327.9765	0.075	655953	keystroke_i	i	n/a
328.1265	0.09	656253	keystroke_c	c	n/a
328.2465	0.075	656493	keystroke_Key.space	Key.space	n/a
328.4715	0.12	656943	keystroke_c	c	n/a
328.5765	0.09	657153	keystroke_o	o	n/a
328.6515	0.075	657303	keystroke_m	m	n/a
328.8915	0.015	657783	keystroke_p	p	n/a
328.9515	0.03	657903	keystroke_a	a	n/a
329.0115	0.075	658023	keystroke_n	n	n/a
329.1165	0.105	658233	keystroke_i	i	n/a
329.2365	0.09	658473	keystroke_e	e	n/a
329.4465	0.09	658893	keystroke_s	s	n/a
329.6115	0.075	659223	keystroke_Key.enter	Key.enter	n/a
329.691	5.622	659382	prompt	n/a	house funding pleased protecting\n
330.272	0.06	660544	keystroke_h	h	n/a
330.377	0.12	660754	keystroke_o	o	n/a
330.452	0.075	660904	keystroke_u	u	n/a
330.587	0.15	661174	keystroke_s	s	n/a
330.707	0.09	661414	keystroke_e	e	n/a
330.842	0.059	661684	keystroke_Key.space	Key.space	n/a
331.1265	0.105	662253	keystroke_f	f	n/a
331.216	0.1205	662432	keystroke_u	u	n/a
331.3065	0.0895	662613	keystroke_n	n	n/a
331.426	0.09	662852	keystroke_d	d	n/a
331.547	0.09	663094	keystroke_i	i	n/a
331.591	0.121	663182	keystroke_n	n	n/a
331.697	0.1195	663394	keystroke_g	g	n/a
332.0265	0.09	664053	keystroke_Key.space	Key.space	n/a
332.6115	0.0895	665223	keystroke_p	p	n/a
332.6575	0.089	665315	keystroke_l	l	n/a
332.7925	0.06	665585	keystroke_e	e	n/a
332.942	0.06	665884	keystroke_a	a	n/a
333.122	0.105	666244	keystroke_s	s	n/a
333.197	0.075	666394	keystroke_e	e	n/a
333.407	0.09	666814	keystroke_d	d	n/a
333.512	0.075	667024	keystroke_Key.space	Key.space	n/a
333.662	0.105	667324	keystroke_p	p	n/a
333.782	0.105	667564	keystroke_r	r	n/a
333.872	0.105	667744	keystroke_o	o	n/a
334.157	0.06	668314	keystroke_t	t	n/a
334.292	0.075	668584	keystroke_e	e	n/a
334.487	0.09	668974	keystroke_c	c	n/a
334.697	0.06	669394	keystroke_t	t	n/a
334.832	0.075	669664	keystroke_i	i	n/a
334.862	0.12	669724	keystroke_n	n	n/a
334.967	0.075	669934	keystroke_g	g	n/a
335.2665	0.045	670533	keystroke_Key.enter	Key.enter	n/a
335.3155	6.1925	670631	prompt	n/a	token darkness phenomenon collected\n
335.8965	0.105	671793	keystroke_t	t	n/a
335.9865	0.06	671973	keystroke_o	o	n/a
336.1815	0.09	672363	keystroke_k	k	n/a
336.3315	0.075	672663	keystroke_e	e	n/a
336.497	0.075	672994	keystroke_n	n	n/a
336.572	0.12	673144	keystroke_Key.space	Key.space	n/a
336.947	0.06	673894	keystroke_d	d	n/a
337.112	0.075	674224	keystroke_a	a	n/a
337.262	0.09	674524	keystroke_r	r	n/a
337.367	0.075	674734	keystroke_k	k	n/a
337.547	0.09	675094	keystroke_n	n	n/a
337.652	0.06	675304	keystroke_e	e	n/a
337.832	0.06	675664	keystroke_s	s	n/a
337.967	0.075	675934	keystroke_s	s	n/a
338.057	0.09	676114	keystroke_Key.space	Key.space	n/a
338.192	0.075	676384	keystroke_p	p	n/a
338.327	0.06	676654	keystroke_h	h	n/a
338.522	0.135	677044	keystroke_e	e	n/a
338.777	0.06	677554	keystroke_n	n	n/a
338.972	0.12	677944	keystroke_o	o	n/a
339.032	0.105	678064	keystroke_m	m	n/a
339.152	0.0745	678304	keystroke_e	e	n/a
339.4815	0.061	678963	keystroke_n	n	n/a
339.632	0.075	679264	keystroke_o	o	n/a
339.722	0.045	679444	keystroke_n	n	n/a
339.992	0.06	679984	keystroke_Key.space	Key.space	n/a
340.202	0.12	680404	keystroke_c	c	n/a
340.337	0.045	680674	keystroke_o	o	n/a
340.502	0.045	681004	keystroke_l	l	n/a
340.6215	0.09	681243	keystroke_l	l	n/a
340.6515	0.075	681303	keystroke_e	e	n/a
340.8315	0.06	681663	keystroke_c	c	n/a
341.0115	0.075	682023	keystroke_t	t	n/a
341.1915	0.045	682383	keystroke_e	e	n/a
341.3565	0.09	682713	keystroke_d	d	n/a
341.4315	0.075	682863	keystroke_Key.enter	Key.enter	n/a
341.515	6.518	683030	prompt	n/a	voyuer communities down sealed\n
342.1215	0.091	684243	keystroke_v	v	n/a
342.2565	0.0905	684513	keystroke_o	o	n/a
342.797	0.045	685594	keystroke_y	y	n/a
343.052	0.06	686104	keystroke_u	u	n/a
343.232	0.0745	686464	keystroke_e	e	n/a
343.4265	0.075	686853	keystroke_r	r	n/a
343.9365	0.09	687873	keystroke_Key.space	Key.space	n/a
344.1015	0.105	688203	keystroke_c	c	n/a
344.2365	0.045	688473	keystroke_o	o	n/a
344.4765	0.06	688953	keystroke_m	m	n/a
344.6115	0.09	689223	keystroke_m	m	n/a
344.8215	0.075	689643	keystroke_u	u	n/a
344.8665	0.09	689733	keystroke_n	n	n/a
345.0315	0.12	690063	keystroke_i	i	n/a
345.1665	0.0755	690333	keystroke_t	t	n/a
345.287	0.105	690574	keystroke_i	i	n/a
345.572	0.06	691144	keystroke_e	e	n/a
345.827	0.075	691654	keystroke_d	d	n/a
346.067	0.075	692134	keystroke_Key.space	Key.space	n/a
346.412	0.09	692824	keystroke_d	d	n/a
346.487	0.09	692974	keystroke_o	o	n/a
346.562	0.12	693124	keystroke_w	w	n/a
346.697	0.06	693394	keystroke_n	n	n/a
346.802	0.06	693604	keystroke_Key.space	Key.space	n/a
347.027	0.105	694054	keystroke_s	s	n/a
347.222	0.06	694444	keystroke_e	e	n/a
347.342	0.1045	694684	keystroke_a	a	n/a
347.5215	0.1055	695043	keystroke_l	l	n/a
347.642	0.06	695284	keystroke_e	e	n/a
347.822	0.075	695644	keystroke_d	d	n/a
347.957	0.075	695914	keystroke_Key.enter	Key.enter	n/a
348.036	5.577	696072	prompt	n/a	volt develops deny european\n
348.587	0.15	697174	keystroke_v	v	n/a
348.677	0.045	697354	keystroke_o	o	n/a
348.842	0.09	697684	keystroke_l	l	n/a
348.917	0.105	697834	keystroke_t	t	n/a
349.232	0.09	698464	keystroke_Key.space	Key.space	n/a
349.427	0.045	698854	keystroke_d	d	n/a
349.577	0.06	699154	keystroke_e	e	n/a
349.802	0.09	699604	keystroke_v	v	n/a
349.967	0.075	699934	keystroke_e	e	n/a
350.387	0.12	700774	keystroke_l	l	n/a
350.657	0.075	701314	keystroke_o	o	n/a
350.882	0.06	701764	keystroke_p	p	n/a
350.957	0.09	701914	keystroke_s	s	n/a
351.0765	0.105	702153	keystroke_Key.space	Key.space	n/a
351.2265	0.046	702453	keystroke_d	d	n/a
351.3915	0.06	702783	keystroke_e	e	n/a
351.4365	0.075	702873	keystroke_n	n	n/a
351.6625	0.089	703325	keystroke_y	y	n/a
351.7815	0.09	703563	keystroke_Key.space	Key.space	n/a
351.9165	0.075	703833	keystroke_e	e	n/a
352.3965	0.135	704793	keystroke_u	u	n/a
352.5765	0.12	705153	keystroke_r	r	n/a
352.7115	0.075	705423	keystroke_o	o	n/a
352.9515	0.075	705903	keystroke_p	p	n/a
353.0415	0.105	706083	keystroke_e	e	n/a
353.2365	0.106	706473	keystroke_a	a	n/a
353.3275	0.089	706655	keystroke_n	n	n/a
353.5515	0.06	707103	keystroke_Key.enter	Key.enter	n/a
353.616	4.242	707232	prompt	n/a	often unity brakes davis\n
354.1515	0.06	708303	keystroke_o	o	n/a
354.4965	0.105	708993	keystroke_f	f	n/a
354.6765	0.06	709353	keystroke_t	t	n/a
354.7965	0.105	709593	keystroke_e	e	n/a
354.9165	0.09	709833	keystroke_n	n	n/a
355.0515	0.135	710103	keystroke_Key.space	Key.space	n/a
355.2465	0.12	710493	keystroke_u	u	n/a
355.3515	0.075	710703	keystroke_n	n	n/a
355.5015	0.09	711003	keystroke_i	i	n/a
355.6065	0.12	711213	keystroke_t	t	n/a
355.7565	0.105	711513	keystroke_y	y	n/a
355.8625	0.089	711725	keystroke_Key.space	Key.space	n/a
356.0415	0.09	712083	keystroke_b	b	n/a
356.1165	0.075	712233	keystroke_r	r	n/a
356.3115	0.105	712623	keystroke_a	a	n/a
356.4765	0.045	712953	keystroke_k	k	n/a
356.5365	0.0605	713073	keystroke_e	e	n/a
356.7165	0.0605	713433	keystroke_s	s	n/a
356.792	0.075	713584	keystroke_Key.space	Key.space	n/a
356.912	0.12	713824	keystroke_d	d	n/a
357.107	0.1495	714214	keystroke_a	a	n/a
357.2865	0.09	714573	keystroke_v	v	n/a
357.4815	0.09	714963	keystroke_i	i	n/a
357.5865	0.075	715173	keystroke_s	s	n/a
357.7815	0.075	715563	keystroke_Key.enter	Key.enter	n/a
357.8645	5.8435	715729	prompt	n/a	something prisoners phpbb fiction\n
358.4715	0.075	716943	keystroke_s	s	n/a
358.5165	0.15	717033	keystroke_o	o	n/a
358.6515	0.075	717303	keystroke_m	m	n/a
358.6965	0.075	717393	keystroke_e	e	n/a
358.8915	0.105	717783	keystroke_t	t	n/a
358.9365	0.075	717873	keystroke_h	h	n/a
359.0415	0.15	718083	keystroke_i	i	n/a
359.1465	0.12	718293	keystroke_n	n	n/a
359.3265	0.12	718653	keystroke_g	g	n/a
359.4915	0.09	718983	keystroke_Key.space	Key.space	n/a
359.5965	0.06	719193	keystroke_p	p	n/a
359.6715	0.09	719343	keystroke_r	r	n/a
359.8515	0.075	719703	keystroke_i	i	n/a
359.987	0.09	719974	keystroke_s	s	n/a
360.107	0.105	720214	keystroke_o	o	n/a
360.167	0.12	720334	keystroke_n	n	n/a
360.3765	0.105	720753	keystroke_e	e	n/a
360.4365	0.09	720873	keystroke_r	r	n/a
360.6465	0.105	721293	keystroke_s	s	n/a
360.7665	0.105	721533	keystroke_Key.space	Key.space	n/a
360.9315	0.06	721863	keystroke_p	p	n/a
361.1715	0.09	722343	keystroke_h	h	n/a
361.4865	0.075	722973	keystroke_p	p	n/a
361.9365	0.045	723873	keystroke_b	b	n/a
362.0565	0.06	724113	keystroke_b	b	n/a
362.2665	0.06	724533	keystroke_Key.space	Key.space	n/a
362.3865	0.105	724773	keystroke_f	f	n/a
362.5065	0.045	725013	keystroke_i	i	n/a
362.8965	0.075	725793	keystroke_c	c	n/a
363.0915	0.075	726183	keystroke_t	t	n/a
363.1815	0.15	726363	keystroke_i	i	n/a
363.2865	0.075	726573	keystroke_o	o	n/a
363.3165	0.12	726633	keystroke_n	n	n/a
363.6615	0.045	727323	keystroke_Key.enter	Key.enter	n/a
363.7105	7.558	727421	prompt	n/a	luxembourg export generation scoring\n
364.3515	0.045	728703	keystroke_l	l	n/a
364.5915	0.06	729183	keystroke_u	u	n/a
364.8465	0.09	729693	keystroke_x	x	n/a
365.0565	0.0755	730113	keystroke_e	e	n/a
365.267	0.06	730534	keystroke_m	m	n/a
365.462	0.045	730924	keystroke_b	b	n/a
365.717	0.15	731434	keystroke_o	o	n/a
365.822	0.09	731644	keystroke_u	u	n/a
365.987	0.075	731974	keystroke_r	r	n/a
366.287	0.075	732574	keystroke_g	g	n/a
366.4665	0.075	732933	keystroke_Key.space	Key.space	n/a
366.6915	0.06	733383	keystroke_e	e	n/a
366.9015	0.075	733803	keystroke_x	x	n/a
366.9915	0.105	733983	keystroke_p	p	n/a
367.0515	0.09	734103	keystroke_o	o	n/a
367.2015	0.06	734403	keystroke_r	r	n/a
367.5615	0.105	735123	keystroke_t	t	n/a
367.6815	0.09	735363	keystroke_Key.space	Key.space	n/a
367.951	0.061	735902	keystroke_e	e	n/a
368.281	0.045	736562	keystroke_Key.backspace	Key.backspace	n/a
368.312	0.075	736624	keystroke_g	g	n/a
368.506	0.076	737012	keystroke_e	e	n/a
368.597	0.075	737194	keystroke_n	n	n/a
368.702	0.089	737404	keystroke_e	e	n/a
368.717	0.12	737434	keystroke_r	r	n/a
368.957	0.104	737914	keystroke_a	a	n/a
369.212	0.06	738424	keystroke_t	t	n/a
369.317	0.15	738634	keystroke_i	i	n/a
369.437	0.12	738874	keystroke_o	o	n/a
369.482	0.135	738964	keystroke_n	n	n/a
369.662	0.03	739324	keystroke_Key.space	Key.space	n/a
369.722	0.075	739444	keystroke_s	s	n/a
369.977	0.09	739954	keystroke_c	c	n/a
370.0965	0.075	740193	keystroke_o	o	n/a
370.2315	0.105	740463	keystroke_r	r	n/a
370.6365	0.105	741273	keystroke_i	i	n/a
370.7865	0.105	741573	keystroke_n	n	n/a
370.9365	0.105	741873	keystroke_g	g	n/a
371.2065	0.06	742413	keystroke_Key.enter	Key.enter	n/a
371.271	8.8475	742542	prompt	n/a	supporting amazon jason stylus\n
372.016	0.1215	744032	keystroke_s	s	n/a
372.2565	0.075	744513	keystroke_u	u	n/a
372.4665	0.06	744933	keystroke_p	p	n/a
372.5865	0.135	745173	keystroke_p	p	n/a
372.6765	0.106	745353	keystroke_o	o	n/a
373.0065	0.075	746013	keystroke_r	r	n/a
373.5165	0.09	747033	keystroke_t	t	n/a
373.6515	0.135	747303	keystroke_i	i	n/a
373.7415	0.09	747483	keystroke_n	n	n/a
373.8165	0.09	747633	keystroke_g	g	n/a
374.1765	0.09	748353	keystroke_Key.space	Key.space	n/a
374.2965	0.09	748593	keystroke_a	a	n/a
374.4015	0.09	748803	keystroke_m	m	n/a
374.5065	0.03	749013	keystroke_a	a	n/a
374.672	0.1345	749344	keystroke_z	z	n/a
374.9565	0.045	749913	keystroke_o	o	n/a
374.9715	0.075	749943	keystroke_n	n	n/a
376.202	0.105	752404	keystroke_Key.space	Key.space	n/a
376.592	0.075	753184	keystroke_j	j	n/a
376.697	0.09	753394	keystroke_a	a	n/a
376.922	0.09	753844	keystroke_s	s	n/a
377.042	0.105	754084	keystroke_o	o	n/a
377.117	0.0895	754234	keystroke_n	n	n/a
377.1915	0.09	754383	keystroke_Key.space	Key.space	n/a
377.777	0.12	755554	keystroke_s	s	n/a
378.4815	0.075	756963	keystroke_t	t	n/a
378.6465	0.0905	757293	keystroke_y	y	n/a
378.932	0.075	757864	keystroke_l	l	n/a
379.142	0.09	758284	keystroke_u	u	n/a
379.262	0.09	758524	keystroke_s	s	n/a
380.0415	0.0745	760083	keystroke_Key.enter	Key.enter	n/a
380.1225	10.7655	760245	prompt	n/a	mystery facility specialties brown\n
381.197	0.044	762394	keystroke_n	n	n/a
381.7815	0.045	763563	keystroke_Key.backspace	Key.backspace	n/a
381.8865	0.075	763773	keystroke_Key.backspace	Key.backspace	n/a
382.1275	0.074	764255	keystroke_m	m	n/a
382.3665	0.045	764733	keystroke_y	y	n/a
382.4415	0.12	764883	keystroke_s	s	n/a
382.6965	0.09	765393	keystroke_t	t	n/a
382.892	0.105	765784	keystroke_e	e	n/a
382.922	0.105	765844	keystroke_r	r	n/a
383.297	0.09	766594	keystroke_y	y	n/a
383.402	0.075	766804	keystroke_Key.space	Key.space	n/a
383.732	0.075	767464	keystroke_f	f	n/a
383.897	0.105	767794	keystroke_a	a	n/a
384.152	0.1045	768304	keystroke_c	c	n/a
384.2415	0.06	768483	keystroke_i	i	n/a
384.4065	0.075	768813	keystroke_l	l	n/a
384.5715	0.09	769143	keystroke_i	i	n/a
384.7215	0.12	769443	keystroke_t	t	n/a
384.9165	0.135	769833	keystroke_y	y	n/a
385.0815	0.105	770163	keystroke_Key.space	Key.space	n/a
385.5015	0.09	771003	keystroke_s	s	n/a
386.012	0.075	772024	keystroke_p	p	n/a
386.102	0.09	772204	keystroke_e	e	n/a
386.537	0.09	773074	keystroke_c	c	n/a
386.672	0.09	773344	keystroke_i	i	n/a
386.837	0.06	773674	keystroke_a	a	n/a
386.927	0.09	773854	keystroke_l	l	n/a
387.167	0.06	774334	keystroke_t	t	n/a
387.302	0.0745	774604	keystroke_i	i	n/a
388.9815	0.1355	777963	keystroke_e	e	n/a
389.327	0.105	778654	keystroke_s	s	n/a
389.7015	0.075	779403	keystroke_Key.space	Key.space	n/a
389.9415	0.09	779883	keystroke_b	b	n/a
390.0165	0.105	780033	keystroke_r	r	n/a
390.1365	0.075	780273	keystroke_o	o	n/a
390.1965	0.105	780393	keystroke_w	w	n/a
390.2715	0.105	780543	keystroke_n	n	n/a
390.827	0.06	781654	keystroke_Key.enter	Key.enter	n/a
390.892	8.1865	781784	prompt	n/a	virginia thailand gathered grab\n
391.487	0.075	782974	keystroke_b	b	n/a
391.697	0.06	783394	keystroke_i	i	n/a
391.787	0.075	783574	keystroke_r	r	n/a
392.3565	0.06	784713	keystroke_Key.backspace	Key.backspace	n/a
392.5215	0.03	785043	keystroke_Key.backspace	Key.backspace	n/a
392.6565	0.075	785313	keystroke_Key.backspace	Key.backspace	n/a
392.7015	0.135	785403	keystroke_v	v	n/a
392.8665	0.0905	785733	keystroke_i	i	n/a
392.972	0.075	785944	keystroke_r	r	n/a
393.257	0.12	786514	keystroke_g	g	n/a
393.362	0.09	786724	keystroke_i	i	n/a
393.497	0.0895	786994	keystroke_n	n	n/a
393.6315	0.1055	787263	keystroke_i	i	n/a
393.781	0.121	787562	keystroke_a	a	n/a
394.021	0.105	788042	keystroke_Key.space	Key.space	n/a
394.232	0.06	788464	keystroke_t	t	n/a
394.306	0.091	788612	keystroke_h	h	n/a
394.442	0.135	788884	keystroke_a	a	n/a
394.516	0.091	789032	keystroke_i	i	n/a
394.711	0.076	789422	keystroke_l	l	n/a
394.801	0.09	789602	keystroke_a	a	n/a
394.907	0.09	789814	keystroke_n	n	n/a
395.3115	0.075	790623	keystroke_d	d	n/a
395.5215	0.075	791043	keystroke_Key.space	Key.space	n/a
396.1365	0.12	792273	keystroke_g	g	n/a
396.7815	0.09	793563	keystroke_a	a	n/a
397.0365	0.075	794073	keystroke_t	t	n/a
397.1565	0.075	794313	keystroke_h	h	n/a
397.2165	0.105	794433	keystroke_e	e	n/a
397.2765	0.09	794553	keystroke_r	r	n/a
397.4565	0.12	794913	keystroke_e	e	n/a
397.832	0.0895	795664	keystroke_d	d	n/a
397.982	0.045	795964	keystroke_Key.space	Key.space	n/a
398.252	0.06	796504	keystroke_g	g	n/a
398.432	0.06	796864	keystroke_r	r	n/a
398.612	0.12	797224	keystroke_a	a	n/a
398.717	0.075	797434	keystroke_b	b	n/a
399.002	0.075	798004	keystroke_Key.enter	Key.enter	n/a
399.0815	9.2065	798163	prompt	n/a	nextel commands scale cannon\n
399.767	0.0745	799534	keystroke_n	n	n/a
399.8115	0.075	799623	keystroke_e	e	n/a
400.0365	0.075	800073	keystroke_t	t	n/a
400.2915	0.12	800583	keystroke_c	c	n/a
400.7865	0.09	801573	keystroke_Key.backspace	Key.backspace	n/a
400.8465	0.105	801693	keystroke_x	x	n/a
401.0865	0.075	802173	keystroke_e	e	n/a
401.3715	0.09	802743	keystroke_l	l	n/a
401.6115	0.105	803223	keystroke_Key.space	Key.space	n/a
402.152	0.119	804304	keystroke_c	c	n/a
402.392	0.045	804784	keystroke_o	o	n/a
402.557	0.06	805114	keystroke_m	m	n/a
402.692	0.075	805384	keystroke_m	m	n/a
402.752	0.105	805504	keystroke_a	a	n/a
402.932	0.045	805864	keystroke_n	n	n/a
403.082	0.09	806164	keystroke_d	d	n/a
403.2915	0.09	806583	keystroke_Key.space	Key.space	n/a
404.8215	0.075	809643	keystroke_Key.backspace	Key.backspace	n/a
404.9265	0.135	809853	keystroke_s	s	n/a
405.0915	0.09	810183	keystroke_Key.space	Key.space	n/a
405.3465	0.075	810693	keystroke_s	s	n/a
405.4815	0.075	810963	keystroke_c	c	n/a
405.6315	0.105	811263	keystroke_a	a	n/a
405.7515	0.045	811503	keystroke_l	l	n/a
405.9165	0.03	811833	keystroke_l	l	n/a
406.261	0.045	812522	keystroke_Key.backspace	Key.backspace	n/a
406.351	0.09	812702	keystroke_e	e	n/a
406.7565	0.09	813513	keystroke_Key.space	Key.space	n/a
406.9215	0.075	813843	keystroke_c	c	n/a
407.1015	0.076	814203	keystroke_a	a	n/a
407.552	0.0595	815104	keystroke_n	n	n/a
407.6865	0.075	815373	keystroke_n	n	n/a
407.8215	0.15	815643	keystroke_o	o	n/a
407.9115	0.075	815823	keystroke_n	n	n/a
408.2415	0.045	816483	keystroke_Key.enter	Key.enter	n/a
408.2905	8.0075	816581	prompt	n/a	signature realized bomb dimensions\n
408.8115	0.135	817623	keystroke_s	s	n/a
408.9765	0.075	817953	keystroke_i	i	n/a
409.1115	0.09	818223	keystroke_g	g	n/a
409.2465	0.09	818493	keystroke_n	n	n/a
409.3665	0.075	818733	keystroke_a	a	n/a
409.592	0.09	819184	keystroke_t	t	n/a
409.712	0.075	819424	keystroke_u	u	n/a
409.802	0.06	819604	keystroke_r	r	n/a
409.982	0.075	819964	keystroke_e	e	n/a
410.1015	0.09	820203	keystroke_Key.space	Key.space	n/a
410.2515	0.09	820503	keystroke_s	s	n/a
410.5515	0.09	821103	keystroke_Key.backspace	Key.backspace	n/a
410.6265	0.06	821253	keystroke_r	r	n/a
411.0465	0.075	822093	keystroke_e	e	n/a
411.2565	0.09	822513	keystroke_a	a	n/a
411.4065	0.075	822813	keystroke_l	l	n/a
411.5415	0.0895	823083	keystroke_i	i	n/a
412.006	0.09	824012	keystroke_z	z	n/a
412.261	0.061	824522	keystroke_e	e	n/a
412.472	0.105	824944	keystroke_d	d	n/a
412.607	0.1045	825214	keystroke_Key.space	Key.space	n/a
412.7865	0.0605	825573	keystroke_b	b	n/a
412.907	0.1045	825814	keystroke_o	o	n/a
413.1015	0.09	826203	keystroke_m	m	n/a
413.4465	0.105	826893	keystroke_s	s	n/a
413.9415	0.06	827883	keystroke_Key.backspace	Key.backspace	n/a
414.212	0.075	828424	keystroke_b	b	n/a
414.347	0.075	828694	keystroke_Key.space	Key.space	n/a
414.542	0.105	829084	keystroke_d	d	n/a
414.722	0.075	829444	keystroke_i	i	n/a
414.902	0.075	829804	keystroke_m	m	n/a
414.992	0.105	829984	keystroke_e	e	n/a
415.127	0.03	830254	keystroke_n	n	n/a
415.547	0.09	831094	keystroke_s	s	n/a
415.607	0.135	831214	keystroke_i	i	n/a
415.682	0.12	831364	keystroke_o	o	n/a
415.712	0.105	831424	keystroke_n	n	n/a
416.0715	0.075	832143	keystroke_s	s	n/a
416.2215	0.075	832443	keystroke_Key.enter	Key.enter	n/a
416.3005	6.403	832601	prompt	n/a	lisa skin meat ecuador\n
417.016	0.1205	834032	keystroke_l	l	n/a
417.106	0.0755	834212	keystroke_i	i	n/a
417.3165	0.105	834633	keystroke_n	n	n/a
418.592	0.06	837184	keystroke_Key.backspace	Key.backspace	n/a
418.667	0.105	837334	keystroke_s	s	n/a
418.907	0.06	837814	keystroke_a	a	n/a
419.027	0.09	838054	keystroke_Key.space	Key.space	n/a
419.327	0.105	838654	keystroke_s	s	n/a
419.447	0.075	838894	keystroke_k	k	n/a
419.657	0.09	839314	keystroke_i	i	n/a
419.702	0.12	839404	keystroke_n	n	n/a
419.822	0.09	839644	keystroke_Key.space	Key.space	n/a
420.062	0.075	840124	keystroke_m	m	n/a
420.152	0.06	840304	keystroke_e	e	n/a
420.316	0.091	840632	keystroke_a	a	n/a
420.557	0.06	841114	keystroke_t	t	n/a
420.647	0.105	841294	keystroke_Key.space	Key.space	n/a
420.797	0.09	841594	keystroke_e	e	n/a
421.112	0.03	842224	keystroke_x	x	n/a
421.487	0.089	842974	keystroke_Key.backspace	Key.backspace	n/a
421.592	0.059	843184	keystroke_c	c	n/a
421.726	0.09	843452	keystroke_u	u	n/a
421.831	0.09	843662	keystroke_a	a	n/a
422.101	0.06	844202	keystroke_d	d	n/a
422.191	0.0605	844382	keystroke_o	o	n/a
422.3265	0.075	844653	keystroke_r	r	n/a
422.6115	0.09	845223	keystroke_Key.enter	Key.enter	n/a
422.707	5.876	845414	prompt	n/a	cowboy characters prior powers\n
423.3615	0.15	846723	keystroke_c	c	n/a
423.5265	0.09	847053	keystroke_o	o	n/a
423.6015	0.09	847203	keystroke_w	w	n/a
423.827	0.075	847654	keystroke_b	b	n/a
424.022	0.06	848044	keystroke_o	o	n/a
424.232	0.09	848464	keystroke_y	y	n/a
424.322	0.105	848644	keystroke_Key.space	Key.space	n/a
424.577	0.09	849154	keystroke_c	c	n/a
424.712	0.03	849424	keystroke_h	h	n/a
424.757	0.075	849514	keystroke_a	a	n/a
424.937	0.075	849874	keystroke_r	r	n/a
425.102	0.105	850204	keystroke_a	a	n/a
425.267	0.105	850534	keystroke_c	c	n/a
425.4915	0.075	850983	keystroke_t	t	n/a
425.7015	0.075	851403	keystroke_e	e	n/a
425.7165	0.09	851433	keystroke_r	r	n/a
425.9265	0.12	851853	keystroke_s	s	n/a
426.1065	0.09	852213	keystroke_Key.space	Key.space	n/a
426.3915	0.075	852783	keystroke_p	p	n/a
426.5115	0.09	853023	keystroke_r	r	n/a
426.7215	0.105	853443	keystroke_i	i	n/a
427.0815	0.105	854163	keystroke_o	o	n/a
427.2015	0.09	854403	keystroke_r	r	n/a
427.3215	0.09	854643	keystroke_Key.space	Key.space	n/a
427.4865	0.1355	854973	keystroke_p	p	n/a
427.607	0.105	855214	keystroke_o	o	n/a
427.727	0.1345	855454	keystroke_w	w	n/a
427.8165	0.09	855633	keystroke_e	e	n/a
428.027	0.075	856054	keystroke_r	r	n/a
428.4915	0.09	856983	keystroke_Key.enter	Key.enter	n/a
428.5865	5.1565	857173	prompt	n/a	warranty edge employed lender\n
429.2115	0.09	858423	keystroke_w	w	n/a
429.3765	0.09	858753	keystroke_a	a	n/a
429.5715	0.06	859143	keystroke_r	r	n/a
429.7215	0.075	859443	keystroke_r	r	n/a
429.9165	0.105	859833	keystroke_a	a	n/a
430.0225	0.104	860045	keystroke_n	n	n/a
430.1875	0.104	860375	keystroke_t	t	n/a
430.3365	0.105	860673	keystroke_y	y	n/a
430.4565	0.0755	860913	keystroke_Key.space	Key.space	n/a
430.5615	0.075	861123	keystroke_e	e	n/a
430.7715	0.075	861543	keystroke_d	d	n/a
430.9815	0.075	861963	keystroke_g	g	n/a
431.1615	0.075	862323	keystroke_e	e	n/a
431.2665	0.09	862533	keystroke_Key.space	Key.space	n/a
431.507	0.1045	863014	keystroke_e	e	n/a
431.5815	0.09	863163	keystroke_m	m	n/a
431.8065	0.1055	863613	keystroke_p	p	n/a
431.8665	0.0905	863733	keystroke_l	l	n/a
432.092	0.09	864184	keystroke_o	o	n/a
432.362	0.06	864724	keystroke_y	y	n/a
432.512	0.045	865024	keystroke_e	e	n/a
432.677	0.12	865354	keystroke_d	d	n/a
432.767	0.12	865534	keystroke_Key.space	Key.space	n/a
432.902	0.09	865804	keystroke_l	l	n/a
432.977	0.0895	865954	keystroke_e	e	n/a
433.0965	0.09	866193	keystroke_n	n	n/a
433.2165	0.075	866433	keystroke_d	d	n/a
433.4265	0.1055	866853	keystroke_e	e	n/a
433.4715	0.105	866943	keystroke_r	r	n/a
433.6665	0.075	867333	keystroke_Key.enter	Key.enter	n/a
433.747	4.6765	867494	prompt	n/a	wanna list dishes rankings\n
434.2975	0.059	868595	keystroke_n	n	n/a
434.5815	0.075	869163	keystroke_Key.backspace	Key.backspace	n/a
434.6715	0.075	869343	keystroke_w	w	n/a
434.8665	0.105	869733	keystroke_a	a	n/a
435.1665	0.015	870333	keystroke_n	n	n/a
435.2265	0.09	870453	keystroke_n	n	n/a
435.3015	0.105	870603	keystroke_a	a	n/a
435.4365	0.09	870873	keystroke_Key.space	Key.space	n/a
435.5565	0.1205	871113	keystroke_l	l	n/a
435.737	0.09	871474	keystroke_i	i	n/a
435.857	0.075	871714	keystroke_s	s	n/a
436.067	0.09	872134	keystroke_t	t	n/a
436.172	0.09	872344	keystroke_Key.space	Key.space	n/a
436.322	0.09	872644	keystroke_d	d	n/a
436.397	0.075	872794	keystroke_i	i	n/a
436.517	0.12	873034	keystroke_s	s	n/a
436.622	0.075	873244	keystroke_h	h	n/a
436.772	0.105	873544	keystroke_e	e	n/a
436.997	0.075	873994	keystroke_s	s	n/a
437.057	0.105	874114	keystroke_Key.space	Key.space	n/a
437.192	0.075	874384	keystroke_r	r	n/a
437.3865	0.12	874773	keystroke_a	a	n/a
437.4765	0.135	874953	keystroke_n	n	n/a
437.5815	0.105	875163	keystroke_k	k	n/a
437.8065	0.075	875613	keystroke_i	i	n/a
437.8365	0.135	875673	keystroke_n	n	n/a
437.9565	0.075	875913	keystroke_g	g	n/a
438.1965	0.09	876393	keystroke_s	s	n/a
438.3465	0.075	876693	keystroke_Key.enter	Key.enter	n/a
438.4255	9.2225	876851	prompt	n/a	conspiracy screens burden electron\n
439.037	0.105	878074	keystroke_c	c	n/a
439.157	0.105	878314	keystroke_o	o	n/a
439.217	0.105	878434	keystroke_m	m	n/a
439.487	0.075	878974	keystroke_p	p	n/a
439.817	0.09	879634	keystroke_Key.backspace	Key.backspace	n/a
440.057	0.0445	880114	keystroke_Key.backspace	Key.backspace	n/a
440.297	0.105	880594	keystroke_n	n	n/a
440.522	0.12	881044	keystroke_s	s	n/a
440.657	0.12	881314	keystroke_p	p	n/a
440.732	0.075	881464	keystroke_l	l	n/a
441.0315	0.075	882063	keystroke_i	i	n/a
441.512	0.0595	883024	keystroke_Key.backspace	Key.backspace	n/a
441.6615	0.06	883323	keystroke_Key.backspace	Key.backspace	n/a
441.8415	0.12	883683	keystroke_i	i	n/a
442.1565	0.075	884313	keystroke_r	r	n/a
442.3665	0.09	884733	keystroke_a	a	n/a
442.6215	0.09	885243	keystroke_c	c	n/a
442.877	0.1645	885754	keystroke_y	y	n/a
443.0715	0.105	886143	keystroke_Key.space	Key.space	n/a
443.1915	0.09	886383	keystroke_s	s	n/a
443.3565	0.105	886713	keystroke_c	c	n/a
443.612	0.075	887224	keystroke_r	r	n/a
443.822	0.045	887644	keystroke_e	e	n/a
443.942	0.089	887884	keystroke_e	e	n/a
444.046	0.076	888092	keystroke_n	n	n/a
444.181	0.135	888362	keystroke_s	s	n/a
444.511	0.135	889022	keystroke_Key.space	Key.space	n/a
444.662	0.105	889324	keystroke_b	b	n/a
444.751	0.09	889502	keystroke_u	u	n/a
444.826	0.09	889652	keystroke_r	r	n/a
445.112	0.074	890224	keystroke_d	d	n/a
445.291	0.075	890582	keystroke_e	e	n/a
445.411	0.076	890822	keystroke_n	n	n/a
445.471	0.09	890942	keystroke_Key.space	Key.space	n/a
445.697	0.075	891394	keystroke_e	e	n/a
445.817	0.09	891634	keystroke_l	l	n/a
445.922	0.06	891844	keystroke_e	e	n/a
446.387	0.105	892774	keystroke_c	c	n/a
446.702	0.075	893404	keystroke_t	t	n/a
446.897	0.075	893794	keystroke_r	r	n/a
446.987	0.09	893974	keystroke_o	o	n/a
447.242	0.105	894484	keystroke_n	n	n/a
447.572	0.0745	895144	keystroke_Key.enter	Key.enter	n/a
447.651	5.6225	895302	prompt	n/a	painting posts annie hardly\n
448.307	0.09	896614	keystroke_p	p	n/a
448.427	0.105	896854	keystroke_a	a	n/a
448.562	0.105	897124	keystroke_i	i	n/a
448.637	0.09	897274	keystroke_n	n	n/a
448.832	0.09	897664	keystroke_t	t	n/a
448.937	0.09	897874	keystroke_i	i	n/a
449.012	0.075	898024	keystroke_n	n	n/a
449.117	0.105	898234	keystroke_g	g	n/a
449.267	0.075	898534	keystroke_Key.space	Key.space	n/a
449.732	0.06	899464	keystroke_p	p	n/a
449.867	0.09	899734	keystroke_o	o	n/a
449.987	0.075	899974	keystroke_s	s	n/a
450.182	0.09	900364	keystroke_t	t	n/a
450.407	0.105	900814	keystroke_s	s	n/a
450.497	0.09	900994	keystroke_Key.space	Key.space	n/a
450.872	0.12	901744	keystroke_a	a	n/a
450.977	0.06	901954	keystroke_n	n	n/a
451.112	0.105	902224	keystroke_n	n	n/a
451.202	0.12	902404	keystroke_i	i	n/a
451.307	0.09	902614	keystroke_e	e	n/a
451.502	0.0895	903004	keystroke_Key.space	Key.space	n/a
451.712	0.03	903424	keystroke_h	h	n/a
451.772	0.075	903544	keystroke_a	a	n/a
451.951	0.076	903902	keystroke_r	r	n/a
452.131	0.121	904262	keystroke_d	d	n/a
452.6265	0.09	905253	keystroke_l	l	n/a
452.8965	0.075	905793	keystroke_y	y	n/a
453.1965	0.075	906393	keystroke_Key.enter	Key.enter	n/a
453.2775	7.2255	906555	prompt	n/a	regime regarding diana april\n
453.8565	0.09	907713	keystroke_r	r	n/a
454.0365	0.0455	908073	keystroke_e	e	n/a
454.3965	0.075	908793	keystroke_g	g	n/a
454.5165	0.135	909033	keystroke_i	i	n/a
454.6065	0.075	909213	keystroke_n	n	n/a
454.9665	0.045	909933	keystroke_Key.backspace	Key.backspace	n/a
455.192	0.075	910384	keystroke_m	m	n/a
455.297	0.075	910594	keystroke_e	e	n/a
455.372	0.06	910744	keystroke_Key.space	Key.space	n/a
455.537	0.06	911074	keystroke_r	r	n/a
455.702	0.06	911404	keystroke_e	e	n/a
455.882	0.105	911764	keystroke_g	g	n/a
456.077	0.09	912154	keystroke_a	a	n/a
456.272	0.06	912544	keystroke_r	r	n/a
456.4665	0.06	912933	keystroke_d	d	n/a
456.5715	0.105	913143	keystroke_i	i	n/a
456.6465	0.09	913293	keystroke_n	n	n/a
456.7515	0.105	913503	keystroke_g	g	n/a
456.9615	0.09	913923	keystroke_Key.space	Key.space	n/a
457.7865	0.045	915573	keystroke_r	r	n/a
458.8515	0.06	917703	keystroke_Key.backspace	Key.backspace	n/a
458.9415	0.12	917883	keystroke_d	d	n/a
459.1365	0.0605	918273	keystroke_i	i	n/a
459.242	0.075	918484	keystroke_a	a	n/a
459.332	0.075	918664	keystroke_n	n	n/a
459.452	0.06	918904	keystroke_a	a	n/a
459.542	0.0895	919084	keystroke_Key.space	Key.space	n/a
459.7365	0.075	919473	keystroke_a	a	n/a
459.8125	0.089	919625	keystroke_p	p	n/a
459.9465	0.09	919893	keystroke_r	r	n/a
460.0515	0.045	920103	keystroke_i	i	n/a
460.2015	0.075	920403	keystroke_l	l	n/a
460.4565	0.045	920913	keystroke_Key.enter	Key.enter	n/a
460.5235	6.88	921047	prompt	n/a	clear complexity browse happens\n
461.1315	0.1505	922263	keystroke_c	c	n/a
461.327	0.06	922654	keystroke_l	l	n/a
461.702	0.075	923404	keystroke_e	e	n/a
461.8965	0.076	923793	keystroke_a	a	n/a
462.0765	0.0745	924153	keystroke_r	r	n/a
462.211	0.075	924422	keystroke_Key.space	Key.space	n/a
462.436	0.091	924872	keystroke_c	c	n/a
462.527	0.15	925054	keystroke_o	o	n/a
462.692	0.0745	925384	keystroke_m	m	n/a
462.9165	0.09	925833	keystroke_p	p	n/a
462.9465	0.1205	925893	keystroke_l	l	n/a
463.052	0.09	926104	keystroke_e	e	n/a
463.337	0.075	926674	keystroke_t	t	n/a
463.6365	0.045	927273	keystroke_Key.backspace	Key.backspace	n/a
463.7425	0.104	927485	keystroke_x	x	n/a
463.8765	0.075	927753	keystroke_i	i	n/a
464.1315	0.09	928263	keystroke_t	t	n/a
464.2965	0.075	928593	keystroke_y	y	n/a
464.687	0.0745	929374	keystroke_Key.space	Key.space	n/a
464.9565	0.105	929913	keystroke_b	b	n/a
465.0465	0.09	930093	keystroke_r	r	n/a
465.1515	0.12	930303	keystroke_o	o	n/a
465.2865	0.045	930573	keystroke_w	w	n/a
465.601	0.15	931202	keystroke_s	s	n/a
465.737	0.075	931474	keystroke_e	e	n/a
465.856	0.09	931712	keystroke_Key.space	Key.space	n/a
466.2165	0.045	932433	keystroke_h	h	n/a
466.4415	0.075	932883	keystroke_a	a	n/a
466.5015	0.075	933003	keystroke_p	p	n/a
466.6525	0.104	933305	keystroke_p	p	n/a
466.8015	0.09	933603	keystroke_e	e	n/a
466.937	0.0905	933874	keystroke_n	n	n/a
467.0565	0.105	934113	keystroke_s	s	n/a
467.3115	0.09	934623	keystroke_Key.enter	Key.enter	n/a
467.415	5.988	934830	prompt	n/a	dublin ebook slightly asbestos\n
467.9865	0.12	935973	keystroke_d	d	n/a
468.1515	0.09	936303	keystroke_u	u	n/a
468.3165	0.075	936633	keystroke_b	b	n/a
468.5415	0.09	937083	keystroke_l	l	n/a
468.6765	0.105	937353	keystroke_i	i	n/a
468.7965	0.09	937593	keystroke_n	n	n/a
468.9465	0.09	937893	keystroke_Key.space	Key.space	n/a
469.0965	0.09	938193	keystroke_e	e	n/a
469.2165	0.075	938433	keystroke_b	b	n/a
469.3815	0.06	938763	keystroke_o	o	n/a
469.5165	0.075	939033	keystroke_o	o	n/a
469.7115	0.09	939423	keystroke_k	k	n/a
469.7865	0.105	939573	keystroke_Key.space	Key.space	n/a
469.9065	0.105	939813	keystroke_s	s	n/a
469.9815	0.1355	939963	keystroke_l	l	n/a
470.102	0.075	940204	keystroke_i	i	n/a
470.192	0.09	940384	keystroke_g	g	n/a
470.267	0.075	940534	keystroke_h	h	n/a
470.372	0.09	940744	keystroke_t	t	n/a
470.477	0.09	940954	keystroke_l	l	n/a
470.596	0.105	941192	keystroke_y	y	n/a
470.776	0.106	941552	keystroke_Key.space	Key.space	n/a
471.167	0.09	942334	keystroke_s	s	n/a
471.5715	0.0745	943143	keystroke_Key.backspace	Key.backspace	n/a
471.631	0.045	943262	keystroke_a	a	n/a
471.842	0.03	943684	keystroke_s	s	n/a
471.917	0.045	943834	keystroke_b	b	n/a
472.097	0.059	944194	keystroke_e	e	n/a
472.277	0.089	944554	keystroke_s	s	n/a
472.772	0.0745	945544	keystroke_t	t	n/a
472.9515	0.075	945903	keystroke_o	o	n/a
473.0865	0.09	946173	keystroke_s	s	n/a
473.2965	0.105	946593	keystroke_Key.enter	Key.enter	n/a
473.4055	5.6375	946811	prompt	n/a	illinois flush behind testament\n
474.0615	0.075	948123	keystroke_i	i	n/a
474.2575	0.044	948515	keystroke_l	l	n/a
474.4065	0.09	948813	keystroke_l	l	n/a
474.5715	0.09	949143	keystroke_i	i	n/a
474.6765	0.09	949353	keystroke_n	n	n/a
474.947	0.12	949894	keystroke_o	o	n/a
475.052	0.12	950104	keystroke_i	i	n/a
475.247	0.105	950494	keystroke_s	s	n/a
475.457	0.06	950914	keystroke_Key.space	Key.space	n/a
475.637	0.075	951274	keystroke_f	f	n/a
475.757	0.09	951514	keystroke_l	l	n/a
475.952	0.075	951904	keystroke_u	u	n/a
476.057	0.12	952114	keystroke_s	s	n/a
476.162	0.06	952324	keystroke_h	h	n/a
476.207	0.09	952414	keystroke_Key.space	Key.space	n/a
476.387	0.09	952774	keystroke_b	b	n/a
476.492	0.105	952984	keystroke_e	e	n/a
476.642	0.09	953284	keystroke_h	h	n/a
476.792	0.1345	953584	keystroke_i	i	n/a
476.8815	0.09	953763	keystroke_n	n	n/a
476.9865	0.12	953973	keystroke_d	d	n/a
477.0915	0.09	954183	keystroke_Key.space	Key.space	n/a
477.5865	0.075	955173	keystroke_t	t	n/a
477.7515	0.06	955503	keystroke_e	e	n/a
477.9165	0.105	955833	keystroke_s	s	n/a
478.0815	0.075	956163	keystroke_t	t	n/a
478.2765	0.105	956553	keystroke_a	a	n/a
478.4115	0.075	956823	keystroke_m	m	n/a
478.5015	0.075	957003	keystroke_e	e	n/a
478.6065	0.06	957213	keystroke_n	n	n/a
478.7115	0.09	957423	keystroke_t	t	n/a
478.9815	0.06	957963	keystroke_Key.enter	Key.enter	n/a
479.046	8.142	958092	prompt	n/a	role aluminium lexmark common\n
479.7165	0.105	959433	keystroke_r	r	n/a
479.8365	0.075	959673	keystroke_o	o	n/a
479.9715	0.105	959943	keystroke_s	s	n/a
480.0615	0.09	960123	keystroke_e	e	n/a
480.4665	0.06	960933	keystroke_Key.backspace	Key.backspace	n/a
480.6015	0.06	961203	keystroke_Key.backspace	Key.backspace	n/a
480.7815	0.06	961563	keystroke_l	l	n/a
480.8565	0.1205	961713	keystroke_s	s	n/a
480.9465	0.0755	961893	keystroke_e	e	n/a
481.082	0.06	962164	keystroke_Key.space	Key.space	n/a
481.652	0.03	963304	keystroke_Key.backspace	Key.backspace	n/a
481.757	0.075	963514	keystroke_Key.backspace	Key.backspace	n/a
481.907	0.09	963814	keystroke_Key.backspace	Key.backspace	n/a
482.162	0.09	964324	keystroke_e	e	n/a
482.312	0.0895	964624	keystroke_Key.space	Key.space	n/a
482.5215	0.09	965043	keystroke_a	a	n/a
482.5965	0.09	965193	keystroke_l	l	n/a
482.8365	0.045	965673	keystroke_u	u	n/a
483.0465	0.045	966093	keystroke_m	m	n/a
483.1965	0.075	966393	keystroke_i	i	n/a
483.2565	0.12	966513	keystroke_n	n	n/a
483.4665	0.06	966933	keystroke_u	u	n/a
483.7365	0.075	967473	keystroke_m	m	n/a
483.8715	0.075	967743	keystroke_Key.space	Key.space	n/a
484.2015	0.105	968403	keystroke_t	t	n/a
484.5465	0.06	969093	keystroke_Key.backspace	Key.backspace	n/a
484.7565	0.075	969513	keystroke_l	l	n/a
484.8165	0.075	969633	keystroke_e	e	n/a
485.0865	0.136	970173	keystroke_x	x	n/a
485.282	0.09	970564	keystroke_m	m	n/a
485.387	0.09	970774	keystroke_a	a	n/a
485.597	0.075	971194	keystroke_r	r	n/a
485.807	0.09	971614	keystroke_k	k	n/a
485.912	0.09	971824	keystroke_Key.space	Key.space	n/a
486.242	0.12	972484	keystroke_c	c	n/a
486.332	0.09	972664	keystroke_o	o	n/a
486.5115	0.06	973023	keystroke_m	m	n/a
486.6315	0.075	973263	keystroke_m	m	n/a
486.7815	0.12	973563	keystroke_o	o	n/a
486.8565	0.09	973713	keystroke_n	n	n/a
487.1265	0.06	974253	keystroke_Key.enter	Key.enter	n/a
487.191	6.192	974382	prompt	n/a	suite mines jonathan improve\n
487.802	0.135	975604	keystroke_s	s	n/a
488.012	0.105	976024	keystroke_u	u	n/a
488.192	0.09	976384	keystroke_i	i	n/a
488.357	0.075	976714	keystroke_t	t	n/a
488.552	0.045	977104	keystroke_e	e	n/a
488.657	0.075	977314	keystroke_Key.space	Key.space	n/a
488.852	0.06	977704	keystroke_m	m	n/a
488.987	0.105	977974	keystroke_i	i	n/a
489.032	0.1195	978064	keystroke_n	n	n/a
489.1365	0.06	978273	keystroke_e	e	n/a
489.3765	0.09	978753	keystroke_s	s	n/a
489.4965	0.0895	978993	keystroke_Key.space	Key.space	n/a
489.647	0.104	979294	keystroke_j	j	n/a
489.782	0.089	979564	keystroke_o	o	n/a
489.9465	0.09	979893	keystroke_n	n	n/a
490.0515	0.09	980103	keystroke_a	a	n/a
490.2765	0.075	980553	keystroke_t	t	n/a
490.3815	0.06	980763	keystroke_h	h	n/a
490.5315	0.135	981063	keystroke_a	a	n/a
490.6515	0.045	981303	keystroke_n	n	n/a
490.7115	0.075	981423	keystroke_Key.space	Key.space	n/a
491.0715	0.075	982143	keystroke_i	i	n/a
491.2215	0.0905	982443	keystroke_m	m	n/a
491.4165	0.1205	982833	keystroke_p	p	n/a
491.522	0.104	983044	keystroke_o	o	n/a
491.927	0.059	983854	keystroke_Key.backspace	Key.backspace	n/a
492.032	0.09	984064	keystroke_r	r	n/a
492.152	0.059	984304	keystroke_o	o	n/a
492.451	0.091	984902	keystroke_v	v	n/a
492.6315	0.09	985263	keystroke_e	e	n/a
