onset	duration	sample	value	key	prompt_text
13.022	7.4525	26044	prompt	n/a	the quick brown fox jumps over a lazy dog\n
15.276	0.1095	30552	keystroke_t	t	n/a
15.416	0.067	30832	keystroke_h	h	n/a
15.504	0.091	31008	keystroke_e	e	n/a
15.6465	0.134	31293	keystroke_Key.space	Key.space	n/a
15.781	0.109	31562	keystroke_q	q	n/a
15.912	0.091	31824	keystroke_u	u	n/a
16.004	0.111	32008	keystroke_c	c	n/a
16.115	0.088	32230	keystroke_k	k	n/a
16.3025	0.0885	32605	keystroke_Key.backspace	Key.backspace	n/a
16.652	0.133	33304	keystroke_Key.backspace	Key.backspace	n/a
16.9605	0.1105	33921	keystroke_i	i	n/a
17.092	0.0685	34184	keystroke_c	c	n/a
17.161	0.088	34322	keystroke_k	k	n/a
17.226	0.067	34452	keystroke_Key.space	Key.space	n/a
17.364	0.0915	34728	keystroke_b	b	n/a
17.431	0.1115	34862	keystroke_r	r	n/a
17.5435	0.0885	35087	keystroke_o	o	n/a
17.608	0.0915	35216	keystroke_w	w	n/a
17.7205	0.0685	35441	keystroke_n	n	n/a
17.7895	0.1105	35579	keystroke_Key.space	Key.space	n/a
17.8765	0.0895	35753	keystroke_f	f	n/a
17.989	0.067	35978	keystroke_o	o	n/a
18.078	0.091	36156	keystroke_x	x	n/a
18.169	0.068	36338	keystroke_Key.space	Key.space	n/a
18.272	0.0925	36544	keystroke_j	j	n/a
18.4105	0.069	36821	keystroke_u	u	n/a
18.608	0.0675	37216	keystroke_m	m	n/a
18.653	0.091	37306	keystroke_p	p	n/a
18.697	0.09	37394	keystroke_s	s	n/a
18.809	0.0675	37618	keystroke_Key.space	Key.space	n/a
18.917	0.087	37834	keystroke_o	o	n/a
19.005	0.088	38010	keystroke_v	v	n/a
19.069	0.091	38138	keystroke_e	e	n/a
19.207	0.092	38414	keystroke_r	r	n/a
19.3	0.089	38600	keystroke_Key.space	Key.space	n/a
19.4105	0.0885	38821	keystroke_a	a	n/a
19.5755	0.1335	39151	keystroke_Key.space	Key.space	n/a
19.742	0.091	39484	keystroke_l	l	n/a
19.899	0.046	39798	keystroke_a	a	n/a
19.976	0.091	39952	keystroke_z	z	n/a
20.1485	0.0675	40297	keystroke_y	y	n/a
20.404	0.0675	40808	keystroke_Key.enter	Key.enter	n/a
20.48	7.076	40960	prompt	n/a	determine engines dinner around\n
22.494	0.113	44988	keystroke_d	d	n/a
22.538	0.114	45076	keystroke_e	e	n/a
22.733	0.114	45466	keystroke_t	t	n/a
22.824	0.112	45648	keystroke_e	e	n/a
22.937	0.064	45874	keystroke_r	r	n/a
23.308	0.1345	46616	keystroke_m	m	n/a
23.4195	0.133	46839	keystroke_i	i	n/a
23.5305	0.0895	47061	keystroke_n	n	n/a
23.5965	0.09	47193	keystroke_e	e	n/a
23.724	0.114	47448	keystroke_Key.space	Key.space	n/a
23.953	0.046	47906	keystroke_d	d	n/a
24.051	0.087	48102	keystroke_e	e	n/a
24.194	0.093	48388	keystroke_Key.backspace	Key.backspace	n/a
24.346	0.1555	48692	keystroke_Key.backspace	Key.backspace	n/a
24.478	0.0685	48956	keystroke_e	e	n/a
24.575	0.0895	49150	keystroke_n	n	n/a
24.6655	0.0895	49331	keystroke_g	g	n/a
24.7765	0.0895	49553	keystroke_i	i	n/a
24.822	0.112	49644	keystroke_n	n	n/a
24.8885	0.0895	49777	keystroke_e	e	n/a
25.143	0.1135	50286	keystroke_s	s	n/a
25.288	0.1345	50576	keystroke_Key.space	Key.space	n/a
25.594	0.09	51188	keystroke_i	i	n/a
25.8015	0.1125	51603	keystroke_Key.backspace	Key.backspace	n/a
26.167	0.066	52334	keystroke_d	d	n/a
26.21	0.068	52420	keystroke_i	i	n/a
26.373	0.0655	52746	keystroke_n	n	n/a
26.488	0.0915	52976	keystroke_n	n	n/a
26.554	0.069	53108	keystroke_e	e	n/a
26.599	0.088	53198	keystroke_r	r	n/a
26.7835	0.0905	53567	keystroke_Key.space	Key.space	n/a
26.828	0.137	53656	keystroke_a	a	n/a
26.941	0.092	53882	keystroke_r	r	n/a
27.01	0.0675	54020	keystroke_o	o	n/a
27.144	0.067	54288	keystroke_u	u	n/a
27.309	0.069	54618	keystroke_n	n	n/a
27.379	0.086	54758	keystroke_d	d	n/a
27.466	0.088	54932	keystroke_Key.enter	Key.enter	n/a
27.56	6.2855	55120	prompt	n/a	spatial formerly dist mailman\n
29.1575	0.0905	58315	keystroke_s	s	n/a
29.2805	0.087	58561	keystroke_p	p	n/a
29.3885	0.0885	58777	keystroke_a	a	n/a
30.1945	0.1095	60389	keystroke_t	t	n/a
30.3255	0.046	60651	keystroke_i	i	n/a
30.3945	0.1135	60789	keystroke_a	a	n/a
30.509	0.064	61018	keystroke_l	l	n/a
30.5945	0.113	61189	keystroke_Key.space	Key.space	n/a
30.825	0.0675	61650	keystroke_f	f	n/a
30.8935	0.088	61787	keystroke_o	o	n/a
31.0355	0.0905	62071	keystroke_r	r	n/a
31.1475	0.073	62295	keystroke_m	m	n/a
31.1735	0.07	62347	keystroke_e	e	n/a
31.662	0.1095	63324	keystroke_r	r	n/a
31.7485	0.069	63497	keystroke_l	l	n/a
31.973	0.0685	63946	keystroke_y	y	n/a
32.0185	0.113	64037	keystroke_Key.space	Key.space	n/a
32.177	0.0675	64354	keystroke_d	d	n/a
32.2455	0.088	64491	keystroke_i	i	n/a
32.355	0.068	64710	keystroke_s	s	n/a
32.4615	0.1105	64923	keystroke_t	t	n/a
32.528	0.1095	65056	keystroke_Key.space	Key.space	n/a
32.713	0.092	65426	keystroke_m	m	n/a
32.781	0.134	65562	keystroke_a	a	n/a
32.8925	0.0675	65785	keystroke_i	i	n/a
33.055	0.114	66110	keystroke_l	l	n/a
33.389	0.068	66778	keystroke_m	m	n/a
33.492	0.1375	66984	keystroke_a	a	n/a
33.605	0.0695	67210	keystroke_n	n	n/a
33.776	0.068	67552	keystroke_Key.enter	Key.enter	n/a
33.849	6.73	67698	prompt	n/a	norfolk moderators friendly name\n
34.4735	0.091	68947	keystroke_n	n	n/a
34.5195	0.1115	69039	keystroke_o	o	n/a
34.6315	0.0455	69263	keystroke_r	r	n/a
34.8525	0.0705	69705	keystroke_f	f	n/a
34.8985	0.091	69797	keystroke_o	o	n/a
35.0495	0.092	70099	keystroke_l	l	n/a
35.223	0.0905	70446	keystroke_k	k	n/a
35.314	0.088	70628	keystroke_Key.space	Key.space	n/a
35.4635	0.1095	70927	keystroke_m	m	n/a
35.5515	0.092	71103	keystroke_o	o	n/a
35.743	0.114	71486	keystroke_d	d	n/a
35.811	0.1315	71622	keystroke_e	e	n/a
35.944	0.1085	71888	keystroke_r	r	n/a
36.0535	0.112	72107	keystroke_a	a	n/a
36.1865	0.1125	72373	keystroke_t	t	n/a
37.44	0.092	74880	keystroke_o	o	n/a
37.532	0.155	75064	keystroke_r	r	n/a
37.6185	0.1335	75237	keystroke_s	s	n/a
38.148	0.1115	76296	keystroke_Key.space	Key.space	n/a
38.3815	0.1365	76763	keystroke_f	f	n/a
38.4715	0.0885	76943	keystroke_i	i	n/a
38.583	0.0675	77166	keystroke_r	r	n/a
38.7135	0.089	77427	keystroke_Key.backspace	Key.backspace	n/a
38.8525	0.1145	77705	keystroke_Key.backspace	Key.backspace	n/a
38.9	0.0885	77800	keystroke_r	r	n/a
39.0185	0.089	78037	keystroke_i	i	n/a
39.1095	0.066	78219	keystroke_e	e	n/a
39.267	0.089	78534	keystroke_n	n	n/a
39.311	0.09	78622	keystroke_d	d	n/a
39.4605	0.09	78921	keystroke_l	l	n/a
39.6815	0.0655	79363	keystroke_y	y	n/a
39.776	0.088	79552	keystroke_Key.space	Key.space	n/a
39.95	0.0895	79900	keystroke_n	n	n/a
39.9715	0.0905	79943	keystroke_a	a	n/a
40.121	0.09	80242	keystroke_m	m	n/a
40.398	0.09	80796	keystroke_e	e	n/a
40.4885	0.089	80977	keystroke_Key.enter	Key.enter	n/a
40.583	11.8735	81166	prompt	n/a	clarity parenting operation specials\n
41.286	0.114	82572	keystroke_c	c	n/a
41.375	0.09	82750	keystroke_a	a	n/a
41.4425	0.0885	82885	keystroke_l	l	n/a
41.747	0.0885	83494	keystroke_Key.backspace	Key.backspace	n/a
41.893	0.0665	83786	keystroke_Key.backspace	Key.backspace	n/a
41.982	0.0695	83964	keystroke_l	l	n/a
42.1055	0.0905	84211	keystroke_a	a	n/a
42.218	0.022	84436	keystroke_i	i	n/a
42.5925	0.1335	85185	keystroke_Key.backspace	Key.backspace	n/a
42.7265	0.088	85453	keystroke_r	r	n/a
42.8965	0.0885	85793	keystroke_i	i	n/a
43.1185	0.0695	86237	keystroke_t	t	n/a
43.1885	0.089	86377	keystroke_y	y	n/a
43.2785	0.133	86557	keystroke_Key.space	Key.space	n/a
44.088	0.0885	88176	keystroke_p	p	n/a
44.154	0.156	88308	keystroke_a	a	n/a
44.2875	0.1125	88575	keystroke_r	r	n/a
44.376	0.068	88752	keystroke_e	e	n/a
44.446	0.0655	88892	keystroke_n	n	n/a
44.6285	0.113	89257	keystroke_t	t	n/a
45.3845	0.093	90769	keystroke_i	i	n/a
45.5645	0.09	91129	keystroke_n	n	n/a
45.6295	0.0685	91259	keystroke_g	g	n/a
45.9865	0.159	91973	keystroke_Key.space	Key.space	n/a
46.168	0.091	92336	keystroke_o	o	n/a
46.1895	0.117	92379	keystroke_p	p	n/a
46.2805	0.048	92561	keystroke_e	e	n/a
46.3075	0.1095	92615	keystroke_r	r	n/a
46.4485	0.112	92897	keystroke_a	a	n/a
46.5375	0.114	93075	keystroke_t	t	n/a
46.604	0.0695	93208	keystroke_i	i	n/a
46.6525	0.088	93305	keystroke_o	o	n/a
46.796	0.0895	93592	keystroke_n	n	n/a
47.2395	0.135	94479	keystroke_Key.space	Key.space	n/a
47.536	0.0895	95072	keystroke_s	s	n/a
47.7075	0.0675	95415	keystroke_o	o	n/a
47.752	0.068	95504	keystroke_e	e	n/a
47.862	0.112	95724	keystroke_c	c	n/a
48.006	0.1105	96012	keystroke_i	i	n/a
48.235	0.091	96470	keystroke_Key.backspace	Key.backspace	n/a
48.377	0.089	96754	keystroke_Key.backspace	Key.backspace	n/a
48.533	0.091	97066	keystroke_Key.backspace	Key.backspace	n/a
48.6855	0.0685	97371	keystroke_Key.backspace	Key.backspace	n/a
49.146	0.112	98292	keystroke_p	p	n/a
49.3345	0.155	98669	keystroke_c	c	n/a
49.467	0.0665	98934	keystroke_i	i	n/a
49.6095	0.1115	99219	keystroke_Key.backspace	Key.backspace	n/a
49.743	0.1135	99486	keystroke_e	e	n/a
49.8575	0.064	99715	keystroke_c	c	n/a
50.045	0.0905	100090	keystroke_i	i	n/a
50.238	0.089	100476	keystroke_Key.backspace	Key.backspace	n/a
50.4	0.0905	100800	keystroke_Key.backspace	Key.backspace	n/a
50.5635	0.089	101127	keystroke_Key.backspace	Key.backspace	n/a
50.7215	0.1135	101443	keystroke_Key.backspace	Key.backspace	n/a
50.836	0.112	101672	keystroke_e	e	n/a
50.923	0.0915	101846	keystroke_c	c	n/a
50.9915	0.0895	101983	keystroke_i	i	n/a
51.336	0.1555	102672	keystroke_a	a	n/a
51.492	0.091	102984	keystroke_l	l	n/a
51.7625	0.177	103525	keystroke_s	s	n/a
52.3195	0.1355	104639	keystroke_Key.enter	Key.enter	n/a
52.4605	13.3725	104921	prompt	n/a	attractions virginia users politicians\n
57.7795	0.1115	115559	keystroke_a	a	n/a
58.2835	0.113	116567	keystroke_t	t	n/a
58.4705	0.1145	116941	keystroke_t	t	n/a
58.561	0.069	117122	keystroke_r	r	n/a
58.6995	0.1365	117399	keystroke_a	a	n/a
58.813	0.0665	117626	keystroke_c	c	n/a
59.009	0.068	118018	keystroke_t	t	n/a
59.0985	0.1125	118197	keystroke_i	i	n/a
59.165	0.09	118330	keystroke_o	o	n/a
59.332	0.067	118664	keystroke_n	n	n/a
59.6385	0.092	119277	keystroke_s	s	n/a
59.751	0.11	119502	keystroke_Key.space	Key.space	n/a
60.1305	0.069	120261	keystroke_v	v	n/a
60.5715	0.068	121143	keystroke_i	i	n/a
60.9525	0.092	121905	keystroke_r	r	n/a
61.168	0.0675	122336	keystroke_g	g	n/a
61.2695	0.0895	122539	keystroke_i	i	n/a
61.521	0.0895	123042	keystroke_n	n	n/a
61.8715	0.091	123743	keystroke_a	a	n/a
62.136	0.134	124272	keystroke_Key.backspace	Key.backspace	n/a
62.293	0.068	124586	keystroke_i	i	n/a
62.4925	0.087	124985	keystroke_a	a	n/a
62.6335	0.067	125267	keystroke_n	n	n/a
63.004	0.0905	126008	keystroke_Key.backspace	Key.backspace	n/a
63.0705	0.1125	126141	keystroke_Key.space	Key.space	n/a
63.2135	0.067	126427	keystroke_u	u	n/a
63.3105	0.1365	126621	keystroke_s	s	n/a
63.5595	0.091	127119	keystroke_e	e	n/a
63.6275	0.114	127255	keystroke_r	r	n/a
63.7185	0.091	127437	keystroke_Key.space	Key.space	n/a
64.1825	0.091	128365	keystroke_p	p	n/a
64.3355	0.112	128671	keystroke_o	o	n/a
64.514	0.066	129028	keystroke_l	l	n/a
64.687	0.069	129374	keystroke_i	i	n/a
64.758	0.0865	129516	keystroke_t	t	n/a
64.867	0.0895	129734	keystroke_i	i	n/a
64.979	0.088	129958	keystroke_c	c	n/a
65.044	0.1115	130088	keystroke_a	a	n/a
65.5645	0.0895	131129	keystroke_n	n	n/a
65.676	0.089	131352	keystroke_s	s	n/a
65.766	0.065	131532	keystroke_Key.enter	Key.enter	n/a
65.8375	5.235	131675	prompt	n/a	offers mainland formal gain\n
66.5015	0.068	133003	keystroke_o	o	n/a
66.5915	0.09	133183	keystroke_f	f	n/a
66.7505	0.135	133501	keystroke_f	f	n/a
66.8615	0.134	133723	keystroke_e	e	n/a
66.9965	0.1095	133993	keystroke_r	r	n/a
67.1065	0.044	134213	keystroke_Key.space	Key.space	n/a
67.3385	0.089	134677	keystroke_m	m	n/a
67.4485	0.068	134897	keystroke_a	a	n/a
67.5385	0.1115	135077	keystroke_i	i	n/a
67.6265	0.069	135253	keystroke_n	n	n/a
67.913	0.09	135826	keystroke_l	l	n/a
67.98	0.11	135960	keystroke_a	a	n/a
68.1225	0.07	136245	keystroke_n	n	n/a
68.17	0.0885	136340	keystroke_d	d	n/a
68.2795	0.112	136559	keystroke_Key.space	Key.space	n/a
69.006	0.0685	138012	keystroke_f	f	n/a
69.095	0.09	138190	keystroke_o	o	n/a
69.2565	0.113	138513	keystroke_r	r	n/a
69.3705	0.066	138741	keystroke_m	m	n/a
69.4575	0.047	138915	keystroke_e	e	n/a
69.7115	0.112	139423	keystroke_Key.backspace	Key.backspace	n/a
69.8245	0.088	139649	keystroke_a	a	n/a
69.8905	0.1125	139781	keystroke_l	l	n/a
70.105	0.1345	140210	keystroke_Key.space	Key.space	n/a
70.3435	0.1145	140687	keystroke_g	g	n/a
70.5125	0.158	141025	keystroke_a	a	n/a
70.6465	0.069	141293	keystroke_i	i	n/a
70.8185	0.0665	141637	keystroke_n	n	n/a
70.981	0.0895	141962	keystroke_Key.enter	Key.enter	n/a
71.0795	10.7135	142159	prompt	n/a	webcast exclusive caution contests\n
74.515	0.112	149030	keystroke_w	w	n/a
74.581	0.114	149162	keystroke_e	e	n/a
74.695	0.091	149390	keystroke_b	b	n/a
75.5905	0.1125	151181	keystroke_c	c	n/a
75.6575	0.135	151315	keystroke_a	a	n/a
75.7685	0.114	151537	keystroke_s	s	n/a
75.9975	0.088	151995	keystroke_t	t	n/a
76.0635	0.1115	152127	keystroke_Key.space	Key.space	n/a
76.218	0.09	152436	keystroke_e	e	n/a
76.403	0.0675	152806	keystroke_x	x	n/a
76.6935	0.1125	153387	keystroke_c	c	n/a
77.0795	0.1095	154159	keystroke_l	l	n/a
77.445	0.0905	154890	keystroke_Key.backspace	Key.backspace	n/a
77.5905	0.0445	155181	keystroke_c	c	n/a
77.8995	0.1365	155799	keystroke_Key.backspace	Key.backspace	n/a
78.188	0.089	156376	keystroke_l	l	n/a
78.404	0.0665	156808	keystroke_u	u	n/a
78.4715	0.088	156943	keystroke_s	s	n/a
78.5905	0.0665	157181	keystroke_i	i	n/a
78.677	0.115	157354	keystroke_v	v	n/a
78.769	0.111	157538	keystroke_e	e	n/a
78.881	0.108	157762	keystroke_Key.space	Key.space	n/a
79.276	0.09	158552	keystroke_c	c	n/a
79.367	0.11	158734	keystroke_a	a	n/a
79.454	0.068	158908	keystroke_u	u	n/a
79.7425	0.1345	159485	keystroke_t	t	n/a
79.8545	0.0895	159709	keystroke_i	i	n/a
79.898	0.067	159796	keystroke_o	o	n/a
80.044	0.0915	160088	keystroke_n	n	n/a
80.1945	0.1115	160389	keystroke_Key.space	Key.space	n/a
80.329	0.07	160658	keystroke_c	c	n/a
80.399	0.0665	160798	keystroke_o	o	n/a
80.552	0.09	161104	keystroke_n	n	n/a
80.5965	0.112	161193	keystroke_t	t	n/a
80.685	0.0915	161370	keystroke_e	e	n/a
80.8335	0.0935	161667	keystroke_n	n	n/a
80.961	0.114	161922	keystroke_t	t	n/a
81.052	0.0685	162104	keystroke_s	s	n/a
81.242	0.087	162484	keystroke_Key.backspace	Key.backspace	n/a
81.3715	0.0875	162743	keystroke_Key.backspace	Key.backspace	n/a
81.4805	0.1345	162961	keystroke_s	s	n/a
81.592	0.11	163184	keystroke_t	t	n/a
81.723	0.0685	163446	keystroke_Key.enter	Key.enter	n/a
81.7965	6.9205	163593	prompt	n/a	signing record facing statutes\n
84.368	0.111	168736	keystroke_s	s	n/a
84.5015	0.0875	169003	keystroke_i	i	n/a
84.634	0.1105	169268	keystroke_g	g	n/a
84.766	0.0895	169532	keystroke_i	i	n/a
84.875	0.0885	169750	keystroke_n	n	n/a
84.9655	0.0875	169931	keystroke_g	g	n/a
85.099	0.113	170198	keystroke_Key.space	Key.space	n/a
85.3235	0.0905	170647	keystroke_r	r	n/a
85.3915	0.09	170783	keystroke_e	e	n/a
85.525	0.089	171050	keystroke_c	c	n/a
85.6145	0.0665	171229	keystroke_o	o	n/a
85.714	0.0895	171428	keystroke_r	r	n/a
85.898	0.091	171796	keystroke_d	d	n/a
86.0095	0.135	172019	keystroke_Key.space	Key.space	n/a
86.309	0.0695	172618	keystroke_f	f	n/a
86.3795	0.1325	172759	keystroke_a	a	n/a
86.5125	0.0645	173025	keystroke_c	c	n/a
86.873	0.091	173746	keystroke_i	i	n/a
87.0435	0.07	174087	keystroke_n	n	n/a
87.0885	0.069	174177	keystroke_g	g	n/a
87.1795	0.1105	174359	keystroke_Key.space	Key.space	n/a
87.659	0.089	175318	keystroke_s	s	n/a
87.9345	0.111	175869	keystroke_t	t	n/a
88.0475	0.107	176095	keystroke_a	a	n/a
88.1315	0.1115	176263	keystroke_t	t	n/a
88.264	0.068	176528	keystroke_u	u	n/a
88.379	0.0875	176758	keystroke_e	e	n/a
88.56	0.111	177120	keystroke_s	s	n/a
88.6265	0.0885	177253	keystroke_Key.enter	Key.enter	n/a
88.721	12.5245	177442	prompt	n/a	fonts notifications francisco villa\n
89.419	0.067	178838	keystroke_f	f	n/a
89.5075	0.07	179015	keystroke_o	o	n/a
89.6725	0.091	179345	keystroke_n	n	n/a
89.718	0.1335	179436	keystroke_t	t	n/a
89.7845	0.09	179569	keystroke_s	s	n/a
89.875	0.133	179750	keystroke_Key.space	Key.space	n/a
91.0435	0.0675	182087	keystroke_n	n	n/a
91.1785	0.1145	182357	keystroke_o	o	n/a
91.269	0.135	182538	keystroke_t	t	n/a
92.534	0.069	185068	keystroke_i	i	n/a
92.647	0.1125	185294	keystroke_f	f	n/a
92.936	0.114	185872	keystroke_t	t	n/a
93.051	0.134	186102	keystroke_i	i	n/a
93.139	0.113	186278	keystroke_o	o	n/a
93.5785	0.155	187157	keystroke_Key.backspace	Key.backspace	n/a
94.004	0.09	188008	keystroke_Key.backspace	Key.backspace	n/a
94.2175	0.0875	188435	keystroke_Key.backspace	Key.backspace	n/a
95.0695	0.158	190139	keystroke_Key.backspace	Key.backspace	n/a
95.6435	0.132	191287	keystroke_Key.backspace	Key.backspace	n/a
96.478	0.0895	192956	keystroke_i	i	n/a
96.7265	0.047	193453	keystroke_f	f	n/a
97.1885	0.089	194377	keystroke_i	i	n/a
97.2995	0.069	194599	keystroke_c	c	n/a
97.3225	0.137	194645	keystroke_a	a	n/a
97.5505	0.112	195101	keystroke_t	t	n/a
97.6385	0.069	195277	keystroke_i	i	n/a
97.6635	0.066	195327	keystroke_o	o	n/a
97.8075	0.091	195615	keystroke_n	n	n/a
97.8755	0.091	195751	keystroke_s	s	n/a
97.9665	0.11	195933	keystroke_Key.space	Key.space	n/a
98.496	0.1555	196992	keystroke_r	r	n/a
98.583	0.046	197166	keystroke_a	a	n/a
98.792	0.09	197584	keystroke_Key.backspace	Key.backspace	n/a
98.943	0.091	197886	keystroke_Key.backspace	Key.backspace	n/a
99.035	0.1125	198070	keystroke_f	f	n/a
99.079	0.113	198158	keystroke_r	r	n/a
99.169	0.154	198338	keystroke_a	a	n/a
99.279	0.112	198558	keystroke_n	n	n/a
99.5675	0.0885	199135	keystroke_c	c	n/a
99.718	0.067	199436	keystroke_i	i	n/a
99.785	0.091	199570	keystroke_s	s	n/a
100.062	0.136	200124	keystroke_c	c	n/a
100.13	0.0915	200260	keystroke_o	o	n/a
100.3215	0.112	200643	keystroke_Key.space	Key.space	n/a
100.6545	0.093	201309	keystroke_v	v	n/a
100.698	0.094	201396	keystroke_i	i	n/a
100.8765	0.068	201753	keystroke_l	l	n/a
101.0015	0.0425	202003	keystroke_l	l	n/a
101.046	0.11	202092	keystroke_a	a	n/a
101.157	0.087	202314	keystroke_Key.enter	Key.enter	n/a
101.2505	5.7505	202501	prompt	n/a	celebration premium small gallery\n
101.713	0.1125	203426	keystroke_c	c	n/a
101.8265	0.0215	203653	keystroke_a	a	n/a
102.2165	0.113	204433	keystroke_Key.backspace	Key.backspace	n/a
102.3055	0.069	204611	keystroke_e	e	n/a
102.3955	0.089	204791	keystroke_l	l	n/a
102.5055	0.045	205011	keystroke_e	e	n/a
102.6705	0.071	205341	keystroke_b	b	n/a
103.286	0.112	206572	keystroke_r	r	n/a
103.375	0.112	206750	keystroke_a	a	n/a
103.488	0.113	206976	keystroke_t	t	n/a
103.554	0.048	207108	keystroke_i	i	n/a
103.576	0.092	207152	keystroke_o	o	n/a
103.761	0.046	207522	keystroke_n	n	n/a
104.085	0.137	208170	keystroke_Key.space	Key.space	n/a
104.308	0.091	208616	keystroke_p	p	n/a
104.3535	0.1125	208707	keystroke_r	r	n/a
104.4	0.0885	208800	keystroke_e	e	n/a
104.511	0.069	209022	keystroke_m	m	n/a
104.557	0.068	209114	keystroke_i	i	n/a
104.873	0.156	209746	keystroke_u	u	n/a
105.005	0.091	210010	keystroke_m	m	n/a
105.2475	0.113	210495	keystroke_Key.space	Key.space	n/a
105.5675	0.1125	211135	keystroke_s	s	n/a
105.656	0.0685	211312	keystroke_m	m	n/a
105.8325	0.1135	211665	keystroke_a	a	n/a
105.922	0.0465	211844	keystroke_l	l	n/a
106.038	0.0675	212076	keystroke_l	l	n/a
106.1345	0.111	212269	keystroke_Key.space	Key.space	n/a
106.2465	0.088	212493	keystroke_g	g	n/a
106.311	0.114	212622	keystroke_a	a	n/a
106.4005	0.047	212801	keystroke_l	l	n/a
106.5015	0.066	213003	keystroke_l	l	n/a
106.5895	0.09	213179	keystroke_e	e	n/a
106.6335	0.112	213267	keystroke_r	r	n/a
106.7465	0.044	213493	keystroke_y	y	n/a
106.9305	0.068	213861	keystroke_Key.enter	Key.enter	n/a
107.004	10.134	214008	prompt	n/a	isolated football allocation photograph\n
108.0735	0.088	216147	keystroke_i	i	n/a
108.183	0.0665	216366	keystroke_s	s	n/a
108.2735	0.091	216547	keystroke_o	o	n/a
108.4185	0.1125	216837	keystroke_l	l	n/a
108.4635	0.1135	216927	keystroke_t	t	n/a
108.508	0.113	217016	keystroke_e	e	n/a
108.694	0.1115	217388	keystroke_d	d	n/a
108.783	0.0895	217566	keystroke_Key.space	Key.space	n/a
109.0435	0.09	218087	keystroke_o	o	n/a
109.409	0.0885	218818	keystroke_Key.backspace	Key.backspace	n/a
109.9375	0.091	219875	keystroke_f	f	n/a
110.0485	0.046	220097	keystroke_o	o	n/a
110.1755	0.069	220351	keystroke_o	o	n/a
110.2205	0.1345	220441	keystroke_t	t	n/a
110.6135	0.112	221227	keystroke_b	b	n/a
110.7035	0.114	221407	keystroke_a	a	n/a
110.7475	0.0685	221495	keystroke_l	l	n/a
110.8775	0.092	221755	keystroke_l	l	n/a
110.991	0.0675	221982	keystroke_Key.space	Key.space	n/a
111.0595	0.109	222119	keystroke_a	a	n/a
111.1915	0.066	222383	keystroke_l	l	n/a
111.3495	0.069	222699	keystroke_o	o	n/a
111.4805	0.09	222961	keystroke_o	o	n/a
111.6185	0.133	223237	keystroke_c	c	n/a
112.0675	0.114	224135	keystroke_a	a	n/a
112.1575	0.1335	224315	keystroke_t	t	n/a
112.2455	0.089	224491	keystroke_i	i	n/a
112.3125	0.067	224625	keystroke_o	o	n/a
112.4655	0.067	224931	keystroke_n	n	n/a
112.5535	0.1145	225107	keystroke_Key.space	Key.space	n/a
112.7115	0.0475	225423	keystroke_a	a	n/a
112.868	0.0455	225736	keystroke_p	p	n/a
113.068	0.1355	226136	keystroke_Key.backspace	Key.backspace	n/a
113.298	0.132	226596	keystroke_p	p	n/a
113.432	0.107	226864	keystroke_h	h	n/a
113.604	0.089	227208	keystroke_Key.backspace	Key.backspace	n/a
113.7745	0.09	227549	keystroke_Key.backspace	Key.backspace	n/a
113.9345	0.0695	227869	keystroke_Key.backspace	Key.backspace	n/a
114.18	0.154	228360	keystroke_p	p	n/a
114.3345	0.1565	228669	keystroke_h	h	n/a
114.4225	0.091	228845	keystroke_o	o	n/a
115.7475	0.0895	231495	keystroke_t	t	n/a
115.8805	0.11	231761	keystroke_o	o	n/a
116.2525	0.1345	232505	keystroke_g	g	n/a
116.32	0.133	232640	keystroke_r	r	n/a
116.4975	0.156	232995	keystroke_a	a	n/a
116.6295	0.09	233259	keystroke_p	p	n/a
116.8365	0.066	233673	keystroke_h	h	n/a
117.0465	0.09	234093	keystroke_Key.enter	Key.enter	n/a
117.1425	5.2075	234285	prompt	n/a	oven santa merchandise schools\n
117.7675	0.0905	235535	keystroke_o	o	n/a
117.8125	0.156	235625	keystroke_v	v	n/a
117.946	0.09	235892	keystroke_e	e	n/a
118.0365	0.112	236073	keystroke_n	n	n/a
118.149	0.132	236298	keystroke_Key.space	Key.space	n/a
118.458	0.1155	236916	keystroke_s	s	n/a
118.5495	0.1135	237099	keystroke_a	a	n/a
118.664	0.09	237328	keystroke_n	n	n/a
118.805	0.1115	237610	keystroke_t	t	n/a
118.893	0.0905	237786	keystroke_a	a	n/a
119.005	0.088	238010	keystroke_Key.space	Key.space	n/a
119.191	0.091	238382	keystroke_m	m	n/a
119.235	0.091	238470	keystroke_e	e	n/a
119.282	0.091	238564	keystroke_r	r	n/a
119.458	0.068	238916	keystroke_c	c	n/a
119.547	0.071	239094	keystroke_h	h	n/a
119.639	0.0905	239278	keystroke_a	a	n/a
120.08	0.089	240160	keystroke_n	n	n/a
120.17	0.089	240340	keystroke_d	d	n/a
120.307	0.09	240614	keystroke_i	i	n/a
120.598	0.069	241196	keystroke_s	s	n/a
120.753	0.0675	241506	keystroke_e	e	n/a
120.952	0.115	241904	keystroke_Key.space	Key.space	n/a
121.179	0.1115	242358	keystroke_s	s	n/a
121.415	0.113	242830	keystroke_c	c	n/a
121.529	0.0885	243058	keystroke_h	h	n/a
121.572	0.0915	243144	keystroke_o	o	n/a
121.726	0.0895	243452	keystroke_o	o	n/a
121.939	0.091	243878	keystroke_l	l	n/a
122.031	0.087	244062	keystroke_s	s	n/a
122.259	0.089	244518	keystroke_Key.enter	Key.enter	n/a
122.354	4.7555	244708	prompt	n/a	garden micro calm y'all\n
123.891	0.092	247782	keystroke_g	g	n/a
123.959	0.1355	247918	keystroke_a	a	n/a
124.071	0.068	248142	keystroke_r	r	n/a
124.243	0.1145	248486	keystroke_d	d	n/a
124.31	0.091	248620	keystroke_e	e	n/a
124.358	0.088	248716	keystroke_n	n	n/a
124.467	0.1115	248934	keystroke_Key.space	Key.space	n/a
124.708	0.088	249416	keystroke_m	m	n/a
124.752	0.089	249504	keystroke_i	i	n/a
124.842	0.1095	249684	keystroke_c	c	n/a
124.9815	0.111	249963	keystroke_r	r	n/a
125.0475	0.112	250095	keystroke_o	o	n/a
125.1365	0.135	250273	keystroke_Key.space	Key.space	n/a
125.4175	0.1105	250835	keystroke_c	c	n/a
125.529	0.066	251058	keystroke_o	o	n/a
125.596	0.084	251192	keystroke_a	a	n/a
125.7135	0.0875	251427	keystroke_Key.backspace	Key.backspace	n/a
125.861	0.086	251722	keystroke_Key.backspace	Key.backspace	n/a
125.949	0.089	251898	keystroke_a	a	n/a
125.9695	0.0905	251939	keystroke_l	l	n/a
126.154	0.112	252308	keystroke_m	m	n/a
126.2415	0.0905	252483	keystroke_Key.space	Key.space	n/a
126.45	0.068	252900	keystroke_y	y	n/a
126.519	0.109	253038	keystroke_a	a	n/a
126.649	0.068	253298	keystroke_l	l	n/a
126.777	0.067	253554	keystroke_l	l	n/a
126.995	0.112	253990	keystroke_Key.enter	Key.enter	n/a
127.1135	5.6625	254227	prompt	n/a	implied servers verizon monetary\n
127.5935	0.112	255187	keystroke_i	i	n/a
127.7665	0.1115	255533	keystroke_m	m	n/a
127.8785	0.089	255757	keystroke_p	p	n/a
128.0165	0.1135	256033	keystroke_l	l	n/a
128.229	0.0905	256458	keystroke_i	i	n/a
128.296	0.068	256592	keystroke_e	e	n/a
128.404	0.0895	256808	keystroke_d	d	n/a
128.47	0.137	256940	keystroke_Key.space	Key.space	n/a
128.6285	0.1125	257257	keystroke_s	s	n/a
128.7885	0.091	257577	keystroke_e	e	n/a
128.8555	0.0905	257711	keystroke_r	r	n/a
129.037	0.1125	258074	keystroke_v	v	n/a
129.126	0.1095	258252	keystroke_e	e	n/a
129.713	0.1115	259426	keystroke_r	r	n/a
129.8885	0.134	259777	keystroke_s	s	n/a
130.167	0.132	260334	keystroke_Key.space	Key.space	n/a
130.38	0.0485	260760	keystroke_v	v	n/a
130.4285	0.111	260857	keystroke_e	e	n/a
130.8495	0.112	261699	keystroke_r	r	n/a
131.119	0.1105	262238	keystroke_i	i	n/a
131.2505	0.1135	262501	keystroke_z	z	n/a
131.365	0.066	262730	keystroke_o	o	n/a
131.489	0.089	262978	keystroke_n	n	n/a
131.579	0.0665	263158	keystroke_e	e	n/a
131.6455	0.0885	263291	keystroke_Key.space	Key.space	n/a
131.755	0.0875	263510	keystroke_m	m	n/a
131.872	0.0915	263744	keystroke_e	e	n/a
131.964	0.0915	263928	keystroke_n	n	n/a
132.0925	0.114	264185	keystroke_t	t	n/a
132.2555	0.1805	264511	keystroke_a	a	n/a
132.3885	0.113	264777	keystroke_r	r	n/a
132.4785	0.089	264957	keystroke_y	y	n/a
132.662	0.1125	265324	keystroke_Key.enter	Key.enter	n/a
132.78	8.8415	265560	prompt	n/a	stronger vehicle patrick stamp\n
137.334	0.09	274668	keystroke_s	s	n/a
137.564	0.092	275128	keystroke_t	t	n/a
137.631	0.071	275262	keystroke_r	r	n/a
137.657	0.089	275314	keystroke_o	o	n/a
137.8305	0.093	275661	keystroke_n	n	n/a
137.9	0.09	275800	keystroke_g	g	n/a
137.967	0.0905	275934	keystroke_e	e	n/a
138.079	0.0685	276158	keystroke_r	r	n/a
138.123	0.0925	276246	keystroke_Key.space	Key.space	n/a
138.276	0.1135	276552	keystroke_v	v	n/a
138.3655	0.1145	276731	keystroke_e	e	n/a
138.617	0.0465	277234	keystroke_c	c	n/a
138.9105	0.112	277821	keystroke_Key.backspace	Key.backspace	n/a
139.1125	0.0905	278225	keystroke_h	h	n/a
139.157	0.0915	278314	keystroke_i	i	n/a
139.2495	0.065	278499	keystroke_c	c	n/a
139.389	0.089	278778	keystroke_l	l	n/a
139.455	0.091	278910	keystroke_e	e	n/a
139.5775	0.1115	279155	keystroke_Key.space	Key.space	n/a
139.7705	0.09	279541	keystroke_p	p	n/a
139.8815	0.089	279763	keystroke_a	a	n/a
140.0405	0.113	280081	keystroke_t	t	n/a
140.108	0.068	280216	keystroke_r	r	n/a
140.348	0.115	280696	keystroke_i	i	n/a
140.464	0.0895	280928	keystroke_c	c	n/a
140.597	0.09	281194	keystroke_k	k	n/a
140.8905	0.1345	281781	keystroke_Key.space	Key.space	n/a
140.98	0.112	281960	keystroke_s	s	n/a
141.204	0.089	282408	keystroke_r	r	n/a
141.27	0.1115	282540	keystroke_a	a	n/a
141.294	0.1315	282588	keystroke_m	m	n/a
141.403	0.067	282806	keystroke_p	p	n/a
141.531	0.089	283062	keystroke_Key.enter	Key.enter	n/a
141.625	5.6605	283250	prompt	n/a	integer jose restoration light\n
142.3325	0.0665	284665	keystroke_i	i	n/a
142.504	0.0885	285008	keystroke_n	n	n/a
142.5465	0.09	285093	keystroke_t	t	n/a
142.6135	0.1125	285227	keystroke_e	e	n/a
142.7475	0.045	285495	keystroke_r	r	n/a
142.9865	0.0685	285973	keystroke_g	g	n/a
143.0305	0.1365	286061	keystroke_e	e	n/a
143.326	0.067	286652	keystroke_Key.backspace	Key.backspace	n/a
143.476	0.0905	286952	keystroke_Key.backspace	Key.backspace	n/a
143.632	0.111	287264	keystroke_Key.backspace	Key.backspace	n/a
143.699	0.09	287398	keystroke_g	g	n/a
143.7665	0.1365	287533	keystroke_e	e	n/a
143.88	0.0895	287760	keystroke_r	r	n/a
143.999	0.132	287998	keystroke_Key.space	Key.space	n/a
144.3305	0.0895	288661	keystroke_j	j	n/a
144.396	0.0695	288792	keystroke_o	o	n/a
144.4865	0.112	288973	keystroke_s	s	n/a
144.683	0.113	289366	keystroke_e	e	n/a
144.772	0.0905	289544	keystroke_Key.space	Key.space	n/a
145.1455	0.0895	290291	keystroke_r	r	n/a
145.2115	0.068	290423	keystroke_e	e	n/a
145.411	0.07	290822	keystroke_s	s	n/a
145.482	0.1305	290964	keystroke_t	t	n/a
145.634	0.0905	291268	keystroke_o	o	n/a
145.702	0.0895	291404	keystroke_r	r	n/a
145.7925	0.155	291585	keystroke_a	a	n/a
145.9245	0.1345	291849	keystroke_t	t	n/a
146.0595	0.0455	292119	keystroke_i	i	n/a
146.082	0.0895	292164	keystroke_o	o	n/a
146.247	0.0875	292494	keystroke_n	n	n/a
146.3555	0.113	292711	keystroke_Key.space	Key.space	n/a
146.5925	0.065	293185	keystroke_l	l	n/a
146.7365	0.091	293473	keystroke_i	i	n/a
146.804	0.09	293608	keystroke_g	g	n/a
146.9285	0.068	293857	keystroke_h	h	n/a
146.9725	0.091	293945	keystroke_t	t	n/a
147.1945	0.089	294389	keystroke_Key.enter	Key.enter	n/a
147.2895	7.5815	294579	prompt	n/a	nested excellent runs prototype\n
147.8095	0.0685	295619	keystroke_n	n	n/a
147.8535	0.069	295707	keystroke_e	e	n/a
148.1345	0.087	296269	keystroke_s	s	n/a
148.2515	0.0685	296503	keystroke_t	t	n/a
148.3515	0.068	296703	keystroke_e	e	n/a
148.4985	0.09	296997	keystroke_d	d	n/a
148.5435	0.132	297087	keystroke_Key.space	Key.space	n/a
149.022	0.068	298044	keystroke_e	e	n/a
149.201	0.1305	298402	keystroke_x	x	n/a
149.4135	0.089	298827	keystroke_c	c	n/a
149.5035	0.065	299007	keystroke_e	e	n/a
149.5895	0.0695	299179	keystroke_l	l	n/a
149.726	0.114	299452	keystroke_l	l	n/a
149.872	0.07	299744	keystroke_e	e	n/a
149.998	0.068	299996	keystroke_n	n	n/a
150.043	0.088	300086	keystroke_t	t	n/a
150.1525	0.0885	300305	keystroke_Key.space	Key.space	n/a
150.263	0.088	300526	keystroke_r	r	n/a
150.374	0.069	300748	keystroke_u	u	n/a
150.529	0.0915	301058	keystroke_n	n	n/a
150.575	0.0675	301150	keystroke_s	s	n/a
150.6925	0.1105	301385	keystroke_Key.space	Key.space	n/a
150.825	0.1155	301650	keystroke_p	p	n/a
150.8255	0.069	301651	keystroke_r	r	n/a
151.08	0.088	302160	keystroke_o	o	n/a
151.5305	0.0905	303061	keystroke_Key.space	Key.space	n/a
151.844	0.111	303688	keystroke_Key.backspace	Key.backspace	n/a
152.026	0.113	304052	keystroke_t	t	n/a
152.186	0.089	304372	keystroke_o	o	n/a
153.8165	0.1105	307633	keystroke_t	t	n/a
154.066	0.111	308132	keystroke_y	y	n/a
154.496	0.09	308992	keystroke_p	p	n/a
154.541	0.09	309082	keystroke_e	e	n/a
154.759	0.1105	309518	keystroke_Key.enter	Key.enter	n/a
154.877	9.5625	309754	prompt	n/a	lightbox scores fighting ensemble\n
155.9135	0.092	311827	keystroke_l	l	n/a
156.0925	0.0895	312185	keystroke_i	i	n/a
156.1825	0.086	312365	keystroke_g	g	n/a
156.2985	0.089	312597	keystroke_h	h	n/a
156.4095	0.09	312819	keystroke_t	t	n/a
156.676	0.1115	313352	keystroke_s	s	n/a
156.7885	0.11	313577	keystroke_Key.space	Key.space	n/a
157.1405	0.136	314281	keystroke_Key.backspace	Key.backspace	n/a
157.3675	0.1125	314735	keystroke_Key.backspace	Key.backspace	n/a
157.631	0.1135	315262	keystroke_b	b	n/a
157.676	0.112	315352	keystroke_o	o	n/a
157.81	0.0905	315620	keystroke_x	x	n/a
157.922	0.135	315844	keystroke_Key.space	Key.space	n/a
158.011	0.0895	316022	keystroke_s	s	n/a
158.132	0.0685	316264	keystroke_c	c	n/a
158.435	0.1115	316870	keystroke_o	o	n/a
158.522	0.1125	317044	keystroke_r	r	n/a
158.59	0.0675	317180	keystroke_e	e	n/a
158.6975	0.135	317395	keystroke_Key.space	Key.space	n/a
159.34	0.0875	318680	keystroke_Key.backspace	Key.backspace	n/a
159.405	0.09	318810	keystroke_f	f	n/a
159.4955	0.108	318991	keystroke_i	i	n/a
159.7645	0.092	319529	keystroke_Key.backspace	Key.backspace	n/a
159.9115	0.133	319823	keystroke_Key.backspace	Key.backspace	n/a
160.0455	0.153	320091	keystroke_Key.space	Key.space	n/a
160.3385	0.113	320677	keystroke_f	f	n/a
160.4525	0.09	320905	keystroke_i	i	n/a
160.582	0.1115	321164	keystroke_g	g	n/a
160.7235	0.1125	321447	keystroke_h	h	n/a
160.942	0.111	321884	keystroke_t	t	n/a
161.159	0.111	322318	keystroke_i	i	n/a
161.334	0.0895	322668	keystroke_n	n	n/a
161.377	0.112	322754	keystroke_g	g	n/a
161.9275	0.154	323855	keystroke_Key.space	Key.space	n/a
162.117	0.11	324234	keystroke_e	e	n/a
162.2485	0.0685	324497	keystroke_n	n	n/a
162.41	0.0905	324820	keystroke_s	s	n/a
162.547	0.1345	325094	keystroke_e	e	n/a
162.79	0.09	325580	keystroke_m	m	n/a
163.3755	0.0665	326751	keystroke_b	b	n/a
163.5465	0.0665	327093	keystroke_e	e	n/a
163.8235	0.111	327647	keystroke_Key.backspace	Key.backspace	n/a
164.1485	0.088	328297	keystroke_l	l	n/a
164.2375	0.067	328475	keystroke_e	e	n/a
164.3475	0.09	328695	keystroke_Key.enter	Key.enter	n/a
164.4435	3.4085	328887	prompt	n/a	legally deals clause signal\n
164.941	0.089	329882	keystroke_l	l	n/a
165.0075	0.0665	330015	keystroke_e	e	n/a
165.097	0.09	330194	keystroke_g	g	n/a
165.208	0.113	330416	keystroke_a	a	n/a
165.2985	0.0445	330597	keystroke_l	l	n/a
165.395	0.066	330790	keystroke_l	l	n/a
165.612	0.09	331224	keystroke_y	y	n/a
165.703	0.088	331406	keystroke_Key.space	Key.space	n/a
165.7445	0.0915	331489	keystroke_d	d	n/a
165.767	0.1355	331534	keystroke_e	e	n/a
165.934	0.131	331868	keystroke_a	a	n/a
166.067	0.088	332134	keystroke_l	l	n/a
166.176	0.088	332352	keystroke_s	s	n/a
166.266	0.1125	332532	keystroke_Key.space	Key.space	n/a
166.3995	0.0685	332799	keystroke_c	c	n/a
166.4915	0.091	332983	keystroke_l	l	n/a
166.583	0.0875	333166	keystroke_a	a	n/a
166.713	0.0895	333426	keystroke_u	u	n/a
166.7795	0.0685	333559	keystroke_s	s	n/a
166.9255	0.09	333851	keystroke_e	e	n/a
167.0155	0.112	334031	keystroke_Key.space	Key.space	n/a
167.1285	0.088	334257	keystroke_s	s	n/a
167.217	0.091	334434	keystroke_i	i	n/a
167.284	0.1115	334568	keystroke_g	g	n/a
167.4165	0.067	334833	keystroke_n	n	n/a
167.5045	0.112	335009	keystroke_a	a	n/a
167.6165	0.091	335233	keystroke_l	l	n/a
167.7615	0.089	335523	keystroke_Key.enter	Key.enter	n/a
167.855	5.875	335710	prompt	n/a	walter economics studies contributors\n
168.663	0.1115	337326	keystroke_w	w	n/a
168.728	0.113	337456	keystroke_a	a	n/a
168.795	0.09	337590	keystroke_l	l	n/a
168.9575	0.1335	337915	keystroke_t	t	n/a
169.068	0.0905	338136	keystroke_e	e	n/a
169.1595	0.065	338319	keystroke_r	r	n/a
169.2255	0.1125	338451	keystroke_Key.space	Key.space	n/a
169.3585	0.113	338717	keystroke_e	e	n/a
169.6045	0.113	339209	keystroke_c	c	n/a
169.718	0.067	339436	keystroke_o	o	n/a
169.878	0.0895	339756	keystroke_n	n	n/a
169.9685	0.0885	339937	keystroke_i	i	n/a
170.198	0.1565	340396	keystroke_m	m	n/a
170.3555	0.087	340711	keystroke_i	i	n/a
170.3755	0.115	340751	keystroke_c	c	n/a
170.467	0.0885	340934	keystroke_s	s	n/a
170.5765	0.115	341153	keystroke_Key.space	Key.space	n/a
171.099	0.134	342198	keystroke_s	s	n/a
171.284	0.091	342568	keystroke_t	t	n/a
171.351	0.0685	342702	keystroke_u	u	n/a
171.4665	0.092	342933	keystroke_d	d	n/a
171.5795	0.0685	343159	keystroke_i	i	n/a
171.625	0.0885	343250	keystroke_e	e	n/a
171.816	0.0885	343632	keystroke_s	s	n/a
171.9505	0.109	343901	keystroke_Key.space	Key.space	n/a
172.194	0.09	344388	keystroke_c	c	n/a
172.305	0.046	344610	keystroke_o	o	n/a
172.444	0.0905	344888	keystroke_n	n	n/a
172.489	0.113	344978	keystroke_t	t	n/a
172.5555	0.0895	345111	keystroke_r	r	n/a
172.667	0.0885	345334	keystroke_i	i	n/a
173.048	0.1105	346096	keystroke_b	b	n/a
173.1795	0.0675	346359	keystroke_u	u	n/a
173.2965	0.09	346593	keystroke_t	t	n/a
173.416	0.088	346832	keystroke_o	o	n/a
173.505	0.09	347010	keystroke_r	r	n/a
173.5705	0.069	347141	keystroke_s	s	n/a
173.661	0.0665	347322	keystroke_Key.enter	Key.enter	n/a
173.7415	4.7665	347483	prompt	n/a	outdoors flying couple sbjct\n
174.2565	0.0895	348513	keystroke_o	o	n/a
174.4395	0.0905	348879	keystroke_u	u	n/a
174.4845	0.0685	348969	keystroke_t	t	n/a
174.667	0.09	349334	keystroke_d	d	n/a
174.735	0.066	349470	keystroke_o	o	n/a
174.851	0.09	349702	keystroke_o	o	n/a
174.917	0.111	349834	keystroke_r	r	n/a
175.176	0.07	350352	keystroke_s	s	n/a
175.2675	0.0235	350535	keystroke_s	s	n/a
175.5485	0.112	351097	keystroke_Key.space	Key.space	n/a
175.662	0.0895	351324	keystroke_f	f	n/a
175.7055	0.1115	351411	keystroke_l	l	n/a
175.9525	0.0655	351905	keystroke_y	y	n/a
176.109	0.0895	352218	keystroke_i	i	n/a
176.237	0.0915	352474	keystroke_n	n	n/a
176.3035	0.0905	352607	keystroke_g	g	n/a
176.4145	0.09	352829	keystroke_Key.space	Key.space	n/a
176.723	0.09	353446	keystroke_c	c	n/a
176.767	0.069	353534	keystroke_o	o	n/a
176.901	0.091	353802	keystroke_u	u	n/a
176.969	0.089	353938	keystroke_p	p	n/a
177.0965	0.0905	354193	keystroke_l	l	n/a
177.188	0.09	354376	keystroke_e	e	n/a
177.279	0.065	354558	keystroke_Key.space	Key.space	n/a
177.451	0.092	354902	keystroke_s	s	n/a
177.564	0.044	355128	keystroke_b	b	n/a
177.7295	0.091	355459	keystroke_h	h	n/a
177.978	0.089	355956	keystroke_Key.backspace	Key.backspace	n/a
178.068	0.066	356136	keystroke_c	c	n/a
178.258	0.1355	356516	keystroke_t	t	n/a
178.4155	0.09	356831	keystroke_Key.enter	Key.enter	n/a
178.512	12.194	357024	prompt	n/a	cheese desktop interests illustration\n
179.6905	0.089	359381	keystroke_c	c	n/a
179.8635	0.091	359727	keystroke_h	h	n/a
179.9555	0.069	359911	keystroke_e	e	n/a
180.0975	0.0685	360195	keystroke_e	e	n/a
180.2505	0.067	360501	keystroke_s	s	n/a
180.4075	0.069	360815	keystroke_e	e	n/a
180.5005	0.09	361001	keystroke_Key.space	Key.space	n/a
180.7555	0.112	361511	keystroke_c	c	n/a
180.9835	0.089	361967	keystroke_Key.backspace	Key.backspace	n/a
181.0495	0.1155	362099	keystroke_d	d	n/a
181.1185	0.0675	362237	keystroke_e	e	n/a
181.29	0.0905	362580	keystroke_k	k	n/a
181.415	0.11	362830	keystroke_s	s	n/a
181.625	0.091	363250	keystroke_Key.backspace	Key.backspace	n/a
181.782	0.09	363564	keystroke_Key.backspace	Key.backspace	n/a
181.849	0.111	363698	keystroke_s	s	n/a
182.101	0.091	364202	keystroke_k	k	n/a
185.343	0.116	370686	keystroke_t	t	n/a
185.434	0.137	370868	keystroke_p	p	n/a
185.435	0.092	370870	keystroke_o	o	n/a
185.6075	0.133	371215	keystroke_Key.space	Key.space	n/a
186.39	0.1135	372780	keystroke_i	i	n/a
186.5925	0.1145	373185	keystroke_n	n	n/a
186.6615	0.09	373323	keystroke_t	t	n/a
186.7285	0.1345	373457	keystroke_e	e	n/a
186.8405	0.134	373681	keystroke_r	r	n/a
186.9505	0.1315	373901	keystroke_e	e	n/a
187.2105	0.09	374421	keystroke_s	s	n/a
187.4195	0.11	374839	keystroke_t	t	n/a
188.092	0.1555	376184	keystroke_s	s	n/a
188.2495	0.1305	376499	keystroke_Key.space	Key.space	n/a
188.848	0.068	377696	keystroke_i	i	n/a
189.0085	0.0895	378017	keystroke_l	l	n/a
189.141	0.0885	378282	keystroke_l	l	n/a
189.3505	0.0665	378701	keystroke_u	u	n/a
189.5035	0.088	379007	keystroke_s	s	n/a
189.7295	0.092	379459	keystroke_t	t	n/a
189.7745	0.091	379549	keystroke_r	r	n/a
189.964	0.156	379928	keystroke_a	a	n/a
190.097	0.0925	380194	keystroke_t	t	n/a
190.2115	0.068	380423	keystroke_i	i	n/a
190.2565	0.09	380513	keystroke_o	o	n/a
190.412	0.0905	380824	keystroke_n	n	n/a
190.636	0.0685	381272	keystroke_Key.enter	Key.enter	n/a
190.71	11.2185	381420	prompt	n/a	equilibrium north xanax searched\n
194.863	0.159	389726	keystroke_e	e	n/a
194.932	0.135	389864	keystroke_q	q	n/a
195.745	0.133	391490	keystroke_u	u	n/a
195.833	0.089	391666	keystroke_i	i	n/a
196.0245	0.09	392049	keystroke_l	l	n/a
196.227	0.068	392454	keystroke_i	i	n/a
196.451	0.0725	392902	keystroke_Key.space	Key.space	n/a
196.453	0.072	392906	keystroke_b	b	n/a
196.498	0.1385	392996	keystroke_r	r	n/a
196.6375	0.0875	393275	keystroke_i	i	n/a
197.025	0.067	394050	keystroke_Key.backspace	Key.backspace	n/a
197.158	0.0695	394316	keystroke_Key.backspace	Key.backspace	n/a
197.309	0.067	394618	keystroke_Key.backspace	Key.backspace	n/a
197.4685	0.091	394937	keystroke_Key.backspace	Key.backspace	n/a
197.6705	0.069	395341	keystroke_b	b	n/a
197.7405	0.11	395481	keystroke_r	r	n/a
197.8725	0.09	395745	keystroke_i	i	n/a
198.007	0.0925	396014	keystroke_u	u	n/a
198.1915	0.088	396383	keystroke_m	m	n/a
198.281	0.0885	396562	keystroke_Key.space	Key.space	n/a
198.4775	0.069	396955	keystroke_n	n	n/a
198.5475	0.089	397095	keystroke_o	o	n/a
198.5915	0.088	397183	keystroke_r	r	n/a
198.7635	0.114	397527	keystroke_t	t	n/a
198.8315	0.0905	397663	keystroke_h	h	n/a
198.954	0.1365	397908	keystroke_Key.space	Key.space	n/a
199.091	0.109	398182	keystroke_x	x	n/a
199.1775	0.1135	398355	keystroke_a	a	n/a
199.244	0.09	398488	keystroke_n	n	n/a
199.565	0.111	399130	keystroke_x	x	n/a
199.844	0.115	399688	keystroke_Key.backspace	Key.backspace	n/a
199.913	0.091	399826	keystroke_a	a	n/a
199.9815	0.133	399963	keystroke_x	x	n/a
200.206	0.112	400412	keystroke_Key.space	Key.space	n/a
200.3405	0.0665	400681	keystroke_s	s	n/a
200.5005	0.1115	401001	keystroke_e	e	n/a
200.589	0.1325	401178	keystroke_a	a	n/a
200.7225	0.0885	401445	keystroke_r	r	n/a
200.9115	0.1135	401823	keystroke_c	c	n/a
201.026	0.065	402052	keystroke_h	h	n/a
201.113	0.0665	402226	keystroke_e	e	n/a
201.2205	0.111	402441	keystroke_d	d	n/a
201.2875	0.088	402575	keystroke_Key.space	Key.space	n/a
201.5955	0.111	403191	keystroke_Key.backspace	Key.backspace	n/a
201.815	0.112	403630	keystroke_Key.enter	Key.enter	n/a
201.932	8.5205	403864	prompt	n/a	headlines breed injury presented\n
203.8935	0.0895	407787	keystroke_h	h	n/a
203.9585	0.1125	407917	keystroke_e	e	n/a
204.0475	0.09	408095	keystroke_a	a	n/a
204.204	0.0905	408408	keystroke_l	l	n/a
204.25	0.0665	408500	keystroke_d	d	n/a
204.482	0.09	408964	keystroke_Key.backspace	Key.backspace	n/a
204.6365	0.0895	409273	keystroke_Key.backspace	Key.backspace	n/a
204.681	0.137	409362	keystroke_d	d	n/a
204.796	0.0895	409592	keystroke_l	l	n/a
204.959	0.091	409918	keystroke_i	i	n/a
205.1275	0.0905	410255	keystroke_n	n	n/a
205.194	0.092	410388	keystroke_e	e	n/a
205.367	0.111	410734	keystroke_s	s	n/a
205.479	0.09	410958	keystroke_Key.space	Key.space	n/a
205.6915	0.088	411383	keystroke_b	b	n/a
205.7345	0.112	411469	keystroke_r	r	n/a
205.8005	0.091	411601	keystroke_e	e	n/a
205.9635	0.0905	411927	keystroke_e	e	n/a
206.1	0.1555	412200	keystroke_d	d	n/a
206.2555	0.1105	412511	keystroke_Key.space	Key.space	n/a
206.419	0.112	412838	keystroke_i	i	n/a
206.5945	0.0895	413189	keystroke_n	n	n/a
206.7665	0.0925	413533	keystroke_j	j	n/a
206.9395	0.0465	413879	keystroke_r	r	n/a
206.9625	0.0675	413925	keystroke_u	u	n/a
207.653	0.09	415306	keystroke_Key.backspace	Key.backspace	n/a
207.819	0.115	415638	keystroke_Key.backspace	Key.backspace	n/a
208.159	0.09	416318	keystroke_u	u	n/a
208.25	0.111	416500	keystroke_r	r	n/a
208.362	0.068	416724	keystroke_y	y	n/a
208.405	0.136	416810	keystroke_Key.space	Key.space	n/a
209.0605	0.1125	418121	keystroke_p	p	n/a
209.1275	0.088	418255	keystroke_r	r	n/a
209.1735	0.088	418347	keystroke_e	e	n/a
209.3505	0.09	418701	keystroke_s	s	n/a
209.4925	0.0905	418985	keystroke_e	e	n/a
209.661	0.0455	419322	keystroke_n	n	n/a
209.7075	0.0675	419415	keystroke_t	t	n/a
210.0495	0.11	420099	keystroke_e	e	n/a
210.1815	0.158	420363	keystroke_d	d	n/a
210.3405	0.1095	420681	keystroke_Key.enter	Key.enter	n/a
210.4565	12.6215	420913	prompt	n/a	holding billion witnesses flavor\n
216.567	0.067	433134	keystroke_n	n	n/a
216.635	0.091	433270	keystroke_o	o	n/a
216.869	0.089	433738	keystroke_Key.backspace	Key.backspace	n/a
217.023	0.1105	434046	keystroke_Key.backspace	Key.backspace	n/a
217.1645	0.114	434329	keystroke_h	h	n/a
217.2535	0.135	434507	keystroke_o	o	n/a
217.4185	0.088	434837	keystroke_l	l	n/a
217.528	0.1135	435056	keystroke_d	d	n/a
217.6185	0.067	435237	keystroke_i	i	n/a
217.7665	0.09	435533	keystroke_n	n	n/a
217.8325	0.089	435665	keystroke_g	g	n/a
217.8985	0.134	435797	keystroke_Key.space	Key.space	n/a
218.0545	0.087	436109	keystroke_b	b	n/a
218.1435	0.0655	436287	keystroke_i	i	n/a
218.292	0.066	436584	keystroke_l	l	n/a
218.429	0.067	436858	keystroke_l	l	n/a
218.5945	0.069	437189	keystroke_i	i	n/a
218.6165	0.069	437233	keystroke_o	o	n/a
218.7805	0.09	437561	keystroke_n	n	n/a
218.8245	0.1125	437649	keystroke_Key.space	Key.space	n/a
218.9135	0.09	437827	keystroke_w	w	n/a
219.0045	0.089	438009	keystroke_i	i	n/a
219.1455	0.09	438291	keystroke_t	t	n/a
219.212	0.1135	438424	keystroke_e	e	n/a
219.3265	0.067	438653	keystroke_n	n	n/a
219.437	0.157	438874	keystroke_s	s	n/a
219.6915	0.1125	439383	keystroke_Key.backspace	Key.backspace	n/a
219.805	0.066	439610	keystroke_e	e	n/a
219.9365	0.092	439873	keystroke_Key.backspace	Key.backspace	n/a
220.108	0.0665	440216	keystroke_Key.backspace	Key.backspace	n/a
220.2615	0.0685	440523	keystroke_Key.backspace	Key.backspace	n/a
220.618	0.069	441236	keystroke_n	n	n/a
220.663	0.093	441326	keystroke_e	e	n/a
220.841	0.0685	441682	keystroke_s	s	n/a
220.9835	0.091	441967	keystroke_s	s	n/a
221.1345	0.0675	442269	keystroke_e	e	n/a
221.2945	0.07	442589	keystroke_s	s	n/a
221.3655	0.11	442731	keystroke_Key.space	Key.space	n/a
221.5135	0.112	443027	keystroke_f	f	n/a
221.6485	0.091	443297	keystroke_l	l	n/a
221.694	0.1355	443388	keystroke_a	a	n/a
221.806	0.0895	443612	keystroke_v	v	n/a
221.9255	0.091	443851	keystroke_o	o	n/a
222.0395	0.0895	444079	keystroke_r	r	n/a
222.2045	0.088	444409	keystroke_i	i	n/a
222.4985	0.1135	444997	keystroke_Key.backspace	Key.backspace	n/a
222.944	0.131	445888	keystroke_Key.enter	Key.enter	n/a
223.086	6.1455	446172	prompt	n/a	happening sending write universities\n
224.4135	0.068	448827	keystroke_h	h	n/a
224.5025	0.0905	449005	keystroke_a	a	n/a
224.6145	0.068	449229	keystroke_p	p	n/a
224.769	0.068	449538	keystroke_p	p	n/a
224.8375	0.088	449675	keystroke_e	e	n/a
224.9675	0.091	449935	keystroke_n	n	n/a
225.1485	0.13	450297	keystroke_Key.space	Key.space	n/a
225.443	0.1135	450886	keystroke_Key.backspace	Key.backspace	n/a
225.5915	0.089	451183	keystroke_i	i	n/a
225.7715	0.0665	451543	keystroke_n	n	n/a
225.8155	0.1135	451631	keystroke_g	g	n/a
225.904	0.09	451808	keystroke_Key.space	Key.space	n/a
226.139	0.0905	452278	keystroke_s	s	n/a
226.309	0.088	452618	keystroke_e	e	n/a
226.421	0.088	452842	keystroke_n	n	n/a
226.51	0.088	453020	keystroke_d	d	n/a
226.639	0.111	453278	keystroke_i	i	n/a
226.7265	0.1125	453453	keystroke_n	n	n/a
226.7925	0.069	453585	keystroke_g	g	n/a
226.925	0.091	453850	keystroke_Key.space	Key.space	n/a
227.037	0.067	454074	keystroke_w	w	n/a
227.188	0.091	454376	keystroke_r	r	n/a
227.308	0.089	454616	keystroke_i	i	n/a
227.398	0.0875	454796	keystroke_t	t	n/a
227.462	0.0905	454924	keystroke_e	e	n/a
227.529	0.09	455058	keystroke_Key.space	Key.space	n/a
227.667	0.091	455334	keystroke_u	u	n/a
227.827	0.094	455654	keystroke_n	n	n/a
228.0285	0.113	456057	keystroke_v	v	n/a
228.162	0.069	456324	keystroke_i	i	n/a
228.287	0.1125	456574	keystroke_e	e	n/a
228.456	0.1335	456912	keystroke_r	r	n/a
228.5665	0.1125	457133	keystroke_s	s	n/a
228.681	0.0885	457362	keystroke_i	i	n/a
228.77	0.132	457540	keystroke_t	t	n/a
228.903	0.11	457806	keystroke_e	e	n/a
229.072	0.09	458144	keystroke_d	d	n/a
229.139	0.091	458278	keystroke_Key.enter	Key.enter	n/a
229.236	7.062	458472	prompt	n/a	escape finest depression enrolled\n
229.9815	0.0655	459963	keystroke_e	e	n/a
230.219	0.132	460438	keystroke_s	s	n/a
230.5005	0.11	461001	keystroke_e	e	n/a
230.7585	0.091	461517	keystroke_Key.backspace	Key.backspace	n/a
230.85	0.133	461700	keystroke_c	c	n/a
231.025	0.1325	462050	keystroke_a	a	n/a
231.1945	0.112	462389	keystroke_p	p	n/a
231.337	0.09	462674	keystroke_e	e	n/a
231.4485	0.0665	462897	keystroke_Key.space	Key.space	n/a
231.548	0.0935	463096	keystroke_f	f	n/a
231.617	0.092	463234	keystroke_i	i	n/a
231.784	0.091	463568	keystroke_n	n	n/a
231.829	0.071	463658	keystroke_e	e	n/a
232.006	0.0685	464012	keystroke_s	s	n/a
232.096	0.09	464192	keystroke_t	t	n/a
232.162	0.091	464324	keystroke_Key.space	Key.space	n/a
232.289	0.1115	464578	keystroke_d	d	n/a
232.378	0.0885	464756	keystroke_e	e	n/a
232.4675	0.0895	464935	keystroke_p	p	n/a
232.587	0.111	465174	keystroke_r	r	n/a
232.675	0.068	465350	keystroke_e	e	n/a
232.844	0.09	465688	keystroke_s	s	n/a
233.005	0.089	466010	keystroke_s	s	n/a
233.116	0.091	466232	keystroke_i	i	n/a
233.16	0.092	466320	keystroke_o	o	n/a
233.32	0.088	466640	keystroke_n	n	n/a
233.533	0.113	467066	keystroke_Key.space	Key.space	n/a
234.106	0.11	468212	keystroke_r	r	n/a
234.1725	0.1105	468345	keystroke_e	e	n/a
234.284	0.087	468568	keystroke_n	n	n/a
234.848	0.09	469696	keystroke_Key.backspace	Key.backspace	n/a
235.0105	0.0675	470021	keystroke_Key.backspace	Key.backspace	n/a
235.1575	0.0895	470315	keystroke_Key.backspace	Key.backspace	n/a
235.225	0.113	470450	keystroke_e	e	n/a
235.359	0.068	470718	keystroke_n	n	n/a
235.428	0.1115	470856	keystroke_r	r	n/a
235.5695	0.0665	471139	keystroke_o	o	n/a
235.7175	0.0655	471435	keystroke_l	l	n/a
235.833	0.088	471666	keystroke_l	l	n/a
235.943	0.068	471886	keystroke_e	e	n/a
236.0955	0.089	472191	keystroke_d	d	n/a
236.2285	0.067	472457	keystroke_Key.enter	Key.enter	n/a
236.3025	5.6075	472605	prompt	n/a	azerbaijan break edgar make\n
236.9245	0.132	473849	keystroke_a	a	n/a
237.058	0.1315	474116	keystroke_z	z	n/a
237.27	0.113	474540	keystroke_e	e	n/a
237.3595	0.1115	474719	keystroke_r	r	n/a
237.5395	0.089	475079	keystroke_b	b	n/a
237.752	0.112	475504	keystroke_a	a	n/a
237.9005	0.09	475801	keystroke_i	i	n/a
238.118	0.0895	476236	keystroke_j	j	n/a
238.2085	0.134	476417	keystroke_a	a	n/a
238.4375	0.1145	476875	keystroke_Key.space	Key.space	n/a
238.717	0.113	477434	keystroke_Key.backspace	Key.backspace	n/a
239.066	0.09	478132	keystroke_n	n	n/a
239.177	0.0675	478354	keystroke_Key.space	Key.space	n/a
239.583	0.1095	479166	keystroke_b	b	n/a
239.6705	0.155	479341	keystroke_r	r	n/a
239.7585	0.137	479517	keystroke_e	e	n/a
239.8275	0.1575	479655	keystroke_a	a	n/a
239.8965	0.111	479793	keystroke_k	k	n/a
239.9865	0.1305	479973	keystroke_Key.space	Key.space	n/a
240.5655	0.0905	481131	keystroke_e	e	n/a
240.708	0.0895	481416	keystroke_d	d	n/a
240.8995	0.091	481799	keystroke_g	g	n/a
240.9915	0.1105	481983	keystroke_a	a	n/a
241.102	0.066	482204	keystroke_r	r	n/a
241.188	0.089	482376	keystroke_Key.space	Key.space	n/a
241.4765	0.089	482953	keystroke_m	m	n/a
241.521	0.089	483042	keystroke_a	a	n/a
241.66	0.09	483320	keystroke_k	k	n/a
241.704	0.1375	483408	keystroke_e	e	n/a
241.8165	0.091	483633	keystroke_Key.enter	Key.enter	n/a
241.914	7.2285	483828	prompt	n/a	handled statements small reports\n
244.487	0.0895	488974	keystroke_h	h	n/a
244.577	0.09	489154	keystroke_a	a	n/a
244.688	0.069	489376	keystroke_n	n	n/a
244.758	0.069	489516	keystroke_d	d	n/a
244.911	0.0925	489822	keystroke_l	l	n/a
245.025	0.0905	490050	keystroke_e	e	n/a
245.1365	0.0885	490273	keystroke_d	d	n/a
245.3115	0.132	490623	keystroke_Key.space	Key.space	n/a
245.651	0.09	491302	keystroke_s	s	n/a
245.863	0.1115	491726	keystroke_t	t	n/a
245.975	0.108	491950	keystroke_a	a	n/a
246.346	0.1125	492692	keystroke_t	t	n/a
246.4605	0.11	492921	keystroke_e	e	n/a
246.525	0.0905	493050	keystroke_m	m	n/a
246.6915	0.112	493383	keystroke_e	e	n/a
246.8045	0.09	493609	keystroke_n	n	n/a
246.8945	0.089	493789	keystroke_t	t	n/a
247.0565	0.112	494113	keystroke_s	s	n/a
247.231	0.1105	494462	keystroke_Key.space	Key.space	n/a
247.42	0.1125	494840	keystroke_s	s	n/a
247.5535	0.07	495107	keystroke_m	m	n/a
247.6245	0.109	495249	keystroke_a	a	n/a
247.7645	0.067	495529	keystroke_l	l	n/a
247.9005	0.09	495801	keystroke_l	l	n/a
247.966	0.1115	495932	keystroke_Key.space	Key.space	n/a
248.2425	0.113	496485	keystroke_r	r	n/a
248.31	0.0885	496620	keystroke_e	e	n/a
248.4205	0.069	496841	keystroke_p	p	n/a
248.6195	0.113	497239	keystroke_o	o	n/a
248.7085	0.0675	497417	keystroke_r	r	n/a
248.847	0.1335	497694	keystroke_t	t	n/a
248.9125	0.112	497825	keystroke_s	s	n/a
249.0535	0.087	498107	keystroke_Key.enter	Key.enter	n/a
249.146	5.016	498292	prompt	n/a	joyce thick kelkoo atlanta\n
249.7305	0.135	499461	keystroke_j	j	n/a
249.8415	0.094	499683	keystroke_o	o	n/a
249.9965	0.0685	499993	keystroke_y	y	n/a
250.0875	0.1565	500175	keystroke_c	c	n/a
250.1535	0.1355	500307	keystroke_e	e	n/a
250.289	0.069	500578	keystroke_Key.space	Key.space	n/a
250.4285	0.091	500857	keystroke_t	t	n/a
250.5205	0.067	501041	keystroke_h	h	n/a
250.564	0.0675	501128	keystroke_i	i	n/a
250.6525	0.09	501305	keystroke_c	c	n/a
250.7435	0.0915	501487	keystroke_k	k	n/a
250.8115	0.132	501623	keystroke_Key.space	Key.space	n/a
251.0825	0.0905	502165	keystroke_k	k	n/a
251.127	0.089	502254	keystroke_e	e	n/a
251.264	0.0875	502528	keystroke_l	l	n/a
251.583	0.0665	503166	keystroke_o	o	n/a
251.9505	0.114	503901	keystroke_Key.backspace	Key.backspace	n/a
252.1335	0.1125	504267	keystroke_k	k	n/a
252.247	0.0445	504494	keystroke_o	o	n/a
252.4145	0.0675	504829	keystroke_o	o	n/a
252.513	0.132	505026	keystroke_Key.space	Key.space	n/a
252.6225	0.109	505245	keystroke_a	a	n/a
252.7695	0.0885	505539	keystroke_t	t	n/a
252.891	0.091	505782	keystroke_l	l	n/a
252.983	0.1105	505966	keystroke_a	a	n/a
253.116	0.0665	506232	keystroke_n	n	n/a
253.204	0.045	506408	keystroke_d	d	n/a
253.406	0.11	506812	keystroke_Key.backspace	Key.backspace	n/a
253.4945	0.0885	506989	keystroke_t	t	n/a
253.5605	0.1335	507121	keystroke_a	a	n/a
253.695	0.1115	507390	keystroke_Key.space	Key.space	n/a
253.89	0.088	507780	keystroke_Key.backspace	Key.backspace	n/a
254.07	0.0905	508140	keystroke_Key.enter	Key.enter	n/a
254.1665	5.1625	508333	prompt	n/a	saddam extended pound feeling\n
254.681	0.112	509362	keystroke_s	s	n/a
254.825	0.1135	509650	keystroke_a	a	n/a
254.959	0.046	509918	keystroke_d	d	n/a
255.0975	0.0685	510195	keystroke_d	d	n/a
255.449	0.132	510898	keystroke_a	a	n/a
255.683	0.116	511366	keystroke_m	m	n/a
255.915	0.135	511830	keystroke_Key.space	Key.space	n/a
256.397	0.069	512794	keystroke_e	e	n/a
256.554	0.068	513108	keystroke_x	x	n/a
256.758	0.093	513516	keystroke_t	t	n/a
256.825	0.093	513650	keystroke_e	e	n/a
257.003	0.091	514006	keystroke_n	n	n/a
257.095	0.1085	514190	keystroke_d	d	n/a
257.18	0.067	514360	keystroke_e	e	n/a
257.294	0.089	514588	keystroke_d	d	n/a
257.404	0.089	514808	keystroke_Key.space	Key.space	n/a
257.5955	0.115	515191	keystroke_p	p	n/a
257.7695	0.112	515539	keystroke_o	o	n/a
257.9625	0.0895	515925	keystroke_u	u	n/a
258.1165	0.09	516233	keystroke_n	n	n/a
258.1615	0.0895	516323	keystroke_d	d	n/a
258.2735	0.088	516547	keystroke_Key.space	Key.space	n/a
258.4125	0.119	516825	keystroke_f	f	n/a
258.5325	0.0645	517065	keystroke_e	e	n/a
258.68	0.089	517360	keystroke_e	e	n/a
258.77	0.0665	517540	keystroke_l	l	n/a
258.9185	0.066	517837	keystroke_i	i	n/a
259.0575	0.068	518115	keystroke_n	n	n/a
259.1025	0.068	518205	keystroke_g	g	n/a
259.215	0.112	518430	keystroke_Key.enter	Key.enter	n/a
259.333	5.988	518666	prompt	n/a	blocks rural trivia petroleum\n
259.875	0.09	519750	keystroke_b	b	n/a
259.942	0.087	519884	keystroke_l	l	n/a
260.0895	0.0885	520179	keystroke_o	o	n/a
260.18	0.065	520360	keystroke_c	c	n/a
260.276	0.09	520552	keystroke_k	k	n/a
260.367	0.066	520734	keystroke_s	s	n/a
260.454	0.09	520908	keystroke_Key.space	Key.space	n/a
260.58	0.0685	521160	keystroke_r	r	n/a
260.6255	0.067	521251	keystroke_u	u	n/a
260.742	0.1135	521484	keystroke_r	r	n/a
260.8095	0.1345	521619	keystroke_a	a	n/a
260.899	0.068	521798	keystroke_l	l	n/a
260.997	0.134	521994	keystroke_Key.space	Key.space	n/a
261.437	0.135	522874	keystroke_t	t	n/a
261.504	0.1135	523008	keystroke_r	r	n/a
261.716	0.0885	523432	keystroke_i	i	n/a
261.826	0.1575	523652	keystroke_v	v	n/a
261.9595	0.09	523919	keystroke_i	i	n/a
262.102	0.1115	524204	keystroke_a	a	n/a
262.235	0.111	524470	keystroke_l	l	n/a
262.347	0.111	524694	keystroke_Key.space	Key.space	n/a
262.807	0.1105	525614	keystroke_p	p	n/a
262.94	0.1105	525880	keystroke_e	e	n/a
263.1475	0.1115	526295	keystroke_t	t	n/a
263.191	0.112	526382	keystroke_r	r	n/a
263.387	0.111	526774	keystroke_o	o	n/a
264.3995	0.112	528799	keystroke_l	l	n/a
264.574	0.1125	529148	keystroke_e	e	n/a
264.782	0.09	529564	keystroke_u	u	n/a
264.992	0.0675	529984	keystroke_m	m	n/a
265.2275	0.0915	530455	keystroke_Key.enter	Key.enter	n/a
265.3245	15.184	530649	prompt	n/a	exhaust constant segments association\n
268.113	0.111	536226	keystroke_e	e	n/a
268.7865	0.1355	537573	keystroke_x	x	n/a
269.115	0.068	538230	keystroke_h	h	n/a
269.184	0.1315	538368	keystroke_a	a	n/a
269.624	0.071	539248	keystroke_u	u	n/a
269.893	0.132	539786	keystroke_s	s	n/a
270.069	0.0885	540138	keystroke_t	t	n/a
270.188	0.11	540376	keystroke_Key.space	Key.space	n/a
270.856	0.113	541712	keystroke_c	c	n/a
270.945	0.091	541890	keystroke_o	o	n/a
271.154	0.09	542308	keystroke_n	n	n/a
271.267	0.178	542534	keystroke_s	s	n/a
271.4	0.1565	542800	keystroke_t	t	n/a
271.6425	0.155	543285	keystroke_a	a	n/a
271.7745	0.089	543549	keystroke_n	n	n/a
272.489	0.155	544978	keystroke_t	t	n/a
272.6865	0.111	545373	keystroke_Key.space	Key.space	n/a
272.967	0.112	545934	keystroke_s	s	n/a
273.1615	0.0875	546323	keystroke_e	e	n/a
273.3525	0.0915	546705	keystroke_g	g	n/a
273.5545	0.116	547109	keystroke_m	m	n/a
273.6715	0.0855	547343	keystroke_e	e	n/a
273.8155	0.0875	547631	keystroke_n	n	n/a
274.003	0.112	548006	keystroke_t	t	n/a
274.195	0.0685	548390	keystroke_s	s	n/a
274.371	0.136	548742	keystroke_Key.space	Key.space	n/a
274.528	0.114	549056	keystroke_a	a	n/a
274.807	0.0895	549614	keystroke_s	s	n/a
274.9835	0.0905	549967	keystroke_s	s	n/a
275.1155	0.1105	550231	keystroke_o	o	n/a
275.7665	0.089	551533	keystroke_c	c	n/a
275.9765	0.066	551953	keystroke_i	i	n/a
276.044	0.0885	552088	keystroke_a	a	n/a
276.2805	0.1145	552561	keystroke_Key.backspace	Key.backspace	n/a
276.5005	0.089	553001	keystroke_Key.backspace	Key.backspace	n/a
279.367	0.089	558734	keystroke_i	i	n/a
279.457	0.113	558914	keystroke_a	a	n/a
279.546	0.1365	559092	keystroke_t	t	n/a
279.6365	0.069	559273	keystroke_i	i	n/a
279.683	0.068	559366	keystroke_o	o	n/a
279.824	0.088	559648	keystroke_n	n	n/a
279.9505	0.1335	559901	keystroke_Key.space	Key.space	n/a
280.24	0.0675	560480	keystroke_Key.backspace	Key.backspace	n/a
280.4185	0.088	560837	keystroke_Key.enter	Key.enter	n/a
280.5135	10.9215	561027	prompt	n/a	cases hire alaska wisconsin\n
283.525	0.136	567050	keystroke_c	c	n/a
283.637	0.157	567274	keystroke_a	a	n/a
283.795	0.109	567590	keystroke_s	s	n/a
283.965	0.202	567930	keystroke_e	e	n/a
284.738	0.069	569476	keystroke_Key.space	Key.space	n/a
284.9825	0.1345	569965	keystroke_Key.backspace	Key.backspace	n/a
285.183	0.111	570366	keystroke_s	s	n/a
285.27	0.112	570540	keystroke_Key.space	Key.space	n/a
285.44	0.113	570880	keystroke_h	h	n/a
285.529	0.093	571058	keystroke_i	i	n/a
285.554	0.112	571108	keystroke_r	r	n/a
285.576	0.113	571152	keystroke_e	e	n/a
285.7105	0.088	571421	keystroke_Key.space	Key.space	n/a
285.9365	0.0885	571873	keystroke_a	a	n/a
286.0555	0.0895	572111	keystroke_l	l	n/a
286.166	0.067	572332	keystroke_a	a	n/a
286.43	0.0895	572860	keystroke_s	s	n/a
286.541	0.092	573082	keystroke_k	k	n/a
286.6555	0.1115	573311	keystroke_a	a	n/a
286.744	0.135	573488	keystroke_Key.space	Key.space	n/a
287.148	0.114	574296	keystroke_w	w	n/a
287.237	0.092	574474	keystroke_i	i	n/a
287.4215	0.0915	574843	keystroke_n	n	n/a
287.5135	0.0895	575027	keystroke_s	s	n/a
287.749	0.0695	575498	keystroke_c	c	n/a
287.8185	0.0665	575637	keystroke_o	o	n/a
288.0005	0.0895	576001	keystroke_n	n	n/a
289.0485	0.067	578097	keystroke_Key.backspace	Key.backspace	n/a
289.2195	0.069	578439	keystroke_Key.backspace	Key.backspace	n/a
289.3935	0.0905	578787	keystroke_Key.backspace	Key.backspace	n/a
289.625	0.047	579250	keystroke_Key.backspace	Key.backspace	n/a
289.797	0.09	579594	keystroke_Key.backspace	Key.backspace	n/a
290.025	0.111	580050	keystroke_s	s	n/a
290.1935	0.112	580387	keystroke_c	c	n/a
290.3065	0.108	580613	keystroke_o	o	n/a
290.6245	0.114	581249	keystroke_n	n	n/a
290.8195	0.1585	581639	keystroke_s	s	n/a
291.012	0.0705	582024	keystroke_i	i	n/a
291.1995	0.09	582399	keystroke_n	n	n/a
291.3415	0.091	582683	keystroke_Key.enter	Key.enter	n/a
291.4415	14.1585	582883	prompt	n/a	hero motel predicted holly\n
298.6815	0.0905	597363	keystroke_h	h	n/a
298.748	0.1145	597496	keystroke_e	e	n/a
298.8155	0.116	597631	keystroke_r	r	n/a
299.0765	0.113	598153	keystroke_Key.space	Key.space	n/a
299.303	0.0885	598606	keystroke_m	m	n/a
299.5675	0.1115	599135	keystroke_Key.backspace	Key.backspace	n/a
299.731	0.112	599462	keystroke_Key.backspace	Key.backspace	n/a
300.503	0.156	601006	keystroke_o	o	n/a
300.635	0.1325	601270	keystroke_Key.space	Key.space	n/a
302.1575	0.114	604315	keystroke_m	m	n/a
302.2025	0.092	604405	keystroke_o	o	n/a
302.2945	0.111	604589	keystroke_t	t	n/a
302.338	0.113	604676	keystroke_e	e	n/a
302.427	0.069	604854	keystroke_l	l	n/a
302.5185	0.1365	605037	keystroke_Key.space	Key.space	n/a
302.6995	0.089	605399	keystroke_p	p	n/a
302.7435	0.1115	605487	keystroke_r	r	n/a
302.9725	0.135	605945	keystroke_e	e	n/a
303.2115	0.091	606423	keystroke_d	d	n/a
303.3235	0.091	606647	keystroke_i	i	n/a
303.3905	0.115	606781	keystroke_c	c	n/a
303.714	0.1095	607428	keystroke_e	e	n/a
303.9925	0.112	607985	keystroke_Key.backspace	Key.backspace	n/a
304.037	0.0905	608074	keystroke_t	t	n/a
304.1055	0.0665	608211	keystroke_e	e	n/a
304.2495	0.111	608499	keystroke_d	d	n/a
304.3155	0.089	608631	keystroke_Key.space	Key.space	n/a
304.4785	0.113	608957	keystroke_h	h	n/a
304.5455	0.112	609091	keystroke_o	o	n/a
304.747	0.0905	609494	keystroke_l	l	n/a
304.885	0.0675	609770	keystroke_l	l	n/a
305.087	0.067	610174	keystroke_y	y	n/a
305.5075	0.09	611015	keystroke_Key.enter	Key.enter	n/a
305.61	8.105	611220	prompt	n/a	wednesday cashiers electricity billing\n
308.4595	0.1345	616919	keystroke_w	w	n/a
308.548	0.1115	617096	keystroke_e	e	n/a
308.736	0.1125	617472	keystroke_d	d	n/a
308.9235	0.1105	617847	keystroke_n	n	n/a
309.011	0.0665	618022	keystroke_e	e	n/a
309.1535	0.0685	618307	keystroke_s	s	n/a
309.365	0.112	618730	keystroke_d	d	n/a
309.454	0.0905	618908	keystroke_a	a	n/a
309.5	0.0895	619000	keystroke_y	y	n/a
309.5655	0.135	619131	keystroke_Key.space	Key.space	n/a
309.7795	0.1325	619559	keystroke_c	c	n/a
309.867	0.156	619734	keystroke_a	a	n/a
309.999	0.09	619998	keystroke_s	s	n/a
310.09	0.066	620180	keystroke_h	h	n/a
310.265	0.09	620530	keystroke_i	i	n/a
310.332	0.1375	620664	keystroke_e	e	n/a
310.377	0.181	620754	keystroke_r	r	n/a
310.58	0.133	621160	keystroke_Key.space	Key.space	n/a
310.931	0.112	621862	keystroke_Key.backspace	Key.backspace	n/a
311.044	0.113	622088	keystroke_s	s	n/a
311.133	0.091	622266	keystroke_Key.space	Key.space	n/a
311.253	0.1325	622506	keystroke_e	e	n/a
311.4465	0.0915	622893	keystroke_l	l	n/a
311.5145	0.111	623029	keystroke_e	e	n/a
311.6475	0.11	623295	keystroke_c	c	n/a
311.8845	0.111	623769	keystroke_t	t	n/a
311.952	0.0875	623904	keystroke_r	r	n/a
312.0765	0.087	624153	keystroke_i	i	n/a
312.164	0.1095	624328	keystroke_c	c	n/a
312.2745	0.0865	624549	keystroke_i	i	n/a
312.396	0.09	624792	keystroke_t	t	n/a
312.4865	0.066	624973	keystroke_y	y	n/a
312.5535	0.089	625107	keystroke_Key.space	Key.space	n/a
312.78	0.0905	625560	keystroke_b	b	n/a
312.8245	0.0905	625649	keystroke_i	i	n/a
313.0255	0.07	626051	keystroke_l	l	n/a
313.1565	0.09	626313	keystroke_l	l	n/a
313.32	0.068	626640	keystroke_i	i	n/a
313.4675	0.068	626935	keystroke_n	n	n/a
313.5355	0.0875	627071	keystroke_g	g	n/a
313.6445	0.069	627289	keystroke_Key.enter	Key.enter	n/a
313.719	7.864	627438	prompt	n/a	tremendous comfort keeps surely\n
314.6235	0.0915	629247	keystroke_t	t	n/a
315.732	0.112	631464	keystroke_r	r	n/a
315.798	0.112	631596	keystroke_e	e	n/a
315.96	0.111	631920	keystroke_m	m	n/a
316.114	0.11	632228	keystroke_e	e	n/a
316.2465	0.0665	632493	keystroke_n	n	n/a
316.314	0.092	632628	keystroke_d	d	n/a
316.455	0.1145	632910	keystroke_o	o	n/a
316.655	0.07	633310	keystroke_u	u	n/a
316.701	0.113	633402	keystroke_s	s	n/a
316.815	0.11	633630	keystroke_Key.space	Key.space	n/a
316.964	0.131	633928	keystroke_c	c	n/a
317.03	0.088	634060	keystroke_o	o	n/a
317.186	0.091	634372	keystroke_m	m	n/a
317.253	0.0895	634506	keystroke_f	f	n/a
317.441	0.132	634882	keystroke_o	o	n/a
317.6355	0.088	635271	keystroke_r	r	n/a
317.8255	0.1105	635651	keystroke_t	t	n/a
318.069	0.133	636138	keystroke_Key.space	Key.space	n/a
318.4565	0.0905	636913	keystroke_k	k	n/a
318.548	0.066	637096	keystroke_e	e	n/a
318.712	0.069	637424	keystroke_e	e	n/a
318.782	0.0865	637564	keystroke_p	p	n/a
319.2545	0.1115	638509	keystroke_Key.backspace	Key.backspace	n/a
319.822	0.1135	639644	keystroke_p	p	n/a
319.913	0.113	639826	keystroke_s	s	n/a
320.0265	0.1135	640053	keystroke_Key.space	Key.space	n/a
320.732	0.116	641464	keystroke_s	s	n/a
320.8	0.092	641600	keystroke_u	u	n/a
320.941	0.135	641882	keystroke_r	r	n/a
321.0305	0.091	642061	keystroke_e	e	n/a
321.122	0.089	642244	keystroke_l	l	n/a
321.232	0.0905	642464	keystroke_y	y	n/a
321.426	0.155	642852	keystroke_Key.enter	Key.enter	n/a
321.587	4.366	643174	prompt	n/a	pill used burns deviant\n
322.3565	0.113	644713	keystroke_p	p	n/a
322.5405	0.066	645081	keystroke_i	i	n/a
322.7185	0.068	645437	keystroke_l	l	n/a
322.835	0.088	645670	keystroke_l	l	n/a
322.945	0.114	645890	keystroke_Key.space	Key.space	n/a
323.081	0.089	646162	keystroke_u	u	n/a
323.171	0.111	646342	keystroke_s	s	n/a
323.387	0.092	646774	keystroke_e	e	n/a
323.5	0.1115	647000	keystroke_d	d	n/a
323.5665	0.068	647133	keystroke_Key.space	Key.space	n/a
323.7305	0.0885	647461	keystroke_b	b	n/a
323.7955	0.068	647591	keystroke_u	u	n/a
323.897	0.1085	647794	keystroke_r	r	n/a
324.03	0.068	648060	keystroke_n	n	n/a
324.0735	0.0905	648147	keystroke_s	s	n/a
324.2065	0.132	648413	keystroke_Key.space	Key.space	n/a
324.295	0.1115	648590	keystroke_d	d	n/a
324.408	0.065	648816	keystroke_e	e	n/a
324.8725	0.068	649745	keystroke_v	v	n/a
324.9415	0.109	649883	keystroke_i	i	n/a
325.1385	0.1325	650277	keystroke_a	a	n/a
325.2715	0.09	650543	keystroke_n	n	n/a
325.363	0.0865	650726	keystroke_t	t	n/a
325.84	0.1115	651680	keystroke_Key.enter	Key.enter	n/a
325.959	10.82	651918	prompt	n/a	optional constraint harvard solomon\n
328.287	0.1145	656574	keystroke_o	o	n/a
328.355	0.091	656710	keystroke_p	p	n/a
328.5685	0.1135	657137	keystroke_t	t	n/a
328.657	0.069	657314	keystroke_i	i	n/a
328.703	0.046	657406	keystroke_o	o	n/a
328.8315	0.0915	657663	keystroke_n	n	n/a
328.924	0.087	657848	keystroke_a	a	n/a
329.033	0.089	658066	keystroke_l	l	n/a
329.143	0.11	658286	keystroke_Key.space	Key.space	n/a
329.354	0.113	658708	keystroke_c	c	n/a
329.444	0.067	658888	keystroke_o	o	n/a
329.6145	0.0885	659229	keystroke_n	n	n/a
329.68	0.0885	659360	keystroke_s	s	n/a
329.891	0.112	659782	keystroke_t	t	n/a
329.9355	0.1115	659871	keystroke_r	r	n/a
330.048	0.134	660096	keystroke_a	a	n/a
330.4395	0.092	660879	keystroke_i	i	n/a
330.6115	0.068	661223	keystroke_n	n	n/a
330.6345	0.112	661269	keystroke_t	t	n/a
330.768	0.087	661536	keystroke_Key.space	Key.space	n/a
330.893	0.093	661786	keystroke_h	h	n/a
330.961	0.071	661922	keystroke_a	a	n/a
331.009	0.089	662018	keystroke_r	r	n/a
331.315	0.0665	662630	keystroke_b	b	n/a
331.4035	0.091	662807	keystroke_a	a	n/a
331.6395	0.087	663279	keystroke_Key.backspace	Key.backspace	n/a
331.7905	0.113	663581	keystroke_Key.backspace	Key.backspace	n/a
332.0565	0.134	664113	keystroke_a	a	n/a
332.1235	0.134	664247	keystroke_r	r	n/a
332.3125	0.113	664625	keystroke_Key.backspace	Key.backspace	n/a
332.492	0.1075	664984	keystroke_Key.backspace	Key.backspace	n/a
332.738	0.113	665476	keystroke_v	v	n/a
332.852	0.11	665704	keystroke_r	r	n/a
332.894	0.18	665788	keystroke_a	a	n/a
333.21	0.0905	666420	keystroke_Key.backspace	Key.backspace	n/a
333.4	0.1595	666800	keystroke_Key.backspace	Key.backspace	n/a
333.5365	0.0915	667073	keystroke_a	a	n/a
333.582	0.112	667164	keystroke_r	r	n/a
333.788	0.113	667576	keystroke_d	d	n/a
333.855	0.135	667710	keystroke_Key.space	Key.space	n/a
334.7565	0.1335	669513	keystroke_s	s	n/a
334.8675	0.0905	669735	keystroke_o	o	n/a
335.04	0.09	670080	keystroke_l	l	n/a
335.2085	0.088	670417	keystroke_o	o	n/a
335.455	0.11	670910	keystroke_l	l	n/a
335.7735	0.1115	671547	keystroke_Key.backspace	Key.backspace	n/a
336.013	0.089	672026	keystroke_m	m	n/a
336.311	0.133	672622	keystroke_o	o	n/a
336.465	0.0875	672930	keystroke_n	n	n/a
336.667	0.1095	673334	keystroke_Key.enter	Key.enter	n/a
336.7825	9.0405	673565	prompt	n/a	alloy fewer virgin pass\n
340.4515	0.1315	680903	keystroke_a	a	n/a
340.7295	0.1065	681459	keystroke_l	l	n/a
340.8945	0.1105	681789	keystroke_l	l	n/a
341.1135	0.113	682227	keystroke_o	o	n/a
341.4745	0.113	682949	keystroke_y	y	n/a
341.5645	0.1125	683129	keystroke_Key.space	Key.space	n/a
341.6535	0.113	683307	keystroke_f	f	n/a
341.7425	0.0685	683485	keystroke_e	e	n/a
341.9315	0.09	683863	keystroke_w	w	n/a
342.121	0.135	684242	keystroke_e	e	n/a
342.2325	0.133	684465	keystroke_r	r	n/a
342.4525	0.113	684905	keystroke_Key.space	Key.space	n/a
342.793	0.0885	685586	keystroke_v	v	n/a
342.9105	0.089	685821	keystroke_i	i	n/a
343.0205	0.067	686041	keystroke_r	r	n/a
343.1795	0.113	686359	keystroke_i	i	n/a
343.2015	0.093	686403	keystroke_g	g	n/a
343.6705	0.087	687341	keystroke_Key.backspace	Key.backspace	n/a
343.815	0.0935	687630	keystroke_Key.backspace	Key.backspace	n/a
343.861	0.1145	687722	keystroke_g	g	n/a
343.9305	0.089	687861	keystroke_i	i	n/a
344.114	0.089	688228	keystroke_n	n	n/a
344.236	0.112	688472	keystroke_Key.space	Key.space	n/a
344.4335	0.0905	688867	keystroke_p	p	n/a
344.501	0.069	689002	keystroke_a	a	n/a
344.546	0.07	689092	keystroke_s	s	n/a
344.717	0.067	689434	keystroke_s	s	n/a
345.776	0.046	691552	keystroke_Key.enter	Key.enter	n/a
345.8275	6.3035	691655	prompt	n/a	gorgeous burn string desert\n
346.7045	0.11	693409	keystroke_g	g	n/a
347.0175	0.07	694035	keystroke_o	o	n/a
347.063	0.0665	694126	keystroke_r	r	n/a
347.2115	0.089	694423	keystroke_g	g	n/a
347.2565	0.1105	694513	keystroke_e	e	n/a
347.9175	0.1125	695835	keystroke_o	o	n/a
347.9845	0.1125	695969	keystroke_u	u	n/a
348.074	0.113	696148	keystroke_s	s	n/a
348.188	0.11	696376	keystroke_Key.space	Key.space	n/a
348.74	0.088	697480	keystroke_b	b	n/a
348.785	0.112	697570	keystroke_u	u	n/a
348.874	0.112	697748	keystroke_r	r	n/a
348.9635	0.091	697927	keystroke_n	n	n/a
349.149	0.1125	698298	keystroke_Key.space	Key.space	n/a
349.5815	0.1115	699163	keystroke_s	s	n/a
349.9805	0.1135	699961	keystroke_t	t	n/a
350.0255	0.134	700051	keystroke_r	r	n/a
350.094	0.1105	700188	keystroke_i	i	n/a
350.273	0.0905	700546	keystroke_n	n	n/a
350.34	0.09	700680	keystroke_g	g	n/a
350.9195	0.1145	701839	keystroke_Key.space	Key.space	n/a
351.1155	0.1575	702231	keystroke_d	d	n/a
351.2265	0.091	702453	keystroke_e	e	n/a
351.4425	0.0875	702885	keystroke_s	s	n/a
351.6465	0.1155	703293	keystroke_e	e	n/a
351.738	0.069	703476	keystroke_r	r	n/a
351.905	0.092	703810	keystroke_t	t	n/a
351.997	0.1325	703994	keystroke_Key.enter	Key.enter	n/a
352.135	4.9835	704270	prompt	n/a	walter benefits basket powers\n
352.795	0.1325	705590	keystroke_w	w	n/a
352.883	0.112	705766	keystroke_a	a	n/a
352.9725	0.0675	705945	keystroke_l	l	n/a
353.082	0.1135	706164	keystroke_t	t	n/a
353.126	0.138	706252	keystroke_e	e	n/a
353.265	0.0665	706530	keystroke_r	r	n/a
353.308	0.07	706616	keystroke_Key.space	Key.space	n/a
353.482	0.07	706964	keystroke_b	b	n/a
353.527	0.067	707054	keystroke_e	e	n/a
353.653	0.0905	707306	keystroke_n	n	n/a
353.698	0.09	707396	keystroke_e	e	n/a
353.809	0.088	707618	keystroke_f	f	n/a
353.919	0.089	707838	keystroke_i	i	n/a
354.029	0.1125	708058	keystroke_t	t	n/a
354.0955	0.1115	708191	keystroke_s	s	n/a
354.4215	0.0915	708843	keystroke_Key.space	Key.space	n/a
354.619	0.0875	709238	keystroke_b	b	n/a
354.6625	0.1145	709325	keystroke_a	a	n/a
354.73	0.0915	709460	keystroke_s	s	n/a
354.8445	0.091	709689	keystroke_k	k	n/a
354.9365	0.087	709873	keystroke_e	e	n/a
355.198	0.09	710396	keystroke_t	t	n/a
355.568	0.114	711136	keystroke_Key.space	Key.space	n/a
355.713	0.1345	711426	keystroke_p	p	n/a
355.904	0.111	711808	keystroke_o	o	n/a
355.948	0.0915	711896	keystroke_w	w	n/a
356.0405	0.0655	712081	keystroke_e	e	n/a
356.194	0.1335	712388	keystroke_r	r	n/a
356.304	0.0255	712608	keystroke_s	s	n/a
356.4685	0.0215	712937	keystroke_s	s	n/a
356.865	0.069	713730	keystroke_Key.backspace	Key.backspace	n/a
357.049	0.0675	714098	keystroke_Key.enter	Key.enter	n/a
357.1225	4.8475	714245	prompt	n/a	collection stack reader gathering\n
357.592	0.1375	715184	keystroke_c	c	n/a
357.704	0.071	715408	keystroke_o	o	n/a
357.86	0.067	715720	keystroke_l	l	n/a
357.981	0.088	715962	keystroke_l	l	n/a
358.024	0.067	716048	keystroke_e	e	n/a
358.092	0.09	716184	keystroke_c	c	n/a
358.28	0.091	716560	keystroke_t	t	n/a
358.326	0.1335	716652	keystroke_o	o	n/a
358.327	0.067	716654	keystroke_i	i	n/a
358.637	0.0895	717274	keystroke_n	n	n/a
358.7475	0.0885	717495	keystroke_Key.space	Key.space	n/a
359.277	0.088	718554	keystroke_s	s	n/a
359.387	0.068	718774	keystroke_t	t	n/a
359.476	0.1135	718952	keystroke_a	a	n/a
359.5655	0.092	719131	keystroke_k	k	n/a
359.6125	0.0675	719225	keystroke_c	c	n/a
359.6805	0.11	719361	keystroke_Key.space	Key.space	n/a
359.8145	0.111	719629	keystroke_r	r	n/a
359.8815	0.09	719763	keystroke_e	e	n/a
360.2935	0.112	720587	keystroke_a	a	n/a
360.439	0.114	720878	keystroke_d	d	n/a
360.574	0.0905	721148	keystroke_e	e	n/a
360.64	0.112	721280	keystroke_r	r	n/a
360.729	0.09	721458	keystroke_Key.space	Key.space	n/a
360.902	0.1335	721804	keystroke_g	g	n/a
361.0125	0.093	722025	keystroke_a	a	n/a
361.127	0.088	722254	keystroke_t	t	n/a
361.236	0.07	722472	keystroke_h	h	n/a
361.306	0.088	722612	keystroke_e	e	n/a
361.3495	0.112	722699	keystroke_r	r	n/a
361.4385	0.09	722877	keystroke_i	i	n/a
361.5495	0.089	723099	keystroke_n	n	n/a
361.6145	0.0905	723229	keystroke_g	g	n/a
361.8555	0.112	723711	keystroke_Key.enter	Key.enter	n/a
361.982	3.866	723964	prompt	n/a	wizard here online victor\n
362.635	0.132	725270	keystroke_w	w	n/a
362.789	0.088	725578	keystroke_i	i	n/a
362.959	0.158	725918	keystroke_z	z	n/a
363.274	0.088	726548	keystroke_a	a	n/a
363.408	0.1115	726816	keystroke_r	r	n/a
363.605	0.1125	727210	keystroke_d	d	n/a
363.7185	0.088	727437	keystroke_Key.space	Key.space	n/a
363.888	0.0665	727776	keystroke_h	h	n/a
363.9555	0.0905	727911	keystroke_e	e	n/a
364.023	0.1375	728046	keystroke_r	r	n/a
364.1355	0.1135	728271	keystroke_e	e	n/a
364.25	0.11	728500	keystroke_Key.space	Key.space	n/a
364.3605	0.09	728721	keystroke_o	o	n/a
364.5395	0.112	729079	keystroke_b	b	n/a
364.6275	0.1145	729255	keystroke_l	l	n/a
364.9275	0.091	729855	keystroke_Key.backspace	Key.backspace	n/a
365.0815	0.0905	730163	keystroke_Key.backspace	Key.backspace	n/a
365.149	0.0925	730298	keystroke_n	n	n/a
365.2425	0.065	730485	keystroke_l	l	n/a
365.406	0.069	730812	keystroke_i	i	n/a
365.5765	0.067	731153	keystroke_n	n	n/a
365.6645	0.092	731329	keystroke_e	e	n/a
365.7785	0.067	731557	keystroke_Key.enter	Key.enter	n/a
365.851	10.704	731702	prompt	n/a	acquisitions infectious relatives extra\n
368.05	0.0895	736100	keystroke_a	a	n/a
368.2165	0.136	736433	keystroke_c	c	n/a
368.6915	0.154	737383	keystroke_q	q	n/a
368.8925	0.1365	737785	keystroke_u	u	n/a
368.9825	0.136	737965	keystroke_i	i	n/a
369.0945	0.09	738189	keystroke_s	s	n/a
369.2585	0.0875	738517	keystroke_i	i	n/a
369.347	0.065	738694	keystroke_t	t	n/a
369.4465	0.0905	738893	keystroke_i	i	n/a
369.5995	0.09	739199	keystroke_n	n	n/a
369.7095	0.114	739419	keystroke_s	s	n/a
370.4555	0.113	740911	keystroke_Key.space	Key.space	n/a
370.6335	0.064	741267	keystroke_i	i	n/a
370.7935	0.0915	741587	keystroke_n	n	n/a
370.8395	0.1115	741679	keystroke_f	f	n/a
370.906	0.09	741812	keystroke_e	e	n/a
371.1255	0.0885	742251	keystroke_c	c	n/a
371.319	0.114	742638	keystroke_t	t	n/a
371.387	0.114	742774	keystroke_i	i	n/a
371.456	0.088	742912	keystroke_o	o	n/a
371.5995	0.0675	743199	keystroke_n	n	n/a
372.0365	0.088	744073	keystroke_Key.backspace	Key.backspace	n/a
372.382	0.0885	744764	keystroke_u	u	n/a
372.4475	0.134	744895	keystroke_s	s	n/a
372.5575	0.112	745115	keystroke_Key.space	Key.space	n/a
372.891	0.1105	745782	keystroke_r	r	n/a
372.9585	0.1125	745917	keystroke_e	e	n/a
373.072	0.0865	746144	keystroke_l	l	n/a
373.181	0.0905	746362	keystroke_a	a	n/a
373.2725	0.066	746545	keystroke_t	t	n/a
373.4025	0.067	746805	keystroke_i	i	n/a
373.4925	0.113	746985	keystroke_v	v	n/a
373.5815	0.07	747163	keystroke_e	e	n/a
373.8145	0.1105	747629	keystroke_s	s	n/a
373.9545	0.135	747909	keystroke_Key.space	Key.space	n/a
375.6135	0.091	751227	keystroke_e	e	n/a
375.7895	0.1135	751579	keystroke_x	x	n/a
376.03	0.0905	752060	keystroke_t	t	n/a
376.097	0.088	752194	keystroke_r	r	n/a
376.1625	0.1325	752325	keystroke_a	a	n/a
376.439	0.114	752878	keystroke_Key.enter	Key.enter	n/a
376.558	13.621	753116	prompt	n/a	font sequences camel copyrights\n
381.273	0.115	762546	keystroke_f	f	n/a
381.4095	0.0915	762819	keystroke_o	o	n/a
381.635	0.091	763270	keystroke_n	n	n/a
381.7475	0.133	763495	keystroke_t	t	n/a
385.5055	0.132	771011	keystroke_Key.space	Key.space	n/a
385.768	0.113	771536	keystroke_s	s	n/a
385.9645	0.135	771929	keystroke_e	e	n/a
386.076	0.1545	772152	keystroke_q	q	n/a
386.3925	0.11	772785	keystroke_u	u	n/a
386.5035	0.091	773007	keystroke_e	e	n/a
386.649	0.09	773298	keystroke_n	n	n/a
386.7395	0.0925	773479	keystroke_c	c	n/a
386.783	0.095	773566	keystroke_e	e	n/a
387.1735	0.111	774347	keystroke_s	s	n/a
387.3175	0.1535	774635	keystroke_Key.space	Key.space	n/a
387.6135	0.0895	775227	keystroke_c	c	n/a
387.68	0.0915	775360	keystroke_a	a	n/a
387.772	0.1085	775544	keystroke_m	m	n/a
387.9465	0.0925	775893	keystroke_e	e	n/a
388.015	0.089	776030	keystroke_l	l	n/a
388.1515	0.1355	776303	keystroke_Key.space	Key.space	n/a
388.3085	0.0895	776617	keystroke_c	c	n/a
388.3755	0.0925	776751	keystroke_o	o	n/a
388.546	0.1145	777092	keystroke_p	p	n/a
388.7835	0.0895	777567	keystroke_y	y	n/a
388.8945	0.136	777789	keystroke_Key.space	Key.space	n/a
389.0515	0.1125	778103	keystroke_w	w	n/a
389.2885	0.0925	778577	keystroke_Key.backspace	Key.backspace	n/a
389.436	0.1135	778872	keystroke_Key.backspace	Key.backspace	n/a
389.571	0.0895	779142	keystroke_r	r	n/a
389.6615	0.09	779323	keystroke_i	i	n/a
389.7725	0.068	779545	keystroke_g	g	n/a
389.862	0.0675	779724	keystroke_h	h	n/a
389.9505	0.114	779901	keystroke_t	t	n/a
390.0195	0.0905	780039	keystroke_s	s	n/a
390.0855	0.092	780171	keystroke_Key.enter	Key.enter	n/a
390.182	5.3385	780364	prompt	n/a	appointments any how'd seminars\n
390.844	0.1115	781688	keystroke_a	a	n/a
390.9905	0.068	781981	keystroke_p	p	n/a
391.1265	0.0915	782253	keystroke_p	p	n/a
391.279	0.0895	782558	keystroke_o	o	n/a
391.4365	0.1105	782873	keystroke_i	i	n/a
391.627	0.087	783254	keystroke_n	n	n/a
391.716	0.1105	783432	keystroke_t	t	n/a
391.887	0.091	783774	keystroke_m	m	n/a
391.979	0.0885	783958	keystroke_e	e	n/a
392.0885	0.0665	784177	keystroke_n	n	n/a
392.1765	0.11	784353	keystroke_t	t	n/a
392.2415	0.068	784483	keystroke_s	s	n/a
392.2875	0.111	784575	keystroke_Key.space	Key.space	n/a
392.5915	0.0895	785183	keystroke_Key.backspace	Key.backspace	n/a
392.754	0.11	785508	keystroke_Key.backspace	Key.backspace	n/a
392.885	0.09	785770	keystroke_Key.space	Key.space	n/a
393.2495	0.089	786499	keystroke_Key.backspace	Key.backspace	n/a
393.295	0.1115	786590	keystroke_s	s	n/a
393.3835	0.067	786767	keystroke_Key.space	Key.space	n/a
393.4525	0.1115	786905	keystroke_a	a	n/a
393.5405	0.0895	787081	keystroke_n	n	n/a
393.757	0.0905	787514	keystroke_y	y	n/a
393.824	0.069	787648	keystroke_Key.space	Key.space	n/a
393.943	0.093	787886	keystroke_h	h	n/a
394.011	0.07	788022	keystroke_o	o	n/a
394.036	0.0895	788072	keystroke_w	w	n/a
394.211	0.069	788422	keystroke_'	'	n/a
394.2565	0.0905	788513	keystroke_d	d	n/a
394.399	0.09	788798	keystroke_Key.space	Key.space	n/a
394.6235	0.0895	789247	keystroke_s	s	n/a
394.802	0.113	789604	keystroke_e	e	n/a
394.869	0.0905	789738	keystroke_m	m	n/a
394.916	0.0895	789832	keystroke_i	i	n/a
395.039	0.068	790078	keystroke_n	n	n/a
395.142	0.09	790284	keystroke_a	a	n/a
395.209	0.091	790418	keystroke_r	r	n/a
395.3635	0.0675	790727	keystroke_s	s	n/a
395.4525	0.066	790905	keystroke_Key.enter	Key.enter	n/a
395.524	7.98	791048	prompt	n/a	perceived bookstore fitness dual\n
396.084	0.1135	792168	keystroke_p	p	n/a
396.1495	0.1145	792299	keystroke_r	r	n/a
396.2185	0.068	792437	keystroke_e	e	n/a
396.3995	0.068	792799	keystroke_v	v	n/a
396.4445	0.09	792889	keystroke_e	e	n/a
396.935	0.0885	793870	keystroke_Key.backspace	Key.backspace	n/a
397.0935	0.111	794187	keystroke_Key.backspace	Key.backspace	n/a
397.1815	0.133	794363	keystroke_c	c	n/a
397.316	0.1335	794632	keystroke_e	e	n/a
398.1245	0.135	796249	keystroke_i	i	n/a
398.3045	0.1115	796609	keystroke_v	v	n/a
398.4485	0.1115	796897	keystroke_e	e	n/a
398.602	0.112	797204	keystroke_d	d	n/a
398.7745	0.137	797549	keystroke_Key.space	Key.space	n/a
399.536	0.114	799072	keystroke_b	b	n/a
399.7385	0.09	799477	keystroke_o	o	n/a
399.891	0.0655	799782	keystroke_o	o	n/a
400.031	0.1125	800062	keystroke_k	k	n/a
400.1665	0.1545	800333	keystroke_Key.space	Key.space	n/a
400.465	0.1115	800930	keystroke_Key.backspace	Key.backspace	n/a
400.5525	0.046	801105	keystroke_s	s	n/a
400.7145	0.088	801429	keystroke_t	t	n/a
400.8035	0.0685	801607	keystroke_o	o	n/a
400.893	0.1335	801786	keystroke_r	r	n/a
400.9815	0.091	801963	keystroke_e	e	n/a
401.0485	0.0925	802097	keystroke_Key.space	Key.space	n/a
401.2565	0.091	802513	keystroke_f	f	n/a
401.3715	0.068	802743	keystroke_i	i	n/a
401.4685	0.111	802937	keystroke_t	t	n/a
401.5805	0.088	803161	keystroke_e	e	n/a
401.7085	0.088	803417	keystroke_n	n	n/a
401.9485	0.088	803897	keystroke_Key.backspace	Key.backspace	n/a
402.0735	0.1135	804147	keystroke_Key.backspace	Key.backspace	n/a
402.209	0.0685	804418	keystroke_n	n	n/a
402.2545	0.068	804509	keystroke_e	e	n/a
402.4335	0.068	804867	keystroke_s	s	n/a
402.583	0.0655	805166	keystroke_s	s	n/a
402.7155	0.068	805431	keystroke_Key.space	Key.space	n/a
402.8045	0.09	805609	keystroke_d	d	n/a
402.8965	0.087	805793	keystroke_u	u	n/a
403.0045	0.113	806009	keystroke_a	a	n/a
403.0935	0.0905	806187	keystroke_l	l	n/a
403.4125	0.0895	806825	keystroke_Key.enter	Key.enter	n/a
403.5125	6.3235	807025	prompt	n/a	table classes familiar orange\n
404.7725	0.1125	809545	keystroke_t	t	n/a
404.8855	0.1115	809771	keystroke_a	a	n/a
405.018	0.0675	810036	keystroke_b	b	n/a
405.108	0.0905	810216	keystroke_l	l	n/a
405.175	0.09	810350	keystroke_e	e	n/a
405.287	0.088	810574	keystroke_Key.space	Key.space	n/a
405.4245	0.1095	810849	keystroke_c	c	n/a
405.556	0.068	811112	keystroke_l	l	n/a
405.6005	0.0895	811201	keystroke_a	a	n/a
405.691	0.087	811382	keystroke_s	s	n/a
405.8335	0.0895	811667	keystroke_s	s	n/a
406.002	0.068	812004	keystroke_e	e	n/a
406.162	0.0875	812324	keystroke_s	s	n/a
406.2505	0.11	812501	keystroke_Key.space	Key.space	n/a
406.6175	0.1095	813235	keystroke_f	f	n/a
406.7045	0.1575	813409	keystroke_a	a	n/a
407.0355	0.1105	814071	keystroke_m	m	n/a
407.1015	0.09	814203	keystroke_i	i	n/a
407.3065	0.111	814613	keystroke_l	l	n/a
407.456	0.0695	814912	keystroke_a	a	n/a
407.526	0.066	815052	keystroke_i	i	n/a
407.7235	0.0905	815447	keystroke_r	r	n/a
407.814	0.0665	815628	keystroke_Key.backspace	Key.backspace	n/a
407.9635	0.09	815927	keystroke_Key.backspace	Key.backspace	n/a
408.1225	0.0895	816245	keystroke_Key.backspace	Key.backspace	n/a
408.214	0.0865	816428	keystroke_i	i	n/a
408.255	0.113	816510	keystroke_a	a	n/a
408.3015	0.1325	816603	keystroke_r	r	n/a
408.389	0.1115	816778	keystroke_Key.space	Key.space	n/a
408.7435	0.113	817487	keystroke_o	o	n/a
408.8335	0.09	817667	keystroke_r	r	n/a
408.9455	0.111	817891	keystroke_a	a	n/a
409.0915	0.0905	818183	keystroke_n	n	n/a
409.1355	0.0925	818271	keystroke_g	g	n/a
409.205	0.0895	818410	keystroke_e	e	n/a
409.3145	0.113	818629	keystroke_Key.space	Key.space	n/a
409.592	0.0665	819184	keystroke_Key.backspace	Key.backspace	n/a
409.766	0.068	819532	keystroke_Key.enter	Key.enter	n/a
409.8395	75.971	819679	prompt	n/a	compare officers agreed calculator\n
414.262	0.112	828524	keystroke_g	g	n/a
414.4305	0.069	828861	keystroke_o	o	n/a
414.5685	0.09	829137	keystroke_o	o	n/a
414.636	0.088	829272	keystroke_g	g	n/a
414.766	0.0905	829532	keystroke_Key.enter	Key.enter	n/a
415.605	0.112	831210	keystroke_d	d	n/a
415.718	0.11	831436	keystroke_o	o	n/a
415.85	0.091	831700	keystroke_Key.space	Key.space	n/a
415.942	0.0695	831884	keystroke_i	i	n/a
416.04	0.089	832080	keystroke_Key.space	Key.space	n/a
416.159	0.0685	832318	keystroke_p	p	n/a
416.279	0.133	832558	keystroke_i	i	n/a
416.487	0.068	832974	keystroke_n	n	n/a
416.556	0.089	833112	keystroke_c	c	n/a
416.6665	0.068	833333	keystroke_h	h	n/a
416.735	0.11	833470	keystroke_Key.space	Key.space	n/a
417.2985	0.111	834597	keystroke_t	t	n/a
417.5185	0.1135	835037	keystroke_h	h	n/a
417.6085	0.0685	835217	keystroke_e	e	n/a
417.6975	0.135	835395	keystroke_Key.space	Key.space	n/a
418.296	0.1145	836592	keystroke_t	t	n/a
418.387	0.134	836774	keystroke_i	i	n/a
418.476	0.1135	836952	keystroke_p	p	n/a
418.5905	0.1085	837181	keystroke_Key.space	Key.space	n/a
419.6955	0.112	839391	keystroke_Key.down	Key.down	n/a
419.975	0.0685	839950	keystroke_Key.enter	Key.enter	n/a
480.5855	0.092	961171	keystroke_o	o	n/a
480.6545	0.068	961309	keystroke_c	c	n/a
480.8215	0.0665	961643	keystroke_Key.backspace	Key.backspace	n/a
480.954	0.0905	961908	keystroke_Key.backspace	Key.backspace	n/a
481.0205	0.1345	962041	keystroke_c	c	n/a
481.156	0.088	962312	keystroke_o	o	n/a
481.351	0.089	962702	keystroke_m	m	n/a
481.416	0.068	962832	keystroke_p	p	n/a
481.441	0.1535	962882	keystroke_a	a	n/a
481.5715	0.112	963143	keystroke_r	r	n/a
481.64	0.088	963280	keystroke_e	e	n/a
481.798	0.1365	963596	keystroke_Key.space	Key.space	n/a
482.033	0.1135	964066	keystroke_o	o	n/a
482.1475	0.043	964295	keystroke_f	f	n/a
482.271	0.068	964542	keystroke_f	f	n/a
482.3685	0.0905	964737	keystroke_i	i	n/a
482.46	0.068	964920	keystroke_c	c	n/a
482.529	0.065	965058	keystroke_e	e	n/a
482.6535	0.089	965307	keystroke_r	r	n/a
482.7645	0.068	965529	keystroke_s	s	n/a
482.8325	0.0885	965665	keystroke_Key.space	Key.space	n/a
482.922	0.111	965844	keystroke_a	a	n/a
483.055	0.068	966110	keystroke_g	g	n/a
483.234	0.1125	966468	keystroke_r	r	n/a
483.278	0.0465	966556	keystroke_e	e	n/a
483.403	0.0885	966806	keystroke_e	e	n/a
483.599	0.0905	967198	keystroke_d	d	n/a
483.727	0.111	967454	keystroke_Key.space	Key.space	n/a
483.8595	0.111	967719	keystroke_c	c	n/a
483.948	0.112	967896	keystroke_a	a	n/a
483.992	0.112	967984	keystroke_l	l	n/a
484.2775	0.067	968555	keystroke_c	c	n/a
484.7545	0.0915	969509	keystroke_u	u	n/a
484.965	0.0895	969930	keystroke_l	l	n/a
485.076	0.1105	970152	keystroke_a	a	n/a
485.2085	0.088	970417	keystroke_o	o	n/a
485.4435	0.0885	970887	keystroke_Key.backspace	Key.backspace	n/a
485.5095	0.0915	971019	keystroke_t	t	n/a
485.5755	0.0695	971151	keystroke_o	o	n/a
485.6675	0.091	971335	keystroke_r	r	n/a
485.7595	0.042	971519	keystroke_Key.enter	Key.enter	n/a
485.8175	6.4425	971635	prompt	n/a	leone presentation shares occasion\n
487.292	0.1125	974584	keystroke_l	l	n/a
487.3815	0.091	974763	keystroke_e	e	n/a
487.4735	0.0855	974947	keystroke_o	o	n/a
487.7125	0.1125	975425	keystroke_n	n	n/a
487.826	0.0675	975652	keystroke_e	e	n/a
487.9375	0.114	975875	keystroke_Key.space	Key.space	n/a
488.1235	0.091	976247	keystroke_p	p	n/a
488.2355	0.0895	976471	keystroke_r	r	n/a
488.302	0.068	976604	keystroke_e	e	n/a
488.4455	0.068	976891	keystroke_s	s	n/a
488.559	0.09	977118	keystroke_e	e	n/a
488.7565	0.0895	977513	keystroke_n	n	n/a
488.822	0.113	977644	keystroke_t	t	n/a
488.936	0.177	977872	keystroke_a	a	n/a
489.067	0.138	978134	keystroke_i	i	n/a
489.114	0.089	978228	keystroke_t	t	n/a
489.346	0.067	978692	keystroke_Key.backspace	Key.backspace	n/a
489.485	0.0905	978970	keystroke_Key.backspace	Key.backspace	n/a
489.53	0.112	979060	keystroke_t	t	n/a
489.619	0.09	979238	keystroke_i	i	n/a
489.664	0.0675	979328	keystroke_o	o	n/a
489.81	0.071	979620	keystroke_n	n	n/a
489.9015	0.089	979803	keystroke_Key.space	Key.space	n/a
490.0435	0.115	980087	keystroke_s	s	n/a
490.159	0.065	980318	keystroke_h	h	n/a
490.225	0.111	980450	keystroke_a	a	n/a
490.337	0.113	980674	keystroke_r	r	n/a
490.426	0.0685	980852	keystroke_e	e	n/a
490.58	0.0665	981160	keystroke_s	s	n/a
490.6475	0.0885	981295	keystroke_Key.space	Key.space	n/a
490.786	0.091	981572	keystroke_o	o	n/a
490.8985	0.0675	981797	keystroke_c	c	n/a
491.049	0.0675	982098	keystroke_c	c	n/a
491.138	0.091	982276	keystroke_a	a	n/a
491.2505	0.089	982501	keystroke_s	s	n/a
491.3835	0.113	982767	keystroke_i	i	n/a
491.4515	0.0885	982903	keystroke_o	o	n/a
491.627	0.089	983254	keystroke_n	n	n/a
491.7875	0.1125	983575	keystroke_Key.space	Key.space	n/a
492.008	0.067	984016	keystroke_Key.backspace	Key.backspace	n/a
492.19	0.068	984380	keystroke_Key.enter	Key.enter	n/a
492.263	8.1805	984526	prompt	n/a	presentation initiatives book costume\n
492.809	0.1125	985618	keystroke_p	p	n/a
492.876	0.0695	985752	keystroke_r	r	n/a
492.9225	0.0885	985845	keystroke_e	e	n/a
493.087	0.09	986174	keystroke_s	s	n/a
493.207	0.0895	986414	keystroke_e	e	n/a
493.3955	0.0905	986791	keystroke_n	n	n/a
493.462	0.0895	986924	keystroke_t	t	n/a
493.7535	0.11	987507	keystroke_t	t	n/a
493.9015	0.069	987803	keystroke_i	i	n/a
493.9245	0.112	987849	keystroke_o	o	n/a
494.144	0.0675	988288	keystroke_Key.backspace	Key.backspace	n/a
494.3015	0.0685	988603	keystroke_Key.backspace	Key.backspace	n/a
494.415	0.068	988830	keystroke_a	a	n/a
494.484	0.087	988968	keystroke_Key.backspace	Key.backspace	n/a
494.6705	0.0885	989341	keystroke_Key.backspace	Key.backspace	n/a
494.76	0.111	989520	keystroke_a	a	n/a
494.8255	0.1125	989651	keystroke_t	t	n/a
494.892	0.1125	989784	keystroke_i	i	n/a
494.9595	0.068	989919	keystroke_o	o	n/a
495.0955	0.09	990191	keystroke_n	n	n/a
495.2065	0.1105	990413	keystroke_Key.space	Key.space	n/a
495.3395	0.09	990679	keystroke_i	i	n/a
495.51	0.066	991020	keystroke_n	n	n/a
495.598	0.087	991196	keystroke_v	v	n/a
495.7075	0.0885	991415	keystroke_i	i	n/a
495.926	0.068	991852	keystroke_t	t	n/a
496.266	0.088	992532	keystroke_Key.backspace	Key.backspace	n/a
496.43	0.089	992860	keystroke_Key.backspace	Key.backspace	n/a
496.587	0.1095	993174	keystroke_Key.backspace	Key.backspace	n/a
496.837	0.087	993674	keystroke_n	n	n/a
497.064	0.067	994128	keystroke_i	i	n/a
497.153	0.0685	994306	keystroke_t	t	n/a
497.2615	0.0925	994523	keystroke_i	i	n/a
497.375	0.09	994750	keystroke_a	a	n/a
497.495	0.112	994990	keystroke_t	t	n/a
497.816	0.1105	995632	keystroke_Key.backspace	Key.backspace	n/a
497.9695	0.1125	995939	keystroke_i	i	n/a
498.0355	0.1135	996071	keystroke_v	v	n/a
498.103	0.1115	996206	keystroke_e	e	n/a
498.291	0.091	996582	keystroke_s	s	n/a
498.404	0.1115	996808	keystroke_Key.space	Key.space	n/a
498.854	0.091	997708	keystroke_b	b	n/a
498.946	0.086	997892	keystroke_o	o	n/a
499.09	0.09	998180	keystroke_o	o	n/a
499.201	0.0915	998402	keystroke_k	k	n/a
499.3215	0.112	998643	keystroke_Key.space	Key.space	n/a
499.3875	0.114	998775	keystroke_c	c	n/a
499.584	0.0905	999168	keystroke_o	o	n/a
499.6505	0.047	999301	keystroke_s	s	n/a
499.9515	0.0935	999903	keystroke_t	t	n/a
500.021	0.09	1000042	keystroke_u	u	n/a
500.204	0.091	1000408	keystroke_m	m	n/a
500.2485	0.092	1000497	keystroke_e	e	n/a
500.373	0.069	1000746	keystroke_Key.enter	Key.enter	n/a
500.447	6.7995	1000894	prompt	n/a	rolls economics necessity pasta\n
500.9595	0.09	1001919	keystroke_r	r	n/a
501.026	0.0905	1002052	keystroke_o	o	n/a
501.182	0.068	1002364	keystroke_l	l	n/a
501.321	0.0695	1002642	keystroke_l	l	n/a
501.366	0.0925	1002732	keystroke_s	s	n/a
501.4815	0.09	1002963	keystroke_Key.space	Key.space	n/a
501.5725	0.066	1003145	keystroke_e	e	n/a
502.0175	0.114	1004035	keystroke_c	c	n/a
502.132	0.1105	1004264	keystroke_o	o	n/a
502.346	0.1105	1004692	keystroke_n	n	n/a
502.414	0.087	1004828	keystroke_i	i	n/a
502.732	0.0685	1005464	keystroke_m	m	n/a
502.7755	0.09	1005551	keystroke_i	i	n/a
502.9005	0.1345	1005801	keystroke_c	c	n/a
503.1245	0.045	1006249	keystroke_s	s	n/a
503.2135	0.114	1006427	keystroke_Key.space	Key.space	n/a
503.9055	0.0925	1007811	keystroke_n	n	n/a
503.951	0.069	1007902	keystroke_e	e	n/a
504.117	0.067	1008234	keystroke_c	c	n/a
504.2595	0.091	1008519	keystroke_c	c	n/a
504.3735	0.046	1008747	keystroke_e	e	n/a
504.5205	0.0675	1009041	keystroke_s	s	n/a
504.7055	0.0685	1009411	keystroke_s	s	n/a
504.8955	0.067	1009791	keystroke_Key.backspace	Key.backspace	n/a
505.046	0.091	1010092	keystroke_Key.backspace	Key.backspace	n/a
505.208	0.068	1010416	keystroke_Key.backspace	Key.backspace	n/a
505.356	0.111	1010712	keystroke_Key.backspace	Key.backspace	n/a
505.5935	0.045	1011187	keystroke_e	e	n/a
505.6605	0.067	1011321	keystroke_e	e	n/a
505.8375	0.07	1011675	keystroke_s	s	n/a
506.0155	0.067	1012031	keystroke_s	s	n/a
506.1495	0.0665	1012299	keystroke_i	i	n/a
506.257	0.09	1012514	keystroke_t	t	n/a
506.348	0.088	1012696	keystroke_y	y	n/a
506.437	0.111	1012874	keystroke_Key.space	Key.space	n/a
506.692	0.0915	1013384	keystroke_p	p	n/a
506.7585	0.0925	1013517	keystroke_a	a	n/a
506.828	0.0885	1013656	keystroke_s	s	n/a
507.0205	0.0905	1014041	keystroke_t	t	n/a
507.088	0.134	1014176	keystroke_a	a	n/a
507.1775	0.067	1014355	keystroke_Key.enter	Key.enter	n/a
507.25	9.233	1014500	prompt	n/a	saskatchewan princeton sharp pittsburgh\n
507.834	0.1335	1015668	keystroke_s	s	n/a
508.461	0.1365	1016922	keystroke_a	a	n/a
508.734	0.135	1017468	keystroke_s	s	n/a
508.965	0.0455	1017930	keystroke_a	a	n/a
509.0405	0.0665	1018081	keystroke_k	k	n/a
509.2085	0.09	1018417	keystroke_Key.backspace	Key.backspace	n/a
509.3535	0.089	1018707	keystroke_Key.backspace	Key.backspace	n/a
509.4445	0.0875	1018889	keystroke_k	k	n/a
509.572	0.1315	1019144	keystroke_a	a	n/a
510.9525	0.1125	1021905	keystroke_t	t	n/a
511.1785	0.1135	1022357	keystroke_c	c	n/a
511.268	0.091	1022536	keystroke_h	h	n/a
511.4775	0.0665	1022955	keystroke_e	e	n/a
511.653	0.069	1023306	keystroke_w	w	n/a
511.88	0.1355	1023760	keystroke_a	a	n/a
511.9915	0.091	1023983	keystroke_n	n	n/a
512.2855	0.1355	1024571	keystroke_Key.space	Key.space	n/a
512.588	0.09	1025176	keystroke_p	p	n/a
512.655	0.0695	1025310	keystroke_r	r	n/a
512.795	0.088	1025590	keystroke_i	i	n/a
512.9865	0.0645	1025973	keystroke_n	n	n/a
513.09	0.09	1026180	keystroke_c	c	n/a
513.156	0.0925	1026312	keystroke_e	e	n/a
513.342	0.111	1026684	keystroke_t	t	n/a
513.3855	0.09	1026771	keystroke_o	o	n/a
513.5535	0.0665	1027107	keystroke_n	n	n/a
513.6415	0.111	1027283	keystroke_Key.space	Key.space	n/a
513.7535	0.1315	1027507	keystroke_s	s	n/a
513.886	0.044	1027772	keystroke_h	h	n/a
513.931	0.135	1027862	keystroke_a	a	n/a
514.0405	0.0915	1028081	keystroke_r	r	n/a
514.109	0.0895	1028218	keystroke_p	p	n/a
514.2195	0.1135	1028439	keystroke_Key.space	Key.space	n/a
514.438	0.068	1028876	keystroke_p	p	n/a
514.6195	0.0665	1029239	keystroke_i	i	n/a
514.688	0.0655	1029376	keystroke_t	t	n/a
514.828	0.0695	1029656	keystroke_t	t	n/a
515.3305	0.0895	1030661	keystroke_s	s	n/a
515.45	0.0905	1030900	keystroke_b	b	n/a
515.493	0.092	1030986	keystroke_u	u	n/a
515.5615	0.069	1031123	keystroke_r	r	n/a
515.731	0.113	1031462	keystroke_g	g	n/a
516.1895	0.0915	1032379	keystroke_h	h	n/a
516.368	0.113	1032736	keystroke_Key.enter	Key.enter	n/a
516.486	8.5385	1032972	prompt	n/a	myth wilson commercial voting\n
517.1	0.0915	1034200	keystroke_m	m	n/a
517.2955	0.0665	1034591	keystroke_y	y	n/a
517.384	0.092	1034768	keystroke_t	t	n/a
517.477	0.065	1034954	keystroke_h	h	n/a
517.564	0.0905	1035128	keystroke_Key.space	Key.space	n/a
517.6315	0.091	1035263	keystroke_w	w	n/a
517.6985	0.0925	1035397	keystroke_i	i	n/a
517.867	0.0695	1035734	keystroke_l	l	n/a
517.912	0.1145	1035824	keystroke_s	s	n/a
518.0045	0.0665	1036009	keystroke_o	o	n/a
518.162	0.0675	1036324	keystroke_n	n	n/a
518.2525	0.09	1036505	keystroke_Key.space	Key.space	n/a
518.318	0.0905	1036636	keystroke_c	c	n/a
518.3855	0.09	1036771	keystroke_e	e	n/a
518.5295	0.069	1037059	keystroke_o	o	n/a
518.698	0.047	1037396	keystroke_m	m	n/a
518.855	0.0905	1037710	keystroke_Key.backspace	Key.backspace	n/a
519.007	0.0675	1038014	keystroke_Key.backspace	Key.backspace	n/a
519.154	0.0925	1038308	keystroke_Key.backspace	Key.backspace	n/a
519.506	0.0695	1039012	keystroke_o	o	n/a
519.682	0.0655	1039364	keystroke_m	m	n/a
519.813	0.089	1039626	keystroke_m	m	n/a
519.904	0.0665	1039808	keystroke_e	e	n/a
519.9475	0.09	1039895	keystroke_r	r	n/a
520.0585	0.067	1040117	keystroke_i	i	n/a
520.1265	0.112	1040253	keystroke_c	c	n/a
520.215	0.091	1040430	keystroke_a	a	n/a
520.841	0.113	1041682	keystroke_Key.backspace	Key.backspace	n/a
521.082	0.089	1042164	keystroke_i	i	n/a
521.281	0.0905	1042562	keystroke_a	a	n/a
521.414	0.066	1042828	keystroke_l	l	n/a
522.063	0.068	1044126	keystroke_Key.backspace	Key.backspace	n/a
522.224	0.0675	1044448	keystroke_Key.backspace	Key.backspace	n/a
522.3875	0.067	1044775	keystroke_Key.backspace	Key.backspace	n/a
522.573	0.07	1045146	keystroke_Key.backspace	Key.backspace	n/a
522.754	0.09	1045508	keystroke_Key.backspace	Key.backspace	n/a
522.918	0.086	1045836	keystroke_c	c	n/a
523.006	0.1105	1046012	keystroke_i	i	n/a
523.1385	0.0915	1046277	keystroke_a	a	n/a
523.231	0.0885	1046462	keystroke_l	l	n/a
523.3195	0.1105	1046639	keystroke_Key.space	Key.space	n/a
523.626	0.0685	1047252	keystroke_v	v	n/a
523.7155	0.068	1047431	keystroke_o	o	n/a
523.9	0.092	1047800	keystroke_t	t	n/a
523.968	0.0905	1047936	keystroke_i	i	n/a
524.1385	0.0905	1048277	keystroke_n	n	n/a
524.1835	0.0915	1048367	keystroke_g	g	n/a
524.333	0.1115	1048666	keystroke_Key.space	Key.space	n/a
524.6215	0.045	1049243	keystroke_Key.backspace	Key.backspace	n/a
524.954	0.068	1049908	keystroke_Key.enter	Key.enter	n/a
525.0285	6.7135	1050057	prompt	n/a	priest headphones bones bend\n
525.848	0.087	1051696	keystroke_p	p	n/a
525.936	0.0905	1051872	keystroke_r	r	n/a
526.099	0.0915	1052198	keystroke_i	i	n/a
526.2125	0.1135	1052425	keystroke_e	e	n/a
526.4185	0.1335	1052837	keystroke_s	s	n/a
526.53	0.0665	1053060	keystroke_t	t	n/a
526.6185	0.113	1053237	keystroke_Key.space	Key.space	n/a
526.858	0.0925	1053716	keystroke_h	h	n/a
526.9055	0.091	1053811	keystroke_e	e	n/a
526.973	0.136	1053946	keystroke_a	a	n/a
527.0855	0.093	1054171	keystroke_d	d	n/a
527.18	0.0865	1054360	keystroke_p	p	n/a
527.3125	0.0675	1054625	keystroke_g	g	n/a
527.381	0.0865	1054762	keystroke_o	o	n/a
527.569	0.068	1055138	keystroke_n	n	n/a
527.6385	0.043	1055277	keystroke_e	e	n/a
527.7685	0.0915	1055537	keystroke_Key.backspace	Key.backspace	n/a
527.912	0.087	1055824	keystroke_Key.backspace	Key.backspace	n/a
528.071	0.091	1056142	keystroke_Key.backspace	Key.backspace	n/a
528.2295	0.1125	1056459	keystroke_Key.backspace	Key.backspace	n/a
528.343	0.09	1056686	keystroke_h	h	n/a
528.434	0.0875	1056868	keystroke_o	o	n/a
528.6305	0.068	1057261	keystroke_n	n	n/a
528.6755	0.091	1057351	keystroke_e	e	n/a
528.789	0.09	1057578	keystroke_Key.space	Key.space	n/a
528.9145	0.0895	1057829	keystroke_e	e	n/a
529.208	0.089	1058416	keystroke_Key.backspace	Key.backspace	n/a
529.3775	0.0915	1058755	keystroke_Key.backspace	Key.backspace	n/a
529.444	0.115	1058888	keystroke_s	s	n/a
529.559	0.1115	1059118	keystroke_Key.space	Key.space	n/a
529.7805	0.068	1059561	keystroke_Key.backspace	Key.backspace	n/a
530.1035	0.069	1060207	keystroke_Key.space	Key.space	n/a
530.3935	0.0665	1060787	keystroke_o	o	n/a
530.7205	0.113	1061441	keystroke_Key.backspace	Key.backspace	n/a
530.855	0.091	1061710	keystroke_b	b	n/a
530.966	0.066	1061932	keystroke_o	o	n/a
531.1395	0.069	1062279	keystroke_n	n	n/a
531.1845	0.047	1062369	keystroke_e	e	n/a
531.353	0.0895	1062706	keystroke_s	s	n/a
531.6505	0.09	1063301	keystroke_Key.enter	Key.enter	n/a
531.746	9.48	1063492	prompt	n/a	montgomery connected acid nursery\n
531.965	0.0695	1063930	keystroke_b	b	n/a
532.0115	0.09	1064023	keystroke_e	e	n/a
532.1455	0.0895	1064291	keystroke_n	n	n/a
532.212	0.111	1064424	keystroke_d	d	n/a
532.8675	0.088	1065735	keystroke_Key.backspace	Key.backspace	n/a
533.039	0.0665	1066078	keystroke_Key.backspace	Key.backspace	n/a
533.1915	0.066	1066383	keystroke_Key.backspace	Key.backspace	n/a
533.358	0.09	1066716	keystroke_Key.backspace	Key.backspace	n/a
533.6625	0.111	1067325	keystroke_m	m	n/a
533.7055	0.091	1067411	keystroke_o	o	n/a
533.927	0.091	1067854	keystroke_n	n	n/a
534.3675	0.1335	1068735	keystroke_t	t	n/a
534.5515	0.1105	1069103	keystroke_o	o	n/a
534.867	0.135	1069734	keystroke_g	g	n/a
535.0525	0.044	1070105	keystroke_o	o	n/a
535.3975	0.0915	1070795	keystroke_m	m	n/a
535.465	0.114	1070930	keystroke_e	e	n/a
535.511	0.158	1071022	keystroke_r	r	n/a
535.67	0.066	1071340	keystroke_y	y	n/a
535.713	0.112	1071426	keystroke_Key.space	Key.space	n/a
536.434	0.092	1072868	keystroke_c	c	n/a
536.501	0.0695	1073002	keystroke_o	o	n/a
536.652	0.0665	1073304	keystroke_n	n	n/a
536.7815	0.0885	1073563	keystroke_n	n	n/a
536.8915	0.159	1073783	keystroke_c	c	n/a
537.173	0.114	1074346	keystroke_Key.backspace	Key.backspace	n/a
537.219	0.112	1074438	keystroke_e	e	n/a
537.308	0.0895	1074616	keystroke_c	c	n/a
537.5305	0.115	1075061	keystroke_t	t	n/a
537.598	0.0915	1075196	keystroke_e	e	n/a
537.751	0.0905	1075502	keystroke_d	d	n/a
537.817	0.112	1075634	keystroke_Key.space	Key.space	n/a
538.01	0.134	1076020	keystroke_a	a	n/a
538.251	0.0475	1076502	keystroke_i	i	n/a
538.273	0.0275	1076546	keystroke_d	d	n/a
538.427	0.091	1076854	keystroke_Key.backspace	Key.backspace	n/a
538.598	0.089	1077196	keystroke_c	c	n/a
538.737	0.046	1077474	keystroke_Key.backspace	Key.backspace	n/a
538.892	0.1135	1077784	keystroke_Key.backspace	Key.backspace	n/a
