onset	duration	sample	value	key	prompt_text
13.022	7.4525	26044	prompt	n/a	the quick brown fox jumps over a lazy dog\n
15.276	0.1095	30552	keystroke	t	n/a
15.416	0.067	30832	keystroke	h	n/a
15.504	0.091	31008	keystroke	e	n/a
15.6465	0.134	31293	keystroke	Key.space	n/a
15.781	0.109	31562	keystroke	q	n/a
15.912	0.091	31824	keystroke	u	n/a
16.004	0.111	32008	keystroke	c	n/a
16.115	0.088	32230	keystroke	k	n/a
16.3025	0.0885	32605	keystroke	Key.backspace	n/a
16.652	0.133	33304	keystroke	Key.backspace	n/a
16.9605	0.1105	33921	keystroke	i	n/a
17.092	0.0685	34184	keystroke	c	n/a
17.161	0.088	34322	keystroke	k	n/a
17.226	0.067	34452	keystroke	Key.space	n/a
17.364	0.0915	34728	keystroke	b	n/a
17.431	0.1115	34862	keystroke	r	n/a
17.5435	0.0885	35087	keystroke	o	n/a
17.608	0.0915	35216	keystroke	w	n/a
17.7205	0.0685	35441	keystroke	n	n/a
17.7895	0.1105	35579	keystroke	Key.space	n/a
17.8765	0.0895	35753	keystroke	f	n/a
17.989	0.067	35978	keystroke	o	n/a
18.078	0.091	36156	keystroke	x	n/a
18.169	0.068	36338	keystroke	Key.space	n/a
18.272	0.0925	36544	keystroke	j	n/a
18.4105	0.069	36821	keystroke	u	n/a
18.608	0.0675	37216	keystroke	m	n/a
18.653	0.091	37306	keystroke	p	n/a
18.697	0.09	37394	keystroke	s	n/a
18.809	0.0675	37618	keystroke	Key.space	n/a
18.917	0.087	37834	keystroke	o	n/a
19.005	0.088	38010	keystroke	v	n/a
19.069	0.091	38138	keystroke	e	n/a
19.207	0.092	38414	keystroke	r	n/a
19.3	0.089	38600	keystroke	Key.space	n/a
19.4105	0.0885	38821	keystroke	a	n/a
19.5755	0.1335	39151	keystroke	Key.space	n/a
19.742	0.091	39484	keystroke	l	n/a
19.899	0.046	39798	keystroke	a	n/a
19.976	0.091	39952	keystroke	z	n/a
20.1485	0.0675	40297	keystroke	y	n/a
20.404	0.0675	40808	keystroke	Key.enter	n/a
20.48	7.076	40960	prompt	n/a	determine engines dinner around\n
22.494	0.113	44988	keystroke	d	n/a
22.538	0.114	45076	keystroke	e	n/a
22.733	0.114	45466	keystroke	t	n/a
22.824	0.112	45648	keystroke	e	n/a
22.937	0.064	45874	keystroke	r	n/a
23.308	0.1345	46616	keystroke	m	n/a
23.4195	0.133	46839	keystroke	i	n/a
23.5305	0.0895	47061	keystroke	n	n/a
23.5965	0.09	47193	keystroke	e	n/a
23.724	0.114	47448	keystroke	Key.space	n/a
23.953	0.046	47906	keystroke	d	n/a
24.051	0.087	48102	keystroke	e	n/a
24.194	0.093	48388	keystroke	Key.backspace	n/a
24.346	0.1555	48692	keystroke	Key.backspace	n/a
24.478	0.0685	48956	keystroke	e	n/a
24.575	0.0895	49150	keystroke	n	n/a
24.6655	0.0895	49331	keystroke	g	n/a
24.7765	0.0895	49553	keystroke	i	n/a
24.822	0.112	49644	keystroke	n	n/a
24.8885	0.0895	49777	keystroke	e	n/a
25.143	0.1135	50286	keystroke	s	n/a
25.288	0.1345	50576	keystroke	Key.space	n/a
25.594	0.09	51188	keystroke	i	n/a
25.8015	0.1125	51603	keystroke	Key.backspace	n/a
26.167	0.066	52334	keystroke	d	n/a
26.21	0.068	52420	keystroke	i	n/a
26.373	0.0655	52746	keystroke	n	n/a
26.488	0.0915	52976	keystroke	n	n/a
26.554	0.069	53108	keystroke	e	n/a
26.599	0.088	53198	keystroke	r	n/a
26.7835	0.0905	53567	keystroke	Key.space	n/a
26.828	0.137	53656	keystroke	a	n/a
26.941	0.092	53882	keystroke	r	n/a
27.01	0.0675	54020	keystroke	o	n/a
27.144	0.067	54288	keystroke	u	n/a
27.309	0.069	54618	keystroke	n	n/a
27.379	0.086	54758	keystroke	d	n/a
27.466	0.088	54932	keystroke	Key.enter	n/a
27.56	6.2855	55120	prompt	n/a	spatial formerly dist mailman\n
29.1575	0.0905	58315	keystroke	s	n/a
29.2805	0.087	58561	keystroke	p	n/a
29.3885	0.0885	58777	keystroke	a	n/a
30.1945	0.1095	60389	keystroke	t	n/a
30.3255	0.046	60651	keystroke	i	n/a
30.3945	0.1135	60789	keystroke	a	n/a
30.509	0.064	61018	keystroke	l	n/a
30.5945	0.113	61189	keystroke	Key.space	n/a
30.825	0.0675	61650	keystroke	f	n/a
30.8935	0.088	61787	keystroke	o	n/a
31.0355	0.0905	62071	keystroke	r	n/a
31.1475	0.073	62295	keystroke	m	n/a
31.1735	0.07	62347	keystroke	e	n/a
31.662	0.1095	63324	keystroke	r	n/a
31.7485	0.069	63497	keystroke	l	n/a
31.973	0.0685	63946	keystroke	y	n/a
32.0185	0.113	64037	keystroke	Key.space	n/a
32.177	0.0675	64354	keystroke	d	n/a
32.2455	0.088	64491	keystroke	i	n/a
32.355	0.068	64710	keystroke	s	n/a
32.4615	0.1105	64923	keystroke	t	n/a
32.528	0.1095	65056	keystroke	Key.space	n/a
32.713	0.092	65426	keystroke	m	n/a
32.781	0.134	65562	keystroke	a	n/a
32.8925	0.0675	65785	keystroke	i	n/a
33.055	0.114	66110	keystroke	l	n/a
33.389	0.068	66778	keystroke	m	n/a
33.492	0.1375	66984	keystroke	a	n/a
33.605	0.0695	67210	keystroke	n	n/a
33.776	0.068	67552	keystroke	Key.enter	n/a
33.849	6.73	67698	prompt	n/a	norfolk moderators friendly name\n
34.4735	0.091	68947	keystroke	n	n/a
34.5195	0.1115	69039	keystroke	o	n/a
34.6315	0.0455	69263	keystroke	r	n/a
34.8525	0.0705	69705	keystroke	f	n/a
34.8985	0.091	69797	keystroke	o	n/a
35.0495	0.092	70099	keystroke	l	n/a
35.223	0.0905	70446	keystroke	k	n/a
35.314	0.088	70628	keystroke	Key.space	n/a
35.4635	0.1095	70927	keystroke	m	n/a
35.5515	0.092	71103	keystroke	o	n/a
35.743	0.114	71486	keystroke	d	n/a
35.811	0.1315	71622	keystroke	e	n/a
35.944	0.1085	71888	keystroke	r	n/a
36.0535	0.112	72107	keystroke	a	n/a
36.1865	0.1125	72373	keystroke	t	n/a
37.44	0.092	74880	keystroke	o	n/a
37.532	0.155	75064	keystroke	r	n/a
37.6185	0.1335	75237	keystroke	s	n/a
38.148	0.1115	76296	keystroke	Key.space	n/a
38.3815	0.1365	76763	keystroke	f	n/a
38.4715	0.0885	76943	keystroke	i	n/a
38.583	0.0675	77166	keystroke	r	n/a
38.7135	0.089	77427	keystroke	Key.backspace	n/a
38.8525	0.1145	77705	keystroke	Key.backspace	n/a
38.9	0.0885	77800	keystroke	r	n/a
39.0185	0.089	78037	keystroke	i	n/a
39.1095	0.066	78219	keystroke	e	n/a
39.267	0.089	78534	keystroke	n	n/a
39.311	0.09	78622	keystroke	d	n/a
39.4605	0.09	78921	keystroke	l	n/a
39.6815	0.0655	79363	keystroke	y	n/a
39.776	0.088	79552	keystroke	Key.space	n/a
39.95	0.0895	79900	keystroke	n	n/a
39.9715	0.0905	79943	keystroke	a	n/a
40.121	0.09	80242	keystroke	m	n/a
40.398	0.09	80796	keystroke	e	n/a
40.4885	0.089	80977	keystroke	Key.enter	n/a
40.583	11.8735	81166	prompt	n/a	clarity parenting operation specials\n
41.286	0.114	82572	keystroke	c	n/a
41.375	0.09	82750	keystroke	a	n/a
41.4425	0.0885	82885	keystroke	l	n/a
41.747	0.0885	83494	keystroke	Key.backspace	n/a
41.893	0.0665	83786	keystroke	Key.backspace	n/a
41.982	0.0695	83964	keystroke	l	n/a
42.1055	0.0905	84211	keystroke	a	n/a
42.218	0.022	84436	keystroke	i	n/a
42.5925	0.1335	85185	keystroke	Key.backspace	n/a
42.7265	0.088	85453	keystroke	r	n/a
42.8965	0.0885	85793	keystroke	i	n/a
43.1185	0.0695	86237	keystroke	t	n/a
43.1885	0.089	86377	keystroke	y	n/a
43.2785	0.133	86557	keystroke	Key.space	n/a
44.088	0.0885	88176	keystroke	p	n/a
44.154	0.156	88308	keystroke	a	n/a
44.2875	0.1125	88575	keystroke	r	n/a
44.376	0.068	88752	keystroke	e	n/a
44.446	0.0655	88892	keystroke	n	n/a
44.6285	0.113	89257	keystroke	t	n/a
45.3845	0.093	90769	keystroke	i	n/a
45.5645	0.09	91129	keystroke	n	n/a
45.6295	0.0685	91259	keystroke	g	n/a
45.9865	0.159	91973	keystroke	Key.space	n/a
46.168	0.091	92336	keystroke	o	n/a
46.1895	0.117	92379	keystroke	p	n/a
46.2805	0.048	92561	keystroke	e	n/a
46.3075	0.1095	92615	keystroke	r	n/a
46.4485	0.112	92897	keystroke	a	n/a
46.5375	0.114	93075	keystroke	t	n/a
46.604	0.0695	93208	keystroke	i	n/a
46.6525	0.088	93305	keystroke	o	n/a
46.796	0.0895	93592	keystroke	n	n/a
47.2395	0.135	94479	keystroke	Key.space	n/a
47.536	0.0895	95072	keystroke	s	n/a
47.7075	0.0675	95415	keystroke	o	n/a
47.752	0.068	95504	keystroke	e	n/a
47.862	0.112	95724	keystroke	c	n/a
48.006	0.1105	96012	keystroke	i	n/a
48.235	0.091	96470	keystroke	Key.backspace	n/a
48.377	0.089	96754	keystroke	Key.backspace	n/a
48.533	0.091	97066	keystroke	Key.backspace	n/a
48.6855	0.0685	97371	keystroke	Key.backspace	n/a
49.146	0.112	98292	keystroke	p	n/a
49.3345	0.155	98669	keystroke	c	n/a
49.467	0.0665	98934	keystroke	i	n/a
49.6095	0.1115	99219	keystroke	Key.backspace	n/a
49.743	0.1135	99486	keystroke	e	n/a
49.8575	0.064	99715	keystroke	c	n/a
50.045	0.0905	100090	keystroke	i	n/a
50.238	0.089	100476	keystroke	Key.backspace	n/a
50.4	0.0905	100800	keystroke	Key.backspace	n/a
50.5635	0.089	101127	keystroke	Key.backspace	n/a
50.7215	0.1135	101443	keystroke	Key.backspace	n/a
50.836	0.112	101672	keystroke	e	n/a
50.923	0.0915	101846	keystroke	c	n/a
50.9915	0.0895	101983	keystroke	i	n/a
51.336	0.1555	102672	keystroke	a	n/a
51.492	0.091	102984	keystroke	l	n/a
51.7625	0.177	103525	keystroke	s	n/a
52.3195	0.1355	104639	keystroke	Key.enter	n/a
52.4605	13.3725	104921	prompt	n/a	attractions virginia users politicians\n
57.7795	0.1115	115559	keystroke	a	n/a
58.2835	0.113	116567	keystroke	t	n/a
58.4705	0.1145	116941	keystroke	t	n/a
58.561	0.069	117122	keystroke	r	n/a
58.6995	0.1365	117399	keystroke	a	n/a
58.813	0.0665	117626	keystroke	c	n/a
59.009	0.068	118018	keystroke	t	n/a
59.0985	0.1125	118197	keystroke	i	n/a
59.165	0.09	118330	keystroke	o	n/a
59.332	0.067	118664	keystroke	n	n/a
59.6385	0.092	119277	keystroke	s	n/a
59.751	0.11	119502	keystroke	Key.space	n/a
60.1305	0.069	120261	keystroke	v	n/a
60.5715	0.068	121143	keystroke	i	n/a
60.9525	0.092	121905	keystroke	r	n/a
61.168	0.0675	122336	keystroke	g	n/a
61.2695	0.0895	122539	keystroke	i	n/a
61.521	0.0895	123042	keystroke	n	n/a
61.8715	0.091	123743	keystroke	a	n/a
62.136	0.134	124272	keystroke	Key.backspace	n/a
62.293	0.068	124586	keystroke	i	n/a
62.4925	0.087	124985	keystroke	a	n/a
62.6335	0.067	125267	keystroke	n	n/a
63.004	0.0905	126008	keystroke	Key.backspace	n/a
63.0705	0.1125	126141	keystroke	Key.space	n/a
63.2135	0.067	126427	keystroke	u	n/a
63.3105	0.1365	126621	keystroke	s	n/a
63.5595	0.091	127119	keystroke	e	n/a
63.6275	0.114	127255	keystroke	r	n/a
63.7185	0.091	127437	keystroke	Key.space	n/a
64.1825	0.091	128365	keystroke	p	n/a
64.3355	0.112	128671	keystroke	o	n/a
64.514	0.066	129028	keystroke	l	n/a
64.687	0.069	129374	keystroke	i	n/a
64.758	0.0865	129516	keystroke	t	n/a
64.867	0.0895	129734	keystroke	i	n/a
64.979	0.088	129958	keystroke	c	n/a
65.044	0.1115	130088	keystroke	a	n/a
65.5645	0.0895	131129	keystroke	n	n/a
65.676	0.089	131352	keystroke	s	n/a
65.766	0.065	131532	keystroke	Key.enter	n/a
65.8375	5.235	131675	prompt	n/a	offers mainland formal gain\n
66.5015	0.068	133003	keystroke	o	n/a
66.5915	0.09	133183	keystroke	f	n/a
66.7505	0.135	133501	keystroke	f	n/a
66.8615	0.134	133723	keystroke	e	n/a
66.9965	0.1095	133993	keystroke	r	n/a
67.1065	0.044	134213	keystroke	Key.space	n/a
67.3385	0.089	134677	keystroke	m	n/a
67.4485	0.068	134897	keystroke	a	n/a
67.5385	0.1115	135077	keystroke	i	n/a
67.6265	0.069	135253	keystroke	n	n/a
67.913	0.09	135826	keystroke	l	n/a
67.98	0.11	135960	keystroke	a	n/a
68.1225	0.07	136245	keystroke	n	n/a
68.17	0.0885	136340	keystroke	d	n/a
68.2795	0.112	136559	keystroke	Key.space	n/a
69.006	0.0685	138012	keystroke	f	n/a
69.095	0.09	138190	keystroke	o	n/a
69.2565	0.113	138513	keystroke	r	n/a
69.3705	0.066	138741	keystroke	m	n/a
69.4575	0.047	138915	keystroke	e	n/a
69.7115	0.112	139423	keystroke	Key.backspace	n/a
69.8245	0.088	139649	keystroke	a	n/a
69.8905	0.1125	139781	keystroke	l	n/a
70.105	0.1345	140210	keystroke	Key.space	n/a
70.3435	0.1145	140687	keystroke	g	n/a
70.5125	0.158	141025	keystroke	a	n/a
70.6465	0.069	141293	keystroke	i	n/a
70.8185	0.0665	141637	keystroke	n	n/a
70.981	0.0895	141962	keystroke	Key.enter	n/a
71.0795	10.7135	142159	prompt	n/a	webcast exclusive caution contests\n
74.515	0.112	149030	keystroke	w	n/a
74.581	0.114	149162	keystroke	e	n/a
74.695	0.091	149390	keystroke	b	n/a
75.5905	0.1125	151181	keystroke	c	n/a
75.6575	0.135	151315	keystroke	a	n/a
75.7685	0.114	151537	keystroke	s	n/a
75.9975	0.088	151995	keystroke	t	n/a
76.0635	0.1115	152127	keystroke	Key.space	n/a
76.218	0.09	152436	keystroke	e	n/a
76.403	0.0675	152806	keystroke	x	n/a
76.6935	0.1125	153387	keystroke	c	n/a
77.0795	0.1095	154159	keystroke	l	n/a
77.445	0.0905	154890	keystroke	Key.backspace	n/a
77.5905	0.0445	155181	keystroke	c	n/a
77.8995	0.1365	155799	keystroke	Key.backspace	n/a
78.188	0.089	156376	keystroke	l	n/a
78.404	0.0665	156808	keystroke	u	n/a
78.4715	0.088	156943	keystroke	s	n/a
78.5905	0.0665	157181	keystroke	i	n/a
78.677	0.115	157354	keystroke	v	n/a
78.769	0.111	157538	keystroke	e	n/a
78.881	0.108	157762	keystroke	Key.space	n/a
79.276	0.09	158552	keystroke	c	n/a
79.367	0.11	158734	keystroke	a	n/a
79.454	0.068	158908	keystroke	u	n/a
79.7425	0.1345	159485	keystroke	t	n/a
79.8545	0.0895	159709	keystroke	i	n/a
79.898	0.067	159796	keystroke	o	n/a
80.044	0.0915	160088	keystroke	n	n/a
80.1945	0.1115	160389	keystroke	Key.space	n/a
80.329	0.07	160658	keystroke	c	n/a
80.399	0.0665	160798	keystroke	o	n/a
80.552	0.09	161104	keystroke	n	n/a
80.5965	0.112	161193	keystroke	t	n/a
80.685	0.0915	161370	keystroke	e	n/a
80.8335	0.0935	161667	keystroke	n	n/a
80.961	0.114	161922	keystroke	t	n/a
81.052	0.0685	162104	keystroke	s	n/a
81.242	0.087	162484	keystroke	Key.backspace	n/a
81.3715	0.0875	162743	keystroke	Key.backspace	n/a
81.4805	0.1345	162961	keystroke	s	n/a
81.592	0.11	163184	keystroke	t	n/a
81.723	0.0685	163446	keystroke	Key.enter	n/a
81.7965	6.9205	163593	prompt	n/a	signing record facing statutes\n
84.368	0.111	168736	keystroke	s	n/a
84.5015	0.0875	169003	keystroke	i	n/a
84.634	0.1105	169268	keystroke	g	n/a
84.766	0.0895	169532	keystroke	i	n/a
84.875	0.0885	169750	keystroke	n	n/a
84.9655	0.0875	169931	keystroke	g	n/a
85.099	0.113	170198	keystroke	Key.space	n/a
85.3235	0.0905	170647	keystroke	r	n/a
85.3915	0.09	170783	keystroke	e	n/a
85.525	0.089	171050	keystroke	c	n/a
85.6145	0.0665	171229	keystroke	o	n/a
85.714	0.0895	171428	keystroke	r	n/a
85.898	0.091	171796	keystroke	d	n/a
86.0095	0.135	172019	keystroke	Key.space	n/a
86.309	0.0695	172618	keystroke	f	n/a
86.3795	0.1325	172759	keystroke	a	n/a
86.5125	0.0645	173025	keystroke	c	n/a
86.873	0.091	173746	keystroke	i	n/a
87.0435	0.07	174087	keystroke	n	n/a
87.0885	0.069	174177	keystroke	g	n/a
87.1795	0.1105	174359	keystroke	Key.space	n/a
87.659	0.089	175318	keystroke	s	n/a
87.9345	0.111	175869	keystroke	t	n/a
88.0475	0.107	176095	keystroke	a	n/a
88.1315	0.1115	176263	keystroke	t	n/a
88.264	0.068	176528	keystroke	u	n/a
88.379	0.0875	176758	keystroke	e	n/a
88.56	0.111	177120	keystroke	s	n/a
88.6265	0.0885	177253	keystroke	Key.enter	n/a
88.721	12.5245	177442	prompt	n/a	fonts notifications francisco villa\n
89.419	0.067	178838	keystroke	f	n/a
89.5075	0.07	179015	keystroke	o	n/a
89.6725	0.091	179345	keystroke	n	n/a
89.718	0.1335	179436	keystroke	t	n/a
89.7845	0.09	179569	keystroke	s	n/a
89.875	0.133	179750	keystroke	Key.space	n/a
91.0435	0.0675	182087	keystroke	n	n/a
91.1785	0.1145	182357	keystroke	o	n/a
91.269	0.135	182538	keystroke	t	n/a
92.534	0.069	185068	keystroke	i	n/a
92.647	0.1125	185294	keystroke	f	n/a
92.936	0.114	185872	keystroke	t	n/a
93.051	0.134	186102	keystroke	i	n/a
93.139	0.113	186278	keystroke	o	n/a
93.5785	0.155	187157	keystroke	Key.backspace	n/a
94.004	0.09	188008	keystroke	Key.backspace	n/a
94.2175	0.0875	188435	keystroke	Key.backspace	n/a
95.0695	0.158	190139	keystroke	Key.backspace	n/a
95.6435	0.132	191287	keystroke	Key.backspace	n/a
96.478	0.0895	192956	keystroke	i	n/a
96.7265	0.047	193453	keystroke	f	n/a
97.1885	0.089	194377	keystroke	i	n/a
97.2995	0.069	194599	keystroke	c	n/a
97.3225	0.137	194645	keystroke	a	n/a
97.5505	0.112	195101	keystroke	t	n/a
97.6385	0.069	195277	keystroke	i	n/a
97.6635	0.066	195327	keystroke	o	n/a
97.8075	0.091	195615	keystroke	n	n/a
97.8755	0.091	195751	keystroke	s	n/a
97.9665	0.11	195933	keystroke	Key.space	n/a
98.496	0.1555	196992	keystroke	r	n/a
98.583	0.046	197166	keystroke	a	n/a
98.792	0.09	197584	keystroke	Key.backspace	n/a
98.943	0.091	197886	keystroke	Key.backspace	n/a
99.035	0.1125	198070	keystroke	f	n/a
99.079	0.113	198158	keystroke	r	n/a
99.169	0.154	198338	keystroke	a	n/a
99.279	0.112	198558	keystroke	n	n/a
99.5675	0.0885	199135	keystroke	c	n/a
99.718	0.067	199436	keystroke	i	n/a
99.785	0.091	199570	keystroke	s	n/a
100.062	0.136	200124	keystroke	c	n/a
100.13	0.0915	200260	keystroke	o	n/a
100.3215	0.112	200643	keystroke	Key.space	n/a
100.6545	0.093	201309	keystroke	v	n/a
100.698	0.094	201396	keystroke	i	n/a
100.8765	0.068	201753	keystroke	l	n/a
101.0015	0.0425	202003	keystroke	l	n/a
101.046	0.11	202092	keystroke	a	n/a
101.157	0.087	202314	keystroke	Key.enter	n/a
101.2505	5.7505	202501	prompt	n/a	celebration premium small gallery\n
101.713	0.1125	203426	keystroke	c	n/a
101.8265	0.0215	203653	keystroke	a	n/a
102.2165	0.113	204433	keystroke	Key.backspace	n/a
102.3055	0.069	204611	keystroke	e	n/a
102.3955	0.089	204791	keystroke	l	n/a
102.5055	0.045	205011	keystroke	e	n/a
102.6705	0.071	205341	keystroke	b	n/a
103.286	0.112	206572	keystroke	r	n/a
103.375	0.112	206750	keystroke	a	n/a
103.488	0.113	206976	keystroke	t	n/a
103.554	0.048	207108	keystroke	i	n/a
103.576	0.092	207152	keystroke	o	n/a
103.761	0.046	207522	keystroke	n	n/a
104.085	0.137	208170	keystroke	Key.space	n/a
104.308	0.091	208616	keystroke	p	n/a
104.3535	0.1125	208707	keystroke	r	n/a
104.4	0.0885	208800	keystroke	e	n/a
104.511	0.069	209022	keystroke	m	n/a
104.557	0.068	209114	keystroke	i	n/a
104.873	0.156	209746	keystroke	u	n/a
105.005	0.091	210010	keystroke	m	n/a
105.2475	0.113	210495	keystroke	Key.space	n/a
105.5675	0.1125	211135	keystroke	s	n/a
105.656	0.0685	211312	keystroke	m	n/a
105.8325	0.1135	211665	keystroke	a	n/a
105.922	0.0465	211844	keystroke	l	n/a
106.038	0.0675	212076	keystroke	l	n/a
106.1345	0.111	212269	keystroke	Key.space	n/a
106.2465	0.088	212493	keystroke	g	n/a
106.311	0.114	212622	keystroke	a	n/a
106.4005	0.047	212801	keystroke	l	n/a
106.5015	0.066	213003	keystroke	l	n/a
106.5895	0.09	213179	keystroke	e	n/a
106.6335	0.112	213267	keystroke	r	n/a
106.7465	0.044	213493	keystroke	y	n/a
106.9305	0.068	213861	keystroke	Key.enter	n/a
107.004	10.134	214008	prompt	n/a	isolated football allocation photograph\n
108.0735	0.088	216147	keystroke	i	n/a
108.183	0.0665	216366	keystroke	s	n/a
108.2735	0.091	216547	keystroke	o	n/a
108.4185	0.1125	216837	keystroke	l	n/a
108.4635	0.1135	216927	keystroke	t	n/a
108.508	0.113	217016	keystroke	e	n/a
108.694	0.1115	217388	keystroke	d	n/a
108.783	0.0895	217566	keystroke	Key.space	n/a
109.0435	0.09	218087	keystroke	o	n/a
109.409	0.0885	218818	keystroke	Key.backspace	n/a
109.9375	0.091	219875	keystroke	f	n/a
110.0485	0.046	220097	keystroke	o	n/a
110.1755	0.069	220351	keystroke	o	n/a
110.2205	0.1345	220441	keystroke	t	n/a
110.6135	0.112	221227	keystroke	b	n/a
110.7035	0.114	221407	keystroke	a	n/a
110.7475	0.0685	221495	keystroke	l	n/a
110.8775	0.092	221755	keystroke	l	n/a
110.991	0.0675	221982	keystroke	Key.space	n/a
111.0595	0.109	222119	keystroke	a	n/a
111.1915	0.066	222383	keystroke	l	n/a
111.3495	0.069	222699	keystroke	o	n/a
111.4805	0.09	222961	keystroke	o	n/a
111.6185	0.133	223237	keystroke	c	n/a
112.0675	0.114	224135	keystroke	a	n/a
112.1575	0.1335	224315	keystroke	t	n/a
112.2455	0.089	224491	keystroke	i	n/a
112.3125	0.067	224625	keystroke	o	n/a
112.4655	0.067	224931	keystroke	n	n/a
112.5535	0.1145	225107	keystroke	Key.space	n/a
112.7115	0.0475	225423	keystroke	a	n/a
112.868	0.0455	225736	keystroke	p	n/a
113.068	0.1355	226136	keystroke	Key.backspace	n/a
113.298	0.132	226596	keystroke	p	n/a
113.432	0.107	226864	keystroke	h	n/a
113.604	0.089	227208	keystroke	Key.backspace	n/a
113.7745	0.09	227549	keystroke	Key.backspace	n/a
113.9345	0.0695	227869	keystroke	Key.backspace	n/a
114.18	0.154	228360	keystroke	p	n/a
114.3345	0.1565	228669	keystroke	h	n/a
114.4225	0.091	228845	keystroke	o	n/a
115.7475	0.0895	231495	keystroke	t	n/a
115.8805	0.11	231761	keystroke	o	n/a
116.2525	0.1345	232505	keystroke	g	n/a
116.32	0.133	232640	keystroke	r	n/a
116.4975	0.156	232995	keystroke	a	n/a
116.6295	0.09	233259	keystroke	p	n/a
116.8365	0.066	233673	keystroke	h	n/a
117.0465	0.09	234093	keystroke	Key.enter	n/a
117.1425	5.2075	234285	prompt	n/a	oven santa merchandise schools\n
117.7675	0.0905	235535	keystroke	o	n/a
117.8125	0.156	235625	keystroke	v	n/a
117.946	0.09	235892	keystroke	e	n/a
118.0365	0.112	236073	keystroke	n	n/a
118.149	0.132	236298	keystroke	Key.space	n/a
118.458	0.1155	236916	keystroke	s	n/a
118.5495	0.1135	237099	keystroke	a	n/a
118.664	0.09	237328	keystroke	n	n/a
118.805	0.1115	237610	keystroke	t	n/a
118.893	0.0905	237786	keystroke	a	n/a
119.005	0.088	238010	keystroke	Key.space	n/a
119.191	0.091	238382	keystroke	m	n/a
119.235	0.091	238470	keystroke	e	n/a
119.282	0.091	238564	keystroke	r	n/a
119.458	0.068	238916	keystroke	c	n/a
119.547	0.071	239094	keystroke	h	n/a
119.639	0.0905	239278	keystroke	a	n/a
120.08	0.089	240160	keystroke	n	n/a
120.17	0.089	240340	keystroke	d	n/a
120.307	0.09	240614	keystroke	i	n/a
120.598	0.069	241196	keystroke	s	n/a
120.753	0.0675	241506	keystroke	e	n/a
120.952	0.115	241904	keystroke	Key.space	n/a
121.179	0.1115	242358	keystroke	s	n/a
121.415	0.113	242830	keystroke	c	n/a
121.529	0.0885	243058	keystroke	h	n/a
121.572	0.0915	243144	keystroke	o	n/a
121.726	0.0895	243452	keystroke	o	n/a
121.939	0.091	243878	keystroke	l	n/a
122.031	0.087	244062	keystroke	s	n/a
122.259	0.089	244518	keystroke	Key.enter	n/a
122.354	4.7555	244708	prompt	n/a	garden micro calm y'all\n
123.891	0.092	247782	keystroke	g	n/a
123.959	0.1355	247918	keystroke	a	n/a
124.071	0.068	248142	keystroke	r	n/a
124.243	0.1145	248486	keystroke	d	n/a
124.31	0.091	248620	keystroke	e	n/a
124.358	0.088	248716	keystroke	n	n/a
124.467	0.1115	248934	keystroke	Key.space	n/a
124.708	0.088	249416	keystroke	m	n/a
124.752	0.089	249504	keystroke	i	n/a
124.842	0.1095	249684	keystroke	c	n/a
124.9815	0.111	249963	keystroke	r	n/a
125.0475	0.112	250095	keystroke	o	n/a
125.1365	0.135	250273	keystroke	Key.space	n/a
125.4175	0.1105	250835	keystroke	c	n/a
125.529	0.066	251058	keystroke	o	n/a
125.596	0.084	251192	keystroke	a	n/a
125.7135	0.0875	251427	keystroke	Key.backspace	n/a
125.861	0.086	251722	keystroke	Key.backspace	n/a
125.949	0.089	251898	keystroke	a	n/a
125.9695	0.0905	251939	keystroke	l	n/a
126.154	0.112	252308	keystroke	m	n/a
126.2415	0.0905	252483	keystroke	Key.space	n/a
126.45	0.068	252900	keystroke	y	n/a
126.519	0.109	253038	keystroke	a	n/a
126.649	0.068	253298	keystroke	l	n/a
126.777	0.067	253554	keystroke	l	n/a
126.995	0.112	253990	keystroke	Key.enter	n/a
127.1135	5.6625	254227	prompt	n/a	implied servers verizon monetary\n
127.5935	0.112	255187	keystroke	i	n/a
127.7665	0.1115	255533	keystroke	m	n/a
127.8785	0.089	255757	keystroke	p	n/a
128.0165	0.1135	256033	keystroke	l	n/a
128.229	0.0905	256458	keystroke	i	n/a
128.296	0.068	256592	keystroke	e	n/a
128.404	0.0895	256808	keystroke	d	n/a
128.47	0.137	256940	keystroke	Key.space	n/a
128.6285	0.1125	257257	keystroke	s	n/a
128.7885	0.091	257577	keystroke	e	n/a
128.8555	0.0905	257711	keystroke	r	n/a
129.037	0.1125	258074	keystroke	v	n/a
129.126	0.1095	258252	keystroke	e	n/a
129.713	0.1115	259426	keystroke	r	n/a
129.8885	0.134	259777	keystroke	s	n/a
130.167	0.132	260334	keystroke	Key.space	n/a
130.38	0.0485	260760	keystroke	v	n/a
130.4285	0.111	260857	keystroke	e	n/a
130.8495	0.112	261699	keystroke	r	n/a
131.119	0.1105	262238	keystroke	i	n/a
131.2505	0.1135	262501	keystroke	z	n/a
131.365	0.066	262730	keystroke	o	n/a
131.489	0.089	262978	keystroke	n	n/a
131.579	0.0665	263158	keystroke	e	n/a
131.6455	0.0885	263291	keystroke	Key.space	n/a
131.755	0.0875	263510	keystroke	m	n/a
131.872	0.0915	263744	keystroke	e	n/a
131.964	0.0915	263928	keystroke	n	n/a
132.0925	0.114	264185	keystroke	t	n/a
132.2555	0.1805	264511	keystroke	a	n/a
132.3885	0.113	264777	keystroke	r	n/a
132.4785	0.089	264957	keystroke	y	n/a
132.662	0.1125	265324	keystroke	Key.enter	n/a
132.78	8.8415	265560	prompt	n/a	stronger vehicle patrick stamp\n
137.334	0.09	274668	keystroke	s	n/a
137.564	0.092	275128	keystroke	t	n/a
137.631	0.071	275262	keystroke	r	n/a
137.657	0.089	275314	keystroke	o	n/a
137.8305	0.093	275661	keystroke	n	n/a
137.9	0.09	275800	keystroke	g	n/a
137.967	0.0905	275934	keystroke	e	n/a
138.079	0.0685	276158	keystroke	r	n/a
138.123	0.0925	276246	keystroke	Key.space	n/a
138.276	0.1135	276552	keystroke	v	n/a
138.3655	0.1145	276731	keystroke	e	n/a
138.617	0.0465	277234	keystroke	c	n/a
138.9105	0.112	277821	keystroke	Key.backspace	n/a
139.1125	0.0905	278225	keystroke	h	n/a
139.157	0.0915	278314	keystroke	i	n/a
139.2495	0.065	278499	keystroke	c	n/a
139.389	0.089	278778	keystroke	l	n/a
139.455	0.091	278910	keystroke	e	n/a
139.5775	0.1115	279155	keystroke	Key.space	n/a
139.7705	0.09	279541	keystroke	p	n/a
139.8815	0.089	279763	keystroke	a	n/a
140.0405	0.113	280081	keystroke	t	n/a
140.108	0.068	280216	keystroke	r	n/a
140.348	0.115	280696	keystroke	i	n/a
140.464	0.0895	280928	keystroke	c	n/a
140.597	0.09	281194	keystroke	k	n/a
140.8905	0.1345	281781	keystroke	Key.space	n/a
140.98	0.112	281960	keystroke	s	n/a
141.204	0.089	282408	keystroke	r	n/a
141.27	0.1115	282540	keystroke	a	n/a
141.294	0.1315	282588	keystroke	m	n/a
141.403	0.067	282806	keystroke	p	n/a
141.531	0.089	283062	keystroke	Key.enter	n/a
141.625	5.6605	283250	prompt	n/a	integer jose restoration light\n
142.3325	0.0665	284665	keystroke	i	n/a
142.504	0.0885	285008	keystroke	n	n/a
142.5465	0.09	285093	keystroke	t	n/a
142.6135	0.1125	285227	keystroke	e	n/a
142.7475	0.045	285495	keystroke	r	n/a
142.9865	0.0685	285973	keystroke	g	n/a
143.0305	0.1365	286061	keystroke	e	n/a
143.326	0.067	286652	keystroke	Key.backspace	n/a
143.476	0.0905	286952	keystroke	Key.backspace	n/a
143.632	0.111	287264	keystroke	Key.backspace	n/a
143.699	0.09	287398	keystroke	g	n/a
143.7665	0.1365	287533	keystroke	e	n/a
143.88	0.0895	287760	keystroke	r	n/a
143.999	0.132	287998	keystroke	Key.space	n/a
144.3305	0.0895	288661	keystroke	j	n/a
144.396	0.0695	288792	keystroke	o	n/a
144.4865	0.112	288973	keystroke	s	n/a
144.683	0.113	289366	keystroke	e	n/a
144.772	0.0905	289544	keystroke	Key.space	n/a
145.1455	0.0895	290291	keystroke	r	n/a
145.2115	0.068	290423	keystroke	e	n/a
145.411	0.07	290822	keystroke	s	n/a
145.482	0.1305	290964	keystroke	t	n/a
145.634	0.0905	291268	keystroke	o	n/a
145.702	0.0895	291404	keystroke	r	n/a
145.7925	0.155	291585	keystroke	a	n/a
145.9245	0.1345	291849	keystroke	t	n/a
146.0595	0.0455	292119	keystroke	i	n/a
146.082	0.0895	292164	keystroke	o	n/a
146.247	0.0875	292494	keystroke	n	n/a
146.3555	0.113	292711	keystroke	Key.space	n/a
146.5925	0.065	293185	keystroke	l	n/a
146.7365	0.091	293473	keystroke	i	n/a
146.804	0.09	293608	keystroke	g	n/a
146.9285	0.068	293857	keystroke	h	n/a
146.9725	0.091	293945	keystroke	t	n/a
147.1945	0.089	294389	keystroke	Key.enter	n/a
147.2895	7.5815	294579	prompt	n/a	nested excellent runs prototype\n
147.8095	0.0685	295619	keystroke	n	n/a
147.8535	0.069	295707	keystroke	e	n/a
148.1345	0.087	296269	keystroke	s	n/a
148.2515	0.0685	296503	keystroke	t	n/a
148.3515	0.068	296703	keystroke	e	n/a
148.4985	0.09	296997	keystroke	d	n/a
148.5435	0.132	297087	keystroke	Key.space	n/a
149.022	0.068	298044	keystroke	e	n/a
149.201	0.1305	298402	keystroke	x	n/a
149.4135	0.089	298827	keystroke	c	n/a
149.5035	0.065	299007	keystroke	e	n/a
149.5895	0.0695	299179	keystroke	l	n/a
149.726	0.114	299452	keystroke	l	n/a
149.872	0.07	299744	keystroke	e	n/a
149.998	0.068	299996	keystroke	n	n/a
150.043	0.088	300086	keystroke	t	n/a
150.1525	0.0885	300305	keystroke	Key.space	n/a
150.263	0.088	300526	keystroke	r	n/a
150.374	0.069	300748	keystroke	u	n/a
150.529	0.0915	301058	keystroke	n	n/a
150.575	0.0675	301150	keystroke	s	n/a
150.6925	0.1105	301385	keystroke	Key.space	n/a
150.825	0.1155	301650	keystroke	p	n/a
150.8255	0.069	301651	keystroke	r	n/a
151.08	0.088	302160	keystroke	o	n/a
151.5305	0.0905	303061	keystroke	Key.space	n/a
151.844	0.111	303688	keystroke	Key.backspace	n/a
152.026	0.113	304052	keystroke	t	n/a
152.186	0.089	304372	keystroke	o	n/a
153.8165	0.1105	307633	keystroke	t	n/a
154.066	0.111	308132	keystroke	y	n/a
154.496	0.09	308992	keystroke	p	n/a
154.541	0.09	309082	keystroke	e	n/a
154.759	0.1105	309518	keystroke	Key.enter	n/a
154.877	9.5625	309754	prompt	n/a	lightbox scores fighting ensemble\n
155.9135	0.092	311827	keystroke	l	n/a
156.0925	0.0895	312185	keystroke	i	n/a
156.1825	0.086	312365	keystroke	g	n/a
156.2985	0.089	312597	keystroke	h	n/a
156.4095	0.09	312819	keystroke	t	n/a
156.676	0.1115	313352	keystroke	s	n/a
156.7885	0.11	313577	keystroke	Key.space	n/a
157.1405	0.136	314281	keystroke	Key.backspace	n/a
157.3675	0.1125	314735	keystroke	Key.backspace	n/a
157.631	0.1135	315262	keystroke	b	n/a
157.676	0.112	315352	keystroke	o	n/a
157.81	0.0905	315620	keystroke	x	n/a
157.922	0.135	315844	keystroke	Key.space	n/a
158.011	0.0895	316022	keystroke	s	n/a
158.132	0.0685	316264	keystroke	c	n/a
158.435	0.1115	316870	keystroke	o	n/a
158.522	0.1125	317044	keystroke	r	n/a
158.59	0.0675	317180	keystroke	e	n/a
158.6975	0.135	317395	keystroke	Key.space	n/a
159.34	0.0875	318680	keystroke	Key.backspace	n/a
159.405	0.09	318810	keystroke	f	n/a
159.4955	0.108	318991	keystroke	i	n/a
159.7645	0.092	319529	keystroke	Key.backspace	n/a
159.9115	0.133	319823	keystroke	Key.backspace	n/a
160.0455	0.153	320091	keystroke	Key.space	n/a
160.3385	0.113	320677	keystroke	f	n/a
160.4525	0.09	320905	keystroke	i	n/a
160.582	0.1115	321164	keystroke	g	n/a
160.7235	0.1125	321447	keystroke	h	n/a
160.942	0.111	321884	keystroke	t	n/a
161.159	0.111	322318	keystroke	i	n/a
161.334	0.0895	322668	keystroke	n	n/a
161.377	0.112	322754	keystroke	g	n/a
161.9275	0.154	323855	keystroke	Key.space	n/a
162.117	0.11	324234	keystroke	e	n/a
162.2485	0.0685	324497	keystroke	n	n/a
162.41	0.0905	324820	keystroke	s	n/a
162.547	0.1345	325094	keystroke	e	n/a
162.79	0.09	325580	keystroke	m	n/a
163.3755	0.0665	326751	keystroke	b	n/a
163.5465	0.0665	327093	keystroke	e	n/a
163.8235	0.111	327647	keystroke	Key.backspace	n/a
164.1485	0.088	328297	keystroke	l	n/a
164.2375	0.067	328475	keystroke	e	n/a
164.3475	0.09	328695	keystroke	Key.enter	n/a
164.4435	3.4085	328887	prompt	n/a	legally deals clause signal\n
164.941	0.089	329882	keystroke	l	n/a
165.0075	0.0665	330015	keystroke	e	n/a
165.097	0.09	330194	keystroke	g	n/a
165.208	0.113	330416	keystroke	a	n/a
165.2985	0.0445	330597	keystroke	l	n/a
165.395	0.066	330790	keystroke	l	n/a
165.612	0.09	331224	keystroke	y	n/a
165.703	0.088	331406	keystroke	Key.space	n/a
165.7445	0.0915	331489	keystroke	d	n/a
165.767	0.1355	331534	keystroke	e	n/a
165.934	0.131	331868	keystroke	a	n/a
166.067	0.088	332134	keystroke	l	n/a
166.176	0.088	332352	keystroke	s	n/a
166.266	0.1125	332532	keystroke	Key.space	n/a
166.3995	0.0685	332799	keystroke	c	n/a
166.4915	0.091	332983	keystroke	l	n/a
166.583	0.0875	333166	keystroke	a	n/a
166.713	0.0895	333426	keystroke	u	n/a
166.7795	0.0685	333559	keystroke	s	n/a
166.9255	0.09	333851	keystroke	e	n/a
167.0155	0.112	334031	keystroke	Key.space	n/a
167.1285	0.088	334257	keystroke	s	n/a
167.217	0.091	334434	keystroke	i	n/a
167.284	0.1115	334568	keystroke	g	n/a
167.4165	0.067	334833	keystroke	n	n/a
167.5045	0.112	335009	keystroke	a	n/a
167.6165	0.091	335233	keystroke	l	n/a
167.7615	0.089	335523	keystroke	Key.enter	n/a
167.855	5.875	335710	prompt	n/a	walter economics studies contributors\n
168.663	0.1115	337326	keystroke	w	n/a
168.728	0.113	337456	keystroke	a	n/a
168.795	0.09	337590	keystroke	l	n/a
168.9575	0.1335	337915	keystroke	t	n/a
169.068	0.0905	338136	keystroke	e	n/a
169.1595	0.065	338319	keystroke	r	n/a
169.2255	0.1125	338451	keystroke	Key.space	n/a
169.3585	0.113	338717	keystroke	e	n/a
169.6045	0.113	339209	keystroke	c	n/a
169.718	0.067	339436	keystroke	o	n/a
169.878	0.0895	339756	keystroke	n	n/a
169.9685	0.0885	339937	keystroke	i	n/a
170.198	0.1565	340396	keystroke	m	n/a
170.3555	0.087	340711	keystroke	i	n/a
170.3755	0.115	340751	keystroke	c	n/a
170.467	0.0885	340934	keystroke	s	n/a
170.5765	0.115	341153	keystroke	Key.space	n/a
171.099	0.134	342198	keystroke	s	n/a
171.284	0.091	342568	keystroke	t	n/a
171.351	0.0685	342702	keystroke	u	n/a
171.4665	0.092	342933	keystroke	d	n/a
171.5795	0.0685	343159	keystroke	i	n/a
171.625	0.0885	343250	keystroke	e	n/a
171.816	0.0885	343632	keystroke	s	n/a
171.9505	0.109	343901	keystroke	Key.space	n/a
172.194	0.09	344388	keystroke	c	n/a
172.305	0.046	344610	keystroke	o	n/a
172.444	0.0905	344888	keystroke	n	n/a
172.489	0.113	344978	keystroke	t	n/a
172.5555	0.0895	345111	keystroke	r	n/a
172.667	0.0885	345334	keystroke	i	n/a
173.048	0.1105	346096	keystroke	b	n/a
173.1795	0.0675	346359	keystroke	u	n/a
173.2965	0.09	346593	keystroke	t	n/a
173.416	0.088	346832	keystroke	o	n/a
173.505	0.09	347010	keystroke	r	n/a
173.5705	0.069	347141	keystroke	s	n/a
173.661	0.0665	347322	keystroke	Key.enter	n/a
173.7415	4.7665	347483	prompt	n/a	outdoors flying couple sbjct\n
174.2565	0.0895	348513	keystroke	o	n/a
174.4395	0.0905	348879	keystroke	u	n/a
174.4845	0.0685	348969	keystroke	t	n/a
174.667	0.09	349334	keystroke	d	n/a
174.735	0.066	349470	keystroke	o	n/a
174.851	0.09	349702	keystroke	o	n/a
174.917	0.111	349834	keystroke	r	n/a
175.176	0.07	350352	keystroke	s	n/a
175.2675	0.0235	350535	keystroke	s	n/a
175.5485	0.112	351097	keystroke	Key.space	n/a
175.662	0.0895	351324	keystroke	f	n/a
175.7055	0.1115	351411	keystroke	l	n/a
175.9525	0.0655	351905	keystroke	y	n/a
176.109	0.0895	352218	keystroke	i	n/a
176.237	0.0915	352474	keystroke	n	n/a
176.3035	0.0905	352607	keystroke	g	n/a
176.4145	0.09	352829	keystroke	Key.space	n/a
176.723	0.09	353446	keystroke	c	n/a
176.767	0.069	353534	keystroke	o	n/a
176.901	0.091	353802	keystroke	u	n/a
176.969	0.089	353938	keystroke	p	n/a
177.0965	0.0905	354193	keystroke	l	n/a
177.188	0.09	354376	keystroke	e	n/a
177.279	0.065	354558	keystroke	Key.space	n/a
177.451	0.092	354902	keystroke	s	n/a
177.564	0.044	355128	keystroke	b	n/a
177.7295	0.091	355459	keystroke	h	n/a
177.978	0.089	355956	keystroke	Key.backspace	n/a
178.068	0.066	356136	keystroke	c	n/a
178.258	0.1355	356516	keystroke	t	n/a
178.4155	0.09	356831	keystroke	Key.enter	n/a
178.512	12.194	357024	prompt	n/a	cheese desktop interests illustration\n
179.6905	0.089	359381	keystroke	c	n/a
179.8635	0.091	359727	keystroke	h	n/a
179.9555	0.069	359911	keystroke	e	n/a
180.0975	0.0685	360195	keystroke	e	n/a
180.2505	0.067	360501	keystroke	s	n/a
180.4075	0.069	360815	keystroke	e	n/a
180.5005	0.09	361001	keystroke	Key.space	n/a
180.7555	0.112	361511	keystroke	c	n/a
180.9835	0.089	361967	keystroke	Key.backspace	n/a
181.0495	0.1155	362099	keystroke	d	n/a
181.1185	0.0675	362237	keystroke	e	n/a
181.29	0.0905	362580	keystroke	k	n/a
181.415	0.11	362830	keystroke	s	n/a
181.625	0.091	363250	keystroke	Key.backspace	n/a
181.782	0.09	363564	keystroke	Key.backspace	n/a
181.849	0.111	363698	keystroke	s	n/a
182.101	0.091	364202	keystroke	k	n/a
185.343	0.116	370686	keystroke	t	n/a
185.434	0.137	370868	keystroke	p	n/a
185.435	0.092	370870	keystroke	o	n/a
185.6075	0.133	371215	keystroke	Key.space	n/a
186.39	0.1135	372780	keystroke	i	n/a
186.5925	0.1145	373185	keystroke	n	n/a
186.6615	0.09	373323	keystroke	t	n/a
186.7285	0.1345	373457	keystroke	e	n/a
186.8405	0.134	373681	keystroke	r	n/a
186.9505	0.1315	373901	keystroke	e	n/a
187.2105	0.09	374421	keystroke	s	n/a
187.4195	0.11	374839	keystroke	t	n/a
188.092	0.1555	376184	keystroke	s	n/a
188.2495	0.1305	376499	keystroke	Key.space	n/a
188.848	0.068	377696	keystroke	i	n/a
189.0085	0.0895	378017	keystroke	l	n/a
189.141	0.0885	378282	keystroke	l	n/a
189.3505	0.0665	378701	keystroke	u	n/a
189.5035	0.088	379007	keystroke	s	n/a
189.7295	0.092	379459	keystroke	t	n/a
189.7745	0.091	379549	keystroke	r	n/a
189.964	0.156	379928	keystroke	a	n/a
190.097	0.0925	380194	keystroke	t	n/a
190.2115	0.068	380423	keystroke	i	n/a
190.2565	0.09	380513	keystroke	o	n/a
190.412	0.0905	380824	keystroke	n	n/a
190.636	0.0685	381272	keystroke	Key.enter	n/a
190.71	11.2185	381420	prompt	n/a	equilibrium north xanax searched\n
194.863	0.159	389726	keystroke	e	n/a
194.932	0.135	389864	keystroke	q	n/a
195.745	0.133	391490	keystroke	u	n/a
195.833	0.089	391666	keystroke	i	n/a
196.0245	0.09	392049	keystroke	l	n/a
196.227	0.068	392454	keystroke	i	n/a
196.451	0.0725	392902	keystroke	Key.space	n/a
196.453	0.072	392906	keystroke	b	n/a
196.498	0.1385	392996	keystroke	r	n/a
196.6375	0.0875	393275	keystroke	i	n/a
197.025	0.067	394050	keystroke	Key.backspace	n/a
197.158	0.0695	394316	keystroke	Key.backspace	n/a
197.309	0.067	394618	keystroke	Key.backspace	n/a
197.4685	0.091	394937	keystroke	Key.backspace	n/a
197.6705	0.069	395341	keystroke	b	n/a
197.7405	0.11	395481	keystroke	r	n/a
197.8725	0.09	395745	keystroke	i	n/a
198.007	0.0925	396014	keystroke	u	n/a
198.1915	0.088	396383	keystroke	m	n/a
198.281	0.0885	396562	keystroke	Key.space	n/a
198.4775	0.069	396955	keystroke	n	n/a
198.5475	0.089	397095	keystroke	o	n/a
198.5915	0.088	397183	keystroke	r	n/a
198.7635	0.114	397527	keystroke	t	n/a
198.8315	0.0905	397663	keystroke	h	n/a
198.954	0.1365	397908	keystroke	Key.space	n/a
199.091	0.109	398182	keystroke	x	n/a
199.1775	0.1135	398355	keystroke	a	n/a
199.244	0.09	398488	keystroke	n	n/a
199.565	0.111	399130	keystroke	x	n/a
199.844	0.115	399688	keystroke	Key.backspace	n/a
199.913	0.091	399826	keystroke	a	n/a
199.9815	0.133	399963	keystroke	x	n/a
200.206	0.112	400412	keystroke	Key.space	n/a
200.3405	0.0665	400681	keystroke	s	n/a
200.5005	0.1115	401001	keystroke	e	n/a
200.589	0.1325	401178	keystroke	a	n/a
200.7225	0.0885	401445	keystroke	r	n/a
200.9115	0.1135	401823	keystroke	c	n/a
201.026	0.065	402052	keystroke	h	n/a
201.113	0.0665	402226	keystroke	e	n/a
201.2205	0.111	402441	keystroke	d	n/a
201.2875	0.088	402575	keystroke	Key.space	n/a
201.5955	0.111	403191	keystroke	Key.backspace	n/a
201.815	0.112	403630	keystroke	Key.enter	n/a
201.932	8.5205	403864	prompt	n/a	headlines breed injury presented\n
203.8935	0.0895	407787	keystroke	h	n/a
203.9585	0.1125	407917	keystroke	e	n/a
204.0475	0.09	408095	keystroke	a	n/a
204.204	0.0905	408408	keystroke	l	n/a
204.25	0.0665	408500	keystroke	d	n/a
204.482	0.09	408964	keystroke	Key.backspace	n/a
204.6365	0.0895	409273	keystroke	Key.backspace	n/a
204.681	0.137	409362	keystroke	d	n/a
204.796	0.0895	409592	keystroke	l	n/a
204.959	0.091	409918	keystroke	i	n/a
205.1275	0.0905	410255	keystroke	n	n/a
205.194	0.092	410388	keystroke	e	n/a
205.367	0.111	410734	keystroke	s	n/a
205.479	0.09	410958	keystroke	Key.space	n/a
205.6915	0.088	411383	keystroke	b	n/a
205.7345	0.112	411469	keystroke	r	n/a
205.8005	0.091	411601	keystroke	e	n/a
205.9635	0.0905	411927	keystroke	e	n/a
206.1	0.1555	412200	keystroke	d	n/a
206.2555	0.1105	412511	keystroke	Key.space	n/a
206.419	0.112	412838	keystroke	i	n/a
206.5945	0.0895	413189	keystroke	n	n/a
206.7665	0.0925	413533	keystroke	j	n/a
206.9395	0.0465	413879	keystroke	r	n/a
206.9625	0.0675	413925	keystroke	u	n/a
207.653	0.09	415306	keystroke	Key.backspace	n/a
207.819	0.115	415638	keystroke	Key.backspace	n/a
208.159	0.09	416318	keystroke	u	n/a
208.25	0.111	416500	keystroke	r	n/a
208.362	0.068	416724	keystroke	y	n/a
208.405	0.136	416810	keystroke	Key.space	n/a
209.0605	0.1125	418121	keystroke	p	n/a
209.1275	0.088	418255	keystroke	r	n/a
209.1735	0.088	418347	keystroke	e	n/a
209.3505	0.09	418701	keystroke	s	n/a
209.4925	0.0905	418985	keystroke	e	n/a
209.661	0.0455	419322	keystroke	n	n/a
209.7075	0.0675	419415	keystroke	t	n/a
210.0495	0.11	420099	keystroke	e	n/a
210.1815	0.158	420363	keystroke	d	n/a
210.3405	0.1095	420681	keystroke	Key.enter	n/a
210.4565	12.6215	420913	prompt	n/a	holding billion witnesses flavor\n
216.567	0.067	433134	keystroke	n	n/a
216.635	0.091	433270	keystroke	o	n/a
216.869	0.089	433738	keystroke	Key.backspace	n/a
217.023	0.1105	434046	keystroke	Key.backspace	n/a
217.1645	0.114	434329	keystroke	h	n/a
217.2535	0.135	434507	keystroke	o	n/a
217.4185	0.088	434837	keystroke	l	n/a
217.528	0.1135	435056	keystroke	d	n/a
217.6185	0.067	435237	keystroke	i	n/a
217.7665	0.09	435533	keystroke	n	n/a
217.8325	0.089	435665	keystroke	g	n/a
217.8985	0.134	435797	keystroke	Key.space	n/a
218.0545	0.087	436109	keystroke	b	n/a
218.1435	0.0655	436287	keystroke	i	n/a
218.292	0.066	436584	keystroke	l	n/a
218.429	0.067	436858	keystroke	l	n/a
218.5945	0.069	437189	keystroke	i	n/a
218.6165	0.069	437233	keystroke	o	n/a
218.7805	0.09	437561	keystroke	n	n/a
218.8245	0.1125	437649	keystroke	Key.space	n/a
218.9135	0.09	437827	keystroke	w	n/a
219.0045	0.089	438009	keystroke	i	n/a
219.1455	0.09	438291	keystroke	t	n/a
219.212	0.1135	438424	keystroke	e	n/a
219.3265	0.067	438653	keystroke	n	n/a
219.437	0.157	438874	keystroke	s	n/a
219.6915	0.1125	439383	keystroke	Key.backspace	n/a
219.805	0.066	439610	keystroke	e	n/a
219.9365	0.092	439873	keystroke	Key.backspace	n/a
220.108	0.0665	440216	keystroke	Key.backspace	n/a
220.2615	0.0685	440523	keystroke	Key.backspace	n/a
220.618	0.069	441236	keystroke	n	n/a
220.663	0.093	441326	keystroke	e	n/a
220.841	0.0685	441682	keystroke	s	n/a
220.9835	0.091	441967	keystroke	s	n/a
221.1345	0.0675	442269	keystroke	e	n/a
221.2945	0.07	442589	keystroke	s	n/a
221.3655	0.11	442731	keystroke	Key.space	n/a
221.5135	0.112	443027	keystroke	f	n/a
221.6485	0.091	443297	keystroke	l	n/a
221.694	0.1355	443388	keystroke	a	n/a
221.806	0.0895	443612	keystroke	v	n/a
221.9255	0.091	443851	keystroke	o	n/a
222.0395	0.0895	444079	keystroke	r	n/a
222.2045	0.088	444409	keystroke	i	n/a
222.4985	0.1135	444997	keystroke	Key.backspace	n/a
222.944	0.131	445888	keystroke	Key.enter	n/a
223.086	6.1455	446172	prompt	n/a	happening sending write universities\n
224.4135	0.068	448827	keystroke	h	n/a
224.5025	0.0905	449005	keystroke	a	n/a
224.6145	0.068	449229	keystroke	p	n/a
224.769	0.068	449538	keystroke	p	n/a
224.8375	0.088	449675	keystroke	e	n/a
224.9675	0.091	449935	keystroke	n	n/a
225.1485	0.13	450297	keystroke	Key.space	n/a
225.443	0.1135	450886	keystroke	Key.backspace	n/a
225.5915	0.089	451183	keystroke	i	n/a
225.7715	0.0665	451543	keystroke	n	n/a
225.8155	0.1135	451631	keystroke	g	n/a
225.904	0.09	451808	keystroke	Key.space	n/a
226.139	0.0905	452278	keystroke	s	n/a
226.309	0.088	452618	keystroke	e	n/a
226.421	0.088	452842	keystroke	n	n/a
226.51	0.088	453020	keystroke	d	n/a
226.639	0.111	453278	keystroke	i	n/a
226.7265	0.1125	453453	keystroke	n	n/a
226.7925	0.069	453585	keystroke	g	n/a
226.925	0.091	453850	keystroke	Key.space	n/a
227.037	0.067	454074	keystroke	w	n/a
227.188	0.091	454376	keystroke	r	n/a
227.308	0.089	454616	keystroke	i	n/a
227.398	0.0875	454796	keystroke	t	n/a
227.462	0.0905	454924	keystroke	e	n/a
227.529	0.09	455058	keystroke	Key.space	n/a
227.667	0.091	455334	keystroke	u	n/a
227.827	0.094	455654	keystroke	n	n/a
228.0285	0.113	456057	keystroke	v	n/a
228.162	0.069	456324	keystroke	i	n/a
228.287	0.1125	456574	keystroke	e	n/a
228.456	0.1335	456912	keystroke	r	n/a
228.5665	0.1125	457133	keystroke	s	n/a
228.681	0.0885	457362	keystroke	i	n/a
228.77	0.132	457540	keystroke	t	n/a
228.903	0.11	457806	keystroke	e	n/a
229.072	0.09	458144	keystroke	d	n/a
229.139	0.091	458278	keystroke	Key.enter	n/a
229.236	7.062	458472	prompt	n/a	escape finest depression enrolled\n
229.9815	0.0655	459963	keystroke	e	n/a
230.219	0.132	460438	keystroke	s	n/a
230.5005	0.11	461001	keystroke	e	n/a
230.7585	0.091	461517	keystroke	Key.backspace	n/a
230.85	0.133	461700	keystroke	c	n/a
231.025	0.1325	462050	keystroke	a	n/a
231.1945	0.112	462389	keystroke	p	n/a
231.337	0.09	462674	keystroke	e	n/a
231.4485	0.0665	462897	keystroke	Key.space	n/a
231.548	0.0935	463096	keystroke	f	n/a
231.617	0.092	463234	keystroke	i	n/a
231.784	0.091	463568	keystroke	n	n/a
231.829	0.071	463658	keystroke	e	n/a
232.006	0.0685	464012	keystroke	s	n/a
232.096	0.09	464192	keystroke	t	n/a
232.162	0.091	464324	keystroke	Key.space	n/a
232.289	0.1115	464578	keystroke	d	n/a
232.378	0.0885	464756	keystroke	e	n/a
232.4675	0.0895	464935	keystroke	p	n/a
232.587	0.111	465174	keystroke	r	n/a
232.675	0.068	465350	keystroke	e	n/a
232.844	0.09	465688	keystroke	s	n/a
233.005	0.089	466010	keystroke	s	n/a
233.116	0.091	466232	keystroke	i	n/a
233.16	0.092	466320	keystroke	o	n/a
233.32	0.088	466640	keystroke	n	n/a
233.533	0.113	467066	keystroke	Key.space	n/a
234.106	0.11	468212	keystroke	r	n/a
234.1725	0.1105	468345	keystroke	e	n/a
234.284	0.087	468568	keystroke	n	n/a
234.848	0.09	469696	keystroke	Key.backspace	n/a
235.0105	0.0675	470021	keystroke	Key.backspace	n/a
235.1575	0.0895	470315	keystroke	Key.backspace	n/a
235.225	0.113	470450	keystroke	e	n/a
235.359	0.068	470718	keystroke	n	n/a
235.428	0.1115	470856	keystroke	r	n/a
235.5695	0.0665	471139	keystroke	o	n/a
235.7175	0.0655	471435	keystroke	l	n/a
235.833	0.088	471666	keystroke	l	n/a
235.943	0.068	471886	keystroke	e	n/a
236.0955	0.089	472191	keystroke	d	n/a
236.2285	0.067	472457	keystroke	Key.enter	n/a
236.3025	5.6075	472605	prompt	n/a	azerbaijan break edgar make\n
236.9245	0.132	473849	keystroke	a	n/a
237.058	0.1315	474116	keystroke	z	n/a
237.27	0.113	474540	keystroke	e	n/a
237.3595	0.1115	474719	keystroke	r	n/a
237.5395	0.089	475079	keystroke	b	n/a
237.752	0.112	475504	keystroke	a	n/a
237.9005	0.09	475801	keystroke	i	n/a
238.118	0.0895	476236	keystroke	j	n/a
238.2085	0.134	476417	keystroke	a	n/a
238.4375	0.1145	476875	keystroke	Key.space	n/a
238.717	0.113	477434	keystroke	Key.backspace	n/a
239.066	0.09	478132	keystroke	n	n/a
239.177	0.0675	478354	keystroke	Key.space	n/a
239.583	0.1095	479166	keystroke	b	n/a
239.6705	0.155	479341	keystroke	r	n/a
239.7585	0.137	479517	keystroke	e	n/a
239.8275	0.1575	479655	keystroke	a	n/a
239.8965	0.111	479793	keystroke	k	n/a
239.9865	0.1305	479973	keystroke	Key.space	n/a
240.5655	0.0905	481131	keystroke	e	n/a
240.708	0.0895	481416	keystroke	d	n/a
240.8995	0.091	481799	keystroke	g	n/a
240.9915	0.1105	481983	keystroke	a	n/a
241.102	0.066	482204	keystroke	r	n/a
241.188	0.089	482376	keystroke	Key.space	n/a
241.4765	0.089	482953	keystroke	m	n/a
241.521	0.089	483042	keystroke	a	n/a
241.66	0.09	483320	keystroke	k	n/a
241.704	0.1375	483408	keystroke	e	n/a
241.8165	0.091	483633	keystroke	Key.enter	n/a
241.914	7.2285	483828	prompt	n/a	handled statements small reports\n
244.487	0.0895	488974	keystroke	h	n/a
244.577	0.09	489154	keystroke	a	n/a
244.688	0.069	489376	keystroke	n	n/a
244.758	0.069	489516	keystroke	d	n/a
244.911	0.0925	489822	keystroke	l	n/a
245.025	0.0905	490050	keystroke	e	n/a
245.1365	0.0885	490273	keystroke	d	n/a
245.3115	0.132	490623	keystroke	Key.space	n/a
245.651	0.09	491302	keystroke	s	n/a
245.863	0.1115	491726	keystroke	t	n/a
245.975	0.108	491950	keystroke	a	n/a
246.346	0.1125	492692	keystroke	t	n/a
246.4605	0.11	492921	keystroke	e	n/a
246.525	0.0905	493050	keystroke	m	n/a
246.6915	0.112	493383	keystroke	e	n/a
246.8045	0.09	493609	keystroke	n	n/a
246.8945	0.089	493789	keystroke	t	n/a
247.0565	0.112	494113	keystroke	s	n/a
247.231	0.1105	494462	keystroke	Key.space	n/a
247.42	0.1125	494840	keystroke	s	n/a
247.5535	0.07	495107	keystroke	m	n/a
247.6245	0.109	495249	keystroke	a	n/a
247.7645	0.067	495529	keystroke	l	n/a
247.9005	0.09	495801	keystroke	l	n/a
247.966	0.1115	495932	keystroke	Key.space	n/a
248.2425	0.113	496485	keystroke	r	n/a
248.31	0.0885	496620	keystroke	e	n/a
248.4205	0.069	496841	keystroke	p	n/a
248.6195	0.113	497239	keystroke	o	n/a
248.7085	0.0675	497417	keystroke	r	n/a
248.847	0.1335	497694	keystroke	t	n/a
248.9125	0.112	497825	keystroke	s	n/a
249.0535	0.087	498107	keystroke	Key.enter	n/a
249.146	5.016	498292	prompt	n/a	joyce thick kelkoo atlanta\n
249.7305	0.135	499461	keystroke	j	n/a
249.8415	0.094	499683	keystroke	o	n/a
249.9965	0.0685	499993	keystroke	y	n/a
250.0875	0.1565	500175	keystroke	c	n/a
250.1535	0.1355	500307	keystroke	e	n/a
250.289	0.069	500578	keystroke	Key.space	n/a
250.4285	0.091	500857	keystroke	t	n/a
250.5205	0.067	501041	keystroke	h	n/a
250.564	0.0675	501128	keystroke	i	n/a
250.6525	0.09	501305	keystroke	c	n/a
250.7435	0.0915	501487	keystroke	k	n/a
250.8115	0.132	501623	keystroke	Key.space	n/a
251.0825	0.0905	502165	keystroke	k	n/a
251.127	0.089	502254	keystroke	e	n/a
251.264	0.0875	502528	keystroke	l	n/a
251.583	0.0665	503166	keystroke	o	n/a
251.9505	0.114	503901	keystroke	Key.backspace	n/a
252.1335	0.1125	504267	keystroke	k	n/a
252.247	0.0445	504494	keystroke	o	n/a
252.4145	0.0675	504829	keystroke	o	n/a
252.513	0.132	505026	keystroke	Key.space	n/a
252.6225	0.109	505245	keystroke	a	n/a
252.7695	0.0885	505539	keystroke	t	n/a
252.891	0.091	505782	keystroke	l	n/a
252.983	0.1105	505966	keystroke	a	n/a
253.116	0.0665	506232	keystroke	n	n/a
253.204	0.045	506408	keystroke	d	n/a
253.406	0.11	506812	keystroke	Key.backspace	n/a
253.4945	0.0885	506989	keystroke	t	n/a
253.5605	0.1335	507121	keystroke	a	n/a
253.695	0.1115	507390	keystroke	Key.space	n/a
253.89	0.088	507780	keystroke	Key.backspace	n/a
254.07	0.0905	508140	keystroke	Key.enter	n/a
254.1665	5.1625	508333	prompt	n/a	saddam extended pound feeling\n
254.681	0.112	509362	keystroke	s	n/a
254.825	0.1135	509650	keystroke	a	n/a
254.959	0.046	509918	keystroke	d	n/a
255.0975	0.0685	510195	keystroke	d	n/a
255.449	0.132	510898	keystroke	a	n/a
255.683	0.116	511366	keystroke	m	n/a
255.915	0.135	511830	keystroke	Key.space	n/a
256.397	0.069	512794	keystroke	e	n/a
256.554	0.068	513108	keystroke	x	n/a
256.758	0.093	513516	keystroke	t	n/a
256.825	0.093	513650	keystroke	e	n/a
257.003	0.091	514006	keystroke	n	n/a
257.095	0.1085	514190	keystroke	d	n/a
257.18	0.067	514360	keystroke	e	n/a
257.294	0.089	514588	keystroke	d	n/a
257.404	0.089	514808	keystroke	Key.space	n/a
257.5955	0.115	515191	keystroke	p	n/a
257.7695	0.112	515539	keystroke	o	n/a
257.9625	0.0895	515925	keystroke	u	n/a
258.1165	0.09	516233	keystroke	n	n/a
258.1615	0.0895	516323	keystroke	d	n/a
258.2735	0.088	516547	keystroke	Key.space	n/a
258.4125	0.119	516825	keystroke	f	n/a
258.5325	0.0645	517065	keystroke	e	n/a
258.68	0.089	517360	keystroke	e	n/a
258.77	0.0665	517540	keystroke	l	n/a
258.9185	0.066	517837	keystroke	i	n/a
259.0575	0.068	518115	keystroke	n	n/a
259.1025	0.068	518205	keystroke	g	n/a
259.215	0.112	518430	keystroke	Key.enter	n/a
259.333	5.988	518666	prompt	n/a	blocks rural trivia petroleum\n
259.875	0.09	519750	keystroke	b	n/a
259.942	0.087	519884	keystroke	l	n/a
260.0895	0.0885	520179	keystroke	o	n/a
260.18	0.065	520360	keystroke	c	n/a
260.276	0.09	520552	keystroke	k	n/a
260.367	0.066	520734	keystroke	s	n/a
260.454	0.09	520908	keystroke	Key.space	n/a
260.58	0.0685	521160	keystroke	r	n/a
260.6255	0.067	521251	keystroke	u	n/a
260.742	0.1135	521484	keystroke	r	n/a
260.8095	0.1345	521619	keystroke	a	n/a
260.899	0.068	521798	keystroke	l	n/a
260.997	0.134	521994	keystroke	Key.space	n/a
261.437	0.135	522874	keystroke	t	n/a
261.504	0.1135	523008	keystroke	r	n/a
261.716	0.0885	523432	keystroke	i	n/a
261.826	0.1575	523652	keystroke	v	n/a
261.9595	0.09	523919	keystroke	i	n/a
262.102	0.1115	524204	keystroke	a	n/a
262.235	0.111	524470	keystroke	l	n/a
262.347	0.111	524694	keystroke	Key.space	n/a
262.807	0.1105	525614	keystroke	p	n/a
262.94	0.1105	525880	keystroke	e	n/a
263.1475	0.1115	526295	keystroke	t	n/a
263.191	0.112	526382	keystroke	r	n/a
263.387	0.111	526774	keystroke	o	n/a
264.3995	0.112	528799	keystroke	l	n/a
264.574	0.1125	529148	keystroke	e	n/a
264.782	0.09	529564	keystroke	u	n/a
264.992	0.0675	529984	keystroke	m	n/a
265.2275	0.0915	530455	keystroke	Key.enter	n/a
265.3245	15.184	530649	prompt	n/a	exhaust constant segments association\n
268.113	0.111	536226	keystroke	e	n/a
268.7865	0.1355	537573	keystroke	x	n/a
269.115	0.068	538230	keystroke	h	n/a
269.184	0.1315	538368	keystroke	a	n/a
269.624	0.071	539248	keystroke	u	n/a
269.893	0.132	539786	keystroke	s	n/a
270.069	0.0885	540138	keystroke	t	n/a
270.188	0.11	540376	keystroke	Key.space	n/a
270.856	0.113	541712	keystroke	c	n/a
270.945	0.091	541890	keystroke	o	n/a
271.154	0.09	542308	keystroke	n	n/a
271.267	0.178	542534	keystroke	s	n/a
271.4	0.1565	542800	keystroke	t	n/a
271.6425	0.155	543285	keystroke	a	n/a
271.7745	0.089	543549	keystroke	n	n/a
272.489	0.155	544978	keystroke	t	n/a
272.6865	0.111	545373	keystroke	Key.space	n/a
272.967	0.112	545934	keystroke	s	n/a
273.1615	0.0875	546323	keystroke	e	n/a
273.3525	0.0915	546705	keystroke	g	n/a
273.5545	0.116	547109	keystroke	m	n/a
273.6715	0.0855	547343	keystroke	e	n/a
273.8155	0.0875	547631	keystroke	n	n/a
274.003	0.112	548006	keystroke	t	n/a
274.195	0.0685	548390	keystroke	s	n/a
274.371	0.136	548742	keystroke	Key.space	n/a
274.528	0.114	549056	keystroke	a	n/a
274.807	0.0895	549614	keystroke	s	n/a
274.9835	0.0905	549967	keystroke	s	n/a
275.1155	0.1105	550231	keystroke	o	n/a
275.7665	0.089	551533	keystroke	c	n/a
275.9765	0.066	551953	keystroke	i	n/a
276.044	0.0885	552088	keystroke	a	n/a
276.2805	0.1145	552561	keystroke	Key.backspace	n/a
276.5005	0.089	553001	keystroke	Key.backspace	n/a
279.367	0.089	558734	keystroke	i	n/a
279.457	0.113	558914	keystroke	a	n/a
279.546	0.1365	559092	keystroke	t	n/a
279.6365	0.069	559273	keystroke	i	n/a
279.683	0.068	559366	keystroke	o	n/a
279.824	0.088	559648	keystroke	n	n/a
279.9505	0.1335	559901	keystroke	Key.space	n/a
280.24	0.0675	560480	keystroke	Key.backspace	n/a
280.4185	0.088	560837	keystroke	Key.enter	n/a
280.5135	10.9215	561027	prompt	n/a	cases hire alaska wisconsin\n
283.525	0.136	567050	keystroke	c	n/a
283.637	0.157	567274	keystroke	a	n/a
283.795	0.109	567590	keystroke	s	n/a
283.965	0.202	567930	keystroke	e	n/a
284.738	0.069	569476	keystroke	Key.space	n/a
284.9825	0.1345	569965	keystroke	Key.backspace	n/a
285.183	0.111	570366	keystroke	s	n/a
285.27	0.112	570540	keystroke	Key.space	n/a
285.44	0.113	570880	keystroke	h	n/a
285.529	0.093	571058	keystroke	i	n/a
285.554	0.112	571108	keystroke	r	n/a
285.576	0.113	571152	keystroke	e	n/a
285.7105	0.088	571421	keystroke	Key.space	n/a
285.9365	0.0885	571873	keystroke	a	n/a
286.0555	0.0895	572111	keystroke	l	n/a
286.166	0.067	572332	keystroke	a	n/a
286.43	0.0895	572860	keystroke	s	n/a
286.541	0.092	573082	keystroke	k	n/a
286.6555	0.1115	573311	keystroke	a	n/a
286.744	0.135	573488	keystroke	Key.space	n/a
287.148	0.114	574296	keystroke	w	n/a
287.237	0.092	574474	keystroke	i	n/a
287.4215	0.0915	574843	keystroke	n	n/a
287.5135	0.0895	575027	keystroke	s	n/a
287.749	0.0695	575498	keystroke	c	n/a
287.8185	0.0665	575637	keystroke	o	n/a
288.0005	0.0895	576001	keystroke	n	n/a
289.0485	0.067	578097	keystroke	Key.backspace	n/a
289.2195	0.069	578439	keystroke	Key.backspace	n/a
289.3935	0.0905	578787	keystroke	Key.backspace	n/a
289.625	0.047	579250	keystroke	Key.backspace	n/a
289.797	0.09	579594	keystroke	Key.backspace	n/a
290.025	0.111	580050	keystroke	s	n/a
290.1935	0.112	580387	keystroke	c	n/a
290.3065	0.108	580613	keystroke	o	n/a
290.6245	0.114	581249	keystroke	n	n/a
290.8195	0.1585	581639	keystroke	s	n/a
291.012	0.0705	582024	keystroke	i	n/a
291.1995	0.09	582399	keystroke	n	n/a
291.3415	0.091	582683	keystroke	Key.enter	n/a
291.4415	14.1585	582883	prompt	n/a	hero motel predicted holly\n
298.6815	0.0905	597363	keystroke	h	n/a
298.748	0.1145	597496	keystroke	e	n/a
298.8155	0.116	597631	keystroke	r	n/a
299.0765	0.113	598153	keystroke	Key.space	n/a
299.303	0.0885	598606	keystroke	m	n/a
299.5675	0.1115	599135	keystroke	Key.backspace	n/a
299.731	0.112	599462	keystroke	Key.backspace	n/a
300.503	0.156	601006	keystroke	o	n/a
300.635	0.1325	601270	keystroke	Key.space	n/a
302.1575	0.114	604315	keystroke	m	n/a
302.2025	0.092	604405	keystroke	o	n/a
302.2945	0.111	604589	keystroke	t	n/a
302.338	0.113	604676	keystroke	e	n/a
302.427	0.069	604854	keystroke	l	n/a
302.5185	0.1365	605037	keystroke	Key.space	n/a
302.6995	0.089	605399	keystroke	p	n/a
302.7435	0.1115	605487	keystroke	r	n/a
302.9725	0.135	605945	keystroke	e	n/a
303.2115	0.091	606423	keystroke	d	n/a
303.3235	0.091	606647	keystroke	i	n/a
303.3905	0.115	606781	keystroke	c	n/a
303.714	0.1095	607428	keystroke	e	n/a
303.9925	0.112	607985	keystroke	Key.backspace	n/a
304.037	0.0905	608074	keystroke	t	n/a
304.1055	0.0665	608211	keystroke	e	n/a
304.2495	0.111	608499	keystroke	d	n/a
304.3155	0.089	608631	keystroke	Key.space	n/a
304.4785	0.113	608957	keystroke	h	n/a
304.5455	0.112	609091	keystroke	o	n/a
304.747	0.0905	609494	keystroke	l	n/a
304.885	0.0675	609770	keystroke	l	n/a
305.087	0.067	610174	keystroke	y	n/a
305.5075	0.09	611015	keystroke	Key.enter	n/a
305.61	8.105	611220	prompt	n/a	wednesday cashiers electricity billing\n
308.4595	0.1345	616919	keystroke	w	n/a
308.548	0.1115	617096	keystroke	e	n/a
308.736	0.1125	617472	keystroke	d	n/a
308.9235	0.1105	617847	keystroke	n	n/a
309.011	0.0665	618022	keystroke	e	n/a
309.1535	0.0685	618307	keystroke	s	n/a
309.365	0.112	618730	keystroke	d	n/a
309.454	0.0905	618908	keystroke	a	n/a
309.5	0.0895	619000	keystroke	y	n/a
309.5655	0.135	619131	keystroke	Key.space	n/a
309.7795	0.1325	619559	keystroke	c	n/a
309.867	0.156	619734	keystroke	a	n/a
309.999	0.09	619998	keystroke	s	n/a
310.09	0.066	620180	keystroke	h	n/a
310.265	0.09	620530	keystroke	i	n/a
310.332	0.1375	620664	keystroke	e	n/a
310.377	0.181	620754	keystroke	r	n/a
310.58	0.133	621160	keystroke	Key.space	n/a
310.931	0.112	621862	keystroke	Key.backspace	n/a
311.044	0.113	622088	keystroke	s	n/a
311.133	0.091	622266	keystroke	Key.space	n/a
311.253	0.1325	622506	keystroke	e	n/a
311.4465	0.0915	622893	keystroke	l	n/a
311.5145	0.111	623029	keystroke	e	n/a
311.6475	0.11	623295	keystroke	c	n/a
311.8845	0.111	623769	keystroke	t	n/a
311.952	0.0875	623904	keystroke	r	n/a
312.0765	0.087	624153	keystroke	i	n/a
312.164	0.1095	624328	keystroke	c	n/a
312.2745	0.0865	624549	keystroke	i	n/a
312.396	0.09	624792	keystroke	t	n/a
312.4865	0.066	624973	keystroke	y	n/a
312.5535	0.089	625107	keystroke	Key.space	n/a
312.78	0.0905	625560	keystroke	b	n/a
312.8245	0.0905	625649	keystroke	i	n/a
313.0255	0.07	626051	keystroke	l	n/a
313.1565	0.09	626313	keystroke	l	n/a
313.32	0.068	626640	keystroke	i	n/a
313.4675	0.068	626935	keystroke	n	n/a
313.5355	0.0875	627071	keystroke	g	n/a
313.6445	0.069	627289	keystroke	Key.enter	n/a
313.719	7.864	627438	prompt	n/a	tremendous comfort keeps surely\n
314.6235	0.0915	629247	keystroke	t	n/a
315.732	0.112	631464	keystroke	r	n/a
315.798	0.112	631596	keystroke	e	n/a
315.96	0.111	631920	keystroke	m	n/a
316.114	0.11	632228	keystroke	e	n/a
316.2465	0.0665	632493	keystroke	n	n/a
316.314	0.092	632628	keystroke	d	n/a
316.455	0.1145	632910	keystroke	o	n/a
316.655	0.07	633310	keystroke	u	n/a
316.701	0.113	633402	keystroke	s	n/a
316.815	0.11	633630	keystroke	Key.space	n/a
316.964	0.131	633928	keystroke	c	n/a
317.03	0.088	634060	keystroke	o	n/a
317.186	0.091	634372	keystroke	m	n/a
317.253	0.0895	634506	keystroke	f	n/a
317.441	0.132	634882	keystroke	o	n/a
317.6355	0.088	635271	keystroke	r	n/a
317.8255	0.1105	635651	keystroke	t	n/a
318.069	0.133	636138	keystroke	Key.space	n/a
318.4565	0.0905	636913	keystroke	k	n/a
318.548	0.066	637096	keystroke	e	n/a
318.712	0.069	637424	keystroke	e	n/a
318.782	0.0865	637564	keystroke	p	n/a
319.2545	0.1115	638509	keystroke	Key.backspace	n/a
319.822	0.1135	639644	keystroke	p	n/a
319.913	0.113	639826	keystroke	s	n/a
320.0265	0.1135	640053	keystroke	Key.space	n/a
320.732	0.116	641464	keystroke	s	n/a
320.8	0.092	641600	keystroke	u	n/a
320.941	0.135	641882	keystroke	r	n/a
321.0305	0.091	642061	keystroke	e	n/a
321.122	0.089	642244	keystroke	l	n/a
321.232	0.0905	642464	keystroke	y	n/a
321.426	0.155	642852	keystroke	Key.enter	n/a
321.587	4.366	643174	prompt	n/a	pill used burns deviant\n
322.3565	0.113	644713	keystroke	p	n/a
322.5405	0.066	645081	keystroke	i	n/a
322.7185	0.068	645437	keystroke	l	n/a
322.835	0.088	645670	keystroke	l	n/a
322.945	0.114	645890	keystroke	Key.space	n/a
323.081	0.089	646162	keystroke	u	n/a
323.171	0.111	646342	keystroke	s	n/a
323.387	0.092	646774	keystroke	e	n/a
323.5	0.1115	647000	keystroke	d	n/a
323.5665	0.068	647133	keystroke	Key.space	n/a
323.7305	0.0885	647461	keystroke	b	n/a
323.7955	0.068	647591	keystroke	u	n/a
323.897	0.1085	647794	keystroke	r	n/a
324.03	0.068	648060	keystroke	n	n/a
324.0735	0.0905	648147	keystroke	s	n/a
324.2065	0.132	648413	keystroke	Key.space	n/a
324.295	0.1115	648590	keystroke	d	n/a
324.408	0.065	648816	keystroke	e	n/a
324.8725	0.068	649745	keystroke	v	n/a
324.9415	0.109	649883	keystroke	i	n/a
325.1385	0.1325	650277	keystroke	a	n/a
325.2715	0.09	650543	keystroke	n	n/a
325.363	0.0865	650726	keystroke	t	n/a
325.84	0.1115	651680	keystroke	Key.enter	n/a
325.959	10.82	651918	prompt	n/a	optional constraint harvard solomon\n
328.287	0.1145	656574	keystroke	o	n/a
328.355	0.091	656710	keystroke	p	n/a
328.5685	0.1135	657137	keystroke	t	n/a
328.657	0.069	657314	keystroke	i	n/a
328.703	0.046	657406	keystroke	o	n/a
328.8315	0.0915	657663	keystroke	n	n/a
328.924	0.087	657848	keystroke	a	n/a
329.033	0.089	658066	keystroke	l	n/a
329.143	0.11	658286	keystroke	Key.space	n/a
329.354	0.113	658708	keystroke	c	n/a
329.444	0.067	658888	keystroke	o	n/a
329.6145	0.0885	659229	keystroke	n	n/a
329.68	0.0885	659360	keystroke	s	n/a
329.891	0.112	659782	keystroke	t	n/a
329.9355	0.1115	659871	keystroke	r	n/a
330.048	0.134	660096	keystroke	a	n/a
330.4395	0.092	660879	keystroke	i	n/a
330.6115	0.068	661223	keystroke	n	n/a
330.6345	0.112	661269	keystroke	t	n/a
330.768	0.087	661536	keystroke	Key.space	n/a
330.893	0.093	661786	keystroke	h	n/a
330.961	0.071	661922	keystroke	a	n/a
331.009	0.089	662018	keystroke	r	n/a
331.315	0.0665	662630	keystroke	b	n/a
331.4035	0.091	662807	keystroke	a	n/a
331.6395	0.087	663279	keystroke	Key.backspace	n/a
331.7905	0.113	663581	keystroke	Key.backspace	n/a
332.0565	0.134	664113	keystroke	a	n/a
332.1235	0.134	664247	keystroke	r	n/a
332.3125	0.113	664625	keystroke	Key.backspace	n/a
332.492	0.1075	664984	keystroke	Key.backspace	n/a
332.738	0.113	665476	keystroke	v	n/a
332.852	0.11	665704	keystroke	r	n/a
332.894	0.18	665788	keystroke	a	n/a
333.21	0.0905	666420	keystroke	Key.backspace	n/a
333.4	0.1595	666800	keystroke	Key.backspace	n/a
333.5365	0.0915	667073	keystroke	a	n/a
333.582	0.112	667164	keystroke	r	n/a
333.788	0.113	667576	keystroke	d	n/a
333.855	0.135	667710	keystroke	Key.space	n/a
334.7565	0.1335	669513	keystroke	s	n/a
334.8675	0.0905	669735	keystroke	o	n/a
335.04	0.09	670080	keystroke	l	n/a
335.2085	0.088	670417	keystroke	o	n/a
335.455	0.11	670910	keystroke	l	n/a
335.7735	0.1115	671547	keystroke	Key.backspace	n/a
336.013	0.089	672026	keystroke	m	n/a
336.311	0.133	672622	keystroke	o	n/a
336.465	0.0875	672930	keystroke	n	n/a
336.667	0.1095	673334	keystroke	Key.enter	n/a
336.7825	9.0405	673565	prompt	n/a	alloy fewer virgin pass\n
340.4515	0.1315	680903	keystroke	a	n/a
340.7295	0.1065	681459	keystroke	l	n/a
340.8945	0.1105	681789	keystroke	l	n/a
341.1135	0.113	682227	keystroke	o	n/a
341.4745	0.113	682949	keystroke	y	n/a
341.5645	0.1125	683129	keystroke	Key.space	n/a
341.6535	0.113	683307	keystroke	f	n/a
341.7425	0.0685	683485	keystroke	e	n/a
341.9315	0.09	683863	keystroke	w	n/a
342.121	0.135	684242	keystroke	e	n/a
342.2325	0.133	684465	keystroke	r	n/a
342.4525	0.113	684905	keystroke	Key.space	n/a
342.793	0.0885	685586	keystroke	v	n/a
342.9105	0.089	685821	keystroke	i	n/a
343.0205	0.067	686041	keystroke	r	n/a
343.1795	0.113	686359	keystroke	i	n/a
343.2015	0.093	686403	keystroke	g	n/a
343.6705	0.087	687341	keystroke	Key.backspace	n/a
343.815	0.0935	687630	keystroke	Key.backspace	n/a
343.861	0.1145	687722	keystroke	g	n/a
343.9305	0.089	687861	keystroke	i	n/a
344.114	0.089	688228	keystroke	n	n/a
344.236	0.112	688472	keystroke	Key.space	n/a
344.4335	0.0905	688867	keystroke	p	n/a
344.501	0.069	689002	keystroke	a	n/a
344.546	0.07	689092	keystroke	s	n/a
344.717	0.067	689434	keystroke	s	n/a
345.776	0.046	691552	keystroke	Key.enter	n/a
345.8275	6.3035	691655	prompt	n/a	gorgeous burn string desert\n
346.7045	0.11	693409	keystroke	g	n/a
347.0175	0.07	694035	keystroke	o	n/a
347.063	0.0665	694126	keystroke	r	n/a
347.2115	0.089	694423	keystroke	g	n/a
347.2565	0.1105	694513	keystroke	e	n/a
347.9175	0.1125	695835	keystroke	o	n/a
347.9845	0.1125	695969	keystroke	u	n/a
348.074	0.113	696148	keystroke	s	n/a
348.188	0.11	696376	keystroke	Key.space	n/a
348.74	0.088	697480	keystroke	b	n/a
348.785	0.112	697570	keystroke	u	n/a
348.874	0.112	697748	keystroke	r	n/a
348.9635	0.091	697927	keystroke	n	n/a
349.149	0.1125	698298	keystroke	Key.space	n/a
349.5815	0.1115	699163	keystroke	s	n/a
349.9805	0.1135	699961	keystroke	t	n/a
350.0255	0.134	700051	keystroke	r	n/a
350.094	0.1105	700188	keystroke	i	n/a
350.273	0.0905	700546	keystroke	n	n/a
350.34	0.09	700680	keystroke	g	n/a
350.9195	0.1145	701839	keystroke	Key.space	n/a
351.1155	0.1575	702231	keystroke	d	n/a
351.2265	0.091	702453	keystroke	e	n/a
351.4425	0.0875	702885	keystroke	s	n/a
351.6465	0.1155	703293	keystroke	e	n/a
351.738	0.069	703476	keystroke	r	n/a
351.905	0.092	703810	keystroke	t	n/a
351.997	0.1325	703994	keystroke	Key.enter	n/a
352.135	4.9835	704270	prompt	n/a	walter benefits basket powers\n
352.795	0.1325	705590	keystroke	w	n/a
352.883	0.112	705766	keystroke	a	n/a
352.9725	0.0675	705945	keystroke	l	n/a
353.082	0.1135	706164	keystroke	t	n/a
353.126	0.138	706252	keystroke	e	n/a
353.265	0.0665	706530	keystroke	r	n/a
353.308	0.07	706616	keystroke	Key.space	n/a
353.482	0.07	706964	keystroke	b	n/a
353.527	0.067	707054	keystroke	e	n/a
353.653	0.0905	707306	keystroke	n	n/a
353.698	0.09	707396	keystroke	e	n/a
353.809	0.088	707618	keystroke	f	n/a
353.919	0.089	707838	keystroke	i	n/a
354.029	0.1125	708058	keystroke	t	n/a
354.0955	0.1115	708191	keystroke	s	n/a
354.4215	0.0915	708843	keystroke	Key.space	n/a
354.619	0.0875	709238	keystroke	b	n/a
354.6625	0.1145	709325	keystroke	a	n/a
354.73	0.0915	709460	keystroke	s	n/a
354.8445	0.091	709689	keystroke	k	n/a
354.9365	0.087	709873	keystroke	e	n/a
355.198	0.09	710396	keystroke	t	n/a
355.568	0.114	711136	keystroke	Key.space	n/a
355.713	0.1345	711426	keystroke	p	n/a
355.904	0.111	711808	keystroke	o	n/a
355.948	0.0915	711896	keystroke	w	n/a
356.0405	0.0655	712081	keystroke	e	n/a
356.194	0.1335	712388	keystroke	r	n/a
356.304	0.0255	712608	keystroke	s	n/a
356.4685	0.0215	712937	keystroke	s	n/a
356.865	0.069	713730	keystroke	Key.backspace	n/a
357.049	0.0675	714098	keystroke	Key.enter	n/a
357.1225	4.8475	714245	prompt	n/a	collection stack reader gathering\n
357.592	0.1375	715184	keystroke	c	n/a
357.704	0.071	715408	keystroke	o	n/a
357.86	0.067	715720	keystroke	l	n/a
357.981	0.088	715962	keystroke	l	n/a
358.024	0.067	716048	keystroke	e	n/a
358.092	0.09	716184	keystroke	c	n/a
358.28	0.091	716560	keystroke	t	n/a
358.326	0.1335	716652	keystroke	o	n/a
358.327	0.067	716654	keystroke	i	n/a
358.637	0.0895	717274	keystroke	n	n/a
358.7475	0.0885	717495	keystroke	Key.space	n/a
359.277	0.088	718554	keystroke	s	n/a
359.387	0.068	718774	keystroke	t	n/a
359.476	0.1135	718952	keystroke	a	n/a
359.5655	0.092	719131	keystroke	k	n/a
359.6125	0.0675	719225	keystroke	c	n/a
359.6805	0.11	719361	keystroke	Key.space	n/a
359.8145	0.111	719629	keystroke	r	n/a
359.8815	0.09	719763	keystroke	e	n/a
360.2935	0.112	720587	keystroke	a	n/a
360.439	0.114	720878	keystroke	d	n/a
360.574	0.0905	721148	keystroke	e	n/a
360.64	0.112	721280	keystroke	r	n/a
360.729	0.09	721458	keystroke	Key.space	n/a
360.902	0.1335	721804	keystroke	g	n/a
361.0125	0.093	722025	keystroke	a	n/a
361.127	0.088	722254	keystroke	t	n/a
361.236	0.07	722472	keystroke	h	n/a
361.306	0.088	722612	keystroke	e	n/a
361.3495	0.112	722699	keystroke	r	n/a
361.4385	0.09	722877	keystroke	i	n/a
361.5495	0.089	723099	keystroke	n	n/a
361.6145	0.0905	723229	keystroke	g	n/a
361.8555	0.112	723711	keystroke	Key.enter	n/a
361.982	3.866	723964	prompt	n/a	wizard here online victor\n
362.635	0.132	725270	keystroke	w	n/a
362.789	0.088	725578	keystroke	i	n/a
362.959	0.158	725918	keystroke	z	n/a
363.274	0.088	726548	keystroke	a	n/a
363.408	0.1115	726816	keystroke	r	n/a
363.605	0.1125	727210	keystroke	d	n/a
363.7185	0.088	727437	keystroke	Key.space	n/a
363.888	0.0665	727776	keystroke	h	n/a
363.9555	0.0905	727911	keystroke	e	n/a
364.023	0.1375	728046	keystroke	r	n/a
364.1355	0.1135	728271	keystroke	e	n/a
364.25	0.11	728500	keystroke	Key.space	n/a
364.3605	0.09	728721	keystroke	o	n/a
364.5395	0.112	729079	keystroke	b	n/a
364.6275	0.1145	729255	keystroke	l	n/a
364.9275	0.091	729855	keystroke	Key.backspace	n/a
365.0815	0.0905	730163	keystroke	Key.backspace	n/a
365.149	0.0925	730298	keystroke	n	n/a
365.2425	0.065	730485	keystroke	l	n/a
365.406	0.069	730812	keystroke	i	n/a
365.5765	0.067	731153	keystroke	n	n/a
365.6645	0.092	731329	keystroke	e	n/a
365.7785	0.067	731557	keystroke	Key.enter	n/a
365.851	10.704	731702	prompt	n/a	acquisitions infectious relatives extra\n
368.05	0.0895	736100	keystroke	a	n/a
368.2165	0.136	736433	keystroke	c	n/a
368.6915	0.154	737383	keystroke	q	n/a
368.8925	0.1365	737785	keystroke	u	n/a
368.9825	0.136	737965	keystroke	i	n/a
369.0945	0.09	738189	keystroke	s	n/a
369.2585	0.0875	738517	keystroke	i	n/a
369.347	0.065	738694	keystroke	t	n/a
369.4465	0.0905	738893	keystroke	i	n/a
369.5995	0.09	739199	keystroke	n	n/a
369.7095	0.114	739419	keystroke	s	n/a
370.4555	0.113	740911	keystroke	Key.space	n/a
370.6335	0.064	741267	keystroke	i	n/a
370.7935	0.0915	741587	keystroke	n	n/a
370.8395	0.1115	741679	keystroke	f	n/a
370.906	0.09	741812	keystroke	e	n/a
371.1255	0.0885	742251	keystroke	c	n/a
371.319	0.114	742638	keystroke	t	n/a
371.387	0.114	742774	keystroke	i	n/a
371.456	0.088	742912	keystroke	o	n/a
371.5995	0.0675	743199	keystroke	n	n/a
372.0365	0.088	744073	keystroke	Key.backspace	n/a
372.382	0.0885	744764	keystroke	u	n/a
372.4475	0.134	744895	keystroke	s	n/a
372.5575	0.112	745115	keystroke	Key.space	n/a
372.891	0.1105	745782	keystroke	r	n/a
372.9585	0.1125	745917	keystroke	e	n/a
373.072	0.0865	746144	keystroke	l	n/a
373.181	0.0905	746362	keystroke	a	n/a
373.2725	0.066	746545	keystroke	t	n/a
373.4025	0.067	746805	keystroke	i	n/a
373.4925	0.113	746985	keystroke	v	n/a
373.5815	0.07	747163	keystroke	e	n/a
373.8145	0.1105	747629	keystroke	s	n/a
373.9545	0.135	747909	keystroke	Key.space	n/a
375.6135	0.091	751227	keystroke	e	n/a
375.7895	0.1135	751579	keystroke	x	n/a
376.03	0.0905	752060	keystroke	t	n/a
376.097	0.088	752194	keystroke	r	n/a
376.1625	0.1325	752325	keystroke	a	n/a
376.439	0.114	752878	keystroke	Key.enter	n/a
376.558	13.621	753116	prompt	n/a	font sequences camel copyrights\n
381.273	0.115	762546	keystroke	f	n/a
381.4095	0.0915	762819	keystroke	o	n/a
381.635	0.091	763270	keystroke	n	n/a
381.7475	0.133	763495	keystroke	t	n/a
385.5055	0.132	771011	keystroke	Key.space	n/a
385.768	0.113	771536	keystroke	s	n/a
385.9645	0.135	771929	keystroke	e	n/a
386.076	0.1545	772152	keystroke	q	n/a
386.3925	0.11	772785	keystroke	u	n/a
386.5035	0.091	773007	keystroke	e	n/a
386.649	0.09	773298	keystroke	n	n/a
386.7395	0.0925	773479	keystroke	c	n/a
386.783	0.095	773566	keystroke	e	n/a
387.1735	0.111	774347	keystroke	s	n/a
387.3175	0.1535	774635	keystroke	Key.space	n/a
387.6135	0.0895	775227	keystroke	c	n/a
387.68	0.0915	775360	keystroke	a	n/a
387.772	0.1085	775544	keystroke	m	n/a
387.9465	0.0925	775893	keystroke	e	n/a
388.015	0.089	776030	keystroke	l	n/a
388.1515	0.1355	776303	keystroke	Key.space	n/a
388.3085	0.0895	776617	keystroke	c	n/a
388.3755	0.0925	776751	keystroke	o	n/a
388.546	0.1145	777092	keystroke	p	n/a
388.7835	0.0895	777567	keystroke	y	n/a
388.8945	0.136	777789	keystroke	Key.space	n/a
389.0515	0.1125	778103	keystroke	w	n/a
389.2885	0.0925	778577	keystroke	Key.backspace	n/a
389.436	0.1135	778872	keystroke	Key.backspace	n/a
389.571	0.0895	779142	keystroke	r	n/a
389.6615	0.09	779323	keystroke	i	n/a
389.7725	0.068	779545	keystroke	g	n/a
389.862	0.0675	779724	keystroke	h	n/a
389.9505	0.114	779901	keystroke	t	n/a
390.0195	0.0905	780039	keystroke	s	n/a
390.0855	0.092	780171	keystroke	Key.enter	n/a
390.182	5.3385	780364	prompt	n/a	appointments any how'd seminars\n
390.844	0.1115	781688	keystroke	a	n/a
390.9905	0.068	781981	keystroke	p	n/a
391.1265	0.0915	782253	keystroke	p	n/a
391.279	0.0895	782558	keystroke	o	n/a
391.4365	0.1105	782873	keystroke	i	n/a
391.627	0.087	783254	keystroke	n	n/a
391.716	0.1105	783432	keystroke	t	n/a
391.887	0.091	783774	keystroke	m	n/a
391.979	0.0885	783958	keystroke	e	n/a
392.0885	0.0665	784177	keystroke	n	n/a
392.1765	0.11	784353	keystroke	t	n/a
392.2415	0.068	784483	keystroke	s	n/a
392.2875	0.111	784575	keystroke	Key.space	n/a
392.5915	0.0895	785183	keystroke	Key.backspace	n/a
392.754	0.11	785508	keystroke	Key.backspace	n/a
392.885	0.09	785770	keystroke	Key.space	n/a
393.2495	0.089	786499	keystroke	Key.backspace	n/a
393.295	0.1115	786590	keystroke	s	n/a
393.3835	0.067	786767	keystroke	Key.space	n/a
393.4525	0.1115	786905	keystroke	a	n/a
393.5405	0.0895	787081	keystroke	n	n/a
393.757	0.0905	787514	keystroke	y	n/a
393.824	0.069	787648	keystroke	Key.space	n/a
393.943	0.093	787886	keystroke	h	n/a
394.011	0.07	788022	keystroke	o	n/a
394.036	0.0895	788072	keystroke	w	n/a
394.211	0.069	788422	keystroke	'	n/a
394.2565	0.0905	788513	keystroke	d	n/a
394.399	0.09	788798	keystroke	Key.space	n/a
394.6235	0.0895	789247	keystroke	s	n/a
394.802	0.113	789604	keystroke	e	n/a
394.869	0.0905	789738	keystroke	m	n/a
394.916	0.0895	789832	keystroke	i	n/a
395.039	0.068	790078	keystroke	n	n/a
395.142	0.09	790284	keystroke	a	n/a
395.209	0.091	790418	keystroke	r	n/a
395.3635	0.0675	790727	keystroke	s	n/a
395.4525	0.066	790905	keystroke	Key.enter	n/a
395.524	7.98	791048	prompt	n/a	perceived bookstore fitness dual\n
396.084	0.1135	792168	keystroke	p	n/a
396.1495	0.1145	792299	keystroke	r	n/a
396.2185	0.068	792437	keystroke	e	n/a
396.3995	0.068	792799	keystroke	v	n/a
396.4445	0.09	792889	keystroke	e	n/a
396.935	0.0885	793870	keystroke	Key.backspace	n/a
397.0935	0.111	794187	keystroke	Key.backspace	n/a
397.1815	0.133	794363	keystroke	c	n/a
397.316	0.1335	794632	keystroke	e	n/a
398.1245	0.135	796249	keystroke	i	n/a
398.3045	0.1115	796609	keystroke	v	n/a
398.4485	0.1115	796897	keystroke	e	n/a
398.602	0.112	797204	keystroke	d	n/a
398.7745	0.137	797549	keystroke	Key.space	n/a
399.536	0.114	799072	keystroke	b	n/a
399.7385	0.09	799477	keystroke	o	n/a
399.891	0.0655	799782	keystroke	o	n/a
400.031	0.1125	800062	keystroke	k	n/a
400.1665	0.1545	800333	keystroke	Key.space	n/a
400.465	0.1115	800930	keystroke	Key.backspace	n/a
400.5525	0.046	801105	keystroke	s	n/a
400.7145	0.088	801429	keystroke	t	n/a
400.8035	0.0685	801607	keystroke	o	n/a
400.893	0.1335	801786	keystroke	r	n/a
400.9815	0.091	801963	keystroke	e	n/a
401.0485	0.0925	802097	keystroke	Key.space	n/a
401.2565	0.091	802513	keystroke	f	n/a
401.3715	0.068	802743	keystroke	i	n/a
401.4685	0.111	802937	keystroke	t	n/a
401.5805	0.088	803161	keystroke	e	n/a
401.7085	0.088	803417	keystroke	n	n/a
401.9485	0.088	803897	keystroke	Key.backspace	n/a
402.0735	0.1135	804147	keystroke	Key.backspace	n/a
402.209	0.0685	804418	keystroke	n	n/a
402.2545	0.068	804509	keystroke	e	n/a
402.4335	0.068	804867	keystroke	s	n/a
402.583	0.0655	805166	keystroke	s	n/a
402.7155	0.068	805431	keystroke	Key.space	n/a
402.8045	0.09	805609	keystroke	d	n/a
402.8965	0.087	805793	keystroke	u	n/a
403.0045	0.113	806009	keystroke	a	n/a
403.0935	0.0905	806187	keystroke	l	n/a
403.4125	0.0895	806825	keystroke	Key.enter	n/a
403.5125	6.3235	807025	prompt	n/a	table classes familiar orange\n
404.7725	0.1125	809545	keystroke	t	n/a
404.8855	0.1115	809771	keystroke	a	n/a
405.018	0.0675	810036	keystroke	b	n/a
405.108	0.0905	810216	keystroke	l	n/a
405.175	0.09	810350	keystroke	e	n/a
405.287	0.088	810574	keystroke	Key.space	n/a
405.4245	0.1095	810849	keystroke	c	n/a
405.556	0.068	811112	keystroke	l	n/a
405.6005	0.0895	811201	keystroke	a	n/a
405.691	0.087	811382	keystroke	s	n/a
405.8335	0.0895	811667	keystroke	s	n/a
406.002	0.068	812004	keystroke	e	n/a
406.162	0.0875	812324	keystroke	s	n/a
406.2505	0.11	812501	keystroke	Key.space	n/a
406.6175	0.1095	813235	keystroke	f	n/a
406.7045	0.1575	813409	keystroke	a	n/a
407.0355	0.1105	814071	keystroke	m	n/a
407.1015	0.09	814203	keystroke	i	n/a
407.3065	0.111	814613	keystroke	l	n/a
407.456	0.0695	814912	keystroke	a	n/a
407.526	0.066	815052	keystroke	i	n/a
407.7235	0.0905	815447	keystroke	r	n/a
407.814	0.0665	815628	keystroke	Key.backspace	n/a
407.9635	0.09	815927	keystroke	Key.backspace	n/a
408.1225	0.0895	816245	keystroke	Key.backspace	n/a
408.214	0.0865	816428	keystroke	i	n/a
408.255	0.113	816510	keystroke	a	n/a
408.3015	0.1325	816603	keystroke	r	n/a
408.389	0.1115	816778	keystroke	Key.space	n/a
408.7435	0.113	817487	keystroke	o	n/a
408.8335	0.09	817667	keystroke	r	n/a
408.9455	0.111	817891	keystroke	a	n/a
409.0915	0.0905	818183	keystroke	n	n/a
409.1355	0.0925	818271	keystroke	g	n/a
409.205	0.0895	818410	keystroke	e	n/a
409.3145	0.113	818629	keystroke	Key.space	n/a
409.592	0.0665	819184	keystroke	Key.backspace	n/a
409.766	0.068	819532	keystroke	Key.enter	n/a
409.8395	75.971	819679	prompt	n/a	compare officers agreed calculator\n
414.262	0.112	828524	keystroke	g	n/a
414.4305	0.069	828861	keystroke	o	n/a
414.5685	0.09	829137	keystroke	o	n/a
414.636	0.088	829272	keystroke	g	n/a
414.766	0.0905	829532	keystroke	Key.enter	n/a
415.605	0.112	831210	keystroke	d	n/a
415.718	0.11	831436	keystroke	o	n/a
415.85	0.091	831700	keystroke	Key.space	n/a
415.942	0.0695	831884	keystroke	i	n/a
416.04	0.089	832080	keystroke	Key.space	n/a
416.159	0.0685	832318	keystroke	p	n/a
416.279	0.133	832558	keystroke	i	n/a
416.487	0.068	832974	keystroke	n	n/a
416.556	0.089	833112	keystroke	c	n/a
416.6665	0.068	833333	keystroke	h	n/a
416.735	0.11	833470	keystroke	Key.space	n/a
417.2985	0.111	834597	keystroke	t	n/a
417.5185	0.1135	835037	keystroke	h	n/a
417.6085	0.0685	835217	keystroke	e	n/a
417.6975	0.135	835395	keystroke	Key.space	n/a
418.296	0.1145	836592	keystroke	t	n/a
418.387	0.134	836774	keystroke	i	n/a
418.476	0.1135	836952	keystroke	p	n/a
418.5905	0.1085	837181	keystroke	Key.space	n/a
419.6955	0.112	839391	keystroke	Key.down	n/a
419.975	0.0685	839950	keystroke	Key.enter	n/a
480.5855	0.092	961171	keystroke	o	n/a
480.6545	0.068	961309	keystroke	c	n/a
480.8215	0.0665	961643	keystroke	Key.backspace	n/a
480.954	0.0905	961908	keystroke	Key.backspace	n/a
481.0205	0.1345	962041	keystroke	c	n/a
481.156	0.088	962312	keystroke	o	n/a
481.351	0.089	962702	keystroke	m	n/a
481.416	0.068	962832	keystroke	p	n/a
481.441	0.1535	962882	keystroke	a	n/a
481.5715	0.112	963143	keystroke	r	n/a
481.64	0.088	963280	keystroke	e	n/a
481.798	0.1365	963596	keystroke	Key.space	n/a
482.033	0.1135	964066	keystroke	o	n/a
482.1475	0.043	964295	keystroke	f	n/a
482.271	0.068	964542	keystroke	f	n/a
482.3685	0.0905	964737	keystroke	i	n/a
482.46	0.068	964920	keystroke	c	n/a
482.529	0.065	965058	keystroke	e	n/a
482.6535	0.089	965307	keystroke	r	n/a
482.7645	0.068	965529	keystroke	s	n/a
482.8325	0.0885	965665	keystroke	Key.space	n/a
482.922	0.111	965844	keystroke	a	n/a
483.055	0.068	966110	keystroke	g	n/a
483.234	0.1125	966468	keystroke	r	n/a
483.278	0.0465	966556	keystroke	e	n/a
483.403	0.0885	966806	keystroke	e	n/a
483.599	0.0905	967198	keystroke	d	n/a
483.727	0.111	967454	keystroke	Key.space	n/a
483.8595	0.111	967719	keystroke	c	n/a
483.948	0.112	967896	keystroke	a	n/a
483.992	0.112	967984	keystroke	l	n/a
484.2775	0.067	968555	keystroke	c	n/a
484.7545	0.0915	969509	keystroke	u	n/a
484.965	0.0895	969930	keystroke	l	n/a
485.076	0.1105	970152	keystroke	a	n/a
485.2085	0.088	970417	keystroke	o	n/a
485.4435	0.0885	970887	keystroke	Key.backspace	n/a
485.5095	0.0915	971019	keystroke	t	n/a
485.5755	0.0695	971151	keystroke	o	n/a
485.6675	0.091	971335	keystroke	r	n/a
485.7595	0.042	971519	keystroke	Key.enter	n/a
485.8175	6.4425	971635	prompt	n/a	leone presentation shares occasion\n
487.292	0.1125	974584	keystroke	l	n/a
487.3815	0.091	974763	keystroke	e	n/a
487.4735	0.0855	974947	keystroke	o	n/a
487.7125	0.1125	975425	keystroke	n	n/a
487.826	0.0675	975652	keystroke	e	n/a
487.9375	0.114	975875	keystroke	Key.space	n/a
488.1235	0.091	976247	keystroke	p	n/a
488.2355	0.0895	976471	keystroke	r	n/a
488.302	0.068	976604	keystroke	e	n/a
488.4455	0.068	976891	keystroke	s	n/a
488.559	0.09	977118	keystroke	e	n/a
488.7565	0.0895	977513	keystroke	n	n/a
488.822	0.113	977644	keystroke	t	n/a
488.936	0.177	977872	keystroke	a	n/a
489.067	0.138	978134	keystroke	i	n/a
489.114	0.089	978228	keystroke	t	n/a
489.346	0.067	978692	keystroke	Key.backspace	n/a
489.485	0.0905	978970	keystroke	Key.backspace	n/a
489.53	0.112	979060	keystroke	t	n/a
489.619	0.09	979238	keystroke	i	n/a
489.664	0.0675	979328	keystroke	o	n/a
489.81	0.071	979620	keystroke	n	n/a
489.9015	0.089	979803	keystroke	Key.space	n/a
490.0435	0.115	980087	keystroke	s	n/a
490.159	0.065	980318	keystroke	h	n/a
490.225	0.111	980450	keystroke	a	n/a
490.337	0.113	980674	keystroke	r	n/a
490.426	0.0685	980852	keystroke	e	n/a
490.58	0.0665	981160	keystroke	s	n/a
490.6475	0.0885	981295	keystroke	Key.space	n/a
490.786	0.091	981572	keystroke	o	n/a
490.8985	0.0675	981797	keystroke	c	n/a
491.049	0.0675	982098	keystroke	c	n/a
491.138	0.091	982276	keystroke	a	n/a
491.2505	0.089	982501	keystroke	s	n/a
491.3835	0.113	982767	keystroke	i	n/a
491.4515	0.0885	982903	keystroke	o	n/a
491.627	0.089	983254	keystroke	n	n/a
491.7875	0.1125	983575	keystroke	Key.space	n/a
492.008	0.067	984016	keystroke	Key.backspace	n/a
492.19	0.068	984380	keystroke	Key.enter	n/a
492.263	8.1805	984526	prompt	n/a	presentation initiatives book costume\n
492.809	0.1125	985618	keystroke	p	n/a
492.876	0.0695	985752	keystroke	r	n/a
492.9225	0.0885	985845	keystroke	e	n/a
493.087	0.09	986174	keystroke	s	n/a
493.207	0.0895	986414	keystroke	e	n/a
493.3955	0.0905	986791	keystroke	n	n/a
493.462	0.0895	986924	keystroke	t	n/a
493.7535	0.11	987507	keystroke	t	n/a
493.9015	0.069	987803	keystroke	i	n/a
493.9245	0.112	987849	keystroke	o	n/a
494.144	0.0675	988288	keystroke	Key.backspace	n/a
494.3015	0.0685	988603	keystroke	Key.backspace	n/a
494.415	0.068	988830	keystroke	a	n/a
494.484	0.087	988968	keystroke	Key.backspace	n/a
494.6705	0.0885	989341	keystroke	Key.backspace	n/a
494.76	0.111	989520	keystroke	a	n/a
494.8255	0.1125	989651	keystroke	t	n/a
494.892	0.1125	989784	keystroke	i	n/a
494.9595	0.068	989919	keystroke	o	n/a
495.0955	0.09	990191	keystroke	n	n/a
495.2065	0.1105	990413	keystroke	Key.space	n/a
495.3395	0.09	990679	keystroke	i	n/a
495.51	0.066	991020	keystroke	n	n/a
495.598	0.087	991196	keystroke	v	n/a
495.7075	0.0885	991415	keystroke	i	n/a
495.926	0.068	991852	keystroke	t	n/a
496.266	0.088	992532	keystroke	Key.backspace	n/a
496.43	0.089	992860	keystroke	Key.backspace	n/a
496.587	0.1095	993174	keystroke	Key.backspace	n/a
496.837	0.087	993674	keystroke	n	n/a
497.064	0.067	994128	keystroke	i	n/a
497.153	0.0685	994306	keystroke	t	n/a
497.2615	0.0925	994523	keystroke	i	n/a
497.375	0.09	994750	keystroke	a	n/a
497.495	0.112	994990	keystroke	t	n/a
497.816	0.1105	995632	keystroke	Key.backspace	n/a
497.9695	0.1125	995939	keystroke	i	n/a
498.0355	0.1135	996071	keystroke	v	n/a
498.103	0.1115	996206	keystroke	e	n/a
498.291	0.091	996582	keystroke	s	n/a
498.404	0.1115	996808	keystroke	Key.space	n/a
498.854	0.091	997708	keystroke	b	n/a
498.946	0.086	997892	keystroke	o	n/a
499.09	0.09	998180	keystroke	o	n/a
499.201	0.0915	998402	keystroke	k	n/a
499.3215	0.112	998643	keystroke	Key.space	n/a
499.3875	0.114	998775	keystroke	c	n/a
499.584	0.0905	999168	keystroke	o	n/a
499.6505	0.047	999301	keystroke	s	n/a
499.9515	0.0935	999903	keystroke	t	n/a
500.021	0.09	1000042	keystroke	u	n/a
500.204	0.091	1000408	keystroke	m	n/a
500.2485	0.092	1000497	keystroke	e	n/a
500.373	0.069	1000746	keystroke	Key.enter	n/a
500.447	6.7995	1000894	prompt	n/a	rolls economics necessity pasta\n
500.9595	0.09	1001919	keystroke	r	n/a
501.026	0.0905	1002052	keystroke	o	n/a
501.182	0.068	1002364	keystroke	l	n/a
501.321	0.0695	1002642	keystroke	l	n/a
501.366	0.0925	1002732	keystroke	s	n/a
501.4815	0.09	1002963	keystroke	Key.space	n/a
501.5725	0.066	1003145	keystroke	e	n/a
502.0175	0.114	1004035	keystroke	c	n/a
502.132	0.1105	1004264	keystroke	o	n/a
502.346	0.1105	1004692	keystroke	n	n/a
502.414	0.087	1004828	keystroke	i	n/a
502.732	0.0685	1005464	keystroke	m	n/a
502.7755	0.09	1005551	keystroke	i	n/a
502.9005	0.1345	1005801	keystroke	c	n/a
503.1245	0.045	1006249	keystroke	s	n/a
503.2135	0.114	1006427	keystroke	Key.space	n/a
503.9055	0.0925	1007811	keystroke	n	n/a
503.951	0.069	1007902	keystroke	e	n/a
504.117	0.067	1008234	keystroke	c	n/a
504.2595	0.091	1008519	keystroke	c	n/a
504.3735	0.046	1008747	keystroke	e	n/a
504.5205	0.0675	1009041	keystroke	s	n/a
504.7055	0.0685	1009411	keystroke	s	n/a
504.8955	0.067	1009791	keystroke	Key.backspace	n/a
505.046	0.091	1010092	keystroke	Key.backspace	n/a
505.208	0.068	1010416	keystroke	Key.backspace	n/a
505.356	0.111	1010712	keystroke	Key.backspace	n/a
505.5935	0.045	1011187	keystroke	e	n/a
505.6605	0.067	1011321	keystroke	e	n/a
505.8375	0.07	1011675	keystroke	s	n/a
506.0155	0.067	1012031	keystroke	s	n/a
506.1495	0.0665	1012299	keystroke	i	n/a
506.257	0.09	1012514	keystroke	t	n/a
506.348	0.088	1012696	keystroke	y	n/a
506.437	0.111	1012874	keystroke	Key.space	n/a
506.692	0.0915	1013384	keystroke	p	n/a
506.7585	0.0925	1013517	keystroke	a	n/a
506.828	0.0885	1013656	keystroke	s	n/a
507.0205	0.0905	1014041	keystroke	t	n/a
507.088	0.134	1014176	keystroke	a	n/a
507.1775	0.067	1014355	keystroke	Key.enter	n/a
507.25	9.233	1014500	prompt	n/a	saskatchewan princeton sharp pittsburgh\n
507.834	0.1335	1015668	keystroke	s	n/a
508.461	0.1365	1016922	keystroke	a	n/a
508.734	0.135	1017468	keystroke	s	n/a
508.965	0.0455	1017930	keystroke	a	n/a
509.0405	0.0665	1018081	keystroke	k	n/a
509.2085	0.09	1018417	keystroke	Key.backspace	n/a
509.3535	0.089	1018707	keystroke	Key.backspace	n/a
509.4445	0.0875	1018889	keystroke	k	n/a
509.572	0.1315	1019144	keystroke	a	n/a
510.9525	0.1125	1021905	keystroke	t	n/a
511.1785	0.1135	1022357	keystroke	c	n/a
511.268	0.091	1022536	keystroke	h	n/a
511.4775	0.0665	1022955	keystroke	e	n/a
511.653	0.069	1023306	keystroke	w	n/a
511.88	0.1355	1023760	keystroke	a	n/a
511.9915	0.091	1023983	keystroke	n	n/a
512.2855	0.1355	1024571	keystroke	Key.space	n/a
512.588	0.09	1025176	keystroke	p	n/a
512.655	0.0695	1025310	keystroke	r	n/a
512.795	0.088	1025590	keystroke	i	n/a
512.9865	0.0645	1025973	keystroke	n	n/a
513.09	0.09	1026180	keystroke	c	n/a
513.156	0.0925	1026312	keystroke	e	n/a
513.342	0.111	1026684	keystroke	t	n/a
513.3855	0.09	1026771	keystroke	o	n/a
513.5535	0.0665	1027107	keystroke	n	n/a
513.6415	0.111	1027283	keystroke	Key.space	n/a
513.7535	0.1315	1027507	keystroke	s	n/a
513.886	0.044	1027772	keystroke	h	n/a
513.931	0.135	1027862	keystroke	a	n/a
514.0405	0.0915	1028081	keystroke	r	n/a
514.109	0.0895	1028218	keystroke	p	n/a
514.2195	0.1135	1028439	keystroke	Key.space	n/a
514.438	0.068	1028876	keystroke	p	n/a
514.6195	0.0665	1029239	keystroke	i	n/a
514.688	0.0655	1029376	keystroke	t	n/a
514.828	0.0695	1029656	keystroke	t	n/a
515.3305	0.0895	1030661	keystroke	s	n/a
515.45	0.0905	1030900	keystroke	b	n/a
515.493	0.092	1030986	keystroke	u	n/a
515.5615	0.069	1031123	keystroke	r	n/a
515.731	0.113	1031462	keystroke	g	n/a
516.1895	0.0915	1032379	keystroke	h	n/a
516.368	0.113	1032736	keystroke	Key.enter	n/a
516.486	8.5385	1032972	prompt	n/a	myth wilson commercial voting\n
517.1	0.0915	1034200	keystroke	m	n/a
517.2955	0.0665	1034591	keystroke	y	n/a
517.384	0.092	1034768	keystroke	t	n/a
517.477	0.065	1034954	keystroke	h	n/a
517.564	0.0905	1035128	keystroke	Key.space	n/a
517.6315	0.091	1035263	keystroke	w	n/a
517.6985	0.0925	1035397	keystroke	i	n/a
517.867	0.0695	1035734	keystroke	l	n/a
517.912	0.1145	1035824	keystroke	s	n/a
518.0045	0.0665	1036009	keystroke	o	n/a
518.162	0.0675	1036324	keystroke	n	n/a
518.2525	0.09	1036505	keystroke	Key.space	n/a
518.318	0.0905	1036636	keystroke	c	n/a
518.3855	0.09	1036771	keystroke	e	n/a
518.5295	0.069	1037059	keystroke	o	n/a
518.698	0.047	1037396	keystroke	m	n/a
518.855	0.0905	1037710	keystroke	Key.backspace	n/a
519.007	0.0675	1038014	keystroke	Key.backspace	n/a
519.154	0.0925	1038308	keystroke	Key.backspace	n/a
519.506	0.0695	1039012	keystroke	o	n/a
519.682	0.0655	1039364	keystroke	m	n/a
519.813	0.089	1039626	keystroke	m	n/a
519.904	0.0665	1039808	keystroke	e	n/a
519.9475	0.09	1039895	keystroke	r	n/a
520.0585	0.067	1040117	keystroke	i	n/a
520.1265	0.112	1040253	keystroke	c	n/a
520.215	0.091	1040430	keystroke	a	n/a
520.841	0.113	1041682	keystroke	Key.backspace	n/a
521.082	0.089	1042164	keystroke	i	n/a
521.281	0.0905	1042562	keystroke	a	n/a
521.414	0.066	1042828	keystroke	l	n/a
522.063	0.068	1044126	keystroke	Key.backspace	n/a
522.224	0.0675	1044448	keystroke	Key.backspace	n/a
522.3875	0.067	1044775	keystroke	Key.backspace	n/a
522.573	0.07	1045146	keystroke	Key.backspace	n/a
522.754	0.09	1045508	keystroke	Key.backspace	n/a
522.918	0.086	1045836	keystroke	c	n/a
523.006	0.1105	1046012	keystroke	i	n/a
523.1385	0.0915	1046277	keystroke	a	n/a
523.231	0.0885	1046462	keystroke	l	n/a
523.3195	0.1105	1046639	keystroke	Key.space	n/a
523.626	0.0685	1047252	keystroke	v	n/a
523.7155	0.068	1047431	keystroke	o	n/a
523.9	0.092	1047800	keystroke	t	n/a
523.968	0.0905	1047936	keystroke	i	n/a
524.1385	0.0905	1048277	keystroke	n	n/a
524.1835	0.0915	1048367	keystroke	g	n/a
524.333	0.1115	1048666	keystroke	Key.space	n/a
524.6215	0.045	1049243	keystroke	Key.backspace	n/a
524.954	0.068	1049908	keystroke	Key.enter	n/a
525.0285	6.7135	1050057	prompt	n/a	priest headphones bones bend\n
525.848	0.087	1051696	keystroke	p	n/a
525.936	0.0905	1051872	keystroke	r	n/a
526.099	0.0915	1052198	keystroke	i	n/a
526.2125	0.1135	1052425	keystroke	e	n/a
526.4185	0.1335	1052837	keystroke	s	n/a
526.53	0.0665	1053060	keystroke	t	n/a
526.6185	0.113	1053237	keystroke	Key.space	n/a
526.858	0.0925	1053716	keystroke	h	n/a
526.9055	0.091	1053811	keystroke	e	n/a
526.973	0.136	1053946	keystroke	a	n/a
527.0855	0.093	1054171	keystroke	d	n/a
527.18	0.0865	1054360	keystroke	p	n/a
527.3125	0.0675	1054625	keystroke	g	n/a
527.381	0.0865	1054762	keystroke	o	n/a
527.569	0.068	1055138	keystroke	n	n/a
527.6385	0.043	1055277	keystroke	e	n/a
527.7685	0.0915	1055537	keystroke	Key.backspace	n/a
527.912	0.087	1055824	keystroke	Key.backspace	n/a
528.071	0.091	1056142	keystroke	Key.backspace	n/a
528.2295	0.1125	1056459	keystroke	Key.backspace	n/a
528.343	0.09	1056686	keystroke	h	n/a
528.434	0.0875	1056868	keystroke	o	n/a
528.6305	0.068	1057261	keystroke	n	n/a
528.6755	0.091	1057351	keystroke	e	n/a
528.789	0.09	1057578	keystroke	Key.space	n/a
528.9145	0.0895	1057829	keystroke	e	n/a
529.208	0.089	1058416	keystroke	Key.backspace	n/a
529.3775	0.0915	1058755	keystroke	Key.backspace	n/a
529.444	0.115	1058888	keystroke	s	n/a
529.559	0.1115	1059118	keystroke	Key.space	n/a
529.7805	0.068	1059561	keystroke	Key.backspace	n/a
530.1035	0.069	1060207	keystroke	Key.space	n/a
530.3935	0.0665	1060787	keystroke	o	n/a
530.7205	0.113	1061441	keystroke	Key.backspace	n/a
530.855	0.091	1061710	keystroke	b	n/a
530.966	0.066	1061932	keystroke	o	n/a
531.1395	0.069	1062279	keystroke	n	n/a
531.1845	0.047	1062369	keystroke	e	n/a
531.353	0.0895	1062706	keystroke	s	n/a
531.6505	0.09	1063301	keystroke	Key.enter	n/a
531.746	9.48	1063492	prompt	n/a	montgomery connected acid nursery\n
531.965	0.0695	1063930	keystroke	b	n/a
532.0115	0.09	1064023	keystroke	e	n/a
532.1455	0.0895	1064291	keystroke	n	n/a
532.212	0.111	1064424	keystroke	d	n/a
532.8675	0.088	1065735	keystroke	Key.backspace	n/a
533.039	0.0665	1066078	keystroke	Key.backspace	n/a
533.1915	0.066	1066383	keystroke	Key.backspace	n/a
533.358	0.09	1066716	keystroke	Key.backspace	n/a
533.6625	0.111	1067325	keystroke	m	n/a
533.7055	0.091	1067411	keystroke	o	n/a
533.927	0.091	1067854	keystroke	n	n/a
534.3675	0.1335	1068735	keystroke	t	n/a
534.5515	0.1105	1069103	keystroke	o	n/a
534.867	0.135	1069734	keystroke	g	n/a
535.0525	0.044	1070105	keystroke	o	n/a
535.3975	0.0915	1070795	keystroke	m	n/a
535.465	0.114	1070930	keystroke	e	n/a
535.511	0.158	1071022	keystroke	r	n/a
535.67	0.066	1071340	keystroke	y	n/a
535.713	0.112	1071426	keystroke	Key.space	n/a
536.434	0.092	1072868	keystroke	c	n/a
536.501	0.0695	1073002	keystroke	o	n/a
536.652	0.0665	1073304	keystroke	n	n/a
536.7815	0.0885	1073563	keystroke	n	n/a
536.8915	0.159	1073783	keystroke	c	n/a
537.173	0.114	1074346	keystroke	Key.backspace	n/a
537.219	0.112	1074438	keystroke	e	n/a
537.308	0.0895	1074616	keystroke	c	n/a
537.5305	0.115	1075061	keystroke	t	n/a
537.598	0.0915	1075196	keystroke	e	n/a
537.751	0.0905	1075502	keystroke	d	n/a
537.817	0.112	1075634	keystroke	Key.space	n/a
538.01	0.134	1076020	keystroke	a	n/a
538.251	0.0475	1076502	keystroke	i	n/a
538.273	0.0275	1076546	keystroke	d	n/a
538.427	0.091	1076854	keystroke	Key.backspace	n/a
538.598	0.089	1077196	keystroke	c	n/a
538.737	0.046	1077474	keystroke	Key.backspace	n/a
538.892	0.1135	1077784	keystroke	Key.backspace	n/a
539.0065	0.088	1078013	keystroke	c	n/a
539.13	0.091	1078260	keystroke	i	n/a
539.254	0.069	1078508	keystroke	d	n/a
539.344	0.0915	1078688	keystroke	Key.space	n/a
539.548	0.0905	1079096	keystroke	n	n/a
539.6165	0.0685	1079233	keystroke	u	n/a
539.66	0.0695	1079320	keystroke	r	n/a
539.844	0.0675	1079688	keystroke	s	n/a
540.0565	0.093	1080113	keystroke	e	n/a
540.1495	0.112	1080299	keystroke	r	n/a
540.216	0.158	1080432	keystroke	y	n/a
540.396	0.1135	1080792	keystroke	Key.space	n/a
540.953	0.0905	1081906	keystroke	Key.backspace	n/a
541.133	0.0915	1082266	keystroke	Key.enter	n/a
541.2295	10.307	1082459	prompt	n/a	exclusion kijiji laura essay\n
541.846	0.133	1083692	keystroke	e	n/a
542.046	0.133	1084092	keystroke	x	n/a
542.2605	0.0915	1084521	keystroke	c	n/a
542.353	0.11	1084706	keystroke	l	n/a
542.575	0.0895	1085150	keystroke	u	n/a
542.6655	0.0665	1085331	keystroke	s	n/a
542.7325	0.0885	1085465	keystroke	i	n/a
542.875	0.0905	1085750	keystroke	n	n/a
542.942	0.0905	1085884	keystroke	g	n/a
543.053	0.137	1086106	keystroke	Key.space	n/a
543.5595	0.0665	1087119	keystroke	Key.backspace	n/a
543.7145	0.068	1087429	keystroke	Key.backspace	n/a
543.862	0.113	1087724	keystroke	Key.backspace	n/a
544.0105	0.115	1088021	keystroke	i	n/a
544.0795	0.0895	1088159	keystroke	o	n/a
544.264	0.069	1088528	keystroke	n	n/a
544.4335	0.0895	1088867	keystroke	Key.backspace	n/a
544.6	0.0895	1089200	keystroke	Key.backspace	n/a
544.7445	0.067	1089489	keystroke	Key.backspace	n/a
544.8495	0.0675	1089699	keystroke	o	n/a
544.9905	0.11	1089981	keystroke	n	n/a
545.1215	0.112	1090243	keystroke	Key.space	n/a
545.533	0.0685	1091066	keystroke	k	n/a
546.5765	0.1125	1093153	keystroke	i	n/a
546.761	0.0895	1093522	keystroke	j	n/a
546.8275	0.0905	1093655	keystroke	i	n/a
547.498	0.0705	1094996	keystroke	j	n/a
547.5425	0.0945	1095085	keystroke	i	n/a
547.752	0.113	1095504	keystroke	Key.space	n/a
548.206	0.0875	1096412	keystroke	l	n/a
548.2505	0.112	1096501	keystroke	a	n/a
548.426	0.09	1096852	keystroke	u	n/a
548.4935	0.1155	1096987	keystroke	r	n/a
548.562	0.1355	1097124	keystroke	a	n/a
548.652	0.091	1097304	keystroke	Key.space	n/a
550.0995	0.1095	1100199	keystroke	e	n/a
550.3225	0.0685	1100645	keystroke	s	n/a
550.4705	0.135	1100941	keystroke	s	n/a
550.56	0.115	1101120	keystroke	a	n/a
550.6505	0.092	1101301	keystroke	y	n/a
550.719	0.134	1101438	keystroke	Key.space	n/a
551.284	0.0675	1102568	keystroke	Key.backspace	n/a
551.464	0.0705	1102928	keystroke	Key.enter	n/a
551.541	9.762	1103082	prompt	n/a	gaps direct holding ease\n
552.5155	0.111	1105031	keystroke	g	n/a
552.604	0.159	1105208	keystroke	a	n/a
552.715	0.0715	1105430	keystroke	p	n/a
552.9085	0.1355	1105817	keystroke	Key.space	n/a
553.3215	0.1155	1106643	keystroke	Key.backspace	n/a
553.438	0.086	1106876	keystroke	s	n/a
553.5455	0.111	1107091	keystroke	Key.space	n/a
553.7945	0.0885	1107589	keystroke	d	n/a
553.904	0.0665	1107808	keystroke	i	n/a
553.993	0.093	1107986	keystroke	r	n/a
554.0625	0.091	1108125	keystroke	e	n/a
554.2105	0.044	1108421	keystroke	c	n/a
554.3725	0.113	1108745	keystroke	t	n/a
554.507	0.0945	1109014	keystroke	Key.space	n/a
555.6295	0.1325	1111259	keystroke	h	n/a
555.716	0.1125	1111432	keystroke	o	n/a
555.9245	0.088	1111849	keystroke	l	n/a
555.9905	0.0885	1111981	keystroke	d	n/a
556.112	0.089	1112224	keystroke	i	n/a
556.2785	0.068	1112557	keystroke	n	n/a
556.3235	0.113	1112647	keystroke	g	n/a
556.4125	0.113	1112825	keystroke	Key.space	n/a
558.197	0.091	1116394	keystroke	e	n/a
558.242	0.16	1116484	keystroke	a	n/a
558.379	0.091	1116758	keystroke	s	n/a
558.5525	0.114	1117105	keystroke	e	n/a
558.667	0.111	1117334	keystroke	Key.space	n/a
560.929	0.0695	1121858	keystroke	Key.backspace	n/a
560.931	0.071	1121862	keystroke	Key.home	n/a
561.1665	0.135	1122333	keystroke	Key.enter	n/a
561.306	12.453	1122612	prompt	n/a	projects bankruptcy disorder transmission\n
562.009	0.135	1124018	keystroke	p	n/a
562.12	0.069	1124240	keystroke	r	n/a
562.223	0.0905	1124446	keystroke	o	n/a
562.3965	0.07	1124793	keystroke	j	n/a
562.4415	0.0935	1124883	keystroke	e	n/a
562.512	0.1125	1125024	keystroke	c	n/a
562.718	0.113	1125436	keystroke	t	n/a
562.852	0.1115	1125704	keystroke	s	n/a
562.9645	0.0865	1125929	keystroke	Key.space	n/a
563.191	0.0925	1126382	keystroke	b	n/a
563.2355	0.138	1126471	keystroke	a	n/a
563.3745	0.087	1126749	keystroke	n	n/a
563.4855	0.091	1126971	keystroke	k	n/a
563.5775	0.087	1127155	keystroke	r	n/a
563.739	0.0915	1127478	keystroke	u	n/a
563.9465	0.089	1127893	keystroke	p	n/a
564.0575	0.069	1128115	keystroke	t	n/a
564.655	0.113	1129310	keystroke	Key.backspace	n/a
564.8125	0.1115	1129625	keystroke	c	n/a
565.251	0.0695	1130502	keystroke	y	n/a
565.4285	0.0905	1130857	keystroke	Key.backspace	n/a
565.582	0.113	1131164	keystroke	Key.backspace	n/a
565.78	0.133	1131560	keystroke	t	n/a
565.913	0.1345	1131826	keystroke	y	n/a
566.5545	0.134	1133109	keystroke	Key.backspace	n/a
566.6895	0.112	1133379	keystroke	c	n/a
566.7555	0.1125	1133511	keystroke	y	n/a
566.8895	0.1145	1133779	keystroke	Key.space	n/a
567.701	0.1095	1135402	keystroke	d	n/a
567.842	0.0665	1135684	keystroke	i	n/a
567.9395	0.0925	1135879	keystroke	s	n/a
568.0775	0.1115	1136155	keystroke	o	n/a
568.19	0.089	1136380	keystroke	r	n/a
568.418	0.157	1136836	keystroke	d	n/a
568.53	0.1335	1137060	keystroke	e	n/a
568.6645	0.088	1137329	keystroke	r	n/a
568.806	0.155	1137612	keystroke	Key.space	n/a
569.2985	0.1105	1138597	keystroke	t	n/a
569.342	0.1125	1138684	keystroke	r	n/a
569.554	0.091	1139108	keystroke	a	n/a
569.682	0.089	1139364	keystroke	n	n/a
569.772	0.0645	1139544	keystroke	s	n/a
570.0125	0.09	1140025	keystroke	i	n/a
570.244	0.092	1140488	keystroke	m	n/a
570.512	0.0655	1141024	keystroke	Key.backspace	n/a
570.6455	0.112	1141291	keystroke	Key.backspace	n/a
570.9195	0.068	1141839	keystroke	m	n/a
571.8785	0.047	1143757	keystroke	i	n/a
572.025	0.0665	1144050	keystroke	s	n/a
572.2045	0.0685	1144409	keystroke	s	n/a
572.3555	0.09	1144711	keystroke	i	n/a
572.4005	0.09	1144801	keystroke	o	n/a
572.58	0.0675	1145160	keystroke	n	n/a
572.718	0.112	1145436	keystroke	Key.space	n/a
573.474	0.068	1146948	keystroke	Key.backspace	n/a
573.6905	0.067	1147381	keystroke	Key.enter	n/a
573.7615	4.369	1147523	prompt	n/a	cindy sony earn ought\n
574.339	0.1345	1148678	keystroke	c	n/a
574.494	0.0675	1148988	keystroke	i	n/a
574.661	0.068	1149322	keystroke	n	n/a
574.683	0.134	1149366	keystroke	d	n/a
574.839	0.068	1149678	keystroke	y	n/a
574.8845	0.1145	1149769	keystroke	Key.space	n/a
574.977	0.135	1149954	keystroke	s	n/a
575.0885	0.068	1150177	keystroke	o	n/a
575.209	0.0695	1150418	keystroke	n	n/a
575.3915	0.09	1150783	keystroke	y	n/a
575.4585	0.1345	1150917	keystroke	Key.space	n/a
575.6315	0.112	1151263	keystroke	e	n/a
575.8095	0.068	1151619	keystroke	a	n/a
575.8785	0.046	1151757	keystroke	e	n/a
575.9475	0.09	1151895	keystroke	n	n/a
576.1365	0.066	1152273	keystroke	Key.space	n/a
576.372	0.091	1152744	keystroke	Key.backspace	n/a
576.5265	0.091	1153053	keystroke	Key.backspace	n/a
576.687	0.09	1153374	keystroke	Key.backspace	n/a
576.753	0.113	1153506	keystroke	r	n/a
576.867	0.066	1153734	keystroke	n	n/a
576.955	0.09	1153910	keystroke	Key.space	n/a
577.022	0.09	1154044	keystroke	s	n/a
577.113	0.044	1154226	keystroke	o	n/a
577.2925	0.069	1154585	keystroke	Key.backspace	n/a
577.4195	0.091	1154839	keystroke	Key.backspace	n/a
577.541	0.0915	1155082	keystroke	o	n/a
577.6335	0.088	1155267	keystroke	u	n/a
577.7435	0.092	1155487	keystroke	g	n/a
577.875	0.091	1155750	keystroke	h	n/a
577.943	0.115	1155886	keystroke	t	n/a
578.0595	0.069	1156119	keystroke	Key.enter	n/a
578.134	6.9265	1156268	prompt	n/a	stevens text deaf agriculture\n
578.849	0.0925	1157698	keystroke	s	n/a
579.054	0.089	1158108	keystroke	t	n/a
579.144	0.066	1158288	keystroke	e	n/a
579.284	0.089	1158568	keystroke	v	n/a
579.3505	0.068	1158701	keystroke	e	n/a
579.4395	0.09	1158879	keystroke	n	n/a
579.5865	0.111	1159173	keystroke	Key.space	n/a
579.781	0.114	1159562	keystroke	Key.backspace	n/a
579.871	0.0685	1159742	keystroke	s	n/a
579.97	0.132	1159940	keystroke	Key.space	n/a
580.376	0.113	1160752	keystroke	t	n/a
580.4655	0.0675	1160931	keystroke	e	n/a
580.6415	0.088	1161283	keystroke	x	n/a
580.8615	0.1125	1161723	keystroke	t	n/a
581.0315	0.1355	1162063	keystroke	Key.space	n/a
581.386	0.067	1162772	keystroke	d	n/a
581.454	0.131	1162908	keystroke	e	n/a
581.735	0.135	1163470	keystroke	a	n/a
581.8455	0.095	1163691	keystroke	f	n/a
582.268	0.137	1164536	keystroke	Key.space	n/a
582.335	0.138	1164670	keystroke	a	n/a
582.555	0.1145	1165110	keystroke	g	n/a
582.6455	0.091	1165291	keystroke	r	n/a
582.7385	0.067	1165477	keystroke	i	n/a
582.903	0.089	1165806	keystroke	l	n/a
