onset	duration	sample	value	key	prompt_text
0.0025	0.09	5	keystroke_Key.enter	Key.enter	n/a
0.1175	14.9895	235	prompt	n/a	the quick brown fox jumps over a lazy dog\n
1.443	0.105	2886	keystroke_t	t	n/a
1.518	0.075	3036	keystroke_h	h	n/a
1.683	0.105	3366	keystroke_e	e	n/a
1.818	0.105	3636	keystroke_Key.space	Key.space	n/a
6.1525	0.012	12305	keystroke_q	q	n/a
6.2545	0.12	12509	keystroke_u	u	n/a
6.2995	0.12	12599	keystroke_i	i	n/a
6.4045	0.09	12809	keystroke_c	c	n/a
6.5545	0.09	13109	keystroke_k	k	n/a
6.69	0.1045	13380	keystroke_Key.space	Key.space	n/a
7.41	0.1055	14820	keystroke_b	b	n/a
7.845	0.075	15690	keystroke_r	r	n/a
8.025	0.09	16050	keystroke_o	o	n/a
8.16	0.105	16320	keystroke_w	w	n/a
8.295	0.075	16590	keystroke_n	n	n/a
8.535	0.105	17070	keystroke_Key.space	Key.space	n/a
10.4555	0.06	20911	keystroke_f	f	n/a
10.5005	0.12	21001	keystroke_o	o	n/a
10.7555	0.06	21511	keystroke_x	x	n/a
10.8155	0.105	21631	keystroke_Key.space	Key.space	n/a
11.1	0.075	22200	keystroke_j	j	n/a
11.295	0.06	22590	keystroke_u	u	n/a
11.49	0.105	22980	keystroke_m	m	n/a
11.61	0.09	23220	keystroke_p	p	n/a
11.73	0.105	23460	keystroke_s	s	n/a
11.82	0.075	23640	keystroke_Key.space	Key.space	n/a
12.45	0.105	24900	keystroke_o	o	n/a
12.585	0.09	25170	keystroke_v	v	n/a
12.795	0.105	25590	keystroke_e	e	n/a
12.84	0.12	25680	keystroke_r	r	n/a
12.93	0.09	25860	keystroke_Key.space	Key.space	n/a
13.035	0.09	26070	keystroke_a	a	n/a
13.11	0.075	26220	keystroke_Key.space	Key.space	n/a
13.26	0.105	26520	keystroke_l	l	n/a
13.44	0.165	26880	keystroke_a	a	n/a
13.545	0.18	27090	keystroke_z	z	n/a
14.145	0.075	28290	keystroke_y	y	n/a
14.355	0.09	28710	keystroke_Key.space	Key.space	n/a
14.685	0.06	29370	keystroke_d	d	n/a
14.76	0.09	29520	keystroke_o	o	n/a
14.895	0.06	29790	keystroke_g	g	n/a
15	0.105	30000	keystroke_Key.enter	Key.enter	n/a
15.111	6.0405	30222	prompt	n/a	branch staffing microwave tree\n
15.9745	0.076	31949	keystroke_b	b	n/a
16.0355	0.074	32071	keystroke_r	r	n/a
16.1855	0.089	32371	keystroke_a	a	n/a
16.2895	0.075	32579	keystroke_n	n	n/a
16.4245	0.075	32849	keystroke_c	c	n/a
16.5145	0.075	33029	keystroke_h	h	n/a
16.6045	0.0905	33209	keystroke_Key.space	Key.space	n/a
16.92	0.06	33840	keystroke_s	s	n/a
17.235	0.075	34470	keystroke_t	t	n/a
17.385	0.15	34770	keystroke_a	a	n/a
17.655	0.06	35310	keystroke_f	f	n/a
17.7745	0.105	35549	keystroke_f	f	n/a
17.8945	0.12	35789	keystroke_i	i	n/a
17.9695	0.075	35939	keystroke_n	n	n/a
18.0295	0.075	36059	keystroke_g	g	n/a
18.1345	0.105	36269	keystroke_Key.space	Key.space	n/a
18.4945	0.09	36989	keystroke_m	m	n/a
18.9445	0.06	37889	keystroke_i	i	n/a
19.0495	0.075	38099	keystroke_c	c	n/a
19.3045	0.045	38609	keystroke_r	r	n/a
19.4095	0.09	38819	keystroke_o	o	n/a
19.6045	0.075	39209	keystroke_w	w	n/a
19.8	0.09	39600	keystroke_a	a	n/a
20.025	0.105	40050	keystroke_v	v	n/a
20.085	0.105	40170	keystroke_e	e	n/a
20.22	0.105	40440	keystroke_Key.space	Key.space	n/a
20.49	0.15	40980	keystroke_t	t	n/a
20.55	0.2095	41100	keystroke_r	r	n/a
20.7145	0.105	41429	keystroke_e	e	n/a
20.8945	0.09	41789	keystroke_e	e	n/a
21.0445	0.1055	42089	keystroke_Key.enter	Key.enter	n/a
21.155	9.3265	42310	prompt	n/a	residents cheque nominated freeze\n
21.975	0.105	43950	keystroke_r	r	n/a
22.035	0.0745	44070	keystroke_e	e	n/a
22.1845	0.105	44369	keystroke_s	s	n/a
22.2595	0.09	44519	keystroke_i	i	n/a
22.3645	0.09	44729	keystroke_d	d	n/a
22.5145	0.09	45029	keystroke_e	e	n/a
22.6195	0.09	45239	keystroke_n	n	n/a
22.7105	0.059	45421	keystroke_t	t	n/a
22.8895	0.075	45779	keystroke_s	s	n/a
22.9945	0.09	45989	keystroke_Key.space	Key.space	n/a
23.4745	0.075	46949	keystroke_c	c	n/a
23.5645	0.075	47129	keystroke_h	h	n/a
23.7745	0.0755	47549	keystroke_e	e	n/a
24	0.105	48000	keystroke_q	q	n/a
24.465	0.09	48930	keystroke_u	u	n/a
24.555	0.075	49110	keystroke_e	e	n/a
24.7495	0.075	49499	keystroke_Key.space	Key.space	n/a
25.1245	0.0905	50249	keystroke_n	n	n/a
25.23	0.195	50460	keystroke_o	o	n/a
25.335	0.135	50670	keystroke_m	m	n/a
26.64	0.1495	53280	keystroke_i	i	n/a
26.7145	0.12	53429	keystroke_n	n	n/a
26.9545	0.135	53909	keystroke_a	a	n/a
27.2245	0.135	54449	keystroke_t	t	n/a
27.3745	0.09	54749	keystroke_e	e	n/a
27.5395	0.1055	55079	keystroke_d	d	n/a
27.66	0.105	55320	keystroke_Key.space	Key.space	n/a
28.6045	0.06	57209	keystroke_f	f	n/a
28.8	0.105	57600	keystroke_r	r	n/a
28.89	0.18	57780	keystroke_e	e	n/a
29.4595	0.075	58919	keystroke_e	e	n/a
30.0445	0.06	60089	keystroke_z	z	n/a
30.2545	0.06	60509	keystroke_e	e	n/a
30.3745	0.105	60749	keystroke_Key.enter	Key.enter	n/a
30.4865	6.97	60973	prompt	n/a	intend aboriginal andrea gadgets\n
31.2605	0.12	62521	keystroke_i	i	n/a
31.3355	0.09	62671	keystroke_n	n	n/a
31.4105	0.105	62821	keystroke_t	t	n/a
31.4855	0.1045	62971	keystroke_e	e	n/a
31.665	0.075	63330	keystroke_d	d	n/a
31.755	0.12	63510	keystroke_Key.space	Key.space	n/a
32.565	0.0595	65130	keystroke_a	a	n/a
32.7605	0.074	65521	keystroke_b	b	n/a
32.8505	0.119	65701	keystroke_o	o	n/a
33.0145	0.091	66029	keystroke_r	r	n/a
33.1195	0.075	66239	keystroke_i	i	n/a
33.2695	0.061	66539	keystroke_g	g	n/a
33.45	0.165	66900	keystroke_i	i	n/a
33.585	0.105	67170	keystroke_n	n	n/a
33.735	0.105	67470	keystroke_a	a	n/a
33.855	0.09	67710	keystroke_l	l	n/a
33.975	0.075	67950	keystroke_Key.space	Key.space	n/a
34.335	0.075	68670	keystroke_a	a	n/a
34.455	0.105	68910	keystroke_n	n	n/a
34.59	0.105	69180	keystroke_d	d	n/a
34.8305	0.074	69661	keystroke_r	r	n/a
34.8595	0.12	69719	keystroke_e	e	n/a
35.0095	0.09	70019	keystroke_a	a	n/a
35.1595	0.105	70319	keystroke_Key.space	Key.space	n/a
36.27	0.105	72540	keystroke_g	g	n/a
36.45	0.12	72900	keystroke_a	a	n/a
36.555	0.075	73110	keystroke_d	d	n/a
36.84	0.075	73680	keystroke_g	g	n/a
36.885	0.105	73770	keystroke_e	e	n/a
37.05	0.075	74100	keystroke_t	t	n/a
37.215	0.09	74430	keystroke_s	s	n/a
37.35	0.1045	74700	keystroke_Key.enter	Key.enter	n/a
37.4615	6.2795	74923	prompt	n/a	emergency crossing hours updated\n
38.2045	0.09	76409	keystroke_e	e	n/a
38.3095	0.09	76619	keystroke_m	m	n/a
38.4145	0.105	76829	keystroke_e	e	n/a
38.4595	0.105	76919	keystroke_r	r	n/a
38.7595	0.075	77519	keystroke_g	g	n/a
38.9245	0.09	77849	keystroke_e	e	n/a
39.0295	0.075	78059	keystroke_n	n	n/a
39.1645	0.09	78329	keystroke_c	c	n/a
39.4495	0.075	78899	keystroke_y	y	n/a
39.5845	0.09	79169	keystroke_Key.space	Key.space	n/a
40.305	0.075	80610	keystroke_c	c	n/a
40.515	0.03	81030	keystroke_r	r	n/a
40.56	0.105	81120	keystroke_o	o	n/a
40.725	0.06	81450	keystroke_s	s	n/a
40.845	0.075	81690	keystroke_s	s	n/a
40.9945	0.12	81989	keystroke_i	i	n/a
41.0545	0.075	82109	keystroke_n	n	n/a
41.0845	0.12	82169	keystroke_g	g	n/a
41.2795	0.105	82559	keystroke_Key.space	Key.space	n/a
41.7145	0.105	83429	keystroke_h	h	n/a
41.8945	0.15	83789	keystroke_o	o	n/a
41.9845	0.075	83969	keystroke_u	u	n/a
42.0745	0.12	84149	keystroke_r	r	n/a
42.1645	0.105	84329	keystroke_s	s	n/a
42.2695	0.075	84539	keystroke_Key.space	Key.space	n/a
42.734	0.091	85468	keystroke_u	u	n/a
42.884	0.0905	85768	keystroke_p	p	n/a
42.9895	0.135	85979	keystroke_d	d	n/a
43.08	0.1045	86160	keystroke_a	a	n/a
43.2595	0.105	86519	keystroke_t	t	n/a
43.3345	0.105	86669	keystroke_e	e	n/a
43.515	0.0745	87030	keystroke_d	d	n/a
43.6345	0.105	87269	keystroke_Key.enter	Key.enter	n/a
43.744	6.7775	87488	prompt	n/a	secrets everybody mail duke\n
44.5045	0.105	89009	keystroke_s	s	n/a
44.7295	0.12	89459	keystroke_e	e	n/a
44.8195	0.105	89639	keystroke_c	c	n/a
45.0745	0.105	90149	keystroke_r	r	n/a
45.105	0.12	90210	keystroke_e	e	n/a
45.2995	0.09	90599	keystroke_t	t	n/a
45.5095	0.09	91019	keystroke_s	s	n/a
45.6595	0.105	91319	keystroke_Key.space	Key.space	n/a
45.8995	0.1055	91799	keystroke_e	e	n/a
46.08	0.09	92160	keystroke_v	v	n/a
46.23	0.135	92460	keystroke_e	e	n/a
46.32	0.075	92640	keystroke_r	r	n/a
46.53	0.06	93060	keystroke_y	y	n/a
46.71	0.06	93420	keystroke_b	b	n/a
46.92	0.0745	93840	keystroke_o	o	n/a
47.3245	0.1205	94649	keystroke_d	d	n/a
47.49	0.09	94980	keystroke_y	y	n/a
47.595	0.105	95190	keystroke_Key.space	Key.space	n/a
47.85	0.074	95700	keystroke_m	m	n/a
47.97	0.09	95940	keystroke_a	a	n/a
48.06	0.075	96120	keystroke_i	i	n/a
48.24	0.1195	96480	keystroke_l	l	n/a
48.3445	0.09	96689	keystroke_Key.space	Key.space	n/a
48.6145	0.105	97229	keystroke_d	d	n/a
48.7945	0.105	97589	keystroke_u	u	n/a
48.8845	0.135	97769	keystroke_f	f	n/a
49.4545	0.12	98909	keystroke_Key.backspace	Key.backspace	n/a
50.22	0.075	100440	keystroke_k	k	n/a
50.265	0.09	100530	keystroke_e	e	n/a
50.46	0.06	100920	keystroke_Key.enter	Key.enter	n/a
50.5255	8.8005	101051	prompt	n/a	titten lakes desert initial\n
51.465	0.0895	102930	keystroke_t	t	n/a
51.7195	0.06	103439	keystroke_t	t	n/a
52.0195	0.09	104039	keystroke_Key.backspace	Key.backspace	n/a
52.604	0.045	105208	keystroke_i	i	n/a
52.664	0.0605	105328	keystroke_t	t	n/a
52.7845	0.075	105569	keystroke_t	t	n/a
52.9795	0.075	105959	keystroke_e	e	n/a
53.0995	0.06	106199	keystroke_n	n	n/a
53.3545	0.09	106709	keystroke_Key.space	Key.space	n/a
53.564	0.09	107128	keystroke_l	l	n/a
53.669	0.105	107338	keystroke_a	a	n/a
53.804	0.09	107608	keystroke_k	k	n/a
53.924	0.045	107848	keystroke_e	e	n/a
54.074	0.0755	108148	keystroke_s	s	n/a
54.134	0.09	108268	keystroke_Key.space	Key.space	n/a
54.284	0.075	108568	keystroke_s	s	n/a
54.509	0.105	109018	keystroke_e	e	n/a
54.914	0.045	109828	keystroke_Key.backspace	Key.backspace	n/a
55.034	0.09	110068	keystroke_Key.backspace	Key.backspace	n/a
55.109	0.106	110218	keystroke_d	d	n/a
55.7245	0.165	111449	keystroke_e	e	n/a
55.83	0.12	111660	keystroke_s	s	n/a
56.22	0.09	112440	keystroke_e	e	n/a
56.265	0.165	112530	keystroke_r	r	n/a
57.6295	0.09	115259	keystroke_t	t	n/a
57.7495	0.105	115499	keystroke_Key.space	Key.space	n/a
58.079	0.12	116158	keystroke_i	i	n/a
58.154	0.09	116308	keystroke_n	n	n/a
58.289	0.105	116578	keystroke_i	i	n/a
58.379	0.09	116758	keystroke_t	t	n/a
58.5745	0.075	117149	keystroke_a	a	n/a
58.709	0.1205	117418	keystroke_l	l	n/a
58.904	0.075	117808	keystroke_Key.space	Key.space	n/a
59.219	0.1055	118438	keystroke_Key.enter	Key.enter	n/a
59.3335	10.3425	118667	prompt	n/a	straight advisory bell antarctica\n
60.2545	0.09	120509	keystroke_s	s	n/a
60.5095	0.105	121019	keystroke_t	t	n/a
60.5395	0.105	121079	keystroke_r	r	n/a
60.719	0.165	121438	keystroke_a	a	n/a
60.899	0.075	121798	keystroke_i	i	n/a
61.274	0.075	122548	keystroke_g	g	n/a
61.514	0.09	123028	keystroke_h	h	n/a
61.619	0.09	123238	keystroke_t	t	n/a
61.769	0.09	123538	keystroke_Key.space	Key.space	n/a
62.8495	0.12	125699	keystroke_a	a	n/a
62.9095	0.105	125819	keystroke_d	d	n/a
63.1795	0.045	126359	keystroke_v	v	n/a
63.2545	0.0905	126509	keystroke_i	i	n/a
63.435	0.1045	126870	keystroke_s	s	n/a
63.5845	0.1205	127169	keystroke_o	o	n/a
63.6595	0.1055	127319	keystroke_r	r	n/a
63.9445	0.06	127889	keystroke_y	y	n/a
64.1095	0.105	128219	keystroke_Key.space	Key.space	n/a
64.4845	0.09	128969	keystroke_b	b	n/a
64.6045	0.075	129209	keystroke_e	e	n/a
64.7695	0.06	129539	keystroke_e	e	n/a
64.9495	0.0455	129899	keystroke_l	l	n/a
65.039	0.06	130078	keystroke_Key.space	Key.space	n/a
65.4445	0.09	130889	keystroke_Key.backspace	Key.backspace	n/a
65.7295	0.105	131459	keystroke_Key.backspace	Key.backspace	n/a
65.8945	0.06	131789	keystroke_Key.backspace	Key.backspace	n/a
66.764	0.015	133528	keystroke_l	l	n/a
66.839	0.06	133678	keystroke_l	l	n/a
66.929	0.09	133858	keystroke_Key.space	Key.space	n/a
67.274	0.105	134548	keystroke_a	a	n/a
67.394	0.1055	134788	keystroke_n	n	n/a
67.695	0.075	135390	keystroke_t	t	n/a
67.8595	0.075	135719	keystroke_a	a	n/a
68.0395	0.06	136079	keystroke_r	r	n/a
68.3845	0.075	136769	keystroke_t	t	n/a
68.7595	0.0905	137519	keystroke_i	i	n/a
68.94	0.12	137880	keystroke_c	c	n/a
69.045	0.105	138090	keystroke_a	a	n/a
69.585	0.09	139170	keystroke_Key.enter	Key.enter	n/a
69.679	6.582	139358	prompt	n/a	zoning category joel compare\n
71.0395	0.06	142079	keystroke_z	z	n/a
71.0845	0.105	142169	keystroke_o	o	n/a
71.1445	0.09	142289	keystroke_n	n	n/a
71.3095	0.12	142619	keystroke_i	i	n/a
71.3695	0.075	142739	keystroke_n	n	n/a
71.4145	0.075	142829	keystroke_g	g	n/a
71.519	0.105	143038	keystroke_Key.space	Key.space	n/a
72.104	0.09	144208	keystroke_c	c	n/a
72.224	0.09	144448	keystroke_a	a	n/a
72.404	0.12	144808	keystroke_t	t	n/a
72.539	0.06	145078	keystroke_e	e	n/a
72.7945	0.075	145589	keystroke_g	g	n/a
72.8995	0.105	145799	keystroke_o	o	n/a
73.0945	0.09	146189	keystroke_r	r	n/a
73.2595	0.075	146519	keystroke_y	y	n/a
73.4245	0.12	146849	keystroke_Key.space	Key.space	n/a
74.249	0.09	148498	keystroke_j	j	n/a
74.294	0.105	148588	keystroke_o	o	n/a
74.414	0.09	148828	keystroke_e	e	n/a
74.519	0.105	149038	keystroke_l	l	n/a
74.669	0.075	149338	keystroke_Key.space	Key.space	n/a
74.909	0.135	149818	keystroke_o	o	n/a
74.924	0.075	149848	keystroke_c	c	n/a
75	0.089	150000	keystroke_m	m	n/a
75.134	0.105	150268	keystroke_p	p	n/a
75.194	0.09	150388	keystroke_a	a	n/a
75.299	0.135	150598	keystroke_r	r	n/a
75.419	0.06	150838	keystroke_e	e	n/a
76.2	0.059	152400	keystroke_Key.enter	Key.enter	n/a
76.2635	7.3925	152527	prompt	n/a	standard developers acid daisy\n
77.189	0.075	154378	keystroke_s	s	n/a
77.369	0.075	154738	keystroke_t	t	n/a
77.459	0.09	154918	keystroke_a	a	n/a
77.624	0.09	155248	keystroke_n	n	n/a
78.149	0.09	156298	keystroke_d	d	n/a
78.314	0.1205	156628	keystroke_a	a	n/a
78.5545	0.06	157109	keystroke_r	r	n/a
78.735	0.075	157470	keystroke_d	d	n/a
78.9	0.09	157800	keystroke_Key.space	Key.space	n/a
79.245	0.09	158490	keystroke_d	d	n/a
79.5	0.119	159000	keystroke_e	e	n/a
79.62	0.1195	159240	keystroke_v	v	n/a
79.7245	0.12	159449	keystroke_e	e	n/a
79.8295	0.045	159659	keystroke_l	l	n/a
80.1145	0.165	160229	keystroke_o	o	n/a
80.1895	0.105	160379	keystroke_p	p	n/a
80.3395	0.0755	160679	keystroke_e	e	n/a
80.3845	0.1045	160769	keystroke_r	r	n/a
80.519	0.12	161038	keystroke_s	s	n/a
80.655	0.0895	161310	keystroke_Key.space	Key.space	n/a
80.8945	0.135	161789	keystroke_a	a	n/a
81.1495	0.09	162299	keystroke_c	c	n/a
81.2845	0.105	162569	keystroke_i	i	n/a
81.4195	0.09	162839	keystroke_d	d	n/a
81.5245	0.09	163049	keystroke_Key.space	Key.space	n/a
82.034	0.091	164068	keystroke_d	d	n/a
82.094	0.15	164188	keystroke_a	a	n/a
82.274	0.12	164548	keystroke_i	i	n/a
82.38	0.104	164760	keystroke_s	s	n/a
82.829	0.075	165658	keystroke_y	y	n/a
83.534	0.12	167068	keystroke_Key.enter	Key.enter	n/a
83.659	9.732	167318	prompt	n/a	turning pairs boards actors\n
84.57	0.09	169140	keystroke_t	t	n/a
84.69	0.105	169380	keystroke_u	u	n/a
84.78	0.09	169560	keystroke_r	r	n/a
84.915	0.089	169830	keystroke_n	n	n/a
85.095	0.12	170190	keystroke_i	i	n/a
85.155	0.09	170310	keystroke_n	n	n/a
85.26	0.075	170520	keystroke_g	g	n/a
85.35	0.105	170700	keystroke_Key.space	Key.space	n/a
85.86	0.1045	171720	keystroke_b	b	n/a
86.0395	0.105	172079	keystroke_o	o	n/a
86.1295	0.09	172259	keystroke_a	a	n/a
86.2495	0.09	172499	keystroke_r	r	n/a
86.4445	0.135	172889	keystroke_d	d	n/a
86.5345	0.12	173069	keystroke_s	s	n/a
86.6695	0.09	173339	keystroke_Key.space	Key.space	n/a
87.314	0.105	174628	keystroke_a	a	n/a
87.359	0.12	174718	keystroke_c	c	n/a
87.614	0.045	175228	keystroke_t	t	n/a
87.719	0.09	175438	keystroke_o	o	n/a
88.2895	0.105	176579	keystroke_r	r	n/a
88.3495	0.105	176699	keystroke_s	s	n/a
90.7365	0.043	181473	keystroke_Key.space	Key.space	n/a
91.0945	0.045	182189	keystroke_a	a	n/a
91.9345	0.1345	183869	keystroke_Key.backspace	Key.backspace	n/a
92.309	0.075	184618	keystroke_p	p	n/a
92.414	0.12	184828	keystroke_a	a	n/a
92.564	0.075	185128	keystroke_i	i	n/a
92.669	0.1055	185338	keystroke_r	r	n/a
92.8645	0.09	185729	keystroke_s	s	n/a
93.3145	0.0745	186629	keystroke_Key.enter	Key.enter	n/a
93.394	6.012	186788	prompt	n/a	news coat with registry\n
94.154	0.12	188308	keystroke_n	n	n/a
94.304	0.165	188608	keystroke_e	e	n/a
94.38	0.119	188760	keystroke_w	w	n/a
94.919	0.105	189838	keystroke_s	s	n/a
95.099	0.105	190198	keystroke_Key.space	Key.space	n/a
95.489	0.075	190978	keystroke_c	c	n/a
95.984	0.106	191968	keystroke_o	o	n/a
96.135	0.09	192270	keystroke_a	a	n/a
96.315	0.075	192630	keystroke_t	t	n/a
96.435	0.09	192870	keystroke_Key.space	Key.space	n/a
96.6	0.09	193200	keystroke_w	w	n/a
96.72	0.105	193440	keystroke_i	i	n/a
96.87	0.12	193740	keystroke_t	t	n/a
96.93	0.12	193860	keystroke_h	h	n/a
97.125	0.09	194250	keystroke_Key.space	Key.space	n/a
97.649	0.091	195298	keystroke_r	r	n/a
97.695	0.09	195390	keystroke_e	e	n/a
97.874	0.045	195748	keystroke_g	g	n/a
97.949	0.105	195898	keystroke_i	i	n/a
98.249	0.12	196498	keystroke_s	s	n/a
98.489	0.12	196978	keystroke_t	t	n/a
98.8945	0.135	197789	keystroke_r	r	n/a
98.9695	0.12	197939	keystroke_y	y	n/a
99.2845	0.12	198569	keystroke_Key.enter	Key.enter	n/a
99.412	4.194	198824	prompt	n/a	store keen paper bryant\n
100.0495	0.075	200099	keystroke_s	s	n/a
100.2295	0.075	200459	keystroke_t	t	n/a
100.3495	0.09	200699	keystroke_o	o	n/a
100.4245	0.12	200849	keystroke_r	r	n/a
100.4995	0.105	200999	keystroke_e	e	n/a
100.5745	0.075	201149	keystroke_Key.space	Key.space	n/a
100.724	0.075	201448	keystroke_k	k	n/a
100.829	0.075	201658	keystroke_e	e	n/a
100.964	0.105	201928	keystroke_e	e	n/a
101.219	0.075	202438	keystroke_n	n	n/a
101.414	0.106	202828	keystroke_Key.space	Key.space	n/a
101.6545	0.09	203309	keystroke_p	p	n/a
101.7595	0.075	203519	keystroke_a	a	n/a
101.864	0.09	203728	keystroke_p	p	n/a
101.999	0.135	203998	keystroke_e	e	n/a
102.074	0.135	204148	keystroke_r	r	n/a
102.194	0.09	204388	keystroke_Key.space	Key.space	n/a
102.464	0.105	204928	keystroke_b	b	n/a
102.704	0.09	205408	keystroke_r	r	n/a
102.884	0.09	205768	keystroke_y	y	n/a
103.139	0.09	206278	keystroke_a	a	n/a
103.274	0.09	206548	keystroke_n	n	n/a
103.394	0.075	206788	keystroke_t	t	n/a
103.529	0.075	207058	keystroke_Key.enter	Key.enter	n/a
103.609	7.3025	207218	prompt	n/a	inquire webpage exclusively locks\n
104.3995	0.12	208799	keystroke_i	i	n/a
104.4595	0.105	208919	keystroke_n	n	n/a
104.5795	0.12	209159	keystroke_q	q	n/a
104.7595	0.1045	209519	keystroke_u	u	n/a
104.8495	0.0745	209699	keystroke_i	i	n/a
104.939	0.135	209878	keystroke_r	r	n/a
104.999	0.105	209998	keystroke_e	e	n/a
105.149	0.12	210298	keystroke_Key.space	Key.space	n/a
105.359	0.09	210718	keystroke_w	w	n/a
105.464	0.09	210928	keystroke_i	i	n/a
106.049	0.075	212098	keystroke_Key.backspace	Key.backspace	n/a
106.229	0.09	212458	keystroke_e	e	n/a
106.514	0.075	213028	keystroke_b	b	n/a
106.724	0.09	213448	keystroke_p	p	n/a
106.829	0.09	213658	keystroke_a	a	n/a
107.01	0.09	214020	keystroke_g	g	n/a
107.069	0.106	214138	keystroke_e	e	n/a
107.204	0.106	214408	keystroke_Key.space	Key.space	n/a
107.7	0.06	215400	keystroke_e	e	n/a
107.955	0.0895	215910	keystroke_x	x	n/a
108.1795	0.045	216359	keystroke_c	c	n/a
108.2545	0.0895	216509	keystroke_l	l	n/a
108.494	0.03	216988	keystroke_u	u	n/a
108.584	0.075	217168	keystroke_s	s	n/a
108.689	0.09	217378	keystroke_i	i	n/a
108.884	0.09	217768	keystroke_v	v	n/a
109.049	0.09	218098	keystroke_e	e	n/a
109.184	0.105	218368	keystroke_l	l	n/a
109.349	0.075	218698	keystroke_y	y	n/a
109.484	0.105	218968	keystroke_Key.space	Key.space	n/a
109.844	0.075	219688	keystroke_l	l	n/a
110.174	0.075	220348	keystroke_o	o	n/a
110.414	0.105	220828	keystroke_c	c	n/a
110.534	0.09	221068	keystroke_k	k	n/a
110.654	0.105	221308	keystroke_s	s	n/a
110.834	0.075	221668	keystroke_Key.enter	Key.enter	n/a
110.9145	10.4965	221829	prompt	n/a	nutrition fail papua pros\n
111.705	0.135	223410	keystroke_n	n	n/a
111.855	0.09	223710	keystroke_u	u	n/a
112.0495	0.09	224099	keystroke_t	t	n/a
112.4545	0.12	224909	keystroke_r	r	n/a
112.845	0.075	225690	keystroke_t	t	n/a
113.5645	0.075	227129	keystroke_Key.backspace	Key.backspace	n/a
113.7745	0.09	227549	keystroke_i	i	n/a
113.9095	0.09	227819	keystroke_t	t	n/a
114.2845	0.075	228569	keystroke_Key.backspace	Key.backspace	n/a
114.4345	0.045	228869	keystroke_Key.backspace	Key.backspace	n/a
114.7795	0.06	229559	keystroke_Key.backspace	Key.backspace	n/a
114.9145	0.06	229829	keystroke_Key.backspace	Key.backspace	n/a
115.5445	0.09	231089	keystroke_t	t	n/a
115.8445	0.075	231689	keystroke_r	r	n/a
116.0245	0.075	232049	keystroke_i	i	n/a
116.16	0.075	232320	keystroke_t	t	n/a
116.25	0.1045	232500	keystroke_i	i	n/a
116.34	0.1045	232680	keystroke_o	o	n/a
116.4745	0.105	232949	keystroke_n	n	n/a
116.6545	0.0895	233309	keystroke_Key.space	Key.space	n/a
117.344	0.105	234688	keystroke_f	f	n/a
117.419	0.105	234838	keystroke_a	a	n/a
117.494	0.075	234988	keystroke_i	i	n/a
117.704	0.06	235408	keystroke_l	l	n/a
117.794	0.0905	235588	keystroke_Key.space	Key.space	n/a
117.9595	0.105	235919	keystroke_p	p	n/a
118.1095	0.075	236219	keystroke_a	a	n/a
118.6945	0.105	237389	keystroke_p	p	n/a
118.9195	0.09	237839	keystroke_u	u	n/a
119.0695	0.09	238139	keystroke_a	a	n/a
119.1895	0.09	238379	keystroke_Key.space	Key.space	n/a
120.1645	0.09	240329	keystroke_p	p	n/a
120.3295	0.105	240659	keystroke_r	r	n/a
120.4645	0.105	240929	keystroke_o	o	n/a
120.719	0.12	241438	keystroke_s	s	n/a
121.334	0.075	242668	keystroke_Key.enter	Key.enter	n/a
121.4145	8.577	242829	prompt	n/a	intelligent laid consideration powerful\n
122.3695	0.075	244739	keystroke_i	i	n/a
122.3995	0.09	244799	keystroke_n	n	n/a
123.1195	0.1045	246239	keystroke_t	t	n/a
123.194	0.105	246388	keystroke_e	e	n/a
123.315	0.075	246630	keystroke_l	l	n/a
123.45	0.09	246900	keystroke_l	l	n/a
123.675	0.09	247350	keystroke_i	i	n/a
124.47	0.09	248940	keystroke_g	g	n/a
124.545	0.12	249090	keystroke_e	e	n/a
124.6945	0.105	249389	keystroke_n	n	n/a
124.8145	0.075	249629	keystroke_t	t	n/a
124.9045	0.105	249809	keystroke_Key.space	Key.space	n/a
125.2345	0.105	250469	keystroke_l	l	n/a
125.3405	0.119	250681	keystroke_a	a	n/a
125.5045	0.105	251009	keystroke_i	i	n/a
125.6245	0.09	251249	keystroke_d	d	n/a
125.7445	0.075	251489	keystroke_Key.space	Key.space	n/a
126.2695	0.105	252539	keystroke_c	c	n/a
126.3595	0.09	252719	keystroke_o	o	n/a
126.3895	0.12	252779	keystroke_n	n	n/a
126.5395	0.09	253079	keystroke_s	s	n/a
126.6145	0.09	253229	keystroke_i	i	n/a
126.7345	0.0905	253469	keystroke_d	d	n/a
126.975	0.09	253950	keystroke_e	e	n/a
127.005	0.09	254010	keystroke_r	r	n/a
127.155	0.105	254310	keystroke_a	a	n/a
127.29	0.105	254580	keystroke_t	t	n/a
127.4545	0.135	254909	keystroke_i	i	n/a
127.4995	0.15	254999	keystroke_o	o	n/a
127.6795	0.12	255359	keystroke_n	n	n/a
127.8895	0.09	255779	keystroke_Key.space	Key.space	n/a
128.1595	0.135	256319	keystroke_p	p	n/a
128.2195	0.12	256439	keystroke_o	o	n/a
128.4595	0.15	256919	keystroke_w	w	n/a
128.5045	0.135	257009	keystroke_e	e	n/a
129.1195	0.1045	258239	keystroke_r	r	n/a
129.3445	0.0895	258689	keystroke_f	f	n/a
129.449	0.12	258898	keystroke_u	u	n/a
129.599	0.105	259198	keystroke_l	l	n/a
129.854	0.135	259708	keystroke_Key.enter	Key.enter	n/a
129.994	15.087	259988	prompt	n/a	extraordinary station subsection erotica\n
130.679	0.075	261358	keystroke_e	e	n/a
131.0845	0.1345	262169	keystroke_x	x	n/a
131.414	0.1355	262828	keystroke_t	t	n/a
131.489	0.105	262978	keystroke_r	r	n/a
131.729	0.1055	263458	keystroke_a	a	n/a
131.9695	0.15	263939	keystroke_o	o	n/a
132.2095	0.0895	264419	keystroke_r	r	n/a
132.855	0.09	265710	keystroke_d	d	n/a
132.975	0.15	265950	keystroke_i	i	n/a
133.05	0.105	266100	keystroke_n	n	n/a
133.32	0.135	266640	keystroke_a	a	n/a
133.425	0.105	266850	keystroke_r	r	n/a
133.71	0.075	267420	keystroke_y	y	n/a
133.86	0.12	267720	keystroke_Key.space	Key.space	n/a
134.07	0.12	268140	keystroke_s	s	n/a
134.3845	0.12	268769	keystroke_t	t	n/a
134.5495	0.105	269099	keystroke_a	a	n/a
134.6095	0.105	269219	keystroke_t	t	n/a
134.7895	0.075	269579	keystroke_i	i	n/a
134.8345	0.135	269669	keystroke_o	o	n/a
135.0445	0.09	270089	keystroke_n	n	n/a
135.1045	0.09	270209	keystroke_Key.space	Key.space	n/a
135.45	0.075	270900	keystroke_s	s	n/a
135.6	0.15	271200	keystroke_u	u	n/a
135.675	0.105	271350	keystroke_b	b	n/a
135.99	0.09	271980	keystroke_s	s	n/a
136.035	0.135	272070	keystroke_c	c	n/a
136.29	0.09	272580	keystroke_e	e	n/a
136.5	0.06	273000	keystroke_t	t	n/a
137.25	0.09	274500	keystroke_Key.backspace	Key.backspace	n/a
137.4	0.075	274800	keystroke_Key.backspace	Key.backspace	n/a
137.565	0.12	275130	keystroke_Key.backspace	Key.backspace	n/a
137.9395	0.09	275879	keystroke_e	e	n/a
138.0595	0.1205	276119	keystroke_c	c	n/a
138.5545	0.075	277109	keystroke_t	t	n/a
138.6895	0.12	277379	keystroke_i	i	n/a
138.7345	0.12	277469	keystroke_o	o	n/a
138.9295	0.105	277859	keystroke_n	n	n/a
139.1695	0.09	278339	keystroke_e	e	n/a
139.4245	0.09	278849	keystroke_r	r	n/a
139.5595	0.105	279119	keystroke_o	o	n/a
139.6495	0.09	279299	keystroke_t	t	n/a
139.8295	0.075	279659	keystroke_i	i	n/a
139.9345	0.12	279869	keystroke_c	c	n/a
140.3095	0.06	280619	keystroke_a	a	n/a
142.125	0.06	284250	keystroke_Key.left	Key.left	n/a
142.44	0.074	284880	keystroke_Key.left	Key.left	n/a
142.7695	0.075	285539	keystroke_Key.left	Key.left	n/a
143.1145	0.06	286229	keystroke_Key.left	Key.left	n/a
143.3695	0.075	286739	keystroke_Key.left	Key.left	n/a
143.6845	0.09	287369	keystroke_Key.left	Key.left	n/a
144.0295	0.06	288059	keystroke_Key.left	Key.left	n/a
144.3145	0.075	288629	keystroke_Key.space	Key.space	n/a
145.0195	0.06	290039	keystroke_Key.enter	Key.enter	n/a
145.0835	6.7775	290167	prompt	n/a	stock mapping amendments were\n
146.0995	0.075	292199	keystroke_s	s	n/a
146.265	0.075	292530	keystroke_t	t	n/a
146.355	0.105	292710	keystroke_o	o	n/a
146.49	0.075	292980	keystroke_c	c	n/a
146.595	0.09	293190	keystroke_k	k	n/a
146.685	0.074	293370	keystroke_Key.space	Key.space	n/a
146.834	0.091	293668	keystroke_m	m	n/a
146.954	0.106	293908	keystroke_a	a	n/a
147.12	0.075	294240	keystroke_p	p	n/a
147.27	0.074	294540	keystroke_p	p	n/a
147.524	0.09	295048	keystroke_i	i	n/a
147.57	0.089	295140	keystroke_n	n	n/a
147.675	0.074	295350	keystroke_g	g	n/a
147.779	0.105	295558	keystroke_Key.space	Key.space	n/a
148.1395	0.105	296279	keystroke_a	a	n/a
148.4095	0.09	296819	keystroke_m	m	n/a
148.814	0.075	297628	keystroke_e	e	n/a
148.964	0.09	297928	keystroke_n	n	n/a
149.099	0.105	298198	keystroke_d	d	n/a
149.4445	0.075	298889	keystroke_m	m	n/a
149.5345	0.09	299069	keystroke_e	e	n/a
149.6845	0.015	299369	keystroke_n	n	n/a
149.7295	0.03	299459	keystroke_t	t	n/a
150.7045	0.0895	301409	keystroke_s	s	n/a
150.809	0.075	301618	keystroke_Key.space	Key.space	n/a
151.019	0.09	302038	keystroke_w	w	n/a
151.364	0.12	302728	keystroke_e	e	n/a
151.424	0.15	302848	keystroke_r	r	n/a
151.544	0.12	303088	keystroke_e	e	n/a
151.769	0.09	303538	keystroke_Key.enter	Key.enter	n/a
151.865	5.246	303730	prompt	n/a	gray told october socket\n
152.759	0.135	305518	keystroke_g	g	n/a
152.819	0.12	305638	keystroke_r	r	n/a
153.029	0.09	306058	keystroke_a	a	n/a
153.33	0.0745	306660	keystroke_y	y	n/a
153.4195	0.1055	306839	keystroke_Key.space	Key.space	n/a
153.5395	0.06	307079	keystroke_t	t	n/a
153.6295	0.09	307259	keystroke_o	o	n/a
153.825	0.1045	307650	keystroke_l	l	n/a
154.0195	0.105	308039	keystroke_d	d	n/a
154.1845	0.105	308369	keystroke_Key.space	Key.space	n/a
154.5745	0.09	309149	keystroke_o	o	n/a
154.6795	0.0895	309359	keystroke_c	c	n/a
154.904	0.03	309808	keystroke_t	t	n/a
154.949	0.12	309898	keystroke_o	o	n/a
155.0995	0.0745	310199	keystroke_b	b	n/a
155.744	0.12	311488	keystroke_e	e	n/a
155.789	0.12	311578	keystroke_r	r	n/a
155.924	0.0905	311848	keystroke_Key.space	Key.space	n/a
156.2545	0.09	312509	keystroke_s	s	n/a
156.3295	0.09	312659	keystroke_o	o	n/a
156.4795	0.12	312959	keystroke_c	c	n/a
156.5845	0.09	313169	keystroke_k	k	n/a
156.7195	0.105	313439	keystroke_e	e	n/a
156.7795	0.09	313559	keystroke_t	t	n/a
157.0195	0.09	314039	keystroke_Key.enter	Key.enter	n/a
157.1135	6.7325	314227	prompt	n/a	shade canon casting quarterly\n
158.0545	0.12	316109	keystroke_s	s	n/a
158.1895	0.075	316379	keystroke_h	h	n/a
158.2655	0.104	316531	keystroke_a	a	n/a
158.4895	0.09	316979	keystroke_d	d	n/a
158.6695	0.0895	317339	keystroke_e	e	n/a
158.774	0.09	317548	keystroke_Key.space	Key.space	n/a
158.939	0.105	317878	keystroke_c	c	n/a
159.059	0.06	318118	keystroke_a	a	n/a
159.074	0.09	318148	keystroke_n	n	n/a
159.254	0.091	318508	keystroke_n	n	n/a
159.389	0.151	318778	keystroke_o	o	n/a
159.479	0.09	318958	keystroke_n	n	n/a
159.554	0.075	319108	keystroke_Key.space	Key.space	n/a
159.809	0.12	319618	keystroke_c	c	n/a
159.959	0.121	319918	keystroke_a	a	n/a
160.034	0.12	320068	keystroke_s	s	n/a
160.259	0.06	320518	keystroke_t	t	n/a
160.334	0.105	320668	keystroke_i	i	n/a
160.394	0.076	320788	keystroke_n	n	n/a
160.454	0.075	320908	keystroke_g	g	n/a
160.544	0.12	321088	keystroke_Key.space	Key.space	n/a
161.489	0.09	322978	keystroke_q	q	n/a
161.6995	0.075	323399	keystroke_u	u	n/a
161.8045	0.12	323609	keystroke_a	a	n/a
162.0445	0.09	324089	keystroke_r	r	n/a
162.2845	0.09	324569	keystroke_t	t	n/a
162.3595	0.135	324719	keystroke_e	e	n/a
162.6145	0.12	325229	keystroke_r	r	n/a
163.049	0.105	326098	keystroke_l	l	n/a
163.589	0.09	327178	keystroke_y	y	n/a
163.739	0.105	327478	keystroke_Key.enter	Key.enter	n/a
163.8495	6.2065	327699	prompt	n/a	hormone website michelle warren\n
164.909	0.075	329818	keystroke_h	h	n/a
165.029	0.105	330058	keystroke_o	o	n/a
165.194	0.09	330388	keystroke_r	r	n/a
165.299	0.09	330598	keystroke_m	m	n/a
165.494	0.12	330988	keystroke_o	o	n/a
165.554	0.09	331108	keystroke_n	n	n/a
165.659	0.105	331318	keystroke_e	e	n/a
165.749	0.09	331498	keystroke_Key.space	Key.space	n/a
166.019	0.12	332038	keystroke_w	w	n/a
166.094	0.12	332188	keystroke_e	e	n/a
166.3195	0.105	332639	keystroke_b	b	n/a
166.4695	0.105	332939	keystroke_s	s	n/a
166.5895	0.105	333179	keystroke_i	i	n/a
166.709	0.105	333418	keystroke_t	t	n/a
166.769	0.105	333538	keystroke_e	e	n/a
166.859	0.1205	333718	keystroke_Key.space	Key.space	n/a
167.5795	0.09	335159	keystroke_m	m	n/a
167.7295	0.09	335459	keystroke_i	i	n/a
167.8345	0.09	335669	keystroke_c	c	n/a
167.8945	0.09	335789	keystroke_h	h	n/a
168.0295	0.09	336059	keystroke_e	e	n/a
168.1645	0.045	336329	keystroke_l	l	n/a
168.2695	0.075	336539	keystroke_l	l	n/a
168.3745	0.105	336749	keystroke_e	e	n/a
168.4795	0.075	336959	keystroke_Key.space	Key.space	n/a
168.6295	0.12	337259	keystroke_w	w	n/a
168.8245	0.075	337649	keystroke_a	a	n/a
169.0195	0.105	338039	keystroke_r	r	n/a
169.2145	0.12	338429	keystroke_r	r	n/a
169.3495	0.12	338699	keystroke_e	e	n/a
169.4845	0.105	338969	keystroke_n	n	n/a
169.6495	0.09	339299	keystroke_Key.space	Key.space	n/a
169.9645	0.09	339929	keystroke_Key.enter	Key.enter	n/a
170.063	6.923	340126	prompt	n/a	usda carpet story don't\n
170.969	0.09	341938	keystroke_u	u	n/a
171.044	0.09	342088	keystroke_s	s	n/a
171.329	0.12	342658	keystroke_d	d	n/a
171.419	0.105	342838	keystroke_a	a	n/a
171.569	0.105	343138	keystroke_Key.space	Key.space	n/a
171.854	0.135	343708	keystroke_c	c	n/a
171.944	0.105	343888	keystroke_a	a	n/a
172.064	0.1055	344128	keystroke_p	p	n/a
172.1995	0.12	344399	keystroke_r	r	n/a
172.5745	0.135	345149	keystroke_e	e	n/a
172.6645	0.105	345329	keystroke_t	t	n/a
172.7995	0.12	345599	keystroke_Key.space	Key.space	n/a
173.0095	0.09	346019	keystroke_s	s	n/a
173.2045	0.09	346409	keystroke_t	t	n/a
173.3395	0.105	346679	keystroke_o	o	n/a
173.4895	0.105	346979	keystroke_r	r	n/a
173.6695	0.075	347339	keystroke_y	y	n/a
173.7895	0.09	347579	keystroke_Key.space	Key.space	n/a
174.0445	0.09	348089	keystroke_d	d	n/a
174.2245	0.15	348449	keystroke_o	o	n/a
174.2995	0.105	348599	keystroke_n	n	n/a
174.4195	0.09	348839	keystroke_t	t	n/a
175.3195	0.075	350639	keystroke_Key.backspace	Key.backspace	n/a
175.8295	0.06	351659	keystroke_'	'	n/a
175.9045	0.06	351809	keystroke_t	t	n/a
176.894	0.09	353788	keystroke_Key.enter	Key.enter	n/a
176.9915	12.3095	353983	prompt	n/a	domestic discovered cambridge hamburg\n
178.9945	0.09	357989	keystroke_d	d	n/a
179.1145	0.105	358229	keystroke_m	m	n/a
179.1895	0.15	358379	keystroke_o	o	n/a
179.6095	0.12	359219	keystroke_e	e	n/a
179.8795	0.06	359759	keystroke_Key.backspace	Key.backspace	n/a
180.0295	0.06	360059	keystroke_Key.backspace	Key.backspace	n/a
180.1495	0.09	360299	keystroke_Key.backspace	Key.backspace	n/a
180.794	0.12	361588	keystroke_o	o	n/a
180.839	0.105	361678	keystroke_m	m	n/a
180.989	0.135	361978	keystroke_e	e	n/a
181.139	0.105	362278	keystroke_s	s	n/a
181.3795	0.075	362759	keystroke_t	t	n/a
181.4695	0.105	362939	keystroke_i	i	n/a
181.6345	0.105	363269	keystroke_c	c	n/a
181.7695	0.105	363539	keystroke_Key.space	Key.space	n/a
182.174	0.09	364348	keystroke_d	d	n/a
182.279	0.105	364558	keystroke_i	i	n/a
182.399	0.09	364798	keystroke_s	s	n/a
182.609	0.075	365218	keystroke_c	c	n/a
182.6995	0.075	365399	keystroke_o	o	n/a
182.8495	0.075	365699	keystroke_v	v	n/a
183.0295	0.075	366059	keystroke_e	e	n/a
183.0895	0.15	366179	keystroke_r	r	n/a
183.1945	0.105	366389	keystroke_e	e	n/a
183.3145	0.105	366629	keystroke_d	d	n/a
183.4795	0.09	366959	keystroke_Key.space	Key.space	n/a
183.7645	0.105	367529	keystroke_c	c	n/a
183.8845	0.09	367769	keystroke_a	a	n/a
183.9895	0.075	367979	keystroke_m	m	n/a
184.1845	0.075	368369	keystroke_b	b	n/a
184.3345	0.09	368669	keystroke_r	r	n/a
184.4545	0.12	368909	keystroke_i	i	n/a
184.8885	0.12	369777	keystroke_s	s	n/a
185.5935	0.105	371187	keystroke_Key.backspace	Key.backspace	n/a
185.8945	0.0895	371789	keystroke_d	d	n/a
186.164	0.105	372328	keystroke_g	g	n/a
186.254	0.09	372508	keystroke_e	e	n/a
186.389	0.12	372778	keystroke_Key.space	Key.space	n/a
188.204	0.075	376408	keystroke_h	h	n/a
188.324	0.09	376648	keystroke_a	a	n/a
188.429	0.06	376858	keystroke_m	m	n/a
188.564	0.075	377128	keystroke_b	b	n/a
188.714	0.0905	377428	keystroke_u	u	n/a
188.8495	0.09	377699	keystroke_r	r	n/a
189.0745	0.075	378149	keystroke_g	g	n/a
189.2095	0.09	378419	keystroke_Key.enter	Key.enter	n/a
189.3045	4.481	378609	prompt	n/a	comic punch year salem\n
190.1395	0.075	380279	keystroke_c	c	n/a
190.2295	0.12	380459	keystroke_o	o	n/a
190.3195	0.075	380639	keystroke_m	m	n/a
190.4845	0.075	380969	keystroke_i	i	n/a
190.5745	0.09	381149	keystroke_c	c	n/a
190.6795	0.0745	381359	keystroke_Key.space	Key.space	n/a
190.874	0.075	381748	keystroke_p	p	n/a
191.024	0.075	382048	keystroke_u	u	n/a
191.219	0.075	382438	keystroke_n	n	n/a
191.324	0.09	382648	keystroke_c	c	n/a
191.429	0.0905	382858	keystroke_h	h	n/a
191.5345	0.09	383069	keystroke_Key.space	Key.space	n/a
192.2545	0.06	384509	keystroke_y	y	n/a
192.4345	0.12	384869	keystroke_e	e	n/a
192.4795	0.135	384959	keystroke_a	a	n/a
192.6595	0.0905	385319	keystroke_r	r	n/a
192.779	0.12	385558	keystroke_Key.space	Key.space	n/a
193.02	0.1345	386040	keystroke_s	s	n/a
193.1545	0.135	386309	keystroke_a	a	n/a
193.2745	0.105	386549	keystroke_l	l	n/a
193.4095	0.12	386819	keystroke_e	e	n/a
193.4995	0.09	386999	keystroke_m	m	n/a
193.7395	0.045	387479	keystroke_Key.enter	Key.enter	n/a
193.7945	10.1615	387589	prompt	n/a	furniture chris voip sydney\n
194.6545	0.075	389309	keystroke_f	f	n/a
194.7145	0.09	389429	keystroke_u	u	n/a
194.8495	0.075	389699	keystroke_r	r	n/a
194.9845	0.09	389969	keystroke_n	n	n/a
195.1795	0.06	390359	keystroke_i	i	n/a
196.2295	0.075	392459	keystroke_t	t	n/a
196.3495	0.09	392699	keystroke_u	u	n/a
196.4695	0.165	392939	keystroke_r	r	n/a
196.5745	0.135	393149	keystroke_e	e	n/a
196.7695	0.12	393539	keystroke_Key.space	Key.space	n/a
196.9495	0.12	393899	keystroke_c	c	n/a
197.0845	0.09	394169	keystroke_h	h	n/a
197.2195	0.105	394439	keystroke_r	r	n/a
197.3395	0.09	394679	keystroke_i	i	n/a
197.4745	0.09	394949	keystroke_s	s	n/a
197.5645	0.09	395129	keystroke_Key.space	Key.space	n/a
198.1945	0.09	396389	keystroke_v	v	n/a
198.2695	0.135	396539	keystroke_o	o	n/a
198.3445	0.105	396689	keystroke_i	i	n/a
198.5245	0.105	397049	keystroke_p	p	n/a
198.6595	0.09	397319	keystroke_Key.space	Key.space	n/a
199.439	0.09	398878	keystroke_Key.backspace	Key.backspace	n/a
199.619	0.09	399238	keystroke_Key.backspace	Key.backspace	n/a
202.067	0.042	404134	keystroke_p	p	n/a
202.139	0.105	404278	keystroke_Key.space	Key.space	n/a
202.8295	0.0895	405659	keystroke_s	s	n/a
202.934	0.06	405868	keystroke_y	y	n/a
203.024	0.09	406048	keystroke_d	d	n/a
203.189	0.09	406378	keystroke_n	n	n/a
203.264	0.105	406528	keystroke_e	e	n/a
203.549	0.075	407098	keystroke_y	y	n/a
203.879	0.075	407758	keystroke_Key.enter	Key.enter	n/a
203.9615	11.169	407923	prompt	n/a	on correspondence organized trademark\n
204.779	0.135	409558	keystroke_o	o	n/a
204.884	0.06	409768	keystroke_n	n	n/a
205.034	0.015	410068	keystroke_n	n	n/a
205.7845	0.075	411569	keystroke_Key.backspace	Key.backspace	n/a
205.9645	0.075	411929	keystroke_Key.space	Key.space	n/a
206.2495	0.09	412499	keystroke_c	c	n/a
206.3545	0.075	412709	keystroke_o	o	n/a
206.519	0.06	413038	keystroke_r	r	n/a
207.1795	0.135	414359	keystroke_r	r	n/a
207.2995	0.09	414599	keystroke_e	e	n/a
207.4945	0.09	414989	keystroke_s	s	n/a
208.694	0.06	417388	keystroke_p	p	n/a
209.099	0.12	418198	keystroke_o	o	n/a
209.159	0.135	418318	keystroke_n	n	n/a
209.594	0.09	419188	keystroke_d	d	n/a
209.849	0.105	419698	keystroke_e	e	n/a
210.089	0.09	420178	keystroke_n	n	n/a
210.224	0.15	420448	keystroke_c	c	n/a
210.344	0.105	420688	keystroke_e	e	n/a
210.464	0.105	420928	keystroke_Key.space	Key.space	n/a
210.8545	0.105	421709	keystroke_o	o	n/a
210.9895	0.09	421979	keystroke_r	r	n/a
211.2295	0.075	422459	keystroke_g	g	n/a
211.409	0.09	422818	keystroke_a	a	n/a
211.5435	0.135	423087	keystroke_n	n	n/a
211.6935	0.06	423387	keystroke_i	i	n/a
211.8735	0.106	423747	keystroke_z	z	n/a
212.1745	0.045	424349	keystroke_e	e	n/a
212.3095	0.09	424619	keystroke_d	d	n/a
212.4145	0.09	424829	keystroke_Key.space	Key.space	n/a
212.7895	0.105	425579	keystroke_t	t	n/a
212.8045	0.135	425609	keystroke_r	r	n/a
213.0445	0.165	426089	keystroke_a	a	n/a
213.329	0.105	426658	keystroke_d	d	n/a
213.554	0.105	427108	keystroke_e	e	n/a
214.424	0.09	428848	keystroke_m	m	n/a
214.574	0.09	429148	keystroke_a	a	n/a
214.739	0.09	429478	keystroke_r	r	n/a
214.844	0.105	429688	keystroke_k	k	n/a
215.009	0.12	430018	keystroke_Key.enter	Key.enter	n/a
215.1415	14.449	430283	prompt	n/a	terrain assault maker neutral\n
215.999	0.075	431998	keystroke_t	t	n/a
216.179	0.12	432358	keystroke_e	e	n/a
216.269	0.06	432538	keystroke_r	r	n/a
216.389	0.105	432778	keystroke_r	r	n/a
216.554	0.075	433108	keystroke_i	i	n/a
216.9895	0.06	433979	keystroke_Key.backspace	Key.backspace	n/a
217.0945	0.105	434189	keystroke_a	a	n/a
217.2895	0.105	434579	keystroke_i	i	n/a
217.3495	0.09	434699	keystroke_n	n	n/a
217.4545	0.105	434909	keystroke_Key.space	Key.space	n/a
217.6645	0.06	435329	keystroke_m	m	n/a
217.7695	0.135	435539	keystroke_a	a	n/a
218.0545	0.06	436109	keystroke_Key.backspace	Key.backspace	n/a
218.1895	0.074	436379	keystroke_Key.backspace	Key.backspace	n/a
218.3095	0.15	436619	keystroke_a	a	n/a
218.4145	0.105	436829	keystroke_s	s	n/a
218.6085	0.121	437217	keystroke_s	s	n/a
219.0745	0.03	438149	keystroke_u	u	n/a
219.1645	0.089	438329	keystroke_a	a	n/a
219.2685	0.076	438537	keystroke_l	l	n/a
219.4045	0.089	438809	keystroke_t	t	n/a
219.5235	0.135	439047	keystroke_Key.space	Key.space	n/a
220.019	0.075	440038	keystroke_m	m	n/a
220.154	0.105	440308	keystroke_a	a	n/a
220.274	0.09	440548	keystroke_k	k	n/a
220.409	0.105	440818	keystroke_e	e	n/a
220.454	0.105	440908	keystroke_r	r	n/a
220.559	0.12	441118	keystroke_Key.space	Key.space	n/a
221.864	0.075	443728	keystroke_Key.backspace	Key.backspace	n/a
222.209	0.075	444418	keystroke_Key.backspace	Key.backspace	n/a
222.389	0.06	444778	keystroke_Key.backspace	Key.backspace	n/a
222.584	0.06	445168	keystroke_Key.backspace	Key.backspace	n/a
222.794	0.0605	445588	keystroke_Key.backspace	Key.backspace	n/a
222.9735	0.046	445947	keystroke_Key.backspace	Key.backspace	n/a
223.1395	0.06	446279	keystroke_Key.backspace	Key.backspace	n/a
223.3045	0.044	446609	keystroke_Key.backspace	Key.backspace	n/a
223.4085	0.076	446817	keystroke_Key.backspace	Key.backspace	n/a
223.5295	0.074	447059	keystroke_Key.backspace	Key.backspace	n/a
223.6635	0.061	447327	keystroke_Key.backspace	Key.backspace	n/a
224.294	0.09	448588	keystroke_a	a	n/a
224.474	0.06	448948	keystroke_u	u	n/a
224.684	0.06	449368	keystroke_l	l	n/a
224.774	0.09	449548	keystroke_t	t	n/a
224.879	0.06	449758	keystroke_Key.space	Key.space	n/a
225.074	0.045	450148	keystroke_m	m	n/a
225.149	0.075	450298	keystroke_a	a	n/a
225.254	0.06	450508	keystroke_k	k	n/a
225.374	0.09	450748	keystroke_e	e	n/a
225.419	0.075	450838	keystroke_r	r	n/a
225.479	0.075	450958	keystroke_Key.space	Key.space	n/a
225.689	0.045	451378	keystroke_n	n	n/a
225.869	0.075	451738	keystroke_e	e	n/a
226.019	0.105	452038	keystroke_a	a	n/a
226.259	0.09	452518	keystroke_t	t	n/a
227.2035	0.09	454407	keystroke_Key.backspace	Key.backspace	n/a
227.3385	0.09	454677	keystroke_Key.backspace	Key.backspace	n/a
227.9385	0.061	455877	keystroke_u	u	n/a
228.6135	0.1505	457227	keystroke_t	t	n/a
228.6885	0.1355	457377	keystroke_r	r	n/a
229.124	0.105	458248	keystroke_a	a	n/a
229.289	0.105	458578	keystroke_l	l	n/a
229.514	0.075	459028	keystroke_Key.enter	Key.enter	n/a
229.6015	6.2445	459203	prompt	n/a	connect gathering advertise mardi\n
230.3695	0.09	460739	keystroke_c	c	n/a
230.4745	0.105	460949	keystroke_o	o	n/a
230.5495	0.06	461099	keystroke_n	n	n/a
230.6695	0.1045	461339	keystroke_n	n	n/a
230.759	0.12	461518	keystroke_e	e	n/a
230.819	0.09	461638	keystroke_c	c	n/a
231.0595	0.059	462119	keystroke_t	t	n/a
231.1485	0.09	462297	keystroke_Key.space	Key.space	n/a
231.284	0.0895	462568	keystroke_a	a	n/a
231.5995	0.075	463199	keystroke_Key.backspace	Key.backspace	n/a
231.6895	0.105	463379	keystroke_g	g	n/a
231.8095	0.0745	463619	keystroke_a	a	n/a
232.064	0.09	464128	keystroke_h	h	n/a
232.079	0.09	464158	keystroke_t	t	n/a
232.349	0.105	464698	keystroke_e	e	n/a
232.394	0.105	464788	keystroke_r	r	n/a
232.514	0.1195	465028	keystroke_i	i	n/a
232.559	0.0905	465118	keystroke_n	n	n/a
232.6345	0.074	465269	keystroke_g	g	n/a
232.7245	0.105	465449	keystroke_Key.space	Key.space	n/a
233.264	0.09	466528	keystroke_a	a	n/a
233.309	0.105	466618	keystroke_d	d	n/a
233.564	0.0755	467128	keystroke_v	v	n/a
233.7285	0.1055	467457	keystroke_e	e	n/a
233.789	0.09	467578	keystroke_r	r	n/a
233.9395	0.1045	467879	keystroke_t	t	n/a
234.089	0.09	468178	keystroke_i	i	n/a
234.209	0.135	468418	keystroke_s	s	n/a
234.329	0.12	468658	keystroke_e	e	n/a
234.524	0.09	469048	keystroke_Key.space	Key.space	n/a
234.839	0.09	469678	keystroke_m	m	n/a
234.974	0.1355	469948	keystroke_a	a	n/a
235.2745	0.075	470549	keystroke_r	r	n/a
235.4695	0.09	470939	keystroke_d	d	n/a
235.5445	0.09	471089	keystroke_i	i	n/a
235.7545	0.09	471509	keystroke_Key.enter	Key.enter	n/a
235.8495	8.726	471699	prompt	n/a	filed study conferencing journals\n
236.804	0.06	473608	keystroke_f	f	n/a
236.864	0.09	473728	keystroke_i	i	n/a
237.074	0.06	474148	keystroke_l	l	n/a
237.149	0.075	474298	keystroke_e	e	n/a
237.299	0.09	474598	keystroke_d	d	n/a
237.374	0.09	474748	keystroke_Key.space	Key.space	n/a
237.509	0.075	475018	keystroke_s	s	n/a
237.704	0.075	475408	keystroke_t	t	n/a
237.794	0.1195	475588	keystroke_u	u	n/a
237.9285	0.075	475857	keystroke_f	f	n/a
238.3485	0.075	476697	keystroke_Key.backspace	Key.backspace	n/a
238.4835	0.105	476967	keystroke_d	d	n/a
238.6045	0.104	477209	keystroke_y	y	n/a
238.7385	0.105	477477	keystroke_Key.space	Key.space	n/a
239.3385	0.091	478677	keystroke_c	c	n/a
239.4735	0.15	478947	keystroke_o	o	n/a
239.5635	0.105	479127	keystroke_n	n	n/a
239.7895	0.09	479579	keystroke_f	f	n/a
240.0295	0.06	480059	keystroke_e	e	n/a
240.0445	0.0745	480089	keystroke_r	r	n/a
241.5295	0.1045	483059	keystroke_e	e	n/a
241.694	0.09	483388	keystroke_n	n	n/a
241.829	0.1205	483658	keystroke_c	c	n/a
242.0095	0.135	484019	keystroke_i	i	n/a
242.0695	0.09	484139	keystroke_n	n	n/a
242.1295	0.09	484259	keystroke_g	g	n/a
242.2495	0.105	484499	keystroke_Key.space	Key.space	n/a
242.6395	0.105	485279	keystroke_h	h	n/a
243.059	0.105	486118	keystroke_Key.backspace	Key.backspace	n/a
243.2995	0.075	486599	keystroke_j	j	n/a
243.4495	0.12	486899	keystroke_o	o	n/a
243.5095	0.09	487019	keystroke_u	u	n/a
243.6295	0.075	487259	keystroke_r	r	n/a
243.7495	0.09	487499	keystroke_n	n	n/a
243.8695	0.105	487739	keystroke_a	a	n/a
243.9895	0.075	487979	keystroke_l	l	n/a
244.0945	0.09	488189	keystroke_s	s	n/a
244.1985	0.076	488397	keystroke_Key.space	Key.space	n/a
244.499	0.075	488998	keystroke_Key.enter	Key.enter	n/a
244.58	9.8505	489160	prompt	n/a	jobs phones facilities examples\n
245.6695	0.105	491339	keystroke_j	j	n/a
245.7595	0.09	491519	keystroke_o	o	n/a
245.8945	0.075	491789	keystroke_n	n	n/a
246.0595	0.0595	492119	keystroke_s	s	n/a
246.299	0.09	492598	keystroke_Key.backspace	Key.backspace	n/a
246.4645	0.045	492929	keystroke_Key.backspace	Key.backspace	n/a
246.5395	0.105	493079	keystroke_b	b	n/a
246.8845	0.12	493769	keystroke_s	s	n/a
247.0495	0.1045	494099	keystroke_Key.space	Key.space	n/a
247.559	0.09	495118	keystroke_p	p	n/a
247.754	0.09	495508	keystroke_h	h	n/a
247.859	0.135	495718	keystroke_o	o	n/a
247.934	0.105	495868	keystroke_n	n	n/a
248.009	0.09	496018	keystroke_e	e	n/a
248.174	0.165	496348	keystroke_s	s	n/a
248.294	0.105	496588	keystroke_Key.space	Key.space	n/a
248.684	0.105	497368	keystroke_f	f	n/a
248.804	0.12	497608	keystroke_a	a	n/a
248.939	0.12	497878	keystroke_c	c	n/a
249.044	0.105	498088	keystroke_i	i	n/a
249.3295	0.075	498659	keystroke_l	l	n/a
249.5245	0.075	499049	keystroke_i	i	n/a
249.6445	0.09	499289	keystroke_t	t	n/a
249.9445	0.12	499889	keystroke_i	i	n/a
250.139	0.075	500278	keystroke_e	e	n/a
250.304	0.105	500608	keystroke_s	s	n/a
250.424	0.105	500848	keystroke_Key.space	Key.space	n/a
250.664	0.075	501328	keystroke_e	e	n/a
250.859	0.09	501718	keystroke_x	x	n/a
251.009	0.12	502018	keystroke_m	m	n/a
251.144	0.09	502288	keystroke_a	a	n/a
251.264	0.165	502528	keystroke_p	p	n/a
251.324	0.135	502648	keystroke_l	l	n/a
251.444	0.075	502888	keystroke_e	e	n/a
251.624	0.0755	503248	keystroke_s	s	n/a
251.9395	0.075	503879	keystroke_Key.backspace	Key.backspace	n/a
252.0895	0.06	504179	keystroke_Key.backspace	Key.backspace	n/a
252.2245	0.089	504449	keystroke_Key.backspace	Key.backspace	n/a
252.3735	0.12	504747	keystroke_Key.backspace	Key.backspace	n/a
252.5535	0.0905	505107	keystroke_Key.backspace	Key.backspace	n/a
252.734	0.075	505468	keystroke_Key.backspace	Key.backspace	n/a
253.184	0.075	506368	keystroke_a	a	n/a
253.304	0.09	506608	keystroke_m	m	n/a
253.679	0.165	507358	keystroke_p	p	n/a
253.754	0.12	507508	keystroke_l	l	n/a
253.829	0.15	507658	keystroke_e	e	n/a
253.949	0.105	507898	keystroke_s	s	n/a
254.3685	0.0605	508737	keystroke_Key.enter	Key.enter	n/a
254.4335	6.957	508867	prompt	n/a	suddenly science proved headline\n
255.2845	0.104	510569	keystroke_s	s	n/a
255.449	0.09	510898	keystroke_u	u	n/a
255.599	0.1045	511198	keystroke_d	d	n/a
255.749	0.12	511498	keystroke_d	d	n/a
255.974	0.105	511948	keystroke_n	n	n/a
256.379	0.09	512758	keystroke_Key.backspace	Key.backspace	n/a
256.529	0.105	513058	keystroke_e	e	n/a
256.709	0.105	513418	keystroke_n	n	n/a
257.3245	0.12	514649	keystroke_l	l	n/a
257.4595	0.09	514919	keystroke_y	y	n/a
257.5795	0.09	515159	keystroke_Key.space	Key.space	n/a
257.8945	0.12	515789	keystroke_s	s	n/a
257.9545	0.105	515909	keystroke_c	c	n/a
258.0445	0.12	516089	keystroke_i	i	n/a
258.1945	0.09	516389	keystroke_e	e	n/a
258.2995	0.105	516599	keystroke_n	n	n/a
258.4345	0.105	516869	keystroke_c	c	n/a
258.4945	0.09	516989	keystroke_e	e	n/a
258.5545	0.075	517109	keystroke_Key.space	Key.space	n/a
258.7795	0.09	517559	keystroke_p	p	n/a
258.8845	0.0595	517769	keystroke_r	r	n/a
258.989	0.075	517978	keystroke_o	o	n/a
259.334	0.135	518668	keystroke_v	v	n/a
259.424	0.09	518848	keystroke_e	e	n/a
259.619	0.075	519238	keystroke_d	d	n/a
259.724	0.105	519448	keystroke_Key.space	Key.space	n/a
260.2195	0.09	520439	keystroke_h	h	n/a
260.3995	0.09	520799	keystroke_e	e	n/a
260.4895	0.15	520979	keystroke_a	a	n/a
260.5945	0.104	521189	keystroke_d	d	n/a
260.8035	0.106	521607	keystroke_l	l	n/a
261.044	0.09	522088	keystroke_i	i	n/a
261.089	0.105	522178	keystroke_n	n	n/a
261.164	0.1055	522328	keystroke_e	e	n/a
261.329	0.06	522658	keystroke_Key.enter	Key.enter	n/a
261.393	8.308	522786	prompt	n/a	gordon temp sixth feedback\n
262.4235	0.075	524847	keystroke_o	o	n/a
262.5285	0.136	525057	keystroke_g	g	n/a
262.7545	0.135	525509	keystroke_r	r	n/a
263.1285	0.045	526257	keystroke_Key.backspace	Key.backspace	n/a
263.2785	0.06	526557	keystroke_Key.backspace	Key.backspace	n/a
263.6085	0.1055	527217	keystroke_Key.backspace	Key.backspace	n/a
264.179	0.09	528358	keystroke_g	g	n/a
264.344	0.105	528688	keystroke_o	o	n/a
264.464	0.105	528928	keystroke_r	r	n/a
265.334	0.06	530668	keystroke_d	d	n/a
265.379	0.12	530758	keystroke_o	o	n/a
265.439	0.061	530878	keystroke_n	n	n/a
265.604	0.09	531208	keystroke_Key.space	Key.space	n/a
266.114	0.12	532228	keystroke_t	t	n/a
266.204	0.105	532408	keystroke_e	e	n/a
266.249	0.105	532498	keystroke_m	m	n/a
266.414	0.105	532828	keystroke_p	p	n/a
266.6235	0.09	533247	keystroke_Key.space	Key.space	n/a
266.8495	0.105	533699	keystroke_s	s	n/a
266.9395	0.09	533879	keystroke_i	i	n/a
267.2845	0.09	534569	keystroke_x	x	n/a
267.599	0.1205	535198	keystroke_t	t	n/a
267.659	0.0755	535318	keystroke_h	h	n/a
267.7945	0.1345	535589	keystroke_Key.space	Key.space	n/a
268.529	0.12	537058	keystroke_f	f	n/a
268.589	0.09	537178	keystroke_e	e	n/a
268.769	0.09	537538	keystroke_e	e	n/a
268.919	0.1205	537838	keystroke_d	d	n/a
269.0995	0.0895	538199	keystroke_b	b	n/a
269.219	0.105	538438	keystroke_a	a	n/a
269.309	0.09	538618	keystroke_c	c	n/a
269.369	0.106	538738	keystroke_k	k	n/a
269.624	0.075	539248	keystroke_Key.enter	Key.enter	n/a
269.7035	9.537	539407	prompt	n/a	fishing citation construct playback\n
270.7645	0.075	541529	keystroke_f	f	n/a
270.8095	0.105	541619	keystroke_i	i	n/a
271.814	0.0895	543628	keystroke_s	s	n/a
271.9335	0.091	543867	keystroke_h	h	n/a
272.0845	0.15	544169	keystroke_i	i	n/a
272.1595	0.09	544319	keystroke_n	n	n/a
272.3545	0.135	544709	keystroke_Key.space	Key.space	n/a
272.804	0.075	545608	keystroke_Key.backspace	Key.backspace	n/a
273.4195	0.075	546839	keystroke_g	g	n/a
273.5095	0.12	547019	keystroke_Key.space	Key.space	n/a
274.0195	0.03	548039	keystroke_c	c	n/a
274.3945	0.09	548789	keystroke_i	i	n/a
274.5445	0.09	549089	keystroke_t	t	n/a
274.8895	0.12	549779	keystroke_a	a	n/a
275.0845	0.09	550169	keystroke_t	t	n/a
275.2195	0.09	550439	keystroke_i	i	n/a
275.2495	0.105	550499	keystroke_o	o	n/a
275.444	0.075	550888	keystroke_n	n	n/a
275.549	0.105	551098	keystroke_Key.space	Key.space	n/a
275.924	0.075	551848	keystroke_c	c	n/a
276.014	0.105	552028	keystroke_o	o	n/a
276.059	0.105	552118	keystroke_n	n	n/a
276.524	0.075	553048	keystroke_s	s	n/a
276.794	0.075	553588	keystroke_t	t	n/a
276.824	0.105	553648	keystroke_r	r	n/a
277.094	0.09	554188	keystroke_u	u	n/a
277.199	0.12	554398	keystroke_c	c	n/a
277.439	0.075	554878	keystroke_t	t	n/a
277.544	0.09	555088	keystroke_Key.space	Key.space	n/a
277.829	0.075	555658	keystroke_p	p	n/a
278.039	0.105	556078	keystroke_l	l	n/a
278.1885	0.135	556377	keystroke_a	a	n/a
278.3835	0.0755	556767	keystroke_y	y	n/a
278.579	0.09	557158	keystroke_b	b	n/a
278.684	0.1055	557368	keystroke_a	a	n/a
278.7445	0.105	557489	keystroke_c	c	n/a
278.8495	0.09	557699	keystroke_k	k	n/a
279.1495	0.09	558299	keystroke_Key.enter	Key.enter	n/a
279.2435	7.227	558487	prompt	n/a	basics mother cheers lips\n
280.0195	0.09	560039	keystroke_b	b	n/a
280.0795	0.15	560159	keystroke_a	a	n/a
280.1695	0.105	560339	keystroke_s	s	n/a
280.2895	0.09	560579	keystroke_i	i	n/a
280.4245	0.165	560849	keystroke_c	c	n/a
280.5145	0.15	561029	keystroke_a	a	n/a
280.6345	0.09	561269	keystroke_s	s	n/a
281.3545	0.075	562709	keystroke_Key.backspace	Key.backspace	n/a
281.504	0.09	563008	keystroke_Key.backspace	Key.backspace	n/a
281.624	0.12	563248	keystroke_s	s	n/a
281.774	0.105	563548	keystroke_Key.space	Key.space	n/a
282.209	0.09	564418	keystroke_m	m	n/a
282.314	0.105	564628	keystroke_o	o	n/a
282.479	0.105	564958	keystroke_t	t	n/a
282.539	0.105	565078	keystroke_h	h	n/a
282.734	0.105	565468	keystroke_e	e	n/a
282.794	0.09	565588	keystroke_r	r	n/a
282.869	0.09	565738	keystroke_Key.space	Key.space	n/a
283.124	0.12	566248	keystroke_c	c	n/a
283.289	0.09	566578	keystroke_h	h	n/a
283.484	0.09	566968	keystroke_e	e	n/a
283.604	0.18	567208	keystroke_e	e	n/a
283.769	0.075	567538	keystroke_r	r	n/a
284.6095	0.105	569219	keystroke_s	s	n/a
284.7885	0.09	569577	keystroke_Key.space	Key.space	n/a
285.1645	0.045	570329	keystroke_l	l	n/a
285.734	0.105	571468	keystroke_i	i	n/a
285.854	0.12	571708	keystroke_p	p	n/a
286.004	0.105	572008	keystroke_s	s	n/a
286.379	0.09	572758	keystroke_Key.enter	Key.enter	n/a
286.4735	7.827	572947	prompt	n/a	elections peninsula whale charger\n
287.144	0.075	574288	keystroke_e	e	n/a
287.399	0.09	574798	keystroke_x	x	n/a
287.654	0.105	575308	keystroke_l	l	n/a
287.819	0.105	575638	keystroke_e	e	n/a
288.374	0.06	576748	keystroke_Key.backspace	Key.backspace	n/a
288.509	0.105	577018	keystroke_Key.backspace	Key.backspace	n/a
288.7795	0.105	577559	keystroke_Key.backspace	Key.backspace	n/a
288.989	0.0905	577978	keystroke_l	l	n/a
289.2895	0.1345	578579	keystroke_e	e	n/a
289.3495	0.135	578699	keystroke_c	c	n/a
289.6935	0.076	579387	keystroke_t	t	n/a
289.8295	0.135	579659	keystroke_i	i	n/a
289.9195	0.105	579839	keystroke_o	o	n/a
290.0845	0.09	580169	keystroke_n	n	n/a
290.2045	0.105	580409	keystroke_s	s	n/a
290.2785	0.076	580557	keystroke_Key.space	Key.space	n/a
290.5045	0.105	581009	keystroke_p	p	n/a
290.6695	0.09	581339	keystroke_e	e	n/a
290.774	0.09	581548	keystroke_n	n	n/a
290.954	0.105	581908	keystroke_i	i	n/a
291.014	0.105	582028	keystroke_n	n	n/a
291.314	0.105	582628	keystroke_s	s	n/a
291.404	0.09	582808	keystroke_u	u	n/a
291.629	0.09	583258	keystroke_l	l	n/a
291.809	0.18	583618	keystroke_a	a	n/a
291.914	0.135	583828	keystroke_r	r	n/a
292.094	0.12	584188	keystroke_Key.space	Key.space	n/a
292.364	0.09	584728	keystroke_w	w	n/a
292.649	0.0905	585298	keystroke_h	h	n/a
292.8145	0.134	585629	keystroke_a	a	n/a
292.9795	0.089	585959	keystroke_l	l	n/a
293.0835	0.12	586167	keystroke_e	e	n/a
293.1885	0.12	586377	keystroke_Key.space	Key.space	n/a
293.4285	0.12	586857	keystroke_c	c	n/a
293.5335	0.09	587067	keystroke_h	h	n/a
293.6385	0.106	587277	keystroke_a	a	n/a
293.7145	0.09	587429	keystroke_r	r	n/a
293.9245	0.09	587849	keystroke_g	g	n/a
294.0295	0.12	588059	keystroke_e	e	n/a
294.1195	0.105	588239	keystroke_r	r	n/a
294.2095	0.09	588419	keystroke_Key.enter	Key.enter	n/a
294.305	8.6205	588610	prompt	n/a	listing commission symphony positions\n
294.9295	0.045	589859	keystroke_l	l	n/a
295.4245	0.075	590849	keystroke_i	i	n/a
295.5295	0.105	591059	keystroke_s	s	n/a
295.6795	0.09	591359	keystroke_t	t	n/a
295.7995	0.135	591599	keystroke_i	i	n/a
295.8745	0.09	591749	keystroke_n	n	n/a
295.9945	0.09	591989	keystroke_g	g	n/a
296.0695	0.105	592139	keystroke_Key.space	Key.space	n/a
296.3095	0.075	592619	keystroke_c	c	n/a
296.3995	0.09	592799	keystroke_o	o	n/a
296.4595	0.105	592919	keystroke_m	m	n/a
296.5945	0.09	593189	keystroke_m	m	n/a
297.3745	0.105	594749	keystroke_i	i	n/a
297.5545	0.06	595109	keystroke_s	s	n/a
297.6895	0.105	595379	keystroke_s	s	n/a
297.8245	0.06	595649	keystroke_i	i	n/a
297.8695	0.12	595739	keystroke_o	o	n/a
298.0195	0.12	596039	keystroke_n	n	n/a
298.2595	0.09	596519	keystroke_Key.space	Key.space	n/a
298.5445	0.105	597089	keystroke_s	s	n/a
298.6945	0.105	597389	keystroke_u	u	n/a
299.324	0.105	598648	keystroke_Key.backspace	Key.backspace	n/a
299.6235	0.061	599247	keystroke_y	y	n/a
299.8945	0.09	599789	keystroke_m	m	n/a
300.0595	0.09	600119	keystroke_p	p	n/a
300.2995	0.09	600599	keystroke_h	h	n/a
300.5085	0.135	601017	keystroke_o	o	n/a
300.5995	0.104	601199	keystroke_n	n	n/a
300.8085	0.105	601617	keystroke_y	y	n/a
300.9585	0.09	601917	keystroke_Key.space	Key.space	n/a
301.7695	0.135	603539	keystroke_p	p	n/a
301.8145	0.135	603629	keystroke_o	o	n/a
301.9795	0.135	603959	keystroke_s	s	n/a
302.0995	0.09	604199	keystroke_i	i	n/a
302.2345	0.075	604469	keystroke_t	t	n/a
302.3095	0.105	604619	keystroke_i	i	n/a
302.3695	0.12	604739	keystroke_o	o	n/a
302.5045	0.075	605009	keystroke_n	n	n/a
302.6095	0.105	605219	keystroke_s	s	n/a
302.834	0.0905	605668	keystroke_Key.enter	Key.enter	n/a
302.9285	4.857	605857	prompt	n/a	alarm hitting authors levels\n
303.524	0.105	607048	keystroke_a	a	n/a
303.614	0.105	607228	keystroke_l	l	n/a
303.689	0.12	607378	keystroke_a	a	n/a
303.869	0.075	607738	keystroke_r	r	n/a
303.959	0.12	607918	keystroke_m	m	n/a
304.154	0.06	608308	keystroke_Key.space	Key.space	n/a
304.559	0.105	609118	keystroke_h	h	n/a
304.619	0.09	609238	keystroke_i	i	n/a
304.739	0.09	609478	keystroke_t	t	n/a
304.889	0.075	609778	keystroke_t	t	n/a
304.994	0.135	609988	keystroke_i	i	n/a
305.054	0.09	610108	keystroke_n	n	n/a
305.084	0.09	610168	keystroke_g	g	n/a
305.219	0.105	610438	keystroke_Key.space	Key.space	n/a
305.444	0.09	610888	keystroke_a	a	n/a
305.654	0.075	611308	keystroke_u	u	n/a
305.819	0.12	611638	keystroke_t	t	n/a
305.879	0.12	611758	keystroke_h	h	n/a
306.104	0.135	612208	keystroke_o	o	n/a
306.269	0.09	612538	keystroke_r	r	n/a
306.494	0.0905	612988	keystroke_s	s	n/a
306.6145	0.105	613229	keystroke_Key.space	Key.space	n/a
306.9745	0.09	613949	keystroke_l	l	n/a
307.0795	0.105	614159	keystroke_e	e	n/a
307.2595	0.1045	614519	keystroke_v	v	n/a
307.334	0.09	614668	keystroke_e	e	n/a
307.409	0.09	614818	keystroke_l	l	n/a
307.544	0.105	615088	keystroke_s	s	n/a
307.694	0.09	615388	keystroke_Key.enter	Key.enter	n/a
307.7905	6.085	615581	prompt	n/a	hostel tickets studied specific\n
308.594	0.12	617188	keystroke_h	h	n/a
308.654	0.09	617308	keystroke_o	o	n/a
308.729	0.075	617458	keystroke_s	s	n/a
308.939	0.09	617878	keystroke_t	t	n/a
309.014	0.0905	618028	keystroke_e	e	n/a
309.0895	0.075	618179	keystroke_l	l	n/a
309.2845	0.105	618569	keystroke_Key.space	Key.space	n/a
309.5695	0.045	619139	keystroke_t	t	n/a
309.6295	0.09	619259	keystroke_i	i	n/a
309.7645	0.09	619529	keystroke_c	c	n/a
309.8845	0.09	619769	keystroke_k	k	n/a
310.0195	0.105	620039	keystroke_e	e	n/a
310.0795	0.09	620159	keystroke_t	t	n/a
310.2295	0.105	620459	keystroke_s	s	n/a
310.3345	0.12	620669	keystroke_Key.space	Key.space	n/a
310.6495	0.09	621299	keystroke_s	s	n/a
311.039	0.075	622078	keystroke_t	t	n/a
311.4745	0.06	622949	keystroke_u	u	n/a
311.759	0.075	623518	keystroke_d	d	n/a
311.909	0.075	623818	keystroke_i	i	n/a
311.999	0.075	623998	keystroke_e	e	n/a
312.149	0.09	624298	keystroke_d	d	n/a
312.254	0.09	624508	keystroke_Key.space	Key.space	n/a
312.6745	0.075	625349	keystroke_s	s	n/a
312.7345	0.1045	625469	keystroke_p	p	n/a
312.869	0.135	625738	keystroke_c	c	n/a
313.199	0.105	626398	keystroke_i	i	n/a
313.349	0.075	626698	keystroke_f	f	n/a
313.454	0.09	626908	keystroke_i	i	n/a
313.559	0.09	627118	keystroke_c	c	n/a
313.799	0.075	627598	keystroke_Key.enter	Key.enter	n/a
313.88	10.1355	627760	prompt	n/a	recipient chile buffer corpus\n
314.8945	0.09	629789	keystroke_r	r	n/a
314.9545	0.09	629909	keystroke_e	e	n/a
315.1495	0.09	630299	keystroke_c	c	n/a
315.2545	0.075	630509	keystroke_i	i	n/a
315.464	0.075	630928	keystroke_p	p	n/a
315.599	0.06	631198	keystroke_e	e	n/a
316.9045	0.075	633809	keystroke_Key.backspace	Key.backspace	n/a
317.1745	0.075	634349	keystroke_i	i	n/a
317.2945	0.09	634589	keystroke_e	e	n/a
317.4145	0.0895	634829	keystroke_n	n	n/a
317.504	0.075	635008	keystroke_t	t	n/a
317.594	0.12	635188	keystroke_Key.space	Key.space	n/a
317.939	0.12	635878	keystroke_c	c	n/a
318.014	0.12	636028	keystroke_h	h	n/a
318.074	0.075	636148	keystroke_i	i	n/a
318.2545	0.105	636509	keystroke_l	l	n/a
318.4045	0.105	636809	keystroke_e	e	n/a
318.4795	0.1045	636959	keystroke_Key.space	Key.space	n/a
318.719	0.09	637438	keystroke_b	b	n/a
318.764	0.12	637528	keystroke_i	i	n/a
319.349	0.06	638698	keystroke_f	f	n/a
319.469	0.135	638938	keystroke_f	f	n/a
319.874	0.09	639748	keystroke_e	e	n/a
319.919	0.09	639838	keystroke_r	r	n/a
320.864	0.075	641728	keystroke_Key.backspace	Key.backspace	n/a
321.014	0.075	642028	keystroke_Key.backspace	Key.backspace	n/a
321.149	0.105	642298	keystroke_Key.backspace	Key.backspace	n/a
321.299	0.06	642598	keystroke_Key.backspace	Key.backspace	n/a
321.434	0.075	642868	keystroke_Key.backspace	Key.backspace	n/a
322.0485	0.06	644097	keystroke_u	u	n/a
322.3035	0.016	644607	keystroke_f	f	n/a
322.3935	0.075	644787	keystroke_f	f	n/a
322.724	0.09	645448	keystroke_e	e	n/a
322.769	0.09	645538	keystroke_r	r	n/a
322.904	0.105	645808	keystroke_Key.space	Key.space	n/a
323.144	0.09	646288	keystroke_c	c	n/a
323.249	0.075	646498	keystroke_o	o	n/a
323.369	0.075	646738	keystroke_r	r	n/a
323.474	0.105	646948	keystroke_p	p	n/a
323.7135	0.075	647427	keystroke_u	u	n/a
323.8045	0.119	647609	keystroke_s	s	n/a
323.9385	0.075	647877	keystroke_Key.enter	Key.enter	n/a
324.0265	11.3595	648053	prompt	n/a	conversion harley broke efficient\n
324.8545	0.075	649709	keystroke_c	c	n/a
324.9145	0.12	649829	keystroke_o	o	n/a
324.9745	0.105	649949	keystroke_n	n	n/a
325.0795	0.075	650159	keystroke_v	v	n/a
325.2595	0.09	650519	keystroke_e	e	n/a
325.2895	0.135	650579	keystroke_r	r	n/a
325.4545	0.135	650909	keystroke_s	s	n/a
325.7545	0.12	651509	keystroke_i	i	n/a
325.7995	0.12	651599	keystroke_o	o	n/a
326.0395	0.09	652079	keystroke_n	n	n/a
326.1145	0.105	652229	keystroke_Key.space	Key.space	n/a
326.9695	0.09	653939	keystroke_h	h	n/a
327.0895	0.12	654179	keystroke_a	a	n/a
327.2695	0.06	654539	keystroke_r	r	n/a
327.4045	0.105	654809	keystroke_l	l	n/a
327.5845	0.135	655169	keystroke_e	e	n/a
327.6745	0.075	655349	keystroke_y	y	n/a
327.8095	0.105	655619	keystroke_Key.space	Key.space	n/a
328.544	0.075	657088	keystroke_b	b	n/a
328.709	0.09	657418	keystroke_r	r	n/a
328.874	0.18	657748	keystroke_o	o	n/a
328.949	0.12	657898	keystroke_k	k	n/a
329.084	0.09	658168	keystroke_e	e	n/a
329.189	0.105	658378	keystroke_Key.space	Key.space	n/a
329.489	0.09	658978	keystroke_e	e	n/a
330.2695	0.06	660539	keystroke_f	f	n/a
330.3895	0.06	660779	keystroke_f	f	n/a
330.4645	0.1045	660929	keystroke_i	i	n/a
330.584	0.09	661168	keystroke_c	c	n/a
330.675	0.074	661350	keystroke_e	e	n/a
330.704	0.09	661408	keystroke_i	i	n/a
330.929	0.09	661858	keystroke_n	n	n/a
331.034	0.075	662068	keystroke_t	t	n/a
331.994	0.075	663988	keystroke_Key.backspace	Key.backspace	n/a
332.144	0.075	664288	keystroke_Key.backspace	Key.backspace	n/a
332.264	0.09	664528	keystroke_Key.backspace	Key.backspace	n/a
332.834	0.105	665668	keystroke_i	i	n/a
333.659	0.075	667318	keystroke_Key.backspace	Key.backspace	n/a
333.794	0.09	667588	keystroke_Key.backspace	Key.backspace	n/a
334.455	0.089	668910	keystroke_i	i	n/a
334.529	0.105	669058	keystroke_e	e	n/a
334.664	0.06	669328	keystroke_n	n	n/a
334.77	0.074	669540	keystroke_t	t	n/a
335.2935	0.09	670587	keystroke_Key.enter	Key.enter	n/a
335.397	10.144	670794	prompt	n/a	phillips grain broadcasting computational\n
336.3895	0.105	672779	keystroke_p	p	n/a
336.5095	0.075	673019	keystroke_h	h	n/a
336.6295	0.0895	673259	keystroke_i	i	n/a
337.004	0.075	674008	keystroke_l	l	n/a
337.754	0.09	675508	keystroke_l	l	n/a
338.174	0.03	676348	keystroke_i	i	n/a
338.249	0.06	676498	keystroke_p	p	n/a
338.534	0.105	677068	keystroke_s	s	n/a
338.669	0.1055	677338	keystroke_Key.space	Key.space	n/a
339.9895	0.1345	679979	keystroke_r	r	n/a
340.0045	0.1045	680009	keystroke_g	g	n/a
340.244	0.105	680488	keystroke_a	a	n/a
340.334	0.105	680668	keystroke_i	i	n/a
340.394	0.09	680788	keystroke_n	n	n/a
340.499	0.075	680998	keystroke_Key.space	Key.space	n/a
340.814	0.135	681628	keystroke_b	b	n/a
341.054	0.09	682108	keystroke_r	r	n/a
341.219	0.12	682438	keystroke_o	o	n/a
341.354	0.105	682708	keystroke_a	a	n/a
341.4145	0.0895	682829	keystroke_d	d	n/a
341.909	0.105	683818	keystroke_a	a	n/a
342.299	0.09	684598	keystroke_Key.backspace	Key.backspace	n/a
342.404	0.165	684808	keystroke_c	c	n/a
342.494	0.18	684988	keystroke_a	a	n/a
342.689	0.1205	685378	keystroke_s	s	n/a
342.9895	0.09	685979	keystroke_t	t	n/a
343.0945	0.12	686189	keystroke_i	i	n/a
343.1695	0.105	686339	keystroke_n	n	n/a
343.2895	0.075	686579	keystroke_g	g	n/a
343.4095	0.09	686819	keystroke_Key.space	Key.space	n/a
343.6795	0.105	687359	keystroke_c	c	n/a
343.7545	0.12	687509	keystroke_o	o	n/a
343.8145	0.12	687629	keystroke_m	m	n/a
344.0095	0.1495	688019	keystroke_p	p	n/a
344.204	0.09	688408	keystroke_u	u	n/a
344.339	0.105	688678	keystroke_t	t	n/a
344.579	0.09	689158	keystroke_a	a	n/a
344.654	0.09	689308	keystroke_t	t	n/a
344.774	0.105	689548	keystroke_i	i	n/a
344.834	0.09	689668	keystroke_o	o	n/a
344.984	0.1205	689968	keystroke_n	n	n/a
345.1195	0.09	690239	keystroke_a	a	n/a
345.2245	0.09	690449	keystroke_l	l	n/a
345.4495	0.09	690899	keystroke_Key.enter	Key.enter	n/a
345.5515	5.3445	691103	prompt	n/a	extended cross skype jill\n
346.1995	0.075	692399	keystroke_e	e	n/a
346.4395	0.09	692879	keystroke_x	x	n/a
346.6795	0.105	693359	keystroke_t	t	n/a
346.7695	0.09	693539	keystroke_e	e	n/a
346.904	0.105	693808	keystroke_n	n	n/a
347.009	0.075	694018	keystroke_d	d	n/a
347.189	0.06	694378	keystroke_e	e	n/a
347.339	0.06	694678	keystroke_d	d	n/a
347.414	0.135	694828	keystroke_Key.space	Key.space	n/a
347.684	0.075	695368	keystroke_c	c	n/a
347.894	0.06	695788	keystroke_r	r	n/a
347.984	0.09	695968	keystroke_o	o	n/a
348.104	0.06	696208	keystroke_s	s	n/a
348.2395	0.12	696479	keystroke_s	s	n/a
348.3445	0.105	696689	keystroke_Key.space	Key.space	n/a
348.4795	0.105	696959	keystroke_s	s	n/a
348.6445	0.135	697289	keystroke_k	k	n/a
348.9895	0.105	697979	keystroke_y	y	n/a
349.0795	0.12	698159	keystroke_p	p	n/a
349.2595	0.105	698519	keystroke_e	e	n/a
349.3495	0.105	698699	keystroke_Key.space	Key.space	n/a
350.159	0.12	700318	keystroke_j	j	n/a
350.264	0.09	700528	keystroke_i	i	n/a
350.489	0.06	700978	keystroke_l	l	n/a
350.609	0.075	701218	keystroke_l	l	n/a
350.804	0.09	701608	keystroke_Key.enter	Key.enter	n/a
350.9	7.121	701800	prompt	n/a	spice harbor soldiers violence\n
351.584	0.12	703168	keystroke_s	s	n/a
351.689	0.06	703378	keystroke_p	p	n/a
352.004	0.075	704008	keystroke_i	i	n/a
352.139	0.105	704278	keystroke_c	c	n/a
352.184	0.105	704368	keystroke_e	e	n/a
352.3345	0.105	704669	keystroke_Key.space	Key.space	n/a
352.7995	0.12	705599	keystroke_h	h	n/a
352.9195	0.135	705839	keystroke_a	a	n/a
353.0095	0.1045	706019	keystroke_r	r	n/a
353.384	0.015	706768	keystroke_b	b	n/a
353.414	0.105	706828	keystroke_o	o	n/a
353.549	0.09	707098	keystroke_r	r	n/a
353.669	0.105	707338	keystroke_Key.space	Key.space	n/a
353.909	0.09	707818	keystroke_s	s	n/a
353.954	0.075	707908	keystroke_o	o	n/a
354.149	0.09	708298	keystroke_l	l	n/a
354.224	0.105	708448	keystroke_d	d	n/a
354.389	0.105	708778	keystroke_i	i	n/a
356.0545	0.09	712109	keystroke_e	e	n/a
356.0845	0.12	712169	keystroke_r	r	n/a
356.2645	0.12	712529	keystroke_s	s	n/a
356.4295	0.075	712859	keystroke_Key.space	Key.space	n/a
356.909	0.09	713818	keystroke_v	v	n/a
357.074	0.105	714148	keystroke_i	i	n/a
357.164	0.09	714328	keystroke_o	o	n/a
357.374	0.075	714748	keystroke_l	l	n/a
357.464	0.075	714928	keystroke_e	e	n/a
357.554	0.105	715108	keystroke_n	n	n/a
357.689	0.15	715378	keystroke_c	c	n/a
357.779	0.135	715558	keystroke_e	e	n/a
357.944	0.075	715888	keystroke_Key.enter	Key.enter	n/a
358.031	7.7445	716062	prompt	n/a	spaces matches endless vacancies\n
358.679	0.075	717358	keystroke_s	s	n/a
358.724	0.09	717448	keystroke_p	p	n/a
358.844	0.09	717688	keystroke_a	a	n/a
358.919	0.105	717838	keystroke_c	c	n/a
359.054	0.0755	718108	keystroke_e	e	n/a
359.234	0.09	718468	keystroke_s	s	n/a
359.309	0.09	718618	keystroke_Key.space	Key.space	n/a
359.519	0.09	719038	keystroke_m	m	n/a
359.624	0.09	719248	keystroke_a	a	n/a
359.864	0.075	719728	keystroke_t	t	n/a
360.104	0.076	720208	keystroke_c	c	n/a
360.194	0.105	720388	keystroke_h	h	n/a
360.374	0.105	720748	keystroke_e	e	n/a
360.45	0.1045	720900	keystroke_s	s	n/a
360.5695	0.09	721139	keystroke_Key.space	Key.space	n/a
360.9145	0.09	721829	keystroke_e	e	n/a
361.0195	0.105	722039	keystroke_n	n	n/a
361.1085	0.105	722217	keystroke_d	d	n/a
361.2295	0.105	722459	keystroke_l	l	n/a
361.3495	0.075	722699	keystroke_e	e	n/a
361.5145	0.045	723029	keystroke_s	s	n/a
361.6345	0.12	723269	keystroke_s	s	n/a
361.7395	0.1045	723479	keystroke_Key.space	Key.space	n/a
362.369	0.105	724738	keystroke_v	v	n/a
362.459	0.105	724918	keystroke_a	a	n/a
362.669	0.105	725338	keystroke_c	c	n/a
362.789	0.12	725578	keystroke_a	a	n/a
362.969	0.09	725938	keystroke_n	n	n/a
364.6645	0.09	729329	keystroke_c	c	n/a
365.1145	0.075	730229	keystroke_i	i	n/a
365.2045	0.06	730409	keystroke_e	e	n/a
365.3695	0.09	730739	keystroke_s	s	n/a
365.6695	0.105	731339	keystroke_Key.enter	Key.enter	n/a
365.78	5.4555	731560	prompt	n/a	paso jeep mike recorder\n
366.6745	0.0745	733349	keystroke_p	p	n/a
366.764	0.135	733528	keystroke_a	a	n/a
366.839	0.105	733678	keystroke_s	s	n/a
367.3345	0.075	734669	keystroke_o	o	n/a
367.4545	0.105	734909	keystroke_Key.space	Key.space	n/a
368.219	0.09	736438	keystroke_k	k	n/a
368.324	0.09	736648	keystroke_e	e	n/a
368.474	0.105	736948	keystroke_e	e	n/a
368.639	0.1055	737278	keystroke_p	p	n/a
368.7745	0.089	737549	keystroke_Key.space	Key.space	n/a
368.8795	0.09	737759	keystroke_m	m	n/a
369.0895	0.075	738179	keystroke_i	i	n/a
369.2845	0.06	738569	keystroke_k	k	n/a
369.3595	0.105	738719	keystroke_e	e	n/a
369.4795	0.09	738959	keystroke_Key.space	Key.space	n/a
369.839	0.09	739678	keystroke_r	r	n/a
369.899	0.09	739798	keystroke_e	e	n/a
370.079	0.09	740158	keystroke_o	o	n/a
370.094	0.09	740188	keystroke_c	c	n/a
370.3035	0.075	740607	keystroke_r	r	n/a
370.4835	0.075	740967	keystroke_d	d	n/a
370.6795	0.045	741359	keystroke_e	e	n/a
370.7985	0.09	741597	keystroke_d	d	n/a
371.1435	0.09	742287	keystroke_Key.enter	Key.enter	n/a
371.241	7.8845	742482	prompt	n/a	thompson marketplace meta lending\n
372.1485	0.135	744297	keystroke_t	t	n/a
372.1935	0.135	744387	keystroke_h	h	n/a
372.3135	0.195	744627	keystroke_o	o	n/a
372.4195	0.119	744839	keystroke_m	m	n/a
372.599	0.135	745198	keystroke_p	p	n/a
372.779	0.12	745558	keystroke_s	s	n/a
372.914	0.1645	745828	keystroke_o	o	n/a
373.0035	0.09	746007	keystroke_n	n	n/a
373.2135	0.09	746427	keystroke_Key.space	Key.space	n/a
373.6485	0.075	747297	keystroke_m	m	n/a
373.7385	0.105	747477	keystroke_a	a	n/a
373.9785	0.06	747957	keystroke_r	r	n/a
375.4945	0.09	750989	keystroke_k	k	n/a
375.5995	0.119	751199	keystroke_e	e	n/a
375.6585	0.106	751317	keystroke_t	t	n/a
375.8395	0.18	751679	keystroke_p	p	n/a
375.9285	0.136	751857	keystroke_l	l	n/a
376.0795	0.15	752159	keystroke_a	a	n/a
376.1685	0.181	752337	keystroke_c	c	n/a
376.2895	0.135	752579	keystroke_e	e	n/a
376.3945	0.105	752789	keystroke_Key.space	Key.space	n/a
376.6195	0.105	753239	keystroke_m	m	n/a
376.7395	0.105	753479	keystroke_e	e	n/a
376.7995	0.12	753599	keystroke_t	t	n/a
377.0545	0.105	754109	keystroke_a	a	n/a
377.1735	0.106	754347	keystroke_Key.space	Key.space	n/a
377.3995	0.09	754799	keystroke_l	l	n/a
377.8645	0.09	755729	keystroke_e	e	n/a
377.9995	0.09	755999	keystroke_n	n	n/a
378.344	0.0905	756688	keystroke_d	d	n/a
378.599	0.1195	757198	keystroke_i	i	n/a
378.674	0.0745	757348	keystroke_n	n	n/a
378.7045	0.089	757409	keystroke_g	g	n/a
379.0485	0.075	758097	keystroke_Key.enter	Key.enter	n/a
379.1365	9.094	758273	prompt	n/a	nations hostels simpsons wallpapers\n
379.9485	0.09	759897	keystroke_n	n	n/a
380.0535	0.09	760107	keystroke_t	t	n/a
380.5935	0.075	761187	keystroke_Key.backspace	Key.backspace	n/a
380.7135	0.105	761427	keystroke_a	a	n/a
381.014	0.06	762028	keystroke_t	t	n/a
381.089	0.105	762178	keystroke_i	i	n/a
381.134	0.105	762268	keystroke_o	o	n/a
381.404	0.015	762808	keystroke_n	n	n/a
381.434	0.075	762868	keystroke_s	s	n/a
381.524	0.075	763048	keystroke_Key.space	Key.space	n/a
382.109	0.075	764218	keystroke_h	h	n/a
382.244	0.0755	764488	keystroke_o	o	n/a
382.3645	0.075	764729	keystroke_s	s	n/a
382.5745	0.075	765149	keystroke_t	t	n/a
382.6345	0.1045	765269	keystroke_e	e	n/a
382.769	0.075	765538	keystroke_l	l	n/a
382.904	0.075	765808	keystroke_s	s	n/a
382.98	0.089	765960	keystroke_Key.space	Key.space	n/a
383.189	0.09	766378	keystroke_s	s	n/a
383.324	0.12	766648	keystroke_i	i	n/a
383.384	0.12	766768	keystroke_m	m	n/a
383.579	0.0905	767158	keystroke_p	p	n/a
383.6995	0.105	767399	keystroke_s	s	n/a
383.8195	0.105	767639	keystroke_o	o	n/a
383.8645	0.135	767729	keystroke_n	n	n/a
383.9695	0.09	767939	keystroke_s	s	n/a
384.0745	0.105	768149	keystroke_Key.space	Key.space	n/a
384.5545	0.09	769109	keystroke_w	w	n/a
384.704	0.09	769408	keystroke_a	a	n/a
384.809	0.06	769618	keystroke_l	l	n/a
384.929	0.075	769858	keystroke_l	l	n/a
385.109	0.075	770218	keystroke_p	p	n/a
385.139	0.105	770278	keystroke_a	a	n/a
385.394	0.12	770788	keystroke_e	e	n/a
385.454	0.105	770908	keystroke_r	r	n/a
386.2935	0.075	772587	keystroke_Key.backspace	Key.backspace	n/a
386.4135	0.106	772827	keystroke_Key.backspace	Key.backspace	n/a
386.6695	0.075	773339	keystroke_p	p	n/a
386.7595	0.089	773519	keystroke_e	e	n/a
386.8045	0.09	773609	keystroke_r	r	n/a
386.9385	0.136	773877	keystroke_s	s	n/a
388.124	0.105	776248	keystroke_Key.enter	Key.enter	n/a
388.235	11.065	776470	prompt	n/a	nominations julian terminology latex\n
389.354	0.105	778708	keystroke_n	n	n/a
389.414	0.135	778828	keystroke_o	o	n/a
389.564	0.105	779128	keystroke_m	m	n/a
389.759	0.12	779518	keystroke_i	i	n/a
389.834	0.1055	779668	keystroke_n	n	n/a
389.9695	0.105	779939	keystroke_a	a	n/a
390.1635	0.076	780327	keystroke_t	t	n/a
390.2545	0.09	780509	keystroke_i	i	n/a
390.3145	0.12	780629	keystroke_o	o	n/a
390.4645	0.0895	780929	keystroke_n	n	n/a
390.555	0.089	781110	keystroke_s	s	n/a
390.659	0.0895	781318	keystroke_Key.space	Key.space	n/a
391.0795	0.089	782159	keystroke_j	j	n/a
391.2585	0.046	782517	keystroke_u	u	n/a
391.4535	0.045	782907	keystroke_l	l	n/a
391.6335	0.061	783267	keystroke_i	i	n/a
391.7235	0.1205	783447	keystroke_a	a	n/a
392.6385	0.045	785277	keystroke_m	m	n/a
392.7285	0.105	785457	keystroke_Key.space	Key.space	n/a
393.329	0.09	786658	keystroke_Key.backspace	Key.backspace	n/a
393.599	0.075	787198	keystroke_Key.backspace	Key.backspace	n/a
394.304	0.075	788608	keystroke_n	n	n/a
394.379	0.09	788758	keystroke_Key.space	Key.space	n/a
394.6485	0.1205	789297	keystroke_t	t	n/a
394.964	0.165	789928	keystroke_e	e	n/a
395.054	0.15	790108	keystroke_r	r	n/a
395.624	0.06	791248	keystroke_m	m	n/a
396.3895	0.15	792779	keystroke_i	i	n/a
396.4945	0.135	792989	keystroke_n	n	n/a
396.7345	0.09	793469	keystroke_o	o	n/a
396.9445	0.09	793889	keystroke_l	l	n/a
397.1545	0.105	794309	keystroke_o	o	n/a
397.4545	0.06	794909	keystroke_g	g	n/a
397.6495	0.09	795299	keystroke_y	y	n/a
397.7695	0.09	795539	keystroke_Key.space	Key.space	n/a
398.2645	0.105	796529	keystroke_l	l	n/a
398.4295	0.105	796859	keystroke_a	a	n/a
398.5645	0.09	797129	keystroke_t	t	n/a
398.669	0.0895	797338	keystroke_e	e	n/a
399.119	0.0745	798238	keystroke_x	x	n/a
399.224	0.074	798448	keystroke_Key.enter	Key.enter	n/a
399.312	6.0185	798624	prompt	n/a	represents fork milk turkish\n
400.0335	0.1055	800067	keystroke_r	r	n/a
400.094	0.105	800188	keystroke_e	e	n/a
400.183	0.1055	800366	keystroke_p	p	n/a
400.3935	0.075	800787	keystroke_r	r	n/a
400.4085	0.105	800817	keystroke_e	e	n/a
401.0245	0.074	802049	keystroke_s	s	n/a
401.219	0.0905	802438	keystroke_e	e	n/a
401.3245	0.075	802649	keystroke_n	n	n/a
401.4145	0.075	802829	keystroke_t	t	n/a
401.608	0.091	803216	keystroke_s	s	n/a
401.864	0.089	803728	keystroke_Key.space	Key.space	n/a
401.999	0.09	803998	keystroke_f	f	n/a
402.103	0.121	804206	keystroke_o	o	n/a
402.224	0.029	804448	keystroke_r	r	n/a
402.4785	0.0905	804957	keystroke_k	k	n/a
402.644	0.09	805288	keystroke_Key.space	Key.space	n/a
402.9595	0.089	805919	keystroke_m	m	n/a
403.0935	0.061	806187	keystroke_i	i	n/a
403.2885	0.21	806577	keystroke_l	l	n/a
403.4235	0.135	806847	keystroke_k	k	n/a
403.5595	0.104	807119	keystroke_Key.space	Key.space	n/a
404.0835	0.0755	808167	keystroke_t	t	n/a
404.219	0.09	808438	keystroke_u	u	n/a
404.324	0.105	808648	keystroke_r	r	n/a
404.474	0.09	808948	keystroke_k	k	n/a
404.684	0.06	809368	keystroke_i	i	n/a
404.9085	0.105	809817	keystroke_s	s	n/a
405.0445	0.074	810089	keystroke_h	h	n/a
405.2235	0.105	810447	keystroke_Key.enter	Key.enter	n/a
405.334	10.4515	810668	prompt	n/a	upload valley control iowa\n
406.2735	0.0895	812547	keystroke_u	u	n/a
406.468	0.166	812936	keystroke_p	p	n/a
406.679	0.135	813358	keystroke_l	l	n/a
406.9635	0.091	813927	keystroke_o	o	n/a
407.4295	0.119	814859	keystroke_a	a	n/a
407.5185	0.136	815037	keystroke_d	d	n/a
407.6985	0.105	815397	keystroke_Key.space	Key.space	n/a
408.344	0.12	816688	keystroke_v	v	n/a
408.434	0.1195	816868	keystroke_a	a	n/a
408.539	0.0895	817078	keystroke_l	l	n/a
408.6885	0.12	817377	keystroke_l	l	n/a
408.8985	0.15	817797	keystroke_e	e	n/a
408.9735	0.105	817947	keystroke_y	y	n/a
409.1385	0.105	818277	keystroke_Key.space	Key.space	n/a
409.5135	0.1055	819027	keystroke_c	c	n/a
409.634	0.165	819268	keystroke_o	o	n/a
409.709	0.12	819418	keystroke_n	n	n/a
409.814	0.12	819628	keystroke_t	t	n/a
409.874	0.105	819748	keystroke_r	r	n/a
409.949	0.12	819898	keystroke_o	o	n/a
410.144	0.12	820288	keystroke_l	l	n/a
410.249	0.09	820498	keystroke_Key.space	Key.space	n/a
411.074	0.135	822148	keystroke_i	i	n/a
411.134	0.105	822268	keystroke_o	o	n/a
411.314	0.15	822628	keystroke_q	q	n/a
411.809	0.105	823618	keystroke_a	a	n/a
412.289	0.105	824578	keystroke_Key.backspace	Key.backspace	n/a
412.469	0.09	824938	keystroke_Key.backspace	Key.backspace	n/a
412.694	0.1195	825388	keystroke_q	q	n/a
413.0385	0.045	826077	keystroke_s	s	n/a
413.804	0.27	827608	keystroke_Key.backspace	Key.backspace	n/a
414.614	0.104	829228	keystroke_Key.backspace	Key.backspace	n/a
414.989	0.06	829978	keystroke_w	w	n/a
415.169	0.09	830338	keystroke_a	a	n/a
415.679	0.105	831358	keystroke_Key.enter	Key.enter	n/a
415.7895	5.9655	831579	prompt	n/a	march marriott bytes interactions\n
416.6085	0.075	833217	keystroke_m	m	n/a
416.774	0.119	833548	keystroke_a	a	n/a
416.863	0.106	833726	keystroke_r	r	n/a
417.494	0.09	834988	keystroke_c	c	n/a
417.629	0.075	835258	keystroke_h	h	n/a
417.719	0.0895	835438	keystroke_Key.space	Key.space	n/a
417.9285	0.075	835857	keystroke_m	m	n/a
418.0335	0.075	836067	keystroke_a	a	n/a
418.1985	0.06	836397	keystroke_r	r	n/a
418.3335	0.09	836667	keystroke_r	r	n/a
418.4535	0.165	836907	keystroke_i	i	n/a
418.5585	0.09	837117	keystroke_o	o	n/a
418.6495	0.074	837299	keystroke_t	t	n/a
418.7835	0.105	837567	keystroke_Key.space	Key.space	n/a
419.3985	0.09	838797	keystroke_b	b	n/a
419.4285	0.105	838857	keystroke_y	y	n/a
419.5785	0.09	839157	keystroke_t	t	n/a
419.9235	0.045	839847	keystroke_e	e	n/a
420.0735	0.09	840147	keystroke_s	s	n/a
420.1785	0.09	840357	keystroke_Key.space	Key.space	n/a
420.3435	0.12	840687	keystroke_i	i	n/a
420.4035	0.105	840807	keystroke_n	n	n/a
420.4935	0.0755	840987	keystroke_t	t	n/a
420.584	0.1495	841168	keystroke_e	e	n/a
420.674	0.1045	841348	keystroke_r	r	n/a
420.8235	0.135	841647	keystroke_a	a	n/a
420.9735	0.06	841947	keystroke_c	c	n/a
421.1835	0.09	842367	keystroke_t	t	n/a
421.2885	0.075	842577	keystroke_i	i	n/a
421.3185	0.105	842637	keystroke_o	o	n/a
421.4535	0.09	842907	keystroke_n	n	n/a
421.5135	0.105	843027	keystroke_s	s	n/a
421.6785	0.075	843357	keystroke_Key.enter	Key.enter	n/a
421.758	12.1325	843516	prompt	n/a	fundamentals japanese howdy listed\n
422.9685	0.045	845937	keystroke_f	f	n/a
423.0285	0.1345	846057	keystroke_u	u	n/a
423.1185	0.0905	846237	keystroke_n	n	n/a
423.194	0.12	846388	keystroke_d	d	n/a
423.329	0.12	846658	keystroke_a	a	n/a
423.464	0.075	846928	keystroke_m	m	n/a
423.5535	0.105	847107	keystroke_a	a	n/a
423.7185	0.09	847437	keystroke_n	n	n/a
423.8235	0.105	847647	keystroke_e	e	n/a
423.9135	0.09	847827	keystroke_t	t	n/a
424.1085	0.09	848217	keystroke_s	s	n/a
424.4685	0.0905	848937	keystroke_Key.backspace	Key.backspace	n/a
424.604	0.12	849208	keystroke_a	a	n/a
424.694	0.12	849388	keystroke_l	l	n/a
424.829	0.09	849658	keystroke_s	s	n/a
424.934	0.09	849868	keystroke_Key.space	Key.space	n/a
425.714	0.105	851428	keystroke_Key.backspace	Key.backspace	n/a
425.879	0.1045	851758	keystroke_Key.backspace	Key.backspace	n/a
426.0435	0.075	852087	keystroke_Key.backspace	Key.backspace	n/a
426.1935	0.09	852387	keystroke_Key.backspace	Key.backspace	n/a
426.3585	0.09	852717	keystroke_Key.backspace	Key.backspace	n/a
426.5385	0.09	853077	keystroke_Key.backspace	Key.backspace	n/a
426.7485	0.075	853497	keystroke_Key.backspace	Key.backspace	n/a
428.189	0.09	856378	keystroke_Key.backspace	Key.backspace	n/a
428.7585	0.105	857517	keystroke_e	e	n/a
428.8785	0.09	857757	keystroke_m	m	n/a
429.0285	0.09	858057	keystroke_t	t	n/a
429.194	0.0745	858388	keystroke_a	a	n/a
429.3135	0.09	858627	keystroke_l	l	n/a
429.4185	0.09	858837	keystroke_s	s	n/a
429.5385	0.105	859077	keystroke_Key.space	Key.space	n/a
430.0785	0.045	860157	keystroke_j	j	n/a
430.1535	0.075	860307	keystroke_a	a	n/a
430.2295	0.104	860459	keystroke_p	p	n/a
430.3035	0.09	860607	keystroke_a	a	n/a
430.4685	0.09	860937	keystroke_n	n	n/a
430.6035	0.09	861207	keystroke_e	e	n/a
430.7985	0.06	861597	keystroke_s	s	n/a
430.9635	0.075	861927	keystroke_e	e	n/a
431.0985	0.09	862197	keystroke_Key.space	Key.space	n/a
431.6535	0.09	863307	keystroke_h	h	n/a
431.6985	0.12	863397	keystroke_o	o	n/a
431.8335	0.12	863667	keystroke_w	w	n/a
431.9835	0.12	863967	keystroke_d	d	n/a
432.1935	0.09	864387	keystroke_y	y	n/a
432.2985	0.105	864597	keystroke_Key.space	Key.space	n/a
433.0035	0.09	866007	keystroke_l	l	n/a
433.199	0.06	866398	keystroke_i	i	n/a
433.244	0.15	866488	keystroke_s	s	n/a
433.409	0.15	866818	keystroke_t	t	n/a
433.529	0.075	867058	keystroke_e	e	n/a
433.694	0.075	867388	keystroke_d	d	n/a
433.814	0.075	867628	keystroke_Key.enter	Key.enter	n/a
433.901	5.3445	867802	prompt	n/a	score paste oldest drum\n
434.789	0.12	869578	keystroke_s	s	n/a
434.879	0.075	869758	keystroke_c	c	n/a
434.969	0.135	869938	keystroke_o	o	n/a
435.119	0.105	870238	keystroke_r	r	n/a
435.179	0.09	870358	keystroke_e	e	n/a
435.284	0.09	870568	keystroke_Key.space	Key.space	n/a
435.644	0.09	871288	keystroke_p	p	n/a
435.749	0.12	871498	keystroke_a	a	n/a
435.824	0.105	871648	keystroke_s	s	n/a
436.064	0.09	872128	keystroke_t	t	n/a
436.169	0.09	872338	keystroke_e	e	n/a
436.3485	0.105	872697	keystroke_Key.space	Key.space	n/a
437.084	0.075	874168	keystroke_o	o	n/a
437.279	0.09	874558	keystroke_l	l	n/a
437.384	0.0745	874768	keystroke_d	d	n/a
437.5485	0.06	875097	keystroke_e	e	n/a
437.7135	0.075	875427	keystroke_s	s	n/a
437.8935	0.0605	875787	keystroke_t	t	n/a
437.984	0.105	875968	keystroke_Key.space	Key.space	n/a
438.404	0.06	876808	keystroke_d	d	n/a
438.629	0.09	877258	keystroke_r	r	n/a
438.704	0.09	877408	keystroke_u	u	n/a
438.9435	0.075	877887	keystroke_m	m	n/a
439.1835	0.06	878367	keystroke_Key.enter	Key.enter	n/a
439.2485	11.7415	878497	prompt	n/a	trials operate report responsibilities\n
440.249	0.105	880498	keystroke_t	t	n/a
440.264	0.135	880528	keystroke_r	r	n/a
440.474	0.09	880948	keystroke_i	i	n/a
440.594	0.09	881188	keystroke_a	a	n/a
440.7735	0.06	881547	keystroke_l	l	n/a
440.8785	0.0895	881757	keystroke_s	s	n/a
440.983	0.105	881966	keystroke_Key.space	Key.space	n/a
441.643	0.12	883286	keystroke_o	o	n/a
441.703	0.09	883406	keystroke_p	p	n/a
441.823	0.135	883646	keystroke_e	e	n/a
441.883	0.12	883766	keystroke_r	r	n/a
442.0485	0.09	884097	keystroke_a	a	n/a
442.1535	0.135	884307	keystroke_t	t	n/a
442.2735	0.075	884547	keystroke_e	e	n/a
442.3635	0.105	884727	keystroke_Key.space	Key.space	n/a
443.024	0.12	886048	keystroke_r	r	n/a
443.054	0.1045	886108	keystroke_e	e	n/a
443.2035	0.1805	886407	keystroke_p	p	n/a
443.2635	0.1355	886527	keystroke_o	o	n/a
443.504	0.105	887008	keystroke_r	r	n/a
443.534	0.12	887068	keystroke_t	t	n/a
443.788	0.12	887576	keystroke_Key.space	Key.space	n/a
444.284	0.09	888568	keystroke_r	r	n/a
444.314	0.105	888628	keystroke_e	e	n/a
444.959	0.1045	889918	keystroke_s	s	n/a
445.0485	0.165	890097	keystroke_o	o	n/a
445.1535	0.1195	890307	keystroke_n	n	n/a
445.7835	0.075	891567	keystroke_Key.backspace	Key.backspace	n/a
445.9185	0.105	891837	keystroke_Key.backspace	Key.backspace	n/a
446.713	0.076	893426	keystroke_p	p	n/a
446.939	0.09	893878	keystroke_o	o	n/a
446.954	0.135	893908	keystroke_n	n	n/a
447.284	0.105	894568	keystroke_s	s	n/a
447.4035	0.09	894807	keystroke_i	i	n/a
447.539	0.075	895078	keystroke_b	b	n/a
447.629	0.0745	895258	keystroke_i	i	n/a
448.0185	0.075	896037	keystroke_i	i	n/a
448.5285	0.105	897057	keystroke_Key.backspace	Key.backspace	n/a
449.4135	0.075	898827	keystroke_l	l	n/a
449.6385	0.045	899277	keystroke_i	i	n/a
449.7735	0.12	899547	keystroke_t	t	n/a
450.3735	0.12	900747	keystroke_i	i	n/a
450.5085	0.0755	901017	keystroke_e	e	n/a
450.674	0.105	901348	keystroke_s	s	n/a
450.899	0.09	901798	keystroke_Key.enter	Key.enter	n/a
450.9925	9.193	901985	prompt	n/a	traveller grey sent approach\n
451.754	0.105	903508	keystroke_t	t	n/a
451.799	0.1045	903598	keystroke_r	r	n/a
451.9935	0.135	903987	keystroke_a	a	n/a
452.1285	0.105	904257	keystroke_v	v	n/a
452.2785	0.09	904557	keystroke_e	e	n/a
452.4135	0.09	904827	keystroke_l	l	n/a
452.7135	0.09	905427	keystroke_e	e	n/a
453.178	0.1055	906356	keystroke_Key.backspace	Key.backspace	n/a
453.4485	0.09	906897	keystroke_l	l	n/a
453.4935	0.015	906987	keystroke_;	;	n/a
453.5835	0.12	907167	keystroke_e	e	n/a
453.6285	0.12	907257	keystroke_r	r	n/a
453.8085	0.105	907617	keystroke_Key.space	Key.space	n/a
454.2735	0.09	908547	keystroke_Key.backspace	Key.backspace	n/a
454.4385	0.075	908877	keystroke_Key.backspace	Key.backspace	n/a
454.604	0.075	909208	keystroke_Key.backspace	Key.backspace	n/a
454.7385	0.09	909477	keystroke_Key.backspace	Key.backspace	n/a
455.0535	0.09	910107	keystroke_e	e	n/a
455.0835	0.105	910167	keystroke_r	r	n/a
455.2035	0.09	910407	keystroke_Key.space	Key.space	n/a
455.7435	0.18	911487	keystroke_g	g	n/a
455.7885	0.15	911577	keystroke_r	r	n/a
456.104	0.135	912208	keystroke_e	e	n/a
456.119	0.09	912238	keystroke_w	w	n/a
456.8085	0.105	913617	keystroke_Key.backspace	Key.backspace	n/a
457.3785	0.0905	914757	keystroke_y	y	n/a
457.5135	0.075	915027	keystroke_Key.space	Key.space	n/a
457.6335	0.09	915267	keystroke_s	s	n/a
457.8585	0.075	915717	keystroke_e	e	n/a
457.9785	0.075	915957	keystroke_n	n	n/a
458.0685	0.075	916137	keystroke_t	t	n/a
458.1585	0.09	916317	keystroke_Key.space	Key.space	n/a
459.0435	0.165	918087	keystroke_a	a	n/a
459.1635	0.09	918327	keystroke_p	p	n/a
459.3135	0.09	918627	keystroke_p	p	n/a
459.4185	0.105	918837	keystroke_r	r	n/a
459.5385	0.06	919077	keystroke_o	o	n/a
459.6285	0.12	919257	keystroke_a	a	n/a
459.7185	0.105	919437	keystroke_c	c	n/a
459.8835	0.105	919767	keystroke_h	h	n/a
460.0635	0.12	920127	keystroke_Key.enter	Key.enter	n/a
460.196	8.299	920392	prompt	n/a	water submitting birthday eval\n
460.963	0.09	921926	keystroke_w	w	n/a
461.143	0.075	922286	keystroke_a	a	n/a
461.278	0.075	922556	keystroke_t	t	n/a
461.4135	0.105	922827	keystroke_e	e	n/a
461.4735	0.075	922947	keystroke_r	r	n/a
461.5785	0.09	923157	keystroke_Key.space	Key.space	n/a
461.9085	0.09	923817	keystroke_s	s	n/a
462.1785	0.165	924357	keystroke_u	u	n/a
462.2535	0.105	924507	keystroke_b	b	n/a
462.5085	0.075	925017	keystroke_m	m	n/a
462.6735	0.09	925347	keystroke_i	i	n/a
462.7935	0.21	925587	keystroke_t	t	n/a
463.064	0.135	926128	keystroke_i	i	n/a
463.319	0.12	926638	keystroke_n	n	n/a
463.484	0.105	926968	keystroke_g	g	n/a
463.694	0.12	927388	keystroke_Key.space	Key.space	n/a
464.084	0.075	928168	keystroke_Key.backspace	Key.backspace	n/a
464.249	0.045	928498	keystroke_Key.backspace	Key.backspace	n/a
464.354	0.09	928708	keystroke_Key.backspace	Key.backspace	n/a
464.489	0.075	928978	keystroke_Key.backspace	Key.backspace	n/a
464.713	0.091	929426	keystroke_t	t	n/a
464.864	0.12	929728	keystroke_i	i	n/a
464.923	0.09	929846	keystroke_n	n	n/a
464.999	0.075	929998	keystroke_g	g	n/a
465.088	0.12	930176	keystroke_Key.space	Key.space	n/a
466.0185	0.105	932037	keystroke_b	b	n/a
466.0935	0.12	932187	keystroke_i	i	n/a
466.2285	0.075	932457	keystroke_r	r	n/a
466.4535	0.09	932907	keystroke_t	t	n/a
466.4985	0.09	932997	keystroke_h	h	n/a
466.8285	0.105	933657	keystroke_d	d	n/a
466.8735	0.105	933747	keystroke_a	a	n/a
466.9935	0.075	933987	keystroke_y	y	n/a
467.1135	0.09	934227	keystroke_Key.space	Key.space	n/a
467.6535	0.12	935307	keystroke_e	e	n/a
467.7745	0.164	935549	keystroke_v	v	n/a
468.014	0.12	936028	keystroke_a	a	n/a
468.149	0.075	936298	keystroke_l	l	n/a
468.449	0.045	936898	keystroke_Key.enter	Key.enter	n/a
468.5055	6.3045	937011	prompt	n/a	walls presenting wiley payroll\n
469.3035	0.075	938607	keystroke_w	w	n/a
469.4535	0.09	938907	keystroke_a	a	n/a
469.5585	0.09	939117	keystroke_l	l	n/a
469.6785	0.12	939357	keystroke_l	l	n/a
469.8135	0.105	939627	keystroke_s	s	n/a
469.9035	0.09	939807	keystroke_Key.space	Key.space	n/a
470.1585	0.075	940317	keystroke_p	p	n/a
470.2345	0.089	940469	keystroke_r	r	n/a
470.2635	0.09	940527	keystroke_e	e	n/a
470.4585	0.045	940917	keystroke_s	s	n/a
470.6085	0.1055	941217	keystroke_e	e	n/a
470.714	0.089	941428	keystroke_n	n	n/a
470.834	0.059	941668	keystroke_t	t	n/a
470.9535	0.105	941907	keystroke_i	i	n/a
470.9985	0.075	941997	keystroke_n	n	n/a
471.0435	0.09	942087	keystroke_g	g	n/a
471.1785	0.09	942357	keystroke_Key.space	Key.space	n/a
471.4485	0.09	942897	keystroke_w	w	n/a
471.5535	0.075	943107	keystroke_i	i	n/a
471.7785	0.06	943557	keystroke_l	l	n/a
472.0035	0.12	944007	keystroke_e	e	n/a
472.2435	0.0455	944487	keystroke_y	y	n/a
472.424	0.09	944848	keystroke_Key.space	Key.space	n/a
473.1735	0.09	946347	keystroke_p	p	n/a
473.3235	0.12	946647	keystroke_a	a	n/a
473.5935	0.0745	947187	keystroke_y	y	n/a
473.833	0.0605	947666	keystroke_r	r	n/a
473.9385	0.09	947877	keystroke_o	o	n/a
474.3585	0.045	948717	keystroke_l	l	n/a
474.5085	0.045	949017	keystroke_l	l	n/a
474.7635	0.045	949527	keystroke_Key.enter	Key.enter	n/a
474.8125	6.3735	949625	prompt	n/a	bracelet anthony assessment square\n
475.8435	0.09	951687	keystroke_b	b	n/a
475.9185	0.075	951837	keystroke_r	r	n/a
476.1285	0.135	952257	keystroke_a	a	n/a
476.2785	0.18	952557	keystroke_c	c	n/a
476.3835	0.12	952767	keystroke_e	e	n/a
476.6685	0.0745	953337	keystroke_l	l	n/a
476.8635	0.09	953727	keystroke_e	e	n/a
477.0735	0.075	954147	keystroke_t	t	n/a
477.1935	0.105	954387	keystroke_Key.space	Key.space	n/a
477.3585	0.105	954717	keystroke_a	a	n/a
477.4785	0.09	954957	keystroke_n	n	n/a
477.6585	0.1355	955317	keystroke_t	t	n/a
477.749	0.105	955498	keystroke_h	h	n/a
477.839	0.135	955678	keystroke_o	o	n/a
477.884	0.135	955768	keystroke_n	n	n/a
478.004	0.0745	956008	keystroke_y	y	n/a
478.1085	0.09	956217	keystroke_Key.space	Key.space	n/a
478.3635	0.105	956727	keystroke_a	a	n/a
478.4385	0.06	956877	keystroke_s	s	n/a
478.6185	0.09	957237	keystroke_s	s	n/a
478.7985	0.075	957597	keystroke_e	e	n/a
478.9485	0.075	957897	keystroke_s	s	n/a
479.099	0.089	958198	keystroke_s	s	n/a
479.338	0.105	958676	keystroke_m	m	n/a
479.459	0.074	958918	keystroke_e	e	n/a
479.593	0.075	959186	keystroke_n	n	n/a
479.698	0.06	959396	keystroke_t	t	n/a
479.773	0.09	959546	keystroke_Key.space	Key.space	n/a
480.373	0.105	960746	keystroke_s	s	n/a
480.583	0.09	961166	keystroke_q	q	n/a
480.7185	0.0755	961437	keystroke_u	u	n/a
480.809	0.0745	961618	keystroke_a	a	n/a
480.9585	0.105	961917	keystroke_r	r	n/a
481.0185	0.075	962037	keystroke_e	e	n/a
481.1085	0.075	962217	keystroke_Key.enter	Key.enter	n/a
481.1945	5.4955	962389	prompt	n/a	memphis outlet reserve spine\n
481.9485	0.06	963897	keystroke_m	m	n/a
481.9935	0.105	963987	keystroke_e	e	n/a
482.1135	0.09	964227	keystroke_m	m	n/a
482.2785	0.09	964557	keystroke_p	p	n/a
482.5185	0.075	965037	keystroke_h	h	n/a
482.6235	0.06	965247	keystroke_i	i	n/a
483.059	0.09	966118	keystroke_s	s	n/a
483.194	0.0895	966388	keystroke_Key.space	Key.space	n/a
483.5235	0.15	967047	keystroke_o	o	n/a
483.6135	0.105	967227	keystroke_u	u	n/a
483.7335	0.09	967467	keystroke_t	t	n/a
483.8535	0.105	967707	keystroke_l	l	n/a
484.0185	0.09	968037	keystroke_e	e	n/a
484.1835	0.075	968367	keystroke_t	t	n/a
484.2885	0.105	968577	keystroke_Key.space	Key.space	n/a
484.4985	0.1195	968997	keystroke_r	r	n/a
484.558	0.0755	969116	keystroke_e	e	n/a
484.739	0.075	969478	keystroke_s	s	n/a
484.919	0.09	969838	keystroke_e	e	n/a
484.964	0.105	969928	keystroke_r	r	n/a
485.219	0.165	970438	keystroke_v	v	n/a
485.369	0.0895	970738	keystroke_e	e	n/a
485.5335	0.12	971067	keystroke_Key.space	Key.space	n/a
485.9385	0.075	971877	keystroke_s	s	n/a
486.0285	0.0895	972057	keystroke_p	p	n/a
486.268	0.075	972536	keystroke_i	i	n/a
486.298	0.105	972596	keystroke_n	n	n/a
486.373	0.09	972746	keystroke_e	e	n/a
486.613	0.075	973226	keystroke_Key.enter	Key.enter	n/a
486.6925	8.667	973385	prompt	n/a	premium foods dual nasdaq\n
487.379	0.105	974758	keystroke_p	p	n/a
487.499	0.105	974998	keystroke_r	r	n/a
487.559	0.09	975118	keystroke_e	e	n/a
488.564	0.09	977128	keystroke_m	m	n/a
488.8785	0.06	977757	keystroke_i	i	n/a
489.058	0.06	978116	keystroke_u	u	n/a
489.269	0.045	978538	keystroke_m	m	n/a
489.448	0.075	978896	keystroke_Key.space	Key.space	n/a
490.438	0.075	980876	keystroke_f	f	n/a
490.529	0.06	981058	keystroke_o	o	n/a
490.663	0.0905	981326	keystroke_o	o	n/a
490.7685	0.135	981537	keystroke_d	d	n/a
490.8435	0.105	981687	keystroke_s	s	n/a
490.9185	0.105	981837	keystroke_Key.space	Key.space	n/a
491.5185	0.075	983037	keystroke_d	d	n/a
491.6385	0.105	983277	keystroke_u	u	n/a
491.8335	0.09	983667	keystroke_a	a	n/a
491.9385	0.09	983877	keystroke_l	l	n/a
492.0735	0.075	984147	keystroke_Key.space	Key.space	n/a
492.7185	0.09	985437	keystroke_n	n	n/a
492.8685	0.06	985737	keystroke_s	s	n/a
492.8835	0.15	985767	keystroke_a	a	n/a
492.9585	0.1505	985917	keystroke_s	s	n/a
493.484	0.105	986968	keystroke_d	d	n/a
493.693	0.105	987386	keystroke_a	a	n/a
493.918	0.046	987836	keystroke_w	w	n/a
494.3835	0.09	988767	keystroke_Key.backspace	Key.backspace	n/a
494.5185	0.12	989037	keystroke_q	q	n/a
495.2535	0.105	990507	keystroke_Key.enter	Key.enter	n/a
495.3705	7.6095	990741	prompt	n/a	certification ciao offshore rachel\n
496.393	0.12	992786	keystroke_c	c	n/a
496.603	0.105	993206	keystroke_e	e	n/a
496.678	0.075	993356	keystroke_r	r	n/a
496.8435	0.075	993687	keystroke_t	t	n/a
497.2635	0.075	994527	keystroke_i	i	n/a
497.3835	0.075	994767	keystroke_f	f	n/a
497.4735	0.105	994947	keystroke_i	i	n/a
497.6235	0.12	995247	keystroke_c	c	n/a
497.7285	0.075	995457	keystroke_a	a	n/a
497.9085	0.045	995817	keystroke_t	t	n/a
497.9985	0.075	995997	keystroke_i	i	n/a
498.0135	0.105	996027	keystroke_o	o	n/a
498.1635	0.12	996327	keystroke_n	n	n/a
498.2685	0.075	996537	keystroke_Key.space	Key.space	n/a
499.3335	0.105	998667	keystroke_c	c	n/a
499.4535	0.075	998907	keystroke_i	i	n/a
499.5885	0.12	999177	keystroke_a	a	n/a
499.7835	0.09	999567	keystroke_o	o	n/a
499.9335	0.09	999867	keystroke_Key.space	Key.space	n/a
500.2935	0.075	1000587	keystroke_o	o	n/a
500.4585	0.045	1000917	keystroke_f	f	n/a
500.5635	0.105	1001127	keystroke_f	f	n/a
500.7885	0.09	1001577	keystroke_s	s	n/a
500.8935	0.105	1001787	keystroke_h	h	n/a
500.9835	0.105	1001967	keystroke_o	o	n/a
501.0435	0.135	1002087	keystroke_r	r	n/a
501.1185	0.12	1002237	keystroke_e	e	n/a
501.2535	0.075	1002507	keystroke_Key.space	Key.space	n/a
501.8085	0.045	1003617	keystroke_r	r	n/a
501.8835	0.12	1003767	keystroke_a	a	n/a
502.0185	0.15	1004037	keystroke_c	c	n/a
502.1985	0.06	1004397	keystroke_h	h	n/a
502.2735	0.12	1004547	keystroke_e	e	n/a
502.4385	0.105	1004877	keystroke_l	l	n/a
502.889	0.09	1005778	keystroke_Key.enter	Key.enter	n/a
502.9905	12.379	1005981	prompt	n/a	there'd winston networking philosophy\n
503.849	0.105	1007698	keystroke_t	t	n/a
503.893	0.091	1007786	keystroke_h	h	n/a
504.104	0.0895	1008208	keystroke_e	e	n/a
504.1635	0.12	1008327	keystroke_r	r	n/a
504.2535	0.105	1008507	keystroke_e	e	n/a
505.4985	0.075	1010997	keystroke_'	'	n/a
505.7235	0.075	1011447	keystroke_d	d	n/a
505.8735	0.075	1011747	keystroke_Key.space	Key.space	n/a
506.5935	0.105	1013187	keystroke_w	w	n/a
506.7135	0.12	1013427	keystroke_i	i	n/a
506.7735	0.12	1013547	keystroke_n	n	n/a
506.8785	0.075	1013757	keystroke_s	s	n/a
507.0735	0.045	1014147	keystroke_t	t	n/a
507.1485	0.12	1014297	keystroke_o	o	n/a
507.2085	0.105	1014417	keystroke_n	n	n/a
507.3435	0.09	1014687	keystroke_Key.space	Key.space	n/a
507.6435	0.0745	1015287	keystroke_n	n	n/a
507.748	0.136	1015496	keystroke_e	e	n/a
507.824	0.119	1015648	keystroke_t	t	n/a
508.064	0.134	1016128	keystroke_w	w	n/a
508.213	0.12	1016426	keystroke_o	o	n/a
508.378	0.09	1016756	keystroke_r	r	n/a
508.513	0.09	1017026	keystroke_k	k	n/a
508.7535	0.105	1017507	keystroke_i	i	n/a
508.7985	0.075	1017597	keystroke_n	n	n/a
508.8435	0.09	1017687	keystroke_g	g	n/a
508.9935	0.09	1017987	keystroke_Key.space	Key.space	n/a
509.5485	0.075	1019097	keystroke_p	p	n/a
509.9235	0.12	1019847	keystroke_h	h	n/a
510.1335	0.045	1020267	keystroke_o	o	n/a
510.703	0.105	1021406	keystroke_Key.backspace	Key.backspace	n/a
511.243	0.105	1022486	keystroke_i	i	n/a
511.483	0.075	1022966	keystroke_l	l	n/a
511.663	0.06	1023326	keystroke_o	o	n/a
511.8885	0.105	1023777	keystroke_s	s	n/a
512.0235	0.105	1024047	keystroke_p	p	n/a
512.4885	0.09	1024977	keystroke_Key.backspace	Key.backspace	n/a
512.6985	0.0745	1025397	keystroke_o	o	n/a
513.028	0.09	1026056	keystroke_h	h	n/a
513.2235	0.06	1026447	keystroke_p	p	n/a
513.6435	0.06	1027287	keystroke_Key.backspace	Key.backspace	n/a
513.7635	0.105	1027527	keystroke_Key.backspace	Key.backspace	n/a
513.9885	0.09	1027977	keystroke_p	p	n/a
514.0635	0.075	1028127	keystroke_h	h	n/a
514.9335	0.075	1029867	keystroke_y	y	n/a
515.0685	0.09	1030137	keystroke_Key.space	Key.space	n/a
515.3085	0.06	1030617	keystroke_Key.enter	Key.enter	n/a
515.3835	6.0915	1030767	prompt	n/a	patio religion hired ensure\n
516.2985	0.075	1032597	keystroke_p	p	n/a
516.3585	0.09	1032717	keystroke_a	a	n/a
516.6135	0.075	1033227	keystroke_t	t	n/a
516.7485	0.12	1033497	keystroke_i	i	n/a
516.8085	0.09	1033617	keystroke_o	o	n/a
517.2435	0.1045	1034487	keystroke_Key.space	Key.space	n/a
517.858	0.12	1035716	keystroke_r	r	n/a
517.9185	0.12	1035837	keystroke_e	e	n/a
517.993	0.0755	1035986	keystroke_l	l	n/a
518.218	0.135	1036436	keystroke_i	i	n/a
518.938	0.075	1037876	keystroke_g	g	n/a
519.028	0.105	1038056	keystroke_i	i	n/a
519.073	0.12	1038146	keystroke_o	o	n/a
519.268	0.105	1038536	keystroke_n	n	n/a
519.388	0.075	1038776	keystroke_Key.space	Key.space	n/a
519.9885	0.15	1039977	keystroke_h	h	n/a
520.1085	0.12	1040217	keystroke_i	i	n/a
520.1985	0.134	1040397	keystroke_r	r	n/a
520.2735	0.12	1040547	keystroke_e	e	n/a
520.4685	0.1205	1040937	keystroke_d	d	n/a
520.6025	0.091	1041205	keystroke_Key.space	Key.space	n/a
520.738	0.09	1041476	keystroke_e	e	n/a
520.843	0.09	1041686	keystroke_n	n	n/a
520.948	0.105	1041896	keystroke_s	s	n/a
521.113	0.075	1042226	keystroke_u	u	n/a
521.218	0.06	1042436	keystroke_r	r	n/a
521.233	0.105	1042466	keystroke_e	e	n/a
521.3835	0.09	1042767	keystroke_Key.enter	Key.enter	n/a
521.4775	5.517	1042955	prompt	n/a	veterans bring prince workers\n
522.4335	0.105	1044867	keystroke_v	v	n/a
522.5235	0.1045	1045047	keystroke_e	e	n/a
522.8535	0.105	1045707	keystroke_t	t	n/a
523.0335	0.1495	1046067	keystroke_e	e	n/a
523.0935	0.1195	1046187	keystroke_r	r	n/a
523.303	0.09	1046606	keystroke_a	a	n/a
523.483	0.105	1046966	keystroke_n	n	n/a
523.603	0.09	1047206	keystroke_s	s	n/a
523.708	0.105	1047416	keystroke_Key.space	Key.space	n/a
523.978	0.075	1047956	keystroke_b	b	n/a
524.113	0.075	1048226	keystroke_r	r	n/a
524.233	0.12	1048466	keystroke_i	i	n/a
524.278	0.09	1048556	keystroke_n	n	n/a
524.428	0.09	1048856	keystroke_g	g	n/a
524.503	0.105	1049006	keystroke_Key.space	Key.space	n/a
525.2535	0.135	1050507	keystroke_p	p	n/a
525.4485	0.09	1050897	keystroke_r	r	n/a
525.5835	0.105	1051167	keystroke_i	i	n/a
525.6435	0.075	1051287	keystroke_n	n	n/a
525.6885	0.15	1051377	keystroke_c	c	n/a
525.7785	0.12	1051557	keystroke_e	e	n/a
525.8535	0.09	1051707	keystroke_Key.space	Key.space	n/a
526.0035	0.0895	1052007	keystroke_w	w	n/a
526.063	0.105	1052126	keystroke_o	o	n/a
526.183	0.075	1052366	keystroke_r	r	n/a
526.288	0.09	1052576	keystroke_k	k	n/a
526.498	0.09	1052996	keystroke_e	e	n/a
526.543	0.09	1053086	keystroke_r	r	n/a
526.708	0.1055	1053416	keystroke_s	s	n/a
526.9035	0.09	1053807	keystroke_Key.enter	Key.enter	n/a
526.997	7.4825	1053994	prompt	n/a	exploration trick sheets operate\n
528.1175	0.0605	1056235	keystroke_e	e	n/a
528.448	0.09	1056896	keystroke_x	x	n/a
528.568	0.135	1057136	keystroke_p	p	n/a
528.613	0.12	1057226	keystroke_l	l	n/a
528.898	0.03	1057796	keystroke_o	o	n/a
528.958	0.24	1057916	keystroke_o	o	n/a
530.0525	0.0755	1060105	keystroke_Key.backspace	Key.backspace	n/a
530.248	0.12	1060496	keystroke_r	r	n/a
530.383	0.09	1060766	keystroke_a	a	n/a
530.533	0.09	1061066	keystroke_t	t	n/a
530.653	0.12	1061306	keystroke_i	i	n/a
530.728	0.12	1061456	keystroke_o	o	n/a
530.9085	0.075	1061817	keystroke_n	n	n/a
531.4035	0.09	1062807	keystroke_Key.space	Key.space	n/a
531.8685	0.105	1063737	keystroke_t	t	n/a
531.9135	0.105	1063827	keystroke_r	r	n/a
532.0635	0.09	1064127	keystroke_i	i	n/a
532.1835	0.105	1064367	keystroke_c	c	n/a
532.3035	0.075	1064607	keystroke_k	k	n/a
