onset	duration	sample	value	key	prompt_text
8.1515	12.831	16303	prompt	n/a	the quick brown fox jumps over a lazy dog\n
11.2025	0.117	22405	keystroke_t	t	n/a
11.2595	0.0895	22519	keystroke_h	h	n/a
13.044	0.075	26088	keystroke_e	e	n/a
13.2245	0.105	26449	keystroke_Key.space	Key.space	n/a
13.3145	0.105	26629	keystroke_q	q	n/a
13.4795	0.1345	26959	keystroke_u	u	n/a
13.584	0.1055	27168	keystroke_i	i	n/a
13.7195	0.09	27439	keystroke_c	c	n/a
13.8995	0.135	27799	keystroke_k	k	n/a
14.0495	0.1205	28099	keystroke_Key.space	Key.space	n/a
14.3795	0.09	28759	keystroke_b	b	n/a
14.769	0.0755	29538	keystroke_r	r	n/a
14.9945	0.1045	29989	keystroke_o	o	n/a
15.145	0.0895	30290	keystroke_w	w	n/a
15.325	0.1045	30650	keystroke_n	n	n/a
15.5195	0.0895	31039	keystroke_Key.space	Key.space	n/a
15.8345	0.1195	31669	keystroke_f	f	n/a
16.0445	0.1055	32089	keystroke_o	o	n/a
16.2245	0.105	32449	keystroke_x	x	n/a
16.69	0.135	33380	keystroke_Key.space	Key.space	n/a
16.945	0.074	33890	keystroke_j	j	n/a
17.1545	0.0745	34309	keystroke_u	u	n/a
17.379	0.091	34758	keystroke_m	m	n/a
17.574	0.091	35148	keystroke_p	p	n/a
18.04	0.075	36080	keystroke_s	s	n/a
18.219	0.165	36438	keystroke_Key.space	Key.space	n/a
18.354	0.15	36708	keystroke_o	o	n/a
18.474	0.075	36948	keystroke_v	v	n/a
18.669	0.121	37338	keystroke_e	e	n/a
18.759	0.09	37518	keystroke_r	r	n/a
18.894	0.105	37788	keystroke_Key.space	Key.space	n/a
19.029	0.09	38058	keystroke_a	a	n/a
19.134	0.09	38268	keystroke_Key.space	Key.space	n/a
19.195	0.12	38390	keystroke_l	l	n/a
19.299	0.046	38598	keystroke_a	a	n/a
19.465	0.089	38930	keystroke_z	z	n/a
19.599	0.166	39198	keystroke_y	y	n/a
20.154	0.121	40308	keystroke_Key.space	Key.space	n/a
20.409	0.076	40818	keystroke_d	d	n/a
20.545	0.09	41090	keystroke_o	o	n/a
20.665	0.075	41330	keystroke_g	g	n/a
20.919	0.06	41838	keystroke_Key.enter	Key.enter	n/a
20.9865	10.5555	41973	prompt	n/a	uganda understood components marathon\n
22.0445	0.075	44089	keystroke_u	u	n/a
22.3895	0.06	44779	keystroke_g	g	n/a
22.7045	0.075	45409	keystroke_a	a	n/a
22.885	0.0895	45770	keystroke_n	n	n/a
23.005	0.0745	46010	keystroke_d	d	n/a
23.3045	0.045	46609	keystroke_a	a	n/a
23.7995	0.1045	47599	keystroke_Key.space	Key.space	n/a
24.07	0.09	48140	keystroke_u	u	n/a
24.295	0.089	48590	keystroke_n	n	n/a
24.475	0.09	48950	keystroke_d	d	n/a
24.685	0.1945	49370	keystroke_e	e	n/a
24.85	0.105	49700	keystroke_r	r	n/a
25.105	0.09	50210	keystroke_s	s	n/a
25.255	0.0595	50510	keystroke_t	t	n/a
25.7645	0.0305	51529	keystroke_o	o	n/a
25.8845	0.09	51769	keystroke_o	o	n/a
26.035	0.0895	52070	keystroke_d	d	n/a
26.3345	0.12	52669	keystroke_Key.space	Key.space	n/a
26.5895	0.135	53179	keystroke_c	c	n/a
26.7845	0.105	53569	keystroke_o	o	n/a
26.95	0.0895	53900	keystroke_m	m	n/a
27.22	0.1045	54440	keystroke_p	p	n/a
27.5645	0.1205	55129	keystroke_o	o	n/a
28.405	0.09	56810	keystroke_n	n	n/a
28.525	0.06	57050	keystroke_e	e	n/a
28.645	0.06	57290	keystroke_n	n	n/a
28.765	0.075	57530	keystroke_t	t	n/a
29.08	0.045	58160	keystroke_s	s	n/a
29.41	0.09	58820	keystroke_Key.space	Key.space	n/a
29.635	0.09	59270	keystroke_m	m	n/a
29.77	0.075	59540	keystroke_a	a	n/a
29.994	0.046	59988	keystroke_r	r	n/a
30.16	0.06	60320	keystroke_a	a	n/a
30.504	0.136	61008	keystroke_t	t	n/a
30.61	0.0745	61220	keystroke_h	h	n/a
30.7895	0.12	61579	keystroke_o	o	n/a
31.0445	0.09	62089	keystroke_n	n	n/a
31.4195	0.12	62839	keystroke_Key.enter	Key.enter	n/a
31.546	8.261	63092	prompt	n/a	mario academy chaos lemon\n
32.1995	0.135	64399	keystroke_m	m	n/a
32.3495	0.06	64699	keystroke_a	a	n/a
32.5445	0.075	65089	keystroke_r	r	n/a
32.6645	0.1355	65329	keystroke_i	i	n/a
32.9945	0.105	65989	keystroke_o	o	n/a
33.25	0.105	66500	keystroke_Key.space	Key.space	n/a
33.46	0.075	66920	keystroke_a	a	n/a
33.7145	0.075	67429	keystroke_c	c	n/a
33.925	0.06	67850	keystroke_a	a	n/a
34.119	0.091	68238	keystroke_d	d	n/a
34.8245	0.09	69649	keystroke_e	e	n/a
35.125	0.0895	70250	keystroke_m	m	n/a
35.2745	0.0605	70549	keystroke_y	y	n/a
35.5	0.0895	71000	keystroke_Key.space	Key.space	n/a
35.7395	0.076	71479	keystroke_c	c	n/a
35.8905	0.134	71781	keystroke_h	h	n/a
36.0695	0.135	72139	keystroke_o	o	n/a
36.2195	0.1655	72439	keystroke_a	a	n/a
36.3695	0.09	72739	keystroke_s	s	n/a
36.6995	0.0755	73399	keystroke_Key.backspace	Key.backspace	n/a
36.8645	0.075	73729	keystroke_Key.backspace	Key.backspace	n/a
36.9995	0.0755	73999	keystroke_Key.backspace	Key.backspace	n/a
37.1955	0.104	74391	keystroke_a	a	n/a
37.3445	0.105	74689	keystroke_o	o	n/a
37.4945	0.0755	74989	keystroke_s	s	n/a
37.8095	0.06	75619	keystroke_t	t	n/a
38.2	0.0895	76400	keystroke_Key.backspace	Key.backspace	n/a
38.5	0.075	77000	keystroke_Key.space	Key.space	n/a
38.7995	0.06	77599	keystroke_l	l	n/a
38.9345	0.09	77869	keystroke_e	e	n/a
39.0695	0.12	78139	keystroke_m	m	n/a
39.2045	0.09	78409	keystroke_o	o	n/a
39.4145	0.075	78829	keystroke_n	n	n/a
39.7295	0.075	79459	keystroke_Key.enter	Key.enter	n/a
39.811	9.4465	79622	prompt	n/a	plaintiff impact kitty contributor\n
40.5545	0.1055	81109	keystroke_p	p	n/a
41.1245	0.1055	82249	keystroke_l	l	n/a
41.3195	0.075	82639	keystroke_a	a	n/a
41.5745	0.075	83149	keystroke_i	i	n/a
41.8895	0.09	83779	keystroke_n	n	n/a
42.1895	0.075	84379	keystroke_t	t	n/a
42.3845	0.09	84769	keystroke_i	i	n/a
42.535	0.0745	85070	keystroke_f	f	n/a
42.6995	0.0605	85399	keystroke_f	f	n/a
43.1945	0.0905	86389	keystroke_Key.space	Key.space	n/a
43.4345	0.0755	86869	keystroke_i	i	n/a
43.6445	0.06	87289	keystroke_m	m	n/a
43.8395	0.09	87679	keystroke_p	p	n/a
43.9445	0.075	87889	keystroke_a	a	n/a
44.17	0.09	88340	keystroke_c	c	n/a
44.425	0.09	88850	keystroke_t	t	n/a
44.53	0.135	89060	keystroke_Key.space	Key.space	n/a
44.65	0.075	89300	keystroke_k	k	n/a
44.86	0.075	89720	keystroke_i	i	n/a
44.995	0.06	89990	keystroke_t	t	n/a
45.13	0.075	90260	keystroke_t	t	n/a
45.535	0.06	91070	keystroke_y	y	n/a
45.775	0.09	91550	keystroke_Key.space	Key.space	n/a
45.985	0.105	91970	keystroke_c	c	n/a
46.075	0.075	92150	keystroke_o	o	n/a
46.285	0.15	92570	keystroke_n	n	n/a
46.45	0.09	92900	keystroke_t	t	n/a
46.525	0.09	93050	keystroke_r	r	n/a
47.02	0.075	94040	keystroke_i	i	n/a
47.875	0.075	95750	keystroke_b	b	n/a
48.04	0.09	96080	keystroke_u	u	n/a
48.19	0.075	96380	keystroke_t	t	n/a
48.34	0.1045	96680	keystroke_o	o	n/a
48.535	0.06	97070	keystroke_r	r	n/a
49.165	0.09	98330	keystroke_Key.enter	Key.enter	n/a
49.26	6.343	98520	prompt	n/a	singles timber series ratio\n
49.7945	0.075	99589	keystroke_s	s	n/a
49.9605	0.06	99921	keystroke_i	i	n/a
50.1705	0.074	100341	keystroke_n	n	n/a
50.2905	0.0595	100581	keystroke_g	g	n/a
50.4555	0.0745	100911	keystroke_l	l	n/a
50.5305	0.0745	101061	keystroke_e	e	n/a
50.74	0.045	101480	keystroke_s	s	n/a
51.025	0.12	102050	keystroke_Key.space	Key.space	n/a
51.34	0.06	102680	keystroke_t	t	n/a
51.445	0.06	102890	keystroke_i	i	n/a
51.6845	0.0905	103369	keystroke_m	m	n/a
51.7595	0.06	103519	keystroke_b	b	n/a
51.985	0.1045	103970	keystroke_e	e	n/a
52.105	0.1345	104210	keystroke_r	r	n/a
52.45	0.105	104900	keystroke_Key.space	Key.space	n/a
52.5695	0.06	105139	keystroke_s	s	n/a
52.7645	0.105	105529	keystroke_e	e	n/a
52.8545	0.0905	105709	keystroke_r	r	n/a
52.9905	0.0895	105981	keystroke_i	i	n/a
53.0955	0.059	106191	keystroke_e	e	n/a
53.2745	0.0755	106549	keystroke_s	s	n/a
53.4245	0.091	106849	keystroke_Key.space	Key.space	n/a
53.6045	0.0905	107209	keystroke_r	r	n/a
53.9045	0.075	107809	keystroke_a	a	n/a
54.37	0.09	108740	keystroke_t	t	n/a
54.655	0.195	109310	keystroke_i	i	n/a
54.805	0.135	109610	keystroke_o	o	n/a
55.495	0.105	110990	keystroke_Key.enter	Key.enter	n/a
55.607	8.606	111214	prompt	n/a	scoring fisher peru exception\n
56.275	0.075	112550	keystroke_s	s	n/a
56.455	0.075	112910	keystroke_c	c	n/a
56.545	0.105	113090	keystroke_o	o	n/a
56.68	0.09	113360	keystroke_r	r	n/a
56.8	0.075	113600	keystroke_i	i	n/a
56.935	0.12	113870	keystroke_n	n	n/a
57.07	0.06	114140	keystroke_g	g	n/a
57.205	0.09	114410	keystroke_Key.space	Key.space	n/a
57.34	0.075	114680	keystroke_f	f	n/a
57.745	0.0905	115490	keystroke_i	i	n/a
58.2855	0.06	116571	keystroke_s	s	n/a
58.4205	0.105	116841	keystroke_h	h	n/a
58.5405	0.1345	117081	keystroke_e	e	n/a
58.6455	0.09	117291	keystroke_r	r	n/a
58.8255	0.12	117651	keystroke_Key.space	Key.space	n/a
58.9605	0.135	117921	keystroke_p	p	n/a
59.1255	0.135	118251	keystroke_e	e	n/a
59.275	0.0755	118550	keystroke_r	r	n/a
59.3655	0.15	118731	keystroke_u	u	n/a
59.5755	0.12	119151	keystroke_Key.space	Key.space	n/a
59.6805	0.09	119361	keystroke_e	e	n/a
59.9505	0.105	119901	keystroke_x	x	n/a
60.2955	0.104	120591	keystroke_p	p	n/a
61.0145	0.09	122029	keystroke_Key.backspace	Key.backspace	n/a
61.2095	0.075	122419	keystroke_c	c	n/a
61.3595	0.09	122719	keystroke_e	e	n/a
61.51	0.1045	123020	keystroke_p	p	n/a
62.1395	0.0605	124279	keystroke_t	t	n/a
62.3045	0.15	124609	keystroke_u	u	n/a
62.4245	0.105	124849	keystroke_i	i	n/a
62.9645	0.09	125929	keystroke_Key.backspace	Key.backspace	n/a
63.16	0.0895	126320	keystroke_Key.backspace	Key.backspace	n/a
63.4305	0.1795	126861	keystroke_i	i	n/a
63.565	0.12	127130	keystroke_o	o	n/a
63.79	0.1055	127580	keystroke_n	n	n/a
64.135	0.075	128270	keystroke_Key.enter	Key.enter	n/a
64.2195	7.8375	128439	prompt	n/a	aged genes expressions color\n
64.975	0.0895	129950	keystroke_a	a	n/a
65.2745	0.06	130549	keystroke_g	g	n/a
65.4395	0.06	130879	keystroke_e	e	n/a
65.635	0.0755	131270	keystroke_d	d	n/a
65.7705	0.119	131541	keystroke_Key.space	Key.space	n/a
65.9045	0.0455	131809	keystroke_g	g	n/a
66.22	0.075	132440	keystroke_n	n	n/a
66.6395	0.075	133279	keystroke_Key.backspace	Key.backspace	n/a
66.7595	0.075	133519	keystroke_e	e	n/a
66.9095	0.105	133819	keystroke_n	n	n/a
67.33	0.0595	134660	keystroke_e	e	n/a
67.5545	0.075	135109	keystroke_s	s	n/a
67.7645	0.1055	135529	keystroke_Key.space	Key.space	n/a
67.9155	0.074	135831	keystroke_e	e	n/a
68.1245	0.015	136249	keystroke_d	d	n/a
68.6495	0.076	137299	keystroke_Key.backspace	Key.backspace	n/a
69.2055	0.0895	138411	keystroke_x	x	n/a
69.3695	0.0755	138739	keystroke_p	p	n/a
69.5055	0.0895	139011	keystroke_r	r	n/a
69.67	0.075	139340	keystroke_e	e	n/a
69.91	0.06	139820	keystroke_s	s	n/a
70.09	0.03	140180	keystroke_s	s	n/a
70.255	0.135	140510	keystroke_i	i	n/a
70.36	0.105	140720	keystroke_o	o	n/a
70.6295	0.075	141259	keystroke_n	n	n/a
70.72	0.0745	141440	keystroke_s	s	n/a
70.8995	0.1205	141799	keystroke_Key.space	Key.space	n/a
71.0345	0.076	142069	keystroke_c	c	n/a
71.1245	0.061	142249	keystroke_o	o	n/a
71.3045	0.075	142609	keystroke_l	l	n/a
71.5	0.0745	143000	keystroke_o	o	n/a
71.6195	0.0755	143239	keystroke_r	r	n/a
71.9645	0.09	143929	keystroke_Key.enter	Key.enter	n/a
72.06	11.427	144120	prompt	n/a	dual rebecca hungarian gathered\n
72.9555	0.0745	145911	keystroke_d	d	n/a
73.1055	0.1045	146211	keystroke_u	u	n/a
73.255	0.075	146510	keystroke_a	a	n/a
73.405	0.105	146810	keystroke_l	l	n/a
73.645	0.09	147290	keystroke_Key.space	Key.space	n/a
73.84	0.09	147680	keystroke_r	r	n/a
73.975	0.075	147950	keystroke_e	e	n/a
74.575	0.06	149150	keystroke_b	b	n/a
74.92	0.09	149840	keystroke_e	e	n/a
75.31	0.045	150620	keystroke_c	c	n/a
75.445	0.0595	150890	keystroke_c	c	n/a
75.9255	0.089	151851	keystroke_a	a	n/a
76.1795	0.0905	152359	keystroke_Key.space	Key.space	n/a
76.3905	0.1945	152781	keystroke_h	h	n/a
76.57	0.105	153140	keystroke_u	u	n/a
76.81	0.0905	153620	keystroke_n	n	n/a
77.575	0.075	155150	keystroke_g	g	n/a
77.92	0.06	155840	keystroke_a	a	n/a
78.205	0.03	156410	keystroke_r	r	n/a
78.3995	0.075	156799	keystroke_i	i	n/a
79.525	0.09	159050	keystroke_a	a	n/a
79.735	0.105	159470	keystroke_n	n	n/a
80.32	0.105	160640	keystroke_Key.space	Key.space	n/a
80.6645	0.0605	161329	keystroke_g	g	n/a
80.9495	0.0755	161899	keystroke_a	a	n/a
81.52	0.1205	163040	keystroke_t	t	n/a
81.6245	0.061	163249	keystroke_h	h	n/a
81.9105	0.15	163821	keystroke_e	e	n/a
82.045	0.075	164090	keystroke_r	r	n/a
82.3	0.0755	164600	keystroke_e	e	n/a
82.54	0.06	165080	keystroke_d	d	n/a
83.3805	0.105	166761	keystroke_Key.enter	Key.enter	n/a
83.4905	8.8915	166981	prompt	n/a	button supervisors that're missed\n
84.2955	0.09	168591	keystroke_b	b	n/a
84.4905	0.075	168981	keystroke_u	u	n/a
84.6105	0.075	169221	keystroke_t	t	n/a
84.7605	0.075	169521	keystroke_t	t	n/a
84.9855	0.075	169971	keystroke_o	o	n/a
85.21	0.135	170420	keystroke_n	n	n/a
85.375	0.105	170750	keystroke_Key.space	Key.space	n/a
85.495	0.0905	170990	keystroke_s	s	n/a
85.675	0.0905	171350	keystroke_u	u	n/a
85.9305	0.105	171861	keystroke_p	p	n/a
86.0655	0.18	172131	keystroke_e	e	n/a
86.2005	0.105	172401	keystroke_r	r	n/a
86.5305	0.089	173061	keystroke_v	v	n/a
86.7245	0.09	173449	keystroke_i	i	n/a
86.9495	0.061	173899	keystroke_s	s	n/a
87.1145	0.106	174229	keystroke_o	o	n/a
87.2955	0.09	174591	keystroke_r	r	n/a
88.2395	0.046	176479	keystroke_s	s	n/a
88.48	0.0745	176960	keystroke_Key.space	Key.space	n/a
88.6895	0.0905	177379	keystroke_t	t	n/a
88.7645	0.075	177529	keystroke_h	h	n/a
89.0805	0.0895	178161	keystroke_a	a	n/a
89.335	0.06	178670	keystroke_t	t	n/a
89.515	0.075	179030	keystroke_'	'	n/a
89.77	0.075	179540	keystroke_r	r	n/a
90.01	0.06	180020	keystroke_e	e	n/a
90.34	0.135	180680	keystroke_Key.space	Key.space	n/a
90.5495	0.15	181099	keystroke_m	m	n/a
90.7145	0.075	181429	keystroke_i	i	n/a
90.7745	0.075	181549	keystroke_s	s	n/a
90.9245	0.0755	181849	keystroke_s	s	n/a
91.1645	0.075	182329	keystroke_e	e	n/a
91.3445	0.1055	182689	keystroke_d	d	n/a
92.305	0.075	184610	keystroke_Key.enter	Key.enter	n/a
92.3845	7.5725	184769	prompt	n/a	shows poll allowed spam\n
93.31	0.0905	186620	keystroke_s	s	n/a
93.475	0.165	186950	keystroke_h	h	n/a
93.67	0.12	187340	keystroke_o	o	n/a
93.82	0.075	187640	keystroke_w	w	n/a
94.0905	0.0595	188181	keystroke_s	s	n/a
94.33	0.105	188660	keystroke_Key.space	Key.space	n/a
94.465	0.06	188930	keystroke_s	s	n/a
94.9895	0.06	189979	keystroke_Key.backspace	Key.backspace	n/a
95.1845	0.0905	190369	keystroke_p	p	n/a
95.4395	0.015	190879	keystroke_o	o	n/a
95.92	0.045	191840	keystroke_l	l	n/a
96.07	0.09	192140	keystroke_l	l	n/a
96.385	0.09	192770	keystroke_Key.space	Key.space	n/a
96.67	0.09	193340	keystroke_a	a	n/a
96.865	0.06	193730	keystroke_l	l	n/a
97.015	0.09	194030	keystroke_l	l	n/a
97.27	0.105	194540	keystroke_o	o	n/a
97.39	0.075	194780	keystroke_w	w	n/a
97.63	0.075	195260	keystroke_e	e	n/a
97.8545	0.06	195709	keystroke_d	d	n/a
98.0795	0.09	196159	keystroke_Key.space	Key.space	n/a
98.245	0.09	196490	keystroke_s	s	n/a
98.395	0.12	196790	keystroke_p	p	n/a
98.59	0.09	197180	keystroke_a	a	n/a
98.74	0.06	197480	keystroke_m	m	n/a
99.835	0.1195	199670	keystroke_Key.enter	Key.enter	n/a
99.9595	14.502	199919	prompt	n/a	interference limitations spectacular ended\n
100.93	0.09	201860	keystroke_i	i	n/a
101.185	0.0905	202370	keystroke_n	n	n/a
101.395	0.075	202790	keystroke_t	t	n/a
101.6205	0.1945	203241	keystroke_e	e	n/a
101.785	0.075	203570	keystroke_r	r	n/a
102.0405	0.075	204081	keystroke_f	f	n/a
102.535	0.21	205070	keystroke_e	e	n/a
102.73	0.09	205460	keystroke_r	r	n/a
103.6	0.06	207200	keystroke_e	e	n/a
103.765	0.09	207530	keystroke_n	n	n/a
103.9	0.075	207800	keystroke_c	c	n/a
104.1255	0.0595	208251	keystroke_e	e	n/a
104.425	0.0445	208850	keystroke_d	d	n/a
104.965	0.09	209930	keystroke_Key.backspace	Key.backspace	n/a
105.445	0.105	210890	keystroke_Key.space	Key.space	n/a
105.73	0.09	211460	keystroke_l	l	n/a
105.91	0.09	211820	keystroke_i	i	n/a
106.165	0.165	212330	keystroke_m	m	n/a
106.345	0.12	212690	keystroke_i	i	n/a
107.2005	0.089	214401	keystroke_t	t	n/a
107.5455	0.06	215091	keystroke_a	a	n/a
107.845	0.0895	215690	keystroke_t	t	n/a
107.9955	0.149	215991	keystroke_i	i	n/a
108.1305	0.09	216261	keystroke_o	o	n/a
108.3855	0.075	216771	keystroke_n	n	n/a
108.5505	0.06	217101	keystroke_s	s	n/a
108.8205	0.104	217641	keystroke_Key.space	Key.space	n/a
109.0455	0.044	218091	keystroke_s	s	n/a
109.3155	0.09	218631	keystroke_p	p	n/a
109.8855	0.075	219771	keystroke_e	e	n/a
110.0945	0.09	220189	keystroke_c	c	n/a
110.4245	0.061	220849	keystroke_t	t	n/a
110.785	0.045	221570	keystroke_a	a	n/a
111.235	0.075	222470	keystroke_c	c	n/a
111.46	0.09	222920	keystroke_u	u	n/a
111.835	0.105	223670	keystroke_l	l	n/a
111.955	0.09	223910	keystroke_a	a	n/a
112.255	0.045	224510	keystroke_r	r	n/a
112.495	0.105	224990	keystroke_Key.space	Key.space	n/a
112.69	0.045	225380	keystroke_e	e	n/a
112.855	0.1195	225710	keystroke_n	n	n/a
112.9595	0.075	225919	keystroke_d	d	n/a
113.1555	0.0595	226311	keystroke_e	e	n/a
113.35	0.0455	226700	keystroke_d	d	n/a
114.3855	0.075	228771	keystroke_Key.enter	Key.enter	n/a
114.465	6.5815	228930	prompt	n/a	portion warner muscle mambo\n
115.0745	0.165	230149	keystroke_p	p	n/a
115.2245	0.105	230449	keystroke_o	o	n/a
115.3605	0.179	230721	keystroke_r	r	n/a
115.5245	0.075	231049	keystroke_t	t	n/a
115.7795	0.15	231559	keystroke_i	i	n/a
115.8995	0.105	231799	keystroke_o	o	n/a
116.1545	0.106	232309	keystroke_n	n	n/a
116.29	0.1355	232580	keystroke_Key.space	Key.space	n/a
116.4405	0.03	232881	keystroke_w	w	n/a
116.605	0.045	233210	keystroke_a	a	n/a
116.755	0.06	233510	keystroke_r	r	n/a
116.8455	0.09	233691	keystroke_n	n	n/a
116.9645	0.1055	233929	keystroke_e	e	n/a
117.0855	0.059	234171	keystroke_r	r	n/a
117.2495	0.136	234499	keystroke_Key.space	Key.space	n/a
117.43	0.0605	234860	keystroke_m	m	n/a
117.6555	0.105	235311	keystroke_u	u	n/a
118.1655	0.06	236331	keystroke_s	s	n/a
118.3895	0.061	236779	keystroke_c	c	n/a
118.5555	0.105	237111	keystroke_l	l	n/a
118.7055	0.09	237411	keystroke_e	e	n/a
118.9745	0.09	237949	keystroke_Key.space	Key.space	n/a
119.65	0.06	239300	keystroke_m	m	n/a
119.785	0.105	239570	keystroke_a	a	n/a
119.95	0.09	239900	keystroke_m	m	n/a
120.19	0.09	240380	keystroke_b	b	n/a
120.355	0.1055	240710	keystroke_o	o	n/a
120.955	0.0905	241910	keystroke_Key.enter	Key.enter	n/a
121.05	7.8715	242100	prompt	n/a	associate radical spray north\n
121.705	0.06	243410	keystroke_a	a	n/a
121.93	0.06	243860	keystroke_s	s	n/a
122.08	0.06	244160	keystroke_s	s	n/a
122.23	0.09	244460	keystroke_o	o	n/a
122.785	0.06	245570	keystroke_c	c	n/a
122.98	0.06	245960	keystroke_i	i	n/a
123.16	0.03	246320	keystroke_a	a	n/a
123.505	0.06	247010	keystroke_t	t	n/a
123.715	0.06	247430	keystroke_e	e	n/a
123.88	0.105	247760	keystroke_Key.space	Key.space	n/a
124.0455	0.0745	248091	keystroke_r	r	n/a
124.735	0.075	249470	keystroke_a	a	n/a
125.02	0.075	250040	keystroke_d	d	n/a
125.26	0.06	250520	keystroke_i	i	n/a
125.335	0.075	250670	keystroke_c	c	n/a
125.695	0.06	251390	keystroke_a	a	n/a
125.89	0.105	251780	keystroke_l	l	n/a
126.16	0.12	252320	keystroke_Key.space	Key.space	n/a
126.295	0.075	252590	keystroke_s	s	n/a
126.4755	0.0745	252951	keystroke_p	p	n/a
126.64	0.03	253280	keystroke_r	r	n/a
126.865	0.075	253730	keystroke_a	a	n/a
127.045	0.105	254090	keystroke_y	y	n/a
127.3895	0.015	254779	keystroke_Key.space	Key.space	n/a
127.5405	0.0455	255081	keystroke_n	n	n/a
127.795	0.1055	255590	keystroke_o	o	n/a
128.1095	0.075	256219	keystroke_r	r	n/a
128.38	0.1055	256760	keystroke_t	t	n/a
128.4545	0.105	256909	keystroke_h	h	n/a
128.8295	0.09	257659	keystroke_Key.enter	Key.enter	n/a
128.9245	11.7275	257849	prompt	n/a	morgan lobby tokyo sheffield\n
129.8805	0.15	259761	keystroke_m	m	n/a
130.0145	0.121	260029	keystroke_o	o	n/a
130.1945	0.076	260389	keystroke_r	r	n/a
130.84	0.075	261680	keystroke_g	g	n/a
131.1845	0.075	262369	keystroke_a	a	n/a
131.4405	0.09	262881	keystroke_n	n	n/a
131.6205	0.135	263241	keystroke_Key.space	Key.space	n/a
131.7855	0.075	263571	keystroke_l	l	n/a
132.0255	0.075	264051	keystroke_o	o	n/a
132.1305	0.09	264261	keystroke_b	b	n/a
132.2955	0.09	264591	keystroke_b	b	n/a
132.5205	0.12	265041	keystroke_y	y	n/a
132.85	0.1195	265700	keystroke_Key.space	Key.space	n/a
133.495	0.12	266990	keystroke_t	t	n/a
133.6605	0.044	267321	keystroke_o	o	n/a
133.8845	0.09	267769	keystroke_k	k	n/a
134.0195	0.09	268039	keystroke_y	y	n/a
134.2595	0.075	268519	keystroke_o	o	n/a
134.9345	0.1055	269869	keystroke_Key.space	Key.space	n/a
135.0555	0.104	270111	keystroke_s	s	n/a
135.265	0.1045	270530	keystroke_h	h	n/a
135.4595	0.075	270919	keystroke_e	e	n/a
135.715	0.09	271430	keystroke_f	f	n/a
135.925	0.09	271850	keystroke_f	f	n/a
136.945	0.0905	273890	keystroke_i	i	n/a
137.1545	0.075	274309	keystroke_e	e	n/a
137.35	0.1045	274700	keystroke_l	l	n/a
137.5145	0.0605	275029	keystroke_d	d	n/a
140.5615	0.0885	281123	keystroke_Key.enter	Key.enter	n/a
140.6545	10.9925	281309	prompt	n/a	syracuse franchise supporters agriculture\n
141.4605	0.1195	282921	keystroke_s	s	n/a
142.4505	0.0895	284901	keystroke_y	y	n/a
142.93	0.09	285860	keystroke_r	r	n/a
143.1845	0.06	286369	keystroke_a	a	n/a
143.3945	0.06	286789	keystroke_c	c	n/a
143.605	0.12	287210	keystroke_u	u	n/a
143.77	0.075	287540	keystroke_s	s	n/a
144.025	0.0595	288050	keystroke_e	e	n/a
144.55	0.1045	289100	keystroke_Key.space	Key.space	n/a
144.7745	0.0755	289549	keystroke_f	f	n/a
144.9395	0.0755	289879	keystroke_r	r	n/a
145.1645	0.075	290329	keystroke_a	a	n/a
145.3595	0.0905	290719	keystroke_n	n	n/a
145.5695	0.06	291139	keystroke_c	c	n/a
145.7345	0.135	291469	keystroke_h	h	n/a
145.8545	0.12	291709	keystroke_i	i	n/a
146.0045	0.0605	292009	keystroke_s	s	n/a
146.2295	0.0605	292459	keystroke_e	e	n/a
146.4395	0.09	292879	keystroke_Key.space	Key.space	n/a
146.5595	0.045	293119	keystroke_s	s	n/a
146.6495	0.06	293299	keystroke_u	u	n/a
146.845	0.0595	293690	keystroke_p	p	n/a
146.9645	0.1355	293929	keystroke_p	p	n/a
147.07	0.1195	294140	keystroke_o	o	n/a
147.2045	0.135	294409	keystroke_r	r	n/a
147.325	0.075	294650	keystroke_t	t	n/a
147.9395	0.03	295879	keystroke_s	s	n/a
148.3445	0.105	296689	keystroke_Key.backspace	Key.backspace	n/a
148.4645	0.12	296929	keystroke_e	e	n/a
148.5545	0.105	297109	keystroke_r	r	n/a
148.7645	0.09	297529	keystroke_s	s	n/a
149.095	0.0895	298190	keystroke_Key.space	Key.space	n/a
149.5445	0.06	299089	keystroke_a	a	n/a
149.8145	0.075	299629	keystroke_g	g	n/a
149.9495	0.09	299899	keystroke_r	r	n/a
150.0995	0.09	300199	keystroke_i	i	n/a
150.2645	0.075	300529	keystroke_c	c	n/a
150.445	0.0595	300890	keystroke_u	u	n/a
150.625	0.134	301250	keystroke_l	l	n/a
150.775	0.075	301550	keystroke_t	t	n/a
150.91	0.09	301820	keystroke_u	u	n/a
151.0145	0.06	302029	keystroke_r	r	n/a
151.2095	0.06	302419	keystroke_e	e	n/a
151.57	0.075	303140	keystroke_Key.enter	Key.enter	n/a
151.6505	10.706	303301	prompt	n/a	fiscal boulder theater possible\n
152.575	0.09	305150	keystroke_d	d	n/a
153.325	0.0895	306650	keystroke_Key.backspace	Key.backspace	n/a
153.7295	0.09	307459	keystroke_f	f	n/a
153.9845	0.06	307969	keystroke_i	i	n/a
154.1645	0.075	308329	keystroke_s	s	n/a
154.525	0.06	309050	keystroke_c	c	n/a
154.87	0.045	309740	keystroke_a	a	n/a
155.035	0.1195	310070	keystroke_l	l	n/a
155.1995	0.135	310399	keystroke_Key.space	Key.space	n/a
155.3945	0.075	310789	keystroke_b	b	n/a
155.6345	0.105	311269	keystroke_o	o	n/a
157.0295	0.09	314059	keystroke_u	u	n/a
157.36	0.104	314720	keystroke_l	l	n/a
157.479	0.075	314958	keystroke_d	d	n/a
157.6895	0.1945	315379	keystroke_e	e	n/a
157.8395	0.1345	315679	keystroke_r	r	n/a
158.169	0.135	316338	keystroke_Key.space	Key.space	n/a
158.4995	0.1345	316999	keystroke_t	t	n/a
158.589	0.105	317178	keystroke_h	h	n/a
159.0245	0.09	318049	keystroke_e	e	n/a
159.28	0.059	318560	keystroke_a	a	n/a
159.654	0.076	319308	keystroke_t	t	n/a
159.94	0.18	319880	keystroke_e	e	n/a
160.09	0.09	320180	keystroke_r	r	n/a
160.255	0.12	320510	keystroke_Key.space	Key.space	n/a
160.465	0.15	320930	keystroke_p	p	n/a
160.6	0.12	321200	keystroke_o	o	n/a
160.765	0.0595	321530	keystroke_s	s	n/a
160.914	0.075	321828	keystroke_s	s	n/a
161.094	0.06	322188	keystroke_i	i	n/a
161.215	0.074	322430	keystroke_b	b	n/a
161.409	0.105	322818	keystroke_l	l	n/a
161.574	0.06	323148	keystroke_e	e	n/a
162.264	0.091	324528	keystroke_Key.enter	Key.enter	n/a
162.3615	6.94	324723	prompt	n/a	sims clearly battery span\n
163.15	0.075	326300	keystroke_s	s	n/a
163.389	0.03	326778	keystroke_i	i	n/a
163.644	0.075	327288	keystroke_m	m	n/a
164.02	0.059	328040	keystroke_s	s	n/a
164.484	0.0905	328968	keystroke_Key.space	Key.space	n/a
164.634	0.075	329268	keystroke_c	c	n/a
164.889	0.06	329778	keystroke_l	l	n/a
164.964	0.076	329928	keystroke_e	e	n/a
165.204	0.06	330408	keystroke_a	a	n/a
165.474	0.076	330948	keystroke_r	r	n/a
165.805	0.089	331610	keystroke_l	l	n/a
165.955	0.104	331910	keystroke_y	y	n/a
166.314	0.12	332628	keystroke_Key.space	Key.space	n/a
166.494	0.09	332988	keystroke_b	b	n/a
166.8095	0.0755	333619	keystroke_a	a	n/a
167.215	0.075	334430	keystroke_t	t	n/a
167.41	0.075	334820	keystroke_t	t	n/a
167.59	0.15	335180	keystroke_e	e	n/a
167.725	0.09	335450	keystroke_r	r	n/a
167.86	0.195	335720	keystroke_y	y	n/a
168.13	0.1495	336260	keystroke_Key.space	Key.space	n/a
168.3395	0.105	336679	keystroke_s	s	n/a
168.5495	0.105	337099	keystroke_p	p	n/a
168.7145	0.06	337429	keystroke_a	a	n/a
168.835	0.1195	337670	keystroke_n	n	n/a
169.2245	0.075	338449	keystroke_Key.enter	Key.enter	n/a
169.304	16.7825	338608	prompt	n/a	convertible camcorder medicaid positioning\n
170.065	0.09	340130	keystroke_c	c	n/a
170.2	0.105	340400	keystroke_o	o	n/a
170.41	0.135	340820	keystroke_n	n	n/a
170.56	0.045	341120	keystroke_v	v	n/a
170.755	0.165	341510	keystroke_e	e	n/a
170.89	0.104	341780	keystroke_r	r	n/a
171.1445	0.075	342289	keystroke_t	t	n/a
171.294	0.091	342588	keystroke_i	i	n/a
171.519	0.06	343038	keystroke_b	b	n/a
171.714	0.106	343428	keystroke_l	l	n/a
171.88	0.06	343760	keystroke_e	e	n/a
172.044	0.12	344088	keystroke_Key.space	Key.space	n/a
172.18	0.075	344360	keystroke_c	c	n/a
172.4195	0.061	344839	keystroke_a	a	n/a
172.6	0.059	345200	keystroke_m	m	n/a
172.975	0.105	345950	keystroke_c	c	n/a
173.155	0.12	346310	keystroke_o	o	n/a
173.38	0.075	346760	keystroke_r	r	n/a
173.905	0.105	347810	keystroke_d	d	n/a
174.175	0.195	348350	keystroke_e	e	n/a
174.34	0.12	348680	keystroke_r	r	n/a
174.925	0.105	349850	keystroke_Key.space	Key.space	n/a
175.18	0.06	350360	keystroke_m	m	n/a
175.3	0.075	350600	keystroke_e	e	n/a
175.51	0.09	351020	keystroke_d	d	n/a
176.32	0.0895	352640	keystroke_i	i	n/a
176.4545	0.075	352909	keystroke_c	c	n/a
176.695	0.0745	353390	keystroke_a	a	n/a
176.994	0.0615	353988	keystroke_d	d	n/a
177.384	0.105	354768	keystroke_Key.backspace	Key.backspace	n/a
177.625	0.089	355250	keystroke_i	i	n/a
177.744	0.0755	355488	keystroke_d	d	n/a
177.9845	0.1505	355969	keystroke_Key.space	Key.space	n/a
178.1495	0.165	356299	keystroke_p	p	n/a
178.2845	0.135	356569	keystroke_o	o	n/a
178.4945	0.0905	356989	keystroke_s	s	n/a
179.365	0.09	358730	keystroke_i	i	n/a
179.515	0.06	359030	keystroke_t	t	n/a
179.635	0.135	359270	keystroke_i	i	n/a
179.74	0.135	359480	keystroke_o	o	n/a
180.04	0.135	360080	keystroke_n	n	n/a
180.505	0.15	361010	keystroke_i	i	n/a
180.805	0.209	361610	keystroke_n	n	n/a
181.18	0.09	362360	keystroke_g	g	n/a
186.042	0.0425	372084	keystroke_Key.enter	Key.enter	n/a
186.09	7.1215	372180	prompt	n/a	implies away alot breakdown\n
187.2095	0.0605	374419	keystroke_i	i	n/a
187.435	0.0595	374870	keystroke_m	m	n/a
187.6295	0.1505	375259	keystroke_p	p	n/a
187.7345	0.105	375469	keystroke_l	l	n/a
187.9895	0.09	375979	keystroke_i	i	n/a
188.095	0.06	376190	keystroke_e	e	n/a
188.305	0.06	376610	keystroke_s	s	n/a
188.785	0.105	377570	keystroke_Key.space	Key.space	n/a
189.025	0.06	378050	keystroke_a	a	n/a
189.22	0.075	378440	keystroke_w	w	n/a
189.4	0.0605	378800	keystroke_a	a	n/a
189.565	0.12	379130	keystroke_y	y	n/a
189.82	0.09	379640	keystroke_Key.space	Key.space	n/a
190.09	0.06	380180	keystroke_a	a	n/a
190.405	0.075	380810	keystroke_l	l	n/a
190.6	0.075	381200	keystroke_o	o	n/a
190.69	0.075	381380	keystroke_t	t	n/a
190.81	0.12	381620	keystroke_Key.space	Key.space	n/a
190.9	0.09	381800	keystroke_b	b	n/a
191.125	0.12	382250	keystroke_r	r	n/a
191.23	0.075	382460	keystroke_e	e	n/a
191.47	0.06	382940	keystroke_a	a	n/a
191.6645	0.075	383329	keystroke_k	k	n/a
192.2345	0.06	384469	keystroke_d	d	n/a
192.3545	0.105	384709	keystroke_o	o	n/a
192.4745	0.045	384949	keystroke_w	w	n/a
192.6095	0.0605	385219	keystroke_n	n	n/a
193.1495	0.06	386299	keystroke_Key.enter	Key.enter	n/a
193.215	11.1115	386430	prompt	n/a	analyzed automatic adds afghanistan\n
194.0195	0.06	388039	keystroke_a	a	n/a
194.1395	0.09	388279	keystroke_n	n	n/a
194.2895	0.06	388579	keystroke_a	a	n/a
194.3795	0.075	388759	keystroke_l	l	n/a
194.6795	0.06	389359	keystroke_y	y	n/a
195.0695	0.0755	390139	keystroke_z	z	n/a
195.3395	0.0605	390679	keystroke_e	e	n/a
195.55	0.06	391100	keystroke_d	d	n/a
195.775	0.09	391550	keystroke_Key.space	Key.space	n/a
195.91	0.075	391820	keystroke_a	a	n/a
196.0745	0.0905	392149	keystroke_u	u	n/a
196.24	0.1195	392480	keystroke_t	t	n/a
196.3745	0.075	392749	keystroke_o	o	n/a
196.57	0.09	393140	keystroke_m	m	n/a
196.6895	0.06	393379	keystroke_a	a	n/a
196.885	0.06	393770	keystroke_t	t	n/a
197.0805	0.074	394161	keystroke_i	i	n/a
197.2005	0.0895	394401	keystroke_c	c	n/a
197.3645	0.136	394729	keystroke_Key.space	Key.space	n/a
197.5305	0.059	395061	keystroke_a	a	n/a
197.8145	0.061	395629	keystroke_d	d	n/a
197.9945	0.06	395989	keystroke_d	d	n/a
198.5505	0.059	397101	keystroke_s	s	n/a
198.8195	0.135	397639	keystroke_Key.space	Key.space	n/a
199.0895	0.075	398179	keystroke_a	a	n/a
199.7205	0.075	399441	keystroke_f	f	n/a
200.905	0.075	401810	keystroke_g	g	n/a
201.1295	0.075	402259	keystroke_h	h	n/a
201.2495	0.075	402499	keystroke_a	a	n/a
201.445	0.09	402890	keystroke_n	n	n/a
202.54	0.105	405080	keystroke_i	i	n/a
202.75	0.075	405500	keystroke_s	s	n/a
203.005	0.075	406010	keystroke_t	t	n/a
203.275	0.0745	406550	keystroke_a	a	n/a
203.395	0.0895	406790	keystroke_n	n	n/a
204.219	0.106	408438	keystroke_Key.enter	Key.enter	n/a
204.33	12.5515	408660	prompt	n/a	comparative blank circuit valuation\n
205.21	0.075	410420	keystroke_c	c	n/a
205.75	0.075	411500	keystroke_o	o	n/a
205.929	0.105	411858	keystroke_m	m	n/a
206.695	0.09	413390	keystroke_p	p	n/a
207.145	0.1055	414290	keystroke_a	a	n/a
207.4	0.075	414800	keystroke_r	r	n/a
207.625	0.105	415250	keystroke_a	a	n/a
207.91	0.06	415820	keystroke_t	t	n/a
208.0755	0.089	416151	keystroke_i	i	n/a
208.18	0.0745	416360	keystroke_v	v	n/a
208.375	0.075	416750	keystroke_e	e	n/a
208.509	0.1205	417018	keystroke_Key.space	Key.space	n/a
209.1995	0.06	418399	keystroke_b	b	n/a
209.4545	0.105	418909	keystroke_l	l	n/a
209.6795	0.075	419359	keystroke_a	a	n/a
209.8445	0.195	419689	keystroke_n	n	n/a
209.9945	0.135	419989	keystroke_k	k	n/a
210.2945	0.135	420589	keystroke_Key.space	Key.space	n/a
210.4445	0.0905	420889	keystroke_c	c	n/a
210.9845	0.135	421969	keystroke_i	i	n/a
211.1495	0.105	422299	keystroke_r	r	n/a
211.45	0.1045	422900	keystroke_c	c	n/a
211.7195	0.195	423439	keystroke_u	u	n/a
211.8845	0.1055	423769	keystroke_i	i	n/a
212.035	0.06	424070	keystroke_t	t	n/a
212.86	0.12	425720	keystroke_Key.space	Key.space	n/a
213.07	0.075	426140	keystroke_v	v	n/a
213.355	0.09	426710	keystroke_a	a	n/a
213.52	0.135	427040	keystroke_l	l	n/a
213.79	0.105	427580	keystroke_u	u	n/a
213.91	0.105	427820	keystroke_a	a	n/a
214.24	0.06	428480	keystroke_t	t	n/a
214.39	0.165	428780	keystroke_i	i	n/a
214.495	0.105	428990	keystroke_o	o	n/a
214.765	0.105	429530	keystroke_n	n	n/a
216.76	0.1195	433520	keystroke_Key.enter	Key.enter	n/a
216.8845	6.7465	433769	prompt	n/a	pending found stayed ride\n
218.02	0.0895	436040	keystroke_p	p	n/a
218.1995	0.09	436399	keystroke_e	e	n/a
218.3645	0.12	436729	keystroke_n	n	n/a
218.5145	0.075	437029	keystroke_d	d	n/a
218.6195	0.15	437239	keystroke_i	i	n/a
218.7545	0.105	437509	keystroke_n	n	n/a
218.8745	0.09	437749	keystroke_g	g	n/a
219.0995	0.12	438199	keystroke_Key.space	Key.space	n/a
219.4445	0.09	438889	keystroke_f	f	n/a
219.5505	0.134	439101	keystroke_o	o	n/a
219.7595	0.06	439519	keystroke_u	u	n/a
220.0005	0.089	440001	keystroke_n	n	n/a
220.1345	0.075	440269	keystroke_d	d	n/a
220.48	0.1045	440960	keystroke_Key.space	Key.space	n/a
220.7495	0.075	441499	keystroke_s	s	n/a
221.0045	0.045	442009	keystroke_t	t	n/a
221.2895	0.075	442579	keystroke_a	a	n/a
221.455	0.0745	442910	keystroke_y	y	n/a
221.65	0.06	443300	keystroke_e	e	n/a
221.845	0.06	443690	keystroke_d	d	n/a
222.0695	0.0905	444139	keystroke_Key.space	Key.space	n/a
222.295	0.06	444590	keystroke_r	r	n/a
222.445	0.075	444890	keystroke_i	i	n/a
222.565	0.06	445130	keystroke_d	d	n/a
222.805	0.06	445610	keystroke_e	e	n/a
223.54	0.09	447080	keystroke_Key.enter	Key.enter	n/a
223.634	16.558	447268	prompt	n/a	configurations shirts sector lauderdale\n
224.4695	0.105	448939	keystroke_c	c	n/a
224.6195	0.12	449239	keystroke_o	o	n/a
224.8445	0.105	449689	keystroke_n	n	n/a
225.0095	0.09	450019	keystroke_f	f	n/a
225.2645	0.075	450529	keystroke_i	i	n/a
225.9695	0.105	451939	keystroke_g	g	n/a
226.2245	0.06	452449	keystroke_u	u	n/a
226.3895	0.075	452779	keystroke_r	r	n/a
226.7045	0.075	453409	keystroke_a	a	n/a
226.9745	0.075	453949	keystroke_t	t	n/a
227.1395	0.06	454279	keystroke_i	i	n/a
227.155	0.1495	454310	keystroke_o	o	n/a
227.4695	0.105	454939	keystroke_n	n	n/a
227.7095	0.105	455419	keystroke_Key.space	Key.space	n/a
227.8295	0.0605	455659	keystroke_s	s	n/a
227.9795	0.135	455959	keystroke_h	h	n/a
228.0695	0.105	456139	keystroke_i	i	n/a
228.22	0.18	456440	keystroke_r	r	n/a
228.37	0.09	456740	keystroke_t	t	n/a
228.895	0.09	457790	keystroke_s	s	n/a
229.105	0.12	458210	keystroke_Key.space	Key.space	n/a
229.285	0.06	458570	keystroke_s	s	n/a
229.51	0.06	459020	keystroke_e	e	n/a
229.705	0.105	459410	keystroke_c	c	n/a
229.975	0.09	459950	keystroke_t	t	n/a
230.17	0.105	460340	keystroke_o	o	n/a
230.29	0.09	460580	keystroke_r	r	n/a
230.53	0.105	461060	keystroke_Key.space	Key.space	n/a
230.74	0.09	461480	keystroke_l	l	n/a
230.98	0.06	461960	keystroke_a	a	n/a
231.505	0.12	463010	keystroke_u	u	n/a
231.82	0.06	463640	keystroke_d	d	n/a
232	0.15	464000	keystroke_e	e	n/a
232.105	0.105	464210	keystroke_r	r	n/a
232.36	0.0895	464720	keystroke_s	s	n/a
232.5995	0.0605	465199	keystroke_a	a	n/a
232.78	0.1045	465560	keystroke_l	l	n/a
232.9445	0.075	465889	keystroke_e	e	n/a
234.3545	0.105	468709	keystroke_Key.backspace	Key.backspace	n/a
234.5795	0.075	469159	keystroke_Key.backspace	Key.backspace	n/a
234.805	0.105	469610	keystroke_Key.backspace	Key.backspace	n/a
235.93	0.1045	471860	keystroke_Key.backspace	Key.backspace	n/a
236.9945	0.075	473989	keystroke_d	d	n/a
237.2345	0.06	474469	keystroke_a	a	n/a
237.4295	0.1055	474859	keystroke_l	l	n/a
237.6245	0.06	475249	keystroke_e	e	n/a
240.131	0.0585	480262	keystroke_Key.enter	Key.enter	n/a
240.1945	10.1525	480389	prompt	n/a	buses okay decent councils\n
241.03	0.0895	482060	keystroke_b	b	n/a
241.2845	0.106	482569	keystroke_u	u	n/a
241.4195	0.0605	482839	keystroke_s	s	n/a
241.615	0.0895	483230	keystroke_e	e	n/a
241.855	0.045	483710	keystroke_s	s	n/a
242.0045	0.135	484009	keystroke_Key.space	Key.space	n/a
242.1095	0.165	484219	keystroke_o	o	n/a
242.23	0.1345	484460	keystroke_k	k	n/a
242.3795	0.06	484759	keystroke_a	a	n/a
242.6345	0.15	485269	keystroke_y	y	n/a
242.8145	0.15	485629	keystroke_Key.space	Key.space	n/a
242.9945	0.06	485989	keystroke_d	d	n/a
243.1745	0.06	486349	keystroke_e	e	n/a
243.3545	0.09	486709	keystroke_c	c	n/a
243.535	0.0595	487070	keystroke_e	e	n/a
243.6545	0.12	487309	keystroke_n	n	n/a
243.8345	0.075	487669	keystroke_t	t	n/a
244.0445	0.1055	488089	keystroke_Key.space	Key.space	n/a
244.2245	0.06	488449	keystroke_c	c	n/a
244.3295	0.105	488659	keystroke_o	o	n/a
244.5695	0.075	489139	keystroke_n	n	n/a
244.8695	0.105	489739	keystroke_u	u	n/a
245.1395	0.075	490279	keystroke_n	n	n/a
245.9495	0.09	491899	keystroke_Key.backspace	Key.backspace	n/a
246.2645	0.1205	492529	keystroke_Key.backspace	Key.backspace	n/a
246.565	0.09	493130	keystroke_Key.backspace	Key.backspace	n/a
246.88	0.075	493760	keystroke_u	u	n/a
247.195	0.075	494390	keystroke_n	n	n/a
247.48	0.075	494960	keystroke_c	c	n/a
247.72	0.075	495440	keystroke_i	i	n/a
248.035	0.075	496070	keystroke_l	l	n/a
248.2	0.09	496400	keystroke_s	s	n/a
250.195	0.15	500390	keystroke_Key.enter	Key.enter	n/a
250.35	8.411	500700	prompt	n/a	absorption helen samba concord\n
251.095	0.075	502190	keystroke_a	a	n/a
251.5595	0.075	503119	keystroke_b	b	n/a
252.0545	0.091	504109	keystroke_s	s	n/a
252.205	0.1195	504410	keystroke_o	o	n/a
252.4295	0.06	504859	keystroke_r	r	n/a
252.5795	0.121	505159	keystroke_p	p	n/a
252.8045	0.06	505609	keystroke_t	t	n/a
252.9705	0.134	505941	keystroke_i	i	n/a
253.0595	0.1205	506119	keystroke_o	o	n/a
253.4045	0.0755	506809	keystroke_n	n	n/a
253.839	0.106	507678	keystroke_Key.space	Key.space	n/a
254.079	0.091	508158	keystroke_h	h	n/a
254.229	0.075	508458	keystroke_e	e	n/a
254.44	0.105	508880	keystroke_l	l	n/a
254.605	0.06	509210	keystroke_e	e	n/a
254.784	0.076	509568	keystroke_n	n	n/a
255.22	0.104	510440	keystroke_Key.space	Key.space	n/a
255.43	0.059	510860	keystroke_s	s	n/a
255.64	0.059	511280	keystroke_a	a	n/a
255.774	0.09	511548	keystroke_m	m	n/a
255.999	0.06	511998	keystroke_b	b	n/a
256.7495	0.06	513499	keystroke_a	a	n/a
256.989	0.09	513978	keystroke_Key.space	Key.space	n/a
257.1545	0.0745	514309	keystroke_c	c	n/a
257.245	0.075	514490	keystroke_o	o	n/a
257.44	0.105	514880	keystroke_n	n	n/a
257.62	0.104	515240	keystroke_c	c	n/a
257.784	0.1055	515568	keystroke_o	o	n/a
257.95	0.104	515900	keystroke_r	r	n/a
258.189	0.06	516378	keystroke_d	d	n/a
258.609	0.15	517218	keystroke_Key.enter	Key.enter	n/a
258.764	12.5225	517528	prompt	n/a	pants motivated psychology mention\n
259.42	0.1345	518840	keystroke_p	p	n/a
259.5695	0.09	519139	keystroke_a	a	n/a
259.7645	0.105	519529	keystroke_n	n	n/a
259.9445	0.03	519889	keystroke_t	t	n/a
260.1995	0.06	520399	keystroke_s	s	n/a
260.4395	0.0605	520879	keystroke_Key.space	Key.space	n/a
260.6495	0.12	521299	keystroke_m	m	n/a
260.7695	0.12	521539	keystroke_o	o	n/a
260.9945	0.0455	521989	keystroke_t	t	n/a
261.19	0.045	522380	keystroke_i	i	n/a
261.295	0.06	522590	keystroke_v	v	n/a
261.5345	0.0745	523069	keystroke_a	a	n/a
261.79	0.074	523580	keystroke_t	t	n/a
261.9395	0.0755	523879	keystroke_e	e	n/a
262.135	0.0745	524270	keystroke_d	d	n/a
262.27	0.1195	524540	keystroke_Key.space	Key.space	n/a
262.359	0.105	524718	keystroke_p	p	n/a
263.32	0.0895	526640	keystroke_y	y	n/a
263.47	0.075	526940	keystroke_s	s	n/a
263.695	0.0745	527390	keystroke_c	c	n/a
263.7995	0.165	527599	keystroke_h	h	n/a
263.9495	0.12	527899	keystroke_o	o	n/a
264.2645	0.105	528529	keystroke_l	l	n/a
264.9845	0.0905	529969	keystroke_o	o	n/a
265.1045	0.1055	530209	keystroke_g	g	n/a
265.3	0.12	530600	keystroke_y	y	n/a
265.479	0.105	530958	keystroke_Key.space	Key.space	n/a
265.644	0.0755	531288	keystroke_m	m	n/a
265.7345	0.09	531469	keystroke_e	e	n/a
265.8545	0.0755	531709	keystroke_n	n	n/a
266.005	0.0895	532010	keystroke_t	t	n/a
270.3415	0.163	540683	keystroke_i	i	n/a
270.5195	0.135	541039	keystroke_o	o	n/a
270.8345	0.12	541669	keystroke_n	n	n/a
271.21	0.0745	542420	keystroke_Key.enter	Key.enter	n/a
271.2895	15.417	542579	prompt	n/a	webpage something's anne decisions\n
272.2745	0.105	544549	keystroke_w	w	n/a
272.3945	0.09	544789	keystroke_e	e	n/a
272.5895	0.075	545179	keystroke_b	b	n/a
272.8445	0.0905	545689	keystroke_p	p	n/a
272.9795	0.09	545959	keystroke_a	a	n/a
273.235	0.075	546470	keystroke_g	g	n/a
273.505	0.075	547010	keystroke_e	e	n/a
273.7	0.135	547400	keystroke_Key.space	Key.space	n/a
273.97	0.06	547940	keystroke_s	s	n/a
274.149	0.09	548298	keystroke_o	o	n/a
274.3745	0.0895	548749	keystroke_m	m	n/a
274.5545	0.045	549109	keystroke_e	e	n/a
274.7645	0.12	549529	keystroke_t	t	n/a
274.8545	0.105	549709	keystroke_h	h	n/a
275.0345	0.0605	550069	keystroke_i	i	n/a
275.1845	0.0905	550369	keystroke_n	n	n/a
275.3495	0.06	550699	keystroke_g	g	n/a
275.5595	0.075	551119	keystroke_'	'	n/a
275.7845	0.06	551569	keystroke_s	s	n/a
276.2195	0.105	552439	keystroke_Key.space	Key.space	n/a
276.3995	0.045	552799	keystroke_a	a	n/a
276.685	0.105	553370	keystroke_n	n	n/a
276.88	0.075	553760	keystroke_n	n	n/a
277.2095	0.0305	554419	keystroke_e	e	n/a
277.765	0.09	555530	keystroke_Key.space	Key.space	n/a
277.915	0.075	555830	keystroke_d	d	n/a
278.05	0.075	556100	keystroke_i	i	n/a
278.5	0.06	557000	keystroke_c	c	n/a
278.74	0.09	557480	keystroke_i	i	n/a
279.91	0.045	559820	keystroke_s	s	n/a
280.1345	0.1505	560269	keystroke_i	i	n/a
280.269	0.105	560538	keystroke_o	o	n/a
280.495	0.104	560990	keystroke_n	n	n/a
280.674	0.075	561348	keystroke_s	s	n/a
281.7845	0.0905	563569	keystroke_Key.backspace	Key.backspace	n/a
282.0395	0.0905	564079	keystroke_Key.backspace	Key.backspace	n/a
282.2795	0.09	564559	keystroke_Key.backspace	Key.backspace	n/a
282.505	0.0595	565010	keystroke_Key.backspace	Key.backspace	n/a
282.7295	0.075	565459	keystroke_Key.backspace	Key.backspace	n/a
282.925	0.0745	565850	keystroke_Key.backspace	Key.backspace	n/a
283.1345	0.09	566269	keystroke_Key.backspace	Key.backspace	n/a
283.4045	0.06	566809	keystroke_Key.backspace	Key.backspace	n/a
284.1545	0.075	568309	keystroke_e	e	n/a
284.4995	0.06	568999	keystroke_c	c	n/a
285.5345	0.135	571069	keystroke_i	i	n/a
285.7295	0.075	571459	keystroke_s	s	n/a
285.8645	0.105	571729	keystroke_i	i	n/a
285.9395	0.1205	571879	keystroke_o	o	n/a
286.1945	0.1055	572389	keystroke_n	n	n/a
286.3295	0.09	572659	keystroke_s	s	n/a
286.615	0.09	573230	keystroke_Key.enter	Key.enter	n/a
286.7115	6.67	573423	prompt	n/a	implies lewis desk ranging\n
287.77	0.09	575540	keystroke_i	i	n/a
288.01	0.075	576020	keystroke_m	m	n/a
288.2045	0.1205	576409	keystroke_p	p	n/a
288.325	0.0895	576650	keystroke_l	l	n/a
288.5645	0.075	577129	keystroke_i	i	n/a
288.6545	0.075	577309	keystroke_e	e	n/a
288.8645	0.0605	577729	keystroke_s	s	n/a
289.0145	0.12	578029	keystroke_Key.space	Key.space	n/a
289.21	0.1045	578420	keystroke_l	l	n/a
289.5395	0.06	579079	keystroke_e	e	n/a
289.9895	0.0455	579979	keystroke_w	w	n/a
290.2895	0.1205	580579	keystroke_i	i	n/a
290.485	0.0745	580970	keystroke_s	s	n/a
290.7245	0.09	581449	keystroke_Key.space	Key.space	n/a
290.83	0.0595	581660	keystroke_d	d	n/a
291.295	0.0745	582590	keystroke_e	e	n/a
291.505	0.0445	583010	keystroke_s	s	n/a
291.6845	0.09	583369	keystroke_k	k	n/a
291.9095	0.105	583819	keystroke_Key.space	Key.space	n/a
292	0.075	584000	keystroke_r	r	n/a
292.2395	0.0605	584479	keystroke_a	a	n/a
292.3445	0.105	584689	keystroke_n	n	n/a
292.5395	0.06	585079	keystroke_g	g	n/a
292.6745	0.15	585349	keystroke_i	i	n/a
292.8395	0.075	585679	keystroke_n	n	n/a
293.0945	0.0455	586189	keystroke_g	g	n/a
293.305	0.075	586610	keystroke_Key.enter	Key.enter	n/a
293.3845	12.3115	586769	prompt	n/a	seemed nato announce levitra\n
293.9345	0.075	587869	keystroke_s	s	n/a
294.1595	0.075	588319	keystroke_e	e	n/a
294.2955	0.074	588591	keystroke_m	m	n/a
294.8645	0.075	589729	keystroke_Key.backspace	Key.backspace	n/a
295.03	0.0745	590060	keystroke_e	e	n/a
295.2395	0.075	590479	keystroke_m	m	n/a
295.3745	0.0755	590749	keystroke_e	e	n/a
295.5695	0.06	591139	keystroke_d	d	n/a
295.9445	0.075	591889	keystroke_Key.space	Key.space	n/a
296.2595	0.09	592519	keystroke_n	n	n/a
296.3795	0.075	592759	keystroke_a	a	n/a
296.605	0.0595	593210	keystroke_t	t	n/a
296.7395	0.15	593479	keystroke_o	o	n/a
296.8745	0.09	593749	keystroke_Key.space	Key.space	n/a
296.995	0.0445	593990	keystroke_a	a	n/a
297.1895	0.06	594379	keystroke_n	n	n/a
297.3395	0.105	594679	keystroke_n	n	n/a
297.7745	0.12	595549	keystroke_o	o	n/a
297.9395	0.105	595879	keystroke_u	u	n/a
298.0745	0.0755	596149	keystroke_c	c	n/a
298.3145	0.075	596629	keystroke_e	e	n/a
298.945	0.1345	597890	keystroke_Key.space	Key.space	n/a
299.2745	0.09	598549	keystroke_l	l	n/a
299.6345	0.12	599269	keystroke_i	i	n/a
300.9695	0.09	601939	keystroke_Key.backspace	Key.backspace	n/a
301.21	0.0745	602420	keystroke_Key.backspace	Key.backspace	n/a
301.4195	0.075	602839	keystroke_Key.backspace	Key.backspace	n/a
301.6895	0.09	603379	keystroke_Key.backspace	Key.backspace	n/a
301.9595	0.06	603919	keystroke_Key.backspace	Key.backspace	n/a
302.2445	0.09	604489	keystroke_n	n	n/a
302.3795	0.075	604759	keystroke_c	c	n/a
302.5895	0.0905	605179	keystroke_e	e	n/a
302.8745	0.105	605749	keystroke_Key.space	Key.space	n/a
303.2045	0.12	606409	keystroke_l	l	n/a
303.6395	0.075	607279	keystroke_e	e	n/a
303.8945	0.0905	607789	keystroke_v	v	n/a
304.0895	0.06	608179	keystroke_i	i	n/a
304.3295	0.075	608659	keystroke_t	t	n/a
304.4645	0.0755	608929	keystroke_r	r	n/a
304.719	0.046	609438	keystroke_a	a	n/a
305.634	0.0605	611268	keystroke_Key.enter	Key.enter	n/a
305.699	5.983	611398	prompt	n/a	goto winners post influence\n
306.61	0.089	613220	keystroke_g	g	n/a
306.85	0.09	613700	keystroke_o	o	n/a
307.015	0.075	614030	keystroke_t	t	n/a
307.179	0.1205	614358	keystroke_o	o	n/a
307.3145	0.135	614629	keystroke_Key.space	Key.space	n/a
307.4795	0.09	614959	keystroke_w	w	n/a
307.5995	0.075	615199	keystroke_i	i	n/a
307.795	0.06	615590	keystroke_n	n	n/a
307.9295	0.0905	615859	keystroke_n	n	n/a
308.0645	0.12	616129	keystroke_e	e	n/a
308.1395	0.0905	616279	keystroke_r	r	n/a
308.3495	0.09	616699	keystroke_s	s	n/a
308.4695	0.15	616939	keystroke_Key.space	Key.space	n/a
308.5595	0.1645	617119	keystroke_p	p	n/a
308.679	0.105	617358	keystroke_o	o	n/a
308.814	0.06	617628	keystroke_s	s	n/a
309.04	0.044	618080	keystroke_t	t	n/a
309.3095	0.1195	618619	keystroke_Key.space	Key.space	n/a
309.504	0.0755	619008	keystroke_i	i	n/a
309.699	0.091	619398	keystroke_n	n	n/a
309.819	0.075	619638	keystroke_f	f	n/a
309.954	0.09	619908	keystroke_l	l	n/a
310.1495	0.0905	620299	keystroke_u	u	n/a
310.344	0.075	620688	keystroke_e	e	n/a
310.794	0.0905	621588	keystroke_n	n	n/a
310.929	0.061	621858	keystroke_c	c	n/a
311.109	0.06	622218	keystroke_e	e	n/a
311.619	0.06	623238	keystroke_Key.enter	Key.enter	n/a
311.6845	12.1475	623369	prompt	n/a	conversation comply solo provider\n
312.385	0.075	624770	keystroke_c	c	n/a
312.49	0.075	624980	keystroke_o	o	n/a
312.64	0.135	625280	keystroke_n	n	n/a
312.76	0.03	625520	keystroke_v	v	n/a
313.675	0.06	627350	keystroke_v	v	n/a
314.095	0.075	628190	keystroke_Key.backspace	Key.backspace	n/a
314.2295	0.15	628459	keystroke_e	e	n/a
314.35	0.0895	628700	keystroke_r	r	n/a
314.5595	0.09	629119	keystroke_s	s	n/a
314.8595	0.045	629719	keystroke_a	a	n/a
315.0545	0.06	630109	keystroke_t	t	n/a
315.1445	0.15	630289	keystroke_i	i	n/a
315.2645	0.1055	630529	keystroke_o	o	n/a
315.4895	0.105	630979	keystroke_n	n	n/a
315.6095	0.12	631219	keystroke_Key.space	Key.space	n/a
315.7145	0.075	631429	keystroke_c	c	n/a
315.805	0.1045	631610	keystroke_o	o	n/a
315.8945	0.09	631789	keystroke_m	m	n/a
316.0595	0.1205	632119	keystroke_p	p	n/a
316.1495	0.135	632299	keystroke_l	l	n/a
316.3	0.0745	632600	keystroke_y	y	n/a
316.4645	0.09	632929	keystroke_Key.space	Key.space	n/a
316.57	0.0745	633140	keystroke_s	s	n/a
316.66	0.0745	633320	keystroke_o	o	n/a
316.8395	0.075	633679	keystroke_l	l	n/a
317.0195	0.09	634039	keystroke_o	o	n/a
317.155	0.119	634310	keystroke_Key.space	Key.space	n/a
317.29	0.09	634580	keystroke_p	p	n/a
317.41	0.059	634820	keystroke_r	r	n/a
317.515	0.075	635030	keystroke_o	o	n/a
317.604	0.075	635208	keystroke_d	d	n/a
317.769	0.06	635538	keystroke_i	i	n/a
317.874	0.076	635748	keystroke_v	v	n/a
318.099	0.1355	636198	keystroke_e	e	n/a
318.22	0.105	636440	keystroke_r	r	n/a
319.674	0.09	639348	keystroke_Key.backspace	Key.backspace	n/a
319.869	0.075	639738	keystroke_Key.backspace	Key.backspace	n/a
320.064	0.075	640128	keystroke_Key.backspace	Key.backspace	n/a
320.274	0.106	640548	keystroke_Key.backspace	Key.backspace	n/a
320.529	0.075	641058	keystroke_Key.backspace	Key.backspace	n/a
321.82	0.0595	643640	keystroke_v	v	n/a
322.0445	0.09	644089	keystroke_i	i	n/a
322.2395	0.0595	644479	keystroke_d	d	n/a
322.449	0.106	644898	keystroke_e	e	n/a
322.524	0.12	645048	keystroke_r	r	n/a
323.7545	0.075	647509	keystroke_Key.enter	Key.enter	n/a
323.8365	10.8685	647673	prompt	n/a	shot drama atmospheric simulation\n
324.4595	0.105	648919	keystroke_s	s	n/a
324.6845	0.15	649369	keystroke_h	h	n/a
324.8195	0.135	649639	keystroke_o	o	n/a
324.9695	0.0605	649939	keystroke_t	t	n/a
325.149	0.105	650298	keystroke_Key.space	Key.space	n/a
325.299	0.091	650598	keystroke_d	d	n/a
325.524	0.061	651048	keystroke_r	r	n/a
325.765	0.089	651530	keystroke_a	a	n/a
325.96	0.075	651920	keystroke_m	m	n/a
326.14	0.059	652280	keystroke_a	a	n/a
326.3195	0.105	652639	keystroke_Key.space	Key.space	n/a
326.4695	0.09	652939	keystroke_a	a	n/a
326.7695	0.0755	653539	keystroke_t	t	n/a
326.9345	0.105	653869	keystroke_m	m	n/a
327.309	0.09	654618	keystroke_o	o	n/a
327.64	0.075	655280	keystroke_s	s	n/a
328.525	0.105	657050	keystroke_p	p	n/a
328.854	0.09	657708	keystroke_h	h	n/a
329.349	0.194	658698	keystroke_e	e	n/a
329.528	0.06	659056	keystroke_r	r	n/a
329.6785	0.1045	659357	keystroke_i	i	n/a
329.873	0.075	659746	keystroke_c	c	n/a
330.4435	0.1345	660887	keystroke_Key.space	Key.space	n/a
330.608	0.076	661216	keystroke_s	s	n/a
330.863	0.046	661726	keystroke_i	i	n/a
331.389	0.074	662778	keystroke_m	m	n/a
332.258	0.061	664516	keystroke_u	u	n/a
332.469	0.0745	664938	keystroke_l	l	n/a
332.604	0.104	665208	keystroke_a	a	n/a
332.963	0.061	665926	keystroke_t	t	n/a
333.069	0.1645	666138	keystroke_i	i	n/a
333.204	0.119	666408	keystroke_o	o	n/a
333.473	0.09	666946	keystroke_n	n	n/a
334.599	0.104	669198	keystroke_Key.enter	Key.enter	n/a
334.708	6.6125	669416	prompt	n/a	expand near alert bench\n
335.529	0.09	671058	keystroke_e	e	n/a
335.814	0.06	671628	keystroke_x	x	n/a
335.993	0.105	671986	keystroke_p	p	n/a
336.219	0.059	672438	keystroke_a	a	n/a
336.399	0.09	672798	keystroke_n	n	n/a
336.6085	0.06	673217	keystroke_d	d	n/a
336.8935	0.105	673787	keystroke_Key.space	Key.space	n/a
337.1335	0.09	674267	keystroke_n	n	n/a
337.2385	0.0905	674477	keystroke_e	e	n/a
337.4935	0.075	674987	keystroke_a	a	n/a
337.7935	0.075	675587	keystroke_r	r	n/a
338.2435	0.1055	676487	keystroke_Key.space	Key.space	n/a
338.499	0.075	676998	keystroke_a	a	n/a
338.7085	0.075	677417	keystroke_l	l	n/a
338.8735	0.1805	677747	keystroke_e	e	n/a
339.0235	0.105	678047	keystroke_r	r	n/a
339.3085	0.06	678617	keystroke_t	t	n/a
339.6385	0.105	679277	keystroke_Key.space	Key.space	n/a
339.9085	0.03	679817	keystroke_b	b	n/a
340.149	0.075	680298	keystroke_e	e	n/a
340.299	0.09	680598	keystroke_n	n	n/a
340.449	0.075	680898	keystroke_c	c	n/a
340.614	0.075	681228	keystroke_h	h	n/a
341.229	0.09	682458	keystroke_Key.enter	Key.enter	n/a
341.3245	10.3755	682649	prompt	n/a	articles cathedral winner abortion\n
342.174	0.075	684348	keystroke_a	a	n/a
342.4285	0.0745	684857	keystroke_r	r	n/a
342.653	0.076	685306	keystroke_t	t	n/a
342.894	0.089	685788	keystroke_i	i	n/a
343.268	0.075	686536	keystroke_c	c	n/a
343.598	0.075	687196	keystroke_l	l	n/a
343.748	0.075	687496	keystroke_e	e	n/a
343.988	0.0455	687976	keystroke_s	s	n/a
344.4835	0.105	688967	keystroke_Key.space	Key.space	n/a
344.739	0.0895	689478	keystroke_c	c	n/a
345.0085	0.06	690017	keystroke_a	a	n/a
345.3235	0.1495	690647	keystroke_t	t	n/a
345.4285	0.075	690857	keystroke_h	h	n/a
345.683	0.075	691366	keystroke_e	e	n/a
345.923	0.03	691846	keystroke_d	d	n/a
346.1035	0.0605	692207	keystroke_r	r	n/a
346.253	0.046	692506	keystroke_r	r	n/a
346.748	0.09	693496	keystroke_Key.backspace	Key.backspace	n/a
346.8835	0.0745	693767	keystroke_a	a	n/a
347.0785	0.0745	694157	keystroke_l	l	n/a
347.468	0.12	694936	keystroke_Key.space	Key.space	n/a
347.738	0.076	695476	keystroke_w	w	n/a
347.888	0.0755	695776	keystroke_i	i	n/a
348.114	0.045	696228	keystroke_n	n	n/a
348.234	0.104	696468	keystroke_n	n	n/a
348.383	0.1505	696766	keystroke_e	e	n/a
348.5035	0.105	697007	keystroke_r	r	n/a
348.788	0.12	697576	keystroke_Key.space	Key.space	n/a
349.043	0.06	698086	keystroke_a	a	n/a
349.373	0.0605	698746	keystroke_b	b	n/a
349.5685	0.06	699137	keystroke_o	o	n/a
349.6735	0.09	699347	keystroke_r	r	n/a
349.8985	0.06	699797	keystroke_t	t	n/a
350.3185	0.15	700637	keystroke_i	i	n/a
350.4235	0.105	700847	keystroke_o	o	n/a
350.6935	0.09	701387	keystroke_n	n	n/a
351.608	0.09	703216	keystroke_Key.enter	Key.enter	n/a
351.703	10.2275	703406	prompt	n/a	raising buys each response\n
352.419	0.075	704838	keystroke_r	r	n/a
352.673	0.076	705346	keystroke_a	a	n/a
353.723	0.105	707446	keystroke_i	i	n/a
353.918	0.075	707836	keystroke_s	s	n/a
354.083	0.061	708166	keystroke_i	i	n/a
354.338	0.0905	708676	keystroke_n	n	n/a
354.564	0.06	709128	keystroke_g	g	n/a
355.148	0.12	710296	keystroke_Key.space	Key.space	n/a
355.614	0.119	711228	keystroke_u	u	n/a
356.0335	0.0895	712067	keystroke_Key.backspace	Key.backspace	n/a
356.138	0.09	712276	keystroke_b	b	n/a
356.258	0.09	712516	keystroke_u	u	n/a
356.514	0.075	713028	keystroke_y	y	n/a
356.783	0.0755	713566	keystroke_s	s	n/a
357.203	0.105	714406	keystroke_Key.space	Key.space	n/a
357.534	0.074	715068	keystroke_e	e	n/a
357.773	0.06	715546	keystroke_a	a	n/a
358.3135	0.075	716627	keystroke_c	c	n/a
358.5235	0.075	717047	keystroke_h	h	n/a
358.7935	0.09	717587	keystroke_Key.space	Key.space	n/a
359.0035	0.0905	718007	keystroke_r	r	n/a
359.214	0.09	718428	keystroke_e	e	n/a
359.394	0.09	718788	keystroke_s	s	n/a
359.573	0.181	719146	keystroke_p	p	n/a
359.709	0.119	719418	keystroke_o	o	n/a
360.009	0.104	720018	keystroke_n	n	n/a
360.129	0.075	720258	keystroke_s	s	n/a
360.339	0.1045	720678	keystroke_e	e	n/a
361.824	0.105	723648	keystroke_Key.enter	Key.enter	n/a
361.933	12.477	723866	prompt	n/a	decide visa leonard unemployment\n
362.663	0.106	725326	keystroke_d	d	n/a
362.873	0.09	725746	keystroke_e	e	n/a
363.083	0.0755	726166	keystroke_c	c	n/a
363.248	0.075	726496	keystroke_i	i	n/a
363.369	0.059	726738	keystroke_d	d	n/a
363.594	0.0445	727188	keystroke_e	e	n/a
363.773	0.105	727546	keystroke_Key.space	Key.space	n/a
363.998	0.0605	727996	keystroke_v	v	n/a
364.1785	0.0595	728357	keystroke_i	i	n/a
364.2835	0.075	728567	keystroke_s	s	n/a
364.553	0.0605	729106	keystroke_e	e	n/a
364.7035	0.1195	729407	keystroke_Key.space	Key.space	n/a
364.853	0.105	729706	keystroke_l	l	n/a
364.943	0.075	729886	keystroke_e	e	n/a
365.169	0.059	730338	keystroke_a	a	n/a
365.303	0.091	730606	keystroke_o	o	n/a
366.3835	0.105	732767	keystroke_Key.backspace	Key.backspace	n/a
366.6235	0.1055	733247	keystroke_Key.backspace	Key.backspace	n/a
367.014	0.1495	734028	keystroke_o	o	n/a
367.4335	0.135	734867	keystroke_n	n	n/a
367.6735	0.0755	735347	keystroke_a	a	n/a
367.9135	0.06	735827	keystroke_r	r	n/a
368.1235	0.105	736247	keystroke_d	d	n/a
368.3935	0.105	736787	keystroke_Key.space	Key.space	n/a
368.6185	0.105	737237	keystroke_u	u	n/a
368.949	0.0745	737898	keystroke_m	m	n/a
370.4185	0.09	740837	keystroke_Key.backspace	Key.backspace	n/a
371.2135	0.0755	742427	keystroke_n	n	n/a
371.484	0.075	742968	keystroke_e	e	n/a
371.994	0.075	743988	keystroke_m	m	n/a
372.548	0.166	745096	keystroke_p	p	n/a
372.699	0.105	745398	keystroke_l	l	n/a
372.939	0.134	745878	keystroke_o	o	n/a
373.178	0.016	746356	keystroke_y	y	n/a
373.403	0.091	746806	keystroke_m	m	n/a
373.523	0.091	747046	keystroke_e	e	n/a
373.719	0.075	747438	keystroke_n	n	n/a
373.838	0.075	747676	keystroke_t	t	n/a
374.273	0.135	748546	keystroke_Key.enter	Key.enter	n/a
374.413	8.457	748826	prompt	n/a	elliott lace training nitrogen\n
375.114	0.105	750228	keystroke_e	e	n/a
375.3535	0.0895	750707	keystroke_l	l	n/a
375.623	0.1055	751246	keystroke_l	l	n/a
376.149	0.224	752298	keystroke_i	i	n/a
376.419	0.12	752838	keystroke_o	o	n/a
376.824	0.104	753648	keystroke_t	t	n/a
377.078	0.091	754156	keystroke_t	t	n/a
377.349	0.1345	754698	keystroke_Key.space	Key.space	n/a
377.4985	0.135	754997	keystroke_l	l	n/a
377.6485	0.06	755297	keystroke_a	a	n/a
377.9185	0.075	755837	keystroke_c	c	n/a
378.1735	0.06	756347	keystroke_e	e	n/a
378.5485	0.075	757097	keystroke_Key.space	Key.space	n/a
378.9235	0.06	757847	keystroke_t	t	n/a
379.1035	0.075	758207	keystroke_r	r	n/a
379.3735	0.045	758747	keystroke_a	a	n/a
379.5385	0.075	759077	keystroke_i	i	n/a
379.7035	0.105	759407	keystroke_n	n	n/a
379.8535	0.15	759707	keystroke_i	i	n/a
379.9885	0.105	759977	keystroke_n	n	n/a
380.1835	0.075	760367	keystroke_g	g	n/a
380.4535	0.09	760907	keystroke_Key.space	Key.space	n/a
380.7535	0.135	761507	keystroke_n	n	n/a
380.9035	0.105	761807	keystroke_i	i	n/a
381.0385	0.105	762077	keystroke_t	t	n/a
381.2935	0.06	762587	keystroke_r	r	n/a
381.5035	0.075	763007	keystroke_o	o	n/a
381.6835	0.06	763367	keystroke_g	g	n/a
381.9385	0.075	763877	keystroke_e	e	n/a
382.1035	0.075	764207	keystroke_n	n	n/a
382.7485	0.1195	765497	keystroke_Key.enter	Key.enter	n/a
382.874	8.996	765748	prompt	n/a	herald remark least network\n
383.978	0.075	767956	keystroke_h	h	n/a
384.189	0.0895	768378	keystroke_e	e	n/a
384.4435	0.075	768887	keystroke_r	r	n/a
384.8635	0.075	769727	keystroke_a	a	n/a
385.0885	0.105	770177	keystroke_l	l	n/a
385.3285	0.075	770657	keystroke_d	d	n/a
385.6285	0.12	771257	keystroke_Key.space	Key.space	n/a
385.8085	0.09	771617	keystroke_r	r	n/a
386.0035	0.075	772007	keystroke_e	e	n/a
386.169	0.0745	772338	keystroke_m	m	n/a
386.3035	0.075	772607	keystroke_a	a	n/a
386.9785	0.075	773957	keystroke_r	r	n/a
387.2035	0.09	774407	keystroke_k	k	n/a
387.3535	0.135	774707	keystroke_Key.space	Key.space	n/a
387.5635	0.12	775127	keystroke_l	l	n/a
387.6685	0.075	775337	keystroke_e	e	n/a
387.9235	0.09	775847	keystroke_a	a	n/a
388.0135	0.0905	776027	keystroke_s	s	n/a
388.419	0.045	776838	keystroke_t	t	n/a
388.629	0.12	777258	keystroke_Key.space	Key.space	n/a
388.809	0.105	777618	keystroke_n	n	n/a
388.929	0.075	777858	keystroke_e	e	n/a
389.1385	0.06	778277	keystroke_t	t	n/a
389.3335	0.075	778667	keystroke_w	w	n/a
389.4385	0.09	778877	keystroke_o	o	n/a
389.5885	0.075	779177	keystroke_r	r	n/a
389.7235	0.105	779447	keystroke_k	k	n/a
391.7185	0.15	783437	keystroke_Key.enter	Key.enter	n/a
391.875	6.595	783750	prompt	n/a	screening telecom do mentioned\n
392.559	0.075	785118	keystroke_s	s	n/a
392.754	0.09	785508	keystroke_c	c	n/a
392.993	0.09	785986	keystroke_r	r	n/a
393.144	0.075	786288	keystroke_e	e	n/a
393.323	0.061	786646	keystroke_e	e	n/a
393.519	0.12	787038	keystroke_n	n	n/a
393.683	0.18	787366	keystroke_i	i	n/a
393.849	0.1045	787698	keystroke_n	n	n/a
394.0135	0.0755	788027	keystroke_g	g	n/a
394.238	0.075	788476	keystroke_Key.space	Key.space	n/a
394.478	0.015	788956	keystroke_t	t	n/a
394.598	0.0755	789196	keystroke_e	e	n/a
394.748	0.091	789496	keystroke_l	l	n/a
394.8535	0.0595	789707	keystroke_e	e	n/a
395.064	0.075	790128	keystroke_c	c	n/a
395.183	0.075	790366	keystroke_o	o	n/a
395.393	0.0905	790786	keystroke_m	m	n/a
395.528	0.135	791056	keystroke_Key.space	Key.space	n/a
395.694	0.089	791388	keystroke_d	d	n/a
395.8585	0.105	791717	keystroke_o	o	n/a
396.069	0.09	792138	keystroke_Key.space	Key.space	n/a
396.308	0.06	792616	keystroke_m	m	n/a
396.3985	0.0895	792797	keystroke_e	e	n/a
396.594	0.059	793188	keystroke_n	n	n/a
397.073	0.091	794146	keystroke_t	t	n/a
397.238	0.1205	794476	keystroke_i	i	n/a
397.3285	0.1045	794657	keystroke_o	o	n/a
397.583	0.0905	795166	keystroke_n	n	n/a
397.718	0.075	795436	keystroke_e	e	n/a
397.914	0.074	795828	keystroke_d	d	n/a
398.333	0.135	796666	keystroke_Key.enter	Key.enter	n/a
398.473	17.831	796946	prompt	n/a	davis strain accessing scottish\n
399.158	0.075	798316	keystroke_d	d	n/a
399.3835	0.0595	798767	keystroke_a	a	n/a
399.6235	0.0745	799247	keystroke_v	v	n/a
399.803	0.075	799606	keystroke_i	i	n/a
399.9535	0.075	799907	keystroke_d	d	n/a
400.2985	0.09	800597	keystroke_Key.space	Key.space	n/a
400.5085	0.075	801017	keystroke_s	s	n/a
400.9735	0.195	801947	keystroke_t	t	n/a
401.1535	0.105	802307	keystroke_r	r	n/a
402.0675	0.075	804135	keystroke_Key.backspace	Key.backspace	n/a
402.2625	0.075	804525	keystroke_Key.backspace	Key.backspace	n/a
402.4875	0.045	804975	keystroke_Key.backspace	Key.backspace	n/a
402.6525	0.06	805305	keystroke_Key.backspace	Key.backspace	n/a
402.8175	0.03	805635	keystroke_s	s	n/a
403.2675	0.105	806535	keystroke_Key.backspace	Key.backspace	n/a
403.5825	0.075	807165	keystroke_Key.backspace	Key.backspace	n/a
403.7325	0.075	807465	keystroke_s	s	n/a
403.9875	0.105	807975	keystroke_Key.space	Key.space	n/a
404.3325	0.105	808665	keystroke_t	t	n/a
404.4525	0.075	808905	keystroke_r	r	n/a
404.8275	0.045	809655	keystroke_a	a	n/a
405.502	0.076	811004	keystroke_Key.backspace	Key.backspace	n/a
405.682	0.075	811364	keystroke_Key.backspace	Key.backspace	n/a
405.877	0.105	811754	keystroke_Key.backspace	Key.backspace	n/a
406.0875	0.0595	812175	keystroke_s	s	n/a
406.627	0.1505	813254	keystroke_t	t	n/a
406.7625	0.075	813525	keystroke_r	r	n/a
407.4225	0.09	814845	keystroke_a	a	n/a
407.5875	0.09	815175	keystroke_i	i	n/a
407.7825	0.12	815565	keystroke_n	n	n/a
408.0075	0.12	816015	keystroke_Key.space	Key.space	n/a
408.143	0.074	816286	keystroke_a	a	n/a
408.4575	0.0295	816915	keystroke_c	c	n/a
408.607	0.075	817214	keystroke_c	c	n/a
408.878	0.059	817756	keystroke_e	e	n/a
409.192	0.045	818384	keystroke_s	s	n/a
409.343	0.074	818686	keystroke_s	s	n/a
409.567	0.1955	819134	keystroke_i	i	n/a
409.748	0.149	819496	keystroke_n	n	n/a
409.898	0.075	819796	keystroke_g	g	n/a
410.152	0.09	820304	keystroke_Key.space	Key.space	n/a
410.333	0.059	820666	keystroke_s	s	n/a
410.557	0.075	821114	keystroke_c	c	n/a
410.9475	0.09	821895	keystroke_o	o	n/a
411.5475	0.075	823095	keystroke_t	t	n/a
411.7425	0.06	823485	keystroke_t	t	n/a
411.9075	0.09	823815	keystroke_i	i	n/a
412.0875	0.075	824175	keystroke_s	s	n/a
412.4925	0.075	824985	keystroke_h	h	n/a
416.1985	0.104	832397	keystroke_Key.enter	Key.enter	n/a
416.3075	10.032	832615	prompt	n/a	cordless perception ashley tuesday\n
417.1425	0.075	834285	keystroke_c	c	n/a
417.3225	0.1205	834645	keystroke_o	o	n/a
417.518	0.0895	835036	keystroke_r	r	n/a
417.7875	0.0755	835575	keystroke_d	d	n/a
417.998	0.0895	835996	keystroke_l	l	n/a
418.133	0.06	836266	keystroke_e	e	n/a
418.327	0.061	836654	keystroke_s	s	n/a
418.477	0.075	836954	keystroke_s	s	n/a
418.687	0.12	837374	keystroke_Key.space	Key.space	n/a
418.942	0.12	837884	keystroke_p	p	n/a
419.078	0.15	838156	keystroke_e	e	n/a
419.258	0.059	838516	keystroke_r	r	n/a
419.648	0.06	839296	keystroke_c	c	n/a
419.828	0.075	839656	keystroke_e	e	n/a
420.023	0.105	840046	keystroke_p	p	n/a
420.203	0.06	840406	keystroke_t	t	n/a
420.3825	0.15	840765	keystroke_i	i	n/a
420.488	0.12	840976	keystroke_o	o	n/a
420.757	0.121	841514	keystroke_n	n	n/a
420.982	0.12	841964	keystroke_Key.space	Key.space	n/a
421.103	0.059	842206	keystroke_a	a	n/a
421.298	0.075	842596	keystroke_s	s	n/a
421.523	0.075	843046	keystroke_h	h	n/a
421.778	0.104	843556	keystroke_l	l	n/a
421.898	0.089	843796	keystroke_e	e	n/a
422.152	0.091	844304	keystroke_y	y	n/a
422.5725	0.09	845145	keystroke_Key.space	Key.space	n/a
422.7075	0.075	845415	keystroke_t	t	n/a
422.828	0.0895	845656	keystroke_u	u	n/a
422.9325	0.06	845865	keystroke_e	e	n/a
423.1125	0.06	846225	keystroke_s	s	n/a
423.2775	0.075	846555	keystroke_d	d	n/a
423.5025	0.045	847005	keystroke_a	a	n/a
423.5925	0.09	847185	keystroke_y	y	n/a
426.249	0.089	852498	keystroke_Key.enter	Key.enter	n/a
426.342	11.712	852684	prompt	n/a	kenny managers solaris respiratory\n
427.508	0.075	855016	keystroke_k	k	n/a
427.703	0.06	855406	keystroke_e	e	n/a
427.898	0.045	855796	keystroke_n	n	n/a
428.048	0.09	856096	keystroke_n	n	n/a
428.2575	0.075	856515	keystroke_y	y	n/a
428.5725	0.12	857145	keystroke_Key.space	Key.space	n/a
428.7525	0.105	857505	keystroke_m	m	n/a
428.9475	0.105	857895	keystroke_a	a	n/a
429.2325	0.0755	858465	keystroke_n	n	n/a
429.5175	0.045	859035	keystroke_a	a	n/a
429.8325	0.0755	859665	keystroke_g	g	n/a
430.028	0.15	860056	keystroke_e	e	n/a
430.163	0.09	860326	keystroke_r	r	n/a
430.958	0.06	861916	keystroke_s	s	n/a
431.093	0.134	862186	keystroke_Key.space	Key.space	n/a
431.2575	0.0595	862515	keystroke_s	s	n/a
431.377	0.075	862754	keystroke_o	o	n/a
431.602	0.0905	863204	keystroke_l	l	n/a
431.737	0.076	863474	keystroke_a	a	n/a
431.9625	0.0745	863925	keystroke_r	r	n/a
432.1425	0.075	864285	keystroke_i	i	n/a
432.6975	0.075	865395	keystroke_s	s	n/a
432.9225	0.105	865845	keystroke_Key.space	Key.space	n/a
433.1925	0.06	866385	keystroke_r	r	n/a
433.3725	0.075	866745	keystroke_e	e	n/a
433.583	0.0745	867166	keystroke_s	s	n/a
433.8075	0.09	867615	keystroke_p	p	n/a
434.048	0.09	868096	keystroke_i	i	n/a
434.3475	0.075	868695	keystroke_r	r	n/a
434.6175	0.09	869235	keystroke_a	a	n/a
434.9925	0.06	869985	keystroke_t	t	n/a
435.128	0.1345	870256	keystroke_o	o	n/a
435.2925	0.09	870585	keystroke_r	r	n/a
435.517	0.09	871034	keystroke_y	y	n/a
437.9945	0.0585	875989	keystroke_Key.enter	Key.enter	n/a
438.057	9.672	876114	prompt	n/a	do newton chrome adaptation\n
438.8025	0.1355	877605	keystroke_d	d	n/a
439.1475	0.09	878295	keystroke_o	o	n/a
439.3425	0.105	878685	keystroke_Key.space	Key.space	n/a
439.6125	0.0745	879225	keystroke_n	n	n/a
439.807	0.075	879614	keystroke_e	e	n/a
440.2275	0.0745	880455	keystroke_w	w	n/a
440.632	0.06	881264	keystroke_t	t	n/a
440.7675	0.1055	881535	keystroke_o	o	n/a
441.068	0.075	882136	keystroke_n	n	n/a
441.292	0.09	882584	keystroke_Key.space	Key.space	n/a
441.397	0.0905	882794	keystroke_c	c	n/a
441.5325	0.06	883065	keystroke_h	h	n/a
441.6525	0.06	883305	keystroke_r	r	n/a
441.7575	0.09	883515	keystroke_o	o	n/a
441.9675	0.09	883935	keystroke_m	m	n/a
442.1925	0.046	884385	keystroke_e	e	n/a
442.463	0.09	884926	keystroke_Key.space	Key.space	n/a
442.643	0.075	885286	keystroke_a	a	n/a
442.883	0.075	885766	keystroke_d	d	n/a
443.123	0.075	886246	keystroke_a	a	n/a
443.918	0.09	887836	keystroke_p	p	n/a
445.2975	0.075	890595	keystroke_t	t	n/a
445.6125	0.09	891225	keystroke_a	a	n/a
445.9425	0.0605	891885	keystroke_t	t	n/a
446.0775	0.15	892155	keystroke_i	i	n/a
446.2125	0.0905	892425	keystroke_o	o	n/a
446.4675	0.09	892935	keystroke_n	n	n/a
447.6075	0.12	895215	keystroke_Key.enter	Key.enter	n/a
447.732	12.3585	895464	prompt	n/a	angel congratulations journalist root\n
448.564	0.089	897128	keystroke_a	a	n/a
448.773	0.075	897546	keystroke_n	n	n/a
448.939	0.059	897878	keystroke_g	g	n/a
449.133	0.061	898266	keystroke_e	e	n/a
449.314	0.134	898628	keystroke_l	l	n/a
449.539	0.1195	899078	keystroke_Key.space	Key.space	n/a
449.7035	0.0755	899407	keystroke_c	c	n/a
449.7935	0.075	899587	keystroke_o	o	n/a
450.0035	0.105	900007	keystroke_n	n	n/a
450.0785	0.12	900157	keystroke_g	g	n/a
450.1985	0.075	900397	keystroke_r	r	n/a
450.4535	0.0605	900907	keystroke_a	a	n/a
450.678	0.075	901356	keystroke_t	t	n/a
450.919	0.105	901838	keystroke_u	u	n/a
451.308	0.045	902616	keystroke_l	l	n/a
451.339	0.075	902678	keystroke_a	a	n/a
451.983	0.09	903966	keystroke_t	t	n/a
453.139	0.164	906278	keystroke_i	i	n/a
453.273	0.105	906546	keystroke_o	o	n/a
453.543	0.105	907086	keystroke_n	n	n/a
453.693	0.075	907386	keystroke_s	s	n/a
454.1885	0.135	908377	keystroke_Key.space	Key.space	n/a
455.0735	0.105	910147	keystroke_j	j	n/a
455.2985	0.18	910597	keystroke_o	o	n/a
455.4485	0.1085	910897	keystroke_u	u	n/a
455.6315	0.062	911263	keystroke_r	r	n/a
456.9235	0.135	913847	keystroke_n	n	n/a
457.1035	0.0745	914207	keystroke_a	a	n/a
457.269	0.135	914538	keystroke_l	l	n/a
457.449	0.105	914898	keystroke_i	i	n/a
457.584	0.075	915168	keystroke_s	s	n/a
457.8085	0.0745	915617	keystroke_t	t	n/a
458.018	0.0905	916036	keystroke_Key.space	Key.space	n/a
458.243	0.0605	916486	keystroke_r	r	n/a
458.348	0.09	916696	keystroke_o	o	n/a
458.543	0.075	917086	keystroke_o	o	n/a
459.0685	0.0595	918137	keystroke_t	t	n/a
459.9985	0.09	919997	keystroke_Key.enter	Key.enter	n/a
460.0935	6.8815	920187	prompt	n/a	conflict maintain situations song\n
460.7635	0.09	921527	keystroke_c	c	n/a
460.869	0.0745	921738	keystroke_o	o	n/a
461.0485	0.09	922097	keystroke_n	n	n/a
461.2885	0.015	922577	keystroke_f	f	n/a
461.3185	0.1345	922637	keystroke_l	l	n/a
461.438	0.105	922876	keystroke_i	i	n/a
461.5585	0.0755	923117	keystroke_c	c	n/a
461.813	0.0755	923626	keystroke_t	t	n/a
462.174	0.104	924348	keystroke_Key.space	Key.space	n/a
462.4735	0.09	924947	keystroke_m	m	n/a
462.5785	0.105	925157	keystroke_a	a	n/a
462.714	0.1195	925428	keystroke_i	i	n/a
462.819	0.1195	925638	keystroke_n	n	n/a
463.014	0.075	926028	keystroke_t	t	n/a
463.254	0.0595	926508	keystroke_a	a	n/a
463.3735	0.075	926747	keystroke_i	i	n/a
463.5085	0.1355	927017	keystroke_n	n	n/a
463.6885	0.105	927377	keystroke_Key.space	Key.space	n/a
463.8385	0.09	927677	keystroke_s	s	n/a
464.0635	0.075	928127	keystroke_i	i	n/a
464.274	0.0745	928548	keystroke_t	t	n/a
464.814	0.09	929628	keystroke_u	u	n/a
465.009	0.075	930018	keystroke_a	a	n/a
465.2335	0.0755	930467	keystroke_t	t	n/a
465.383	0.1055	930766	keystroke_i	i	n/a
465.458	0.105	930916	keystroke_o	o	n/a
465.713	0.075	931426	keystroke_n	n	n/a
465.849	0.075	931698	keystroke_s	s	n/a
466.013	0.12	932026	keystroke_Key.space	Key.space	n/a
466.149	0.09	932298	keystroke_s	s	n/a
466.224	0.075	932448	keystroke_o	o	n/a
466.388	0.09	932776	keystroke_n	n	n/a
466.539	0.09	933078	keystroke_g	g	n/a
466.883	0.09	933766	keystroke_Key.enter	Key.enter	n/a
466.9795	22.5255	933959	prompt	n/a	classifieds anthony punk communities\n
467.6185	0.105	935237	keystroke_c	c	n/a
467.8585	0.12	935717	keystroke_l	l	n/a
468.0235	0.075	936047	keystroke_a	a	n/a
468.2785	0.045	936557	keystroke_s	s	n/a
468.4285	0.06	936857	keystroke_s	s	n/a
468.6535	0.12	937307	keystroke_i	i	n/a
469.014	0.1345	938028	keystroke_f	f	n/a
469.2535	0.09	938507	keystroke_i	i	n/a
469.3735	0.075	938747	keystroke_e	e	n/a
469.5835	0.0605	939167	keystroke_d	d	n/a
470.288	0.1055	940576	keystroke_Key.space	Key.space	n/a
470.528	0.075	941056	keystroke_a	a	n/a
470.663	0.165	941326	keystroke_n	n	n/a
471.473	0.0605	942946	keystroke_Key.backspace	Key.backspace	n/a
471.653	0.09	943306	keystroke_Key.backspace	Key.backspace	n/a
471.863	0.105	943726	keystroke_Key.backspace	Key.backspace	n/a
472.194	0.0745	944388	keystroke_s	s	n/a
472.3735	0.1055	944747	keystroke_Key.space	Key.space	n/a
472.539	0.03	945078	keystroke_q	q	n/a
472.629	0.09	945258	keystroke_n	n	n/a
473.289	0.075	946578	keystroke_Key.backspace	Key.backspace	n/a
473.4685	0.075	946937	keystroke_Key.backspace	Key.backspace	n/a
473.5735	0.09	947147	keystroke_a	a	n/a
473.7835	0.1945	947567	keystroke_n	n	n/a
473.963	0.09	947926	keystroke_o	o	n/a
474.128	0.06	948256	keystroke_y	y	n/a
474.6685	0.075	949337	keystroke_Key.backspace	Key.backspace	n/a
474.728	0.105	949456	keystroke_t	t	n/a
474.803	0.0905	949606	keystroke_h	h	n/a
475.0735	0.15	950147	keystroke_o	o	n/a
475.7635	0.075	951527	keystroke_Key.backspace	Key.backspace	n/a
476.0035	0.09	952007	keystroke_Key.backspace	Key.backspace	n/a
476.2135	0.09	952427	keystroke_Key.backspace	Key.backspace	n/a
476.4985	0.09	952997	keystroke_Key.backspace	Key.backspace	n/a
477.263	0.195	954526	keystroke_t	t	n/a
477.428	0.121	954856	keystroke_h	h	n/a
477.924	0.135	955848	keystroke_o	o	n/a
478.193	0.12	956386	keystroke_n	n	n/a
478.328	0.09	956656	keystroke_y	y	n/a
479.123	0.1205	958246	keystroke_Key.space	Key.space	n/a
479.408	0.016	958816	keystroke_p	p	n/a
479.543	0.075	959086	keystroke_u	u	n/a
479.7835	0.135	959567	keystroke_n	n	n/a
481.8535	0.12	963707	keystroke_k	k	n/a
482.4235	0.12	964847	keystroke_Key.space	Key.space	n/a
483.6685	0.09	967337	keystroke_c	c	n/a
483.908	0.105	967816	keystroke_o	o	n/a
484.178	0.06	968356	keystroke_m	m	n/a
484.3585	0.0755	968717	keystroke_m	m	n/a
486.0685	0.09	972137	keystroke_u	u	n/a
486.3535	0.135	972707	keystroke_n	n	n/a
486.548	0.15	973096	keystroke_i	i	n/a
486.848	0.0605	973696	keystroke_t	t	n/a
487.0435	0.045	974087	keystroke_i	i	n/a
487.2085	0.075	974417	keystroke_e	e	n/a
487.464	0.0595	974928	keystroke_s	s	n/a
489.309	0.195	978618	keystroke_Key.enter	Key.enter	n/a
489.508	9.8375	979016	prompt	n/a	snake watching hereby reserve\n
490.404	0.105	980808	keystroke_s	s	n/a
490.659	0.09	981318	keystroke_n	n	n/a
490.839	0.075	981678	keystroke_a	a	n/a
491.109	0.075	982218	keystroke_k	k	n/a
491.2585	0.0905	982517	keystroke_e	e	n/a
491.4685	0.105	982937	keystroke_Key.space	Key.space	n/a
491.5585	0.06	983117	keystroke_w	w	n/a
491.7685	0.045	983537	keystroke_a	a	n/a
492.0235	0.06	984047	keystroke_t	t	n/a
492.2635	0.06	984527	keystroke_c	c	n/a
492.398	0.1805	984796	keystroke_h	h	n/a
492.6535	0.06	985307	keystroke_i	i	n/a
492.8935	0.12	985787	keystroke_n	n	n/a
493.2535	0.105	986507	keystroke_g	g	n/a
493.509	0.1195	987018	keystroke_Key.space	Key.space	n/a
493.7935	0.105	987587	keystroke_h	h	n/a
493.9735	0.105	987947	keystroke_e	e	n/a
494.0935	0.1205	988187	keystroke_r	r	n/a
494.259	0.0595	988518	keystroke_e	e	n/a
494.5435	0.075	989087	keystroke_b	b	n/a
494.7385	0.15	989477	keystroke_y	y	n/a
495.1885	0.1355	990377	keystroke_Key.space	Key.space	n/a
495.4585	0.075	990917	keystroke_r	r	n/a
495.6835	0.09	991367	keystroke_e	e	n/a
496.074	0.0445	992148	keystroke_s	s	n/a
496.3135	0.12	992627	keystroke_e	e	n/a
496.4185	0.075	992837	keystroke_r	r	n/a
496.763	0.0755	993526	keystroke_v	v	n/a
497.049	0.0595	994098	keystroke_e	e	n/a
499.2405	0.103	998481	keystroke_Key.enter	Key.enter	n/a
499.348	18.053	998696	prompt	n/a	macro afterwards andreas estimated\n
500.2735	0.105	1000547	keystroke_m	m	n/a
500.6485	0.0605	1001297	keystroke_a	a	n/a
501.354	0.0895	1002708	keystroke_c	c	n/a
501.564	0.075	1003128	keystroke_r	r	n/a
501.7845	0.105	1003569	keystroke_o	o	n/a
501.9795	0.12	1003959	keystroke_Key.space	Key.space	n/a
502.1295	0.06	1004259	keystroke_a	a	n/a
502.3995	0.0605	1004799	keystroke_f	f	n/a
502.6095	0.06	1005219	keystroke_t	t	n/a
502.7745	0.165	1005549	keystroke_e	e	n/a
502.9245	0.09	1005849	keystroke_r	r	n/a
503.135	0.0745	1006270	keystroke_w	w	n/a
503.3445	0.075	1006689	keystroke_a	a	n/a
503.5995	0.045	1007199	keystroke_r	r	n/a
503.795	0.0595	1007590	keystroke_d	d	n/a
504.05	0.0595	1008100	keystroke_s	s	n/a
504.2895	0.12	1008579	keystroke_Key.space	Key.space	n/a
504.5295	0.09	1009059	keystroke_a	a	n/a
504.7695	0.12	1009539	keystroke_n	n	n/a
505.2645	0.045	1010529	keystroke_d	d	n/a
506.1345	0.0905	1012269	keystroke_r	r	n/a
506.2845	0.0755	1012569	keystroke_e	e	n/a
506.5995	0.0755	1013199	keystroke_a	a	n/a
506.8695	0.06	1013739	keystroke_s	s	n/a
508.31	0.1045	1016620	keystroke_Key.space	Key.space	n/a
508.5195	0.06	1017039	keystroke_e	e	n/a
508.73	0.0895	1017460	keystroke_s	s	n/a
510.0645	0.075	1020129	keystroke_t	t	n/a
510.3195	0.135	1020639	keystroke_m	m	n/a
510.5745	0.105	1021149	keystroke_i	i	n/a
510.8445	0.105	1021689	keystroke_n	n	n/a
511.3245	0.075	1022649	keystroke_Key.backspace	Key.backspace	n/a
511.595	0.0895	1023190	keystroke_Key.backspace	Key.backspace	n/a
511.7595	0.105	1023519	keystroke_Key.backspace	Key.backspace	n/a
512.1345	0.06	1024269	keystroke_i	i	n/a
512.4795	0.0745	1024959	keystroke_m	m	n/a
513.0945	0.0745	1026189	keystroke_a	a	n/a
513.379	0.075	1026758	keystroke_t	t	n/a
513.574	0.061	1027148	keystroke_e	e	n/a
513.829	0.061	1027658	keystroke_d	d	n/a
517.311	0.088	1034622	keystroke_Key.enter	Key.enter	n/a
517.404	9.927	1034808	prompt	n/a	ratios rejected emotions symbol\n
518.2995	0.075	1036599	keystroke_r	r	n/a
518.5545	0.075	1037109	keystroke_a	a	n/a
518.81	0.045	1037620	keystroke_t	t	n/a
519.0645	0.165	1038129	keystroke_i	i	n/a
519.2445	0.15	1038489	keystroke_o	o	n/a
519.7095	0.075	1039419	keystroke_s	s	n/a
519.98	0.1045	1039960	keystroke_Key.space	Key.space	n/a
520.175	0.0895	1040350	keystroke_r	r	n/a
520.2795	0.1055	1040559	keystroke_e	e	n/a
520.445	0.1045	1040890	keystroke_j	j	n/a
520.5945	0.06	1041189	keystroke_e	e	n/a
520.7895	0.075	1041579	keystroke_c	c	n/a
521.0445	0.0605	1042089	keystroke_t	t	n/a
521.27	0.0745	1042540	keystroke_e	e	n/a
521.4645	0.075	1042929	keystroke_d	d	n/a
521.6145	0.12	1043229	keystroke_Key.space	Key.space	n/a
521.7495	0.06	1043499	keystroke_e	e	n/a
521.8395	0.0755	1043679	keystroke_m	m	n/a
522.05	0.0895	1044100	keystroke_o	o	n/a
522.1845	0.075	1044369	keystroke_t	t	n/a
522.3945	0.255	1044789	keystroke_i	i	n/a
522.6645	0.105	1045329	keystroke_o	o	n/a
522.9645	0.09	1045929	keystroke_n	n	n/a
523.7145	0.09	1047429	keystroke_s	s	n/a
524.0295	0.12	1048059	keystroke_Key.space	Key.space	n/a
524.285	0.06	1048570	keystroke_s	s	n/a
524.5695	0.105	1049139	keystroke_y	y	n/a
524.8545	0.0905	1049709	keystroke_b	b	n/a
525.5895	0.09	1051179	keystroke_Key.backspace	Key.backspace	n/a
526.07	0.1195	1052140	keystroke_m	m	n/a
526.4595	0.0755	1052919	keystroke_b	b	n/a
526.625	0.0895	1053250	keystroke_o	o	n/a
526.9545	0.09	1053909	keystroke_l	l	n/a
527.255	0.074	1054510	keystroke_Key.enter	Key.enter	n/a
527.336	8.49	1054672	prompt	n/a	reactions pine cached catherine\n
528.11	0.075	1056220	keystroke_r	r	n/a
528.275	0.075	1056550	keystroke_e	e	n/a
528.485	0.06	1056970	keystroke_a	a	n/a
528.679	0.061	1057358	keystroke_c	c	n/a
528.92	0.075	1057840	keystroke_t	t	n/a
529.055	0.165	1058110	keystroke_i	i	n/a
529.19	0.09	1058380	keystroke_o	o	n/a
529.415	0.0895	1058830	keystroke_n	n	n/a
529.5645	0.075	1059129	keystroke_s	s	n/a
529.7895	0.0305	1059579	keystroke_Key.space	Key.space	n/a
530.0295	0.0755	1060059	keystroke_p	p	n/a
530.2095	0.075	1060419	keystroke_i	i	n/a
530.48	0.0745	1060960	keystroke_n	n	n/a
530.6595	0.09	1061319	keystroke_e	e	n/a
530.87	0.105	1061740	keystroke_Key.space	Key.space	n/a
531.005	0.075	1062010	keystroke_c	c	n/a
531.26	0.075	1062520	keystroke_a	a	n/a
531.515	0.09	1063030	keystroke_c	c	n/a
531.7095	0.1205	1063419	keystroke_h	h	n/a
531.8745	0.0755	1063749	keystroke_e	e	n/a
532.0845	0.075	1064169	keystroke_d	d	n/a
532.3995	0.09	1064799	keystroke_Key.space	Key.space	n/a
532.6995	0.06	1065399	keystroke_c	c	n/a
532.955	0.0595	1065910	keystroke_a	a	n/a
533.3145	0.1355	1066629	keystroke_t	t	n/a
533.4345	0.075	1066869	keystroke_h	h	n/a
533.745	0.054	1067490	keystroke_e	e	n/a
533.784	0.12	1067568	keystroke_r	r	n/a
534.069	0.104	1068138	keystroke_i	i	n/a
534.248	0.106	1068496	keystroke_n	n	n/a
534.443	0.091	1068886	keystroke_e	e	n/a
535.718	0.105	1071436	keystroke_Key.enter	Key.enter	n/a
535.8295	22.537	1071659	prompt	n/a	chemical cafe egyptian helmet\n
537.4885	0.09	1074977	keystroke_c	c	n/a
537.6835	0.075	1075367	keystroke_h	h	n/a
537.8935	0.045	1075787	keystroke_e	e	n/a
538.6285	0.135	1077257	keystroke_m	m	n/a
539.0485	0.09	1078097	keystroke_i	i	n/a
539.2585	0.09	1078517	keystroke_c	c	n/a
539.4985	0.09	1078997	keystroke_a	a	n/a
539.6335	0.12	1079267	keystroke_l	l	n/a
540.039	0.105	1080078	keystroke_Key.space	Key.space	n/a
540.8035	0.06	1081607	keystroke_c	c	n/a
541.029	0.059	1082058	keystroke_a	a	n/a
541.328	0.075	1082656	keystroke_f	f	n/a
541.5385	0.1195	1083077	keystroke_e	e	n/a
541.898	0.1205	1083796	keystroke_Key.space	Key.space	n/a
542.079	0.09	1084158	keystroke_e	e	n/a
542.4385	0.12	1084877	keystroke_g	g	n/a
543.9985	0.0905	1087997	keystroke_y	y	n/a
545.3035	0.15	1090607	keystroke_p	p	n/a
545.4835	0.09	1090967	keystroke_t	t	n/a
545.9485	0.105	1091897	keystroke_a	a	n/a
546.144	0.1045	1092288	keystroke_i	i	n/a
546.3385	0.105	1092677	keystroke_n	n	n/a
546.6685	0.105	1093337	keystroke_Key.space	Key.space	n/a
547.1785	0.09	1094357	keystroke_h	h	n/a
547.3435	0.105	1094687	keystroke_e	e	n/a
547.5835	0.06	1095167	keystroke_l	l	n/a
547.7935	0.09	1095587	keystroke_m	m	n/a
547.9135	0.09	1095827	keystroke_e	e	n/a
548.1535	0.075	1096307	keystroke_t	t	n/a
549.6985	0.09	1099397	keystroke_Key.backspace	Key.backspace	n/a
549.923	0.0755	1099846	keystroke_Key.backspace	Key.backspace	n/a
550.1785	0.0445	1100357	keystroke_Key.backspace	Key.backspace	n/a
550.403	0.075	1100806	keystroke_Key.backspace	Key.backspace	n/a
550.643	0.0755	1101286	keystroke_Key.backspace	Key.backspace	n/a
550.883	0.06	1101766	keystroke_Key.backspace	Key.backspace	n/a
551.1085	0.06	1102217	keystroke_Key.backspace	Key.backspace	n/a
551.3335	0.06	1102667	keystroke_Key.backspace	Key.backspace	n/a
551.589	0.0745	1103178	keystroke_Key.backspace	Key.backspace	n/a
551.9335	0.0755	1103867	keystroke_Key.backspace	Key.backspace	n/a
552.9535	0.075	1105907	keystroke_i	i	n/a
553.1035	0.0605	1106207	keystroke_a	a	n/a
553.239	0.0745	1106478	keystroke_n	n	n/a
553.4485	0.105	1106897	keystroke_Key.space	Key.space	n/a
553.6135	0.09	1107227	keystroke_h	h	n/a
553.7635	0.09	1107527	keystroke_e	e	n/a
553.928	0.0905	1107856	keystroke_l	l	n/a
554.1385	0.06	1108277	keystroke_m	m	n/a
554.289	0.0595	1108578	keystroke_e	e	n/a
554.4685	0.075	1108937	keystroke_t	t	n/a
558.3205	0.044	1116641	keystroke_Key.enter	Key.enter	n/a
558.369	17.237	1116738	prompt	n/a	predicted sleeps collins infrared\n
559.5065	0.1045	1119013	keystroke_p	p	n/a
559.6705	0.09	1119341	keystroke_r	r	n/a
559.8205	0.0905	1119641	keystroke_e	e	n/a
560.0305	0.075	1120061	keystroke_d	d	n/a
560.1805	0.06	1120361	keystroke_i	i	n/a
560.3005	0.06	1120601	keystroke_c	c	n/a
560.5405	0.0445	1121081	keystroke_a	a	n/a
561.575	0.06	1123150	keystroke_Key.backspace	Key.backspace	n/a
561.71	0.061	1123420	keystroke_t	t	n/a
561.8305	0.0745	1123661	keystroke_e	e	n/a
562.025	0.075	1124050	keystroke_d	d	n/a
562.19	0.1205	1124380	keystroke_Key.space	Key.space	n/a
562.326	0.0445	1124652	keystroke_s	s	n/a
562.7755	0.1055	1125551	keystroke_l	l	n/a
562.8955	0.075	1125791	keystroke_e	e	n/a
563.0305	0.0755	1126061	keystroke_e	e	n/a
563.181	0.1045	1126362	keystroke_p	p	n/a
563.3605	0.075	1126721	keystroke_s	s	n/a
563.7355	0.1055	1127471	keystroke_Key.space	Key.space	n/a
564.1555	0.0595	1128311	keystroke_c	c	n/a
564.2605	0.1045	1128521	keystroke_o	o	n/a
564.56	0.0605	1129120	keystroke_l	l	n/a
564.725	0.076	1129450	keystroke_l	l	n/a
565.025	0.061	1130050	keystroke_i	i	n/a
565.281	0.105	1130562	keystroke_n	n	n/a
565.446	0.075	1130892	keystroke_s	s	n/a
566.001	0.075	1132002	keystroke_Key.space	Key.space	n/a
566.27	0.075	1132540	keystroke_i	i	n/a
566.4655	0.0895	1132931	keystroke_n	n	n/a
566.646	0.089	1133292	keystroke_f	f	n/a
570.384	0.027	1140768	keystroke_r	r	n/a
570.7405	0.0595	1141481	keystroke_a	a	n/a
571.625	0.09	1143250	keystroke_r	r	n/a
571.835	0.061	1143670	keystroke_e	e	n/a
572.046	0.089	1144092	keystroke_d	d	n/a
575.5315	0.073	1151063	keystroke_Key.enter	Key.enter	n/a
575.6095	12.597	1151219	prompt	n/a	primarily enabled delays useful\n
576.7445	0.0905	1153489	keystroke_p	p	n/a
577.21	0.09	1154420	keystroke_r	r	n/a
577.48	0.12	1154960	keystroke_i	i	n/a
577.9745	0.12	1155949	keystroke_m	m	n/a
578.1845	0.105	1156369	keystroke_a	a	n/a
578.56	0.0895	1157120	keystroke_r	r	n/a
578.7245	0.12	1157449	keystroke_i	i	n/a
578.8895	0.165	1157779	keystroke_l	l	n/a
579.0995	0.12	1158199	keystroke_y	y	n/a
581.199	0.105	1162398	keystroke_Key.space	Key.space	n/a
581.515	0.1045	1163030	keystroke_e	e	n/a
581.725	0.134	1163450	keystroke_n	n	n/a
582.1	0.059	1164200	keystroke_a	a	n/a
582.5195	0.09	1165039	keystroke_b	b	n/a
582.7295	0.075	1165459	keystroke_l	l	n/a
582.88	0.0745	1165760	keystroke_e	e	n/a
583.1345	0.075	1166269	keystroke_d	d	n/a
583.4945	0.105	1166989	keystroke_Key.space	Key.space	n/a
584.2895	0.075	1168579	keystroke_d	d	n/a
584.53	0.059	1169060	keystroke_e	e	n/a
584.709	0.0905	1169418	keystroke_l	l	n/a
584.919	0.06	1169838	keystroke_a	a	n/a
585.2345	0.1045	1170469	keystroke_y	y	n/a
585.579	0.075	1171158	keystroke_s	s	n/a
585.789	0.12	1171578	keystroke_Key.space	Key.space	n/a
586.03	0.12	1172060	keystroke_u	u	n/a
586.18	0.06	1172360	keystroke_s	s	n/a
586.45	0.075	1172900	keystroke_e	e	n/a
586.675	0.089	1173350	keystroke_f	f	n/a
586.84	0.105	1173680	keystroke_u	u	n/a
587.094	0.121	1174188	keystroke_l	l	n/a
588.114	0.09	1176228	keystroke_Key.enter	Key.enter	n/a
588.2095	19.1685	1176419	prompt	n/a	adventures willow antenna shake\n
590.787	0.058	1181574	keystroke_a	a	n/a
593.1265	0.013	1186253	keystroke_d	d	n/a
593.319	0.06	1186638	keystroke_v	v	n/a
593.739	0.075	1187478	keystroke_a	a	n/a
593.964	0.091	1187928	keystroke_n	n	n/a
594.22	0.0745	1188440	keystroke_t	t	n/a
594.5795	0.1655	1189159	keystroke_u	u	n/a
595.975	0.09	1191950	keystroke_Key.backspace	Key.backspace	n/a
596.17	0.105	1192340	keystroke_Key.backspace	Key.backspace	n/a
596.38	0.075	1192760	keystroke_Key.backspace	Key.backspace	n/a
596.485	0.12	1192970	keystroke_Key.backspace	Key.backspace	n/a
596.92	0.09	1193840	keystroke_e	e	n/a
597.279	0.105	1194558	keystroke_n	n	n/a
597.79	0.09	1195580	keystroke_t	t	n/a
598.03	0.105	1196060	keystroke_u	u	n/a
598.15	0.075	1196300	keystroke_r	r	n/a
598.375	0.075	1196750	keystroke_e	e	n/a
598.6	0.075	1197200	keystroke_s	s	n/a
598.9145	0.105	1197829	keystroke_Key.space	Key.space	n/a
599.1245	0.09	1198249	keystroke_w	w	n/a
599.9045	0.0755	1199809	keystroke_i	i	n/a
600.2345	0.06	1200469	keystroke_l	l	n/a
600.3695	0.105	1200739	keystroke_l	l	n/a
600.6245	0.105	1201249	keystroke_o	o	n/a
600.7895	0.0755	1201579	keystroke_w	w	n/a
601.525	0.1345	1203050	keystroke_Key.space	Key.space	n/a
601.795	0.074	1203590	keystroke_a	a	n/a
602.035	0.09	1204070	keystroke_n	n	n/a
602.365	0.09	1204730	keystroke_t	t	n/a
602.605	0.075	1205210	keystroke_e	e	n/a
603.295	0.06	1206590	keystroke_n	n	n/a
603.46	0.09	1206920	keystroke_n	n	n/a
603.61	0.09	1207220	keystroke_a	a	n/a
603.9095	0.1355	1207819	keystroke_Key.space	Key.space	n/a
604.1345	0.075	1208269	keystroke_s	s	n/a
604.3005	0.075	1208601	keystroke_h	h	n/a
604.4645	0.06	1208929	keystroke_a	a	n/a
604.629	0.078	1209258	keystroke_k	k	n/a
604.961	0.105	1209922	keystroke_e	e	n/a
607.333	0.044	1214666	keystroke_Key.enter	Key.enter	n/a
607.3815	16.1545	1214763	prompt	n/a	carried developers relates tropical\n
608.367	0.0745	1216734	keystroke_c	c	n/a
608.666	0.0755	1217332	keystroke_a	a	n/a
608.937	0.06	1217874	keystroke_r	r	n/a
609.101	0.0755	1218202	keystroke_r	r	n/a
609.281	0.091	1218562	keystroke_i	i	n/a
609.417	0.0745	1218834	keystroke_e	e	n/a
609.6115	0.075	1219223	keystroke_d	d	n/a
609.807	0.0895	1219614	keystroke_Key.space	Key.space	n/a
610.0465	0.06	1220093	keystroke_d	d	n/a
610.3015	0.105	1220603	keystroke_e	e	n/a
610.553	0.0595	1221106	keystroke_v	v	n/a
610.7625	0.0755	1221525	keystroke_e	e	n/a
612.023	0.09	1224046	keystroke_l	l	n/a
612.848	0.15	1225696	keystroke_o	o	n/a
613.058	0.105	1226116	keystroke_p	p	n/a
613.2755	0.1195	1226551	keystroke_e	e	n/a
613.41	0.09	1226820	keystroke_r	r	n/a
615.7365	0.103	1231473	keystroke_Key.backspace	Key.backspace	n/a
616.3195	0.075	1232639	keystroke_r	r	n/a
616.5895	0.075	1233179	keystroke_s	s	n/a
616.875	0.0895	1233750	keystroke_Key.space	Key.space	n/a
617.2045	0.075	1234409	keystroke_a	a	n/a
617.5795	0.0905	1235159	keystroke_Key.backspace	Key.backspace	n/a
617.685	0.105	1235370	keystroke_r	r	n/a
617.82	0.06	1235640	keystroke_e	e	n/a
618.405	0.12	1236810	keystroke_l	l	n/a
618.555	0.06	1237110	keystroke_a	a	n/a
619.095	0.075	1238190	keystroke_t	t	n/a
619.2745	0.09	1238549	keystroke_e	e	n/a
619.5295	0.0755	1239059	keystroke_s	s	n/a
619.9345	0.105	1239869	keystroke_Key.space	Key.space	n/a
620.2345	0.1655	1240469	keystroke_t	t	n/a
620.3845	0.105	1240769	keystroke_r	r	n/a
620.549	0.1345	1241098	keystroke_o	o	n/a
620.6985	0.135	1241397	keystroke_p	p	n/a
620.9085	0.1055	1241817	keystroke_i	i	n/a
621.0285	0.075	1242057	keystroke_c	c	n/a
621.2685	0.075	1242537	keystroke_a	a	n/a
621.4185	0.12	1242837	keystroke_l	l	n/a
623.429	0.105	1246858	keystroke_Key.enter	Key.enter	n/a
623.5385	8.637	1247077	prompt	n/a	sick policy friendship mazda\n
624.479	0.105	1248958	keystroke_s	s	n/a
624.7035	0.06	1249407	keystroke_i	i	n/a
624.884	0.0595	1249768	keystroke_c	c	n/a
625.0485	0.12	1250097	keystroke_k	k	n/a
625.273	0.136	1250546	keystroke_Key.space	Key.space	n/a
625.544	0.18	1251088	keystroke_p	p	n/a
625.754	0.105	1251508	keystroke_o	o	n/a
626.009	0.075	1252018	keystroke_l	l	n/a
626.249	0.06	1252498	keystroke_i	i	n/a
626.384	0.075	1252768	keystroke_c	c	n/a
626.609	0.09	1253218	keystroke_y	y	n/a
626.909	0.075	1253818	keystroke_Key.space	Key.space	n/a
627.659	0.15	1255318	keystroke_f	f	n/a
627.839	0.105	1255678	keystroke_r	r	n/a
628.034	0.075	1256068	keystroke_i	i	n/a
628.154	0.09	1256308	keystroke_e	e	n/a
628.334	0.12	1256668	keystroke_n	n	n/a
628.484	0.06	1256968	keystroke_d	d	n/a
628.709	0.06	1257418	keystroke_s	s	n/a
629.039	0.045	1258078	keystroke_h	h	n/a
629.339	0.15	1258678	keystroke_i	i	n/a
629.474	0.135	1258948	keystroke_p	p	n/a
629.909	0.075	1259818	keystroke_Key.space	Key.space	n/a
630.164	0.075	1260328	keystroke_m	m	n/a
630.314	0.06	1260628	keystroke_a	a	n/a
630.524	0.09	1261048	keystroke_z	z	n/a
630.809	0.045	1261618	keystroke_d	d	n/a
631.229	0.06	1262458	keystroke_a	a	n/a
632.084	0.09	1264168	keystroke_Key.enter	Key.enter	n/a
632.1785	12.0575	1264357	prompt	n/a	maui card laos wild\n
632.864	0.134	1265728	keystroke_m	m	n/a
633.674	0.075	1267348	keystroke_a	a	n/a
634.124	0.09	1268248	keystroke_u	u	n/a
634.9785	0.0905	1269957	keystroke_i	i	n/a
635.219	0.134	1270438	keystroke_Key.space	Key.space	n/a
635.369	0.075	1270738	keystroke_c	c	n/a
635.624	0.045	1271248	keystroke_a	a	n/a
635.8485	0.0605	1271697	keystroke_r	r	n/a
636.044	0.06	1272088	keystroke_d	d	n/a
636.794	0.134	1273588	keystroke_Key.space	Key.space	n/a
636.959	0.105	1273918	keystroke_l	l	n/a
637.258	0.061	1274516	keystroke_o	o	n/a
637.723	0.091	1275446	keystroke_a	a	n/a
638.6385	0.075	1277277	keystroke_Key.backspace	Key.backspace	n/a
638.8335	0.075	1277667	keystroke_Key.backspace	Key.backspace	n/a
639.029	0.0745	1278058	keystroke_a	a	n/a
639.1935	0.09	1278387	keystroke_o	o	n/a
639.4645	0.059	1278929	keystroke_s	s	n/a
639.8985	0.105	1279797	keystroke_Key.space	Key.space	n/a
640.0635	0.075	1280127	keystroke_w	w	n/a
640.2145	0.059	1280429	keystroke_i	i	n/a
640.454	0.0895	1280908	keystroke_l	l	n/a
640.5885	0.105	1281177	keystroke_d	d	n/a
644.145	0.088	1288290	keystroke_Key.enter	Key.enter	n/a
644.2385	17.952	1288477	prompt	n/a	treatment oliver greece estate\n
648.226	0.0575	1296452	keystroke_t	t	n/a
648.4035	0.09	1296807	keystroke_r	r	n/a
648.6735	0.075	1297347	keystroke_e	e	n/a
649.0035	0.061	1298007	keystroke_a	a	n/a
649.2895	0.074	1298579	keystroke_t	t	n/a
650.3245	0.119	1300649	keystroke_m	m	n/a
650.4895	0.059	1300979	keystroke_e	e	n/a
650.8485	0.1355	1301697	keystroke_n	n	n/a
651.179	0.0895	1302358	keystroke_t	t	n/a
651.5235	0.1055	1303047	keystroke_Key.space	Key.space	n/a
652.079	0.09	1304158	keystroke_o	o	n/a
652.364	0.105	1304728	keystroke_l	l	n/a
652.574	0.09	1305148	keystroke_i	i	n/a
652.7095	0.1045	1305419	keystroke_v	v	n/a
652.994	0.18	1305988	keystroke_e	e	n/a
653.144	0.105	1306288	keystroke_r	r	n/a
653.534	0.09	1307068	keystroke_Key.space	Key.space	n/a
653.609	0.075	1307218	keystroke_g	g	n/a
653.789	0.075	1307578	keystroke_r	r	n/a
655.649	0.0745	1311298	keystroke_e	e	n/a
655.8435	0.075	1311687	keystroke_e	e	n/a
656.099	0.0905	1312198	keystroke_c	c	n/a
656.3385	0.076	1312677	keystroke_e	e	n/a
656.7585	0.105	1313517	keystroke_Key.space	Key.space	n/a
657.0285	0.09	1314057	keystroke_e	e	n/a
657.3135	0.075	1314627	keystroke_s	s	n/a
657.674	0.075	1315348	keystroke_t	t	n/a
658.049	0.045	1316098	keystroke_a	a	n/a
658.334	0.06	1316668	keystroke_t	t	n/a
658.514	0.09	1317028	keystroke_e	e	n/a
662.161	0.028	1324322	keystroke_Key.enter	Key.enter	n/a
662.194	16.5565	1324388	prompt	n/a	hydraulic somebody's calcium imports\n
665.0405	0.043	1330081	keystroke_h	h	n/a
665.2635	0.075	1330527	keystroke_y	y	n/a
665.8785	0.075	1331757	keystroke_d	d	n/a
666.0895	0.059	1332179	keystroke_r	r	n/a
666.4045	0.0895	1332809	keystroke_a	a	n/a
667.034	0.1195	1334068	keystroke_u	u	n/a
667.4985	0.1805	1334997	keystroke_l	l	n/a
667.7235	0.12	1335447	keystroke_i	i	n/a
667.8735	0.091	1335747	keystroke_c	c	n/a
668.3085	0.0905	1336617	keystroke_Key.space	Key.space	n/a
668.5785	0.09	1337157	keystroke_s	s	n/a
668.7285	0.09	1337457	keystroke_o	o	n/a
668.9395	0.089	1337879	keystroke_m	m	n/a
669.0435	0.091	1338087	keystroke_e	e	n/a
669.3145	0.059	1338629	keystroke_b	b	n/a
669.4185	0.091	1338837	keystroke_o	o	n/a
669.5695	0.09	1339139	keystroke_d	d	n/a
669.7345	0.09	1339469	keystroke_y	y	n/a
670.4395	0.075	1340879	keystroke_'	'	n/a
670.6345	0.075	1341269	keystroke_s	s	n/a
671.174	0.135	1342348	keystroke_Key.space	Key.space	n/a
671.489	0.0605	1342978	keystroke_c	c	n/a
671.729	0.0755	1343458	keystroke_a	a	n/a
671.879	0.075	1343758	keystroke_l	l	n/a
672.119	0.075	1344238	keystroke_c	c	n/a
672.299	0.075	1344598	keystroke_i	i	n/a
672.584	0.06	1345168	keystroke_u	u	n/a
672.899	0.09	1345798	keystroke_m	m	n/a
673.619	0.09	1347238	keystroke_Key.space	Key.space	n/a
674.1735	0.076	1348347	keystroke_i	i	n/a
674.4745	0.044	1348949	keystroke_m	m	n/a
674.759	0.18	1349518	keystroke_p	p	n/a
674.924	0.135	1349848	keystroke_o	o	n/a
675.089	0.195	1350178	keystroke_r	r	n/a
675.254	0.09	1350508	keystroke_t	t	n/a
678.525	0.001	1357050	keystroke_s	s	n/a
678.659	0.0905	1357318	keystroke_Key.enter	Key.enter	n/a
678.7555	12.9395	1357511	prompt	n/a	blanket frame kurt susan\n
680.174	0.075	1360348	keystroke_b	b	n/a
680.459	0.075	1360918	keystroke_l	l	n/a
682.981	0.001	1365962	keystroke_a	a	n/a
683.069	0.1655	1366138	keystroke_n	n	n/a
683.2195	0.105	1366439	keystroke_k	k	n/a
683.3845	0.09	1366769	keystroke_e	e	n/a
683.6695	0.06	1367339	keystroke_t	t	n/a
683.9845	0.105	1367969	keystroke_Key.space	Key.space	n/a
684.1495	0.06	1368299	keystroke_d	d	n/a
684.449	0.045	1368898	keystroke_r	r	n/a
685.049	0.09	1370098	keystroke_Key.backspace	Key.backspace	n/a
685.259	0.075	1370518	keystroke_Key.backspace	Key.backspace	n/a
685.9495	0.06	1371899	keystroke_f	f	n/a
686.1445	0.045	1372289	keystroke_r	r	n/a
686.3245	0.09	1372649	keystroke_a	a	n/a
686.6545	0.1045	1373309	keystroke_m	m	n/a
686.834	0.09	1373668	keystroke_e	e	n/a
687.0745	0.104	1374149	keystroke_Key.space	Key.space	n/a
687.4035	0.061	1374807	keystroke_h	h	n/a
687.7635	0.075	1375527	keystroke_Key.backspace	Key.backspace	n/a
687.9595	0.089	1375919	keystroke_k	k	n/a
688.2145	0.09	1376429	keystroke_u	u	n/a
688.3935	0.121	1376787	keystroke_r	r	n/a
688.4995	0.089	1376999	keystroke_t	t	n/a
689.219	0.1195	1378438	keystroke_Key.space	Key.space	n/a
689.3685	0.09	1378737	keystroke_s	s	n/a
689.6085	0.09	1379217	keystroke_u	u	n/a
689.7295	0.0745	1379459	keystroke_s	s	n/a
689.9395	0.074	1379879	keystroke_a	a	n/a
690.0435	0.089	1380087	keystroke_n	n	n/a
691.588	0.105	1383176	keystroke_Key.enter	Key.enter	n/a
691.698	16.79	1383396	prompt	n/a	attendance fiscal musicians graph\n
692.4285	0.075	1384857	keystroke_a	a	n/a
692.8485	0.075	1385697	keystroke_t	t	n/a
693.0285	0.06	1386057	keystroke_t	t	n/a
693.3285	0.075	1386657	keystroke_e	e	n/a
693.6275	0.151	1387255	keystroke_n	n	n/a
694.048	0.09	1388096	keystroke_d	d	n/a
694.3935	0.104	1388787	keystroke_e	e	n/a
694.9775	0.09	1389955	keystroke_Key.backspace	Key.backspace	n/a
695.128	0.0745	1390256	keystroke_a	a	n/a
695.323	0.105	1390646	keystroke_n	n	n/a
695.4885	0.0745	1390977	keystroke_c	c	n/a
695.713	0.0745	1391426	keystroke_e	e	n/a
696.238	0.0755	1392476	keystroke_Key.space	Key.space	n/a
698.1685	0.09	1396337	keystroke_f	f	n/a
698.9935	0.091	1397987	keystroke_i	i	n/a
699.1285	0.0755	1398257	keystroke_s	s	n/a
699.3685	0.06	1398737	keystroke_c	c	n/a
699.6235	0.075	1399247	keystroke_a	a	n/a
699.8785	0.1055	1399757	keystroke_l	l	n/a
700.3435	0.09	1400687	keystroke_Key.space	Key.space	n/a
700.5685	0.075	1401137	keystroke_m	m	n/a
700.8995	0.1195	1401799	keystroke_u	u	n/a
702.534	0.09	1405068	keystroke_s	s	n/a
702.819	0.12	1405638	keystroke_i	i	n/a
703.014	0.0905	1406028	keystroke_c	c	n/a
704.1365	0.0745	1408273	keystroke_i	i	n/a
704.376	0.105	1408752	keystroke_a	a	n/a
704.556	0.12	1409112	keystroke_n	n	n/a
704.811	0.0895	1409622	keystroke_s	s	n/a
705.2905	0.12	1410581	keystroke_Key.space	Key.space	n/a
705.5755	0.075	1411151	keystroke_g	g	n/a
705.7405	0.061	1411481	keystroke_r	r	n/a
705.9805	0.075	1411961	keystroke_a	a	n/a
706.101	0.0745	1412202	keystroke_p	p	n/a
706.3705	0.09	1412741	keystroke_h	h	n/a
708.3805	0.105	1416761	keystroke_Key.enter	Key.enter	n/a
708.4905	19.4825	1416981	prompt	n/a	salmon advertisements signal javascript\n
711.233	0.0285	1422466	keystroke_s	s	n/a
711.396	0.075	1422792	keystroke_a	a	n/a
711.591	0.045	1423182	keystroke_l	l	n/a
711.786	0.0895	1423572	keystroke_m	m	n/a
712.2205	0.0755	1424441	keystroke_o	o	n/a
712.446	0.0895	1424892	keystroke_n	n	n/a
712.8065	0.119	1425613	keystroke_Key.space	Key.space	n/a
713.331	0.0895	1426662	keystroke_a	a	n/a
713.661	0.045	1427322	keystroke_d	d	n/a
713.9315	0.059	1427863	keystroke_v	v	n/a
714.1705	0.15	1428341	keystroke_e	e	n/a
714.2905	0.09	1428581	keystroke_r	r	n/a
715.086	0.075	1430172	keystroke_t	t	n/a
715.356	0.075	1430712	keystroke_i	i	n/a
715.536	0.06	1431072	keystroke_s	s	n/a
715.746	0.0755	1431492	keystroke_e	e	n/a
715.851	0.09	1431702	keystroke_m	m	n/a
715.956	0.06	1431912	keystroke_e	e	n/a
716.121	0.075	1432242	keystroke_n	n	n/a
716.256	0.075	1432512	keystroke_t	t	n/a
716.886	0.075	1433772	keystroke_s	s	n/a
717.141	0.105	1434282	keystroke_Key.space	Key.space	n/a
717.291	0.09	1434582	keystroke_s	s	n/a
717.4415	0.075	1434883	keystroke_i	i	n/a
717.7265	0.06	1435453	keystroke_g	g	n/a
717.8755	0.106	1435751	keystroke_n	n	n/a
718.146	0.075	1436292	keystroke_a	a	n/a
718.3405	0.105	1436681	keystroke_l	l	n/a
718.6255	0.06	1437251	keystroke_Key.space	Key.space	n/a
719.466	0.09	1438932	keystroke_j	j	n/a
719.736	0.0605	1439472	keystroke_a	a	n/a
720.066	0.06	1440132	keystroke_v	v	n/a
720.681	0.09	1441362	keystroke_a	a	n/a
720.996	0.075	1441992	keystroke_s	s	n/a
721.2815	0.074	1442563	keystroke_c	c	n/a
721.5805	0.0755	1443161	keystroke_r	r	n/a
721.8215	0.1195	1443643	keystroke_i	i	n/a
722.136	0.12	1444272	keystroke_p	p	n/a
722.3465	0.0745	1444693	keystroke_t	t	n/a
727.9135	0.058	1455827	keystroke_Key.enter	Key.enter	n/a
727.976	20.027	1455952	prompt	n/a	churches eating deluxe watson\n
734.0785	0.043	1468157	keystroke_c	c	n/a
734.8115	0.105	1469623	keystroke_h	h	n/a
735.8465	0.12	1471693	keystroke_u	u	n/a
736.0075	0.064	1472015	keystroke_r	r	n/a
736.3615	0.06	1472723	keystroke_c	c	n/a
736.5565	0.12	1473113	keystroke_h	h	n/a
736.7365	0.09	1473473	keystroke_e	e	n/a
737.0065	0.075	1474013	keystroke_s	s	n/a
737.3515	0.09	1474703	keystroke_Key.space	Key.space	n/a
737.5015	0.075	1475003	keystroke_e	e	n/a
737.8615	0.105	1475723	keystroke_a	a	n/a
738.0115	0.045	1476023	keystroke_s	s	n/a
738.3865	0.09	1476773	keystroke_t	t	n/a
738.8065	0.09	1477613	keystroke_Key.backspace	Key.backspace	n/a
739.0015	0.12	1478003	keystroke_Key.backspace	Key.backspace	n/a
739.1815	0.075	1478363	keystroke_t	t	n/a
739.2865	0.075	1478573	keystroke_i	i	n/a
739.5715	0.09	1479143	keystroke_n	n	n/a
739.6915	0.075	1479383	keystroke_g	g	n/a
740.0665	0.075	1480133	keystroke_Key.space	Key.space	n/a
741.9715	0.075	1483943	keystroke_d	d	n/a
742.2415	0.045	1484483	keystroke_e	e	n/a
743.037	0.1345	1486074	keystroke_l	l	n/a
743.2755	0.091	1486551	keystroke_u	u	n/a
744.132	0.075	1488264	keystroke_x	x	n/a
744.3715	0.075	1488743	keystroke_e	e	n/a
744.7015	0.105	1489403	keystroke_Key.space	Key.space	n/a
745.002	0.075	1490004	keystroke_w	w	n/a
745.272	0.059	1490544	keystroke_a	a	n/a
745.631	0.076	1491262	keystroke_t	t	n/a
745.9165	0.1055	1491833	keystroke_s	s	n/a
746.0665	0.0905	1492133	keystroke_o	o	n/a
746.322	0.059	1492644	keystroke_n	n	n/a
747.881	0.12	1495762	keystroke_Key.enter	Key.enter	n/a
748.006	23.7515	1496012	prompt	n/a	socket currently sword september\n
751.1085	0.0285	1502217	keystroke_s	s	n/a
751.1965	0.09	1502393	keystroke_o	o	n/a
751.4365	0.06	1502873	keystroke_c	c	n/a
751.6015	0.075	1503203	keystroke_k	k	n/a
751.7365	0.105	1503473	keystroke_e	e	n/a
752.0065	0.045	1504013	keystroke_t	t	n/a
753.7015	0.135	1507403	keystroke_Key.space	Key.space	n/a
753.8815	0.105	1507763	keystroke_c	c	n/a
754.2415	0.105	1508483	keystroke_u	u	n/a
754.5415	0.09	1509083	keystroke_r	r	n/a
754.7665	0.09	1509533	keystroke_r	r	n/a
755.0215	0.0905	1510043	keystroke_e	e	n/a
755.2315	0.075	1510463	keystroke_b	b	n/a
755.4565	0.09	1510913	keystroke_t	t	n/a
755.9365	0.09	1511873	keystroke_Key.backspace	Key.backspace	n/a
756.1015	0.12	1512203	keystroke_Key.backspace	Key.backspace	n/a
756.4315	0.105	1512863	keystroke_n	n	n/a
756.6715	0.105	1513343	keystroke_t	t	n/a
757.5865	0.18	1515173	keystroke_l	l	n/a
757.7815	0.075	1515563	keystroke_y	y	n/a
758.3815	0.09	1516763	keystroke_Key.space	Key.space	n/a
758.8615	0.075	1517723	keystroke_s	s	n/a
759.1465	0.045	1518293	keystroke_w	w	n/a
759.3265	0.105	1518653	keystroke_o	o	n/a
759.4765	0.06	1518953	keystroke_r	r	n/a
759.6865	0.09	1519373	keystroke_d	d	n/a
760.0615	0.105	1520123	keystroke_Key.space	Key.space	n/a
760.2715	0.075	1520543	keystroke_s	s	n/a
760.5485	0.075	1521097	keystroke_e	e	n/a
760.7285	0.09	1521457	keystroke_p	p	n/a
760.9685	0.075	1521937	keystroke_t	t	n/a
761.1785	0.075	1522357	keystroke_e	e	n/a
761.3135	0.09	1522627	keystroke_m	m	n/a
761.5235	0.075	1523047	keystroke_b	b	n/a
761.8235	0.165	1523647	keystroke_e	e	n/a
761.9585	0.09	1523917	keystroke_r	r	n/a
771.6825	0.073	1543365	keystroke_Key.enter	Key.enter	n/a
771.7605	15.0275	1543521	prompt	n/a	graph isolation reliance fired\n
773.872	0.0435	1547744	keystroke_g	g	n/a
773.8855	0.0895	1547771	keystroke_r	r	n/a
774.2155	0.075	1548431	keystroke_a	a	n/a
774.3655	0.09	1548731	keystroke_p	p	n/a
774.6805	0.105	1549361	keystroke_h	h	n/a
775.0255	0.09	1550051	keystroke_Key.space	Key.space	n/a
775.3105	0.105	1550621	keystroke_i	i	n/a
775.4905	0.075	1550981	keystroke_s	s	n/a
775.671	0.075	1551342	keystroke_o	o	n/a
775.971	0.06	1551942	keystroke_l	l	n/a
776.136	0.09	1552272	keystroke_a	a	n/a
776.496	0.075	1552992	keystroke_t	t	n/a
776.616	0.15	1553232	keystroke_i	i	n/a
776.751	0.12	1553502	keystroke_o	o	n/a
