onset	duration	sample	value	key	prompt_text
1.4265	11.636	2853	prompt	n/a	the quick brown fox jumps over a lazy dog\n
6.955	0.059	13910	keystroke_t	t	n/a
6.983	0.0605	13966	keystroke_h	h	n/a
7.194	0.0595	14388	keystroke_e	e	n/a
7.3285	0.1205	14657	keystroke_Key.space	Key.space	n/a
7.4185	0.06	14837	keystroke_q	q	n/a
7.554	0.1195	15108	keystroke_u	u	n/a
7.6285	0.105	15257	keystroke_i	i	n/a
7.7785	0.075	15557	keystroke_c	c	n/a
7.8845	0.1345	15769	keystroke_k	k	n/a
8.079	0.1045	16158	keystroke_Key.space	Key.space	n/a
8.199	0.06	16398	keystroke_b	b	n/a
8.3645	0.075	16729	keystroke_r	r	n/a
8.4545	0.0905	16909	keystroke_o	o	n/a
8.59	0.0595	17180	keystroke_w	w	n/a
8.71	0.1205	17420	keystroke_n	n	n/a
8.8305	0.1335	17661	keystroke_Key.space	Key.space	n/a
8.979	0.0155	17958	keystroke_f	f	n/a
9.2045	0.1205	18409	keystroke_o	o	n/a
9.3395	0.0745	18679	keystroke_x	x	n/a
9.58	0.12	19160	keystroke_Key.space	Key.space	n/a
9.7145	0.0745	19429	keystroke_j	j	n/a
9.925	0.0595	19850	keystroke_u	u	n/a
10.12	0.1495	20240	keystroke_m	m	n/a
10.2545	0.09	20509	keystroke_p	p	n/a
10.4045	0.06	20809	keystroke_s	s	n/a
10.5395	0.1205	21079	keystroke_Key.space	Key.space	n/a
10.6145	0.105	21229	keystroke_o	o	n/a
10.7495	0.0755	21499	keystroke_v	v	n/a
10.93	0.1045	21860	keystroke_e	e	n/a
11.0195	0.0895	22039	keystroke_r	r	n/a
11.1845	0.1055	22369	keystroke_Key.space	Key.space	n/a
11.3045	0.0595	22609	keystroke_a	a	n/a
11.38	0.1045	22760	keystroke_Key.space	Key.space	n/a
11.4695	0.105	22939	keystroke_l	l	n/a
11.59	0.044	23180	keystroke_a	a	n/a
11.755	0.0755	23510	keystroke_z	z	n/a
11.8595	0.0905	23719	keystroke_y	y	n/a
12.279	0.0905	24558	keystroke_Key.space	Key.space	n/a
12.4595	0.075	24919	keystroke_d	d	n/a
12.5645	0.1055	25129	keystroke_o	o	n/a
12.7145	0.0755	25429	keystroke_g	g	n/a
13.0145	0.0455	26029	keystroke_Key.enter	Key.enter	n/a
13.0675	7.239	26135	prompt	n/a	fully why'd comparative dropped\n
14.0195	0.0895	28039	keystroke_f	f	n/a
14.2145	0.075	28429	keystroke_u	u	n/a
14.4095	0.0605	28819	keystroke_l	l	n/a
14.5445	0.0605	29089	keystroke_l	l	n/a
14.6495	0.0605	29299	keystroke_y	y	n/a
14.8445	0.105	29689	keystroke_Key.space	Key.space	n/a
14.9795	0.0895	29959	keystroke_w	w	n/a
15.1	0.1045	30200	keystroke_h	h	n/a
15.5195	0.0755	31039	keystroke_y	y	n/a
15.7145	0.0605	31429	keystroke_'	'	n/a
16.0295	0.1055	32059	keystroke_d	d	n/a
16.5395	0.09	33079	keystroke_Key.space	Key.space	n/a
16.66	0.1045	33320	keystroke_c	c	n/a
16.795	0.075	33590	keystroke_o	o	n/a
16.96	0.0895	33920	keystroke_m	m	n/a
17.2005	0.059	34401	keystroke_p	p	n/a
17.3345	0.0755	34669	keystroke_a	a	n/a
17.5445	0.045	35089	keystroke_r	r	n/a
17.71	0.09	35420	keystroke_a	a	n/a
17.9205	0.0595	35841	keystroke_t	t	n/a
18.0545	0.09	36109	keystroke_i	i	n/a
18.1595	0.075	36319	keystroke_v	v	n/a
18.385	0.0445	36770	keystroke_e	e	n/a
18.64	0.0895	37280	keystroke_Key.space	Key.space	n/a
18.7745	0.06	37549	keystroke_d	d	n/a
18.94	0.0595	37880	keystroke_r	r	n/a
19.0445	0.0755	38089	keystroke_o	o	n/a
19.24	0.06	38480	keystroke_p	p	n/a
19.3595	0.09	38719	keystroke_p	p	n/a
19.4505	0.0595	38901	keystroke_e	e	n/a
19.615	0.0595	39230	keystroke_d	d	n/a
20.1845	0.12	40369	keystroke_Key.enter	Key.enter	n/a
20.3095	10.9175	40619	prompt	n/a	contribution mask genres technologies\n
21.0545	0.0755	42109	keystroke_c	c	n/a
21.205	0.0745	42410	keystroke_o	o	n/a
21.3995	0.105	42799	keystroke_n	n	n/a
21.49	0.1045	42980	keystroke_t	t	n/a
21.5805	0.104	43161	keystroke_r	r	n/a
22.6295	0.0755	45259	keystroke_i	i	n/a
22.8095	0.06	45619	keystroke_b	b	n/a
22.945	0.075	45890	keystroke_u	u	n/a
23.1245	0.0455	46249	keystroke_t	t	n/a
23.245	0.165	46490	keystroke_i	i	n/a
23.3805	0.12	46761	keystroke_o	o	n/a
23.845	0.0895	47690	keystroke_n	n	n/a
24.19	0.1045	48380	keystroke_Key.space	Key.space	n/a
24.3705	0.0895	48741	keystroke_m	m	n/a
24.5195	0.09	49039	keystroke_a	a	n/a
25.1645	0.091	50329	keystroke_s	s	n/a
25.3295	0.09	50659	keystroke_k	k	n/a
25.99	0.0895	51980	keystroke_Key.space	Key.space	n/a
26.0945	0.09	52189	keystroke_g	g	n/a
26.3195	0.075	52639	keystroke_e	e	n/a
26.47	0.09	52940	keystroke_n	n	n/a
26.7095	0.181	53419	keystroke_e	e	n/a
27.1745	0.1055	54349	keystroke_Key.backspace	Key.backspace	n/a
27.295	0.1355	54590	keystroke_r	r	n/a
27.3845	0.091	54769	keystroke_e	e	n/a
27.61	0.0745	55220	keystroke_s	s	n/a
27.79	0.0895	55580	keystroke_Key.space	Key.space	n/a
27.9545	0.091	55909	keystroke_t	t	n/a
28.165	0.075	56330	keystroke_e	e	n/a
28.39	0.09	56780	keystroke_c	c	n/a
28.6	0.0895	57200	keystroke_h	h	n/a
28.8695	0.09	57739	keystroke_n	n	n/a
29.0345	0.0905	58069	keystroke_o	o	n/a
29.275	0.0755	58550	keystroke_l	l	n/a
29.455	0.0895	58910	keystroke_o	o	n/a
29.6045	0.06	59209	keystroke_g	g	n/a
29.71	0.075	59420	keystroke_i	i	n/a
29.8	0.0905	59600	keystroke_e	e	n/a
29.995	0.075	59990	keystroke_s	s	n/a
31.135	0.09	62270	keystroke_Key.enter	Key.enter	n/a
31.23	10.3175	62460	prompt	n/a	understanding realtors raid beginning\n
31.975	0.0755	63950	keystroke_u	u	n/a
32.17	0.075	64340	keystroke_n	n	n/a
32.26	0.0595	64520	keystroke_d	d	n/a
32.425	0.1355	64850	keystroke_e	e	n/a
32.5145	0.0905	65029	keystroke_r	r	n/a
32.6945	0.076	65389	keystroke_s	s	n/a
32.8745	0.045	65749	keystroke_t	t	n/a
33.04	0.075	66080	keystroke_a	a	n/a
33.16	0.075	66320	keystroke_n	n	n/a
33.265	0.075	66530	keystroke_d	d	n/a
33.385	0.09	66770	keystroke_i	i	n/a
33.5355	0.075	67071	keystroke_n	n	n/a
33.7145	0.061	67429	keystroke_g	g	n/a
34.51	0.1345	69020	keystroke_Key.space	Key.space	n/a
34.825	0.0595	69650	keystroke_r	r	n/a
34.96	0.075	69920	keystroke_e	e	n/a
35.23	0.0445	70460	keystroke_a	a	n/a
35.4545	0.075	70909	keystroke_l	l	n/a
35.8595	0.0605	71719	keystroke_t	t	n/a
35.9945	0.09	71989	keystroke_o	o	n/a
36.0855	0.104	72171	keystroke_r	r	n/a
36.4005	0.075	72801	keystroke_s	s	n/a
36.7895	0.105	73579	keystroke_Key.space	Key.space	n/a
37.045	0.075	74090	keystroke_r	r	n/a
37.2695	0.075	74539	keystroke_a	a	n/a
37.4795	0.06	74959	keystroke_i	i	n/a
37.6145	0.075	75229	keystroke_d	d	n/a
37.885	0.105	75770	keystroke_Key.space	Key.space	n/a
38.0045	0.061	76009	keystroke_b	b	n/a
38.3205	0.06	76641	keystroke_e	e	n/a
38.5305	0.059	77061	keystroke_g	g	n/a
38.6655	0.075	77331	keystroke_i	i	n/a
38.8755	0.075	77751	keystroke_n	n	n/a
39.0255	0.075	78051	keystroke_n	n	n/a
39.2355	0.09	78471	keystroke_i	i	n/a
39.3405	0.09	78681	keystroke_n	n	n/a
39.5055	0.06	79011	keystroke_g	g	n/a
41.4395	0.105	82879	keystroke_Key.enter	Key.enter	n/a
41.5505	10.9765	83101	prompt	n/a	focal doubt revisions explicit\n
42.5495	0.076	85099	keystroke_f	f	n/a
42.7005	0.09	85401	keystroke_o	o	n/a
42.7745	0.105	85549	keystroke_c	c	n/a
43.0145	0.061	86029	keystroke_a	a	n/a
43.1045	0.106	86209	keystroke_l	l	n/a
43.3595	0.12	86719	keystroke_Key.space	Key.space	n/a
43.54	0.0745	87080	keystroke_d	d	n/a
43.6455	0.104	87291	keystroke_o	o	n/a
43.8245	0.09	87649	keystroke_u	u	n/a
43.9295	0.105	87859	keystroke_b	b	n/a
44.2595	0.061	88519	keystroke_t	t	n/a
44.5745	0.075	89149	keystroke_Key.space	Key.space	n/a
44.8145	0.09	89629	keystroke_r	r	n/a
44.9795	0.075	89959	keystroke_e	e	n/a
45.2955	0.09	90591	keystroke_v	v	n/a
45.5345	0.1205	91069	keystroke_i	i	n/a
45.76	0.075	91520	keystroke_s	s	n/a
45.94	0.1055	91880	keystroke_i	i	n/a
46.03	0.12	92060	keystroke_o	o	n/a
46.36	0.075	92720	keystroke_n	n	n/a
46.57	0.045	93140	keystroke_s	s	n/a
47.02	0.0905	94040	keystroke_Key.space	Key.space	n/a
47.275	0.075	94550	keystroke_e	e	n/a
47.515	0.075	95030	keystroke_x	x	n/a
47.68	0.0905	95360	keystroke_p	p	n/a
47.965	0.105	95930	keystroke_l	l	n/a
48.8355	0.135	97671	keystroke_i	i	n/a
49.2245	0.015	98449	keystroke_c	c	n/a
49.315	0.0895	98630	keystroke_i	i	n/a
49.7205	0.105	99441	keystroke_t	t	n/a
52.4675	0.058	104935	keystroke_Key.enter	Key.enter	n/a
52.5305	8.922	105061	prompt	n/a	betting troops dolls copies\n
53.6955	0.075	107391	keystroke_b	b	n/a
53.9355	0.09	107871	keystroke_e	e	n/a
54.1605	0.075	108321	keystroke_t	t	n/a
54.3255	0.089	108651	keystroke_t	t	n/a
54.5045	0.106	109009	keystroke_i	i	n/a
54.7155	0.089	109431	keystroke_n	n	n/a
54.8195	0.06	109639	keystroke_g	g	n/a
55.1205	0.105	110241	keystroke_Key.space	Key.space	n/a
55.3445	0.135	110689	keystroke_t	t	n/a
55.4645	0.0905	110929	keystroke_r	r	n/a
55.6005	0.089	111201	keystroke_o	o	n/a
55.8395	0.075	111679	keystroke_p	p	n/a
56.005	0.075	112010	keystroke_p	p	n/a
56.485	0.0755	112970	keystroke_Key.backspace	Key.backspace	n/a
56.65	0.09	113300	keystroke_Key.backspace	Key.backspace	n/a
56.935	0.09	113870	keystroke_o	o	n/a
57.1605	0.1045	114321	keystroke_p	p	n/a
57.58	0.0905	115160	keystroke_s	s	n/a
57.895	0.105	115790	keystroke_Key.space	Key.space	n/a
58.03	0.12	116060	keystroke_d	d	n/a
58.15	0.09	116300	keystroke_o	o	n/a
58.39	0.075	116780	keystroke_l	l	n/a
58.525	0.09	117050	keystroke_l	l	n/a
58.75	0.075	117500	keystroke_s	s	n/a
59.0505	0.105	118101	keystroke_Key.space	Key.space	n/a
59.2455	0.06	118491	keystroke_c	c	n/a
59.4255	0.12	118851	keystroke_o	o	n/a
59.6055	0.12	119211	keystroke_p	p	n/a
59.8305	0.09	119661	keystroke_i	i	n/a
59.9505	0.09	119901	keystroke_e	e	n/a
60.175	0.0755	120350	keystroke_s	s	n/a
61.3445	0.106	122689	keystroke_Key.enter	Key.enter	n/a
61.4585	9.7285	122917	prompt	n/a	election restructuring adverse format\n
62.2905	0.075	124581	keystroke_e	e	n/a
62.4255	0.09	124851	keystroke_l	l	n/a
62.5305	0.075	125061	keystroke_e	e	n/a
62.7405	0.0745	125481	keystroke_c	c	n/a
63.07	0.0605	126140	keystroke_t	t	n/a
63.25	0.12	126500	keystroke_i	i	n/a
63.34	0.105	126680	keystroke_o	o	n/a
63.685	0.0905	127370	keystroke_n	n	n/a
63.88	0.0905	127760	keystroke_Key.space	Key.space	n/a
64.06	0.075	128120	keystroke_r	r	n/a
64.1805	0.075	128361	keystroke_e	e	n/a
64.465	0.0455	128930	keystroke_s	s	n/a
64.66	0.12	129320	keystroke_t	t	n/a
64.765	0.105	129530	keystroke_r	r	n/a
64.9155	0.12	129831	keystroke_u	u	n/a
65.1555	0.0595	130311	keystroke_c	c	n/a
65.47	0.03	130940	keystroke_t	t	n/a
65.665	0.0905	131330	keystroke_u	u	n/a
65.8155	0.0595	131631	keystroke_r	r	n/a
65.935	0.075	131870	keystroke_i	i	n/a
66.13	0.0755	132260	keystroke_n	n	n/a
66.265	0.0755	132530	keystroke_g	g	n/a
66.775	0.0755	133550	keystroke_Key.space	Key.space	n/a
67.0155	0.03	134031	keystroke_a	a	n/a
67.3155	0.03	134631	keystroke_d	d	n/a
68.3055	0.06	136611	keystroke_v	v	n/a
68.5155	0.12	137031	keystroke_e	e	n/a
68.5905	0.09	137181	keystroke_r	r	n/a
68.8005	0.075	137601	keystroke_s	s	n/a
69.0105	0.06	138021	keystroke_e	e	n/a
69.385	0.0755	138770	keystroke_Key.space	Key.space	n/a
69.4905	0.0895	138981	keystroke_f	f	n/a
69.625	0.135	139250	keystroke_o	o	n/a
69.776	0.0295	139552	keystroke_r	r	n/a
69.8805	0.09	139761	keystroke_m	m	n/a
70.0305	0.075	140061	keystroke_a	a	n/a
70.2705	0.045	140541	keystroke_t	t	n/a
71.065	0.12	142130	keystroke_Key.enter	Key.enter	n/a
71.1905	10.6015	142381	prompt	n/a	seasonal use leasing developed\n
71.935	0.0755	143870	keystroke_s	s	n/a
72.145	0.075	144290	keystroke_e	e	n/a
72.37	0.06	144740	keystroke_a	a	n/a
72.565	0.06	145130	keystroke_s	s	n/a
72.701	0.104	145402	keystroke_o	o	n/a
72.9555	0.09	145911	keystroke_n	n	n/a
73.1055	0.06	146211	keystroke_a	a	n/a
73.2555	0.09	146511	keystroke_l	l	n/a
73.9	0.09	147800	keystroke_Key.space	Key.space	n/a
74.14	0.09	148280	keystroke_u	u	n/a
74.276	0.0745	148552	keystroke_s	s	n/a
74.485	0.0905	148970	keystroke_e	e	n/a
74.695	0.12	149390	keystroke_Key.space	Key.space	n/a
74.9805	0.104	149961	keystroke_l	l	n/a
75.0995	0.0905	150199	keystroke_e	e	n/a
75.3255	0.075	150651	keystroke_a	a	n/a
75.5205	0.0595	151041	keystroke_s	s	n/a
75.64	0.0905	151280	keystroke_i	i	n/a
75.8205	0.075	151641	keystroke_n	n	n/a
75.9405	0.074	151881	keystroke_g	g	n/a
76.8845	0.1055	153769	keystroke_Key.space	Key.space	n/a
77.3205	0.059	154641	keystroke_d	d	n/a
77.5455	0.044	155091	keystroke_e	e	n/a
77.7845	0.076	155569	keystroke_v	v	n/a
79.06	0.0905	158120	keystroke_e	e	n/a
79.2255	0.09	158451	keystroke_l	l	n/a
79.4805	0.165	158961	keystroke_o	o	n/a
79.6305	0.12	159261	keystroke_p	p	n/a
79.7205	0.09	159441	keystroke_e	e	n/a
79.96	0.06	159920	keystroke_d	d	n/a
81.655	0.1355	163310	keystroke_Key.enter	Key.enter	n/a
81.7945	9.9435	163589	prompt	n/a	optimize sounds alabama beach\n
82.7505	0.165	165501	keystroke_o	o	n/a
82.8705	0.12	165741	keystroke_p	p	n/a
83.0205	0.075	166041	keystroke_t	t	n/a
83.5155	0.09	167031	keystroke_i	i	n/a
83.8305	0.09	167661	keystroke_m	m	n/a
84.2655	0.075	168531	keystroke_i	i	n/a
85.5105	0.06	171021	keystroke_z	z	n/a
85.7805	0.0595	171561	keystroke_e	e	n/a
86.1105	0.09	172221	keystroke_Key.space	Key.space	n/a
86.2155	0.075	172431	keystroke_s	s	n/a
86.3055	0.12	172611	keystroke_o	o	n/a
86.4705	0.075	172941	keystroke_u	u	n/a
86.6955	0.075	173391	keystroke_n	n	n/a
86.7855	0.06	173571	keystroke_d	d	n/a
87.1005	0.06	174201	keystroke_s	s	n/a
87.3995	0.0905	174799	keystroke_Key.space	Key.space	n/a
87.7	0.0455	175400	keystroke_a	a	n/a
87.85	0.091	175700	keystroke_l	l	n/a
88.0305	0.075	176061	keystroke_a	a	n/a
88.3	0.0905	176600	keystroke_b	b	n/a
88.735	0.0905	177470	keystroke_a	a	n/a
88.9005	0.09	177801	keystroke_m	m	n/a
89.1405	0.06	178281	keystroke_a	a	n/a
89.6505	0.059	179301	keystroke_Key.space	Key.space	n/a
90.1295	0.091	180259	keystroke_b	b	n/a
90.2505	0.075	180501	keystroke_e	e	n/a
90.4905	0.06	180981	keystroke_a	a	n/a
90.8055	0.09	181611	keystroke_c	c	n/a
90.9405	0.12	181881	keystroke_h	h	n/a
91.6155	0.12	183231	keystroke_Key.enter	Key.enter	n/a
91.741	9.446	183482	prompt	n/a	marble tree fixed commentary\n
92.5905	0.075	185181	keystroke_m	m	n/a
92.7105	0.075	185421	keystroke_a	a	n/a
92.9355	0.06	185871	keystroke_r	r	n/a
93.2955	0.075	186591	keystroke_b	b	n/a
93.4605	0.075	186921	keystroke_l	l	n/a
93.6105	0.075	187221	keystroke_e	e	n/a
93.8655	0.09	187731	keystroke_Key.space	Key.space	n/a
94.0755	0.075	188151	keystroke_t	t	n/a
94.285	0.075	188570	keystroke_r	r	n/a
94.51	0.06	189020	keystroke_e	e	n/a
94.66	0.09	189320	keystroke_e	e	n/a
94.855	0.09	189710	keystroke_Key.space	Key.space	n/a
94.99	0.0755	189980	keystroke_f	f	n/a
95.17	0.075	190340	keystroke_i	i	n/a
95.275	0.0755	190550	keystroke_x	x	n/a
95.5155	0.0595	191031	keystroke_e	e	n/a
95.71	0.06	191420	keystroke_d	d	n/a
95.875	0.105	191750	keystroke_Key.space	Key.space	n/a
96.01	0.0755	192020	keystroke_c	c	n/a
96.145	0.105	192290	keystroke_o	o	n/a
96.3555	0.075	192711	keystroke_m	m	n/a
96.5355	0.09	193071	keystroke_m	m	n/a
96.7455	0.075	193491	keystroke_e	e	n/a
96.9555	0.06	193911	keystroke_n	n	n/a
97.1205	0.06	194241	keystroke_t	t	n/a
97.4505	0.09	194901	keystroke_a	a	n/a
97.7205	0.045	195441	keystroke_r	r	n/a
97.8555	0.09	195711	keystroke_y	y	n/a
101.1575	0.028	202315	keystroke_Key.enter	Key.enter	n/a
101.19	9.4915	202380	prompt	n/a	dates structural easier position\n
102.0105	0.075	204021	keystroke_d	d	n/a
102.1755	0.075	204351	keystroke_a	a	n/a
102.415	0.075	204830	keystroke_t	t	n/a
102.5505	0.105	205101	keystroke_e	e	n/a
102.82	0.06	205640	keystroke_s	s	n/a
103.045	0.105	206090	keystroke_Key.space	Key.space	n/a
103.18	0.075	206360	keystroke_s	s	n/a
103.405	0.15	206810	keystroke_t	t	n/a
103.541	0.134	207082	keystroke_r	r	n/a
103.78	0.15	207560	keystroke_u	u	n/a
103.945	0.06	207890	keystroke_c	c	n/a
104.26	0.075	208520	keystroke_t	t	n/a
104.74	0.106	209480	keystroke_u	u	n/a
104.86	0.075	209720	keystroke_r	r	n/a
105.145	0.09	210290	keystroke_a	a	n/a
105.3105	0.0895	210621	keystroke_l	l	n/a
105.64	0.09	211280	keystroke_Key.space	Key.space	n/a
105.76	0.06	211520	keystroke_e	e	n/a
105.985	0.0905	211970	keystroke_a	a	n/a
106.0605	0.0895	212121	keystroke_s	s	n/a
106.225	0.09	212450	keystroke_i	i	n/a
106.345	0.151	212690	keystroke_e	e	n/a
106.4505	0.1195	212901	keystroke_r	r	n/a
106.705	0.135	213410	keystroke_Key.space	Key.space	n/a
106.871	0.104	213742	keystroke_p	p	n/a
106.99	0.12	213980	keystroke_o	o	n/a
107.1855	0.0745	214371	keystroke_s	s	n/a
107.3355	0.0895	214671	keystroke_i	i	n/a
107.53	0.075	215060	keystroke_t	t	n/a
107.65	0.105	215300	keystroke_i	i	n/a
107.74	0.106	215480	keystroke_o	o	n/a
108.01	0.0905	216020	keystroke_n	n	n/a
110.6375	0.043	221275	keystroke_Key.enter	Key.enter	n/a
110.685	8.097	221370	prompt	n/a	match filter timothy project\n
111.4305	0.0745	222861	keystroke_m	m	n/a
111.565	0.0755	223130	keystroke_a	a	n/a
111.79	0.0755	223580	keystroke_t	t	n/a
112.0605	0.075	224121	keystroke_c	c	n/a
112.2255	0.09	224451	keystroke_h	h	n/a
112.4955	0.105	224991	keystroke_Key.space	Key.space	n/a
112.6455	0.105	225291	keystroke_f	f	n/a
112.9305	0.09	225861	keystroke_i	i	n/a
113.2755	0.105	226551	keystroke_l	l	n/a
113.5755	0.075	227151	keystroke_t	t	n/a
113.7705	0.135	227541	keystroke_e	e	n/a
113.8905	0.09	227781	keystroke_r	r	n/a
114.2655	0.105	228531	keystroke_Key.space	Key.space	n/a
114.6405	0.12	229281	keystroke_t	t	n/a
114.8355	0.075	229671	keystroke_i	i	n/a
115.0905	0.075	230181	keystroke_m	m	n/a
115.2855	0.075	230571	keystroke_o	o	n/a
116.0055	0.12	232011	keystroke_t	t	n/a
116.1105	0.09	232221	keystroke_h	h	n/a
116.3655	0.06	232731	keystroke_y	y	n/a
116.6205	0.105	233241	keystroke_Key.space	Key.space	n/a
116.8005	0.09	233601	keystroke_p	p	n/a
116.9055	0.075	233811	keystroke_r	r	n/a
117.0255	0.0755	234051	keystroke_o	o	n/a
117.2205	0.075	234441	keystroke_j	j	n/a
117.3255	0.075	234651	keystroke_e	e	n/a
117.6405	0.06	235281	keystroke_c	c	n/a
117.9705	0.045	235941	keystroke_t	t	n/a
118.6905	0.09	237381	keystroke_Key.enter	Key.enter	n/a
118.785	9.522	237570	prompt	n/a	any porsche intervention terminal\n
119.4555	0.074	238911	keystroke_a	a	n/a
119.62	0.09	239240	keystroke_n	n	n/a
119.8155	0.0745	239631	keystroke_y	y	n/a
119.95	0.12	239900	keystroke_Key.space	Key.space	n/a
120.0855	0.1795	240171	keystroke_p	p	n/a
120.2805	0.075	240561	keystroke_o	o	n/a
120.415	0.06	240830	keystroke_r	r	n/a
120.925	0.06	241850	keystroke_s	s	n/a
121.15	0.0755	242300	keystroke_c	c	n/a
121.27	0.0905	242540	keystroke_h	h	n/a
121.4505	0.06	242901	keystroke_e	e	n/a
121.5855	0.12	243171	keystroke_Key.space	Key.space	n/a
121.6905	0.075	243381	keystroke_i	i	n/a
121.7955	0.105	243591	keystroke_n	n	n/a
121.9305	0.06	243861	keystroke_t	t	n/a
122.1255	0.135	244251	keystroke_e	e	n/a
122.6055	0.075	245211	keystroke_r	r	n/a
122.8905	0.06	245781	keystroke_v	v	n/a
123.1	0.0605	246200	keystroke_e	e	n/a
123.221	0.1045	246442	keystroke_n	n	n/a
123.43	0.0455	246860	keystroke_t	t	n/a
123.521	0.1035	247042	keystroke_i	i	n/a
123.6105	0.09	247221	keystroke_o	o	n/a
123.8495	0.1065	247699	keystroke_n	n	n/a
123.9705	0.1195	247941	keystroke_Key.space	Key.space	n/a
124.1055	0.09	248211	keystroke_t	t	n/a
124.27	0.15	248540	keystroke_e	e	n/a
124.4055	0.0895	248811	keystroke_r	r	n/a
124.5255	0.1195	249051	keystroke_m	m	n/a
124.69	0.0605	249380	keystroke_m	m	n/a
125.2755	0.09	250551	keystroke_Key.backspace	Key.backspace	n/a
125.4855	0.09	250971	keystroke_i	i	n/a
125.7405	0.09	251481	keystroke_n	n	n/a
125.9205	0.06	251841	keystroke_a	a	n/a
126.0705	0.105	252141	keystroke_l	l	n/a
128.2465	0.059	256493	keystroke_Key.enter	Key.enter	n/a
128.31	8.112	256620	prompt	n/a	procurement corn meetings contents\n
129.0555	0.12	258111	keystroke_p	p	n/a
129.2355	0.075	258471	keystroke_r	r	n/a
129.4605	0.0595	258921	keystroke_o	o	n/a
129.7155	0.075	259431	keystroke_c	c	n/a
129.94	0.105	259880	keystroke_u	u	n/a
130.12	0.0905	260240	keystroke_r	r	n/a
130.3305	0.0745	260661	keystroke_e	e	n/a
130.465	0.0905	260930	keystroke_m	m	n/a
130.57	0.075	261140	keystroke_e	e	n/a
130.72	0.075	261440	keystroke_n	n	n/a
130.87	0.06	261740	keystroke_t	t	n/a
131.0655	0.105	262131	keystroke_Key.space	Key.space	n/a
131.2305	0.105	262461	keystroke_c	c	n/a
131.3655	0.12	262731	keystroke_o	o	n/a
131.5455	0.075	263091	keystroke_r	r	n/a
131.7255	0.075	263451	keystroke_n	n	n/a
131.9505	0.104	263901	keystroke_Key.space	Key.space	n/a
132.1755	0.09	264351	keystroke_m	m	n/a
132.2955	0.06	264591	keystroke_e	e	n/a
132.4455	0.09	264891	keystroke_e	e	n/a
132.6405	0.09	265281	keystroke_t	t	n/a
132.7905	0.09	265581	keystroke_i	i	n/a
132.955	0.1055	265910	keystroke_n	n	n/a
133.135	0.0755	266270	keystroke_g	g	n/a
133.5105	0.0745	267021	keystroke_s	s	n/a
133.915	0.105	267830	keystroke_Key.space	Key.space	n/a
134.0505	0.0895	268101	keystroke_c	c	n/a
134.1705	0.0745	268341	keystroke_o	o	n/a
134.365	0.09	268730	keystroke_n	n	n/a
134.515	0.075	269030	keystroke_t	t	n/a
134.71	0.0905	269420	keystroke_e	e	n/a
134.905	0.0905	269810	keystroke_n	n	n/a
135.04	0.06	270080	keystroke_t	t	n/a
135.4	0.0755	270800	keystroke_s	s	n/a
136.3	0.12	272600	keystroke_Key.enter	Key.enter	n/a
136.425	6.9715	272850	prompt	n/a	pleasure ericsson anymore prep\n
137.0945	0.181	274189	keystroke_p	p	n/a
137.2755	0.089	274551	keystroke_l	l	n/a
137.3795	0.075	274759	keystroke_e	e	n/a
137.5745	0.105	275149	keystroke_a	a	n/a
137.6655	0.105	275331	keystroke_s	s	n/a
137.8155	0.1045	275631	keystroke_u	u	n/a
137.965	0.09	275930	keystroke_r	r	n/a
138.175	0.09	276350	keystroke_e	e	n/a
138.415	0.105	276830	keystroke_Key.space	Key.space	n/a
138.715	0.09	277430	keystroke_e	e	n/a
139.03	0.09	278060	keystroke_r	r	n/a
139.165	0.12	278330	keystroke_i	i	n/a
139.345	0.075	278690	keystroke_c	c	n/a
139.57	0.045	279140	keystroke_s	s	n/a
139.72	0.0605	279440	keystroke_s	s	n/a
139.84	0.0905	279680	keystroke_o	o	n/a
140.1105	0.0895	280221	keystroke_n	n	n/a
140.23	0.09	280460	keystroke_Key.space	Key.space	n/a
140.3355	0.0745	280671	keystroke_a	a	n/a
140.425	0.09	280850	keystroke_n	n	n/a
140.65	0.075	281300	keystroke_y	y	n/a
140.785	0.195	281570	keystroke_m	m	n/a
141.28	0.0755	282560	keystroke_o	o	n/a
141.49	0.0605	282980	keystroke_r	r	n/a
141.67	0.075	283340	keystroke_e	e	n/a
141.94	0.1045	283880	keystroke_Key.space	Key.space	n/a
142.1045	0.091	284209	keystroke_p	p	n/a
142.2545	0.076	284509	keystroke_r	r	n/a
142.4655	0.045	284931	keystroke_e	e	n/a
142.6455	0.074	285291	keystroke_p	p	n/a
143.3055	0.09	286611	keystroke_Key.enter	Key.enter	n/a
143.4	13.0765	286800	prompt	n/a	servers timeline illustrations nearby\n
143.9055	0.075	287811	keystroke_s	s	n/a
144.0855	0.12	288171	keystroke_e	e	n/a
144.1755	0.075	288351	keystroke_r	r	n/a
144.4155	0.075	288831	keystroke_v	v	n/a
144.6105	0.1345	289221	keystroke_e	e	n/a
144.985	0.06	289970	keystroke_r	r	n/a
145.2105	0.0595	290421	keystroke_s	s	n/a
145.36	0.105	290720	keystroke_Key.space	Key.space	n/a
145.495	0.06	290990	keystroke_t	t	n/a
145.5855	0.06	291171	keystroke_i	i	n/a
145.7805	0.0755	291561	keystroke_m	m	n/a
145.8855	0.09	291771	keystroke_e	e	n/a
145.9905	0.1045	291981	keystroke_l	l	n/a
146.17	0.0605	292340	keystroke_i	i	n/a
146.365	0.09	292730	keystroke_n	n	n/a
146.515	0.075	293030	keystroke_e	e	n/a
146.62	0.15	293240	keystroke_Key.space	Key.space	n/a
146.83	0.105	293660	keystroke_i	i	n/a
147.07	0.075	294140	keystroke_s	s	n/a
147.325	0.075	294650	keystroke_l	l	n/a
147.49	0.075	294980	keystroke_l	l	n/a
147.76	0.09	295520	keystroke_u	u	n/a
147.91	0.075	295820	keystroke_s	s	n/a
148.27	0.06	296540	keystroke_Key.backspace	Key.backspace	n/a
148.42	0.06	296840	keystroke_Key.backspace	Key.backspace	n/a
148.57	0.06	297140	keystroke_Key.backspace	Key.backspace	n/a
148.7055	0.0895	297411	keystroke_Key.backspace	Key.backspace	n/a
148.9605	0.0745	297921	keystroke_i	i	n/a
149.305	0.075	298610	keystroke_Key.backspace	Key.backspace	n/a
149.6205	0.0895	299241	keystroke_Key.backspace	Key.backspace	n/a
149.89	0.0605	299780	keystroke_i	i	n/a
150.295	0.06	300590	keystroke_Key.backspace	Key.backspace	n/a
150.505	0.0455	301010	keystroke_l	l	n/a
150.6555	0.045	301311	keystroke_l	l	n/a
150.91	0.0755	301820	keystroke_u	u	n/a
151.09	0.06	302180	keystroke_s	s	n/a
151.315	0.135	302630	keystroke_t	t	n/a
151.405	0.09	302810	keystroke_r	r	n/a
151.7055	0.0295	303411	keystroke_a	a	n/a
151.93	0.075	303860	keystroke_t	t	n/a
152.065	0.1655	304130	keystroke_i	i	n/a
152.215	0.09	304430	keystroke_o	o	n/a
152.455	0.0905	304910	keystroke_n	n	n/a
152.5605	0.075	305121	keystroke_s	s	n/a
152.7555	0.105	305511	keystroke_Key.space	Key.space	n/a
152.905	0.09	305810	keystroke_n	n	n/a
153.04	0.135	306080	keystroke_e	e	n/a
153.19	0.075	306380	keystroke_r	r	n/a
153.67	0.09	307340	keystroke_Key.backspace	Key.backspace	n/a
153.775	0.06	307550	keystroke_a	a	n/a
154.5705	0.06	309141	keystroke_r	r	n/a
154.8555	0.06	309711	keystroke_b	b	n/a
154.9755	0.075	309951	keystroke_y	y	n/a
156.37	0.105	312740	keystroke_Key.enter	Key.enter	n/a
156.4825	10.8245	312965	prompt	n/a	instrumental billing coat totals\n
157.2095	0.061	314419	keystroke_i	i	n/a
157.45	0.075	314900	keystroke_n	n	n/a
157.57	0.075	315140	keystroke_s	s	n/a
157.735	0.1205	315470	keystroke_t	t	n/a
157.825	0.12	315650	keystroke_r	r	n/a
158.005	0.0745	316010	keystroke_u	u	n/a
158.635	0.075	317270	keystroke_m	m	n/a
158.755	0.075	317510	keystroke_e	e	n/a
158.89	0.075	317780	keystroke_n	n	n/a
159.025	0.075	318050	keystroke_t	t	n/a
159.355	0.061	318710	keystroke_a	a	n/a
159.52	0.1055	319040	keystroke_l	l	n/a
159.7305	0.075	319461	keystroke_Key.space	Key.space	n/a
159.8805	0.075	319761	keystroke_b	b	n/a
160.4055	0.075	320811	keystroke_i	i	n/a
160.72	0.075	321440	keystroke_l	l	n/a
161.7405	0.104	323481	keystroke_l	l	n/a
162.0395	0.06	324079	keystroke_i	i	n/a
162.2795	0.075	324559	keystroke_n	n	n/a
162.3995	0.0755	324799	keystroke_g	g	n/a
162.685	0.1045	325370	keystroke_Key.space	Key.space	n/a
163.6	0.075	327200	keystroke_c	c	n/a
163.7505	0.0895	327501	keystroke_o	o	n/a
163.885	0.045	327770	keystroke_a	a	n/a
164.125	0.045	328250	keystroke_t	t	n/a
164.305	0.075	328610	keystroke_Key.space	Key.space	n/a
164.4555	0.0895	328911	keystroke_t	t	n/a
164.635	0.09	329270	keystroke_o	o	n/a
164.83	0.06	329660	keystroke_t	t	n/a
165.145	0.075	330290	keystroke_a	a	n/a
165.3245	0.106	330649	keystroke_l	l	n/a
165.5045	0.045	331009	keystroke_s	s	n/a
167.2	0.105	334400	keystroke_Key.enter	Key.enter	n/a
167.31	11.997	334620	prompt	n/a	split inherited sleeping estonia\n
168.2355	0.074	336471	keystroke_s	s	n/a
169.2695	0.09	338539	keystroke_p	p	n/a
169.5405	0.029	339081	keystroke_l	l	n/a
169.8555	0.1195	339711	keystroke_i	i	n/a
170.0945	0.06	340189	keystroke_t	t	n/a
170.4395	0.105	340879	keystroke_Key.space	Key.space	n/a
170.6345	0.075	341269	keystroke_i	i	n/a
170.8155	0.104	341631	keystroke_n	n	n/a
172	0.1045	344000	keystroke_h	h	n/a
172.165	0.1795	344330	keystroke_e	e	n/a
172.3295	0.105	344659	keystroke_r	r	n/a
172.8545	0.0905	345709	keystroke_i	i	n/a
173.0945	0.0755	346189	keystroke_t	t	n/a
173.305	0.0595	346610	keystroke_e	e	n/a
173.5305	0.0445	347061	keystroke_d	d	n/a
173.8	0.0745	347600	keystroke_Key.space	Key.space	n/a
173.9195	0.075	347839	keystroke_s	s	n/a
174.085	0.09	348170	keystroke_l	l	n/a
174.3095	0.03	348619	keystroke_e	e	n/a
174.4445	0.075	348889	keystroke_e	e	n/a
174.5645	0.0905	349129	keystroke_p	p	n/a
174.775	0.06	349550	keystroke_i	i	n/a
175.015	0.075	350030	keystroke_n	n	n/a
175.12	0.075	350240	keystroke_g	g	n/a
175.405	0.075	350810	keystroke_Key.space	Key.space	n/a
175.54	0.06	351080	keystroke_e	e	n/a
175.735	0.075	351470	keystroke_s	s	n/a
175.975	0.06	351950	keystroke_t	t	n/a
176.095	0.09	352190	keystroke_o	o	n/a
176.32	0.09	352640	keystroke_n	n	n/a
176.515	0.075	353030	keystroke_i	i	n/a
176.695	0.075	353390	keystroke_a	a	n/a
179.262	0.043	358524	keystroke_Key.enter	Key.enter	n/a
179.3095	12.0575	358619	prompt	n/a	bedford sometimes thanks gabriel\n
180.265	0.105	360530	keystroke_b	b	n/a
180.445	0.06	360890	keystroke_e	e	n/a
180.655	0.06	361310	keystroke_d	d	n/a
181.285	0.075	362570	keystroke_f	f	n/a
181.48	0.1055	362960	keystroke_o	o	n/a
181.6605	0.075	363321	keystroke_r	r	n/a
181.9155	0.06	363831	keystroke_d	d	n/a
182.3645	0.0905	364729	keystroke_Key.space	Key.space	n/a
182.6345	0.0755	365269	keystroke_s	s	n/a
182.725	0.0745	365450	keystroke_o	o	n/a
182.92	0.09	365840	keystroke_m	m	n/a
183.025	0.075	366050	keystroke_e	e	n/a
183.4	0.045	366800	keystroke_t	t	n/a
183.475	0.075	366950	keystroke_i	i	n/a
183.655	0.09	367310	keystroke_m	m	n/a
183.775	0.0755	367550	keystroke_e	e	n/a
183.985	0.06	367970	keystroke_s	s	n/a
184.21	0.075	368420	keystroke_Key.space	Key.space	n/a
184.4505	0.0745	368901	keystroke_t	t	n/a
184.5555	0.0745	369111	keystroke_h	h	n/a
184.84	0.06	369680	keystroke_a	a	n/a
184.9755	0.1495	369951	keystroke_n	n	n/a
185.08	0.105	370160	keystroke_k	k	n/a
185.275	0.06	370550	keystroke_s	s	n/a
185.485	0.09	370970	keystroke_Key.space	Key.space	n/a
185.6205	0.06	371241	keystroke_g	g	n/a
185.8755	0.06	371751	keystroke_a	a	n/a
186.1455	0.06	372291	keystroke_b	b	n/a
186.94	0.09	373880	keystroke_r	r	n/a
187.06	0.075	374120	keystroke_i	i	n/a
187.3905	0.06	374781	keystroke_e	e	n/a
187.5255	0.09	375051	keystroke_l	l	n/a
191.292	0.073	382584	keystroke_Key.enter	Key.enter	n/a
191.3705	9.567	382741	prompt	n/a	consult nightmare arabic liked\n
192.145	0.075	384290	keystroke_c	c	n/a
192.2505	0.0895	384501	keystroke_o	o	n/a
192.4905	0.075	384981	keystroke_n	n	n/a
192.6255	0.09	385251	keystroke_s	s	n/a
192.8505	0.045	385701	keystroke_u	u	n/a
193.1805	0.105	386361	keystroke_l	l	n/a
193.3605	0.06	386721	keystroke_t	t	n/a
193.825	0.0745	387650	keystroke_Key.space	Key.space	n/a
194.0505	0.135	388101	keystroke_n	n	n/a
194.1995	0.045	388399	keystroke_i	i	n/a
194.6195	0.211	389239	keystroke_g	g	n/a
194.8155	0.12	389631	keystroke_h	h	n/a
194.9955	0.105	389991	keystroke_t	t	n/a
195.4005	0.09	390801	keystroke_m	m	n/a
195.5205	0.09	391041	keystroke_a	a	n/a
195.7605	0.12	391521	keystroke_r	r	n/a
195.8955	0.09	391791	keystroke_e	e	n/a
196.3605	0.09	392721	keystroke_Key.space	Key.space	n/a
196.4805	0.06	392961	keystroke_a	a	n/a
196.7055	0.06	393411	keystroke_r	r	n/a
196.9755	0.06	393951	keystroke_a	a	n/a
198.2195	0.076	396439	keystroke_b	b	n/a
198.3995	0.121	396799	keystroke_i	i	n/a
198.5955	0.075	397191	keystroke_c	c	n/a
198.8505	0.09	397701	keystroke_Key.space	Key.space	n/a
199.0455	0.12	398091	keystroke_l	l	n/a
199.2105	0.075	398421	keystroke_i	i	n/a
199.4355	0.075	398871	keystroke_k	k	n/a
199.6305	0.06	399261	keystroke_e	e	n/a
199.8855	0.06	399771	keystroke_d	d	n/a
200.7705	0.165	401541	keystroke_Key.enter	Key.enter	n/a
200.9405	13.4665	401881	prompt	n/a	permissions washing powerful betting\n
201.6855	0.09	403371	keystroke_p	p	n/a
201.8195	0.1665	403639	keystroke_e	e	n/a
201.955	0.12	403910	keystroke_r	r	n/a
202.3005	0.0145	404601	keystroke_m	m	n/a
202.39	0.091	404780	keystroke_i	i	n/a
202.555	0.075	405110	keystroke_s	s	n/a
202.69	0.075	405380	keystroke_s	s	n/a
202.825	0.12	405650	keystroke_i	i	n/a
202.915	0.105	405830	keystroke_o	o	n/a
203.2	0.09	406400	keystroke_n	n	n/a
203.44	0.06	406880	keystroke_s	s	n/a
203.935	0.09	407870	keystroke_Key.space	Key.space	n/a
204.07	0.0605	408140	keystroke_w	w	n/a
204.265	0.1355	408530	keystroke_a	a	n/a
204.385	0.1055	408770	keystroke_s	s	n/a
204.5805	0.105	409161	keystroke_h	h	n/a
204.7905	0.075	409581	keystroke_i	i	n/a
205.0305	0.075	410061	keystroke_n	n	n/a
205.2105	0.0595	410421	keystroke_g	g	n/a
205.6595	0.09	411319	keystroke_Key.space	Key.space	n/a
205.915	0.1655	411830	keystroke_p	p	n/a
206.0505	0.12	412101	keystroke_o	o	n/a
206.215	0.1355	412430	keystroke_w	w	n/a
206.305	0.105	412610	keystroke_e	e	n/a
206.5755	0.0745	413151	keystroke_r	r	n/a
206.77	0.105	413540	keystroke_f	f	n/a
206.875	0.0905	413750	keystroke_u	u	n/a
207.13	0.12	414260	keystroke_l	l	n/a
207.82	0.105	415640	keystroke_Key.space	Key.space	n/a
207.9555	0.09	415911	keystroke_b	b	n/a
208.165	0.075	416330	keystroke_e	e	n/a
208.39	0.06	416780	keystroke_t	t	n/a
208.525	0.0905	417050	keystroke_t	t	n/a
208.6905	0.12	417381	keystroke_i	i	n/a
208.8245	0.12	417649	keystroke_n	n	n/a
209.0055	0.075	418011	keystroke_g	g	n/a
214.3325	0.073	428665	keystroke_Key.enter	Key.enter	n/a
214.41	10.377	428820	prompt	n/a	suggested prison midwest suites\n
215.2605	0.09	430521	keystroke_s	s	n/a
215.4255	0.075	430851	keystroke_u	u	n/a
215.6205	0.06	431241	keystroke_g	g	n/a
215.7555	0.06	431511	keystroke_g	g	n/a
215.9505	0.075	431901	keystroke_e	e	n/a
216.2205	0.075	432441	keystroke_s	s	n/a
216.5505	0.06	433101	keystroke_e	e	n/a
216.9855	0.089	433971	keystroke_Key.backspace	Key.backspace	n/a
217.1055	0.059	434211	keystroke_t	t	n/a
217.225	0.0605	434450	keystroke_e	e	n/a
217.4355	0.06	434871	keystroke_d	d	n/a
217.5245	0.1205	435049	keystroke_Key.space	Key.space	n/a
217.7055	0.12	435411	keystroke_p	p	n/a
217.8555	0.075	435711	keystroke_r	r	n/a
218.0205	0.074	436041	keystroke_i	i	n/a
218.6955	0.0745	437391	keystroke_s	s	n/a
218.86	0.09	437720	keystroke_o	o	n/a
219.13	0.075	438260	keystroke_n	n	n/a
219.31	0.12	438620	keystroke_Key.space	Key.space	n/a
219.46	0.165	438920	keystroke_m	m	n/a
219.595	0.1055	439190	keystroke_i	i	n/a
219.775	0.075	439550	keystroke_d	d	n/a
220.03	0.105	440060	keystroke_w	w	n/a
220.27	0.075	440540	keystroke_e	e	n/a
220.48	0.075	440960	keystroke_s	s	n/a
220.735	0.045	441470	keystroke_t	t	n/a
221.245	0.09	442490	keystroke_Key.space	Key.space	n/a
221.5	0.09	443000	keystroke_s	s	n/a
221.8	0.15	443600	keystroke_u	u	n/a
221.995	0.1205	443990	keystroke_i	i	n/a
222.52	0.075	445040	keystroke_t	t	n/a
222.805	0.075	445610	keystroke_e	e	n/a
223.03	0.0605	446060	keystroke_s	s	n/a
224.665	0.12	449330	keystroke_Key.enter	Key.enter	n/a
224.791	7.511	449582	prompt	n/a	west charlotte draws full\n
225.565	0.09	451130	keystroke_w	w	n/a
225.76	0.06	451520	keystroke_e	e	n/a
225.955	0.06	451910	keystroke_s	s	n/a
226.21	0.06	452420	keystroke_t	t	n/a
226.48	0.135	452960	keystroke_Key.space	Key.space	n/a
226.69	0.075	453380	keystroke_c	c	n/a
226.915	0.075	453830	keystroke_h	h	n/a
227.125	0.06	454250	keystroke_a	a	n/a
227.38	0.06	454760	keystroke_r	r	n/a
227.59	0.09	455180	keystroke_l	l	n/a
227.83	0.09	455660	keystroke_o	o	n/a
228.01	0.075	456020	keystroke_t	t	n/a
228.25	0.06	456500	keystroke_t	t	n/a
228.4755	0.0745	456951	keystroke_e	e	n/a
228.775	0.1205	457550	keystroke_Key.space	Key.space	n/a
228.9705	0.075	457941	keystroke_d	d	n/a
229.165	0.06	458330	keystroke_r	r	n/a
229.405	0.06	458810	keystroke_a	a	n/a
229.6	0.06	459200	keystroke_w	w	n/a
229.78	0.075	459560	keystroke_s	s	n/a
230.02	0.06	460040	keystroke_Key.space	Key.space	n/a
230.245	0.06	460490	keystroke_f	f	n/a
230.395	0.0745	460790	keystroke_u	u	n/a
230.5905	0.0895	461181	keystroke_l	l	n/a
230.74	0.075	461480	keystroke_l	l	n/a
232.165	0.135	464330	keystroke_Key.enter	Key.enter	n/a
232.3045	15.342	464609	prompt	n/a	instrumental cached miscellaneous promised\n
233.276	0.044	466552	keystroke_i	i	n/a
233.425	0.09	466850	keystroke_n	n	n/a
233.5	0.06	467000	keystroke_s	s	n/a
233.725	0.135	467450	keystroke_t	t	n/a
233.831	0.089	467662	keystroke_r	r	n/a
234.085	0.075	468170	keystroke_u	u	n/a
234.52	0.0895	469040	keystroke_m	m	n/a
234.6395	0.09	469279	keystroke_e	e	n/a
234.7895	0.091	469579	keystroke_n	n	n/a
234.9105	0.089	469821	keystroke_t	t	n/a
235.2695	0.075	470539	keystroke_l	l	n/a
235.7505	0.03	471501	keystroke_Key.backspace	Key.backspace	n/a
235.8405	0.075	471681	keystroke_a	a	n/a
236.0355	0.075	472071	keystroke_l	l	n/a
236.3355	0.09	472671	keystroke_Key.space	Key.space	n/a
236.5605	0.06	473121	keystroke_c	c	n/a
236.9055	0.075	473811	keystroke_a	a	n/a
237.2205	0.075	474441	keystroke_c	c	n/a
237.3855	0.09	474771	keystroke_h	h	n/a
237.6105	0.075	475221	keystroke_e	e	n/a
237.8505	0.06	475701	keystroke_d	d	n/a
238.12	0.075	476240	keystroke_Key.space	Key.space	n/a
238.42	0.105	476840	keystroke_m	m	n/a
238.6005	0.0895	477201	keystroke_i	i	n/a
238.81	0.045	477620	keystroke_s	s	n/a
238.9755	0.0745	477951	keystroke_c	c	n/a
239.14	0.075	478280	keystroke_e	e	n/a
239.2755	0.0745	478551	keystroke_l	l	n/a
239.455	0.075	478910	keystroke_l	l	n/a
239.89	0.06	479780	keystroke_a	a	n/a
240.775	0.12	481550	keystroke_n	n	n/a
240.955	0.09	481910	keystroke_e	e	n/a
241.135	0.15	482270	keystroke_o	o	n/a
241.345	0.105	482690	keystroke_u	u	n/a
241.495	0.09	482990	keystroke_s	s	n/a
242.545	0.105	485090	keystroke_Key.space	Key.space	n/a
243.025	0.12	486050	keystroke_p	p	n/a
243.16	0.09	486320	keystroke_r	r	n/a
243.325	0.09	486650	keystroke_o	o	n/a
243.685	0.12	487370	keystroke_m	m	n/a
243.91	0.09	487820	keystroke_i	i	n/a
244.105	0.09	488210	keystroke_s	s	n/a
244.3605	0.09	488721	keystroke_e	e	n/a
244.5395	0.12	489079	keystroke_d	d	n/a
247.617	0.028	495234	keystroke_Key.enter	Key.enter	n/a
247.65	10.4065	495300	prompt	n/a	physical carol arcade brooklyn\n
248.815	0.015	497630	keystroke_p	p	n/a
249.1	0.075	498200	keystroke_h	h	n/a
249.265	0.06	498530	keystroke_y	y	n/a
249.895	0.09	499790	keystroke_s	s	n/a
250.03	0.105	500060	keystroke_i	i	n/a
250.165	0.075	500330	keystroke_c	c	n/a
250.405	0.075	500810	keystroke_a	a	n/a
250.54	0.105	501080	keystroke_l	l	n/a
250.855	0.075	501710	keystroke_Key.space	Key.space	n/a
250.96	0.09	501920	keystroke_c	c	n/a
251.185	0.075	502370	keystroke_a	a	n/a
251.41	0.06	502820	keystroke_r	r	n/a
251.545	0.0755	503090	keystroke_o	o	n/a
251.77	0.09	503540	keystroke_l	l	n/a
252.055	0.09	504110	keystroke_Key.space	Key.space	n/a
253.2095	0.105	506419	keystroke_a	a	n/a
253.57	0.045	507140	keystroke_r	r	n/a
253.795	0.075	507590	keystroke_c	c	n/a
253.99	0.06	507980	keystroke_a	a	n/a
254.215	0.0745	508430	keystroke_d	d	n/a
254.4245	0.06	508849	keystroke_e	e	n/a
254.785	0.09	509570	keystroke_Key.space	Key.space	n/a
255.0545	0.075	510109	keystroke_b	b	n/a
255.2045	0.0905	510409	keystroke_r	r	n/a
255.3695	0.075	510739	keystroke_o	o	n/a
255.5045	0.135	511009	keystroke_o	o	n/a
255.625	0.1495	511250	keystroke_k	k	n/a
255.834	0.121	511668	keystroke_l	l	n/a
255.969	0.0755	511938	keystroke_y	y	n/a
256.149	0.091	512298	keystroke_n	n	n/a
257.9345	0.12	515869	keystroke_Key.enter	Key.enter	n/a
258.06	10.3625	516120	prompt	n/a	codes stronger such valuation\n
258.9845	0.075	517969	keystroke_c	c	n/a
259.1645	0.075	518329	keystroke_o	o	n/a
259.2545	0.075	518509	keystroke_d	d	n/a
259.4795	0.075	518959	keystroke_e	e	n/a
259.7495	0.03	519499	keystroke_s	s	n/a
259.945	0.0895	519890	keystroke_Key.space	Key.space	n/a
260.0645	0.06	520129	keystroke_s	s	n/a
260.29	0.1345	520580	keystroke_t	t	n/a
260.4095	0.0905	520819	keystroke_r	r	n/a
260.5145	0.075	521029	keystroke_o	o	n/a
260.7395	0.075	521479	keystroke_n	n	n/a
260.8295	0.06	521659	keystroke_g	g	n/a
261.0245	0.1355	522049	keystroke_e	e	n/a
261.1745	0.0755	522349	keystroke_r	r	n/a
261.7595	0.0905	523519	keystroke_Key.space	Key.space	n/a
261.9695	0.0605	523939	keystroke_s	s	n/a
262.089	0.091	524178	keystroke_u	u	n/a
262.225	0.075	524450	keystroke_c	c	n/a
262.3445	0.1055	524689	keystroke_h	h	n/a
262.6145	0.09	525229	keystroke_Key.space	Key.space	n/a
262.8995	0.09	525799	keystroke_v	v	n/a
263.2145	0.0605	526429	keystroke_a	a	n/a
263.41	0.0745	526820	keystroke_l	l	n/a
263.6645	0.06	527329	keystroke_u	u	n/a
264.2805	0.089	528561	keystroke_a	a	n/a
264.625	0.075	529250	keystroke_t	t	n/a
264.7445	0.12	529489	keystroke_i	i	n/a
264.8345	0.12	529669	keystroke_o	o	n/a
265.1055	0.089	530211	keystroke_n	n	n/a
268.377	0.043	536754	keystroke_Key.enter	Key.enter	n/a
268.427	8.0205	536854	prompt	n/a	payments copying suspension earth\n
269.365	0.12	538730	keystroke_p	p	n/a
269.515	0.09	539030	keystroke_a	a	n/a
269.7095	0.06	539419	keystroke_y	y	n/a
269.995	0.075	539990	keystroke_m	m	n/a
270.1	0.09	540200	keystroke_e	e	n/a
270.25	0.075	540500	keystroke_n	n	n/a
270.385	0.075	540770	keystroke_t	t	n/a
270.685	0.045	541370	keystroke_s	s	n/a
270.925	0.06	541850	keystroke_Key.space	Key.space	n/a
271.15	0.075	542300	keystroke_c	c	n/a
271.3	0.165	542600	keystroke_o	o	n/a
271.435	0.135	542870	keystroke_p	p	n/a
271.6	0.075	543200	keystroke_y	y	n/a
271.87	0.075	543740	keystroke_i	i	n/a
271.975	0.105	543950	keystroke_n	n	n/a
272.125	0.09	544250	keystroke_g	g	n/a
272.41	0.075	544820	keystroke_Key.space	Key.space	n/a
272.56	0.105	545120	keystroke_s	s	n/a
272.7255	0.1195	545451	keystroke_u	u	n/a
272.95	0.0595	545900	keystroke_s	s	n/a
273.16	0.1195	546320	keystroke_p	p	n/a
273.355	0.06	546710	keystroke_e	e	n/a
273.505	0.0745	547010	keystroke_n	n	n/a
273.64	0.0745	547280	keystroke_s	s	n/a
273.775	0.15	547550	keystroke_i	i	n/a
273.8795	0.135	547759	keystroke_o	o	n/a
274.225	0.075	548450	keystroke_n	n	n/a
274.615	0.09	549230	keystroke_Key.space	Key.space	n/a
274.735	0.075	549470	keystroke_e	e	n/a
274.945	0.075	549890	keystroke_a	a	n/a
275.56	0.06	551120	keystroke_r	r	n/a
275.77	0.12	551540	keystroke_t	t	n/a
275.845	0.09	551690	keystroke_h	h	n/a
276.385	0.06	552770	keystroke_Key.enter	Key.enter	n/a
276.4505	11.9665	552901	prompt	n/a	applying publicly nitrogen buzz\n
277.195	0.09	554390	keystroke_a	a	n/a
277.435	0.075	554870	keystroke_p	p	n/a
277.615	0.09	555230	keystroke_p	p	n/a
277.81	0.09	555620	keystroke_l	l	n/a
278.035	0.075	556070	keystroke_y	y	n/a
278.23	0.045	556460	keystroke_i	i	n/a
278.395	0.075	556790	keystroke_n	n	n/a
278.56	0.075	557120	keystroke_g	g	n/a
278.83	0.09	557660	keystroke_Key.space	Key.space	n/a
279.25	0.09	558500	keystroke_p	p	n/a
279.46	0.0745	558920	keystroke_u	u	n/a
279.5795	0.075	559159	keystroke_b	b	n/a
279.7745	0.1355	559549	keystroke_l	l	n/a
279.925	0.1045	559850	keystroke_i	i	n/a
280.1345	0.09	560269	keystroke_c	c	n/a
280.975	0.09	561950	keystroke_l	l	n/a
281.095	0.09	562190	keystroke_y	y	n/a
281.59	0.09	563180	keystroke_Key.space	Key.space	n/a
282.4745	0.105	564949	keystroke_n	n	n/a
282.7445	0.0755	565489	keystroke_i	i	n/a
282.88	0.12	565760	keystroke_t	t	n/a
283.06	0.09	566120	keystroke_r	r	n/a
283.195	0.09	566390	keystroke_o	o	n/a
283.36	0.105	566720	keystroke_g	g	n/a
283.54	0.09	567080	keystroke_r	r	n/a
283.735	0.075	567470	keystroke_e	e	n/a
283.915	0.075	567830	keystroke_n	n	n/a
284.23	0.12	568460	keystroke_Key.space	Key.space	n/a
284.41	0.09	568820	keystroke_b	b	n/a
285.1745	0.0605	570349	keystroke_Key.backspace	Key.backspace	n/a
285.3545	0.075	570709	keystroke_Key.backspace	Key.backspace	n/a
285.535	0.075	571070	keystroke_Key.backspace	Key.backspace	n/a
285.7295	0.0605	571459	keystroke_Key.backspace	Key.backspace	n/a
285.9255	0.06	571851	keystroke_Key.backspace	Key.backspace	n/a
286.1205	0.075	572241	keystroke_e	e	n/a
286.2705	0.06	572541	keystroke_n	n	n/a
286.5245	0.06	573049	keystroke_Key.space	Key.space	n/a
287.1095	0.09	574219	keystroke_b	b	n/a
287.3645	0.075	574729	keystroke_u	u	n/a
287.59	0.0605	575180	keystroke_z	z	n/a
287.74	0.0605	575480	keystroke_z	z	n/a
288.3405	0.074	576681	keystroke_Key.enter	Key.enter	n/a
288.421	6.6105	576842	prompt	n/a	begins nasa applying heard\n
289.1645	0.06	578329	keystroke_b	b	n/a
289.3445	0.06	578689	keystroke_e	e	n/a
290.1845	0.046	580369	keystroke_g	g	n/a
290.3345	0.075	580669	keystroke_i	i	n/a
290.56	0.06	581120	keystroke_n	n	n/a
290.845	0.06	581690	keystroke_s	s	n/a
291.04	0.09	582080	keystroke_Key.space	Key.space	n/a
291.19	0.075	582380	keystroke_n	n	n/a
291.34	0.075	582680	keystroke_a	a	n/a
291.55	0.06	583100	keystroke_s	s	n/a
291.745	0.06	583490	keystroke_a	a	n/a
291.925	0.09	583850	keystroke_Key.space	Key.space	n/a
292.06	0.06	584120	keystroke_a	a	n/a
292.18	0.03	584360	keystroke_p	p	n/a
292.3	0.135	584600	keystroke_p	p	n/a
292.405	0.12	584810	keystroke_l	l	n/a
292.54	0.075	585080	keystroke_y	y	n/a
292.7495	0.075	585499	keystroke_i	i	n/a
292.885	0.0895	585770	keystroke_n	n	n/a
293.0495	0.0605	586099	keystroke_g	g	n/a
293.29	0.075	586580	keystroke_Key.space	Key.space	n/a
293.53	0.075	587060	keystroke_h	h	n/a
293.65	0.06	587300	keystroke_e	e	n/a
293.83	0.06	587660	keystroke_a	a	n/a
294.01	0.06	588020	keystroke_r	r	n/a
294.22	0.075	588440	keystroke_d	d	n/a
294.9545	0.075	589909	keystroke_Key.enter	Key.enter	n/a
295.035	10.3015	590070	prompt	n/a	century governmental locations click\n
295.7645	0.09	591529	keystroke_c	c	n/a
295.96	0.0595	591920	keystroke_e	e	n/a
296.0495	0.09	592099	keystroke_n	n	n/a
296.1695	0.075	592339	keystroke_t	t	n/a
296.3045	0.075	592609	keystroke_u	u	n/a
296.3945	0.06	592789	keystroke_r	r	n/a
296.5295	0.09	593059	keystroke_y	y	n/a
296.635	0.105	593270	keystroke_Key.space	Key.space	n/a
296.8745	0.06	593749	keystroke_o	o	n/a
297.22	0.0595	594440	keystroke_Key.backspace	Key.backspace	n/a
297.295	0.0595	594590	keystroke_g	g	n/a
297.415	0.09	594830	keystroke_o	o	n/a
297.489	0.076	594978	keystroke_v	v	n/a
297.7	0.105	595400	keystroke_e	e	n/a
297.82	0.09	595640	keystroke_r	r	n/a
298	0.06	596000	keystroke_n	n	n/a
298.2245	0.06	596449	keystroke_m	m	n/a
298.3295	0.09	596659	keystroke_e	e	n/a
298.5245	0.09	597049	keystroke_n	n	n/a
298.72	0.045	597440	keystroke_t	t	n/a
299.065	0.075	598130	keystroke_a	a	n/a
299.245	0.09	598490	keystroke_l	l	n/a
299.785	0.074	599570	keystroke_Key.space	Key.space	n/a
300.04	0.045	600080	keystroke_l	l	n/a
300.22	0.075	600440	keystroke_o	o	n/a
300.31	0.06	600620	keystroke_c	c	n/a
300.505	0.06	601010	keystroke_a	a	n/a
300.7755	0.0595	601551	keystroke_t	t	n/a
300.8955	0.119	601791	keystroke_i	i	n/a
300.9995	0.075	601999	keystroke_o	o	n/a
301.2245	0.075	602449	keystroke_n	n	n/a
301.8995	0.06	603799	keystroke_s	s	n/a
302.1845	0.105	604369	keystroke_Key.space	Key.space	n/a
302.3345	0.105	604669	keystroke_c	c	n/a
302.47	0.1345	604940	keystroke_l	l	n/a
302.635	0.1195	605270	keystroke_i	i	n/a
302.815	0.09	605630	keystroke_c	c	n/a
302.9805	0.119	605961	keystroke_k	k	n/a
305.3215	0.013	610643	keystroke_Key.enter	Key.enter	n/a
305.339	8.458	610678	prompt	n/a	hobby roles alternative frequencies\n
306.325	0.105	612650	keystroke_h	h	n/a
306.445	0.105	612890	keystroke_o	o	n/a
306.61	0.06	613220	keystroke_b	b	n/a
306.745	0.09	613490	keystroke_b	b	n/a
306.94	0.09	613880	keystroke_y	y	n/a
307.195	0.09	614390	keystroke_Key.space	Key.space	n/a
307.405	0.06	614810	keystroke_r	r	n/a
307.48	0.09	614960	keystroke_o	o	n/a
307.69	0.09	615380	keystroke_l	l	n/a
307.795	0.06	615590	keystroke_e	e	n/a
307.96	0.06	615920	keystroke_s	s	n/a
308.065	0.1045	616130	keystroke_Key.space	Key.space	n/a
308.1845	0.0605	616369	keystroke_a	a	n/a
308.2895	0.075	616579	keystroke_l	l	n/a
308.4545	0.075	616909	keystroke_t	t	n/a
308.5895	0.15	617179	keystroke_e	e	n/a
308.7255	0.074	617451	keystroke_r	r	n/a
308.8595	0.075	617719	keystroke_n	n	n/a
308.965	0.0595	617930	keystroke_a	a	n/a
309.1595	0.045	618319	keystroke_t	t	n/a
309.2945	0.06	618589	keystroke_i	i	n/a
309.3845	0.06	618769	keystroke_v	v	n/a
309.5795	0.0605	619159	keystroke_e	e	n/a
309.7	0.105	619400	keystroke_Key.space	Key.space	n/a
309.79	0.075	619580	keystroke_f	f	n/a
309.925	0.075	619850	keystroke_r	r	n/a
310.12	0.06	620240	keystroke_e	e	n/a
310.405	0.06	620810	keystroke_q	q	n/a
311.245	0.104	622490	keystroke_u	u	n/a
311.44	0.06	622880	keystroke_e	e	n/a
311.605	0.09	623210	keystroke_n	n	n/a
312.5505	0.075	625101	keystroke_c	c	n/a
312.7595	0.0755	625519	keystroke_i	i	n/a
312.8945	0.075	625789	keystroke_e	e	n/a
313.1645	0.03	626329	keystroke_s	s	n/a
313.6595	0.1355	627319	keystroke_Key.enter	Key.enter	n/a
313.7995	9.1925	627599	prompt	n/a	proxy adrian graduates couldn't\n
314.5595	0.105	629119	keystroke_p	p	n/a
314.68	0.0745	629360	keystroke_r	r	n/a
314.8595	0.091	629719	keystroke_o	o	n/a
315.25	0.06	630500	keystroke_x	x	n/a
315.475	0.075	630950	keystroke_y	y	n/a
316.135	0.105	632270	keystroke_Key.space	Key.space	n/a
316.27	0.09	632540	keystroke_a	a	n/a
316.555	0.06	633110	keystroke_d	d	n/a
316.825	0.045	633650	keystroke_r	r	n/a
316.99	0.09	633980	keystroke_i	i	n/a
317.59	0.045	635180	keystroke_a	a	n/a
317.785	0.09	635570	keystroke_n	n	n/a
318.01	0.09	636020	keystroke_Key.space	Key.space	n/a
318.13	0.09	636260	keystroke_g	g	n/a
318.28	0.09	636560	keystroke_r	r	n/a
318.535	0.075	637070	keystroke_a	a	n/a
318.805	0.075	637610	keystroke_d	d	n/a
318.955	0.075	637910	keystroke_u	u	n/a
319.06	0.06	638120	keystroke_a	a	n/a
319.2845	0.075	638569	keystroke_t	t	n/a
319.4345	0.075	638869	keystroke_e	e	n/a
319.7045	0.06	639409	keystroke_s	s	n/a
319.9145	0.1055	639829	keystroke_Key.space	Key.space	n/a
320.2145	0.0455	640429	keystroke_c	c	n/a
320.4255	0.074	640851	keystroke_o	o	n/a
320.6355	0.0745	641271	keystroke_u	u	n/a
320.8605	0.0745	641721	keystroke_l	l	n/a
321.445	0.0595	642890	keystroke_d	d	n/a
321.5645	0.076	643129	keystroke_n	n	n/a
321.8645	0.061	643729	keystroke_'	'	n/a
322.0145	0.045	644029	keystroke_t	t	n/a
322.9005	0.089	645801	keystroke_Key.enter	Key.enter	n/a
322.995	10.332	645990	prompt	n/a	consensus blvd flux who's\n
323.725	0.09	647450	keystroke_c	c	n/a
323.89	0.105	647780	keystroke_o	o	n/a
324.205	0.06	648410	keystroke_n	n	n/a
324.55	0.09	649100	keystroke_s	s	n/a
324.76	0.075	649520	keystroke_e	e	n/a
324.925	0.075	649850	keystroke_n	n	n/a
325.135	0.045	650270	keystroke_s	s	n/a
325.285	0.09	650570	keystroke_u	u	n/a
325.45	0.06	650900	keystroke_s	s	n/a
326.17	0.09	652340	keystroke_Key.space	Key.space	n/a
326.395	0.06	652790	keystroke_b	b	n/a
326.545	0.075	653090	keystroke_l	l	n/a
327.265	0.06	654530	keystroke_v	v	n/a
327.445	0.06	654890	keystroke_d	d	n/a
327.745	0.09	655490	keystroke_Key.space	Key.space	n/a
327.91	0.075	655820	keystroke_f	f	n/a
328.045	0.12	656090	keystroke_l	l	n/a
328.33	0.06	656660	keystroke_u	u	n/a
329.665	0.06	659330	keystroke_x	x	n/a
329.92	0.09	659840	keystroke_Key.space	Key.space	n/a
330.0995	0.091	660199	keystroke_w	w	n/a
330.22	0.135	660440	keystroke_h	h	n/a
330.34	0.105	660680	keystroke_o	o	n/a
330.7	0.06	661400	keystroke_'	'	n/a
330.91	0.06	661820	keystroke_s	s	n/a
333.297	0.028	666594	keystroke_Key.enter	Key.enter	n/a
333.33	9.672	666660	prompt	n/a	although moral canvas plenty\n
333.91	0.075	667820	keystroke_a	a	n/a
334.09	0.1195	668180	keystroke_l	l	n/a
334.2995	0.1205	668599	keystroke_t	t	n/a
334.375	0.105	668750	keystroke_h	h	n/a
334.495	0.15	668990	keystroke_o	o	n/a
334.6	0.12	669200	keystroke_u	u	n/a
334.735	0.15	669470	keystroke_g	g	n/a
334.87	0.09	669740	keystroke_h	h	n/a
335.4695	0.105	670939	keystroke_Key.space	Key.space	n/a
335.6495	0.135	671299	keystroke_m	m	n/a
335.77	0.1205	671540	keystroke_o	o	n/a
335.905	0.0595	671810	keystroke_r	r	n/a
336.16	0.0445	672320	keystroke_a	a	n/a
336.28	0.1045	672560	keystroke_l	l	n/a
336.5195	0.105	673039	keystroke_Key.space	Key.space	n/a
336.7295	0.06	673459	keystroke_c	c	n/a
336.985	0.0445	673970	keystroke_a	a	n/a
337.1495	0.076	674299	keystroke_n	n	n/a
337.3745	0.0155	674749	keystroke_b	b	n/a
338.0195	0.12	676039	keystroke_Key.backspace	Key.backspace	n/a
338.1995	0.06	676399	keystroke_v	v	n/a
338.4695	0.06	676939	keystroke_a	a	n/a
338.7245	0.045	677449	keystroke_s	s	n/a
339.0995	0.075	678199	keystroke_Key.space	Key.space	n/a
339.385	0.0895	678770	keystroke_p	p	n/a
339.5945	0.105	679189	keystroke_l	l	n/a
339.8345	0.075	679669	keystroke_e	e	n/a
340.5245	0.12	681049	keystroke_n	n	n/a
340.7345	0.06	681469	keystroke_t	t	n/a
340.9445	0.075	681889	keystroke_y	y	n/a
342.8495	0.15	685699	keystroke_Key.enter	Key.enter	n/a
343.005	8.8465	686010	prompt	n/a	scroll dale logan technique\n
343.6445	0.076	687289	keystroke_s	s	n/a
343.8395	0.0755	687679	keystroke_c	c	n/a
344.0195	0.09	688039	keystroke_r	r	n/a
344.1245	0.1055	688249	keystroke_o	o	n/a
344.3795	0.045	688759	keystroke_l	l	n/a
344.5145	0.075	689029	keystroke_l	l	n/a
344.7095	0.09	689419	keystroke_Key.space	Key.space	n/a
344.8295	0.075	689659	keystroke_d	d	n/a
345.085	0.0745	690170	keystroke_a	a	n/a
345.2645	0.06	690529	keystroke_l	l	n/a
345.3995	0.076	690799	keystroke_e	e	n/a
345.5495	0.135	691099	keystroke_Key.space	Key.space	n/a
345.7145	0.09	691429	keystroke_l	l	n/a
345.9395	0.106	691879	keystroke_o	o	n/a
346.1205	0.059	692241	keystroke_g	g	n/a
346.4495	0.075	692899	keystroke_a	a	n/a
346.6295	0.09	693259	keystroke_n	n	n/a
346.8695	0.075	693739	keystroke_Key.space	Key.space	n/a
347.0345	0.09	694069	keystroke_t	t	n/a
347.1695	0.091	694339	keystroke_e	e	n/a
347.4395	0.075	694879	keystroke_c	c	n/a
347.68	0.1045	695360	keystroke_h	h	n/a
348.3395	0.165	696679	keystroke_n	n	n/a
348.5345	0.06	697069	keystroke_i	i	n/a
348.7905	0.074	697581	keystroke_q	q	n/a
348.955	0.0895	697910	keystroke_u	u	n/a
349.1195	0.09	698239	keystroke_e	e	n/a
351.7775	0.073	703555	keystroke_Key.enter	Key.enter	n/a
351.855	8.442	703710	prompt	n/a	waiver cookies viking schools\n
352.6455	0.074	705291	keystroke_w	w	n/a
352.915	0.0755	705830	keystroke_a	a	n/a
353.1255	0.0595	706251	keystroke_i	i	n/a
353.245	0.075	706490	keystroke_v	v	n/a
353.47	0.165	706940	keystroke_e	e	n/a
353.6505	0.0585	707301	keystroke_r	r	n/a
353.874	0.091	707748	keystroke_Key.space	Key.space	n/a
354.01	0.045	708020	keystroke_c	c	n/a
354.1	0.075	708200	keystroke_o	o	n/a
354.249	0.106	708498	keystroke_o	o	n/a
354.4005	0.1045	708801	keystroke_k	k	n/a
354.655	0.075	709310	keystroke_i	i	n/a
354.76	0.075	709520	keystroke_e	e	n/a
354.97	0.075	709940	keystroke_s	s	n/a
355.585	0.075	711170	keystroke_Key.space	Key.space	n/a
356.05	0.045	712100	keystroke_v	v	n/a
356.395	0.06	712790	keystroke_i	i	n/a
356.635	0.06	713270	keystroke_k	k	n/a
356.83	0.06	713660	keystroke_i	i	n/a
357.055	0.09	714110	keystroke_n	n	n/a
357.175	0.09	714350	keystroke_g	g	n/a
357.475	0.075	714950	keystroke_Key.space	Key.space	n/a
357.565	0.06	715130	keystroke_s	s	n/a
357.745	0.075	715490	keystroke_c	c	n/a
357.835	0.06	715670	keystroke_h	h	n/a
358.045	0.075	716090	keystroke_o	o	n/a
358.195	0.09	716390	keystroke_o	o	n/a
358.4945	0.06	716989	keystroke_l	l	n/a
358.78	0.075	717560	keystroke_s	s	n/a
360.19	0.1045	720380	keystroke_Key.enter	Key.enter	n/a
360.3015	12.7	720603	prompt	n/a	enlargement exhibit respected indians\n
361.24	0.0445	722480	keystroke_e	e	n/a
361.4345	0.076	722869	keystroke_n	n	n/a
361.7355	0.06	723471	keystroke_l	l	n/a
361.9005	0.059	723801	keystroke_a	a	n/a
362.1095	0.061	724219	keystroke_r	r	n/a
362.3205	0.059	724641	keystroke_g	g	n/a
362.5155	0.075	725031	keystroke_e	e	n/a
362.6805	0.0745	725361	keystroke_m	m	n/a
362.7705	0.059	725541	keystroke_e	e	n/a
362.95	0.0595	725900	keystroke_n	n	n/a
363.0845	0.061	726169	keystroke_t	t	n/a
363.6545	0.151	727309	keystroke_Key.space	Key.space	n/a
363.8505	0.075	727701	keystroke_e	e	n/a
364.36	0.075	728720	keystroke_x	x	n/a
364.765	0.105	729530	keystroke_h	h	n/a
365.02	0.135	730040	keystroke_i	i	n/a
365.35	0.15	730700	keystroke_b	b	n/a
365.605	0.12	731210	keystroke_i	i	n/a
365.74	0.105	731480	keystroke_t	t	n/a
366.145	0.105	732290	keystroke_Key.space	Key.space	n/a
366.3845	0.075	732769	keystroke_r	r	n/a
366.5505	0.09	733101	keystroke_e	e	n/a
366.7295	0.0915	733459	keystroke_s	s	n/a
366.895	0.12	733790	keystroke_p	p	n/a
367.165	0.075	734330	keystroke_e	e	n/a
367.36	0.075	734720	keystroke_c	c	n/a
367.63	0.075	735260	keystroke_t	t	n/a
367.9	0.06	735800	keystroke_e	e	n/a
368.095	0.06	736190	keystroke_d	d	n/a
368.26	0.12	736520	keystroke_Key.space	Key.space	n/a
368.425	0.09	736850	keystroke_i	i	n/a
368.665	0.075	737330	keystroke_n	n	n/a
368.86	0.075	737720	keystroke_d	d	n/a
369.1	0.06	738200	keystroke_i	i	n/a
369.28	0.075	738560	keystroke_a	a	n/a
369.415	0.09	738830	keystroke_n	n	n/a
369.685	0.075	739370	keystroke_s	s	n/a
372.9265	0.073	745853	keystroke_Key.enter	Key.enter	n/a
373.013	8.329	746026	prompt	n/a	coastal shelter crystal amend\n
373.825	0.09	747650	keystroke_c	c	n/a
374.065	0.0745	748130	keystroke_o	o	n/a
374.1995	0.136	748399	keystroke_a	a	n/a
374.3205	0.0895	748641	keystroke_s	s	n/a
374.6345	0.075	749269	keystroke_t	t	n/a
374.9195	0.06	749839	keystroke_a	a	n/a
375.0705	0.089	750141	keystroke_l	l	n/a
375.3695	0.1205	750739	keystroke_Key.space	Key.space	n/a
375.4745	0.0755	750949	keystroke_s	s	n/a
375.67	0.09	751340	keystroke_h	h	n/a
375.865	0.105	751730	keystroke_e	e	n/a
376	0.1045	752000	keystroke_l	l	n/a
376.2245	0.06	752449	keystroke_t	t	n/a
376.4345	0.165	752869	keystroke_e	e	n/a
376.5705	0.089	753141	keystroke_r	r	n/a
376.7945	0.105	753589	keystroke_Key.space	Key.space	n/a
377.0205	0.089	754041	keystroke_c	c	n/a
377.3205	0.06	754641	keystroke_r	r	n/a
377.5895	0.09	755179	keystroke_y	y	n/a
377.7705	0.059	755541	keystroke_s	s	n/a
378.0095	0.03	756019	keystroke_t	t	n/a
378.2655	0.059	756531	keystroke_a	a	n/a
378.4745	0.075	756949	keystroke_l	l	n/a
378.8645	0.09	757729	keystroke_Key.space	Key.space	n/a
379.0455	0.075	758091	keystroke_a	a	n/a
379.1495	0.105	758299	keystroke_m	m	n/a
379.42	0.075	758840	keystroke_e	e	n/a
379.63	0.105	759260	keystroke_n	n	n/a
379.765	0.075	759530	keystroke_d	d	n/a
381.19	0.15	762380	keystroke_Key.enter	Key.enter	n/a
381.3445	8.668	762689	prompt	n/a	neural geology argue phones\n
382.285	0.075	764570	keystroke_n	n	n/a
382.45	0.075	764900	keystroke_e	e	n/a
382.69	0.075	765380	keystroke_u	u	n/a
382.825	0.06	765650	keystroke_r	r	n/a
383.095	0.06	766190	keystroke_a	a	n/a
383.26	0.105	766520	keystroke_l	l	n/a
383.56	0.075	767120	keystroke_Key.space	Key.space	n/a
383.74	0.06	767480	keystroke_g	g	n/a
383.92	0.075	767840	keystroke_e	e	n/a
384.07	0.075	768140	keystroke_o	o	n/a
384.355	0.045	768710	keystroke_l	l	n/a
384.535	0.105	769070	keystroke_o	o	n/a
384.655	0.075	769310	keystroke_g	g	n/a
384.865	0.075	769730	keystroke_y	y	n/a
385.45	0.09	770900	keystroke_Key.space	Key.space	n/a
385.855	0.075	771710	keystroke_a	a	n/a
386.095	0.06	772190	keystroke_r	r	n/a
386.32	0.06	772640	keystroke_g	g	n/a
386.4845	0.075	772969	keystroke_u	u	n/a
386.574	0.091	773148	keystroke_e	e	n/a
387.0095	0.105	774019	keystroke_Key.space	Key.space	n/a
387.1905	0.075	774381	keystroke_p	p	n/a
387.445	0.0595	774890	keystroke_h	h	n/a
387.5955	0.075	775191	keystroke_o	o	n/a
387.7905	0.075	775581	keystroke_n	n	n/a
387.9245	0.076	775849	keystroke_e	e	n/a
388.1355	0.06	776271	keystroke_s	s	n/a
389.9045	0.105	779809	keystroke_Key.enter	Key.enter	n/a
390.017	8.095	780034	prompt	n/a	'twas hayes face range\n
391.1495	0.075	782299	keystroke_'	'	n/a
391.2695	0.0605	782539	keystroke_t	t	n/a
391.675	0.075	783350	keystroke_w	w	n/a
391.87	0.135	783740	keystroke_a	a	n/a
392.0205	0.0595	784041	keystroke_s	s	n/a
392.32	0.105	784640	keystroke_Key.space	Key.space	n/a
392.5455	0.0595	785091	keystroke_h	h	n/a
392.74	0.075	785480	keystroke_y	y	n/a
393.34	0.089	786680	keystroke_Key.backspace	Key.backspace	n/a
393.475	0.075	786950	keystroke_a	a	n/a
393.76	0.09	787520	keystroke_y	y	n/a
393.925	0.09	787850	keystroke_e	e	n/a
394.135	0.075	788270	keystroke_s	s	n/a
394.345	0.0905	788690	keystroke_Key.space	Key.space	n/a
394.465	0.075	788930	keystroke_f	f	n/a
394.69	0.0605	789380	keystroke_a	a	n/a
394.8705	0.089	789741	keystroke_c	c	n/a
395.0505	0.0745	790101	keystroke_e	e	n/a
395.2445	0.105	790489	keystroke_Key.space	Key.space	n/a
395.425	0.075	790850	keystroke_r	r	n/a
395.65	0.075	791300	keystroke_a	a	n/a
395.785	0.0745	791570	keystroke_n	n	n/a
395.9505	0.06	791901	keystroke_g	g	n/a
396.1295	0.076	792259	keystroke_e	e	n/a
398.005	0.105	796010	keystroke_Key.enter	Key.enter	n/a
398.1145	13.6925	796229	prompt	n/a	soldier wide counseling invest\n
401.952	0.013	803904	keystroke_s	s	n/a
402.055	0.075	804110	keystroke_o	o	n/a
402.2955	0.0595	804591	keystroke_l	l	n/a
402.4605	0.0745	804921	keystroke_d	d	n/a
403.21	0.015	806420	keystroke_i	i	n/a
403.255	0.1495	806510	keystroke_e	e	n/a
403.36	0.1055	806720	keystroke_r	r	n/a
403.54	0.105	807080	keystroke_Key.space	Key.space	n/a
403.66	0.06	807320	keystroke_w	w	n/a
403.78	0.06	807560	keystroke_i	i	n/a
403.915	0.06	807830	keystroke_d	d	n/a
404.11	0.06	808220	keystroke_e	e	n/a
404.425	0.105	808850	keystroke_Key.space	Key.space	n/a
404.755	0.105	809510	keystroke_c	c	n/a
404.89	0.0755	809780	keystroke_o	o	n/a
405.085	0.075	810170	keystroke_n	n	n/a
405.7445	0.091	811489	keystroke_Key.backspace	Key.backspace	n/a
405.9855	0.075	811971	keystroke_u	u	n/a
406.2555	0.09	812511	keystroke_n	n	n/a
406.5105	0.044	813021	keystroke_s	s	n/a
406.7205	0.059	813441	keystroke_e	e	n/a
406.7955	0.09	813591	keystroke_l	l	n/a
406.9605	0.075	813921	keystroke_i	i	n/a
407.1995	0.076	814399	keystroke_n	n	n/a
407.3055	0.075	814611	keystroke_g	g	n/a
407.5305	0.074	815061	keystroke_Key.space	Key.space	n/a
407.7105	0.0745	815421	keystroke_i	i	n/a
407.89	0.075	815780	keystroke_n	n	n/a
408.04	0.0455	816080	keystroke_v	v	n/a
408.265	0.075	816530	keystroke_e	e	n/a
408.46	0.0595	816920	keystroke_s	s	n/a
408.7595	0.0605	817519	keystroke_t	t	n/a
411.7315	0.073	823463	keystroke_Key.enter	Key.enter	n/a
411.8095	9.4925	823619	prompt	n/a	hypothetical thru full plate\n
412.7495	0.0755	825499	keystroke_h	h	n/a
412.9595	0.06	825919	keystroke_y	y	n/a
413.1405	0.09	826281	keystroke_p	p	n/a
413.32	0.09	826640	keystroke_o	o	n/a
413.7545	0.136	827509	keystroke_t	t	n/a
413.8605	0.09	827721	keystroke_h	h	n/a
414.4905	0.074	828981	keystroke_Key.backspace	Key.backspace	n/a
414.9555	0.045	829911	keystroke_h	h	n/a
415.1655	0.074	830331	keystroke_e	e	n/a
415.6605	0.089	831321	keystroke_t	t	n/a
415.8395	0.0905	831679	keystroke_i	i	n/a
415.9895	0.046	831979	keystroke_c	c	n/a
416.2295	0.0455	832459	keystroke_a	a	n/a
416.38	0.09	832760	keystroke_l	l	n/a
416.6205	0.089	833241	keystroke_Key.space	Key.space	n/a
416.83	0.105	833660	keystroke_t	t	n/a
417.1	0.0745	834200	keystroke_h	h	n/a
417.2345	0.076	834469	keystroke_r	r	n/a
417.43	0.045	834860	keystroke_u	u	n/a
417.94	0.09	835880	keystroke_Key.space	Key.space	n/a
418.09	0.075	836180	keystroke_f	f	n/a
418.24	0.075	836480	keystroke_u	u	n/a
418.525	0.06	837050	keystroke_l	l	n/a
418.69	0.06	837380	keystroke_l	l	n/a
418.945	0.135	837890	keystroke_Key.space	Key.space	n/a
419.081	0.149	838162	keystroke_p	p	n/a
419.2	0.12	838400	keystroke_l	l	n/a
419.335	0.075	838670	keystroke_a	a	n/a
419.605	0.06	839210	keystroke_t	t	n/a
419.785	0.06	839570	keystroke_e	e	n/a
421.1795	0.12	842359	keystroke_Key.enter	Key.enter	n/a
421.305	8.262	842610	prompt	n/a	bands tropical bill continue\n
422.11	0.0595	844220	keystroke_b	b	n/a
422.3655	0.059	844731	keystroke_a	a	n/a
422.5445	0.06	845089	keystroke_n	n	n/a
422.755	0.0605	845510	keystroke_d	d	n/a
422.9655	0.075	845931	keystroke_s	s	n/a
423.2645	0.09	846529	keystroke_Key.space	Key.space	n/a
423.5655	0.119	847131	keystroke_t	t	n/a
423.6695	0.09	847339	keystroke_r	r	n/a
423.7895	0.105	847579	keystroke_o	o	n/a
423.8795	0.15	847759	keystroke_p	p	n/a
424.0445	0.091	848089	keystroke_i	i	n/a
424.1495	0.075	848299	keystroke_c	c	n/a
424.375	0.0595	848750	keystroke_a	a	n/a
424.5405	0.0595	849081	keystroke_l	l	n/a
424.6295	0.075	849259	keystroke_l	l	n/a
424.7945	0.075	849589	keystroke_Key.space	Key.space	n/a
425.2755	0.059	850551	keystroke_Key.backspace	Key.backspace	n/a
425.41	0.1045	850820	keystroke_Key.backspace	Key.backspace	n/a
425.8295	0.06	851659	keystroke_Key.space	Key.space	n/a
426.055	0.0895	852110	keystroke_b	b	n/a
426.1755	0.074	852351	keystroke_i	i	n/a
426.4155	0.0445	852831	keystroke_l	l	n/a
426.5505	0.0745	853101	keystroke_l	l	n/a
426.7895	0.045	853579	keystroke_Key.space	Key.space	n/a
427.0155	0.074	854031	keystroke_c	c	n/a
427.105	0.0745	854210	keystroke_o	o	n/a
427.2995	0.076	854599	keystroke_n	n	n/a
428.215	0.06	856430	keystroke_t	t	n/a
428.62	0.075	857240	keystroke_i	i	n/a
428.815	0.075	857630	keystroke_n	n	n/a
428.965	0.09	857930	keystroke_u	u	n/a
429.115	0.075	858230	keystroke_e	e	n/a
429.49	0.075	858980	keystroke_Key.enter	Key.enter	n/a
429.57	10.7815	859140	prompt	n/a	respectively harm modify weed\n
430.615	0.12	861230	keystroke_r	r	n/a
430.78	0.09	861560	keystroke_e	e	n/a
431.035	0.06	862070	keystroke_s	s	n/a
431.2	0.09	862400	keystroke_p	p	n/a
431.35	0.06	862700	keystroke_e	e	n/a
431.545	0.09	863090	keystroke_c	c	n/a
431.815	0.06	863630	keystroke_t	t	n/a
431.98	0.075	863960	keystroke_i	i	n/a
432.07	0.075	864140	keystroke_v	v	n/a
432.28	0.0745	864560	keystroke_e	e	n/a
432.4295	0.075	864859	keystroke_l	l	n/a
432.6105	0.074	865221	keystroke_y	y	n/a
432.8655	0.075	865731	keystroke_Key.space	Key.space	n/a
433.075	0.0605	866150	keystroke_h	h	n/a
433.1945	0.075	866389	keystroke_a	a	n/a
433.4345	0.076	866869	keystroke_r	r	n/a
433.5545	0.09	867109	keystroke_m	m	n/a
433.9745	0.09	867949	keystroke_Key.space	Key.space	n/a
434.4995	0.075	868999	keystroke_m	m	n/a
434.8295	0.121	869659	keystroke_o	o	n/a
434.9655	0.075	869931	keystroke_d	d	n/a
435.3095	0.09	870619	keystroke_i	i	n/a
436	0.0605	872000	keystroke_f	f	n/a
436.3595	0.0755	872719	keystroke_y	y	n/a
436.87	0.0895	873740	keystroke_Key.space	Key.space	n/a
437.1245	0.09	874249	keystroke_w	w	n/a
437.3795	0.06	874759	keystroke_e	e	n/a
437.5145	0.075	875029	keystroke_e	e	n/a
437.7095	0.0755	875419	keystroke_d	d	n/a
440.2925	0.057	880585	keystroke_Key.enter	Key.enter	n/a
440.3545	7.542	880709	prompt	n/a	casting scanner mixed brunette\n
441.265	0.075	882530	keystroke_c	c	n/a
441.46	0.12	882920	keystroke_a	a	n/a
441.55	0.105	883100	keystroke_s	s	n/a
441.85	0.075	883700	keystroke_t	t	n/a
442	0.075	884000	keystroke_i	i	n/a
442.18	0.09	884360	keystroke_n	n	n/a
442.285	0.075	884570	keystroke_g	g	n/a
442.525	0.075	885050	keystroke_Key.space	Key.space	n/a
442.615	0.06	885230	keystroke_s	s	n/a
442.795	0.06	885590	keystroke_c	c	n/a
443.0195	0.06	886039	keystroke_a	a	n/a
443.1995	0.061	886399	keystroke_n	n	n/a
443.3645	0.076	886729	keystroke_n	n	n/a
443.5295	0.1055	887059	keystroke_e	e	n/a
443.695	0.075	887390	keystroke_r	r	n/a
443.98	0.075	887960	keystroke_Key.space	Key.space	n/a
444.235	0.075	888470	keystroke_m	m	n/a
444.4895	0.0905	888979	keystroke_i	i	n/a
444.6995	0.045	889399	keystroke_x	x	n/a
445.03	0.03	890060	keystroke_e	e	n/a
445.255	0.06	890510	keystroke_d	d	n/a
445.66	0.09	891320	keystroke_Key.space	Key.space	n/a
445.81	0.075	891620	keystroke_b	b	n/a
446.3195	0.0755	892639	keystroke_r	r	n/a
446.4695	0.09	892939	keystroke_u	u	n/a
446.815	0.045	893630	keystroke_n	n	n/a
446.935	0.09	893870	keystroke_e	e	n/a
447.19	0.0445	894380	keystroke_t	t	n/a
447.3105	0.059	894621	keystroke_t	t	n/a
447.4895	0.075	894979	keystroke_e	e	n/a
447.8045	0.09	895609	keystroke_Key.enter	Key.enter	n/a
447.9	7.5115	895800	prompt	n/a	perl possession fool manager\n
448.7945	0.121	897589	keystroke_p	p	n/a
448.9445	0.135	897889	keystroke_e	e	n/a
449.0805	0.089	898161	keystroke_r	r	n/a
449.245	0.0745	898490	keystroke_l	l	n/a
449.5145	0.1205	899029	keystroke_Key.space	Key.space	n/a
449.755	0.045	899510	keystroke_p	p	n/a
450.025	0.09	900050	keystroke_o	o	n/a
450.4	0.075	900800	keystroke_s	s	n/a
450.595	0.06	901190	keystroke_s	s	n/a
450.925	0.075	901850	keystroke_e	e	n/a
451.3745	0.045	902749	keystroke_s	s	n/a
451.525	0.0445	903050	keystroke_s	s	n/a
451.7045	0.1355	903409	keystroke_i	i	n/a
451.825	0.075	903650	keystroke_o	o	n/a
452.035	0.12	904070	keystroke_n	n	n/a
452.185	0.105	904370	keystroke_Key.space	Key.space	n/a
452.305	0.09	904610	keystroke_f	f	n/a
452.44	0.06	904880	keystroke_o	o	n/a
452.575	0.09	905150	keystroke_o	o	n/a
452.845	0.075	905690	keystroke_l	l	n/a
453.025	0.105	906050	keystroke_Key.space	Key.space	n/a
453.145	0.09	906290	keystroke_m	m	n/a
453.295	0.09	906590	keystroke_a	a	n/a
453.46	0.075	906920	keystroke_n	n	n/a
453.58	0.075	907160	keystroke_a	a	n/a
453.835	0.045	907670	keystroke_g	g	n/a
453.985	0.15	907970	keystroke_e	e	n/a
454.1205	0.0745	908241	keystroke_r	r	n/a
455.335	0.075	910670	keystroke_Key.enter	Key.enter	n/a
455.4145	13.962	910829	prompt	n/a	switzerland generating drag bizarre\n
456.145	0.075	912290	keystroke_s	s	n/a
456.43	0.075	912860	keystroke_w	w	n/a
456.67	0.06	913340	keystroke_i	i	n/a
456.88	0.06	913760	keystroke_t	t	n/a
458.245	0.0445	916490	keystroke_z	z	n/a
458.545	0.15	917090	keystroke_e	e	n/a
458.68	0.105	917360	keystroke_r	r	n/a
458.95	0.06	917900	keystroke_l	l	n/a
459.07	0.075	918140	keystroke_a	a	n/a
459.22	0.09	918440	keystroke_n	n	n/a
459.385	0.075	918770	keystroke_d	d	n/a
460.2695	0.09	920539	keystroke_Key.space	Key.space	n/a
460.4795	0.045	920959	keystroke_g	g	n/a
460.6595	0.075	921319	keystroke_e	e	n/a
460.8245	0.075	921649	keystroke_n	n	n/a
461.0945	0.135	922189	keystroke_e	e	n/a
461.2605	0.044	922521	keystroke_r	r	n/a
461.5145	0.0905	923029	keystroke_a	a	n/a
461.7995	0.06	923599	keystroke_t	t	n/a
461.9645	0.046	923929	keystroke_i	i	n/a
462.1895	0.075	924379	keystroke_n	n	n/a
462.3095	0.0605	924619	keystroke_g	g	n/a
462.6395	0.045	925279	keystroke_Key.space	Key.space	n/a
462.8195	0.061	925639	keystroke_d	d	n/a
463.015	0.075	926030	keystroke_r	r	n/a
463.27	0.0605	926540	keystroke_a	a	n/a
463.5555	0.0595	927111	keystroke_g	g	n/a
464.08	0.06	928160	keystroke_Key.space	Key.space	n/a
464.245	0.06	928490	keystroke_b	b	n/a
464.845	0.09	929690	keystroke_i	i	n/a
465.97	0.0455	931940	keystroke_z	z	n/a
466.195	0.06	932390	keystroke_a	a	n/a
466.81	0.06	933620	keystroke_r	r	n/a
466.99	0.045	933980	keystroke_r	r	n/a
467.2155	0.0595	934431	keystroke_e	e	n/a
469.2695	0.105	938539	keystroke_Key.enter	Key.enter	n/a
469.383	12.4585	938766	prompt	n/a	curious graph rating dans\n
472.046	0.044	944092	keystroke_c	c	n/a
472.2405	0.0595	944481	keystroke_u	u	n/a
472.855	0.105	945710	keystroke_t	t	n/a
473.29	0.06	946580	keystroke_i	i	n/a
473.71	0.075	947420	keystroke_Key.backspace	Key.backspace	n/a
473.86	0.075	947720	keystroke_Key.backspace	Key.backspace	n/a
474.6995	0.075	949399	keystroke_r	r	n/a
474.9245	0.06	949849	keystroke_i	i	n/a
475.0155	0.119	950031	keystroke_o	o	n/a
475.24	0.0755	950480	keystroke_u	u	n/a
475.3595	0.075	950719	keystroke_s	s	n/a
476.1845	0.0905	952369	keystroke_Key.space	Key.space	n/a
476.3945	0.1055	952789	keystroke_g	g	n/a
476.5145	0.075	953029	keystroke_r	r	n/a
476.7995	0.06	953599	keystroke_a	a	n/a
476.9195	0.09	953839	keystroke_p	p	n/a
477.175	0.075	954350	keystroke_h	h	n/a
477.4	0.075	954800	keystroke_Key.space	Key.space	n/a
477.49	0.045	954980	keystroke_r	r	n/a
477.7155	0.0445	955431	keystroke_a	a	n/a
478	0.06	956000	keystroke_t	t	n/a
478.165	0.075	956330	keystroke_i	i	n/a
478.36	0.09	956720	keystroke_n	n	n/a
478.51	0.09	957020	keystroke_g	g	n/a
478.735	0.075	957470	keystroke_Key.space	Key.space	n/a
478.9455	0.0745	957891	keystroke_d	d	n/a
479.215	0.06	958430	keystroke_a	a	n/a
479.395	0.06	958790	keystroke_n	n	n/a
480.19	0.09	960380	keystroke_s	s	n/a
481.6895	0.15	963379	keystroke_Key.enter	Key.enter	n/a
481.8445	13.077	963689	prompt	n/a	andreas ensuring characterized exempt\n
482.77	0.0895	965540	keystroke_a	a	n/a
482.9655	0.09	965931	keystroke_n	n	n/a
483.3855	0.059	966771	keystroke_d	d	n/a
483.6555	0.0595	967311	keystroke_r	r	n/a
483.865	0.045	967730	keystroke_e	e	n/a
484.09	0.06	968180	keystroke_a	a	n/a
484.315	0.045	968630	keystroke_s	s	n/a
484.93	0.105	969860	keystroke_Key.space	Key.space	n/a
485.245	0.06	970490	keystroke_e	e	n/a
485.4245	0.061	970849	keystroke_n	n	n/a
486.37	0.075	972740	keystroke_s	s	n/a
486.565	0.075	973130	keystroke_u	u	n/a
486.685	0.06	973370	keystroke_r	r	n/a
486.76	0.09	973520	keystroke_i	i	n/a
486.9705	0.0745	973941	keystroke_n	n	n/a
487.075	0.075	974150	keystroke_g	g	n/a
487.435	0.09	974870	keystroke_Key.space	Key.space	n/a
487.705	0.06	975410	keystroke_c	c	n/a
487.84	0.075	975680	keystroke_h	h	n/a
487.96	0.06	975920	keystroke_a	a	n/a
488.155	0.06	976310	keystroke_r	r	n/a
488.335	0.06	976670	keystroke_a	a	n/a
488.515	0.075	977030	keystroke_c	c	n/a
488.74	0.06	977480	keystroke_t	t	n/a
488.875	0.12	977750	keystroke_e	e	n/a
488.98	0.075	977960	keystroke_r	r	n/a
489.22	0.09	978440	keystroke_i	i	n/a
489.37	0.0895	978740	keystroke_z	z	n/a
489.625	0.075	979250	keystroke_e	e	n/a
489.8355	0.0745	979671	keystroke_d	d	n/a
491.275	0.089	982550	keystroke_Key.space	Key.space	n/a
491.71	0.075	983420	keystroke_e	e	n/a
491.935	0.075	983870	keystroke_x	x	n/a
492.175	0.06	984350	keystroke_e	e	n/a
492.31	0.06	984620	keystroke_m	m	n/a
492.505	0.09	985010	keystroke_p	p	n/a
492.64	0.06	985280	keystroke_t	t	n/a
494.9075	0.0125	989815	keystroke_Key.enter	Key.enter	n/a
494.9245	10.047	989849	prompt	n/a	can variation intellectual server\n
495.79	0.06	991580	keystroke_c	c	n/a
496	0.0595	992000	keystroke_a	a	n/a
496.18	0.0745	992360	keystroke_n	n	n/a
496.5095	0.0605	993019	keystroke_Key.space	Key.space	n/a
497.02	0.0755	994040	keystroke_v	v	n/a
497.59	0.075	995180	keystroke_a	a	n/a
498.1	0.0755	996200	keystroke_r	r	n/a
498.235	0.104	996470	keystroke_i	i	n/a
498.43	0.059	996860	keystroke_a	a	n/a
498.82	0.075	997640	keystroke_t	t	n/a
499	0.135	998000	keystroke_i	i	n/a
499.105	0.105	998210	keystroke_o	o	n/a
499.36	0.075	998720	keystroke_n	n	n/a
499.7645	0.0605	999529	keystroke_Key.space	Key.space	n/a
500.23	0.0745	1000460	keystroke_i	i	n/a
500.695	0.09	1001390	keystroke_n	n	n/a
500.86	0.06	1001720	keystroke_t	t	n/a
501.07	0.06	1002140	keystroke_e	e	n/a
501.25	0.06	1002500	keystroke_l	l	n/a
501.415	0.06	1002830	keystroke_l	l	n/a
501.715	0.075	1003430	keystroke_e	e	n/a
501.91	0.09	1003820	keystroke_c	c	n/a
502.225	0.06	1004450	keystroke_t	t	n/a
502.45	0.075	1004900	keystroke_u	u	n/a
502.6	0.075	1005200	keystroke_a	a	n/a
502.81	0.059	1005620	keystroke_l	l	n/a
502.96	0.104	1005920	keystroke_Key.space	Key.space	n/a
503.05	0.045	1006100	keystroke_s	s	n/a
503.245	0.105	1006490	keystroke_e	e	n/a
503.32	0.06	1006640	keystroke_r	r	n/a
503.605	0.09	1007210	keystroke_v	v	n/a
503.83	0.135	1007660	keystroke_e	e	n/a
503.966	0.044	1007932	keystroke_r	r	n/a
504.8795	0.09	1009759	keystroke_Key.enter	Key.enter	n/a
504.9745	11.052	1009949	prompt	n/a	delight discretion bald footwear\n
505.7495	0.0755	1011499	keystroke_d	d	n/a
505.9595	0.045	1011919	keystroke_e	e	n/a
506.0645	0.105	1012129	keystroke_l	l	n/a
506.2445	0.105	1012489	keystroke_i	i	n/a
506.3645	0.135	1012729	keystroke_g	g	n/a
506.47	0.0895	1012940	keystroke_h	h	n/a
506.665	0.075	1013330	keystroke_t	t	n/a
507.0245	0.105	1014049	keystroke_Key.space	Key.space	n/a
507.1445	0.09	1014289	keystroke_d	d	n/a
507.3245	0.075	1014649	keystroke_i	i	n/a
507.7295	0.06	1015459	keystroke_s	s	n/a
507.9845	0.09	1015969	keystroke_t	t	n/a
508.165	0.0595	1016330	keystroke_r	r	n/a
508.57	0.045	1017140	keystroke_Key.backspace	Key.backspace	n/a
508.705	0.06	1017410	keystroke_Key.backspace	Key.backspace	n/a
508.78	0.075	1017560	keystroke_c	c	n/a
509.005	0.03	1018010	keystroke_r	r	n/a
509.155	0.075	1018310	keystroke_e	e	n/a
509.485	0.045	1018970	keystroke_t	t	n/a
509.65	0.135	1019300	keystroke_i	i	n/a
509.77	0.105	1019540	keystroke_o	o	n/a
510.0995	0.0755	1020199	keystroke_n	n	n/a
510.399	0.075	1020798	keystroke_Key.space	Key.space	n/a
510.61	0.06	1021220	keystroke_b	b	n/a
510.805	0.075	1021610	keystroke_a	a	n/a
511	0.09	1022000	keystroke_l	l	n/a
511.165	0.105	1022330	keystroke_d	d	n/a
511.42	0.135	1022840	keystroke_Key.space	Key.space	n/a
511.9	0.09	1023800	keystroke_f	f	n/a
512.11	0.075	1024220	keystroke_o	o	n/a
512.275	0.09	1024550	keystroke_o	o	n/a
512.41	0.075	1024820	keystroke_t	t	n/a
512.8	0.075	1025600	keystroke_w	w	n/a
513.025	0.045	1026050	keystroke_e	e	n/a
513.175	0.075	1026350	keystroke_a	a	n/a
513.4745	0.045	1026949	keystroke_r	r	n/a
515.9815	0.043	1031963	keystroke_Key.enter	Key.enter	n/a
516.0305	8.591	1032061	prompt	n/a	comp boxes expressions multimedia\n
516.8795	0.105	1033759	keystroke_c	c	n/a
517	0.0745	1034000	keystroke_o	o	n/a
517.1345	0.0905	1034269	keystroke_m	m	n/a
517.3595	0.06	1034719	keystroke_p	p	n/a
517.5095	0.1055	1035019	keystroke_Key.space	Key.space	n/a
517.675	0.075	1035350	keystroke_b	b	n/a
517.8245	0.075	1035649	keystroke_o	o	n/a
518.3945	0.06	1036789	keystroke_x	x	n/a
518.62	0.0595	1037240	keystroke_e	e	n/a
518.7995	0.0605	1037599	keystroke_s	s	n/a
519.0245	0.075	1038049	keystroke_Key.space	Key.space	n/a
519.3095	0.075	1038619	keystroke_e	e	n/a
519.55	0.075	1039100	keystroke_x	x	n/a
520.27	0.09	1040540	keystroke_p	p	n/a
520.375	0.09	1040750	keystroke_r	r	n/a
520.525	0.075	1041050	keystroke_e	e	n/a
520.75	0.045	1041500	keystroke_s	s	n/a
520.869	0.046	1041738	keystroke_s	s	n/a
520.9895	0.12	1041979	keystroke_i	i	n/a
521.095	0.0895	1042190	keystroke_o	o	n/a
521.365	0.0595	1042730	keystroke_n	n	n/a
521.5145	0.0605	1043029	keystroke_s	s	n/a
521.8295	0.075	1043659	keystroke_Key.space	Key.space	n/a
522.04	0.0905	1044080	keystroke_m	m	n/a
522.295	0.06	1044590	keystroke_u	u	n/a
522.475	0.09	1044950	keystroke_l	l	n/a
522.655	0.059	1045310	keystroke_t	t	n/a
522.744	0.0755	1045488	keystroke_i	i	n/a
522.969	0.061	1045938	keystroke_m	m	n/a
523.059	0.046	1046118	keystroke_e	e	n/a
523.209	0.076	1046418	keystroke_d	d	n/a
523.33	0.09	1046660	keystroke_i	i	n/a
523.495	0.0745	1046990	keystroke_a	a	n/a
524.499	0.12	1048998	keystroke_Key.enter	Key.enter	n/a
524.624	7.5725	1049248	prompt	n/a	bruce threat sept robin\n
525.2945	0.075	1050589	keystroke_b	b	n/a
525.5045	0.075	1051009	keystroke_r	r	n/a
525.85	0.0895	1051700	keystroke_u	u	n/a
526.1795	0.0605	1052359	keystroke_c	c	n/a
526.3745	0.075	1052749	keystroke_e	e	n/a
526.5245	0.1055	1053049	keystroke_Key.space	Key.space	n/a
526.69	0.12	1053380	keystroke_t	t	n/a
527.08	0.045	1054160	keystroke_h	h	n/a
527.38	0.045	1054760	keystroke_r	r	n/a
527.56	0.06	1055120	keystroke_e	e	n/a
527.7855	0.0585	1055571	keystroke_a	a	n/a
528.055	0.06	1056110	keystroke_t	t	n/a
528.28	0.104	1056560	keystroke_Key.space	Key.space	n/a
528.43	0.059	1056860	keystroke_s	s	n/a
528.6245	0.0755	1057249	keystroke_e	e	n/a
528.7895	0.0755	1057579	keystroke_p	p	n/a
528.925	0.075	1057850	keystroke_t	t	n/a
529.2095	0.075	1058419	keystroke_Key.space	Key.space	n/a
529.4045	0.0755	1058809	keystroke_r	r	n/a
529.54	0.09	1059080	keystroke_o	o	n/a
529.69	0.09	1059380	keystroke_b	b	n/a
529.87	0.075	1059740	keystroke_i	i	n/a
530.14	0.075	1060280	keystroke_n	n	n/a
532.12	0.0745	1064240	keystroke_Key.enter	Key.enter	n/a
532.1995	10.6325	1064399	prompt	n/a	somebody participated occasionally construct\n
532.885	0.075	1065770	keystroke_s	s	n/a
533.1545	0.09	1066309	keystroke_o	o	n/a
533.3795	0.1055	1066759	keystroke_m	m	n/a
533.5595	0.06	1067119	keystroke_e	e	n/a
533.8145	0.075	1067629	keystroke_b	b	n/a
533.9345	0.0755	1067869	keystroke_o	o	n/a
534.0695	0.0905	1068139	keystroke_d	d	n/a
534.2495	0.105	1068499	keystroke_y	y	n/a
534.5345	0.09	1069069	keystroke_Key.space	Key.space	n/a
534.8195	0.075	1069639	keystroke_p	p	n/a
534.9395	0.075	1069879	keystroke_a	a	n/a
535.1495	0.06	1070299	keystroke_r	r	n/a
535.4645	0.075	1070929	keystroke_t	t	n/a
535.8695	0.1205	1071739	keystroke_i	i	n/a
536.215	0.09	1072430	keystroke_c	c	n/a
536.35	0.075	1072700	keystroke_i	i	n/a
536.575	0.09	1073150	keystroke_p	p	n/a
536.68	0.06	1073360	keystroke_a	a	n/a
536.92	0.045	1073840	keystroke_t	t	n/a
537.085	0.06	1074170	keystroke_e	e	n/a
537.2945	0.105	1074589	keystroke_d	d	n/a
537.5045	0.12	1075009	keystroke_Key.space	Key.space	n/a
537.6845	0.075	1075369	keystroke_o	o	n/a
537.835	0.0745	1075670	keystroke_c	c	n/a
537.9845	0.0755	1075969	keystroke_c	c	n/a
538.3145	0.06	1076629	keystroke_a	a	n/a
538.54	0.045	1077080	keystroke_s	s	n/a
538.7645	0.09	1077529	keystroke_i	i	n/a
539.0345	0.075	1078069	keystroke_o	o	n/a
539.2745	0.09	1078549	keystroke_n	n	n/a
539.5895	0.0755	1079179	keystroke_a	a	n/a
539.7695	0.06	1079539	keystroke_l	l	n/a
539.9045	0.075	1079809	keystroke_l	l	n/a
540.0395	0.0755	1080079	keystroke_y	y	n/a
540.67	0.075	1081340	keystroke_Key.space	Key.space	n/a
540.79	0.0595	1081580	keystroke_c	c	n/a
540.8645	0.0755	1081729	keystroke_o	o	n/a
541.0745	0.0755	1082149	keystroke_n	n	n/a
541.195	0.0745	1082390	keystroke_s	s	n/a
541.48	0.104	1082960	keystroke_t	t	n/a
541.5695	0.0755	1083139	keystroke_r	r	n/a
541.734	0.06	1083468	keystroke_u	u	n/a
541.8395	0.0605	1083679	keystroke_c	c	n/a
542.05	0.075	1084100	keystroke_t	t	n/a
542.755	0.075	1085510	keystroke_Key.enter	Key.enter	n/a
542.835	4.5565	1085670	prompt	n/a	angry puts bath throw\n
543.565	0.075	1087130	keystroke_a	a	n/a
543.7	0.075	1087400	keystroke_n	n	n/a
543.82	0.09	1087640	keystroke_g	g	n/a
543.925	0.075	1087850	keystroke_r	r	n/a
544.0745	0.09	1088149	keystroke_y	y	n/a
544.3145	0.1205	1088629	keystroke_Key.space	Key.space	n/a
544.5395	0.135	1089079	keystroke_p	p	n/a
544.7495	0.09	1089499	keystroke_u	u	n/a
544.9145	0.075	1089829	keystroke_t	t	n/a
545.1395	0.09	1090279	keystroke_Key.space	Key.space	n/a
545.3045	0.075	1090609	keystroke_b	b	n/a
545.5295	0.061	1091059	keystroke_a	a	n/a
545.7845	0.105	1091569	keystroke_t	t	n/a
545.845	0.0895	1091690	keystroke_h	h	n/a
546.0245	0.075	1092049	keystroke_Key.space	Key.space	n/a
546.115	0.105	1092230	keystroke_t	t	n/a
546.205	0.075	1092410	keystroke_h	h	n/a
546.385	0.09	1092770	keystroke_r	r	n/a
546.595	0.105	1093190	keystroke_o	o	n/a
547.045	0.06	1094090	keystroke_w	w	n/a
547.33	0.06	1094660	keystroke_Key.enter	Key.enter	n/a
547.3945	9.5665	1094789	prompt	n/a	celebrity pulling logo necessarily\n
548.005	0.12	1096010	keystroke_c	c	n/a
548.185	0.074	1096370	keystroke_e	e	n/a
548.289	0.105	1096578	keystroke_l	l	n/a
548.6645	0.0595	1097329	keystroke_e	e	n/a
548.9055	0.0595	1097811	keystroke_b	b	n/a
549.0855	0.074	1098171	keystroke_r	r	n/a
549.3695	0.075	1098739	keystroke_i	i	n/a
549.5345	0.135	1099069	keystroke_t	t	n/a
549.6995	0.076	1099399	keystroke_y	y	n/a
549.9095	0.105	1099819	keystroke_Key.space	Key.space	n/a
550.06	0.0905	1100120	keystroke_p	p	n/a
550.2555	0.075	1100511	keystroke_u	u	n/a
550.5255	0.044	1101051	keystroke_l	l	n/a
550.6445	0.09	1101289	keystroke_l	l	n/a
550.8095	0.015	1101619	keystroke_i	i	n/a
551.095	0.075	1102190	keystroke_n	n	n/a
551.29	0.074	1102580	keystroke_g	g	n/a
551.5745	0.0895	1103149	keystroke_Key.space	Key.space	n/a
552.04	0.045	1104080	keystroke_l	l	n/a
552.2195	0.09	1104439	keystroke_o	o	n/a
552.3245	0.0905	1104649	keystroke_g	g	n/a
552.4895	0.075	1104979	keystroke_o	o	n/a
552.6995	0.09	1105399	keystroke_Key.space	Key.space	n/a
553.06	0.0595	1106120	keystroke_n	n	n/a
553.195	0.0745	1106390	keystroke_e	e	n/a
553.5395	0.075	1107079	keystroke_c	c	n/a
553.7945	0.0755	1107589	keystroke_e	e	n/a
554.1095	0.0305	1108219	keystroke_s	s	n/a
554.2445	0.045	1108489	keystroke_s	s	n/a
554.5895	0.03	1109179	keystroke_a	a	n/a
555.234	0.0605	1110468	keystroke_r	r	n/a
555.3695	0.1205	1110739	keystroke_i	i	n/a
555.475	0.15	1110950	keystroke_l	l	n/a
555.64	0.074	1111280	keystroke_y	y	n/a
556.87	0.0895	1113740	keystroke_Key.enter	Key.enter	n/a
556.9645	12.0425	1113929	prompt	n/a	entertaining lawyer inspector beautifully\n
557.7545	0.06	1115509	keystroke_e	e	n/a
557.9045	0.075	1115809	keystroke_n	n	n/a
558.0545	0.075	1116109	keystroke_t	t	n/a
558.2645	0.15	1116529	keystroke_e	e	n/a
558.3995	0.105	1116799	keystroke_r	r	n/a
559.3305	0.089	1118661	keystroke_t	t	n/a
559.7495	0.06	1119499	keystroke_a	a	n/a
559.8845	0.06	1119769	keystroke_i	i	n/a
560.065	0.1195	1120130	keystroke_n	n	n/a
560.2305	0.149	1120461	keystroke_i	i	n/a
560.3645	0.09	1120729	keystroke_n	n	n/a
560.5145	0.075	1121029	keystroke_g	g	n/a
560.6495	0.105	1121299	keystroke_Key.space	Key.space	n/a
560.8295	0.09	1121659	keystroke_l	l	n/a
560.9645	0.06	1121929	keystroke_a	a	n/a
561.1745	0.075	1122349	keystroke_w	w	n/a
561.3545	0.121	1122709	keystroke_y	y	n/a
561.565	0.18	1123130	keystroke_e	e	n/a
561.6995	0.0905	1123399	keystroke_r	r	n/a
562.03	0.09	1124060	keystroke_Key.space	Key.space	n/a
562.225	0.06	1124450	keystroke_i	i	n/a
562.405	0.105	1124810	keystroke_n	n	n/a
562.9	0.09	1125800	keystroke_s	s	n/a
563.26	0.075	1126520	keystroke_p	p	n/a
563.395	0.075	1126790	keystroke_e	e	n/a
563.605	0.09	1127210	keystroke_c	c	n/a
563.86	0.0755	1127720	keystroke_t	t	n/a
564.0395	0.09	1128079	keystroke_o	o	n/a
564.1595	0.06	1128319	keystroke_r	r	n/a
564.6545	0.06	1129309	keystroke_Key.space	Key.space	n/a
565.0445	0.09	1130089	keystroke_b	b	n/a
565.6745	0.075	1131349	keystroke_e	e	n/a
565.9145	0.09	1131829	keystroke_a	a	n/a
566.7545	0.09	1133509	keystroke_u	u	n/a
566.9195	0.075	1133839	keystroke_t	t	n/a
567.0845	0.091	1134169	keystroke_i	i	n/a
567.2345	0.091	1134469	keystroke_f	f	n/a
567.3545	0.09	1134709	keystroke_u	u	n/a
567.7295	0.03	1135459	keystroke_l	l	n/a
567.8345	0.091	1135669	keystroke_l	l	n/a
568.0005	0.119	1136001	keystroke_y	y	n/a
568.8995	0.105	1137799	keystroke_Key.enter	Key.enter	n/a
569.0115	25.8555	1138023	prompt	n/a	save surveys incentive romantic\n
569.7845	0.0605	1139569	keystroke_s	s	n/a
569.9645	0.09	1139929	keystroke_a	a	n/a
570.205	0.0595	1140410	keystroke_v	v	n/a
570.3995	0.0605	1140799	keystroke_e	e	n/a
570.5645	0.105	1141129	keystroke_Key.space	Key.space	n/a
570.7145	0.075	1141429	keystroke_s	s	n/a
570.9245	0.09	1141849	keystroke_u	u	n/a
571.0595	0.075	1142119	keystroke_r	r	n/a
571.27	0.0745	1142540	keystroke_v	v	n/a
571.465	0.09	1142930	keystroke_e	e	n/a
571.57	0.089	1143140	keystroke_r	r	n/a
571.78	0.06	1143560	keystroke_y	y	n/a
571.87	0.045	1143740	keystroke_y	y	n/a
572.4395	0.09	1144879	keystroke_Key.backspace	Key.backspace	n/a
572.5595	0.091	1145119	keystroke_s	s	n/a
572.89	0.1045	1145780	keystroke_Key.space	Key.space	n/a
573.0845	0.045	1146169	keystroke_i	i	n/a
573.3545	0.075	1146709	keystroke_n	n	n/a
574.0595	0.09	1148119	keystroke_c	c	n/a
574.4045	0.06	1148809	keystroke_e	e	n/a
574.5395	0.09	1149079	keystroke_n	n	n/a
574.8995	0.0455	1149799	keystroke_t	t	n/a
575.035	0.0595	1150070	keystroke_i	i	n/a
575.17	0.075	1150340	keystroke_v	v	n/a
575.3795	0.075	1150759	keystroke_e	e	n/a
575.5445	0.105	1151089	keystroke_Key.space	Key.space	n/a
575.77	0.045	1151540	keystroke_r	r	n/a
575.9945	0.075	1151989	keystroke_o	o	n/a
576.25	0.075	1152500	keystroke_m	m	n/a
576.43	0.074	1152860	keystroke_a	a	n/a
576.595	0.045	1153190	keystroke_n	n	n/a
576.835	0.06	1153670	keystroke_t	t	n/a
576.9695	0.075	1153939	keystroke_i	i	n/a
577.2245	0.0155	1154449	keystroke_c	c	n/a
579.416	0.014	1158832	keystroke_Key.backspace	Key.backspace	n/a
579.565	0.0745	1159130	keystroke_Key.backspace	Key.backspace	n/a
579.82	0.0595	1159640	keystroke_Key.backspace	Key.backspace	n/a
579.9995	0.06	1159999	keystroke_Key.backspace	Key.backspace	n/a
580.2245	0.0605	1160449	keystroke_Key.backspace	Key.backspace	n/a
580.434	0.045	1160868	keystroke_Key.backspace	Key.backspace	n/a
580.6445	0.075	1161289	keystroke_Key.backspace	Key.backspace	n/a
580.8695	0.045	1161739	keystroke_Key.backspace	Key.backspace	n/a
581.064	0.075	1162128	keystroke_Key.backspace	Key.backspace	n/a
581.274	0.061	1162548	keystroke_Key.backspace	Key.backspace	n/a
581.485	0.06	1162970	keystroke_Key.backspace	Key.backspace	n/a
581.695	0.0745	1163390	keystroke_Key.backspace	Key.backspace	n/a
581.904	0.0605	1163808	keystroke_Key.backspace	Key.backspace	n/a
582.1295	0.045	1164259	keystroke_Key.backspace	Key.backspace	n/a
582.34	0.06	1164680	keystroke_Key.backspace	Key.backspace	n/a
582.535	0.059	1165070	keystroke_Key.backspace	Key.backspace	n/a
582.714	0.061	1165428	keystroke_Key.backspace	Key.backspace	n/a
582.925	0.029	1165850	keystroke_Key.backspace	Key.backspace	n/a
583.0895	0.0455	1166179	keystroke_Key.backspace	Key.backspace	n/a
583.2545	0.0755	1166509	keystroke_Key.backspace	Key.backspace	n/a
583.5395	0.06	1167079	keystroke_Key.backspace	Key.backspace	n/a
584.8745	0.075	1169749	keystroke_y	y	n/a
585.0245	0.075	1170049	keystroke_s	s	n/a
585.3245	0.09	1170649	keystroke_Key.space	Key.space	n/a
587.065	0.09	1174130	keystroke_Key.backspace	Key.backspace	n/a
587.305	0.105	1174610	keystroke_Key.backspace	Key.backspace	n/a
587.605	0.105	1175210	keystroke_Key.backspace	Key.backspace	n/a
587.95	0.12	1175900	keystroke_Key.backspace	Key.backspace	n/a
588.895	0.06	1177790	keystroke_y	y	n/a
589.0295	0.0745	1178059	keystroke_s	s	n/a
589.179	0.105	1178358	keystroke_Key.space	Key.space	n/a
590.215	0.06	1180430	keystroke_i	i	n/a
590.4545	0.0745	1180909	keystroke_n	n	n/a
590.7245	0.06	1181449	keystroke_c	c	n/a
590.9045	0.075	1181809	keystroke_e	e	n/a
591.0395	0.09	1182079	keystroke_n	n	n/a
591.3255	0.0445	1182651	keystroke_t	t	n/a
591.4595	0.076	1182919	keystroke_i	i	n/a
591.5505	0.059	1183101	keystroke_v	v	n/a
591.7295	0.075	1183459	keystroke_e	e	n/a
591.8495	0.105	1183699	keystroke_Key.space	Key.space	n/a
592.03	0.075	1184060	keystroke_r	r	n/a
592.555	0.075	1185110	keystroke_o	o	n/a
592.8995	0.075	1185799	keystroke_m	m	n/a
593.3495	0.09	1186699	keystroke_a	a	n/a
593.6645	0.0905	1187329	keystroke_n	n	n/a
593.8595	0.09	1187719	keystroke_t	t	n/a
593.995	0.0895	1187990	keystroke_i	i	n/a
594.1595	0.075	1188319	keystroke_c	c	n/a
594.76	0.1045	1189520	keystroke_Key.enter	Key.enter	n/a
594.8695	8.3225	1189739	prompt	n/a	prevent globe those widescreen\n
596.035	0.105	1192070	keystroke_p	p	n/a
596.1245	0.06	1192249	keystroke_r	r	n/a
596.3045	0.06	1192609	keystroke_e	e	n/a
596.4545	0.076	1192909	keystroke_v	v	n/a
596.5755	0.0895	1193151	keystroke_e	e	n/a
596.74	0.0895	1193480	keystroke_n	n	n/a
596.89	0.075	1193780	keystroke_t	t	n/a
597.1445	0.0745	1194289	keystroke_Key.space	Key.space	n/a
597.67	0.06	1195340	keystroke_g	g	n/a
597.835	0.045	1195670	keystroke_l	l	n/a
598.015	0.09	1196030	keystroke_o	o	n/a
598.3755	0.0745	1196751	keystroke_b	b	n/a
598.87	0.06	1197740	keystroke_e	e	n/a
599.155	0.12	1198310	keystroke_Key.space	Key.space	n/a
599.38	0.105	1198760	keystroke_t	t	n/a
599.44	0.105	1198880	keystroke_h	h	n/a
599.65	0.06	1199300	keystroke_o	o	n/a
599.77	0.06	1199540	keystroke_s	s	n/a
599.965	0.075	1199930	keystroke_e	e	n/a
600.175	0.075	1200350	keystroke_Key.space	Key.space	n/a
600.37	0.06	1200740	keystroke_w	w	n/a
600.49	0.075	1200980	keystroke_i	i	n/a
600.64	0.06	1201280	keystroke_d	d	n/a
600.835	0.0595	1201670	keystroke_e	e	n/a
601.0745	0.03	1202149	keystroke_s	s	n/a
601.27	0.06	1202540	keystroke_c	c	n/a
601.525	0.045	1203050	keystroke_r	r	n/a
601.735	0.06	1203470	keystroke_e	e	n/a
601.9	0.06	1203800	keystroke_e	e	n/a
602.08	0.0745	1204160	keystroke_n	n	n/a
603.115	0.0745	1206230	keystroke_Key.enter	Key.enter	n/a
603.1945	10.5865	1206389	prompt	n/a	vocals rare reel executed\n
604.104	0.0755	1208208	keystroke_v	v	n/a
604.3295	0.09	1208659	keystroke_o	o	n/a
604.5395	0.075	1209079	keystroke_c	c	n/a
604.9145	0.061	1209829	keystroke_a	a	n/a
605.1095	0.0755	1210219	keystroke_l	l	n/a
605.2445	0.0595	1210489	keystroke_s	s	n/a
605.544	0.1205	1211088	keystroke_Key.space	Key.space	n/a
605.964	0.06	1211928	keystroke_m	m	n/a
606.34	0.0895	1212680	keystroke_Key.backspace	Key.backspace	n/a
606.4595	0.0755	1212919	keystroke_r	r	n/a
606.684	0.06	1213368	keystroke_a	a	n/a
606.9245	0.0755	1213849	keystroke_r	r	n/a
607.149	0.03	1214298	keystroke_e	e	n/a
607.6	0.0745	1215200	keystroke_Key.space	Key.space	n/a
607.6895	0.061	1215379	keystroke_r	r	n/a
607.9895	0.015	1215979	keystroke_e	e	n/a
608.1695	0.075	1216339	keystroke_e	e	n/a
608.4395	0.075	1216879	keystroke_l	l	n/a
608.7245	0.09	1217449	keystroke_Key.space	Key.space	n/a
608.83	0.075	1217660	keystroke_e	e	n/a
609.1445	0.06	1218289	keystroke_x	x	n/a
609.3995	0.06	1218799	keystroke_e	e	n/a
609.6845	0.075	1219369	keystroke_c	c	n/a
609.94	0.104	1219880	keystroke_u	u	n/a
610.224	0.0605	1220448	keystroke_t	t	n/a
610.449	0.075	1220898	keystroke_e	e	n/a
610.72	0.0595	1221440	keystroke_d	d	n/a
613.692	0.087	1227384	keystroke_Key.enter	Key.enter	n/a
613.784	23.113	1227568	prompt	n/a	logs patrick windsor vegetarian\n
614.77	0.075	1229540	keystroke_l	l	n/a
615.01	0.06	1230020	keystroke_o	o	n/a
615.265	0.06	1230530	keystroke_g	g	n/a
615.55	0.105	1231100	keystroke_Key.space	Key.space	n/a
615.715	0.09	1231430	keystroke_p	p	n/a
615.88	0.06	1231760	keystroke_a	a	n/a
616.195	0.135	1232390	keystroke_t	t	n/a
616.3305	0.074	1232661	keystroke_r	r	n/a
616.5095	0.075	1233019	keystroke_i	i	n/a
616.7345	0.075	1233469	keystroke_c	c	n/a
616.9145	0.075	1233829	keystroke_k	k	n/a
617.3495	0.12	1234699	keystroke_Key.space	Key.space	n/a
617.6205	0.089	1235241	keystroke_w	w	n/a
617.755	0.1195	1235510	keystroke_i	i	n/a
617.8895	0.12	1235779	keystroke_n	n	n/a
618.07	0.0745	1236140	keystroke_d	d	n/a
618.4445	0.075	1236889	keystroke_o	o	n/a
619.045	0.0745	1238090	keystroke_Key.backspace	Key.backspace	n/a
619.1345	0.075	1238269	keystroke_s	s	n/a
619.329	0.0755	1238658	keystroke_o	o	n/a
619.4945	0.076	1238989	keystroke_r	r	n/a
619.7645	0.105	1239529	keystroke_Key.space	Key.space	n/a
621.973	0.012	1243946	keystroke_v	v	n/a
622.18	0.075	1244360	keystroke_e	e	n/a
622.435	0.045	1244870	keystroke_g	g	n/a
623.545	0.06	1247090	keystroke_e	e	n/a
623.815	0.06	1247630	keystroke_t	t	n/a
624.46	0.075	1248920	keystroke_a	a	n/a
624.7	0.075	1249400	keystroke_r	r	n/a
624.91	0.09	1249820	keystroke_i	i	n/a
625.06	0.075	1250120	keystroke_a	a	n/a
625.225	0.075	1250450	keystroke_n	n	n/a
636.852	0.043	1273704	keystroke_Key.enter	Key.enter	n/a
636.9	22.2265	1273800	prompt	n/a	deaf destroyed recreation municipality\n
638.035	0.075	1276070	keystroke_d	d	n/a
638.17	0.075	1276340	keystroke_e	e	n/a
638.425	0.075	1276850	keystroke_a	a	n/a
638.815	0.045	1277630	keystroke_f	f	n/a
640.5995	0.0755	1281199	keystroke_Key.space	Key.space	n/a
641.1705	0.074	1282341	keystroke_d	d	n/a
641.35	0.075	1282700	keystroke_e	e	n/a
641.5295	0.0755	1283059	keystroke_s	s	n/a
641.8145	0.0605	1283629	keystroke_t	t	n/a
641.9495	0.105	1283899	keystroke_o	o	n/a
642.0705	0.059	1284141	keystroke_r	r	n/a
642.25	0.09	1284500	keystroke_y	y	n/a
642.385	0.075	1284770	keystroke_e	e	n/a
642.775	0.09	1285550	keystroke_Key.backspace	Key.backspace	n/a
642.97	0.06	1285940	keystroke_Key.backspace	Key.backspace	n/a
643.15	0.105	1286300	keystroke_Key.backspace	Key.backspace	n/a
643.615	0.06	1287230	keystroke_Key.backspace	Key.backspace	n/a
643.765	0.06	1287530	keystroke_r	r	n/a
643.885	0.075	1287770	keystroke_o	o	n/a
644.32	0.105	1288640	keystroke_y	y	n/a
644.455	0.075	1288910	keystroke_e	e	n/a
644.665	0.06	1289330	keystroke_d	d	n/a
645.07	0.09	1290140	keystroke_Key.space	Key.space	n/a
645.28	0.09	1290560	keystroke_r	r	n/a
645.371	0.059	1290742	keystroke_e	e	n/a
646.105	0.06	1292210	keystroke_c	c	n/a
646.3605	0.089	1292721	keystroke_r	r	n/a
646.435	0.1195	1292870	keystroke_e	e	n/a
646.75	0.06	1293500	keystroke_a	a	n/a
646.9455	0.059	1293891	keystroke_t	t	n/a
647.065	0.135	1294130	keystroke_i	i	n/a
647.1695	0.0905	1294339	keystroke_o	o	n/a
647.3945	0.075	1294789	keystroke_n	n	n/a
647.5445	0.135	1295089	keystroke_Key.space	Key.space	n/a
647.6945	0.0905	1295389	keystroke_m	m	n/a
648.325	0.0445	1296650	keystroke_u	u	n/a
649.0145	0.106	1298029	keystroke_n	n	n/a
649.3895	0.105	1298779	keystroke_i	i	n/a
649.6595	0.0905	1299319	keystroke_c	c	n/a
649.8245	0.06	1299649	keystroke_i	i	n/a
654.462	0.073	1308924	keystroke_Key.backspace	Key.backspace	n/a
655.585	0.075	1311170	keystroke_i	i	n/a
655.9005	0.0595	1311801	keystroke_p	p	n/a
657.025	0.0755	1314050	keystroke_a	a	n/a
657.205	0.09	1314410	keystroke_l	l	n/a
657.4005	0.0595	1314801	keystroke_i	i	n/a
657.595	0.12	1315190	keystroke_t	t	n/a
657.685	0.0905	1315370	keystroke_y	y	n/a
658.99	0.1355	1317980	keystroke_Key.enter	Key.enter	n/a
659.13	10.7365	1318260	prompt	n/a	magnitude miami sigma bingo\n
660.775	0.06	1321550	keystroke_m	m	n/a
660.925	0.0605	1321850	keystroke_a	a	n/a
661.255	0.045	1322510	keystroke_g	g	n/a
661.855	0.06	1323710	keystroke_n	n	n/a
662.0345	0.061	1324069	keystroke_i	i	n/a
662.2605	0.0595	1324521	keystroke_t	t	n/a
662.41	0.075	1324820	keystroke_u	u	n/a
662.545	0.06	1325090	keystroke_d	d	n/a
662.7855	0.0445	1325571	keystroke_e	e	n/a
662.98	0.06	1325960	keystroke_Key.space	Key.space	n/a
663.1755	0.0595	1326351	keystroke_m	m	n/a
663.355	0.045	1326710	keystroke_a	a	n/a
663.835	0.075	1327670	keystroke_Key.backspace	Key.backspace	n/a
664.015	0.075	1328030	keystroke_i	i	n/a
664.21	0.06	1328420	keystroke_a	a	n/a
664.315	0.105	1328630	keystroke_m	m	n/a
664.6	0.045	1329200	keystroke_i	i	n/a
665.23	0.15	1330460	keystroke_Key.space	Key.space	n/a
665.455	0.06	1330910	keystroke_s	s	n/a
665.635	0.075	1331270	keystroke_i	i	n/a
665.83	0.045	1331660	keystroke_g	g	n/a
667.3445	0.075	1334689	keystroke_m	m	n/a
667.4795	0.075	1334959	keystroke_a	a	n/a
667.7195	0.09	1335439	keystroke_Key.space	Key.space	n/a
667.9905	0.0595	1335981	keystroke_b	b	n/a
668.2	0.015	1336400	keystroke_i	i	n/a
668.29	0.075	1336580	keystroke_n	n	n/a
669.13	0.06	1338260	keystroke_g	g	n/a
669.265	0.075	1338530	keystroke_o	o	n/a
669.7745	0.09	1339549	keystroke_Key.enter	Key.enter	n/a
669.8695	7.677	1339739	prompt	n/a	backgrounds unable observation online\n
670.7945	0.075	1341589	keystroke_b	b	n/a
671.0495	0.075	1342099	keystroke_a	a	n/a
671.2445	0.0905	1342489	keystroke_c	c	n/a
671.4245	0.0755	1342849	keystroke_k	k	n/a
671.5745	0.12	1343149	keystroke_g	g	n/a
671.6795	0.105	1343359	keystroke_r	r	n/a
671.7995	0.09	1343599	keystroke_o	o	n/a
671.9195	0.0905	1343839	keystroke_u	u	n/a
672.13	0.09	1344260	keystroke_n	n	n/a
672.235	0.0745	1344470	keystroke_d	d	n/a
672.4145	0.075	1344829	keystroke_s	s	n/a
672.5795	0.105	1345159	keystroke_Key.space	Key.space	n/a
672.7895	0.075	1345579	keystroke_u	u	n/a
673.0145	0.075	1346029	keystroke_n	n	n/a
673.33	0.0595	1346660	keystroke_a	a	n/a
673.5695	0.075	1347139	keystroke_b	b	n/a
673.7645	0.075	1347529	keystroke_l	l	n/a
673.9	0.0595	1347800	keystroke_e	e	n/a
674.035	0.15	1348070	keystroke_Key.space	Key.space	n/a
674.1695	0.09	1348339	keystroke_o	o	n/a
674.3045	0.075	1348609	keystroke_b	b	n/a
674.7845	0.06	1349569	keystroke_s	s	n/a
674.9945	0.1655	1349989	keystroke_e	e	n/a
675.1295	0.06	1350259	keystroke_r	r	n/a
675.37	0.045	1350740	keystroke_v	v	n/a
675.5795	0.045	1351159	keystroke_a	a	n/a
675.76	0.0745	1351520	keystroke_t	t	n/a
675.8645	0.105	1351729	keystroke_i	i	n/a
675.9545	0.0755	1351909	keystroke_o	o	n/a
676.1645	0.076	1352329	keystroke_n	n	n/a
676.2695	0.105	1352539	keystroke_Key.space	Key.space	n/a
676.5245	0.091	1353049	keystroke_o	o	n/a
676.705	0.0605	1353410	keystroke_n	n	n/a
676.8695	0.1055	1353739	keystroke_l	l	n/a
676.9755	0.059	1353951	keystroke_i	i	n/a
677.1695	0.0755	1354339	keystroke_n	n	n/a
677.275	0.0745	1354550	keystroke_e	e	n/a
677.4845	0.0605	1354969	keystroke_Key.enter	Key.enter	n/a
677.5495	10.662	1355099	prompt	n/a	confident unions retention vids\n
678.25	0.06	1356500	keystroke_c	c	n/a
678.325	0.09	1356650	keystroke_o	o	n/a
678.535	0.075	1357070	keystroke_n	n	n/a
679.48	0.09	1358960	keystroke_f	f	n/a
679.63	0.09	1359260	keystroke_i	i	n/a
679.75	0.075	1359500	keystroke_d	d	n/a
679.96	0.06	1359920	keystroke_e	e	n/a
680.125	0.075	1360250	keystroke_n	n	n/a
680.335	0.06	1360670	keystroke_t	t	n/a
680.5	0.12	1361000	keystroke_Key.space	Key.space	n/a
680.665	0.075	1361330	keystroke_u	u	n/a
680.875	0.075	1361750	keystroke_n	n	n/a
681.1	0.135	1362200	keystroke_i	i	n/a
681.22	0.105	1362440	keystroke_o	o	n/a
681.46	0.075	1362920	keystroke_n	n	n/a
681.595	0.074	1363190	keystroke_s	s	n/a
681.775	0.074	1363550	keystroke_Key.space	Key.space	n/a
681.924	0.106	1363848	keystroke_r	r	n/a
682.015	0.09	1364030	keystroke_e	e	n/a
682.195	0.09	1364390	keystroke_n	n	n/a
683.11	0.0895	1366220	keystroke_Key.backspace	Key.backspace	n/a
683.2595	0.0755	1366519	keystroke_t	t	n/a
683.4395	0.076	1366879	keystroke_e	e	n/a
683.6345	0.06	1367269	keystroke_n	n	n/a
683.9945	0.06	1367989	keystroke_t	t	n/a
684.1155	0.119	1368231	keystroke_i	i	n/a
684.2045	0.105	1368409	keystroke_o	o	n/a
684.4905	0.075	1368981	keystroke_n	n	n/a
684.7145	0.09	1369429	keystroke_Key.space	Key.space	n/a
685.0745	0.091	1370149	keystroke_c	c	n/a
685.2855	0.06	1370571	keystroke_i	i	n/a
685.39	0.0755	1370780	keystroke_d	d	n/a
685.66	0.074	1371320	keystroke_Key.backspace	Key.backspace	n/a
685.8245	0.105	1371649	keystroke_Key.backspace	Key.backspace	n/a
686.395	0.0745	1372790	keystroke_Key.backspace	Key.backspace	n/a
686.9945	0.075	1373989	keystroke_v	v	n/a
687.13	0.0745	1374260	keystroke_i	i	n/a
687.235	0.0745	1374470	keystroke_d	d	n/a
687.4145	0.0605	1374829	keystroke_s	s	n/a
688.1495	0.0605	1376299	keystroke_Key.enter	Key.enter	n/a
688.2145	10.602	1376429	prompt	n/a	budgets acres failure fortune\n
689.095	0.06	1378190	keystroke_b	b	n/a
689.305	0.075	1378610	keystroke_u	u	n/a
689.515	0.075	1379030	keystroke_d	d	n/a
689.725	0.06	1379450	keystroke_g	g	n/a
689.875	0.12	1379750	keystroke_e	e	n/a
690.04	0.06	1380080	keystroke_t	t	n/a
690.3695	0.06	1380739	keystroke_s	s	n/a
690.61	0.09	1381220	keystroke_Key.space	Key.space	n/a
690.82	0.06	1381640	keystroke_a	a	n/a
691.075	0.045	1382150	keystroke_c	c	n/a
691.33	0.06	1382660	keystroke_r	r	n/a
691.465	0.075	1382930	keystroke_e	e	n/a
691.75	0.03	1383500	keystroke_s	s	n/a
692.1095	0.09	1384219	keystroke_Key.space	Key.space	n/a
692.5895	0.06	1385179	keystroke_f	f	n/a
693.04	0.075	1386080	keystroke_a	a	n/a
693.19	0.09	1386380	keystroke_i	i	n/a
693.37	0.09	1386740	keystroke_l	l	n/a
693.55	0.045	1387100	keystroke_t	t	n/a
693.9095	0.09	1387819	keystroke_Key.backspace	Key.backspace	n/a
694.1495	0.075	1388299	keystroke_u	u	n/a
694.2695	0.06	1388539	keystroke_r	r	n/a
694.495	0.0595	1388990	keystroke_e	e	n/a
694.795	0.0595	1389590	keystroke_Key.space	Key.space	n/a
695.575	0.09	1391150	keystroke_f	f	n/a
695.725	0.09	1391450	keystroke_o	o	n/a
695.935	0.045	1391870	keystroke_r	r	n/a
696.16	0.06	1392320	keystroke_t	t	n/a
696.28	0.075	1392560	keystroke_u	u	n/a
696.505	0.09	1393010	keystroke_n	n	n/a
696.64	0.06	1393280	keystroke_e	e	n/a
698.787	0.028	1397574	keystroke_Key.enter	Key.enter	n/a
698.8195	8.382	1397639	prompt	n/a	weapons endorsement exist tools\n
699.5045	0.0455	1399009	keystroke_w	w	n/a
699.7145	0.075	1399429	keystroke_e	e	n/a
699.925	0.0595	1399850	keystroke_a	a	n/a
700.0445	0.18	1400089	keystroke_p	p	n/a
700.1945	0.105	1400389	keystroke_o	o	n/a
700.4795	0.075	1400959	keystroke_n	n	n/a
700.6895	0.06	1401379	keystroke_s	s	n/a
700.8995	0.075	1401799	keystroke_Key.space	Key.space	n/a
701.2145	0.075	1402429	keystroke_e	e	n/a
701.3945	0.09	1402789	keystroke_n	n	n/a
701.5905	0.074	1403181	keystroke_d	d	n/a
701.9795	0.1055	1403959	keystroke_o	o	n/a
702.16	0.075	1404320	keystroke_r	r	n/a
702.52	0.06	1405040	keystroke_s	s	n/a
702.745	0.06	1405490	keystroke_e	e	n/a
702.88	0.075	1405760	keystroke_m	m	n/a
702.97	0.075	1405940	keystroke_e	e	n/a
