onset	duration	sample	value	key	prompt_text
20.6815	22.6175	41363	prompt	n/a	the quick brown fox jumps over a lazy dog\n
22.248	0	44496	keystroke_t	t	n/a
22.29	0.09	44580	keystroke_h	h	n/a
22.44	0.09	44880	keystroke_e	e	n/a
22.5755	0.104	45151	keystroke_Key.space	Key.space	n/a
23.2205	0.0755	46441	keystroke_q	q	n/a
23.3705	0.075	46741	keystroke_u	u	n/a
23.5805	0.075	47161	keystroke_i	i	n/a
23.806	0.075	47612	keystroke_c	c	n/a
23.971	0.09	47942	keystroke_k	k	n/a
24.1665	0.09	48333	keystroke_Key.space	Key.space	n/a
24.452	0.075	48904	keystroke_b	b	n/a
24.722	0.075	49444	keystroke_r	r	n/a
24.902	0.0905	49804	keystroke_o	o	n/a
25.1425	0.075	50285	keystroke_w	w	n/a
25.323	0.075	50646	keystroke_n	n	n/a
25.503	0.105	51006	keystroke_Key.space	Key.space	n/a
25.848	0.075	51696	keystroke_f	f	n/a
25.9985	0.09	51997	keystroke_o	o	n/a
26.4195	0.09	52839	keystroke_x	x	n/a
26.6895	0.09	53379	keystroke_Key.space	Key.space	n/a
27.335	0.075	54670	keystroke_j	j	n/a
27.59	0.091	55180	keystroke_u	u	n/a
27.861	0.105	55722	keystroke_m	m	n/a
28.1315	0.09	56263	keystroke_p	p	n/a
28.3415	0.075	56683	keystroke_s	s	n/a
28.4915	0.1205	56983	keystroke_Key.space	Key.space	n/a
28.762	0.09	57524	keystroke_o	o	n/a
28.972	0.105	57944	keystroke_v	v	n/a
29.2425	0.0905	58485	keystroke_e	e	n/a
29.482	0.06	58964	keystroke_r	r	n/a
29.632	0.1055	59264	keystroke_Key.space	Key.space	n/a
29.9785	0.044	59957	keystroke_t	t	n/a
30.7585	0.0455	61517	keystroke_Key.backspace	Key.backspace	n/a
30.954	0.105	61908	keystroke_a	a	n/a
31.134	0.09	62268	keystroke_Key.space	Key.space	n/a
31.6	0.105	63200	keystroke_;	;	n/a
32.576	0.075	65152	keystroke_Key.backspace	Key.backspace	n/a
33.3115	0.075	66623	keystroke_l	l	n/a
33.4625	0.1195	66925	keystroke_z	z	n/a
33.8675	0.12	67735	keystroke_a	a	n/a
35.114	0.12	70228	keystroke_Key.backspace	Key.backspace	n/a
35.594	0.075	71188	keystroke_Key.backspace	Key.backspace	n/a
36.21	0.09	72420	keystroke_z	z	n/a
37.171	0.075	74342	keystroke_Key.backspace	Key.backspace	n/a
37.441	0.09	74882	keystroke_a	a	n/a
37.7865	0.105	75573	keystroke_z	z	n/a
38.357	0.06	76714	keystroke_y	y	n/a
38.5525	0.1355	77105	keystroke_Key.space	Key.space	n/a
39.0335	0.09	78067	keystroke_g	g	n/a
39.2135	0.1045	78427	keystroke_o	o	n/a
40.264	0.105	80528	keystroke_Key.backspace	Key.backspace	n/a
40.8495	0.0755	81699	keystroke_Key.backspace	Key.backspace	n/a
42.201	0.09	84402	keystroke_d	d	n/a
42.321	0.1055	84642	keystroke_o	o	n/a
42.5015	0.075	85003	keystroke_g	g	n/a
43.207	0.09	86414	keystroke_Key.enter	Key.enter	n/a
43.3045	26.807	86609	prompt	n/a	existing updates dynamic affiliates\n
44.048	0.0745	88096	keystroke_w	w	n/a
44.768	0.091	89536	keystroke_Key.backspace	Key.backspace	n/a
45.024	0.075	90048	keystroke_e	e	n/a
45.4745	0.089	90949	keystroke_x	x	n/a
46.1945	0.045	92389	keystroke_i	i	n/a
46.375	0.09	92750	keystroke_s	s	n/a
46.93	0.076	93860	keystroke_t	t	n/a
47.0505	0.09	94101	keystroke_i	i	n/a
47.2155	0.076	94431	keystroke_o	o	n/a
47.9065	0.09	95813	keystroke_Key.backspace	Key.backspace	n/a
48.432	0.09	96864	keystroke_b	b	n/a
48.627	0.0605	97254	keystroke_g	g	n/a
49.4375	0.135	98875	keystroke_Key.backspace	Key.backspace	n/a
49.873	0.075	99746	keystroke_Key.backspace	Key.backspace	n/a
50.534	0.135	101068	keystroke_n	n	n/a
51.179	0.0605	102358	keystroke_g	g	n/a
51.5395	0.06	103079	keystroke_Key.space	Key.space	n/a
51.8095	0.0755	103619	keystroke_y	y	n/a
52.261	0.105	104522	keystroke_o	o	n/a
53.4015	0.105	106803	keystroke_Key.backspace	Key.backspace	n/a
53.927	0.09	107854	keystroke_Key.backspace	Key.backspace	n/a
55.203	0.0905	110406	keystroke_u	u	n/a
55.443	0.105	110886	keystroke_p	p	n/a
55.9235	0.075	111847	keystroke_d	d	n/a
56.1935	0.1045	112387	keystroke_a	a	n/a
56.883	0.09	113766	keystroke_t	t	n/a
57.168	0.075	114336	keystroke_e	e	n/a
57.888	0.075	115776	keystroke_s	s	n/a
58.1575	0.09	116315	keystroke_Key.space	Key.space	n/a
58.547	0.06	117094	keystroke_d	d	n/a
59.672	0.075	119344	keystroke_y	y	n/a
60.137	0.075	120274	keystroke_n	n	n/a
60.587	0.06	121174	keystroke_a	a	n/a
60.692	0.075	121384	keystroke_m	m	n/a
61.1565	0.045	122313	keystroke_i	i	n/a
61.2915	0.09	122583	keystroke_c	c	n/a
62.011	0.075	124022	keystroke_Key.space	Key.space	n/a
62.356	0.09	124712	keystroke_a	a	n/a
62.656	0.075	125312	keystroke_g	g	n/a
62.851	0.0895	125702	keystroke_g	g	n/a
63.826	0.0895	127652	keystroke_Key.backspace	Key.backspace	n/a
64.276	0.075	128552	keystroke_Key.backspace	Key.backspace	n/a
65.1005	0.0905	130201	keystroke_f	f	n/a
65.6255	0.075	131251	keystroke_f	f	n/a
65.9405	0.075	131881	keystroke_i	i	n/a
66.7655	0.0895	133531	keystroke_l	l	n/a
67.83	0.075	135660	keystroke_i	i	n/a
68.0395	0.165	136079	keystroke_a	a	n/a
68.685	0.1195	137370	keystroke_t	t	n/a
69.0295	0.12	138059	keystroke_e	e	n/a
69.4345	0.105	138869	keystroke_s	s	n/a
70.0195	0.09	140039	keystroke_Key.enter	Key.enter	n/a
70.1145	33.4415	140229	prompt	n/a	asbestos attendance medications listprice\n
70.9485	0.1055	141897	keystroke_a	a	n/a
71.7885	0.075	143577	keystroke_s	s	n/a
72.3435	0.105	144687	keystroke_v	v	n/a
72.6435	0.12	145287	keystroke_e	e	n/a
73.303	0.12	146606	keystroke_Key.backspace	Key.backspace	n/a
74.053	0.09	148106	keystroke_Key.backspace	Key.backspace	n/a
74.9825	0.09	149965	keystroke_b	b	n/a
75.7025	0.225	151405	keystroke_e	e	n/a
76.0175	0.105	152035	keystroke_s	s	n/a
81.5835	0.001	163167	keystroke_t	t	n/a
82.631	0.06	165262	keystroke_o	o	n/a
82.886	0.105	165772	keystroke_s	s	n/a
83.246	0.1045	166492	keystroke_Key.space	Key.space	n/a
83.486	0.1495	166972	keystroke_a	a	n/a
83.8455	0.075	167691	keystroke_t	t	n/a
84.0255	0.075	168051	keystroke_t	t	n/a
84.4155	0.105	168831	keystroke_e	e	n/a
84.6855	0.075	169371	keystroke_n	n	n/a
85.0595	0.061	170119	keystroke_d	d	n/a
85.3595	0.105	170719	keystroke_a	a	n/a
86.1545	0.045	172309	keystroke_n	n	n/a
86.3645	0.075	172729	keystroke_c	c	n/a
86.7695	0.075	173539	keystroke_e	e	n/a
87.819	0.105	175638	keystroke_Key.space	Key.space	n/a
88.329	0.075	176658	keystroke_m	m	n/a
88.479	0.09	176958	keystroke_e	e	n/a
88.824	0.075	177648	keystroke_d	d	n/a
89.0035	0.06	178007	keystroke_i	i	n/a
89.5285	0.075	179057	keystroke_c	c	n/a
89.8285	0.135	179657	keystroke_a	a	n/a
90.1735	0.075	180347	keystroke_t	t	n/a
90.3085	0.0895	180617	keystroke_i	i	n/a
90.473	0.106	180946	keystroke_o	o	n/a
91.104	0.075	182208	keystroke_n	n	n/a
91.584	0.075	183168	keystroke_s	s	n/a
92.138	0.06	184276	keystroke_Key.space	Key.space	n/a
92.723	0.075	185446	keystroke_l	l	n/a
92.963	0.075	185926	keystroke_i	i	n/a
93.2025	0.075	186405	keystroke_s	s	n/a
93.953	0.09	187906	keystroke_t	t	n/a
94.4475	0.105	188895	keystroke_p	p	n/a
94.6725	0.06	189345	keystroke_r	r	n/a
94.8975	0.15	189795	keystroke_o	o	n/a
95.842	0.015	191684	keystroke_=	=	n/a
96.817	0.09	193634	keystroke_Key.backspace	Key.backspace	n/a
97.477	0.09	194954	keystroke_Key.backspace	Key.backspace	n/a
98.332	0.06	196664	keystroke_i	i	n/a
98.5265	0.06	197053	keystroke_c	c	n/a
98.7815	0.075	197563	keystroke_e	e	n/a
103.553	0.001	207106	keystroke_Key.enter	Key.enter	n/a
103.559	15.4095	207118	prompt	n/a	guitar worth decision roommates\n
105.32	0.06	210640	keystroke_g	g	n/a
105.53	0.06	211060	keystroke_u	u	n/a
105.77	0.0745	211540	keystroke_i	i	n/a
106.415	0.045	212830	keystroke_t	t	n/a
106.849	0.06	213698	keystroke_a	a	n/a
107.209	0.045	214418	keystroke_r	r	n/a
107.7195	0.09	215439	keystroke_Key.space	Key.space	n/a
108.7545	0.03	217509	keystroke_w	w	n/a
109.354	0.075	218708	keystroke_o	o	n/a
109.609	0.075	219218	keystroke_r	r	n/a
109.9235	0.06	219847	keystroke_t	t	n/a
110.0585	0.06	220117	keystroke_h	h	n/a
110.6285	0.0895	221257	keystroke_Key.space	Key.space	n/a
110.973	0.105	221946	keystroke_d	d	n/a
111.213	0.075	222426	keystroke_e	e	n/a
112.0825	0.09	224165	keystroke_c	c	n/a
112.473	0.045	224946	keystroke_i	i	n/a
112.6525	0.075	225305	keystroke_s	s	n/a
113.463	0.0895	226926	keystroke_i	i	n/a
113.6575	0.135	227315	keystroke_o	o	n/a
113.9425	0.09	227885	keystroke_n	n	n/a
114.992	0.09	229984	keystroke_Key.space	Key.space	n/a
115.6215	0.121	231243	keystroke_r	r	n/a
115.8165	0.105	231633	keystroke_o	o	n/a
115.9515	0.12	231903	keystroke_o	o	n/a
116.5815	0.09	233163	keystroke_m	m	n/a
117.1515	0.0455	234303	keystroke_m	m	n/a
117.287	0.12	234574	keystroke_a	a	n/a
117.6175	0.09	235235	keystroke_t	t	n/a
117.9015	0.076	235803	keystroke_e	e	n/a
118.321	0.075	236642	keystroke_s	s	n/a
118.861	0.1055	237722	keystroke_Key.enter	Key.enter	n/a
118.9715	15.069	237943	prompt	n/a	authors size namespace changes\n
120.0915	0.12	240183	keystroke_q	q	n/a
120.3765	0.06	240753	keystroke_u	u	n/a
121.441	0.105	242882	keystroke_Key.backspace	Key.backspace	n/a
121.981	0.075	243962	keystroke_Key.backspace	Key.backspace	n/a
122.296	0.09	244592	keystroke_a	a	n/a
122.671	0.075	245342	keystroke_u	u	n/a
123.0755	0.075	246151	keystroke_t	t	n/a
123.211	0.09	246422	keystroke_h	h	n/a
123.481	0.089	246962	keystroke_o	o	n/a
123.706	0.075	247412	keystroke_r	r	n/a
124.051	0.09	248102	keystroke_s	s	n/a
124.71	0.075	249420	keystroke_Key.space	Key.space	n/a
125.266	0.089	250532	keystroke_s	s	n/a
125.49	0.0745	250980	keystroke_i	i	n/a
126.0295	0.12	252059	keystroke_z	z	n/a
126.4495	0.12	252899	keystroke_e	e	n/a
126.7795	0.09	253559	keystroke_Key.space	Key.space	n/a
127.125	0.105	254250	keystroke_n	n	n/a
127.335	0.105	254670	keystroke_a	a	n/a
127.53	0.0895	255060	keystroke_m	m	n/a
127.6795	0.09	255359	keystroke_e	e	n/a
128.2495	0.09	256499	keystroke_s	s	n/a
128.895	0.0895	257790	keystroke_p	p	n/a
129.465	0.1045	258930	keystroke_a	a	n/a
129.7795	0.12	259559	keystroke_c	c	n/a
130.0795	0.075	260159	keystroke_e	e	n/a
130.6945	0.105	261389	keystroke_Key.space	Key.space	n/a
131.294	0.015	262588	keystroke_c	c	n/a
131.354	0.015	262708	keystroke_h	h	n/a
131.549	0.12	263098	keystroke_a	a	n/a
132.298	0.061	264596	keystroke_n	n	n/a
132.479	0.06	264958	keystroke_g	g	n/a
132.809	0.06	265618	keystroke_e	e	n/a
133.2285	0.075	266457	keystroke_s	s	n/a
133.9785	0.06	267957	keystroke_Key.enter	Key.enter	n/a
134.0435	16.478	268087	prompt	n/a	hide cooked january puerto\n
134.7735	0.09	269547	keystroke_h	h	n/a
134.983	0.105	269966	keystroke_i	i	n/a
135.208	0.075	270416	keystroke_d	d	n/a
135.9135	0.059	271827	keystroke_e	e	n/a
135.9875	0.09	271975	keystroke_Key.space	Key.space	n/a
136.3035	0.074	272607	keystroke_c	c	n/a
136.4375	0.075	272875	keystroke_o	o	n/a
136.5735	0.1045	273147	keystroke_o	o	n/a
136.798	0.105	273596	keystroke_k	k	n/a
137.173	0.0745	274346	keystroke_e	e	n/a
137.4275	0.075	274855	keystroke_d	d	n/a
137.5625	0.12	275125	keystroke_Key.space	Key.space	n/a
137.9825	0.0745	275965	keystroke_j	j	n/a
138.207	0.076	276414	keystroke_a	a	n/a
138.403	0.075	276806	keystroke_n	n	n/a
139.2115	0.06	278423	keystroke_u	u	n/a
140.3965	0.075	280793	keystroke_a	a	n/a
140.6515	0.076	281303	keystroke_r	r	n/a
140.9065	0.0755	281813	keystroke_y	y	n/a
141.521	0.06	283042	keystroke_Key.space	Key.space	n/a
141.941	0.046	283882	keystroke_p	p	n/a
142.106	0.0755	284212	keystroke_u	u	n/a
144.328	0	288656	keystroke_r	r	n/a
145.3005	0.03	290601	keystroke_Key.backspace	Key.backspace	n/a
145.6605	0.075	291321	keystroke_e	e	n/a
145.9305	0.105	291861	keystroke_r	r	n/a
146.291	0.045	292582	keystroke_t	t	n/a
146.456	0.09	292912	keystroke_o	o	n/a
150.5075	0.012	301015	keystroke_Key.enter	Key.enter	n/a
150.525	9.3845	301050	prompt	n/a	shots grain chem essay\n
151.3595	0.09	302719	keystroke_s	s	n/a
151.4645	0.0895	302929	keystroke_h	h	n/a
151.6595	0.075	303319	keystroke_o	o	n/a
152.17	0.075	304340	keystroke_t	t	n/a
152.545	0.0595	305090	keystroke_s	s	n/a
152.694	0.105	305388	keystroke_Key.space	Key.space	n/a
153.1295	0.105	306259	keystroke_g	g	n/a
153.3995	0.09	306799	keystroke_r	r	n/a
153.8645	0.06	307729	keystroke_a	a	n/a
154.3895	0.045	308779	keystroke_i	i	n/a
154.5695	0.09	309139	keystroke_n	n	n/a
155.0035	0.12	310007	keystroke_Key.space	Key.space	n/a
155.7835	0.045	311567	keystroke_c	c	n/a
155.8435	0.015	311687	keystroke_h	h	n/a
156.0685	0.06	312137	keystroke_e	e	n/a
156.2035	0.075	312407	keystroke_m	m	n/a
156.548	0.075	313096	keystroke_Key.space	Key.space	n/a
157.058	0.1055	314116	keystroke_e	e	n/a
157.388	0.09	314776	keystroke_s	s	n/a
157.7935	0.105	315587	keystroke_s	s	n/a
158.153	0.09	316306	keystroke_a	a	n/a
158.363	0.075	316726	keystroke_y	y	n/a
159.8335	0.075	319667	keystroke_Key.enter	Key.enter	n/a
159.9155	20.78	319831	prompt	n/a	indie resource electronic detection\n
160.688	0.075	321376	keystroke_i	i	n/a
160.973	0.06	321946	keystroke_n	n	n/a
161.168	0.075	322336	keystroke_d	d	n/a
161.453	0.0595	322906	keystroke_i	i	n/a
161.8275	0.075	323655	keystroke_e	e	n/a
162.2175	0.075	324435	keystroke_Key.space	Key.space	n/a
162.6975	0.105	325395	keystroke_r	r	n/a
162.9525	0.075	325905	keystroke_e	e	n/a
163.2225	0.075	326445	keystroke_s	s	n/a
163.4475	0.075	326895	keystroke_o	o	n/a
163.642	0.075	327284	keystroke_r	r	n/a
163.9425	0.075	327885	keystroke_e	e	n/a
164.3775	0.09	328755	keystroke_c	c	n/a
164.7975	0.0595	329595	keystroke_e	e	n/a
166.3115	0.105	332623	keystroke_Key.backspace	Key.backspace	n/a
167.0015	0.09	334003	keystroke_Key.backspace	Key.backspace	n/a
167.7065	0.105	335413	keystroke_Key.backspace	Key.backspace	n/a
168.4555	0.075	336911	keystroke_Key.backspace	Key.backspace	n/a
169.4455	0.12	338891	keystroke_u	u	n/a
170.2555	0.075	340511	keystroke_r	r	n/a
170.9755	0.09	341951	keystroke_c	c	n/a
171.4255	0.075	342851	keystroke_e	e	n/a
171.9955	0.09	343991	keystroke_Key.space	Key.space	n/a
172.55	0.06	345100	keystroke_e	e	n/a
172.7	0.075	345400	keystroke_l	l	n/a
172.85	0.075	345700	keystroke_e	e	n/a
173.285	0.09	346570	keystroke_c	c	n/a
173.8555	0.0595	347711	keystroke_t	t	n/a
174.2	0.06	348400	keystroke_r	r	n/a
174.44	0.075	348880	keystroke_o	o	n/a
175.07	0.09	350140	keystroke_n	n	n/a
175.37	0.06	350740	keystroke_i	i	n/a
175.625	0.09	351250	keystroke_c	c	n/a
176.0745	0.09	352149	keystroke_Key.space	Key.space	n/a
176.5995	0.09	353199	keystroke_d	d	n/a
176.8545	0.075	353709	keystroke_e	e	n/a
177.275	0.06	354550	keystroke_t	t	n/a
177.5445	0.09	355089	keystroke_e	e	n/a
178.069	0.105	356138	keystroke_c	c	n/a
178.549	0.075	357098	keystroke_t	t	n/a
178.714	0.09	357428	keystroke_i	i	n/a
178.8945	0.09	357789	keystroke_o	o	n/a
179.1945	0.09	358389	keystroke_n	n	n/a
180.6035	0.09	361207	keystroke_Key.enter	Key.enter	n/a
180.699	17.317	361398	prompt	n/a	percentage ozone gloves mississippi\n
181.4435	0.105	362887	keystroke_p	p	n/a
181.6235	0.09	363247	keystroke_e	e	n/a
181.8635	0.075	363727	keystroke_r	r	n/a
182.2985	0.075	364597	keystroke_c	c	n/a
182.6285	0.075	365257	keystroke_e	e	n/a
183.0785	0.075	366157	keystroke_n	n	n/a
183.3485	0.09	366697	keystroke_t	t	n/a
183.693	0.09	367386	keystroke_a	a	n/a
184.023	0.045	368046	keystroke_g	g	n/a
184.623	0.09	369246	keystroke_e	e	n/a
185.148	0.105	370296	keystroke_Key.space	Key.space	n/a
185.4775	0.105	370955	keystroke_o	o	n/a
185.9725	0.045	371945	keystroke_z	z	n/a
186.7225	0.09	373445	keystroke_o	o	n/a
187.038	0.059	374076	keystroke_n	n	n/a
187.263	0.075	374526	keystroke_e	e	n/a
187.637	0.15	375274	keystroke_Key.space	Key.space	n/a
188.2075	0.09	376415	keystroke_g	g	n/a
188.657	0.075	377314	keystroke_l	l	n/a
189.152	0.075	378304	keystroke_o	o	n/a
189.9615	0.016	379923	keystroke_v	v	n/a
190.6215	0.06	381243	keystroke_e	e	n/a
191.297	0.12	382594	keystroke_s	s	n/a
191.477	0.09	382954	keystroke_Key.space	Key.space	n/a
191.822	0.06	383644	keystroke_m	m	n/a
192.137	0.09	384274	keystroke_i	i	n/a
192.827	0.075	385654	keystroke_s	s	n/a
192.992	0.1045	385984	keystroke_s	s	n/a
193.5165	0.09	387033	keystroke_i	i	n/a
194.6565	0.105	389313	keystroke_p	p	n/a
196.351	0.12	392702	keystroke_p	p	n/a
196.801	0.09	393602	keystroke_i	i	n/a
197.9395	0.0745	395879	keystroke_Key.enter	Key.enter	n/a
198.019	14.1825	396038	prompt	n/a	nepal redhead andale before\n
199.527	0.121	399054	keystroke_n	n	n/a
199.797	0.075	399594	keystroke_e	e	n/a
200.427	0.105	400854	keystroke_p	p	n/a
200.6665	0.089	401333	keystroke_a	a	n/a
200.7855	0.12	401571	keystroke_;	;	n/a
201.07	0.12	402140	keystroke_Key.space	Key.space	n/a
201.7745	0.12	403549	keystroke_Key.backspace	Key.backspace	n/a
202.374	0.0895	404748	keystroke_Key.backspace	Key.backspace	n/a
202.853	0.09	405706	keystroke_l	l	n/a
203.0775	0.09	406155	keystroke_Key.space	Key.space	n/a
203.9165	0.105	407833	keystroke_r	r	n/a
204.0965	0.09	408193	keystroke_e	e	n/a
204.3955	0.0895	408791	keystroke_d	d	n/a
205.07	0.075	410140	keystroke_h	h	n/a
205.2345	0.075	410469	keystroke_e	e	n/a
205.474	0.1195	410948	keystroke_a	a	n/a
205.9085	0.09	411817	keystroke_d	d	n/a
206.3425	0.105	412685	keystroke_Key.space	Key.space	n/a
206.793	0.074	413586	keystroke_a	a	n/a
206.9115	0.075	413823	keystroke_n	n	n/a
207.451	0.0605	414902	keystroke_d	d	n/a
207.8855	0.09	415771	keystroke_a	a	n/a
208.0505	0.0895	416101	keystroke_l	l	n/a
208.275	0.06	416550	keystroke_e	e	n/a
208.724	0.076	417448	keystroke_Key.space	Key.space	n/a
209.204	0.09	418408	keystroke_b	b	n/a
209.4885	0.09	418977	keystroke_e	e	n/a
210.2975	0.09	420595	keystroke_f	f	n/a
210.9865	0.09	421973	keystroke_o	o	n/a
211.1815	0.075	422363	keystroke_r	r	n/a
211.406	0.075	422812	keystroke_e	e	n/a
212.125	0.0745	424250	keystroke_Key.enter	Key.enter	n/a
212.2045	17.395	424409	prompt	n/a	churches managing disciplines yacht\n
213.0245	0.09	426049	keystroke_c	c	n/a
213.1295	0.09	426259	keystroke_h	h	n/a
214.3735	0.06	428747	keystroke_u	u	n/a
215.0635	0.075	430127	keystroke_r	r	n/a
215.4535	0.09	430907	keystroke_c	c	n/a
215.5885	0.0595	431177	keystroke_h	h	n/a
215.9035	0.06	431807	keystroke_e	e	n/a
216.3085	0.075	432617	keystroke_s	s	n/a
216.638	0.105	433276	keystroke_Key.space	Key.space	n/a
217.0725	0.0605	434145	keystroke_m	m	n/a
217.208	0.1205	434416	keystroke_a	a	n/a
217.7935	0.0595	435587	keystroke_n	n	n/a
218.093	0.105	436186	keystroke_a	a	n/a
218.468	0.09	436936	keystroke_g	g	n/a
218.6935	0.0745	437387	keystroke_i	i	n/a
218.888	0.075	437776	keystroke_n	n	n/a
219.113	0.06	438226	keystroke_g	g	n/a
219.578	0.12	439156	keystroke_Key.space	Key.space	n/a
220.493	0.03	440986	keystroke_d	d	n/a
221.138	0.045	442276	keystroke_i	i	n/a
221.4225	0.0605	442845	keystroke_s	s	n/a
221.9025	0.0905	443805	keystroke_c	c	n/a
222.098	0.0895	444196	keystroke_i	i	n/a
222.6685	0.1045	445337	keystroke_p	p	n/a
223.238	0.12	446476	keystroke_l	l	n/a
223.4785	0.075	446957	keystroke_i	i	n/a
223.7485	0.06	447497	keystroke_n	n	n/a
223.9585	0.059	447917	keystroke_e	e	n/a
224.3335	0.09	448667	keystroke_s	s	n/a
224.933	0.09	449866	keystroke_Key.space	Key.space	n/a
225.353	0.0755	450706	keystroke_y	y	n/a
225.728	0.09	451456	keystroke_a	a	n/a
226.8835	0.104	453767	keystroke_c	c	n/a
227.078	0.075	454156	keystroke_h	h	n/a
228.263	0.0905	456526	keystroke_t	t	n/a
229.5235	0.075	459047	keystroke_Key.enter	Key.enter	n/a
229.603	12.372	459206	prompt	n/a	matches auditor total weight\n
230.3785	0.0745	460757	keystroke_m	m	n/a
230.573	0.1055	461146	keystroke_a	a	n/a
230.8885	0.06	461777	keystroke_t	t	n/a
231.2935	0.06	462587	keystroke_c	c	n/a
231.3835	0.06	462767	keystroke_h	h	n/a
231.773	0.076	463546	keystroke_e	e	n/a
232.058	0.09	464116	keystroke_s	s	n/a
232.2385	0.09	464477	keystroke_Key.space	Key.space	n/a
232.583	0.075	465166	keystroke_s	s	n/a
232.7185	0.0595	465437	keystroke_u	u	n/a
233.8435	0.104	467687	keystroke_Key.backspace	Key.backspace	n/a
234.4575	0.075	468915	keystroke_Key.backspace	Key.backspace	n/a
234.758	0.075	469516	keystroke_a	a	n/a
235.433	0.075	470866	keystroke_u	u	n/a
236.1835	0.0745	472367	keystroke_d	d	n/a
236.408	0.06	472816	keystroke_i	i	n/a
237.488	0.0445	474976	keystroke_t	t	n/a
237.608	0.075	475216	keystroke_o	o	n/a
238.238	0.075	476476	keystroke_r	r	n/a
238.4625	0.0905	476925	keystroke_Key.space	Key.space	n/a
238.793	0.06	477586	keystroke_t	t	n/a
238.913	0.09	477826	keystroke_o	o	n/a
239.063	0.06	478126	keystroke_t	t	n/a
239.4385	0.06	478877	keystroke_a	a	n/a
239.5885	0.075	479177	keystroke_l	l	n/a
239.8285	0.09	479657	keystroke_Key.space	Key.space	n/a
240.2785	0.09	480557	keystroke_w	w	n/a
240.6085	0.045	481217	keystroke_e	e	n/a
240.8485	0.075	481697	keystroke_i	i	n/a
241.1185	0.06	482237	keystroke_g	g	n/a
241.2385	0.075	482477	keystroke_h	h	n/a
241.4185	0.075	482837	keystroke_t	t	n/a
241.8985	0.075	483797	keystroke_Key.enter	Key.enter	n/a
241.9785	35.262	483957	prompt	n/a	moldova simply generator bookings\n
242.5885	0.12	485177	keystroke_m	m	n/a
243.0385	0.0745	486077	keystroke_o	o	n/a
243.3685	0.0895	486737	keystroke_l	l	n/a
244.058	0.015	488116	keystroke_d	d	n/a
244.538	0.075	489076	keystroke_o	o	n/a
245.123	0.105	490246	keystroke_b	b	n/a
245.8435	0.06	491687	keystroke_Key.backspace	Key.backspace	n/a
246.0385	0.06	492077	keystroke_v	v	n/a
246.7585	0.045	493517	keystroke_i	i	n/a
247.388	0.015	494776	keystroke_Key.backspace	Key.backspace	n/a
247.749	0.1045	495498	keystroke_a	a	n/a
248.2885	0.075	496577	keystroke_Key.space	Key.space	n/a
248.7235	0.045	497447	keystroke_s	s	n/a
249.008	0.09	498016	keystroke_i	i	n/a
249.2935	0.06	498587	keystroke_m	m	n/a
252.175	0.001	504350	keystroke_i	i	n/a
252.968	0.0905	505936	keystroke_Key.backspace	Key.backspace	n/a
253.6585	0.135	507317	keystroke_;	;	n/a
254.3935	0.0755	508787	keystroke_Key.backspace	Key.backspace	n/a
255.8785	0.1505	511757	keystroke_p	p	n/a
256.479	0.135	512958	keystroke_l	l	n/a
256.839	0.089	513678	keystroke_u	u	n/a
257.6485	0.09	515297	keystroke_Key.backspace	Key.backspace	n/a
258.2485	0.075	516497	keystroke_y	y	n/a
258.8485	0.075	517697	keystroke_Key.space	Key.space	n/a
259.673	0.09	519346	keystroke_f	f	n/a
260.2135	0.09	520427	keystroke_Key.backspace	Key.backspace	n/a
260.4085	0.06	520817	keystroke_g	g	n/a
260.6335	0.0755	521267	keystroke_e	e	n/a
261.0535	0.06	522107	keystroke_n	n	n/a
261.1885	0.09	522377	keystroke_e	e	n/a
261.5935	0.105	523187	keystroke_t	t	n/a
261.9685	0.105	523937	keystroke_a	a	n/a
262.3435	0.045	524687	keystroke_t	t	n/a
262.4485	0.09	524897	keystroke_o	o	n/a
263.0635	0.06	526127	keystroke_r	r	n/a
263.304	0.075	526608	keystroke_Key.space	Key.space	n/a
263.9785	0.075	527957	keystroke_b	b	n/a
266.5605	0.043	533121	keystroke_Key.backspace	Key.backspace	n/a
267.2635	0.09	534527	keystroke_Key.backspace	Key.backspace	n/a
267.969	0.09	535938	keystroke_Key.backspace	Key.backspace	n/a
268.659	0.09	537318	keystroke_Key.backspace	Key.backspace	n/a
269.3785	0.09	538757	keystroke_Key.backspace	Key.backspace	n/a
270.0685	0.105	540137	keystroke_Key.backspace	Key.backspace	n/a
270.744	0.09	541488	keystroke_Key.backspace	Key.backspace	n/a
271.0885	0.0755	542177	keystroke_r	r	n/a
271.494	0.105	542988	keystroke_a	a	n/a
272.679	0.06	545358	keystroke_t	t	n/a
272.889	0.105	545778	keystroke_o	o	n/a
273.444	0.075	546888	keystroke_r	r	n/a
273.6835	0.075	547367	keystroke_Key.space	Key.space	n/a
274.914	0.075	549828	keystroke_b	b	n/a
275.094	0.075	550188	keystroke_o	o	n/a
275.229	0.105	550458	keystroke_o	o	n/a
275.439	0.09	550878	keystroke_k	k	n/a
275.634	0.06	551268	keystroke_i	i	n/a
275.814	0.075	551628	keystroke_n	n	n/a
275.964	0.075	551928	keystroke_g	g	n/a
276.7585	0.075	553517	keystroke_s	s	n/a
277.1485	0.09	554297	keystroke_Key.enter	Key.enter	n/a
277.2445	13.871	554489	prompt	n/a	maintains davidson soul thong\n
277.9585	0.09	555917	keystroke_m	m	n/a
278.1685	0.09	556337	keystroke_a	a	n/a
278.3185	0.06	556637	keystroke_i	i	n/a
278.4985	0.09	556997	keystroke_n	n	n/a
279.2935	0.0905	558587	keystroke_t	t	n/a
279.5635	0.075	559127	keystroke_a	a	n/a
279.7285	0.0595	559457	keystroke_i	i	n/a
279.893	0.106	559786	keystroke_n	n	n/a
280.449	0.06	560898	keystroke_s	s	n/a
280.584	0.0745	561168	keystroke_Key.space	Key.space	n/a
281.499	0.105	562998	keystroke_d	d	n/a
282.114	0.12	564228	keystroke_a	a	n/a
282.7285	0.12	565457	keystroke_b	b	n/a
283.4335	0.09	566867	keystroke_Key.backspace	Key.backspace	n/a
283.629	0.075	567258	keystroke_v	v	n/a
284.199	0.045	568398	keystroke_i	i	n/a
284.754	0.06	569508	keystroke_d	d	n/a
285.5335	0.075	571067	keystroke_s	s	n/a
285.6985	0.075	571397	keystroke_o	o	n/a
285.9385	0.075	571877	keystroke_n	n	n/a
286.479	0.045	572958	keystroke_Key.space	Key.space	n/a
286.749	0.075	573498	keystroke_s	s	n/a
286.869	0.105	573738	keystroke_o	o	n/a
287.1235	0.1055	574247	keystroke_u	u	n/a
288.459	0.06	576918	keystroke_l	l	n/a
288.9835	0.09	577967	keystroke_Key.space	Key.space	n/a
289.4785	0.045	578957	keystroke_t	t	n/a
289.5835	0.06	579167	keystroke_h	h	n/a
289.7485	0.09	579497	keystroke_o	o	n/a
289.9585	0.105	579917	keystroke_n	n	n/a
290.1535	0.075	580307	keystroke_g	g	n/a
290.8885	0.2255	581777	keystroke_Key.enter	Key.enter	n/a
291.1185	11.772	582237	prompt	n/a	possible pace classical sharing\n
291.984	0.12	583968	keystroke_p	p	n/a
292.209	0.075	584418	keystroke_o	o	n/a
292.449	0.045	584898	keystroke_s	s	n/a
292.584	0.105	585168	keystroke_s	s	n/a
292.929	0.044	585858	keystroke_i	i	n/a
293.2145	0.09	586429	keystroke_b	b	n/a
293.409	0.06	586818	keystroke_l	l	n/a
293.5735	0.075	587147	keystroke_e	e	n/a
293.934	0.075	587868	keystroke_Key.space	Key.space	n/a
294.444	0.105	588888	keystroke_p	p	n/a
294.609	0.0895	589218	keystroke_a	a	n/a
294.9085	0.105	589817	keystroke_c	c	n/a
295.1635	0.09	590327	keystroke_e	e	n/a
295.6885	0.045	591377	keystroke_Key.space	Key.space	n/a
296.109	0.0905	592218	keystroke_c	c	n/a
296.3335	0.076	592667	keystroke_l	l	n/a
296.7545	0.105	593509	keystroke_a	a	n/a
297.0995	0.045	594199	keystroke_s	s	n/a
297.2345	0.09	594469	keystroke_s	s	n/a
297.444	0.06	594888	keystroke_i	i	n/a
297.624	0.09	595248	keystroke_c	c	n/a
297.924	0.09	595848	keystroke_a	a	n/a
298.359	0.075	596718	keystroke_l	l	n/a
298.614	0.075	597228	keystroke_Key.space	Key.space	n/a
298.9585	0.045	597917	keystroke_s	s	n/a
299.0485	0.075	598097	keystroke_h	h	n/a
299.709	0.09	599418	keystroke_a	a	n/a
300.084	0.075	600168	keystroke_r	r	n/a
300.324	0.075	600648	keystroke_i	i	n/a
300.519	0.075	601038	keystroke_n	n	n/a
300.684	0.075	601368	keystroke_g	g	n/a
302.8765	0.012	605753	keystroke_Key.enter	Key.enter	n/a
302.8935	23.3225	605787	prompt	n/a	realtors graduate nevertheless fish\n
303.744	0.075	607488	keystroke_r	r	n/a
303.9235	0.075	607847	keystroke_e	e	n/a
304.524	0.09	609048	keystroke_a	a	n/a
304.914	0.075	609828	keystroke_l	l	n/a
305.634	0.09	611268	keystroke_t	t	n/a
306.0385	0.06	612077	keystroke_o	o	n/a
306.3835	0.0605	612767	keystroke_r	r	n/a
307.0585	0.09	614117	keystroke_s	s	n/a
307.2535	0.09	614507	keystroke_Key.space	Key.space	n/a
307.7635	0.105	615527	keystroke_g	g	n/a
308.2135	0.09	616427	keystroke_r	r	n/a
308.544	0.105	617088	keystroke_a	a	n/a
308.874	0.105	617748	keystroke_d	d	n/a
309.084	0.06	618168	keystroke_u	u	n/a
309.384	0.105	618768	keystroke_a	a	n/a
309.759	0.075	619518	keystroke_t	t	n/a
310.029	0.075	620058	keystroke_e	e	n/a
310.374	0.075	620748	keystroke_Key.space	Key.space	n/a
311.1985	0.105	622397	keystroke_b	b	n/a
311.9035	0.06	623807	keystroke_Key.backspace	Key.backspace	n/a
312.3095	0.074	624619	keystroke_n	n	n/a
312.4585	0.1055	624917	keystroke_e	e	n/a
313.179	0.06	626358	keystroke_r	r	n/a
313.569	0.075	627138	keystroke_e	e	n/a
314.3195	0.09	628639	keystroke_Key.backspace	Key.backspace	n/a
314.5295	0.045	629059	keystroke_Key.backspace	Key.backspace	n/a
315.4735	0.18	630947	keystroke_v	v	n/a
315.924	0.135	631848	keystroke_e	e	n/a
316.254	0.135	632508	keystroke_r	r	n/a
316.884	0.075	633768	keystroke_t	t	n/a
317.4245	0.045	634849	keystroke_h	h	n/a
318.714	0.105	637428	keystroke_e	e	n/a
319.404	0.06	638808	keystroke_k	k	n/a
319.839	0.075	639678	keystroke_e	e	n/a
320.664	0.06	641328	keystroke_Key.backspace	Key.backspace	n/a
321.294	0.09	642588	keystroke_Key.backspace	Key.backspace	n/a
322.179	0.075	644358	keystroke_l	l	n/a
322.5985	0.06	645197	keystroke_e	e	n/a
322.9135	0.075	645827	keystroke_s	s	n/a
323.094	0.09	646188	keystroke_s	s	n/a
323.5445	0.105	647089	keystroke_Key.space	Key.space	n/a
323.8295	0.105	647659	keystroke_f	f	n/a
325.074	0.075	650148	keystroke_i	i	n/a
325.269	0.105	650538	keystroke_s	s	n/a
325.404	0.075	650808	keystroke_h	h	n/a
326.1235	0.09	652247	keystroke_Key.enter	Key.enter	n/a
326.219	15.312	652438	prompt	n/a	absence foul savannah diversity\n
327.084	0.12	654168	keystroke_a	a	n/a
327.414	0.12	654828	keystroke_b	b	n/a
328.404	0.105	656808	keystroke_s	s	n/a
328.8385	0.061	657677	keystroke_c	c	n/a
329.8435	0.075	659687	keystroke_Key.backspace	Key.backspace	n/a
330.3695	0.045	660739	keystroke_e	e	n/a
330.8495	0.015	661699	keystroke_n	n	n/a
331.1195	0.075	662239	keystroke_c	c	n/a
331.494	0.09	662988	keystroke_e	e	n/a
332.019	0.075	664038	keystroke_Key.space	Key.space	n/a
332.394	0.075	664788	keystroke_f	f	n/a
332.529	0.09	665058	keystroke_o	o	n/a
332.739	0.06	665478	keystroke_u	u	n/a
333.294	0.075	666588	keystroke_l	l	n/a
333.519	0.075	667038	keystroke_Key.space	Key.space	n/a
333.864	0.105	667728	keystroke_s	s	n/a
334.149	0.09	668298	keystroke_a	a	n/a
334.584	0.105	669168	keystroke_v	v	n/a
335.049	0.12	670098	keystroke_a	a	n/a
335.7395	0.09	671479	keystroke_n	n	n/a
335.9795	0.1045	671959	keystroke_n	n	n/a
336.549	0.06	673098	keystroke_a	a	n/a
337.48	0.059	674960	keystroke_h	h	n/a
337.795	0.12	675590	keystroke_Key.space	Key.space	n/a
338.394	0.075	676788	keystroke_d	d	n/a
338.544	0.075	677088	keystroke_i	i	n/a
339.04	0.119	678080	keystroke_v	v	n/a
339.429	0.09	678858	keystroke_e	e	n/a
339.699	0.06	679398	keystroke_r	r	n/a
340.014	0.12	680028	keystroke_s	s	n/a
340.374	0.075	680748	keystroke_i	i	n/a
340.719	0.06	681438	keystroke_t	t	n/a
340.839	0.075	681678	keystroke_y	y	n/a
341.4395	0.09	682879	keystroke_Key.enter	Key.enter	n/a
341.534	13.947	683068	prompt	n/a	treasury solely utilize nickel\n
342.3995	0.045	684799	keystroke_t	t	n/a
342.6095	0.105	685219	keystroke_r	r	n/a
342.8645	0.09	685729	keystroke_e	e	n/a
343.134	0.075	686268	keystroke_a	a	n/a
343.419	0.09	686838	keystroke_s	s	n/a
343.854	0.075	687708	keystroke_u	u	n/a
344.1245	0.075	688249	keystroke_r	r	n/a
344.2895	0.06	688579	keystroke_y	y	n/a
344.634	0.09	689268	keystroke_Key.space	Key.space	n/a
345.1145	0.045	690229	keystroke_s	s	n/a
345.1735	0.091	690347	keystroke_o	o	n/a
345.399	0.061	690798	keystroke_l	l	n/a
345.895	0.044	691790	keystroke_e	e	n/a
346.1045	0.09	692209	keystroke_y	y	n/a
346.7195	0.045	693439	keystroke_Key.space	Key.space	n/a
347.124	0.1055	694248	keystroke_u	u	n/a
348.414	0.06	696828	keystroke_t	t	n/a
348.654	0.09	697308	keystroke_i	i	n/a
350.364	0.075	700728	keystroke_l	l	n/a
351.13	0.045	702260	keystroke_i	i	n/a
351.97	0.1195	703940	keystroke_z	z	n/a
352.3895	0.075	704779	keystroke_e	e	n/a
352.7945	0.045	705589	keystroke_Key.space	Key.space	n/a
353.17	0.045	706340	keystroke_n	n	n/a
353.41	0.075	706820	keystroke_i	i	n/a
353.6945	0.105	707389	keystroke_c	c	n/a
354.3095	0.06	708619	keystroke_k	k	n/a
354.7445	0.075	709489	keystroke_e	e	n/a
354.8795	0.075	709759	keystroke_l	l	n/a
355.3895	0.09	710779	keystroke_Key.enter	Key.enter	n/a
355.486	13.405	710972	prompt	n/a	helpful demanding living murder\n
356.35	0.075	712700	keystroke_h	h	n/a
356.545	0.075	713090	keystroke_e	e	n/a
356.77	0.09	713540	keystroke_k	k	n/a
357.49	0.09	714980	keystroke_Key.backspace	Key.backspace	n/a
358.09	0.135	716180	keystroke_l	l	n/a
358.375	0.12	716750	keystroke_p	p	n/a
359.079	0.075	718158	keystroke_f	f	n/a
359.289	0.075	718578	keystroke_u	u	n/a
359.574	0.09	719148	keystroke_l	l	n/a
359.889	0.06	719778	keystroke_Key.space	Key.space	n/a
360.2795	0.06	720559	keystroke_d	d	n/a
360.5195	0.075	721039	keystroke_e	e	n/a
360.7145	0.09	721429	keystroke_m	m	n/a
361.0745	0.09	722149	keystroke_a	a	n/a
361.3595	0.045	722719	keystroke_n	n	n/a
361.4795	0.09	722959	keystroke_d	d	n/a
361.7045	0.075	723409	keystroke_i	i	n/a
361.8845	0.09	723769	keystroke_n	n	n/a
362.0195	0.09	724039	keystroke_g	g	n/a
362.4245	0.12	724849	keystroke_Key.space	Key.space	n/a
363.0695	0.12	726139	keystroke_l	l	n/a
363.2645	0.12	726529	keystroke_i	i	n/a
363.6395	0.105	727279	keystroke_v	v	n/a
364.1045	0.075	728209	keystroke_i	i	n/a
364.4795	0.06	728959	keystroke_n	n	n/a
364.7045	0.09	729409	keystroke_g	g	n/a
365.2445	0.09	730489	keystroke_Key.space	Key.space	n/a
365.6945	0.105	731389	keystroke_m	m	n/a
366.0095	0.06	732019	keystroke_u	u	n/a
366.3395	0.09	732679	keystroke_d	d	n/a
366.9995	0.09	733999	keystroke_Key.backspace	Key.backspace	n/a
367.2395	0.075	734479	keystroke_r	r	n/a
367.5545	0.075	735109	keystroke_d	d	n/a
367.7795	0.075	735559	keystroke_e	e	n/a
368.0205	0.06	736041	keystroke_r	r	n/a
368.7995	0.0895	737599	keystroke_Key.enter	Key.enter	n/a
368.894	19.4825	737788	prompt	n/a	saturday thailand advice buys\n
369.865	0.09	739730	keystroke_s	s	n/a
370.09	0.135	740180	keystroke_a	a	n/a
370.51	0.105	741020	keystroke_t	t	n/a
371.0645	0.06	742129	keystroke_u	u	n/a
371.2595	0.075	742519	keystroke_r	r	n/a
372.369	0.091	744738	keystroke_d	d	n/a
372.805	0.105	745610	keystroke_a	a	n/a
373.045	0.0895	746090	keystroke_y	y	n/a
373.5845	0.12	747169	keystroke_Key.space	Key.space	n/a
374.2445	0.105	748489	keystroke_t	t	n/a
375.07	0.045	750140	keystroke_h	h	n/a
375.9695	0.12	751939	keystroke_a	a	n/a
376.6895	0.075	753379	keystroke_i	i	n/a
377.1845	0.09	754369	keystroke_l	l	n/a
377.5145	0.105	755029	keystroke_a	a	n/a
378.1145	0.06	756229	keystroke_n	n	n/a
378.3245	0.075	756649	keystroke_d	d	n/a
378.8195	0.105	757639	keystroke_Key.space	Key.space	n/a
380.5295	0.09	761059	keystroke_a	a	n/a
381.9095	0.015	763819	keystroke_d	d	n/a
383.0045	0.076	766009	keystroke_v	v	n/a
383.1395	0.0755	766279	keystroke_i	i	n/a
383.4845	0.045	766969	keystroke_c	c	n/a
383.7845	0.091	767569	keystroke_e	e	n/a
384.0695	0.105	768139	keystroke_Key.space	Key.space	n/a
384.5795	0.075	769159	keystroke_b	b	n/a
384.85	0.06	769700	keystroke_y	y	n/a
385.8855	0.015	771771	keystroke_Key.backspace	Key.backspace	n/a
386.755	0.015	773510	keystroke_u	u	n/a
386.905	0.075	773810	keystroke_y	y	n/a
387.7145	0.075	775429	keystroke_s	s	n/a
388.2995	0.075	776599	keystroke_Key.enter	Key.enter	n/a
388.388	16.3985	776776	prompt	n/a	tomatoes sufficient flex myers\n
389.2	0.075	778400	keystroke_t	t	n/a
389.3205	0.105	778641	keystroke_o	o	n/a
389.4855	0.045	778971	keystroke_t	t	n/a
390.0545	0.0905	780109	keystroke_Key.backspace	Key.backspace	n/a
390.565	0.075	781130	keystroke_m	m	n/a
390.775	0.09	781550	keystroke_a	a	n/a
391.1195	0.09	782239	keystroke_t	t	n/a
391.795	0.09	783590	keystroke_o	o	n/a
392.02	0.075	784040	keystroke_e	e	n/a
392.275	0.105	784550	keystroke_s	s	n/a
394.2405	0.075	788481	keystroke_Key.space	Key.space	n/a
394.7055	0.105	789411	keystroke_s	s	n/a
394.8705	0.075	789741	keystroke_u	u	n/a
395.0805	0.074	790161	keystroke_f	f	n/a
395.2305	0.0895	790461	keystroke_f	f	n/a
395.5	0.045	791000	keystroke_i	i	n/a
395.7405	0.075	791481	keystroke_c	c	n/a
396.6255	0.06	793251	keystroke_i	i	n/a
396.9405	0.0745	793881	keystroke_e	e	n/a
397.105	0.06	794210	keystroke_n	n	n/a
397.435	0.09	794870	keystroke_t	t	n/a
397.735	0.09	795470	keystroke_Key.space	Key.space	n/a
398.05	0.075	796100	keystroke_f	f	n/a
398.2	0.06	796400	keystroke_l	l	n/a
398.5005	0.09	797001	keystroke_e	e	n/a
398.9195	0.091	797839	keystroke_w	w	n/a
399.49	0.075	798980	keystroke_Key.backspace	Key.backspace	n/a
399.73	0.135	799460	keystroke_z	z	n/a
400.7655	0.06	801531	keystroke_Key.backspace	Key.backspace	n/a
401.0505	0.09	802101	keystroke_x	x	n/a
401.455	0.105	802910	keystroke_Key.space	Key.space	n/a
402.385	0.0905	804770	keystroke_m	m	n/a
402.7755	0.075	805551	keystroke_y	y	n/a
403.2555	0.075	806511	keystroke_e	e	n/a
403.5245	0.076	807049	keystroke_r	r	n/a
403.84	0.075	807680	keystroke_s	s	n/a
404.695	0.09	809390	keystroke_Key.enter	Key.enter	n/a
404.792	8.2595	809584	prompt	n/a	likes shed trading carry\n
405.5505	0.1045	811101	keystroke_l	l	n/a
405.775	0.09	811550	keystroke_i	i	n/a
405.985	0.09	811970	keystroke_k	k	n/a
406.15	0.075	812300	keystroke_e	e	n/a
406.4645	0.0755	812929	keystroke_s	s	n/a
406.7205	0.105	813441	keystroke_Key.space	Key.space	n/a
407.0205	0.06	814041	keystroke_s	s	n/a
407.125	0.06	814250	keystroke_h	h	n/a
407.3345	0.075	814669	keystroke_e	e	n/a
407.6055	0.0595	815211	keystroke_d	d	n/a
407.7245	0.09	815449	keystroke_Key.space	Key.space	n/a
408.5645	0.0905	817129	keystroke_t	t	n/a
408.8955	0.0895	817791	keystroke_r	r	n/a
409.54	0.135	819080	keystroke_a	a	n/a
409.84	0.075	819680	keystroke_d	d	n/a
410.065	0.06	820130	keystroke_i	i	n/a
410.6655	0.06	821331	keystroke_n	n	n/a
410.8755	0.09	821751	keystroke_g	g	n/a
411.1295	0.106	822259	keystroke_Key.space	Key.space	n/a
411.3845	0.075	822769	keystroke_c	c	n/a
411.6395	0.105	823279	keystroke_a	a	n/a
411.9395	0.0605	823879	keystroke_r	r	n/a
412.09	0.06	824180	keystroke_r	r	n/a
412.24	0.09	824480	keystroke_y	y	n/a
412.99	0.06	825980	keystroke_Key.enter	Key.enter	n/a
413.0555	11.3965	826111	prompt	n/a	meyer june consists specific\n
413.8145	0.091	827629	keystroke_m	m	n/a
413.966	0.0745	827932	keystroke_e	e	n/a
414.2355	0.075	828471	keystroke_y	y	n/a
414.5805	0.09	829161	keystroke_e	e	n/a
414.8055	0.075	829611	keystroke_r	r	n/a
415.42	0.09	830840	keystroke_Key.space	Key.space	n/a
415.645	0.0905	831290	keystroke_j	j	n/a
415.9005	0.075	831801	keystroke_u	u	n/a
416.5155	0.015	833031	keystroke_n	n	n/a
416.8605	0.06	833721	keystroke_e	e	n/a
417.235	0.105	834470	keystroke_Key.space	Key.space	n/a
417.5805	0.075	835161	keystroke_c	c	n/a
417.6855	0.075	835371	keystroke_o	o	n/a
417.9105	0.075	835821	keystroke_n	n	n/a
418.6455	0.045	837291	keystroke_s	s	n/a
418.96	0.06	837920	keystroke_i	i	n/a
419.155	0.075	838310	keystroke_s	s	n/a
419.995	0.075	839990	keystroke_t	t	n/a
420.3555	0.09	840711	keystroke_s	s	n/a
420.5655	0.075	841131	keystroke_Key.space	Key.space	n/a
421.451	0.1045	842902	keystroke_s	s	n/a
421.6005	0.105	843201	keystroke_p	p	n/a
421.96	0.075	843920	keystroke_e	e	n/a
422.335	0.075	844670	keystroke_c	c	n/a
422.56	0.075	845120	keystroke_i	i	n/a
422.9055	0.09	845811	keystroke_f	f	n/a
423.0855	0.06	846171	keystroke_i	i	n/a
423.6405	0.09	847281	keystroke_c	c	n/a
424.375	0.0755	848750	keystroke_Key.enter	Key.enter	n/a
424.455	25.9925	848910	prompt	n/a	serial celebrities separation implementing\n
425.4555	0.0905	850911	keystroke_s	s	n/a
425.665	0.12	851330	keystroke_e	e	n/a
425.92	0.076	851840	keystroke_r	r	n/a
426.146	0.09	852292	keystroke_i	i	n/a
426.61	0.106	853220	keystroke_a	a	n/a
427.03	0.076	854060	keystroke_l	l	n/a
427.345	0.09	854690	keystroke_Key.space	Key.space	n/a
428.005	0.09	856010	keystroke_v	v	n/a
428.695	0.075	857390	keystroke_Key.backspace	Key.backspace	n/a
430.3605	0.06	860721	keystroke_c	c	n/a
430.7805	0.045	861561	keystroke_e	e	n/a
430.9155	0.075	861831	keystroke_l	l	n/a
431.561	0.0445	863122	keystroke_e	e	n/a
432.221	0.135	864442	keystroke_v	v	n/a
433.016	0.0445	866032	keystroke_Key.backspace	Key.backspace	n/a
433.211	0.06	866422	keystroke_b	b	n/a
433.9155	0.09	867831	keystroke_r	r	n/a
434.3955	0.06	868791	keystroke_i	i	n/a
434.6355	0.075	869271	keystroke_t	t	n/a
434.8455	0.045	869691	keystroke_i	i	n/a
435.1005	0.09	870201	keystroke_e	e	n/a
435.5055	0.135	871011	keystroke_s	s	n/a
436.2255	0.105	872451	keystroke_Key.space	Key.space	n/a
436.3905	0.075	872781	keystroke_s	s	n/a
436.6155	0.06	873231	keystroke_e	e	n/a
436.8255	0.06	873651	keystroke_p	p	n/a
437.336	0.0745	874672	keystroke_r	r	n/a
437.7255	0.09	875451	keystroke_a	a	n/a
438.3405	0.045	876681	keystroke_r	r	n/a
439.285	0.09	878570	keystroke_Key.backspace	Key.backspace	n/a
439.9305	0.075	879861	keystroke_Key.backspace	Key.backspace	n/a
440.5155	0.075	881031	keystroke_Key.backspace	Key.backspace	n/a
440.846	0.105	881692	keystroke_a	a	n/a
441.236	0.09	882472	keystroke_r	r	n/a
441.746	0.12	883492	keystroke_a	a	n/a
442.3755	0.06	884751	keystroke_t	t	n/a
442.5555	0.075	885111	keystroke_i	i	n/a
442.7355	0.1055	885471	keystroke_o	o	n/a
442.991	0.075	885982	keystroke_n	n	n/a
443.8155	0.06	887631	keystroke_Key.space	Key.space	n/a
444.0715	0.075	888143	keystroke_i	i	n/a
444.3255	0.106	888651	keystroke_m	m	n/a
444.656	0.03	889312	keystroke_p	p	n/a
445.196	0.09	890392	keystroke_l	l	n/a
445.766	0.075	891532	keystroke_e	e	n/a
446.6205	0.075	893241	keystroke_m	m	n/a
447.0705	0.09	894141	keystroke_e	e	n/a
447.521	0.045	895042	keystroke_n	n	n/a
447.851	0.075	895702	keystroke_t	t	n/a
448.001	0.075	896002	keystroke_i	i	n/a
449.1405	0.06	898281	keystroke_n	n	n/a
449.3355	0.0605	898671	keystroke_g	g	n/a
450.341	0.105	900682	keystroke_Key.enter	Key.enter	n/a
450.451	13.3915	900902	prompt	n/a	rain cyber grammar journey\n
451.526	0.09	903052	keystroke_r	r	n/a
451.856	0.075	903712	keystroke_a	a	n/a
452.006	0.09	904012	keystroke_i	i	n/a
452.276	0.075	904552	keystroke_n	n	n/a
452.591	0.105	905182	keystroke_Key.space	Key.space	n/a
452.9655	0.09	905931	keystroke_c	c	n/a
453.3255	0.075	906651	keystroke_y	y	n/a
453.6555	0.09	907311	keystroke_b	b	n/a
453.9265	0.089	907853	keystroke_e	e	n/a
454.1805	0.045	908361	keystroke_r	r	n/a
454.361	0.105	908722	keystroke_Key.space	Key.space	n/a
454.9755	0.0905	909951	keystroke_g	g	n/a
455.3805	0.09	910761	keystroke_r	r	n/a
455.771	0.09	911542	keystroke_a	a	n/a
455.9505	0.0755	911901	keystroke_m	m	n/a
456.101	0.0745	912202	keystroke_m	m	n/a
456.2505	0.075	912501	keystroke_e	e	n/a
457.2255	0.075	914451	keystroke_Key.backspace	Key.backspace	n/a
457.4805	0.09	914961	keystroke_a	a	n/a
457.9305	0.105	915861	keystroke_r	r	n/a
458.2605	0.09	916521	keystroke_Key.space	Key.space	n/a
458.696	0.1345	917392	keystroke_h	h	n/a
459.0405	0.1055	918081	keystroke_o	o	n/a
459.686	0.09	919372	keystroke_Key.backspace	Key.backspace	n/a
460.091	0.0755	920182	keystroke_Key.backspace	Key.backspace	n/a
460.646	0.09	921292	keystroke_j	j	n/a
460.8715	0.075	921743	keystroke_o	o	n/a
461.1115	0.0745	922223	keystroke_u	u	n/a
462.446	0.06	924892	keystroke_r	r	n/a
462.611	0.06	925222	keystroke_n	n	n/a
462.911	0.075	925822	keystroke_e	e	n/a
463.151	0.09	926302	keystroke_y	y	n/a
463.751	0.0895	927502	keystroke_Key.enter	Key.enter	n/a
463.847	8.2005	927694	prompt	n/a	univ issn nick leads\n
464.6655	0.09	929331	keystroke_u	u	n/a
464.9505	0.121	929901	keystroke_n	n	n/a
466.016	0.075	932032	keystroke_i	i	n/a
466.376	0.06	932752	keystroke_v	v	n/a
467.081	0.105	934162	keystroke_Key.space	Key.space	n/a
467.412	0.059	934824	keystroke_i	i	n/a
467.5755	0.075	935151	keystroke_s	s	n/a
467.7555	0.076	935511	keystroke_s	s	n/a
468.341	0.06	936682	keystroke_n	n	n/a
468.596	0.0905	937192	keystroke_Key.space	Key.space	n/a
468.9265	0.075	937853	keystroke_n	n	n/a
469.121	0.09	938242	keystroke_i	i	n/a
469.3755	0.09	938751	keystroke_c	c	n/a
469.5255	0.075	939051	keystroke_k	k	n/a
469.9605	0.105	939921	keystroke_Key.space	Key.space	n/a
470.3355	0.045	940671	keystroke_l	l	n/a
470.4555	0.075	940911	keystroke_e	e	n/a
470.696	0.0895	941392	keystroke_a	a	n/a
470.9505	0.105	941901	keystroke_d	d	n/a
471.371	0.0895	942742	keystroke_s	s	n/a
471.941	0.105	943882	keystroke_Key.enter	Key.enter	n/a
472.051	14.1725	944102	prompt	n/a	legally temporal carriers paypal\n
472.916	0.06	945832	keystroke_l	l	n/a
473.066	0.09	946132	keystroke_e	e	n/a
473.4255	0.075	946851	keystroke_g	g	n/a
473.6955	0.105	947391	keystroke_a	a	n/a
473.8605	0.09	947721	keystroke_l	l	n/a
473.9955	0.09	947991	keystroke_l	l	n/a
474.2955	0.075	948591	keystroke_y	y	n/a
474.5505	0.0905	949101	keystroke_Key.space	Key.space	n/a
475.5115	0.075	951023	keystroke_t	t	n/a
475.8415	0.1045	951683	keystroke_e	e	n/a
476.006	0.09	952012	keystroke_m	m	n/a
476.576	0.12	953152	keystroke_p	p	n/a
476.876	0.09	953752	keystroke_o	o	n/a
477.1305	0.075	954261	keystroke_r	r	n/a
477.431	0.06	954862	keystroke_a	a	n/a
477.551	0.06	955102	keystroke_l	l	n/a
477.866	0.09	955732	keystroke_Key.space	Key.space	n/a
478.316	0.09	956632	keystroke_c	c	n/a
478.571	0.09	957142	keystroke_a	a	n/a
478.901	0.075	957802	keystroke_r	r	n/a
479.0515	0.075	958103	keystroke_r	r	n/a
479.2315	0.06	958463	keystroke_i	i	n/a
479.4565	0.06	958913	keystroke_e	e	n/a
479.9065	0.06	959813	keystroke_s	s	n/a
480.6415	0.075	961283	keystroke_r	r	n/a
481.4515	0.09	962903	keystroke_Key.backspace	Key.backspace	n/a
482.0215	0.0745	964043	keystroke_Key.backspace	Key.backspace	n/a
482.472	0.075	964944	keystroke_r	r	n/a
482.772	0.075	965544	keystroke_s	s	n/a
483.206	0.09	966412	keystroke_Key.space	Key.space	n/a
483.581	0.091	967162	keystroke_p	p	n/a
483.926	0.06	967852	keystroke_a	a	n/a
484.106	0.075	968212	keystroke_y	y	n/a
484.721	0.075	969442	keystroke_p	p	n/a
484.886	0.075	969772	keystroke_a	a	n/a
485.426	0.075	970852	keystroke_l	l	n/a
486.0565	0.1655	972113	keystroke_Key.enter	Key.enter	n/a
486.2275	22.4505	972455	prompt	n/a	suited identified liabilities adapters\n
486.9415	0.075	973883	keystroke_s	s	n/a
487.586	0.091	975172	keystroke_u	u	n/a
488.186	0.0605	976372	keystroke_i	i	n/a
488.3965	0.075	976793	keystroke_t	t	n/a
488.6215	0.09	977243	keystroke_e	e	n/a
488.9215	0.075	977843	keystroke_d	d	n/a
489.401	0.121	978802	keystroke_Key.space	Key.space	n/a
489.627	0.0745	979254	keystroke_i	i	n/a
489.806	0.0905	979612	keystroke_d	d	n/a
490.091	0.06	980182	keystroke_e	e	n/a
490.556	0.045	981112	keystroke_n	n	n/a
491.367	0.105	982734	keystroke_f	f	n/a
492.012	0.06	984024	keystroke_i	i	n/a
492.252	0.09	984504	keystroke_g	g	n/a
493.436	0.09	986872	keystroke_Key.backspace	Key.backspace	n/a
494.156	0.09	988312	keystroke_Key.backspace	Key.backspace	n/a
494.966	0.075	989932	keystroke_Key.backspace	Key.backspace	n/a
495.7615	0.06	991523	keystroke_t	t	n/a
496.0015	0.06	992003	keystroke_i	i	n/a
496.1665	0.075	992333	keystroke_f	f	n/a
497.3365	0.06	994673	keystroke_i	i	n/a
497.5465	0.06	995093	keystroke_e	e	n/a
497.8015	0.075	995603	keystroke_d	d	n/a
498.3715	0.06	996743	keystroke_Key.space	Key.space	n/a
498.971	0.075	997942	keystroke_l	l	n/a
499.361	0.06	998722	keystroke_i	i	n/a
499.572	0.105	999144	keystroke_a	a	n/a
499.947	0.09	999894	keystroke_b	b	n/a
500.981	0.0605	1001962	keystroke_i	i	n/a
501.2365	0.105	1002473	keystroke_l	l	n/a
501.5365	0.1045	1003073	keystroke_i	i	n/a
502.8715	0.06	1005743	keystroke_t	t	n/a
504.1915	0.06	1008383	keystroke_i	i	n/a
504.4465	0.075	1008893	keystroke_e	e	n/a
504.7315	0.075	1009463	keystroke_s	s	n/a
504.9415	0.09	1009883	keystroke_Key.space	Key.space	n/a
505.602	0.105	1011204	keystroke_a	a	n/a
505.8565	0.0905	1011713	keystroke_d	d	n/a
506.292	0.06	1012584	keystroke_a	a	n/a
506.757	0.09	1013514	keystroke_p	p	n/a
507.147	0.075	1014294	keystroke_t	t	n/a
507.3865	0.105	1014773	keystroke_e	e	n/a
507.6415	0.075	1015283	keystroke_r	r	n/a
507.9715	0.105	1015943	keystroke_s	s	n/a
508.6015	0.075	1017203	keystroke_Key.enter	Key.enter	n/a
508.683	10.3455	1017366	prompt	n/a	knock idaho promote item\n
509.472	0.06	1018944	keystroke_k	k	n/a
509.622	0.12	1019244	keystroke_n	n	n/a
509.877	0.075	1019754	keystroke_o	o	n/a
510.6565	0.075	1021313	keystroke_c	c	n/a
510.7615	0.075	1021523	keystroke_k	k	n/a
511.046	0.09	1022092	keystroke_Key.space	Key.space	n/a
511.257	0.074	1022514	keystroke_i	i	n/a
511.452	0.09	1022904	keystroke_d	d	n/a
512.367	0.09	1024734	keystroke_a	a	n/a
512.562	0.075	1025124	keystroke_h	h	n/a
512.757	0.105	1025514	keystroke_o	o	n/a
512.982	0.105	1025964	keystroke_Key.space	Key.space	n/a
513.522	0.03	1027044	keystroke_p	p	n/a
514.0615	0.06	1028123	keystroke_r	r	n/a
514.3315	0.075	1028663	keystroke_o	o	n/a
515.067	0.09	1030134	keystroke_m	m	n/a
515.472	0.075	1030944	keystroke_o	o	n/a
515.7565	0.12	1031513	keystroke_t	t	n/a
516.0715	0.105	1032143	keystroke_e	e	n/a
516.596	0.105	1033192	keystroke_Key.space	Key.space	n/a
516.9265	0.075	1033853	keystroke_i	i	n/a
517.2115	0.091	1034423	keystroke_t	t	n/a
517.5275	0.074	1035055	keystroke_e	e	n/a
518.4565	0.06	1036913	keystroke_m	m	n/a
518.9515	0.075	1037903	keystroke_Key.enter	Key.enter	n/a
519.0315	17.217	1038063	prompt	n/a	investigated moderate nancy perfectly\n
519.822	0.09	1039644	keystroke_i	i	n/a
520.047	0.06	1040094	keystroke_n	n	n/a
520.602	0.09	1041204	keystroke_v	v	n/a
520.962	0.0745	1041924	keystroke_e	e	n/a
521.2915	0.015	1042583	keystroke_s	s	n/a
521.682	0.045	1043364	keystroke_t	t	n/a
521.847	0.045	1043694	keystroke_i	i	n/a
522.087	0.09	1044174	keystroke_g	g	n/a
522.882	0.105	1045764	keystroke_a	a	n/a
523.332	0.1045	1046664	keystroke_t	t	n/a
523.6015	0.075	1047203	keystroke_e	e	n/a
523.842	0.075	1047684	keystroke_d	d	n/a
524.232	0.105	1048464	keystroke_Key.space	Key.space	n/a
524.652	0.09	1049304	keystroke_m	m	n/a
524.832	0.12	1049664	keystroke_o	o	n/a
525.0725	0.03	1050145	keystroke_d	d	n/a
525.432	0.09	1050864	keystroke_e	e	n/a
525.672	0.06	1051344	keystroke_r	r	n/a
525.9425	0.105	1051885	keystroke_a	a	n/a
526.2425	0.09	1052485	keystroke_t	t	n/a
526.482	0.0905	1052964	keystroke_e	e	n/a
526.7075	0.09	1053415	keystroke_Key.space	Key.space	n/a
527.0075	0.06	1054015	keystroke_n	n	n/a
527.232	0.075	1054464	keystroke_a	a	n/a
527.397	0.09	1054794	keystroke_m	m	n/a
528.0275	0.0895	1056055	keystroke_Key.backspace	Key.backspace	n/a
528.567	0.075	1057134	keystroke_n	n	n/a
529.317	0.105	1058634	keystroke_c	c	n/a
529.602	0.045	1059204	keystroke_y	y	n/a
530.142	0.075	1060284	keystroke_Key.space	Key.space	n/a
531.402	0.09	1062804	keystroke_p	p	n/a
531.507	0.06	1063014	keystroke_e	e	n/a
531.747	0.075	1063494	keystroke_r	r	n/a
532.077	0.09	1064154	keystroke_f	f	n/a
533.592	0.075	1067184	keystroke_e	e	n/a
533.997	0.105	1067994	keystroke_c	c	n/a
534.837	0.0595	1069674	keystroke_t	t	n/a
535.1525	0.0745	1070305	keystroke_l	l	n/a
535.482	0.105	1070964	keystroke_y	y	n/a
536.2325	0.015	1072465	keystroke_Key.enter	Key.enter	n/a
536.252	15.177	1072504	prompt	n/a	threatened worm publicity longer\n
537.0875	0.075	1074175	keystroke_t	t	n/a
537.2075	0.075	1074415	keystroke_h	h	n/a
537.4025	0.09	1074805	keystroke_r	r	n/a
537.6275	0.075	1075255	keystroke_e	e	n/a
537.8975	0.09	1075795	keystroke_a	a	n/a
538.4075	0.06	1076815	keystroke_t	t	n/a
538.7375	0.075	1077475	keystroke_e	e	n/a
538.9625	0.045	1077925	keystroke_n	n	n/a
539.502	0.045	1079004	keystroke_e	e	n/a
539.802	0.075	1079604	keystroke_d	d	n/a
540.057	0.075	1080114	keystroke_Key.space	Key.space	n/a
540.387	0.075	1080774	keystroke_w	w	n/a
540.492	0.0905	1080984	keystroke_o	o	n/a
541.317	0.045	1082634	keystroke_r	r	n/a
542.0975	0.09	1084195	keystroke_m	m	n/a
542.7425	0.09	1085485	keystroke_Key.space	Key.space	n/a
543.252	0.1355	1086504	keystroke_p	p	n/a
543.5825	0.105	1087165	keystroke_u	u	n/a
544.047	0.075	1088094	keystroke_b	b	n/a
544.6475	0.09	1089295	keystroke_l	l	n/a
544.978	0.0745	1089956	keystroke_i	i	n/a
545.188	0.089	1090376	keystroke_c	c	n/a
545.712	0.06	1091424	keystroke_i	i	n/a
546.613	0.045	1093226	keystroke_t	t	n/a
546.778	0.074	1093556	keystroke_y	y	n/a
547.077	0.135	1094154	keystroke_Key.space	Key.space	n/a
547.738	0.06	1095476	keystroke_l	l	n/a
548.293	0.045	1096586	keystroke_o	o	n/a
548.458	0.089	1096916	keystroke_n	n	n/a
548.683	0.09	1097366	keystroke_g	g	n/a
549.013	0.089	1098026	keystroke_e	e	n/a
550.7075	0.075	1101415	keystroke_r	r	n/a
551.3375	0.09	1102675	keystroke_Key.enter	Key.enter	n/a
551.4325	15.192	1102865	prompt	n/a	saving crew composite known\n
552.162	0.076	1104324	keystroke_s	s	n/a
552.388	0.104	1104776	keystroke_a	a	n/a
552.808	0.075	1105616	keystroke_v	v	n/a
552.973	0.089	1105946	keystroke_i	i	n/a
553.258	0.075	1106516	keystroke_n	n	n/a
553.603	0.105	1107206	keystroke_g	g	n/a
554.052	0.06	1108104	keystroke_Key.space	Key.space	n/a
555.0875	0.06	1110175	keystroke_c	c	n/a
555.4775	0.09	1110955	keystroke_r	r	n/a
555.7775	0.09	1111555	keystroke_e	e	n/a
556.4375	0.165	1112875	keystroke_w	w	n/a
556.6175	0.075	1113235	keystroke_Key.space	Key.space	n/a
556.9175	0.06	1113835	keystroke_c	c	n/a
557.0225	0.09	1114045	keystroke_o	o	n/a
557.1875	0.1055	1114375	keystroke_m	m	n/a
557.608	0.119	1115216	keystroke_p	p	n/a
558.088	0.074	1116176	keystroke_o	o	n/a
558.327	0.061	1116654	keystroke_s	s	n/a
558.838	0.044	1117676	keystroke_i	i	n/a
559.258	0.045	1118516	keystroke_t	t	n/a
559.588	0.045	1119176	keystroke_e	e	n/a
560.202	0.09	1120404	keystroke_Key.space	Key.space	n/a
560.502	0.0755	1121004	keystroke_l	l	n/a
560.8625	0.075	1121725	keystroke_k	k	n/a
561.7475	0.105	1123495	keystroke_Key.backspace	Key.backspace	n/a
562.138	0.0895	1124276	keystroke_Key.backspace	Key.backspace	n/a
562.5575	0.09	1125115	keystroke_l	l	n/a
562.8575	0.045	1125715	keystroke_n	n	n/a
563.4425	0.045	1126885	keystroke_Key.backspace	Key.backspace	n/a
563.8325	0.09	1127665	keystroke_Key.backspace	Key.backspace	n/a
564.837	0.045	1129674	keystroke_k	k	n/a
565.047	0.0755	1130094	keystroke_n	n	n/a
565.2575	0.075	1130515	keystroke_o	o	n/a
565.4225	0.09	1130845	keystroke_w	w	n/a
566.1575	0.0745	1132315	keystroke_n	n	n/a
566.533	0.0895	1133066	keystroke_Key.enter	Key.enter	n/a
566.6275	11.787	1133255	prompt	n/a	attacked family sunglasses tours\n
567.2825	0.105	1134565	keystroke_a	a	n/a
567.5975	0.06	1135195	keystroke_t	t	n/a
567.7325	0.105	1135465	keystroke_t	t	n/a
568.0625	0.06	1136125	keystroke_a	a	n/a
568.3475	0.0605	1136695	keystroke_c	c	n/a
568.513	0.0595	1137026	keystroke_k	k	n/a
569.8325	0.0755	1139665	keystroke_e	e	n/a
570.073	0.09	1140146	keystroke_d	d	n/a
570.313	0.06	1140626	keystroke_Key.space	Key.space	n/a
570.493	0.09	1140986	keystroke_f	f	n/a
570.748	0.09	1141496	keystroke_a	a	n/a
570.898	0.09	1141796	keystroke_m	m	n/a
571.1975	0.075	1142395	keystroke_i	i	n/a
571.3775	0.12	1142755	keystroke_l	l	n/a
571.6925	0.105	1143385	keystroke_y	y	n/a
571.9625	0.09	1143925	keystroke_Key.space	Key.space	n/a
572.6375	0.075	1145275	keystroke_s	s	n/a
572.8175	0.075	1145635	keystroke_u	u	n/a
573.0725	0.105	1146145	keystroke_n	n	n/a
573.4475	0.075	1146895	keystroke_g	g	n/a
573.8225	0.075	1147645	keystroke_l	l	n/a
574.4975	0.075	1148995	keystroke_a	a	n/a
574.7825	0.105	1149565	keystroke_s	s	n/a
574.9925	0.09	1149985	keystroke_s	s	n/a
575.2625	0.09	1150525	keystroke_e	e	n/a
575.5625	0.09	1151125	keystroke_s	s	n/a
575.9975	0.105	1151995	keystroke_Key.space	Key.space	n/a
576.553	0.0295	1153106	keystroke_t	t	n/a
576.658	0.09	1153316	keystroke_o	o	n/a
576.943	0.06	1153886	keystroke_u	u	n/a
577.1375	0.09	1154275	keystroke_r	r	n/a
577.948	0.06	1155896	keystroke_s	s	n/a
578.3225	0.09	1156645	keystroke_Key.enter	Key.enter	n/a
578.417	14.0675	1156834	prompt	n/a	flashers watt response magnetic\n
579.2675	0.075	1158535	keystroke_f	f	n/a
579.4625	0.075	1158925	keystroke_l	l	n/a
579.6875	0.105	1159375	keystroke_a	a	n/a
579.9425	0.0755	1159885	keystroke_s	s	n/a
580.093	0.075	1160186	keystroke_h	h	n/a
580.738	0.06	1161476	keystroke_e	e	n/a
580.993	0.075	1161986	keystroke_r	r	n/a
581.2935	0.09	1162587	keystroke_s	s	n/a
581.9075	0.09	1163815	keystroke_Key.space	Key.space	n/a
582.223	0.12	1164446	keystroke_w	w	n/a
582.493	0.105	1164986	keystroke_a	a	n/a
582.883	0.06	1165766	keystroke_t	t	n/a
583.093	0.09	1166186	keystroke_t	t	n/a
583.693	0.105	1167386	keystroke_Key.space	Key.space	n/a
584.158	0.075	1168316	keystroke_r	r	n/a
584.398	0.075	1168796	keystroke_e	e	n/a
585.7625	0.045	1171525	keystroke_s	s	n/a
586.3325	0.09	1172665	keystroke_p	p	n/a
586.618	0.09	1173236	keystroke_o	o	n/a
586.858	0.075	1173716	keystroke_n	n	n/a
587.1575	0.076	1174315	keystroke_s	s	n/a
587.4135	0.074	1174827	keystroke_e	e	n/a
587.5775	0.1055	1175155	keystroke_Key.space	Key.space	n/a
588.1475	0.06	1176295	keystroke_m	m	n/a
588.2675	0.105	1176535	keystroke_a	a	n/a
588.5825	0.09	1177165	keystroke_g	g	n/a
589.0625	0.06	1178125	keystroke_n	n	n/a
589.5425	0.06	1179085	keystroke_e	e	n/a
589.9625	0.12	1179925	keystroke_f	f	n/a
590.7875	0.075	1181575	keystroke_Key.backspace	Key.backspace	n/a
591.3275	0.105	1182655	keystroke_t	t	n/a
591.5525	0.06	1183105	keystroke_i	i	n/a
591.7625	0.075	1183525	keystroke_c	c	n/a
592.4375	0.045	1184875	keystroke_Key.enter	Key.enter	n/a
592.4875	17.022	1184975	prompt	n/a	consultant gathered binding tall\n
593.368	0.09	1186736	keystroke_c	c	n/a
593.518	0.075	1187036	keystroke_o	o	n/a
593.998	0.045	1187996	keystroke_n	n	n/a
594.448	0.06	1188896	keystroke_s	s	n/a
594.6585	0.059	1189317	keystroke_u	u	n/a
594.9275	0.105	1189855	keystroke_l	l	n/a
595.2875	0.075	1190575	keystroke_t	t	n/a
595.7075	0.09	1191415	keystroke_a	a	n/a
596.428	0.06	1192856	keystroke_n	n	n/a
596.608	0.075	1193216	keystroke_t	t	n/a
596.863	0.105	1193726	keystroke_Key.space	Key.space	n/a
597.4475	0.075	1194895	keystroke_g	g	n/a
597.7475	0.1205	1195495	keystroke_a	a	n/a
598.093	0.03	1196186	keystroke_t	t	n/a
598.183	0.06	1196366	keystroke_h	h	n/a
598.423	0.09	1196846	keystroke_e	e	n/a
598.678	0.075	1197356	keystroke_r	r	n/a
598.948	0.075	1197896	keystroke_e	e	n/a
599.413	0.075	1198826	keystroke_d	d	n/a
599.7435	0.12	1199487	keystroke_Key.space	Key.space	n/a
600.508	0.0755	1201016	keystroke_b	b	n/a
601.018	0.045	1202036	keystroke_i	i	n/a
601.213	0.09	1202426	keystroke_n	n	n/a
602.098	0.06	1204196	keystroke_f	f	n/a
602.248	0.0595	1204496	keystroke_i	i	n/a
602.4275	0.09	1204855	keystroke_n	n	n/a
602.6675	0.06	1205335	keystroke_g	g	n/a
603.4475	0.09	1206895	keystroke_Key.backspace	Key.backspace	n/a
604.0175	0.09	1208035	keystroke_Key.backspace	Key.backspace	n/a
604.6625	0.09	1209325	keystroke_Key.backspace	Key.backspace	n/a
605.2475	0.075	1210495	keystroke_Key.backspace	Key.backspace	n/a
606.3135	0.0745	1212627	keystroke_d	d	n/a
606.4935	0.075	1212987	keystroke_i	i	n/a
606.7185	0.105	1213437	keystroke_n	n	n/a
606.973	0.075	1213946	keystroke_g	g	n/a
607.5125	0.09	1215025	keystroke_Key.space	Key.space	n/a
608.3075	0.075	1216615	keystroke_t	t	n/a
608.6825	0.075	1217365	keystroke_a	a	n/a
608.8775	0.09	1217755	keystroke_l	l	n/a
609.0275	0.091	1218055	keystroke_l	l	n/a
609.4475	0.06	1218895	keystroke_Key.enter	Key.enter	n/a
609.513	18.9865	1219026	prompt	n/a	brothers lafayette syndication reserves\n
610.6925	0.09	1221385	keystroke_b	b	n/a
611.188	0.09	1222376	keystroke_r	r	n/a
611.428	0.09	1222856	keystroke_o	o	n/a
611.668	0.06	1223336	keystroke_t	t	n/a
611.773	0.075	1223546	keystroke_h	h	n/a
612.013	0.075	1224026	keystroke_e	e	n/a
612.238	0.075	1224476	keystroke_r	r	n/a
612.763	0.045	1225526	keystroke_s	s	n/a
612.8975	0.09	1225795	keystroke_Key.space	Key.space	n/a
613.4685	0.0745	1226937	keystroke_l	l	n/a
613.6485	0.09	1227297	keystroke_a	a	n/a
614.098	0.09	1228196	keystroke_f	f	n/a
615.0885	0.09	1230177	keystroke_a	a	n/a
615.2835	0.075	1230567	keystroke_y	y	n/a
615.6285	0.09	1231257	keystroke_e	e	n/a
615.9885	0.045	1231977	keystroke_t	t	n/a
616.1535	0.075	1232307	keystroke_t	t	n/a
616.5135	0.045	1233027	keystroke_e	e	n/a
617.6075	0.12	1235215	keystroke_Key.space	Key.space	n/a
617.893	0.0595	1235786	keystroke_s	s	n/a
618.0575	0.06	1236115	keystroke_y	y	n/a
618.838	0.045	1237676	keystroke_n	n	n/a
620.008	0.075	1240016	keystroke_d	d	n/a
620.6535	0.06	1241307	keystroke_i	i	n/a
620.8335	0.075	1241667	keystroke_c	c	n/a
621.163	0.075	1242326	keystroke_a	a	n/a
621.688	0.075	1243376	keystroke_t	t	n/a
621.868	0.1045	1243736	keystroke_i	i	n/a
622.0175	0.12	1244035	keystroke_o	o	n/a
622.2575	0.09	1244515	keystroke_n	n	n/a
622.8275	0.105	1245655	keystroke_Key.space	Key.space	n/a
623.2485	0.1045	1246497	keystroke_r	r	n/a
623.458	0.09	1246916	keystroke_e	e	n/a
623.818	0.105	1247636	keystroke_s	s	n/a
624.343	0.09	1248686	keystroke_e	e	n/a
624.643	0.09	1249286	keystroke_r	r	n/a
625.123	0.1795	1250246	keystroke_v	v	n/a
625.7675	0.09	1251535	keystroke_e	e	n/a
627.028	0.0595	1254056	keystroke_s	s	n/a
628.4375	0.06	1256875	keystroke_Key.enter	Key.enter	n/a
628.502	10.1675	1257004	prompt	n/a	huge hate combat postage\n
629.218	0.075	1258436	keystroke_h	h	n/a
629.638	0.06	1259276	keystroke_u	u	n/a
629.908	0.075	1259816	keystroke_g	g	n/a
630.583	0.06	1261166	keystroke_e	e	n/a
630.733	0.12	1261466	keystroke_Key.space	Key.space	n/a
631.108	0.075	1262216	keystroke_h	h	n/a
631.258	0.075	1262516	keystroke_a	a	n/a
631.5875	0.0605	1263175	keystroke_t	t	n/a
631.858	0.075	1263716	keystroke_e	e	n/a
632.0075	0.105	1264015	keystroke_Key.space	Key.space	n/a
632.9975	0.046	1265995	keystroke_c	c	n/a
633.0885	0.0745	1266177	keystroke_o	o	n/a
633.493	0.075	1266986	keystroke_m	m	n/a
634.078	0.045	1268156	keystroke_b	b	n/a
634.8125	0.031	1269625	keystroke_a	a	n/a
635.248	0.075	1270496	keystroke_t	t	n/a
635.458	0.105	1270916	keystroke_Key.space	Key.space	n/a
636.223	0.105	1272446	keystroke_p	p	n/a
636.418	0.0895	1272836	keystroke_o	o	n/a
636.598	0.09	1273196	keystroke_s	s	n/a
637.0475	0.045	1274095	keystroke_t	t	n/a
637.3175	0.075	1274635	keystroke_a	a	n/a
637.603	0.09	1275206	keystroke_g	g	n/a
637.8875	0.09	1275775	keystroke_e	e	n/a
638.5775	0.09	1277155	keystroke_Key.enter	Key.enter	n/a
638.673	12.7315	1277346	prompt	n/a	ongoing functioning staff mayor\n
639.418	0.09	1278836	keystroke_o	o	n/a
639.628	0.075	1279256	keystroke_n	n	n/a
639.928	0.09	1279856	keystroke_g	g	n/a
640.093	0.105	1280186	keystroke_o	o	n/a
640.408	0.06	1280816	keystroke_i	i	n/a
640.573	0.09	1281146	keystroke_n	n	n/a
640.783	0.075	1281566	keystroke_g	g	n/a
641.0075	0.076	1282015	keystroke_Key.space	Key.space	n/a
641.6225	0.105	1283245	keystroke_f	f	n/a
641.9075	0.061	1283815	keystroke_u	u	n/a
642.1925	0.061	1284385	keystroke_n	n	n/a
642.463	0.075	1284926	keystroke_c	c	n/a
643.588	0.09	1287176	keystroke_t	t	n/a
644.068	0.09	1288136	keystroke_i	i	n/a
644.203	0.12	1288406	keystroke_o	o	n/a
644.443	0.09	1288886	keystroke_n	n	n/a
645.1485	0.045	1290297	keystroke_i	i	n/a
645.3285	0.06	1290657	keystroke_n	n	n/a
645.5385	0.045	1291077	keystroke_g	g	n/a
645.7185	0.075	1291437	keystroke_Key.space	Key.space	n/a
646.0485	0.09	1292097	keystroke_s	s	n/a
646.453	0.075	1292906	keystroke_r	r	n/a
647.3075	0.09	1294615	keystroke_Key.backspace	Key.backspace	n/a
647.5475	0.075	1295095	keystroke_t	t	n/a
647.9085	0.09	1295817	keystroke_a	a	n/a
648.2385	0.075	1296477	keystroke_f	f	n/a
648.448	0.075	1296896	keystroke_f	f	n/a
648.9285	0.1045	1297857	keystroke_Key.space	Key.space	n/a
649.4225	0.0755	1298845	keystroke_m	m	n/a
649.633	0.0895	1299266	keystroke_a	a	n/a
650.068	0.06	1300136	keystroke_y	y	n/a
650.488	0.09	1300976	keystroke_o	o	n/a
650.713	0.105	1301426	keystroke_r	r	n/a
651.3275	0.076	1302655	keystroke_Key.enter	Key.enter	n/a
651.4095	18.4455	1302819	prompt	n/a	continue payable university length\n
652.2435	0.059	1304487	keystroke_c	c	n/a
652.3635	0.075	1304727	keystroke_o	o	n/a
652.5885	0.075	1305177	keystroke_n	n	n/a
653.758	0.06	1307516	keystroke_t	t	n/a
653.893	0.075	1307786	keystroke_i	i	n/a
654.703	0.06	1309406	keystroke_n	n	n/a
655.123	0.06	1310246	keystroke_u	u	n/a
655.363	0.075	1310726	keystroke_r	r	n/a
655.828	0.06	1311656	keystroke_Key.space	Key.space	n/a
656.6525	0.03	1313305	keystroke_Key.backspace	Key.backspace	n/a
657.2075	0.076	1314415	keystroke_Key.backspace	Key.backspace	n/a
657.4785	0.075	1314957	keystroke_e	e	n/a
657.8085	0.105	1315617	keystroke_Key.space	Key.space	n/a
658.3335	0.015	1316667	keystroke_p	p	n/a
658.4085	0.09	1316817	keystroke_a	a	n/a
658.6035	0.045	1317207	keystroke_y	y	n/a
659.0085	0.09	1318017	keystroke_a	a	n/a
659.3235	0.09	1318647	keystroke_b	b	n/a
659.533	0.075	1319066	keystroke_l	l	n/a
659.683	0.075	1319366	keystroke_e	e	n/a
660.238	0.135	1320476	keystroke_Key.space	Key.space	n/a
660.868	0.075	1321736	keystroke_u	u	n/a
661.078	0.09	1322156	keystroke_n	n	n/a
661.378	0.0755	1322756	keystroke_i	i	n/a
663.0425	0.165	1326085	keystroke_f	f	n/a
663.928	0.09	1327856	keystroke_Key.backspace	Key.backspace	n/a
664.453	0.121	1328906	keystroke_v	v	n/a
664.918	0.09	1329836	keystroke_e	e	n/a
665.1585	0.09	1330317	keystroke_r	r	n/a
665.5335	0.075	1331067	keystroke_s	s	n/a
665.6985	0.06	1331397	keystroke_i	i	n/a
665.9535	0.075	1331907	keystroke_t	t	n/a
666.1635	0.06	1332327	keystroke_y	y	n/a
666.4035	0.105	1332807	keystroke_Key.space	Key.space	n/a
666.7035	0.105	1333407	keystroke_l	l	n/a
667.1385	0.105	1334277	keystroke_e	e	n/a
667.3785	0.06	1334757	keystroke_n	n	n/a
667.6485	0.075	1335297	keystroke_g	g	n/a
669.0585	0.0745	1338117	keystroke_t	t	n/a
669.1785	0.075	1338357	keystroke_h	h	n/a
669.778	0.075	1339556	keystroke_Key.enter	Key.enter	n/a
669.858	14.862	1339716	prompt	n/a	theory require copyright solve\n
670.6335	0.075	1341267	keystroke_t	t	n/a
670.753	0.075	1341506	keystroke_h	h	n/a
670.963	0.106	1341926	keystroke_e	e	n/a
671.549	0.015	1343098	keystroke_o	o	n/a
671.653	0.076	1343306	keystroke_r	r	n/a
672.388	0.06	1344776	keystroke_y	y	n/a
672.628	0.09	1345256	keystroke_Key.space	Key.space	n/a
673.2735	0.09	1346547	keystroke_r	r	n/a
673.6485	0.0745	1347297	keystroke_e	e	n/a
674.8035	0.105	1349607	keystroke_q	q	n/a
675.5525	0.06	1351105	keystroke_u	u	n/a
675.8385	0.075	1351677	keystroke_i	i	n/a
676.1085	0.06	1352217	keystroke_r	r	n/a
676.813	0.075	1353626	keystroke_e	e	n/a
677.488	0.075	1354976	keystroke_Key.space	Key.space	n/a
678.0885	0.0605	1356177	keystroke_c	c	n/a
678.224	0.075	1356448	keystroke_o	o	n/a
678.8235	0.12	1357647	keystroke_p	p	n/a
679.108	0.09	1358216	keystroke_y	y	n/a
679.4385	0.09	1358877	keystroke_Key.space	Key.space	n/a
680.0085	0.09	1360017	keystroke_Key.backspace	Key.backspace	n/a
680.5785	0.09	1361157	keystroke_r	r	n/a
680.8035	0.06	1361607	keystroke_i	i	n/a
681.2835	0.06	1362567	keystroke_g	g	n/a
681.4335	0.06	1362867	keystroke_h	h	n/a
681.6135	0.06	1363227	keystroke_t	t	n/a
682.0785	0.06	1364157	keystroke_Key.space	Key.space	n/a
682.3185	0.06	1364637	keystroke_s	s	n/a
682.4685	0.075	1364937	keystroke_o	o	n/a
682.6935	0.06	1365387	keystroke_l	l	n/a
682.8735	0.075	1365747	keystroke_c	c	n/a
683.4585	0.03	1366917	keystroke_Key.backspace	Key.backspace	n/a
683.789	0.074	1367578	keystroke_v	v	n/a
684.043	0.09	1368086	keystroke_e	e	n/a
684.6435	0.075	1369287	keystroke_Key.enter	Key.enter	n/a
684.723	13.062	1369446	prompt	n/a	opens paintball solve wayne\n
685.4085	0.09	1370817	keystroke_o	o	n/a
685.6785	0.105	1371357	keystroke_p	p	n/a
686.009	0.06	1372018	keystroke_e	e	n/a
686.113	0.076	1372226	keystroke_n	n	n/a
686.6685	0.015	1373337	keystroke_s	s	n/a
686.7735	0.105	1373547	keystroke_Key.space	Key.space	n/a
687.2385	0.09	1374477	keystroke_p	p	n/a
687.4635	0.075	1374927	keystroke_a	a	n/a
687.5685	0.09	1375137	keystroke_i	i	n/a
687.7935	0.09	1375587	keystroke_n	n	n/a
688.888	0.045	1377776	keystroke_t	t	n/a
689.953	0.075	1379906	keystroke_b	b	n/a
690.253	0.075	1380506	keystroke_a	a	n/a
690.448	0.075	1380896	keystroke_l	l	n/a
690.583	0.091	1381166	keystroke_l	l	n/a
690.898	0.105	1381796	keystroke_Key.space	Key.space	n/a
691.5285	0.075	1383057	keystroke_a	a	n/a
692.504	0.09	1385008	keystroke_Key.backspace	Key.backspace	n/a
692.789	0.075	1385578	keystroke_s	s	n/a
692.984	0.0745	1385968	keystroke_o	o	n/a
693.2535	0.075	1386507	keystroke_l	l	n/a
693.494	0.06	1386988	keystroke_v	v	n/a
693.794	0.06	1387588	keystroke_e	e	n/a
694.5435	0.09	1389087	keystroke_Key.space	Key.space	n/a
696.1935	0.1955	1392387	keystroke_w	w	n/a
696.494	0.089	1392988	keystroke_a	a	n/a
696.658	0.076	1393316	keystroke_y	y	n/a
696.9735	0.075	1393947	keystroke_n	n	n/a
697.1835	0.09	1394367	keystroke_e	e	n/a
697.7085	0.075	1395417	keystroke_Key.enter	Key.enter	n/a
697.788	18.0575	1395576	prompt	n/a	textile subsidiaries terry entering\n
698.593	0.09	1397186	keystroke_t	t	n/a
698.848	0.09	1397696	keystroke_e	e	n/a
699.299	0.104	1398598	keystroke_c	c	n/a
699.9735	0.09	1399947	keystroke_Key.backspace	Key.backspace	n/a
700.2135	0.105	1400427	keystroke_x	x	n/a
701.0535	0.06	1402107	keystroke_t	t	n/a
701.2335	0.09	1402467	keystroke_i	i	n/a
701.4735	0.075	1402947	keystroke_l	l	n/a
701.6385	0.075	1403277	keystroke_e	e	n/a
702.2985	0.1205	1404597	keystroke_Key.space	Key.space	n/a
702.524	0.045	1405048	keystroke_s	s	n/a
702.734	0.045	1405468	keystroke_i	i	n/a
703.393	0.09	1406786	keystroke_Key.backspace	Key.backspace	n/a
704.069	0.06	1408138	keystroke_u	u	n/a
704.534	0.06	1409068	keystroke_b	b	n/a
705.374	0.045	1410748	keystroke_s	s	n/a
705.479	0.06	1410958	keystroke_i	i	n/a
705.674	0.075	1411348	keystroke_d	d	n/a
706.9935	0.06	1413987	keystroke_i	i	n/a
707.1885	0.136	1414377	keystroke_a	a	n/a
707.5645	0.09	1415129	keystroke_r	r	n/a
708.629	0.075	1417258	keystroke_i	i	n/a
709.004	0.075	1418008	keystroke_e	e	n/a
709.648	0.0755	1419296	keystroke_s	s	n/a
710.173	0.0465	1420346	keystroke_Key.space	Key.space	n/a
710.474	0.105	1420948	keystroke_t	t	n/a
711.044	0.045	1422088	keystroke_e	e	n/a
711.9135	0.135	1423827	keystroke_r	r	n/a
712.0635	0.03	1424127	keystroke_r	r	n/a
712.2885	0.075	1424577	keystroke_y	y	n/a
712.5585	0.105	1425117	keystroke_Key.space	Key.space	n/a
713.0085	0.076	1426017	keystroke_e	e	n/a
713.2035	0.0905	1426407	keystroke_n	n	n/a
713.4895	0.09	1426979	keystroke_t	t	n/a
713.773	0.1055	1427546	keystroke_e	e	n/a
714.0895	0.059	1428179	keystroke_r	r	n/a
714.734	0.075	1429468	keystroke_i	i	n/a
714.899	0.105	1429798	keystroke_n	n	n/a
715.1235	0.075	1430247	keystroke_g	g	n/a
715.7685	0.075	1431537	keystroke_Key.enter	Key.enter	n/a
715.8485	19.092	1431697	prompt	n/a	logical positioning lexus adaptation\n
716.594	0.09	1433188	keystroke_l	l	n/a
716.8935	0.075	1433787	keystroke_o	o	n/a
717.254	0.075	1434508	keystroke_g	g	n/a
717.899	0.06	1435798	keystroke_i	i	n/a
718.064	0.09	1436128	keystroke_c	c	n/a
718.574	0.075	1437148	keystroke_a	a	n/a
718.694	0.075	1437388	keystroke_l	l	n/a
719.114	0.105	1438228	keystroke_Key.space	Key.space	n/a
719.6985	0.105	1439397	keystroke_p	p	n/a
719.9385	0.075	1439877	keystroke_o	o	n/a
720.1635	0.09	1440327	keystroke_s	s	n/a
720.8685	0.0605	1441737	keystroke_t	t	n/a
721.6485	0.075	1443297	keystroke_Key.backspace	Key.backspace	n/a
722.2935	0.1205	1444587	keystroke_i	i	n/a
722.6695	0.045	1445339	keystroke_t	t	n/a
722.879	0.075	1445758	keystroke_o	o	n/a
723.719	0.075	1447438	keystroke_Key.backspace	Key.backspace	n/a
724.409	0.12	1448818	keystroke_i	i	n/a
724.589	0.135	1449178	keystroke_o	o	n/a
724.904	0.105	1449808	keystroke_n	n	n/a
725.2785	0.075	1450557	keystroke_i	i	n/a
725.4735	0.075	1450947	keystroke_n	n	n/a
725.7735	0.015	1451547	keystroke_g	g	n/a
726.4785	0.09	1452957	keystroke_Key.space	Key.space	n/a
726.7345	0.074	1453469	keystroke_l	l	n/a
726.8985	0.09	1453797	keystroke_e	e	n/a
727.2735	0.09	1454547	keystroke_x	x	n/a
727.964	0.045	1455928	keystroke_u	u	n/a
728.8335	0.015	1457667	keystroke_s	s	n/a
729.1335	0.09	1458267	keystroke_Key.space	Key.space	n/a
729.6585	0.135	1459317	keystroke_a	a	n/a
730.6485	0.075	1461297	keystroke_d	d	n/a
731.474	0.09	1462948	keystroke_a	a	n/a
731.714	0.12	1463428	keystroke_p	p	n/a
732.449	0.06	1464898	keystroke_t	t	n/a
732.989	0.0895	1465978	keystroke_a	a	n/a
733.409	0.075	1466818	keystroke_t	t	n/a
733.6335	0.09	1467267	keystroke_i	i	n/a
733.7985	0.1055	1467597	keystroke_o	o	n/a
734.054	0.075	1468108	keystroke_n	n	n/a
734.849	0.09	1469698	keystroke_Key.enter	Key.enter	n/a
734.944	13.8415	1469888	prompt	n/a	infants chinese spokesman segment\n
735.704	0.06	1471408	keystroke_i	i	n/a
736.004	0.06	1472008	keystroke_n	n	n/a
736.319	0.075	1472638	keystroke_f	f	n/a
736.619	0.09	1473238	keystroke_a	a	n/a
736.844	0.06	1473688	keystroke_n	n	n/a
737.3095	0.045	1474619	keystroke_t	t	n/a
737.639	0.06	1475278	keystroke_s	s	n/a
737.9085	0.09	1475817	keystroke_Key.space	Key.space	n/a
738.2835	0.075	1476567	keystroke_c	c	n/a
738.4185	0.075	1476837	keystroke_h	h	n/a
738.6135	0.09	1477227	keystroke_i	i	n/a
738.8085	0.09	1477617	keystroke_n	n	n/a
739.7985	0.045	1479597	keystroke_e	e	n/a
740.0385	0.09	1480077	keystroke_s	s	n/a
740.4585	0.076	1480917	keystroke_e	e	n/a
741.029	0.09	1482058	keystroke_Key.space	Key.space	n/a
741.464	0.03	1482928	keystroke_s	s	n/a
741.614	0.06	1483228	keystroke_p	p	n/a
742.154	0.045	1484308	keystroke_o	o	n/a
742.664	0.09	1485328	keystroke_k	k	n/a
742.889	0.075	1485778	keystroke_e	e	n/a
743.3395	0.075	1486679	keystroke_s	s	n/a
744.2095	0.105	1488419	keystroke_m	m	n/a
744.3295	0.06	1488659	keystroke_a	a	n/a
744.4645	0.075	1488929	keystroke_n	n	n/a
745.214	0.105	1490428	keystroke_Key.space	Key.space	n/a
745.409	0.09	1490818	keystroke_s	s	n/a
745.664	0.075	1491328	keystroke_e	e	n/a
745.9635	0.075	1491927	keystroke_g	g	n/a
746.6385	0.09	1493277	keystroke_m	m	n/a
746.909	0.075	1493818	keystroke_e	e	n/a
747.059	0.045	1494118	keystroke_n	n	n/a
747.314	0.09	1494628	keystroke_t	t	n/a
748.709	0.075	1497418	keystroke_Key.enter	Key.enter	n/a
748.7885	9.207	1497577	prompt	n/a	wishing skin scanner thousand\n
749.564	0.075	1499128	keystroke_w	w	n/a
749.774	0.09	1499548	keystroke_i	i	n/a
749.999	0.075	1499998	keystroke_s	s	n/a
750.104	0.075	1500208	keystroke_h	h	n/a
750.389	0.075	1500778	keystroke_i	i	n/a
750.569	0.075	1501138	keystroke_n	n	n/a
750.734	0.09	1501468	keystroke_g	g	n/a
751.304	0.0905	1502608	keystroke_Key.space	Key.space	n/a
751.5445	0.09	1503089	keystroke_s	s	n/a
751.6645	0.105	1503329	keystroke_k	k	n/a
751.8745	0.06	1503749	keystroke_i	i	n/a
752.0995	0.09	1504199	keystroke_n	n	n/a
752.339	0.0755	1504678	keystroke_Key.space	Key.space	n/a
752.8045	0.06	1505609	keystroke_s	s	n/a
753.089	0.045	1506178	keystroke_c	c	n/a
753.764	0.135	1507528	keystroke_a	a	n/a
754.0645	0.075	1508129	keystroke_n	n	n/a
754.2295	0.06	1508459	keystroke_n	n	n/a
754.3495	0.105	1508699	keystroke_e	e	n/a
754.6795	0.075	1509359	keystroke_r	r	n/a
754.8445	0.105	1509689	keystroke_Key.space	Key.space	n/a
755.3995	0.06	1510799	keystroke_t	t	n/a
755.5195	0.06	1511039	keystroke_h	h	n/a
755.7295	0.09	1511459	keystroke_o	o	n/a
756.1045	0.09	1512209	keystroke_u	u	n/a
756.6885	0.076	1513377	keystroke_s	s	n/a
756.9885	0.075	1513977	keystroke_a	a	n/a
757.1685	0.045	1514337	keystroke_n	n	n/a
757.3195	0.0745	1514639	keystroke_d	d	n/a
757.919	0.0755	1515838	keystroke_Key.enter	Key.enter	n/a
757.9985	11.982	1515997	prompt	n/a	shape distant pitch diversity\n
758.6695	0.06	1517339	keystroke_s	s	n/a
758.819	0.075	1517638	keystroke_h	h	n/a
759.029	0.075	1518058	keystroke_a	a	n/a
759.149	0.105	1518298	keystroke_p	p	n/a
759.359	0.06	1518718	keystroke_e	e	n/a
759.554	0.12	1519108	keystroke_Key.space	Key.space	n/a
760.004	0.075	1520008	keystroke_d	d	n/a
760.169	0.06	1520338	keystroke_i	i	n/a
760.514	0.075	1521028	keystroke_s	s	n/a
761.1745	0.075	1522349	keystroke_t	t	n/a
761.6995	0.015	1523399	keystroke_a	a	n/a
761.8645	0.045	1523729	keystroke_n	n	n/a
762.3445	0.045	1524689	keystroke_t	t	n/a
762.5395	0.09	1525079	keystroke_Key.space	Key.space	n/a
763.1695	0.165	1526339	keystroke_p	p	n/a
763.8145	0.06	1527629	keystroke_i	i	n/a
764.7885	0.06	1529577	keystroke_t	t	n/a
765.4495	0.074	1530899	keystroke_c	c	n/a
765.6885	0.061	1531377	keystroke_h	h	n/a
766.2435	0.075	1532487	keystroke_Key.space	Key.space	n/a
766.574	0.105	1533148	keystroke_d	d	n/a
766.694	0.06	1533388	keystroke_i	i	n/a
766.919	0.09	1533838	keystroke_v	v	n/a
767.2045	0.1195	1534409	keystroke_e	e	n/a
767.4735	0.075	1534947	keystroke_r	r	n/a
768.0895	0.119	1536179	keystroke_s	s	n/a
768.2835	0.076	1536567	keystroke_i	i	n/a
768.5535	0.076	1537107	keystroke_t	t	n/a
768.7045	0.089	1537409	keystroke_y	y	n/a
769.9495	0.029	1539899	keystroke_Key.enter	Key.enter	n/a
769.9835	16.1075	1539967	prompt	n/a	broadcasting holders tamil ireland\n
771.1645	0.105	1542329	keystroke_b	b	n/a
771.6745	0.06	1543349	keystroke_r	r	n/a
772.694	0.06	1545388	keystroke_o	o	n/a
772.889	0.075	1545778	keystroke_a	a	n/a
773.1895	0.074	1546379	keystroke_d	d	n/a
774.0735	0.076	1548147	keystroke_c	c	n/a
774.4495	0.059	1548899	keystroke_a	a	n/a
774.7795	0.06	1549559	keystroke_s	s	n/a
775.184	0.06	1550368	keystroke_t	t	n/a
775.409	0.075	1550818	keystroke_i	i	n/a
775.679	0.075	1551358	keystroke_n	n	n/a
776.055	0.105	1552110	keystroke_g	g	n/a
776.415	0.0895	1552830	keystroke_Key.space	Key.space	n/a
776.7445	0.075	1553489	keystroke_h	h	n/a
777.1495	0.09	1554299	keystroke_o	o	n/a
777.7345	0.075	1555469	keystroke_l	l	n/a
777.9295	0.09	1555859	keystroke_d	d	n/a
778.2445	0.06	1556489	keystroke_e	e	n/a
778.5295	0.12	1557059	keystroke_r	r	n/a
778.8895	0.06	1557779	keystroke_s	s	n/a
779.0695	0.105	1558139	keystroke_Key.space	Key.space	n/a
779.7895	0.045	1559579	keystroke_t	t	n/a
780.1195	0.09	1560239	keystroke_a	a	n/a
780.5245	0.09	1561049	keystroke_m	m	n/a
781.4245	0.06	1562849	keystroke_i	i	n/a
781.8895	0.045	1563779	keystroke_l	l	n/a
782.2345	0.09	1564469	keystroke_Key.space	Key.space	n/a
783.089	0.06	1566178	keystroke_i	i	n/a
783.479	0.06	1566958	keystroke_r	r	n/a
784.349	0.015	1568698	keystroke_e	e	n/a
784.9945	0.075	1569989	keystroke_l	l	n/a
785.219	0.09	1570438	keystroke_a	a	n/a
785.384	0.06	1570768	keystroke_n	n	n/a
785.579	0.075	1571158	keystroke_d	d	n/a
786.014	0.075	1572028	keystroke_Key.enter	Key.enter	n/a
786.094	12.087	1572188	prompt	n/a	odds bobby coated requested\n
786.869	0.075	1573738	keystroke_o	o	n/a
787.109	0.045	1574218	keystroke_d	d	n/a
787.244	0.09	1574488	keystroke_d	d	n/a
787.514	0.075	1575028	keystroke_s	s	n/a
787.6795	0.1045	1575359	keystroke_Key.space	Key.space	n/a
788.3245	0.09	1576649	keystroke_b	b	n/a
788.5195	0.075	1577039	keystroke_o	o	n/a
788.8645	0.06	1577729	keystroke_d	d	n/a
789.629	0.105	1579258	keystroke_Key.backspace	Key.backspace	n/a
789.989	0.105	1579978	keystroke_b	b	n/a
790.229	0.075	1580458	keystroke_b	b	n/a
790.4995	0.105	1580999	keystroke_y	y	n/a
790.7845	0.105	1581569	keystroke_Key.space	Key.space	n/a
791.2345	0.075	1582469	keystroke_c	c	n/a
791.3995	0.075	1582799	keystroke_o	o	n/a
791.8495	0.045	1583699	keystroke_a	a	n/a
792.1795	0.075	1584359	keystroke_t	t	n/a
792.4945	0.075	1584989	keystroke_e	e	n/a
793.3045	0.09	1586609	keystroke_d	d	n/a
793.7395	0.105	1587479	keystroke_Key.space	Key.space	n/a
794.5195	0.075	1589039	keystroke_r	r	n/a
794.7445	0.09	1589489	keystroke_e	e	n/a
795.224	0.075	1590448	keystroke_q	q	n/a
795.599	0.06	1591198	keystroke_u	u	n/a
796.289	0.06	1592578	keystroke_e	e	n/a
796.559	0.09	1593118	keystroke_s	s	n/a
796.874	0.075	1593748	keystroke_t	t	n/a
797.19	0.059	1594380	keystroke_e	e	n/a
797.429	0.105	1594858	keystroke_d	d	n/a
798.104	0.075	1596208	keystroke_Key.enter	Key.enter	n/a
798.185	16.556	1596370	prompt	n/a	euros porcelain lobby drawing\n
798.93	0.074	1597860	keystroke_e	e	n/a
799.334	0.105	1598668	keystroke_u	u	n/a
799.679	0.09	1599358	keystroke_r	r	n/a
800.009	0.076	1600018	keystroke_o	o	n/a
800.624	0.091	1601248	keystroke_n	n	n/a
801.464	0.06	1602928	keystroke_Key.backspace	Key.backspace	n/a
801.8695	0.06	1603739	keystroke_s	s	n/a
802.1245	0.075	1604249	keystroke_Key.space	Key.space	n/a
802.4245	0.135	1604849	keystroke_p	p	n/a
802.9795	0.045	1605959	keystroke_o	o	n/a
803.6395	0.09	1607279	keystroke_r	r	n/a
804.4045	0.09	1608809	keystroke_c	c	n/a
804.7345	0.09	1609469	keystroke_e	e	n/a
807.1365	0.013	1614273	keystroke_l	l	n/a
808.304	0.091	1616608	keystroke_a	a	n/a
808.515	0.074	1617030	keystroke_i	i	n/a
809.009	0.0755	1618018	keystroke_n	n	n/a
809.3545	0.105	1618709	keystroke_Key.space	Key.space	n/a
809.5945	0.09	1619189	keystroke_l	l	n/a
809.8495	0.06	1619699	keystroke_o	o	n/a
810.1495	0.09	1620299	keystroke_b	b	n/a
810.3445	0.06	1620689	keystroke_b	b	n/a
810.5995	0.075	1621199	keystroke_y	y	n/a
810.9595	0.09	1621919	keystroke_Key.space	Key.space	n/a
811.574	0.136	1623148	keystroke_d	d	n/a
811.86	0.105	1623720	keystroke_r	r	n/a
812.55	0.09	1625100	keystroke_a	a	n/a
812.9095	0.09	1625819	keystroke_w	w	n/a
813.2245	0.09	1626449	keystroke_i	i	n/a
813.4045	0.09	1626809	keystroke_n	n	n/a
813.6295	0.09	1627259	keystroke_g	g	n/a
814.6495	0.09	1629299	keystroke_Key.enter	Key.enter	n/a
814.7445	11.4415	1629489	prompt	n/a	means ears gravity opponent\n
815.444	0.12	1630888	keystroke_m	m	n/a
815.579	0.09	1631158	keystroke_e	e	n/a
815.819	0.075	1631638	keystroke_a	a	n/a
815.939	0.06	1631878	keystroke_n	n	n/a
816.704	0.075	1633408	keystroke_s	s	n/a
816.884	0.09	1633768	keystroke_Key.space	Key.space	n/a
817.215	0.075	1634430	keystroke_e	e	n/a
817.455	0.12	1634910	keystroke_a	a	n/a
817.785	0.09	1635570	keystroke_r	r	n/a
818.6245	0.075	1637249	keystroke_s	s	n/a
819.209	0.06	1638418	keystroke_Key.space	Key.space	n/a
819.63	0.075	1639260	keystroke_g	g	n/a
819.96	0.075	1639920	keystroke_r	r	n/a
820.23	0.105	1640460	keystroke_a	a	n/a
820.545	0.12	1641090	keystroke_v	v	n/a
820.77	0.075	1641540	keystroke_i	i	n/a
821.8495	0.09	1643699	keystroke_t	t	n/a
822.0295	0.075	1644059	keystroke_y	y	n/a
822.7495	0.09	1645499	keystroke_Key.space	Key.space	n/a
823.0945	0.105	1646189	keystroke_o	o	n/a
823.38	0.09	1646760	keystroke_p	p	n/a
823.545	0.075	1647090	keystroke_p	p	n/a
824.13	0.09	1648260	keystroke_o	o	n/a
824.625	0.06	1649250	keystroke_n	n	n/a
824.88	0.09	1649760	keystroke_e	e	n/a
825.3145	0.06	1650629	keystroke_n	n	n/a
825.6295	0.09	1651259	keystroke_t	t	n/a
826.1245	0.06	1652249	keystroke_Key.enter	Key.enter	n/a
826.1895	11.022	1652379	prompt	n/a	grew chicken entry essential\n
827.084	0.1355	1654168	keystroke_g	g	n/a
827.4595	0.09	1654919	keystroke_r	r	n/a
827.6995	0.0755	1655399	keystroke_e	e	n/a
827.9695	0.09	1655939	keystroke_w	w	n/a
828.18	0.089	1656360	keystroke_Key.space	Key.space	n/a
828.809	0.046	1657618	keystroke_s	s	n/a
829.4245	0.075	1658849	keystroke_Key.backspace	Key.backspace	n/a
829.6795	0.075	1659359	keystroke_c	c	n/a
829.7995	0.12	1659599	keystroke_h	h	n/a
830.2495	0.075	1660499	keystroke_i	i	n/a
830.5195	0.06	1661039	keystroke_c	c	n/a
830.6545	0.075	1661309	keystroke_k	k	n/a
830.9845	0.075	1661969	keystroke_e	e	n/a
831.1795	0.075	1662359	keystroke_n	n	n/a
832.049	0.105	1664098	keystroke_Key.space	Key.space	n/a
832.454	0.076	1664908	keystroke_e	e	n/a
832.754	0.045	1665508	keystroke_a	a	n/a
833.2645	0.105	1666529	keystroke_Key.backspace	Key.backspace	n/a
833.5945	0.09	1667189	keystroke_n	n	n/a
833.8945	0.075	1667789	keystroke_t	t	n/a
834.15	0.075	1668300	keystroke_r	r	n/a
834.3	0.09	1668600	keystroke_y	y	n/a
834.525	0.105	1669050	keystroke_Key.space	Key.space	n/a
834.855	0.075	1669710	keystroke_e	e	n/a
835.11	0.09	1670220	keystroke_s	s	n/a
835.275	0.105	1670550	keystroke_s	s	n/a
835.53	0.06	1671060	keystroke_e	e	n/a
835.634	0.075	1671268	keystroke_n	n	n/a
835.9345	0.075	1671869	keystroke_t	t	n/a
836.3395	0.075	1672679	keystroke_i	i	n/a
836.5495	0.075	1673099	keystroke_a	a	n/a
836.6845	0.075	1673369	keystroke_l	l	n/a
837.12	0.09	1674240	keystroke_Key.enter	Key.enter	n/a
837.2145	12.282	1674429	prompt	n/a	worn twiki gambling misc\n
837.87	0.105	1675740	keystroke_w	w	n/a
838.035	0.09	1676070	keystroke_o	o	n/a
838.275	0.09	1676550	keystroke_r	r	n/a
838.8295	0.105	1677659	keystroke_n	n	n/a
839.0695	0.09	1678139	keystroke_Key.space	Key.space	n/a
839.775	0.09	1679550	keystroke_t	t	n/a
840.165	0.0745	1680330	keystroke_w	w	n/a
840.7945	0.06	1681589	keystroke_i	i	n/a
842.01	0.03	1684020	keystroke_k	k	n/a
842.265	0.075	1684530	keystroke_i	i	n/a
842.6095	0.105	1685219	keystroke_Key.space	Key.space	n/a
843.1045	0.075	1686209	keystroke_g	g	n/a
843.4045	0.09	1686809	keystroke_a	a	n/a
843.9445	0.061	1687889	keystroke_m	m	n/a
844.5445	0.12	1689089	keystroke_b	b	n/a
844.8745	0.075	1689749	keystroke_l	l	n/a
845.1145	0.075	1690229	keystroke_i	i	n/a
845.3095	0.09	1690619	keystroke_n	n	n/a
845.5355	0.075	1691071	keystroke_g	g	n/a
846.2695	0.06	1692539	keystroke_Key.space	Key.space	n/a
846.4795	0.105	1692959	keystroke_m	m	n/a
847.035	0.015	1694070	keystroke_i	i	n/a
847.5595	0.06	1695119	keystroke_s	s	n/a
848.13	0.015	1696260	keystroke_x	x	n/a
848.7	0.075	1697400	keystroke_Key.backspace	Key.backspace	n/a
848.91	0.075	1697820	keystroke_c	c	n/a
849.435	0.06	1698870	keystroke_Key.enter	Key.enter	n/a
849.501	21.5955	1699002	prompt	n/a	jewellery ending ranch mainland\n
850.455	0.09	1700910	keystroke_j	j	n/a
850.71	0.075	1701420	keystroke_e	e	n/a
852.4195	0.075	1704839	keystroke_w	w	n/a
852.7345	0.045	1705469	keystroke_e	e	n/a
853.6045	0.0755	1707209	keystroke_l	l	n/a
853.89	0.0895	1707780	keystroke_l	l	n/a
854.1895	0.075	1708379	keystroke_e	e	n/a
854.4895	0.06	1708979	keystroke_r	r	n/a
854.6245	0.075	1709249	keystroke_y	y	n/a
855.15	0.105	1710300	keystroke_Key.space	Key.space	n/a
855.495	0.06	1710990	keystroke_e	e	n/a
855.645	0.075	1711290	keystroke_n	n	n/a
855.84	0.0755	1711680	keystroke_d	d	n/a
856.065	0.0905	1712130	keystroke_i	i	n/a
856.2755	0.09	1712551	keystroke_n	n	n/a
856.4405	0.089	1712881	keystroke_g	g	n/a
861.3775	0.027	1722755	keystroke_r	r	n/a
861.855	0.075	1723710	keystroke_Key.backspace	Key.backspace	n/a
862.155	0.105	1724310	keystroke_Key.space	Key.space	n/a
862.365	0.06	1724730	keystroke_r	r	n/a
862.845	0.09	1725690	keystroke_a	a	n/a
863.1755	0.075	1726351	keystroke_c	c	n/a
863.3705	0.045	1726741	keystroke_h	h	n/a
864.7495	0.075	1729499	keystroke_Key.backspace	Key.backspace	n/a
865.3055	0.06	1730611	keystroke_Key.backspace	Key.backspace	n/a
865.8905	0.0595	1731781	keystroke_n	n	n/a
866.205	0.06	1732410	keystroke_c	c	n/a
866.31	0.09	1732620	keystroke_h	h	n/a
866.985	0.0905	1733970	keystroke_Key.space	Key.space	n/a
867.3155	0.105	1734631	keystroke_m	m	n/a
867.4655	0.09	1734931	keystroke_a	a	n/a
867.6005	0.045	1735201	keystroke_i	i	n/a
867.7805	0.09	1735561	keystroke_n	n	n/a
868.545	0.045	1737090	keystroke_t	t	n/a
869.115	0.06	1738230	keystroke_Key.backspace	Key.backspace	n/a
869.595	0.09	1739190	keystroke_l	l	n/a
869.79	0.075	1739580	keystroke_a	a	n/a
869.955	0.0745	1739910	keystroke_n	n	n/a
870.2845	0.075	1740569	keystroke_d	d	n/a
871.0195	0.076	1742039	keystroke_Key.enter	Key.enter	n/a
871.0995	13.542	1742199	prompt	n/a	fellowship illness acts depends\n
871.9205	0.075	1743841	keystroke_f	f	n/a
872.2955	0.045	1744591	keystroke_e	e	n/a
872.6255	0.075	1745251	keystroke_l	l	n/a
872.775	0.075	1745550	keystroke_l	l	n/a
873.0605	0.0745	1746121	keystroke_o	o	n/a
873.36	0.075	1746720	keystroke_w	w	n/a
873.87	0.06	1747740	keystroke_s	s	n/a
874.005	0.06	1748010	keystroke_h	h	n/a
874.2455	0.09	1748491	keystroke_i	i	n/a
874.5305	0.09	1749061	keystroke_p	p	n/a
875.115	0.105	1750230	keystroke_Key.space	Key.space	n/a
875.5805	0.074	1751161	keystroke_i	i	n/a
875.8345	0.06	1751669	keystroke_l	l	n/a
875.9555	0.0895	1751911	keystroke_l	l	n/a
876.3	0.105	1752600	keystroke_e	e	n/a
876.915	0.06	1753830	keystroke_n	n	n/a
877.89	0.075	1755780	keystroke_Key.backspace	Key.backspace	n/a
878.505	0.075	1757010	keystroke_Key.backspace	Key.backspace	n/a
879.105	0.06	1758210	keystroke_n	n	n/a
879.27	0.075	1758540	keystroke_e	e	n/a
879.525	0.1055	1759050	keystroke_s	s	n/a
879.7955	0.015	1759591	keystroke_s	s	n/a
879.9745	0.09	1759949	keystroke_Key.space	Key.space	n/a
880.4395	0.075	1760879	keystroke_a	a	n/a
880.7995	0.121	1761599	keystroke_c	c	n/a
881.325	0.09	1762650	keystroke_t	t	n/a
881.625	0.09	1763250	keystroke_s	s	n/a
881.835	0.105	1763670	keystroke_Key.space	Key.space	n/a
882.24	0.1055	1764480	keystroke_d	d	n/a
882.4955	0.075	1764991	keystroke_e	e	n/a
882.6905	0.09	1765381	keystroke_p	p	n/a
883.2305	0.09	1766461	keystroke_e	e	n/a
883.4105	0.06	1766821	keystroke_n	n	n/a
883.5905	0.0745	1767181	keystroke_d	d	n/a
883.995	0.09	1767990	keystroke_s	s	n/a
884.5505	0.09	1769101	keystroke_Key.enter	Key.enter	n/a
884.645	18.5665	1769290	prompt	n/a	league jobs cambridge maryland\n
885.345	0.0595	1770690	keystroke_l	l	n/a
885.4655	0.075	1770931	keystroke_e	e	n/a
885.75	0.09	1771500	keystroke_a	a	n/a
887.146	0.0595	1774292	keystroke_g	g	n/a
887.2955	0.075	1774591	keystroke_u	u	n/a
887.4605	0.075	1774921	keystroke_e	e	n/a
888.0755	0.12	1776151	keystroke_Key.space	Key.space	n/a
889.2455	0.075	1778491	keystroke_j	j	n/a
889.4705	0.015	1778941	keystroke_o	o	n/a
890.5655	0.06	1781131	keystroke_b	b	n/a
891.1345	0.075	1782269	keystroke_s	s	n/a
891.3445	0.105	1782689	keystroke_Key.space	Key.space	n/a
891.6455	0.074	1783291	keystroke_c	c	n/a
892.125	0.06	1784250	keystroke_a	a	n/a
892.305	0.075	1784610	keystroke_m	m	n/a
893.161	0.0735	1786322	keystroke_b	b	n/a
893.6095	0.09	1787219	keystroke_r	r	n/a
894.4345	0.046	1788869	keystroke_i	i	n/a
894.7805	0.045	1789561	keystroke_g	g	n/a
895.41	0.09	1790820	keystroke_Key.backspace	Key.backspace	n/a
895.7105	0.105	1791421	keystroke_d	d	n/a
896.01	0.075	1792020	keystroke_g	g	n/a
896.6995	0.061	1793399	keystroke_e	e	n/a
896.8805	0.09	1793761	keystroke_Key.space	Key.space	n/a
897.1205	0.089	1794241	keystroke_m	m	n/a
897.285	0.105	1794570	keystroke_a	a	n/a
897.6	0.105	1795200	keystroke_r	r	n/a
898.155	0.06	1796310	keystroke_y	y	n/a
898.725	0.105	1797450	keystroke_l	l	n/a
898.935	0.075	1797870	keystroke_a	a	n/a
899.6855	0.075	1799371	keystroke_b	b	n/a
900.75	0.045	1801500	keystroke_Key.backspace	Key.backspace	n/a
902.0555	0.045	1804111	keystroke_n	n	n/a
902.31	0.075	1804620	keystroke_d	d	n/a
903.1355	0.075	1806271	keystroke_Key.enter	Key.enter	n/a
903.215	8.9965	1806430	prompt	n/a	apart what're called poet\n
903.9305	0.06	1807861	keystroke_a	a	n/a
904.0655	0.0895	1808131	keystroke_p	p	n/a
904.275	0.12	1808550	keystroke_a	a	n/a
904.62	0.09	1809240	keystroke_r	r	n/a
904.875	0.075	1809750	keystroke_t	t	n/a
905.2055	0.075	1810411	keystroke_Key.space	Key.space	n/a
905.6255	0.045	1811251	keystroke_w	w	n/a
905.7155	0.075	1811431	keystroke_h	h	n/a
906.0305	0.09	1812061	keystroke_a	a	n/a
906.4055	0.06	1812811	keystroke_t	t	n/a
907.1555	0.105	1814311	keystroke_'	'	n/a
907.53	0.1205	1815060	keystroke_r	r	n/a
908.2355	0.09	1816471	keystroke_e	e	n/a
908.745	0.12	1817490	keystroke_Key.space	Key.space	n/a
909.225	0.075	1818450	keystroke_c	c	n/a
909.495	0.06	1818990	keystroke_a	a	n/a
909.615	0.09	1819230	keystroke_l	l	n/a
909.78	0.06	1819560	keystroke_l	l	n/a
909.93	0.06	1819860	keystroke_e	e	n/a
910.14	0.075	1820280	keystroke_d	d	n/a
910.29	0.075	1820580	keystroke_Key.space	Key.space	n/a
910.725	0.105	1821450	keystroke_p	p	n/a
910.98	0.09	1821960	keystroke_o	o	n/a
911.25	0.09	1822500	keystroke_e	e	n/a
911.565	0.075	1823130	keystroke_t	t	n/a
912.135	0.075	1824270	keystroke_Key.enter	Key.enter	n/a
912.2155	12.1465	1824431	prompt	n/a	tons jenny nevada foot\n
913.365	0.075	1826730	keystroke_t	t	n/a
913.6205	0.015	1827241	keystroke_o	o	n/a
914.0705	0.06	1828141	keystroke_n	n	n/a
914.3105	0.06	1828621	keystroke_s	s	n/a
914.5805	0.074	1829161	keystroke_Key.space	Key.space	n/a
915.1055	0.0445	1830211	keystroke_j	j	n/a
915.7805	0.06	1831561	keystroke_e	e	n/a
916.3055	0.045	1832611	keystroke_n	n	n/a
916.4255	0.09	1832851	keystroke_n	n	n/a
917.1755	0.075	1834351	keystroke_y	y	n/a
917.2655	0.075	1834531	keystroke_Key.space	Key.space	n/a
918.375	0.045	1836750	keystroke_n	n	n/a
918.69	0.075	1837380	keystroke_e	e	n/a
919.02	0.09	1838040	keystroke_v	v	n/a
919.29	0.045	1838580	keystroke_e	e	n/a
920.265	0.045	1840530	keystroke_Key.backspace	Key.backspace	n/a
920.6255	0.0895	1841251	keystroke_a	a	n/a
921.136	0.075	1842272	keystroke_d	d	n/a
921.405	0.075	1842810	keystroke_a	a	n/a
921.585	0.091	1843170	keystroke_Key.space	Key.space	n/a
921.991	0.075	1843982	keystroke_f	f	n/a
922.47	0.045	1844940	keystroke_o	o	n/a
922.575	0.105	1845150	keystroke_o	o	n/a
923.1905	0.075	1846381	keystroke_t	t	n/a
924.3005	0.06	1848601	keystroke_Key.enter	Key.enter	n/a
924.365	25.678	1848730	prompt	n/a	theology residence reviewed clusters\n
925.1555	0.075	1850311	keystroke_t	t	n/a
925.3955	0.075	1850791	keystroke_h	h	n/a
925.7405	0.045	1851481	keystroke_e	e	n/a
926.31	0.06	1852620	keystroke_i	i	n/a
926.745	0.12	1853490	keystroke_l	l	n/a
927.585	0.12	1855170	keystroke_Key.backspace	Key.backspace	n/a
928.005	0.09	1856010	keystroke_Key.backspace	Key.backspace	n/a
928.845	0.075	1857690	keystroke_o	o	n/a
929.055	0.09	1858110	keystroke_l	l	n/a
929.265	0.075	1858530	keystroke_o	o	n/a
929.73	0.105	1859460	keystroke_g	g	n/a
930.0005	0.075	1860001	keystroke_y	y	n/a
930.2705	0.075	1860541	keystroke_Key.space	Key.space	n/a
931.2155	0.09	1862431	keystroke_r	r	n/a
931.4105	0.09	1862821	keystroke_e	e	n/a
931.6955	0.06	1863391	keystroke_s	s	n/a
932.056	0.045	1864112	keystroke_i	i	n/a
932.296	0.0605	1864592	keystroke_d	d	n/a
932.701	0.06	1865402	keystroke_e	e	n/a
933.345	0.075	1866690	keystroke_n	n	n/a
933.601	0.059	1867202	keystroke_c	c	n/a
933.9	0.06	1867800	keystroke_e	e	n/a
934.2005	0.075	1868401	keystroke_Key.space	Key.space	n/a
934.816	0.105	1869632	keystroke_r	r	n/a
935.101	0.075	1870202	keystroke_e	e	n/a
936.0905	0.105	1872181	keystroke_c	c	n/a
936.7805	0.12	1873561	keystroke_Key.backspace	Key.backspace	n/a
937.156	0.045	1874312	keystroke_v	v	n/a
937.846	0.045	1875692	keystroke_i	i	n/a
938.5055	0.105	1877011	keystroke_e	e	n/a
939.1205	0.09	1878241	keystroke_w	w	n/a
939.736	0.09	1879472	keystroke_e	e	n/a
940.051	0.075	1880102	keystroke_d	d	n/a
940.651	0.09	1881302	keystroke_Key.space	Key.space	n/a
940.9955	0.0605	1881991	keystroke_s	s	n/a
941.1165	0.09	1882233	keystroke_l	l	n/a
942.001	0.09	1884002	keystroke_Key.backspace	Key.backspace	n/a
942.331	0.075	1884662	keystroke_Key.backspace	Key.backspace	n/a
943.246	0.06	1886492	keystroke_c	c	n/a
943.381	0.075	1886762	keystroke_l	l	n/a
943.876	0.06	1887752	keystroke_u	u	n/a
944.026	0.09	1888052	keystroke_s	s	n/a
944.371	0.09	1888742	keystroke_t	t	n/a
944.746	0.105	1889492	keystroke_e	e	n/a
945.0465	0.074	1890093	keystroke_r	r	n/a
946.411	0.09	1892822	keystroke_s	s	n/a
946.831	0.075	1893662	keystroke_Key.space	Key.space	n/a
947.551	0.09	1895102	keystroke_Key.backspace	Key.backspace	n/a
948.031	0.045	1896062	keystroke_'	'	n/a
949.2155	0.09	1898431	keystroke_Key.backspace	Key.backspace	n/a
949.996	0.045	1899992	keystroke_Key.enter	Key.enter	n/a
950.0475	14.3205	1900095	prompt	n/a	move pipe configuration cartoon\n
951.046	0.1045	1902092	keystroke_m	m	n/a
951.2405	0.075	1902481	keystroke_o	o	n/a
951.4365	0.119	1902873	keystroke_v	v	n/a
951.676	0.075	1903352	keystroke_e	e	n/a
951.841	0.105	1903682	keystroke_Key.space	Key.space	n/a
953.071	0.1355	1906142	keystroke_p	p	n/a
953.5665	0.105	1907133	keystroke_i	i	n/a
953.8515	0.12	1907703	keystroke_p	p	n/a
954.4065	0.045	1908813	keystroke_e	e	n/a
954.9915	0.044	1909983	keystroke_Key.space	Key.space	n/a
955.336	0.045	1910672	keystroke_c	c	n/a
955.411	0.09	1910822	keystroke_o	o	n/a
955.666	0.075	1911332	keystroke_n	n	n/a
956.3255	0.0605	1912651	keystroke_f	f	n/a
956.5655	0.0605	1913131	keystroke_i	i	n/a
956.837	0.074	1913674	keystroke_g	g	n/a
957.0915	0.045	1914183	keystroke_u	u	n/a
957.8415	0.075	1915683	keystroke_r	r	n/a
958.3065	0.105	1916613	keystroke_a	a	n/a
958.6815	0.06	1917363	keystroke_t	t	n/a
958.8015	0.105	1917603	keystroke_i	i	n/a
959.0415	0.105	1918083	keystroke_o	o	n/a
959.3265	0.075	1918653	keystroke_n	n	n/a
959.9855	0.105	1919971	keystroke_Key.space	Key.space	n/a
960.2555	0.06	1920511	keystroke_c	c	n/a
960.5265	0.089	1921053	keystroke_a	a	n/a
960.8555	0.06	1921711	keystroke_r	r	n/a
961.5905	0.0605	1923181	keystroke_t	t	n/a
961.8005	0.09	1923601	keystroke_o	o	n/a
961.996	0.09	1923992	keystroke_o	o	n/a
962.326	0.0755	1924652	keystroke_n	n	n/a
962.5965	0.06	1925193	keystroke_s	s	n/a
963.1665	0.045	1926333	keystroke_Key.backspace	Key.backspace	n/a
964.291	0.075	1928582	keystroke_Key.enter	Key.enter	n/a
964.371	14.952	1928742	prompt	n/a	easily switches ready bouquet\n
965.0865	0.075	1930173	keystroke_e	e	n/a
965.3415	0.0745	1930683	keystroke_a	a	n/a
965.596	0.09	1931192	keystroke_s	s	n/a
966.466	0.06	1932932	keystroke_i	i	n/a
966.646	0.105	1933292	keystroke_l	l	n/a
966.961	0.09	1933922	keystroke_y	y	n/a
967.486	0.105	1934972	keystroke_Key.space	Key.space	n/a
967.921	0.075	1935842	keystroke_s	s	n/a
968.596	0.12	1937192	keystroke_w	w	n/a
969.106	0.06	1938212	keystroke_i	i	n/a
969.7215	0.06	1939443	keystroke_t	t	n/a
970.1265	0.03	1940253	keystroke_c	c	n/a
970.2165	0.06	1940433	keystroke_h	h	n/a
970.8315	0.0745	1941663	keystroke_e	e	n/a
971.1015	0.075	1942203	keystroke_s	s	n/a
971.3115	0.09	1942623	keystroke_Key.space	Key.space	n/a
971.5815	0.075	1943163	keystroke_r	r	n/a
971.7765	0.075	1943553	keystroke_e	e	n/a
972.076	0.0905	1944152	keystroke_a	a	n/a
972.3165	0.09	1944633	keystroke_d	d	n/a
972.5565	0.06	1945113	keystroke_y	y	n/a
972.7515	0.12	1945503	keystroke_Key.space	Key.space	n/a
973.3515	0.105	1946703	keystroke_b	b	n/a
973.5615	0.1045	1947123	keystroke_o	o	n/a
973.846	0.06	1947692	keystroke_u	u	n/a
974.506	0.06	1949012	keystroke_g	g	n/a
974.686	0.06	1949372	keystroke_h	h	n/a
975.376	0.09	1950752	keystroke_Key.backspace	Key.backspace	n/a
976.3205	0.0605	1952641	keystroke_Key.backspace	Key.backspace	n/a
976.546	0.09	1953092	keystroke_q	q	n/a
976.951	0.09	1953902	keystroke_u	u	n/a
977.2665	0.105	1954533	keystroke_e	e	n/a
977.6415	0.0895	1955283	keystroke_t	t	n/a
979.2165	0.105	1958433	keystroke_Key.enter	Key.enter	n/a
979.3265	15.1615	1958653	prompt	n/a	adaptation covering joel assumptions\n
980.0865	0.075	1960173	keystroke_a	a	n/a
980.3565	0.1345	1960713	keystroke_d	d	n/a
980.941	0.135	1961882	keystroke_a	a	n/a
981.1815	0.105	1962363	keystroke_p	p	n/a
981.931	0.105	1963862	keystroke_t	t	n/a
982.546	0.09	1965092	keystroke_a	a	n/a
983.1165	0.075	1966233	keystroke_t	t	n/a
983.2965	0.12	1966593	keystroke_i	i	n/a
983.4915	0.105	1966983	keystroke_o	o	n/a
983.701	0.075	1967402	keystroke_n	n	n/a
984.316	0.075	1968632	keystroke_Key.space	Key.space	n/a
984.511	0.075	1969022	keystroke_c	c	n/a
984.631	0.12	1969262	keystroke_o	o	n/a
985.021	0.09	1970042	keystroke_b	b	n/a
985.321	0.105	1970642	keystroke_e	e	n/a
986.086	0.105	1972172	keystroke_Key.backspace	Key.backspace	n/a
986.281	0.06	1972562	keystroke_Key.backspace	Key.backspace	n/a
987.3165	0.045	1974633	keystroke_v	v	n/a
987.5115	0.06	1975023	keystroke_e	e	n/a
987.7065	0.075	1975413	keystroke_r	r	n/a
988.2015	0.06	1976403	keystroke_i	i	n/a
988.3815	0.075	1976763	keystroke_n	n	n/a
988.5015	0.0595	1977003	keystroke_g	g	n/a
988.651	0.075	1977302	keystroke_Key.space	Key.space	n/a
989.041	0.0905	1978082	keystroke_j	j	n/a
989.3265	0.09	1978653	keystroke_o	o	n/a
990.001	0.061	1980002	keystroke_e	e	n/a
990.167	0.104	1980334	keystroke_l	l	n/a
990.466	0.06	1980932	keystroke_Key.space	Key.space	n/a
990.676	0.075	1981352	keystroke_a	a	n/a
991.0815	0.09	1982163	keystroke_s	s	n/a
991.336	0.12	1982672	keystroke_s	s	n/a
991.696	0.09	1983392	keystroke_u	u	n/a
992.146	0.09	1984292	keystroke_m	m	n/a
992.461	0.105	1984922	keystroke_p	p	n/a
992.941	0.0605	1985882	keystroke_t	t	n/a
993.0765	0.105	1986153	keystroke_i	i	n/a
993.2265	0.105	1986453	keystroke_o	o	n/a
993.4515	0.0745	1986903	keystroke_n	n	n/a
993.631	0.075	1987262	keystroke_s	s	n/a
994.411	0.075	1988822	keystroke_Key.enter	Key.enter	n/a
994.4915	15.9715	1988983	prompt	n/a	guide portsmouth radius addresses\n
995.5215	0.0895	1991043	keystroke_g	g	n/a
996.046	0.06	1992092	keystroke_u	u	n/a
996.932	0.059	1993864	keystroke_i	i	n/a
997.2465	0.105	1994493	keystroke_d	d	n/a
997.6065	0.09	1995213	keystroke_e	e	n/a
998.1315	0.12	1996263	keystroke_Key.space	Key.space	n/a
998.3865	0.135	1996773	keystroke_p	p	n/a
998.6415	0.09	1997283	keystroke_o	o	n/a
999.5415	0.09	1999083	keystroke_r	r	n/a
1000.3365	0.06	2000673	keystroke_t	t	n/a
1000.8015	0.09	2001603	keystroke_s	s	n/a
1001.4615	0.075	2002923	keystroke_m	m	n/a
1001.6415	0.12	2003283	keystroke_o	o	n/a
1001.9865	0.09	2003973	keystroke_u	u	n/a
1002.4815	0.06	2004963	keystroke_t	t	n/a
1002.6015	0.09	2005203	keystroke_h	h	n/a
1003.1715	0.105	2006343	keystroke_Key.space	Key.space	n/a
1003.4715	0.105	2006943	keystroke_r	r	n/a
1003.9365	0.06	2007873	keystroke_a	a	n/a
1004.8515	0.075	2009703	keystroke_d	d	n/a
1005.1815	0.0895	2010363	keystroke_i	i	n/a
1005.9765	0.045	2011953	keystroke_u	u	n/a
1006.1415	0.075	2012283	keystroke_s	s	n/a
1006.5915	0.09	2013183	keystroke_Key.space	Key.space	n/a
1006.8165	0.12	2013633	keystroke_a	a	n/a
1007.161	0.0905	2014322	keystroke_d	d	n/a
1007.3265	0.09	2014653	keystroke_d	d	n/a
1007.7015	0.105	2015403	keystroke_r	r	n/a
1007.9565	0.105	2015913	keystroke_e	e	n/a
1008.5265	0.09	2017053	keystroke_s	s	n/a
1008.9465	0.105	2017893	keystroke_s	s	n/a
1009.5315	0.09	2019063	keystroke_e	e	n/a
1009.8465	0.105	2019693	keystroke_s	s	n/a
1010.3865	0.075	2020773	keystroke_Key.enter	Key.enter	n/a
1010.4655	19.1975	2020931	prompt	n/a	assured styles rendered investing\n
1011.1665	0.09	2022333	keystroke_a	a	n/a
1011.4515	0.06	2022903	keystroke_s	s	n/a
1011.6315	0.075	2023263	keystroke_s	s	n/a
1012.2015	0.045	2024403	keystroke_u	u	n/a
1012.4415	0.015	2024883	keystroke_d	d	n/a
1013.1465	0.06	2026293	keystroke_Key.backspace	Key.backspace	n/a
1013.357	0.0895	2026714	keystroke_r	r	n/a
1013.5815	0.075	2027163	keystroke_e	e	n/a
1013.8965	0.09	2027793	keystroke_d	d	n/a
1014.107	0.075	2028214	keystroke_Key.space	Key.space	n/a
1014.377	0.09	2028754	keystroke_s	s	n/a
1014.661	0.0755	2029322	keystroke_t	t	n/a
1014.8415	0.075	2029683	keystroke_y	y	n/a
1015.382	0.075	2030764	keystroke_;	;	n/a
1015.577	0.06	2031154	keystroke_e	e	n/a
1016.1615	0.105	2032323	keystroke_Key.backspace	Key.backspace	n/a
1016.6715	0.0755	2033343	keystroke_Key.backspace	Key.backspace	n/a
1017.0765	0.045	2034153	keystroke_;	;	n/a
1017.601	0.105	2035202	keystroke_Key.backspace	Key.backspace	n/a
1018.6665	0.075	2037333	keystroke_l	l	n/a
1018.921	0.06	2037842	keystroke_e	e	n/a
1019.4915	0.09	2038983	keystroke_Key.space	Key.space	n/a
1019.956	0.09	2039912	keystroke_r	r	n/a
1020.166	0.09	2040332	keystroke_e	e	n/a
1020.421	0.075	2040842	keystroke_n	n	n/a
1021.2015	0.09	2042403	keystroke_d	d	n/a
1021.546	0.09	2043092	keystroke_e	e	n/a
1021.787	0.075	2043574	keystroke_r	r	n/a
1021.997	0.059	2043994	keystroke_e	e	n/a
1022.2365	0.09	2044473	keystroke_d	d	n/a
1022.8065	0.12	2045613	keystroke_Key.space	Key.space	n/a
1023.0165	0.075	2046033	keystroke_i	i	n/a
1023.2265	0.06	2046453	keystroke_n	n	n/a
1023.8865	0.09	2047773	keystroke_v	v	n/a
