onset	duration	sample	value	key	prompt_text
18.018	37.6745	36036	prompt	n/a	the quick brown fox jumps over a lazy dog\n
40.2515	0.1175	80503	keystroke_k	k	n/a
41.8835	0.1195	83767	keystroke_Key.backspace	Key.backspace	n/a
42.9635	0.135	85927	keystroke_t	t	n/a
43.038	0.1955	86076	keystroke_h	h	n/a
43.2185	0.135	86437	keystroke_e	e	n/a
43.4875	0.151	86975	keystroke_Key.space	Key.space	n/a
43.8935	0.1505	87787	keystroke_q	q	n/a
44.1035	0.1795	88207	keystroke_u	u	n/a
44.2685	0.15	88537	keystroke_i	i	n/a
44.448	0.1205	88896	keystroke_c	c	n/a
44.6135	0.105	89227	keystroke_k	k	n/a
44.8385	0.165	89677	keystroke_Key.space	Key.space	n/a
45.0785	0.0895	90157	keystroke_b	b	n/a
45.288	0.15	90576	keystroke_r	r	n/a
45.408	0.105	90816	keystroke_o	o	n/a
45.559	0.135	91118	keystroke_w	w	n/a
45.7085	0.09	91417	keystroke_n	n	n/a
45.9635	0.15	91927	keystroke_Key.space	Key.space	n/a
46.1885	0.15	92377	keystroke_f	f	n/a
46.3235	0.09	92647	keystroke_o	o	n/a
46.534	0.149	93068	keystroke_x	x	n/a
46.758	0.1355	93516	keystroke_Key.space	Key.space	n/a
47.178	0.105	94356	keystroke_j	j	n/a
47.388	0.105	94776	keystroke_u	u	n/a
47.643	0.121	95286	keystroke_m	m	n/a
47.884	0.119	95768	keystroke_p	p	n/a
48.019	0.164	96038	keystroke_s	s	n/a
48.513	0.1355	97026	keystroke_Key.space	Key.space	n/a
48.7235	0.0905	97447	keystroke_o	o	n/a
48.9335	0.1045	97867	keystroke_v	v	n/a
49.923	0.1355	99846	keystroke_e	e	n/a
50.0735	0.15	100147	keystroke_r	r	n/a
50.2385	0.1195	100477	keystroke_Key.space	Key.space	n/a
50.403	0.18	100806	keystroke_a	a	n/a
50.538	0.09	101076	keystroke_Key.space	Key.space	n/a
50.763	0.105	101526	keystroke_l	l	n/a
50.9285	0.1195	101857	keystroke_a	a	n/a
51.9185	0.1655	103837	keystroke_z	z	n/a
52.3235	0.1195	104647	keystroke_y	y	n/a
52.6685	0.18	105337	keystroke_Key.space	Key.space	n/a
52.8335	0.135	105667	keystroke_d	d	n/a
52.9835	0.105	105967	keystroke_o	o	n/a
53.8085	0.12	107617	keystroke_g	g	n/a
55.5485	0.1345	111097	keystroke_Key.enter	Key.enter	n/a
55.699	11.4	111398	prompt	n/a	disorders emission connected tuner\n
57.756	0.001	115512	keystroke_Key.f15	Key.f15	n/a
58.041	0.132	116082	keystroke_d	d	n/a
58.278	0.166	116556	keystroke_i	i	n/a
58.548	0.18	117096	keystroke_s	s	n/a
58.803	0.135	117606	keystroke_o	o	n/a
59.043	0.121	118086	keystroke_r	r	n/a
59.298	0.121	118596	keystroke_d	d	n/a
60.0785	0.1955	120157	keystroke_e	e	n/a
60.2885	0.1795	120577	keystroke_r	r	n/a
60.753	0.12	121506	keystroke_s	s	n/a
61.1585	0.1195	122317	keystroke_Key.space	Key.space	n/a
61.413	0.15	122826	keystroke_e	e	n/a
61.579	0.149	123158	keystroke_m	m	n/a
61.7735	0.1045	123547	keystroke_i	i	n/a
61.983	0.0755	123966	keystroke_s	s	n/a
62.1335	0.09	124267	keystroke_s	s	n/a
62.2835	0.135	124567	keystroke_i	i	n/a
62.343	0.151	124686	keystroke_o	o	n/a
62.5385	0.1205	125077	keystroke_n	n	n/a
62.883	0.1355	125766	keystroke_Key.space	Key.space	n/a
63.093	0.135	126186	keystroke_c	c	n/a
63.258	0.1055	126516	keystroke_o	o	n/a
63.4835	0.045	126967	keystroke_n	n	n/a
63.6035	0.091	127207	keystroke_n	n	n/a
63.814	0.1195	127628	keystroke_e	e	n/a
64.0685	0.12	128137	keystroke_c	c	n/a
64.3235	0.12	128647	keystroke_t	t	n/a
64.5785	0.0905	129157	keystroke_e	e	n/a
64.7885	0.1055	129577	keystroke_d	d	n/a
65.1935	0.1195	130387	keystroke_Key.space	Key.space	n/a
65.508	0.105	131016	keystroke_t	t	n/a
65.674	0.105	131348	keystroke_u	u	n/a
65.898	0.105	131796	keystroke_n	n	n/a
66.0785	0.1195	132157	keystroke_e	e	n/a
66.379	0.1045	132758	keystroke_r	r	n/a
66.9185	0.165	133837	keystroke_Key.enter	Key.enter	n/a
67.1075	21.986	134215	prompt	n/a	signed montgomery appreciate cleaners\n
68.1025	0.151	136205	keystroke_s	s	n/a
68.209	0.1345	136418	keystroke_i	i	n/a
68.4185	0.12	136837	keystroke_g	g	n/a
68.5985	0.135	137197	keystroke_n	n	n/a
68.8235	0.135	137647	keystroke_e	e	n/a
69.1085	0.09	138217	keystroke_d	d	n/a
69.3335	0.1345	138667	keystroke_Key.space	Key.space	n/a
69.5435	0.15	139087	keystroke_m	m	n/a
69.7985	0.1055	139597	keystroke_o	o	n/a
69.9185	0.12	139837	keystroke_n	n	n/a
70.173	0.106	140346	keystroke_t	t	n/a
70.6685	0.1205	141337	keystroke_g	g	n/a
70.8635	0.1055	141727	keystroke_o	o	n/a
71.029	0.12	142058	keystroke_m	m	n/a
71.464	0.1495	142928	keystroke_e	e	n/a
71.6585	0.12	143317	keystroke_r	r	n/a
71.9885	0.09	143977	keystroke_y	y	n/a
72.2435	0.18	144487	keystroke_Key.space	Key.space	n/a
72.6485	0.165	145297	keystroke_a	a	n/a
72.948	0.1205	145896	keystroke_p	p	n/a
73.1585	0.09	146317	keystroke_p	p	n/a
83.963	0.116	167926	keystroke_r	r	n/a
84.244	0.1355	168488	keystroke_e	e	n/a
84.544	0.1195	169088	keystroke_c	c	n/a
84.679	0.0755	169358	keystroke_i	i	n/a
84.7985	0.18	169597	keystroke_a	a	n/a
85.0395	0.1195	170079	keystroke_t	t	n/a
85.234	0.1205	170468	keystroke_e	e	n/a
85.564	0.135	171128	keystroke_Key.space	Key.space	n/a
85.879	0.135	171758	keystroke_c	c	n/a
86.059	0.075	172118	keystroke_l	l	n/a
86.179	0.12	172358	keystroke_e	e	n/a
86.374	0.135	172748	keystroke_a	a	n/a
87.244	0.135	174488	keystroke_n	n	n/a
87.4835	0.1505	174967	keystroke_e	e	n/a
87.8145	0.12	175629	keystroke_r	r	n/a
88.069	0.1205	176138	keystroke_s	s	n/a
88.908	0.1655	177816	keystroke_Key.enter	Key.enter	n/a
89.1125	10.254	178225	prompt	n/a	trace nest authority simultaneously\n
90.199	0.12	180398	keystroke_t	t	n/a
90.4695	0.0895	180939	keystroke_r	r	n/a
90.619	0.0755	181238	keystroke_a	a	n/a
90.859	0.12	181718	keystroke_c	c	n/a
91.129	0.105	182258	keystroke_e	e	n/a
91.369	0.12	182738	keystroke_Key.space	Key.space	n/a
91.5345	0.134	183069	keystroke_n	n	n/a
91.684	0.12	183368	keystroke_e	e	n/a
92.0745	0.1205	184149	keystroke_s	s	n/a
92.269	0.135	184538	keystroke_t	t	n/a
92.434	0.12	184868	keystroke_Key.space	Key.space	n/a
92.689	0.165	185378	keystroke_a	a	n/a
92.869	0.15	185738	keystroke_u	u	n/a
93.0795	0.119	186159	keystroke_t	t	n/a
93.214	0.1505	186428	keystroke_h	h	n/a
93.454	0.105	186908	keystroke_o	o	n/a
93.709	0.105	187418	keystroke_r	r	n/a
93.904	0.09	187808	keystroke_i	i	n/a
94.249	0.15	188498	keystroke_t	t	n/a
94.5495	0.12	189099	keystroke_y	y	n/a
94.909	0.135	189818	keystroke_Key.space	Key.space	n/a
95.179	0.09	190358	keystroke_s	s	n/a
95.389	0.12	190778	keystroke_i	i	n/a
95.659	0.135	191318	keystroke_m	m	n/a
95.9435	0.12	191887	keystroke_u	u	n/a
96.214	0.1055	192428	keystroke_l	l	n/a
96.679	0.1205	193358	keystroke_t	t	n/a
96.904	0.1495	193808	keystroke_a	a	n/a
97.0085	0.1355	194017	keystroke_n	n	n/a
97.4135	0.1205	194827	keystroke_e	e	n/a
97.7445	0.1795	195489	keystroke_o	o	n/a
97.879	0.135	195758	keystroke_u	u	n/a
98.0585	0.121	196117	keystroke_s	s	n/a
98.194	0.12	196388	keystroke_l	l	n/a
98.5395	0.104	197079	keystroke_y	y	n/a
99.1695	0.164	198339	keystroke_Key.enter	Key.enter	n/a
99.386	10.222	198772	prompt	n/a	upper polyphonic face toll\n
100.5185	0.136	201037	keystroke_u	u	n/a
100.8345	0.09	201669	keystroke_p	p	n/a
100.9985	0.1055	201997	keystroke_p	p	n/a
101.2395	0.164	202479	keystroke_e	e	n/a
101.4185	0.1505	202837	keystroke_r	r	n/a
101.734	0.1495	203468	keystroke_Key.space	Key.space	n/a
102.4985	0.2265	204997	keystroke_p	p	n/a
102.979	0.091	205958	keystroke_o	o	n/a
103.234	0.1055	206468	keystroke_l	l	n/a
103.6095	0.1045	207219	keystroke_y	y	n/a
104.0585	0.1355	208117	keystroke_p	p	n/a
104.299	0.135	208598	keystroke_h	h	n/a
104.4785	0.166	208957	keystroke_o	o	n/a
104.6745	0.134	209349	keystroke_n	n	n/a
104.8835	0.09	209767	keystroke_i	i	n/a
105.079	0.119	210158	keystroke_c	c	n/a
105.5285	0.1345	211057	keystroke_Key.space	Key.space	n/a
105.799	0.1355	211598	keystroke_f	f	n/a
106.009	0.091	212018	keystroke_a	a	n/a
106.339	0.1055	212678	keystroke_c	c	n/a
106.594	0.105	213188	keystroke_e	e	n/a
106.804	0.1345	213608	keystroke_Key.space	Key.space	n/a
106.9695	0.164	213939	keystroke_t	t	n/a
107.1185	0.12	214237	keystroke_o	o	n/a
107.5095	0.104	215019	keystroke_l	l	n/a
107.719	0.09	215438	keystroke_l	l	n/a
109.414	0.1645	218828	keystroke_Key.enter	Key.enter	n/a
109.621	6.608	219242	prompt	n/a	ever salary slow toilet\n
110.524	0.12	221048	keystroke_e	e	n/a
110.734	0.105	221468	keystroke_v	v	n/a
110.959	0.0895	221918	keystroke_e	e	n/a
111.0785	0.1055	222157	keystroke_r	r	n/a
111.5135	0.1805	223027	keystroke_Key.space	Key.space	n/a
111.8435	0.135	223687	keystroke_s	s	n/a
112.144	0.1345	224288	keystroke_a	a	n/a
112.3985	0.106	224797	keystroke_l	l	n/a
112.5945	0.119	225189	keystroke_a	a	n/a
113.074	0.1345	226148	keystroke_r	r	n/a
113.3745	0.104	226749	keystroke_y	y	n/a
113.6135	0.165	227227	keystroke_Key.space	Key.space	n/a
113.8095	0.134	227619	keystroke_s	s	n/a
113.9445	0.075	227889	keystroke_l	l	n/a
114.139	0.121	228278	keystroke_o	o	n/a
114.2745	0.1495	228549	keystroke_w	w	n/a
114.469	0.165	228938	keystroke_Key.space	Key.space	n/a
114.724	0.12	229448	keystroke_t	t	n/a
114.859	0.12	229718	keystroke_o	o	n/a
114.964	0.1645	229928	keystroke_i	i	n/a
115.264	0.105	230528	keystroke_l	l	n/a
115.519	0.12	231038	keystroke_e	e	n/a
115.714	0.15	231428	keystroke_t	t	n/a
116.104	0.12	232208	keystroke_Key.enter	Key.enter	n/a
116.2425	7.411	232485	prompt	n/a	paying goat mind prospect\n
116.9145	0.001	233829	keystroke_Key.f15	Key.f15	n/a
117.289	0.15	234578	keystroke_p	p	n/a
117.469	0.1645	234938	keystroke_a	a	n/a
117.6345	0.12	235269	keystroke_y	y	n/a
117.8435	0.135	235687	keystroke_i	i	n/a
117.964	0.15	235928	keystroke_n	n	n/a
118.1595	0.134	236319	keystroke_g	g	n/a
118.279	0.3305	236558	keystroke_Key.space	Key.space	n/a
119.1785	0.1505	238357	keystroke_g	g	n/a
119.4485	0.105	238897	keystroke_o	o	n/a
119.5685	0.1655	239137	keystroke_a	a	n/a
120.0195	0.119	240039	keystroke_t	t	n/a
120.2285	0.15	240457	keystroke_Key.space	Key.space	n/a
120.4235	0.1505	240847	keystroke_m	m	n/a
120.589	0.135	241178	keystroke_i	i	n/a
120.739	0.12	241478	keystroke_n	n	n/a
120.8445	0.134	241689	keystroke_d	d	n/a
121.0535	0.15	242107	keystroke_Key.space	Key.space	n/a
121.3395	0.1495	242679	keystroke_p	p	n/a
121.4735	0.151	242947	keystroke_r	r	n/a
121.684	0.0895	243368	keystroke_o	o	n/a
121.894	0.12	243788	keystroke_s	s	n/a
122.254	0.119	244508	keystroke_p	p	n/a
122.434	0.12	244868	keystroke_e	e	n/a
122.704	0.1345	245408	keystroke_c	c	n/a
122.9735	0.15	245947	keystroke_t	t	n/a
123.469	0.18	246938	keystroke_Key.enter	Key.enter	n/a
123.674	18.7685	247348	prompt	n/a	myspace onto seeks theme\n
136.9265	0.058	273853	keystroke_m	m	n/a
137.1945	0.12	274389	keystroke_y	y	n/a
137.57	0.1495	275140	keystroke_s	s	n/a
137.7345	0.135	275469	keystroke_p	p	n/a
137.8545	0.135	275709	keystroke_a	a	n/a
138.1395	0.1045	276279	keystroke_c	c	n/a
138.3645	0.105	276729	keystroke_e	e	n/a
138.5445	0.149	277089	keystroke_Key.space	Key.space	n/a
138.7995	0.119	277599	keystroke_o	o	n/a
138.9485	0.136	277897	keystroke_n	n	n/a
139.0995	0.1495	278199	keystroke_t	t	n/a
139.2195	0.1045	278439	keystroke_o	o	n/a
139.355	0.164	278710	keystroke_Key.space	Key.space	n/a
139.5795	0.12	279159	keystroke_s	s	n/a
139.789	0.09	279578	keystroke_e	e	n/a
139.984	0.09	279968	keystroke_e	e	n/a
140.089	0.165	280178	keystroke_k	k	n/a
140.359	0.1205	280718	keystroke_s	s	n/a
140.599	0.15	281198	keystroke_Key.space	Key.space	n/a
140.779	0.1355	281558	keystroke_t	t	n/a
140.855	0.1185	281710	keystroke_h	h	n/a
141.02	0.1195	282040	keystroke_e	e	n/a
141.1545	0.3	282309	keystroke_m	m	n/a
141.6795	0.12	283359	keystroke_e	e	n/a
142.2945	0.135	284589	keystroke_Key.enter	Key.enter	n/a
142.4505	11.5875	284901	prompt	n/a	memorabilia funny copying cartridges\n
143.3595	0.135	286719	keystroke_m	m	n/a
143.5095	0.135	287019	keystroke_e	e	n/a
143.6145	0.165	287229	keystroke_m	m	n/a
143.8545	0.09	287709	keystroke_o	o	n/a
143.9595	0.119	287919	keystroke_r	r	n/a
144.319	0.151	288638	keystroke_a	a	n/a
144.6495	0.12	289299	keystroke_b	b	n/a
144.754	0.1205	289508	keystroke_i	i	n/a
144.9945	0.09	289989	keystroke_l	l	n/a
145.1295	0.165	290259	keystroke_i	i	n/a
145.3695	0.1505	290739	keystroke_a	a	n/a
145.7895	0.15	291579	keystroke_Key.space	Key.space	n/a
146.1345	0.135	292269	keystroke_f	f	n/a
146.2545	0.12	292509	keystroke_u	u	n/a
146.54	0.074	293080	keystroke_n	n	n/a
146.6745	0.09	293349	keystroke_n	n	n/a
146.959	0.1205	293918	keystroke_y	y	n/a
147.199	0.135	294398	keystroke_Key.space	Key.space	n/a
147.559	0.105	295118	keystroke_c	c	n/a
148.6245	0.135	297249	keystroke_o	o	n/a
148.985	0.104	297970	keystroke_p	p	n/a
149.3445	0.134	298689	keystroke_y	y	n/a
149.614	0.135	299228	keystroke_i	i	n/a
149.779	0.1355	299558	keystroke_n	n	n/a
149.944	0.135	299888	keystroke_g	g	n/a
150.424	0.15	300848	keystroke_Key.space	Key.space	n/a
150.8895	0.105	301779	keystroke_c	c	n/a
151.0695	0.165	302139	keystroke_a	a	n/a
151.264	0.1355	302528	keystroke_r	r	n/a
151.4895	0.1345	302979	keystroke_t	t	n/a
151.849	0.1055	303698	keystroke_r	r	n/a
151.969	0.12	303938	keystroke_i	i	n/a
152.254	0.1205	304508	keystroke_d	d	n/a
152.584	0.136	305168	keystroke_g	g	n/a
152.854	0.106	305708	keystroke_e	e	n/a
153.349	0.1205	306698	keystroke_s	s	n/a
153.874	0.15	307748	keystroke_Key.enter	Key.enter	n/a
154.0445	7.5565	308089	prompt	n/a	shorts elements find design\n
155.15	0.164	310300	keystroke_s	s	n/a
155.3295	0.135	310659	keystroke_h	h	n/a
155.494	0.105	310988	keystroke_o	o	n/a
155.644	0.121	311288	keystroke_r	r	n/a
155.839	0.121	311678	keystroke_t	t	n/a
156.109	0.1055	312218	keystroke_s	s	n/a
156.4395	0.12	312879	keystroke_Key.space	Key.space	n/a
156.7095	0.1495	313419	keystroke_e	e	n/a
156.845	0.059	313690	keystroke_l	l	n/a
156.994	0.12	313988	keystroke_e	e	n/a
157.1745	0.1195	314349	keystroke_m	m	n/a
157.384	0.151	314768	keystroke_e	e	n/a
157.565	0.1045	315130	keystroke_n	n	n/a
157.6845	0.1055	315369	keystroke_t	t	n/a
157.925	0.12	315850	keystroke_s	s	n/a
158.239	0.15	316478	keystroke_Key.space	Key.space	n/a
158.524	0.1355	317048	keystroke_f	f	n/a
158.6285	0.121	317257	keystroke_i	i	n/a
158.8095	0.12	317619	keystroke_n	n	n/a
158.9595	0.104	317919	keystroke_d	d	n/a
159.3035	0.1355	318607	keystroke_Key.space	Key.space	n/a
159.575	0.0895	319150	keystroke_d	d	n/a
159.7995	0.075	319599	keystroke_e	e	n/a
159.9795	0.105	319959	keystroke_s	s	n/a
160.1295	0.149	320259	keystroke_i	i	n/a
160.535	0.1335	321070	keystroke_g	g	n/a
160.79	0.1345	321580	keystroke_n	n	n/a
161.4945	0.105	322989	keystroke_Key.enter	Key.enter	n/a
161.606	12.651	323212	prompt	n/a	internal hundred genealogy korea\n
162.5745	0.12	325149	keystroke_i	i	n/a
162.7245	0.135	325449	keystroke_n	n	n/a
163.0095	0.12	326019	keystroke_t	t	n/a
163.2645	0.1195	326529	keystroke_e	e	n/a
163.429	0.15	326858	keystroke_r	r	n/a
163.6835	0.151	327367	keystroke_n	n	n/a
163.9395	0.134	327879	keystroke_a	a	n/a
164.1185	0.121	328237	keystroke_l	l	n/a
164.539	0.1205	329078	keystroke_Key.space	Key.space	n/a
164.9295	0.105	329859	keystroke_h	h	n/a
165.14	0.119	330280	keystroke_u	u	n/a
165.379	0.09	330758	keystroke_n	n	n/a
165.529	0.15	331058	keystroke_d	d	n/a
165.724	0.1355	331448	keystroke_r	r	n/a
165.98	0.104	331960	keystroke_e	e	n/a
166.2185	0.12	332437	keystroke_d	d	n/a
166.6245	0.105	333249	keystroke_Key.space	Key.space	n/a
167.5095	0.1195	335019	keystroke_g	g	n/a
167.7485	0.106	335497	keystroke_e	e	n/a
168.2585	0.1355	336517	keystroke_n	n	n/a
168.6195	0.1345	337239	keystroke_e	e	n/a
169.084	0.1505	338168	keystroke_a	a	n/a
169.4145	0.105	338829	keystroke_l	l	n/a
170.1785	0.1215	340357	keystroke_o	o	n/a
171.4245	0.1195	342849	keystroke_g	g	n/a
171.7095	0.1045	343419	keystroke_y	y	n/a
172.264	0.1355	344528	keystroke_Key.space	Key.space	n/a
172.6395	0.12	345279	keystroke_k	k	n/a
172.9095	0.105	345819	keystroke_o	o	n/a
173.0735	0.165	346147	keystroke_r	r	n/a
173.2835	0.18	346567	keystroke_e	e	n/a
173.524	0.12	347048	keystroke_a	a	n/a
174.094	0.1495	348188	keystroke_Key.enter	Key.enter	n/a
174.263	17.3445	348526	prompt	n/a	academy lebanon lithuania liquid\n
175.6395	0.1345	351279	keystroke_a	a	n/a
175.909	0.105	351818	keystroke_c	c	n/a
176.085	0.001	352170	keystroke_Key.f15	Key.f15	n/a
176.089	0.166	352178	keystroke_a	a	n/a
176.5695	0.12	353139	keystroke_d	d	n/a
176.824	0.135	353648	keystroke_e	e	n/a
177.049	0.1355	354098	keystroke_m	m	n/a
177.9195	0.105	355839	keystroke_y	y	n/a
178.1595	0.1495	356319	keystroke_Key.space	Key.space	n/a
178.879	0.1205	357758	keystroke_l	l	n/a
179.2395	0.1045	358479	keystroke_e	e	n/a
179.494	0.106	358988	keystroke_b	b	n/a
179.659	0.136	359318	keystroke_a	a	n/a
179.8535	0.105	359707	keystroke_n	n	n/a
179.9895	0.149	359979	keystroke_a	a	n/a
180.784	0.1495	361568	keystroke_Key.backspace	Key.backspace	n/a
181.4895	0.1345	362979	keystroke_o	o	n/a
181.8345	0.1345	363669	keystroke_n	n	n/a
182.2995	0.1345	364599	keystroke_Key.space	Key.space	n/a
186.4555	0.089	372911	keystroke_l	l	n/a
186.649	0.12	373298	keystroke_i	i	n/a
186.8295	0.1195	373659	keystroke_t	t	n/a
186.965	0.134	373930	keystroke_h	h	n/a
187.249	0.135	374498	keystroke_u	u	n/a
187.489	0.15	374978	keystroke_a	a	n/a
187.7285	0.1055	375457	keystroke_n	n	n/a
187.8795	0.1045	375759	keystroke_i	i	n/a
188.224	0.135	376448	keystroke_a	a	n/a
188.8845	0.1645	377769	keystroke_Key.space	Key.space	n/a
189.439	0.105	378878	keystroke_l	l	n/a
189.634	0.1205	379268	keystroke_i	i	n/a
190.1295	0.12	380259	keystroke_q	q	n/a
190.2795	0.15	380559	keystroke_u	u	n/a
190.7145	0.134	381429	keystroke_i	i	n/a
190.9835	0.151	381967	keystroke_d	d	n/a
191.434	0.1505	382868	keystroke_Key.enter	Key.enter	n/a
191.619	10.7135	383238	prompt	n/a	affects values systematic quit\n
192.589	0.135	385178	keystroke_a	a	n/a
192.8885	0.106	385777	keystroke_f	f	n/a
193.0545	0.105	386109	keystroke_f	f	n/a
193.2645	0.119	386529	keystroke_e	e	n/a
193.5195	0.105	387039	keystroke_c	c	n/a
193.7585	0.1505	387517	keystroke_t	t	n/a
193.999	0.135	387998	keystroke_s	s	n/a
194.314	0.12	388628	keystroke_Key.space	Key.space	n/a
194.7045	0.1045	389409	keystroke_v	v	n/a
194.884	0.12	389768	keystroke_a	a	n/a
195.0195	0.12	390039	keystroke_l	l	n/a
195.304	0.12	390608	keystroke_u	u	n/a
195.589	0.1205	391178	keystroke_e	e	n/a
195.7995	0.12	391599	keystroke_s	s	n/a
197.2235	0.165	394447	keystroke_Key.space	Key.space	n/a
197.5535	0.1205	395107	keystroke_s	s	n/a
197.9435	0.1055	395887	keystroke_y	y	n/a
198.259	0.1645	396518	keystroke_s	s	n/a
198.529	0.135	397058	keystroke_t	t	n/a
198.739	0.12	397478	keystroke_e	e	n/a
198.904	0.1205	397808	keystroke_m	m	n/a
199.0845	0.134	398169	keystroke_a	a	n/a
199.2785	0.105	398557	keystroke_t	t	n/a
199.4135	0.151	398827	keystroke_i	i	n/a
199.609	0.1345	399218	keystroke_c	c	n/a
200.3885	0.135	400777	keystroke_Key.space	Key.space	n/a
200.869	0.12	401738	keystroke_q	q	n/a
201.0495	0.18	402099	keystroke_u	u	n/a
201.2145	0.135	402429	keystroke_i	i	n/a
201.7095	0.1345	403419	keystroke_t	t	n/a
202.159	0.165	404318	keystroke_Key.enter	Key.enter	n/a
202.3385	11.8005	404677	prompt	n/a	kiss reflections lung verizon\n
203.3595	0.12	406719	keystroke_k	k	n/a
203.599	0.105	407198	keystroke_i	i	n/a
203.8245	0.105	407649	keystroke_s	s	n/a
203.9735	0.136	407947	keystroke_s	s	n/a
204.604	0.12	409208	keystroke_Key.space	Key.space	n/a
204.994	0.12	409988	keystroke_r	r	n/a
205.2495	0.134	410499	keystroke_e	e	n/a
205.504	0.1205	411008	keystroke_f	f	n/a
205.8045	0.195	411609	keystroke_e	e	n/a
206.449	0.135	412898	keystroke_Key.backspace	Key.backspace	n/a
206.7345	0.105	413469	keystroke_l	l	n/a
206.899	0.1205	413798	keystroke_e	e	n/a
207.154	0.106	414308	keystroke_c	c	n/a
207.3795	0.135	414759	keystroke_t	t	n/a
207.4395	0.18	414879	keystroke_i	i	n/a
207.5595	0.15	415119	keystroke_o	o	n/a
207.71	0.1195	415420	keystroke_n	n	n/a
207.889	0.1195	415778	keystroke_s	s	n/a
208.219	0.1505	416438	keystroke_Key.space	Key.space	n/a
208.5635	0.1355	417127	keystroke_l	l	n/a
208.8195	0.1805	417639	keystroke_u	u	n/a
209.1635	0.135	418327	keystroke_n	n	n/a
209.5545	0.15	419109	keystroke_g	g	n/a
209.7645	0.135	419529	keystroke_Key.space	Key.space	n/a
210.1395	0.15	420279	keystroke_v	v	n/a
210.2745	0.105	420549	keystroke_i	i	n/a
210.9195	0.12	421839	keystroke_Key.backspace	Key.backspace	n/a
211.549	0.1205	423098	keystroke_e	e	n/a
211.714	0.12	423428	keystroke_r	r	n/a
211.8495	0.09	423699	keystroke_i	i	n/a
212.255	0.134	424510	keystroke_z	z	n/a
212.465	0.1345	424930	keystroke_o	o	n/a
212.674	0.1355	425348	keystroke_n	n	n/a
213.979	0.15	427958	keystroke_Key.enter	Key.enter	n/a
214.1445	9.7935	428289	prompt	n/a	organized salmon notes bowl\n
215.6295	0.15	431259	keystroke_o	o	n/a
215.8095	0.134	431619	keystroke_r	r	n/a
216.0645	0.105	432129	keystroke_g	g	n/a
216.2145	0.18	432429	keystroke_a	a	n/a
216.3495	0.09	432699	keystroke_n	n	n/a
216.4845	0.12	432969	keystroke_i	i	n/a
216.6645	0.105	433329	keystroke_z	z	n/a
216.8895	0.12	433779	keystroke_e	e	n/a
217.1445	0.105	434289	keystroke_d	d	n/a
217.3845	0.135	434769	keystroke_Key.space	Key.space	n/a
217.579	0.135	435158	keystroke_s	s	n/a
218.164	0.12	436328	keystroke_a	a	n/a
218.374	0.12	436748	keystroke_l	l	n/a
218.584	0.0905	437168	keystroke_m	m	n/a
218.839	0.105	437678	keystroke_o	o	n/a
219.379	0.15	438758	keystroke_n	n	n/a
219.814	0.12	439628	keystroke_Key.space	Key.space	n/a
220.054	0.09	440108	keystroke_n	n	n/a
220.264	0.075	440528	keystroke_o	o	n/a
220.369	0.12	440738	keystroke_t	t	n/a
220.579	0.12	441158	keystroke_e	e	n/a
220.819	0.105	441638	keystroke_s	s	n/a
221.014	0.1205	442028	keystroke_Key.space	Key.space	n/a
221.764	0.166	443528	keystroke_b	b	n/a
222.064	0.135	444128	keystroke_o	o	n/a
222.769	0.1055	445538	keystroke_w	w	n/a
222.9195	0.134	445839	keystroke_l	l	n/a
223.774	0.15	447548	keystroke_Key.enter	Key.enter	n/a
223.947	10.0855	447894	prompt	n/a	cons divine who're constructed\n
224.914	0.12	449828	keystroke_c	c	n/a
225.004	0.1355	450008	keystroke_o	o	n/a
225.1845	0.1345	450369	keystroke_n	n	n/a
225.349	0.12	450698	keystroke_s	s	n/a
225.529	0.15	451058	keystroke_Key.space	Key.space	n/a
225.859	0.135	451718	keystroke_d	d	n/a
226.4895	0.15	452979	keystroke_i	i	n/a
226.76	0.1495	453520	keystroke_v	v	n/a
226.924	0.105	453848	keystroke_i	i	n/a
227.074	0.15	454148	keystroke_n	n	n/a
227.344	0.135	454688	keystroke_e	e	n/a
227.524	0.1345	455048	keystroke_Key.space	Key.space	n/a
227.855	0.1345	455710	keystroke_w	w	n/a
228.0345	0.12	456069	keystroke_h	h	n/a
228.379	0.121	456758	keystroke_o	o	n/a
228.799	0.135	457598	keystroke_'	'	n/a
229.234	0.135	458468	keystroke_r	r	n/a
229.444	0.15	458888	keystroke_e	e	n/a
230.179	0.12	460358	keystroke_Key.space	Key.space	n/a
230.4335	0.135	460867	keystroke_c	c	n/a
230.5835	0.105	461167	keystroke_o	o	n/a
230.7485	0.121	461497	keystroke_n	n	n/a
231.5145	0.134	463029	keystroke_s	s	n/a
231.74	0.075	463480	keystroke_t	t	n/a
231.934	0.12	463868	keystroke_r	r	n/a
232.099	0.12	464198	keystroke_u	u	n/a
232.4595	0.104	464919	keystroke_c	c	n/a
232.8185	0.151	465637	keystroke_t	t	n/a
233.134	0.1355	466268	keystroke_e	e	n/a
233.404	0.105	466808	keystroke_d	d	n/a
233.884	0.135	467768	keystroke_Key.enter	Key.enter	n/a
234.04	15.577	468080	prompt	n/a	punishment consortium educated watts\n
234.9795	0.1495	469959	keystroke_p	p	n/a
235.2775	0.0015	470555	keystroke_Key.f15	Key.f15	n/a
235.549	0.135	471098	keystroke_u	u	n/a
235.879	0.105	471758	keystroke_n	n	n/a
236.06	0.104	472120	keystroke_i	i	n/a
236.2095	0.1045	472419	keystroke_s	s	n/a
236.299	0.09	472598	keystroke_h	h	n/a
236.554	0.1195	473108	keystroke_m	m	n/a
236.704	0.135	473408	keystroke_e	e	n/a
236.854	0.12	473708	keystroke_n	n	n/a
236.989	0.135	473978	keystroke_t	t	n/a
237.334	0.135	474668	keystroke_Key.space	Key.space	n/a
237.7695	0.134	475539	keystroke_c	c	n/a
237.9485	0.15	475897	keystroke_o	o	n/a
238.1745	0.105	476349	keystroke_n	n	n/a
238.4595	0.15	476919	keystroke_s	s	n/a
238.6245	0.1195	477249	keystroke_o	o	n/a
238.8485	0.106	477697	keystroke_r	r	n/a
239.3585	0.121	478717	keystroke_t	t	n/a
239.704	0.15	479408	keystroke_u	u	n/a
240.784	0.12	481568	keystroke_Key.backspace	Key.backspace	n/a
241.3695	0.0595	482739	keystroke_i	i	n/a
241.5935	0.181	483187	keystroke_o	o	n/a
242.329	0.12	484658	keystroke_Key.backspace	Key.backspace	n/a
243.634	0.135	487268	keystroke_u	u	n/a
244.129	0.09	488258	keystroke_m	m	n/a
245.5835	0.1655	491167	keystroke_Key.space	Key.space	n/a
246.124	0.105	492248	keystroke_e	e	n/a
246.349	0.12	492698	keystroke_d	d	n/a
246.529	0.091	493058	keystroke_u	u	n/a
246.754	0.1055	493508	keystroke_c	c	n/a
246.934	0.135	493868	keystroke_a	a	n/a
247.084	0.1355	494168	keystroke_t	t	n/a
247.3095	0.0895	494619	keystroke_e	e	n/a
247.5185	0.1195	495037	keystroke_d	d	n/a
247.669	0.1345	495338	keystroke_Key.space	Key.space	n/a
247.8185	0.136	495637	keystroke_w	w	n/a
248.0735	0.106	496147	keystroke_a	a	n/a
248.5695	0.104	497139	keystroke_t	t	n/a
248.7485	0.091	497497	keystroke_t	t	n/a
248.9295	0.119	497859	keystroke_s	s	n/a
249.454	0.15	498908	keystroke_Key.enter	Key.enter	n/a
249.6245	11.9525	499249	prompt	n/a	columns useful dodge reviewed\n
250.9845	0.1495	501969	keystroke_c	c	n/a
251.149	0.12	502298	keystroke_o	o	n/a
251.374	0.1205	502748	keystroke_l	l	n/a
251.6295	0.1045	503259	keystroke_u	u	n/a
252.469	0.12	504938	keystroke_m	m	n/a
252.709	0.12	505418	keystroke_n	n	n/a
252.9495	0.119	505899	keystroke_s	s	n/a
253.609	0.12	507218	keystroke_Key.space	Key.space	n/a
253.849	0.09	507698	keystroke_u	u	n/a
253.969	0.105	507938	keystroke_s	s	n/a
254.1935	0.136	508387	keystroke_e	e	n/a
254.5695	0.1355	509139	keystroke_f	f	n/a
254.7055	0.134	509411	keystroke_u	u	n/a
254.944	0.1045	509888	keystroke_l	l	n/a
255.619	0.135	511238	keystroke_Key.space	Key.space	n/a
255.859	0.105	511718	keystroke_d	d	n/a
256.6845	0.15	513369	keystroke_o	o	n/a
257.15	0.134	514300	keystroke_d	d	n/a
257.7035	0.12	515407	keystroke_g	g	n/a
257.9285	0.121	515857	keystroke_e	e	n/a
258.289	0.135	516578	keystroke_Key.space	Key.space	n/a
258.6945	0.135	517389	keystroke_r	r	n/a
259.174	0.135	518348	keystroke_e	e	n/a
259.594	0.15	519188	keystroke_v	v	n/a
259.7595	0.105	519519	keystroke_i	i	n/a
259.9235	0.1505	519847	keystroke_e	e	n/a
260.134	0.1505	520268	keystroke_w	w	n/a
260.5095	0.1045	521019	keystroke_e	e	n/a
260.7645	0.1045	521529	keystroke_d	d	n/a
261.409	0.15	522818	keystroke_Key.enter	Key.enter	n/a
261.591	15.7595	523182	prompt	n/a	allied pantyhose hypothetical alternate\n
262.594	0.12	525188	keystroke_a	a	n/a
262.789	0.285	525578	keystroke_l	l	n/a
263.449	0.12	526898	keystroke_l	l	n/a
263.689	0.15	527378	keystroke_i	i	n/a
263.9135	0.151	527827	keystroke_e	e	n/a
264.1835	0.135	528367	keystroke_d	d	n/a
264.3635	0.15	528727	keystroke_Key.space	Key.space	n/a
264.6335	0.15	529267	keystroke_p	p	n/a
264.799	0.12	529598	keystroke_a	a	n/a
264.8895	0.09	529779	keystroke_n	n	n/a
265.2335	0.075	530467	keystroke_y	y	n/a
266.1185	0.1355	532237	keystroke_Key.backspace	Key.backspace	n/a
266.2845	0.1495	532569	keystroke_t	t	n/a
266.539	0.0895	533078	keystroke_y	y	n/a
267.049	0.12	534098	keystroke_h	h	n/a
267.244	0.12	534488	keystroke_o	o	n/a
267.424	0.09	534848	keystroke_s	s	n/a
267.6335	0.136	535267	keystroke_e	e	n/a
267.9035	0.136	535807	keystroke_Key.space	Key.space	n/a
268.9985	0.135	537997	keystroke_h	h	n/a
269.3895	0.135	538779	keystroke_y	y	n/a
269.6745	0.1045	539349	keystroke_p	p	n/a
269.8985	0.09	539797	keystroke_o	o	n/a
270.1985	0.136	540397	keystroke_t	t	n/a
270.304	0.1195	540608	keystroke_h	h	n/a
271.459	0.089	542918	keystroke_e	e	n/a
271.9245	0.1495	543849	keystroke_t	t	n/a
272.7195	0.1795	545439	keystroke_i	i	n/a
273.063	0.105	546126	keystroke_c	c	n/a
273.289	0.12	546578	keystroke_a	a	n/a
273.454	0.1205	546908	keystroke_l	l	n/a
273.934	0.15	547868	keystroke_Key.space	Key.space	n/a
274.4435	0.15	548887	keystroke_a	a	n/a
274.579	0.1345	549158	keystroke_l	l	n/a
274.9385	0.105	549877	keystroke_t	t	n/a
275.6145	0.1635	551229	keystroke_e	e	n/a
275.808	0.1665	551616	keystroke_r	r	n/a
275.959	0.1045	551918	keystroke_n	n	n/a
276.1085	0.1205	552217	keystroke_a	a	n/a
276.259	0.12	552518	keystroke_t	t	n/a
276.515	0.1495	553030	keystroke_e	e	n/a
277.189	0.15	554378	keystroke_Key.enter	Key.enter	n/a
277.3575	11.1845	554715	prompt	n/a	periodically pride location officer\n
278.4045	0.179	556809	keystroke_p	p	n/a
278.719	0.12	557438	keystroke_e	e	n/a
278.899	0.12	557798	keystroke_r	r	n/a
279.064	0.165	558128	keystroke_i	i	n/a
279.3485	0.1355	558697	keystroke_o	o	n/a
279.6485	0.121	559297	keystroke_d	d	n/a
279.8595	0.12	559719	keystroke_i	i	n/a
280.084	0.135	560168	keystroke_c	c	n/a
280.294	0.15	560588	keystroke_a	a	n/a
280.564	0.09	561128	keystroke_l	l	n/a
280.744	0.12	561488	keystroke_l	l	n/a
281.044	0.12	562088	keystroke_y	y	n/a
281.404	0.135	562808	keystroke_Key.space	Key.space	n/a
281.689	0.1205	563378	keystroke_p	p	n/a
281.839	0.12	563678	keystroke_r	r	n/a
281.975	0.104	563950	keystroke_i	i	n/a
282.169	0.12	564338	keystroke_c	c	n/a
282.469	0.135	564938	keystroke_e	e	n/a
282.9935	0.075	565987	keystroke_Key.backspace	Key.backspace	n/a
283.1735	0.0905	566347	keystroke_Key.backspace	Key.backspace	n/a
283.31	0.149	566620	keystroke_d	d	n/a
283.594	0.15	567188	keystroke_e	e	n/a
283.923	0.1505	567846	keystroke_Key.space	Key.space	n/a
284.524	0.1205	569048	keystroke_l	l	n/a
284.764	0.12	569528	keystroke_o	o	n/a
285.034	0.105	570068	keystroke_c	c	n/a
285.2435	0.136	570487	keystroke_a	a	n/a
285.4245	0.135	570849	keystroke_t	t	n/a
285.4395	0.179	570879	keystroke_i	i	n/a
285.5285	0.21	571057	keystroke_o	o	n/a
285.7685	0.135	571537	keystroke_n	n	n/a
286.0685	0.1805	572137	keystroke_Key.space	Key.space	n/a
286.6535	0.1355	573307	keystroke_o	o	n/a
286.9535	0.045	573907	keystroke_f	f	n/a
287.074	0.12	574148	keystroke_f	f	n/a
287.2545	0.1045	574509	keystroke_i	i	n/a
287.4045	0.1195	574809	keystroke_c	c	n/a
287.7035	0.135	575407	keystroke_e	e	n/a
287.884	0.1195	575768	keystroke_r	r	n/a
288.409	0.1195	576818	keystroke_Key.enter	Key.enter	n/a
288.5495	11.208	577099	prompt	n/a	programmer initiatives clients shoot\n
289.5945	0.1045	579189	keystroke_p	p	n/a
289.729	0.18	579458	keystroke_r	r	n/a
289.924	0.09	579848	keystroke_o	o	n/a
290.674	0.12	581348	keystroke_g	g	n/a
290.959	0.1045	581918	keystroke_r	r	n/a
291.184	0.15	582368	keystroke_a	a	n/a
291.5285	0.0905	583057	keystroke_m	m	n/a
291.679	0.1195	583358	keystroke_m	m	n/a
291.9185	0.151	583837	keystroke_e	e	n/a
292.0985	0.151	584197	keystroke_r	r	n/a
292.4885	0.135	584977	keystroke_Key.space	Key.space	n/a
292.7885	0.09	585577	keystroke_i	i	n/a
292.9685	0.15	585937	keystroke_n	n	n/a
293.704	0.12	587408	keystroke_i	i	n/a
293.869	0.1345	587738	keystroke_t	t	n/a
294.049	0.12	588098	keystroke_i	i	n/a
294.349	0.1195	588698	keystroke_a	a	n/a
294.549	0.001	589098	keystroke_Key.f15	Key.f15	n/a
294.889	0.135	589778	keystroke_t	t	n/a
294.994	0.134	589988	keystroke_i	i	n/a
295.219	0.12	590438	keystroke_v	v	n/a
295.489	0.12	590978	keystroke_e	e	n/a
295.7435	0.121	591487	keystroke_s	s	n/a
296.3735	0.136	592747	keystroke_Key.space	Key.space	n/a
296.6285	0.1055	593257	keystroke_c	c	n/a
296.7185	0.1805	593437	keystroke_l	l	n/a
296.884	0.105	593768	keystroke_i	i	n/a
297.109	0.165	594218	keystroke_e	e	n/a
297.304	0.15	594608	keystroke_n	n	n/a
297.4395	0.1045	594879	keystroke_t	t	n/a
297.694	0.1205	595388	keystroke_s	s	n/a
298.144	0.1345	596288	keystroke_Key.space	Key.space	n/a
298.3535	0.135	596707	keystroke_s	s	n/a
298.4585	0.151	596917	keystroke_h	h	n/a
298.7285	0.106	597457	keystroke_o	o	n/a
298.9385	0.105	597877	keystroke_o	o	n/a
299.0585	0.15	598117	keystroke_t	t	n/a
299.584	0.1505	599168	keystroke_Key.enter	Key.enter	n/a
299.7705	10.4075	599541	prompt	n/a	gods switch assign remarkable\n
300.934	0.135	601868	keystroke_g	g	n/a
301.084	0.135	602168	keystroke_o	o	n/a
301.309	0.135	602618	keystroke_d	d	n/a
301.7585	0.1205	603517	keystroke_s	s	n/a
302.1785	0.135	604357	keystroke_Key.space	Key.space	n/a
302.4485	0.106	604897	keystroke_s	s	n/a
302.7035	0.121	605407	keystroke_w	w	n/a
302.8535	0.105	605707	keystroke_i	i	n/a
303.3935	0.15	606787	keystroke_t	t	n/a
303.8745	0.134	607749	keystroke_c	c	n/a
304.2195	0.135	608439	keystroke_h	h	n/a
304.849	0.105	609698	keystroke_Key.space	Key.space	n/a
305.104	0.135	610208	keystroke_a	a	n/a
305.359	0.09	610718	keystroke_s	s	n/a
305.5385	0.06	611077	keystroke_s	s	n/a
305.6895	0.119	611379	keystroke_i	i	n/a
305.8835	0.135	611767	keystroke_g	g	n/a
306.0785	0.136	612157	keystroke_n	n	n/a
306.6485	0.09	613297	keystroke_Key.space	Key.space	n/a
306.9795	0.12	613959	keystroke_r	r	n/a
307.4585	0.12	614917	keystroke_e	e	n/a
307.6535	0.1205	615307	keystroke_m	m	n/a
307.924	0.149	615848	keystroke_a	a	n/a
308.194	0.1355	616388	keystroke_r	r	n/a
308.5695	0.15	617139	keystroke_k	k	n/a
308.8385	0.15	617677	keystroke_a	a	n/a
309.2435	0.1355	618487	keystroke_b	b	n/a
309.3635	0.121	618727	keystroke_l	l	n/a
309.514	0.1195	619028	keystroke_e	e	n/a
310.024	0.12	620048	keystroke_Key.enter	Key.enter	n/a
310.19	10.179	620380	prompt	n/a	friendship robot attract provider\n
311.074	0.165	622148	keystroke_f	f	n/a
311.329	0.12	622658	keystroke_r	r	n/a
312.064	0.15	624128	keystroke_i	i	n/a
312.229	0.165	624458	keystroke_e	e	n/a
312.379	0.1055	624758	keystroke_n	n	n/a
312.619	0.09	625238	keystroke_d	d	n/a
312.949	0.15	625898	keystroke_s	s	n/a
313.069	0.15	626138	keystroke_h	h	n/a
313.264	0.15	626528	keystroke_i	i	n/a
313.8045	0.1495	627609	keystroke_p	p	n/a
314.2385	0.15	628477	keystroke_Key.space	Key.space	n/a
314.4335	0.15	628867	keystroke_r	r	n/a
314.5835	0.1055	629167	keystroke_o	o	n/a
314.809	0.12	629618	keystroke_b	b	n/a
314.944	0.1345	629888	keystroke_o	o	n/a
315.1985	0.15	630397	keystroke_t	t	n/a
315.5435	0.1205	631087	keystroke_Key.space	Key.space	n/a
315.8445	0.1345	631689	keystroke_a	a	n/a
316.129	0.09	632258	keystroke_t	t	n/a
316.294	0.09	632588	keystroke_t	t	n/a
316.504	0.105	633008	keystroke_r	r	n/a
316.699	0.105	633398	keystroke_a	a	n/a
316.969	0.105	633938	keystroke_c	c	n/a
317.2085	0.135	634417	keystroke_t	t	n/a
317.4935	0.1345	634987	keystroke_Key.space	Key.space	n/a
317.7335	0.12	635467	keystroke_p	p	n/a
317.8835	0.15	635767	keystroke_r	r	n/a
318.019	0.0745	636038	keystroke_o	o	n/a
318.784	0.12	637568	keystroke_v	v	n/a
318.964	0.135	637928	keystroke_i	i	n/a
319.2185	0.105	638437	keystroke_d	d	n/a
319.549	0.15	639098	keystroke_e	e	n/a
319.759	0.135	639518	keystroke_r	r	n/a
320.193	0.151	640386	keystroke_Key.enter	Key.enter	n/a
320.385	12.197	640770	prompt	n/a	covered distinguished zdnet posters\n
321.4685	0.1345	642937	keystroke_c	c	n/a
321.633	0.105	643266	keystroke_o	o	n/a
321.979	0.195	643958	keystroke_v	v	n/a
322.3685	0.1205	644737	keystroke_e	e	n/a
322.564	0.135	645128	keystroke_r	r	n/a
322.818	0.106	645636	keystroke_e	e	n/a
323.0735	0.105	646147	keystroke_d	d	n/a
323.389	0.1345	646778	keystroke_Key.space	Key.space	n/a
323.9895	0.1645	647979	keystroke_d	d	n/a
324.1685	0.1055	648337	keystroke_i	i	n/a
324.3485	0.135	648697	keystroke_s	s	n/a
324.6185	0.1355	649237	keystroke_t	t	n/a
324.844	0.1195	649688	keystroke_i	i	n/a
325.0535	0.1355	650107	keystroke_n	n	n/a
325.6385	0.1055	651277	keystroke_g	g	n/a
325.8035	0.195	651607	keystroke_u	u	n/a
325.9835	0.15	651967	keystroke_i	i	n/a
326.269	0.105	652538	keystroke_s	s	n/a
326.883	0.106	653766	keystroke_h	h	n/a
327.064	0.165	654128	keystroke_e	e	n/a
327.349	0.12	654698	keystroke_d	d	n/a
327.574	0.165	655148	keystroke_Key.space	Key.space	n/a
328.909	0.105	657818	keystroke_z	z	n/a
329.3295	0.134	658659	keystroke_d	d	n/a
329.5535	0.09	659107	keystroke_n	n	n/a
330.1695	0.1345	660339	keystroke_e	e	n/a
330.4085	0.1355	660817	keystroke_t	t	n/a
330.664	0.134	661328	keystroke_Key.space	Key.space	n/a
330.949	0.0895	661898	keystroke_p	p	n/a
331.159	0.0615	662318	keystroke_o	o	n/a
331.2035	0.1505	662407	keystroke_s	s	n/a
331.3985	0.1355	662797	keystroke_t	t	n/a
331.669	0.165	663338	keystroke_e	e	n/a
331.818	0.136	663636	keystroke_r	r	n/a
332.1045	0.1045	664209	keystroke_s	s	n/a
332.449	0.12	664898	keystroke_Key.enter	Key.enter	n/a
332.5895	10.5715	665179	prompt	n/a	took syracuse files boss\n
333.784	0.135	667568	keystroke_t	t	n/a
333.964	0.105	667928	keystroke_o	o	n/a
334.264	0.075	668528	keystroke_o	o	n/a
334.549	0.135	669098	keystroke_k	k	n/a
334.878	0.121	669756	keystroke_Key.space	Key.space	n/a
335.209	0.12	670418	keystroke_s	s	n/a
335.569	0.12	671138	keystroke_y	y	n/a
335.7485	0.121	671497	keystroke_r	r	n/a
335.9295	0.1345	671859	keystroke_a	a	n/a
336.2445	0.104	672489	keystroke_c	c	n/a
336.363	0.106	672726	keystroke_u	u	n/a
336.783	0.1505	673566	keystroke_r	r	n/a
337.504	0.1345	675008	keystroke_Key.backspace	Key.backspace	n/a
337.6995	0.089	675399	keystroke_s	s	n/a
338.2085	0.15	676417	keystroke_e	e	n/a
338.748	0.135	677496	keystroke_Key.space	Key.space	n/a
339.094	0.1495	678188	keystroke_f	f	n/a
339.258	0.135	678516	keystroke_i	i	n/a
339.514	0.134	679028	keystroke_l	l	n/a
339.678	0.151	679356	keystroke_e	e	n/a
340.264	0.135	680528	keystroke_s	s	n/a
340.473	0.135	680946	keystroke_Key.space	Key.space	n/a
340.758	0.166	681516	keystroke_b	b	n/a
340.909	0.12	681818	keystroke_o	o	n/a
341.179	0.0895	682358	keystroke_s	s	n/a
341.3885	0.075	682777	keystroke_s	s	n/a
341.4935	0.0445	682987	keystroke_s	s	n/a
342.289	0.1495	684578	keystroke_Key.backspace	Key.backspace	n/a
342.963	0.165	685926	keystroke_Key.enter	Key.enter	n/a
343.1805	9.3365	686361	prompt	n/a	skilled hansen baptist perl\n
344.1795	0.149	688359	keystroke_s	s	n/a
344.3435	0.0905	688687	keystroke_k	k	n/a
344.5835	0.166	689167	keystroke_i	i	n/a
344.9885	0.046	689977	keystroke_l	l	n/a
345.1385	0.09	690277	keystroke_l	l	n/a
345.394	0.1045	690788	keystroke_e	e	n/a
345.6335	0.105	691267	keystroke_d	d	n/a
345.8885	0.165	691777	keystroke_Key.space	Key.space	n/a
346.2185	0.106	692437	keystroke_h	h	n/a
346.3835	0.135	692767	keystroke_a	a	n/a
346.4885	0.12	692977	keystroke_n	n	n/a
346.6835	0.1055	693367	keystroke_s	s	n/a
346.9095	0.12	693819	keystroke_e	e	n/a
347.1185	0.1045	694237	keystroke_n	n	n/a
347.374	0.1195	694748	keystroke_Key.space	Key.space	n/a
347.719	0.105	695438	keystroke_b	b	n/a
348.003	0.135	696006	keystroke_a	a	n/a
348.8585	0.12	697717	keystroke_p	p	n/a
349.114	0.1195	698228	keystroke_t	t	n/a
349.249	0.105	698498	keystroke_i	i	n/a
349.474	0.1045	698948	keystroke_s	s	n/a
349.6835	0.135	699367	keystroke_t	t	n/a
350.793	0.09	701586	keystroke_Key.space	Key.space	n/a
351.0635	0.12	702127	keystroke_p	p	n/a
351.3035	0.1055	702607	keystroke_e	e	n/a
351.4245	0.149	702849	keystroke_r	r	n/a
351.6335	0.105	703267	keystroke_l	l	n/a
352.368	0.135	704736	keystroke_Key.enter	Key.enter	n/a
352.525	14.122	705050	prompt	n/a	criminal smilies notebook stability\n
353.4935	0.15	706987	keystroke_c	c	n/a
353.7635	0.135	707527	keystroke_r	r	n/a
353.7855	0	707571	keystroke_Key.f15	Key.f15	n/a
353.8085	0.12	707617	keystroke_i	i	n/a
354.0485	0.105	708097	keystroke_m	m	n/a
354.1985	0.1355	708397	keystroke_i	i	n/a
354.393	0.15	708786	keystroke_n	n	n/a
354.633	0.105	709266	keystroke_i	i	n/a
355.399	0.1345	710798	keystroke_Key.backspace	Key.backspace	n/a
355.6395	0.134	711279	keystroke_a	a	n/a
356.0735	0.105	712147	keystroke_l	l	n/a
356.524	0.134	713048	keystroke_Key.space	Key.space	n/a
357.1085	0.135	714217	keystroke_s	s	n/a
357.2735	0.15	714547	keystroke_m	m	n/a
357.4985	0.105	714997	keystroke_i	i	n/a
357.768	0.09	715536	keystroke_l	l	n/a
357.9485	0.1205	715897	keystroke_i	i	n/a
358.2785	0.166	716557	keystroke_e	e	n/a
358.744	0.1495	717488	keystroke_s	s	n/a
359.2685	0.1205	718537	keystroke_Key.space	Key.space	n/a
359.6585	0.12	719317	keystroke_n	n	n/a
359.9135	0.1055	719827	keystroke_o	o	n/a
360.0635	0.136	720127	keystroke_t	t	n/a
360.3635	0.15	720727	keystroke_e	e	n/a
361.069	0.1345	722138	keystroke_b	b	n/a
361.459	0.074	722918	keystroke_o	o	n/a
361.6685	0.09	723337	keystroke_o	o	n/a
362.1635	0.1645	724327	keystroke_k	k	n/a
362.7935	0.15	725587	keystroke_Key.space	Key.space	n/a
363.1545	0.134	726309	keystroke_s	s	n/a
363.7385	0.1195	727477	keystroke_t	t	n/a
364.173	0.1655	728346	keystroke_a	a	n/a
364.5485	0.135	729097	keystroke_b	b	n/a
364.788	0.1215	729576	keystroke_i	i	n/a
365.044	0.119	730088	keystroke_l	l	n/a
365.238	0.121	730476	keystroke_i	i	n/a
365.463	0.166	730926	keystroke_t	t	n/a
365.749	0.135	731498	keystroke_y	y	n/a
366.5135	0.12	733027	keystroke_Key.enter	Key.enter	n/a
366.6545	12.1335	733309	prompt	n/a	aged screensavers naval governance\n
367.6235	0.165	735247	keystroke_a	a	n/a
367.8335	0.15	735667	keystroke_g	g	n/a
368.0735	0.121	736147	keystroke_e	e	n/a
368.3135	0.12	736627	keystroke_d	d	n/a
368.5985	0.1045	737197	keystroke_Key.space	Key.space	n/a
368.8835	0.105	737767	keystroke_s	s	n/a
369.4535	0.135	738907	keystroke_c	c	n/a
369.723	0.136	739446	keystroke_r	r	n/a
370.3835	0.09	740767	keystroke_e	e	n/a
370.5785	0.105	741157	keystroke_e	e	n/a
370.7585	0.105	741517	keystroke_n	n	n/a
370.9835	0.105	741967	keystroke_s	s	n/a
371.284	0.149	742568	keystroke_a	a	n/a
371.5535	0.1505	743107	keystroke_v	v	n/a
371.8535	0.135	743707	keystroke_e	e	n/a
372.0185	0.105	744037	keystroke_r	r	n/a
372.2735	0.1055	744547	keystroke_s	s	n/a
372.6035	0.09	745207	keystroke_Key.space	Key.space	n/a
372.8595	0.1045	745719	keystroke_n	n	n/a
373.008	0.135	746016	keystroke_a	a	n/a
373.3685	0.0145	746737	keystroke_v	v	n/a
373.4585	0.1045	746917	keystroke_a	a	n/a
373.7435	0.135	747487	keystroke_l	l	n/a
374.6585	0.15	749317	keystroke_Key.space	Key.space	n/a
375.3185	0.12	750637	keystroke_g	g	n/a
375.5135	0.0905	751027	keystroke_o	o	n/a
375.6785	0.12	751357	keystroke_v	v	n/a
375.9935	0.165	751987	keystroke_e	e	n/a
376.2635	0.135	752527	keystroke_r	r	n/a
376.5335	0.135	753067	keystroke_n	n	n/a
376.9085	0.1505	753817	keystroke_a	a	n/a
377.1185	0.0905	754237	keystroke_n	n	n/a
377.299	0.15	754598	keystroke_c	c	n/a
377.974	0.1195	755948	keystroke_e	e	n/a
378.6485	0.12	757297	keystroke_Key.enter	Key.enter	n/a
378.7965	11.9075	757593	prompt	n/a	soup guide calculations lucy\n
379.9985	0.1205	759997	keystroke_s	s	n/a
380.1485	0.24	760297	keystroke_o	o	n/a
380.3135	0.195	760627	keystroke_u	u	n/a
380.5985	0.1205	761197	keystroke_p	p	n/a
381.5135	0.15	763027	keystroke_Key.space	Key.space	n/a
381.919	0.1195	763838	keystroke_g	g	n/a
382.1885	0.1505	764377	keystroke_i	i	n/a
383.208	0.136	766416	keystroke_Key.backspace	Key.backspace	n/a
383.613	0.1655	767226	keystroke_u	u	n/a
383.9135	0.105	767827	keystroke_i	i	n/a
384.1535	0.105	768307	keystroke_d	d	n/a
384.379	0.1195	768758	keystroke_e	e	n/a
385.1885	0.135	770377	keystroke_Key.space	Key.space	n/a
385.7585	0.106	771517	keystroke_c	c	n/a
385.9985	0.1505	771997	keystroke_a	a	n/a
386.1785	0.09	772357	keystroke_l	l	n/a
386.824	0.1345	773648	keystroke_c	c	n/a
386.974	0.12	773948	keystroke_u	u	n/a
387.3495	0.1195	774699	keystroke_l	l	n/a
387.544	0.165	775088	keystroke_a	a	n/a
387.814	0.105	775628	keystroke_t	t	n/a
387.829	0.12	775658	keystroke_i	i	n/a
387.859	0.21	775718	keystroke_o	o	n/a
388.099	0.15	776198	keystroke_n	n	n/a
388.428	0.121	776856	keystroke_s	s	n/a
388.879	0.12	777758	keystroke_Key.space	Key.space	n/a
389.12	0.1485	778240	keystroke_l	l	n/a
389.284	0.165	778568	keystroke_u	u	n/a
389.5385	0.135	779077	keystroke_c	c	n/a
389.9285	0.1655	779857	keystroke_y	y	n/a
390.529	0.164	781058	keystroke_Key.enter	Key.enter	n/a
390.7095	10.269	781419	prompt	n/a	greatest elements genuine picking\n
391.804	0.104	783608	keystroke_g	g	n/a
392.0885	0.12	784177	keystroke_r	r	n/a
392.3135	0.1205	784627	keystroke_e	e	n/a
392.5085	0.1055	785017	keystroke_a	a	n/a
392.6575	0.121	785315	keystroke_t	t	n/a
392.884	0.0895	785768	keystroke_e	e	n/a
393.109	0.1045	786218	keystroke_s	s	n/a
393.3485	0.12	786697	keystroke_t	t	n/a
393.5885	0.12	787177	keystroke_Key.space	Key.space	n/a
393.814	0.1195	787628	keystroke_e	e	n/a
393.9635	0.09	787927	keystroke_l	l	n/a
394.0985	0.15	788197	keystroke_e	e	n/a
394.3385	0.135	788677	keystroke_m	m	n/a
394.624	0.1345	789248	keystroke_e	e	n/a
394.8335	0.15	789667	keystroke_n	n	n/a
394.9685	0.12	789937	keystroke_t	t	n/a
395.2085	0.135	790417	keystroke_s	s	n/a
395.434	0.1185	790868	keystroke_Key.space	Key.space	n/a
395.794	0.1195	791588	keystroke_g	g	n/a
396.454	0.209	792908	keystroke_e	e	n/a
396.6795	0.0745	793359	keystroke_n	n	n/a
397.008	0.12	794016	keystroke_u	u	n/a
397.2335	0.106	794467	keystroke_i	i	n/a
397.399	0.12	794798	keystroke_n	n	n/a
397.654	0.1495	795308	keystroke_e	e	n/a
397.983	0.135	795966	keystroke_Key.space	Key.space	n/a
398.464	0.135	796928	keystroke_p	p	n/a
399.1985	0.1355	798397	keystroke_i	i	n/a
399.423	0.1205	798846	keystroke_c	c	n/a
399.6185	0.09	799237	keystroke_k	k	n/a
399.8435	0.091	799687	keystroke_i	i	n/a
400.009	0.1795	800018	keystroke_n	n	n/a
400.203	0.1355	800406	keystroke_g	g	n/a
400.818	0.135	801636	keystroke_Key.enter	Key.enter	n/a
400.9935	7.833	801987	prompt	n/a	bears others oecd junk\n
402.124	0.1195	804248	keystroke_b	b	n/a
402.363	0.121	804726	keystroke_e	e	n/a
402.5735	0.136	805147	keystroke_a	a	n/a
402.7385	0.105	805477	keystroke_r	r	n/a
402.9935	0.135	805987	keystroke_s	s	n/a
403.2785	0.12	806557	keystroke_Key.space	Key.space	n/a
403.474	0.09	806948	keystroke_o	o	n/a
403.594	0.1345	807188	keystroke_t	t	n/a
403.699	0.1045	807398	keystroke_h	h	n/a
403.8485	0.1505	807697	keystroke_e	e	n/a
403.9835	0.1205	807967	keystroke_r	r	n/a
404.2535	0.12	808507	keystroke_s	s	n/a
404.5235	0.12	809047	keystroke_Key.space	Key.space	n/a
405.0785	0.15	810157	keystroke_o	o	n/a
405.469	0.12	810938	keystroke_e	e	n/a
406.203	0.1055	812406	keystroke_c	c	n/a
406.6235	0.105	813247	keystroke_d	d	n/a
406.9535	0.135	813907	keystroke_Key.space	Key.space	n/a
407.2385	0.1355	814477	keystroke_j	j	n/a
407.4785	0.1205	814957	keystroke_u	u	n/a
407.809	0.1345	815618	keystroke_n	n	n/a
408.124	0.1345	816248	keystroke_k	k	n/a
408.6785	0.12	817357	keystroke_Key.enter	Key.enter	n/a
408.843	11.5815	817686	prompt	n/a	departure nuclear i'm talented\n
409.7895	0.134	819579	keystroke_d	d	n/a
410.074	0.1345	820148	keystroke_e	e	n/a
410.2235	0.105	820447	keystroke_p	p	n/a
410.375	0.1485	820750	keystroke_a	a	n/a
410.5685	0.105	821137	keystroke_r	r	n/a
410.7785	0.105	821557	keystroke_t	t	n/a
411.049	0.1345	822098	keystroke_u	u	n/a
411.1835	0.195	822367	keystroke_r	r	n/a
411.4085	0.1505	822817	keystroke_e	e	n/a
411.7385	0.12	823477	keystroke_Key.space	Key.space	n/a
412.0385	0.0905	824077	keystroke_n	n	n/a
412.279	0.104	824558	keystroke_u	u	n/a
412.594	0.12	825188	keystroke_c	c	n/a
412.7885	0.09	825577	keystroke_l	l	n/a
412.9385	0.1355	825877	keystroke_e	e	n/a
412.9515	0	825903	keystroke_Key.f15	Key.f15	n/a
413.149	0.149	826298	keystroke_a	a	n/a
413.374	0.134	826748	keystroke_r	r	n/a
414.2135	0.1795	828427	keystroke_Key.space	Key.space	n/a
414.784	0.12	829568	keystroke_i	i	n/a
415.0835	0.09	830167	keystroke_'	'	n/a
415.324	0.12	830648	keystroke_m	m	n/a
415.6835	0.1505	831367	keystroke_Key.space	Key.space	n/a
416.013	0.12	832026	keystroke_t	t	n/a
416.239	0.105	832478	keystroke_l	l	n/a
416.4185	0.165	832837	keystroke_a	a	n/a
417.259	0.149	834518	keystroke_Key.backspace	Key.backspace	n/a
417.498	0.1205	834996	keystroke_Key.backspace	Key.backspace	n/a
417.8435	0.15	835687	keystroke_a	a	n/a
418.128	0.1205	836256	keystroke_l	l	n/a
418.308	0.1655	836616	keystroke_e	e	n/a
418.4875	0.106	836975	keystroke_n	n	n/a
418.6685	0.135	837337	keystroke_t	t	n/a
418.9535	0.105	837907	keystroke_e	e	n/a
419.208	0.105	838416	keystroke_d	d	n/a
420.2435	0.165	840487	keystroke_Key.enter	Key.enter	n/a
420.4335	10.627	840867	prompt	n/a	keeping he we'd've diagnostic\n
421.8035	0.135	843607	keystroke_k	k	n/a
422.0735	0.135	844147	keystroke_e	e	n/a
422.2985	0.09	844597	keystroke_e	e	n/a
422.404	0.1345	844808	keystroke_p	p	n/a
422.629	0.1185	845258	keystroke_i	i	n/a
422.7625	0.1515	845525	keystroke_n	n	n/a
422.929	0.135	845858	keystroke_g	g	n/a
423.1235	0.15	846247	keystroke_Key.space	Key.space	n/a
423.4235	0.1055	846847	keystroke_h	h	n/a
423.633	0.121	847266	keystroke_e	e	n/a
423.829	0.134	847658	keystroke_Key.space	Key.space	n/a
424.143	0.151	848286	keystroke_w	w	n/a
424.369	0.12	848738	keystroke_e	e	n/a
425.2985	0.135	850597	keystroke_'	'	n/a
426.0785	0.0905	852157	keystroke_d	d	n/a
426.5285	0.106	853057	keystroke_'	'	n/a
427.0835	0.15	854167	keystroke_v	v	n/a
427.3535	0.12	854707	keystroke_e	e	n/a
427.743	0.15	855486	keystroke_Key.space	Key.space	n/a
428.028	0.18	856056	keystroke_d	d	n/a
428.178	0.121	856356	keystroke_i	i	n/a
428.358	0.166	856716	keystroke_a	a	n/a
428.643	0.121	857286	keystroke_g	g	n/a
428.944	0.119	857888	keystroke_n	n	n/a
429.244	0.105	858488	keystroke_o	o	n/a
429.4385	0.15	858877	keystroke_s	s	n/a
429.7085	0.18	859417	keystroke_t	t	n/a
429.8735	0.1205	859747	keystroke_i	i	n/a
430.099	0.12	860198	keystroke_c	c	n/a
430.878	0.166	861756	keystroke_Key.enter	Key.enter	n/a
431.0695	15.5125	862139	prompt	n/a	license guarantees heroes recipient\n
432.064	0.1345	864128	keystroke_l	l	n/a
432.319	0.105	864638	keystroke_i	i	n/a
432.5735	0.0905	865147	keystroke_c	c	n/a
432.829	0.105	865658	keystroke_e	e	n/a
432.9635	0.1355	865927	keystroke_n	n	n/a
433.159	0.1345	866318	keystroke_s	s	n/a
433.369	0.1195	866738	keystroke_e	e	n/a
433.623	0.1355	867246	keystroke_Key.space	Key.space	n/a
434.0735	0.12	868147	keystroke_g	g	n/a
434.284	0.1345	868568	keystroke_u	u	n/a
434.884	0.12	869768	keystroke_a	a	n/a
435.1085	0.105	870217	keystroke_r	r	n/a
435.604	0.1795	871208	keystroke_a	a	n/a
435.8435	0.12	871687	keystroke_n	n	n/a
436.099	0.1195	872198	keystroke_t	t	n/a
436.3985	0.105	872797	keystroke_e	e	n/a
436.624	0.104	873248	keystroke_e	e	n/a
436.8485	0.1195	873697	keystroke_s	s	n/a
437.4935	0.12	874987	keystroke_Key.space	Key.space	n/a
437.7785	0.0755	875557	keystroke_h	h	n/a
437.9585	0.1805	875917	keystroke_e	e	n/a
438.1535	0.1655	876307	keystroke_r	r	n/a
438.334	0.135	876668	keystroke_o	o	n/a
438.7675	0.106	877535	keystroke_e	e	n/a
439.0085	0.1345	878017	keystroke_s	s	n/a
439.488	0.1205	878976	keystroke_Key.space	Key.space	n/a
439.849	0.134	879698	keystroke_r	r	n/a
440.089	0.134	880178	keystroke_e	e	n/a
440.569	0.134	881138	keystroke_i	i	n/a
441.9935	0.12	883987	keystroke_Key.backspace	Key.backspace	n/a
442.639	0.1495	885278	keystroke_c	c	n/a
442.9095	0.119	885819	keystroke_i	i	n/a
443.4935	0.135	886987	keystroke_p	p	n/a
444.2435	0.165	888487	keystroke_e	e	n/a
444.7535	0.12	889507	keystroke_Key.backspace	Key.backspace	n/a
445.098	0.136	890196	keystroke_i	i	n/a
445.309	0.1495	890618	keystroke_e	e	n/a
445.4735	0.1355	890947	keystroke_n	n	n/a
445.6235	0.1505	891247	keystroke_t	t	n/a
446.418	0.1505	892836	keystroke_Key.enter	Key.enter	n/a
446.59	10.0105	893180	prompt	n/a	gardens conclusions andy manager\n
447.708	0.121	895416	keystroke_g	g	n/a
447.9335	0.15	895867	keystroke_a	a	n/a
448.1435	0.0905	896287	keystroke_r	r	n/a
448.353	0.1055	896706	keystroke_d	d	n/a
448.593	0.166	897186	keystroke_e	e	n/a
449.2385	0.135	898477	keystroke_n	n	n/a
449.4485	0.1055	898897	keystroke_s	s	n/a
449.778	0.105	899556	keystroke_Key.space	Key.space	n/a
450.259	0.12	900518	keystroke_c	c	n/a
450.394	0.135	900788	keystroke_o	o	n/a
450.559	0.09	901118	keystroke_n	n	n/a
450.769	0.12	901538	keystroke_c	c	n/a
450.874	0.105	901748	keystroke_l	l	n/a
451.0985	0.12	902197	keystroke_u	u	n/a
451.398	0.1355	902796	keystroke_s	s	n/a
451.579	0.2245	903158	keystroke_i	i	n/a
451.6835	0.1805	903367	keystroke_o	o	n/a
451.8785	0.15	903757	keystroke_n	n	n/a
452.0885	0.1495	904177	keystroke_s	s	n/a
452.5535	0.1345	905107	keystroke_Key.space	Key.space	n/a
452.779	0.1345	905558	keystroke_a	a	n/a
452.853	0.105	905706	keystroke_n	n	n/a
453.078	0.1055	906156	keystroke_d	d	n/a
453.498	0.105	906996	keystroke_y	y	n/a
453.9335	0.1345	907867	keystroke_Key.space	Key.space	n/a
454.1735	0.135	908347	keystroke_m	m	n/a
454.3685	0.135	908737	keystroke_a	a	n/a
454.519	0.1345	909038	keystroke_n	n	n/a
454.9535	0.195	909907	keystroke_a	a	n/a
455.299	0.119	910598	keystroke_g	g	n/a
455.808	0.15	911616	keystroke_e	e	n/a
456.019	0.1195	912038	keystroke_r	r	n/a
456.453	0.135	912906	keystroke_Key.enter	Key.enter	n/a
456.6065	9.3985	913213	prompt	n/a	translation i'm offices sand\n
457.594	0.1045	915188	keystroke_t	t	n/a
457.8185	0.1045	915637	keystroke_r	r	n/a
457.9835	0.135	915967	keystroke_a	a	n/a
458.1325	0.091	916265	keystroke_n	n	n/a
458.3735	0.104	916747	keystroke_s	s	n/a
458.538	0.0905	917076	keystroke_l	l	n/a
459.3635	0.12	918727	keystroke_a	a	n/a
459.5735	0.1505	919147	keystroke_t	t	n/a
459.6485	0.21	919297	keystroke_i	i	n/a
459.7535	0.195	919507	keystroke_o	o	n/a
460.009	0.1345	920018	keystroke_n	n	n/a
460.4885	0.195	920977	keystroke_Key.space	Key.space	n/a
461.1035	0.165	922207	keystroke_i	i	n/a
461.4935	0.0905	922987	keystroke_'	'	n/a
461.7185	0.12	923437	keystroke_m	m	n/a
462.0625	0.1355	924125	keystroke_Key.space	Key.space	n/a
462.9935	0.045	925987	keystroke_o	o	n/a
463.2345	0.0895	926469	keystroke_f	f	n/a
463.3985	0.105	926797	keystroke_f	f	n/a
463.5335	0.105	927067	keystroke_i	i	n/a
463.6835	0.12	927367	keystroke_c	c	n/a
463.9385	0.1195	927877	keystroke_e	e	n/a
464.163	0.106	928326	keystroke_s	s	n/a
464.493	0.1205	928986	keystroke_Key.space	Key.space	n/a
464.673	0.12	929346	keystroke_s	s	n/a
464.9135	0.1355	929827	keystroke_a	a	n/a
465.063	0.0905	930126	keystroke_n	n	n/a
465.3035	0.12	930607	keystroke_d	d	n/a
465.843	0.136	931686	keystroke_Key.enter	Key.enter	n/a
466.023	11.3395	932046	prompt	n/a	single funded oman statewide\n
466.909	0.1495	933818	keystroke_s	s	n/a
467.0435	0.135	934087	keystroke_i	i	n/a
467.2535	0.135	934507	keystroke_n	n	n/a
467.4035	0.1345	934807	keystroke_g	g	n/a
467.584	0.105	935168	keystroke_l	l	n/a
467.7185	0.12	935437	keystroke_e	e	n/a
468.0335	0.135	936067	keystroke_Key.space	Key.space	n/a
468.4535	0.12	936907	keystroke_f	f	n/a
468.6035	0.1495	937207	keystroke_u	u	n/a
468.888	0.106	937776	keystroke_n	n	n/a
469.054	0.1185	938108	keystroke_d	d	n/a
469.294	0.12	938588	keystroke_e	e	n/a
469.5485	0.09	939097	keystroke_d	d	n/a
469.8185	0.1345	939637	keystroke_Key.space	Key.space	n/a
470.073	0.09	940146	keystroke_o	o	n/a
470.238	0.136	940476	keystroke_m	m	n/a
470.3885	0.1645	940777	keystroke_a	a	n/a
470.6285	0.15	941257	keystroke_n	n	n/a
471.5285	0.135	943057	keystroke_Key.space	Key.space	n/a
471.844	0.1195	943688	keystroke_s	s	n/a
472.0535	0.135	944107	keystroke_t	t	n/a
472.1815	0	944363	keystroke_Key.f15	Key.f15	n/a
472.279	0.134	944558	keystroke_a	a	n/a
472.834	0.074	945668	keystroke_t	t	n/a
473.103	0.1955	946206	keystroke_e	e	n/a
473.6735	0.195	947347	keystroke_w	w	n/a
473.8535	0.15	947707	keystroke_o	o	n/a
474.6785	0.12	949357	keystroke_Key.backspace	Key.backspace	n/a
475.0085	0.105	950017	keystroke_i	i	n/a
475.1585	0.1645	950317	keystroke_e	e	n/a
475.8335	0.12	951667	keystroke_Key.backspace	Key.backspace	n/a
475.969	0.1345	951938	keystroke_d	d	n/a
476.2235	0.1655	952447	keystroke_e	e	n/a
477.213	0.135	954426	keystroke_Key.enter	Key.enter	n/a
477.3695	6.145	954739	prompt	n/a	robin able exit owns\n
478.5335	0.1495	957067	keystroke_r	r	n/a
478.6685	0.1195	957337	keystroke_o	o	n/a
478.908	0.12	957816	keystroke_b	b	n/a
479.0435	0.1195	958087	keystroke_i	i	n/a
479.1935	0.119	958387	keystroke_n	n	n/a
479.628	0.1205	959256	keystroke_Key.space	Key.space	n/a
479.7935	0.165	959587	keystroke_a	a	n/a
480.3935	0.15	960787	keystroke_b	b	n/a
480.558	0.1195	961116	keystroke_l	l	n/a
480.7075	0.121	961415	keystroke_e	e	n/a
480.8735	0.12	961747	keystroke_Key.space	Key.space	n/a
481.1435	0.105	962287	keystroke_e	e	n/a
481.4125	0.1355	962825	keystroke_x	x	n/a
481.5785	0.1345	963157	keystroke_i	i	n/a
481.728	0.136	963456	keystroke_t	t	n/a
481.9535	0.12	963907	keystroke_Key.space	Key.space	n/a
482.2385	0.12	964477	keystroke_o	o	n/a
482.3585	0.15	964717	keystroke_w	w	n/a
482.5235	0.135	965047	keystroke_n	n	n/a
482.9435	0.15	965887	keystroke_s	s	n/a
483.393	0.12	966786	keystroke_Key.enter	Key.enter	n/a
483.522	9.799	967044	prompt	n/a	as trembl allergy trader\n
484.3985	0.165	968797	keystroke_a	a	n/a
484.6385	0.135	969277	keystroke_s	s	n/a
484.9085	0.12	969817	keystroke_Key.space	Key.space	n/a
485.1785	0.105	970357	keystroke_t	t	n/a
485.4785	0.12	970957	keystroke_r	r	n/a
486.168	0.135	972336	keystroke_e	e	n/a
486.7985	0.135	973597	keystroke_m	m	n/a
487.413	0.1345	974826	keystroke_b	b	n/a
487.5775	0.1055	975155	keystroke_l	l	n/a
488.3435	0.1345	976687	keystroke_Key.space	Key.space	n/a
488.6885	0.1805	977377	keystroke_a	a	n/a
488.8835	0.09	977767	keystroke_l	l	n/a
489.4085	0.12	978817	keystroke_l	l	n/a
489.9485	0.1805	979897	keystroke_e	e	n/a
490.1735	0.165	980347	keystroke_r	r	n/a
490.5935	0.12	981187	keystroke_g	g	n/a
490.8185	0.15	981637	keystroke_y	y	n/a
491.193	0.1205	982386	keystroke_Key.space	Key.space	n/a
491.5085	0.135	983017	keystroke_t	t	n/a
491.748	0.1055	983496	keystroke_r	r	n/a
491.9585	0.15	983917	keystroke_a	a	n/a
492.349	0.0595	984698	keystroke_d	d	n/a
492.5735	0.15	985147	keystroke_e	e	n/a
492.7535	0.135	985507	keystroke_r	r	n/a
493.1735	0.1345	986347	keystroke_Key.enter	Key.enter	n/a
493.328	12.2185	986656	prompt	n/a	outstanding figures alien technician\n
494.3735	0.1345	988747	keystroke_o	o	n/a
494.5385	0.15	989077	keystroke_t	t	n/a
494.628	0.1355	989256	keystroke_u	u	n/a
494.8985	0.135	989797	keystroke_s	s	n/a
495.108	0.1355	990216	keystroke_t	t	n/a
495.2885	0.105	990577	keystroke_a	a	n/a
495.3785	0.1045	990757	keystroke_n	n	n/a
495.543	0.135	991086	keystroke_d	d	n/a
495.633	0.135	991266	keystroke_i	i	n/a
495.7835	0.1345	991567	keystroke_n	n	n/a
495.933	0.151	991866	keystroke_g	g	n/a
496.203	0.135	992406	keystroke_Key.space	Key.space	n/a
496.5485	0.1345	993097	keystroke_f	f	n/a
496.653	0.1205	993306	keystroke_i	i	n/a
497.178	0.12	994356	keystroke_g	g	n/a
497.3885	0.135	994777	keystroke_u	u	n/a
497.688	0.15	995376	keystroke_r	r	n/a
498.828	0.1355	997656	keystroke_e	e	n/a
499.0685	0.18	998137	keystroke_s	s	n/a
499.5485	0.1195	999097	keystroke_Key.space	Key.space	n/a
499.8785	0.135	999757	keystroke_a	a	n/a
500.058	0.136	1000116	keystroke_l	l	n/a
500.2385	0.1045	1000477	keystroke_i	i	n/a
500.433	0.1205	1000866	keystroke_e	e	n/a
500.6735	0.1345	1001347	keystroke_n	n	n/a
501.3335	0.12	1002667	keystroke_Key.space	Key.space	n/a
501.7535	0.1505	1003507	keystroke_t	t	n/a
502.0385	0.135	1004077	keystroke_e	e	n/a
502.368	0.091	1004736	keystroke_c	c	n/a
502.548	0.136	1005096	keystroke_h	h	n/a
503.2685	0.12	1006537	keystroke_n	n	n/a
503.493	0.1055	1006986	keystroke_i	i	n/a
503.7635	0.12	1007527	keystroke_c	c	n/a
503.8685	0.135	1007737	keystroke_i	i	n/a
504.0785	0.15	1008157	keystroke_a	a	n/a
504.3335	0.135	1008667	keystroke_n	n	n/a
505.368	0.165	1010736	keystroke_Key.enter	Key.enter	n/a
505.5555	15.831	1011111	prompt	n/a	swiss outer compilation wagner\n
507.0035	0.12	1014007	keystroke_s	s	n/a
507.3185	0.105	1014637	keystroke_w	w	n/a
507.4835	0.1195	1014967	keystroke_i	i	n/a
507.723	0.105	1015446	keystroke_s	s	n/a
507.9035	0.12	1015807	keystroke_s	s	n/a
508.1885	0.105	1016377	keystroke_Key.space	Key.space	n/a
508.519	0.1645	1017038	keystroke_o	o	n/a
508.6235	0.1345	1017247	keystroke_t	t	n/a
508.6985	0.135	1017397	keystroke_u	u	n/a
509.073	0.1355	1018146	keystroke_e	e	n/a
509.2235	0.135	1018447	keystroke_r	r	n/a
509.4485	0.135	1018897	keystroke_Key.space	Key.space	n/a
509.8845	0.119	1019769	keystroke_c	c	n/a
509.9885	0.105	1019977	keystroke_o	o	n/a
510.1985	0.12	1020397	keystroke_m	m	n/a
510.723	0.121	1021446	keystroke_p	p	n/a
510.963	0.121	1021926	keystroke_i	i	n/a
511.203	0.1055	1022406	keystroke_l	l	n/a
511.398	0.1645	1022796	keystroke_a	a	n/a
511.5935	0.18	1023187	keystroke_t	t	n/a
511.6385	0.1655	1023277	keystroke_i	i	n/a
511.714	0.1945	1023428	keystroke_o	o	n/a
511.953	0.15	1023906	keystroke_n	n	n/a
512.478	0.15	1024956	keystroke_Key.space	Key.space	n/a
512.8535	0.1655	1025707	keystroke_w	w	n/a
513.168	0.136	1026336	keystroke_a	a	n/a
519.8605	0.043	1039721	keystroke_g	g	n/a
519.9935	0.15	1039987	keystroke_n	n	n/a
520.2035	0.165	1040407	keystroke_e	e	n/a
520.3835	0.165	1040767	keystroke_r	r	n/a
521.223	0.1505	1042446	keystroke_Key.enter	Key.enter	n/a
521.394	10.8835	1042788	prompt	n/a	plants tribute every festivals\n
522.544	0.12	1045088	keystroke_p	p	n/a
522.7835	0.09	1045567	keystroke_l	l	n/a
522.9035	0.195	1045807	keystroke_a	a	n/a
523.039	0.165	1046078	keystroke_n	n	n/a
523.2185	0.135	1046437	keystroke_t	t	n/a
523.759	0.134	1047518	keystroke_s	s	n/a
524.043	0.15	1048086	keystroke_Key.space	Key.space	n/a
524.358	0.105	1048716	keystroke_t	t	n/a
524.553	0.105	1049106	keystroke_r	r	n/a
524.689	0.12	1049378	keystroke_i	i	n/a
524.9435	0.1195	1049887	keystroke_b	b	n/a
525.048	0.12	1050096	keystroke_u	u	n/a
525.619	0.1345	1051238	keystroke_t	t	n/a
525.904	0.1045	1051808	keystroke_e	e	n/a
526.2335	0.15	1052467	keystroke_Key.space	Key.space	n/a
526.6685	0.1055	1053337	keystroke_e	e	n/a
526.908	0.135	1053816	keystroke_v	v	n/a
527.1635	0.12	1054327	keystroke_e	e	n/a
527.2685	0.135	1054537	keystroke_r	r	n/a
527.5085	0.12	1055017	keystroke_y	y	n/a
527.7485	0.135	1055497	keystroke_Key.space	Key.space	n/a
527.9735	0.136	1055947	keystroke_f	f	n/a
528.499	0.12	1056998	keystroke_e	e	n/a
529.0685	0.135	1058137	keystroke_s	s	n/a
529.2785	0.1495	1058557	keystroke_t	t	n/a
529.413	0.136	1058826	keystroke_i	i	n/a
529.699	0.164	1059398	keystroke_v	v	n/a
529.9685	0.105	1059937	keystroke_a	a	n/a
530.9735	0.12	1061947	keystroke_l	l	n/a
531.1385	0.165	1062277	keystroke_s	s	n/a
531.4425	0.001	1062885	keystroke_Key.f15	Key.f15	n/a
532.1125	0.1505	1064225	keystroke_Key.enter	Key.enter	n/a
532.2865	12.636	1064573	prompt	n/a	link excerpt expected preferences\n
533.3285	0.1195	1066657	keystroke_l	l	n/a
533.509	0.12	1067018	keystroke_i	i	n/a
533.718	0.1355	1067436	keystroke_n	n	n/a
533.914	0.1645	1067828	keystroke_k	k	n/a
534.1835	0.12	1068367	keystroke_Key.space	Key.space	n/a
534.5145	0.12	1069029	keystroke_e	e	n/a
534.8445	0.134	1069689	keystroke_x	x	n/a
535.2935	0.135	1070587	keystroke_c	c	n/a
535.593	0.121	1071186	keystroke_e	e	n/a
535.804	0.135	1071608	keystroke_r	r	n/a
536.689	0.165	1073378	keystroke_p	p	n/a
537.1535	0.165	1074307	keystroke_t	t	n/a
537.5735	0.1495	1075147	keystroke_Key.space	Key.space	n/a
537.9785	0.12	1075957	keystroke_e	e	n/a
538.2635	0.1055	1076527	keystroke_x	x	n/a
538.729	0.1345	1077458	keystroke_p	p	n/a
538.9535	0.105	1077907	keystroke_e	e	n/a
539.209	0.134	1078418	keystroke_c	c	n/a
539.539	0.135	1079078	keystroke_t	t	n/a
539.839	0.0745	1079678	keystroke_e	e	n/a
540.0335	0.12	1080067	keystroke_d	d	n/a
540.4985	0.15	1080997	keystroke_Key.space	Key.space	n/a
541.219	0.12	1082438	keystroke_p	p	n/a
541.383	0.18	1082766	keystroke_r	r	n/a
541.699	0.1345	1083398	keystroke_e	e	n/a
542.164	0.149	1084328	keystroke_f	f	n/a
542.524	0.18	1085048	keystroke_e	e	n/a
542.7485	0.15	1085497	keystroke_r	r	n/a
543.303	0.1205	1086606	keystroke_e	e	n/a
543.484	0.1045	1086968	keystroke_n	n	n/a
543.6335	0.1205	1087267	keystroke_c	c	n/a
543.8885	0.12	1087777	keystroke_e	e	n/a
544.1285	0.105	1088257	keystroke_s	s	n/a
544.7735	0.135	1089547	keystroke_Key.enter	Key.enter	n/a
544.9295	8.916	1089859	prompt	n/a	poem laden clubs morgan\n
546.124	0.194	1092248	keystroke_p	p	n/a
546.708	0.105	1093416	keystroke_o	o	n/a
546.844	0.149	1093688	keystroke_e	e	n/a
547.3675	0.136	1094735	keystroke_m	m	n/a
548.0435	0.15	1096087	keystroke_Key.space	Key.space	n/a
548.449	0.0895	1096898	keystroke_l	l	n/a
548.584	0.1505	1097168	keystroke_a	a	n/a
548.7935	0.15	1097587	keystroke_d	d	n/a
549.1535	0.1355	1098307	keystroke_e	e	n/a
549.3635	0.1195	1098727	keystroke_n	n	n/a
549.738	0.1355	1099476	keystroke_Key.space	Key.space	n/a
550.248	0.136	1100496	keystroke_c	c	n/a
550.399	0.165	1100798	keystroke_l	l	n/a
550.623	0.121	1101246	keystroke_u	u	n/a
550.909	0.12	1101818	keystroke_b	b	n/a
551.164	0.134	1102328	keystroke_s	s	n/a
551.6135	0.1345	1103227	keystroke_Key.space	Key.space	n/a
551.9435	0.12	1103887	keystroke_m	m	n/a
552.1835	0.075	1104367	keystroke_o	o	n/a
552.3485	0.105	1104697	keystroke_r	r	n/a
552.6185	0.136	1105237	keystroke_g	g	n/a
552.8285	0.165	1105657	keystroke_a	a	n/a
553.0685	0.135	1106137	keystroke_n	n	n/a
553.713	0.1205	1107426	keystroke_Key.enter	Key.enter	n/a
553.8515	10.898	1107703	prompt	n/a	harvest highway aspects wooden\n
554.853	0.12	1109706	keystroke_h	h	n/a
555.048	0.18	1110096	keystroke_a	a	n/a
555.244	0.134	1110488	keystroke_r	r	n/a
555.528	0.1055	1111056	keystroke_v	v	n/a
555.7685	0.12	1111537	keystroke_e	e	n/a
555.9935	0.105	1111987	keystroke_s	s	n/a
556.2185	0.12	1112437	keystroke_t	t	n/a
556.7735	0.1345	1113547	keystroke_Key.space	Key.space	n/a
557.2985	0.0895	1114597	keystroke_h	h	n/a
557.448	0.1205	1114896	keystroke_i	i	n/a
557.6125	0.121	1115225	keystroke_g	g	n/a
557.7335	0.12	1115467	keystroke_h	h	n/a
558.0785	0.1195	1116157	keystroke_w	w	n/a
558.319	0.15	1116638	keystroke_a	a	n/a
558.5285	0.135	1117057	keystroke_y	y	n/a
558.828	0.136	1117656	keystroke_Key.space	Key.space	n/a
559.1735	0.09	1118347	keystroke_a	a	n/a
559.368	0.1355	1118736	keystroke_s	s	n/a
559.698	0.1205	1119396	keystroke_p	p	n/a
559.9235	0.1045	1119847	keystroke_e	e	n/a
560.269	0.1045	1120538	keystroke_c	c	n/a
560.7185	0.135	1121437	keystroke_t	t	n/a
561.0185	0.12	1122037	keystroke_s	s	n/a
561.738	0.151	1123476	keystroke_Key.space	Key.space	n/a
562.113	0.151	1124226	keystroke_w	w	n/a
562.4885	0.075	1124977	keystroke_o	o	n/a
562.669	0.1035	1125338	keystroke_o	o	n/a
562.8035	0.105	1125607	keystroke_d	d	n/a
563.0585	0.09	1126117	keystroke_e	e	n/a
563.2385	0.135	1126477	keystroke_n	n	n/a
564.5725	0.166	1129145	keystroke_Key.enter	Key.enter	n/a
564.7545	10.2485	1129509	prompt	n/a	eastern permissions bottles fight\n
565.999	0.1495	1131998	keystroke_e	e	n/a
566.7035	0.135	1133407	keystroke_a	a	n/a
566.9285	0.1355	1133857	keystroke_s	s	n/a
567.1985	0.105	1134397	keystroke_t	t	n/a
567.4385	0.165	1134877	keystroke_e	e	n/a
567.6185	0.15	1135237	keystroke_r	r	n/a
567.828	0.135	1135656	keystroke_n	n	n/a
568.398	0.1205	1136796	keystroke_Key.space	Key.space	n/a
568.864	0.12	1137728	keystroke_p	p	n/a
569.119	0.164	1138238	keystroke_e	e	n/a
569.328	0.136	1138656	keystroke_r	r	n/a
569.809	0.12	1139618	keystroke_m	m	n/a
570.034	0.075	1140068	keystroke_i	i	n/a
570.334	0.09	1140668	keystroke_s	s	n/a
570.514	0.09	1141028	keystroke_s	s	n/a
570.6785	0.1505	1141357	keystroke_i	i	n/a
570.738	0.181	1141476	keystroke_o	o	n/a
570.949	0.135	1141898	keystroke_n	n	n/a
571.129	0.134	1142258	keystroke_s	s	n/a
571.578	0.1505	1143156	keystroke_Key.space	Key.space	n/a
571.9825	0.151	1143965	keystroke_b	b	n/a
572.0885	0.134	1144177	keystroke_o	o	n/a
572.494	0.104	1144988	keystroke_t	t	n/a
572.6585	0.15	1145317	keystroke_t	t	n/a
572.838	0.1205	1145676	keystroke_l	l	n/a
573.0035	0.12	1146007	keystroke_e	e	n/a
573.274	0.1045	1146548	keystroke_s	s	n/a
573.5885	0.105	1147177	keystroke_Key.space	Key.space	n/a
573.7535	0.165	1147507	keystroke_f	f	n/a
573.9035	0.105	1147807	keystroke_i	i	n/a
574.024	0.1195	1148048	keystroke_g	g	n/a
574.1885	0.12	1148377	keystroke_h	h	n/a
574.2935	0.1655	1148587	keystroke_t	t	n/a
574.8635	0.12	1149727	keystroke_Key.enter	Key.enter	n/a
575.0135	9.96	1150027	prompt	n/a	blank organ exception script\n
576.1685	0.135	1152337	keystroke_b	b	n/a
576.3485	0.12	1152697	keystroke_l	l	n/a
576.4835	0.1505	1152967	keystroke_a	a	n/a
576.6935	0.105	1153387	keystroke_n	n	n/a
576.979	0.014	1153958	keystroke_k	k	n/a
577.653	0.15	1155306	keystroke_Key.space	Key.space	n/a
577.983	0.121	1155966	keystroke_o	o	n/a
578.1935	0.1355	1156387	keystroke_r	r	n/a
578.479	0.105	1156958	keystroke_g	g	n/a
578.6585	0.15	1157317	keystroke_a	a	n/a
578.8535	0.1195	1157707	keystroke_n	n	n/a
579.168	0.105	1158336	keystroke_Key.space	Key.space	n/a
579.528	0.1055	1159056	keystroke_e	e	n/a
579.813	0.166	1159626	keystroke_x	x	n/a
580.4585	0.1205	1160917	keystroke_c	c	n/a
580.744	0.09	1161488	keystroke_e	e	n/a
581.043	0.12	1162086	keystroke_p	p	n/a
581.208	0.166	1162416	keystroke_t	t	n/a
581.313	0.18	1162626	keystroke_i	i	n/a
581.403	0.2105	1162806	keystroke_o	o	n/a
581.6435	0.134	1163287	keystroke_n	n	n/a
581.9575	0.136	1163915	keystroke_Key.space	Key.space	n/a
582.1235	0.105	1164247	keystroke_s	s	n/a
582.813	0.1505	1165626	keystroke_c	c	n/a
583.144	0.135	1166288	keystroke_r	r	n/a
583.339	0.134	1166678	keystroke_i	i	n/a
583.624	0.1495	1167248	keystroke_p	p	n/a
583.8035	0.18	1167607	keystroke_t	t	n/a
584.8235	0.135	1169647	keystroke_Key.enter	Key.enter	n/a
584.982	11.808	1169964	prompt	n/a	alabama existed graphs graduate\n
586.114	0.1345	1172228	keystroke_a	a	n/a
586.2635	0.12	1172527	keystroke_l	l	n/a
586.4435	0.165	1172887	keystroke_a	a	n/a
586.8785	0.1345	1173757	keystroke_b	b	n/a
587.0735	0.165	1174147	keystroke_a	a	n/a
587.5085	0.1495	1175017	keystroke_m	m	n/a
587.793	0.135	1175586	keystroke_a	a	n/a
588.2575	0.1365	1176515	keystroke_Key.space	Key.space	n/a
588.6935	0.12	1177387	keystroke_e	e	n/a
588.9785	0.135	1177957	keystroke_x	x	n/a
589.2935	0.1505	1178587	keystroke_i	i	n/a
589.6075	0.151	1179215	keystroke_s	s	n/a
590.0725	0.15	1180145	keystroke_t	t	n/a
590.418	0.106	1180836	keystroke_e	e	n/a
590.597	0.001	1181194	keystroke_Key.f15	Key.f15	n/a
590.658	0.1055	1181316	keystroke_d	d	n/a
591.2285	0.12	1182457	keystroke_Key.space	Key.space	n/a
591.5585	0.09	1183117	keystroke_g	g	n/a
591.7835	0.105	1183567	keystroke_r	r	n/a
591.9485	0.135	1183897	keystroke_a	a	n/a
592.1735	0.1345	1184347	keystroke_p	p	n/a
592.428	0.135	1184856	keystroke_h	h	n/a
593.134	0.1645	1186268	keystroke_s	s	n/a
593.973	0.12	1187946	keystroke_Key.space	Key.space	n/a
594.4985	0.1195	1188997	keystroke_g	g	n/a
594.9035	0.1345	1189807	keystroke_r	r	n/a
595.204	0.1345	1190408	keystroke_a	a	n/a
595.4435	0.12	1190887	keystroke_d	d	n/a
595.6385	0.119	1191277	keystroke_u	u	n/a
595.8025	0.166	1191605	keystroke_a	a	n/a
596.0275	0.136	1192055	keystroke_t	t	n/a
596.2385	0.1195	1192477	keystroke_e	e	n/a
596.643	0.12	1193286	keystroke_Key.enter	Key.enter	n/a
596.8065	13.6475	1193613	prompt	n/a	cultural settings degree copyright\n
597.7835	0.105	1195567	keystroke_c	c	n/a
597.979	0.1495	1195958	keystroke_u	u	n/a
598.6985	0.15	1197397	keystroke_l	l	n/a
599.1935	0.1645	1198387	keystroke_t	t	n/a
599.3885	0.1645	1198777	keystroke_u	u	n/a
599.5685	0.135	1199137	keystroke_r	r	n/a
599.763	0.1355	1199526	keystroke_a	a	n/a
599.943	0.1205	1199886	keystroke_l	l	n/a
600.5135	0.12	1201027	keystroke_Key.space	Key.space	n/a
601.1435	0.135	1202287	keystroke_s	s	n/a
601.3535	0.1345	1202707	keystroke_e	e	n/a
601.6985	0.09	1203397	keystroke_t	t	n/a
601.8635	0.119	1203727	keystroke_t	t	n/a
601.998	0.12	1203996	keystroke_i	i	n/a
602.148	0.151	1204296	keystroke_n	n	n/a
602.2835	0.1195	1204567	keystroke_g	g	n/a
602.6425	0.1205	1205285	keystroke_s	s	n/a
602.9285	0.135	1205857	keystroke_Key.space	Key.space	n/a
603.2725	0.136	1206545	keystroke_d	d	n/a
604.0985	0.1195	1208197	keystroke_e	e	n/a
604.353	0.12	1208706	keystroke_g	g	n/a
604.6085	0.1645	1209217	keystroke_r	r	n/a
604.908	0.0755	1209816	keystroke_e	e	n/a
605.088	0.106	1210176	keystroke_e	e	n/a
605.373	0.12	1210746	keystroke_Key.space	Key.space	n/a
605.6735	0.105	1211347	keystroke_c	c	n/a
606.049	0.1195	1212098	keystroke_o	o	n/a
606.3935	0.1355	1212787	keystroke_y	y	n/a
607.4735	0.135	1214947	keystroke_Key.backspace	Key.backspace	n/a
608.0585	0.15	1216117	keystroke_p	p	n/a
608.568	0.12	1217136	keystroke_y	y	n/a
609.063	0.136	1218126	keystroke_r	r	n/a
609.1835	0.075	1218367	keystroke_i	i	n/a
609.3335	0.1045	1218667	keystroke_g	g	n/a
609.4235	0.1495	1218847	keystroke_h	h	n/a
609.589	0.119	1219178	keystroke_t	t	n/a
610.4285	0.015	1220857	keystroke_Key.enter	Key.enter	n/a
610.46	8.62	1220920	prompt	n/a	buck creates idle afford\n
611.688	0.151	1223376	keystroke_b	b	n/a
611.793	0.106	1223586	keystroke_u	u	n/a
612.034	0.134	1224068	keystroke_c	c	n/a
612.229	0.09	1224458	keystroke_k	k	n/a
612.708	0.1655	1225416	keystroke_Key.space	Key.space	n/a
613.5785	0.1055	1227157	keystroke_c	c	n/a
613.7885	0.1495	1227577	keystroke_r	r	n/a
614.0285	0.09	1228057	keystroke_e	e	n/a
614.1935	0.1195	1228387	keystroke_a	a	n/a
614.3435	0.1345	1228687	keystroke_t	t	n/a
614.5685	0.075	1229137	keystroke_e	e	n/a
614.778	0.15	1229556	keystroke_s	s	n/a
615.183	0.12	1230366	keystroke_Key.space	Key.space	n/a
615.3485	0.104	1230697	keystroke_i	i	n/a
615.4375	0.151	1230875	keystroke_d	d	n/a
615.724	0.089	1231448	keystroke_l	l	n/a
615.904	0.12	1231808	keystroke_e	e	n/a
616.7135	0.105	1233427	keystroke_Key.space	Key.space	n/a
616.968	0.166	1233936	keystroke_a	a	n/a
617.298	0.09	1234596	keystroke_f	f	n/a
617.478	0.1505	1234956	keystroke_f	f	n/a
617.688	0.135	1235376	keystroke_o	o	n/a
617.853	0.12	1235706	keystroke_r	r	n/a
618.124	0.1195	1236248	keystroke_d	d	n/a
618.933	0.1345	1237866	keystroke_Key.enter	Key.enter	n/a
619.0875	10.5425	1238175	prompt	n/a	swing measure critical geneva\n
620.088	0.1055	1240176	keystroke_s	s	n/a
620.344	0.1505	1240688	keystroke_w	w	n/a
620.463	0.1205	1240926	keystroke_i	i	n/a
620.658	0.12	1241316	keystroke_n	n	n/a
620.8085	0.15	1241617	keystroke_g	g	n/a
621.1525	0.136	1242305	keystroke_Key.space	Key.space	n/a
621.4375	0.1505	1242875	keystroke_m	m	n/a
621.603	0.1205	1243206	keystroke_e	e	n/a
621.7985	0.089	1243597	keystroke_a	a	n/a
621.9785	0.135	1243957	keystroke_s	s	n/a
622.1735	0.15	1244347	keystroke_u	u	n/a
622.338	0.1355	1244676	keystroke_r	r	n/a
622.5185	0.135	1245037	keystroke_e	e	n/a
623.013	0.1205	1246026	keystroke_Key.space	Key.space	n/a
623.3285	0.135	1246657	keystroke_c	c	n/a
623.5835	0.12	1247167	keystroke_r	r	n/a
623.6885	0.12	1247377	keystroke_i	i	n/a
623.914	0.149	1247828	keystroke_t	t	n/a
624.094	0.1495	1248188	keystroke_i	i	n/a
624.828	0.1205	1249656	keystroke_c	c	n/a
625.054	0.1345	1250108	keystroke_a	a	n/a
625.2185	0.135	1250437	keystroke_l	l	n/a
625.7585	0.165	1251517	keystroke_Key.space	Key.space	n/a
626.794	0.12	1253588	keystroke_g	g	n/a
627.0485	0.1795	1254097	keystroke_e	e	n/a
627.1835	0.1055	1254367	keystroke_n	n	n/a
627.9185	0.075	1255837	keystroke_e	e	n/a
628.5185	0.135	1257037	keystroke_v	v	n/a
628.744	0.1345	1257488	keystroke_a	a	n/a
629.4785	0.1195	1258957	keystroke_Key.enter	Key.enter	n/a
629.6605	6.3295	1259321	prompt	n/a	pointing coach dome movie\n
630.5885	0.12	1261177	keystroke_p	p	n/a
630.8585	0.12	1261717	keystroke_o	o	n/a
630.9635	0.165	1261927	keystroke_i	i	n/a
631.1585	0.18	1262317	keystroke_n	n	n/a
631.3985	0.1505	1262797	keystroke_t	t	n/a
631.4885	0.1505	1262977	keystroke_i	i	n/a
631.653	0.1355	1263306	keystroke_n	n	n/a
631.8035	0.0895	1263607	keystroke_g	g	n/a
632.1785	0.105	1264357	keystroke_Key.space	Key.space	n/a
632.4325	0.136	1264865	keystroke_c	c	n/a
632.5835	0.0905	1265167	keystroke_o	o	n/a
632.7335	0.1205	1265467	keystroke_a	a	n/a
632.974	0.1195	1265948	keystroke_c	c	n/a
633.169	0.18	1266338	keystroke_h	h	n/a
633.4985	0.12	1266997	keystroke_Key.space	Key.space	n/a
633.6785	0.165	1267357	keystroke_d	d	n/a
633.8135	0.12	1267627	keystroke_o	o	n/a
633.9785	0.1355	1267957	keystroke_m	m	n/a
634.144	0.164	1268288	keystroke_e	e	n/a
634.368	0.1505	1268736	keystroke_Key.space	Key.space	n/a
634.623	0.09	1269246	keystroke_m	m	n/a
634.818	0.1055	1269636	keystroke_o	o	n/a
634.968	0.1655	1269936	keystroke_v	v	n/a
635.118	0.12	1270236	keystroke_i	i	n/a
635.313	0.15	1270626	keystroke_e	e	n/a
635.868	0.12	1271736	keystroke_Key.enter	Key.enter	n/a
636	16.3505	1272000	prompt	n/a	bacterial parameter visit gentleman\n
637.189	0.1195	1274378	keystroke_b	b	n/a
637.4435	0.105	1274887	keystroke_a	a	n/a
637.668	0.105	1275336	keystroke_c	c	n/a
638.913	0.135	1277826	keystroke_t	t	n/a
639.333	0.0455	1278666	keystroke_e	e	n/a
639.4535	0.12	1278907	keystroke_r	r	n/a
639.5885	0.105	1279177	keystroke_i	i	n/a
639.7535	0.165	1279507	keystroke_a	a	n/a
640.1585	0.15	1280317	keystroke_l	l	n/a
640.7435	0.15	1281487	keystroke_Key.space	Key.space	n/a
641.0885	0.12	1282177	keystroke_p	p	n/a
641.2695	0.1485	1282539	keystroke_a	a	n/a
641.6435	0.12	1283287	keystroke_r	r	n/a
641.8825	0.106	1283765	keystroke_a	a	n/a
642.2885	0.1045	1284577	keystroke_m	m	n/a
642.438	0.1355	1284876	keystroke_e	e	n/a
642.618	0.12	1285236	keystroke_t	t	n/a
642.9775	0.1205	1285955	keystroke_e	e	n/a
643.144	0.134	1286288	keystroke_r	r	n/a
643.458	0.165	1286916	keystroke_Key.space	Key.space	n/a
643.893	0.105	1287786	keystroke_i	i	n/a
644.148	0.09	1288296	keystroke_s	s	n/a
644.958	0.12	1289916	keystroke_Key.backspace	Key.backspace	n/a
645.1685	0.09	1290337	keystroke_Key.backspace	Key.backspace	n/a
645.4525	0.151	1290905	keystroke_v	v	n/a
645.663	0.12	1291326	keystroke_i	i	n/a
646.488	0.106	1292976	keystroke_s	s	n/a
646.623	0.1055	1293246	keystroke_i	i	n/a
646.8325	0.1655	1293665	keystroke_t	t	n/a
647.3285	0.089	1294657	keystroke_Key.space	Key.space	n/a
648.678	0.135	1297356	keystroke_g	g	n/a
648.9335	0.1495	1297867	keystroke_e	e	n/a
649.068	0.1355	1298136	keystroke_n	n	n/a
649.8815	0	1299763	keystroke_Key.f15	Key.f15	n/a
650.2375	0.15	1300475	keystroke_t	t	n/a
650.3575	0.106	1300715	keystroke_l	l	n/a
650.6135	0.104	1301227	keystroke_e	e	n/a
650.8075	0.1515	1301615	keystroke_m	m	n/a
651.5885	0.135	1303177	keystroke_a	a	n/a
651.7385	0.1345	1303477	keystroke_n	n	n/a
652.2175	0.12	1304435	keystroke_Key.enter	Key.enter	n/a
652.361	16.7755	1304722	prompt	n/a	murder introductory dictionary fashion\n
653.208	0.105	1306416	keystroke_m	m	n/a
653.7325	0.1205	1307465	keystroke_u	u	n/a
653.913	0.1505	1307826	keystroke_r	r	n/a
654.2735	0.1345	1308547	keystroke_d	d	n/a
654.543	0.12	1309086	keystroke_e	e	n/a
654.693	0.135	1309386	keystroke_r	r	n/a
654.933	0.1495	1309866	keystroke_Key.space	Key.space	n/a
655.3085	0.15	1310617	keystroke_i	i	n/a
655.7585	0.105	1311517	keystroke_n	n	n/a
656.388	0.105	1312776	keystroke_t	t	n/a
656.613	0.1205	1313226	keystroke_r	r	n/a
656.7485	0.089	1313497	keystroke_o	o	n/a
657.0785	0.09	1314157	keystroke_d	d	n/a
657.3035	0.06	1314607	keystroke_u	u	n/a
657.918	0.15	1315836	keystroke_c	c	n/a
658.323	0.1355	1316646	keystroke_t	t	n/a
658.518	0.12	1317036	keystroke_o	o	n/a
658.623	0.1205	1317246	keystroke_r	r	n/a
658.998	0.1355	1317996	keystroke_y	y	n/a
659.598	0.1195	1319196	keystroke_Key.space	Key.space	n/a
659.9275	0.1205	1319855	keystroke_d	d	n/a
660.063	0.105	1320126	keystroke_i	i	n/a
660.2435	0.15	1320487	keystroke_c	c	n/a
661.3685	0.12	1322737	keystroke_t	t	n/a
661.4885	0.1945	1322977	keystroke_i	i	n/a
661.579	0.21	1323158	keystroke_o	o	n/a
661.804	0.1645	1323608	keystroke_n	n	n/a
662.1935	0.135	1324387	keystroke_a	a	n/a
662.808	0.18	1325616	keystroke_r	r	n/a
663.018	0.165	1326036	keystroke_y	y	n/a
663.7675	0.1655	1327535	keystroke_Key.space	Key.space	n/a
664.4585	0.1055	1328917	keystroke_f	f	n/a
664.683	0.12	1329366	keystroke_a	a	n/a
664.909	0.149	1329818	keystroke_s	s	n/a
665.343	0.135	1330686	keystroke_h	h	n/a
665.599	0.134	1331198	keystroke_i	i	n/a
667.2935	0.15	1334587	keystroke_o	o	n/a
667.759	0.1335	1335518	keystroke_n	n	n/a
668.9725	0.15	1337945	keystroke_Key.enter	Key.enter	n/a
669.144	10.1175	1338288	prompt	n/a	babe grew desert immunology\n
670.2785	0.1045	1340557	keystroke_b	b	n/a
670.7885	0.1495	1341577	keystroke_a	a	n/a
670.998	0.135	1341996	keystroke_b	b	n/a
671.253	0.105	1342506	keystroke_e	e	n/a
671.478	0.12	1342956	keystroke_Key.space	Key.space	n/a
671.929	0.045	1343858	keystroke_g	g	n/a
672.0635	0.1055	1344127	keystroke_r	r	n/a
672.258	0.135	1344516	keystroke_e	e	n/a
672.6785	0.1055	1345357	keystroke_w	w	n/a
673.0835	0.15	1346167	keystroke_Key.space	Key.space	n/a
673.5635	0.119	1347127	keystroke_d	d	n/a
673.878	0.1205	1347756	keystroke_e	e	n/a
674.1785	0.09	1348357	keystroke_s	s	n/a
674.4325	0.1505	1348865	keystroke_e	e	n/a
674.628	0.12	1349256	keystroke_r	r	n/a
674.8825	0.1055	1349765	keystroke_t	t	n/a
675.2135	0.1345	1350427	keystroke_Key.space	Key.space	n/a
675.573	0.1045	1351146	keystroke_i	i	n/a
675.8585	0.119	1351717	keystroke_m	m	n/a
676.068	0.12	1352136	keystroke_m	m	n/a
676.398	0.0905	1352796	keystroke_u	u	n/a
676.6985	0.1355	1353397	keystroke_n	n	n/a
677.4335	0.104	1354867	keystroke_o	o	n/a
677.6875	0.09	1355375	keystroke_l	l	n/a
677.899	0.1495	1355798	keystroke_o	o	n/a
678.288	0.015	1356576	keystroke_g	g	n/a
678.3935	0.12	1356787	keystroke_y	y	n/a
679.1285	0.1195	1358257	keystroke_Key.enter	Key.enter	n/a
679.2695	10.327	1358539	prompt	n/a	ebook policy differently watches\n
680.5535	0.1195	1361107	keystroke_e	e	n/a
680.838	0.135	1361676	keystroke_b	b	n/a
680.958	0.09	1361916	keystroke_o	o	n/a
681.168	0.09	1362336	keystroke_o	o	n/a
681.423	0.06	1362846	keystroke_k	k	n/a
681.738	0.1495	1363476	keystroke_Key.space	Key.space	n/a
682.053	0.1345	1364106	keystroke_p	p	n/a
682.3085	0.1195	1364617	keystroke_o	o	n/a
682.5785	0.1345	1365157	keystroke_l	l	n/a
682.7585	0.15	1365517	keystroke_i	i	n/a
682.9835	0.135	1365967	keystroke_c	c	n/a
683.298	0.1655	1366596	keystroke_y	y	n/a
683.583	0.15	1367166	keystroke_Key.space	Key.space	n/a
683.913	0.135	1367826	keystroke_d	d	n/a
684.063	0.1355	1368126	keystroke_i	i	n/a
684.438	0.076	1368876	keystroke_f	f	n/a
684.588	0.105	1369176	keystroke_f	f	n/a
684.888	0.165	1369776	keystroke_e	e	n/a
685.1875	0.1365	1370375	keystroke_r	r	n/a
685.5025	0.1505	1371005	keystroke_e	e	n/a
685.7735	0.1345	1371547	keystroke_n	n	n/a
685.9535	0.1345	1371907	keystroke_t	t	n/a
686.133	0.12	1372266	keystroke_l	l	n/a
686.538	0.105	1373076	keystroke_y	y	n/a
687.153	0.135	1374306	keystroke_Key.space	Key.space	n/a
687.4385	0.12	1374877	keystroke_w	w	n/a
687.708	0.135	1375416	keystroke_a	a	n/a
687.963	0.105	1375926	keystroke_t	t	n/a
688.2185	0.1645	1376437	keystroke_c	c	n/a
688.3985	0.134	1376797	keystroke_h	h	n/a
688.5625	0.135	1377125	keystroke_e	e	n/a
688.803	0.165	1377606	keystroke_s	s	n/a
689.433	0.15	1378866	keystroke_Key.enter	Key.enter	n/a
689.604	11.933	1379208	prompt	n/a	israeli saudi faculty wisdom\n
690.6935	0.12	1381387	keystroke_i	i	n/a
691.548	0.105	1383096	keystroke_s	s	n/a
691.698	0.1505	1383396	keystroke_r	r	n/a
691.9385	0.105	1383877	keystroke_a	a	n/a
692.2075	0.136	1384415	keystroke_e	e	n/a
692.3885	0.105	1384777	keystroke_l	l	n/a
692.6135	0.12	1385227	keystroke_i	i	n/a
693.0025	0.1355	1386005	keystroke_Key.space	Key.space	n/a
693.348	0.1205	1386696	keystroke_s	s	n/a
693.784	0.134	1387568	keystroke_a	a	n/a
693.963	0.12	1387926	keystroke_u	u	n/a
694.2175	0.1355	1388435	keystroke_d	d	n/a
694.443	0.1205	1388886	keystroke_i	i	n/a
695.148	0.1505	1390296	keystroke_Key.space	Key.space	n/a
696.0785	0.165	1392157	keystroke_f	f	n/a
696.453	0.12	1392906	keystroke_a	a	n/a
696.768	0.135	1393536	keystroke_c	c	n/a
696.9785	0.1345	1393957	keystroke_u	u	n/a
697.2325	0.09	1394465	keystroke_l	l	n/a
697.3835	0.119	1394767	keystroke_t	t	n/a
697.6075	0.18	1395215	keystroke_y	y	n/a
697.9375	0.135	1395875	keystroke_Key.space	Key.space	n/a
698.268	0.165	1396536	keystroke_w	w	n/a
698.403	0.1205	1396806	keystroke_i	i	n/a
698.583	0.18	1397166	keystroke_s	s	n/a
698.943	0.105	1397886	keystroke_d	d	n/a
699.093	0.1805	1398186	keystroke_o	o	n/a
699.423	0.15	1398846	keystroke_n	n	n/a
700.113	0.12	1400226	keystroke_Key.backspace	Key.backspace	n/a
700.4735	0.1345	1400947	keystroke_m	m	n/a
701.373	0.15	1402746	keystroke_Key.enter	Key.enter	n/a
701.5455	11.9615	1403091	prompt	n/a	copy displaying installation commented\n
702.5135	0.1205	1405027	keystroke_c	c	n/a
702.663	0.075	1405326	keystroke_o	o	n/a
703.5485	0.105	1407097	keystroke_p	p	n/a
703.863	0.1655	1407726	keystroke_y	y	n/a
704.2085	0.135	1408417	keystroke_Key.space	Key.space	n/a
705.543	0.1805	1411086	keystroke_d	d	n/a
705.7835	0.1645	1411567	keystroke_i	i	n/a
706.0685	0.105	1412137	keystroke_s	s	n/a
706.488	0.105	1412976	keystroke_p	p	n/a
706.6985	0.1195	1413397	keystroke_l	l	n/a
706.863	0.1355	1413726	keystroke_a	a	n/a
707.058	0.121	1414116	keystroke_y	y	n/a
707.2675	0.09	1414535	keystroke_i	i	n/a
707.389	0.1495	1414778	keystroke_n	n	n/a
707.5975	0.1505	1415195	keystroke_g	g	n/a
707.733	0.12	1415466	keystroke_Key.space	Key.space	n/a
708.1385	0.0745	1416277	keystroke_i	i	n/a
708.303	0.0905	1416606	keystroke_n	n	n/a
708.5425	0.1665	1417085	keystroke_s	s	n/a
708.9485	0.135	1417897	keystroke_t	t	n/a
709.0905	0.001	1418181	keystroke_Key.f15	Key.f15	n/a
709.203	0.106	1418406	keystroke_a	a	n/a
709.4285	0.075	1418857	keystroke_l	l	n/a
709.5935	0.105	1419187	keystroke_l	l	n/a
709.789	0.164	1419578	keystroke_a	a	n/a
709.9835	0.1495	1419967	keystroke_t	t	n/a
710.1035	0.105	1420207	keystroke_i	i	n/a
710.148	0.2255	1420296	keystroke_o	o	n/a
710.3575	0.151	1420715	keystroke_n	n	n/a
710.6735	0.104	1421347	keystroke_Key.space	Key.space	n/a
710.973	0.1205	1421946	keystroke_c	c	n/a
711.169	0.104	1422338	keystroke_o	o	n/a
711.408	0.09	1422816	keystroke_m	m	n/a
711.573	0.1055	1423146	keystroke_m	m	n/a
711.9025	0.166	1423805	keystroke_e	e	n/a
712.1285	0.135	1424257	keystroke_n	n	n/a
712.2485	0.1195	1424497	keystroke_t	t	n/a
712.5625	0.121	1425125	keystroke_e	e	n/a
712.818	0.09	1425636	keystroke_d	d	n/a
713.403	0.09	1426806	keystroke_Key.enter	Key.enter	n/a
713.518	13.5185	1427036	prompt	n/a	infectious univ polymer invalid\n
714.8585	0.105	1429717	keystroke_i	i	n/a
715.098	0.15	1430196	keystroke_f	f	n/a
715.458	0.1355	1430916	keystroke_e	e	n/a
715.833	0.1355	1431666	keystroke_c	c	n/a
716.5535	0.1195	1433107	keystroke_Key.backspace	Key.backspace	n/a
716.778	0.105	1433556	keystroke_Key.backspace	Key.backspace	n/a
717.003	0.165	1434006	keystroke_Key.backspace	Key.backspace	n/a
717.483	0.106	1434966	keystroke_n	n	n/a
717.8435	0.1345	1435687	keystroke_f	f	n/a
718.083	0.105	1436166	keystroke_e	e	n/a
718.338	0.135	1436676	keystroke_c	c	n/a
718.5935	0.1355	1437187	keystroke_t	t	n/a
718.759	0.194	1437518	keystroke_i	i	n/a
718.879	0.329	1437758	keystroke_o	o	n/a
719.163	0.135	1438326	keystroke_u	u	n/a
719.629	0.119	1439258	keystroke_s	s	n/a
720.4225	0.1205	1440845	keystroke_Key.space	Key.space	n/a
720.888	0.09	1441776	keystroke_u	u	n/a
721.1285	0.1345	1442257	keystroke_n	n	n/a
721.338	0.1205	1442676	keystroke_i	i	n/a
721.6085	0.1195	1443217	keystroke_v	v	n/a
721.938	0.15	1443876	keystroke_Key.space	Key.space	n/a
722.509	0.1795	1445018	keystroke_p	p	n/a
723.0785	0.0895	1446157	keystroke_o	o	n/a
723.303	0.1055	1446606	keystroke_l	l	n/a
723.6635	0.1045	1447327	keystroke_y	y	n/a
724.038	0.12	1448076	keystroke_m	m	n/a
724.219	0.179	1448438	keystroke_e	e	n/a
724.399	0.1495	1448798	keystroke_r	r	n/a
724.713	0.12	1449426	keystroke_Key.space	Key.space	n/a
725.0735	0.0895	1450147	keystroke_i	i	n/a
725.238	0.12	1450476	keystroke_n	n	n/a
725.4935	0.1495	1450987	keystroke_v	v	n/a
725.719	0.134	1451438	keystroke_a	a	n/a
725.838	0.09	1451676	keystroke_l	l	n/a
726.0485	0.1045	1452097	keystroke_i	i	n/a
726.2285	0.1195	1452457	keystroke_d	d	n/a
726.9035	0.12	1453807	keystroke_Key.enter	Key.enter	n/a
727.045	12.8205	1454090	prompt	n/a	caught conversion selective promptly\n
728.1185	0.12	1456237	keystroke_c	c	n/a
728.3585	0.18	1456717	keystroke_a	a	n/a
728.5975	0.075	1457195	keystroke_u	u	n/a
728.8535	0.165	1457707	keystroke_t	t	n/a
729.1085	0.135	1458217	keystroke_h	h	n/a
729.663	0.09	1459326	keystroke_Key.backspace	Key.backspace	n/a
729.858	0.1355	1459716	keystroke_Key.backspace	Key.backspace	n/a
730.1285	0.135	1460257	keystroke_g	g	n/a
730.2785	0.1495	1460557	keystroke_h	h	n/a
730.698	0.15	1461396	keystroke_t	t	n/a
731.0135	0.18	1462027	keystroke_Key.space	Key.space	n/a
731.523	0.1195	1463046	keystroke_c	c	n/a
731.6875	0.09	1463375	keystroke_o	o	n/a
731.8375	0.075	1463675	keystroke_n	n	n/a
732.3035	0.105	1464607	keystroke_v	v	n/a
732.558	0.135	1465116	keystroke_e	e	n/a
732.723	0.135	1465446	keystroke_r	r	n/a
733.0535	0.15	1466107	keystroke_s	s	n/a
733.1585	0.1505	1466317	keystroke_i	i	n/a
733.218	0.18	1466436	keystroke_o	o	n/a
733.4885	0.105	1466977	keystroke_n	n	n/a
734.208	0.135	1468416	keystroke_Key.space	Key.space	n/a
734.479	0.0895	1468958	keystroke_s	s	n/a
734.689	0.119	1469378	keystroke_e	e	n/a
734.793	0.0905	1469586	keystroke_l	l	n/a
734.958	0.1345	1469916	keystroke_e	e	n/a
735.2735	0.135	1470547	keystroke_c	c	n/a
735.5135	0.1495	1471027	keystroke_t	t	n/a
735.6185	0.1495	1471237	keystroke_i	i	n/a
735.813	0.12	1471626	keystroke_v	v	n/a
736.053	0.1205	1472106	keystroke_e	e	n/a
736.2485	0.1195	1472497	keystroke_Key.space	Key.space	n/a
736.5635	0.135	1473127	keystroke_p	p	n/a
736.728	0.15	1473456	keystroke_r	r	n/a
736.833	0.12	1473666	keystroke_o	o	n/a
737.778	0.135	1475556	keystroke_m	m	n/a
738.018	0.135	1476036	keystroke_p	p	n/a
738.318	0.0755	1476636	keystroke_t	t	n/a
738.648	0.12	1477296	keystroke_l	l	n/a
739.024	0.12	1478048	keystroke_y	y	n/a
739.6985	0.15	1479397	keystroke_Key.enter	Key.enter	n/a
739.876	8.625	1479752	prompt	n/a	bullet protocols delays user\n
741.1385	0.134	1482277	keystroke_b	b	n/a
741.2285	0.0895	1482457	keystroke_u	u	n/a
741.543	0.075	1483086	keystroke_l	l	n/a
741.7085	0.0895	1483417	keystroke_l	l	n/a
741.859	0.1495	1483718	keystroke_e	e	n/a
742.0385	0.15	1484077	keystroke_t	t	n/a
742.2035	0.104	1484407	keystroke_Key.space	Key.space	n/a
742.5335	0.18	1485067	keystroke_p	p	n/a
742.7735	0.15	1485547	keystroke_r	r	n/a
742.9085	0.105	1485817	keystroke_o	o	n/a
743.1035	0.119	1486207	keystroke_t	t	n/a
743.2985	0.119	1486597	keystroke_o	o	n/a
744.3635	0.12	1488727	keystroke_c	c	n/a
744.4985	0.1345	1488997	keystroke_o	o	n/a
744.738	0.12	1489476	keystroke_l	l	n/a
744.963	0.1345	1489926	keystroke_s	s	n/a
745.5025	0.121	1491005	keystroke_Key.space	Key.space	n/a
745.8475	0.106	1491695	keystroke_d	d	n/a
746.0585	0.135	1492117	keystroke_e	e	n/a
746.1785	0.0895	1492357	keystroke_l	l	n/a
746.313	0.12	1492626	keystroke_a	a	n/a
746.7335	0.0895	1493467	keystroke_y	y	n/a
746.9135	0.12	1493827	keystroke_s	s	n/a
747.1085	0.1195	1494217	keystroke_Key.space	Key.space	n/a
747.333	0.105	1494666	keystroke_u	u	n/a
747.4535	0.089	1494907	keystroke_s	s	n/a
747.6775	0.151	1495355	keystroke_e	e	n/a
747.8585	0.149	1495717	keystroke_r	r	n/a
748.3535	0.135	1496707	keystroke_Key.enter	Key.enter	n/a
748.5085	11.933	1497017	prompt	n/a	enhancements contribution search permission\n
749.3735	0.135	1498747	keystroke_e	e	n/a
749.538	0.105	1499076	keystroke_n	n	n/a
749.823	0.09	1499646	keystroke_h	h	n/a
749.9725	0.1355	1499945	keystroke_a	a	n/a
750.093	0.12	1500186	keystroke_n	n	n/a
750.2885	0.12	1500577	keystroke_c	c	n/a
750.588	0.0905	1501176	keystroke_e	e	n/a
750.813	0.0905	1501626	keystroke_m	m	n/a
750.9485	0.1195	1501897	keystroke_e	e	n/a
751.113	0.136	1502226	keystroke_n	n	n/a
751.188	0.1355	1502376	keystroke_t	t	n/a
751.413	0.1205	1502826	keystroke_s	s	n/a
751.6825	0.166	1503365	keystroke_Key.space	Key.space	n/a
752.2535	0.105	1504507	keystroke_c	c	n/a
752.3735	0.12	1504747	keystroke_o	o	n/a
752.5385	0.12	1505077	keystroke_n	n	n/a
752.8385	0.06	1505677	keystroke_t	t	n/a
753.3485	0.059	1506697	keystroke_r	r	n/a
753.5125	0.061	1507025	keystroke_i	i	n/a
753.888	0.135	1507776	keystroke_b	b	n/a
754.038	0.12	1508076	keystroke_u	u	n/a
754.278	0.135	1508556	keystroke_t	t	n/a
754.308	0.2395	1508616	keystroke_i	i	n/a
754.443	0.2105	1508886	keystroke_o	o	n/a
754.698	0.12	1509396	keystroke_n	n	n/a
755.193	0.1205	1510386	keystroke_Key.space	Key.space	n/a
755.419	0.1045	1510838	keystroke_s	s	n/a
755.628	0.135	1511256	keystroke_e	e	n/a
755.838	0.1205	1511676	keystroke_a	a	n/a
756.2735	0.1045	1512547	keystroke_r	r	n/a
756.603	0.1055	1513206	keystroke_c	c	n/a
756.753	0.15	1513506	keystroke_h	h	n/a
757.023	0.12	1514046	keystroke_Key.space	Key.space	n/a
757.5785	0.089	1515157	keystroke_p	p	n/a
757.8335	0.18	1515667	keystroke_e	e	n/a
758.0275	0.136	1516055	keystroke_r	r	n/a
758.4185	0.1645	1516837	keystroke_m	m	n/a
758.719	0.074	1517438	keystroke_i	i	n/a
759.018	0.06	1518036	keystroke_s	s	n/a
759.183	0.06	1518366	keystroke_s	s	n/a
759.3025	0.15	1518605	keystroke_i	i	n/a
759.3785	0.1945	1518757	keystroke_o	o	n/a
759.693	0.135	1519386	keystroke_n	n	n/a
760.293	0.135	1520586	keystroke_Key.enter	Key.enter	n/a
760.449	10.586	1520898	prompt	n/a	fountain theory charms bend\n
761.6745	0.1485	1523349	keystroke_f	f	n/a
761.868	0.21	1523736	keystroke_o	o	n/a
762.018	0.1355	1524036	keystroke_u	u	n/a
762.288	0.135	1524576	keystroke_n	n	n/a
762.453	0.12	1524906	keystroke_t	t	n/a
762.618	0.1205	1525236	keystroke_a	a	n/a
763.773	0.135	1527546	keystroke_i	i	n/a
764.0435	0.164	1528087	keystroke_n	n	n/a
765.8425	0.105	1531685	keystroke_Key.space	Key.space	n/a
766.188	0.165	1532376	keystroke_t	t	n/a
766.2775	0.135	1532555	keystroke_h	h	n/a
766.5185	0.18	1533037	keystroke_e	e	n/a
766.7285	0.119	1533457	keystroke_o	o	n/a
766.833	0.1045	1533666	keystroke_r	r	n/a
767.1035	0.135	1534207	keystroke_y	y	n/a
767.5675	0.1055	1535135	keystroke_Key.space	Key.space	n/a
767.823	0.1055	1535646	keystroke_c	c	n/a
767.8675	0.1205	1535735	keystroke_h	h	n/a
768.0325	0.1805	1536065	keystroke_a	a	n/a
768.243	0.12	1536486	keystroke_r	r	n/a
768.319	0	1536638	keystroke_Key.f15	Key.f15	n/a
768.423	0.1205	1536846	keystroke_m	m	n/a
768.693	0.105	1537386	keystroke_s	s	n/a
769.233	0.18	1538466	keystroke_Key.space	Key.space	n/a
769.6985	0.089	1539397	keystroke_b	b	n/a
769.9235	0.134	1539847	keystroke_e	e	n/a
770.029	0.1185	1540058	keystroke_n	n	n/a
770.313	0.105	1540626	keystroke_d	d	n/a
770.8835	0.1345	1541767	keystroke_Key.enter	Key.enter	n/a
771.042	14.57	1542084	prompt	n/a	numeric hear metropolitan traffic\n
772.1285	0.12	1544257	keystroke_n	n	n/a
773.058	0.075	1546116	keystroke_u	u	n/a
773.3435	0.1195	1546687	keystroke_m	m	n/a
773.658	0.1355	1547316	keystroke_e	e	n/a
773.838	0.0745	1547676	keystroke_r	r	n/a
773.8975	0.1355	1547795	keystroke_i	i	n/a
774.0785	0.135	1548157	keystroke_c	c	n/a
774.4525	0.15	1548905	keystroke_Key.space	Key.space	n/a
774.9035	0.119	1549807	keystroke_h	h	n/a
775.083	0.1055	1550166	keystroke_e	e	n/a
775.2635	0.1345	1550527	keystroke_a	a	n/a
775.4135	0.1795	1550827	keystroke_r	r	n/a
775.713	0.1205	1551426	keystroke_Key.space	Key.space	n/a
776.0135	0.1645	1552027	keystroke_m	m	n/a
776.838	0.105	1553676	keystroke_e	e	n/a
777.003	0.135	1554006	keystroke_t	t	n/a
777.183	0.12	1554366	keystroke_o	o	n/a
777.3185	0.105	1554637	keystroke_r	r	n/a
778.0975	0.106	1556195	keystroke_Key.backspace	Key.backspace	n/a
778.5925	0.105	1557185	keystroke_Key.backspace	Key.backspace	n/a
778.8935	0.135	1557787	keystroke_r	r	n/a
779.1335	0.06	1558267	keystroke_o	o	n/a
779.6435	0.1495	1559287	keystroke_p	p	n/a
781.189	0.209	1562378	keystroke_o	o	n/a
782.223	0.12	1564446	keystroke_l	l	n/a
782.419	0.15	1564838	keystroke_i	i	n/a
782.688	0.121	1565376	keystroke_t	t	n/a
782.883	0.12	1565766	keystroke_a	a	n/a
783.018	0.105	1566036	keystroke_n	n	n/a
783.333	0.135	1566666	keystroke_Key.space	Key.space	n/a
783.574	0.119	1567148	keystroke_t	t	n/a
783.798	0.105	1567596	keystroke_r	r	n/a
784.009	0.104	1568018	keystroke_a	a	n/a
784.503	0.09	1569006	keystroke_f	f	n/a
784.6535	0.09	1569307	keystroke_f	f	n/a
784.8035	0.135	1569607	keystroke_i	i	n/a
784.9535	0.12	1569907	keystroke_c	c	n/a
785.4485	0.1345	1570897	keystroke_Key.enter	Key.enter	n/a
785.623	10.8295	1571246	prompt	n/a	adult payment i'll campaigns\n
786.6335	0.1195	1573267	keystroke_a	a	n/a
786.8125	0.151	1573625	keystroke_d	d	n/a
786.9925	0.135	1573985	keystroke_u	u	n/a
787.2185	0.12	1574437	keystroke_l	l	n/a
787.368	0.165	1574736	keystroke_t	t	n/a
787.683	0.135	1575366	keystroke_Key.space	Key.space	n/a
787.9685	0.12	1575937	keystroke_p	p	n/a
788.1185	0.15	1576237	keystroke_a	a	n/a
788.4775	0.121	1576955	keystroke_y	y	n/a
788.808	0.12	1577616	keystroke_m	m	n/a
788.988	0.165	1577976	keystroke_e	e	n/a
789.138	0.165	1578276	keystroke_n	n	n/a
789.288	0.12	1578576	keystroke_t	t	n/a
790.173	0.1205	1580346	keystroke_Key.space	Key.space	n/a
790.6535	0.1495	1581307	keystroke_i	i	n/a
790.968	0.135	1581936	keystroke_'	'	n/a
791.448	0.1195	1582896	keystroke_l	l	n/a
791.6585	0.105	1583317	keystroke_l	l	n/a
792.0475	0.135	1584095	keystroke_Key.space	Key.space	n/a
792.4535	0.134	1584907	keystroke_c	c	n/a
792.603	0.15	1585206	keystroke_o	o	n/a
793.323	0.12	1586646	keystroke_Key.backspace	Key.backspace	n/a
793.4885	0.1345	1586977	keystroke_a	a	n/a
793.668	0.15	1587336	keystroke_m	m	n/a
794.043	0.135	1588086	keystroke_p	p	n/a
794.268	0.1205	1588536	keystroke_a	a	n/a
794.553	0.135	1589106	keystroke_i	i	n/a
794.883	0.105	1589766	keystroke_g	g	n/a
795.033	0.165	1590066	keystroke_n	n	n/a
795.393	0.119	1590786	keystroke_s	s	n/a
796.2925	0.1505	1592585	keystroke_Key.enter	Key.enter	n/a
796.4575	30.1795	1592915	prompt	n/a	designer architectural truth advance\n
797.478	0.0745	1594956	keystroke_d	d	n/a
797.703	0.1205	1595406	keystroke_e	e	n/a
798.0035	0.104	1596007	keystroke_s	s	n/a
798.2575	0.1205	1596515	keystroke_i	i	n/a
798.9485	0.1495	1597897	keystroke_n	n	n/a
799.653	0.12	1599306	keystroke_Key.backspace	Key.backspace	n/a
799.848	0.15	1599696	keystroke_g	g	n/a
800.043	0.165	1600086	keystroke_n	n	n/a
800.7485	0.165	1601497	keystroke_e	e	n/a
800.928	0.165	1601856	keystroke_r	r	n/a
801.1385	0.1195	1602277	keystroke_Key.space	Key.space	n/a
801.6635	0.135	1603327	keystroke_a	a	n/a
801.9035	0.105	1603807	keystroke_r	r	n/a
802.323	0.105	1604646	keystroke_c	c	n/a
802.668	0.121	1605336	keystroke_h	h	n/a
803.133	0.18	1606266	keystroke_i	i	n/a
803.419	0.134	1606838	keystroke_t	t	n/a
803.628	0.105	1607256	keystroke_u	u	n/a
804.558	0.104	1609116	keystroke_e	e	n/a
804.8135	0.134	1609627	keystroke_c	c	n/a
805.1135	0.135	1610227	keystroke_t	t	n/a
805.293	0.12	1610586	keystroke_u	u	n/a
805.428	0.1205	1610856	keystroke_r	r	n/a
805.7125	0.1205	1611425	keystroke_a	a	n/a
805.9225	0.121	1611845	keystroke_l	l	n/a
807.4675	0.1655	1614935	keystroke_Key.space	Key.space	n/a
807.7835	0.135	1615567	keystroke_t	t	n/a
808.0235	0.12	1616047	keystroke_r	r	n/a
808.4435	0.135	1616887	keystroke_u	u	n/a
808.8485	0.1495	1617697	keystroke_t	t	n/a
808.983	0.1655	1617966	keystroke_h	h	n/a
813.395	0.103	1626790	keystroke_Key.backspace	Key.backspace	n/a
813.723	0.12	1627446	keystroke_Key.backspace	Key.backspace	n/a
814.008	0.105	1628016	keystroke_Key.backspace	Key.backspace	n/a
814.263	0.1055	1628526	keystroke_Key.backspace	Key.backspace	n/a
814.518	0.105	1629036	keystroke_Key.backspace	Key.backspace	n/a
814.788	0.1055	1629576	keystroke_Key.backspace	Key.backspace	n/a
815.0585	0.09	1630117	keystroke_Key.backspace	Key.backspace	n/a
815.3135	0.119	1630627	keystroke_Key.backspace	Key.backspace	n/a
815.5685	0.12	1631137	keystroke_Key.backspace	Key.backspace	n/a
815.8235	0.105	1631647	keystroke_Key.backspace	Key.backspace	n/a
816.1535	0.12	1632307	keystroke_Key.backspace	Key.backspace	n/a
816.3935	0.105	1632787	keystroke_Key.backspace	Key.backspace	n/a
816.6175	0.135	1633235	keystroke_Key.backspace	Key.backspace	n/a
816.948	0.1195	1633896	keystroke_Key.backspace	Key.backspace	n/a
818.929	0.135	1637858	keystroke_e	e	n/a
819.2435	0.135	1638487	keystroke_c	c	n/a
819.4985	0.135	1638997	keystroke_t	t	n/a
819.7535	0.119	1639507	keystroke_u	u	n/a
819.828	0.18	1639656	keystroke_r	r	n/a
820.0675	0.166	1640135	keystroke_a	a	n/a
820.3085	0.089	1640617	keystroke_l	l	n/a
821.088	0.105	1642176	keystroke_Key.space	Key.space	n/a
821.448	0.105	1642896	keystroke_t	t	n/a
822.003	0.1355	1644006	keystroke_r	r	n/a
822.2135	0.105	1644427	keystroke_u	u	n/a
822.439	0.1345	1644878	keystroke_t	t	n/a
822.5755	0.1475	1645151	keystroke_h	h	n/a
822.903	0.15	1645806	keystroke_Key.space	Key.space	n/a
823.188	0.135	1646376	keystroke_a	a	n/a
823.3835	0.105	1646767	keystroke_d	d	n/a
823.6535	0.135	1647307	keystroke_v	v	n/a
823.8335	0.1645	1647667	keystroke_a	a	n/a
824.013	0.09	1648026	keystroke_n	n	n/a
824.148	0.1205	1648296	keystroke_c	c	n/a
824.418	0.12	1648836	keystroke_e	e	n/a
826.4275	0.195	1652855	keystroke_Key.enter	Key.enter	n/a
826.6445	9.636	1653289	prompt	n/a	apparent breath pixel urls\n
827.5125	0	1655025	keystroke_Key.f15	Key.f15	n/a
827.553	0.135	1655106	keystroke_a	a	n/a
827.823	0.105	1655646	keystroke_p	p	n/a
828.003	0.121	1656006	keystroke_p	p	n/a
828.318	0.165	1656636	keystroke_a	a	n/a
828.5585	0.1345	1657117	keystroke_r	r	n/a
828.828	0.12	1657656	keystroke_e	e	n/a
828.963	0.1055	1657926	keystroke_n	n	n/a
829.0985	0.1345	1658197	keystroke_t	t	n/a
829.338	0.135	1658676	keystroke_Key.space	Key.space	n/a
829.759	0.104	1659518	keystroke_b	b	n/a
830.118	0.09	1660236	keystroke_r	r	n/a
830.298	0.09	1660596	keystroke_e	e	n/a
830.523	0.09	1661046	keystroke_a	a	n/a
830.7925	0.15	1661585	keystroke_t	t	n/a
830.9435	0.105	1661887	keystroke_h	h	n/a
832.2035	0.149	1664407	keystroke_Key.space	Key.space	n/a
832.848	0.105	1665696	keystroke_p	p	n/a
833.028	0.1055	1666056	keystroke_i	i	n/a
833.418	0.135	1666836	keystroke_x	x	n/a
833.7485	0.1045	1667497	keystroke_e	e	n/a
833.988	0.105	1667976	keystroke_l	l	n/a
834.303	0.1195	1668606	keystroke_Key.space	Key.space	n/a
834.6025	0.075	1669205	keystroke_u	u	n/a
835.0535	0.1495	1670107	keystroke_r	r	n/a
835.2935	0.0905	1670587	keystroke_l	l	n/a
835.4435	0.1045	1670887	keystroke_s	s	n/a
836.163	0.1045	1672326	keystroke_Key.enter	Key.enter	n/a
836.2925	10.429	1672585	prompt	n/a	japanese puzzle ultra confirm\n
837.5135	0.135	1675027	keystroke_j	j	n/a
837.7535	0.135	1675507	keystroke_a	a	n/a
837.9185	0.135	1675837	keystroke_p	p	n/a
838.1435	0.089	1676287	keystroke_a	a	n/a
838.2785	0.105	1676557	keystroke_n	n	n/a
838.5035	0.105	1677007	keystroke_e	e	n/a
838.7285	0.09	1677457	keystroke_s	s	n/a
838.939	0.119	1677878	keystroke_e	e	n/a
839.313	0.1345	1678626	keystroke_Key.space	Key.space	n/a
840.349	0.164	1680698	keystroke_p	p	n/a
840.648	0.136	1681296	keystroke_u	u	n/a
841.1885	0.12	1682377	keystroke_z	z	n/a
841.414	0.0745	1682828	keystroke_z	z	n/a
