onset	duration	sample	value	key	prompt_text
3.274	17.7015	6548	prompt	n/a	the quick brown fox jumps over a lazy dog\n
4.6855	0.027	9371	keystroke	t	n/a
4.8175	0.09	9635	keystroke	h	n/a
4.9375	0.09	9875	keystroke	e	n/a
5.0425	0.1055	10085	keystroke	Key.space	n/a
5.703	0.09	11406	keystroke	q	n/a
5.853	0.135	11706	keystroke	u	n/a
5.943	0.105	11886	keystroke	i	n/a
6.348	0.075	12696	keystroke	c	n/a
6.438	0.075	12876	keystroke	k	n/a
6.5875	0.0755	13175	keystroke	Key.space	n/a
6.7225	0.075	13445	keystroke	b	n/a
6.8575	0.09	13715	keystroke	r	n/a
7.5925	0.045	15185	keystroke	o	n/a
7.6525	0.09	15305	keystroke	w	n/a
7.7575	0.09	15515	keystroke	n	n/a
7.9675	0.0905	15935	keystroke	Key.space	n/a
11.21	0.001	22420	keystroke	f	n/a
11.211	0.042	22422	keystroke	i	n/a
11.3575	0.1055	22715	keystroke	x	n/a
11.448	0.075	22896	keystroke	Key.space	n/a
12.2275	0.105	24455	keystroke	=	n/a
12.4975	0.075	24995	keystroke	Key.backspace	n/a
12.6625	0.075	25325	keystroke	Key.backspace	n/a
12.8275	0.075	25655	keystroke	Key.backspace	n/a
12.9775	0.075	25955	keystroke	Key.backspace	n/a
13.1425	0.075	26285	keystroke	Key.backspace	n/a
13.3075	0.09	26615	keystroke	Key.backspace	n/a
14.553	0.045	29106	keystroke	Key.backspace	n/a
14.733	0.03	29466	keystroke	Key.backspace	n/a
14.8685	0.045	29737	keystroke	Key.backspace	n/a
15.5135	0.104	31027	keystroke	Key.caps_lock	n/a
15.6635	0.0745	31327	keystroke	t	n/a
15.828	0.075	31656	keystroke	h	n/a
15.918	0.075	31836	keystroke	e	n/a
16.023	0.09	32046	keystroke	Key.space	n/a
16.128	0.0905	32256	keystroke	q	n/a
16.2935	0.105	32587	keystroke	u	n/a
16.3535	0.09	32707	keystroke	i	n/a
16.4885	0.06	32977	keystroke	c	n/a
16.5785	0.075	33157	keystroke	k	n/a
16.7425	0.075	33485	keystroke	Key.space	n/a
16.9085	0.06	33817	keystroke	b	n/a
16.9985	0.09	33997	keystroke	r	n/a
17.1035	0.075	34207	keystroke	o	n/a
17.2085	0.09	34417	keystroke	w	n/a
17.3135	0.075	34627	keystroke	n	n/a
17.4775	0.0755	34955	keystroke	Key.space	n/a
17.568	0.06	35136	keystroke	f	n/a
17.6735	0.074	35347	keystroke	o	n/a
17.7925	0.075	35585	keystroke	x	n/a
17.8825	0.09	35765	keystroke	Key.space	n/a
18.0625	0.075	36125	keystroke	j	n/a
18.228	0.075	36456	keystroke	u	n/a
18.408	0.09	36816	keystroke	m	n/a
18.573	0.105	37146	keystroke	p	n/a
18.723	0.09	37446	keystroke	s	n/a
18.843	0.1045	37686	keystroke	Key.space	n/a
19.0225	0.09	38045	keystroke	o	n/a
19.0835	0.074	38167	keystroke	v	n/a
19.2625	0.091	38525	keystroke	e	n/a
19.3225	0.105	38645	keystroke	r	n/a
19.4425	0.09	38885	keystroke	Key.space	n/a
19.5475	0.105	39095	keystroke	a	n/a
19.6825	0.0905	39365	keystroke	Key.space	n/a
19.878	0.105	39756	keystroke	l	n/a
19.938	0.075	39876	keystroke	a	n/a
20.1025	0.121	40205	keystroke	z	n/a
20.2385	0.059	40477	keystroke	y	n/a
20.4175	0.105	40835	keystroke	Key.space	n/a
20.5075	0.06	41015	keystroke	d	n/a
20.628	0.0895	41256	keystroke	o	n/a
20.7325	0.075	41465	keystroke	g	n/a
20.8675	0.105	41735	keystroke	Key.enter	n/a
20.981	12.159	41962	prompt	n/a	richard wallace emirates april\n
26.7505	0.028	53501	keystroke	r	n/a
26.8235	0.135	53647	keystroke	i	n/a
27.0185	0.0895	54037	keystroke	c	n/a
27.123	0.09	54246	keystroke	h	n/a
27.228	0.075	54456	keystroke	a	n/a
27.363	0.075	54726	keystroke	r	n/a
27.528	0.06	55056	keystroke	d	n/a
27.603	0.06	55206	keystroke	Key.space	n/a
27.7235	0.075	55447	keystroke	w	n/a
27.8885	0.09	55777	keystroke	a	n/a
28.0085	0.06	56017	keystroke	l	n/a
28.1435	0.0895	56287	keystroke	l	n/a
28.218	0.075	56436	keystroke	a	n/a
28.428	0.1055	56856	keystroke	c	n/a
28.5485	0.105	57097	keystroke	e	n/a
28.6685	0.12	57337	keystroke	Key.space	n/a
29.0285	0.09	58057	keystroke	e	n/a
29.1635	0.015	58327	keystroke	n	n/a
29.7335	0.1045	59467	keystroke	Key.backspace	n/a
30.8435	0.075	61687	keystroke	m	n/a
31.0535	0.105	62107	keystroke	i	n/a
31.1735	0.09	62347	keystroke	r	n/a
31.3535	0.105	62707	keystroke	a	n/a
31.548	0.1205	63096	keystroke	t	n/a
31.638	0.09	63276	keystroke	e	n/a
31.818	0.106	63636	keystroke	s	n/a
31.908	0.076	63816	keystroke	Key.space	n/a
32.044	0.105	64088	keystroke	a	n/a
32.164	0.12	64328	keystroke	p	n/a
32.298	0.106	64596	keystroke	r	n/a
32.433	0.1055	64866	keystroke	i	n/a
32.7035	0.0895	65407	keystroke	l	n/a
33.018	0.12	66036	keystroke	Key.enter	n/a
33.143	5.037	66286	prompt	n/a	grow fishing may widely\n
33.919	0.059	67838	keystroke	g	n/a
34.203	0.09	68406	keystroke	r	n/a
34.473	0.015	68946	keystroke	o	n/a
34.503	0.09	69006	keystroke	w	n/a
34.683	0.09	69366	keystroke	Key.space	n/a
35.1485	0.075	70297	keystroke	f	n/a
35.2235	0.105	70447	keystroke	i	n/a
35.3735	0.105	70747	keystroke	s	n/a
35.5685	0.09	71137	keystroke	h	n/a
35.673	0.0755	71346	keystroke	i	n/a
35.8085	0.09	71617	keystroke	n	n/a
35.9285	0.06	71857	keystroke	g	n/a
36.0335	0.09	72067	keystroke	Key.space	n/a
36.3335	0.075	72667	keystroke	m	n/a
36.4235	0.105	72847	keystroke	a	n/a
36.8585	0.06	73717	keystroke	y	n/a
37.0535	0.09	74107	keystroke	Key.space	n/a
37.1735	0.105	74347	keystroke	w	n/a
37.3085	0.09	74617	keystroke	i	n/a
37.4435	0.135	74887	keystroke	d	n/a
37.5185	0.12	75037	keystroke	e	n/a
37.6085	0.0895	75217	keystroke	l	n/a
37.833	0.06	75666	keystroke	y	n/a
38.073	0.105	76146	keystroke	Key.enter	n/a
38.183	5.217	76366	prompt	n/a	basic warned here respondent\n
38.9735	0.075	77947	keystroke	b	n/a
39.0335	0.12	78067	keystroke	a	n/a
39.0935	0.105	78187	keystroke	s	n/a
39.2285	0.09	78457	keystroke	i	n/a
39.3635	0.09	78727	keystroke	c	n/a
39.5135	0.12	79027	keystroke	Key.space	n/a
39.873	0.09	79746	keystroke	w	n/a
40.038	0.09	80076	keystroke	a	n/a
40.218	0.075	80436	keystroke	r	n/a
40.338	0.09	80676	keystroke	n	n/a
40.398	0.12	80796	keystroke	e	n/a
40.503	0.09	81006	keystroke	d	n/a
40.638	0.1055	81276	keystroke	Key.space	n/a
40.968	0.09	81936	keystroke	h	n/a
41.028	0.12	82056	keystroke	e	n/a
41.133	0.195	82266	keystroke	r	n/a
41.238	0.12	82476	keystroke	e	n/a
41.4035	0.105	82807	keystroke	Key.space	n/a
41.598	0.1355	83196	keystroke	r	n/a
41.643	0.1355	83286	keystroke	e	n/a
41.8835	0.12	83767	keystroke	s	n/a
42.1085	0.1655	84217	keystroke	p	n/a
42.2435	0.0905	84487	keystroke	o	n/a
42.529	0.105	85058	keystroke	n	n/a
42.649	0.135	85298	keystroke	d	n/a
42.739	0.135	85478	keystroke	e	n/a
42.949	0.09	85898	keystroke	n	n/a
43.099	0.105	86198	keystroke	t	n/a
43.279	0.12	86558	keystroke	Key.enter	n/a
43.404	5.247	86808	prompt	n/a	unlock bytes class stunning\n
44.1635	0.12	88327	keystroke	u	n/a
44.2385	0.105	88477	keystroke	n	n/a
44.4785	0.075	88957	keystroke	l	n/a
44.6885	0.06	89377	keystroke	o	n/a
44.7635	0.0755	89527	keystroke	c	n/a
44.929	0.09	89858	keystroke	k	n/a
45.154	0.09	90308	keystroke	Key.space	n/a
45.454	0.105	90908	keystroke	b	n/a
45.603	0.076	91206	keystroke	y	n/a
45.769	0.075	91538	keystroke	t	n/a
45.859	0.09	91718	keystroke	e	n/a
46.054	0.09	92108	keystroke	s	n/a
46.1885	0.1055	92377	keystroke	Key.space	n/a
46.6235	0.09	93247	keystroke	c	n/a
46.7285	0.09	93457	keystroke	l	n/a
46.8635	0.135	93727	keystroke	a	n/a
46.9535	0.075	93907	keystroke	s	n/a
47.1185	0.075	94237	keystroke	s	n/a
47.2535	0.12	94507	keystroke	Key.space	n/a
47.4185	0.105	94837	keystroke	s	n/a
47.6135	0.09	95227	keystroke	t	n/a
47.7185	0.06	95437	keystroke	u	n/a
47.914	0.075	95828	keystroke	n	n/a
48.079	0.075	96158	keystroke	n	n/a
48.169	0.09	96338	keystroke	i	n/a
48.274	0.075	96548	keystroke	n	n/a
48.364	0.09	96728	keystroke	g	n/a
48.544	0.105	97088	keystroke	Key.enter	n/a
48.6545	6.401	97309	prompt	n/a	example donate demonstration copied\n
49.354	0.105	98708	keystroke	e	n/a
49.624	0.0745	99248	keystroke	x	n/a
49.7885	0.12	99577	keystroke	a	n/a
49.8935	0.075	99787	keystroke	m	n/a
50.1485	0.12	100297	keystroke	p	n/a
50.2535	0.06	100507	keystroke	l	n/a
50.4035	0.105	100807	keystroke	e	n/a
50.5685	0.09	101137	keystroke	Key.space	n/a
50.7935	0.09	101587	keystroke	d	n/a
50.8985	0.06	101797	keystroke	o	n/a
51.064	0.09	102128	keystroke	n	n/a
51.184	0.12	102368	keystroke	a	n/a
51.3485	0.0605	102697	keystroke	t	n/a
51.529	0.09	103058	keystroke	e	n/a
51.723	0.09	103446	keystroke	Key.space	n/a
51.948	0.135	103896	keystroke	d	n/a
52.023	0.135	104046	keystroke	e	n/a
52.143	0.09	104286	keystroke	m	n/a
52.308	0.075	104616	keystroke	o	n/a
52.473	0.09	104946	keystroke	n	n/a
52.548	0.09	105096	keystroke	s	n/a
52.728	0.075	105456	keystroke	t	n/a
52.878	0.075	105756	keystroke	r	n/a
52.983	0.105	105966	keystroke	a	n/a
53.178	0.1055	106356	keystroke	t	n/a
53.2685	0.105	106537	keystroke	i	n/a
53.3435	0.06	106687	keystroke	o	n/a
53.5235	0.075	107047	keystroke	n	n/a
53.7035	0.075	107407	keystroke	Key.space	n/a
53.7935	0.105	107587	keystroke	c	n/a
53.9735	0.06	107947	keystroke	o	n/a
54.1985	0.09	108397	keystroke	p	n/a
54.3335	0.09	108667	keystroke	i	n/a
54.4235	0.06	108847	keystroke	e	n/a
54.6035	0.075	109207	keystroke	d	n/a
54.9335	0.12	109867	keystroke	Key.enter	n/a
55.0585	6.387	110117	prompt	n/a	backed surf genetic measurements\n
56.0585	0.09	112117	keystroke	b	n/a
56.1635	0.06	112327	keystroke	a	n/a
56.3585	0.075	112717	keystroke	c	n/a
56.4785	0.09	112957	keystroke	k	n/a
56.5385	0.12	113077	keystroke	e	n/a
56.6285	0.12	113257	keystroke	d	n/a
56.8085	0.105	113617	keystroke	Key.space	n/a
57.2735	0.1055	114547	keystroke	s	n/a
57.424	0.09	114848	keystroke	u	n/a
57.544	0.09	115088	keystroke	r	n/a
57.949	0.09	115898	keystroke	f	n/a
58.114	0.075	116228	keystroke	Key.space	n/a
58.9685	0.0905	117937	keystroke	g	n/a
59.089	0.0445	118178	keystroke	e	n/a
59.1935	0.09	118387	keystroke	n	n/a
59.2685	0.045	118537	keystroke	e	n/a
59.4485	0.075	118897	keystroke	t	n/a
59.5385	0.075	119077	keystroke	i	n/a
59.6585	0.09	119317	keystroke	c	n/a
59.794	0.0745	119588	keystroke	Key.space	n/a
60.0035	0.075	120007	keystroke	m	n/a
60.0335	0.105	120067	keystroke	e	n/a
60.1085	0.15	120217	keystroke	a	n/a
60.2435	0.1055	120487	keystroke	s	n/a
60.409	0.09	120818	keystroke	u	n/a
60.514	0.12	121028	keystroke	r	n/a
60.589	0.12	121178	keystroke	e	n/a
60.694	0.09	121388	keystroke	m	n/a
60.814	0.105	121628	keystroke	e	n/a
60.949	0.089	121898	keystroke	n	n/a
61.069	0.06	122138	keystroke	t	n/a
61.233	0.0755	122466	keystroke	s	n/a
61.3535	0.09	122707	keystroke	Key.enter	n/a
61.4535	7.0115	122907	prompt	n/a	license unsubscribe told families\n
62.0435	0.09	124087	keystroke	l	n/a
62.2385	0.09	124477	keystroke	i	n/a
62.3295	0.074	124659	keystroke	c	n/a
62.4485	0.0905	124897	keystroke	e	n/a
62.569	0.09	125138	keystroke	n	n/a
62.689	0.09	125378	keystroke	s	n/a
62.824	0.09	125648	keystroke	e	n/a
62.944	0.105	125888	keystroke	Key.space	n/a
63.244	0.135	126488	keystroke	u	n/a
63.334	0.12	126668	keystroke	n	n/a
63.559	0.105	127118	keystroke	s	n/a
63.979	0.075	127958	keystroke	u	n/a
64.069	0.09	128138	keystroke	s	n/a
64.264	0.075	128528	keystroke	c	n/a
64.459	0.09	128918	keystroke	r	n/a
64.534	0.09	129068	keystroke	i	n/a
64.729	0.09	129458	keystroke	b	n/a
64.849	0.09	129698	keystroke	e	n/a
65.044	0.12	130088	keystroke	Key.space	n/a
65.419	0.09	130838	keystroke	t	n/a
65.524	0.06	131048	keystroke	o	n/a
65.6735	0.0905	131347	keystroke	l	n/a
65.779	0.09	131558	keystroke	d	n/a
65.959	0.09	131918	keystroke	Key.space	n/a
67.3385	0.075	134677	keystroke	f	n/a
67.4735	0.12	134947	keystroke	a	n/a
67.5635	0.09	135127	keystroke	m	n/a
67.6685	0.09	135337	keystroke	i	n/a
67.8485	0.09	135697	keystroke	l	n/a
68.0285	0.105	136057	keystroke	i	n/a
68.0885	0.105	136177	keystroke	e	n/a
68.2535	0.12	136507	keystroke	s	n/a
68.3585	0.105	136717	keystroke	Key.enter	n/a
68.471	8.0495	136942	prompt	n/a	typically handle objectives daren't\n
69.3185	0.06	138637	keystroke	t	n/a
69.4835	0.075	138967	keystroke	y	n/a
69.709	0.135	139418	keystroke	p	n/a
69.784	0.105	139568	keystroke	i	n/a
69.874	0.045	139748	keystroke	c	n/a
70.024	0.09	140048	keystroke	a	n/a
70.084	0.075	140168	keystroke	l	n/a
70.234	0.09	140468	keystroke	l	n/a
70.459	0.105	140918	keystroke	y	n/a
70.7135	0.105	141427	keystroke	Key.space	n/a
71.029	0.09	142058	keystroke	h	n/a
71.149	0.12	142298	keystroke	a	n/a
71.299	0.09	142598	keystroke	n	n/a
71.404	0.09	142808	keystroke	d	n/a
71.539	0.09	143078	keystroke	l	n/a
71.644	0.09	143288	keystroke	e	n/a
71.809	0.105	143618	keystroke	Key.space	n/a
72.0935	0.09	144187	keystroke	o	n/a
72.799	0.075	145598	keystroke	b	n/a
73.039	0.075	146078	keystroke	j	n/a
73.144	0.06	146288	keystroke	e	n/a
73.324	0.075	146648	keystroke	c	n/a
73.519	0.075	147038	keystroke	t	n/a
73.579	0.09	147158	keystroke	i	n/a
73.7135	0.075	147427	keystroke	v	n/a
73.8635	0.09	147727	keystroke	e	n/a
74.0585	0.0905	148117	keystroke	s	n/a
74.149	0.105	148298	keystroke	Key.space	n/a
74.404	0.09	148808	keystroke	d	n/a
74.569	0.135	149138	keystroke	a	n/a
75.169	0.12	150338	keystroke	r	n/a
75.244	0.12	150488	keystroke	e	n/a
75.439	0.075	150878	keystroke	n	n/a
75.9635	0.09	151927	keystroke	'	n/a
76.2485	0.1205	152497	keystroke	t	n/a
76.428	0.09	152856	keystroke	Key.enter	n/a
76.5295	6.2455	153059	prompt	n/a	kind starring ashley omega\n
77.449	0.059	154898	keystroke	k	n/a
77.5985	0.09	155197	keystroke	i	n/a
77.7035	0.105	155407	keystroke	n	n/a
77.8985	0.06	155797	keystroke	d	n/a
77.9735	0.105	155947	keystroke	Key.space	n/a
78.1085	0.09	156217	keystroke	s	n/a
78.2285	0.06	156457	keystroke	t	n/a
78.3035	0.09	156607	keystroke	a	n/a
78.4835	0.06	156967	keystroke	r	n/a
78.6635	0.045	157327	keystroke	r	n/a
78.7235	0.105	157447	keystroke	i	n/a
78.8435	0.09	157687	keystroke	n	n/a
78.9635	0.09	157927	keystroke	g	n/a
79.1285	0.09	158257	keystroke	Key.space	n/a
79.3535	0.135	158707	keystroke	a	n/a
79.4585	0.12	158917	keystroke	s	n/a
79.8035	0.075	159607	keystroke	h	n/a
80.0135	0.09	160027	keystroke	l	n/a
80.1335	0.075	160267	keystroke	e	n/a
80.2535	0.075	160507	keystroke	y	n/a
80.4635	0.075	160927	keystroke	Key.space	n/a
80.7035	0.105	161407	keystroke	m	n/a
81.078	0.105	162156	keystroke	Key.backspace	n/a
81.483	0.12	162966	keystroke	o	n/a
81.663	0.106	163326	keystroke	m	n/a
81.873	0.0905	163746	keystroke	e	n/a
82.2635	0.09	164527	keystroke	g	n/a
82.3835	0.105	164767	keystroke	a	n/a
82.6235	0.15	165247	keystroke	Key.enter	n/a
82.7775	8.4425	165555	prompt	n/a	birmingham endorsed point equation\n
83.9585	0.075	167917	keystroke	b	n/a
84.694	0.225	169388	keystroke	i	n/a
85.489	0.075	170978	keystroke	r	n/a
85.848	0.105	171696	keystroke	m	n/a
86.013	0.09	172026	keystroke	i	n/a
86.163	0.105	172326	keystroke	n	n/a
86.313	0.0905	172626	keystroke	g	n/a
86.7785	0.015	173557	keystroke	h	n/a
86.8085	0.15	173617	keystroke	a	n/a
86.9435	0.06	173887	keystroke	m	n/a
87.138	0.075	174276	keystroke	Key.space	n/a
87.588	0.09	175176	keystroke	e	n/a
87.708	0.106	175416	keystroke	n	n/a
87.843	0.09	175686	keystroke	d	n/a
87.978	0.105	175956	keystroke	o	n/a
88.099	0.075	176198	keystroke	r	n/a
88.2635	0.12	176527	keystroke	s	n/a
88.444	0.06	176888	keystroke	e	n/a
88.609	0.09	177218	keystroke	d	n/a
88.684	0.075	177368	keystroke	Key.space	n/a
88.8935	0.15	177787	keystroke	p	n/a
88.9835	0.105	177967	keystroke	o	n/a
89.209	0.074	178418	keystroke	i	n/a
89.4485	0.09	178897	keystroke	n	n/a
89.5685	0.09	179137	keystroke	t	n/a
89.7035	0.105	179407	keystroke	Key.space	n/a
89.9135	0.1345	179827	keystroke	e	n/a
90.169	0.104	180338	keystroke	q	n/a
90.349	0.089	180698	keystroke	u	n/a
90.423	0.06	180846	keystroke	a	n/a
90.603	0.09	181206	keystroke	t	n/a
90.633	0.091	181266	keystroke	i	n/a
90.708	0.075	181416	keystroke	o	n/a
90.903	0.075	181806	keystroke	n	n/a
91.128	0.0905	182256	keystroke	Key.enter	n/a
91.2225	7.963	182445	prompt	n/a	quarter perspectives command telecommunications\n
91.8785	0.09	183757	keystroke	q	n/a
92.0735	0.105	184147	keystroke	u	n/a
92.1935	0.105	184387	keystroke	a	n/a
92.3885	0.075	184777	keystroke	r	n/a
92.5835	0.09	185167	keystroke	t	n/a
92.6745	0.119	185349	keystroke	e	n/a
92.7785	0.09	185557	keystroke	r	n/a
92.8985	0.1055	185797	keystroke	Key.space	n/a
93.184	0.12	186368	keystroke	p	n/a
93.244	0.15	186488	keystroke	e	n/a
93.349	0.105	186698	keystroke	r	n/a
93.559	0.105	187118	keystroke	s	n/a
93.7235	0.12	187447	keystroke	e	n/a
93.8285	0.09	187657	keystroke	p	n/a
94.1885	0.075	188377	keystroke	c	n/a
94.3835	0.06	188767	keystroke	t	n/a
94.4585	0.09	188917	keystroke	i	n/a
94.5495	0.059	189099	keystroke	v	n/a
94.6535	0.12	189307	keystroke	e	n/a
94.8635	0.09	189727	keystroke	s	n/a
94.9685	0.09	189937	keystroke	Key.space	n/a
95.1035	0.075	190207	keystroke	c	n/a
95.1635	0.105	190327	keystroke	o	n/a
95.2835	0.09	190567	keystroke	m	n/a
95.4785	0.09	190957	keystroke	m	n/a
95.5835	0.105	191167	keystroke	a	n/a
95.7335	0.09	191467	keystroke	n	n/a
95.8535	0.105	191707	keystroke	d	n/a
96.0335	0.105	192067	keystroke	Key.space	n/a
96.6335	0.09	193267	keystroke	t	n/a
96.7985	0.075	193597	keystroke	e	n/a
96.9335	0.105	193867	keystroke	l	n/a
97.0235	0.075	194047	keystroke	e	n/a
97.2335	0.06	194467	keystroke	c	n/a
97.3085	0.075	194617	keystroke	o	n/a
97.4435	0.09	194887	keystroke	m	n/a
97.6235	0.105	195247	keystroke	m	n/a
97.8185	0.09	195637	keystroke	u	n/a
97.9235	0.09	195847	keystroke	n	n/a
98.0885	0.105	196177	keystroke	i	n/a
98.2085	0.06	196417	keystroke	c	n/a
98.3435	0.09	196687	keystroke	a	n/a
98.5235	0.09	197047	keystroke	t	n/a
98.5685	0.12	197137	keystroke	i	n/a
98.6285	0.09	197257	keystroke	o	n/a
98.8235	0.09	197647	keystroke	n	n/a
98.9285	0.075	197857	keystroke	s	n/a
99.0635	0.12	198127	keystroke	Key.enter	n/a
99.198	5.253	198396	prompt	n/a	shower landscapes headers derek\n
99.934	0.105	199868	keystroke	s	n/a
100.054	0.06	200108	keystroke	h	n/a
100.204	0.12	200408	keystroke	o	n/a
100.279	0.105	200558	keystroke	w	n/a
100.339	0.105	200678	keystroke	e	n/a
100.548	0.091	201096	keystroke	r	n/a
100.684	0.074	201368	keystroke	Key.space	n/a
100.894	0.09	201788	keystroke	l	n/a
100.969	0.104	201938	keystroke	a	n/a
101.119	0.105	202238	keystroke	n	n/a
101.194	0.074	202388	keystroke	d	n/a
101.359	0.075	202718	keystroke	s	n/a
101.509	0.06	203018	keystroke	c	n/a
101.644	0.0895	203288	keystroke	a	n/a
101.7635	0.105	203527	keystroke	p	n/a
101.8535	0.06	203707	keystroke	e	n/a
102.0485	0.045	204097	keystroke	s	n/a
102.1535	0.075	204307	keystroke	Key.space	n/a
102.3635	0.045	204727	keystroke	h	n/a
102.3785	0.135	204757	keystroke	e	n/a
102.4985	0.105	204997	keystroke	a	n/a
102.7085	0.15	205417	keystroke	d	n/a
102.8585	0.105	205717	keystroke	e	n/a
102.9785	0.105	205957	keystroke	r	n/a
103.1285	0.105	206257	keystroke	s	n/a
103.2935	0.105	206587	keystroke	Key.space	n/a
103.6385	0.1205	207277	keystroke	d	n/a
103.713	0.121	207426	keystroke	e	n/a
103.878	0.135	207756	keystroke	r	n/a
103.968	0.12	207936	keystroke	e	n/a
104.178	0.075	208356	keystroke	k	n/a
104.343	0.105	208686	keystroke	Key.enter	n/a
104.4535	10.167	208907	prompt	n/a	southern isaac democrat continued\n
105.153	0.075	210306	keystroke	s	n/a
105.348	0.15	210696	keystroke	o	n/a
105.484	0.119	210968	keystroke	u	n/a
105.648	0.09	211296	keystroke	t	n/a
105.903	0.046	211806	keystroke	h	n/a
106.758	0.1055	213516	keystroke	e	n/a
106.848	0.12	213696	keystroke	r	n/a
107.028	0.1055	214056	keystroke	n	n/a
107.2835	0.06	214567	keystroke	Key.space	n/a
107.4335	0.1055	214867	keystroke	i	n/a
107.509	0.06	215018	keystroke	s	n/a
107.659	0.0745	215318	keystroke	s	n/a
107.8835	0.015	215767	keystroke	a	n/a
108.229	0.09	216458	keystroke	a	n/a
108.439	0.075	216878	keystroke	c	n/a
108.544	0.09	217088	keystroke	Key.space	n/a
108.694	0.15	217388	keystroke	d	n/a
108.739	0.12	217478	keystroke	e	n/a
108.874	0.075	217748	keystroke	m	n/a
109.249	0.06	218498	keystroke	Key.backspace	n/a
109.414	0.075	218828	keystroke	Key.backspace	n/a
109.579	0.075	219158	keystroke	Key.backspace	n/a
109.759	0.075	219518	keystroke	Key.backspace	n/a
109.924	0.075	219848	keystroke	Key.backspace	n/a
110.119	0.03	220238	keystroke	Key.backspace	n/a
110.284	0.045	220568	keystroke	Key.backspace	n/a
110.764	0.075	221528	keystroke	a	n/a
110.974	0.09	221948	keystroke	c	n/a
111.079	0.09	222158	keystroke	Key.space	n/a
111.319	0.1195	222638	keystroke	d	n/a
111.6335	0.105	223267	keystroke	e	n/a
111.7835	0.06	223567	keystroke	m	n/a
111.9185	0.12	223837	keystroke	o	n/a
112.0235	0.0755	224047	keystroke	c	n/a
112.294	0.075	224588	keystroke	r	n/a
112.399	0.12	224798	keystroke	a	n/a
112.639	0.09	225278	keystroke	t	n/a
112.804	0.09	225608	keystroke	Key.space	n/a
113.1485	0.09	226297	keystroke	c	n/a
113.1935	0.09	226387	keystroke	o	n/a
113.3735	0.105	226747	keystroke	n	n/a
113.5235	0.105	227047	keystroke	t	n/a
113.6435	0.09	227287	keystroke	i	n/a
113.7935	0.09	227587	keystroke	n	n/a
113.989	0.12	227978	keystroke	u	n/a
114.154	0.09	228308	keystroke	e	n/a
114.3485	0.09	228697	keystroke	d	n/a
114.4985	0.12	228997	keystroke	Key.enter	n/a
114.631	5.2545	229262	prompt	n/a	condition ideas christ distance\n
115.3235	0.09	230647	keystroke	c	n/a
115.3985	0.06	230797	keystroke	o	n/a
115.5485	0.09	231097	keystroke	n	n/a
115.6535	0.0755	231307	keystroke	d	n/a
115.789	0.12	231578	keystroke	i	n/a
115.924	0.105	231848	keystroke	t	n/a
116.014	0.105	232028	keystroke	i	n/a
116.089	0.09	232178	keystroke	o	n/a
116.284	0.09	232568	keystroke	n	n/a
116.479	0.09	232958	keystroke	Key.space	n/a
116.689	0.12	233378	keystroke	i	n/a
116.899	0.105	233798	keystroke	d	n/a
117.109	0.135	234218	keystroke	e	n/a
117.214	0.165	234428	keystroke	a	n/a
117.484	0.12	234968	keystroke	s	n/a
117.619	0.135	235238	keystroke	Key.space	n/a
117.814	0.105	235628	keystroke	c	n/a
117.964	0.09	235928	keystroke	h	n/a
118.054	0.105	236108	keystroke	r	n/a
118.234	0.12	236468	keystroke	i	n/a
118.384	0.1045	236768	keystroke	s	n/a
118.5635	0.075	237127	keystroke	t	n/a
118.6685	0.105	237337	keystroke	Key.space	n/a
118.8035	0.105	237607	keystroke	d	n/a
118.8935	0.12	237787	keystroke	i	n/a
119.0285	0.075	238057	keystroke	s	n/a
119.1785	0.06	238357	keystroke	t	n/a
119.3135	0.09	238627	keystroke	a	n/a
119.4335	0.09	238867	keystroke	n	n/a
119.5385	0.06	239077	keystroke	c	n/a
119.6435	0.1055	239287	keystroke	e	n/a
119.764	0.1195	239528	keystroke	Key.enter	n/a
119.8885	5.997	239777	prompt	n/a	let's building rural relates\n
120.6935	0.09	241387	keystroke	l	n/a
120.7535	0.12	241507	keystroke	e	n/a
121.0985	0.1055	242197	keystroke	t	n/a
121.474	0.09	242948	keystroke	'	n/a
121.684	0.12	243368	keystroke	s	n/a
121.894	0.09	243788	keystroke	Key.space	n/a
122.4335	0.0605	244867	keystroke	b	n/a
122.6285	0.075	245257	keystroke	u	n/a
122.8235	0.075	245647	keystroke	i	n/a
123.004	0.09	246008	keystroke	l	n/a
123.139	0.09	246278	keystroke	d	n/a
123.244	0.1045	246488	keystroke	i	n/a
123.3335	0.09	246667	keystroke	n	n/a
123.4835	0.105	246967	keystroke	g	n/a
123.6035	0.09	247207	keystroke	Key.space	n/a
123.889	0.12	247778	keystroke	r	n/a
124.114	0.105	248228	keystroke	u	n/a
124.204	0.09	248408	keystroke	r	n/a
124.414	0.104	248828	keystroke	a	n/a
124.549	0.075	249098	keystroke	l	n/a
124.759	0.105	249518	keystroke	Key.space	n/a
124.879	0.164	249758	keystroke	r	n/a
124.969	0.135	249938	keystroke	e	n/a
125.089	0.09	250178	keystroke	l	n/a
125.2235	0.0755	250447	keystroke	a	n/a
125.389	0.12	250778	keystroke	t	n/a
125.479	0.09	250958	keystroke	e	n/a
125.6735	0.09	251347	keystroke	s	n/a
125.7935	0.09	251587	keystroke	Key.enter	n/a
125.888	5.0375	251776	prompt	n/a	created mall childhood resistance\n
126.619	0.0905	253238	keystroke	c	n/a
126.8285	0.12	253657	keystroke	r	n/a
126.8885	0.105	253777	keystroke	e	n/a
127.0845	0.09	254169	keystroke	a	n/a
127.2635	0.106	254527	keystroke	t	n/a
127.3385	0.09	254677	keystroke	e	n/a
127.4885	0.09	254977	keystroke	d	n/a
127.5795	0.075	255159	keystroke	Key.space	n/a
127.7595	0.074	255519	keystroke	m	n/a
127.8485	0.076	255697	keystroke	a	n/a
127.9545	0.075	255909	keystroke	l	n/a
128.0885	0.061	256177	keystroke	l	n/a
128.2535	0.075	256507	keystroke	Key.space	n/a
128.3435	0.091	256687	keystroke	c	n/a
128.4495	0.075	256899	keystroke	h	n/a
128.5085	0.091	257017	keystroke	i	n/a
128.7045	0.075	257409	keystroke	l	n/a
128.8085	0.076	257617	keystroke	d	n/a
128.9135	0.075	257827	keystroke	h	n/a
129.0785	0.075	258157	keystroke	o	n/a
129.2285	0.076	258457	keystroke	o	n/a
129.319	0.09	258638	keystroke	d	n/a
129.439	0.105	258878	keystroke	Key.space	n/a
129.619	0.135	259238	keystroke	r	n/a
129.709	0.075	259418	keystroke	e	n/a
129.889	0.075	259778	keystroke	s	n/a
129.979	0.09	259958	keystroke	i	n/a
130.084	0.075	260168	keystroke	s	n/a
130.204	0.09	260408	keystroke	t	n/a
130.384	0.075	260768	keystroke	a	n/a
130.474	0.105	260948	keystroke	n	n/a
130.594	0.045	261188	keystroke	c	n/a
130.6835	0.105	261367	keystroke	e	n/a
130.8185	0.105	261637	keystroke	Key.enter	n/a
130.928	7.558	261856	prompt	n/a	shopzilla suggest adjust demanding\n
131.5835	0.1055	263167	keystroke	s	n/a
131.899	0.075	263798	keystroke	h	n/a
132.1085	0.12	264217	keystroke	o	n/a
132.1985	0.09	264397	keystroke	p	n/a
133.1285	0.12	266257	keystroke	z	n/a
133.2635	0.105	266527	keystroke	i	n/a
133.474	0.09	266948	keystroke	l	n/a
133.594	0.075	267188	keystroke	l	n/a
133.729	0.105	267458	keystroke	a	n/a
133.819	0.09	267638	keystroke	Key.space	n/a
134.059	0.135	268118	keystroke	s	n/a
134.239	0.075	268478	keystroke	u	n/a
134.464	0.045	268928	keystroke	g	n/a
134.674	0.015	269348	keystroke	g	n/a
134.704	0.06	269408	keystroke	e	n/a
134.884	0.075	269768	keystroke	s	n/a
135.064	0.09	270128	keystroke	t	n/a
135.154	0.105	270308	keystroke	Key.space	n/a
136.0535	0.135	272107	keystroke	a	n/a
136.4435	0.0755	272887	keystroke	d	n/a
136.564	0.06	273128	keystroke	j	n/a
136.714	0.0745	273428	keystroke	u	n/a
136.7585	0.105	273517	keystroke	s	n/a
136.9385	0.09	273877	keystroke	t	n/a
137.0435	0.09	274087	keystroke	Key.space	n/a
137.3435	0.1805	274687	keystroke	d	n/a
137.4335	0.1505	274867	keystroke	e	n/a
137.539	0.12	275078	keystroke	m	n/a
137.734	0.075	275468	keystroke	a	n/a
137.854	0.09	275708	keystroke	n	n/a
137.959	0.06	275918	keystroke	d	n/a
138.034	0.105	276068	keystroke	i	n/a
138.124	0.12	276248	keystroke	n	n/a
138.244	0.09	276488	keystroke	g	n/a
138.379	0.105	276758	keystroke	Key.enter	n/a
138.499	7.771	276998	prompt	n/a	oughtn't karen billion highlighted\n
139.099	0.15	278198	keystroke	o	n/a
139.279	0.135	278558	keystroke	u	n/a
139.624	0.0895	279248	keystroke	g	n/a
139.8335	0.12	279667	keystroke	h	n/a
140.0285	0.09	280057	keystroke	t	n/a
140.7485	0.06	281497	keystroke	n	n/a
141.2585	0.075	282517	keystroke	'	n/a
141.3635	0.06	282727	keystroke	t	n/a
141.5585	0.09	283117	keystroke	Key.space	n/a
142.1285	0.09	284257	keystroke	k	n/a
142.2035	0.06	284407	keystroke	a	n/a
142.3835	0.135	284767	keystroke	r	n/a
142.4585	0.09	284917	keystroke	e	n/a
142.5335	0.075	285067	keystroke	n	n/a
142.6985	0.0755	285397	keystroke	Key.space	n/a
142.879	0.0745	285758	keystroke	b	n/a
143.0285	0.09	286057	keystroke	i	n/a
143.2685	0.06	286537	keystroke	l	n/a
143.4185	0.09	286837	keystroke	l	n/a
143.5685	0.1205	287137	keystroke	i	n/a
143.674	0.105	287348	keystroke	o	n/a
143.929	0.06	287858	keystroke	n	n/a
144.139	0.06	288278	keystroke	Key.space	n/a
144.859	0.09	289718	keystroke	h	n/a
144.979	0.105	289958	keystroke	i	n/a
145.113	0.091	290226	keystroke	g	n/a
145.249	0.06	290498	keystroke	h	n/a
145.399	0.135	290798	keystroke	l	n/a
145.488	0.121	290976	keystroke	i	n/a
145.609	0.06	291218	keystroke	g	n/a
145.729	0.09	291458	keystroke	h	n/a
145.804	0.09	291608	keystroke	t	n/a
145.953	0.106	291906	keystroke	e	n/a
146.074	0.105	292148	keystroke	d	n/a
146.194	0.074	292388	keystroke	Key.enter	n/a
146.2745	5.6505	292549	prompt	n/a	fairy expects coaches amber\n
147.0485	0.0905	294097	keystroke	f	n/a
147.2435	0.105	294487	keystroke	a	n/a
147.3635	0.105	294727	keystroke	i	n/a
147.4835	0.105	294967	keystroke	r	n/a
147.6485	0.075	295297	keystroke	y	n/a
147.8735	0.105	295747	keystroke	Key.space	n/a
147.9335	0.06	295867	keystroke	e	n/a
148.1135	0.09	296227	keystroke	x	n/a
148.2185	0.09	296437	keystroke	p	n/a
148.339	0.0895	296678	keystroke	e	n/a
148.5185	0.06	297037	keystroke	c	n/a
148.6985	0.09	297397	keystroke	t	n/a
148.8635	0.09	297727	keystroke	s	n/a
148.9835	0.105	297967	keystroke	Key.space	n/a
149.2535	0.09	298507	keystroke	c	n/a
149.3435	0.09	298687	keystroke	o	n/a
149.4485	0.105	298897	keystroke	a	n/a
150.2585	0.06	300517	keystroke	c	n/a
150.409	0.12	300818	keystroke	h	n/a
150.589	0.09	301178	keystroke	e	n/a
150.934	0.135	301868	keystroke	s	n/a
151.039	0.1045	302078	keystroke	Key.space	n/a
151.2485	0.105	302497	keystroke	a	n/a
151.3385	0.075	302677	keystroke	m	n/a
151.549	0.075	303098	keystroke	b	n/a
151.609	0.12	303218	keystroke	e	n/a
151.714	0.09	303428	keystroke	r	n/a
151.834	0.09	303668	keystroke	Key.enter	n/a
151.93	3.6405	303860	prompt	n/a	cold crimes my pills\n
152.614	0.09	305228	keystroke	c	n/a
152.719	0.075	305438	keystroke	o	n/a
152.869	0.09	305738	keystroke	l	n/a
152.974	0.075	305948	keystroke	d	n/a
153.094	0.12	306188	keystroke	Key.space	n/a
153.199	0.06	306398	keystroke	c	n/a
153.379	0.09	306758	keystroke	r	n/a
153.454	0.105	306908	keystroke	i	n/a
153.499	0.12	306998	keystroke	m	n/a
153.604	0.09	307208	keystroke	e	n/a
153.784	0.075	307568	keystroke	s	n/a
153.904	0.09	307808	keystroke	Key.space	n/a
154.189	0.09	308378	keystroke	m	n/a
154.429	0.06	308858	keystroke	y	n/a
154.639	0.075	309278	keystroke	Key.space	n/a
154.834	0.12	309668	keystroke	p	n/a
154.9685	0.075	309937	keystroke	i	n/a
155.1485	0.075	310297	keystroke	l	n/a
155.3135	0.075	310627	keystroke	l	n/a
155.3735	0.09	310747	keystroke	s	n/a
155.4785	0.09	310957	keystroke	Key.enter	n/a
155.573	4.1075	311146	prompt	n/a	walk obviously taxi ages\n
156.0485	0.075	312097	keystroke	w	n/a
156.2285	0.105	312457	keystroke	a	n/a
156.3035	0.105	312607	keystroke	l	n/a
156.3935	0.06	312787	keystroke	k	n/a
156.589	0.0745	313178	keystroke	Key.space	n/a
156.7835	0.121	313567	keystroke	o	n/a
156.9195	0.089	313839	keystroke	b	n/a
157.1135	0.105	314227	keystroke	v	n/a
157.2195	0.119	314439	keystroke	i	n/a
157.2935	0.12	314587	keystroke	o	n/a
157.5185	0.105	315037	keystroke	u	n/a
157.714	0.12	315428	keystroke	s	n/a
157.804	0.075	315608	keystroke	l	n/a
158.0135	0.075	316027	keystroke	y	n/a
158.2235	0.105	316447	keystroke	Key.space	n/a
158.3135	0.075	316627	keystroke	t	n/a
158.4785	0.075	316957	keystroke	a	n/a
158.7335	0.12	317467	keystroke	x	n/a
158.8385	0.06	317677	keystroke	i	n/a
159.0035	0.09	318007	keystroke	Key.space	n/a
159.1085	0.09	318217	keystroke	a	n/a
159.2285	0.06	318457	keystroke	g	n/a
159.3035	0.06	318607	keystroke	e	n/a
159.4985	0.06	318997	keystroke	s	n/a
159.5885	0.09	319177	keystroke	Key.enter	n/a
159.6845	5.4415	319369	prompt	n/a	unable stuff contain accounts\n
160.3385	0.15	320677	keystroke	u	n/a
160.5785	0.075	321157	keystroke	n	n/a
160.7585	0.12	321517	keystroke	a	n/a
160.8935	0.06	321787	keystroke	b	n/a
161.0885	0.09	322177	keystroke	l	n/a
161.2085	0.09	322417	keystroke	e	n/a
161.3585	0.105	322717	keystroke	Key.space	n/a
161.599	0.12	323198	keystroke	s	n/a
161.8685	0.09	323737	keystroke	t	n/a
161.9735	0.1055	323947	keystroke	u	n/a
162.199	0.09	324398	keystroke	f	n/a
162.379	0.06	324758	keystroke	f	n/a
162.484	0.0745	324968	keystroke	Key.space	n/a
162.6035	0.105	325207	keystroke	c	n/a
162.694	0.0745	325388	keystroke	o	n/a
162.8585	0.12	325717	keystroke	n	n/a
162.9485	0.09	325897	keystroke	t	n/a
163.2335	0.105	326467	keystroke	a	n/a
163.3235	0.0755	326647	keystroke	i	n/a
163.3835	0.0755	326767	keystroke	n	n/a
163.594	0.0895	327188	keystroke	Key.space	n/a
163.8935	0.09	327787	keystroke	a	n/a
164.1035	0.045	328207	keystroke	c	n/a
164.2535	0.075	328507	keystroke	c	n/a
164.3435	0.12	328687	keystroke	o	n/a
164.4335	0.075	328867	keystroke	u	n/a
164.6585	0.075	329317	keystroke	n	n/a
164.7195	0.089	329439	keystroke	t	n/a
164.8835	0.1055	329767	keystroke	s	n/a
165.019	0.105	330038	keystroke	Key.enter	n/a
165.1295	4.346	330259	prompt	n/a	home october panel arrow\n
165.799	0.075	331598	keystroke	h	n/a
165.948	0.091	331896	keystroke	o	n/a
166.069	0.0895	332138	keystroke	m	n/a
166.1735	0.075	332347	keystroke	e	n/a
166.2785	0.105	332557	keystroke	Key.space	n/a
166.5185	0.1055	333037	keystroke	o	n/a
166.609	0.06	333218	keystroke	c	n/a
166.803	0.106	333606	keystroke	t	n/a
166.879	0.075	333758	keystroke	o	n/a
167.059	0.105	334118	keystroke	b	n/a
167.149	0.105	334298	keystroke	e	n/a
167.209	0.105	334418	keystroke	r	n/a
167.328	0.106	334656	keystroke	Key.space	n/a
167.5985	0.0905	335197	keystroke	p	n/a
167.704	0.075	335408	keystroke	a	n/a
167.824	0.09	335648	keystroke	n	n/a
167.929	0.075	335858	keystroke	e	n/a
168.049	0.075	336098	keystroke	l	n/a
168.244	0.105	336488	keystroke	Key.space	n/a
168.364	0.105	336728	keystroke	a	n/a
168.709	0.09	337418	keystroke	r	n/a
168.904	0.09	337808	keystroke	r	n/a
169.009	0.1045	338018	keystroke	o	n/a
169.1585	0.105	338317	keystroke	w	n/a
169.3685	0.105	338737	keystroke	Key.enter	n/a
169.478	5.127	338956	prompt	n/a	hard punk runtime blink\n
170.359	0.09	340718	keystroke	h	n/a
170.389	0.09	340778	keystroke	a	n/a
170.569	0.06	341138	keystroke	r	n/a
170.719	0.09	341438	keystroke	d	n/a
170.749	0.09	341498	keystroke	Key.space	n/a
170.974	0.12	341948	keystroke	p	n/a
171.184	0.09	342368	keystroke	u	n/a
171.409	0.12	342818	keystroke	n	n/a
171.574	0.105	343148	keystroke	k	n/a
171.829	0.09	343658	keystroke	Key.space	n/a
172.189	0.09	344378	keystroke	r	n/a
172.339	0.135	344678	keystroke	u	n/a
172.429	0.12	344858	keystroke	n	n/a
172.579	0.105	345158	keystroke	t	n/a
172.714	0.12	345428	keystroke	i	n/a
172.774	0.105	345548	keystroke	m	n/a
172.909	0.09	345818	keystroke	e	n/a
173.0585	0.1055	346117	keystroke	Key.space	n/a
173.644	0.105	347288	keystroke	b	n/a
173.824	0.105	347648	keystroke	l	n/a
174.019	0.105	348038	keystroke	i	n/a
174.094	0.15	348188	keystroke	n	n/a
174.229	0.1045	348458	keystroke	k	n/a
174.4985	0.105	348997	keystroke	Key.enter	n/a
174.6075	10.918	349215	prompt	n/a	vary levy salvation physics\n
175.4585	0.075	350917	keystroke	v	n/a
175.5035	0.105	351007	keystroke	a	n/a
175.6685	0.1055	351337	keystroke	r	n/a
175.774	0.075	351548	keystroke	y	n/a
176.014	0.09	352028	keystroke	Key.space	n/a
176.269	0.105	352538	keystroke	l	n/a
176.6435	0.105	353287	keystroke	e	n/a
176.9135	0.105	353827	keystroke	v	n/a
177.1085	0.075	354217	keystroke	y	n/a
177.574	0.045	355148	keystroke	Key.space	n/a
177.7535	0.105	355507	keystroke	s	n/a
177.9935	0.105	355987	keystroke	a	n/a
178.0835	0.075	356167	keystroke	l	n/a
178.2935	0.075	356587	keystroke	v	n/a
178.3535	0.06	356707	keystroke	a	n/a
178.5485	0.09	357097	keystroke	t	n/a
178.6085	0.135	357217	keystroke	i	n/a
178.6835	0.09	357367	keystroke	o	n/a
178.8935	0.09	357787	keystroke	n	n/a
179.0735	0.075	358147	keystroke	Key.space	n/a
179.944	0.075	359888	keystroke	p	n/a
180.154	0.075	360308	keystroke	h	n/a
180.4685	0.045	360937	keystroke	y	n/a
180.5735	0.09	361147	keystroke	s	n/a
180.7685	0.09	361537	keystroke	c	n/a
180.8885	0.09	361777	keystroke	i	n/a
181.6985	0.045	363397	keystroke	Key.backspace	n/a
183.139	0.12	366278	keystroke	Key.backspace	n/a
185.074	0.09	370148	keystroke	i	n/a
185.179	0.09	370358	keystroke	c	n/a
185.329	0.135	370658	keystroke	s	n/a
185.449	0.075	370898	keystroke	Key.enter	n/a
185.536	6.35	371072	prompt	n/a	ellis toilet security reserved\n
186.1535	0.105	372307	keystroke	e	n/a
186.2735	0.075	372547	keystroke	l	n/a
186.4235	0.12	372847	keystroke	l	n/a
186.5585	0.09	373117	keystroke	i	n/a
186.6785	0.12	373357	keystroke	s	n/a
186.8435	0.09	373687	keystroke	Key.space	n/a
187.0385	0.09	374077	keystroke	t	n/a
187.1435	0.12	374287	keystroke	o	n/a
187.2185	0.12	374437	keystroke	i	n/a
187.3985	0.12	374797	keystroke	l	n/a
187.4735	0.105	374947	keystroke	e	n/a
187.6385	0.09	375277	keystroke	t	n/a
187.7435	0.12	375487	keystroke	Key.space	n/a
188.0585	0.09	376117	keystroke	s	n/a
188.2385	0.09	376477	keystroke	e	n/a
188.4485	0.09	376897	keystroke	c	n/a
188.5835	0.0905	377167	keystroke	u	n/a
188.675	0.104	377350	keystroke	r	n/a
188.824	0.0895	377648	keystroke	i	n/a
188.944	0.0895	377888	keystroke	t	n/a
189.064	0.075	378128	keystroke	y	n/a
189.289	0.1045	378578	keystroke	Key.space	n/a
190.054	0.135	380108	keystroke	r	n/a
190.144	0.105	380288	keystroke	e	n/a
190.369	0.12	380738	keystroke	s	n/a
190.549	0.1195	381098	keystroke	e	n/a
190.9085	0.121	381817	keystroke	r	n/a
191.3745	0.089	382749	keystroke	v	n/a
191.4335	0.075	382867	keystroke	e	n/a
191.6285	0.075	383257	keystroke	d	n/a
191.7485	0.135	383497	keystroke	Key.enter	n/a
191.894	5.6315	383788	prompt	n/a	anybody distant indeed princeton\n
192.6785	0.105	385357	keystroke	a	n/a
192.7995	0.105	385599	keystroke	n	n/a
192.994	0.075	385988	keystroke	y	n/a
193.174	0.09	386348	keystroke	b	n/a
193.354	0.105	386708	keystroke	o	n/a
193.564	0.09	387128	keystroke	d	n/a
193.654	0.06	387308	keystroke	y	n/a
193.849	0.09	387698	keystroke	Key.space	n/a
194.359	0.045	388718	keystroke	d	n/a
194.419	0.03	388838	keystroke	i	n/a
194.464	0.105	388928	keystroke	s	n/a
194.599	0.075	389198	keystroke	t	n/a
194.689	0.105	389378	keystroke	a	n/a
194.854	0.09	389708	keystroke	n	n/a
194.989	0.09	389978	keystroke	t	n/a
195.094	0.105	390188	keystroke	Key.space	n/a
195.394	0.06	390788	keystroke	i	n/a
195.499	0.12	390998	keystroke	n	n/a
195.634	0.1195	391268	keystroke	d	n/a
195.7085	0.135	391417	keystroke	e	n/a
195.9635	0.105	391927	keystroke	e	n/a
196.1135	0.09	392227	keystroke	d	n/a
196.1585	0.075	392317	keystroke	Key.space	n/a
196.3535	0.0905	392707	keystroke	p	n/a
196.474	0.0895	392948	keystroke	r	n/a
196.579	0.105	393158	keystroke	i	n/a
196.639	0.135	393278	keystroke	n	n/a
196.729	0.075	393458	keystroke	c	n/a
196.834	0.075	393668	keystroke	e	n/a
196.9835	0.1055	393967	keystroke	t	n/a
197.074	0.06	394148	keystroke	o	n/a
197.194	0.09	394388	keystroke	n	n/a
197.419	0.105	394838	keystroke	Key.enter	n/a
197.5305	6.01	395061	prompt	n/a	extreme relating diane authorization\n
198.1385	0.091	396277	keystroke	e	n/a
198.3035	0.105	396607	keystroke	x	n/a
198.4985	0.091	396997	keystroke	t	n/a
198.5735	0.135	397147	keystroke	r	n/a
198.6635	0.12	397327	keystroke	e	n/a
198.8285	0.1055	397657	keystroke	m	n/a
198.964	0.09	397928	keystroke	e	n/a
199.099	0.12	398198	keystroke	Key.space	n/a
199.669	0.075	399338	keystroke	r	n/a
199.819	0.09	399638	keystroke	e	n/a
199.984	0.135	399968	keystroke	l	n/a
200.089	0.075	400178	keystroke	a	n/a
200.284	0.075	400568	keystroke	t	n/a
200.329	0.12	400658	keystroke	i	n/a
200.434	0.12	400868	keystroke	n	n/a
200.569	0.06	401138	keystroke	g	n/a
200.719	0.09	401438	keystroke	Key.space	n/a
200.809	0.105	401618	keystroke	d	n/a
200.974	0.075	401948	keystroke	i	n/a
201.064	0.075	402128	keystroke	a	n/a
201.199	0.06	402398	keystroke	n	n/a
201.274	0.09	402548	keystroke	e	n/a
201.409	0.12	402818	keystroke	Key.space	n/a
201.694	0.105	403388	keystroke	a	n/a
201.844	0.105	403688	keystroke	u	n/a
201.979	0.09	403958	keystroke	t	n/a
202.084	0.075	404168	keystroke	h	n/a
202.249	0.09	404498	keystroke	o	n/a
202.354	0.075	404708	keystroke	r	n/a
202.489	0.09	404978	keystroke	i	n/a
202.594	0.075	405188	keystroke	z	n/a
202.774	0.06	405548	keystroke	a	n/a
202.939	0.075	405878	keystroke	t	n/a
202.969	0.105	405938	keystroke	i	n/a
203.044	0.09	406088	keystroke	o	n/a
203.224	0.09	406448	keystroke	n	n/a
203.449	0.09	406898	keystroke	Key.enter	n/a
203.543	7.3475	407086	prompt	n/a	hansen reflections reel steven\n
204.664	0.09	409328	keystroke	h	n/a
204.739	0.075	409478	keystroke	a	n/a
204.859	0.1045	409718	keystroke	n	n/a
205.384	0.1045	410768	keystroke	s	n/a
205.5635	0.0905	411127	keystroke	e	n/a
205.669	0.075	411338	keystroke	n	n/a
205.8635	0.09	411727	keystroke	Key.space	n/a
205.9685	0.12	411937	keystroke	r	n/a
206.044	0.1045	412088	keystroke	e	n/a
206.2235	0.0905	412447	keystroke	f	n/a
206.3285	0.09	412657	keystroke	l	n/a
206.3885	0.1055	412777	keystroke	e	n/a
206.7645	0.06	413529	keystroke	c	n/a
206.9295	0.104	413859	keystroke	t	n/a
206.9885	0.121	413977	keystroke	i	n/a
207.0645	0.074	414129	keystroke	o	n/a
207.2435	0.09	414487	keystroke	n	n/a
207.3345	0.089	414669	keystroke	s	n/a
207.4385	0.09	414877	keystroke	Key.space	n/a
207.679	0.165	415358	keystroke	r	n/a
207.829	0.105	415658	keystroke	e	n/a
208.039	0.09	416078	keystroke	e	n/a
209.4635	0.06	418927	keystroke	l	n/a
209.6585	0.0905	419317	keystroke	Key.space	n/a
209.764	0.12	419528	keystroke	s	n/a
209.914	0.075	419828	keystroke	t	n/a
210.004	0.075	420008	keystroke	e	n/a
210.139	0.075	420278	keystroke	v	n/a
210.289	0.09	420578	keystroke	e	n/a
210.394	0.09	420788	keystroke	n	n/a
210.799	0.09	421598	keystroke	Key.enter	n/a
210.893	5.2475	421786	prompt	n/a	horse circus finder cylinder\n
211.6095	0.074	423219	keystroke	h	n/a
211.7585	0.121	423517	keystroke	o	n/a
211.8635	0.075	423727	keystroke	r	n/a
212.0435	0.09	424087	keystroke	s	n/a
212.1485	0.105	424297	keystroke	e	n/a
212.2685	0.105	424537	keystroke	Key.space	n/a
212.4035	0.1205	424807	keystroke	c	n/a
212.539	0.1045	425078	keystroke	i	n/a
212.6445	0.104	425289	keystroke	r	n/a
212.8835	0.09	425767	keystroke	c	n/a
213.0035	0.105	426007	keystroke	u	n/a
213.1685	0.12	426337	keystroke	s	n/a
213.3335	0.09	426667	keystroke	Key.space	n/a
213.9785	0.045	427957	keystroke	f	n/a
214.0395	0.104	428079	keystroke	i	n/a
214.1135	0.12	428227	keystroke	n	n/a
214.2185	0.105	428437	keystroke	d	n/a
214.2785	0.12	428557	keystroke	e	n/a
214.4435	0.09	428887	keystroke	r	n/a
214.5485	0.075	429097	keystroke	Key.space	n/a
214.8035	0.09	429607	keystroke	c	n/a
215.0585	0.015	430117	keystroke	y	n/a
215.1785	0.135	430357	keystroke	l	n/a
215.3285	0.075	430657	keystroke	i	n/a
215.5385	0.09	431077	keystroke	n	n/a
215.6435	0.1205	431287	keystroke	d	n/a
215.734	0.12	431468	keystroke	e	n/a
215.869	0.1055	431738	keystroke	r	n/a
216.034	0.1055	432068	keystroke	Key.enter	n/a
216.147	4.4785	432294	prompt	n/a	cadillac puts tech scoop\n
216.7535	0.076	433507	keystroke	c	n/a
216.9195	0.105	433839	keystroke	a	n/a
217.0995	0.089	434199	keystroke	d	n/a
217.2195	0.075	434439	keystroke	i	n/a
217.4135	0.03	434827	keystroke	l	n/a
217.5485	0.061	435097	keystroke	l	n/a
217.5635	0.091	435127	keystroke	a	n/a
217.774	0.06	435548	keystroke	c	n/a
217.849	0.075	435698	keystroke	Key.space	n/a
218.059	0.09	436118	keystroke	p	n/a
218.239	0.105	436478	keystroke	u	n/a
218.329	0.09	436658	keystroke	t	n/a
218.479	0.12	436958	keystroke	s	n/a
218.6145	0.1045	437229	keystroke	Key.space	n/a
218.884	0.12	437768	keystroke	t	n/a
218.959	0.12	437918	keystroke	e	n/a
219.169	0.105	438338	keystroke	c	n/a
219.274	0.075	438548	keystroke	h	n/a
219.484	0.075	438968	keystroke	Key.space	n/a
219.544	0.09	439088	keystroke	s	n/a
219.7095	0.09	439419	keystroke	c	n/a
219.8595	0.06	439719	keystroke	o	n/a
220.0245	0.074	440049	keystroke	o	n/a
220.2195	0.09	440439	keystroke	p	n/a
220.489	0.135	440978	keystroke	Key.enter	n/a
220.6285	5.772	441257	prompt	n/a	craig merchant levy nokia\n
221.2835	0.075	442567	keystroke	c	n/a
221.4495	0.074	442899	keystroke	r	n/a
221.5685	0.1205	443137	keystroke	a	n/a
221.674	0.105	443348	keystroke	i	n/a
221.884	0.075	443768	keystroke	g	n/a
222.1385	0.075	444277	keystroke	Key.space	n/a
222.3635	0.105	444727	keystroke	m	n/a
222.4535	0.105	444907	keystroke	e	n/a
222.6635	0.075	445327	keystroke	r	n/a
222.8585	0.09	445717	keystroke	c	n/a
222.9785	0.1055	445957	keystroke	h	n/a
223.114	0.105	446228	keystroke	a	n/a
223.234	0.075	446468	keystroke	n	n/a
223.339	0.1055	446678	keystroke	t	n/a
223.4445	0.06	446889	keystroke	Key.space	n/a
223.6395	0.075	447279	keystroke	l	n/a
223.6845	0.09	447369	keystroke	e	n/a
223.9245	0.06	447849	keystroke	v	n/a
224.1795	0.075	448359	keystroke	y	n/a
224.4345	0.09	448869	keystroke	Key.space	n/a
225.4845	0.09	450969	keystroke	n	n/a
225.679	0.075	451358	keystroke	o	n/a
225.874	0.075	451748	keystroke	k	n/a
226.144	0.015	452288	keystroke	i	n/a
226.174	0.075	452348	keystroke	a	n/a
226.309	0.09	452618	keystroke	Key.enter	n/a
226.403	5.9975	452806	prompt	n/a	mega enhance cuba arising\n
226.9995	0.105	453999	keystroke	m	n/a
227.1495	0.12	454299	keystroke	e	n/a
227.3445	0.075	454689	keystroke	g	n/a
227.4345	0.1195	454869	keystroke	a	n/a
227.569	0.09	455138	keystroke	Key.space	n/a
227.7035	0.091	455407	keystroke	e	n/a
227.8095	0.089	455619	keystroke	n	n/a
228.0185	0.09	456037	keystroke	h	n/a
228.0945	0.105	456189	keystroke	a	n/a
228.2435	0.106	456487	keystroke	n	n/a
228.3635	0.091	456727	keystroke	c	n/a
228.5295	0.074	457059	keystroke	e	n/a
228.6195	0.06	457239	keystroke	e	n/a
228.6485	0.045	457297	keystroke	Key.space	n/a
229.1735	0.075	458347	keystroke	Key.backspace	n/a
229.3535	0.075	458707	keystroke	Key.backspace	n/a
229.6685	0.0755	459337	keystroke	Key.space	n/a
229.834	0.075	459668	keystroke	c	n/a
229.954	0.105	459908	keystroke	u	n/a
230.074	0.09	460148	keystroke	b	n/a
230.2395	0.1195	460479	keystroke	a	n/a
230.3745	0.09	460749	keystroke	Key.space	n/a
230.824	0.0905	461648	keystroke	a	n/a
231.0345	0.075	462069	keystroke	r	n/a
231.154	0.09	462308	keystroke	i	n/a
231.2595	0.105	462519	keystroke	s	n/a
231.379	0.0905	462758	keystroke	i	n/a
231.6645	0.09	463329	keystroke	n	n/a
231.7845	0.09	463569	keystroke	g	n/a
232.2645	0.135	464529	keystroke	Key.enter	n/a
232.4045	6.686	464809	prompt	n/a	bookmarks straight republic wrapping\n
233.2095	0.075	466419	keystroke	b	n/a
233.4495	0.06	466899	keystroke	o	n/a
233.5995	0.0745	467199	keystroke	o	n/a
233.6445	0.0745	467289	keystroke	k	n/a
233.854	0.09	467708	keystroke	m	n/a
233.929	0.075	467858	keystroke	a	n/a
234.064	0.09	468128	keystroke	r	n/a
234.169	0.075	468338	keystroke	k	n/a
234.319	0.105	468638	keystroke	s	n/a
234.454	0.105	468908	keystroke	Key.space	n/a
234.679	0.12	469358	keystroke	a	n/a
235.009	0.09	470018	keystroke	Key.backspace	n/a
235.129	0.12	470258	keystroke	s	n/a
235.399	0.09	470798	keystroke	t	n/a
235.579	0.045	471158	keystroke	r	n/a
235.654	0.105	471308	keystroke	a	n/a
235.774	0.0895	471548	keystroke	i	n/a
235.879	0.09	471758	keystroke	g	n/a
235.9985	0.0905	471997	keystroke	h	n/a
236.0895	0.089	472179	keystroke	t	n/a
236.2385	0.1055	472477	keystroke	Key.space	n/a
236.4485	0.1355	472897	keystroke	r	n/a
236.524	0.105	473048	keystroke	e	n/a
236.6885	0.1205	473377	keystroke	p	n/a
236.8835	0.0755	473767	keystroke	u	n/a
237.0945	0.075	474189	keystroke	b	n/a
237.1845	0.135	474369	keystroke	l	n/a
237.2895	0.105	474579	keystroke	i	n/a
237.3945	0.09	474789	keystroke	c	n/a
237.5595	0.1195	475119	keystroke	Key.space	n/a
237.784	0.105	475568	keystroke	w	n/a
237.979	0.075	475958	keystroke	r	n/a
238.159	0.075	476318	keystroke	a	n/a
238.249	0.06	476498	keystroke	p	n/a
238.3845	0.075	476769	keystroke	p	n/a
238.6095	0.089	477219	keystroke	i	n/a
238.6995	0.105	477399	keystroke	n	n/a
238.8195	0.075	477639	keystroke	g	n/a
238.9835	0.105	477967	keystroke	Key.enter	n/a
239.093	6.0725	478186	prompt	n/a	publications misc borough help\n
240.019	0.1045	480038	keystroke	p	n/a
240.2445	0.09	480489	keystroke	u	n/a
240.424	0.09	480848	keystroke	b	n/a
240.499	0.135	480998	keystroke	l	n/a
240.619	0.09	481238	keystroke	i	n/a
240.664	0.075	481328	keystroke	c	n/a
240.829	0.075	481658	keystroke	a	n/a
240.979	0.09	481958	keystroke	t	n/a
241.039	0.1045	482078	keystroke	i	n/a
241.0985	0.09	482197	keystroke	o	n/a
241.3085	0.075	482617	keystroke	n	n/a
241.3845	0.119	482769	keystroke	s	n/a
241.5185	0.09	483037	keystroke	Key.space	n/a
241.744	0.075	483488	keystroke	m	n/a
241.939	0.105	483878	keystroke	i	n/a
242.029	0.075	484058	keystroke	s	n/a
242.2545	0.06	484509	keystroke	c	n/a
242.3895	0.105	484779	keystroke	Key.space	n/a
243.079	0.075	486158	keystroke	b	n/a
243.304	0.075	486608	keystroke	o	n/a
243.559	0.075	487118	keystroke	r	n/a
243.709	0.105	487418	keystroke	o	n/a
243.799	0.105	487598	keystroke	u	n/a
243.904	0.075	487808	keystroke	g	n/a
244.069	0.06	488138	keystroke	h	n/a
244.234	0.09	488468	keystroke	Key.space	n/a
244.459	0.09	488918	keystroke	h	n/a
244.565	0.104	489130	keystroke	e	n/a
244.684	0.09	489368	keystroke	l	n/a
244.894	0.075	489788	keystroke	p	n/a
245.044	0.12	490088	keystroke	Key.enter	n/a
245.168	8.3535	490336	prompt	n/a	additional developmental characterization recipient\n
245.7345	0.12	491469	keystroke	a	n/a
245.9445	0.045	491889	keystroke	d	n/a
246.1695	0.015	492339	keystroke	d	n/a
246.1995	0.06	492399	keystroke	i	n/a
246.2895	0.105	492579	keystroke	t	n/a
246.3795	0.075	492759	keystroke	i	n/a
246.559	0.06	493118	keystroke	o	n/a
246.694	0.09	493388	keystroke	n	n/a
246.7995	0.1045	493599	keystroke	a	n/a
246.889	0.0755	493778	keystroke	l	n/a
247.0695	0.09	494139	keystroke	Key.space	n/a
247.1445	0.1495	494289	keystroke	d	n/a
247.2495	0.0895	494499	keystroke	e	n/a
247.459	0.09	494918	keystroke	v	n/a
247.624	0.0905	495248	keystroke	e	n/a
247.7745	0.06	495549	keystroke	l	n/a
247.9545	0.06	495909	keystroke	o	n/a
248.1045	0.075	496209	keystroke	p	n/a
248.2845	0.09	496569	keystroke	m	n/a
248.3895	0.045	496779	keystroke	e	n/a
248.4945	0.105	496989	keystroke	n	n/a
248.5995	0.06	497199	keystroke	t	n/a
248.7495	0.105	497499	keystroke	a	n/a
248.8395	0.06	497679	keystroke	l	n/a
249.0345	0.075	498069	keystroke	Key.space	n/a
249.1395	0.09	498279	keystroke	c	n/a
249.3185	0.075	498637	keystroke	h	n/a
249.4085	0.09	498817	keystroke	a	n/a
249.6045	0.09	499209	keystroke	r	n/a
249.7845	0.0445	499569	keystroke	a	n/a
249.934	0.075	499868	keystroke	c	n/a
250.144	0.075	500288	keystroke	t	n/a
250.264	0.105	500528	keystroke	e	n/a
250.339	0.105	500678	keystroke	r	n/a
250.534	0.09	501068	keystroke	i	n/a
250.609	0.0755	501218	keystroke	z	n/a
250.8045	0.045	501609	keystroke	a	n/a
250.9695	0.075	501939	keystroke	t	n/a
251.0295	0.105	502059	keystroke	i	n/a
251.0745	0.105	502149	keystroke	o	n/a
251.2695	0.075	502539	keystroke	n	n/a
251.4495	0.105	502899	keystroke	Key.space	n/a
251.5695	0.15	503139	keystroke	r	n/a
251.6595	0.105	503319	keystroke	e	n/a
251.9595	0.1045	503919	keystroke	c	n/a
252.5745	0.09	505149	keystroke	i	n/a
252.724	0.165	505448	keystroke	p	n/a
252.874	0.105	505748	keystroke	i	n/a
252.994	0.1045	505988	keystroke	e	n/a
253.1585	0.075	506317	keystroke	n	n/a
253.2635	0.106	506527	keystroke	t	n/a
253.399	0.1205	506798	keystroke	Key.enter	n/a
253.5315	5.944	507063	prompt	n/a	name howard robot apartment\n
254.119	0.09	508238	keystroke	n	n/a
254.224	0.09	508448	keystroke	a	n/a
254.3435	0.0605	508687	keystroke	m	n/a
254.4335	0.09	508867	keystroke	e	n/a
254.539	0.0745	509078	keystroke	Key.space	n/a
254.749	0.075	509498	keystroke	h	n/a
254.8985	0.1205	509797	keystroke	o	n/a
254.974	0.075	509948	keystroke	w	n/a
255.1685	0.0605	510337	keystroke	a	n/a
255.3335	0.06	510667	keystroke	r	n/a
255.514	0.0595	511028	keystroke	d	n/a
255.589	0.0895	511178	keystroke	Key.space	n/a
256.6095	0.09	513219	keystroke	r	n/a
256.7445	0.12	513489	keystroke	o	n/a
256.9095	0.09	513819	keystroke	b	n/a
257.0745	0.09	514149	keystroke	o	n/a
257.1795	0.105	514359	keystroke	t	n/a
257.3595	0.09	514719	keystroke	Key.space	n/a
258.1985	0.105	516397	keystroke	a	n/a
258.3635	0.135	516727	keystroke	p	n/a
258.4385	0.105	516877	keystroke	a	n/a
258.6345	0.074	517269	keystroke	r	n/a
258.814	0.075	517628	keystroke	t	n/a
258.934	0.075	517868	keystroke	m	n/a
259.024	0.105	518048	keystroke	e	n/a
259.174	0.06	518348	keystroke	n	n/a
259.234	0.09	518468	keystroke	t	n/a
259.384	0.09	518768	keystroke	Key.enter	n/a
259.48	6.0255	518960	prompt	n/a	equipped popular fork companies\n
260.4035	0.0905	520807	keystroke	e	n/a
260.5985	0.09	521197	keystroke	q	n/a
260.809	0.09	521618	keystroke	u	n/a
261.034	0.0595	522068	keystroke	i	n/a
261.1985	0.06	522397	keystroke	p	n/a
261.3635	0.075	522727	keystroke	p	n/a
261.4395	0.089	522879	keystroke	e	n/a
261.6185	0.076	523237	keystroke	d	n/a
261.7095	0.105	523419	keystroke	Key.space	n/a
261.949	0.135	523898	keystroke	p	n/a
262.054	0.105	524108	keystroke	o	n/a
262.189	0.105	524378	keystroke	p	n/a
262.444	0.075	524888	keystroke	u	n/a
262.609	0.12	525218	keystroke	l	n/a
262.684	0.1055	525368	keystroke	a	n/a
262.8795	0.1045	525759	keystroke	r	n/a
263.059	0.09	526118	keystroke	Key.space	n/a
263.524	0.09	527048	keystroke	f	n/a
263.674	0.105	527348	keystroke	o	n/a
263.884	0.105	527768	keystroke	r	n/a
264.109	0.06	528218	keystroke	k	n/a
264.259	0.0755	528518	keystroke	Key.space	n/a
264.3645	0.105	528729	keystroke	c	n/a
264.4545	0.105	528909	keystroke	o	n/a
264.5295	0.09	529059	keystroke	m	n/a
264.6945	0.09	529389	keystroke	p	n/a
264.7995	0.09	529599	keystroke	a	n/a
264.9495	0.044	529899	keystroke	n	n/a
265.0385	0.091	530077	keystroke	i	n/a
265.1445	0.075	530289	keystroke	e	n/a
265.3395	0.09	530679	keystroke	s	n/a
265.4145	0.089	530829	keystroke	Key.enter	n/a
265.5085	11.3225	531017	prompt	n/a	licence disposal brochures obvious\n
266.089	0.09	532178	keystroke	l	n/a
266.314	0.105	532628	keystroke	i	n/a
266.434	0.105	532868	keystroke	c	n/a
266.554	0.12	533108	keystroke	e	n/a
266.704	0.09	533408	keystroke	n	n/a
266.824	0.12	533648	keystroke	s	n/a
267.064	0.0895	534128	keystroke	e	n/a
267.1835	0.075	534367	keystroke	Key.space	n/a
268.4285	0.09	536857	keystroke	d	n/a
268.5335	0.105	537067	keystroke	i	n/a
268.6535	0.105	537307	keystroke	s	n/a
268.8035	0.135	537607	keystroke	p	n/a
268.8935	0.105	537787	keystroke	o	n/a
269.0135	0.09	538027	keystroke	s	n/a
269.2085	0.1205	538417	keystroke	a	n/a
269.314	0.075	538628	keystroke	l	n/a
269.509	0.09	539018	keystroke	Key.space	n/a
269.899	0.09	539798	keystroke	b	n/a
270.004	0.105	540008	keystroke	r	n/a
270.124	0.1195	540248	keystroke	o	n/a
270.7835	0.091	541567	keystroke	c	n/a
271.504	0.09	543008	keystroke	h	n/a
271.565	0.104	543130	keystroke	u	n/a
271.684	0.15	543368	keystroke	r	n/a
271.774	0.105	543548	keystroke	e	n/a
271.999	0.105	543998	keystroke	s	n/a
272.119	0.09	544238	keystroke	Key.space	n/a
272.8985	0.135	545797	keystroke	o	n/a
273.8445	0.104	547689	keystroke	b	n/a
275.3435	0.09	550687	keystroke	v	n/a
275.4635	0.121	550927	keystroke	i	n/a
275.5235	0.1505	551047	keystroke	o	n/a
275.839	0.105	551678	keystroke	u	n/a
275.974	0.12	551948	keystroke	s	n/a
276.679	0.15	553358	keystroke	Key.enter	n/a
276.841	7.265	553682	prompt	n/a	oxygen announcements nevada somebody\n
277.489	0.12	554978	keystroke	o	n/a
277.8945	0.0445	555789	keystroke	x	n/a
278.029	0.06	556058	keystroke	y	n/a
278.224	0.09	556448	keystroke	g	n/a
278.344	0.075	556688	keystroke	e	n/a
278.449	0.075	556898	keystroke	n	n/a
278.644	0.09	557288	keystroke	Key.space	n/a
278.9595	0.105	557919	keystroke	a	n/a
279.0795	0.06	558159	keystroke	n	n/a
279.2145	0.0895	558429	keystroke	n	n/a
279.424	0.075	558848	keystroke	o	n/a
279.469	0.105	558938	keystroke	u	n/a
279.679	0.105	559358	keystroke	n	n/a
279.799	0.075	559598	keystroke	c	n/a
279.919	0.12	559838	keystroke	e	n/a
280.024	0.09	560048	keystroke	m	n/a
280.144	0.135	560288	keystroke	e	n/a
280.264	0.105	560528	keystroke	n	n/a
280.384	0.075	560768	keystroke	t	n/a
280.519	0.1055	561038	keystroke	s	n/a
280.639	0.075	561278	keystroke	Key.space	n/a
280.834	0.09	561668	keystroke	n	n/a
280.909	0.09	561818	keystroke	e	n/a
281.239	0.075	562478	keystroke	v	n/a
281.329	0.09	562658	keystroke	a	n/a
281.569	0.06	563138	keystroke	d	n/a
281.689	0.12	563378	keystroke	a	n/a
281.824	0.09	563648	keystroke	Key.space	n/a
282.199	0.105	564398	keystroke	s	n/a
283.0385	0.045	566077	keystroke	o	n/a
283.1285	0.091	566257	keystroke	m	n/a
283.2485	0.09	566497	keystroke	e	n/a
283.3835	0.075	566767	keystroke	b	n/a
283.5785	0.0905	567157	keystroke	o	n/a
283.684	0.09	567368	keystroke	d	n/a
283.789	0.06	567578	keystroke	y	n/a
283.984	0.12	567968	keystroke	Key.enter	n/a
284.116	6.1695	568232	prompt	n/a	venezuela jason chances policy\n
285.214	0.09	570428	keystroke	v	n/a
285.394	0.105	570788	keystroke	e	n/a
285.8285	0.106	571657	keystroke	n	n/a
285.9485	0.09	571897	keystroke	e	n/a
286.2935	0.165	572587	keystroke	z	n/a
286.5935	0.09	573187	keystroke	u	n/a
286.6995	0.104	573399	keystroke	e	n/a
286.8635	0.091	573727	keystroke	l	n/a
286.9835	0.12	573967	keystroke	a	n/a
287.1335	0.105	574267	keystroke	Key.space	n/a
287.659	0.0905	575318	keystroke	j	n/a
287.7335	0.12	575467	keystroke	a	n/a
287.7935	0.12	575587	keystroke	s	n/a
287.8835	0.075	575767	keystroke	o	n/a
288.0785	0.09	576157	keystroke	n	n/a
288.2585	0.075	576517	keystroke	Key.space	n/a
288.3645	0.074	576729	keystroke	c	n/a
288.4535	0.075	576907	keystroke	h	n/a
288.5435	0.09	577087	keystroke	a	n/a
288.6635	0.076	577327	keystroke	n	n/a
288.7535	0.076	577507	keystroke	c	n/a
288.8435	0.09	577687	keystroke	e	n/a
289.0235	0.091	578047	keystroke	s	n/a
289.0835	0.075	578167	keystroke	Key.space	n/a
289.2785	0.106	578557	keystroke	p	n/a
289.3535	0.09	578707	keystroke	o	n/a
289.6085	0.015	579217	keystroke	l	n/a
289.7135	0.045	579427	keystroke	i	n/a
289.8635	0.09	579727	keystroke	c	n/a
289.9685	0.06	579937	keystroke	y	n/a
290.179	0.105	580358	keystroke	Key.enter	n/a
290.2885	4.887	580577	prompt	n/a	worry chelsea her frequently\n
290.914	0.105	581828	keystroke	w	n/a
291.034	0.105	582068	keystroke	o	n/a
291.124	0.06	582248	keystroke	r	n/a
291.274	0.06	582548	keystroke	r	n/a
291.379	0.0745	582758	keystroke	y	n/a
291.574	0.09	583148	keystroke	Key.space	n/a
291.664	0.075	583328	keystroke	c	n/a
291.799	0.09	583598	keystroke	h	n/a
291.904	0.105	583808	keystroke	e	n/a
292.054	0.0745	584108	keystroke	l	n/a
292.3385	0.0905	584677	keystroke	s	n/a
292.549	0.09	585098	keystroke	e	n/a
292.64	0.134	585280	keystroke	a	n/a
292.864	0.075	585728	keystroke	Key.space	n/a
293.044	0.09	586088	keystroke	h	n/a
293.164	0.12	586328	keystroke	e	n/a
293.254	0.09	586508	keystroke	r	n/a
293.359	0.105	586718	keystroke	Key.space	n/a
293.644	0.0755	587288	keystroke	f	n/a
293.8245	0.15	587649	keystroke	r	n/a
293.9145	0.12	587829	keystroke	e	n/a
294.1545	0.075	588309	keystroke	q	n/a
294.2445	0.105	588489	keystroke	u	n/a
294.3345	0.09	588669	keystroke	e	n/a
294.4695	0.09	588939	keystroke	n	n/a
294.5745	0.105	589149	keystroke	t	n/a
294.6945	0.09	589389	keystroke	l	n/a
294.8745	0.075	589749	keystroke	y	n/a
295.0695	0.105	590139	keystroke	Key.enter	n/a
295.181	6.085	590362	prompt	n/a	spec technician desktops retained\n
295.699	0.12	591398	keystroke	s	n/a
295.804	0.09	591608	keystroke	p	n/a
295.909	0.06	591818	keystroke	e	n/a
296.089	0.075	592178	keystroke	c	n/a
296.194	0.105	592388	keystroke	Key.space	n/a
296.734	0.105	593468	keystroke	t	n/a
296.854	0.09	593708	keystroke	e	n/a
297.064	0.105	594128	keystroke	c	n/a
297.229	0.075	594458	keystroke	h	n/a
297.469	0.135	594938	keystroke	n	n/a
298.159	0.09	596318	keystroke	i	n/a
298.264	0.0905	596528	keystroke	c	n/a
298.3845	0.075	596769	keystroke	i	n/a
298.4745	0.105	596949	keystroke	a	n/a
298.6095	0.075	597219	keystroke	n	n/a
298.7895	0.075	597579	keystroke	Key.space	n/a
298.9395	0.135	597879	keystroke	d	n/a
299.0145	0.15	598029	keystroke	e	n/a
299.2695	0.135	598539	keystroke	s	n/a
299.3745	0.09	598749	keystroke	k	n/a
299.5995	0.075	599199	keystroke	t	n/a
299.7045	0.0595	599409	keystroke	o	n/a
299.884	0.075	599768	keystroke	p	n/a
299.989	0.105	599978	keystroke	s	n/a
300.109	0.09	600218	keystroke	Key.space	n/a
300.214	0.135	600428	keystroke	r	n/a
300.289	0.105	600578	keystroke	e	n/a
300.469	0.075	600938	keystroke	t	n/a
300.634	0.09	601268	keystroke	a	n/a
300.725	0.104	601450	keystroke	i	n/a
300.814	0.105	601628	keystroke	n	n/a
300.859	0.09	601718	keystroke	e	n/a
301.024	0.1055	602048	keystroke	d	n/a
301.1445	0.12	602289	keystroke	Key.enter	n/a
301.2685	5.247	602537	prompt	n/a	lessons widescreen spoken roster\n
301.774	0.105	603548	keystroke	l	n/a
301.864	0.075	603728	keystroke	e	n/a
302.044	0.075	604088	keystroke	s	n/a
302.209	0.075	604418	keystroke	s	n/a
302.269	0.075	604538	keystroke	o	n/a
302.4345	0.0895	604869	keystroke	n	n/a
302.539	0.09	605078	keystroke	s	n/a
302.6435	0.075	605287	keystroke	Key.space	n/a
302.7935	0.105	605587	keystroke	w	n/a
302.9435	0.105	605887	keystroke	i	n/a
303.0635	0.12	606127	keystroke	d	n/a
303.1535	0.105	606307	keystroke	e	n/a
303.3335	0.09	606667	keystroke	s	n/a
303.5135	0.075	607027	keystroke	c	n/a
303.694	0.1345	607388	keystroke	r	n/a
303.784	0.0895	607568	keystroke	e	n/a
303.9485	0.105	607897	keystroke	e	n/a
304.0685	0.06	608137	keystroke	n	n/a
304.2185	0.075	608437	keystroke	Key.space	n/a
304.3235	0.105	608647	keystroke	s	n/a
304.4435	0.105	608887	keystroke	p	n/a
304.5185	0.09	609037	keystroke	o	n/a
304.7135	0.075	609427	keystroke	k	n/a
304.7895	0.1045	609579	keystroke	e	n/a
304.864	0.09	609728	keystroke	r	n/a
305.224	0.09	610448	keystroke	Key.backspace	n/a
305.464	0.075	610928	keystroke	n	n/a
305.644	0.075	611288	keystroke	Key.space	n/a
305.749	0.06	611498	keystroke	r	n/a
305.839	0.12	611678	keystroke	o	n/a
305.944	0.09	611888	keystroke	s	n/a
306.124	0.075	612248	keystroke	t	n/a
306.229	0.105	612458	keystroke	e	n/a
306.319	0.09	612638	keystroke	r	n/a
306.424	0.09	612848	keystroke	Key.enter	n/a
306.5195	6.641	613039	prompt	n/a	align poems it'd brunei\n
307.189	0.12	614378	keystroke	s	n/a
307.4895	0.075	614979	keystroke	Key.backspace	n/a
307.5945	0.1045	615189	keystroke	a	n/a
307.714	0.135	615428	keystroke	l	n/a
307.85	0.089	615700	keystroke	i	n/a
307.984	0.105	615968	keystroke	g	n/a
308.239	0.06	616478	keystroke	n	n/a
308.434	0.075	616868	keystroke	Key.space	n/a
308.644	0.09	617288	keystroke	p	n/a
308.854	0.075	617708	keystroke	o	n/a
308.989	0.09	617978	keystroke	e	n/a
309.139	0.09	618278	keystroke	n	n/a
309.6045	0.075	619209	keystroke	Key.backspace	n/a
309.9045	0.014	619809	keystroke	m	n/a
310.264	0.1055	620528	keystroke	s	n/a
310.3835	0.09	620767	keystroke	Key.space	n/a
310.5485	0.121	621097	keystroke	i	n/a
310.7135	0.106	621427	keystroke	t	n/a
311.1495	0.074	622299	keystroke	'	n/a
311.3885	0.061	622777	keystroke	d	n/a
311.5085	0.075	623017	keystroke	Key.space	n/a
311.7935	0.09	623587	keystroke	b	n/a
311.9445	0.104	623889	keystroke	r	n/a
312.0935	0.135	624187	keystroke	u	n/a
312.3335	0.1505	624667	keystroke	n	n/a
312.604	0.105	625208	keystroke	e	n/a
312.694	0.12	625388	keystroke	i	n/a
313.039	0.12	626078	keystroke	Key.enter	n/a
313.1645	6.011	626329	prompt	n/a	magical destruction brochure roof\n
313.789	0.09	627578	keystroke	m	n/a
313.894	0.075	627788	keystroke	a	n/a
314.149	0.09	628298	keystroke	g	n/a
314.254	0.09	628508	keystroke	i	n/a
314.329	0.09	628658	keystroke	c	n/a
314.494	0.12	628988	keystroke	a	n/a
314.554	0.075	629108	keystroke	l	n/a
314.749	0.105	629498	keystroke	Key.space	n/a
314.855	0.134	629710	keystroke	d	n/a
314.929	0.105	629858	keystroke	e	n/a
315.079	0.12	630158	keystroke	s	n/a
315.274	0.09	630548	keystroke	t	n/a
315.439	0.09	630878	keystroke	r	n/a
315.574	0.09	631148	keystroke	u	n/a
315.649	0.0755	631298	keystroke	c	n/a
315.8295	0.09	631659	keystroke	t	n/a
315.9045	0.12	631809	keystroke	i	n/a
315.9795	0.075	631959	keystroke	o	n/a
316.1445	0.09	632289	keystroke	n	n/a
316.3395	0.09	632679	keystroke	Key.space	n/a
316.7145	0.09	633429	keystroke	b	n/a
316.8645	0.09	633729	keystroke	r	n/a
317.0145	0.12	634029	keystroke	o	n/a
317.4645	0.09	634929	keystroke	c	n/a
317.6445	0.074	635289	keystroke	h	n/a
317.6895	0.135	635379	keystroke	u	n/a
317.8245	0.12	635649	keystroke	r	n/a
317.8845	0.12	635769	keystroke	e	n/a
317.9885	0.106	635977	keystroke	Key.space	n/a
318.1545	0.12	636309	keystroke	r	n/a
318.3195	0.045	636639	keystroke	o	n/a
318.4535	0.105	636907	keystroke	o	n/a
318.9485	0.09	637897	keystroke	f	n/a
319.0685	0.105	638137	keystroke	Key.enter	n/a
319.1785	5.0825	638357	prompt	n/a	starting luther attacks lined\n
319.789	0.12	639578	keystroke	s	n/a
319.999	0.075	639998	keystroke	t	n/a
320.089	0.105	640178	keystroke	a	n/a
320.179	0.06	640358	keystroke	r	n/a
320.344	0.06	640688	keystroke	t	n/a
320.509	0.105	641018	keystroke	i	n/a
320.644	0.105	641288	keystroke	n	n/a
320.764	0.09	641528	keystroke	g	n/a
320.869	0.075	641738	keystroke	Key.space	n/a
321.094	0.0905	642188	keystroke	l	n/a
321.2595	0.135	642519	keystroke	u	n/a
321.8745	0.09	643749	keystroke	t	n/a
321.9945	0.09	643989	keystroke	h	n/a
322.0845	0.135	644169	keystroke	e	n/a
322.1745	0.09	644349	keystroke	r	n/a
322.2795	0.105	644559	keystroke	Key.space	n/a
322.4295	0.09	644859	keystroke	a	n/a
322.6395	0.06	645279	keystroke	t	n/a
322.7745	0.075	645549	keystroke	t	n/a
322.9245	0.09	645849	keystroke	a	n/a
323.1045	0.075	646209	keystroke	c	n/a
323.1945	0.075	646389	keystroke	k	n/a
323.2845	0.075	646569	keystroke	s	n/a
323.3895	0.015	646779	keystroke	Key.space	n/a
323.5245	0.075	647049	keystroke	l	n/a
323.7045	0.104	647409	keystroke	i	n/a
323.7945	0.105	647589	keystroke	n	n/a
323.8695	0.075	647739	keystroke	e	n/a
324.0645	0.075	648129	keystroke	d	n/a
324.1545	0.1045	648309	keystroke	Key.enter	n/a
324.2655	5.71	648531	prompt	n/a	entered avoiding banned accessories\n
325.054	0.105	650108	keystroke	e	n/a
325.174	0.105	650348	keystroke	n	n/a
325.309	0.0905	650618	keystroke	t	n/a
325.4895	0.12	650979	keystroke	e	n/a
325.6395	0.165	651279	keystroke	r	n/a
325.7445	0.12	651489	keystroke	e	n/a
325.9245	0.09	651849	keystroke	d	n/a
326.0435	0.12	652087	keystroke	Key.space	n/a
326.2545	0.12	652509	keystroke	a	n/a
326.599	0.075	653198	keystroke	v	n/a
326.689	0.12	653378	keystroke	o	n/a
326.749	0.12	653498	keystroke	i	n/a
326.899	0.09	653798	keystroke	d	n/a
327.004	0.1055	654008	keystroke	i	n/a
327.154	0.09	654308	keystroke	n	n/a
327.259	0.09	654518	keystroke	g	n/a
327.364	0.0755	654728	keystroke	Key.space	n/a
327.5595	0.09	655119	keystroke	b	n/a
327.6645	0.12	655329	keystroke	a	n/a
327.7995	0.06	655599	keystroke	n	n/a
327.9345	0.09	655869	keystroke	n	n/a
327.9945	0.075	655989	keystroke	e	n/a
328.1745	0.06	656349	keystroke	d	n/a
328.2195	0.09	656439	keystroke	Key.space	n/a
328.3545	0.075	656709	keystroke	a	n/a
328.5795	0.06	657159	keystroke	c	n/a
328.7295	0.09	657459	keystroke	c	n/a
328.8495	0.105	657699	keystroke	e	n/a
329.0295	0.09	658059	keystroke	s	n/a
329.2095	0.12	658419	keystroke	s	n/a
329.3445	0.09	658689	keystroke	o	n/a
329.4495	0.075	658899	keystroke	r	n/a
329.5395	0.135	659079	keystroke	i	n/a
329.6295	0.0745	659259	keystroke	e	n/a
329.779	0.105	659558	keystroke	s	n/a
329.869	0.105	659738	keystroke	Key.enter	n/a
329.979	9.192	659958	prompt	n/a	robin exec vocabulary plane\n
330.559	0.105	661118	keystroke	e	n/a
330.694	0.075	661388	keystroke	o	n/a
330.919	0.075	661838	keystroke	b	n/a
331.0695	0.12	662139	keystroke	i	n/a
331.1585	0.106	662317	keystroke	n	n/a
331.3535	0.121	662707	keystroke	Key.space	n/a
331.4895	0.045	662979	keystroke	e	n/a
331.8495	0.165	663699	keystroke	x	n/a
332.404	0.06	664808	keystroke	Key.backspace	n/a
332.584	0.045	665168	keystroke	Key.backspace	n/a
332.734	0.06	665468	keystroke	Key.backspace	n/a
332.9135	0.045	665827	keystroke	Key.backspace	n/a
333.0635	0.0605	666127	keystroke	Key.backspace	n/a
333.244	0.06	666488	keystroke	Key.backspace	n/a
333.394	0.06	666788	keystroke	Key.backspace	n/a
333.574	0.06	667148	keystroke	Key.backspace	n/a
333.7245	0.0745	667449	keystroke	Key.backspace	n/a
334.0395	0.09	668079	keystroke	r	n/a
334.1745	0.0895	668349	keystroke	o	n/a
334.354	0.0755	668708	keystroke	b	n/a
334.444	0.105	668888	keystroke	i	n/a
334.534	0.075	669068	keystroke	n	n/a
334.729	0.09	669458	keystroke	Key.space	n/a
334.9395	0.0745	669879	keystroke	e	n/a
335.164	0.12	670328	keystroke	x	n/a
335.419	0.09	670838	keystroke	e	n/a
335.6295	0.0745	671259	keystroke	c	n/a
335.734	0.105	671468	keystroke	Key.space	n/a
336.2735	0.091	672547	keystroke	v	n/a
336.454	0.121	672908	keystroke	o	n/a
336.59	0.044	673180	keystroke	c	n/a
336.739	0.0895	673478	keystroke	a	n/a
336.814	0.0745	673628	keystroke	b	n/a
336.9635	0.0905	673927	keystroke	u	n/a
337.1745	0.09	674349	keystroke	l	n/a
337.2495	0.075	674499	keystroke	a	n/a
337.4295	0.0895	674859	keystroke	r	n/a
337.534	0.09	675068	keystroke	y	n/a
337.759	0.09	675518	keystroke	Key.space	n/a
338.3595	0.09	676719	keystroke	p	n/a
338.5695	0.075	677139	keystroke	l	n/a
338.6595	0.104	677319	keystroke	a	n/a
338.7945	0.075	677589	keystroke	n	n/a
338.9295	0.09	677859	keystroke	e	n/a
339.0785	0.09	678157	keystroke	Key.enter	n/a
339.1815	7.864	678363	prompt	n/a	rehab ford moms gibraltar\n
340.0395	0.135	680079	keystroke	r	n/a
340.1295	0.12	680259	keystroke	e	n/a
340.3095	0.09	680619	keystroke	h	n/a
340.4895	0.075	680979	keystroke	a	n/a
340.6095	0.0895	681219	keystroke	b	n/a
340.819	0.09	681638	keystroke	Key.space	n/a
341.209	0.09	682418	keystroke	f	n/a
341.314	0.075	682628	keystroke	o	n/a
341.434	0.105	682868	keystroke	r	n/a
341.7045	0.06	683409	keystroke	d	n/a
341.7495	0.089	683499	keystroke	Key.space	n/a
342.484	0.06	684968	keystroke	m	n/a
342.709	0.165	685418	keystroke	o	n/a
342.934	0.12	685868	keystroke	m	n/a
343.189	0.15	686378	keystroke	s	n/a
343.369	0.0905	686738	keystroke	Key.space	n/a
344.3445	0.09	688689	keystroke	g	n/a
344.4795	0.165	688959	keystroke	i	n/a
345.334	0.15	690668	keystroke	b	n/a
345.514	0.105	691028	keystroke	r	n/a
345.739	0.12	691478	keystroke	a	n/a
346.039	0.12	692078	keystroke	l	n/a
346.429	0.12	692858	keystroke	t	n/a
346.654	0.09	693308	keystroke	a	n/a
346.834	0.075	693668	keystroke	r	n/a
346.939	0.105	693878	keystroke	Key.enter	n/a
347.0485	4.422	694097	prompt	n/a	drum lonely stick signs\n
347.824	0.075	695648	keystroke	d	n/a
348.0045	0.089	696009	keystroke	r	n/a
348.0945	0.075	696189	keystroke	u	n/a
348.3335	0.075	696667	keystroke	m	n/a
348.6045	0.0745	697209	keystroke	Key.space	n/a
348.829	0.06	697658	keystroke	l	n/a
348.994	0.075	697988	keystroke	o	n/a
349.174	0.09	698348	keystroke	n	n/a
349.294	0.12	698588	keystroke	e	n/a
349.415	0.075	698830	keystroke	l	n/a
349.685	0.074	699370	keystroke	y	n/a
349.954	0.075	699908	keystroke	Key.space	n/a
350.104	0.105	700208	keystroke	s	n/a
350.269	0.105	700538	keystroke	t	n/a
350.359	0.09	700718	keystroke	i	n/a
350.479	0.09	700958	keystroke	c	n/a
350.554	0.075	701108	keystroke	k	n/a
350.704	0.09	701408	keystroke	Key.space	n/a
350.81	0.104	701620	keystroke	s	n/a
350.899	0.075	701798	keystroke	i	n/a
351.034	0.075	702068	keystroke	g	n/a
351.124	0.076	702248	keystroke	n	n/a
351.274	0.09	702548	keystroke	s	n/a
351.394	0.075	702788	keystroke	Key.enter	n/a
351.474	5.652	702948	prompt	n/a	item belkin preparation benefits\n
352.1595	0.12	704319	keystroke	i	n/a
352.2645	0.12	704529	keystroke	t	n/a
352.4145	0.0895	704829	keystroke	e	n/a
352.534	0.06	705068	keystroke	m	n/a
352.729	0.06	705458	keystroke	Key.space	n/a
353.059	0.06	706118	keystroke	b	n/a
353.164	0.06	706328	keystroke	e	n/a
353.494	0.075	706988	keystroke	l	n/a
353.704	0.06	707408	keystroke	k	n/a
353.839	0.09	707678	keystroke	i	n/a
353.944	0.09	707888	keystroke	n	n/a
354.139	0.09	708278	keystroke	Key.space	n/a
354.349	0.105	708698	keystroke	p	n/a
354.439	0.165	708878	keystroke	r	n/a
354.499	0.135	708998	keystroke	e	n/a
354.6645	0.09	709329	keystroke	p	n/a
354.7845	0.09	709569	keystroke	a	n/a
354.9645	0.09	709929	keystroke	r	n/a
355.0995	0.09	710199	keystroke	a	n/a
355.2795	0.09	710559	keystroke	t	n/a
355.3395	0.12	710679	keystroke	i	n/a
355.4445	0.045	710889	keystroke	o	n/a
355.6095	0.1055	711219	keystroke	n	n/a
355.819	0.075	711638	keystroke	Key.space	n/a
356.029	0.075	712058	keystroke	b	n/a
356.119	0.075	712238	keystroke	e	n/a
356.254	0.09	712508	keystroke	n	n/a
356.374	0.09	712748	keystroke	e	n/a
356.584	0.075	713168	keystroke	f	n/a
356.704	0.09	713408	keystroke	i	n/a
356.779	0.075	713558	keystroke	t	n/a
356.914	0.1055	713828	keystroke	s	n/a
357.0345	0.09	714069	keystroke	Key.enter	n/a
357.129	5.637	714258	prompt	n/a	zoloft demonstration hacker them\n
357.7995	0.135	715599	keystroke	z	n/a
357.9495	0.075	715899	keystroke	o	n/a
358.0995	0.075	716199	keystroke	l	n/a
358.2795	0.075	716559	keystroke	o	n/a
358.3995	0.12	716799	keystroke	f	n/a
358.6245	0.09	717249	keystroke	t	n/a
358.8795	0.105	717759	keystroke	Key.space	n/a
359.1345	0.12	718269	keystroke	d	n/a
359.2245	0.12	718449	keystroke	e	n/a
359.3145	0.09	718629	keystroke	m	n/a
359.4645	0.075	718929	keystroke	o	n/a
359.6295	0.09	719259	keystroke	n	n/a
359.6895	0.105	719379	keystroke	s	n/a
359.8245	0.09	719649	keystroke	t	n/a
359.9895	0.06	719979	keystroke	r	n/a
360.1245	0.09	720249	keystroke	a	n/a
360.2895	0.075	720579	keystroke	t	n/a
360.3495	0.105	720699	keystroke	i	n/a
360.4245	0.06	720849	keystroke	o	n/a
360.5745	0.09	721149	keystroke	n	n/a
360.754	0.075	721508	keystroke	Key.space	n/a
360.949	0.105	721898	keystroke	h	n/a
361.009	0.06	722018	keystroke	a	n/a
361.189	0.075	722378	keystroke	c	n/a
361.279	0.09	722558	keystroke	k	n/a
361.384	0.09	722768	keystroke	e	n/a
361.7895	0.105	723579	keystroke	r	n/a
361.9545	0.105	723909	keystroke	Key.space	n/a
362.0745	0.0905	724149	keystroke	t	n/a
362.209	0.09	724418	keystroke	h	n/a
362.3	0.074	724600	keystroke	e	n/a
362.449	0.076	724898	keystroke	m	n/a
362.689	0.075	725378	keystroke	Key.enter	n/a
362.7685	6.4925	725537	prompt	n/a	illegal attitude arrangements villages\n
363.454	0.09	726908	keystroke	i	n/a
363.649	0.0755	727298	keystroke	l	n/a
363.7695	0.075	727539	keystroke	l	n/a
363.8595	0.09	727719	keystroke	e	n/a
363.9945	0.06	727989	keystroke	g	n/a
364.0845	0.105	728169	keystroke	a	n/a
364.2195	0.075	728439	keystroke	l	n/a
364.4445	0.105	728889	keystroke	Key.space	n/a
364.609	0.105	729218	keystroke	a	n/a
364.909	0.075	729818	keystroke	t	n/a
365.1495	0.06	730299	keystroke	t	n/a
365.3145	0.12	730629	keystroke	i	n/a
365.4345	0.12	730869	keystroke	t	n/a
365.7195	0.105	731439	keystroke	u	n/a
365.8845	0.165	731769	keystroke	d	n/a
366.0045	0.135	732009	keystroke	e	n/a
366.1845	0.105	732369	keystroke	Key.space	n/a
366.4395	0.1045	732879	keystroke	a	n/a
366.6195	0.0745	733239	keystroke	r	n/a
366.7545	0.075	733509	keystroke	r	n/a
366.9045	0.12	733809	keystroke	a	n/a
367.0245	0.075	734049	keystroke	n	n/a
367.1745	0.075	734349	keystroke	g	n/a
367.2795	0.075	734559	keystroke	e	n/a
367.3845	0.075	734769	keystroke	m	n/a
367.4895	0.0595	734979	keystroke	e	n/a
367.594	0.09	735188	keystroke	n	n/a
367.669	0.075	735338	keystroke	t	n/a
367.849	0.1055	735698	keystroke	s	n/a
367.9245	0.105	735849	keystroke	Key.space	n/a
368.2245	0.09	736449	keystroke	v	n/a
368.3295	0.06	736659	keystroke	i	n/a
368.4945	0.06	736989	keystroke	l	n/a
368.6295	0.06	737259	keystroke	l	n/a
368.7045	0.09	737409	keystroke	a	n/a
368.8395	0.075	737679	keystroke	g	n/a
368.9295	0.075	737859	keystroke	e	n/a
369.0945	0.09	738189	keystroke	s	n/a
369.1845	0.075	738369	keystroke	Key.enter	n/a
369.2655	5.9505	738531	prompt	n/a	epic setup telecommunications porter\n
369.889	0.075	739778	keystroke	e	n/a
370.204	0.09	740408	keystroke	p	n/a
370.354	0.09	740708	keystroke	i	n/a
370.489	0.06	740978	keystroke	c	n/a
370.5945	0.09	741189	keystroke	Key.space	n/a
370.6695	0.105	741339	keystroke	s	n/a
370.9245	0.075	741849	keystroke	e	n/a
371.0895	0.105	742179	keystroke	t	n/a
371.2545	0.105	742509	keystroke	u	n/a
371.4645	0.09	742929	keystroke	p	n/a
371.7045	0.105	743409	keystroke	Key.space	n/a
372.0045	0.105	744009	keystroke	t	n/a
372.1395	0.12	744279	keystroke	e	n/a
372.3645	0.075	744729	keystroke	l	n/a
372.4695	0.0745	744939	keystroke	e	n/a
372.649	0.09	745298	keystroke	c	n/a
372.754	0.075	745508	keystroke	o	n/a
372.919	0.06	745838	keystroke	m	n/a
373.069	0.075	746138	keystroke	m	n/a
373.249	0.06	746498	keystroke	u	n/a
373.3545	0.09	746709	keystroke	n	n/a
373.5045	0.09	747009	keystroke	i	n/a
373.5795	0.075	747159	keystroke	c	n/a
373.7595	0.075	747519	keystroke	a	n/a
373.909	0.09	747818	keystroke	t	n/a
373.954	0.105	747908	keystroke	i	n/a
374.029	0.075	748058	keystroke	o	n/a
374.179	0.075	748358	keystroke	n	n/a
374.269	0.09	748538	keystroke	s	n/a
374.344	0.09	748688	keystroke	Key.space	n/a
374.539	0.12	749078	keystroke	p	n/a
374.614	0.135	749228	keystroke	o	n/a
374.66	0.074	749320	keystroke	r	n/a
374.839	0.075	749678	keystroke	t	n/a
374.944	0.105	749888	keystroke	e	n/a
375.034	0.09	750068	keystroke	r	n/a
375.139	0.075	750278	keystroke	Key.enter	n/a
375.2185	11.3075	750437	prompt	n/a	easter affiliation corrections newcastle\n
375.875	0.089	751750	keystroke	e	n/a
376.024	0.1355	752048	keystroke	a	n/a
376.0845	0.135	752169	keystroke	s	n/a
376.2495	0.09	752499	keystroke	t	n/a
376.3545	0.075	752709	keystroke	e	n/a
376.5345	0.105	753069	keystroke	r	n/a
376.6245	0.09	753249	keystroke	Key.space	n/a
376.8945	0.105	753789	keystroke	a	n/a
377.1195	0.06	754239	keystroke	f	n/a
377.2395	0.105	754479	keystroke	f	n/a
377.3595	0.075	754719	keystroke	i	n/a
377.5695	0.1945	755139	keystroke	l	n/a
377.719	0.03	755438	keystroke	i	n/a
377.779	0.06	755558	keystroke	a	n/a
377.794	0.06	755588	keystroke	i	n/a
378.274	0.06	756548	keystroke	Key.backspace	n/a
378.439	0.06	756878	keystroke	Key.backspace	n/a
378.619	0.045	757238	keystroke	Key.backspace	n/a
378.769	0.075	757538	keystroke	Key.backspace	n/a
378.919	0.09	757838	keystroke	Key.backspace	n/a
379.099	0.075	758198	keystroke	Key.backspace	n/a
379.279	0.075	758558	keystroke	Key.backspace	n/a
379.474	0.075	758948	keystroke	Key.backspace	n/a
379.654	0.0755	759308	keystroke	Key.backspace	n/a
379.8345	0.075	759669	keystroke	Key.backspace	n/a
380.0145	0.075	760029	keystroke	Key.backspace	n/a
380.224	0.06	760448	keystroke	Key.backspace	n/a
380.434	0.06	760868	keystroke	Key.backspace	n/a
380.9745	0.045	761949	keystroke	s	n/a
381.1095	0.09	762219	keystroke	t	n/a
381.2445	0.09	762489	keystroke	e	n/a
381.3195	0.105	762639	keystroke	r	n/a
381.4095	0.0895	762819	keystroke	Key.space	n/a
381.574	0.09	763148	keystroke	a	n/a
382.309	0.075	764618	keystroke	f	n/a
382.4745	0.09	764949	keystroke	f	n/a
382.5495	0.075	765099	keystroke	i	n/a
382.7445	0.135	765489	keystroke	l	n/a
382.8645	0.135	765729	keystroke	i	n/a
382.9845	0.06	765969	keystroke	a	n/a
383.1495	0.105	766299	keystroke	t	n/a
383.1945	0.12	766389	keystroke	i	n/a
383.2695	0.075	766539	keystroke	o	n/a
383.4495	0.075	766899	keystroke	n	n/a
383.5995	0.0895	767199	keystroke	Key.space	n/a
383.719	0.075	767438	keystroke	c	n/a
383.809	0.09	767618	keystroke	o	n/a
383.944	0.075	767888	keystroke	r	n/a
384.109	0.105	768218	keystroke	r	n/a
384.154	0.1055	768308	keystroke	e	n/a
384.3795	0.03	768759	keystroke	c	n/a
384.5145	0.12	769029	keystroke	t	n/a
384.5895	0.105	769179	keystroke	i	n/a
384.6495	0.09	769299	keystroke	o	n/a
384.8595	0.075	769719	keystroke	n	n/a
384.9495	0.105	769899	keystroke	s	n/a
385.0995	0.09	770199	keystroke	Key.space	n/a
385.2945	0.09	770589	keystroke	n	n/a
385.3695	0.135	770739	keystroke	e	n/a
385.4295	0.105	770859	keystroke	w	n/a
385.6395	0.0745	771279	keystroke	c	n/a
385.805	0.104	771610	keystroke	a	n/a
385.879	0.12	771758	keystroke	s	n/a
386.105	0.104	772210	keystroke	t	n/a
386.194	0.091	772388	keystroke	l	n/a
386.344	0.075	772688	keystroke	e	n/a
386.434	0.09	772868	keystroke	Key.enter	n/a
386.5365	6.079	773073	prompt	n/a	tobacco mechanics papua strike\n
387.1695	0.09	774339	keystroke	t	n/a
387.2895	0.12	774579	keystroke	o	n/a
387.679	0.12	775358	keystroke	b	n/a
388.114	0.091	776228	keystroke	a	n/a
388.339	0.06	776678	keystroke	c	n/a
388.5195	0.075	777039	keystroke	c	n/a
388.6095	0.06	777219	keystroke	o	n/a
388.8195	0.06	777639	keystroke	Key.space	n/a
388.9995	0.075	777999	keystroke	m	n/a
389.0295	0.09	778059	keystroke	e	n/a
389.2845	0.0895	778569	keystroke	c	n/a
389.404	0.09	778808	keystroke	h	n/a
389.524	0.075	779048	keystroke	a	n/a
389.614	0.075	779228	keystroke	n	n/a
389.7495	0.105	779499	keystroke	i	n/a
389.8695	0.075	779739	keystroke	c	n/a
389.9745	0.12	779949	keystroke	s	n/a
390.2445	0.09	780489	keystroke	Key.space	n/a
390.6795	0.09	781359	keystroke	p	n/a
390.8145	0.075	781629	keystroke	a	n/a
390.9945	0.09	781989	keystroke	p	n/a
391.3245	0.075	782649	keystroke	u	n/a
391.4145	0.075	782829	keystroke	a	n/a
391.5495	0.09	783099	keystroke	Key.space	n/a
391.6245	0.105	783249	keystroke	s	n/a
391.8195	0.075	783639	keystroke	t	n/a
391.9995	0.0605	783999	keystroke	r	n/a
392.074	0.06	784148	keystroke	i	n/a
392.21	0.105	784420	keystroke	k	n/a
392.315	0.075	784630	keystroke	e	n/a
392.539	0.075	785078	keystroke	Key.enter	n/a
392.6205	7.2255	785241	prompt	n/a	promotion sufficiently tops enables\n
393.275	0.089	786550	keystroke	p	n/a
393.424	0.105	786848	keystroke	r	n/a
393.544	0.09	787088	keystroke	o	n/a
394.3845	0.09	788769	keystroke	m	n/a
394.5645	0.09	789129	keystroke	o	n/a
394.6995	0.105	789399	keystroke	t	n/a
394.8645	0.105	789729	keystroke	i	n/a
394.9245	0.105	789849	keystroke	o	n/a
395.1795	0.09	790359	keystroke	n	n/a
395.4345	0.09	790869	keystroke	Key.space	n/a
396.0495	0.12	792099	keystroke	s	n/a
396.1845	0.105	792369	keystroke	u	n/a
396.3195	0.105	792639	keystroke	f	n/a
396.4995	0.09	792999	keystroke	f	n/a
396.6345	0.09	793269	keystroke	i	n/a
396.7395	0.09	793479	keystroke	c	n/a
396.8445	0.09	793689	keystroke	i	n/a
396.9495	0.09	793899	keystroke	e	n/a
397.0395	0.105	794079	keystroke	n	n/a
397.1745	0.105	794349	keystroke	t	n/a
397.2645	0.075	794529	keystroke	l	n/a
397.4895	0.075	794979	keystroke	y	n/a
397.714	0.105	795428	keystroke	Key.space	n/a
398.1045	0.03	796209	keystroke	t	n/a
398.1345	0.12	796269	keystroke	o	n/a
398.1945	0.09	796389	keystroke	p	n/a
398.3445	0.105	796689	keystroke	s	n/a
398.4945	0.105	796989	keystroke	Key.space	n/a
398.6445	0.09	797289	keystroke	e	n/a
398.7795	0.09	797559	keystroke	n	n/a
398.8995	0.09	797799	keystroke	a	n/a
399.0195	0.06	798039	keystroke	b	n/a
399.2295	0.075	798459	keystroke	l	n/a
399.2895	0.075	798579	keystroke	e	n/a
399.4845	0.075	798969	keystroke	s	n/a
399.7245	0.12	799449	keystroke	Key.enter	n/a
399.8495	7.677	799699	prompt	n/a	governance dynamic monitored truth\n
400.939	0.06	801878	keystroke	g	n/a
401.059	0.12	802118	keystroke	o	n/a
401.134	0.075	802268	keystroke	v	n/a
401.284	0.1055	802568	keystroke	e	n/a
401.3445	0.105	802689	keystroke	r	n/a
401.4645	0.12	802929	keystroke	n	n/a
401.8545	0.105	803709	keystroke	a	n/a
402.0195	0.105	804039	keystroke	n	n/a
402.1395	0.075	804279	keystroke	e	n/a
402.2745	0.105	804549	keystroke	Key.space	n/a
402.8445	0.09	805689	keystroke	d	n/a
403.0545	0.075	806109	keystroke	y	n/a
403.2645	0.075	806529	keystroke	n	n/a
403.3545	0.09	806709	keystroke	a	n/a
403.4745	0.105	806949	keystroke	m	n/a
403.5945	0.09	807189	keystroke	i	n/a
403.7295	0.12	807459	keystroke	c	n/a
404.0295	0.09	808059	keystroke	Key.space	n/a
404.3595	0.075	808719	keystroke	m	n/a
404.4945	0.0745	808989	keystroke	o	n/a
404.66	0.0895	809320	keystroke	n	n/a
404.8395	0.105	809679	keystroke	i	n/a
404.9745	0.09	809949	keystroke	t	n/a
405.1245	0.09	810249	keystroke	o	n/a
405.2295	0.135	810459	keystroke	r	n/a
405.3045	0.135	810609	keystroke	e	n/a
405.6645	0.12	811329	keystroke	d	n/a
405.7995	0.135	811599	keystroke	Key.space	n/a
406.2495	0.09	812499	keystroke	t	n/a
406.8795	0.09	813759	keystroke	r	n/a
406.9845	0.075	813969	keystroke	u	n/a
407.0895	0.105	814179	keystroke	t	n/a
407.2095	0.06	814419	keystroke	h	n/a
407.4495	0.075	814899	keystroke	Key.enter	n/a
407.537	6.604	815074	prompt	n/a	thanks alumni flickr guess\n
408.2745	0.075	816549	keystroke	t	n/a
408.3645	0.09	816729	keystroke	h	n/a
408.4845	0.105	816969	keystroke	a	n/a
408.5745	0.09	817149	keystroke	n	n/a
408.6945	0.06	817389	keystroke	k	n/a
408.7545	0.1045	817509	keystroke	s	n/a
408.874	0.06	817748	keystroke	Key.space	n/a
408.994	0.09	817988	keystroke	a	n/a
409.129	0.09	818258	keystroke	l	n/a
409.279	0.09	818558	keystroke	u	n/a
409.474	0.12	818948	keystroke	m	n/a
409.744	0.09	819488	keystroke	n	n/a
409.819	0.135	819638	keystroke	i	n/a
410.059	0.1205	820118	keystroke	Key.space	n/a
410.9295	0.105	821859	keystroke	f	n/a
411.0195	0.105	822039	keystroke	l	n/a
411.1095	0.12	822219	keystroke	i	n/a
411.2145	0.12	822429	keystroke	c	n/a
411.3495	0.075	822699	keystroke	k	n/a
411.665	0.09	823330	keystroke	r	n/a
411.785	0.119	823570	keystroke	Key.space	n/a
413.4195	0.09	826839	keystroke	g	n/a
413.4945	0.12	826989	keystroke	u	n/a
413.5695	0.09	827139	keystroke	e	n/a
413.7645	0.075	827529	keystroke	s	n/a
413.9295	0.09	827859	keystroke	s	n/a
414.0345	0.105	828069	keystroke	Key.enter	n/a
414.144	5.997	828288	prompt	n/a	researchers uploaded jeep vector\n
414.784	0.06	829568	keystroke	r	n/a
415.129	0.09	830258	keystroke	e	n/a
415.339	0.105	830678	keystroke	s	n/a
415.505	0.104	831010	keystroke	e	n/a
415.595	0.089	831190	keystroke	a	n/a
415.759	0.075	831518	keystroke	r	n/a
415.939	0.075	831878	keystroke	c	n/a
416.029	0.09	832058	keystroke	h	n/a
416.089	0.105	832178	keystroke	e	n/a
416.164	0.105	832328	keystroke	r	n/a
416.299	0.105	832598	keystroke	s	n/a
416.389	0.09	832778	keystroke	Key.space	n/a
416.659	0.09	833318	keystroke	u	n/a
416.839	0.09	833678	keystroke	p	n/a
417.0195	0.06	834039	keystroke	l	n/a
417.1545	0.105	834309	keystroke	o	n/a
417.2295	0.105	834459	keystroke	a	n/a
417.4245	0.12	834849	keystroke	d	n/a
417.5145	0.105	835029	keystroke	e	n/a
417.6795	0.075	835359	keystroke	d	n/a
417.7995	0.09	835599	keystroke	Key.space	n/a
418.4145	0.09	836829	keystroke	j	n/a
418.5195	0.06	837039	keystroke	e	n/a
418.6695	0.075	837339	keystroke	e	n/a
418.7895	0.075	837579	keystroke	p	n/a
418.9995	0.09	837999	keystroke	Key.space	n/a
419.1945	0.075	838389	keystroke	v	n/a
419.2545	0.075	838509	keystroke	e	n/a
419.4645	0.075	838929	keystroke	c	n/a
419.6745	0.105	839349	keystroke	t	n/a
419.8095	0.105	839619	keystroke	o	n/a
419.8995	0.09	839799	keystroke	r	n/a
420.0645	0.075	840129	keystroke	Key.enter	n/a
420.1435	4.8125	840287	prompt	n/a	site shot everything miller\n
420.769	0.105	841538	keystroke	s	n/a
420.86	0.105	841720	keystroke	i	n/a
420.994	0.1355	841988	keystroke	t	n/a
421.1145	0.075	842229	keystroke	e	n/a
421.2345	0.0745	842469	keystroke	Key.space	n/a
421.369	0.106	842738	keystroke	s	n/a
421.459	0.06	842918	keystroke	h	n/a
421.625	0.0745	843250	keystroke	o	n/a
421.7005	0.089	843401	keystroke	t	n/a
421.8495	0.09	843699	keystroke	Key.space	n/a
422.6895	0.075	845379	keystroke	e	n/a
422.8845	0.075	845769	keystroke	v	n/a
422.9445	0.12	845889	keystroke	e	n/a
423.0195	0.12	846039	keystroke	r	n/a
423.1545	0.09	846309	keystroke	y	n/a
423.2595	0.105	846519	keystroke	t	n/a
423.3495	0.075	846699	keystroke	h	n/a
423.4545	0.075	846909	keystroke	i	n/a
423.5895	0.075	847179	keystroke	n	n/a
423.6495	0.06	847299	keystroke	g	n/a
423.889	0.075	847778	keystroke	Key.space	n/a
424.114	0.076	848228	keystroke	m	n/a
424.249	0.09	848498	keystroke	i	n/a
424.459	0.045	848918	keystroke	l	n/a
424.594	0.075	849188	keystroke	l	n/a
424.67	0.075	849340	keystroke	e	n/a
424.714	0.105	849428	keystroke	r	n/a
424.864	0.09	849728	keystroke	Key.enter	n/a
424.9585	5.9825	849917	prompt	n/a	humans claim coupons advisory\n
425.689	0.12	851378	keystroke	h	n/a
425.794	0.09	851588	keystroke	u	n/a
425.9595	0.1045	851919	keystroke	m	n/a
426.079	0.0755	852158	keystroke	a	n/a
426.184	0.075	852368	keystroke	n	n/a
426.289	0.0905	852578	keystroke	s	n/a
426.364	0.075	852728	keystroke	Key.space	n/a
426.4845	0.0745	852969	keystroke	c	n/a
426.6195	0.075	853239	keystroke	l	n/a
426.7095	0.075	853419	keystroke	a	n/a
426.8445	0.09	853689	keystroke	i	n/a
426.8745	0.105	853749	keystroke	m	n/a
427.4745	0.09	854949	keystroke	Key.space	n/a
427.7745	0.1195	855549	keystroke	o	n/a
428.194	0.06	856388	keystroke	Key.backspace	n/a
428.284	0.09	856568	keystroke	c	n/a
428.389	0.12	856778	keystroke	o	n/a
428.494	0.091	856988	keystroke	u	n/a
428.659	0.09	857318	keystroke	p	n/a
428.854	0.06	857708	keystroke	o	n/a
428.989	0.105	857978	keystroke	n	n/a
429.139	0.105	858278	keystroke	s	n/a
429.214	0.105	858428	keystroke	Key.space	n/a
429.364	0.075	858728	keystroke	a	n/a
429.665	0.0745	859330	keystroke	d	n/a
429.8895	0.075	859779	keystroke	v	n/a
429.9945	0.12	859989	keystroke	i	n/a
430.0995	0.09	860199	keystroke	s	n/a
430.2495	0.09	860499	keystroke	o	n/a
430.3545	0.09	860709	keystroke	r	n/a
430.5345	0.0595	861069	keystroke	y	n/a
430.835	0.1045	861670	keystroke	Key.enter	n/a
430.9435	6.7635	861887	prompt	n/a	teachers disorder interactions travelling\n
431.6895	0.12	863379	keystroke	t	n/a
431.7795	0.09	863559	keystroke	e	n/a
431.975	0.075	863950	keystroke	a	n/a
432.14	0.105	864280	keystroke	c	n/a
432.29	0.09	864580	keystroke	h	n/a
432.335	0.105	864670	keystroke	e	n/a
432.41	0.1045	864820	keystroke	r	n/a
432.5745	0.105	865149	keystroke	s	n/a
432.7095	0.105	865419	keystroke	Key.space	n/a
432.8595	0.105	865719	keystroke	d	n/a
432.9945	0.105	865989	keystroke	i	n/a
433.1005	0.119	866201	keystroke	s	n/a
433.2795	0.105	866559	keystroke	o	n/a
433.7	0.075	867400	keystroke	r	n/a
433.895	0.12	867790	keystroke	d	n/a
433.97	0.12	867940	keystroke	e	n/a
434.105	0.1045	868210	keystroke	r	n/a
434.2395	0.09	868479	keystroke	Key.space	n/a
434.4045	0.1205	868809	keystroke	i	n/a
434.51	0.135	869020	keystroke	n	n/a
434.6	0.0745	869200	keystroke	t	n/a
434.7195	0.12	869439	keystroke	e	n/a
434.7795	0.12	869559	keystroke	r	n/a
434.9595	0.09	869919	keystroke	a	n/a
435.3945	0.06	870789	keystroke	c	n/a
435.5745	0.1045	871149	keystroke	t	n/a
435.6495	0.1195	871299	keystroke	i	n/a
435.724	0.075	871448	keystroke	o	n/a
435.889	0.09	871778	keystroke	n	n/a
435.994	0.12	871988	keystroke	s	n/a
436.099	0.105	872198	keystroke	Key.space	n/a
436.249	0.105	872498	keystroke	t	n/a
436.459	0.105	872918	keystroke	r	n/a
436.654	0.105	873308	keystroke	a	n/a
436.819	0.09	873638	keystroke	v	n/a
436.999	0.075	873998	keystroke	e	n/a
437.089	0.09	874178	keystroke	l	n/a
437.269	0.106	874538	keystroke	i	n/a
437.359	0.105	874718	keystroke	n	n/a
437.479	0.075	874958	keystroke	g	n/a
437.614	0.09	875228	keystroke	Key.enter	n/a
437.7105	5.7855	875421	prompt	n/a	puppy planet evident japan\n
438.364	0.06	876728	keystroke	p	n/a
438.529	0.09	877058	keystroke	u	n/a
438.724	0.0755	877448	keystroke	p	n/a
438.8745	0.075	877749	keystroke	p	n/a
439.0695	0.09	878139	keystroke	u	n/a
439.3995	0.075	878799	keystroke	Key.backspace	n/a
439.6095	0.075	879219	keystroke	y	n/a
439.8195	0.075	879639	keystroke	Key.space	n/a
440.299	0.135	880598	keystroke	p	n/a
440.404	0.165	880808	keystroke	l	n/a
440.614	0.09	881228	keystroke	a	n/a
440.749	0.09	881498	keystroke	n	n/a
440.824	0.075	881648	keystroke	e	n/a
441.019	0.09	882038	keystroke	t	n/a
441.094	0.075	882188	keystroke	Key.space	n/a
441.349	0.075	882698	keystroke	e	n/a
441.6795	0.075	883359	keystroke	v	n/a
441.7695	0.12	883539	keystroke	i	n/a
441.9495	0.1505	883899	keystroke	d	n/a
442.04	0.135	884080	keystroke	e	n/a
442.16	0.09	884320	keystroke	n	n/a
442.28	0.105	884560	keystroke	t	n/a
442.37	0.075	884740	keystroke	Key.space	n/a
442.6995	0.105	885399	keystroke	j	n/a
442.8495	0.105	885699	keystroke	a	n/a
442.9555	0.104	885911	keystroke	p	n/a
443.0745	0.09	886149	keystroke	a	n/a
443.2095	0.06	886419	keystroke	n	n/a
443.4045	0.09	886809	keystroke	Key.enter	n/a
443.4985	7.243	886997	prompt	n/a	remarks photographs individually western\n
444.1245	0.1505	888249	keystroke	r	n/a
444.215	0.09	888430	keystroke	e	n/a
444.335	0.105	888670	keystroke	m	n/a
444.425	0.075	888850	keystroke	a	n/a
444.575	0.075	889150	keystroke	r	n/a
444.665	0.09	889330	keystroke	k	n/a
444.8	0.09	889600	keystroke	s	n/a
444.935	0.075	889870	keystroke	Key.space	n/a
445.175	0.075	890350	keystroke	p	n/a
445.369	0.06	890738	keystroke	h	n/a
445.505	0.119	891010	keystroke	o	n/a
445.609	0.075	891218	keystroke	t	n/a
445.789	0.09	891578	keystroke	g	n/a
445.864	0.075	891728	keystroke	r	n/a
445.969	0.135	891938	keystroke	a	n/a
446.674	0.075	893348	keystroke	p	n/a
446.914	0.09	893828	keystroke	h	n/a
447.079	0.1055	894158	keystroke	s	n/a
447.23	0.075	894460	keystroke	Key.space	n/a
447.4995	0.09	894999	keystroke	i	n/a
447.635	0.1045	895270	keystroke	n	n/a
447.8295	0.075	895659	keystroke	d	n/a
447.9195	0.105	895839	keystroke	i	n/a
448.2345	0.0755	896469	keystroke	v	n/a
448.37	0.105	896740	keystroke	i	n/a
448.52	0.09	897040	keystroke	d	n/a
448.67	0.09	897340	keystroke	u	n/a
448.775	0.0895	897550	keystroke	a	n/a
448.8795	0.06	897759	keystroke	l	n/a
449.0295	0.075	898059	keystroke	l	n/a
449.2545	0.075	898509	keystroke	y	n/a
449.4795	0.1055	898959	keystroke	Key.space	n/a
449.734	0.105	899468	keystroke	w	n/a
449.794	0.12	899588	keystroke	e	n/a
450.004	0.076	900008	keystroke	s	n/a
450.154	0.075	900308	keystroke	t	n/a
450.259	0.12	900518	keystroke	e	n/a
450.349	0.105	900698	keystroke	r	n/a
450.439	0.076	900878	keystroke	n	n/a
450.649	0.09	901298	keystroke	Key.enter	n/a
450.7515	10.235	901503	prompt	n/a	extraordinary knows lock rover\n
451.325	0.089	902650	keystroke	r	n/a
451.399	0.105	902798	keystroke	e	n/a
451.6845	0.06	903369	keystroke	Key.backspace	n/a
451.8495	0.09	903699	keystroke	Key.backspace	n/a
452.0895	0.09	904179	keystroke	e	n/a
452.3145	0.12	904629	keystroke	x	n/a
452.5395	0.09	905079	keystroke	t	n/a
452.7345	0.105	905469	keystroke	r	n/a
452.9895	0.105	905979	keystroke	a	n/a
453.799	0.18	907598	keystroke	o	n/a
454.024	0.135	908048	keystroke	d	n/a
455.4345	0.09	910869	keystroke	Key.backspace	n/a
455.5845	0.1205	911169	keystroke	r	n/a
456.5445	0.105	913089	keystroke	d	n/a
456.6795	0.075	913359	keystroke	i	n/a
456.8445	0.105	913689	keystroke	n	n/a
456.9045	0.12	913809	keystroke	a	n/a
457.1895	0.105	914379	keystroke	r	n/a
457.4445	0.075	914889	keystroke	y	n/a
457.6395	0.0905	915279	keystroke	Key.space	n/a
457.79	0.1195	915580	keystroke	k	n/a
457.8795	0.075	915759	keystroke	n	n/a
458.0445	0.075	916089	keystroke	o	n/a
458.1045	0.09	916209	keystroke	w	n/a
458.8695	0.12	917739	keystroke	s	n/a
459.32	0.12	918640	keystroke	Key.space	n/a
459.74	0.075	919480	keystroke	l	n/a
459.92	0.09	919840	keystroke	o	n/a
460.025	0.0895	920050	keystroke	c	n/a
460.0995	0.075	920199	keystroke	k	n/a
460.2495	0.105	920499	keystroke	Key.space	n/a
460.3845	0.075	920769	keystroke	r	n/a
460.4445	0.105	920889	keystroke	o	n/a
460.58	0.06	921160	keystroke	v	n/a
460.7	0.105	921400	keystroke	e	n/a
460.76	0.135	921520	keystroke	r	n/a
460.879	0.106	921758	keystroke	Key.enter	n/a
460.9985	5.5375	921997	prompt	n/a	whenever fifth permanent reported\n
461.675	0.105	923350	keystroke	w	n/a
461.809	0.135	923618	keystroke	h	n/a
461.959	0.12	923918	keystroke	e	n/a
462.109	0.09	924218	keystroke	n	n/a
462.229	0.09	924458	keystroke	e	n/a
462.379	0.1055	924758	keystroke	v	n/a
462.469	0.1055	924938	keystroke	e	n/a
462.5895	0.06	925179	keystroke	r	n/a
462.6645	0.09	925329	keystroke	Key.space	n/a
463.0545	0.09	926109	keystroke	f	n/a
463.1595	0.105	926319	keystroke	i	n/a
463.2495	0.09	926499	keystroke	f	n/a
463.4895	0.105	926979	keystroke	t	n/a
463.6245	0.075	927249	keystroke	h	n/a
463.8195	0.12	927639	keystroke	Key.space	n/a
464.2395	0.12	928479	keystroke	p	n/a
464.3445	0.06	928689	keystroke	e	n/a
464.4945	0.09	928989	keystroke	r	n/a
464.6	0.1045	929200	keystroke	m	n/a
464.7495	0.0905	929499	keystroke	a	n/a
464.8695	0.09	929739	keystroke	n	n/a
465.0645	0.105	930129	keystroke	e	n/a
465.2145	0.075	930429	keystroke	n	n/a
465.349	0.09	930698	keystroke	t	n/a
465.4545	0.1045	930909	keystroke	Key.space	n/a
465.6045	0.1495	931209	keystroke	r	n/a
465.6945	0.1195	931389	keystroke	e	n/a
465.784	0.1055	931568	keystroke	p	n/a
465.844	0.105	931688	keystroke	o	n/a
465.904	0.09	931808	keystroke	r	n/a
466.0845	0.075	932169	keystroke	t	n/a
466.1895	0.105	932379	keystroke	e	n/a
466.3095	0.09	932619	keystroke	d	n/a
466.4445	0.09	932889	keystroke	Key.enter	n/a
466.5445	8.7675	933089	prompt	n/a	increasingly investigated muslims head\n
467.1045	0.091	934209	keystroke	i	n/a
467.2845	0.09	934569	keystroke	n	n/a
467.3895	0.045	934779	keystroke	c	n/a
467.5695	0.1355	935139	keystroke	r	n/a
467.6295	0.0905	935259	keystroke	e	n/a
467.825	0.12	935650	keystroke	a	n/a
467.885	0.105	935770	keystroke	s	n/a
468.005	0.09	936010	keystroke	i	n/a
468.125	0.09	936250	keystroke	n	n/a
468.3495	0.075	936699	keystroke	g	n/a
468.4695	0.09	936939	keystroke	l	n/a
468.7095	0.0605	937419	keystroke	y	n/a
468.905	0.074	937810	keystroke	Key.space	n/a
469.085	0.105	938170	keystroke	i	n/a
469.19	0.075	938380	keystroke	n	n/a
469.4	0.075	938800	keystroke	v	n/a
469.46	0.075	938920	keystroke	e	n/a
469.7145	0.015	939429	keystroke	s	n/a
469.8795	0.105	939759	keystroke	t	n/a
469.9995	0.075	939999	keystroke	i	n/a
470.1645	0.09	940329	keystroke	g	n/a
470.2395	0.105	940479	keystroke	a	n/a
470.9895	0.105	941979	keystroke	t	n/a
471.0795	0.09	942159	keystroke	e	n/a
471.2895	0.105	942579	keystroke	d	n/a
471.3795	0.075	942759	keystroke	Key.space	n/a
471.5745	0.075	943149	keystroke	n	n/a
471.7995	0.09	943599	keystroke	u	n/a
472.2045	0.09	944409	keystroke	s	n/a
472.519	0.075	945038	keystroke	Key.backspace	n/a
472.7295	0.075	945459	keystroke	Key.backspace	n/a
472.94	0.1045	945880	keystroke	Key.backspace	n/a
473.7045	0.075	947409	keystroke	m	n/a
473.8995	0.075	947799	keystroke	u	n/a
473.9895	0.09	947979	keystroke	s	n/a
474.1095	0.0905	948219	keystroke	l	n/a
474.305	0.105	948610	keystroke	i	n/a
474.35	0.12	948700	keystroke	m	n/a
474.485	0.12	948970	keystroke	s	n/a
474.59	0.09	949180	keystroke	Key.space	n/a
474.755	0.135	949510	keystroke	h	n/a
474.815	0.06	949630	keystroke	e	n/a
474.905	0.075	949810	keystroke	a	n/a
475.07	0.09	950140	keystroke	d	n/a
475.205	0.105	950410	keystroke	Key.enter	n/a
475.324	5.6875	950648	prompt	n/a	breeding quilt bytes wiki\n
476.03	0.105	952060	keystroke	b	n/a
476.12	0.135	952240	keystroke	r	n/a
476.21	0.105	952420	keystroke	e	n/a
476.39	0.105	952780	keystroke	e	n/a
476.555	0.12	953110	keystroke	d	n/a
476.69	0.105	953380	keystroke	i	n/a
476.78	0.09	953560	keystroke	n	n/a
476.885	0.09	953770	keystroke	g	n/a
476.99	0.09	953980	keystroke	Key.space	n/a
477.215	0.104	954430	keystroke	q	n/a
477.365	0.179	954730	keystroke	u	n/a
477.649	0.105	955298	keystroke	i	n/a
477.904	0.105	955808	keystroke	l	n/a
478.729	0.076	957458	keystroke	t	n/a
478.819	0.09	957638	keystroke	Key.space	n/a
479.014	0.075	958028	keystroke	b	n/a
479.149	0.12	958298	keystroke	y	n/a
479.345	0.089	958690	keystroke	t	n/a
479.509	0.105	959018	keystroke	e	n/a
479.7195	0.105	959439	keystroke	s	n/a
479.7945	0.12	959589	keystroke	Key.space	n/a
480.0045	0.105	960009	keystroke	w	n/a
480.0945	0.09	960189	keystroke	i	n/a
480.5745	0.06	961149	keystroke	k	n/a
480.7395	0.09	961479	keystroke	i	n/a
480.905	0.105	961810	keystroke	Key.enter	n/a
481.014	6.5825	962028	prompt	n/a	coordinate sixth vehicles meant\n
481.64	0.0895	963280	keystroke	c	n/a
481.7445	0.075	963489	keystroke	o	n/a
481.9245	0.105	963849	keystroke	o	n/a
482.0145	0.06	964029	keystroke	r	n/a
482.1645	0.09	964329	keystroke	d	n/a
482.2395	0.09	964479	keystroke	i	n/a
482.3445	0.1055	964689	keystroke	n	n/a
482.42	0.09	964840	keystroke	a	n/a
482.645	0.12	965290	keystroke	t	n/a
482.735	0.105	965470	keystroke	e	n/a
482.9	0.12	965800	keystroke	Key.space	n/a
483.2145	0.075	966429	keystroke	s	n/a
483.3345	0.1055	966669	keystroke	i	n/a
483.725	0.0595	967450	keystroke	x	n/a
483.9645	0.09	967929	keystroke	t	n/a
484.1145	0.06	968229	keystroke	h	n/a
484.3245	0.105	968649	keystroke	Key.space	n/a
485.1345	0.075	970269	keystroke	v	n/a
485.3595	0.105	970719	keystroke	e	n/a
485.9895	0.075	971979	keystroke	h	n/a
486.1695	0.075	972339	keystroke	n	n/a
486.304	0.105	972608	keystroke	i	n/a
486.379	0.0755	972758	keystroke	c	n/a
486.529	0.09	973058	keystroke	l	n/a
486.604	0.075	973208	keystroke	e	n/a
486.754	0.105	973508	keystroke	s	n/a
486.814	0.075	973628	keystroke	Key.space	n/a
486.995	0.105	973990	keystroke	m	n/a
487.085	0.0895	974170	keystroke	e	n/a
487.13	0.105	974260	keystroke	a	n/a
487.2495	0.0755	974499	keystroke	n	n/a
487.37	0.1045	974740	keystroke	t	n/a
487.4895	0.105	974979	keystroke	Key.enter	n/a
487.61	4.546	975220	prompt	n/a	bleeding round yard american\n
488.3745	0.06	976749	keystroke	b	n/a
488.5695	0.105	977139	keystroke	l	n/a
488.6445	0.09	977289	keystroke	e	n/a
488.7945	0.105	977589	keystroke	e	n/a
489.0195	0.09	978039	keystroke	d	n/a
489.1245	0.045	978249	keystroke	i	n/a
489.1545	0.1355	978309	keystroke	n	n/a
489.275	0.09	978550	keystroke	g	n/a
489.425	0.09	978850	keystroke	Key.space	n/a
489.575	0.105	979150	keystroke	r	n/a
489.6645	0.1355	979329	keystroke	o	n/a
489.77	0.09	979540	keystroke	u	n/a
489.965	0.09	979930	keystroke	n	n/a
490.07	0.105	980140	keystroke	d	n/a
490.16	0.075	980320	keystroke	Key.space	n/a
490.355	0.075	980710	keystroke	y	n/a
490.415	0.075	980830	keystroke	a	n/a
490.595	0.059	981190	keystroke	r	n/a
490.775	0.09	981550	keystroke	d	n/a
490.849	0.076	981698	keystroke	Key.space	n/a
491.075	0.075	982150	keystroke	a	n/a
491.165	0.075	982330	keystroke	m	n/a
491.255	0.09	982510	keystroke	e	n/a
491.42	0.105	982840	keystroke	r	n/a
491.54	0.075	983080	keystroke	i	n/a
491.629	0.061	983258	keystroke	c	n/a
491.795	0.089	983590	keystroke	a	n/a
491.87	0.074	983740	keystroke	n	n/a
492.064	0.09	984128	keystroke	Key.enter	n/a
492.1585	7.0625	984317	prompt	n/a	naples changed awareness lost\n
493.5945	0.075	987189	keystroke	a	n/a
494.1045	0.09	988209	keystroke	Key.backspace	n/a
494.3445	0.09	988689	keystroke	n	n/a
494.4795	0.105	988959	keystroke	a	n/a
494.5995	0.1345	989199	keystroke	p	n/a
494.674	0.106	989348	keystroke	l	n/a
494.7495	0.09	989499	keystroke	e	n/a
494.9595	0.0445	989919	keystroke	s	n/a
495.049	0.0905	990098	keystroke	Key.space	n/a
495.1695	0.0895	990339	keystroke	c	n/a
495.2745	0.0895	990549	keystroke	h	n/a
495.3795	0.105	990759	keystroke	a	n/a
495.4695	0.0895	990939	keystroke	n	n/a
495.695	0.075	991390	keystroke	g	n/a
495.785	0.06	991570	keystroke	e	n/a
495.935	0.09	991870	keystroke	d	n/a
496.01	0.09	992020	keystroke	Key.space	n/a
496.16	0.135	992320	keystroke	a	n/a
496.34	0.15	992680	keystroke	w	n/a
496.7	0.12	993400	keystroke	a	n/a
496.88	0.195	993760	keystroke	r	n/a
497	0.105	994000	keystroke	e	n/a
497.12	0.1195	994240	keystroke	n	n/a
497.2545	0.105	994509	keystroke	e	n/a
497.4645	0.075	994929	keystroke	s	n/a
497.5995	0.09	995199	keystroke	s	n/a
497.7045	0.06	995409	keystroke	Key.space	n/a
498.2145	0.015	996429	keystroke	o	n/a
