onset	duration	sample	value	key	prompt_text
12.42	12.122	24840	prompt	n/a	the quick brown fox jumps over a lazy dog\n
14.438	0.028	28876	keystroke_t	t	n/a
14.526	0.075	29052	keystroke_h	h	n/a
14.766	0.075	29532	keystroke_Key.space	Key.space	n/a
15.261	0.09	30522	keystroke_Key.backspace	Key.backspace	n/a
15.411	0.075	30822	keystroke_e	e	n/a
15.606	0.045	31212	keystroke_Key.space	Key.space	n/a
16.206	0.075	32412	keystroke_q	q	n/a
16.386	0.135	32772	keystroke_u	u	n/a
16.491	0.105	32982	keystroke_i	i	n/a
16.656	0.09	33312	keystroke_c	c	n/a
16.761	0.1355	33522	keystroke_k	k	n/a
16.8815	0.09	33763	keystroke_Key.space	Key.space	n/a
17.0465	0.09	34093	keystroke_b	b	n/a
17.1665	0.075	34333	keystroke_r	r	n/a
17.2865	0.09	34573	keystroke_o	o	n/a
17.3915	0.105	34783	keystroke_w	w	n/a
17.5865	0.15	35173	keystroke_n	n	n/a
17.7215	0.12	35443	keystroke_Key.space	Key.space	n/a
17.9015	0.09	35803	keystroke_f	f	n/a
18.0065	0.105	36013	keystroke_o	o	n/a
18.8015	0.09	37603	keystroke_x	x	n/a
18.9365	0.09	37873	keystroke_Key.space	Key.space	n/a
19.6265	0.075	39253	keystroke_j	j	n/a
19.8065	0.06	39613	keystroke_u	u	n/a
20.0165	0.105	40033	keystroke_m	m	n/a
20.6015	0.105	41203	keystroke_p	p	n/a
20.7365	0.06	41473	keystroke_s	s	n/a
20.7815	0.135	41563	keystroke_Key.space	Key.space	n/a
20.9015	0.09	41803	keystroke_o	o	n/a
20.9615	0.075	41923	keystroke_v	v	n/a
21.0815	0.195	42163	keystroke_e	e	n/a
21.2315	0.12	42463	keystroke_r	r	n/a
21.3815	0.105	42763	keystroke_Key.space	Key.space	n/a
21.5015	0.075	43003	keystroke_a	a	n/a
21.6065	0.105	43213	keystroke_Key.space	Key.space	n/a
21.8615	0.09	43723	keystroke_l	l	n/a
22.0265	0.06	44053	keystroke_a	a	n/a
22.2515	0.105	44503	keystroke_z	z	n/a
22.3865	0.12	44773	keystroke_t	t	n/a
22.9865	0.075	45973	keystroke_Key.backspace	Key.backspace	n/a
23.7215	0.15	47443	keystroke_y	y	n/a
23.8265	0.12	47653	keystroke_Key.space	Key.space	n/a
24.0065	0.09	48013	keystroke_d	d	n/a
24.1565	0.12	48313	keystroke_o	o	n/a
24.3065	0.075	48613	keystroke_g	g	n/a
24.4565	0.075	48913	keystroke_Key.enter	Key.enter	n/a
24.5485	12.8695	49097	prompt	n/a	default branch aged discipline\n
26.8435	0.028	53687	keystroke_d	d	n/a
26.9915	0.0445	53983	keystroke_e	e	n/a
27.126	0.12	54252	keystroke_f	f	n/a
27.261	0.09	54522	keystroke_a	a	n/a
27.411	0.09	54822	keystroke_u	u	n/a
27.532	0.089	55064	keystroke_l	l	n/a
27.651	0.09	55302	keystroke_t	t	n/a
28.131	0.12	56262	keystroke_Key.space	Key.space	n/a
28.716	0.15	57432	keystroke_b	b	n/a
28.881	0.09	57762	keystroke_e	e	n/a
28.972	0.074	57944	keystroke_Key.caps_lock	Key.caps_lock	n/a
29.137	0.104	58274	keystroke_x	x	n/a
29.257	0.119	58514	keystroke_h	h	n/a
29.646	0.06	59292	keystroke_Key.backspace	Key.backspace	n/a
29.811	0.03	59622	keystroke_Key.backspace	Key.backspace	n/a
29.931	0.045	59862	keystroke_Key.backspace	Key.backspace	n/a
30.516	0.075	61032	keystroke_Key.caps_lock	Key.caps_lock	n/a
30.8915	0.075	61783	keystroke_r	r	n/a
31.0265	0.09	62053	keystroke_a	a	n/a
31.1465	0.09	62293	keystroke_n	n	n/a
31.2965	0.075	62593	keystroke_c	c	n/a
31.4915	0.075	62983	keystroke_h	h	n/a
32.5865	0.045	65173	keystroke_Key.space	Key.space	n/a
32.7065	0.075	65413	keystroke_a	a	n/a
32.8565	0.09	65713	keystroke_g	g	n/a
33.0215	0.075	66043	keystroke_e	e	n/a
33.2165	0.075	66433	keystroke_d	d	n/a
33.3065	0.12	66613	keystroke_Key.space	Key.space	n/a
33.8315	0.06	67663	keystroke_d	d	n/a
33.9515	0.09	67903	keystroke_i	i	n/a
34.7465	0.165	69493	keystroke_s	s	n/a
35.1965	0.0595	70393	keystroke_c	c	n/a
36.0215	0.06	72043	keystroke_i	i	n/a
36.2015	0.045	72403	keystroke_p	p	n/a
36.3965	0.075	72793	keystroke_l	l	n/a
36.5615	0.15	73123	keystroke_i	i	n/a
36.6665	0.12	73333	keystroke_n	n	n/a
36.7865	0.0445	73573	keystroke_e	e	n/a
37.311	0.105	74622	keystroke_Key.enter	Key.enter	n/a
37.422	7.3315	74844	prompt	n/a	babies generated master wizard\n
38.286	0.075	76572	keystroke_b	b	n/a
38.406	0.075	76812	keystroke_a	a	n/a
38.511	0.09	77022	keystroke_b	b	n/a
38.661	0.12	77322	keystroke_i	i	n/a
38.796	0.135	77592	keystroke_e	e	n/a
38.901	0.09	77802	keystroke_s	s	n/a
39.006	0.105	78012	keystroke_Key.space	Key.space	n/a
40.416	0.06	80832	keystroke_g	g	n/a
40.536	0.075	81072	keystroke_e	e	n/a
40.776	0.09	81552	keystroke_n	n	n/a
40.881	0.135	81762	keystroke_e	e	n/a
40.956	0.105	81912	keystroke_r	r	n/a
41.076	0.12	82152	keystroke_a	a	n/a
41.211	0.075	82422	keystroke_t	t	n/a
41.376	0.06	82752	keystroke_e	e	n/a
41.571	0.06	83142	keystroke_d	d	n/a
41.691	0.12	83382	keystroke_Key.space	Key.space	n/a
41.961	0.105	83922	keystroke_m	m	n/a
42.126	0.09	84252	keystroke_a	a	n/a
42.426	0.12	84852	keystroke_s	s	n/a
42.636	0.09	85272	keystroke_t	t	n/a
42.816	0.165	85632	keystroke_e	e	n/a
42.951	0.09	85902	keystroke_r	r	n/a
43.056	0.09	86112	keystroke_Key.space	Key.space	n/a
43.1905	0.075	86381	keystroke_w	w	n/a
43.3105	0.09	86621	keystroke_i	i	n/a
44.0005	0.135	88001	keystroke_z	z	n/a
44.2105	0.12	88421	keystroke_a	a	n/a
44.3455	0.075	88691	keystroke_r	r	n/a
44.5255	0.09	89051	keystroke_d	d	n/a
44.6755	0.075	89351	keystroke_Key.enter	Key.enter	n/a
44.7565	13.7515	89513	prompt	n/a	exposure canberra effectively exposed\n
46.0255	0.075	92051	keystroke_e	e	n/a
46.401	0.09	92802	keystroke_x	x	n/a
46.596	0.06	93192	keystroke_p	p	n/a
46.776	0.0745	93552	keystroke_o	o	n/a
46.9115	0.089	93823	keystroke_s	s	n/a
47.0615	0.074	94123	keystroke_u	u	n/a
47.1655	0.12	94331	keystroke_r	r	n/a
47.2565	0.104	94513	keystroke_e	e	n/a
47.3755	0.105	94751	keystroke_Key.space	Key.space	n/a
49.3105	0.03	98621	keystroke_c	c	n/a
49.3255	0.105	98651	keystroke_a	a	n/a
49.4755	0.075	98951	keystroke_n	n	n/a
49.6855	0.09	99371	keystroke_b	b	n/a
49.806	0.165	99612	keystroke_e	e	n/a
50.39	0.091	100780	keystroke_r	r	n/a
51.1405	0.06	102281	keystroke_r	r	n/a
51.2155	0.075	102431	keystroke_a	a	n/a
51.4255	0.12	102851	keystroke_Key.space	Key.space	n/a
53.8425	0.001	107685	keystroke_e	e	n/a
54.0355	0.075	108071	keystroke_f	f	n/a
54.2005	0.12	108401	keystroke_f	f	n/a
54.5755	0.0595	109151	keystroke_e	e	n/a
54.785	0.075	109570	keystroke_c	c	n/a
55.04	0.075	110080	keystroke_t	t	n/a
55.16	0.09	110320	keystroke_i	i	n/a
55.265	0.135	110530	keystroke_v	v	n/a
55.94	0.06	111880	keystroke_e	e	n/a
56.06	0.06	112120	keystroke_l	l	n/a
56.255	0.12	112510	keystroke_y	y	n/a
56.4805	0.0895	112961	keystroke_Key.space	Key.space	n/a
57.1105	0.06	114221	keystroke_e	e	n/a
57.4555	0.075	114911	keystroke_x	x	n/a
57.7405	0.06	115481	keystroke_p	p	n/a
57.9205	0.06	115841	keystroke_o	o	n/a
58.0255	0.15	116051	keystroke_s	s	n/a
58.1305	0.075	116261	keystroke_e	e	n/a
58.3105	0.075	116621	keystroke_d	d	n/a
58.4605	0.045	116921	keystroke_Key.enter	Key.enter	n/a
58.5185	10.2935	117037	prompt	n/a	tomato aggregate nathan chan\n
59.2405	0.09	118481	keystroke_t	t	n/a
59.3755	0.135	118751	keystroke_o	o	n/a
59.6305	0.105	119261	keystroke_m	m	n/a
59.7655	0.12	119531	keystroke_a	a	n/a
59.9005	0.09	119801	keystroke_t	t	n/a
60.0205	0.09	120041	keystroke_o	o	n/a
60.3505	0.105	120701	keystroke_Key.space	Key.space	n/a
60.7255	0.105	121451	keystroke_a	a	n/a
60.8755	0.075	121751	keystroke_g	g	n/a
61.0855	0.075	122171	keystroke_g	g	n/a
61.4005	0.165	122801	keystroke_e	e	n/a
61.5205	0.105	123041	keystroke_r	r	n/a
63.1555	0.075	126311	keystroke_Key.backspace	Key.backspace	n/a
63.2905	0.06	126581	keystroke_Key.backspace	Key.backspace	n/a
63.4105	0.12	126821	keystroke_r	r	n/a
63.5315	0.059	127063	keystroke_e	e	n/a
63.7405	0.075	127481	keystroke_g	g	n/a
63.8755	0.165	127751	keystroke_a	a	n/a
63.9955	0.06	127991	keystroke_r	r	n/a
65.1505	0.06	130301	keystroke_Key.backspace	Key.backspace	n/a
65.6305	0.12	131261	keystroke_t	t	n/a
65.9605	0.045	131921	keystroke_e	e	n/a
66.1555	0.045	132311	keystroke_d	d	n/a
66.71	0.06	133420	keystroke_Key.backspace	Key.backspace	n/a
66.9205	0.1055	133841	keystroke_Key.space	Key.space	n/a
67.041	0.12	134082	keystroke_n	n	n/a
67.176	0.09	134352	keystroke_a	a	n/a
67.296	0.09	134592	keystroke_t	t	n/a
67.416	0.105	134832	keystroke_h	h	n/a
67.611	0.09	135222	keystroke_a	a	n/a
67.716	0.135	135432	keystroke_n	n	n/a
67.986	0.12	135972	keystroke_Key.space	Key.space	n/a
68.136	0.135	136272	keystroke_c	c	n/a
68.256	0.075	136512	keystroke_h	h	n/a
68.346	0.06	136692	keystroke_a	a	n/a
68.466	0.105	136932	keystroke_n	n	n/a
68.751	0.06	137502	keystroke_Key.enter	Key.enter	n/a
68.815	12.2975	137630	prompt	n/a	military bias rehab associates\n
69.546	0.09	139092	keystroke_m	m	n/a
69.741	0.03	139482	keystroke_i	i	n/a
70.191	0.165	140382	keystroke_l	l	n/a
70.311	0.105	140622	keystroke_i	i	n/a
70.446	0.09	140892	keystroke_t	t	n/a
70.641	0.09	141282	keystroke_a	a	n/a
70.761	0.09	141522	keystroke_r	r	n/a
70.9405	0.075	141881	keystroke_y	y	n/a
71.7655	0.1195	143531	keystroke_Key.space	Key.space	n/a
71.9	0.12	143800	keystroke_b	b	n/a
72.11	0.105	144220	keystroke_i	i	n/a
72.23	0.105	144460	keystroke_a	a	n/a
72.725	0.075	145450	keystroke_s	s	n/a
72.83	0.12	145660	keystroke_Key.space	Key.space	n/a
73.265	0.12	146530	keystroke_r	r	n/a
73.535	0.075	147070	keystroke_h	h	n/a
73.91	0.075	147820	keystroke_Key.backspace	Key.backspace	n/a
74.03	0.105	148060	keystroke_e	e	n/a
74.1955	0.075	148391	keystroke_h	h	n/a
74.3305	0.09	148661	keystroke_a	a	n/a
74.4655	0.045	148931	keystroke_n	n	n/a
74.8705	0.09	149741	keystroke_Key.backspace	Key.backspace	n/a
74.9755	0.0895	149951	keystroke_d	d	n/a
75.7405	0.06	151481	keystroke_Key.backspace	Key.backspace	n/a
75.7855	0.075	151571	keystroke_g	g	n/a
77.2405	0.045	154481	keystroke_Key.backspace	Key.backspace	n/a
77.8705	0.075	155741	keystroke_b	b	n/a
79.0105	0.12	158021	keystroke_Key.space	Key.space	n/a
79.2955	0.12	158591	keystroke_a	a	n/a
79.5805	0.06	159161	keystroke_s	s	n/a
79.7305	0.0895	159461	keystroke_s	s	n/a
79.91	0.1055	159820	keystroke_o	o	n/a
80.075	0.105	160150	keystroke_c	c	n/a
80.181	0.089	160362	keystroke_i	i	n/a
80.27	0.135	160540	keystroke_a	a	n/a
80.39	0.12	160780	keystroke_t	t	n/a
80.54	0.09	161080	keystroke_e	e	n/a
80.75	0.075	161500	keystroke_s	s	n/a
81.035	0.075	162070	keystroke_Key.enter	Key.enter	n/a
81.116	9.056	162232	prompt	n/a	costs experimental handled eric\n
82.461	0.075	164922	keystroke_c	c	n/a
82.971	0.075	165942	keystroke_o	o	n/a
83.091	0.105	166182	keystroke_s	s	n/a
83.226	0.105	166452	keystroke_t	t	n/a
83.406	0.119	166812	keystroke_s	s	n/a
83.6	0.15	167200	keystroke_Key.space	Key.space	n/a
83.855	0.09	167710	keystroke_e	e	n/a
84.486	0.0895	168972	keystroke_x	x	n/a
84.6805	0.12	169361	keystroke_p	p	n/a
84.8155	0.12	169631	keystroke_e	e	n/a
84.8905	0.135	169781	keystroke_r	r	n/a
85.0555	0.12	170111	keystroke_i	i	n/a
85.94	0.06	171880	keystroke_m	m	n/a
86.03	0.09	172060	keystroke_e	e	n/a
86.15	0.09	172300	keystroke_n	n	n/a
86.21	0.105	172420	keystroke_t	t	n/a
86.316	0.119	172632	keystroke_a	a	n/a
86.45	0.09	172900	keystroke_l	l	n/a
86.705	0.075	173410	keystroke_Key.space	Key.space	n/a
87.575	0.015	175150	keystroke_h	h	n/a
87.605	0.105	175210	keystroke_a	a	n/a
87.725	0.075	175450	keystroke_n	n	n/a
88.175	0.105	176350	keystroke_d	d	n/a
88.325	0.09	176650	keystroke_l	l	n/a
88.8805	0.075	177761	keystroke_e	e	n/a
89.0905	0.075	178181	keystroke_d	d	n/a
89.2555	0.12	178511	keystroke_Key.space	Key.space	n/a
89.5255	0.165	179051	keystroke_e	e	n/a
89.6455	0.12	179291	keystroke_r	r	n/a
89.7805	0.105	179561	keystroke_i	i	n/a
89.9305	0.09	179861	keystroke_c	c	n/a
90.0955	0.075	180191	keystroke_Key.enter	Key.enter	n/a
90.1775	10.0895	180355	prompt	n/a	congressional tops miller blessed\n
90.8155	0.105	181631	keystroke_c	c	n/a
90.9055	0.1345	181811	keystroke_o	o	n/a
90.9805	0.1345	181961	keystroke_n	n	n/a
92.045	0.06	184090	keystroke_g	g	n/a
92.45	0.1205	184900	keystroke_r	r	n/a
92.5405	0.12	185081	keystroke_e	e	n/a
92.8405	0.06	185681	keystroke_s	s	n/a
94.731	0.15	189462	keystroke_s	s	n/a
94.896	0.074	189792	keystroke_i	i	n/a
95.7505	0.1195	191501	keystroke_o	o	n/a
95.901	0.089	191802	keystroke_n	n	n/a
96.036	0.09	192072	keystroke_a	a	n/a
96.156	0.104	192312	keystroke_l	l	n/a
96.29	0.12	192580	keystroke_Key.space	Key.space	n/a
97.1155	0.09	194231	keystroke_t	t	n/a
97.2205	0.075	194441	keystroke_o	o	n/a
97.4155	0.06	194831	keystroke_p	p	n/a
97.5355	0.105	195071	keystroke_s	s	n/a
97.6105	0.135	195221	keystroke_Key.space	Key.space	n/a
97.8355	0.12	195671	keystroke_m	m	n/a
97.9855	0.075	195971	keystroke_i	i	n/a
98.1805	0.045	196361	keystroke_l	l	n/a
98.3155	0.075	196631	keystroke_l	l	n/a
98.4205	0.135	196841	keystroke_e	e	n/a
98.5105	0.105	197021	keystroke_r	r	n/a
98.5855	0.135	197171	keystroke_Key.space	Key.space	n/a
98.7055	0.09	197411	keystroke_b	b	n/a
98.9155	0.09	197831	keystroke_l	l	n/a
99.0205	0.2395	198041	keystroke_e	e	n/a
99.59	0.075	199180	keystroke_s	s	n/a
99.755	0.12	199510	keystroke_s	s	n/a
99.89	0.075	199780	keystroke_e	e	n/a
100.0855	0.06	200171	keystroke_d	d	n/a
100.2055	0.06	200411	keystroke_Key.enter	Key.enter	n/a
100.2705	14.846	200541	prompt	n/a	reviewing appreciation flights curious\n
101.0905	0.165	202181	keystroke_r	r	n/a
101.2255	0.09	202451	keystroke_e	e	n/a
101.4505	0.105	202901	keystroke_v	v	n/a
101.5705	0.09	203141	keystroke_i	i	n/a
101.675	0.165	203350	keystroke_e	e	n/a
102.29	0.09	204580	keystroke_w	w	n/a
102.545	0.15	205090	keystroke_i	i	n/a
102.635	0.15	205270	keystroke_n	n	n/a
102.77	0.075	205540	keystroke_g	g	n/a
103.145	0.135	206290	keystroke_Key.space	Key.space	n/a
103.535	0.075	207070	keystroke_a	a	n/a
103.685	0.06	207370	keystroke_p	p	n/a
103.835	0.075	207670	keystroke_p	p	n/a
103.925	0.135	207850	keystroke_r	r	n/a
104	0.135	208000	keystroke_e	e	n/a
104.6	0.15	209200	keystroke_c	c	n/a
104.96	0.075	209920	keystroke_i	i	n/a
105.095	0.135	210190	keystroke_a	a	n/a
105.215	0.09	210430	keystroke_t	t	n/a
105.35	0.105	210700	keystroke_i	i	n/a
105.456	0.149	210912	keystroke_o	o	n/a
105.575	0.12	211150	keystroke_n	n	n/a
105.875	0.105	211750	keystroke_Key.space	Key.space	n/a
106.925	0.06	213850	keystroke_f	f	n/a
107.09	0.12	214180	keystroke_l	l	n/a
107.195	0.09	214390	keystroke_i	i	n/a
107.315	0.09	214630	keystroke_g	g	n/a
107.435	0.0905	214870	keystroke_h	h	n/a
107.5705	0.075	215141	keystroke_r	r	n/a
108.2155	0.06	216431	keystroke_Key.backspace	Key.backspace	n/a
109.1005	0.059	218201	keystroke_t	t	n/a
109.2945	0.075	218589	keystroke_s	s	n/a
109.4145	0.105	218829	keystroke_Key.space	Key.space	n/a
110.3755	0.0595	220751	keystroke_c	c	n/a
110.615	0.12	221230	keystroke_y	y	n/a
110.825	0.045	221650	keystroke_r	r	n/a
110.915	0.12	221830	keystroke_u	u	n/a
111.05	0.165	222100	keystroke_i	i	n/a
111.53	0.06	223060	keystroke_Key.backspace	Key.backspace	n/a
111.695	0.03	223390	keystroke_Key.backspace	Key.backspace	n/a
111.845	0.015	223690	keystroke_Key.backspace	Key.backspace	n/a
111.95	0.045	223900	keystroke_Key.backspace	Key.backspace	n/a
112.865	0.06	225730	keystroke_u	u	n/a
113.405	0.045	226810	keystroke_r	r	n/a
113.6595	0.1055	227319	keystroke_i	i	n/a
113.9	0.1645	227800	keystroke_o	o	n/a
114.0495	0.105	228099	keystroke_u	u	n/a
114.3795	0.09	228759	keystroke_s	s	n/a
115.025	0.0895	230050	keystroke_Key.enter	Key.enter	n/a
115.1195	11.322	230239	prompt	n/a	fast letter environmental gradually\n
117.0055	0.075	234011	keystroke_f	f	n/a
117.1705	0.045	234341	keystroke_a	a	n/a
117.3355	0.075	234671	keystroke_s	s	n/a
117.5155	0.075	235031	keystroke_t	t	n/a
117.6055	0.12	235211	keystroke_Key.space	Key.space	n/a
118.1605	0.09	236321	keystroke_l	l	n/a
118.3255	0.09	236651	keystroke_e	e	n/a
118.5355	0.0595	237071	keystroke_t	t	n/a
118.7005	0.045	237401	keystroke_t	t	n/a
118.8955	0.105	237791	keystroke_e	e	n/a
118.9695	0.12	237939	keystroke_r	r	n/a
119.0745	0.12	238149	keystroke_Key.space	Key.space	n/a
119.465	0.105	238930	keystroke_e	e	n/a
120.56	0.135	241120	keystroke_n	n	n/a
120.77	0.105	241540	keystroke_v	v	n/a
120.935	0.075	241870	keystroke_i	i	n/a
121.13	0.075	242260	keystroke_r	r	n/a
121.295	0.105	242590	keystroke_o	o	n/a
121.775	0.09	243550	keystroke_n	n	n/a
122.2105	0.105	244421	keystroke_m	m	n/a
122.3905	0.09	244781	keystroke_e	e	n/a
122.4955	0.09	244991	keystroke_n	n	n/a
122.5705	0.105	245141	keystroke_t	t	n/a
122.72	0.0755	245440	keystroke_a	a	n/a
122.855	0.15	245710	keystroke_l	l	n/a
122.9905	0.12	245981	keystroke_Key.space	Key.space	n/a
123.395	0.075	246790	keystroke_g	g	n/a
123.6655	0.105	247331	keystroke_r	r	n/a
123.7855	0.1045	247571	keystroke_a	a	n/a
124.9105	0.1345	249821	keystroke_d	d	n/a
125.285	0.0755	250570	keystroke_u	u	n/a
125.42	0.09	250840	keystroke_a	a	n/a
125.6005	0.0745	251201	keystroke_l	l	n/a
125.765	0.06	251530	keystroke_l	l	n/a
125.945	0.075	251890	keystroke_y	y	n/a
126.35	0.09	252700	keystroke_Key.enter	Key.enter	n/a
126.446	9.2205	252892	prompt	n/a	mines bryan girl publisher\n
127.2505	0.09	254501	keystroke_m	m	n/a
127.4155	0.135	254831	keystroke_i	i	n/a
127.5655	0.09	255131	keystroke_n	n	n/a
127.7005	0.165	255401	keystroke_e	e	n/a
127.8355	0.135	255671	keystroke_s	s	n/a
128.0005	0.09	256001	keystroke_Key.space	Key.space	n/a
128.2105	0.075	256421	keystroke_b	b	n/a
128.7055	0.0895	257411	keystroke_r	r	n/a
129.695	0.075	259390	keystroke_y	y	n/a
129.89	0.075	259780	keystroke_a	a	n/a
130.04	0.18	260080	keystroke_n	n	n/a
130.205	0.105	260410	keystroke_Key.space	Key.space	n/a
131.45	0.135	262900	keystroke_g	g	n/a
131.75	0.135	263500	keystroke_i	i	n/a
131.9	0.105	263800	keystroke_r	r	n/a
132.05	0.0895	264100	keystroke_l	l	n/a
132.2445	0.0905	264489	keystroke_Key.space	Key.space	n/a
132.4995	0.015	264999	keystroke_b	b	n/a
132.7995	0.075	265599	keystroke_Key.backspace	Key.backspace	n/a
133.5795	0.09	267159	keystroke_p	p	n/a
133.8195	0.075	267639	keystroke_u	u	n/a
134.1345	0.046	268269	keystroke_b	b	n/a
134.3445	0.135	268689	keystroke_l	l	n/a
134.4195	0.12	268839	keystroke_i	i	n/a
134.5695	0.12	269139	keystroke_s	s	n/a
134.7045	0.105	269409	keystroke_h	h	n/a
134.8545	0.165	269709	keystroke_e	e	n/a
134.9595	0.105	269919	keystroke_r	r	n/a
135.5895	0.075	271179	keystroke_Key.enter	Key.enter	n/a
135.67	8.8465	271340	prompt	n/a	recruitment plenty room improvement\n
136.4905	0.134	272981	keystroke_r	r	n/a
136.6695	0.106	273339	keystroke_e	e	n/a
136.9545	0.076	273909	keystroke_c	c	n/a
137.2695	0.09	274539	keystroke_r	r	n/a
137.4045	0.105	274809	keystroke_u	u	n/a
137.5395	0.12	275079	keystroke_i	i	n/a
137.7945	0.076	275589	keystroke_t	t	n/a
137.9595	0.075	275919	keystroke_m	m	n/a
138.0795	0.091	276159	keystroke_e	e	n/a
138.1845	0.075	276369	keystroke_n	n	n/a
138.3195	0.09	276639	keystroke_t	t	n/a
138.4995	0.12	276999	keystroke_Key.space	Key.space	n/a
138.8755	0.075	277751	keystroke_p	p	n/a
139.0855	0.09	278171	keystroke_l	l	n/a
139.1895	0.105	278379	keystroke_e	e	n/a
139.2795	0.136	278559	keystroke_n	n	n/a
139.4295	0.076	278859	keystroke_t	t	n/a
139.5655	0.074	279131	keystroke_y	y	n/a
140.2245	0.12	280449	keystroke_Key.space	Key.space	n/a
140.6605	0.059	281321	keystroke_r	r	n/a
140.7795	0.09	281559	keystroke_o	o	n/a
141.0045	0.106	282009	keystroke_o	o	n/a
141.3355	0.09	282671	keystroke_m	m	n/a
141.4695	0.12	282939	keystroke_Key.space	Key.space	n/a
141.7855	0.09	283571	keystroke_i	i	n/a
142.2795	0.121	284559	keystroke_m	m	n/a
142.4445	0.091	284889	keystroke_p	p	n/a
143.3005	0.089	286601	keystroke_r	r	n/a
143.4205	0.09	286841	keystroke_o	o	n/a
143.5255	0.075	287051	keystroke_v	v	n/a
143.7055	0.075	287411	keystroke_e	e	n/a
143.8255	0.075	287651	keystroke_m	m	n/a
143.9305	0.12	287861	keystroke_e	e	n/a
144.0655	0.06	288131	keystroke_n	n	n/a
144.1545	0.076	288309	keystroke_t	t	n/a
144.4695	0.045	288939	keystroke_Key.enter	Key.enter	n/a
144.5195	17.7275	289039	prompt	n/a	italiano shanghai celebrity downtown\n
145.7605	0.104	291521	keystroke_i	i	n/a
145.9105	0.09	291821	keystroke_t	t	n/a
146.0455	0.075	292091	keystroke_a	a	n/a
146.2705	0.09	292541	keystroke_l	l	n/a
146.3445	0.106	292689	keystroke_i	i	n/a
146.4955	0.089	292991	keystroke_a	a	n/a
146.6445	0.076	293289	keystroke_n	n	n/a
146.8255	0.06	293651	keystroke_o	o	n/a
147.3045	0.105	294609	keystroke_Key.space	Key.space	n/a
147.7105	0.075	295421	keystroke_s	s	n/a
147.8445	0.075	295689	keystroke_h	h	n/a
148.0255	0.06	296051	keystroke_a	a	n/a
148.1605	0.06	296321	keystroke_n	n	n/a
148.5045	0.06	297009	keystroke_g	g	n/a
149.0455	0.075	298091	keystroke_h	h	n/a
149.1355	0.06	298271	keystroke_a	a	n/a
149.2405	0.075	298481	keystroke_i	i	n/a
150.7695	0.135	301539	keystroke_Key.space	Key.space	n/a
151.4305	0.09	302861	keystroke_c	c	n/a
151.6105	0.06	303221	keystroke_e	e	n/a
151.7445	0.075	303489	keystroke_l	l	n/a
151.8945	0.09	303789	keystroke_e	e	n/a
152.1355	0.09	304271	keystroke_b	b	n/a
152.3455	0.09	304691	keystroke_r	r	n/a
154.025	0.045	308050	keystroke_r	r	n/a
154.175	0.105	308350	keystroke_i	i	n/a
154.295	0.075	308590	keystroke_t	t	n/a
154.445	0.075	308890	keystroke_y	y	n/a
154.67	0.06	309340	keystroke_Key.space	Key.space	n/a
155.435	0.06	310870	keystroke_Key.backspace	Key.backspace	n/a
155.57	0.06	311140	keystroke_Key.backspace	Key.backspace	n/a
155.735	0.03	311470	keystroke_Key.backspace	Key.backspace	n/a
155.87	0.06	311740	keystroke_Key.backspace	Key.backspace	n/a
156.5	0.03	313000	keystroke_=	=	n/a
156.995	0.06	313990	keystroke_Key.backspace	Key.backspace	n/a
157.16	0.045	314320	keystroke_Key.backspace	Key.backspace	n/a
157.97	0.045	315940	keystroke_Key.backspace	Key.backspace	n/a
159.665	0.105	319330	keystroke_r	r	n/a
159.83	0.105	319660	keystroke_i	i	n/a
159.95	0.105	319900	keystroke_t	t	n/a
160.1	0.045	320200	keystroke_y	y	n/a
160.295	0.105	320590	keystroke_Key.space	Key.space	n/a
161.18	0.12	322360	keystroke_d	d	n/a
161.315	0.12	322630	keystroke_o	o	n/a
161.42	0.105	322840	keystroke_w	w	n/a
161.555	0.075	323110	keystroke_n	n	n/a
161.66	0.09	323320	keystroke_t	t	n/a
161.78	0.09	323560	keystroke_o	o	n/a
161.855	0.09	323710	keystroke_w	w	n/a
161.9905	0.06	323981	keystroke_n	n	n/a
162.1845	0.06	324369	keystroke_Key.enter	Key.enter	n/a
162.2515	8.1255	324503	prompt	n/a	posters dinner wonder engage\n
162.9805	0.0895	325961	keystroke_p	p	n/a
163.145	0.135	326290	keystroke_s	s	n/a
163.775	0.075	327550	keystroke_Key.backspace	Key.backspace	n/a
164.015	0.075	328030	keystroke_o	o	n/a
164.12	0.12	328240	keystroke_s	s	n/a
164.27	0.075	328540	keystroke_t	t	n/a
164.495	0.15	328990	keystroke_e	e	n/a
164.615	0.075	329230	keystroke_r	r	n/a
165.545	0.12	331090	keystroke_s	s	n/a
165.68	0.135	331360	keystroke_Key.space	Key.space	n/a
165.95	0.06	331900	keystroke_d	d	n/a
166.025	0.105	332050	keystroke_i	i	n/a
166.22	0.045	332440	keystroke_n	n	n/a
166.355	0.06	332710	keystroke_n	n	n/a
166.43	0.15	332860	keystroke_e	e	n/a
166.52	0.12	333040	keystroke_r	r	n/a
166.685	0.12	333370	keystroke_Key.space	Key.space	n/a
167.27	0.09	334540	keystroke_w	w	n/a
167.39	0.105	334780	keystroke_o	o	n/a
167.48	0.09	334960	keystroke_n	n	n/a
167.585	0.075	335170	keystroke_d	d	n/a
167.78	0.12	335560	keystroke_e	e	n/a
167.87	0.09	335740	keystroke_r	r	n/a
168.02	0.105	336040	keystroke_Key.space	Key.space	n/a
169.205	0.135	338410	keystroke_e	e	n/a
169.37	0.09	338740	keystroke_n	n	n/a
169.505	0.09	339010	keystroke_g	g	n/a
169.685	0.06	339370	keystroke_a	a	n/a
169.775	0.09	339550	keystroke_g	g	n/a
169.97	0.075	339940	keystroke_e	e	n/a
170.315	0.06	340630	keystroke_Key.enter	Key.enter	n/a
170.381	12.311	340762	prompt	n/a	difficulty combining authors extension\n
171.23	0.075	342460	keystroke_d	d	n/a
171.35	0.105	342700	keystroke_i	i	n/a
171.575	0.105	343150	keystroke_f	f	n/a
171.785	0.06	343570	keystroke_f	f	n/a
171.905	0.12	343810	keystroke_i	i	n/a
172.55	0.12	345100	keystroke_c	c	n/a
172.715	0.06	345430	keystroke_u	u	n/a
172.895	0.075	345790	keystroke_l	l	n/a
173.015	0.075	346030	keystroke_t	t	n/a
173.165	0.075	346330	keystroke_y	y	n/a
173.66	0.135	347320	keystroke_Key.space	Key.space	n/a
174.005	0.075	348010	keystroke_c	c	n/a
174.095	0.165	348190	keystroke_o	o	n/a
174.275	0.09	348550	keystroke_m	m	n/a
174.515	0.09	349030	keystroke_n	n	n/a
174.62	0.12	349240	keystroke_i	i	n/a
175.175	0.075	350350	keystroke_Key.backspace	Key.backspace	n/a
175.34	0.045	350680	keystroke_Key.backspace	Key.backspace	n/a
175.58	0.075	351160	keystroke_b	b	n/a
175.79	0.105	351580	keystroke_i	i	n/a
175.955	0.075	351910	keystroke_n	n	n/a
176.075	0.135	352150	keystroke_i	i	n/a
176.195	0.075	352390	keystroke_n	n	n/a
176.255	0.075	352510	keystroke_g	g	n/a
176.435	0.09	352870	keystroke_Key.space	Key.space	n/a
177.245	0.105	354490	keystroke_a	a	n/a
177.38	0.105	354760	keystroke_u	u	n/a
177.53	0.06	355060	keystroke_t	t	n/a
177.635	0.12	355270	keystroke_h	h	n/a
177.77	0.105	355540	keystroke_o	o	n/a
177.935	0.09	355870	keystroke_r	r	n/a
178.13	0.09	356260	keystroke_s	s	n/a
178.265	0.075	356530	keystroke_Key.space	Key.space	n/a
178.445	0.045	356890	keystroke_e	e	n/a
179.0895	0.105	358179	keystroke_z	z	n/a
179.735	0.075	359470	keystroke_Key.backspace	Key.backspace	n/a
180.98	0.045	361960	keystroke_x	x	n/a
181.175	0.06	362350	keystroke_t	t	n/a
181.34	0.075	362680	keystroke_e	e	n/a
181.445	0.105	362890	keystroke_n	n	n/a
182.06	0.075	364120	keystroke_s	s	n/a
182.18	0.12	364360	keystroke_i	i	n/a
182.285	0.105	364570	keystroke_o	o	n/a
182.375	0.105	364750	keystroke_n	n	n/a
182.615	0.075	365230	keystroke_Key.enter	Key.enter	n/a
182.695	7.8115	365390	prompt	n/a	regarding authentic somehow altered\n
183.5295	0.09	367059	keystroke_r	r	n/a
183.6795	0.045	367359	keystroke_e	e	n/a
183.8145	0.09	367629	keystroke_g	g	n/a
183.9645	0.18	367929	keystroke_a	a	n/a
184.0995	0.075	368199	keystroke_r	r	n/a
184.2945	0.105	368589	keystroke_d	d	n/a
184.3845	0.15	368769	keystroke_i	i	n/a
184.4895	0.105	368979	keystroke_n	n	n/a
184.5495	0.12	369099	keystroke_g	g	n/a
184.6845	0.12	369369	keystroke_Key.space	Key.space	n/a
185.2395	0.09	370479	keystroke_a	a	n/a
185.3745	0.09	370749	keystroke_u	u	n/a
185.4795	0.12	370959	keystroke_t	t	n/a
185.6145	0.09	371229	keystroke_h	h	n/a
185.7345	0.09	371469	keystroke_e	e	n/a
185.8695	0.09	371739	keystroke_n	n	n/a
186.0045	0.075	372009	keystroke_t	t	n/a
186.1095	0.09	372219	keystroke_i	i	n/a
186.2595	0.09	372519	keystroke_c	c	n/a
186.3795	0.135	372759	keystroke_Key.space	Key.space	n/a
187.715	0.09	375430	keystroke_s	s	n/a
187.79	0.18	375580	keystroke_o	o	n/a
187.94	0.12	375880	keystroke_m	m	n/a
188.09	0.105	376180	keystroke_e	e	n/a
188.24	0.09	376480	keystroke_h	h	n/a
188.345	0.12	376690	keystroke_o	o	n/a
188.495	0.09	376990	keystroke_w	w	n/a
188.645	0.105	377290	keystroke_Key.space	Key.space	n/a
189.155	0.135	378310	keystroke_a	a	n/a
189.335	0.075	378670	keystroke_l	l	n/a
189.455	0.075	378910	keystroke_t	t	n/a
189.635	0.12	379270	keystroke_e	e	n/a
189.725	0.135	379450	keystroke_r	r	n/a
189.875	0.105	379750	keystroke_e	e	n/a
190.13	0.075	380260	keystroke_d	d	n/a
190.46	0.045	380920	keystroke_Key.enter	Key.enter	n/a
190.51	13.4215	381020	prompt	n/a	cedar neighborhood permalink partnerships\n
191.57	0.105	383140	keystroke_c	c	n/a
191.735	0.075	383470	keystroke_e	e	n/a
191.93	0.12	383860	keystroke_d	d	n/a
192.095	0.12	384190	keystroke_a	a	n/a
192.2	0.09	384400	keystroke_r	r	n/a
192.38	0.12	384760	keystroke_Key.space	Key.space	n/a
192.665	0.06	385330	keystroke_b	b	n/a
192.86	0.105	385720	keystroke_e	e	n/a
193.025	0.09	386050	keystroke_i	i	n/a
193.16	0.075	386320	keystroke_g	g	n/a
193.25	0.09	386500	keystroke_h	h	n/a
193.835	0.09	387670	keystroke_b	b	n/a
194.03	0.09	388060	keystroke_o	o	n/a
194.42	0.045	388840	keystroke_Key.backspace	Key.backspace	n/a
194.5545	0.045	389109	keystroke_Key.backspace	Key.backspace	n/a
194.705	0.06	389410	keystroke_Key.backspace	Key.backspace	n/a
194.84	0.06	389680	keystroke_Key.backspace	Key.backspace	n/a
194.99	0.06	389980	keystroke_Key.backspace	Key.backspace	n/a
195.14	0.045	390280	keystroke_Key.backspace	Key.backspace	n/a
195.38	0.09	390760	keystroke_Key.backspace	Key.backspace	n/a
196.34	0.105	392680	keystroke_n	n	n/a
196.595	0.12	393190	keystroke_e	e	n/a
196.805	0.09	393610	keystroke_i	i	n/a
196.97	0.09	393940	keystroke_g	g	n/a
197.12	0.045	394240	keystroke_h	h	n/a
197.315	0.06	394630	keystroke_b	b	n/a
197.51	0.135	395020	keystroke_o	o	n/a
197.6595	0.12	395319	keystroke_r	r	n/a
197.8255	0.089	395651	keystroke_h	h	n/a
197.9895	0.075	395979	keystroke_o	o	n/a
198.1395	0.061	396279	keystroke_o	o	n/a
198.2155	0.089	396431	keystroke_d	d	n/a
198.9495	0.135	397899	keystroke_Key.space	Key.space	n/a
199.2945	0.105	398589	keystroke_p	p	n/a
199.6095	0.135	399219	keystroke_e	e	n/a
199.7295	0.09	399459	keystroke_r	r	n/a
199.9395	0.09	399879	keystroke_m	m	n/a
200.1045	0.075	400209	keystroke_a	a	n/a
200.3895	0.06	400779	keystroke_l	l	n/a
200.4645	0.15	400929	keystroke_i	i	n/a
200.5995	0.075	401199	keystroke_n	n	n/a
200.8095	0.06	401619	keystroke_k	k	n/a
200.9895	0.075	401979	keystroke_Key.space	Key.space	n/a
201.2445	0.075	402489	keystroke_p	p	n/a
201.3945	0.105	402789	keystroke_a	a	n/a
201.4695	0.09	402939	keystroke_r	r	n/a
201.7095	0.075	403419	keystroke_t	t	n/a
202.1445	0.09	404289	keystroke_n	n	n/a
202.8495	0.15	405699	keystroke_e	e	n/a
202.9245	0.12	405849	keystroke_r	r	n/a
203.2095	0.105	406419	keystroke_s	s	n/a
203.2845	0.12	406569	keystroke_h	h	n/a
203.4195	0.105	406839	keystroke_i	i	n/a
203.5995	0.09	407199	keystroke_p	p	n/a
203.7195	0.06	407439	keystroke_s	s	n/a
203.8545	0.075	407709	keystroke_Key.enter	Key.enter	n/a
203.9345	8.937	407869	prompt	n/a	make battlefield devil instruction\n
204.5745	0.105	409149	keystroke_l	l	n/a
204.7245	0.03	409449	keystroke_m	m	n/a
205.1145	0.03	410229	keystroke_Key.backspace	Key.backspace	n/a
205.2195	0.075	410439	keystroke_Key.backspace	Key.backspace	n/a
205.5045	0.09	411009	keystroke_m	m	n/a
205.6545	0.135	411309	keystroke_a	a	n/a
205.7445	0.06	411489	keystroke_k	k	n/a
205.8495	0.105	411699	keystroke_e	e	n/a
206.0145	0.09	412029	keystroke_Key.space	Key.space	n/a
206.4495	0.075	412899	keystroke_b	b	n/a
206.5545	0.105	413109	keystroke_a	a	n/a
206.7045	0.075	413409	keystroke_t	t	n/a
206.8845	0.06	413769	keystroke_t	t	n/a
206.9895	0.075	413979	keystroke_l	l	n/a
207.1245	0.075	414249	keystroke_e	e	n/a
207.3795	0.045	414759	keystroke_f	f	n/a
208.8495	0.09	417699	keystroke_i	i	n/a
208.9845	0.09	417969	keystroke_e	e	n/a
209.1645	0.06	418329	keystroke_l	l	n/a
209.3145	0.075	418629	keystroke_d	d	n/a
209.4495	0.075	418899	keystroke_Key.space	Key.space	n/a
210.23	0.09	420460	keystroke_d	d	n/a
210.41	0.09	420820	keystroke_e	e	n/a
210.62	0.06	421240	keystroke_v	v	n/a
210.71	0.075	421420	keystroke_i	i	n/a
210.92	0.105	421840	keystroke_l	l	n/a
211.085	0.105	422170	keystroke_Key.space	Key.space	n/a
211.34	0.15	422680	keystroke_i	i	n/a
211.46	0.105	422920	keystroke_n	n	n/a
211.64	0.105	423280	keystroke_s	s	n/a
211.805	0.075	423610	keystroke_t	t	n/a
212	0.075	424000	keystroke_r	r	n/a
212.15	0.09	424300	keystroke_u	u	n/a
212.24	0.045	424480	keystroke_c	c	n/a
212.405	0.075	424810	keystroke_t	t	n/a
212.465	0.09	424930	keystroke_i	i	n/a
212.54	0.105	425080	keystroke_o	o	n/a
212.615	0.105	425230	keystroke_n	n	n/a
212.825	0.045	425650	keystroke_Key.enter	Key.enter	n/a
212.8765	10.075	425753	prompt	n/a	lindsay drama turns worlds\n
213.65	0.06	427300	keystroke_l	l	n/a
213.785	0.15	427570	keystroke_i	i	n/a
213.875	0.135	427750	keystroke_n	n	n/a
214.745	0.075	429490	keystroke_d	d	n/a
214.88	0.15	429760	keystroke_a	a	n/a
215.435	0.045	430870	keystroke_Key.backspace	Key.backspace	n/a
215.555	0.075	431110	keystroke_Key.backspace	Key.backspace	n/a
215.645	0.09	431290	keystroke_d	d	n/a
217.61	0.135	435220	keystroke_s	s	n/a
217.715	0.105	435430	keystroke_a	a	n/a
218.03	0.0755	436060	keystroke_y	y	n/a
218.2545	0.12	436509	keystroke_Key.space	Key.space	n/a
218.7795	0.105	437559	keystroke_d	d	n/a
218.9295	0.135	437859	keystroke_r	r	n/a
219.0495	0.105	438099	keystroke_a	a	n/a
219.2295	0.09	438459	keystroke_m	m	n/a
219.3645	0.09	438729	keystroke_a	a	n/a
219.7545	0.135	439509	keystroke_Key.space	Key.space	n/a
220.0845	0.105	440169	keystroke_t	t	n/a
220.2345	0.09	440469	keystroke_u	u	n/a
220.3695	0.09	440739	keystroke_r	r	n/a
221.4345	0.135	442869	keystroke_n	n	n/a
221.5395	0.105	443079	keystroke_s	s	n/a
221.6745	0.09	443349	keystroke_Key.space	Key.space	n/a
221.8095	0.105	443619	keystroke_w	w	n/a
221.8995	0.105	443799	keystroke_o	o	n/a
222.1095	0.09	444219	keystroke_r	r	n/a
222.2445	0.105	444489	keystroke_l	l	n/a
222.4245	0.15	444849	keystroke_d	d	n/a
222.6195	0.09	445239	keystroke_s	s	n/a
222.8745	0.075	445749	keystroke_Key.enter	Key.enter	n/a
222.9545	8.3375	445909	prompt	n/a	check languages portions firewall\n
223.7895	0.09	447579	keystroke_c	c	n/a
223.8645	0.09	447729	keystroke_h	h	n/a
223.9695	0.09	447939	keystroke_e	e	n/a
224.1345	0.105	448269	keystroke_c	c	n/a
224.2245	0.165	448449	keystroke_k	k	n/a
224.3445	0.105	448689	keystroke_Key.space	Key.space	n/a
224.5995	0.06	449199	keystroke_l	l	n/a
225.0795	0.165	450159	keystroke_a	a	n/a
225.3195	0.135	450639	keystroke_n	n	n/a
225.5145	0.12	451029	keystroke_g	g	n/a
225.6945	0.105	451389	keystroke_u	u	n/a
225.8445	0.135	451689	keystroke_a	a	n/a
226.0395	0.075	452079	keystroke_g	g	n/a
226.2195	0.18	452439	keystroke_e	e	n/a
226.3845	0.075	452769	keystroke_s	s	n/a
226.5495	0.09	453099	keystroke_Key.space	Key.space	n/a
226.7595	0.075	453519	keystroke_p	p	n/a
226.9245	0.06	453849	keystroke_r	r	n/a
228.0795	0.15	456159	keystroke_Key.backspace	Key.backspace	n/a
228.2745	0.105	456549	keystroke_o	o	n/a
228.4545	0.075	456909	keystroke_r	r	n/a
228.9795	0.045	457959	keystroke_t	t	n/a
229.0545	0.15	458109	keystroke_i	i	n/a
229.1895	0.165	458379	keystroke_o	o	n/a
229.3095	0.12	458619	keystroke_n	n	n/a
229.4595	0.09	458919	keystroke_s	s	n/a
229.6545	0.105	459309	keystroke_Key.space	Key.space	n/a
229.9245	0.09	459849	keystroke_f	f	n/a
230.0445	0.075	460089	keystroke_i	i	n/a
230.1345	0.165	460269	keystroke_r	r	n/a
230.2545	0.09	460509	keystroke_e	e	n/a
230.4795	0.105	460959	keystroke_w	w	n/a
230.6295	0.09	461259	keystroke_a	a	n/a
230.8545	0.09	461709	keystroke_l	l	n/a
231.0345	0.06	462069	keystroke_l	l	n/a
231.2145	0.075	462429	keystroke_Key.enter	Key.enter	n/a
231.2945	10.5415	462589	prompt	n/a	dozens daughter sold discrimination\n
232.655	0.105	465310	keystroke_d	d	n/a
232.79	0.09	465580	keystroke_o	o	n/a
232.97	0.09	465940	keystroke_z	z	n/a
233.165	0.105	466330	keystroke_e	e	n/a
233.285	0.105	466570	keystroke_n	n	n/a
233.75	0.09	467500	keystroke_s	s	n/a
233.885	0.12	467770	keystroke_Key.space	Key.space	n/a
234.485	0.0895	468970	keystroke_d	d	n/a
234.6345	0.12	469269	keystroke_a	a	n/a
234.7995	0.105	469599	keystroke_u	u	n/a
234.935	0.0295	469870	keystroke_g	g	n/a
235.0845	0.075	470169	keystroke_h	h	n/a
235.1295	0.06	470259	keystroke_t	t	n/a
235.3545	0.135	470709	keystroke_e	e	n/a
235.4745	0.09	470949	keystroke_r	r	n/a
235.6845	0.15	471369	keystroke_Key.space	Key.space	n/a
235.9845	0.06	471969	keystroke_d	d	n/a
236.6295	0.075	473259	keystroke_Key.backspace	Key.backspace	n/a
236.7495	0.105	473499	keystroke_s	s	n/a
236.8995	0.045	473799	keystroke_o	o	n/a
237.0795	0.075	474159	keystroke_l	l	n/a
237.2295	0.09	474459	keystroke_d	d	n/a
237.3495	0.12	474699	keystroke_Key.space	Key.space	n/a
237.6495	0.09	475299	keystroke_d	d	n/a
237.7545	0.075	475509	keystroke_i	i	n/a
238.8495	0.105	477699	keystroke_s	s	n/a
239.0745	0.075	478149	keystroke_c	c	n/a
239.2845	0.075	478569	keystroke_r	r	n/a
239.3745	0.06	478749	keystroke_i	i	n/a
240.1395	0.075	480279	keystroke_m	m	n/a
240.3045	0.105	480609	keystroke_i	i	n/a
240.4695	0.12	480939	keystroke_n	n	n/a
241.145	0.134	482290	keystroke_a	a	n/a
241.265	0.089	482530	keystroke_t	t	n/a
241.37	0.104	482740	keystroke_i	i	n/a
241.445	0.15	482890	keystroke_o	o	n/a
241.534	0.12	483068	keystroke_n	n	n/a
241.774	0.06	483548	keystroke_Key.enter	Key.enter	n/a
241.8395	12.057	483679	prompt	n/a	relatively belgium attend planets\n
242.57	0.135	485140	keystroke_r	r	n/a
242.749	0.091	485498	keystroke_e	e	n/a
242.945	0.1495	485890	keystroke_l	l	n/a
243.409	0.045	486818	keystroke_a	a	n/a
243.664	0.09	487328	keystroke_t	t	n/a
243.829	0.09	487658	keystroke_i	i	n/a
243.964	0.03	487928	keystroke_v	v	n/a
244.054	0.09	488108	keystroke_e	e	n/a
244.174	0.045	488348	keystroke_l	l	n/a
244.369	0.06	488738	keystroke_y	y	n/a
244.6845	0.045	489369	keystroke_Key.space	Key.space	n/a
245.9295	0.09	491859	keystroke_b	b	n/a
246.0495	0.105	492099	keystroke_e	e	n/a
246.2445	0.06	492489	keystroke_l	l	n/a
247.0245	0.09	494049	keystroke_g	g	n/a
247.4445	0.12	494889	keystroke_i	i	n/a
247.5795	0.09	495159	keystroke_u	u	n/a
248.9	0.12	497800	keystroke_m	m	n/a
249.005	0.105	498010	keystroke_Key.space	Key.space	n/a
249.14	0.1195	498280	keystroke_a	a	n/a
249.2895	0.075	498579	keystroke_t	t	n/a
249.4695	0.06	498939	keystroke_t	t	n/a
249.6045	0.075	499209	keystroke_e	e	n/a
249.7395	0.09	499479	keystroke_n	n	n/a
249.9495	0.075	499899	keystroke_d	d	n/a
251.63	0.105	503260	keystroke_Key.space	Key.space	n/a
252.05	0.075	504100	keystroke_p	p	n/a
252.26	0.105	504520	keystroke_l	l	n/a
252.365	0.105	504730	keystroke_a	a	n/a
252.485	0.09	504970	keystroke_n	n	n/a
252.59	0.0745	505180	keystroke_t	t	n/a
253.205	0.06	506410	keystroke_Key.backspace	Key.backspace	n/a
253.31	0.15	506620	keystroke_e	e	n/a
253.415	0.105	506830	keystroke_t	t	n/a
253.61	0.075	507220	keystroke_s	s	n/a
253.835	0.06	507670	keystroke_Key.enter	Key.enter	n/a
253.8995	14.1865	507799	prompt	n/a	meet shouldn't've supporting editorial\n
254.6745	0.12	509349	keystroke_m	m	n/a
254.8245	0.105	509649	keystroke_e	e	n/a
255.9195	0.075	511839	keystroke_e	e	n/a
256.0845	0.09	512169	keystroke_t	t	n/a
256.2795	0.075	512559	keystroke_Key.space	Key.space	n/a
256.4745	0.06	512949	keystroke_s	s	n/a
256.5355	0.119	513071	keystroke_h	h	n/a
256.6695	0.12	513339	keystroke_o	o	n/a
256.7745	0.105	513549	keystroke_u	u	n/a
256.9245	0.105	513849	keystroke_l	l	n/a
257.0445	0.075	514089	keystroke_d	d	n/a
257.1345	0.135	514269	keystroke_n	n	n/a
259.432	0.013	518864	keystroke_'	'	n/a
259.46	0.06	518920	keystroke_t	t	n/a
261.334	0.12	522668	keystroke_'	'	n/a
261.439	0.135	522878	keystroke_v	v	n/a
261.589	0.105	523178	keystroke_e	e	n/a
262.024	0.12	524048	keystroke_Key.space	Key.space	n/a
262.339	0.075	524678	keystroke_s	s	n/a
262.474	0.075	524948	keystroke_u	u	n/a
262.654	0.075	525308	keystroke_p	p	n/a
262.789	0.09	525578	keystroke_p	p	n/a
262.969	0.12	525938	keystroke_o	o	n/a
263.059	0.045	526118	keystroke_r	r	n/a
263.2095	0.045	526419	keystroke_t	t	n/a
263.2395	0.165	526479	keystroke_i	i	n/a
263.3445	0.135	526689	keystroke_n	n	n/a
263.5995	0.1205	527199	keystroke_Key.space	Key.space	n/a
264.0345	0.075	528069	keystroke_Key.backspace	Key.backspace	n/a
264.8295	0.075	529659	keystroke_g	g	n/a
264.9195	0.105	529839	keystroke_Key.space	Key.space	n/a
265.13	0.0745	530260	keystroke_e	e	n/a
265.9695	0.105	531939	keystroke_d	d	n/a
266.1795	0.075	532359	keystroke_i	i	n/a
267.1395	0.09	534279	keystroke_t	t	n/a
267.3045	0.105	534609	keystroke_o	o	n/a
267.4845	0.06	534969	keystroke_r	r	n/a
267.5595	0.0745	535119	keystroke_i	i	n/a
267.679	0.09	535358	keystroke_a	a	n/a
267.814	0.06	535628	keystroke_l	l	n/a
268.024	0.06	536048	keystroke_Key.enter	Key.enter	n/a
268.0895	7.767	536179	prompt	n/a	waiting norway evening ultimate\n
268.924	0.075	537848	keystroke_w	w	n/a
269.074	0.105	538148	keystroke_a	a	n/a
269.164	0.075	538328	keystroke_i	i	n/a
269.254	0.09	538508	keystroke_t	t	n/a
269.345	0.164	538690	keystroke_i	i	n/a
269.449	0.135	538898	keystroke_n	n	n/a
269.554	0.09	539108	keystroke_g	g	n/a
269.674	0.12	539348	keystroke_Key.space	Key.space	n/a
270.049	0.105	540098	keystroke_n	n	n/a
270.169	0.105	540338	keystroke_o	o	n/a
270.289	0.075	540578	keystroke_r	r	n/a
270.604	0.105	541208	keystroke_w	w	n/a
270.724	0.09	541448	keystroke_a	a	n/a
270.874	0.075	541748	keystroke_y	y	n/a
271.459	0.135	542918	keystroke_Key.space	Key.space	n/a
271.744	0.075	543488	keystroke_e	e	n/a
271.909	0.075	543818	keystroke_v	v	n/a
272.059	0.09	544118	keystroke_e	e	n/a
272.179	0.09	544358	keystroke_n	n	n/a
272.314	0.135	544628	keystroke_i	i	n/a
272.389	0.135	544778	keystroke_n	n	n/a
272.509	0.075	545018	keystroke_g	g	n/a
272.689	0.1205	545378	keystroke_Key.space	Key.space	n/a
273.2895	0.09	546579	keystroke_u	u	n/a
273.7545	0.075	547509	keystroke_l	l	n/a
273.9195	0.075	547839	keystroke_t	t	n/a
274.0395	0.15	548079	keystroke_i	i	n/a
274.1445	0.15	548289	keystroke_m	m	n/a
274.3095	0.105	548619	keystroke_a	a	n/a
274.6095	0.045	549219	keystroke_e	e	n/a
274.6395	0.045	549279	keystroke_t	t	n/a
275.0745	0.06	550149	keystroke_Key.backspace	Key.backspace	n/a
275.2245	0.045	550449	keystroke_Key.backspace	Key.backspace	n/a
275.2845	0.075	550569	keystroke_t	t	n/a
275.4045	0.06	550809	keystroke_e	e	n/a
275.7645	0.09	551529	keystroke_Key.enter	Key.enter	n/a
275.8595	11.2015	551719	prompt	n/a	platform hence receives norfolk\n
276.7245	0.03	553449	keystroke_l	l	n/a
277.1295	0.075	554259	keystroke_Key.backspace	Key.backspace	n/a
277.8795	0.06	555759	keystroke_p	p	n/a
278.0595	0.075	556119	keystroke_l	l	n/a
278.1945	0.09	556389	keystroke_a	a	n/a
278.3295	0.105	556659	keystroke_t	t	n/a
279.5445	0.075	559089	keystroke_f	f	n/a
279.6645	0.135	559329	keystroke_o	o	n/a
279.7545	0.09	559509	keystroke_r	r	n/a
279.8745	0.165	559749	keystroke_m	m	n/a
280.0695	0.075	560139	keystroke_Key.space	Key.space	n/a
280.2495	0.075	560499	keystroke_h	h	n/a
280.3395	0.075	560679	keystroke_e	e	n/a
280.4445	0.105	560889	keystroke_n	n	n/a
280.5645	0.135	561129	keystroke_c	c	n/a
280.6845	0.105	561369	keystroke_e	e	n/a
280.9835	0.12	561967	keystroke_Key.space	Key.space	n/a
281.6295	0.135	563259	keystroke_r	r	n/a
281.7785	0.075	563557	keystroke_e	e	n/a
282.139	0.12	564278	keystroke_c	c	n/a
283.2645	0.074	566529	keystroke_e	e	n/a
283.5785	0.075	567157	keystroke_i	i	n/a
283.8335	0.015	567667	keystroke_v	v	n/a
283.8935	0.06	567787	keystroke_e	e	n/a
284.3735	0.075	568747	keystroke_s	s	n/a
284.4635	0.09	568927	keystroke_Key.space	Key.space	n/a
284.6145	0.119	569229	keystroke_n	n	n/a
284.7485	0.105	569497	keystroke_o	o	n/a
284.8835	0.09	569767	keystroke_r	r	n/a
286.2485	0.06	572497	keystroke_f	f	n/a
286.3385	0.075	572677	keystroke_o	o	n/a
286.5635	0.045	573127	keystroke_l	l	n/a
286.7735	0.075	573547	keystroke_k	k	n/a
287.0285	0.03	574057	keystroke_Key.enter	Key.enter	n/a
287.0635	7.0775	574127	prompt	n/a	daughters working cooked resource\n
287.9435	0.135	575887	keystroke_d	d	n/a
288.0485	0.105	576097	keystroke_a	a	n/a
288.1985	0.075	576397	keystroke_u	u	n/a
288.2885	0.075	576577	keystroke_g	g	n/a
288.4085	0.075	576817	keystroke_h	h	n/a
288.4995	0.059	576999	keystroke_t	t	n/a
288.6785	0.135	577357	keystroke_e	e	n/a
288.8285	0.03	577657	keystroke_r	r	n/a
289.3385	0.015	578677	keystroke_Key.space	Key.space	n/a
289.3685	0.015	578737	keystroke_s	s	n/a
289.6685	0.06	579337	keystroke_Key.backspace	Key.backspace	n/a
289.8035	0.075	579607	keystroke_Key.backspace	Key.backspace	n/a
289.9085	0.075	579817	keystroke_s	s	n/a
290.0435	0.09	580087	keystroke_Key.space	Key.space	n/a
290.1635	0.105	580327	keystroke_w	w	n/a
290.2985	0.105	580597	keystroke_o	o	n/a
290.4485	0.075	580897	keystroke_r	r	n/a
290.5085	0.09	581017	keystroke_k	k	n/a
290.6735	0.135	581347	keystroke_i	i	n/a
290.7635	0.12	581527	keystroke_n	n	n/a
290.8535	0.075	581707	keystroke_g	g	n/a
290.9585	0.1205	581917	keystroke_Key.space	Key.space	n/a
291.124	0.105	582248	keystroke_c	c	n/a
291.244	0.06	582488	keystroke_o	o	n/a
291.394	0.105	582788	keystroke_o	o	n/a
291.559	0.105	583118	keystroke_k	k	n/a
291.694	0.075	583388	keystroke_e	e	n/a
291.874	0.075	583748	keystroke_d	d	n/a
291.979	0.12	583958	keystroke_Key.space	Key.space	n/a
292.324	0.15	584648	keystroke_r	r	n/a
292.444	0.09	584888	keystroke_e	e	n/a
292.654	0.09	585308	keystroke_s	s	n/a
292.774	0.15	585548	keystroke_o	o	n/a
292.909	0.105	585818	keystroke_u	u	n/a
293.029	0.0745	586058	keystroke_r	r	n/a
293.6585	0.135	587317	keystroke_c	c	n/a
293.7785	0.09	587557	keystroke_e	e	n/a
294.0635	0.075	588127	keystroke_Key.enter	Key.enter	n/a
294.147	8.7985	588294	prompt	n/a	certainly finest expert entire\n
294.8435	0.09	589687	keystroke_c	c	n/a
295.009	0.1645	590018	keystroke_e	e	n/a
295.1435	0.105	590287	keystroke_r	r	n/a
295.3535	0.06	590707	keystroke_t	t	n/a
295.4585	0.075	590917	keystroke_a	a	n/a
295.5485	0.135	591097	keystroke_i	i	n/a
295.6385	0.09	591277	keystroke_n	n	n/a
295.8185	0.06	591637	keystroke_l	l	n/a
296.0135	0.15	592027	keystroke_y	y	n/a
296.1335	0.135	592267	keystroke_Key.space	Key.space	n/a
297.0035	0.105	594007	keystroke_f	f	n/a
297.1685	0.165	594337	keystroke_i	i	n/a
297.3785	0.135	594757	keystroke_n	n	n/a
297.5885	0.09	595177	keystroke_e	e	n/a
297.7085	0.21	595417	keystroke_s	s	n/a
297.9335	0.135	595867	keystroke_t	t	n/a
298.1585	0.12	596317	keystroke_Key.space	Key.space	n/a
298.5485	0.06	597097	keystroke_e	e	n/a
299.4635	0.075	598927	keystroke_x	x	n/a
299.7335	0.09	599467	keystroke_p	p	n/a
299.8985	0.15	599797	keystroke_e	e	n/a
300.0635	0.015	600127	keystroke_r	r	n/a
300.3485	0.105	600697	keystroke_t	t	n/a
300.7685	0.135	601537	keystroke_Key.space	Key.space	n/a
301.2035	0.075	602407	keystroke_e	e	n/a
301.4285	0.06	602857	keystroke_t	t	n/a
301.8345	0.059	603669	keystroke_Key.backspace	Key.backspace	n/a
302.0285	0.12	604057	keystroke_n	n	n/a
302.1335	0.105	604267	keystroke_t	t	n/a
302.2985	0.0905	604597	keystroke_i	i	n/a
302.4335	0.075	604867	keystroke_r	r	n/a
302.5385	0.105	605077	keystroke_e	e	n/a
302.8835	0.06	605767	keystroke_Key.enter	Key.enter	n/a
302.9485	11.592	605897	prompt	n/a	feeding organize maybe breakfast\n
303.6635	0.06	607327	keystroke_f	f	n/a
303.8285	0.06	607657	keystroke_e	e	n/a
303.964	0.06	607928	keystroke_e	e	n/a
304.144	0.06	608288	keystroke_d	d	n/a
304.219	0.105	608438	keystroke_i	i	n/a
304.294	0.105	608588	keystroke_n	n	n/a
304.354	0.09	608708	keystroke_g	g	n/a
304.474	0.105	608948	keystroke_Key.space	Key.space	n/a
304.624	0.12	609248	keystroke_o	o	n/a
304.819	0.075	609638	keystroke_r	r	n/a
305.7345	0.0745	611469	keystroke_g	g	n/a
305.8545	0.09	611709	keystroke_a	a	n/a
306.049	0.1355	612098	keystroke_n	n	n/a
306.1995	0.06	612399	keystroke_i	i	n/a
306.6195	0.075	613239	keystroke_z	z	n/a
306.8145	0.075	613629	keystroke_e	e	n/a
306.9795	0.105	613959	keystroke_Key.space	Key.space	n/a
307.774	0.075	615548	keystroke_m	m	n/a
307.879	0.06	615758	keystroke_a	a	n/a
308.044	0.09	616088	keystroke_y	y	n/a
308.2835	0.09	616567	keystroke_n	n	n/a
308.4035	0.045	616807	keystroke_e	e	n/a
308.5385	0.105	617077	keystroke_Key.space	Key.space	n/a
308.8835	0.06	617767	keystroke_b	b	n/a
309.3335	0.075	618667	keystroke_Key.backspace	Key.backspace	n/a
309.4845	0.0445	618969	keystroke_Key.backspace	Key.backspace	n/a
309.619	0.06	619238	keystroke_Key.backspace	Key.backspace	n/a
309.919	0.06	619838	keystroke_Key.backspace	Key.backspace	n/a
310.594	0.075	621188	keystroke_b	b	n/a
311.0585	0.075	622117	keystroke_e	e	n/a
311.1935	0.075	622387	keystroke_Key.space	Key.space	n/a
311.4335	0.075	622867	keystroke_b	b	n/a
311.5835	0.12	623167	keystroke_r	r	n/a
311.6885	0.135	623377	keystroke_e	e	n/a
311.8085	0.09	623617	keystroke_a	a	n/a
312.034	0.045	624068	keystroke_k	k	n/a
313.2485	0.12	626497	keystroke_f	f	n/a
313.8785	0.105	627757	keystroke_a	a	n/a
314.0735	0.105	628147	keystroke_s	s	n/a
314.2385	0.1055	628477	keystroke_t	t	n/a
314.464	0.075	628928	keystroke_Key.enter	Key.enter	n/a
314.5435	7.482	629087	prompt	n/a	convert volunteer regions firewire\n
315.349	0.09	630698	keystroke_c	c	n/a
315.469	0.105	630938	keystroke_o	o	n/a
315.559	0.09	631118	keystroke_n	n	n/a
315.604	0.09	631208	keystroke_v	v	n/a
315.844	0.105	631688	keystroke_e	e	n/a
315.919	0.045	631838	keystroke_r	r	n/a
316.084	0.06	632168	keystroke_t	t	n/a
316.264	0.105	632528	keystroke_Key.space	Key.space	n/a
316.519	0.09	633038	keystroke_c	c	n/a
316.639	0.06	633278	keystroke_o	o	n/a
316.819	0.06	633638	keystroke_l	l	n/a
317.2085	0.0305	634417	keystroke_Key.backspace	Key.backspace	n/a
317.329	0.0445	634658	keystroke_Key.backspace	Key.backspace	n/a
317.4485	0.075	634897	keystroke_Key.backspace	Key.backspace	n/a
317.5085	0.09	635017	keystroke_v	v	n/a
317.7185	0.075	635437	keystroke_o	o	n/a
317.9435	0.075	635887	keystroke_l	l	n/a
318.2285	0.075	636457	keystroke_u	u	n/a
318.454	0.075	636908	keystroke_n	n	n/a
318.574	0.075	637148	keystroke_t	t	n/a
318.769	0.075	637538	keystroke_e	e	n/a
318.949	0.105	637898	keystroke_e	e	n/a
319.039	0.09	638078	keystroke_r	r	n/a
319.234	0.09	638468	keystroke_Key.space	Key.space	n/a
319.534	0.135	639068	keystroke_r	r	n/a
319.729	0.09	639458	keystroke_e	e	n/a
319.909	0.075	639818	keystroke_g	g	n/a
319.999	0.135	639998	keystroke_i	i	n/a
320.119	0.165	640238	keystroke_o	o	n/a
320.254	0.09	640508	keystroke_n	n	n/a
320.389	0.09	640778	keystroke_s	s	n/a
320.584	0.075	641168	keystroke_Key.space	Key.space	n/a
320.809	0.06	641618	keystroke_f	f	n/a
320.944	0.09	641888	keystroke_i	i	n/a
321.019	0.15	642038	keystroke_r	r	n/a
321.184	0.105	642368	keystroke_e	e	n/a
321.439	0.12	642878	keystroke_w	w	n/a
321.544	0.075	643088	keystroke_i	i	n/a
321.604	0.18	643208	keystroke_r	r	n/a
321.739	0.105	643478	keystroke_e	e	n/a
321.964	0.06	643928	keystroke_Key.enter	Key.enter	n/a
322.0305	8.515	644061	prompt	n/a	actors thou textbooks expressed\n
322.684	0.12	645368	keystroke_a	a	n/a
322.969	0.075	645938	keystroke_c	c	n/a
323.179	0.06	646358	keystroke_t	t	n/a
323.254	0.12	646508	keystroke_o	o	n/a
323.404	0.09	646808	keystroke_r	r	n/a
323.704	0.075	647408	keystroke_s	s	n/a
323.824	0.12	647648	keystroke_Key.space	Key.space	n/a
324.004	0.075	648008	keystroke_t	t	n/a
324.094	0.075	648188	keystroke_h	h	n/a
324.199	0.12	648398	keystroke_o	o	n/a
324.304	0.09	648608	keystroke_u	u	n/a
324.994	0.135	649988	keystroke_Key.space	Key.space	n/a
325.174	0.09	650348	keystroke_t	t	n/a
325.549	0.06	651098	keystroke_e	e	n/a
325.789	0.12	651578	keystroke_x	x	n/a
326.014	0.075	652028	keystroke_t	t	n/a
326.419	0.045	652838	keystroke_b	b	n/a
326.569	0.075	653138	keystroke_o	o	n/a
326.734	0.18	653468	keystroke_o	o	n/a
326.869	0.12	653738	keystroke_k	k	n/a
327.064	0.075	654128	keystroke_d	d	n/a
327.604	0.075	655208	keystroke_Key.backspace	Key.backspace	n/a
327.694	0.075	655388	keystroke_s	s	n/a
327.829	0.12	655658	keystroke_Key.space	Key.space	n/a
328.219	0.09	656438	keystroke_e	e	n/a
329.089	0.075	658178	keystroke_x	x	n/a
329.224	0.075	658448	keystroke_p	p	n/a
329.344	0.12	658688	keystroke_r	r	n/a
329.449	0.105	658898	keystroke_e	e	n/a
329.674	0.075	659348	keystroke_s	s	n/a
329.824	0.12	659648	keystroke_s	s	n/a
329.914	0.06	659828	keystroke_e	e	n/a
330.109	0.06	660218	keystroke_d	d	n/a
330.424	0.12	660848	keystroke_Key.enter	Key.enter	n/a
330.549	9.687	661098	prompt	n/a	companion matched subscriber fires\n
331.3235	0.105	662647	keystroke_c	c	n/a
331.7285	0.105	663457	keystroke_o	o	n/a
331.9235	0.09	663847	keystroke_m	m	n/a
332.1035	0.075	664207	keystroke_p	p	n/a
332.2085	0.075	664417	keystroke_a	a	n/a
332.3585	0.135	664717	keystroke_n	n	n/a
332.5085	0.15	665017	keystroke_i	i	n/a
332.6735	0.165	665347	keystroke_o	o	n/a
332.8085	0.135	665617	keystroke_n	n	n/a
333.7235	0.09	667447	keystroke_Key.space	Key.space	n/a
333.8735	0.105	667747	keystroke_m	m	n/a
333.9935	0.105	667987	keystroke_a	a	n/a
334.1145	0.089	668229	keystroke_t	t	n/a
334.6685	0.09	669337	keystroke_c	c	n/a
334.7285	0.105	669457	keystroke_h	h	n/a
334.8785	0.075	669757	keystroke_e	e	n/a
335.0585	0.105	670117	keystroke_s	s	n/a
335.1645	0.134	670329	keystroke_Key.space	Key.space	n/a
336.3485	0.09	672697	keystroke_s	s	n/a
336.5435	0.075	673087	keystroke_u	u	n/a
336.7685	0.075	673537	keystroke_b	b	n/a
336.9785	0.09	673957	keystroke_s	s	n/a
337.1445	0.059	674289	keystroke_c	c	n/a
337.3085	0.075	674617	keystroke_r	r	n/a
337.3985	0.075	674797	keystroke_i	i	n/a
337.5935	0.09	675187	keystroke_b	b	n/a
337.7285	0.12	675457	keystroke_e	e	n/a
337.7885	0.12	675577	keystroke_r	r	n/a
337.8935	0.12	675787	keystroke_Key.space	Key.space	n/a
338.1035	0.03	676207	keystroke_f	f	n/a
338.1635	0.135	676327	keystroke_i	i	n/a
338.2535	0.135	676507	keystroke_n	n	n/a
338.4035	0.075	676807	keystroke_e	e	n/a
338.8535	0.045	677707	keystroke_Key.backspace	Key.backspace	n/a
338.9735	0.06	677947	keystroke_Key.backspace	Key.backspace	n/a
339.0785	0.105	678157	keystroke_r	r	n/a
339.1985	0.09	678397	keystroke_e	e	n/a
340.0385	0.075	680077	keystroke_s	s	n/a
340.1435	0.09	680287	keystroke_Key.enter	Key.enter	n/a
340.2385	8.007	680477	prompt	n/a	treating score failure vintage\n
340.9985	0.09	681997	keystroke_t	t	n/a
341.2535	0.09	682507	keystroke_r	r	n/a
341.3135	0.135	682627	keystroke_e	e	n/a
341.4335	0.105	682867	keystroke_a	a	n/a
341.5535	0.09	683107	keystroke_t	t	n/a
341.6735	0.165	683347	keystroke_i	i	n/a
341.7785	0.12	683557	keystroke_n	n	n/a
341.8685	0.09	683737	keystroke_g	g	n/a
341.9885	0.12	683977	keystroke_Key.space	Key.space	n/a
342.1385	0.075	684277	keystroke_s	s	n/a
342.2885	0.09	684577	keystroke_c	c	n/a
342.4385	0.075	684877	keystroke_o	o	n/a
342.5735	0.135	685147	keystroke_r	r	n/a
342.6935	0.09	685387	keystroke_e	e	n/a
342.8435	0.105	685687	keystroke_Key.space	Key.space	n/a
343.4285	0.09	686857	keystroke_f	f	n/a
343.5635	0.09	687127	keystroke_a	a	n/a
343.8935	0.06	687787	keystroke_i	i	n/a
344.1185	0.09	688237	keystroke_l	l	n/a
344.2985	0.09	688597	keystroke_u	u	n/a
344.4185	0.15	688837	keystroke_r	r	n/a
344.5695	0.119	689139	keystroke_e	e	n/a
344.7185	0.12	689437	keystroke_Key.space	Key.space	n/a
345.8135	0.09	691627	keystroke_v	v	n/a
345.9335	0.18	691867	keystroke_i	i	n/a
346.0685	0.12	692137	keystroke_n	n	n/a
346.5185	0.135	693037	keystroke_a	a	n/a
347.1035	0.06	694207	keystroke_Key.backspace	Key.backspace	n/a
347.3585	0.09	694717	keystroke_t	t	n/a
347.7935	0.075	695587	keystroke_a	a	n/a
347.8835	0.075	695767	keystroke_g	g	n/a
347.9885	0.09	695977	keystroke_e	e	n/a
348.1235	0.12	696247	keystroke_Key.enter	Key.enter	n/a
348.2485	3.8075	696497	prompt	n/a	baker logs moving pain\n
349.1285	0.105	698257	keystroke_b	b	n/a
349.3835	0.06	698767	keystroke_a	a	n/a
349.4885	0.06	698977	keystroke_k	k	n/a
349.6085	0.15	699217	keystroke_e	e	n/a
349.6835	0.135	699367	keystroke_r	r	n/a
349.8035	0.105	699607	keystroke_Key.space	Key.space	n/a
349.954	0.0595	699908	keystroke_l	l	n/a
350.1185	0.06	700237	keystroke_o	o	n/a
350.1935	0.075	700387	keystroke_g	g	n/a
350.3585	0.09	700717	keystroke_s	s	n/a
350.4635	0.09	700927	keystroke_Key.space	Key.space	n/a
350.6885	0.105	701377	keystroke_m	m	n/a
350.8245	0.06	701649	keystroke_o	o	n/a
350.8985	0.076	701797	keystroke_v	v	n/a
351.0045	0.165	702009	keystroke_i	i	n/a
351.1245	0.105	702249	keystroke_n	n	n/a
351.2145	0.09	702429	keystroke_g	g	n/a
351.3185	0.106	702637	keystroke_Key.space	Key.space	n/a
351.4395	0.105	702879	keystroke_p	p	n/a
351.5895	0.045	703179	keystroke_a	a	n/a
351.6495	0.15	703299	keystroke_i	i	n/a
351.7845	0.09	703569	keystroke_n	n	n/a
351.9645	0.09	703929	keystroke_Key.enter	Key.enter	n/a
352.0605	9.972	704121	prompt	n/a	newark mounts glasses definition\n
352.8795	0.074	705759	keystroke_n	n	n/a
352.9985	0.135	705997	keystroke_e	e	n/a
353.1195	0.104	706239	keystroke_w	w	n/a
353.3585	0.15	706717	keystroke_a	a	n/a
353.4485	0.135	706897	keystroke_r	r	n/a
354.1835	0.165	708367	keystroke_k	k	n/a
354.3185	0.105	708637	keystroke_Key.space	Key.space	n/a
354.6035	0.105	709207	keystroke_m	m	n/a
354.7235	0.166	709447	keystroke_o	o	n/a
354.8735	0.105	709747	keystroke_u	u	n/a
355.0835	0.106	710167	keystroke_n	n	n/a
355.1585	0.09	710317	keystroke_t	t	n/a
355.3235	0.105	710647	keystroke_s	s	n/a
355.4135	0.105	710827	keystroke_Key.space	Key.space	n/a
356.1185	0.075	712237	keystroke_g	g	n/a
356.2535	0.075	712507	keystroke_l	l	n/a
356.3435	0.105	712687	keystroke_a	a	n/a
356.5395	0.074	713079	keystroke_s	s	n/a
356.7195	0.089	713439	keystroke_s	s	n/a
356.8385	0.105	713677	keystroke_e	e	n/a
357.0185	0.075	714037	keystroke_s	s	n/a
357.1085	0.105	714217	keystroke_Key.space	Key.space	n/a
357.2585	0.06	714517	keystroke_d	d	n/a
357.4235	0.091	714847	keystroke_e	e	n/a
357.5285	0.09	715057	keystroke_n	n	n/a
358.0085	0.06	716017	keystroke_Key.backspace	Key.backspace	n/a
358.0835	0.045	716167	keystroke_f	f	n/a
358.1885	0.12	716377	keystroke_i	i	n/a
358.3235	0.075	716647	keystroke_n	n	n/a
358.4445	0.134	716889	keystroke_i	i	n/a
358.5485	0.075	717097	keystroke_n	n	n/a
358.6985	0.09	717397	keystroke_t	t	n/a
358.8035	0.06	717607	keystroke_i	i	n/a
358.8785	0.135	717757	keystroke_o	o	n/a
359.3135	0.06	718627	keystroke_Key.backspace	Key.backspace	n/a
359.4635	0.045	718927	keystroke_Key.backspace	Key.backspace	n/a
359.5985	0.06	719197	keystroke_Key.backspace	Key.backspace	n/a
359.7485	0.06	719497	keystroke_Key.backspace	Key.backspace	n/a
359.8685	0.105	719737	keystroke_Key.backspace	Key.backspace	n/a
361.159	0.06	722318	keystroke_i	i	n/a
361.294	0.075	722588	keystroke_t	t	n/a
361.384	0.135	722768	keystroke_i	i	n/a
361.504	0.09	723008	keystroke_o	o	n/a
361.549	0.09	723098	keystroke_n	n	n/a
361.954	0.075	723908	keystroke_Key.enter	Key.enter	n/a
362.036	3.9695	724072	prompt	n/a	rico done up cams\n
363.079	0.075	726158	keystroke_r	r	n/a
363.169	0.09	726338	keystroke_i	i	n/a
363.559	0.045	727118	keystroke_c	c	n/a
363.634	0.12	727268	keystroke_o	o	n/a
363.769	0.105	727538	keystroke_Key.space	Key.space	n/a
364.054	0.105	728108	keystroke_d	d	n/a
364.144	0.12	728288	keystroke_o	o	n/a
364.219	0.12	728438	keystroke_n	n	n/a
364.324	0.12	728648	keystroke_e	e	n/a
364.459	0.135	728918	keystroke_Key.space	Key.space	n/a
364.579	0.12	729158	keystroke_u	u	n/a
364.729	0.15	729458	keystroke_p	p	n/a
364.909	0.195	729818	keystroke_Key.space	Key.space	n/a
365.449	0.12	730898	keystroke_c	c	n/a
365.554	0.09	731108	keystroke_a	a	n/a
365.659	0.105	731318	keystroke_m	m	n/a
365.779	0.09	731558	keystroke_s	s	n/a
365.944	0.06	731888	keystroke_Key.enter	Key.enter	n/a
366.01	5.3655	732020	prompt	n/a	grams usual april meetup\n
366.874	0.075	733748	keystroke_g	g	n/a
367.054	0.105	734108	keystroke_r	r	n/a
367.174	0.09	734348	keystroke_a	a	n/a
367.309	0.09	734618	keystroke_m	m	n/a
367.414	0.105	734828	keystroke_s	s	n/a
367.579	0.12	735158	keystroke_Key.space	Key.space	n/a
367.804	0.09	735608	keystroke_u	u	n/a
368.029	0.075	736058	keystroke_s	s	n/a
368.149	0.06	736298	keystroke_u	u	n/a
368.224	0.09	736448	keystroke_a	a	n/a
368.374	0.105	736748	keystroke_l	l	n/a
368.614	0.09	737228	keystroke_Key.space	Key.space	n/a
368.839	0.105	737678	keystroke_a	a	n/a
368.989	0.09	737978	keystroke_p	p	n/a
369.529	0.06	739058	keystroke_r	r	n/a
369.664	0.015	739328	keystroke_i	i	n/a
369.799	0.12	739598	keystroke_l	l	n/a
369.949	0.12	739898	keystroke_Key.space	Key.space	n/a
370.084	0.105	740168	keystroke_m	m	n/a
370.234	0.015	740468	keystroke_e	e	n/a
370.369	0.06	740738	keystroke_e	e	n/a
370.489	0.09	740978	keystroke_t	t	n/a
370.969	0.06	741938	keystroke_u	u	n/a
371.059	0.09	742118	keystroke_p	p	n/a
371.269	0.105	742538	keystroke_Key.enter	Key.enter	n/a
371.3795	6.0565	742759	prompt	n/a	flower bone lance labor\n
372.769	0.0295	745538	keystroke_f	f	n/a
372.8885	0.06	745777	keystroke_l	l	n/a
373.9385	0.076	747877	keystroke_o	o	n/a
374.0585	0.09	748117	keystroke_w	w	n/a
374.1335	0.135	748267	keystroke_e	e	n/a
374.7335	0.06	749467	keystroke_r	r	n/a
374.8085	0.135	749617	keystroke_Key.space	Key.space	n/a
374.9585	0.0905	749917	keystroke_b	b	n/a
375.124	0.165	750248	keystroke_o	o	n/a
375.244	0.12	750488	keystroke_n	n	n/a
375.394	0.075	750788	keystroke_e	e	n/a
375.499	0.09	750998	keystroke_Key.space	Key.space	n/a
375.754	0.075	751508	keystroke_l	l	n/a
375.844	0.09	751688	keystroke_a	a	n/a
375.949	0.09	751898	keystroke_n	n	n/a
376.054	0.1505	752108	keystroke_c	c	n/a
376.189	0.075	752378	keystroke_e	e	n/a
376.279	0.09	752558	keystroke_Key.space	Key.space	n/a
376.474	0.06	752948	keystroke_l	l	n/a
376.579	0.075	753158	keystroke_a	a	n/a
376.699	0.075	753398	keystroke_b	b	n/a
376.894	0.09	753788	keystroke_o	o	n/a
377.059	0.06	754118	keystroke_r	r	n/a
377.359	0.075	754718	keystroke_Key.enter	Key.enter	n/a
377.4395	6.5965	754879	prompt	n/a	generating change was moral\n
378.919	0.06	757838	keystroke_g	g	n/a
379.084	0.06	758168	keystroke_e	e	n/a
379.174	0.06	758348	keystroke_n	n	n/a
379.279	0.135	758558	keystroke_e	e	n/a
379.369	0.105	758738	keystroke_r	r	n/a
379.549	0.075	759098	keystroke_a	a	n/a
379.609	0.09	759218	keystroke_t	t	n/a
379.759	0.15	759518	keystroke_i	i	n/a
379.879	0.105	759758	keystroke_n	n	n/a
379.999	0.06	759998	keystroke_g	g	n/a
380.104	0.09	760208	keystroke_Key.space	Key.space	n/a
380.269	0.09	760538	keystroke_c	c	n/a
380.374	0.06	760748	keystroke_h	h	n/a
380.449	0.075	760898	keystroke_a	a	n/a
380.569	0.09	761138	keystroke_n	n	n/a
380.719	0.075	761438	keystroke_g	g	n/a
380.914	0.06	761828	keystroke_e	e	n/a
381.064	0.09	762128	keystroke_Key.space	Key.space	n/a
381.169	0.06	762338	keystroke_w	w	n/a
381.289	0.09	762578	keystroke_i	i	n/a
381.709	0.045	763418	keystroke_Key.backspace	Key.backspace	n/a
382.264	0.135	764528	keystroke_s	s	n/a
382.774	0.075	765548	keystroke_Key.backspace	Key.backspace	n/a
382.834	0.12	765668	keystroke_a	a	n/a
382.909	0.105	765818	keystroke_s	s	n/a
383.104	0.12	766208	keystroke_Key.space	Key.space	n/a
383.209	0.135	766418	keystroke_m	m	n/a
383.329	0.09	766658	keystroke_o	o	n/a
383.434	0.135	766868	keystroke_r	r	n/a
383.599	0.075	767198	keystroke_a	a	n/a
383.7945	0.0595	767589	keystroke_l	l	n/a
383.959	0.075	767918	keystroke_Key.enter	Key.enter	n/a
384.041	8.2155	768082	prompt	n/a	money regulations melissa eating\n
384.784	0.09	769568	keystroke_m	m	n/a
384.904	0.195	769808	keystroke_o	o	n/a
385.039	0.105	770078	keystroke_n	n	n/a
385.204	0.06	770408	keystroke_e	e	n/a
385.279	0.15	770558	keystroke_y	y	n/a
385.414	0.105	770828	keystroke_Key.space	Key.space	n/a
385.519	0.12	771038	keystroke_r	r	n/a
385.624	0.045	771248	keystroke_e	e	n/a
385.804	0.12	771608	keystroke_g	g	n/a
385.969	0.075	771938	keystroke_u	u	n/a
386.494	0.06	772988	keystroke_l	l	n/a
386.584	0.135	773168	keystroke_a	a	n/a
386.689	0.09	773378	keystroke_t	t	n/a
386.809	0.135	773618	keystroke_i	i	n/a
386.899	0.135	773798	keystroke_o	o	n/a
387.004	0.12	774008	keystroke_n	n	n/a
387.169	0.09	774338	keystroke_s	s	n/a
387.304	0.075	774608	keystroke_Key.space	Key.space	n/a
387.4685	0.105	774937	keystroke_m	m	n/a
387.5885	0.06	775177	keystroke_e	e	n/a
388.2935	0.12	776587	keystroke_l	l	n/a
388.3985	0.09	776797	keystroke_i	i	n/a
389.7345	0.045	779469	keystroke_s	s	n/a
389.8845	0.075	779769	keystroke_s	s	n/a
390.0045	0.075	780009	keystroke_a	a	n/a
390.1395	0.09	780279	keystroke_Key.space	Key.space	n/a
391.3845	0.075	782769	keystroke_e	e	n/a
391.5645	0.075	783129	keystroke_a	a	n/a
391.7445	0.06	783489	keystroke_t	t	n/a
391.8345	0.18	783669	keystroke_i	i	n/a
391.9545	0.105	783909	keystroke_n	n	n/a
392.0295	0.06	784059	keystroke_g	g	n/a
392.1945	0.06	784389	keystroke_Key.enter	Key.enter	n/a
392.262	17.289	784524	prompt	n/a	correlation advantages insured louisville\n
394.2185	0.076	788437	keystroke_c	c	n/a
394.4445	0.09	788889	keystroke_o	o	n/a
395.1045	0.09	790209	keystroke_r	r	n/a
395.4045	0.09	790809	keystroke_r	r	n/a
395.6295	0.044	791259	keystroke_e	e	n/a
395.9295	0.135	791859	keystroke_l	l	n/a
396.3795	0.09	792759	keystroke_a	a	n/a
396.4545	0.105	792909	keystroke_t	t	n/a
396.5895	0.12	793179	keystroke_i	i	n/a
396.6645	0.15	793329	keystroke_o	o	n/a
396.7545	0.15	793509	keystroke_n	n	n/a
396.9945	0.09	793989	keystroke_Key.space	Key.space	n/a
397.3395	0.105	794679	keystroke_a	a	n/a
397.624	0.105	795248	keystroke_d	d	n/a
398.539	0.06	797078	keystroke_v	v	n/a
398.644	0.075	797288	keystroke_a	a	n/a
398.974	0.075	797948	keystroke_n	n	n/a
403.416	0.013	806832	keystroke_t	t	n/a
403.519	0.075	807038	keystroke_a	a	n/a
403.624	0.105	807248	keystroke_g	g	n/a
403.804	0.165	807608	keystroke_e	e	n/a
404.284	0.09	808568	keystroke_s	s	n/a
404.479	0.12	808958	keystroke_Key.space	Key.space	n/a
404.644	0.18	809288	keystroke_i	i	n/a
404.794	0.105	809588	keystroke_n	n	n/a
404.959	0.105	809918	keystroke_s	s	n/a
405.139	0.075	810278	keystroke_u	u	n/a
405.229	0.15	810458	keystroke_r	r	n/a
405.349	0.105	810698	keystroke_e	e	n/a
406.114	0.075	812228	keystroke_d	d	n/a
406.249	0.09	812498	keystroke_Key.space	Key.space	n/a
406.774	0.075	813548	keystroke_l	l	n/a
406.984	0.0895	813968	keystroke_o	o	n/a
408.2885	0.06	816577	keystroke_u	u	n/a
408.3635	0.105	816727	keystroke_i	i	n/a
408.5735	0.09	817147	keystroke_s	s	n/a
408.7995	0.09	817599	keystroke_v	v	n/a
408.8745	0.09	817749	keystroke_i	i	n/a
409.1285	0.031	818257	keystroke_l	l	n/a
409.2645	0.045	818529	keystroke_l	l	n/a
409.3245	0.074	818649	keystroke_e	e	n/a
409.4735	0.075	818947	keystroke_Key.enter	Key.enter	n/a
409.5545	7.571	819109	prompt	n/a	possibility backgrounds sustained which\n
410.4635	0.076	820927	keystroke_p	p	n/a
410.6895	0.059	821379	keystroke_o	o	n/a
410.9595	0.075	821919	keystroke_s	s	n/a
411.1235	0.075	822247	keystroke_s	s	n/a
411.2595	0.075	822519	keystroke_i	i	n/a
411.4995	0.09	822999	keystroke_b	b	n/a
411.6645	0.105	823329	keystroke_i	i	n/a
411.8445	0.135	823689	keystroke_l	l	n/a
411.9645	0.12	823929	keystroke_i	i	n/a
412.0845	0.09	824169	keystroke_t	t	n/a
412.2195	0.104	824439	keystroke_y	y	n/a
412.4285	0.105	824857	keystroke_Key.space	Key.space	n/a
412.6235	0.075	825247	keystroke_b	b	n/a
412.7135	0.12	825427	keystroke_a	a	n/a
412.8785	0.075	825757	keystroke_c	c	n/a
412.9835	0.06	825967	keystroke_k	k	n/a
413.1635	0.075	826327	keystroke_g	g	n/a
413.3735	0.045	826747	keystroke_r	r	n/a
413.4485	0.15	826897	keystroke_o	o	n/a
413.5685	0.105	827137	keystroke_u	u	n/a
414.1385	0.075	828277	keystroke_n	n	n/a
414.2285	0.105	828457	keystroke_d	d	n/a
414.3185	0.09	828637	keystroke_s	s	n/a
414.4685	0.12	828937	keystroke_Key.space	Key.space	n/a
414.7985	0.075	829597	keystroke_s	s	n/a
414.9635	0.075	829927	keystroke_u	u	n/a
415.1435	0.075	830287	keystroke_s	s	n/a
415.2785	0.105	830557	keystroke_t	t	n/a
415.3985	0.075	830797	keystroke_a	a	n/a
415.5635	0.135	831127	keystroke_i	i	n/a
415.6535	0.09	831307	keystroke_n	n	n/a
415.7585	0.06	831517	keystroke_e	e	n/a
415.9235	0.045	831847	keystroke_d	d	n/a
415.9985	0.075	831997	keystroke_Key.space	Key.space	n/a
416.0885	0.075	832177	keystroke_w	w	n/a
416.1935	0.105	832387	keystroke_h	h	n/a
416.2835	0.12	832567	keystroke_i	i	n/a
416.3735	0.105	832747	keystroke_c	c	n/a
416.8835	0.06	833767	keystroke_h	h	n/a
417.0635	0.06	834127	keystroke_Key.enter	Key.enter	n/a
417.1285	9.057	834257	prompt	n/a	investigated wheels tags labeled\n
417.8435	0.105	835687	keystroke_i	i	n/a
417.9635	0.12	835927	keystroke_n	n	n/a
418.0685	0.09	836137	keystroke_v	v	n/a
418.2035	0.12	836407	keystroke_e	e	n/a
418.3835	0.105	836767	keystroke_s	s	n/a
418.5345	0.089	837069	keystroke_t	t	n/a
418.6385	0.135	837277	keystroke_i	i	n/a
418.9835	0.045	837967	keystroke_g	g	n/a
419.1185	0.12	838237	keystroke_a	a	n/a
419.7785	0.075	839557	keystroke_t	t	n/a
419.8835	0.075	839767	keystroke_e	e	n/a
420.5285	0.09	841057	keystroke_d	d	n/a
420.6635	0.105	841327	keystroke_Key.space	Key.space	n/a
420.9335	0.075	841867	keystroke_w	w	n/a
421.0245	0.074	842049	keystroke_h	h	n/a
421.1585	0.06	842317	keystroke_e	e	n/a
421.3095	0.059	842619	keystroke_e	e	n/a
422.0735	0.12	844147	keystroke_l	l	n/a
422.2235	0.06	844447	keystroke_s	s	n/a
422.2685	0.105	844537	keystroke_Key.space	Key.space	n/a
422.6135	0.075	845227	keystroke_t	t	n/a
422.7335	0.09	845467	keystroke_a	a	n/a
423.7235	0.09	847447	keystroke_g	g	n/a
423.9185	0.045	847837	keystroke_e	e	n/a
424.3385	0.06	848677	keystroke_Key.backspace	Key.backspace	n/a
424.4735	0.06	848947	keystroke_s	s	n/a
424.6235	0.09	849247	keystroke_Key.space	Key.space	n/a
424.8485	0.105	849697	keystroke_l	l	n/a
424.9685	0.075	849937	keystroke_a	a	n/a
425.2535	0.075	850507	keystroke_b	b	n/a
425.3735	0.06	850747	keystroke_e	e	n/a
425.5085	0.09	851017	keystroke_l	l	n/a
425.6285	0.09	851257	keystroke_e	e	n/a
425.8385	0.06	851677	keystroke_d	d	n/a
426.1235	0.06	852247	keystroke_Key.enter	Key.enter	n/a
426.189	9.7475	852378	prompt	n/a	i'm bikini genesis oval\n
426.9785	0.12	853957	keystroke_i	i	n/a
429.0935	0.075	858187	keystroke_'	'	n/a
429.5885	0.15	859177	keystroke_m	m	n/a
429.7235	0.075	859447	keystroke_Key.space	Key.space	n/a
429.9335	0.06	859867	keystroke_b	b	n/a
430.1135	0.09	860227	keystroke_i	i	n/a
430.3535	0.06	860707	keystroke_k	k	n/a
430.7885	0.075	861577	keystroke_i	i	n/a
430.9985	0.06	861997	keystroke_n	n	n/a
431.1185	0.105	862237	keystroke_i	i	n/a
431.5535	0.12	863107	keystroke_Key.space	Key.space	n/a
433.5635	0.075	867127	keystroke_g	g	n/a
433.7585	0.12	867517	keystroke_e	e	n/a
434.4485	0.105	868897	keystroke_n	n	n/a
434.6435	0.075	869287	keystroke_e	e	n/a
434.8535	0.09	869707	keystroke_s	s	n/a
434.9885	0.09	869977	keystroke_i	i	n/a
435.1085	0.075	870217	keystroke_s	s	n/a
435.2135	0.105	870427	keystroke_Key.space	Key.space	n/a
435.3335	0.12	870667	keystroke_o	o	n/a
435.4385	0.105	870877	keystroke_v	v	n/a
435.5885	0.075	871177	keystroke_a	a	n/a
435.6935	0.09	871387	keystroke_l	l	n/a
435.8435	0.09	871687	keystroke_Key.enter	Key.enter	n/a
435.941	7.9295	871882	prompt	n/a	cookies uses legends negotiations\n
436.729	0.09	873458	keystroke_c	c	n/a
436.849	0.045	873698	keystroke_o	o	n/a
436.999	0.09	873998	keystroke_o	o	n/a
437.449	0.06	874898	keystroke_k	k	n/a
437.629	0.06	875258	keystroke_i	i	n/a
437.689	0.15	875378	keystroke_e	e	n/a
437.824	0.09	875648	keystroke_s	s	n/a
437.929	0.06	875858	keystroke_Key.space	Key.space	n/a
438.034	0.09	876068	keystroke_u	u	n/a
438.139	0.105	876278	keystroke_s	s	n/a
438.259	0.12	876518	keystroke_e	e	n/a
438.439	0.105	876878	keystroke_s	s	n/a
438.574	0.09	877148	keystroke_Key.space	Key.space	n/a
438.724	0.09	877448	keystroke_l	l	n/a
438.844	0.075	877688	keystroke_e	e	n/a
439.204	0.06	878408	keystroke_g	g	n/a
439.369	0.075	878738	keystroke_e	e	n/a
439.489	0.09	878978	keystroke_n	n	n/a
439.624	0.135	879248	keystroke_d	d	n/a
439.744	0.09	879488	keystroke_s	s	n/a
440.179	0.12	880358	keystroke_Key.space	Key.space	n/a
441.454	0.09	882908	keystroke_n	n	n/a
441.529	0.09	883058	keystroke_e	e	n/a
441.769	0.09	883538	keystroke_g	g	n/a
441.874	0.105	883748	keystroke_o	o	n/a
442.279	0.09	884558	keystroke_t	t	n/a
442.954	0.0895	885908	keystroke_i	i	n/a
443.0735	0.075	886147	keystroke_a	a	n/a
443.2685	0.06	886537	keystroke_t	t	n/a
443.3435	0.15	886687	keystroke_i	i	n/a
443.4485	0.15	886897	keystroke_o	o	n/a
443.5385	0.12	887077	keystroke_n	n	n/a
443.6435	0.075	887287	keystroke_s	s	n/a
443.8085	0.06	887617	keystroke_Key.enter	Key.enter	n/a
443.874	7.751	887748	prompt	n/a	watched stunning countries helped\n
444.7085	0.09	889417	keystroke_w	w	n/a
444.8585	0.165	889717	keystroke_a	a	n/a
445.0085	0.075	890017	keystroke_t	t	n/a
445.2185	0.09	890437	keystroke_c	c	n/a
445.2935	0.105	890587	keystroke_h	h	n/a
445.4285	0.075	890857	keystroke_e	e	n/a
445.6235	0.06	891247	keystroke_d	d	n/a
445.6985	0.105	891397	keystroke_Key.space	Key.space	n/a
445.8185	0.09	891637	keystroke_s	s	n/a
445.9985	0.075	891997	keystroke_t	t	n/a
446.1035	0.075	892207	keystroke_u	u	n/a
446.3135	0.06	892627	keystroke_n	n	n/a
446.4785	0.045	892957	keystroke_n	n	n/a
446.5385	0.1505	893077	keystroke_i	i	n/a
446.644	0.135	893288	keystroke_n	n	n/a
446.764	0.06	893528	keystroke_g	g	n/a
446.838	0.121	893676	keystroke_Key.space	Key.space	n/a
446.989	0.09	893978	keystroke_c	c	n/a
447.064	0.15	894128	keystroke_o	o	n/a
447.169	0.09	894338	keystroke_u	u	n/a
447.379	0.09	894758	keystroke_n	n	n/a
447.469	0.075	894938	keystroke_t	t	n/a
447.664	0.06	895328	keystroke_r	r	n/a
447.739	0.06	895478	keystroke_i	i	n/a
447.843	0.106	895686	keystroke_e	e	n/a
448.099	0.074	896198	keystroke_s	s	n/a
448.683	0.18	897366	keystroke_Key.space	Key.space	n/a
448.954	0.06	897908	keystroke_h	h	n/a
449.044	0.059	898088	keystroke_a	a	n/a
449.148	0.075	898296	keystroke_l	l	n/a
449.328	0.075	898656	keystroke_p	p	n/a
449.434	0.059	898868	keystroke_e	e	n/a
449.898	0.045	899796	keystroke_Key.backspace	Key.backspace	n/a
450.048	0.045	900096	keystroke_Key.backspace	Key.backspace	n/a
450.183	0.045	900366	keystroke_Key.backspace	Key.backspace	n/a
450.558	0.075	901116	keystroke_Key.backspace	Key.backspace	n/a
450.649	0.06	901298	keystroke_e	e	n/a
450.904	0.075	901808	keystroke_l	l	n/a
451.129	0.074	902258	keystroke_p	p	n/a
451.248	0.061	902496	keystroke_e	e	n/a
451.429	0.045	902858	keystroke_d	d	n/a
451.548	0.075	903096	keystroke_Key.enter	Key.enter	n/a
451.6285	8.277	903257	prompt	n/a	bikes strategies rolling could\n
452.373	0.076	904746	keystroke_b	b	n/a
452.509	0.09	905018	keystroke_i	i	n/a
452.764	0.059	905528	keystroke_k	k	n/a
453.319	0.045	906638	keystroke_e	e	n/a
453.378	0.106	906756	keystroke_s	s	n/a
453.633	0.091	907266	keystroke_Key.space	Key.space	n/a
454.684	0.09	909368	keystroke_s	s	n/a
454.878	0.076	909756	keystroke_t	t	n/a
455.314	0.09	910628	keystroke_r	r	n/a
455.449	0.09	910898	keystroke_a	a	n/a
456.079	0.045	912158	keystroke_t	t	n/a
456.274	0.075	912548	keystroke_e	e	n/a
456.679	0.09	913358	keystroke_g	g	n/a
456.814	0.105	913628	keystroke_i	i	n/a
456.904	0.15	913808	keystroke_e	e	n/a
457.009	0.105	914018	keystroke_s	s	n/a
457.1735	0.105	914347	keystroke_Key.space	Key.space	n/a
458.1035	0.09	916207	keystroke_r	r	n/a
458.2085	0.075	916417	keystroke_o	o	n/a
458.4035	0.075	916807	keystroke_l	l	n/a
458.5535	0.075	917107	keystroke_l	l	n/a
458.6885	0.15	917377	keystroke_i	i	n/a
458.7785	0.165	917557	keystroke_n	n	n/a
458.9285	0.03	917857	keystroke_g	g	n/a
458.9595	0.119	917919	keystroke_Key.space	Key.space	n/a
459.1385	0.09	918277	keystroke_c	c	n/a
459.1985	0.165	918397	keystroke_o	o	n/a
459.3185	0.105	918637	keystroke_u	u	n/a
459.4835	0.105	918967	keystroke_l	l	n/a
459.6185	0.075	919237	keystroke_d	d	n/a
459.8135	0.09	919627	keystroke_Key.enter	Key.enter	n/a
459.9105	14.995	919821	prompt	n/a	raise mastercard minerals bride\n
460.7285	0.09	921457	keystroke_r	r	n/a
460.8485	0.09	921697	keystroke_i	i	n/a
460.9535	0.165	921907	keystroke_s	s	n/a
461.0735	0.12	922147	keystroke_e	e	n/a
461.2085	0.09	922417	keystroke_Key.space	Key.space	n/a
461.3885	0.075	922777	keystroke_m	m	n/a
461.4785	0.045	922957	keystroke_a	a	n/a
461.6285	0.075	923257	keystroke_s	s	n/a
461.7785	0.075	923557	keystroke_t	t	n/a
461.9285	0.18	923857	keystroke_e	e	n/a
462.6485	0.09	925297	keystroke_c	c	n/a
462.7835	0.165	925567	keystroke_a	a	n/a
462.8885	0.105	925777	keystroke_r	r	n/a
463.0985	0.09	926197	keystroke_d	d	n/a
463.2035	0.12	926407	keystroke_Key.space	Key.space	n/a
463.3095	0.119	926619	keystroke_m	m	n/a
463.4135	0.165	926827	keystroke_i	i	n/a
463.5635	0.09	927127	keystroke_n	n	n/a
463.6835	0.15	927367	keystroke_e	e	n/a
463.7585	0.105	927517	keystroke_r	r	n/a
463.8935	0.105	927787	keystroke_s	s	n/a
464.4185	0.345	928837	keystroke_Key.backspace	Key.backspace	n/a
465.6485	0.075	931297	keystroke_Key.backspace	Key.backspace	n/a
465.7985	0.06	931597	keystroke_Key.backspace	Key.backspace	n/a
465.9485	0.06	931897	keystroke_Key.backspace	Key.backspace	n/a
466.0985	0.06	932197	keystroke_Key.backspace	Key.backspace	n/a
466.2485	0.06	932497	keystroke_Key.backspace	Key.backspace	n/a
466.3985	0.06	932797	keystroke_Key.backspace	Key.backspace	n/a
466.5485	0.06	933097	keystroke_Key.backspace	Key.backspace	n/a
466.7135	0.045	933427	keystroke_Key.backspace	Key.backspace	n/a
466.8635	0.075	933727	keystroke_Key.backspace	Key.backspace	n/a
467.0285	0.075	934057	keystroke_r	r	n/a
467.3585	0.06	934717	keystroke_Key.backspace	Key.backspace	n/a
467.5085	0.075	935017	keystroke_Key.backspace	Key.backspace	n/a
467.5985	0.09	935197	keystroke_r	r	n/a
467.973	0.105	935946	keystroke_c	c	n/a
468.093	0.15	936186	keystroke_a	a	n/a
468.213	0.105	936426	keystroke_r	r	n/a
468.423	0.09	936846	keystroke_d	d	n/a
468.543	0.135	937086	keystroke_Key.space	Key.space	n/a
469.983	0.12	939966	keystroke_m	m	n/a
470.118	0.12	940236	keystroke_i	i	n/a
470.254	0.104	940508	keystroke_n	n	n/a
470.403	0.135	940806	keystroke_e	e	n/a
470.508	0.09	941016	keystroke_r	r	n/a
470.643	0.09	941286	keystroke_a	a	n/a
470.809	0.059	941618	keystroke_l	l	n/a
470.914	0.075	941828	keystroke_s	s	n/a
471.018	0.12	942036	keystroke_Key.space	Key.space	n/a
471.363	0.0605	942726	keystroke_r	r	n/a
471.7685	0.06	943537	keystroke_Key.backspace	Key.backspace	n/a
472.0085	0.09	944017	keystroke_n	n	n/a
472.1135	0.09	944227	keystroke_r	r	n/a
472.2185	0.105	944437	keystroke_i	i	n/a
472.7285	0.045	945457	keystroke_Key.backspace	Key.backspace	n/a
472.8635	0.045	945727	keystroke_Key.backspace	Key.backspace	n/a
473.013	0.03	946026	keystroke_Key.backspace	Key.backspace	n/a
473.763	0.075	947526	keystroke_b	b	n/a
473.929	0.044	947858	keystroke_r	r	n/a
474.033	0.09	948066	keystroke_i	i	n/a
474.168	0.076	948336	keystroke_d	d	n/a
474.573	0.061	949146	keystroke_e	e	n/a
474.813	0.09	949626	keystroke_Key.enter	Key.enter	n/a
474.91	7.78	949820	prompt	n/a	debut glory morocco incredible\n
475.714	0.059	951428	keystroke_d	d	n/a
475.879	0.059	951758	keystroke_e	e	n/a
476.059	0.059	952118	keystroke_b	b	n/a
476.254	0.06	952508	keystroke_u	u	n/a
476.763	0.06	953526	keystroke_t	t	n/a
476.988	0.105	953976	keystroke_Key.space	Key.space	n/a
478.3835	0.075	956767	keystroke_g	g	n/a
478.5485	0.075	957097	keystroke_l	l	n/a
478.7585	0.06	957517	keystroke_o	o	n/a
478.8485	0.075	957697	keystroke_r	r	n/a
479.0735	0.06	958147	keystroke_y	y	n/a
479.6885	0.06	959377	keystroke_Key.space	Key.space	n/a
479.9135	0.075	959827	keystroke_m	m	n/a
480.0785	0.09	960157	keystroke_o	o	n/a
480.2435	0.075	960487	keystroke_r	r	n/a
480.3635	0.105	960727	keystroke_o	o	n/a
480.6035	0.06	961207	keystroke_c	c	n/a
480.7535	0.045	961507	keystroke_c	c	n/a
480.8435	0.09	961687	keystroke_o	o	n/a
480.9935	0.105	961987	keystroke_Key.space	Key.space	n/a
481.1435	0.12	962287	keystroke_i	i	n/a
481.2635	0.105	962527	keystroke_n	n	n/a
481.4285	0.075	962857	keystroke_c	c	n/a
481.6385	0.12	963277	keystroke_r	r	n/a
481.7435	0.075	963487	keystroke_e	e	n/a
481.9535	0.06	963907	keystroke_d	d	n/a
481.9985	0.09	963997	keystroke_i	i	n/a
482.1335	0.09	964267	keystroke_b	b	n/a
482.3285	0.075	964657	keystroke_l	l	n/a
482.4635	0.06	964927	keystroke_e	e	n/a
482.6135	0.075	965227	keystroke_Key.enter	Key.enter	n/a
482.6935	10.046	965387	prompt	n/a	sign entrepreneur across verde\n
483.6485	0.075	967297	keystroke_s	s	n/a
483.7535	0.105	967507	keystroke_i	i	n/a
484.4435	0.075	968887	keystroke_g	g	n/a
484.5785	0.075	969157	keystroke_n	n	n/a
485.0285	0.075	970057	keystroke_Key.space	Key.space	n/a
485.3285	0.075	970657	keystroke_e	e	n/a
485.4785	0.075	970957	keystroke_n	n	n/a
485.6135	0.075	971227	keystroke_t	t	n/a
486.1985	0.06	972397	keystroke_r	r	n/a
486.3185	0.06	972637	keystroke_e	e	n/a
486.603	0.105	973206	keystroke_p	p	n/a
486.813	0.075	973626	keystroke_r	r	n/a
486.963	0.09	973926	keystroke_e	e	n/a
487.668	0.06	975336	keystroke_n	n	n/a
488.103	0.03	976206	keystroke_e	e	n/a
488.238	0.075	976476	keystroke_u	u	n/a
488.358	0.09	976716	keystroke_r	r	n/a
488.553	0.09	977106	keystroke_Key.space	Key.space	n/a
489.273	0.06	978546	keystroke_a	a	n/a
489.648	0.075	979296	keystroke_c	c	n/a
489.858	0.09	979716	keystroke_r	r	n/a
490.278	0.06	980556	keystroke_o	o	n/a
490.473	0.06	980946	keystroke_s	s	n/a
490.608	0.075	981216	keystroke_s	s	n/a
490.773	0.06	981546	keystroke_Key.space	Key.space	n/a
491.0575	0.09	982115	keystroke_v	v	n/a
491.2825	0.135	982565	keystroke_e	e	n/a
491.4035	0.089	982807	keystroke_r	r	n/a
492.1525	0.075	984305	keystroke_d	d	n/a
492.3475	0.046	984695	keystroke_e	e	n/a
492.6475	0.091	985295	keystroke_Key.enter	Key.enter	n/a
492.7425	7.4375	985485	prompt	n/a	tale permission avoiding chef\n
493.5035	0.105	987007	keystroke_t	t	n/a
493.6235	0.075	987247	keystroke_a	a	n/a
493.7435	0.09	987487	keystroke_l	l	n/a
493.8785	0.075	987757	keystroke_e	e	n/a
493.9225	0.136	987845	keystroke_Key.space	Key.space	n/a
495.7675	0.105	991535	keystroke_p	p	n/a
495.8875	0.0905	991775	keystroke_e	e	n/a
495.9325	0.0905	991865	keystroke_r	r	n/a
496.038	0.135	992076	keystroke_m	m	n/a
496.158	0.105	992316	keystroke_i	i	n/a
496.368	0.075	992736	keystroke_s	s	n/a
496.518	0.075	993036	keystroke_s	s	n/a
496.638	0.06	993276	keystroke_i	i	n/a
496.683	0.135	993366	keystroke_o	o	n/a
496.803	0.15	993606	keystroke_n	n	n/a
496.983	0.105	993966	keystroke_Key.space	Key.space	n/a
497.148	0.075	994296	keystroke_a	a	n/a
497.373	0.09	994746	keystroke_v	v	n/a
497.523	0.105	995046	keystroke_o	o	n/a
497.583	0.15	995166	keystroke_i	i	n/a
497.943	0.075	995886	keystroke_d	d	n/a
498.033	0.12	996066	keystroke_i	i	n/a
498.108	0.12	996216	keystroke_n	n	n/a
498.213	0.075	996426	keystroke_g	g	n/a
498.363	0.105	996726	keystroke_Key.space	Key.space	n/a
498.918	0.09	997836	keystroke_c	c	n/a
499.023	0.075	998046	keystroke_h	h	n/a
499.099	0.074	998198	keystroke_e	e	n/a
499.563	0.075	999126	keystroke_f	f	n/a
500.1185	0.06	1000237	keystroke_Key.enter	Key.enter	n/a
500.1855	10.674	1000371	prompt	n/a	manage instruction flexible universal\n
501.048	0.09	1002096	keystroke_m	m	n/a
501.183	0.06	1002366	keystroke_a	a	n/a
501.258	0.09	1002516	keystroke_n	n	n/a
501.393	0.03	1002786	keystroke_a	a	n/a
501.513	0.06	1003026	keystroke_g	g	n/a
501.678	0.06	1003356	keystroke_e	e	n/a
501.783	0.12	1003566	keystroke_Key.space	Key.space	n/a
501.918	0.15	1003836	keystroke_i	i	n/a
502.008	0.12	1004016	keystroke_n	n	n/a
502.143	0.075	1004286	keystroke_s	s	n/a
502.323	0.075	1004646	keystroke_t	t	n/a
503.013	0.06	1006026	keystroke_r	r	n/a
503.163	0.06	1006326	keystroke_u	u	n/a
503.268	0.045	1006536	keystroke_c	c	n/a
503.433	0.06	1006866	keystroke_t	t	n/a
503.508	0.135	1007016	keystroke_i	i	n/a
503.628	0.12	1007256	keystroke_o	o	n/a
503.688	0.165	1007376	keystroke_n	n	n/a
503.868	0.105	1007736	keystroke_Key.space	Key.space	n/a
504.138	0.075	1008276	keystroke_f	f	n/a
504.303	0.09	1008606	keystroke_l	l	n/a
504.423	0.075	1008846	keystroke_e	e	n/a
504.993	0.09	1009986	keystroke_x	x	n/a
505.188	0.09	1010376	keystroke_i	i	n/a
505.6685	0.105	1011337	keystroke_b	b	n/a
505.8635	0.12	1011727	keystroke_l	l	n/a
506.0135	0.06	1012027	keystroke_e	e	n/a
506.5235	0.105	1013047	keystroke_Key.space	Key.space	n/a
506.7935	0.075	1013587	keystroke_i	i	n/a
506.9435	0.1345	1013887	keystroke_n	n	n/a
507.1085	0.0895	1014217	keystroke_v	v	n/a
507.123	0.03	1014246	keystroke_i	i	n/a
507.3335	0.15	1014667	keystroke_e	e	n/a
507.4385	0.104	1014877	keystroke_r	r	n/a
507.7835	0.0595	1015567	keystroke_Key.backspace	Key.backspace	n/a
507.933	0.045	1015866	keystroke_Key.backspace	Key.backspace	n/a
508.068	0.045	1016136	keystroke_Key.backspace	Key.backspace	n/a
508.218	0.045	1016436	keystroke_Key.backspace	Key.backspace	n/a
508.368	0.045	1016736	keystroke_Key.backspace	Key.backspace	n/a
508.728	0.0755	1017456	keystroke_Key.backspace	Key.backspace	n/a
509.3435	0.135	1018687	keystroke_u	u	n/a
509.4935	0.12	1018987	keystroke_n	n	n/a
509.5985	0.105	1019197	keystroke_i	i	n/a
509.6735	0.075	1019347	keystroke_v	v	n/a
509.8535	0.15	1019707	keystroke_e	e	n/a
509.9735	0.12	1019947	keystroke_r	r	n/a
510.1385	0.09	1020277	keystroke_a	a	n/a
510.3335	0.075	1020667	keystroke_s	s	n/a
510.6185	0.09	1021237	keystroke_l	l	n/a
510.7685	0.089	1021537	keystroke_Key.enter	Key.enter	n/a
510.8625	26.832	1021725	prompt	n/a	portuguese apparent hugh drove\n
513.7705	0.001	1027541	keystroke_p	p	n/a
513.9035	0.075	1027807	keystroke_o	o	n/a
514.3535	0.075	1028707	keystroke_r	r	n/a
515.4935	0.075	1030987	keystroke_t	t	n/a
515.7185	0.06	1031437	keystroke_u	u	n/a
515.9885	0.09	1031977	keystroke_g	g	n/a
517.023	0.075	1034046	keystroke_u	u	n/a
517.218	0.075	1034436	keystroke_e	e	n/a
517.518	0.06	1035036	keystroke_e	e	n/a
518.1935	0.15	1036387	keystroke_Key.backspace	Key.backspace	n/a
518.3585	0.075	1036717	keystroke_s	s	n/a
518.4035	0.09	1036807	keystroke_e	e	n/a
518.6285	0.075	1037257	keystroke_Key.space	Key.space	n/a
521.06	0.013	1042120	keystroke_Key.backspace	Key.backspace	n/a
521.253	0.045	1042506	keystroke_Key.backspace	Key.backspace	n/a
521.403	0.075	1042806	keystroke_Key.backspace	Key.backspace	n/a
521.568	0.06	1043136	keystroke_Key.backspace	Key.backspace	n/a
521.733	0.06	1043466	keystroke_Key.backspace	Key.backspace	n/a
526.13	0.013	1052260	keystroke_u	u	n/a
526.503	0.06	1053006	keystroke_e	e	n/a
526.698	0.135	1053396	keystroke_s	s	n/a
526.803	0.105	1053606	keystroke_e	e	n/a
527.1935	0.12	1054387	keystroke_Key.space	Key.space	n/a
533.1055	0.028	1066211	keystroke_a	a	n/a
533.2685	0.015	1066537	keystroke_p	p	n/a
533.3585	0.06	1066717	keystroke_p	p	n/a
533.4485	0.09	1066897	keystroke_a	a	n/a
533.5835	0.12	1067167	keystroke_r	r	n/a
533.6885	0.075	1067377	keystroke_e	e	n/a
533.7935	0.075	1067587	keystroke_n	n	n/a
533.8985	0.09	1067797	keystroke_t	t	n/a
534.0185	0.12	1068037	keystroke_Key.space	Key.space	n/a
534.2585	0.045	1068517	keystroke_h	h	n/a
534.4235	0.06	1068847	keystroke_u	u	n/a
535.203	0.075	1070406	keystroke_g	g	n/a
535.323	0.075	1070646	keystroke_h	h	n/a
535.713	0.105	1071426	keystroke_Key.space	Key.space	n/a
536.793	0.06	1073586	keystroke_d	d	n/a
536.943	0.105	1073886	keystroke_o	o	n/a
537.063	0.105	1074126	keystroke_v	v	n/a
537.198	0.09	1074396	keystroke_e	e	n/a
537.6025	0.09	1075205	keystroke_Key.enter	Key.enter	n/a
537.6975	10.167	1075395	prompt	n/a	andrea payments aurora christian\n
540.29	0.028	1080580	keystroke_a	a	n/a
540.408	0.105	1080816	keystroke_n	n	n/a
541.053	0.105	1082106	keystroke_d	d	n/a
541.398	0.135	1082796	keystroke_r	r	n/a
541.548	0.135	1083096	keystroke_e	e	n/a
541.653	0.105	1083306	keystroke_a	a	n/a
541.848	0.105	1083696	keystroke_Key.space	Key.space	n/a
542.013	0.1345	1084026	keystroke_p	p	n/a
542.2825	0.105	1084565	keystroke_a	a	n/a
542.4325	0.075	1084865	keystroke_y	y	n/a
542.7175	0.09	1085435	keystroke_m	m	n/a
542.8525	0.09	1085705	keystroke_e	e	n/a
542.9575	0.09	1085915	keystroke_n	n	n/a
543.0625	0.09	1086125	keystroke_t	t	n/a
543.6025	0.03	1087205	keystroke_s	s	n/a
543.6925	0.105	1087385	keystroke_Key.space	Key.space	n/a
544.1875	0.06	1088375	keystroke_a	a	n/a
544.3825	0.105	1088765	keystroke_u	u	n/a
544.6675	0.09	1089335	keystroke_r	r	n/a
544.8025	0.09	1089605	keystroke_o	o	n/a
544.9825	0.075	1089965	keystroke_r	r	n/a
545.0875	0.075	1090175	keystroke_a	a	n/a
545.253	0.09	1090506	keystroke_Key.space	Key.space	n/a
545.493	0.09	1090986	keystroke_c	c	n/a
545.613	0.105	1091226	keystroke_h	h	n/a
545.733	0.105	1091466	keystroke_r	r	n/a
545.853	0.09	1091706	keystroke_i	i	n/a
546.258	0.09	1092516	keystroke_s	s	n/a
546.693	0.06	1093386	keystroke_t	t	n/a
546.813	0.12	1093626	keystroke_i	i	n/a
546.948	0.045	1093896	keystroke_a	a	n/a
547.638	0.06	1095276	keystroke_n	n	n/a
547.803	0.06	1095606	keystroke_Key.enter	Key.enter	n/a
547.8675	6.2075	1095735	prompt	n/a	sword banned mails judge\n
548.853	0.06	1097706	keystroke_s	s	n/a
549.048	0.06	1098096	keystroke_w	w	n/a
549.258	0.105	1098516	keystroke_o	o	n/a
549.364	0.089	1098728	keystroke_r	r	n/a
549.588	0.06	1099176	keystroke_d	d	n/a
549.723	0.105	1099446	keystroke_Key.space	Key.space	n/a
550.203	0.075	1100406	keystroke_b	b	n/a
550.323	0.045	1100646	keystroke_a	a	n/a
550.428	0.075	1100856	keystroke_n	n	n/a
550.593	0.06	1101186	keystroke_n	n	n/a
550.683	0.075	1101366	keystroke_e	e	n/a
550.848	0.06	1101696	keystroke_d	d	n/a
550.923	0.12	1101846	keystroke_Key.space	Key.space	n/a
551.088	0.105	1102176	keystroke_m	m	n/a
551.268	0.09	1102536	keystroke_a	a	n/a
551.448	0.12	1102896	keystroke_i	i	n/a
551.569	0.089	1103138	keystroke_l	l	n/a
551.688	0.09	1103376	keystroke_s	s	n/a
551.808	0.09	1103616	keystroke_Key.space	Key.space	n/a
552.093	0.12	1104186	keystroke_j	j	n/a
553.263	0.105	1106526	keystroke_u	u	n/a
553.4575	0.0755	1106915	keystroke_d	d	n/a
553.653	0.075	1107306	keystroke_g	g	n/a
553.803	0.075	1107606	keystroke_e	e	n/a
554.013	0.06	1108026	keystroke_Key.enter	Key.enter	n/a
554.0775	8.607	1108155	prompt	n/a	holy insights python expenditure\n
555.018	0.075	1110036	keystroke_h	h	n/a
555.168	0.06	1110336	keystroke_o	o	n/a
555.363	0.045	1110726	keystroke_l	l	n/a
555.558	0.105	1111116	keystroke_y	y	n/a
555.648	0.1495	1111296	keystroke_Key.space	Key.space	n/a
555.8125	0.15	1111625	keystroke_i	i	n/a
555.9025	0.12	1111805	keystroke_n	n	n/a
556.3225	0.12	1112645	keystroke_s	s	n/a
556.488	0.105	1112976	keystroke_i	i	n/a
556.608	0.06	1113216	keystroke_g	g	n/a
556.683	0.105	1113366	keystroke_h	h	n/a
556.803	0.09	1113606	keystroke_t	t	n/a
556.998	0.09	1113996	keystroke_s	s	n/a
557.193	0.075	1114386	keystroke_Key.space	Key.space	n/a
557.778	0.075	1115556	keystroke_p	p	n/a
558.108	0.075	1116216	keystroke_y	y	n/a
558.348	0.06	1116696	keystroke_t	t	n/a
558.423	0.09	1116846	keystroke_h	h	n/a
558.543	0.135	1117086	keystroke_o	o	n/a
558.663	0.135	1117326	keystroke_n	n	n/a
558.843	0.135	1117686	keystroke_Key.space	Key.space	n/a
559.998	0.045	1119996	keystroke_e	e	n/a
560.238	0.075	1120476	keystroke_x	x	n/a
560.373	0.09	1120746	keystroke_p	p	n/a
560.583	0.045	1121166	keystroke_e	e	n/a
560.868	0.075	1121736	keystroke_n	n	n/a
561.678	0.09	1123356	keystroke_d	d	n/a
561.843	0.105	1123686	keystroke_i	i	n/a
561.963	0.105	1123926	keystroke_t	t	n/a
562.113	0.09	1124226	keystroke_u	u	n/a
562.248	0.12	1124496	keystroke_r	r	n/a
562.353	0.09	1124706	keystroke_e	e	n/a
562.638	0.045	1125276	keystroke_Key.enter	Key.enter	n/a
562.6875	5.832	1125375	prompt	n/a	tree inline threshold truth\n
563.628	0.06	1127256	keystroke_t	t	n/a
563.928	0.09	1127856	keystroke_r	r	n/a
564.093	0.06	1128186	keystroke_e	e	n/a
564.243	0.075	1128486	keystroke_e	e	n/a
564.378	0.12	1128756	keystroke_Key.space	Key.space	n/a
564.933	0.09	1129866	keystroke_i	i	n/a
565.113	0.06	1130226	keystroke_n	n	n/a
565.353	0.12	1130706	keystroke_l	l	n/a
565.488	0.165	1130976	keystroke_i	i	n/a
565.608	0.135	1131216	keystroke_n	n	n/a
565.8475	0.075	1131695	keystroke_e	e	n/a
565.9975	0.09	1131995	keystroke_Key.space	Key.space	n/a
566.223	0.06	1132446	keystroke_t	t	n/a
566.298	0.075	1132596	keystroke_h	h	n/a
566.417	0.135	1132834	keystroke_r	r	n/a
566.537	0.09	1133074	keystroke_e	e	n/a
566.732	0.091	1133464	keystroke_s	s	n/a
566.898	0.119	1133796	keystroke_h	h	n/a
567.033	0.09	1134066	keystroke_o	o	n/a
567.242	0.06	1134484	keystroke_l	l	n/a
567.362	0.09	1134724	keystroke_d	d	n/a
567.453	0.104	1134906	keystroke_Key.space	Key.space	n/a
567.618	0.089	1135236	keystroke_t	t	n/a
567.827	0.06	1135654	keystroke_r	r	n/a
567.902	0.091	1135804	keystroke_u	u	n/a
568.037	0.076	1136074	keystroke_t	t	n/a
568.157	0.075	1136314	keystroke_h	h	n/a
568.472	0.045	1136944	keystroke_Key.enter	Key.enter	n/a
568.5225	11.0965	1137045	prompt	n/a	struggle disabilities automatic coins\n
569.448	0.06	1138896	keystroke_s	s	n/a
569.583	0.075	1139166	keystroke_t	t	n/a
569.763	0.075	1139526	keystroke_r	r	n/a
569.868	0.09	1139736	keystroke_u	u	n/a
570.033	0.045	1140066	keystroke_g	g	n/a
570.183	0.03	1140366	keystroke_g	g	n/a
570.258	0.075	1140516	keystroke_l	l	n/a
570.378	0.075	1140756	keystroke_e	e	n/a
570.468	0.09	1140936	keystroke_Key.space	Key.space	n/a
570.603	0.075	1141206	keystroke_d	d	n/a
570.693	0.075	1141386	keystroke_i	i	n/a
571.218	0.075	1142436	keystroke_s	s	n/a
571.353	0.06	1142706	keystroke_a	a	n/a
571.533	0.09	1143066	keystroke_b	b	n/a
571.713	0.075	1143426	keystroke_i	i	n/a
571.893	0.105	1143786	keystroke_l	l	n/a
572.043	0.045	1144086	keystroke_i	i	n/a
573.0475	0.075	1146095	keystroke_t	t	n/a
573.1975	0.075	1146395	keystroke_i	i	n/a
573.2875	0.12	1146575	keystroke_e	e	n/a
573.3775	0.105	1146755	keystroke_s	s	n/a
573.5875	0.105	1147175	keystroke_Key.space	Key.space	n/a
574.652	0.045	1149304	keystroke_a	a	n/a
574.787	0.06	1149574	keystroke_u	u	n/a
574.892	0.09	1149784	keystroke_t	t	n/a
575.102	0.1205	1150204	keystroke_o	o	n/a
575.837	0.09	1151674	keystroke_m	m	n/a
575.972	0.12	1151944	keystroke_a	a	n/a
576.047	0.09	1152094	keystroke_t	t	n/a
576.182	0.09	1152364	keystroke_i	i	n/a
576.332	0.09	1152664	keystroke_c	c	n/a
576.482	0.075	1152964	keystroke_Key.space	Key.space	n/a
576.812	0.015	1153624	keystroke_a	a	n/a
576.872	0.105	1153744	keystroke_o	o	n/a
576.932	0.18	1153864	keystroke_i	i	n/a
577.067	0.105	1154134	keystroke_n	n	n/a
577.202	0.075	1154404	keystroke_s	s	n/a
577.697	0.045	1155394	keystroke_Key.backspace	Key.backspace	n/a
577.892	0.015	1155784	keystroke_Key.backspace	Key.backspace	n/a
577.982	0.045	1155964	keystroke_Key.backspace	Key.backspace	n/a
578.132	0.045	1156264	keystroke_Key.backspace	Key.backspace	n/a
578.297	0.045	1156594	keystroke_Key.backspace	Key.backspace	n/a
578.657	0.075	1157314	keystroke_c	c	n/a
578.897	0.18	1157794	keystroke_o	o	n/a
579.047	0.135	1158094	keystroke_i	i	n/a
579.152	0.09	1158304	keystroke_n	n	n/a
579.377	0.06	1158754	keystroke_s	s	n/a
579.587	0.03	1159174	keystroke_Key.enter	Key.enter	n/a
579.6225	9.387	1159245	prompt	n/a	pacific router consolidation signal\n
580.7125	0.1045	1161425	keystroke_p	p	n/a
580.8325	0.0445	1161665	keystroke_a	a	n/a
580.967	0.091	1161934	keystroke_c	c	n/a
581.073	0.075	1162146	keystroke_i	i	n/a
581.283	0.075	1162566	keystroke_f	f	n/a
581.403	0.09	1162806	keystroke_i	i	n/a
581.643	0.09	1163286	keystroke_c	c	n/a
581.748	0.12	1163496	keystroke_Key.space	Key.space	n/a
582.063	0.06	1164126	keystroke_w	w	n/a
582.183	0.12	1164366	keystroke_o	o	n/a
582.273	0.105	1164546	keystroke_u	u	n/a
582.6925	0.0305	1165385	keystroke_Key.backspace	Key.backspace	n/a
582.8275	0.045	1165655	keystroke_Key.backspace	Key.backspace	n/a
582.978	0.0445	1165956	keystroke_Key.backspace	Key.backspace	n/a
583.7725	0.06	1167545	keystroke_r	r	n/a
583.8625	0.15	1167725	keystroke_o	o	n/a
583.982	0.1055	1167964	keystroke_u	u	n/a
584.1175	0.0745	1168235	keystroke_t	t	n/a
584.327	0.09	1168654	keystroke_e	e	n/a
584.402	0.075	1168804	keystroke_r	r	n/a
585.407	0.105	1170814	keystroke_Key.space	Key.space	n/a
585.632	0.105	1171264	keystroke_c	c	n/a
585.752	0.12	1171504	keystroke_o	o	n/a
585.857	0.105	1171714	keystroke_n	n	n/a
586.067	0.06	1172134	keystroke_s	s	n/a
586.172	0.09	1172344	keystroke_o	o	n/a
586.382	0.075	1172764	keystroke_l	l	n/a
586.503	0.09	1173006	keystroke_i	i	n/a
586.608	0.105	1173216	keystroke_d	d	n/a
586.728	0.1345	1173456	keystroke_a	a	n/a
586.8475	0.075	1173695	keystroke_t	t	n/a
586.9675	0.06	1173935	keystroke_i	i	n/a
586.9825	0.15	1173965	keystroke_o	o	n/a
587.0875	0.195	1174175	keystroke_n	n	n/a
587.2675	0.12	1174535	keystroke_Key.space	Key.space	n/a
587.6125	0.06	1175225	keystroke_s	s	n/a
588.062	0.105	1176124	keystroke_i	i	n/a
588.287	0.105	1176574	keystroke_g	g	n/a
588.512	0.075	1177024	keystroke_n	n	n/a
588.647	0.045	1177294	keystroke_a	a	n/a
588.752	0.09	1177504	keystroke_l	l	n/a
588.947	0.06	1177894	keystroke_Key.enter	Key.enter	n/a
589.014	7.09	1178028	prompt	n/a	simple minerals applying setting\n
589.908	0.059	1179816	keystroke_s	s	n/a
589.982	0.135	1179964	keystroke_i	i	n/a
590.148	0.194	1180296	keystroke_m	m	n/a
590.433	0.09	1180866	keystroke_p	p	n/a
590.642	0.06	1181284	keystroke_l	l	n/a
590.762	0.075	1181524	keystroke_e	e	n/a
590.882	0.105	1181764	keystroke_Key.space	Key.space	n/a
591.107	0.091	1182214	keystroke_m	m	n/a
591.242	0.151	1182484	keystroke_i	i	n/a
591.377	0.076	1182754	keystroke_n	n	n/a
591.498	0.134	1182996	keystroke_e	e	n/a
591.587	0.091	1183174	keystroke_r	r	n/a
591.753	0.089	1183506	keystroke_s	s	n/a
592.2175	0.075	1184435	keystroke_Key.backspace	Key.backspace	n/a
592.4275	0.09	1184855	keystroke_a	a	n/a
592.6075	0.075	1185215	keystroke_l	l	n/a
592.7275	0.075	1185455	keystroke_s	s	n/a
592.8475	0.105	1185695	keystroke_Key.space	Key.space	n/a
593.4325	0.045	1186865	keystroke_a	a	n/a
593.5075	0.06	1187015	keystroke_p	p	n/a
593.6725	0.045	1187345	keystroke_p	p	n/a
593.8525	0.075	1187705	keystroke_l	l	n/a
594.0625	0.105	1188125	keystroke_y	y	n/a
594.2125	0.165	1188425	keystroke_i	i	n/a
594.3175	0.135	1188635	keystroke_n	n	n/a
594.4675	0.06	1188935	keystroke_g	g	n/a
594.5125	0.12	1189025	keystroke_Key.space	Key.space	n/a
594.6475	0.09	1189295	keystroke_s	s	n/a
594.7825	0.09	1189565	keystroke_t	t	n/a
595.2175	0.075	1190435	keystroke_Key.backspace	Key.backspace	n/a
595.3225	0.09	1190645	keystroke_e	e	n/a
595.4275	0.09	1190855	keystroke_t	t	n/a
595.6225	0.045	1191245	keystroke_t	t	n/a
595.7275	0.09	1191455	keystroke_i	i	n/a
595.7725	0.12	1191545	keystroke_n	n	n/a
595.8775	0.06	1191755	keystroke_g	g	n/a
596.0575	0.045	1192115	keystroke_Key.enter	Key.enter	n/a
596.1075	10.0015	1192215	prompt	n/a	ghana manufacturing icon portable\n
597.6175	0.075	1195235	keystroke_g	g	n/a
597.8275	0.045	1195655	keystroke_h	h	n/a
597.9325	0.075	1195865	keystroke_a	a	n/a
598.0825	0.075	1196165	keystroke_n	n	n/a
598.2025	0.075	1196405	keystroke_a	a	n/a
598.3825	0.105	1196765	keystroke_Key.space	Key.space	n/a
598.7125	0.075	1197425	keystroke_m	m	n/a
599.3125	0.105	1198625	keystroke_a	a	n/a
599.7475	0.075	1199495	keystroke_n	n	n/a
599.9575	0.075	1199915	keystroke_u	u	n/a
600.3925	0.09	1200785	keystroke_f	f	n/a
600.5425	0.105	1201085	keystroke_a	a	n/a
600.7525	0.09	1201505	keystroke_t	t	n/a
600.9175	0.075	1201835	keystroke_u	u	n/a
601.0375	0.075	1202075	keystroke_r	r	n/a
601.8925	0.045	1203785	keystroke_Key.backspace	Key.backspace	n/a
602.0125	0.045	1204025	keystroke_Key.backspace	Key.backspace	n/a
602.1625	0.03	1204325	keystroke_Key.backspace	Key.backspace	n/a
602.4775	0.075	1204955	keystroke_c	c	n/a
602.7025	0.075	1205405	keystroke_t	t	n/a
602.8675	0.09	1205735	keystroke_u	u	n/a
602.9875	0.075	1205975	keystroke_r	r	n/a
603.1225	0.165	1206245	keystroke_i	i	n/a
603.2425	0.12	1206485	keystroke_n	n	n/a
603.3475	0.075	1206695	keystroke_g	g	n/a
603.5125	0.105	1207025	keystroke_Key.space	Key.space	n/a
604.2625	0.09	1208525	keystroke_i	i	n/a
604.3675	0.105	1208735	keystroke_c	c	n/a
604.5175	0.135	1209035	keystroke_o	o	n/a
604.6375	0.15	1209275	keystroke_n	n	n/a
604.8025	0.075	1209605	keystroke_Key.space	Key.space	n/a
604.9975	0.0895	1209995	keystroke_p	p	n/a
605.207	0.075	1210414	keystroke_o	o	n/a
605.267	0.076	1210534	keystroke_r	r	n/a
605.462	0.06	1210924	keystroke_t	t	n/a
605.538	0.074	1211076	keystroke_a	a	n/a
605.658	0.074	1211316	keystroke_b	b	n/a
605.807	0.075	1211614	keystroke_l	l	n/a
605.898	0.074	1211796	keystroke_e	e	n/a
606.047	0.06	1212094	keystroke_Key.enter	Key.enter	n/a
606.1125	9.5665	1212225	prompt	n/a	dive surfaces coaching activists\n
606.857	0.091	1213714	keystroke_d	d	n/a
607.053	0.104	1214106	keystroke_i	i	n/a
607.173	0.104	1214346	keystroke_v	v	n/a
607.307	0.106	1214614	keystroke_e	e	n/a
607.427	0.105	1214854	keystroke_Key.space	Key.space	n/a
607.592	0.09	1215184	keystroke_s	s	n/a
607.758	0.044	1215516	keystroke_u	u	n/a
607.892	0.076	1215784	keystroke_r	r	n/a
608.118	0.059	1216236	keystroke_v	v	n/a
608.792	0.0755	1217584	keystroke_Key.backspace	Key.backspace	n/a
609.3475	0.045	1218695	keystroke_g	g	n/a
609.6025	0.075	1219205	keystroke_a	a	n/a
610.0225	0.045	1220045	keystroke_Key.backspace	Key.backspace	n/a
610.1425	0.075	1220285	keystroke_Key.backspace	Key.backspace	n/a
611.0275	0.075	1222055	keystroke_f	f	n/a
611.1775	0.105	1222355	keystroke_a	a	n/a
611.3875	0.09	1222775	keystroke_c	c	n/a
611.5375	0.09	1223075	keystroke_e	e	n/a
611.7025	0.06	1223405	keystroke_s	s	n/a
611.8975	0.12	1223795	keystroke_Key.space	Key.space	n/a
612.167	0.075	1224334	keystroke_c	c	n/a
612.272	0.105	1224544	keystroke_o	o	n/a
612.392	0.075	1224784	keystroke_a	a	n/a
612.572	0.06	1225144	keystroke_c	c	n/a
612.662	0.105	1225324	keystroke_h	h	n/a
612.782	0.1805	1225564	keystroke_i	i	n/a
612.9025	0.135	1225805	keystroke_n	n	n/a
613.0375	0.09	1226075	keystroke_g	g	n/a
613.1575	0.12	1226315	keystroke_Key.space	Key.space	n/a
613.7425	0.09	1227485	keystroke_a	a	n/a
613.8775	0.105	1227755	keystroke_c	c	n/a
614.2675	0.06	1228535	keystroke_t	t	n/a
614.3725	0.09	1228745	keystroke_i	i	n/a
614.5675	0.09	1229135	keystroke_v	v	n/a
614.6425	0.09	1229285	keystroke_i	i	n/a
614.7925	0.09	1229585	keystroke_s	s	n/a
615.2875	0.06	1230575	keystroke_t	t	n/a
615.4225	0.06	1230845	keystroke_s	s	n/a
615.6025	0.075	1231205	keystroke_Key.enter	Key.enter	n/a
615.684	11.44	1231368	prompt	n/a	edwards written effectively infections\n
616.5775	0.06	1233155	keystroke_e	e	n/a
616.7575	0.075	1233515	keystroke_d	d	n/a
617.4025	0.06	1234805	keystroke_w	w	n/a
617.4925	0.18	1234985	keystroke_a	a	n/a
617.6125	0.12	1235225	keystroke_r	r	n/a
617.8525	0.135	1235705	keystroke_d	d	n/a
617.9425	0.105	1235885	keystroke_s	s	n/a
618.0775	0.09	1236155	keystroke_Key.space	Key.space	n/a
618.3475	0.075	1236695	keystroke_w	w	n/a
619.5325	0.09	1239065	keystroke_r	r	n/a
619.6525	0.105	1239305	keystroke_i	i	n/a
619.7725	0.06	1239545	keystroke_t	t	n/a
619.9375	0.03	1239875	keystroke_t	t	n/a
620.0425	0.06	1240085	keystroke_e	e	n/a
620.1925	0.135	1240385	keystroke_n	n	n/a
620.3125	0.075	1240625	keystroke_Key.space	Key.space	n/a
620.4175	0.09	1240835	keystroke_e	e	n/a
620.6125	0.06	1241225	keystroke_f	f	n/a
620.7475	0.075	1241495	keystroke_f	f	n/a
621.0025	0.0895	1242005	keystroke_i	i	n/a
621.632	0.075	1243264	keystroke_Key.backspace	Key.backspace	n/a
621.947	0.06	1243894	keystroke_e	e	n/a
622.127	0.09	1244254	keystroke_c	c	n/a
622.352	0.045	1244704	keystroke_t	t	n/a
622.427	0.09	1244854	keystroke_i	i	n/a
622.788	0.09	1245576	keystroke_v	v	n/a
622.968	0.075	1245936	keystroke_e	e	n/a
623.088	0.074	1246176	keystroke_l	l	n/a
623.298	0.075	1246596	keystroke_y	y	n/a
623.522	0.09	1247044	keystroke_Key.space	Key.space	n/a
623.733	0.1045	1247466	keystroke_i	i	n/a
623.8525	0.105	1247705	keystroke_n	n	n/a
624.0325	0.075	1248065	keystroke_c	c	n/a
624.2125	0.12	1248425	keystroke_e	e	n/a
