onset	duration	sample	value	key	prompt_text
14.246	10.3205	28492	prompt	n/a	the quick brown fox jumps over a lazy dog\n
15.2075	0	30415	keystroke	t	n/a
15.3235	0.075	30647	keystroke	h	n/a
15.4135	0.09	30827	keystroke	e	n/a
15.6085	0.09	31217	keystroke	Key.space	n/a
15.834	0.12	31668	keystroke	q	n/a
15.969	0.0895	31938	keystroke	u	n/a
16.1185	0.075	32237	keystroke	i	n/a
16.2235	0.075	32447	keystroke	c	n/a
16.3585	0.075	32717	keystroke	k	n/a
16.5535	0.0905	33107	keystroke	Key.space	n/a
16.839	0.09	33678	keystroke	b	n/a
17.0045	0.075	34009	keystroke	r	n/a
17.619	0.06	35238	keystroke	o	n/a
17.724	0.075	35448	keystroke	w	n/a
17.889	0.06	35778	keystroke	n	n/a
18.1145	0.015	36229	keystroke	Key.space	n/a
18.8945	0.06	37789	keystroke	f	n/a
18.999	0.075	37998	keystroke	o	n/a
19.254	0.105	38508	keystroke	x	n/a
19.449	0.045	38898	keystroke	Key.space	n/a
19.554	0.09	39108	keystroke	j	n/a
19.719	0.075	39438	keystroke	u	n/a
19.929	0.06	39858	keystroke	m	n/a
20.109	0.045	40218	keystroke	p	n/a
20.199	0.12	40398	keystroke	s	n/a
20.289	0.12	40578	keystroke	Key.space	n/a
20.574	0.09	41148	keystroke	o	n/a
20.949	0.09	41898	keystroke	v	n/a
21.054	0.075	42108	keystroke	e	n/a
21.234	0.105	42468	keystroke	r	n/a
21.294	0.075	42588	keystroke	Key.space	n/a
21.474	0.1195	42948	keystroke	a	n/a
21.5635	0.09	43127	keystroke	Key.space	n/a
21.6685	0.09	43337	keystroke	l	n/a
21.7735	0.09	43547	keystroke	a	n/a
21.9535	0.105	43907	keystroke	z	n/a
22.164	0.06	44328	keystroke	y	n/a
22.359	0.1205	44718	keystroke	Key.space	n/a
22.794	0.06	45588	keystroke	d	n/a
22.869	0.09	45738	keystroke	o	n/a
23.199	0.045	46398	keystroke	g	n/a
24.534	0.03	49068	keystroke	Key.enter	n/a
24.571	8.2895	49142	prompt	n/a	expects laundry causes prefers\n
25.359	0.075	50718	keystroke	e	n/a
25.599	0.075	51198	keystroke	x	n/a
25.719	0.09	51438	keystroke	p	n/a
25.884	0.105	51768	keystroke	e	n/a
26.109	0.06	52218	keystroke	c	n/a
26.274	0.09	52548	keystroke	t	n/a
26.409	0.12	52818	keystroke	s	n/a
26.499	0.09	52998	keystroke	Key.space	n/a
26.964	0.0905	53928	keystroke	l	n/a
27.0845	0.105	54169	keystroke	a	n/a
27.2045	0.075	54409	keystroke	u	n/a
27.3995	0.075	54799	keystroke	n	n/a
27.5045	0.075	55009	keystroke	d	n/a
27.6995	0.045	55399	keystroke	r	n/a
27.8645	0.105	55729	keystroke	e	n/a
28.0445	0.105	56089	keystroke	Key.space	n/a
28.3445	0.09	56689	keystroke	c	n/a
28.7645	0.06	57529	keystroke	Key.backspace	n/a
28.899	0.075	57798	keystroke	Key.backspace	n/a
29.0495	0.09	58099	keystroke	Key.backspace	n/a
29.6345	0.075	59269	keystroke	y	n/a
29.6945	0.06	59389	keystroke	Key.space	n/a
29.8745	0.09	59749	keystroke	c	n/a
30.0245	0.12	60049	keystroke	a	n/a
30.1145	0.075	60229	keystroke	u	n/a
30.2195	0.105	60439	keystroke	s	n/a
30.5045	0.015	61009	keystroke	e	n/a
30.6245	0.1195	61249	keystroke	s	n/a
30.714	0.105	61428	keystroke	Key.space	n/a
30.879	0.09	61758	keystroke	p	n/a
30.999	0.06	61998	keystroke	r	n/a
31.149	0.075	62298	keystroke	e	n/a
31.659	0.075	63318	keystroke	f	n/a
31.749	0.06	63498	keystroke	e	n/a
31.854	0.09	63708	keystroke	r	n/a
32.004	0.09	64008	keystroke	s	n/a
32.799	0.06	65598	keystroke	Key.enter	n/a
32.864	16.407	65728	prompt	n/a	beside diving mediawiki prerequisite\n
33.789	0.09	67578	keystroke	b	n/a
33.894	0.06	67788	keystroke	e	n/a
34.089	0.075	68178	keystroke	d	n/a
34.299	0.045	68598	keystroke	i	n/a
34.554	0.06	69108	keystroke	Key.backspace	n/a
34.974	0.045	69948	keystroke	Key.backspace	n/a
35.124	0.075	70248	keystroke	s	n/a
35.229	0.09	70458	keystroke	i	n/a
35.349	0.09	70698	keystroke	d	n/a
35.574	0.135	71148	keystroke	e	n/a
35.724	0.105	71448	keystroke	Key.space	n/a
37.014	0.09	74028	keystroke	d	n/a
37.119	0.09	74238	keystroke	i	n/a
37.389	0.09	74778	keystroke	v	n/a
37.524	0.075	75048	keystroke	i	n/a
37.644	0.12	75288	keystroke	n	n/a
37.794	0.09	75588	keystroke	g	n/a
38.454	0.09	76908	keystroke	Key.space	n/a
38.634	0.12	77268	keystroke	m	n/a
38.724	0.09	77448	keystroke	e	n/a
39.624	0.045	79248	keystroke	f	n/a
39.699	0.105	79398	keystroke	i	n/a
39.834	0.12	79668	keystroke	a	n/a
40.404	0.015	80808	keystroke	Key.backspace	n/a
40.479	0.09	80958	keystroke	Key.backspace	n/a
40.629	0.075	81258	keystroke	Key.backspace	n/a
40.719	0.075	81438	keystroke	d	n/a
40.854	0.105	81708	keystroke	i	n/a
40.974	0.12	81948	keystroke	a	n/a
41.589	0.075	83178	keystroke	w	n/a
41.694	0.075	83388	keystroke	i	n/a
41.859	0.105	83718	keystroke	k	n/a
42.039	0.09	84078	keystroke	i	n/a
42.474	0.075	84948	keystroke	Key.space	n/a
43.044	0.075	86088	keystroke	p	n/a
43.779	0.09	87558	keystroke	r	n/a
43.959	0.075	87918	keystroke	e	n/a
44.694	0.015	89388	keystroke	r	n/a
45.745	0.059	91490	keystroke	e	n/a
45.895	0.074	91790	keystroke	q	n/a
46.795	0.09	93590	keystroke	u	n/a
46.944	0.106	93888	keystroke	i	n/a
47.079	0.075	94158	keystroke	s	n/a
47.17	0.09	94340	keystroke	i	n/a
47.53	0.09	95060	keystroke	t	n/a
47.8	0.075	95600	keystroke	e	n/a
49.225	0.044	98450	keystroke	Key.enter	n/a
49.2745	8.082	98549	prompt	n/a	seek terror band computation\n
50.08	0.075	100160	keystroke	s	n/a
50.365	0.06	100730	keystroke	e	n/a
50.545	0.06	101090	keystroke	e	n/a
50.74	0.06	101480	keystroke	j	n/a
51.13	0.075	102260	keystroke	Key.backspace	n/a
51.4	0.075	102800	keystroke	k	n/a
51.52	0.105	103040	keystroke	Key.space	n/a
52.225	0.075	104450	keystroke	t	n/a
52.345	0.09	104690	keystroke	e	n/a
52.525	0.075	105050	keystroke	r	n/a
52.675	0.075	105350	keystroke	r	n/a
52.765	0.075	105530	keystroke	o	n/a
52.87	0.105	105740	keystroke	r	n/a
53.335	0.09	106670	keystroke	Key.space	n/a
53.89	0.09	107780	keystroke	b	n/a
53.995	0.105	107990	keystroke	a	n/a
54.115	0.09	108230	keystroke	n	n/a
54.22	0.135	108440	keystroke	d	n/a
54.325	0.12	108650	keystroke	Key.space	n/a
54.715	0.105	109430	keystroke	c	n/a
54.835	0.09	109670	keystroke	o	n/a
55	0.09	110000	keystroke	m	n/a
55.18	0.075	110360	keystroke	p	n/a
55.405	0.105	110810	keystroke	u	n/a
55.63	0.075	111260	keystroke	t	n/a
55.93	0.06	111860	keystroke	a	n/a
56.17	0.06	112340	keystroke	t	n/a
56.215	0.09	112430	keystroke	i	n/a
56.35	0.09	112700	keystroke	o	n/a
56.5	0.09	113000	keystroke	n	n/a
57.295	0.06	114590	keystroke	Key.enter	n/a
57.3595	13.3475	114719	prompt	n/a	stopping instructions nominated brass\n
57.955	0.075	115910	keystroke	s	n/a
58.405	0.06	116810	keystroke	t	n/a
58.48	0.075	116960	keystroke	o	n/a
58.66	0.075	117320	keystroke	p	n/a
58.81	0.09	117620	keystroke	p	n/a
59.035	0.075	118070	keystroke	i	n/a
59.245	0.075	118490	keystroke	n	n/a
59.335	0.075	118670	keystroke	g	n/a
59.98	0.105	119960	keystroke	Key.space	n/a
60.22	0.075	120440	keystroke	i	n/a
60.37	0.105	120740	keystroke	n	n/a
60.46	0.105	120920	keystroke	s	n/a
60.79	0.075	121580	keystroke	t	n/a
60.97	0.09	121940	keystroke	r	n/a
61.9	0.09	123800	keystroke	u	n/a
62.035	0.09	124070	keystroke	c	n/a
62.305	0.09	124610	keystroke	i	n/a
62.575	0.09	125150	keystroke	t	n/a
62.71	0.09	125420	keystroke	i	n/a
62.98	0.06	125960	keystroke	Key.backspace	n/a
63.13	0.075	126260	keystroke	Key.backspace	n/a
63.28	0.105	126560	keystroke	Key.backspace	n/a
63.4	0.075	126800	keystroke	t	n/a
63.52	0.09	127040	keystroke	i	n/a
63.67	0.105	127340	keystroke	o	n/a
63.865	0.09	127730	keystroke	n	n/a
63.97	0.12	127940	keystroke	s	n/a
64.87	0.105	129740	keystroke	Key.space	n/a
65.14	0.09	130280	keystroke	n	n/a
65.29	0.105	130580	keystroke	o	n/a
65.485	0.105	130970	keystroke	m	n/a
65.665	0.09	131330	keystroke	i	n/a
65.815	0.12	131630	keystroke	n	n/a
65.936	0.089	131872	keystroke	a	n/a
66.19	0.06	132380	keystroke	t	n/a
66.76	0.06	133520	keystroke	e	n/a
66.94	0.105	133880	keystroke	d	n/a
67.945	0.09	135890	keystroke	Key.space	n/a
68.365	0.09	136730	keystroke	b	n/a
68.47	0.12	136940	keystroke	r	n/a
69.0395	0.0905	138079	keystroke	a	n/a
69.325	0.0895	138650	keystroke	s	n/a
69.505	0.0595	139010	keystroke	s	n/a
70.6445	0.06	141289	keystroke	Key.enter	n/a
70.7095	6.687	141419	prompt	n/a	bone mood after thrown\n
71.6495	0.075	143299	keystroke	b	n/a
71.7695	0.105	143539	keystroke	o	n/a
71.9345	0.06	143869	keystroke	n	n/a
72.0245	0.12	144049	keystroke	e	n/a
72.1295	0.105	144259	keystroke	Key.space	n/a
72.6395	0.105	145279	keystroke	m	n/a
72.8195	0.09	145639	keystroke	o	n/a
72.9695	0.075	145939	keystroke	o	n/a
73.0595	0.15	146119	keystroke	d	n/a
73.1645	0.105	146329	keystroke	Key.space	n/a
73.869	0.105	147738	keystroke	a	n/a
74.214	0.12	148428	keystroke	f	n/a
74.349	0.09	148698	keystroke	t	n/a
74.44	0.149	148880	keystroke	e	n/a
74.59	0.164	149180	keystroke	r	n/a
74.739	0.12	149478	keystroke	Key.space	n/a
75.429	0.075	150858	keystroke	t	n/a
75.699	0.15	151398	keystroke	h	n/a
75.864	0.09	151728	keystroke	r	n/a
75.999	0.105	151998	keystroke	o	n/a
76.209	0.075	152418	keystroke	w	n/a
76.374	0.09	152748	keystroke	n	n/a
77.319	0.075	154638	keystroke	Key.enter	n/a
77.404	10.912	154808	prompt	n/a	plane cloud grades ministries\n
78.8345	0.06	157669	keystroke	p	n/a
78.9545	0.105	157909	keystroke	l	n/a
79.0745	0.12	158149	keystroke	a	n/a
79.2245	0.105	158449	keystroke	n	n/a
79.3445	0.165	158689	keystroke	e	n/a
79.4945	0.09	158989	keystroke	Key.space	n/a
79.9145	0.075	159829	keystroke	c	n/a
80.0195	0.12	160039	keystroke	l	n/a
80.4245	0.09	160849	keystroke	o	n/a
80.6345	0.09	161269	keystroke	u	n/a
80.7995	0.15	161599	keystroke	d	n/a
81.0095	0.105	162019	keystroke	Key.space	n/a
82.1195	0.105	164239	keystroke	g	n/a
82.2545	0.12	164509	keystroke	r	n/a
82.5545	0.135	165109	keystroke	a	n/a
82.7195	0.135	165439	keystroke	d	n/a
82.9595	0.09	165919	keystroke	e	n/a
83.1845	0.135	166369	keystroke	s	n/a
83.3045	0.105	166609	keystroke	Key.space	n/a
84.0095	0.105	168019	keystroke	m	n/a
84.1895	0.075	168379	keystroke	i	n/a
84.3245	0.12	168649	keystroke	n	n/a
84.4895	0.09	168979	keystroke	i	n/a
84.5345	0.12	169069	keystroke	s	n/a
84.8645	0.06	169729	keystroke	t	n/a
85.8995	0.09	171799	keystroke	r	n/a
86.9345	0.09	173869	keystroke	i	n/a
87.0245	0.06	174049	keystroke	e	n/a
87.2045	0.09	174409	keystroke	s	n/a
88.2245	0.09	176449	keystroke	Key.enter	n/a
88.319	11.442	176638	prompt	n/a	moreover wisdom perry those're\n
89.1395	0.09	178279	keystroke	m	n/a
89.2895	0.12	178579	keystroke	o	n/a
89.4845	0.105	178969	keystroke	r	n/a
89.6195	0.09	179239	keystroke	e	n/a
89.8295	0.09	179659	keystroke	o	n/a
90.0995	0.075	180199	keystroke	v	n/a
90.2045	0.15	180409	keystroke	e	n/a
90.3245	0.165	180649	keystroke	r	n/a
90.4445	0.135	180889	keystroke	Key.space	n/a
91.2545	0.165	182509	keystroke	w	n/a
91.4795	0.105	182959	keystroke	i	n/a
92.6795	0.075	185359	keystroke	s	n/a
92.8895	0.06	185779	keystroke	f	n/a
93.3845	0.09	186769	keystroke	Key.backspace	n/a
93.4445	0.105	186889	keystroke	d	n/a
93.5645	0.105	187129	keystroke	o	n/a
93.8045	0.075	187609	keystroke	m	n/a
94.2995	0.09	188599	keystroke	Key.space	n/a
94.6145	0.06	189229	keystroke	p	n/a
94.6895	0.105	189379	keystroke	e	n/a
94.8395	0.045	189679	keystroke	r	n/a
94.9595	0.09	189919	keystroke	r	n/a
95.2145	0.09	190429	keystroke	y	n/a
95.3645	0.09	190729	keystroke	Key.space	n/a
96.5645	0.09	193129	keystroke	t	n/a
96.6555	0.089	193311	keystroke	h	n/a
96.8495	0.09	193699	keystroke	o	n/a
97.1495	0.09	194299	keystroke	s	n/a
97.3595	0.105	194719	keystroke	e	n/a
98.5595	0.075	197119	keystroke	'	n/a
98.6495	0.12	197299	keystroke	r	n/a
98.7545	0.075	197509	keystroke	e	n/a
99.7445	0.015	199489	keystroke	Key.enter	n/a
99.7645	6.731	199529	prompt	n/a	shut mods duration hint\n
100.5995	0.075	201199	keystroke	s	n/a
100.7045	0.09	201409	keystroke	h	n/a
100.8695	0.105	201739	keystroke	u	n/a
100.9895	0.15	201979	keystroke	t	n/a
101.154	0.0755	202308	keystroke	Key.space	n/a
101.8295	0.09	203659	keystroke	m	n/a
101.9795	0.0895	203959	keystroke	o	n/a
102.084	0.09	204168	keystroke	d	n/a
102.534	0.105	205068	keystroke	s	n/a
102.684	0.0905	205368	keystroke	Key.space	n/a
103.045	0.089	206090	keystroke	d	n/a
103.194	0.0755	206388	keystroke	u	n/a
103.554	0.105	207108	keystroke	r	n/a
103.8695	0.1195	207739	keystroke	a	n/a
104.364	0.06	208728	keystroke	t	n/a
104.425	0.0745	208850	keystroke	i	n/a
104.574	0.135	209148	keystroke	o	n/a
104.739	0.12	209478	keystroke	n	n/a
104.874	0.105	209748	keystroke	Key.space	n/a
105.129	0.105	210258	keystroke	h	n/a
105.294	0.075	210588	keystroke	i	n/a
105.444	0.105	210888	keystroke	n	n/a
105.609	0.075	211218	keystroke	t	n/a
106.434	0.06	212868	keystroke	Key.enter	n/a
106.4985	11.6225	212997	prompt	n/a	panic represent mailto tomorrow\n
107.3495	0.0745	214699	keystroke	p	n/a
107.484	0.12	214968	keystroke	a	n/a
107.605	0.074	215210	keystroke	n	n/a
107.739	0.09	215478	keystroke	i	n/a
107.964	0.09	215928	keystroke	c	n/a
108.159	0.12	216318	keystroke	Key.space	n/a
108.654	0.105	217308	keystroke	r	n/a
108.774	0.09	217548	keystroke	e	n/a
109.554	0.09	219108	keystroke	p	n/a
109.629	0.12	219258	keystroke	r	n/a
109.734	0.09	219468	keystroke	e	n/a
109.974	0.105	219948	keystroke	s	n/a
110.229	0.105	220458	keystroke	e	n/a
110.379	0.105	220758	keystroke	n	n/a
110.499	0.12	220998	keystroke	t	n/a
111.099	0.105	222198	keystroke	Key.space	n/a
111.264	0.105	222528	keystroke	m	n/a
111.384	0.105	222768	keystroke	a	n/a
111.534	0.12	223068	keystroke	i	n/a
111.804	0.105	223608	keystroke	l	n/a
111.939	0.075	223878	keystroke	t	n/a
112.089	0.09	224178	keystroke	o	n/a
112.479	0.06	224958	keystroke	Key.space	n/a
112.674	0.105	225348	keystroke	t	n/a
112.764	0.075	225528	keystroke	o	n/a
112.974	0.105	225948	keystroke	m	n/a
113.214	0.075	226428	keystroke	o	n/a
113.994	0.06	227988	keystroke	w	n/a
114.174	0.106	228348	keystroke	w	n/a
114.579	0.075	229158	keystroke	Key.backspace	n/a
114.729	0.075	229458	keystroke	Key.backspace	n/a
114.819	0.075	229638	keystroke	e	n/a
114.969	0.031	229938	keystroke	o	n/a
115.239	0.09	230478	keystroke	Key.backspace	n/a
115.419	0.09	230838	keystroke	Key.backspace	n/a
115.585	0.09	231170	keystroke	r	n/a
115.78	0.075	231560	keystroke	r	n/a
115.899	0.106	231798	keystroke	o	n/a
116.32	0.09	232640	keystroke	w	n/a
118.06	0.059	236120	keystroke	Key.enter	n/a
118.124	14.487	236248	prompt	n/a	woods latina cemetery oregon\n
118.93	0.075	237860	keystroke	w	n/a
119.034	0.076	238068	keystroke	o	n/a
119.184	0.091	238368	keystroke	o	n/a
119.29	0.135	238580	keystroke	d	n/a
119.59	0.119	239180	keystroke	s	n/a
119.68	0.134	239360	keystroke	Key.space	n/a
119.905	0.105	239810	keystroke	l	n/a
119.98	0.105	239960	keystroke	a	n/a
120.219	0.091	240438	keystroke	t	n/a
120.34	0.09	240680	keystroke	i	n/a
120.49	0.105	240980	keystroke	n	n/a
120.61	0.135	241220	keystroke	a	n/a
120.759	0.091	241518	keystroke	Key.space	n/a
121.5245	0.09	243049	keystroke	c	n/a
121.7045	0.09	243409	keystroke	m	n/a
121.8545	0.075	243709	keystroke	e	n/a
122.4545	0.06	244909	keystroke	Key.backspace	n/a
122.5745	0.075	245149	keystroke	Key.backspace	n/a
122.6495	0.075	245299	keystroke	e	n/a
122.7695	0.105	245539	keystroke	m	n/a
122.8595	0.09	245719	keystroke	e	n/a
122.9795	0.09	245959	keystroke	n	n/a
123.0845	0.06	246169	keystroke	t	n/a
123.7595	0.09	247519	keystroke	e	n/a
123.9095	0.105	247819	keystroke	y	n/a
124.0295	0.075	248059	keystroke	r	n/a
124.2845	0.06	248569	keystroke	Key.backspace	n/a
124.4195	0.09	248839	keystroke	Key.backspace	n/a
124.4945	0.105	248989	keystroke	r	n/a
124.6595	0.09	249319	keystroke	y	n/a
124.8995	0.12	249799	keystroke	Key.space	n/a
128.067	0.027	256134	keystroke	Key.backspace	n/a
128.169	0.075	256338	keystroke	Key.backspace	n/a
128.319	0.075	256638	keystroke	Key.backspace	n/a
128.469	0.09	256938	keystroke	Key.backspace	n/a
128.634	0.075	257268	keystroke	Key.backspace	n/a
128.799	0.09	257598	keystroke	Key.backspace	n/a
129.309	0.075	258618	keystroke	t	n/a
129.414	0.165	258828	keystroke	e	n/a
129.594	0.09	259188	keystroke	r	n/a
129.774	0.09	259548	keystroke	y	n/a
129.939	0.12	259878	keystroke	Key.space	n/a
130.824	0.06	261648	keystroke	o	n/a
130.929	0.09	261858	keystroke	r	n/a
131.109	0.105	262218	keystroke	e	n/a
131.529	0.0755	263058	keystroke	g	n/a
131.6345	0.12	263269	keystroke	o	n/a
131.9045	0.075	263809	keystroke	n	n/a
132.5345	0.075	265069	keystroke	Key.enter	n/a
132.614	14.009	265228	prompt	n/a	specialty faith robust beginning\n
133.3445	0.09	266689	keystroke	s	n/a
133.4645	0.105	266929	keystroke	p	n/a
133.5995	0.09	267199	keystroke	e	n/a
133.8995	0.075	267799	keystroke	c	n/a
133.9895	0.105	267979	keystroke	i	n/a
134.1095	0.12	268219	keystroke	a	n/a
134.2745	0.105	268549	keystroke	l	n/a
134.4845	0.09	268969	keystroke	t	n/a
134.8295	0.105	269659	keystroke	y	n/a
134.9645	0.12	269929	keystroke	Key.space	n/a
135.6095	0.09	271219	keystroke	f	n/a
135.7745	0.105	271549	keystroke	a	n/a
135.9095	0.09	271819	keystroke	i	n/a
136.0445	0.075	272089	keystroke	t	n/a
136.1795	0.09	272359	keystroke	h	n/a
136.6595	0.09	273319	keystroke	Key.space	n/a
137.0795	0.03	274159	keystroke	t	n/a
137.1695	0.105	274339	keystroke	o	n/a
137.4695	0.045	274939	keystroke	Key.backspace	n/a
137.6045	0.09	275209	keystroke	Key.backspace	n/a
137.7245	0.105	275449	keystroke	r	n/a
137.9645	0.09	275929	keystroke	o	n/a
138.6995	0.09	277399	keystroke	b	n/a
138.8345	0.09	277669	keystroke	u	n/a
138.8945	0.09	277789	keystroke	s	n/a
139.1045	0.075	278209	keystroke	t	n/a
139.1945	0.12	278389	keystroke	Key.space	n/a
140.0195	0.105	280039	keystroke	b	n/a
140.1395	0.075	280279	keystroke	e	n/a
140.5745	0.105	281149	keystroke	g	n/a
140.6945	0.075	281389	keystroke	i	n/a
140.8895	0.075	281779	keystroke	n	n/a
141.0405	0.089	282081	keystroke	n	n/a
141.1745	0.105	282349	keystroke	i	n/a
141.2945	0.09	282589	keystroke	g	n/a
141.5645	0.12	283129	keystroke	Key.space	n/a
142.6595	0.075	285319	keystroke	Key.backspace	n/a
142.8395	0.105	285679	keystroke	Key.backspace	n/a
143.6795	0.06	287359	keystroke	n	n/a
143.7845	0.06	287569	keystroke	g	n/a
146.621	0	293242	keystroke	Key.enter	n/a
146.6255	11.6355	293251	prompt	n/a	beast templates defendant institute\n
147.519	0.09	295038	keystroke	b	n/a
147.594	0.09	295188	keystroke	e	n/a
147.834	0.18	295668	keystroke	a	n/a
147.999	0.105	295998	keystroke	s	n/a
148.134	0.09	296268	keystroke	t	n/a
148.314	0.105	296628	keystroke	Key.space	n/a
149.094	0.03	298188	keystroke	t	n/a
149.154	0.105	298308	keystroke	e	n/a
149.859	0.06	299718	keystroke	m	n/a
149.979	0.075	299958	keystroke	p	n/a
150.129	0.105	300258	keystroke	l	n/a
150.279	0.135	300558	keystroke	a	n/a
150.594	0.075	301188	keystroke	t	n/a
150.684	0.075	301368	keystroke	e	n/a
150.909	0.135	301818	keystroke	s	n/a
151.059	0.12	302118	keystroke	Key.space	n/a
151.374	0.075	302748	keystroke	d	n/a
151.659	0.015	303318	keystroke	e	n/a
151.989	0.09	303978	keystroke	f	n/a
152.154	0.12	304308	keystroke	e	n/a
152.739	0.075	305478	keystroke	n	n/a
152.919	0.105	305838	keystroke	d	n/a
153.294	0.105	306588	keystroke	a	n/a
153.699	0.09	307398	keystroke	n	n/a
153.849	0.06	307698	keystroke	t	n/a
154.149	0.105	308298	keystroke	Key.space	n/a
154.944	0.015	309888	keystroke	i	n/a
155.004	0.105	310008	keystroke	n	n/a
155.094	0.09	310188	keystroke	s	n/a
155.349	0.075	310698	keystroke	t	n/a
155.469	0.12	310938	keystroke	i	n/a
155.604	0.09	311208	keystroke	t	n/a
155.799	0.09	311598	keystroke	u	n/a
156.264	0.075	312528	keystroke	e	n/a
156.939	0.12	313878	keystroke	Key.backspace	n/a
157.075	0.014	314150	keystroke	t	n/a
157.209	0.09	314418	keystroke	e	n/a
158.199	0.06	316398	keystroke	Key.enter	n/a
158.264	14.007	316528	prompt	n/a	payable nvidia sponsored treatments\n
159.01	0.074	318020	keystroke	p	n/a
159.114	0.106	318228	keystroke	a	n/a
159.504	0.091	319008	keystroke	y	n/a
159.61	0.135	319220	keystroke	a	n/a
160.419	0.106	320838	keystroke	b	n/a
160.63	0.119	321260	keystroke	l	n/a
160.72	0.135	321440	keystroke	e	n/a
160.809	0.121	321618	keystroke	Key.space	n/a
161.695	0.089	323390	keystroke	n	n/a
162.1	0.06	324200	keystroke	v	n/a
162.205	0.09	324410	keystroke	i	n/a
162.34	0.075	324680	keystroke	d	n/a
162.475	0.075	324950	keystroke	i	n/a
162.91	0.15	325820	keystroke	a	n/a
163.06	0.1345	326120	keystroke	Key.space	n/a
163.7645	0.075	327529	keystroke	s	n/a
163.9145	0.12	327829	keystroke	p	n/a
164.6195	0.075	329239	keystroke	o	n/a
164.8295	0.09	329659	keystroke	n	n/a
164.9495	0.105	329899	keystroke	s	n/a
165.0845	0.075	330169	keystroke	o	n/a
165.3545	0.075	330709	keystroke	r	n/a
165.4745	0.09	330949	keystroke	e	n/a
165.7295	0.135	331459	keystroke	d	n/a
165.8945	0.09	331789	keystroke	Key.space	n/a
166.8995	0.09	333799	keystroke	t	n/a
167.1095	0.045	334219	keystroke	e	n/a
167.4095	0.09	334819	keystroke	Key.backspace	n/a
167.4245	0.15	334849	keystroke	r	n/a
167.5595	0.09	335119	keystroke	e	n/a
167.8145	0.12	335629	keystroke	a	n/a
167.9495	0.045	335899	keystroke	n	n/a
168.2045	0.06	336409	keystroke	Key.backspace	n/a
168.5495	0.03	337099	keystroke	Key.backspace	n/a
168.6395	0.045	337279	keystroke	t	n/a
169.0595	0.06	338119	keystroke	Key.backspace	n/a
169.1645	0.105	338329	keystroke	a	n/a
169.4795	0.075	338959	keystroke	t	n/a
170.0795	0.075	340159	keystroke	m	n/a
170.1545	0.09	340309	keystroke	e	n/a
170.2595	0.09	340519	keystroke	n	n/a
170.3945	0.09	340789	keystroke	t	n/a
170.7095	0.105	341419	keystroke	s	n/a
172.225	0.045	344450	keystroke	Key.enter	n/a
172.274	16.185	344548	prompt	n/a	diseases magnetic terrace shopzilla\n
173.2295	0.09	346459	keystroke	d	n/a
173.3645	0.09	346729	keystroke	i	n/a
173.4695	0.135	346939	keystroke	s	n/a
174.3395	0.075	348679	keystroke	e	n/a
174.5645	0.15	349129	keystroke	a	n/a
174.6845	0.105	349369	keystroke	s	n/a
174.9095	0.09	349819	keystroke	e	n/a
175.3295	0.105	350659	keystroke	s	n/a
175.5695	0.09	351139	keystroke	Key.space	n/a
175.8395	0.105	351679	keystroke	m	n/a
175.9295	0.105	351859	keystroke	a	n/a
176.2745	0.105	352549	keystroke	g	n/a
176.7395	0.09	353479	keystroke	n	n/a
176.7995	0.09	353599	keystroke	e	n/a
177.0095	0.09	354019	keystroke	t	n/a
177.0995	0.075	354199	keystroke	i	n/a
177.2945	0.09	354589	keystroke	c	n/a
177.5945	0.075	355189	keystroke	Key.space	n/a
178.4195	0.09	356839	keystroke	t	n/a
178.7345	0.105	357469	keystroke	e	n/a
178.9145	0.09	357829	keystroke	r	n/a
179.0795	0.09	358159	keystroke	r	n/a
179.2745	0.135	358549	keystroke	a	n/a
179.4395	0.09	358879	keystroke	c	n/a
179.5445	0.195	359089	keystroke	e	n/a
179.7245	0.075	359449	keystroke	Key.space	n/a
179.9345	0.105	359869	keystroke	s	n/a
180.0545	0.09	360109	keystroke	h	n/a
180.2795	0.09	360559	keystroke	o	n/a
180.6845	0.075	361369	keystroke	p	n/a
180.8345	0.09	361669	keystroke	t	n/a
181.1945	0.09	362389	keystroke	Key.backspace	n/a
181.3445	0.12	362689	keystroke	z	n/a
181.4945	0.09	362989	keystroke	i	n/a
181.7795	0.06	363559	keystroke	l	n/a
181.9145	0.09	363829	keystroke	l	n/a
182.0195	0.12	364039	keystroke	a	n/a
188.4565	0.001	376913	keystroke	Key.enter	n/a
188.462	7.779	376924	prompt	n/a	people fake katrina periods\n
189.3395	0.075	378679	keystroke	p	n/a
189.4295	0.09	378859	keystroke	e	n/a
189.5345	0.09	379069	keystroke	o	n/a
189.9245	0.075	379849	keystroke	p	n/a
190.0895	0.09	380179	keystroke	l	n/a
190.1495	0.105	380299	keystroke	e	n/a
190.2245	0.12	380449	keystroke	Key.space	n/a
190.6745	0.045	381349	keystroke	f	n/a
190.8245	0.135	381649	keystroke	a	n/a
191.0045	0.09	382009	keystroke	k	n/a
191.0955	0.134	382191	keystroke	e	n/a
191.1845	0.105	382369	keystroke	Key.space	n/a
192.0545	0.09	384109	keystroke	k	n/a
192.1145	0.075	384229	keystroke	a	n/a
192.3545	0.12	384709	keystroke	t	n/a
192.5195	0.09	385039	keystroke	r	n/a
192.6395	0.09	385279	keystroke	i	n/a
192.8195	0.105	385639	keystroke	n	n/a
192.9395	0.135	385879	keystroke	a	n/a
193.0895	0.12	386179	keystroke	Key.space	n/a
193.554	0.075	387108	keystroke	p	n/a
193.659	0.195	387318	keystroke	e	n/a
193.839	0.105	387678	keystroke	r	n/a
194.094	0.09	388188	keystroke	i	n/a
194.259	0.105	388518	keystroke	o	n/a
194.889	0.06	389778	keystroke	d	n/a
195.024	0.105	390048	keystroke	s	n/a
196.164	0.075	392328	keystroke	Key.enter	n/a
196.248	18.143	392496	prompt	n/a	enhancing finish pubmed philip\n
197.005	0.104	394010	keystroke	e	n/a
197.124	0.105	394248	keystroke	n	n/a
197.379	0.105	394758	keystroke	h	n/a
197.499	0.105	394998	keystroke	a	n/a
198.039	0.075	396078	keystroke	n	n/a
198.189	0.09	396378	keystroke	c	n/a
198.309	0.09	396618	keystroke	i	n/a
198.564	0.076	397128	keystroke	n	n/a
199.059	0.105	398118	keystroke	f	n/a
199.224	0.09	398448	keystroke	Key.space	n/a
199.689	0.06	399378	keystroke	Key.backspace	n/a
199.809	0.09	399618	keystroke	Key.backspace	n/a
199.87	0.134	399740	keystroke	f	n/a
200.019	0.105	400038	keystroke	Key.space	n/a
200.559	0.075	401118	keystroke	Key.backspace	n/a
200.709	0.075	401418	keystroke	Key.backspace	n/a
200.769	0.121	401538	keystroke	g	n/a
200.859	0.105	401718	keystroke	Key.space	n/a
201.865	0.075	403730	keystroke	f	n/a
201.984	0.075	403968	keystroke	i	n/a
202.105	0.12	404210	keystroke	n	n/a
202.27	0.09	404540	keystroke	i	n/a
202.585	0.165	405170	keystroke	s	n/a
202.945	0.105	405890	keystroke	h	n/a
203.035	0.105	406070	keystroke	Key.space	n/a
203.725	0.105	407450	keystroke	p	n/a
204.295	0.075	408590	keystroke	u	n/a
204.745	0.06	409490	keystroke	b	n/a
204.82	0.105	409640	keystroke	e	n/a
204.9695	0.0755	409939	keystroke	m	n/a
205.375	0.105	410750	keystroke	d	n/a
205.675	0.075	411350	keystroke	Key.backspace	n/a
205.824	0.076	411648	keystroke	Key.backspace	n/a
205.944	0.106	411888	keystroke	Key.backspace	n/a
206.155	0.105	412310	keystroke	m	n/a
206.215	0.06	412430	keystroke	e	n/a
206.395	0.135	412790	keystroke	d	n/a
206.545	0.105	413090	keystroke	Key.space	n/a
208.18	0.09	416360	keystroke	Key.backspace	n/a
208.375	0.075	416750	keystroke	Key.backspace	n/a
209.7995	0.075	419599	keystroke	d	n/a
210.0545	0.105	420109	keystroke	Key.backspace	n/a
210.5045	0.09	421009	keystroke	d	n/a
210.6545	0.12	421309	keystroke	Key.space	n/a
211.0295	0.075	422059	keystroke	p	n/a
211.2545	0.03	422509	keystroke	j	n/a
211.6445	0.09	423289	keystroke	Key.backspace	n/a
212.005	0.0895	424010	keystroke	h	n/a
212.2145	0.09	424429	keystroke	i	n/a
212.4995	0.06	424999	keystroke	l	n/a
213.3395	0.105	426679	keystroke	i	n/a
213.5495	0.105	427099	keystroke	p	n/a
214.3295	0.06	428659	keystroke	Key.enter	n/a
214.394	11.097	428788	prompt	n/a	indians often pepper space\n
215.1245	0.075	430249	keystroke	i	n/a
215.2595	0.12	430519	keystroke	n	n/a
215.3645	0.075	430729	keystroke	f	n/a
215.4845	0.105	430969	keystroke	i	n/a
215.6795	0.06	431359	keystroke	a	n/a
215.8895	0.06	431779	keystroke	Key.backspace	n/a
216.0395	0.075	432079	keystroke	Key.backspace	n/a
216.4595	0.075	432919	keystroke	d	n/a
216.6095	0.09	433219	keystroke	Key.backspace	n/a
216.7595	0.09	433519	keystroke	Key.backspace	n/a
216.8345	0.105	433669	keystroke	d	n/a
216.9845	0.09	433969	keystroke	i	n/a
217.0895	0.12	434179	keystroke	a	n/a
217.2245	0.075	434449	keystroke	n	n/a
217.3595	0.12	434719	keystroke	s	n/a
217.5695	0.135	435139	keystroke	Key.space	n/a
219.1295	0.075	438259	keystroke	o	n/a
219.4145	0.105	438829	keystroke	f	n/a
219.5645	0.09	439129	keystroke	t	n/a
219.6695	0.12	439339	keystroke	e	n/a
219.9395	0.09	439879	keystroke	n	n/a
220.0595	0.12	440119	keystroke	Key.space	n/a
220.5545	0.075	441109	keystroke	p	n/a
220.6745	0.09	441349	keystroke	e	n/a
220.8695	0.06	441739	keystroke	p	n/a
221.2145	0.09	442429	keystroke	Key.backspace	n/a
221.35	0.1045	442700	keystroke	p	n/a
221.4395	0.15	442879	keystroke	e	n/a
221.5745	0.165	443149	keystroke	r	n/a
221.7245	0.09	443449	keystroke	Key.space	n/a
221.9045	0.075	443809	keystroke	Key.backspace	n/a
222.0545	0.09	444109	keystroke	Key.backspace	n/a
222.2495	0.075	444499	keystroke	Key.backspace	n/a
222.3695	0.09	444739	keystroke	p	n/a
222.4745	0.15	444949	keystroke	e	n/a
222.6095	0.15	445219	keystroke	r	n/a
222.7295	0.135	445459	keystroke	Key.space	n/a
223.4795	0.09	446959	keystroke	s	n/a
223.5995	0.075	447199	keystroke	p	n/a
223.9445	0.075	447889	keystroke	a	n/a
224.3195	0.09	448639	keystroke	c	n/a
224.4845	0.105	448969	keystroke	e	n/a
225.4295	0.06	450859	keystroke	Key.enter	n/a
225.494	13.347	450988	prompt	n/a	physicians bottom flat previously\n
226.4795	0.075	452959	keystroke	p	n/a
226.6895	0.075	453379	keystroke	h	n/a
228.0545	0.075	456109	keystroke	y	n/a
228.1445	0.105	456289	keystroke	s	n/a
229.0145	0.075	458029	keystroke	i	n/a
229.1495	0.105	458299	keystroke	c	n/a
229.2695	0.075	458539	keystroke	i	n/a
230.0795	0.12	460159	keystroke	a	n/a
230.2145	0.09	460429	keystroke	n	n/a
230.3645	0.15	460729	keystroke	s	n/a
230.4695	0.135	460939	keystroke	Key.space	n/a
230.7095	0.09	461419	keystroke	b	n/a
230.9345	0.06	461869	keystroke	o	n/a
231.6245	0.06	463249	keystroke	t	n/a
231.7595	0.105	463519	keystroke	t	n/a
231.8655	0.089	463731	keystroke	o	n/a
232.0745	0.105	464149	keystroke	m	n/a
232.2245	0.105	464449	keystroke	Key.space	n/a
232.6595	0.105	465319	keystroke	f	n/a
232.8695	0.075	465739	keystroke	l	n/a
232.9895	0.105	465979	keystroke	a	n/a
233.4095	0.075	466819	keystroke	t	n/a
233.5895	0.09	467179	keystroke	Key.space	n/a
233.8895	0.075	467779	keystroke	p	n/a
234.0245	0.165	468049	keystroke	r	n/a
234.1595	0.12	468319	keystroke	e	n/a
235.0745	0.09	470149	keystroke	c	n/a
235.2245	0.105	470449	keystroke	i	n/a
235.5845	0.075	471169	keystroke	Key.backspace	n/a
235.7195	0.075	471439	keystroke	Key.backspace	n/a
235.7645	0.075	471529	keystroke	v	n/a
235.8845	0.105	471769	keystroke	i	n/a
236.9195	0.135	473839	keystroke	o	n/a
237.1595	0.12	474319	keystroke	u	n/a
237.2645	0.075	474529	keystroke	s	n/a
237.6245	0.105	475249	keystroke	l	n/a
237.9095	0.12	475819	keystroke	y	n/a
238.7645	0.075	477529	keystroke	Key.enter	n/a
238.8445	17.6705	477689	prompt	n/a	changing taxi doctrine breeds\n
239.6045	0.075	479209	keystroke	c	n/a
239.7095	0.0895	479419	keystroke	h	n/a
239.814	0.1205	479628	keystroke	a	n/a
239.919	0.105	479838	keystroke	n	n/a
240.294	0.075	480588	keystroke	g	n/a
240.504	0.0755	481008	keystroke	f	n/a
240.894	0.09	481788	keystroke	Key.backspace	n/a
241.0745	0.0895	482149	keystroke	i	n/a
241.2845	0.1045	482569	keystroke	n	n/a
241.419	0.091	482838	keystroke	f	n/a
242.094	0.09	484188	keystroke	Key.backspace	n/a
242.59	0.045	485180	keystroke	f	n/a
242.844	0.09	485688	keystroke	Key.backspace	n/a
242.889	0.105	485778	keystroke	g	n/a
243.009	0.12	486018	keystroke	Key.space	n/a
244.0745	0.06	488149	keystroke	t	n/a
244.2995	0.105	488599	keystroke	a	n/a
244.4645	0.12	488929	keystroke	x	n/a
244.5995	0.075	489199	keystroke	i	n/a
244.7345	0.12	489469	keystroke	Key.space	n/a
245.4095	0.03	490819	keystroke	d	n/a
245.4845	0.075	490969	keystroke	o	n/a
245.6795	0.09	491359	keystroke	c	n/a
246.4145	0.075	492829	keystroke	t	n/a
246.5495	0.105	493099	keystroke	r	n/a
246.6695	0.09	493339	keystroke	i	n/a
246.8195	0.135	493639	keystroke	n	n/a
247.0295	0.105	494059	keystroke	e	n/a
247.4645	0.1205	494929	keystroke	Key.space	n/a
248.1095	0.09	496219	keystroke	b	n/a
248.2295	0.105	496459	keystroke	r	n/a
248.3795	0.075	496759	keystroke	e	n/a
248.7245	0.075	497449	keystroke	e	n/a
248.9195	0.105	497839	keystroke	d	n/a
249.3395	0.09	498679	keystroke	s	n/a
256.512	0	513024	keystroke	Key.enter	n/a
256.5185	12.803	513037	prompt	n/a	reprints finnish passive hong\n
257.56	0.134	515120	keystroke	r	n/a
257.709	0.09	515418	keystroke	e	n/a
257.814	0.12	515628	keystroke	p	n/a
257.964	0.106	515928	keystroke	r	n/a
258.099	0.09	516198	keystroke	i	n/a
258.339	0.106	516678	keystroke	n	n/a
258.475	0.09	516950	keystroke	t	n/a
259.03	0.105	518060	keystroke	s	n/a
259.104	0.09	518208	keystroke	Key.space	n/a
259.66	0.089	519320	keystroke	f	n/a
259.75	0.074	519500	keystroke	i	n/a
259.869	0.121	519738	keystroke	n	n/a
260.005	0.105	520010	keystroke	i	n/a
260.14	0.09	520280	keystroke	s	n/a
260.934	0.075	521868	keystroke	Key.backspace	n/a
261.069	0.075	522138	keystroke	Key.backspace	n/a
261.295	0.075	522590	keystroke	n	n/a
261.565	0.09	523130	keystroke	i	n/a
261.685	0.135	523370	keystroke	s	n/a
262.39	0.09	524780	keystroke	h	n/a
262.465	0.105	524930	keystroke	Key.space	n/a
266.397	0.001	532794	keystroke	p	n/a
266.41	0.135	532820	keystroke	a	n/a
266.695	0.105	533390	keystroke	s	n/a
266.89	0.09	533780	keystroke	s	n/a
267.04	0.09	534080	keystroke	i	n/a
267.31	0.045	534620	keystroke	v	n/a
267.37	0.09	534740	keystroke	e	n/a
267.7	0.105	535400	keystroke	Key.space	n/a
268.33	0.045	536660	keystroke	h	n/a
268.45	0.105	536900	keystroke	o	n/a
268.6	0.09	537200	keystroke	n	n/a
268.69	0.09	537380	keystroke	g	n/a
269.26	0.06	538520	keystroke	Key.enter	n/a
269.3245	10.227	538649	prompt	n/a	river cowboy align genius\n
270.22	0.09	540440	keystroke	r	n/a
270.355	0.075	540710	keystroke	e	n/a
270.685	0.075	541370	keystroke	Key.backspace	n/a
270.85	0.09	541700	keystroke	i	n/a
270.895	0.06	541790	keystroke	v	n/a
271.12	0.18	542240	keystroke	e	n/a
271.27	0.12	542540	keystroke	r	n/a
271.51	0.12	543020	keystroke	Key.space	n/a
272.125	0.09	544250	keystroke	c	n/a
272.26	0.105	544520	keystroke	o	n/a
272.47	0.12	544940	keystroke	w	n/a
272.95	0.09	545900	keystroke	n	n/a
272.965	0.03	545930	keystroke	b	n/a
273.16	0.015	546320	keystroke	o	n/a
273.385	0.075	546770	keystroke	Key.backspace	n/a
273.535	0.075	547070	keystroke	Key.backspace	n/a
273.67	0.105	547340	keystroke	Key.backspace	n/a
274.135	0.06	548270	keystroke	b	n/a
274.285	0.12	548570	keystroke	o	n/a
274.51	0.09	549020	keystroke	y	n/a
274.645	0.135	549290	keystroke	Key.space	n/a
275.365	0.09	550730	keystroke	a	n/a
275.44	0.075	550880	keystroke	l	n/a
275.65	0.09	551300	keystroke	i	n/a
275.8	0.045	551600	keystroke	g	n/a
276.775	0.075	553550	keystroke	n	n/a
276.88	0.12	553760	keystroke	Key.space	n/a
277.6	0.075	555200	keystroke	g	n/a
277.69	0.105	555380	keystroke	e	n/a
277.81	0.105	555620	keystroke	n	n/a
277.975	0.105	555950	keystroke	i	n/a
278.785	0.075	557570	keystroke	u	n/a
278.89	0.12	557780	keystroke	s	n/a
279.49	0.06	558980	keystroke	Key.enter	n/a
279.556	8.9205	559112	prompt	n/a	illness making movers sullivan\n
280.615	0.045	561230	keystroke	i	n/a
280.75	0.06	561500	keystroke	l	n/a
280.87	0.09	561740	keystroke	l	n/a
281.08	0.09	562160	keystroke	n	n/a
281.155	0.09	562310	keystroke	e	n/a
281.455	0.135	562910	keystroke	s	n/a
281.71	0.09	563420	keystroke	s	n/a
281.875	0.105	563750	keystroke	Key.space	n/a
282.13	0.105	564260	keystroke	m	n/a
282.19	0.105	564380	keystroke	a	n/a
282.475	0.09	564950	keystroke	k	n/a
282.64	0.09	565280	keystroke	i	n/a
282.805	0.09	565610	keystroke	n	n/a
282.91	0.09	565820	keystroke	g	n/a
283.66	0.075	567320	keystroke	Key.space	n/a
283.75	0.06	567500	keystroke	m	n/a
283.855	0.1045	567710	keystroke	o	n/a
284.125	0.075	568250	keystroke	v	n/a
284.215	0.1645	568430	keystroke	e	n/a
284.365	0.1345	568730	keystroke	r	n/a
284.6495	0.1955	569299	keystroke	s	n/a
284.8295	0.105	569659	keystroke	Key.space	n/a
285.52	0.0745	571040	keystroke	s	n/a
285.6995	0.09	571399	keystroke	u	n/a
285.9695	0.045	571939	keystroke	l	n/a
286.1045	0.0605	572209	keystroke	l	n/a
286.2695	0.09	572539	keystroke	i	n/a
286.5695	0.09	573139	keystroke	v	n/a
286.7495	0.12	573499	keystroke	a	n/a
287.1395	0.075	574279	keystroke	n	n/a
288.3995	0.075	576799	keystroke	Key.enter	n/a
288.4795	6.762	576959	prompt	n/a	their approve boats antigua\n
289.4495	0.075	578899	keystroke	t	n/a
289.6295	0.105	579259	keystroke	h	n/a
289.7195	0.09	579439	keystroke	e	n/a
289.8395	0.09	579679	keystroke	i	n/a
290.1695	0.12	580339	keystroke	r	n/a
290.2445	0.09	580489	keystroke	Key.space	n/a
290.7845	0.03	581569	keystroke	a	n/a
290.8595	0.045	581719	keystroke	p	n/a
290.9645	0.12	581929	keystroke	p	n/a
291.0995	0.09	582199	keystroke	r	n/a
291.1595	0.09	582319	keystroke	o	n/a
291.4745	0.075	582949	keystroke	v	n/a
291.5645	0.12	583129	keystroke	e	n/a
291.6545	0.105	583309	keystroke	Key.space	n/a
292.4645	0.075	584929	keystroke	b	n/a
292.6145	0.12	585229	keystroke	o	n/a
292.7645	0.105	585529	keystroke	a	n/a
293.0045	0.075	586009	keystroke	t	n/a
293.1695	0.135	586339	keystroke	s	n/a
293.3195	0.09	586639	keystroke	Key.space	n/a
293.7245	0.09	587449	keystroke	a	n/a
293.8155	0.119	587631	keystroke	n	n/a
293.9945	0.075	587989	keystroke	t	n/a
294.0995	0.09	588199	keystroke	i	n/a
294.3095	0.075	588619	keystroke	g	n/a
294.4595	0.09	588919	keystroke	u	n/a
294.5645	0.105	589129	keystroke	a	n/a
295.1795	0.06	590359	keystroke	Key.enter	n/a
295.2445	24.9125	590489	prompt	n/a	curriculum admitted appearing anaheim\n
308.4125	0.028	616825	keystroke	c	n/a
308.4555	0.105	616911	keystroke	u	n/a
308.5905	0.105	617181	keystroke	r	n/a
308.7705	0.0745	617541	keystroke	r	n/a
308.83	0.1055	617660	keystroke	i	n/a
308.965	0.1205	617930	keystroke	c	n/a
309.0705	0.09	618141	keystroke	u	n/a
309.295	0.1205	618590	keystroke	l	n/a
310.2405	0.0745	620481	keystroke	u	n/a
310.4955	0.1045	620991	keystroke	m	n/a
310.585	0.135	621170	keystroke	Key.space	n/a
311.005	0.09	622010	keystroke	a	n/a
311.275	0.105	622550	keystroke	d	n/a
311.395	0.09	622790	keystroke	m	n/a
311.56	0.09	623120	keystroke	i	n/a
311.785	0.075	623570	keystroke	t	n/a
311.875	0.075	623750	keystroke	e	n/a
312.175	0.105	624350	keystroke	d	n/a
312.25	0.105	624500	keystroke	Key.space	n/a
313.9	0.06	627800	keystroke	Key.backspace	n/a
314.035	0.075	628070	keystroke	Key.backspace	n/a
314.2	0.09	628400	keystroke	Key.backspace	n/a
314.785	0.06	629570	keystroke	t	n/a
314.875	0.12	629750	keystroke	e	n/a
315.085	0.165	630170	keystroke	d	n/a
315.19	0.105	630380	keystroke	Key.space	n/a
315.385	0.12	630770	keystroke	a	n/a
315.49	0.075	630980	keystroke	p	n/a
315.655	0.09	631310	keystroke	p	n/a
316.075	0.105	632150	keystroke	e	n/a
316.3	0.135	632600	keystroke	a	n/a
316.585	0.12	633170	keystroke	r	n/a
316.72	0.09	633440	keystroke	i	n/a
316.87	0.105	633740	keystroke	n	n/a
316.99	0.09	633980	keystroke	g	n/a
317.215	0.09	634430	keystroke	Key.space	n/a
317.815	0.105	635630	keystroke	a	n/a
317.935	0.12	635870	keystroke	n	n/a
318.085	0.12	636170	keystroke	a	n/a
318.25	0.09	636500	keystroke	h	n/a
318.415	0.09	636830	keystroke	i	n/a
318.835	0.09	637670	keystroke	Key.backspace	n/a
318.91	0.09	637820	keystroke	e	n/a
319.046	0.104	638092	keystroke	i	n/a
319.345	0.09	638690	keystroke	m	n/a
320.095	0.06	640190	keystroke	Key.enter	n/a
320.16	12.357	640320	prompt	n/a	peas sheep universe developmental\n
321.04	0.075	642080	keystroke	e	n/a
321.325	0.09	642650	keystroke	Key.backspace	n/a
321.445	0.135	642890	keystroke	p	n/a
321.55	0.09	643100	keystroke	e	n/a
321.79	0.15	643580	keystroke	a	n/a
321.91	0.121	643820	keystroke	s	n/a
322.015	0.105	644030	keystroke	Key.space	n/a
322.361	0.104	644722	keystroke	s	n/a
322.48	0.09	644960	keystroke	h	n/a
322.615	0.075	645230	keystroke	e	n/a
322.765	0.106	645530	keystroke	e	n/a
322.901	0.0895	645802	keystroke	p	n/a
323.0645	0.075	646129	keystroke	Key.space	n/a
323.7545	0.09	647509	keystroke	u	n/a
323.92	0.1045	647840	keystroke	n	n/a
324.07	0.0595	648140	keystroke	i	n/a
324.2655	0.0895	648531	keystroke	v	n/a
324.3095	0.09	648619	keystroke	e	n/a
324.4905	0.105	648981	keystroke	r	n/a
324.7755	0.0895	649551	keystroke	s	n/a
324.9845	0.165	649969	keystroke	e	n/a
325.0745	0.105	650149	keystroke	Key.space	n/a
325.5245	0.09	651049	keystroke	d	n/a
325.6895	0.106	651379	keystroke	e	n/a
326.0505	0.12	652101	keystroke	b	n/a
326.1555	0.09	652311	keystroke	e	n/a
326.4995	0.075	652999	keystroke	Key.backspace	n/a
326.6345	0.106	653269	keystroke	Key.backspace	n/a
326.6955	0.09	653391	keystroke	v	n/a
326.8905	0.105	653781	keystroke	w	n/a
327.0255	0.105	654051	keystroke	l	n/a
327.2205	0.075	654441	keystroke	o	n/a
327.4305	0.09	654861	keystroke	Key.backspace	n/a
327.5805	0.06	655161	keystroke	Key.backspace	n/a
327.7155	0.075	655431	keystroke	Key.backspace	n/a
327.7755	0.09	655551	keystroke	e	n/a
327.9255	0.105	655851	keystroke	l	n/a
328.2555	0.075	656511	keystroke	p	n/a
328.8255	0.075	657651	keystroke	Key.backspace	n/a
329.0055	0.06	658011	keystroke	i	n/a
329.2755	0.09	658551	keystroke	Key.backspace	n/a
329.4105	0.075	658821	keystroke	o	n/a
329.5755	0.09	659151	keystroke	p	n/a
329.8005	0.09	659601	keystroke	m	n/a
330.3105	0.075	660621	keystroke	e	n/a
330.4155	0.105	660831	keystroke	n	n/a
330.5805	0.06	661161	keystroke	t	n/a
331.0455	0.105	662091	keystroke	a	n/a
331.1655	0.09	662331	keystroke	l	n/a
332.4555	0.06	664911	keystroke	Key.enter	n/a
332.5215	6.8505	665043	prompt	n/a	guest lucas isbn days\n
333.6255	0.075	667251	keystroke	g	n/a
333.7455	0.135	667491	keystroke	u	n/a
333.8655	0.075	667731	keystroke	e	n/a
334.0755	0.075	668151	keystroke	s	n/a
334.2105	0.09	668421	keystroke	t	n/a
334.3305	0.12	668661	keystroke	Key.space	n/a
334.6155	0.075	669231	keystroke	l	n/a
334.8555	0.045	669711	keystroke	u	n/a
334.9305	0.105	669861	keystroke	c	n/a
335.1405	0.18	670281	keystroke	a	n/a
335.3055	0.135	670611	keystroke	s	n/a
335.4555	0.105	670911	keystroke	Key.space	n/a
336.7605	0.12	673521	keystroke	i	n/a
336.8505	0.105	673701	keystroke	s	n/a
337.0305	0.105	674061	keystroke	b	n/a
337.5855	0.075	675171	keystroke	n	n/a
337.7655	0.12	675531	keystroke	Key.space	n/a
338.3355	0.12	676671	keystroke	d	n/a
338.5155	0.15	677031	keystroke	a	n/a
338.6505	0.105	677301	keystroke	y	n/a
338.7705	0.12	677541	keystroke	s	n/a
339.3255	0.045	678651	keystroke	Key.enter	n/a
339.3745	9.372	678749	prompt	n/a	architect heat fall complete\n
340.7205	0.12	681441	keystroke	a	n/a
340.9455	0.09	681891	keystroke	r	n/a
341.3805	0.045	682761	keystroke	c	n/a
341.4555	0.105	682911	keystroke	h	n/a
341.5905	0.075	683181	keystroke	u	n/a
341.9805	0.015	683961	keystroke	Key.backspace	n/a
342.0555	0.09	684111	keystroke	i	n/a
342.2805	0.075	684561	keystroke	t	n/a
342.5055	0.09	685011	keystroke	e	n/a
343.5105	0.06	687021	keystroke	c	n/a
344.2605	0.075	688521	keystroke	t	n/a
344.3805	0.09	688761	keystroke	Key.space	n/a
344.9055	0.09	689811	keystroke	h	n/a
344.9655	0.09	689931	keystroke	e	n/a
345.1455	0.135	690291	keystroke	a	n/a
345.2655	0.075	690531	keystroke	t	n/a
345.4005	0.105	690801	keystroke	Key.space	n/a
345.7755	0.105	691551	keystroke	f	n/a
346.0155	0.09	692031	keystroke	a	n/a
346.0905	0.075	692181	keystroke	l	n/a
346.2555	0.075	692511	keystroke	l	n/a
346.3605	0.12	692721	keystroke	Key.space	n/a
346.8405	0.09	693681	keystroke	c	n/a
346.9155	0.075	693831	keystroke	o	n/a
347.0805	0.075	694161	keystroke	m	n/a
347.2155	0.105	694431	keystroke	p	n/a
347.3655	0.09	694731	keystroke	l	n/a
347.4405	0.09	694881	keystroke	e	n/a
347.6355	0.09	695271	keystroke	t	n/a
347.8605	0.09	695721	keystroke	e	n/a
348.6855	0.06	697371	keystroke	Key.enter	n/a
348.7495	9.768	697499	prompt	n/a	theology holdings deutsch gets\n
349.675	0.0905	699350	keystroke	t	n/a
349.7805	0.075	699561	keystroke	h	n/a
349.885	0.1055	699770	keystroke	e	n/a
350.0655	0.09	700131	keystroke	o	n/a
350.4105	0.09	700821	keystroke	l	n/a
350.575	0.0755	701150	keystroke	o	n/a
350.98	0.0605	701960	keystroke	g	n/a
351.085	0.1055	702170	keystroke	y	n/a
351.22	0.105	702440	keystroke	Key.space	n/a
351.64	0.09	703280	keystroke	h	n/a
351.82	0.09	703640	keystroke	o	n/a
352.015	0.09	704030	keystroke	l	n/a
352.195	0.015	704390	keystroke	d	n/a
352.84	0.075	705680	keystroke	i	n/a
352.975	0.105	705950	keystroke	n	n/a
353.17	0.06	706340	keystroke	g	n/a
353.455	0.12	706910	keystroke	s	n/a
353.545	0.105	707090	keystroke	Key.space	n/a
353.89	0.075	707780	keystroke	d	n/a
354.07	0.105	708140	keystroke	e	n/a
354.49	0.12	708980	keystroke	u	n/a
354.595	0.105	709190	keystroke	t	n/a
355.435	0.105	710870	keystroke	s	n/a
355.735	0.09	711470	keystroke	c	n/a
355.84	0.09	711680	keystroke	h	n/a
356.545	0.105	713090	keystroke	Key.space	n/a
356.845	0.105	713690	keystroke	g	n/a
356.965	0.075	713930	keystroke	e	n/a
357.085	0.075	714170	keystroke	t	n/a
357.25	0.075	714500	keystroke	s	n/a
358.465	0.046	716930	keystroke	Key.enter	n/a
358.5205	10.1315	717041	prompt	n/a	sound tribunal hormone occasions\n
359.335	0.105	718670	keystroke	s	n/a
359.47	0.075	718940	keystroke	o	n/a
359.65	0.09	719300	keystroke	u	n/a
359.89	0.075	719780	keystroke	n	n/a
359.98	0.105	719960	keystroke	d	n/a
360.055	0.12	720110	keystroke	Key.space	n/a
360.475	0.03	720950	keystroke	t	n/a
360.625	0.105	721250	keystroke	r	n/a
360.85	0.075	721700	keystroke	u	n/a
361.045	0.075	722090	keystroke	b	n/a
361.54	0.06	723080	keystroke	Key.backspace	n/a
361.69	0.09	723380	keystroke	Key.backspace	n/a
362.425	0.06	724850	keystroke	i	n/a
362.62	0.105	725240	keystroke	b	n/a
362.755	0.09	725510	keystroke	u	n/a
363.01	0.03	726020	keystroke	n	n/a
363.025	0.09	726050	keystroke	a	n/a
363.145	0.09	726290	keystroke	l	n/a
363.295	0.12	726590	keystroke	Key.space	n/a
363.67	0.06	727340	keystroke	h	n/a
363.685	0.03	727370	keystroke	g	n/a
363.82	0.075	727640	keystroke	o	n/a
364.225	0.075	728450	keystroke	Key.backspace	n/a
364.36	0.075	728720	keystroke	Key.backspace	n/a
364.495	0.121	728990	keystroke	o	n/a
364.6	0.105	729200	keystroke	r	n/a
364.765	0.12	729530	keystroke	m	n/a
365.155	0.075	730310	keystroke	o	n/a
365.335	0.091	730670	keystroke	n	n/a
365.515	0.135	731030	keystroke	Key.space	n/a
365.92	0.09	731840	keystroke	Key.backspace	n/a
365.995	0.105	731990	keystroke	e	n/a
366.115	0.09	732230	keystroke	Key.space	n/a
366.596	0.074	733192	keystroke	o	n/a
366.686	0.059	733372	keystroke	c	n/a
366.836	0.074	733672	keystroke	c	n/a
367.031	0.18	734062	keystroke	a	n/a
367.151	0.089	734302	keystroke	s	n/a
367.3	0.091	734600	keystroke	i	n/a
367.496	0.074	734992	keystroke	o	n/a
367.675	0.075	735350	keystroke	n	n/a
367.736	0.135	735472	keystroke	s	n/a
367.885	0.06	735770	keystroke	Key.space	n/a
368.26	0.06	736520	keystroke	Key.backspace	n/a
368.591	0.059	737182	keystroke	Key.enter	n/a
368.6545	7.7825	737309	prompt	n/a	cabinet shade kinda finances\n
369.49	0.091	738980	keystroke	c	n/a
369.64	0.12	739280	keystroke	a	n/a
369.746	0.09	739492	keystroke	b	n/a
369.88	0.091	739760	keystroke	i	n/a
370.135	0.076	740270	keystroke	n	n/a
370.24	0.076	740480	keystroke	e	n/a
370.48	0.136	740960	keystroke	t	n/a
370.6	0.12	741200	keystroke	Key.space	n/a
371.02	0.105	742040	keystroke	s	n/a
371.171	0.104	742342	keystroke	h	n/a
371.291	0.089	742582	keystroke	a	n/a
371.486	0.09	742972	keystroke	d	n/a
371.665	0.135	743330	keystroke	e	n/a
371.771	0.104	743542	keystroke	Key.space	n/a
372.07	0.091	744140	keystroke	k	n/a
372.266	0.075	744532	keystroke	i	n/a
372.416	0.105	744832	keystroke	n	n/a
372.536	0.059	745072	keystroke	d	n/a
372.776	0.12	745552	keystroke	a	n/a
372.881	0.104	745762	keystroke	Key.space	n/a
373.9605	0.105	747921	keystroke	f	n/a
374.0955	0.09	748191	keystroke	i	n/a
374.2755	0.105	748551	keystroke	n	n/a
374.4555	0.105	748911	keystroke	a	n/a
374.7705	0.09	749541	keystroke	n	n/a
374.9055	0.09	749811	keystroke	c	n/a
375.1605	0.075	750321	keystroke	e	n/a
375.3705	0.135	750741	keystroke	s	n/a
376.3755	0.06	752751	keystroke	Key.enter	n/a
376.441	7.976	752882	prompt	n/a	hospitals health barely tool\n
377.2605	0.06	754521	keystroke	h	n/a
377.4255	0.105	754851	keystroke	o	n/a
377.5155	0.12	755031	keystroke	s	n/a
377.9805	0.105	755961	keystroke	p	n/a
378.1755	0.105	756351	keystroke	i	n/a
378.2655	0.105	756531	keystroke	t	n/a
378.5205	0.12	757041	keystroke	a	n/a
378.6555	0.075	757311	keystroke	l	n/a
378.8805	0.12	757761	keystroke	s	n/a
379.0155	0.105	758031	keystroke	Key.space	n/a
379.9905	0.09	759981	keystroke	h	n/a
380.0205	0.09	760041	keystroke	e	n/a
380.2005	0.12	760401	keystroke	a	n/a
380.3205	0.1045	760641	keystroke	l	n/a
380.455	0.075	760910	keystroke	t	n/a
380.65	0.09	761300	keystroke	h	n/a
380.785	0.105	761570	keystroke	Key.space	n/a
381.34	0.09	762680	keystroke	b	n/a
381.4	0.105	762800	keystroke	a	n/a
381.655	0.135	763310	keystroke	r	n/a
381.805	0.075	763610	keystroke	e	n/a
382.165	0.105	764330	keystroke	l	n/a
382.405	0.075	764810	keystroke	y	n/a
382.54	0.135	765080	keystroke	Key.space	n/a
383.38	0.075	766760	keystroke	t	n/a
383.456	0.074	766912	keystroke	o	n/a
383.605	0.09	767210	keystroke	o	n/a
383.785	0.09	767570	keystroke	l	n/a
384.34	0.075	768680	keystroke	Key.enter	n/a
384.42	9.4465	768840	prompt	n/a	wash reviews figures stat\n
385.375	0.045	770750	keystroke	w	n/a
385.63	0.27	771260	keystroke	s	n/a
386.155	0.06	772310	keystroke	Key.backspace	n/a
386.23	0.195	772460	keystroke	a	n/a
386.395	0.12	772790	keystroke	s	n/a
386.545	0.105	773090	keystroke	h	n/a
387.205	0.12	774410	keystroke	Key.space	n/a
387.505	0.135	775010	keystroke	r	n/a
387.625	0.075	775250	keystroke	e	n/a
387.91	0.09	775820	keystroke	v	n/a
388.015	0.105	776030	keystroke	i	n/a
388.18	0.075	776360	keystroke	e	n/a
388.45	0.105	776900	keystroke	s	n/a
388.81	0.075	777620	keystroke	Key.backspace	n/a
388.87	0.09	777740	keystroke	w	n/a
389.08	0.135	778160	keystroke	s	n/a
389.2	0.12	778400	keystroke	Key.space	n/a
389.755	0.105	779510	keystroke	f	n/a
389.875	0.075	779750	keystroke	i	n/a
390.461	0.074	780922	keystroke	g	n/a
390.565	0.09	781130	keystroke	u	n/a
390.685	0.09	781370	keystroke	r	n/a
390.97	0.045	781940	keystroke	e	n/a
391.63	0.121	783260	keystroke	s	n/a
391.735	0.12	783470	keystroke	Key.space	n/a
392.201	0.104	784402	keystroke	s	n/a
392.47	0.091	784940	keystroke	t	n/a
392.545	0.21	785090	keystroke	a	n/a
393.055	0.06	786110	keystroke	t	n/a
393.82	0.045	787640	keystroke	Key.enter	n/a
393.8695	12.8225	787739	prompt	n/a	comparison vintage vintage traditional\n
394.87	0.091	789740	keystroke	c	n/a
394.976	0.06	789952	keystroke	o	n/a
395.111	0.075	790222	keystroke	m	n/a
395.351	0.075	790702	keystroke	p	n/a
395.441	0.075	790882	keystroke	a	n/a
395.771	0.045	791542	keystroke	r	n/a
395.876	0.105	791752	keystroke	i	n/a
396.266	0.09	792532	keystroke	s	n/a
396.356	0.09	792712	keystroke	o	n/a
396.506	0.105	793012	keystroke	n	n/a
396.596	0.105	793192	keystroke	Key.space	n/a
397.631	0.075	795262	keystroke	v	n/a
397.811	0.09	795622	keystroke	i	n/a
398.021	0.105	796042	keystroke	n	n/a
398.141	0.06	796282	keystroke	t	n/a
398.396	0.105	796792	keystroke	a	n/a
398.681	0.015	797362	keystroke	g	n/a
398.711	0.09	797422	keystroke	e	n/a
398.906	0.09	797812	keystroke	Key.space	n/a
400.0155	0.075	800031	keystroke	v	n/a
400.1205	0.075	800241	keystroke	i	n/a
400.2555	0.135	800511	keystroke	n	n/a
400.6605	0.09	801321	keystroke	t	n/a
400.8105	0.105	801621	keystroke	a	n/a
400.9455	0.075	801891	keystroke	g	n/a
400.9605	0.045	801921	keystroke	f	n/a
401.0805	0.075	802161	keystroke	e	n/a
401.4705	0.09	802941	keystroke	Key.backspace	n/a
401.6205	0.075	803241	keystroke	Key.backspace	n/a
401.6655	0.12	803331	keystroke	e	n/a
401.7705	0.105	803541	keystroke	Key.space	n/a
402.6555	0.06	805311	keystroke	t	n/a
402.8055	0.09	805611	keystroke	r	n/a
403.0305	0.105	806061	keystroke	a	n/a
403.2105	0.12	806421	keystroke	d	n/a
403.3455	0.105	806691	keystroke	i	n/a
403.9455	0.105	807891	keystroke	t	n/a
404.0355	0.075	808071	keystroke	i	n/a
404.1705	0.09	808341	keystroke	o	n/a
404.3355	0.105	808671	keystroke	n	n/a
404.4255	0.105	808851	keystroke	a	n/a
404.5605	0.06	809121	keystroke	;	n/a
405.0855	0.075	810171	keystroke	Key.backspace	n/a
405.7005	0.06	811401	keystroke	l	n/a
406.6305	0.06	813261	keystroke	Key.enter	n/a
406.695	9.267	813390	prompt	n/a	fact weblog humor diet\n
407.5755	0.105	815151	keystroke	f	n/a
407.6955	0.06	815391	keystroke	s	n/a
407.7255	0.045	815451	keystroke	a	n/a
408.2955	0.06	816591	keystroke	Key.backspace	n/a
408.4605	0.06	816921	keystroke	Key.backspace	n/a
408.5055	0.15	817011	keystroke	a	n/a
408.6555	0.075	817311	keystroke	c	n/a
408.9555	0.105	817911	keystroke	r	n/a
409.1805	0.09	818361	keystroke	Key.space	n/a
409.5255	0.075	819051	keystroke	Key.backspace	n/a
409.6755	0.06	819351	keystroke	Key.backspace	n/a
409.6905	0.135	819381	keystroke	t	n/a
409.8705	0.105	819741	keystroke	Key.space	n/a
410.8305	0.105	821661	keystroke	w	n/a
411.5505	0.075	823101	keystroke	e	n/a
411.7755	0.09	823551	keystroke	b	n/a
411.9705	0.105	823941	keystroke	l	n/a
412.1505	0.09	824301	keystroke	o	n/a
412.2705	0.09	824541	keystroke	g	n/a
412.8855	0.12	825771	keystroke	Key.space	n/a
413.2305	0.105	826461	keystroke	h	n/a
413.3655	0.105	826731	keystroke	u	n/a
413.5905	0.15	827181	keystroke	m	n/a
413.8755	0.09	827751	keystroke	o	n/a
414.0405	0.165	828081	keystroke	r	n/a
414.1905	0.09	828381	keystroke	Key.space	n/a
414.5805	0.075	829161	keystroke	d	n/a
414.7005	0.09	829401	keystroke	i	n/a
414.8355	0.09	829671	keystroke	e	n/a
415.0755	0.09	830151	keystroke	t	n/a
415.9005	0.06	831801	keystroke	Key.enter	n/a
415.965	22.032	831930	prompt	n/a	operating responsibility harder harper\n
416.8155	0.09	833631	keystroke	o	n/a
416.9655	0.075	833931	keystroke	r	n/a
417.2505	0.075	834501	keystroke	Key.backspace	n/a
417.3705	0.12	834741	keystroke	p	n/a
417.4755	0.15	834951	keystroke	e	n/a
417.6105	0.105	835221	keystroke	r	n/a
417.8355	0.105	835671	keystroke	a	n/a
418.0755	0.075	836151	keystroke	t	n/a
418.1655	0.09	836331	keystroke	i	n/a
418.3755	0.075	836751	keystroke	n	n/a
418.4805	0.075	836961	keystroke	g	n/a
418.7055	0.105	837411	keystroke	Key.space	n/a
419.4105	0.105	838821	keystroke	r	n/a
419.5605	0.075	839121	keystroke	e	n/a
419.7405	0.105	839481	keystroke	s	n/a
419.8305	0.09	839661	keystroke	p	n/a
419.9955	0.105	839991	keystroke	o	n/a
420.2955	0.06	840591	keystroke	n	n/a
420.3855	0.12	840771	keystroke	s	n/a
420.5205	0.105	841041	keystroke	a	n/a
420.9705	0.075	841941	keystroke	b	n/a
421.1205	0.105	842241	keystroke	i	n/a
421.3755	0.105	842751	keystroke	l	n/a
421.6	0.09	843200	keystroke	i	n/a
421.72	0.0605	843440	keystroke	r	n/a
421.735	0.0455	843470	keystroke	t	n/a
421.9305	0.075	843861	keystroke	y	n/a
422.2005	0.075	844401	keystroke	Key.backspace	n/a
422.35	0.06	844700	keystroke	Key.backspace	n/a
422.485	0.0605	844970	keystroke	Key.backspace	n/a
422.5755	0.0595	845151	keystroke	t	n/a
422.98	0.09	845960	keystroke	y	n/a
423.13	0.075	846260	keystroke	Key.space	n/a
430.408	0.073	860816	keystroke	Key.backspace	n/a
430.556	0.12	861112	keystroke	Key.backspace	n/a
430.811	0.075	861622	keystroke	Key.backspace	n/a
431.006	0.12	862012	keystroke	Key.backspace	n/a
431.231	0.105	862462	keystroke	Key.backspace	n/a
431.471	0.12	862942	keystroke	Key.backspace	n/a
431.666	0.09	863332	keystroke	Key.backspace	n/a
431.846	0.12	863692	keystroke	Key.backspace	n/a
432.431	0.075	864862	keystroke	i	n/a
432.641	0.075	865282	keystroke	b	n/a
432.791	0.09	865582	keystroke	i	n/a
432.911	0.06	865822	keystroke	t	n/a
433.196	0.09	866392	keystroke	Key.backspace	n/a
434.141	0.09	868282	keystroke	l	n/a
434.396	0.075	868792	keystroke	i	n/a
434.501	0.075	869002	keystroke	t	n/a
434.666	0.09	869332	keystroke	y	n/a
434.936	0.12	869872	keystroke	Key.space	n/a
435.191	0.09	870382	keystroke	h	n/a
435.251	0.075	870502	keystroke	a	n/a
435.446	0.105	870892	keystroke	r	n/a
435.671	0.105	871342	keystroke	d	n/a
435.911	0.105	871822	keystroke	e	n/a
436.151	0.045	872302	keystroke	r	n/a
436.496	0.09	872992	keystroke	Key.space	n/a
436.706	0.09	873412	keystroke	h	n/a
436.766	0.12	873532	keystroke	a	n/a
436.976	0.135	873952	keystroke	r	n/a
437.171	0.045	874342	keystroke	p	n/a
437.231	0.105	874462	keystroke	e	n/a
437.441	0.09	874882	keystroke	r	n/a
437.951	0.045	875902	keystroke	Key.enter	n/a
438	10.4225	876000	prompt	n/a	maple happening meanwhile implementation\n
438.7605	0.09	877521	keystroke	m	n/a
438.8805	0.12	877761	keystroke	a	n/a
438.9855	0.075	877971	keystroke	p	n/a
439.1355	0.105	878271	keystroke	l	n/a
439.2255	0.135	878451	keystroke	e	n/a
439.3755	0.09	878751	keystroke	Key.space	n/a
439.7505	0.075	879501	keystroke	h	n/a
439.8705	0.12	879741	keystroke	a	n/a
440.0955	0.03	880191	keystroke	p	n/a
440.2305	0.075	880461	keystroke	p	n/a
440.5905	0.09	881181	keystroke	e	n/a
440.7255	0.105	881451	keystroke	n	n/a
440.9505	0.09	881901	keystroke	i	n/a
441.1605	0.075	882321	keystroke	n	n/a
441.2205	0.09	882441	keystroke	g	n/a
441.4305	0.105	882861	keystroke	Key.space	n/a
442.0905	0.09	884181	keystroke	m	n/a
442.4205	0.105	884841	keystroke	e	n/a
442.6455	0.12	885291	keystroke	a	n/a
442.7505	0.09	885501	keystroke	n	n/a
443.1555	0.09	886311	keystroke	w	n/a
443.3055	0.09	886611	keystroke	h	n/a
443.4555	0.105	886911	keystroke	i	n/a
443.7105	0.075	887421	keystroke	l	n/a
443.8005	0.135	887601	keystroke	e	n/a
443.9505	0.12	887901	keystroke	Key.space	n/a
444.5055	0.075	889011	keystroke	o	n/a
445.1055	0.09	890211	keystroke	Key.backspace	n/a
445.4055	0.06	890811	keystroke	i	n/a
445.6005	0.09	891201	keystroke	m	n/a
445.7355	0.105	891471	keystroke	p	n/a
445.9005	0.075	891801	keystroke	l	n/a
446.0055	0.09	892011	keystroke	e	n/a
446.4255	0.075	892851	keystroke	m	n/a
446.5005	0.09	893001	keystroke	e	n/a
446.6355	0.075	893271	keystroke	n	n/a
446.7255	0.105	893451	keystroke	t	n/a
446.9955	0.105	893991	keystroke	a	n/a
447.2655	0.06	894531	keystroke	t	n/a
447.3555	0.09	894711	keystroke	i	n/a
447.5205	0.09	895041	keystroke	o	n/a
447.6705	0.09	895341	keystroke	n	n/a
448.3605	0.06	896721	keystroke	Key.enter	n/a
448.4285	10.9285	896857	prompt	n/a	finding sandy targets britney\n
449.2605	0.06	898521	keystroke	f	n/a
449.3055	0.075	898611	keystroke	i	n/a
449.4705	0.105	898941	keystroke	n	n/a
449.8905	0.075	899781	keystroke	d	n/a
449.9805	0.075	899961	keystroke	i	n/a
450.1305	0.075	900261	keystroke	n	n/a
450.3405	0.105	900681	keystroke	f	n/a
450.5205	0.075	901041	keystroke	Key.space	n/a
450.8805	0.045	901761	keystroke	Key.backspace	n/a
450.9855	0.06	901971	keystroke	Key.backspace	n/a
451.0155	0.135	902031	keystroke	g	n/a
451.1055	0.12	902211	keystroke	Key.space	n/a
451.8255	0.15	903651	keystroke	s	n/a
451.9905	0.09	903981	keystroke	a	n/a
452.0955	0.105	904191	keystroke	n	n/a
452.2605	0.12	904521	keystroke	d	n/a
452.4705	0.105	904941	keystroke	y	n/a
452.5905	0.135	905181	keystroke	Key.space	n/a
453.0555	0.09	906111	keystroke	t	n/a
453.2655	0.105	906531	keystroke	a	n/a
453.5805	0.075	907161	keystroke	r	n/a
453.7455	0.09	907491	keystroke	d	n/a
454.1355	0.105	908271	keystroke	Key.backspace	n/a
454.2555	0.09	908511	keystroke	g	n/a
454.4655	0.12	908931	keystroke	e	n/a
454.7505	0.075	909501	keystroke	r	n/a
455.0505	0.075	910101	keystroke	Key.backspace	n/a
455.1105	0.075	910221	keystroke	t	n/a
455.3655	0.15	910731	keystroke	s	n/a
455.5305	0.105	911061	keystroke	Key.space	n/a
456.3705	0.09	912741	keystroke	b	n/a
456.5055	0.075	913011	keystroke	t	n/a
456.6255	0.075	913251	keystroke	i	n/a
456.8655	0.075	913731	keystroke	Key.backspace	n/a
457.0005	0.105	914001	keystroke	Key.backspace	n/a
457.0905	0.09	914181	keystroke	r	n/a
457.2255	0.105	914451	keystroke	i	n/a
457.3605	0.12	914721	keystroke	t	n/a
457.9155	0.09	915831	keystroke	n	n/a
458.0065	0.104	916013	keystroke	e	n/a
458.2155	0.09	916431	keystroke	y	n/a
459.2805	0.075	918561	keystroke	Key.enter	n/a
459.36	15.747	918720	prompt	n/a	hurricane universe arrangements testimony\n
460.3905	0.2095	920781	keystroke	h	n/a
460.6155	0.0145	921231	keystroke	u	n/a
460.645	0.0155	921290	keystroke	r	n/a
460.78	0.075	921560	keystroke	r	n/a
460.885	0.105	921770	keystroke	i	n/a
461.08	0.105	922160	keystroke	c	n/a
461.275	0.12	922550	keystroke	a	n/a
461.425	0.075	922850	keystroke	n	n/a
461.575	0.15	923150	keystroke	e	n/a
461.7105	0.0895	923421	keystroke	Key.space	n/a
462.085	0.03	924170	keystroke	u	n/a
462.25	0.09	924500	keystroke	n	n/a
462.445	0.09	924890	keystroke	i	n/a
462.79	0.075	925580	keystroke	v	n/a
463	0.15	926000	keystroke	e	n/a
463.24	0.105	926480	keystroke	r	n/a
463.495	0.09	926990	keystroke	s	n/a
463.69	0.135	927380	keystroke	e	n/a
463.795	0.135	927590	keystroke	Key.space	n/a
464.275	0.03	928550	keystroke	Key.backspace	n/a
464.695	0.105	929390	keystroke	e	n/a
464.815	0.12	929630	keystroke	Key.space	n/a
465.07	0.09	930140	keystroke	a	n/a
465.415	0.075	930830	keystroke	Key.backspace	n/a
465.565	0.12	931130	keystroke	Key.backspace	n/a
465.671	0.134	931342	keystroke	r	n/a
465.79	0.075	931580	keystroke	Key.space	n/a
466	0.075	932000	keystroke	Key.backspace	n/a
466.15	0.09	932300	keystroke	Key.backspace	n/a
466.3	0.12	932600	keystroke	Key.backspace	n/a
466.375	0.135	932750	keystroke	r	n/a
466.421	0.104	932842	keystroke	Key.space	n/a
466.66	0.12	933320	keystroke	a	n/a
466.915	0.06	933830	keystroke	r	n/a
467.05	0.105	934100	keystroke	r	n/a
467.62	0.075	935240	keystroke	Key.backspace	n/a
467.785	0.09	935570	keystroke	Key.backspace	n/a
467.935	0.075	935870	keystroke	Key.backspace	n/a
468.175	0.015	936350	keystroke	Key.backspace	n/a
468.265	0.105	936530	keystroke	Key.backspace	n/a
468.34	0.12	936680	keystroke	Key.space	n/a
468.715	0.105	937430	keystroke	a	n/a
469.06	0.06	938120	keystroke	r	n/a
469.196	0.09	938392	keystroke	r	n/a
469.375	0.105	938750	keystroke	a	n/a
469.451	0.089	938902	keystroke	g	n/a
469.795	0.06	939590	keystroke	Key.backspace	n/a
470.005	0.106	940010	keystroke	n	n/a
470.665	0.06	941330	keystroke	g	n/a
470.71	0.06	941420	keystroke	e	n/a
470.876	0.105	941752	keystroke	m	n/a
470.966	0.135	941932	keystroke	e	n/a
471.115	0.076	942230	keystroke	n	n/a
471.221	0.09	942442	keystroke	t	n/a
471.49	0.165	942980	keystroke	s	n/a
471.656	0.059	943312	keystroke	Key.space	n/a
472.451	0.075	944902	keystroke	t	n/a
472.661	0.149	945322	keystroke	e	n/a
472.825	0.121	945650	keystroke	r	n/a
473.096	0.105	946192	keystroke	t	n/a
473.231	0.105	946462	keystroke	i	n/a
473.44	0.106	946880	keystroke	m	n/a
473.605	0.091	947210	keystroke	o	n/a
473.756	0.12	947512	keystroke	n	n/a
474.041	0.09	948082	keystroke	y	n/a
475.061	0.045	950122	keystroke	Key.enter	n/a
475.1105	17.1265	950221	prompt	n/a	synopsis casio improve extremely\n
476.036	0.075	952072	keystroke	s	n/a
476.186	0.105	952372	keystroke	y	n/a
476.426	0.045	952852	keystroke	o	n/a
476.816	0.075	953632	keystroke	Key.backspace	n/a
476.996	0.09	953992	keystroke	p	n/a
477.371	0.09	954742	keystroke	n	n/a
477.551	0.105	955102	keystroke	o	n/a
477.686	0.075	955372	keystroke	s	n/a
477.851	0.075	955702	keystroke	i	n/a
477.896	0.165	955792	keystroke	s	n/a
478.016	0.105	956032	keystroke	Key.space	n/a
478.376	0.09	956752	keystroke	c	n/a
478.706	0.09	957412	keystroke	a	n/a
478.751	0.12	957502	keystroke	s	n/a
478.931	0.09	957862	keystroke	i	n/a
479.201	0.09	958402	keystroke	o	n/a
481.586	0.105	963172	keystroke	Key.backspace	n/a
482.021	0.075	964042	keystroke	n	n/a
482.186	0.09	964372	keystroke	o	n/a
482.456	0.075	964912	keystroke	p	n/a
483.011	0.075	966022	keystroke	s	n/a
483.086	0.09	966172	keystroke	u	n/a
483.206	0.06	966412	keystroke	s	n/a
483.566	0.09	967132	keystroke	Key.backspace	n/a
483.731	0.09	967462	keystroke	Key.backspace	n/a
483.911	0.09	967822	keystroke	i	n/a
483.986	0.135	967972	keystroke	s	n/a
484.091	0.105	968182	keystroke	Key.space	n/a
484.331	0.09	968662	keystroke	c	n/a
484.496	0.135	968992	keystroke	a	n/a
484.646	0.105	969292	keystroke	s	n/a
484.721	0.09	969442	keystroke	i	n/a
484.871	0.105	969742	keystroke	o	n/a
485.006	0.09	970012	keystroke	Key.space	n/a
485.171	0.075	970342	keystroke	i	n/a
485.366	0.09	970732	keystroke	m	n/a
485.531	0.105	971062	keystroke	p	n/a
486.791	0.06	973582	keystroke	r	n/a
486.896	0.0895	973792	keystroke	o	n/a
487.2705	0.045	974541	keystroke	v	n/a
487.346	0.1045	974692	keystroke	e	n/a
487.481	0.0895	974962	keystroke	Key.space	n/a
488.291	0.075	976582	keystroke	e	n/a
488.5755	0.165	977151	keystroke	x	n/a
489.2055	0.06	978411	keystroke	r	n/a
489.8205	0.12	979641	keystroke	Key.backspace	n/a
489.9255	0.09	979851	keystroke	t	n/a
490.0005	0.135	980001	keystroke	r	n/a
490.3005	0.105	980601	keystroke	e	n/a
490.8255	0.075	981651	keystroke	m	n/a
490.9155	0.09	981831	keystroke	e	n/a
491.1105	0.12	982221	keystroke	l	n/a
491.3955	0.075	982791	keystroke	y	n/a
492.1755	0.06	984351	keystroke	Key.enter	n/a
492.24	9.597	984480	prompt	n/a	researcher assets bargain manual\n
492.9855	0.135	985971	keystroke	r	n/a
493.1505	0.06	986301	keystroke	e	n/a
493.3755	0.12	986751	keystroke	s	n/a
493.5555	0.135	987111	keystroke	e	n/a
493.7955	0.15	987591	keystroke	a	n/a
494.3955	0.075	988791	keystroke	r	n/a
494.6805	0.075	989361	keystroke	c	n/a
494.7705	0.09	989541	keystroke	h	n/a
494.8905	0.09	989781	keystroke	e	n/a
495.0555	0.135	990111	keystroke	r	n/a
495.1455	0.09	990291	keystroke	Key.space	n/a
496.0455	0.15	992091	keystroke	a	n/a
496.2405	0.105	992481	keystroke	s	n/a
496.4355	0.09	992871	keystroke	s	n/a
496.6455	0.12	993291	keystroke	e	n/a
496.9455	0.075	993891	keystroke	t	n/a
497.6505	0.105	995301	keystroke	s	n/a
497.7405	0.12	995481	keystroke	Key.space	n/a
498.2505	0.09	996501	keystroke	b	n/a
498.3405	0.105	996681	keystroke	a	n/a
498.5505	0.09	997101	keystroke	r	n/a
498.8055	0.105	997611	keystroke	g	n/a
498.9255	0.09	997851	keystroke	a	n/a
499.0305	0.075	998061	keystroke	i	n/a
499.5855	0.09	999171	keystroke	n	n/a
499.7055	0.105	999411	keystroke	Key.space	n/a
499.9305	0.12	999861	keystroke	m	n/a
500.0055	0.135	1000011	keystroke	a	n/a
500.1555	0.09	1000311	keystroke	n	n/a
500.3055	0.09	1000611	keystroke	u	n/a
500.4405	0.105	1000881	keystroke	a	n/a
500.5905	0.075	1001181	keystroke	l	n/a
501.7755	0.06	1003551	keystroke	Key.enter	n/a
501.84	14.502	1003680	prompt	n/a	trustees hosting dive pants\n
502.7205	0.06	1005441	keystroke	t	n/a
502.8405	0.09	1005681	keystroke	u	n/a
502.9455	0.06	1005891	keystroke	r	n/a
503.1555	0.09	1006311	keystroke	s	n/a
503.2905	0.075	1006581	keystroke	t	n/a
503.4555	0.075	1006911	keystroke	e	n/a
503.6355	0.06	1007271	keystroke	e	n/a
503.8155	0.12	1007631	keystroke	s	n/a
503.9205	0.09	1007841	keystroke	Key.space	n/a
505.6305	0.075	1011261	keystroke	Key.backspace	n/a
505.7955	0.075	1011591	keystroke	Key.backspace	n/a
505.9455	0.075	1011891	keystroke	Key.backspace	n/a
506.0805	0.075	1012161	keystroke	Key.backspace	n/a
506.2455	0.06	1012491	keystroke	Key.backspace	n/a
506.3805	0.075	1012761	keystroke	Key.backspace	n/a
506.6055	0.075	1013211	keystroke	Key.backspace	n/a
506.86	0.0755	1013720	keystroke	Key.backspace	n/a
506.95	0.105	1013900	keystroke	r	n/a
507.4155	0.075	1014831	keystroke	u	n/a
507.5055	0.12	1015011	keystroke	s	n/a
507.7	0.045	1015400	keystroke	t	n/a
508.1055	0.075	1016211	keystroke	e	n/a
508.3155	0.1045	1016631	keystroke	d	n/a
508.54	0.075	1017080	keystroke	d	n/a
508.78	0.12	1017560	keystroke	s	n/a
508.885	0.105	1017770	keystroke	Key.space	n/a
509.23	0.075	1018460	keystroke	Key.backspace	n/a
509.38	0.06	1018760	keystroke	Key.backspace	n/a
509.515	0.075	1019030	keystroke	Key.backspace	n/a
509.695	0.075	1019390	keystroke	Key.backspace	n/a
509.74	0.09	1019480	keystroke	e	n/a
510.385	0.09	1020770	keystroke	s	n/a
510.505	0.12	1021010	keystroke	Key.space	n/a
511.375	0.075	1022750	keystroke	h	n/a
511.525	0.105	1023050	keystroke	o	n/a
511.585	0.09	1023170	keystroke	s	n/a
511.84	0.105	1023680	keystroke	t	n/a
511.93	0.075	1023860	keystroke	i	n/a
512.125	0.075	1024250	keystroke	n	n/a
512.32	0.075	1024640	keystroke	g	n/a
513.01	0.105	1026020	keystroke	Key.space	n/a
513.76	0.046	1027520	keystroke	d	n/a
513.911	0.074	1027822	keystroke	i	n/a
514.315	0.09	1028630	keystroke	v	n/a
514.435	0.136	1028870	keystroke	e	n/a
514.66	0.12	1029320	keystroke	Key.space	n/a
515.141	0.089	1030282	keystroke	p	n/a
515.261	0.105	1030522	keystroke	a	n/a
515.396	0.09	1030792	keystroke	n	n/a
515.53	0.075	1031060	keystroke	t	n/a
515.801	0.12	1031602	keystroke	s	n/a
516.311	0.029	1032622	keystroke	Key.enter	n/a
516.3455	10.4215	1032691	prompt	n/a	rome limousines locking thumb\n
517.346	0.104	1034692	keystroke	r	n/a
517.436	0.074	1034872	keystroke	o	n/a
517.586	0.12	1035172	keystroke	m	n/a
517.675	0.136	1035350	keystroke	e	n/a
517.78	0.105	1035560	keystroke	Key.space	n/a
518.126	0.09	1036252	keystroke	l	n/a
518.35	0.075	1036700	keystroke	o	n/a
519.25	0.09	1038500	keystroke	Key.backspace	n/a
519.641	0.075	1039282	keystroke	i	n/a
519.836	0.105	1039672	keystroke	m	n/a
520.556	0.09	1041112	keystroke	p	n/a
520.796	0.09	1041592	keystroke	u	n/a
521.246	0.06	1042492	keystroke	Key.backspace	n/a
521.395	0.076	1042790	keystroke	Key.backspace	n/a
521.636	0.09	1043272	keystroke	o	n/a
521.921	0.06	1043842	keystroke	u	n/a
522.071	0.075	1044142	keystroke	s	n/a
522.221	0.09	1044442	keystroke	i	n/a
522.491	0.09	1044982	keystroke	n	n/a
522.566	0.09	1045132	keystroke	e	n/a
522.806	0.165	1045612	keystroke	s	n/a
522.941	0.09	1045882	keystroke	Key.space	n/a
523.151	0.09	1046302	keystroke	l	n/a
523.331	0.075	1046662	keystroke	o	n/a
523.466	0.09	1046932	keystroke	c	n/a
523.541	0.09	1047082	keystroke	k	n/a
523.871	0.075	1047742	keystroke	i	n/a
524.126	0.075	1048252	keystroke	n	n/a
524.216	0.075	1048432	keystroke	g	n/a
524.396	0.105	1048792	keystroke	Key.space	n/a
524.816	0.06	1049632	keystroke	t	n/a
524.906	0.12	1049812	keystroke	h	n/a
525.101	0.09	1050202	keystroke	u	n/a
525.821	0.06	1051642	keystroke	m	n/a
526.031	0.075	1052062	keystroke	b	n/a
526.691	0.075	1053382	keystroke	Key.enter	n/a
526.77	13.947	1053540	prompt	n/a	photoshop bachelor cuba roberts\n
527.6955	0.075	1055391	keystroke	p	n/a
528.1305	0.015	1056261	keystroke	h	n/a
528.2355	0.075	1056471	keystroke	p	n/a
528.3405	0.09	1056681	keystroke	t	n/a
528.5955	0.06	1057191	keystroke	Key.backspace	n/a
528.7305	0.105	1057461	keystroke	Key.backspace	n/a
528.8505	0.075	1057701	keystroke	o	n/a
528.8955	0.09	1057791	keystroke	t	n/a
529.4505	0.075	1058901	keystroke	s	n/a
530.2155	0.09	1060431	keystroke	Key.backspace	n/a
530.8755	0.075	1061751	keystroke	o	n/a
531.2205	0.075	1062441	keystroke	s	n/a
531.3405	0.105	1062681	keystroke	h	n/a
531.5655	0.06	1063131	keystroke	o	n/a
532.2405	0.075	1064481	keystroke	p	n/a
532.4055	0.105	1064811	keystroke	Key.space	n/a
532.8405	0.06	1065681	keystroke	b	n/a
533.3205	0.045	1066641	keystroke	a	n/a
533.4555	0.09	1066911	keystroke	c	n/a
533.6055	0.105	1067211	keystroke	h	n/a
533.7255	0.09	1067451	keystroke	e	n/a
534.0555	0.105	1068111	keystroke	r	n/a
534.2055	0.09	1068411	keystroke	l	n/a
534.3705	0.09	1068741	keystroke	o	n/a
534.7305	0.06	1069461	keystroke	Key.backspace	n/a
534.8655	0.09	1069731	keystroke	Key.backspace	n/a
535.0155	0.075	1070031	keystroke	Key.backspace	n/a
535.1805	0.105	1070361	keystroke	l	n/a
535.2705	0.09	1070541	keystroke	r	n/a
535.4055	0.075	1070811	keystroke	o	n/a
535.6905	0.075	1071381	keystroke	Key.backspace	n/a
535.8405	0.105	1071681	keystroke	Key.backspace	n/a
535.9305	0.09	1071861	keystroke	o	n/a
535.9905	0.105	1071981	keystroke	r	n/a
536.2455	0.12	1072491	keystroke	Key.space	n/a
536.9805	0.045	1073961	keystroke	v	n/a
537.4905	0.09	1074981	keystroke	Key.backspace	n/a
537.6105	0.12	1075221	keystroke	c	n/a
537.7605	0.075	1075521	keystroke	u	n/a
537.9555	0.105	1075911	keystroke	b	n/a
538.0305	0.15	1076061	keystroke	a	n/a
538.1355	0.105	1076271	keystroke	Key.space	n/a
538.8105	0.075	1077621	keystroke	r	n/a
538.9305	0.075	1077861	keystroke	o	n/a
539.1255	0.105	1078251	keystroke	b	n/a
539.2455	0.12	1078491	keystroke	e	n/a
539.3955	0.105	1078791	keystroke	r	n/a
539.5305	0.09	1079061	keystroke	t	n/a
539.6505	0.105	1079301	keystroke	s	n/a
540.6705	0.045	1081341	keystroke	Key.enter	n/a
540.72	6.477	1081440	prompt	n/a	machine banner pack beer\n
541.5705	0.075	1083141	keystroke	m	n/a
541.6455	0.09	1083291	keystroke	a	n/a
541.8255	0.105	1083651	keystroke	c	n/a
541.9455	0.075	1083891	keystroke	h	n/a
542.0505	0.105	1084101	keystroke	i	n/a
542.2005	0.105	1084401	keystroke	n	n/a
542.2905	0.12	1084581	keystroke	e	n/a
542.4855	0.12	1084971	keystroke	Key.space	n/a
543.2055	0.105	1086411	keystroke	b	n/a
543.2955	0.09	1086591	keystroke	a	n/a
543.4455	0.06	1086891	keystroke	n	n/a
543.5805	0.09	1087161	keystroke	n	n/a
543.6405	0.075	1087281	keystroke	e	n/a
543.8205	0.105	1087641	keystroke	r	n/a
543.9105	0.105	1087821	keystroke	Key.space	n/a
544.8105	0.075	1089621	keystroke	p	n/a
544.9155	0.105	1089831	keystroke	a	n/a
545.1105	0.105	1090221	keystroke	c	n/a
545.2455	0.09	1090491	keystroke	k	n/a
545.5305	0.015	1091061	keystroke	Key.space	n/a
545.8905	0.075	1091781	keystroke	b	n/a
545.9655	0.075	1091931	keystroke	e	n/a
546.1305	0.075	1092261	keystroke	e	n/a
546.2955	0.075	1092591	keystroke	r	n/a
546.3405	0.09	1092681	keystroke	Key.space	n/a
547.1355	0.06	1094271	keystroke	Key.enter	n/a
547.201	9.626	1094402	prompt	n/a	submitted play arrested strong\n
548.4705	0.075	1096941	keystroke	s	n/a
548.5755	0.075	1097151	keystroke	u	n/a
548.7705	0.075	1097541	keystroke	b	n/a
548.9655	0.105	1097931	keystroke	m	n/a
549.1605	0.075	1098321	keystroke	i	n/a
549.4005	0.075	1098801	keystroke	t	n/a
549.5355	0.075	1099071	keystroke	t	n/a
549.6255	0.105	1099251	keystroke	e	n/a
549.8355	0.12	1099671	keystroke	d	n/a
549.9705	0.12	1099941	keystroke	Key.space	n/a
550.675	0.09	1101350	keystroke	p	n/a
550.81	0.105	1101620	keystroke	l	n/a
550.945	0.1505	1101890	keystroke	a	n/a
551.1255	0.105	1102251	keystroke	y	n/a
551.26	0.105	1102520	keystroke	Key.space	n/a
551.7555	0.1045	1103511	keystroke	a	n/a
551.98	0.09	1103960	keystroke	r	n/a
552.16	0.09	1104320	keystroke	r	n/a
552.295	0.09	1104590	keystroke	e	n/a
552.475	0.12	1104950	keystroke	s	n/a
552.91	0.06	1105820	keystroke	t	n/a
552.955	0.09	1105910	keystroke	e	n/a
553.165	0.105	1106330	keystroke	d	n/a
553.345	0.105	1106690	keystroke	Key.space	n/a
554.17	0.105	1108340	keystroke	s	n/a
554.44	0.105	1108880	keystroke	t	n/a
554.56	0.105	1109120	keystroke	r	n/a
554.665	0.075	1109330	keystroke	o	n/a
554.815	0.105	1109630	keystroke	n	n/a
554.935	0.12	1109870	keystroke	g	n/a
555.2655	0.1045	1110531	keystroke	Key.space	n/a
555.985	0.015	1111970	keystroke	Key.backspace	n/a
556.75	0.075	1113500	keystroke	Key.enter	n/a
556.83	15.1775	1113660	prompt	n/a	dental text government regulation\n
557.71	0.105	1115420	keystroke	d	n/a
557.845	0.105	1115690	keystroke	e	n/a
557.965	0.105	1115930	keystroke	n	n/a
558.085	0.09	1116170	keystroke	t	n/a
558.295	0.135	1116590	keystroke	a	n/a
558.445	0.091	1116890	keystroke	l	n/a
558.625	0.075	1117250	keystroke	Key.space	n/a
559.015	0.06	1118030	keystroke	t	n/a
559.15	0.12	1118300	keystroke	e	n/a
559.825	0.06	1119650	keystroke	x	n/a
559.96	0.105	1119920	keystroke	t	n/a
560.08	0.09	1120160	keystroke	Key.space	n/a
560.365	0.06	1120730	keystroke	p	n/a
560.665	0.045	1121330	keystroke	Key.backspace	n/a
560.995	0.03	1121990	keystroke	g	n/a
561.146	0.044	1122292	keystroke	o	n/a
561.325	0.075	1122650	keystroke	v	n/a
561.415	0.105	1122830	keystroke	e	n/a
561.745	0.091	1123490	keystroke	r	n/a
561.911	0.104	1123822	keystroke	m	n/a
562.031	0.089	1124062	keystroke	e	n/a
562.225	0.045	1124450	keystroke	n	n/a
562.345	0.12	1124690	keystroke	t	n/a
562.75	0.06	1125500	keystroke	Key.backspace	n/a
562.855	0.09	1125710	keystroke	Key.backspace	n/a
563.02	0.09	1126040	keystroke	Key.backspace	n/a
563.26	0.105	1126520	keystroke	m	n/a
563.411	0.12	1126822	keystroke	e	n/a
564.071	0.075	1128142	keystroke	n	n/a
564.175	0.121	1128350	keystroke	t	n/a
564.296	0.119	1128592	keystroke	Key.space	n/a
567.208	0	1134416	keystroke	Key.backspace	n/a
567.208	0.043	1134416	keystroke	Key.backspace	n/a
567.356	0.06	1134712	keystroke	Key.backspace	n/a
567.521	0.06	1135042	keystroke	Key.backspace	n/a
567.701	0.06	1135402	keystroke	Key.backspace	n/a
567.851	0.105	1135702	keystroke	Key.backspace	n/a
568.571	0.06	1137142	keystroke	n	n/a
568.721	0.09	1137442	keystroke	m	n/a
568.751	0.105	1137502	keystroke	e	n/a
568.946	0.075	1137892	keystroke	n	n/a
568.976	0.105	1137952	keystroke	t	n/a
569.231	0.09	1138462	keystroke	Key.space	n/a
570.116	0.15	1140232	keystroke	r	n/a
570.251	0.09	1140502	keystroke	e	n/a
570.431	0.105	1140862	keystroke	g	n/a
570.551	0.09	1141102	keystroke	u	n/a
570.746	0.105	1141492	keystroke	l	n/a
570.791	0.105	1141582	keystroke	a	n/a
571.016	0.075	1142032	keystroke	t	n/a
571.106	0.09	1142212	keystroke	i	n/a
571.226	0.09	1142452	keystroke	o	n/a
571.376	0.105	1142752	keystroke	n	n/a
571.946	0.06	1143892	keystroke	Key.enter	n/a
572.01	6.687	1144020	prompt	n/a	boards current harbor cohen\n
572.756	0.075	1145512	keystroke	b	n/a
572.906	0.105	1145812	keystroke	o	n/a
573.011	0.09	1146022	keystroke	a	n/a
573.191	0.105	1146382	keystroke	r	n/a
573.431	0.09	1146862	keystroke	d	n/a
573.716	0.12	1147432	keystroke	s	n/a
573.851	0.105	1147702	keystroke	Key.space	n/a
574.256	0.06	1148512	keystroke	c	n/a
574.331	0.09	1148662	keystroke	u	n/a
574.496	0.075	1148992	keystroke	r	n/a
574.646	0.105	1149292	keystroke	r	n/a
574.781	0.09	1149562	keystroke	e	n/a
574.946	0.09	1149892	keystroke	n	n/a
575.096	0.09	1150192	keystroke	t	n/a
575.381	0.105	1150762	keystroke	Key.space	n/a
576.146	0.0295	1152292	keystroke	h	n/a
576.1605	0.105	1152321	keystroke	a	n/a
576.461	0.015	1152922	keystroke	r	n/a
576.506	0.09	1153012	keystroke	b	n/a
576.656	0.105	1153312	keystroke	o	n/a
576.776	0.135	1153552	keystroke	r	n/a
576.881	0.135	1153762	keystroke	Key.space	n/a
577.526	0.1045	1155052	keystroke	c	n/a
577.646	0.075	1155292	keystroke	o	n/a
577.8105	0.0905	1155621	keystroke	h	n/a
577.8705	0.12	1155741	keystroke	e	n/a
578.0055	0.09	1156011	keystroke	n	n/a
578.6355	0.06	1157271	keystroke	Key.enter	n/a
578.7025	14.005	1157405	prompt	n/a	holding manufacturers infants software\n
579.5055	0.06	1159011	keystroke	h	n/a
579.6255	0.09	1159251	keystroke	o	n/a
579.8355	0.06	1159671	keystroke	l	n/a
580.1205	0.075	1160241	keystroke	d	n/a
580.2105	0.075	1160421	keystroke	i	n/a
580.3755	0.09	1160751	keystroke	n	n/a
580.4805	0.09	1160961	keystroke	g	n/a
580.6905	0.09	1161381	keystroke	Key.space	n/a
581.5605	0.105	1163121	keystroke	m	n/a
581.6805	0.09	1163361	keystroke	a	n/a
581.7855	0.105	1163571	keystroke	n	n/a
582.0105	0.09	1164021	keystroke	u	n/a
582.8505	0.06	1165701	keystroke	f	n/a
583.0155	0.09	1166031	keystroke	a	n/a
583.1505	0.09	1166301	keystroke	c	n/a
583.3455	0.09	1166691	keystroke	e	n/a
583.8555	0.09	1167711	keystroke	Key.backspace	n/a
583.9605	0.12	1167921	keystroke	t	n/a
584.1255	0.09	1168251	keystroke	u	n/a
584.3955	0.105	1168791	keystroke	r	n/a
584.5905	0.075	1169181	keystroke	e	n/a
585.4605	0.09	1170921	keystroke	r	n/a
585.7005	0.18	1171401	keystroke	s	n/a
585.8655	0.105	1171731	keystroke	Key.space	n/a
586.3905	0.06	1172781	keystroke	i	n/a
586.5255	0.12	1173051	keystroke	n	n/a
587.0505	0.075	1174101	keystroke	f	n/a
587.2305	0.09	1174461	keystroke	a	n/a
587.2905	0.09	1174581	keystroke	n	n/a
587.5755	0.09	1175151	keystroke	t	n/a
587.6955	0.12	1175391	keystroke	s	n/a
587.8305	0.12	1175661	keystroke	Key.space	n/a
588.7155	0.075	1177431	keystroke	s	n/a
588.8205	0.09	1177641	keystroke	o	n/a
588.9855	0.09	1177971	keystroke	f	n/a
589.2255	0.09	1178451	keystroke	t	n/a
590.6805	0.015	1181361	keystroke	w	n/a
590.8305	0.105	1181661	keystroke	a	n/a
591.4305	0.09	1182861	keystroke	r	n/a
591.5655	0.075	1183131	keystroke	e	n/a
592.6605	0.045	1185321	keystroke	Key.enter	n/a
592.71	15.027	1185420	prompt	n/a	eligible dist cancellation category\n
593.7405	0.105	1187481	keystroke	e	n/a
593.8005	0.09	1187601	keystroke	l	n/a
594.0105	0.075	1188021	keystroke	i	n/a
594.5355	0.06	1189071	keystroke	g	n/a
594.7305	0.075	1189461	keystroke	l	n/a
594.7905	0.12	1189581	keystroke	e	n/a
594.8955	0.12	1189791	keystroke	Key.space	n/a
596.5305	0.075	1193061	keystroke	Key.backspace	n/a
596.6955	0.075	1193391	keystroke	Key.backspace	n/a
597.3255	0.09	1194651	keystroke	Key.backspace	n/a
597.8655	0.06	1195731	keystroke	i	n/a
598.1205	0.075	1196241	keystroke	b	n/a
598.3305	0.09	1196661	keystroke	l	n/a
598.3905	0.15	1196781	keystroke	e	n/a
598.5105	0.12	1197021	keystroke	Key.space	n/a
599.98	0.06	1199960	keystroke	d	n/a
600.085	0.075	1200170	keystroke	i	n/a
600.1755	0.09	1200351	keystroke	s	n/a
600.37	0.09	1200740	keystroke	t	n/a
600.835	0.105	1201670	keystroke	Key.space	n/a
601.045	0.06	1202090	keystroke	c	n/a
601.18	0.091	1202360	keystroke	a	n/a
601.285	0.105	1202570	keystroke	n	n/a
601.705	0.075	1203410	keystroke	c	n/a
601.945	0.09	1203890	keystroke	e	n/a
602.335	0.075	1204670	keystroke	l	n/a
602.485	0.09	1204970	keystroke	l	n/a
602.56	0.09	1205120	keystroke	a	n/a
602.83	0.076	1205660	keystroke	t	n/a
602.95	0.061	1205900	keystroke	i	n/a
602.966	0.029	1205932	keystroke	u	n/a
603.07	0.106	1206140	keystroke	o	n/a
603.31	0.06	1206620	keystroke	n	n/a
603.55	0.075	1207100	keystroke	Key.backspace	n/a
603.685	0.105	1207370	keystroke	Key.backspace	n/a
603.85	0.105	1207700	keystroke	Key.backspace	n/a
604.451	0.075	1208902	keystroke	o	n/a
604.631	0.119	1209262	keystroke	n	n/a
604.735	0.105	1209470	keystroke	Key.space	n/a
605.005	0.105	1210010	keystroke	c	n/a
605.171	0.135	1210342	keystroke	a	n/a
605.486	0.089	1210972	keystroke	t	n/a
605.545	0.076	1211090	keystroke	e	n/a
605.815	0.09	1211630	keystroke	g	n/a
606.026	0.075	1212052	keystroke	r	n/a
606.31	0.09	1212620	keystroke	Key.backspace	n/a
606.446	0.119	1212892	keystroke	o	n/a
606.551	0.075	1213102	keystroke	r	n/a
606.82	0.091	1213640	keystroke	y	n/a
607.705	0.03	1215410	keystroke	Key.enter	n/a
607.74	7.8575	1215480	prompt	n/a	tourism markers passport describe\n
608.711	0.06	1217422	keystroke	t	n/a
608.786	0.09	1217572	keystroke	o	n/a
608.951	0.12	1217902	keystroke	u	n/a
609.056	0.09	1218112	keystroke	r	n/a
609.176	0.105	1218352	keystroke	i	n/a
609.341	0.105	1218682	keystroke	s	n/a
609.476	0.075	1218952	keystroke	m	n/a
609.611	0.105	1219222	keystroke	Key.space	n/a
609.806	0.09	1219612	keystroke	m	n/a
609.88	0.136	1219760	keystroke	a	n/a
610.106	0.09	1220212	keystroke	r	n/a
610.211	0.089	1220422	keystroke	k	n/a
610.331	0.09	1220662	keystroke	e	n/a
610.601	0.105	1221202	keystroke	r	n/a
610.826	0.165	1221652	keystroke	s	n/a
610.976	0.09	1221952	keystroke	Key.space	n/a
611.531	0.09	1223062	keystroke	p	n/a
611.636	0.12	1223272	keystroke	a	n/a
611.741	0.105	1223482	keystroke	s	n/a
611.921	0.135	1223842	keystroke	s	n/a
612.086	0.12	1224172	keystroke	p	n/a
612.206	0.105	1224412	keystroke	o	n/a
612.296	0.105	1224592	keystroke	r	n/a
612.611	0.09	1225222	keystroke	t	n/a
613.301	0.075	1226602	keystroke	Key.space	n/a
613.601	0.09	1227202	keystroke	d	n/a
613.721	0.09	1227442	keystroke	e	n/a
613.931	0.105	1227862	keystroke	s	n/a
614.246	0.06	1228492	keystroke	c	n/a
614.456	0.09	1228912	keystroke	r	n/a
614.561	0.09	1229122	keystroke	i	n/a
614.741	0.09	1229482	keystroke	b	n/a
614.816	0.075	1229632	keystroke	e	n/a
615.536	0.06	1231072	keystroke	Key.enter	n/a
615.6	11.3825	1231200	prompt	n/a	analyzed ford included nottingham\n
616.301	0.045	1232602	keystroke	a	n/a
616.436	0.075	1232872	keystroke	n	n/a
616.916	0.105	1233832	keystroke	a	n/a
617.681	0.105	1235362	keystroke	l	n/a
617.936	0.09	1235872	keystroke	y	n/a
618.416	0.09	1236832	keystroke	z	n/a
618.641	0.105	1237282	keystroke	e	n/a
618.851	0.21	1237702	keystroke	d	n/a
619.046	0.12	1238092	keystroke	Key.space	n/a
620.006	0.105	1240012	keystroke	f	n/a
620.096	0.09	1240192	keystroke	o	n/a
620.201	0.105	1240402	keystroke	r	n/a
620.381	0.135	1240762	keystroke	d	n/a
620.501	0.15	1241002	keystroke	Key.space	n/a
621.041	0.075	1242082	keystroke	i	n/a
621.236	0.105	1242472	keystroke	n	n/a
621.311	0.075	1242622	keystroke	c	n/a
621.686	0.09	1243372	keystroke	l	n/a
621.926	0.09	1243852	keystroke	u	n/a
622.391	0.105	1244782	keystroke	d	n/a
622.556	0.12	1245112	keystroke	e	n/a
622.691	0.09	1245382	keystroke	d	n/a
622.796	0.12	1245592	keystroke	Key.space	n/a
623.846	0.075	1247692	keystroke	n	n/a
623.981	0.105	1247962	keystroke	o	n/a
624.131	0.045	1248262	keystroke	t	n/a
624.251	0.105	1248502	keystroke	t	n/a
624.401	0.105	1248802	keystroke	i	n/a
625.4055	0.06	1250811	keystroke	n	n/a
625.616	0.0895	1251232	keystroke	g	n/a
625.7805	0.0905	1251561	keystroke	h	n/a
625.871	0.1045	1251742	keystroke	a	n/a
626.0205	0.09	1252041	keystroke	m	n/a
626.9205	0.06	1253841	keystroke	Key.enter	n/a
626.985	10.317	1253970	prompt	n/a	ambient microsoft language believe\n
627.8055	0.105	1255611	keystroke	a	n/a
627.8955	0.075	1255791	keystroke	m	n/a
628.0905	0.075	1256181	keystroke	b	n/a
628.2255	0.105	1256451	keystroke	i	n/a
628.3155	0.075	1256631	keystroke	e	n/a
628.4055	0.12	1256811	keystroke	n	n/a
628.5405	0.135	1257081	keystroke	t	n/a
628.6605	0.135	1257321	keystroke	Key.space	n/a
629.0355	0.12	1258071	keystroke	m	n/a
629.2755	0.075	1258551	keystroke	i	n/a
629.6505	0.075	1259301	keystroke	c	n/a
629.9655	0.075	1259931	keystroke	r	n/a
630.2655	0.105	1260531	keystroke	o	n/a
630.3855	0.105	1260771	keystroke	s	n/a
630.6255	0.06	1261251	keystroke	o	n/a
630.7305	0.075	1261461	keystroke	f	n/a
631.6155	0.075	1263231	keystroke	t	n/a
631.8555	0.105	1263711	keystroke	Key.space	n/a
632.0205	0.09	1264041	keystroke	l	n/a
632.1255	0.105	1264251	keystroke	a	n/a
634.6025	0.028	1269205	keystroke	n	n/a
634.7805	0.075	1269561	keystroke	g	n/a
634.9005	0.09	1269801	keystroke	u	n/a
634.9605	0.12	1269921	keystroke	a	n/a
635.0955	0.075	1270191	keystroke	g	n/a
635.2005	0.135	1270401	keystroke	e	n/a
635.2905	0.09	1270581	keystroke	Key.space	n/a
635.8905	0.075	1271781	keystroke	b	n/a
635.9955	0.09	1271991	keystroke	e	n/a
636.1005	0.105	1272201	keystroke	l	n/a
636.2955	0.075	1272591	keystroke	i	n/a
636.3855	0.105	1272771	keystroke	e	n/a
636.5655	0.075	1273131	keystroke	v	n/a
636.8205	0.09	1273641	keystroke	e	n/a
637.2405	0.06	1274481	keystroke	Key.enter	n/a
637.305	9.747	1274610	prompt	n/a	machinery if retrieve famous\n
638.1105	0.09	1276221	keystroke	m	n/a
638.2305	0.06	1276461	keystroke	a	n/a
638.3655	0.12	1276731	keystroke	c	n/a
638.5005	0.105	1277001	keystroke	h	n/a
638.6355	0.105	1277271	keystroke	i	n/a
638.8305	0.105	1277661	keystroke	n	n/a
638.8905	0.12	1277781	keystroke	e	n/a
639.0405	0.12	1278081	keystroke	r	n/a
639.4755	0.075	1278951	keystroke	y	n/a
639.6405	0.105	1279281	keystroke	Key.space	n/a
640.4355	0.105	1280871	keystroke	i	n/a
640.7355	0.135	1281471	keystroke	f	n/a
640.9605	0.12	1281921	keystroke	Key.space	n/a
641.5005	0.09	1283001	keystroke	r	n/a
641.6355	0.105	1283271	keystroke	e	n/a
641.8605	0.09	1283721	keystroke	t	n/a
641.9955	0.075	1283991	keystroke	i	n/a
642.3705	0.09	1284741	keystroke	Key.backspace	n/a
642.4455	0.12	1284891	keystroke	r	n/a
642.5505	0.075	1285101	keystroke	e	n/a
642.6705	0.09	1285341	keystroke	i	n/a
643.1505	0.06	1286301	keystroke	Key.backspace	n/a
643.2855	0.075	1286571	keystroke	Key.backspace	n/a
643.4205	0.09	1286841	keystroke	i	n/a
643.4805	0.09	1286961	keystroke	e	n/a
643.7955	0.075	1287591	keystroke	v	n/a
643.8855	0.09	1287771	keystroke	e	n/a
643.9905	0.12	1287981	keystroke	Key.space	n/a
645.0255	0.075	1290051	keystroke	f	n/a
645.1755	0.135	1290351	keystroke	a	n/a
645.2655	0.09	1290531	keystroke	m	n/a
645.4155	0.135	1290831	keystroke	o	n/a
645.6705	0.09	1291341	keystroke	u	n/a
645.7755	0.09	1291551	keystroke	s	n/a
647.005	0.045	1294010	keystroke	Key.enter	n/a
647.0555	11.502	1294111	prompt	n/a	shaw framing bulgaria texture\n
648.115	0.09	1296230	keystroke	s	n/a
648.235	0.045	1296470	keystroke	h	n/a
648.31	0.09	1296620	keystroke	a	n/a
648.521	0.15	1297042	keystroke	r	n/a
648.715	0.105	1297430	keystroke	Key.space	n/a
649.6455	0.06	1299291	keystroke	Key.backspace	n/a
649.7805	0.075	1299561	keystroke	Key.backspace	n/a
649.9305	0.165	1299861	keystroke	w	n/a
650.1105	0.12	1300221	keystroke	Key.space	n/a
650.3655	0.12	1300731	keystroke	f	n/a
650.6055	0.105	1301211	keystroke	r	n/a
650.8155	0.135	1301631	keystroke	a	n/a
650.9355	0.12	1301871	keystroke	m	n/a
651.1455	0.09	1302291	keystroke	i	n/a
651.2955	0.135	1302591	keystroke	n	n/a
651.4155	0.09	1302831	keystroke	g	n/a
651.5805	0.09	1303161	keystroke	Key.space	n/a
652.0755	0.09	1304151	keystroke	b	n/a
652.2255	0.105	1304451	keystroke	u	n/a
652.7655	0.09	1305531	keystroke	l	n/a
653.1705	0.09	1306341	keystroke	g	n/a
653.2455	0.09	1306491	keystroke	a	n/a
653.4255	0.105	1306851	keystroke	r	n/a
653.5305	0.09	1307061	keystroke	i	n/a
653.6955	0.12	1307391	keystroke	a	n/a
653.8605	0.12	1307721	keystroke	Key.space	n/a
655.4055	0.105	1310811	keystroke	t	n/a
655.6005	0.105	1311201	keystroke	e	n/a
656.4405	0.09	1312881	keystroke	x	n/a
656.8005	0.075	1313601	keystroke	t	n/a
656.9355	0.105	1313871	keystroke	u	n/a
657.1455	0.06	1314291	keystroke	e	n/a
657.6855	0.105	1315371	keystroke	Key.backspace	n/a
657.7755	0.09	1315551	keystroke	r	n/a
657.8805	0.09	1315761	keystroke	e	n/a
658.4955	0.06	1316991	keystroke	Key.enter	n/a
658.5615	8.6205	1317123	prompt	n/a	printing unsigned miss skins\n
660.1455	0.09	1320291	keystroke	p	n/a
660.2505	0.075	1320501	keystroke	r	n/a
660.3405	0.09	1320681	keystroke	i	n/a
660.5355	0.12	1321071	keystroke	n	n/a
660.6405	0.075	1321281	keystroke	t	n/a
660.7755	0.09	1321551	keystroke	i	n/a
660.9705	0.105	1321941	keystroke	n	n/a
661.0905	0.12	1322181	keystroke	g	n/a
661.2705	0.12	1322541	keystroke	Key.space	n/a
662.0355	0.03	1324071	keystroke	u	n/a
662.1555	0.135	1324311	keystroke	n	n/a
662.2755	0.09	1324551	keystroke	s	n/a
662.3955	0.12	1324791	keystroke	i	n/a
662.7405	0.09	1325481	keystroke	g	n/a
662.9655	0.09	1325931	keystroke	n	n/a
663.0255	0.09	1326051	keystroke	e	n/a
663.2505	0.135	1326501	keystroke	d	n/a
663.3255	0.135	1326651	keystroke	Key.space	n/a
663.9705	0.075	1327941	keystroke	m	n/a
664.1805	0.105	1328361	keystroke	i	n/a
664.2705	0.105	1328541	keystroke	s	n/a
664.4805	0.12	1328961	keystroke	s	n/a
664.5555	0.12	1329111	keystroke	Key.space	n/a
664.8255	0.045	1329651	keystroke	k	n/a
664.9755	0.045	1329951	keystroke	s	n/a
665.1405	0.06	1330281	keystroke	Key.backspace	n/a
665.2905	0.075	1330581	keystroke	Key.backspace	n/a
665.4105	0.09	1330821	keystroke	s	n/a
665.5155	0.09	1331031	keystroke	k	n/a
665.7105	0.1055	1331421	keystroke	i	n/a
665.8905	0.105	1331781	keystroke	n	n/a
665.9355	0.105	1331871	keystroke	s	n/a
667.12	0.06	1334240	keystroke	Key.enter	n/a
667.1855	10.3915	1334371	prompt	n/a	kelly appropriations wolf brooks\n
668.2	0.075	1336400	keystroke	k	n/a
668.29	0.075	1336580	keystroke	e	n/a
668.41	0.06	1336820	keystroke	l	n/a
668.545	0.06	1337090	keystroke	l	n/a
668.8	0.075	1337600	keystroke	y	n/a
668.89	0.09	1337780	keystroke	Key.space	n/a
669.055	0.12	1338110	keystroke	a	n/a
669.37	0.09	1338740	keystroke	p	n/a
670.18	0.09	1340360	keystroke	p	n/a
670.405	0.075	1340810	keystroke	r	n/a
670.601	0.044	1341202	keystroke	o	n/a
670.735	0.09	1341470	keystroke	t	n/a
671.425	0.075	1342850	keystroke	Key.backspace	n/a
671.591	0.09	1343182	keystroke	p	n/a
671.785	0.06	1343570	keystroke	r	n/a
671.936	0.089	1343872	keystroke	i	n/a
672.085	0.136	1344170	keystroke	a	n/a
672.611	0.075	1345222	keystroke	t	n/a
672.7	0.091	1345400	keystroke	i	n/a
672.835	0.091	1345670	keystroke	o	n/a
673.03	0.076	1346060	keystroke	n	n/a
673.345	0.105	1346690	keystroke	s	n/a
673.42	0.15	1346840	keystroke	Key.space	n/a
674.38	0.076	1348760	keystroke	w	n/a
674.486	0.074	1348972	keystroke	o	n/a
674.666	0.075	1349332	keystroke	l	n/a
674.86	0.12	1349720	keystroke	f	n/a
674.965	0.105	1349930	keystroke	Key.space	n/a
675.806	0.06	1351612	keystroke	b	n/a
675.97	0.105	1351940	keystroke	r	n/a
676.106	0.06	1352212	keystroke	o	n/a
676.241	0.09	1352482	keystroke	o	n/a
676.36	0.106	1352720	keystroke	k	n/a
676.451	0.105	1352902	keystroke	s	n/a
677.516	0.06	1355032	keystroke	Key.enter	n/a
677.58	25.2575	1355160	prompt	n/a	plaintiff contamination fabulous piano\n
678.491	0.12	1356982	keystroke	p	n/a
678.626	0.089	1357252	keystroke	e	n/a
679.286	0.075	1358572	keystroke	Key.backspace	n/a
679.511	0.105	1359022	keystroke	l	n/a
679.631	0.105	1359262	keystroke	a	n/a
679.826	0.045	1359652	keystroke	u	n/a
680.801	0.03	1361602	keystroke	Key.backspace	n/a
680.981	0.075	1361962	keystroke	i	n/a
681.161	0.105	1362322	keystroke	n	n/a
681.221	0.09	1362442	keystroke	t	n/a
681.416	0.09	1362832	keystroke	i	n/a
681.791	0.075	1363582	keystroke	f	n/a
681.971	0.06	1363942	keystroke	f	n/a
682.736	0.075	1365472	keystroke	Key.space	n/a
682.961	0.09	1365922	keystroke	c	n/a
683.111	0.075	1366222	keystroke	o	n/a
683.246	0.1345	1366492	keystroke	n	n/a
683.3655	0.09	1366731	keystroke	t	n/a
683.6205	0.105	1367241	keystroke	a	n/a
683.6955	0.09	1367391	keystroke	m	n/a
683.8755	0.075	1367751	keystroke	i	n/a
684.0255	0.12	1368051	keystroke	n	n/a
684.1905	0.045	1368381	keystroke	t	n/a
684.3855	0.135	1368771	keystroke	a	n/a
685.1055	0.03	1370211	keystroke	r	n/a
685.1805	0.06	1370361	keystroke	i	n/a
685.316	0.0895	1370632	keystroke	o	n/a
685.4805	0.09	1370961	keystroke	n	n/a
686.0355	0.045	1372071	keystroke	Key.backspace	n/a
686.1405	0.09	1372281	keystroke	Key.backspace	n/a
686.3205	0.09	1372641	keystroke	Key.backspace	n/a
686.6055	0.045	1373211	keystroke	t	n/a
686.8305	0.06	1373661	keystroke	Key.backspace	n/a
686.9655	0.09	1373931	keystroke	Key.backspace	n/a
687.0705	0.105	1374141	keystroke	t	n/a
687.1605	0.09	1374321	keystroke	i	n/a
687.3255	0.105	1374651	keystroke	o	n/a
687.5055	0.09	1375011	keystroke	n	n/a
687.6105	0.105	1375221	keystroke	Key.space	n/a
689.8625	0.013	1379725	keystroke	Key.backspace	n/a
690.1455	0.06	1380291	keystroke	Key.backspace	n/a
690.3105	0.075	1380621	keystroke	Key.backspace	n/a
690.4905	0.075	1380981	keystroke	Key.backspace	n/a
690.6405	0.09	1381281	keystroke	Key.backspace	n/a
690.8355	0.075	1381671	keystroke	Key.backspace	n/a
691.0155	0.12	1382031	keystroke	Key.backspace	n/a
691.2405	0.12	1382481	keystroke	a	n/a
691.5105	0.075	1383021	keystroke	r	n/a
691.6155	0.105	1383231	keystroke	i	n/a
691.8255	0.09	1383651	keystroke	o	n/a
692.1105	0.075	1384221	keystroke	Key.backspace	n/a
692.2455	0.09	1384491	keystroke	Key.backspace	n/a
692.3805	0.09	1384761	keystroke	Key.backspace	n/a
692.4555	0.09	1384911	keystroke	t	n/a
692.6055	0.09	1385211	keystroke	i	n/a
692.7855	0.075	1385571	keystroke	o	n/a
692.9655	0.09	1385931	keystroke	n	n/a
693.0405	0.105	1386081	keystroke	Key.space	n/a
694.0155	0.06	1388031	keystroke	f	n/a
694.1505	0.12	1388301	keystroke	a	n/a
694.2555	0.09	1388511	keystroke	b	n/a
694.4205	0.12	1388841	keystroke	o	n/a
695.3205	0.09	1390641	keystroke	l	n/a
695.5155	0.09	1391031	keystroke	o	n/a
695.8305	0.075	1391661	keystroke	u	n/a
695.9655	0.135	1391931	keystroke	s	n/a
696.1005	0.15	1392201	keystroke	Key.space	n/a
697.7355	0.09	1395471	keystroke	Key.backspace	n/a
697.8855	0.09	1395771	keystroke	Key.backspace	n/a
698.0355	0.09	1396071	keystroke	Key.backspace	n/a
698.1855	0.09	1396371	keystroke	Key.backspace	n/a
698.3505	0.075	1396701	keystroke	Key.backspace	n/a
698.6205	0.09	1397241	keystroke	Key.backspace	n/a
699.0555	0.075	1398111	keystroke	u	n/a
699.4605	0.06	1398921	keystroke	l	n/a
699.6405	0.09	1399281	keystroke	o	n/a
699.8505	0.075	1399701	keystroke	u	n/a
699.9405	0.15	1399881	keystroke	s	n/a
700.0905	0.12	1400181	keystroke	Key.space	n/a
701.0355	0.09	1402071	keystroke	p	n/a
701.3655	0.12	1402731	keystroke	i	n/a
701.5005	0.06	1403001	keystroke	r	n/a
702.0555	0.09	1404111	keystroke	Key.backspace	n/a
702.1305	0.105	1404261	keystroke	a	n/a
702.2655	0.09	1404531	keystroke	n	n/a
702.4005	0.105	1404801	keystroke	o	n/a
702.7905	0.045	1405581	keystroke	Key.enter	n/a
702.843	15.9545	1405686	prompt	n/a	christianity scheme reserve reflects\n
703.6005	0.075	1407201	keystroke	c	n/a
703.7055	0.09	1407411	keystroke	h	n/a
704.0955	0.09	1408191	keystroke	i	n/a
704.2905	0.075	1408581	keystroke	r	n/a
704.7105	0.075	1409421	keystroke	Key.backspace	n/a
704.8005	0.075	1409601	keystroke	s	n/a
704.9655	0.06	1409931	keystroke	Key.backspace	n/a
705.1005	0.09	1410201	keystroke	Key.backspace	n/a
705.2505	0.12	1410501	keystroke	r	n/a
705.3855	0.105	1410771	keystroke	i	n/a
705.5505	0.12	1411101	keystroke	s	n/a
705.8205	0.105	1411641	keystroke	t	n/a
705.9105	0.09	1411821	keystroke	i	n/a
706.0905	0.105	1412181	keystroke	a	n/a
706.1505	0.105	1412301	keystroke	n	n/a
706.3605	0.075	1412721	keystroke	l	n/a
706.7205	0.075	1413441	keystroke	Key.backspace	n/a
706.9005	0.12	1413801	keystroke	i	n/a
707.0355	0.075	1414071	keystroke	t	n/a
707.3055	0.09	1414611	keystroke	y	n/a
707.4555	0.12	1414911	keystroke	Key.space	n/a
712.0635	0.042	1424127	keystroke	s	n/a
712.4805	0.075	1424961	keystroke	c	n/a
712.5705	0.121	1425141	keystroke	h	n/a
712.7055	0.09	1425411	keystroke	e	n/a
712.9605	0.09	1425921	keystroke	m	n/a
713.0355	0.18	1426071	keystroke	e	n/a
713.2005	0.135	1426401	keystroke	Key.space	n/a
713.561	0.105	1427122	keystroke	r	n/a
713.741	0.09	1427482	keystroke	e	n/a
713.9205	0.1195	1427841	keystroke	s	n/a
714.67	0.091	1429340	keystroke	e	n/a
714.82	0.061	1429640	keystroke	r	n/a
715.061	0.089	1430122	keystroke	v	n/a
715.165	0.091	1430330	keystroke	e	n/a
715.405	0.09	1430810	keystroke	Key.space	n/a
716.066	0.09	1432132	keystroke	r	n/a
716.2	0.106	1432400	keystroke	e	n/a
716.8	0.076	1433600	keystroke	f	n/a
716.906	0.09	1433812	keystroke	l	n/a
717.011	0.09	1434022	keystroke	e	n/a
717.476	0.09	1434952	keystroke	c	n/a
717.626	0.105	1435252	keystroke	t	n/a
717.731	0.09	1435462	keystroke	s	n/a
718.736	0.06	1437472	keystroke	Key.enter	n/a
718.8005	10.842	1437601	prompt	n/a	ross married assignments surface\n
719.741	0.09	1439482	keystroke	r	n/a
719.861	0.075	1439722	keystroke	o	n/a
720.071	0.06	1440142	keystroke	s	n/a
720.236	0.105	1440472	keystroke	s	n/a
720.356	0.09	1440712	keystroke	Key.space	n/a
720.506	0.105	1441012	keystroke	m	n/a
720.596	0.105	1441192	keystroke	a	n/a
720.881	0.075	1441762	keystroke	r	n/a
721.046	0.075	1442092	keystroke	r	n/a
721.181	0.09	1442362	keystroke	i	n/a
721.256	0.105	1442512	keystroke	e	n/a
721.466	0.12	1442932	keystroke	d	n/a
721.691	0.12	1443382	keystroke	Key.space	n/a
722.366	0.105	1444732	keystroke	a	n/a
722.666	0.06	1445332	keystroke	s	n/a
722.801	0.09	1445602	keystroke	s	n/a
722.921	0.09	1445842	keystroke	i	n/a
723.086	0.135	1446172	keystroke	n	n/a
723.206	0.075	1446412	keystroke	g	n/a
724.166	0.075	1448332	keystroke	Key.backspace	n/a
724.331	0.09	1448662	keystroke	Key.backspace	n/a
725.261	0.075	1450522	keystroke	g	n/a
725.366	0.12	1450732	keystroke	n	n/a
725.531	0.075	1451062	keystroke	e	n/a
725.711	0.015	1451422	keystroke	m	n/a
725.876	0.075	1451752	keystroke	Key.backspace	n/a
725.996	0.09	1451992	keystroke	Key.backspace	n/a
726.206	0.105	1452412	keystroke	m	n/a
726.326	0.09	1452652	keystroke	e	n/a
726.851	0.075	1453702	keystroke	n	n/a
726.941	0.09	1453882	keystroke	t	n/a
727.166	0.135	1454332	keystroke	s	n/a
727.316	0.105	1454632	keystroke	Key.space	n/a
727.511	0.12	1455022	keystroke	s	n/a
727.646	0.12	1455292	keystroke	u	n/a
727.826	0.09	1455652	keystroke	r	n/a
728.366	0.075	1456732	keystroke	f	n/a
728.531	0.135	1457062	keystroke	a	n/a
728.696	0.09	1457392	keystroke	c	n/a
728.801	0.075	1457602	keystroke	e	n/a
729.596	0.045	1459192	keystroke	Key.enter	n/a
729.645	13.7525	1459290	prompt	n/a	consolidated monetary exposure chick\n
730.511	0.075	1461022	keystroke	c	n/a
730.601	0.045	1461202	keystroke	p	n/a
731.081	0.105	1462162	keystroke	Key.backspace	n/a
731.216	0.075	1462432	keystroke	o	n/a
731.396	0.09	1462792	keystroke	n	n/a
731.471	0.09	1462942	keystroke	s	n/a
731.621	0.09	1463242	keystroke	o	n/a
731.876	0.105	1463752	keystroke	l	n/a
732.086	0.075	1464172	keystroke	i	n/a
733.106	0.12	1466212	keystroke	d	n/a
733.196	0.135	1466392	keystroke	a	n/a
733.391	0.09	1466782	keystroke	t	n/a
733.451	0.09	1466902	keystroke	e	n/a
733.661	0.135	1467322	keystroke	d	n/a
733.781	0.105	1467562	keystroke	Key.space	n/a
734.201	0.09	1468402	keystroke	m	n/a
734.336	0.09	1468672	keystroke	o	n/a
734.516	0.105	1469032	keystroke	n	n/a
734.576	0.105	1469152	keystroke	e	n/a
734.816	0.075	1469632	keystroke	t	n/a
735.086	0.09	1470172	keystroke	a	n/a
735.836	0.06	1471672	keystroke	r	n/a
735.971	0.09	1471942	keystroke	y	n/a
736.091	0.09	1472182	keystroke	Key.space	n/a
736.451	0.075	1472902	keystroke	e	n/a
736.691	0.105	1473382	keystroke	x	n/a
736.826	0.09	1473652	keystroke	p	n/a
736.991	0.09	1473982	keystroke	o	n/a
737.801	0.09	1475602	keystroke	s	n/a
738.041	0.075	1476082	keystroke	r	n/a
738.326	0.075	1476652	keystroke	Key.backspace	n/a
738.641	0.015	1477282	keystroke	i	n/a
738.941	0.075	1477882	keystroke	Key.backspace	n/a
739.151	0.09	1478302	keystroke	u	n/a
739.196	0.15	1478392	keystroke	r	n/a
739.331	0.075	1478662	keystroke	e	n/a
740.471	0.075	1480942	keystroke	Key.space	n/a
740.6805	0.075	1481361	keystroke	c	n/a
740.7705	0.09	1481541	keystroke	h	n/a
740.921	0.1045	1481842	keystroke	i	n/a
741.3255	0.075	1482651	keystroke	c	n/a
741.4305	0.105	1482861	keystroke	k	n/a
743.3355	0.06	1486671	keystroke	Key.enter	n/a
743.4005	8.1415	1486801	prompt	n/a	formed auto pavilion crystal\n
744.2205	0.0755	1488441	keystroke	f	n/a
744.296	0.0745	1488592	keystroke	o	n/a
744.4155	0.09	1488831	keystroke	r	n/a
744.4905	0.105	1488981	keystroke	m	n/a
744.6405	0.105	1489281	keystroke	e	n/a
744.8355	0.15	1489671	keystroke	d	n/a
744.9555	0.09	1489911	keystroke	Key.space	n/a
745.2105	0.105	1490421	keystroke	a	n/a
745.4055	0.105	1490811	keystroke	u	n/a
745.5255	0.105	1491051	keystroke	t	n/a
745.6905	0.09	1491381	keystroke	o	n/a
745.8255	0.105	1491651	keystroke	Key.space	n/a
746.0055	0.09	1492011	keystroke	p	n/a
746.0805	0.09	1492161	keystroke	a	n/a
746.3955	0.105	1492791	keystroke	v	n/a
746.5455	0.09	1493091	keystroke	i	n/a
746.8005	0.06	1493601	keystroke	l	n/a
746.9505	0.076	1493901	keystroke	l	n/a
747.1455	0.105	1494291	keystroke	i	n/a
747.8505	0.015	1495701	keystroke	Key.backspace	n/a
747.9405	0.105	1495881	keystroke	Key.backspace	n/a
748.3455	0.09	1496691	keystroke	i	n/a
748.5255	0.09	1497051	keystroke	o	n/a
748.7205	0.09	1497441	keystroke	n	n/a
748.7955	0.12	1497591	keystroke	Key.space	n/a
749.1705	0.075	1498341	keystroke	c	n/a
749.4405	0.09	1498881	keystroke	r	n/a
749.6655	0.105	1499331	keystroke	y	n/a
749.7855	0.105	1499571	keystroke	s	n/a
749.9955	0.105	1499991	keystroke	t	n/a
750.1305	0.105	1500261	keystroke	a	n/a
750.2955	0.075	1500591	keystroke	l	n/a
751.4655	0.075	1502931	keystroke	Key.enter	n/a
751.545	8.1875	1503090	prompt	n/a	arrivals codes instance final\n
752.1705	0.09	1504341	keystroke	a	n/a
752.3955	0.09	1504791	keystroke	r	n/a
752.5455	0.105	1505091	keystroke	r	n/a
752.6655	0.075	1505331	keystroke	i	n/a
752.8905	0.06	1505781	keystroke	v	n/a
752.9805	0.12	1505961	keystroke	a	n/a
753.1905	0.09	1506381	keystroke	l	n/a
