onset	duration	sample	value	key	prompt_text
12.568	7.3565	25136	prompt	n/a	the quick brown fox jumps over a lazy dog\n
13.7815	0.05	27563	keystroke_t	t	n/a
13.816	0.075	27632	keystroke_h	h	n/a
14.086	0.1055	28172	keystroke_e	e	n/a
14.2055	0.09	28411	keystroke_Key.space	Key.space	n/a
14.3105	0.1045	28621	keystroke_q	q	n/a
14.4305	0.075	28861	keystroke_u	u	n/a
14.5955	0.075	29191	keystroke_i	i	n/a
14.6105	0.045	29221	keystroke_c	c	n/a
15.466	0.0745	30932	keystroke_k	k	n/a
15.661	0.075	31322	keystroke_Key.space	Key.space	n/a
15.7505	0.0755	31501	keystroke_b	b	n/a
15.9305	0.1055	31861	keystroke_r	r	n/a
15.9905	0.0755	31981	keystroke_o	o	n/a
16.1265	0.104	32253	keystroke_w	w	n/a
16.1855	0.075	32371	keystroke_n	n	n/a
16.3355	0.0755	32671	keystroke_Key.space	Key.space	n/a
16.4555	0.076	32911	keystroke_f	f	n/a
16.5455	0.06	33091	keystroke_o	o	n/a
16.6655	0.09	33331	keystroke_x	x	n/a
16.7705	0.06	33541	keystroke_Key.space	Key.space	n/a
16.9515	0.06	33903	keystroke_j	j	n/a
17.0715	0.09	34143	keystroke_u	u	n/a
17.2665	0.074	34533	keystroke_m	m	n/a
17.4905	0.045	34981	keystroke_p	p	n/a
17.5655	0.09	35131	keystroke_s	s	n/a
17.6705	0.0755	35341	keystroke_Key.space	Key.space	n/a
17.8665	0.0745	35733	keystroke_o	o	n/a
17.9265	0.06	35853	keystroke_v	v	n/a
17.9715	0.1495	35943	keystroke_e	e	n/a
18.0905	0.106	36181	keystroke_r	r	n/a
18.151	0.0745	36302	keystroke_Key.space	Key.space	n/a
18.3155	0.0755	36631	keystroke_a	a	n/a
18.3305	0.075	36661	keystroke_Key.space	Key.space	n/a
18.8415	0.1045	37683	keystroke_l	l	n/a
18.961	0.045	37922	keystroke_a	a	n/a
19.111	0.1195	38222	keystroke_z	z	n/a
19.2315	0.0895	38463	keystroke_y	y	n/a
19.3505	0.075	38701	keystroke_Key.space	Key.space	n/a
19.471	0.0905	38942	keystroke_d	d	n/a
19.6065	0.0745	39213	keystroke_o	o	n/a
19.6965	0.075	39393	keystroke_g	g	n/a
19.7855	0.135	39571	keystroke_Key.enter	Key.enter	n/a
19.93	5.748	39860	prompt	n/a	legends voted preventing attachments\n
20.5205	0.09	41041	keystroke_l	l	n/a
20.5955	0.0905	41191	keystroke_e	e	n/a
20.7155	0.1055	41431	keystroke_g	g	n/a
20.7905	0.121	41581	keystroke_e	e	n/a
20.9115	0.075	41823	keystroke_n	n	n/a
21.0165	0.104	42033	keystroke_d	d	n/a
21.0905	0.076	42181	keystroke_s	s	n/a
21.1505	0.075	42301	keystroke_Key.space	Key.space	n/a
21.271	0.09	42542	keystroke_v	v	n/a
21.4055	0.076	42811	keystroke_o	o	n/a
21.4955	0.061	42991	keystroke_t	t	n/a
21.5255	0.12	43051	keystroke_e	e	n/a
21.676	0.09	43352	keystroke_d	d	n/a
21.781	0.0755	43562	keystroke_Key.space	Key.space	n/a
22.005	0.06	44010	keystroke_p	p	n/a
22.05	0.09	44100	keystroke_r	r	n/a
22.125	0.105	44250	keystroke_e	e	n/a
22.3195	0.089	44639	keystroke_v	v	n/a
22.3795	0.105	44759	keystroke_e	e	n/a
22.499	0.0595	44998	keystroke_n	n	n/a
22.5735	0.0745	45147	keystroke_t	t	n/a
22.7075	0.06	45415	keystroke_i	i	n/a
22.873	0.09	45746	keystroke_n	n	n/a
22.977	0.0455	45954	keystroke_g	g	n/a
23.0365	0.0905	46073	keystroke_Key.space	Key.space	n/a
23.112	0.09	46224	keystroke_a	a	n/a
23.291	0.105	46582	keystroke_t	t	n/a
23.4715	0.104	46943	keystroke_a	a	n/a
23.9345	0.1215	47869	keystroke_Key.backspace	Key.backspace	n/a
24.2645	0.0905	48529	keystroke_t	t	n/a
24.3845	0.12	48769	keystroke_a	a	n/a
24.5205	0.06	49041	keystroke_c	c	n/a
24.6255	0.0445	49251	keystroke_h	h	n/a
24.82	0.0745	49640	keystroke_m	m	n/a
24.9395	0.09	49879	keystroke_e	e	n/a
25.044	0.047	50088	keystroke_n	n	n/a
25.3005	0.1495	50601	keystroke_t	t	n/a
25.435	0.1045	50870	keystroke_s	s	n/a
25.555	0.1205	51110	keystroke_Key.enter	Key.enter	n/a
25.683	6.4585	51366	prompt	n/a	handbags abuse chubby runtime\n
26.379	0.06	52758	keystroke_h	h	n/a
26.469	0.1205	52938	keystroke_a	a	n/a
26.6055	0.075	53211	keystroke_n	n	n/a
26.6945	0.0445	53389	keystroke_d	d	n/a
27.1135	0.0765	54227	keystroke_b	b	n/a
27.2945	0.0905	54589	keystroke_a	a	n/a
27.565	0.1205	55130	keystroke_g	g	n/a
27.7	0.105	55400	keystroke_s	s	n/a
27.835	0.09	55670	keystroke_Key.space	Key.space	n/a
27.954	0.1045	55908	keystroke_a	a	n/a
28.0435	0.0755	56087	keystroke_b	b	n/a
28.194	0.061	56388	keystroke_u	u	n/a
28.2555	0.1045	56511	keystroke_s	s	n/a
28.719	0.091	57438	keystroke_e	e	n/a
28.855	0.104	57710	keystroke_Key.space	Key.space	n/a
29.335	0.075	58670	keystroke_c	c	n/a
29.619	0.1045	59238	keystroke_h	h	n/a
29.7845	0.0755	59569	keystroke_u	u	n/a
29.9045	0.09	59809	keystroke_b	b	n/a
30.024	0.1045	60048	keystroke_b	b	n/a
30.249	0.0755	60498	keystroke_y	y	n/a
30.3695	0.105	60739	keystroke_Key.space	Key.space	n/a
30.788	0.077	61576	keystroke_c	c	n/a
31.119	0.09	62238	keystroke_Key.backspace	Key.backspace	n/a
31.2235	0.075	62447	keystroke_r	r	n/a
31.36	0.059	62720	keystroke_u	u	n/a
31.525	0.0735	63050	keystroke_n	n	n/a
31.6285	0.075	63257	keystroke_t	t	n/a
31.719	0.0595	63438	keystroke_i	i	n/a
31.87	0.089	63740	keystroke_m	m	n/a
31.945	0.09	63890	keystroke_e	e	n/a
32.019	0.1195	64038	keystroke_Key.enter	Key.enter	n/a
32.1465	4.105	64293	prompt	n/a	happened floral timer white\n
32.7085	0.0755	65417	keystroke_h	h	n/a
32.829	0.105	65658	keystroke_a	a	n/a
32.9795	0.0595	65959	keystroke_p	p	n/a
33.0985	0.0455	66197	keystroke_p	p	n/a
33.2785	0.075	66557	keystroke_n	n	n/a
33.3385	0.106	66677	keystroke_e	e	n/a
33.549	0.075	67098	keystroke_d	d	n/a
33.639	0.0895	67278	keystroke_Key.space	Key.space	n/a
33.759	0.104	67518	keystroke_f	f	n/a
34.014	0.0595	68028	keystroke_o	o	n/a
34.329	0.09	68658	keystroke_Key.backspace	Key.backspace	n/a
34.45	0.0745	68900	keystroke_l	l	n/a
34.599	0.1045	69198	keystroke_o	o	n/a
34.7045	0.149	69409	keystroke_r	r	n/a
34.809	0.075	69618	keystroke_a	a	n/a
34.884	0.09	69768	keystroke_l	l	n/a
34.99	0.074	69980	keystroke_Key.space	Key.space	n/a
35.1385	0.1055	70277	keystroke_t	t	n/a
35.229	0.045	70458	keystroke_i	i	n/a
35.364	0.0905	70728	keystroke_m	m	n/a
35.4695	0.1195	70939	keystroke_e	e	n/a
35.5145	0.1045	71029	keystroke_r	r	n/a
35.604	0.075	71208	keystroke_Key.space	Key.space	n/a
35.68	0.089	71360	keystroke_w	w	n/a
35.8285	0.075	71657	keystroke_h	h	n/a
35.9185	0.091	71837	keystroke_i	i	n/a
36.0245	0.0905	72049	keystroke_t	t	n/a
36.0845	0.12	72169	keystroke_e	e	n/a
36.1445	0.105	72289	keystroke_Key.enter	Key.enter	n/a
36.256	6.1305	72512	prompt	n/a	cedar subsidiaries vista learn\n
36.819	0.1345	73638	keystroke_c	c	n/a
36.969	0.1055	73938	keystroke_e	e	n/a
37.089	0.1345	74178	keystroke_d	d	n/a
37.194	0.1495	74388	keystroke_a	a	n/a
37.3285	0.09	74657	keystroke_r	r	n/a
37.493	0.1065	74986	keystroke_Key.space	Key.space	n/a
37.6135	0.091	75227	keystroke_s	s	n/a
37.8095	0.0735	75619	keystroke_u	u	n/a
37.899	0.059	75798	keystroke_b	b	n/a
38.0795	0.09	76159	keystroke_s	s	n/a
38.2435	0.075	76487	keystroke_i	i	n/a
38.3495	0.1035	76699	keystroke_d	d	n/a
38.4995	0.1195	76999	keystroke_a	a	n/a
38.7835	0.03	77567	keystroke_i	i	n/a
39.0095	0.0745	78019	keystroke_Key.backspace	Key.backspace	n/a
39.174	0.09	78348	keystroke_Key.backspace	Key.backspace	n/a
39.3535	0.06	78707	keystroke_i	i	n/a
39.834	0.1045	79668	keystroke_a	a	n/a
40.044	0.075	80088	keystroke_r	r	n/a
40.2085	0.06	80417	keystroke_i	i	n/a
40.2985	0.0745	80597	keystroke_e	e	n/a
40.4625	0.0915	80925	keystroke_s	s	n/a
40.599	0.105	81198	keystroke_Key.space	Key.space	n/a
40.7935	0.074	81587	keystroke_v	v	n/a
40.9285	0.075	81857	keystroke_i	i	n/a
41.109	0.09	82218	keystroke_s	s	n/a
41.274	0.0895	82548	keystroke_t	t	n/a
41.3785	0.089	82757	keystroke_a	a	n/a
41.5885	0.075	83177	keystroke_Key.space	Key.space	n/a
41.7985	0.0745	83597	keystroke_l	l	n/a
41.8585	0.075	83717	keystroke_e	e	n/a
41.9185	0.12	83837	keystroke_a	a	n/a
42.0085	0.106	84017	keystroke_r	r	n/a
42.0835	0.0755	84167	keystroke_n	n	n/a
42.294	0.09	84588	keystroke_Key.enter	Key.enter	n/a
42.3915	5.199	84783	prompt	n/a	younger lift returned star\n
43.0285	0.0605	86057	keystroke_y	y	n/a
43.404	0.0895	86808	keystroke_o	o	n/a
43.598	0.061	87196	keystroke_u	u	n/a
43.7645	0.0895	87529	keystroke_n	n	n/a
43.838	0.09	87676	keystroke_g	g	n/a
43.944	0.1495	87888	keystroke_e	e	n/a
44.0325	0.107	88065	keystroke_r	r	n/a
44.1085	0.0755	88217	keystroke_Key.space	Key.space	n/a
44.319	0.06	88638	keystroke_l	l	n/a
44.4985	0.0605	88997	keystroke_i	i	n/a
44.559	0.074	89118	keystroke_f	f	n/a
44.768	0.09	89536	keystroke_t	t	n/a
45.5035	0.09	91007	keystroke_Key.space	Key.space	n/a
45.7295	0.149	91459	keystroke_r	r	n/a
45.849	0.12	91698	keystroke_e	e	n/a
45.9535	0.09	91907	keystroke_t	t	n/a
46.0735	0.075	92147	keystroke_u	u	n/a
46.1785	0.1655	92357	keystroke_r	r	n/a
46.314	0.059	92628	keystroke_n	n	n/a
46.329	0.12	92658	keystroke_e	e	n/a
46.5685	0.089	93137	keystroke_d	d	n/a
46.719	0.075	93438	keystroke_Key.space	Key.space	n/a
46.809	0.119	93618	keystroke_s	s	n/a
47.049	0.0445	94098	keystroke_t	t	n/a
47.1225	0.1215	94245	keystroke_a	a	n/a
47.229	0.089	94458	keystroke_r	r	n/a
47.4685	0.1195	94937	keystroke_Key.enter	Key.enter	n/a
47.5945	7.9615	95189	prompt	n/a	tsunami shipment gave individuals\n
48.309	0.104	96618	keystroke_t	t	n/a
48.5485	0.0745	97097	keystroke_s	s	n/a
48.743	0.0905	97486	keystroke_u	u	n/a
48.998	0.045	97996	keystroke_m	m	n/a
49.5385	0.0895	99077	keystroke_Key.backspace	Key.backspace	n/a
49.8085	0.06	99617	keystroke_n	n	n/a
50.0785	0.06	100157	keystroke_a	a	n/a
50.183	0.0905	100366	keystroke_m	m	n/a
50.4235	0.06	100847	keystroke_i	i	n/a
50.5285	0.0895	101057	keystroke_Key.space	Key.space	n/a
50.678	0.091	101356	keystroke_s	s	n/a
50.8585	0.104	101717	keystroke_h	h	n/a
50.9785	0.09	101957	keystroke_i	i	n/a
51.848	0.075	103696	keystroke_p	p	n/a
52.0885	0.074	104177	keystroke_m	m	n/a
52.208	0.106	104416	keystroke_e	e	n/a
52.2985	0.0755	104597	keystroke_n	n	n/a
52.448	0.0605	104896	keystroke_t	t	n/a
52.553	0.0895	105106	keystroke_Key.space	Key.space	n/a
52.809	0.1045	105618	keystroke_g	g	n/a
52.9285	0.1195	105857	keystroke_a	a	n/a
53.0335	0.12	106067	keystroke_v	v	n/a
53.0935	0.1045	106187	keystroke_e	e	n/a
53.212	0.0605	106424	keystroke_Key.space	Key.space	n/a
53.4085	0.06	106817	keystroke_i	i	n/a
53.5735	0.075	107147	keystroke_n	n	n/a
53.6785	0.0895	107357	keystroke_d	d	n/a
53.783	0.106	107566	keystroke_i	i	n/a
53.9485	0.0745	107897	keystroke_v	v	n/a
54.113	0.0905	108226	keystroke_i	i	n/a
54.3395	0.0745	108679	keystroke_d	d	n/a
54.879	0.06	109758	keystroke_u	u	n/a
55.0435	0.075	110087	keystroke_a	a	n/a
55.1335	0.09	110267	keystroke_l	l	n/a
55.2385	0.09	110477	keystroke_s	s	n/a
55.4335	0.12	110867	keystroke_Key.enter	Key.enter	n/a
55.5635	5.901	111127	prompt	n/a	season watershed terrorism excuse\n
56.0485	0.12	112097	keystroke_s	s	n/a
56.2285	0.165	112457	keystroke_e	e	n/a
56.378	0.1505	112756	keystroke_a	a	n/a
56.963	0.0905	113926	keystroke_s	s	n/a
57.068	0.0755	114136	keystroke_o	o	n/a
57.2925	0.0605	114585	keystroke_n	n	n/a
57.443	0.09	114886	keystroke_Key.space	Key.space	n/a
57.549	0.1185	115098	keystroke_w	w	n/a
57.638	0.1345	115276	keystroke_a	a	n/a
57.7575	0.105	115515	keystroke_t	t	n/a
57.8325	0.1515	115665	keystroke_e	e	n/a
57.969	0.105	115938	keystroke_r	r	n/a
58.134	0.0895	116268	keystroke_s	s	n/a
58.283	0.0895	116566	keystroke_h	h	n/a
58.4035	0.074	116807	keystroke_e	e	n/a
58.5535	0.09	117107	keystroke_d	d	n/a
58.7035	0.075	117407	keystroke_Key.space	Key.space	n/a
58.8835	0.12	117767	keystroke_t	t	n/a
58.973	0.106	117946	keystroke_e	e	n/a
59.1235	0.06	118247	keystroke_r	r	n/a
59.2285	0.09	118457	keystroke_r	r	n/a
59.3935	0.09	118787	keystroke_o	o	n/a
59.4985	0.075	118997	keystroke_r	r	n/a
59.6335	0.075	119267	keystroke_i	i	n/a
59.709	0.075	119418	keystroke_s	s	n/a
59.8585	0.074	119717	keystroke_m	m	n/a
60.1125	0.075	120225	keystroke_Key.space	Key.space	n/a
60.2175	0.1055	120435	keystroke_e	e	n/a
60.458	0.091	120916	keystroke_x	x	n/a
60.668	0.0605	121336	keystroke_c	c	n/a
60.9675	0.0455	121935	keystroke_u	u	n/a
61.0435	0.075	122087	keystroke_s	s	n/a
61.1785	0.105	122357	keystroke_e	e	n/a
61.358	0.105	122716	keystroke_Key.enter	Key.enter	n/a
61.4695	10.376	122939	prompt	n/a	goes ringtones escape realtors\n
62.018	0.0905	124036	keystroke_g	g	n/a
62.1685	0.09	124337	keystroke_o	o	n/a
62.2585	0.0895	124517	keystroke_e	e	n/a
62.4235	0.075	124847	keystroke_s	s	n/a
62.513	0.0755	125026	keystroke_Key.space	Key.space	n/a
62.6335	0.075	125267	keystroke_t	t	n/a
62.783	0.045	125566	keystroke_i	i	n/a
62.919	0.089	125838	keystroke_n	n	n/a
62.9935	0.06	125987	keystroke_g	g	n/a
63.204	0.0445	126408	keystroke_t	t	n/a
63.294	0.074	126588	keystroke_o	o	n/a
63.488	0.0605	126976	keystroke_n	n	n/a
64.598	0.061	129196	keystroke_Key.backspace	Key.backspace	n/a
64.7335	0.0895	129467	keystroke_Key.backspace	Key.backspace	n/a
64.868	0.105	129736	keystroke_Key.backspace	Key.backspace	n/a
64.9885	0.135	129977	keystroke_r	r	n/a
65.1245	0.0595	130249	keystroke_i	i	n/a
65.2885	0.1045	130577	keystroke_n	n	n/a
65.3785	0.0445	130757	keystroke_g	g	n/a
65.5285	0.061	131057	keystroke_t	t	n/a
65.5895	0.074	131179	keystroke_o	o	n/a
65.7685	0.09	131537	keystroke_n	n	n/a
65.874	0.0745	131748	keystroke_e	e	n/a
66.039	0.09	132078	keystroke_s	s	n/a
66.144	0.0895	132288	keystroke_Key.space	Key.space	n/a
66.2785	0.09	132557	keystroke_e	e	n/a
66.4585	0.1205	132917	keystroke_s	s	n/a
66.6685	0.1205	133337	keystroke_a	a	n/a
66.7585	0.105	133517	keystroke_c	c	n/a
66.9085	0.0905	133817	keystroke_p	p	n/a
67.104	0.0895	134208	keystroke_e	e	n/a
67.3435	0.0745	134687	keystroke_Key.space	Key.space	n/a
68.2585	0.075	136517	keystroke_Key.backspace	Key.backspace	n/a
68.4535	0.075	136907	keystroke_Key.backspace	Key.backspace	n/a
68.6185	0.045	137237	keystroke_Key.backspace	Key.backspace	n/a
68.7685	0.045	137537	keystroke_Key.backspace	Key.backspace	n/a
68.9035	0.045	137807	keystroke_Key.backspace	Key.backspace	n/a
69.204	0.0745	138408	keystroke_c	c	n/a
69.3385	0.105	138677	keystroke_a	a	n/a
69.609	0.0445	139218	keystroke_e	e	n/a
69.8035	0.09	139607	keystroke_Key.backspace	Key.backspace	n/a
69.9235	0.105	139847	keystroke_p	p	n/a
70.0135	0.12	140027	keystroke_e	e	n/a
70.1935	0.105	140387	keystroke_Key.space	Key.space	n/a
70.4345	0.075	140869	keystroke_r	r	n/a
70.614	0.12	141228	keystroke_e	e	n/a
70.688	0.121	141376	keystroke_a	a	n/a
70.794	0.0895	141588	keystroke_l	l	n/a
71.139	0.075	142278	keystroke_t	t	n/a
71.304	0.0745	142608	keystroke_o	o	n/a
71.379	0.09	142758	keystroke_r	r	n/a
71.603	0.076	143206	keystroke_s	s	n/a
71.739	0.105	143478	keystroke_Key.enter	Key.enter	n/a
71.851	4.78	143702	prompt	n/a	lucy tsunami digital judy\n
72.413	0.0905	144826	keystroke_l	l	n/a
72.624	0.075	145248	keystroke_u	u	n/a
72.714	0.075	145428	keystroke_c	c	n/a
72.9085	0.06	145817	keystroke_y	y	n/a
72.9985	0.1195	145997	keystroke_Key.space	Key.space	n/a
73.1035	0.0905	146207	keystroke_t	t	n/a
73.3735	0.015	146747	keystroke_s	s	n/a
73.4185	0.06	146837	keystroke_u	u	n/a
73.6135	0.0755	147227	keystroke_n	n	n/a
73.749	0.0895	147498	keystroke_a	a	n/a
73.8385	0.105	147677	keystroke_m	m	n/a
74.0635	0.06	148127	keystroke_i	i	n/a
74.2435	0.09	148487	keystroke_Key.space	Key.space	n/a
74.4235	0.09	148847	keystroke_d	d	n/a
74.529	0.0595	149058	keystroke_i	i	n/a
74.6485	0.075	149297	keystroke_g	g	n/a
74.7385	0.075	149477	keystroke_i	i	n/a
74.8285	0.075	149657	keystroke_t	t	n/a
74.9335	0.105	149867	keystroke_a	a	n/a
75.0535	0.0455	150107	keystroke_l	l	n/a
75.2035	0.09	150407	keystroke_Key.space	Key.space	n/a
75.428	0.06	150856	keystroke_j	j	n/a
75.594	0.0445	151188	keystroke_u	u	n/a
75.849	0.0895	151698	keystroke_g	g	n/a
76.134	0.09	152268	keystroke_Key.backspace	Key.backspace	n/a
76.209	0.09	152418	keystroke_d	d	n/a
76.419	0.0895	152838	keystroke_y	y	n/a
76.5385	0.09	153077	keystroke_Key.enter	Key.enter	n/a
76.6355	5.654	153271	prompt	n/a	pleased impression supply spent\n
77.274	0.03	154548	keystroke_p	p	n/a
77.424	0.059	154848	keystroke_l	l	n/a
77.558	0.1355	155116	keystroke_e	e	n/a
77.6645	0.194	155329	keystroke_a	a	n/a
77.814	0.09	155628	keystroke_s	s	n/a
77.979	0.12	155958	keystroke_e	e	n/a
78.1585	0.075	156317	keystroke_d	d	n/a
78.2495	0.089	156499	keystroke_Key.space	Key.space	n/a
78.504	0.06	157008	keystroke_i	i	n/a
78.654	0.09	157308	keystroke_m	m	n/a
78.8635	0.075	157727	keystroke_p	p	n/a
78.9535	0.135	157907	keystroke_r	r	n/a
79.0285	0.0905	158057	keystroke_e	e	n/a
79.224	0.075	158448	keystroke_s	s	n/a
79.329	0.1045	158658	keystroke_s	s	n/a
79.7935	0.075	159587	keystroke_i	i	n/a
80.0185	0.0755	160037	keystroke_o	o	n/a
80.124	0.0895	160248	keystroke_n	n	n/a
80.2735	0.0905	160547	keystroke_Key.space	Key.space	n/a
80.453	0.09	160906	keystroke_s	s	n/a
80.573	0.0755	161146	keystroke_u	u	n/a
80.828	0.061	161656	keystroke_p	p	n/a
80.949	0.089	161898	keystroke_p	p	n/a
81.113	0.091	162226	keystroke_l	l	n/a
81.219	0.0745	162438	keystroke_y	y	n/a
81.3235	0.105	162647	keystroke_Key.space	Key.space	n/a
81.4585	0.0895	162917	keystroke_s	s	n/a
81.5785	0.0745	163157	keystroke_p	p	n/a
81.7885	0.1055	163577	keystroke_e	e	n/a
81.969	0.09	163938	keystroke_n	n	n/a
82.073	0.0755	164146	keystroke_t	t	n/a
82.178	0.1055	164356	keystroke_Key.enter	Key.enter	n/a
82.2895	8.143	164579	prompt	n/a	brooklyn wizard understood atmospheric\n
82.959	0.075	165918	keystroke_b	b	n/a
83.139	0.105	166278	keystroke_r	r	n/a
83.259	0.075	166518	keystroke_o	o	n/a
83.423	0.075	166846	keystroke_o	o	n/a
83.678	0.1055	167356	keystroke_k	k	n/a
83.8595	0.0885	167719	keystroke_l	l	n/a
83.963	0.09	167926	keystroke_y	y	n/a
84.099	0.0595	168198	keystroke_n	n	n/a
84.2485	0.09	168497	keystroke_Key.space	Key.space	n/a
84.3545	0.105	168709	keystroke_w	w	n/a
84.5035	0.0755	169007	keystroke_i	i	n/a
84.6385	0.0905	169277	keystroke_z	z	n/a
84.849	0.105	169698	keystroke_a	a	n/a
84.984	0.105	169968	keystroke_r	r	n/a
85.209	0.1055	170418	keystroke_d	d	n/a
85.3735	0.09	170747	keystroke_Key.space	Key.space	n/a
85.629	0.045	171258	keystroke_u	u	n/a
85.779	0.0895	171558	keystroke_n	n	n/a
85.824	0.12	171648	keystroke_d	d	n/a
85.945	0.104	171890	keystroke_e	e	n/a
86.004	0.105	172008	keystroke_r	r	n/a
86.169	0.0895	172338	keystroke_s	s	n/a
86.334	0.075	172668	keystroke_t	t	n/a
86.468	0.046	172936	keystroke_o	o	n/a
86.588	0.1055	173176	keystroke_o	o	n/a
86.708	0.076	173416	keystroke_f	f	n/a
86.858	0.076	173716	keystroke_Key.space	Key.space	n/a
87.353	0.06	174706	keystroke_Key.backspace	Key.backspace	n/a
87.518	0.046	175036	keystroke_Key.backspace	Key.backspace	n/a
87.624	0.089	175248	keystroke_d	d	n/a
87.8185	0.0745	175637	keystroke_Key.space	Key.space	n/a
87.968	0.121	175936	keystroke_a	a	n/a
88.193	0.06	176386	keystroke_t	t	n/a
88.569	0.09	177138	keystroke_m	m	n/a
88.779	0.0445	177558	keystroke_o	o	n/a
88.8395	0.105	177679	keystroke_s	s	n/a
89.0035	0.09	178007	keystroke_p	p	n/a
89.1845	0.045	178369	keystroke_h	h	n/a
89.8285	0.1505	179657	keystroke_e	e	n/a
89.9335	0.09	179867	keystroke_r	r	n/a
90.1285	0.061	180257	keystroke_i	i	n/a
90.2035	0.0755	180407	keystroke_c	c	n/a
90.3235	0.105	180647	keystroke_Key.enter	Key.enter	n/a
90.444	10.307	180888	prompt	n/a	buildings flexibility rage petersburg\n
91.0295	0.075	182059	keystroke_b	b	n/a
91.149	0.075	182298	keystroke_u	u	n/a
91.344	0.045	182688	keystroke_i	i	n/a
91.509	0.075	183018	keystroke_l	l	n/a
91.569	0.1055	183138	keystroke_d	d	n/a
91.719	0.09	183438	keystroke_i	i	n/a
91.899	0.104	183798	keystroke_n	n	n/a
91.988	0.1055	183976	keystroke_g	g	n/a
92.109	0.105	184218	keystroke_s	s	n/a
92.1985	0.0745	184397	keystroke_Key.space	Key.space	n/a
92.379	0.1195	184758	keystroke_f	f	n/a
92.514	0.12	185028	keystroke_l	l	n/a
92.604	0.09	185208	keystroke_e	e	n/a
92.873	0.106	185746	keystroke_x	x	n/a
94.164	0.3445	188328	keystroke_Key.right	Key.right	n/a
94.974	0.1215	189948	keystroke_i	i	n/a
95.3345	0.105	190669	keystroke_b	b	n/a
95.4245	0.06	190849	keystroke_i	i	n/a
95.604	0.075	191208	keystroke_l	l	n/a
95.769	0.09	191538	keystroke_i	i	n/a
95.844	0.0595	191688	keystroke_t	t	n/a
95.979	0.105	191958	keystroke_y	y	n/a
96.129	0.074	192258	keystroke_Key.space	Key.space	n/a
96.354	0.105	192708	keystroke_r	r	n/a
96.5335	0.12	193067	keystroke_a	a	n/a
96.6245	0.134	193249	keystroke_g	g	n/a
96.714	0.09	193428	keystroke_e	e	n/a
96.789	0.1045	193578	keystroke_Key.space	Key.space	n/a
97.0885	0.0605	194177	keystroke_p	p	n/a
97.1645	0.105	194329	keystroke_e	e	n/a
97.254	0.1505	194508	keystroke_r	r	n/a
97.3895	0.0595	194779	keystroke_e	e	n/a
97.7485	0.075	195497	keystroke_Key.backspace	Key.backspace	n/a
97.883	0.1055	195766	keystroke_Key.backspace	Key.backspace	n/a
97.9735	0.1055	195947	keystroke_t	t	n/a
98.08	0.119	196160	keystroke_e	e	n/a
98.334	0.12	196668	keystroke_r	r	n/a
98.439	0.06	196878	keystroke_e	e	n/a
98.769	0.0295	197538	keystroke_Key.backspace	Key.backspace	n/a
98.874	0.06	197748	keystroke_Key.backspace	Key.backspace	n/a
99.4895	0.119	198979	keystroke_r	r	n/a
99.6995	0.119	199399	keystroke_s	s	n/a
100.1495	0.09	200299	keystroke_b	b	n/a
100.2695	0.1045	200539	keystroke_u	u	n/a
100.3885	0.075	200777	keystroke_r	r	n/a
100.5535	0.1055	201107	keystroke_g	g	n/a
100.6435	0.1055	201287	keystroke_Key.enter	Key.enter	n/a
100.7555	7.0305	201511	prompt	n/a	waste session stolen individually\n
101.3795	0.06	202759	keystroke_e	e	n/a
101.4695	0.105	202939	keystroke_a	a	n/a
101.7535	0.075	203507	keystroke_Key.backspace	Key.backspace	n/a
101.8745	0.1045	203749	keystroke_Key.backspace	Key.backspace	n/a
101.919	0.15	203838	keystroke_w	w	n/a
102.0245	0.21	204049	keystroke_a	a	n/a
102.114	0.105	204228	keystroke_s	s	n/a
102.2495	0.134	204499	keystroke_t	t	n/a
102.3235	0.09	204647	keystroke_e	e	n/a
102.5335	0.105	205067	keystroke_Key.space	Key.space	n/a
102.699	0.075	205398	keystroke_s	s	n/a
102.834	0.09	205668	keystroke_e	e	n/a
103.0135	0.045	206027	keystroke_s	s	n/a
103.1035	0.1045	206207	keystroke_s	s	n/a
103.253	0.076	206506	keystroke_i	i	n/a
103.4185	0.075	206837	keystroke_o	o	n/a
103.4785	0.06	206957	keystroke_n	n	n/a
103.6285	0.075	207257	keystroke_Key.space	Key.space	n/a
103.7185	0.1055	207437	keystroke_s	s	n/a
103.839	0.06	207678	keystroke_t	t	n/a
103.9135	0.09	207827	keystroke_o	o	n/a
104.064	0.0895	208128	keystroke_l	l	n/a
104.169	0.1355	208338	keystroke_e	e	n/a
104.319	0.0755	208638	keystroke_n	n	n/a
104.679	0.0895	209358	keystroke_Key.space	Key.space	n/a
105.0395	0.044	210079	keystroke_i	i	n/a
105.2185	0.09	210437	keystroke_n	n	n/a
105.3535	0.076	210707	keystroke_d	d	n/a
105.519	0.0445	211038	keystroke_i	i	n/a
105.6535	0.075	211307	keystroke_v	v	n/a
105.819	0.075	211638	keystroke_i	i	n/a
106.884	0.075	213768	keystroke_d	d	n/a
106.9745	0.06	213949	keystroke_u	u	n/a
107.11	0.089	214220	keystroke_a	a	n/a
107.214	0.0905	214428	keystroke_l	l	n/a
107.4095	0.09	214819	keystroke_l	l	n/a
107.5595	0.075	215119	keystroke_y	y	n/a
107.679	0.1055	215358	keystroke_Key.enter	Key.enter	n/a
107.7905	8.997	215581	prompt	n/a	webmaster alternatively government encountered\n
108.5045	0.179	217009	keystroke_w	w	n/a
108.669	0.09	217338	keystroke_e	e	n/a
108.894	0.09	217788	keystroke_b	b	n/a
109.3295	0.0895	218659	keystroke_m	m	n/a
109.434	0.165	218868	keystroke_a	a	n/a
109.539	0.12	219078	keystroke_s	s	n/a
109.7045	0.105	219409	keystroke_t	t	n/a
109.7945	0.1345	219589	keystroke_e	e	n/a
109.899	0.105	219798	keystroke_r	r	n/a
110.034	0.0755	220068	keystroke_Key.space	Key.space	n/a
110.184	0.0755	220368	keystroke_a	a	n/a
110.2895	0.1045	220579	keystroke_l	l	n/a
110.4085	0.105	220817	keystroke_t	t	n/a
110.4835	0.12	220967	keystroke_e	e	n/a
110.5885	0.105	221177	keystroke_r	r	n/a
110.7835	0.09	221567	keystroke_n	n	n/a
110.889	0.09	221778	keystroke_a	a	n/a
110.934	0.0905	221868	keystroke_t	t	n/a
111.054	0.075	222108	keystroke_i	i	n/a
111.189	0.105	222378	keystroke_v	v	n/a
111.264	0.1205	222528	keystroke_e	e	n/a
111.399	0.1195	222798	keystroke_l	l	n/a
111.5045	0.0895	223009	keystroke_y	y	n/a
111.639	0.09	223278	keystroke_Key.space	Key.space	n/a
111.894	0.0905	223788	keystroke_o	o	n/a
112.2835	0.0905	224567	keystroke_Key.backspace	Key.backspace	n/a
112.4345	0.0595	224869	keystroke_g	g	n/a
112.5095	0.104	225019	keystroke_o	o	n/a
112.6295	0.104	225259	keystroke_v	v	n/a
112.7795	0.105	225559	keystroke_e	e	n/a
112.869	0.105	225738	keystroke_r	r	n/a
112.944	0.075	225888	keystroke_n	n	n/a
113.3185	0.09	226637	keystroke_m	m	n/a
113.4535	0.09	226907	keystroke_e	e	n/a
113.5445	0.075	227089	keystroke_n	n	n/a
113.649	0.0745	227298	keystroke_t	t	n/a
113.7685	0.09	227537	keystroke_Key.space	Key.space	n/a
114.009	0.075	228018	keystroke_e	e	n/a
114.2345	0.075	228469	keystroke_x	x	n/a
114.4595	0.09	228919	keystroke_Key.backspace	Key.backspace	n/a
114.5645	0.06	229129	keystroke_c	c	n/a
114.8345	0.09	229669	keystroke_Key.backspace	Key.backspace	n/a
115.1345	0.09	230269	keystroke_n	n	n/a
115.5695	0.1195	231139	keystroke_c	c	n/a
115.7045	0.0445	231409	keystroke_o	o	n/a
115.87	0.0595	231740	keystroke_u	u	n/a
116.034	0.09	232068	keystroke_n	n	n/a
116.079	0.135	232158	keystroke_t	t	n/a
116.1845	0.135	232369	keystroke_e	e	n/a
116.349	0.12	232698	keystroke_r	r	n/a
116.439	0.09	232878	keystroke_e	e	n/a
116.6045	0.0745	233209	keystroke_d	d	n/a
116.6945	0.0895	233389	keystroke_Key.enter	Key.enter	n/a
116.791	6.3395	233582	prompt	n/a	killing emissions barn mortgages\n
117.4285	0.076	234857	keystroke_k	k	n/a
117.5795	0.06	235159	keystroke_i	i	n/a
117.9245	0.074	235849	keystroke_l	l	n/a
118.314	0.0905	236628	keystroke_l	l	n/a
118.5245	0.104	237049	keystroke_i	i	n/a
118.6145	0.1655	237229	keystroke_n	n	n/a
118.7185	0.106	237437	keystroke_g	g	n/a
119.0195	0.105	238039	keystroke_Key.space	Key.space	n/a
119.1995	0.105	238399	keystroke_e	e	n/a
119.3195	0.105	238639	keystroke_m	m	n/a
119.5145	0.0305	239029	keystroke_m	m	n/a
119.769	0.09	239538	keystroke_Key.backspace	Key.backspace	n/a
119.964	0.1045	239928	keystroke_i	i	n/a
120.0995	0.06	240199	keystroke_s	s	n/a
120.2485	0.121	240497	keystroke_s	s	n/a
120.3985	0.075	240797	keystroke_i	i	n/a
120.5645	0.089	241129	keystroke_o	o	n/a
120.7585	0.0905	241517	keystroke_n	n	n/a
120.864	0.09	241728	keystroke_s	s	n/a
120.9685	0.0755	241937	keystroke_Key.space	Key.space	n/a
121.1485	0.09	242297	keystroke_b	b	n/a
121.3585	0.151	242717	keystroke_a	a	n/a
121.4935	0.091	242987	keystroke_r	r	n/a
121.5995	0.06	243199	keystroke_n	n	n/a
121.7335	0.09	243467	keystroke_Key.space	Key.space	n/a
121.8985	0.09	243797	keystroke_m	m	n/a
122.0945	0.075	244189	keystroke_o	o	n/a
122.1545	0.06	244309	keystroke_r	r	n/a
122.3195	0.075	244639	keystroke_t	t	n/a
122.41	0.1035	244820	keystroke_a	a	n/a
122.529	0.1505	245058	keystroke_g	g	n/a
122.634	0.1195	245268	keystroke_e	e	n/a
122.875	0.0895	245750	keystroke_s	s	n/a
123.0235	0.105	246047	keystroke_Key.enter	Key.enter	n/a
123.1345	5.9065	246269	prompt	n/a	symphony hang novels testimonials\n
123.7295	0.105	247459	keystroke_s	s	n/a
124.059	0.135	248118	keystroke_y	y	n/a
124.179	0.0905	248358	keystroke_m	m	n/a
124.419	0.06	248838	keystroke_p	p	n/a
124.5545	0.105	249109	keystroke_h	h	n/a
124.6445	0.0595	249289	keystroke_o	o	n/a
124.84	0.0595	249680	keystroke_n	n	n/a
124.8995	0.089	249799	keystroke_y	y	n/a
125.034	0.09	250068	keystroke_Key.space	Key.space	n/a
125.169	0.0305	250338	keystroke_h	h	n/a
125.454	0.105	250908	keystroke_a	a	n/a
125.56	0.089	251120	keystroke_n	n	n/a
125.665	0.119	251330	keystroke_g	g	n/a
125.799	0.0755	251598	keystroke_Key.space	Key.space	n/a
125.995	0.0445	251990	keystroke_n	n	n/a
126.159	0.076	252318	keystroke_o	o	n/a
126.2495	0.134	252499	keystroke_v	v	n/a
126.3395	0.0895	252679	keystroke_e	e	n/a
126.4145	0.105	252829	keystroke_l	l	n/a
126.5345	0.12	253069	keystroke_s	s	n/a
126.6685	0.06	253337	keystroke_Key.space	Key.space	n/a
126.7735	0.121	253547	keystroke_t	t	n/a
126.8795	0.1195	253759	keystroke_e	e	n/a
127.4785	0.1055	254957	keystroke_s	s	n/a
127.6595	0.089	255319	keystroke_t	t	n/a
127.7635	0.075	255527	keystroke_i	i	n/a
127.9435	0.075	255887	keystroke_m	m	n/a
128.1245	0.0445	256249	keystroke_o	o	n/a
128.274	0.0605	256548	keystroke_n	n	n/a
128.454	0.045	256908	keystroke_i	i	n/a
128.544	0.0755	257088	keystroke_a	a	n/a
128.634	0.09	257268	keystroke_l	l	n/a
128.74	0.1045	257480	keystroke_s	s	n/a
128.964	0.075	257928	keystroke_Key.enter	Key.enter	n/a
129.045	4.8415	258090	prompt	n/a	relates cursor eval duration\n
129.6695	0.18	259339	keystroke_r	r	n/a
129.79	0.1045	259580	keystroke_e	e	n/a
129.9695	0.12	259939	keystroke_l	l	n/a
130.0745	0.12	260149	keystroke_a	a	n/a
130.1795	0.1055	260359	keystroke_t	t	n/a
130.2395	0.12	260479	keystroke_e	e	n/a
130.4795	0.0905	260959	keystroke_s	s	n/a
130.584	0.0905	261168	keystroke_Key.space	Key.space	n/a
130.8995	0.075	261799	keystroke_c	c	n/a
131.034	0.0745	262068	keystroke_u	u	n/a
131.1245	0.075	262249	keystroke_r	r	n/a
131.2435	0.0905	262487	keystroke_s	s	n/a
131.5285	0.015	263057	keystroke_o	o	n/a
131.5595	0.059	263119	keystroke_r	r	n/a
131.7085	0.075	263417	keystroke_Key.space	Key.space	n/a
131.934	0.12	263868	keystroke_e	e	n/a
132.1145	0.12	264229	keystroke_v	v	n/a
132.2645	0.09	264529	keystroke_a	a	n/a
132.3545	0.075	264709	keystroke_l	l	n/a
132.5345	0.105	265069	keystroke_Key.space	Key.space	n/a
132.6545	0.105	265309	keystroke_d	d	n/a
132.8045	0.03	265609	keystroke_u	u	n/a
132.8795	0.1345	265759	keystroke_r	r	n/a
132.999	0.12	265998	keystroke_a	a	n/a
133.2845	0.09	266569	keystroke_t	t	n/a
133.4045	0.06	266809	keystroke_i	i	n/a
133.6295	0.0305	267259	keystroke_o	o	n/a
133.6445	0.075	267289	keystroke_n	n	n/a
133.7795	0.105	267559	keystroke_Key.enter	Key.enter	n/a
133.891	5.23	267782	prompt	n/a	reaching mentor nasty claims\n
134.514	0.1505	269028	keystroke_r	r	n/a
134.6495	0.195	269299	keystroke_e	e	n/a
134.859	0.12	269718	keystroke_a	a	n/a
134.9645	0.105	269929	keystroke_c	c	n/a
135.084	0.09	270168	keystroke_h	h	n/a
135.279	0.06	270558	keystroke_i	i	n/a
135.444	0.105	270888	keystroke_n	n	n/a
135.49	0.0895	270980	keystroke_g	g	n/a
135.639	0.045	271278	keystroke_Key.space	Key.space	n/a
135.774	0.0755	271548	keystroke_m	m	n/a
135.864	0.0905	271728	keystroke_e	e	n/a
135.969	0.0755	271938	keystroke_n	n	n/a
136.045	0.1045	272090	keystroke_t	t	n/a
136.224	0.0605	272448	keystroke_o	o	n/a
136.3295	0.075	272659	keystroke_r	r	n/a
136.4645	0.09	272929	keystroke_Key.space	Key.space	n/a
137.0945	0.06	274189	keystroke_n	n	n/a
137.1995	0.105	274399	keystroke_a	a	n/a
137.2295	0.135	274459	keystroke_s	s	n/a
137.7545	0.075	275509	keystroke_t	t	n/a
137.9495	0.09	275899	keystroke_y	y	n/a
138.0835	0.091	276167	keystroke_Key.space	Key.space	n/a
138.3995	0.06	276799	keystroke_c	c	n/a
138.4735	0.091	276947	keystroke_l	l	n/a
138.5795	0.1045	277159	keystroke_a	a	n/a
138.6695	0.059	277339	keystroke_i	i	n/a
138.8345	0.09	277669	keystroke_m	m	n/a
138.9095	0.09	277819	keystroke_s	s	n/a
139.0145	0.105	278029	keystroke_Key.enter	Key.enter	n/a
139.129	5.062	278258	prompt	n/a	master cylinder against falls\n
139.645	0.1045	279290	keystroke_m	m	n/a
139.7345	0.1655	279469	keystroke_a	a	n/a
139.7945	0.1205	279589	keystroke_s	s	n/a
139.93	0.12	279860	keystroke_t	t	n/a
140.035	0.1195	280070	keystroke_e	e	n/a
140.1245	0.1355	280249	keystroke_r	r	n/a
140.229	0.076	280458	keystroke_Key.space	Key.space	n/a
140.485	0.075	280970	keystroke_c	c	n/a
140.725	0.09	281450	keystroke_y	y	n/a
141.04	0.12	282080	keystroke_l	l	n/a
141.294	0.045	282588	keystroke_i	i	n/a
141.4595	0.075	282919	keystroke_n	n	n/a
141.505	0.135	283010	keystroke_d	d	n/a
141.655	0.105	283310	keystroke_e	e	n/a
141.715	0.09	283430	keystroke_r	r	n/a
141.775	0.075	283550	keystroke_Key.space	Key.space	n/a
142.0145	0.105	284029	keystroke_a	a	n/a
142.149	0.0755	284298	keystroke_g	g	n/a
142.344	0.075	284688	keystroke_i	i	n/a
142.8245	0.0745	285649	keystroke_Key.backspace	Key.backspace	n/a
142.914	0.1355	285828	keystroke_a	a	n/a
143.005	0.0585	286010	keystroke_i	i	n/a
143.1695	0.105	286339	keystroke_n	n	n/a
143.26	0.1195	286520	keystroke_s	s	n/a
143.3495	0.09	286699	keystroke_t	t	n/a
143.4545	0.075	286909	keystroke_Key.space	Key.space	n/a
143.5745	0.0905	287149	keystroke_f	f	n/a
143.65	0.0895	287300	keystroke_a	a	n/a
143.7405	0.059	287481	keystroke_l	l	n/a
143.8595	0.1045	287719	keystroke_l	l	n/a
143.9495	0.1195	287899	keystroke_s	s	n/a
144.039	0.1505	288078	keystroke_Key.enter	Key.enter	n/a
144.1955	5.951	288391	prompt	n/a	intelligence payments alerts climb\n
144.79	0.06	289580	keystroke_i	i	n/a
145.0445	0.09	290089	keystroke_t	t	n/a
145.285	0.06	290570	keystroke_Key.backspace	Key.backspace	n/a
145.48	0.074	290960	keystroke_n	n	n/a
145.555	0.1195	291110	keystroke_t	t	n/a
145.644	0.091	291288	keystroke_e	e	n/a
145.779	0.06	291558	keystroke_l	l	n/a
145.9145	0.0605	291829	keystroke_l	l	n/a
146.0945	0.0445	292189	keystroke_i	i	n/a
146.124	0.15	292248	keystroke_g	g	n/a
146.2595	0.0905	292519	keystroke_e	e	n/a
146.304	0.0755	292608	keystroke_n	n	n/a
146.5145	0.135	293029	keystroke_c	c	n/a
146.589	0.106	293178	keystroke_e	e	n/a
146.8595	0.09	293719	keystroke_Key.space	Key.space	n/a
147.175	0.059	294350	keystroke_p	p	n/a
147.2495	0.09	294499	keystroke_a	a	n/a
147.444	0.075	294888	keystroke_y	y	n/a
147.5495	0.0745	295099	keystroke_m	m	n/a
147.639	0.1055	295278	keystroke_e	e	n/a
147.73	0.074	295460	keystroke_n	n	n/a
147.8195	0.0895	295639	keystroke_t	t	n/a
147.984	0.091	295968	keystroke_s	s	n/a
148.104	0.09	296208	keystroke_Key.space	Key.space	n/a
148.464	0.09	296928	keystroke_a	a	n/a
148.599	0.075	297198	keystroke_l	l	n/a
148.69	0.149	297380	keystroke_e	e	n/a
148.794	0.106	297588	keystroke_r	r	n/a
148.975	0.09	297950	keystroke_t	t	n/a
149.08	0.09	298160	keystroke_s	s	n/a
149.1845	0.0755	298369	keystroke_Key.space	Key.space	n/a
149.335	0.075	298670	keystroke_c	c	n/a
149.424	0.0455	298848	keystroke_l	l	n/a
149.5745	0.0755	299149	keystroke_i	i	n/a
149.754	0.09	299508	keystroke_m	m	n/a
149.8295	0.105	299659	keystroke_b	b	n/a
150.054	0.0905	300108	keystroke_Key.enter	Key.enter	n/a
150.154	5.6185	300308	prompt	n/a	duration syndication vitamin staffing\n
150.8195	0.1045	301639	keystroke_d	d	n/a
150.969	0.0755	301938	keystroke_u	u	n/a
151.0595	0.105	302119	keystroke_r	r	n/a
151.1495	0.15	302299	keystroke_a	a	n/a
151.2695	0.09	302539	keystroke_t	t	n/a
151.3745	0.06	302749	keystroke_i	i	n/a
151.5245	0.09	303049	keystroke_o	o	n/a
151.5995	0.075	303199	keystroke_n	n	n/a
151.7495	0.09	303499	keystroke_Key.space	Key.space	n/a
151.8695	0.12	303739	keystroke_s	s	n/a
152.049	0.09	304098	keystroke_y	y	n/a
152.184	0.105	304368	keystroke_n	n	n/a
152.3045	0.0895	304609	keystroke_d	d	n/a
152.4245	0.0745	304849	keystroke_i	i	n/a
152.5145	0.1195	305029	keystroke_c	c	n/a
152.619	0.1505	305238	keystroke_a	a	n/a
152.7545	0.06	305509	keystroke_t	t	n/a
152.8295	0.06	305659	keystroke_i	i	n/a
152.964	0.091	305928	keystroke_o	o	n/a
153.0695	0.045	306139	keystroke_n	n	n/a
153.1895	0.075	306379	keystroke_Key.space	Key.space	n/a
153.279	0.09	306558	keystroke_v	v	n/a
153.4295	0.06	306859	keystroke_i	i	n/a
153.504	0.12	307008	keystroke_t	t	n/a
153.654	0.105	307308	keystroke_a	a	n/a
153.804	0.09	307608	keystroke_m	m	n/a
153.984	0.061	307968	keystroke_i	i	n/a
154.134	0.076	308268	keystroke_n	n	n/a
154.299	0.0905	308598	keystroke_Key.space	Key.space	n/a
154.405	0.0895	308810	keystroke_s	s	n/a
154.629	0.09	309258	keystroke_t	t	n/a
154.75	0.1495	309500	keystroke_a	a	n/a
154.9005	0.0885	309801	keystroke_f	f	n/a
155.0195	0.1055	310039	keystroke_f	f	n/a
155.155	0.075	310310	keystroke_i	i	n/a
155.335	0.09	310670	keystroke_n	n	n/a
155.395	0.0895	310790	keystroke_g	g	n/a
155.635	0.1345	311270	keystroke_Key.enter	Key.enter	n/a
155.7815	12.9665	311563	prompt	n/a	unavailable between solutions tripadvisor\n
160.3015	0.013	320603	keystroke_u	u	n/a
160.5095	0.075	321019	keystroke_n	n	n/a
160.7345	0.09	321469	keystroke_a	a	n/a
161.079	0.105	322158	keystroke_v	v	n/a
161.29	0.0445	322580	keystroke_i	i	n/a
161.589	0.09	323178	keystroke_Key.backspace	Key.backspace	n/a
161.724	0.105	323448	keystroke_a	a	n/a
161.784	0.0605	323568	keystroke_i	i	n/a
161.9645	0.09	323929	keystroke_l	l	n/a
162.0995	0.12	324199	keystroke_a	a	n/a
162.2795	0.075	324559	keystroke_b	b	n/a
162.3695	0.0605	324739	keystroke_l	l	n/a
162.46	0.105	324920	keystroke_e	e	n/a
162.565	0.059	325130	keystroke_Key.space	Key.space	n/a
162.7745	0.075	325549	keystroke_b	b	n/a
162.9105	0.134	325821	keystroke_e	e	n/a
163.06	0.104	326120	keystroke_t	t	n/a
163.2395	0.075	326479	keystroke_w	w	n/a
163.45	0.0895	326900	keystroke_e	e	n/a
164.32	0.0895	328640	keystroke_e	e	n/a
164.47	0.0895	328940	keystroke_n	n	n/a
164.6945	0.0905	329389	keystroke_Key.space	Key.space	n/a
164.994	0.1065	329988	keystroke_s	s	n/a
165.0705	0.089	330141	keystroke_o	o	n/a
165.25	0.09	330500	keystroke_l	l	n/a
165.4595	0.06	330919	keystroke_u	u	n/a
165.5345	0.09	331069	keystroke_t	t	n/a
165.655	0.075	331310	keystroke_i	i	n/a
165.79	0.0745	331580	keystroke_o	o	n/a
165.8345	0.075	331669	keystroke_n	n	n/a
166.075	0.105	332150	keystroke_s	s	n/a
166.225	0.089	332450	keystroke_Key.space	Key.space	n/a
166.48	0.045	332960	keystroke_t	t	n/a
166.615	0.105	333230	keystroke_r	r	n/a
166.735	0.105	333470	keystroke_i	i	n/a
166.945	0.0905	333890	keystroke_p	p	n/a
167.635	0.135	335270	keystroke_a	a	n/a
167.7845	0.075	335569	keystroke_d	d	n/a
168.0395	0.075	336079	keystroke_v	v	n/a
168.205	0.0595	336410	keystroke_i	i	n/a
168.2945	0.09	336589	keystroke_s	s	n/a
168.4	0.0745	336800	keystroke_o	o	n/a
168.535	0.09	337070	keystroke_r	r	n/a
168.6395	0.1045	337279	keystroke_Key.enter	Key.enter	n/a
168.7615	5.685	337523	prompt	n/a	today estimated automotive somewhere\n
169.33	0.06	338660	keystroke_t	t	n/a
169.615	0.105	339230	keystroke_o	o	n/a
169.735	0.12	339470	keystroke_d	d	n/a
169.825	0.12	339650	keystroke_a	a	n/a
169.99	0.06	339980	keystroke_y	y	n/a
170.08	0.105	340160	keystroke_Key.space	Key.space	n/a
170.245	0.075	340490	keystroke_e	e	n/a
170.395	0.105	340790	keystroke_s	s	n/a
170.545	0.045	341090	keystroke_i	i	n/a
170.755	0.09	341510	keystroke_Key.backspace	Key.backspace	n/a
170.875	0.09	341750	keystroke_t	t	n/a
170.9495	0.061	341899	keystroke_i	i	n/a
171.1145	0.0905	342229	keystroke_m	m	n/a
171.235	0.12	342470	keystroke_a	a	n/a
171.34	0.105	342680	keystroke_t	t	n/a
171.415	0.105	342830	keystroke_e	e	n/a
171.565	0.075	343130	keystroke_d	d	n/a
171.655	0.06	343310	keystroke_Key.space	Key.space	n/a
171.8195	0.105	343639	keystroke_a	a	n/a
171.9995	0.076	343999	keystroke_u	u	n/a
172.0905	0.074	344181	keystroke_t	t	n/a
172.1945	0.0755	344389	keystroke_o	o	n/a
172.374	0.0605	344748	keystroke_m	m	n/a
172.54	0.06	345080	keystroke_o	o	n/a
172.645	0.075	345290	keystroke_t	t	n/a
172.735	0.06	345470	keystroke_i	i	n/a
172.8845	0.1355	345769	keystroke_v	v	n/a
172.99	0.09	345980	keystroke_e	e	n/a
173.11	0.0895	346220	keystroke_Key.space	Key.space	n/a
173.2295	0.075	346459	keystroke_s	s	n/a
173.335	0.0595	346670	keystroke_o	o	n/a
173.5145	0.09	347029	keystroke_m	m	n/a
173.6495	0.1055	347299	keystroke_e	e	n/a
173.86	0.0895	347720	keystroke_w	w	n/a
173.9645	0.09	347929	keystroke_h	h	n/a
174.0695	0.1055	348139	keystroke_e	e	n/a
174.19	0.12	348380	keystroke_r	r	n/a
174.265	0.09	348530	keystroke_e	e	n/a
174.34	0.104	348680	keystroke_Key.enter	Key.enter	n/a
174.4515	5.6805	348903	prompt	n/a	nottingham certification martha sean\n
175.045	0.0595	350090	keystroke_n	n	n/a
175.2245	0.06	350449	keystroke_o	o	n/a
175.315	0.0745	350630	keystroke_t	t	n/a
175.435	0.09	350870	keystroke_t	t	n/a
175.54	0.0755	351080	keystroke_i	i	n/a
175.72	0.09	351440	keystroke_n	n	n/a
175.811	0.074	351622	keystroke_g	g	n/a
175.96	0.06	351920	keystroke_h	h	n/a
176.065	0.075	352130	keystroke_a	a	n/a
176.1555	0.0895	352311	keystroke_m	m	n/a
176.3195	0.1055	352639	keystroke_Key.space	Key.space	n/a
176.5	0.1205	353000	keystroke_c	c	n/a
176.605	0.15	353210	keystroke_e	e	n/a
176.71	0.075	353420	keystroke_r	r	n/a
176.875	0.075	353750	keystroke_t	t	n/a
176.995	0.0755	353990	keystroke_i	i	n/a
177.0855	0.0895	354171	keystroke_f	f	n/a
177.205	0.09	354410	keystroke_i	i	n/a
177.2795	0.1355	354559	keystroke_c	c	n/a
177.4	0.1055	354800	keystroke_a	a	n/a
177.61	0.105	355220	keystroke_t	t	n/a
177.7	0.06	355400	keystroke_i	i	n/a
177.849	0.091	355698	keystroke_o	o	n/a
177.94	0.06	355880	keystroke_n	n	n/a
178.0595	0.075	356119	keystroke_Key.space	Key.space	n/a
178.2405	0.0745	356481	keystroke_m	m	n/a
178.33	0.12	356660	keystroke_a	a	n/a
178.435	0.09	356870	keystroke_r	r	n/a
178.6	0.09	357200	keystroke_t	t	n/a
178.7205	0.0895	357441	keystroke_h	h	n/a
178.855	0.075	357710	keystroke_a	a	n/a
178.975	0.09	357950	keystroke_Key.space	Key.space	n/a
179.2605	0.059	358521	keystroke_s	s	n/a
179.3945	0.105	358789	keystroke_e	e	n/a
179.5145	0.1505	359029	keystroke_a	a	n/a
179.8295	0.09	359659	keystroke_n	n	n/a
180.0395	0.0905	360079	keystroke_Key.enter	Key.enter	n/a
180.1365	5.1105	360273	prompt	n/a	genetic outlets hdtv sperm\n
180.7605	0.134	361521	keystroke_g	g	n/a
180.8655	0.075	361731	keystroke_e	e	n/a
180.9705	0.09	361941	keystroke_n	n	n/a
181.09	0.12	362180	keystroke_e	e	n/a
181.195	0.09	362390	keystroke_t	t	n/a
181.3595	0.0605	362719	keystroke_i	i	n/a
181.4355	0.0595	362871	keystroke_c	c	n/a
181.555	0.09	363110	keystroke_Key.space	Key.space	n/a
181.7805	0.0595	363561	keystroke_o	o	n/a
181.96	0.06	363920	keystroke_u	u	n/a
182.005	0.09	364010	keystroke_t	t	n/a
182.185	0.105	364370	keystroke_l	l	n/a
182.3045	0.1205	364609	keystroke_e	e	n/a
182.4095	0.1205	364819	keystroke_t	t	n/a
182.59	0.075	365180	keystroke_s	s	n/a
182.725	0.0905	365450	keystroke_Key.space	Key.space	n/a
183.1745	0.09	366349	keystroke_h	h	n/a
183.4005	0.089	366801	keystroke_d	d	n/a
183.6245	0.0605	367249	keystroke_t	t	n/a
183.8205	0.074	367641	keystroke_v	v	n/a
184	0.075	368000	keystroke_Key.space	Key.space	n/a
184.12	0.105	368240	keystroke_s	s	n/a
184.27	0.0895	368540	keystroke_p	p	n/a
184.3445	0.1205	368689	keystroke_e	e	n/a
184.5245	0.105	369049	keystroke_r	r	n/a
184.9605	0.06	369921	keystroke_m	m	n/a
185.1095	0.135	370219	keystroke_Key.enter	Key.enter	n/a
185.2515	7.3155	370503	prompt	n/a	indicate testament directors shopzilla\n
186.0245	0.061	372049	keystroke_i	i	n/a
186.2195	0.09	372439	keystroke_n	n	n/a
186.3245	0.1055	372649	keystroke_d	d	n/a
186.475	0.0445	372950	keystroke_i	i	n/a
186.565	0.1045	373130	keystroke_c	c	n/a
186.7455	0.105	373491	keystroke_a	a	n/a
186.8655	0.1195	373731	keystroke_t	t	n/a
186.955	0.09	373910	keystroke_e	e	n/a
187.06	0.0895	374120	keystroke_Key.space	Key.space	n/a
187.255	0.1355	374510	keystroke_t	t	n/a
187.345	0.0755	374690	keystroke_e	e	n/a
187.525	0.0755	375050	keystroke_s	s	n/a
187.63	0.09	375260	keystroke_t	t	n/a
187.7505	0.0895	375501	keystroke_a	a	n/a
187.945	0.06	375890	keystroke_m	m	n/a
188.125	0.06	376250	keystroke_e	e	n/a
188.14	0.075	376280	keystroke_n	n	n/a
188.83	0.09	377660	keystroke_t	t	n/a
188.98	0.0895	377960	keystroke_Key.space	Key.space	n/a
189.13	0.1055	378260	keystroke_d	d	n/a
189.2795	0.075	378559	keystroke_i	i	n/a
189.4605	0.149	378921	keystroke_r	r	n/a
189.5795	0.1205	379159	keystroke_e	e	n/a
189.7455	0.074	379491	keystroke_c	c	n/a
189.9405	0.0745	379881	keystroke_t	t	n/a
190.0595	0.09	380119	keystroke_o	o	n/a
190.1345	0.075	380269	keystroke_r	r	n/a
190.2395	0.106	380479	keystroke_s	s	n/a
190.36	0.075	380720	keystroke_Key.space	Key.space	n/a
190.5705	0.09	381141	keystroke_s	s	n/a
190.7505	0.0745	381501	keystroke_h	h	n/a
191.1255	0.09	382251	keystroke_o	o	n/a
191.335	0.105	382670	keystroke_p	p	n/a
191.815	0.105	383630	keystroke_z	z	n/a
191.89	0.075	383780	keystroke_i	i	n/a
192.085	0.06	384170	keystroke_l	l	n/a
192.19	0.0755	384380	keystroke_l	l	n/a
192.3395	0.1055	384679	keystroke_a	a	n/a
192.475	0.09	384950	keystroke_Key.enter	Key.enter	n/a
192.572	9.6845	385144	prompt	n/a	recognized cartridge defining cash\n
194.728	0.087	389456	keystroke_r	r	n/a
194.785	0.1055	389570	keystroke_e	e	n/a
194.995	0.06	389990	keystroke_c	c	n/a
195.13	0.045	390260	keystroke_o	o	n/a
195.295	0.09	390590	keystroke_g	g	n/a
195.505	0.0745	391010	keystroke_n	n	n/a
195.895	0.1055	391790	keystroke_i	i	n/a
196.015	0.165	392030	keystroke_z	z	n/a
196.15	0.135	392300	keystroke_e	e	n/a
196.33	0.105	392660	keystroke_d	d	n/a
196.45	0.0895	392900	keystroke_Key.space	Key.space	n/a
196.6605	0.135	393321	keystroke_c	c	n/a
196.8105	0.165	393621	keystroke_a	a	n/a
197.26	0.074	394520	keystroke_r	r	n/a
197.4395	0.09	394879	keystroke_t	t	n/a
198.2495	0.0895	396499	keystroke_r	r	n/a
198.474	0.0605	396948	keystroke_i	i	n/a
198.564	0.09	397128	keystroke_g	g	n/a
199	0.09	398000	keystroke_Key.backspace	Key.backspace	n/a
199.075	0.0755	398150	keystroke_d	d	n/a
199.285	0.136	398570	keystroke_g	g	n/a
199.36	0.1205	398720	keystroke_e	e	n/a
199.525	0.12	399050	keystroke_Key.space	Key.space	n/a
199.81	0.1055	399620	keystroke_d	d	n/a
200.0795	0.1055	400159	keystroke_e	e	n/a
200.245	0.1055	400490	keystroke_f	f	n/a
200.3955	0.03	400791	keystroke_i	i	n/a
200.5455	0.06	401091	keystroke_n	n	n/a
200.7095	0.06	401419	keystroke_i	i	n/a
200.8755	0.09	401751	keystroke_n	n	n/a
200.95	0.075	401900	keystroke_g	g	n/a
201.085	0.09	402170	keystroke_Key.space	Key.space	n/a
201.6845	0.1205	403369	keystroke_c	c	n/a
201.79	0.135	403580	keystroke_a	a	n/a
201.865	0.135	403730	keystroke_s	s	n/a
201.985	0.0755	403970	keystroke_h	h	n/a
202.1495	0.105	404299	keystroke_Key.enter	Key.enter	n/a
202.2615	5.425	404523	prompt	n/a	random scripting cardiac canyon\n
202.795	0.1205	405590	keystroke_r	r	n/a
202.8855	0.1195	405771	keystroke_a	a	n/a
202.96	0.0895	405920	keystroke_n	n	n/a
203.0645	0.0755	406129	keystroke_d	d	n/a
203.185	0.0755	406370	keystroke_o	o	n/a
203.3505	0.0595	406701	keystroke_m	m	n/a
203.485	0.09	406970	keystroke_Key.space	Key.space	n/a
203.591	0.1045	407182	keystroke_s	s	n/a
203.665	0.0755	407330	keystroke_c	c	n/a
203.815	0.105	407630	keystroke_r	r	n/a
203.8755	0.09	407751	keystroke_i	i	n/a
204.0845	0.105	408169	keystroke_p	p	n/a
204.205	0.0595	408410	keystroke_t	t	n/a
204.385	0.06	408770	keystroke_i	i	n/a
204.55	0.06	409100	keystroke_n	n	n/a
204.6255	0.0595	409251	keystroke_g	g	n/a
204.7295	0.075	409459	keystroke_Key.space	Key.space	n/a
204.985	0.1055	409970	keystroke_c	c	n/a
205.2405	0.1345	410481	keystroke_a	a	n/a
205.3455	0.105	410691	keystroke_r	r	n/a
205.5405	0.075	411081	keystroke_d	d	n/a
205.645	0.0755	411290	keystroke_i	i	n/a
205.7505	0.075	411501	keystroke_a	a	n/a
206.0505	0.0895	412101	keystroke_c	c	n/a
206.1855	0.0895	412371	keystroke_Key.space	Key.space	n/a
206.47	0.106	412940	keystroke_c	c	n/a
206.785	0.1045	413570	keystroke_a	a	n/a
206.9505	0.105	413901	keystroke_n	n	n/a
207.145	0.0905	414290	keystroke_y	y	n/a
207.3095	0.0605	414619	keystroke_o	o	n/a
207.4755	0.074	414951	keystroke_n	n	n/a
207.5955	0.089	415191	keystroke_Key.enter	Key.enter	n/a
207.693	6.219	415386	prompt	n/a	physician pump harry diamonds\n
208.2405	0.0595	416481	keystroke_p	p	n/a
208.3305	0.09	416661	keystroke_h	h	n/a
208.5105	0.075	417021	keystroke_y	y	n/a
208.6755	0.0895	417351	keystroke_s	s	n/a
208.93	0.0605	417860	keystroke_i	i	n/a
209.365	0.0445	418730	keystroke_Key.backspace	Key.backspace	n/a
210.0545	0.076	420109	keystroke_i	i	n/a
210.2805	0.074	420561	keystroke_c	c	n/a
210.4155	0.105	420831	keystroke_i	i	n/a
210.5355	0.089	421071	keystroke_a	a	n/a
210.6855	0.0595	421371	keystroke_n	n	n/a
210.82	0.075	421640	keystroke_Key.space	Key.space	n/a
211.0305	0.0595	422061	keystroke_p	p	n/a
211.2255	0.0595	422451	keystroke_u	u	n/a
211.39	0.09	422780	keystroke_m	m	n/a
211.6005	0.0595	423201	keystroke_p	p	n/a
211.69	0.0905	423380	keystroke_Key.space	Key.space	n/a
211.9	0.075	423800	keystroke_h	h	n/a
212.035	0.105	424070	keystroke_a	a	n/a
212.155	0.0755	424310	keystroke_r	r	n/a
212.2905	0.0895	424581	keystroke_r	r	n/a
212.4855	0.075	424971	keystroke_y	y	n/a
212.5755	0.09	425151	keystroke_Key.space	Key.space	n/a
212.7255	0.075	425451	keystroke_d	d	n/a
212.83	0.06	425660	keystroke_i	i	n/a
212.905	0.09	425810	keystroke_a	a	n/a
213.0095	0.0755	426019	keystroke_m	m	n/a
213.4	0.045	426800	keystroke_o	o	n/a
213.58	0.075	427160	keystroke_n	n	n/a
213.64	0.12	427280	keystroke_d	d	n/a
213.715	0.1045	427430	keystroke_s	s	n/a
213.8045	0.105	427609	keystroke_Key.enter	Key.enter	n/a
213.9155	4.1815	427831	prompt	n/a	lows nose fluid twisted\n
214.3905	0.09	428781	keystroke_l	l	n/a
214.5705	0.105	429141	keystroke_o	o	n/a
214.6605	0.09	429321	keystroke_w	w	n/a
214.9005	0.03	429801	keystroke_s	s	n/a
214.915	0.0455	429830	keystroke_Key.space	Key.space	n/a
215.0945	0.076	430189	keystroke_n	n	n/a
215.2895	0.076	430579	keystroke_o	o	n/a
215.3505	0.075	430701	keystroke_s	s	n/a
215.5145	0.0905	431029	keystroke_e	e	n/a
215.5895	0.075	431179	keystroke_Key.space	Key.space	n/a
215.7695	0.075	431539	keystroke_f	f	n/a
215.831	0.1195	431662	keystroke_l	l	n/a
216.1305	0.09	432261	keystroke_u	u	n/a
216.8055	0.06	433611	keystroke_i	i	n/a
216.9105	0.075	433821	keystroke_d	d	n/a
217.0455	0.0895	434091	keystroke_Key.space	Key.space	n/a
217.315	0.105	434630	keystroke_t	t	n/a
217.39	0.0905	434780	keystroke_w	w	n/a
217.5105	0.0595	435021	keystroke_i	i	n/a
217.6	0.075	435200	keystroke_s	s	n/a
217.69	0.1205	435380	keystroke_t	t	n/a
217.796	0.0895	435592	keystroke_e	e	n/a
217.93	0.075	435860	keystroke_d	d	n/a
217.9755	0.1195	435951	keystroke_Key.enter	Key.enter	n/a
218.1015	5.0955	436203	prompt	n/a	character formed meter hansen\n
218.68	0.075	437360	keystroke_c	c	n/a
218.83	0.09	437660	keystroke_h	h	n/a
218.935	0.075	437870	keystroke_a	a	n/a
218.995	0.1045	437990	keystroke_r	r	n/a
219.1295	0.1655	438259	keystroke_a	a	n/a
219.265	0.0595	438530	keystroke_c	c	n/a
219.4295	0.09	438859	keystroke_t	t	n/a
219.5045	0.135	439009	keystroke_e	e	n/a
219.5795	0.12	439159	keystroke_r	r	n/a
219.715	0.0745	439430	keystroke_Key.space	Key.space	n/a
219.8045	0.076	439609	keystroke_f	f	n/a
219.9245	0.09	439849	keystroke_o	o	n/a
219.955	0.1045	439910	keystroke_r	r	n/a
220.1645	0.0755	440329	keystroke_m	m	n/a
220.2545	0.136	440509	keystroke_e	e	n/a
220.4805	0.0905	440961	keystroke_d	d	n/a
220.7055	0.0745	441411	keystroke_Key.space	Key.space	n/a
220.93	0.075	441860	keystroke_m	m	n/a
221.0205	0.1045	442041	keystroke_e	e	n/a
221.141	0.119	442282	keystroke_t	t	n/a
221.276	0.134	442552	keystroke_e	e	n/a
221.38	0.1205	442760	keystroke_r	r	n/a
221.5305	0.09	443061	keystroke_Key.space	Key.space	n/a
221.7855	0.0745	443571	keystroke_h	h	n/a
221.845	0.076	443690	keystroke_a	a	n/a
221.965	0.09	443930	keystroke_n	n	n/a
222.0855	0.0755	444171	keystroke_s	s	n/a
222.355	0.075	444710	keystroke_n	n	n/a
222.415	0.0605	444830	keystroke_e	e	n/a
222.625	0.06	445250	keystroke_Key.backspace	Key.backspace	n/a
222.745	0.0905	445490	keystroke_Key.backspace	Key.backspace	n/a
222.8205	0.1055	445641	keystroke_e	e	n/a
222.94	0.0755	445880	keystroke_n	n	n/a
223.0745	0.1205	446149	keystroke_Key.enter	Key.enter	n/a
223.2015	5.2765	446403	prompt	n/a	it'll favorites flush information\n
223.7955	0.0745	447591	keystroke_i	i	n/a
223.96	0.0895	447920	keystroke_t	t	n/a
224.0945	0.076	448189	keystroke_l	l	n/a
224.41	0.0905	448820	keystroke_Key.backspace	Key.backspace	n/a
224.6045	0.105	449209	keystroke_'	'	n/a
224.8445	0.0615	449689	keystroke_l	l	n/a
224.9805	0.075	449961	keystroke_l	l	n/a
225.175	0.09	450350	keystroke_Key.space	Key.space	n/a
225.266	0.119	450532	keystroke_f	f	n/a
225.371	0.1345	450742	keystroke_a	a	n/a
225.49	0.09	450980	keystroke_v	v	n/a
225.625	0.09	451250	keystroke_o	o	n/a
225.716	0.089	451432	keystroke_r	r	n/a
225.851	0.074	451702	keystroke_i	i	n/a
225.91	0.1055	451820	keystroke_t	t	n/a
225.9855	0.09	451971	keystroke_e	e	n/a
226.1505	0.0895	452301	keystroke_s	s	n/a
226.2255	0.0745	452451	keystroke_Key.space	Key.space	n/a
226.3605	0.075	452721	keystroke_f	f	n/a
226.4655	0.0595	452931	keystroke_l	l	n/a
226.66	0.06	453320	keystroke_u	u	n/a
226.7505	0.105	453501	keystroke_s	s	n/a
226.826	0.075	453652	keystroke_h	h	n/a
227.005	0.0745	454010	keystroke_Key.space	Key.space	n/a
227.2005	0.0595	454401	keystroke_i	i	n/a
227.365	0.09	454730	keystroke_n	n	n/a
227.47	0.09	454940	keystroke_f	f	n/a
227.5755	0.0745	455151	keystroke_o	o	n/a
227.665	0.09	455330	keystroke_r	r	n/a
227.7705	0.1055	455541	keystroke_m	m	n/a
227.8605	0.0905	455721	keystroke_a	a	n/a
227.905	0.1055	455810	keystroke_t	t	n/a
228.0255	0.0445	456051	keystroke_i	i	n/a
228.16	0.09	456320	keystroke_o	o	n/a
228.2355	0.09	456471	keystroke_n	n	n/a
228.3555	0.12	456711	keystroke_Key.enter	Key.enter	n/a
228.4875	7.9695	456975	prompt	n/a	latter arrested legendary albuquerque\n
229.03	0.1045	458060	keystroke_a	a	n/a
229.2545	0.075	458509	keystroke_Key.backspace	Key.backspace	n/a
229.3905	0.119	458781	keystroke_l	l	n/a
229.465	0.12	458930	keystroke_a	a	n/a
229.5995	0.061	459199	keystroke_t	t	n/a
229.735	0.0755	459470	keystroke_t	t	n/a
229.7945	0.136	459589	keystroke_e	e	n/a
229.901	0.089	459802	keystroke_r	r	n/a
229.9745	0.09	459949	keystroke_Key.space	Key.space	n/a
230.0955	0.105	460191	keystroke_a	a	n/a
230.2305	0.06	460461	keystroke_r	r	n/a
230.3645	0.121	460729	keystroke_r	r	n/a
230.4555	0.105	460911	keystroke_e	e	n/a
230.6345	0.0905	461269	keystroke_s	s	n/a
230.71	0.105	461420	keystroke_t	t	n/a
230.8005	0.09	461601	keystroke_e	e	n/a
230.95	0.0755	461900	keystroke_d	d	n/a
231.0255	0.0595	462051	keystroke_Key.space	Key.space	n/a
231.2355	0.075	462471	keystroke_l	l	n/a
231.2955	0.09	462591	keystroke_e	e	n/a
231.4605	0.03	462921	keystroke_g	g	n/a
231.5655	0.12	463131	keystroke_e	e	n/a
231.7155	0.09	463431	keystroke_n	n	n/a
231.8955	0.075	463791	keystroke_d	d	n/a
232.2105	0.105	464421	keystroke_a	a	n/a
232.3605	0.1355	464721	keystroke_r	r	n/a
232.7805	0.119	465561	keystroke_y	y	n/a
232.9455	0.105	465891	keystroke_Key.space	Key.space	n/a
233.1105	0.09	466221	keystroke_a	a	n/a
233.2455	0.105	466491	keystroke_l	l	n/a
233.3955	0.09	466791	keystroke_b	b	n/a
233.9655	0.06	467931	keystroke_u	u	n/a
234.4905	0.12	468981	keystroke_q	q	n/a
234.6255	0.09	469251	keystroke_u	u	n/a
234.775	0.1355	469550	keystroke_e	e	n/a
234.8805	0.105	469761	keystroke_r	r	n/a
236.0355	0.0905	472071	keystroke_q	q	n/a
236.141	0.074	472282	keystroke_u	u	n/a
236.231	0.0745	472462	keystroke_e	e	n/a
236.3655	0.0895	472731	keystroke_Key.enter	Key.enter	n/a
236.462	4.7805	472924	prompt	n/a	until design definition hope\n
237.085	0.06	474170	keystroke_u	u	n/a
237.22	0.105	474440	keystroke_n	n	n/a
237.311	0.09	474622	keystroke_t	t	n/a
237.43	0.06	474860	keystroke_i	i	n/a
237.596	0.1045	475192	keystroke_l	l	n/a
237.715	0.09	475430	keystroke_Key.space	Key.space	n/a
237.851	0.1945	475702	keystroke_d	d	n/a
238.03	0.09	476060	keystroke_e	e	n/a
238.211	0.1045	476422	keystroke_s	s	n/a
238.5405	0.0905	477081	keystroke_i	i	n/a
238.6455	0.09	477291	keystroke_g	g	n/a
238.7655	0.09	477531	keystroke_n	n	n/a
239.0355	0.015	478071	keystroke_Key.space	Key.space	n/a
239.0805	0.15	478161	keystroke_d	d	n/a
239.1855	0.15	478371	keystroke_e	e	n/a
239.306	0.0895	478612	keystroke_f	f	n/a
239.4705	0.06	478941	keystroke_i	i	n/a
239.6505	0.06	479301	keystroke_n	n	n/a
239.8455	0.045	479691	keystroke_i	i	n/a
239.9355	0.09	479871	keystroke_t	t	n/a
240.0705	0.06	480141	keystroke_i	i	n/a
240.2355	0.09	480471	keystroke_o	o	n/a
240.3105	0.075	480621	keystroke_n	n	n/a
240.4605	0.075	480921	keystroke_Key.space	Key.space	n/a
240.6115	0.074	481223	keystroke_h	h	n/a
240.7005	0.0755	481401	keystroke_o	o	n/a
240.881	0.0895	481762	keystroke_p	p	n/a
240.9855	0.1045	481971	keystroke_e	e	n/a
241.105	0.1355	482210	keystroke_Key.enter	Key.enter	n/a
241.246	6.581	482492	prompt	n/a	results microwave stays fares\n
241.8105	0.135	483621	keystroke_r	r	n/a
241.8855	0.0905	483771	keystroke_e	e	n/a
242.0655	0.105	484131	keystroke_s	s	n/a
242.1855	0.075	484371	keystroke_u	u	n/a
242.41	0.015	484820	keystroke_k	k	n/a
242.426	0.119	484852	keystroke_t	t	n/a
242.7105	0.0895	485421	keystroke_Key.backspace	Key.backspace	n/a
242.875	0.1055	485750	keystroke_l	l	n/a
242.951	0.0895	485902	keystroke_t	t	n/a
243.1755	0.06	486351	keystroke_Key.backspace	Key.backspace	n/a
243.295	0.0755	486590	keystroke_Key.backspace	Key.backspace	n/a
243.43	0.075	486860	keystroke_Key.backspace	Key.backspace	n/a
243.5505	0.1045	487101	keystroke_l	l	n/a
243.5655	0.105	487131	keystroke_t	t	n/a
243.835	0.09	487670	keystroke_s	s	n/a
244.06	0.075	488120	keystroke_Key.space	Key.space	n/a
244.285	0.075	488570	keystroke_m	m	n/a
244.495	0.06	488990	keystroke_i	i	n/a
244.57	0.09	489140	keystroke_c	c	n/a
244.766	0.074	489532	keystroke_r	r	n/a
244.855	0.09	489710	keystroke_o	o	n/a
245.2755	0.06	490551	keystroke_c	c	n/a
245.47	0.09	490940	keystroke_Key.backspace	Key.backspace	n/a
245.545	0.1205	491090	keystroke_w	w	n/a
245.6205	0.1195	491241	keystroke_a	a	n/a
245.756	0.119	491512	keystroke_v	v	n/a
245.83	0.09	491660	keystroke_e	e	n/a
245.95	0.09	491900	keystroke_Key.space	Key.space	n/a
246.0705	0.1055	492141	keystroke_s	s	n/a
246.19	0.1055	492380	keystroke_t	t	n/a
246.3105	0.15	492621	keystroke_a	a	n/a
246.581	0.074	493162	keystroke_y	y	n/a
246.775	0.091	493550	keystroke_s	s	n/a
246.91	0.075	493820	keystroke_Key.space	Key.space	n/a
247.1805	0.1055	494361	keystroke_f	f	n/a
247.2705	0.135	494541	keystroke_a	a	n/a
247.3755	0.12	494751	keystroke_r	r	n/a
247.4505	0.105	494901	keystroke_e	e	n/a
247.6155	0.105	495231	keystroke_s	s	n/a
247.7355	0.0895	495471	keystroke_Key.enter	Key.enter	n/a
247.832	6.3855	495664	prompt	n/a	brass heath algebra atmospheric\n
248.546	0.089	497092	keystroke_b	b	n/a
248.77	0.1505	497540	keystroke_r	r	n/a
248.906	0.164	497812	keystroke_a	a	n/a
249.0255	0.0895	498051	keystroke_s	s	n/a
249.191	0.0895	498382	keystroke_s	s	n/a
249.295	0.1055	498590	keystroke_Key.space	Key.space	n/a
249.4605	0.09	498921	keystroke_h	h	n/a
249.685	0.105	499370	keystroke_e	e	n/a
249.73	0.1205	499460	keystroke_a	a	n/a
250.2105	0.0595	500421	keystroke_t	t	n/a
250.3305	0.09	500661	keystroke_h	h	n/a
250.5555	0.09	501111	keystroke_Key.space	Key.space	n/a
250.6905	0.105	501381	keystroke_a	a	n/a
250.8105	0.105	501621	keystroke_l	l	n/a
251.1705	0.0755	502341	keystroke_g	g	n/a
251.366	0.09	502732	keystroke_e	e	n/a
251.576	0.0745	503152	keystroke_b	b	n/a
251.8005	0.105	503601	keystroke_r	r	n/a
251.891	0.1045	503782	keystroke_a	a	n/a
252.0405	0.075	504081	keystroke_Key.space	Key.space	n/a
252.2205	0.09	504441	keystroke_a	a	n/a
252.3855	0.0755	504771	keystroke_t	t	n/a
252.641	0.0745	505282	keystroke_m	m	n/a
252.8205	0.06	505641	keystroke_o	o	n/a
252.9105	0.0905	505821	keystroke_s	s	n/a
253.0755	0.075	506151	keystroke_p	p	n/a
253.2255	0.105	506451	keystroke_h	h	n/a
253.5705	0.12	507141	keystroke_e	e	n/a
253.6915	0.089	507383	keystroke_r	r	n/a
253.9005	0.045	507801	keystroke_i	i	n/a
253.9905	0.09	507981	keystroke_c	c	n/a
254.0955	0.1205	508191	keystroke_Key.enter	Key.enter	n/a
254.222	3.985	508444	prompt	n/a	baking cornell strong fuel\n
254.846	0.075	509692	keystroke_b	b	n/a
254.936	0.075	509872	keystroke_a	a	n/a
255.131	0.0745	510262	keystroke_k	k	n/a
255.2955	0.045	510591	keystroke_i	i	n/a
255.4455	0.075	510891	keystroke_n	n	n/a
255.5355	0.045	511071	keystroke_g	g	n/a
255.6255	0.075	511251	keystroke_Key.space	Key.space	n/a
255.7755	0.0755	511551	keystroke_c	c	n/a
255.8805	0.0605	511761	keystroke_o	o	n/a
256.016	0.0755	512032	keystroke_r	r	n/a
256.1065	0.0735	512213	keystroke_n	n	n/a
256.285	0.076	512570	keystroke_e	e	n/a
256.39	0.076	512780	keystroke_l	l	n/a
256.5105	0.0905	513021	keystroke_l	l	n/a
256.691	0.0905	513382	keystroke_Key.space	Key.space	n/a
256.7955	0.105	513591	keystroke_s	s	n/a
256.9155	0.06	513831	keystroke_t	t	n/a
257.051	0.09	514102	keystroke_r	r	n/a
257.1105	0.06	514221	keystroke_o	o	n/a
257.2905	0.06	514581	keystroke_n	n	n/a
257.3955	0.0905	514791	keystroke_g	g	n/a
257.441	0.089	514882	keystroke_Key.space	Key.space	n/a
257.606	0.089	515212	keystroke_f	f	n/a
257.711	0.0445	515422	keystroke_u	u	n/a
257.816	0.12	515632	keystroke_e	e	n/a
257.92	0.0905	515840	keystroke_l	l	n/a
258.04	0.165	516080	keystroke_Key.enter	Key.enter	n/a
258.211	15.4925	516422	prompt	n/a	case prison propose trail\n
268.183	0.073	536366	keystroke_c	c	n/a
268.2415	0.1645	536483	keystroke_a	a	n/a
268.316	0.09	536632	keystroke_s	s	n/a
268.526	0.09	537052	keystroke_e	e	n/a
268.631	0.0755	537262	keystroke_Key.space	Key.space	n/a
268.8415	0.104	537683	keystroke_o	o	n/a
268.931	0.0745	537862	keystroke_r	r	n/a
269.0655	0.045	538131	keystroke_u	u	n/a
269.1705	0.075	538341	keystroke_s	s	n/a
269.786	0.06	539572	keystroke_Key.backspace	Key.backspace	n/a
269.921	0.075	539842	keystroke_Key.backspace	Key.backspace	n/a
270.056	0.075	540112	keystroke_Key.backspace	Key.backspace	n/a
270.191	0.09	540382	keystroke_Key.backspace	Key.backspace	n/a
270.416	0.0605	540832	keystroke_p	p	n/a
270.4915	0.1045	540983	keystroke_r	r	n/a
270.686	0.09	541372	keystroke_i	i	n/a
270.821	0.0905	541642	keystroke_s	s	n/a
270.9405	0.076	541881	keystroke_o	o	n/a
271.151	0.0445	542302	keystroke_n	n	n/a
271.3005	0.0605	542601	keystroke_Key.space	Key.space	n/a
271.5255	0.06	543051	keystroke_p	p	n/a
271.6165	0.074	543233	keystroke_r	r	n/a
271.7205	0.076	543441	keystroke_o	o	n/a
272.276	0.06	544552	keystroke_p	p	n/a
272.456	0.0755	544912	keystroke_o	o	n/a
272.501	0.09	545002	keystroke_s	s	n/a
272.666	0.09	545332	keystroke_e	e	n/a
272.771	0.09	545542	keystroke_Key.space	Key.space	n/a
272.876	0.075	545752	keystroke_t	t	n/a
273.041	0.09	546082	keystroke_r	r	n/a
273.1015	0.0745	546203	keystroke_a	a	n/a
273.161	0.0755	546322	keystroke_i	i	n/a
273.3265	0.1045	546653	keystroke_l	l	n/a
273.5805	0.1205	547161	keystroke_Key.enter	Key.enter	n/a
273.7115	5.077	547423	prompt	n/a	mineral balanced watched newest\n
274.286	0.06	548572	keystroke_m	m	n/a
274.452	0.0595	548904	keystroke_i	i	n/a
274.691	0.03	549382	keystroke_n	n	n/a
274.706	0.105	549412	keystroke_e	e	n/a
274.766	0.135	549532	keystroke_r	r	n/a
274.886	0.06	549772	keystroke_a	a	n/a
274.976	0.0745	549952	keystroke_l	l	n/a
275.1555	0.075	550311	keystroke_Key.space	Key.space	n/a
275.2315	0.1045	550463	keystroke_b	b	n/a
275.3665	0.09	550733	keystroke_a	a	n/a
275.561	0.075	551122	keystroke_l	l	n/a
275.6805	0.091	551361	keystroke_a	a	n/a
275.7865	0.075	551573	keystroke_n	n	n/a
275.8765	0.12	551753	keystroke_c	c	n/a
275.951	0.1195	551902	keystroke_e	e	n/a
276.1305	0.09	552261	keystroke_d	d	n/a
276.2355	0.075	552471	keystroke_Key.space	Key.space	n/a
276.4455	0.1505	552891	keystroke_w	w	n/a
276.566	0.135	553132	keystroke_a	a	n/a
276.656	0.075	553312	keystroke_t	t	n/a
276.851	0.045	553702	keystroke_c	c	n/a
276.986	0.075	553972	keystroke_h	h	n/a
277.062	0.1045	554124	keystroke_e	e	n/a
277.226	0.0905	554452	keystroke_d	d	n/a
277.346	0.0755	554692	keystroke_Key.space	Key.space	n/a
277.5265	0.105	555053	keystroke_n	n	n/a
277.6015	0.12	555203	keystroke_e	e	n/a
277.6765	0.105	555353	keystroke_w	w	n/a
278.3055	0.09	556611	keystroke_e	e	n/a
278.456	0.1195	556912	keystroke_s	s	n/a
278.5605	0.106	557121	keystroke_t	t	n/a
278.6805	0.105	557361	keystroke_Key.enter	Key.enter	n/a
278.7935	6.4155	557587	prompt	n/a	graph fujitsu awful thong\n
279.341	0.09	558682	keystroke_g	g	n/a
279.536	0.1205	559072	keystroke_r	r	n/a
279.626	0.12	559252	keystroke_a	a	n/a
279.7615	0.0745	559523	keystroke_p	p	n/a
279.851	0.105	559702	keystroke_h	h	n/a
280.031	0.105	560062	keystroke_Key.space	Key.space	n/a
280.256	0.105	560512	keystroke_f	f	n/a
280.4365	0.0895	560873	keystroke_u	u	n/a
280.796	0.075	561592	keystroke_j	j	n/a
280.976	0.075	561952	keystroke_i	i	n/a
281.081	0.0755	562162	keystroke_t	t	n/a
281.2615	0.0745	562523	keystroke_s	s	n/a
281.366	0.075	562732	keystroke_u	u	n/a
281.741	0.0745	563482	keystroke_Key.space	Key.space	n/a
281.9655	0.09	563931	keystroke_w	w	n/a
282.2505	0.075	564501	keystroke_Key.backspace	Key.backspace	n/a
282.311	0.1195	564622	keystroke_a	a	n/a
282.3715	0.1195	564743	keystroke_w	w	n/a
282.6255	0.106	565251	keystroke_f	f	n/a
282.7155	0.0605	565431	keystroke_u	u	n/a
282.986	0.0595	565972	keystroke_Key.space	Key.space	n/a
283.5115	0.074	567023	keystroke_Key.backspace	Key.backspace	n/a
283.6615	0.09	567323	keystroke_l	l	n/a
283.782	0.0585	567564	keystroke_t	t	n/a
283.8565	0.1345	567713	keystroke_Key.space	Key.space	n/a
284.141	0.075	568282	keystroke_Key.backspace	Key.backspace	n/a
284.276	0.075	568552	keystroke_Key.backspace	Key.backspace	n/a
284.291	0.12	568582	keystroke_Key.space	Key.space	n/a
284.382	0.089	568764	keystroke_t	t	n/a
284.5615	0.0755	569123	keystroke_h	h	n/a
284.6065	0.0745	569213	keystroke_o	o	n/a
284.846	0.06	569692	keystroke_n	n	n/a
284.981	0.0755	569962	keystroke_g	g	n/a
285.101	0.1055	570202	keystroke_Key.enter	Key.enter	n/a
285.214	6.024	570428	prompt	n/a	weed meetup disposal mobiles\n
285.7615	0.1045	571523	keystroke_w	w	n/a
286.031	0.0605	572062	keystroke_e	e	n/a
286.151	0.09	572302	keystroke_e	e	n/a
286.3315	0.075	572663	keystroke_d	d	n/a
286.4215	0.0745	572843	keystroke_Key.space	Key.space	n/a
286.616	0.0755	573232	keystroke_m	m	n/a
286.7065	0.105	573413	keystroke_e	e	n/a
286.901	0.1055	573802	keystroke_e	e	n/a
287.1115	0.09	574223	keystroke_t	t	n/a
287.6815	0.075	575363	keystroke_u	u	n/a
287.951	0.075	575902	keystroke_p	p	n/a
288.086	0.1205	576172	keystroke_Key.space	Key.space	n/a
288.5515	0.1055	577103	keystroke_d	d	n/a
288.641	0.091	577282	keystroke_i	i	n/a
288.762	0.104	577524	keystroke_s	s	n/a
288.9105	0.091	577821	keystroke_p	p	n/a
289.0915	0.075	578183	keystroke_o	o	n/a
289.1965	0.075	578393	keystroke_s	s	n/a
289.391	0.075	578782	keystroke_a	a	n/a
289.481	0.09	578962	keystroke_l	l	n/a
289.691	0.0605	579382	keystroke_Key.space	Key.space	n/a
289.8565	0.0445	579713	keystroke_m	m	n/a
290.0215	0.074	580043	keystroke_o	o	n/a
290.1115	0.09	580223	keystroke_b	b	n/a
290.2165	0.0595	580433	keystroke_i	i	n/a
290.801	0.075	581602	keystroke_l	l	n/a
290.891	0.061	581782	keystroke_e	e	n/a
291.056	0.075	582112	keystroke_s	s	n/a
291.132	0.104	582264	keystroke_Key.enter	Key.enter	n/a
291.242	11.2465	582484	prompt	n/a	relatively mind indirect russell\n
297.223	0.0885	594446	keystroke_r	r	n/a
297.251	0.105	594502	keystroke_e	e	n/a
297.4465	0.0895	594893	keystroke_l	l	n/a
297.537	0.0895	595074	keystroke_a	a	n/a
297.656	0.09	595312	keystroke_t	t	n/a
297.806	0.06	595612	keystroke_i	i	n/a
297.897	0.134	595794	keystroke_v	v	n/a
297.986	0.1205	595972	keystroke_e	e	n/a
298.0915	0.105	596183	keystroke_l	l	n/a
298.2265	0.09	596453	keystroke_y	y	n/a
298.3615	0.06	596723	keystroke_Key.space	Key.space	n/a
298.5565	0.015	597113	keystroke_m	m	n/a
298.6915	0.045	597383	keystroke_i	i	n/a
298.856	0.075	597712	keystroke_n	n	n/a
298.947	0.074	597894	keystroke_d	d	n/a
299.022	0.074	598044	keystroke_Key.space	Key.space	n/a
299.2165	0.045	598433	keystroke_i	i	n/a
299.3515	0.09	598703	keystroke_n	n	n/a
299.4565	0.09	598913	keystroke_d	d	n/a
299.5765	0.075	599153	keystroke_i	i	n/a
300.1165	0.1195	600233	keystroke_r	r	n/a
300.2065	0.1055	600413	keystroke_e	e	n/a
300.716	0.0755	601432	keystroke_c	c	n/a
300.9265	0.0755	601853	keystroke_t	t	n/a
301.0615	0.105	602123	keystroke_Key.space	Key.space	n/a
301.1815	0.12	602363	keystroke_r	r	n/a
301.4515	0.0605	602903	keystroke_u	u	n/a
301.6015	0.06	603203	keystroke_s	s	n/a
301.737	0.075	603474	keystroke_s	s	n/a
301.887	0.1045	603774	keystroke_e	e	n/a
301.9765	0.0745	603953	keystroke_l	l	n/a
302.1265	0.105	604253	keystroke_l	l	n/a
302.3365	0.15	604673	keystroke_Key.enter	Key.enter	n/a
302.494	7.404	604988	prompt	n/a	junior affiliated approach mars\n
303.1315	0.045	606263	keystroke_j	j	n/a
303.3115	0.06	606623	keystroke_u	u	n/a
303.521	0.09	607042	keystroke_n	n	n/a
303.7615	0.06	607523	keystroke_i	i	n/a
303.941	0.0605	607882	keystroke_o	o	n/a
304.0305	0.075	608061	keystroke_r	r	n/a
304.1205	0.091	608241	keystroke_Key.space	Key.space	n/a
304.241	0.135	608482	keystroke_a	a	n/a
304.391	0.076	608782	keystroke_f	f	n/a
304.511	0.0755	609022	keystroke_f	f	n/a
304.601	0.06	609202	keystroke_i	i	n/a
304.8115	0.0445	609623	keystroke_a	a	n/a
305.397	0.0895	610794	keystroke_Key.backspace	Key.backspace	n/a
305.5765	0.0755	611153	keystroke_i	i	n/a
306.0565	0.075	612113	keystroke_Key.backspace	Key.backspace	n/a
306.237	0.1045	612474	keystroke_l	l	n/a
306.4615	0.075	612923	keystroke_i	i	n/a
306.552	0.135	613104	keystroke_a	a	n/a
306.7165	0.105	613433	keystroke_t	t	n/a
306.7915	0.105	613583	keystroke_e	e	n/a
306.9265	0.09	613853	keystroke_d	d	n/a
307.0315	0.075	614063	keystroke_Key.space	Key.space	n/a
307.1965	0.09	614393	keystroke_a	a	n/a
307.3465	0.075	614693	keystroke_p	p	n/a
307.482	0.1195	614964	keystroke_p	p	n/a
307.6315	0.105	615263	keystroke_r	r	n/a
307.8415	0.075	615683	keystroke_e	e	n/a
308.2755	0.105	616551	keystroke_Key.backspace	Key.backspace	n/a
308.712	0.1045	617424	keystroke_o	o	n/a
308.8165	0.105	617633	keystroke_a	a	n/a
308.9225	0.074	617845	keystroke_c	c	n/a
309.0265	0.089	618053	keystroke_h	h	n/a
309.221	0.0755	618442	keystroke_Key.space	Key.space	n/a
309.4015	0.06	618803	keystroke_m	m	n/a
309.4455	0.1505	618891	keystroke_a	a	n/a
309.5665	0.15	619133	keystroke_r	r	n/a
309.7015	0.0905	619403	keystroke_s	s	n/a
309.792	0.1045	619584	keystroke_Key.enter	Key.enter	n/a
309.901	5.0395	619802	prompt	n/a	fabrics prompt house meta\n
310.5265	0.045	621053	keystroke_v	v	n/a
310.8265	0.09	621653	keystroke_Key.backspace	Key.backspace	n/a
310.8415	0.105	621683	keystroke_f	f	n/a
310.9615	0.165	621923	keystroke_a	a	n/a
311.097	0.075	622194	keystroke_v	v	n/a
311.517	0.1045	623034	keystroke_Key.backspace	Key.backspace	n/a
311.592	0.0895	623184	keystroke_b	b	n/a
311.787	0.104	623574	keystroke_r	r	n/a
311.921	0.091	623842	keystroke_i	i	n/a
312.027	0.0895	624054	keystroke_c	c	n/a
312.2065	0.105	624413	keystroke_s	s	n/a
312.326	0.076	624652	keystroke_Key.space	Key.space	n/a
312.582	0.0735	625164	keystroke_p	p	n/a
312.6715	0.105	625343	keystroke_r	r	n/a
312.7615	0.06	625523	keystroke_o	o	n/a
312.927	0.0595	625854	keystroke_m	m	n/a
313.1065	0.0595	626213	keystroke_p	p	n/a
313.226	0.09	626452	keystroke_t	t	n/a
313.3765	0.075	626753	keystroke_Key.space	Key.space	n/a
313.6165	0.09	627233	keystroke_h	h	n/a
313.692	0.0595	627384	keystroke_o	o	n/a
313.8715	0.075	627743	keystroke_u	u	n/a
313.902	0.09	627804	keystroke_s	s	n/a
314.0515	0.09	628103	keystroke_e	e	n/a
314.1565	0.0895	628313	keystroke_Key.space	Key.space	n/a
314.3515	0.09	628703	keystroke_m	m	n/a
314.4565	0.105	628913	keystroke_e	e	n/a
314.5465	0.12	629093	keystroke_t	t	n/a
314.7115	0.0905	629423	keystroke_a	a	n/a
314.8165	0.12	629633	keystroke_Key.enter	Key.enter	n/a
314.9435	4.4195	629887	prompt	n/a	guild domain fake excluded\n
315.807	0.075	631614	keystroke_g	g	n/a
315.911	0.075	631822	keystroke_u	u	n/a
316.091	0.061	632182	keystroke_i	i	n/a
316.256	0.09	632512	keystroke_l	l	n/a
316.3615	0.0605	632723	keystroke_d	d	n/a
316.451	0.09	632902	keystroke_Key.space	Key.space	n/a
316.6765	0.0755	633353	keystroke_d	d	n/a
316.7215	0.075	633443	keystroke_o	o	n/a
316.9015	0.0905	633803	keystroke_m	m	n/a
317.0065	0.09	634013	keystroke_a	a	n/a
317.1115	0.075	634223	keystroke_i	i	n/a
317.2615	0.045	634523	keystroke_n	n	n/a
317.3815	0.09	634763	keystroke_Key.space	Key.space	n/a
317.4865	0.12	634973	keystroke_f	f	n/a
317.5765	0.09	635153	keystroke_a	a	n/a
317.6515	0.075	635303	keystroke_k	k	n/a
317.7565	0.12	635513	keystroke_e	e	n/a
317.8915	0.09	635783	keystroke_Key.space	Key.space	n/a
318.087	0.09	636174	keystroke_e	e	n/a
318.2815	0.09	636563	keystroke_x	x	n/a
318.4315	0.1055	636863	keystroke_c	c	n/a
318.686	0.076	637372	keystroke_l	l	n/a
318.8815	0.06	637763	keystroke_u	u	n/a
318.9565	0.1505	637913	keystroke_d	d	n/a
319.0765	0.1055	638153	keystroke_e	e	n/a
319.182	0.09	638364	keystroke_d	d	n/a
319.2565	0.105	638513	keystroke_Key.enter	Key.enter	n/a
319.367	4.803	638734	prompt	n/a	towns optional graph reliable\n
319.9615	0.0745	639923	keystroke_t	t	n/a
320.052	0.075	640104	keystroke_o	o	n/a
320.141	0.1055	640282	keystroke_w	w	n/a
320.262	0.0595	640524	keystroke_n	n	n/a
320.381	0.106	640762	keystroke_s	s	n/a
320.516	0.09	641032	keystroke_Key.space	Key.space	n/a
320.847	0.075	641694	keystroke_o	o	n/a
321.027	0.09	642054	keystroke_p	p	n/a
321.192	0.119	642384	keystroke_t	t	n/a
321.447	0.045	642894	keystroke_i	i	n/a
321.597	0.075	643194	keystroke_o	o	n/a
321.6275	0.0895	643255	keystroke_n	n	n/a
321.823	0.0745	643646	keystroke_a	a	n/a
321.9275	0.0755	643855	keystroke_l	l	n/a
322.123	0.075	644246	keystroke_Key.space	Key.space	n/a
322.2135	0.075	644427	keystroke_g	g	n/a
322.3785	0.1055	644757	keystroke_r	r	n/a
322.469	0.09	644938	keystroke_a	a	n/a
322.544	0.0905	645088	keystroke_p	p	n/a
322.6645	0.0895	645329	keystroke_h	h	n/a
322.815	0.075	645630	keystroke_Key.space	Key.space	n/a
323.07	0.1505	646140	keystroke_r	r	n/a
323.176	0.104	646352	keystroke_e	e	n/a
323.281	0.09	646562	keystroke_l	l	n/a
323.4765	0.0605	646953	keystroke_i	i	n/a
323.612	0.1055	647224	keystroke_a	a	n/a
323.762	0.0755	647524	keystroke_b	b	n/a
323.8675	0.0905	647735	keystroke_l	l	n/a
323.943	0.105	647886	keystroke_e	e	n/a
324.063	0.105	648126	keystroke_Key.enter	Key.enter	n/a
324.175	7.8895	648350	prompt	n/a	toyota expertise heavily verizon\n
324.709	0.121	649418	keystroke_t	t	n/a
325.025	0.09	650050	keystroke_o	o	n/a
325.16	0.105	650320	keystroke_y	y	n/a
325.5065	0.06	651013	keystroke_a	a	n/a
325.732	0.09	651464	keystroke_Key.backspace	Key.backspace	n/a
325.9575	0.075	651915	keystroke_o	o	n/a
326.138	0.135	652276	keystroke_t	t	n/a
326.3635	0.09	652727	keystroke_a	a	n/a
326.7385	0.136	653477	keystroke_Key.space	Key.space	n/a
326.8895	0.075	653779	keystroke_e	e	n/a
327.115	0.06	654230	keystroke_x	x	n/a
327.31	0.061	654620	keystroke_p	p	n/a
327.8375	0.15	655675	keystroke_e	e	n/a
327.9425	0.105	655885	keystroke_r	r	n/a
328.153	0.075	656306	keystroke_t	t	n/a
328.304	0.075	656608	keystroke_i	i	n/a
328.394	0.06	656788	keystroke_s	s	n/a
328.528	0.0905	657056	keystroke_e	e	n/a
328.6335	0.09	657267	keystroke_Key.space	Key.space	n/a
328.7845	0.1045	657569	keystroke_h	h	n/a
328.8745	0.0905	657749	keystroke_e	e	n/a
329.1445	0.1355	658289	keystroke_a	a	n/a
329.295	0.09	658590	keystroke_v	v	n/a
329.597	0.075	659194	keystroke_i	i	n/a
330.0625	0.0905	660125	keystroke_l	l	n/a
330.213	0.0895	660426	keystroke_y	y	n/a
330.3925	0.076	660785	keystroke_Key.space	Key.space	n/a
330.604	0.0605	661208	keystroke_w	w	n/a
330.8135	0.091	661627	keystroke_Key.backspace	Key.backspace	n/a
330.89	0.135	661780	keystroke_v	v	n/a
330.98	0.15	661960	keystroke_e	e	n/a
331.1	0.091	662200	keystroke_r	r	n/a
331.3105	0.0605	662621	keystroke_i	i	n/a
331.4455	0.1055	662891	keystroke_z	z	n/a
331.581	0.06	663162	keystroke_o	o	n/a
331.776	0.0755	663552	keystroke_n	n	n/a
331.9415	0.1205	663883	keystroke_Key.enter	Key.enter	n/a
332.068	10.4765	664136	prompt	n/a	photographic fake dealt what'll\n
333.716	0.1055	667432	keystroke_p	p	n/a
333.8965	0.1205	667793	keystroke_h	h	n/a
334.062	0.09	668124	keystroke_o	o	n/a
334.197	0.0755	668394	keystroke_t	t	n/a
334.574	0.06	669148	keystroke_o	o	n/a
335.01	0.09	670020	keystroke_g	g	n/a
335.22	0.12	670440	keystroke_r	r	n/a
335.325	0.0905	670650	keystroke_a	a	n/a
335.3855	0.12	670771	keystroke_p	p	n/a
335.536	0.075	671072	keystroke_h	h	n/a
335.686	0.0755	671372	keystroke_i	i	n/a
335.8215	0.0905	671643	keystroke_c	c	n/a
335.9865	0.0755	671973	keystroke_Key.space	Key.space	n/a
336.618	0.075	673236	keystroke_d	d	n/a
336.7085	0.06	673417	keystroke_a	a	n/a
336.949	0.0455	673898	keystroke_Key.backspace	Key.backspace	n/a
337.054	0.0905	674108	keystroke_Key.backspace	Key.backspace	n/a
337.13	0.12	674260	keystroke_f	f	n/a
337.22	0.105	674440	keystroke_a	a	n/a
337.28	0.0755	674560	keystroke_k	k	n/a
337.3855	0.105	674771	keystroke_e	e	n/a
337.5355	0.075	675071	keystroke_Key.space	Key.space	n/a
337.671	0.0905	675342	keystroke_d	d	n/a
337.8815	0.105	675763	keystroke_e	e	n/a
337.9415	0.121	675883	keystroke_a	a	n/a
338.0765	0.1205	676153	keystroke_l	l	n/a
338.2275	0.0895	676455	keystroke_t	t	n/a
338.4225	0.045	676845	keystroke_h	h	n/a
338.8735	0.0755	677747	keystroke_Key.backspace	Key.backspace	n/a
339.7905	0.121	679581	keystroke_Key.space	Key.space	n/a
340.0315	0.1955	680063	keystroke_w	w	n/a
340.167	0.105	680334	keystroke_a	a	n/a
340.3475	0.09	680695	keystroke_l	l	n/a
340.648	0.075	681296	keystroke_Key.backspace	Key.backspace	n/a
340.7985	0.0755	681597	keystroke_Key.backspace	Key.backspace	n/a
340.994	0.06	681988	keystroke_h	h	n/a
341.069	0.105	682138	keystroke_a	a	n/a
341.1445	0.1055	682289	keystroke_t	t	n/a
341.9265	0.015	683853	keystroke_'	'	n/a
342.1065	0.09	684213	keystroke_l	l	n/a
342.2265	0.1355	684453	keystroke_l	l	n/a
342.392	0.15	684784	keystroke_Key.enter	Key.enter	n/a
342.5495	6.7605	685099	prompt	n/a	decreased gained finger module\n
343.37	0.1045	686740	keystroke_d	d	n/a
343.67	0.1355	687340	keystroke_e	e	n/a
344.3165	0.106	688633	keystroke_c	c	n/a
344.542	0.0905	689084	keystroke_r	r	n/a
344.708	0.1345	689416	keystroke_e	e	n/a
344.813	0.121	689626	keystroke_a	a	n/a
344.873	0.076	689746	keystroke_s	s	n/a
345.0385	0.1055	690077	keystroke_e	e	n/a
345.2035	0.076	690407	keystroke_d	d	n/a
345.339	0.0905	690678	keystroke_Key.space	Key.space	n/a
345.52	0.09	691040	keystroke_g	g	n/a
345.64	0.0905	691280	keystroke_a	a	n/a
345.7605	0.06	691521	keystroke_i	i	n/a
345.926	0.1055	691852	keystroke_n	n	n/a
346.0455	0.1055	692091	keystroke_e	e	n/a
346.166	0.12	692332	keystroke_d	d	n/a
346.2405	0.091	692481	keystroke_Key.space	Key.space	n/a
346.362	0.1055	692724	keystroke_f	f	n/a
346.482	0.09	692964	keystroke_i	i	n/a
346.7075	0.0755	693415	keystroke_n	n	n/a
346.768	0.1195	693536	keystroke_g	g	n/a
346.9025	0.1515	693805	keystroke_e	e	n/a
346.978	0.1045	693956	keystroke_r	r	n/a
347.0985	0.06	694197	keystroke_Key.space	Key.space	n/a
347.278	0.0615	694556	keystroke_m	m	n/a
347.4595	0.09	694919	keystroke_o	o	n/a
347.85	0.1055	695700	keystroke_d	d	n/a
348.181	0.105	696362	keystroke_Key.backspace	Key.backspace	n/a
348.617	0.09	697234	keystroke_d	d	n/a
348.7975	0.045	697595	keystroke_u	u	n/a
348.993	0.105	697986	keystroke_l	l	n/a
349.083	0.105	698166	keystroke_e	e	n/a
349.173	0.1355	698346	keystroke_Key.enter	Key.enter	n/a
349.3175	5.871	698635	prompt	n/a	gold heritage burton where'd\n
350.0905	0.0745	700181	keystroke_g	g	n/a
350.18	0.0755	700360	keystroke_o	o	n/a
350.346	0.105	700692	keystroke_l	l	n/a
350.436	0.0905	700872	keystroke_d	d	n/a
350.5865	0.09	701173	keystroke_Key.space	Key.space	n/a
350.7365	0.121	701473	keystroke_g	g	n/a
350.827	0.2105	701654	keystroke_e	e	n/a
351.0525	0.0905	702105	keystroke_r	r	n/a
351.3685	0.0445	702737	keystroke_Key.backspace	Key.backspace	n/a
351.489	0.0745	702978	keystroke_Key.backspace	Key.backspace	n/a
351.624	0.09	703248	keystroke_Key.backspace	Key.backspace	n/a
351.669	0.105	703338	keystroke_h	h	n/a
351.849	0.1055	703698	keystroke_e	e	n/a
351.9095	0.105	703819	keystroke_r	r	n/a
352.165	0.075	704330	keystroke_i	i	n/a
352.541	0.06	705082	keystroke_t	t	n/a
352.736	0.0905	705472	keystroke_a	a	n/a
352.8415	0.1055	705683	keystroke_g	g	n/a
352.932	0.09	705864	keystroke_e	e	n/a
353.037	0.09	706074	keystroke_Key.space	Key.space	n/a
353.157	0.091	706314	keystroke_b	b	n/a
353.308	0.0595	706616	keystroke_u	u	n/a
353.3825	0.0755	706765	keystroke_r	r	n/a
353.548	0.09	707096	keystroke_t	t	n/a
353.6235	0.0295	707247	keystroke_o	o	n/a
353.773	0.091	707546	keystroke_n	n	n/a
353.9545	0.09	707909	keystroke_Key.space	Key.space	n/a
354.0135	0.1665	708027	keystroke_w	w	n/a
354.2395	0.0755	708479	keystroke_h	h	n/a
354.3745	0.091	708749	keystroke_e	e	n/a
354.4495	0.1355	708899	keystroke_r	r	n/a
354.556	0.104	709112	keystroke_e	e	n/a
354.8555	0.0915	709711	keystroke_'	'	n/a
354.932	0.06	709864	keystroke_d	d	n/a
355.097	0.089	710194	keystroke_Key.enter	Key.enter	n/a
355.1925	5.333	710385	prompt	n/a	listprice pushing decorating kings\n
356.014	0.074	712028	keystroke_l	l	n/a
356.2085	0.06	712417	keystroke_i	i	n/a
356.2545	0.1355	712509	keystroke_s	s	n/a
356.375	0.074	712750	keystroke_t	t	n/a
356.539	0.0915	713078	keystroke_p	p	n/a
356.6455	0.075	713291	keystroke_r	r	n/a
356.796	0.06	713592	keystroke_i	i	n/a
356.8855	0.106	713771	keystroke_c	c	n/a
356.9755	0.0755	713951	keystroke_e	e	n/a
357.081	0.0905	714162	keystroke_Key.space	Key.space	n/a
357.3675	0.075	714735	keystroke_p	p	n/a
357.5925	0.06	715185	keystroke_u	u	n/a
357.6975	0.105	715395	keystroke_s	s	n/a
357.7725	0.075	715545	keystroke_h	h	n/a
357.9385	0.075	715877	keystroke_i	i	n/a
358.2085	0.015	716417	keystroke_n	n	n/a
358.2235	0.0445	716447	keystroke_g	g	n/a
358.284	0.089	716568	keystroke_Key.space	Key.space	n/a
358.4645	0.135	716929	keystroke_d	d	n/a
358.585	0.075	717170	keystroke_e	e	n/a
358.735	0.075	717470	keystroke_c	c	n/a
358.84	0.0905	717680	keystroke_o	o	n/a
358.9455	0.0905	717891	keystroke_r	r	n/a
359.081	0.15	718162	keystroke_a	a	n/a
359.186	0.09	718372	keystroke_t	t	n/a
359.306	0.06	718612	keystroke_i	i	n/a
359.487	0.06	718974	keystroke_n	n	n/a
359.562	0.0745	719124	keystroke_g	g	n/a
359.652	0.06	719304	keystroke_Key.space	Key.space	n/a
359.832	0.0455	719664	keystroke_k	k	n/a
359.9675	0.06	719935	keystroke_i	i	n/a
360.133	0.0895	720266	keystroke_n	n	n/a
360.2075	0.1205	720415	keystroke_g	g	n/a
360.313	0.0905	720626	keystroke_s	s	n/a
360.4185	0.1055	720837	keystroke_Key.enter	Key.enter	n/a
360.5305	6.233	721061	prompt	n/a	secondary seasonal varied placement\n
361.08	0.09	722160	keystroke_s	s	n/a
361.2755	0.09	722551	keystroke_e	e	n/a
361.4255	0.075	722851	keystroke_c	c	n/a
361.5765	0.0595	723153	keystroke_o	o	n/a
361.7555	0.0915	723511	keystroke_n	n	n/a
361.8165	0.136	723633	keystroke_d	d	n/a
361.9525	0.195	723905	keystroke_a	a	n/a
362.2665	0.121	724533	keystroke_r	r	n/a
362.5075	0.09	725015	keystroke_y	y	n/a
362.673	0.0905	725346	keystroke_Key.space	Key.space	n/a
362.793	0.091	725586	keystroke_s	s	n/a
362.9895	0.1355	725979	keystroke_e	e	n/a
363.125	0.164	726250	keystroke_a	a	n/a
363.214	0.1055	726428	keystroke_s	s	n/a
363.3645	0.075	726729	keystroke_o	o	n/a
363.936	0.0755	727872	keystroke_n	n	n/a
364.1165	0.135	728233	keystroke_a	a	n/a
364.236	0.0755	728472	keystroke_l	l	n/a
364.432	0.09	728864	keystroke_Key.space	Key.space	n/a
364.537	0.1055	729074	keystroke_v	v	n/a
364.658	0.1495	729316	keystroke_a	a	n/a
364.7775	0.09	729555	keystroke_r	r	n/a
364.913	0.075	729826	keystroke_i	i	n/a
365.1085	0.075	730217	keystroke_e	e	n/a
365.2585	0.0755	730517	keystroke_d	d	n/a
365.3635	0.075	730727	keystroke_Key.space	Key.space	n/a
365.6045	0.045	731209	keystroke_p	p	n/a
365.7695	0.075	731539	keystroke_l	l	n/a
365.8595	0.121	731719	keystroke_a	a	n/a
365.9655	0.1655	731931	keystroke_c	c	n/a
366.0555	0.12	732111	keystroke_e	e	n/a
366.3255	0.06	732651	keystroke_m	m	n/a
366.4305	0.106	732861	keystroke_e	e	n/a
366.521	0.0455	733042	keystroke_n	n	n/a
366.5965	0.075	733193	keystroke_t	t	n/a
366.6865	0.075	733373	keystroke_Key.enter	Key.enter	n/a
366.768	22.648	733536	prompt	n/a	agree term thursday silly\n
383.223	0.059	766446	keystroke_a	a	n/a
383.297	0.075	766594	keystroke_g	g	n/a
383.402	0.075	766804	keystroke_r	r	n/a
383.642	0.0745	767284	keystroke_e	e	n/a
383.792	0.1045	767584	keystroke_e	e	n/a
384.0765	0.0155	768153	keystroke_Key.space	Key.space	n/a
384.137	0.0895	768274	keystroke_t	t	n/a
384.212	0.1345	768424	keystroke_e	e	n/a
384.3165	0.105	768633	keystroke_r	r	n/a
384.3915	0.06	768783	keystroke_n	n	n/a
384.5565	0.104	769113	keystroke_Key.space	Key.space	n/a
384.6755	0.135	769351	keystroke_t	t	n/a
384.9005	0.0615	769801	keystroke_g	g	n/a
384.9755	0.091	769951	keystroke_r	r	n/a
385.1115	0.0595	770223	keystroke_y	y	n/a
385.2015	0.1045	770403	keystroke_s	s	n/a
385.396	0.1355	770792	keystroke_a	a	n/a
385.4715	0.135	770943	keystroke_d	d	n/a
385.756	0.075	771512	keystroke_Key.backspace	Key.backspace	n/a
385.906	0.09	771812	keystroke_Key.backspace	Key.backspace	n/a
386.026	0.0605	772052	keystroke_d	d	n/a
386.071	0.0745	772142	keystroke_Key.backspace	Key.backspace	n/a
386.2055	0.075	772411	keystroke_Key.backspace	Key.backspace	n/a
386.3405	0.075	772681	keystroke_Key.backspace	Key.backspace	n/a
386.4905	0.06	772981	keystroke_Key.backspace	Key.backspace	n/a
386.6105	0.0895	773221	keystroke_Key.backspace	Key.backspace	n/a
387.135	0.075	774270	keystroke_h	h	n/a
387.3445	0.0145	774689	keystroke_u	u	n/a
387.4045	0.105	774809	keystroke_r	r	n/a
387.9455	0.1045	775891	keystroke_s	s	n/a
388.1255	0.1485	776251	keystroke_d	d	n/a
388.244	0.121	776488	keystroke_a	a	n/a
388.454	0.075	776908	keystroke_y	y	n/a
388.604	0.075	777208	keystroke_Key.space	Key.space	n/a
388.695	0.09	777390	keystroke_s	s	n/a
388.829	0.061	777658	keystroke_i	i	n/a
388.994	0.076	777988	keystroke_l	l	n/a
389.114	0.0895	778228	keystroke_l	l	n/a
389.1885	0.0905	778377	keystroke_y	y	n/a
389.2935	0.121	778587	keystroke_Key.enter	Key.enter	n/a
389.4215	6.6975	778843	prompt	n/a	taxation present classic declaration\n
390.045	0.105	780090	keystroke_t	t	n/a
390.1945	0.119	780389	keystroke_a	a	n/a
390.4485	0.106	780897	keystroke_x	x	n/a
390.6295	0.1335	781259	keystroke_a	a	n/a
390.929	0.09	781858	keystroke_t	t	n/a
391.048	0.061	782096	keystroke_i	i	n/a
391.213	0.076	782426	keystroke_o	o	n/a
391.258	0.09	782516	keystroke_n	n	n/a
391.408	0.06	782816	keystroke_Key.space	Key.space	n/a
391.6035	0.0605	783207	keystroke_p	p	n/a
391.648	0.136	783296	keystroke_r	r	n/a
391.769	0.06	783538	keystroke_e	e	n/a
391.9335	0.0595	783867	keystroke_s	s	n/a
392.068	0.105	784136	keystroke_e	e	n/a
392.144	0.0735	784288	keystroke_n	n	n/a
392.2485	0.0905	784497	keystroke_t	t	n/a
392.3235	0.075	784647	keystroke_Key.space	Key.space	n/a
392.489	0.074	784978	keystroke_c	c	n/a
392.594	0.059	785188	keystroke_l	l	n/a
392.669	0.1045	785338	keystroke_a	a	n/a
392.8485	0.105	785697	keystroke_s	s	n/a
393.0885	0.044	786177	keystroke_i	i	n/a
393.297	0.09	786594	keystroke_Key.backspace	Key.backspace	n/a
393.418	0.105	786836	keystroke_s	s	n/a
393.492	0.0905	786984	keystroke_i	i	n/a
393.6125	0.0905	787225	keystroke_c	c	n/a
393.7175	0.1055	787435	keystroke_Key.space	Key.space	n/a
393.957	0.135	787914	keystroke_d	d	n/a
394.048	0.12	788096	keystroke_e	e	n/a
394.227	0.091	788454	keystroke_l	l	n/a
394.242	0.09	788484	keystroke_c	c	n/a
394.7065	0.0755	789413	keystroke_Key.backspace	Key.backspace	n/a
394.8565	0.075	789713	keystroke_Key.backspace	Key.backspace	n/a
394.9025	0.105	789805	keystroke_c	c	n/a
394.9775	0.104	789955	keystroke_l	l	n/a
395.0975	0.149	790195	keystroke_a	a	n/a
395.2175	0.12	790435	keystroke_r	r	n/a
395.4275	0.119	790855	keystroke_a	a	n/a
395.532	0.0905	791064	keystroke_t	t	n/a
395.6825	0.0595	791365	keystroke_i	i	n/a
395.877	0.045	791754	keystroke_o	o	n/a
395.892	0.0745	791784	keystroke_n	n	n/a
395.9965	0.1195	791993	keystroke_Key.enter	Key.enter	n/a
396.1245	5.197	792249	prompt	n/a	expires thick requesting estimate\n
396.612	0.09	793224	keystroke_e	e	n/a
396.8065	0.075	793613	keystroke_x	x	n/a
396.8815	0.074	793763	keystroke_p	p	n/a
397.0915	0.0605	794183	keystroke_i	i	n/a
397.122	0.1185	794244	keystroke_r	r	n/a
397.212	0.0745	794424	keystroke_e	e	n/a
397.3765	0.06	794753	keystroke_s	s	n/a
397.4205	0.105	794841	keystroke_Key.space	Key.space	n/a
397.5105	0.091	795021	keystroke_t	t	n/a
397.7065	0.074	795413	keystroke_h	h	n/a
397.8415	0.075	795683	keystroke_i	i	n/a
397.9315	0.075	795863	keystroke_c	c	n/a
398.0515	0.075	796103	keystroke_k	k	n/a
398.2165	0.0895	796433	keystroke_Key.space	Key.space	n/a
398.321	0.105	796642	keystroke_r	r	n/a
398.651	0.0745	797302	keystroke_Key.backspace	Key.backspace	n/a
398.7705	0.1045	797541	keystroke_r	r	n/a
399.01	0.121	798020	keystroke_e	e	n/a
399.116	0.105	798232	keystroke_q	q	n/a
399.2945	0.0465	798589	keystroke_u	u	n/a
399.431	0.075	798862	keystroke_e	e	n/a
399.746	0.1045	799492	keystroke_s	s	n/a
399.881	0.09	799762	keystroke_t	t	n/a
400.001	0.06	800002	keystroke_i	i	n/a
400.15	0.076	800300	keystroke_n	n	n/a
400.211	0.0745	800422	keystroke_g	g	n/a
400.3145	0.09	800629	keystroke_Key.space	Key.space	n/a
400.4205	0.03	800841	keystroke_e	e	n/a
400.5555	0.1195	801111	keystroke_s	s	n/a
400.661	0.0895	801322	keystroke_t	t	n/a
400.765	0.0605	801530	keystroke_i	i	n/a
400.9155	0.09	801831	keystroke_m	m	n/a
400.9755	0.105	801951	keystroke_a	a	n/a
401.0805	0.09	802161	keystroke_t	t	n/a
401.1405	0.09	802281	keystroke_e	e	n/a
401.1855	0.1345	802371	keystroke_Key.enter	Key.enter	n/a
401.326	6.488	802652	prompt	n/a	brands geology slovakia travelling\n
401.9795	0.0905	803959	keystroke_b	b	n/a
402.19	0.104	804380	keystroke_r	r	n/a
402.279	0.1205	804558	keystroke_a	a	n/a
402.384	0.106	804768	keystroke_n	n	n/a
402.474	0.12	804948	keystroke_d	d	n/a
402.564	0.1205	805128	keystroke_s	s	n/a
402.714	0.0755	805428	keystroke_Key.space	Key.space	n/a
402.953	0.106	805906	keystroke_g	g	n/a
403.0285	0.09	806057	keystroke_e	e	n/a
403.1785	0.0605	806357	keystroke_o	o	n/a
403.3585	0.0755	806717	keystroke_l	l	n/a
403.554	0.0595	807108	keystroke_o	o	n/a
403.629	0.105	807258	keystroke_g	g	n/a
403.824	0.09	807648	keystroke_y	y	n/a
403.928	0.091	807856	keystroke_Key.space	Key.space	n/a
404.1685	0.075	808337	keystroke_s	s	n/a
404.2585	0.0905	808517	keystroke_l	l	n/a
405.0085	0.0595	810017	keystroke_o	o	n/a
405.083	0.1055	810166	keystroke_v	v	n/a
405.248	0.105	810496	keystroke_a	a	n/a
405.5025	0.076	811005	keystroke_k	k	n/a
405.6975	0.061	811395	keystroke_i	i	n/a
405.8035	0.1045	811607	keystroke_a	a	n/a
405.953	0.06	811906	keystroke_Key.space	Key.space	n/a
406.1485	0.075	812297	keystroke_t	t	n/a
406.4325	0.1205	812865	keystroke_r	r	n/a
406.568	0.105	813136	keystroke_a	a	n/a
406.733	0.0895	813466	keystroke_v	v	n/a
406.9275	0.06	813855	keystroke_e	e	n/a
407.0475	0.075	814095	keystroke_l	l	n/a
407.1985	0.089	814397	keystroke_l	l	n/a
407.3915	0.0755	814783	keystroke_i	i	n/a
407.4815	0.12	814963	keystroke_n	n	n/a
407.557	0.105	815114	keystroke_g	g	n/a
407.6915	0.121	815383	keystroke_Key.enter	Key.enter	n/a
407.8185	5.5585	815637	prompt	n/a	alter funds union passenger\n
408.3215	0.1195	816643	keystroke_a	a	n/a
408.5625	0.074	817125	keystroke_l	l	n/a
408.8015	0.105	817603	keystroke_t	t	n/a
408.9215	0.135	817843	keystroke_e	e	n/a
409.0115	0.105	818023	keystroke_r	r	n/a
409.267	0.0895	818534	keystroke_f	f	n/a
409.5815	0.0895	819163	keystroke_Key.backspace	Key.backspace	n/a
409.656	0.0755	819312	keystroke_Key.space	Key.space	n/a
409.7015	0.12	819403	keystroke_f	f	n/a
409.836	0.06	819672	keystroke_u	u	n/a
410.016	0.0755	820032	keystroke_n	n	n/a
410.106	0.105	820212	keystroke_s	s	n/a
410.211	0.075	820422	keystroke_Key.space	Key.space	n/a
410.466	0.045	820932	keystroke_u	u	n/a
410.616	0.09	821232	keystroke_n	n	n/a
410.8265	0.0445	821653	keystroke_i	i	n/a
411.081	0.09	822162	keystroke_o	o	n/a
411.321	0.0595	822642	keystroke_n	n	n/a
411.486	0.075	822972	keystroke_Key.space	Key.space	n/a
411.7255	0.0605	823451	keystroke_p	p	n/a
411.89	0.09	823780	keystroke_a	a	n/a
412.0845	0.076	824169	keystroke_s	s	n/a
412.191	0.104	824382	keystroke_s	s	n/a
412.385	0.046	824770	keystroke_s	s	n/a
412.7295	0.0605	825459	keystroke_Key.backspace	Key.backspace	n/a
412.82	0.0905	825640	keystroke_e	e	n/a
412.9395	0.0905	825879	keystroke_n	n	n/a
413.03	0.0895	826060	keystroke_g	g	n/a
413.1045	0.1355	826209	keystroke_e	e	n/a
413.21	0.09	826420	keystroke_r	r	n/a
413.27	0.105	826540	keystroke_Key.enter	Key.enter	n/a
413.3815	5.4825	826763	prompt	n/a	expect groundwater fastest came\n
413.9305	0.074	827861	keystroke_e	e	n/a
414.11	0.0595	828220	keystroke_x	x	n/a
414.1995	0.1055	828399	keystroke_p	p	n/a
414.289	0.1055	828578	keystroke_e	e	n/a
414.424	0.09	828848	keystroke_c	c	n/a
414.604	0.091	829208	keystroke_t	t	n/a
414.6795	0.0895	829359	keystroke_Key.space	Key.space	n/a
414.8145	0.075	829629	keystroke_g	g	n/a
414.9795	0.0895	829959	keystroke_r	r	n/a
415.024	0.0755	830048	keystroke_o	o	n/a
415.219	0.0605	830438	keystroke_u	u	n/a
415.369	0.09	830738	keystroke_n	n	n/a
415.474	0.0745	830948	keystroke_g	g	n/a
415.969	0.075	831938	keystroke_Key.backspace	Key.backspace	n/a
416.209	0.09	832418	keystroke_d	d	n/a
416.449	0.1495	832898	keystroke_w	w	n/a
416.5535	0.15	833107	keystroke_a	a	n/a
416.6885	0.135	833377	keystroke_t	t	n/a
416.7935	0.1645	833587	keystroke_e	e	n/a
416.928	0.1195	833856	keystroke_r	r	n/a
417.0325	0.075	834065	keystroke_Key.space	Key.space	n/a
417.1835	0.134	834367	keystroke_f	f	n/a
417.333	0.105	834666	keystroke_a	a	n/a
417.393	0.135	834786	keystroke_s	s	n/a
417.558	0.1195	835116	keystroke_t	t	n/a
417.648	0.105	835296	keystroke_e	e	n/a
417.918	0.0905	835836	keystroke_s	s	n/a
418.009	0.1035	836018	keystroke_t	t	n/a
418.172	0.0755	836344	keystroke_Key.space	Key.space	n/a
418.3235	0.0595	836647	keystroke_c	c	n/a
418.4875	0.09	836975	keystroke_a	a	n/a
418.5625	0.09	837125	keystroke_m	m	n/a
418.6675	0.09	837335	keystroke_e	e	n/a
418.7275	0.135	837455	keystroke_Key.enter	Key.enter	n/a
418.8675	8.393	837735	prompt	n/a	member thanksgiving pharmacology rejected\n
419.8215	0.076	839643	keystroke_m	m	n/a
419.912	0.1045	839824	keystroke_e	e	n/a
420.0315	0.0745	840063	keystroke_m	m	n/a
420.136	0.09	840272	keystroke_b	b	n/a
420.242	0.119	840484	keystroke_e	e	n/a
420.3465	0.0745	840693	keystroke_r	r	n/a
420.436	0.1055	840872	keystroke_Key.space	Key.space	n/a
420.556	0.0455	841112	keystroke_t	t	n/a
420.9165	0.075	841833	keystroke_Key.backspace	Key.backspace	n/a
421.066	0.075	842132	keystroke_Key.backspace	Key.backspace	n/a
421.351	0.09	842702	keystroke_Key.space	Key.space	n/a
421.501	0.12	843002	keystroke_t	t	n/a
421.6515	0.0745	843303	keystroke_h	h	n/a
421.741	0.075	843482	keystroke_a	a	n/a
421.831	0.0905	843662	keystroke_n	n	n/a
422.042	0.074	844084	keystroke_k	k	n/a
422.131	0.0895	844262	keystroke_s	s	n/a
422.341	0.0745	844682	keystroke_g	g	n/a
422.4455	0.075	844891	keystroke_i	i	n/a
422.5505	0.09	845101	keystroke_v	v	n/a
422.656	0.0605	845312	keystroke_i	i	n/a
422.8205	0.075	845641	keystroke_n	n	n/a
422.9105	0.0605	845821	keystroke_g	g	n/a
423.001	0.074	846002	keystroke_Key.space	Key.space	n/a
423.2255	0.0745	846451	keystroke_p	p	n/a
423.3905	0.1045	846781	keystroke_h	h	n/a
423.7055	0.1195	847411	keystroke_a	a	n/a
423.8405	0.0745	847681	keystroke_r	r	n/a
423.99	0.06	847980	keystroke_m	m	n/a
424.11	0.0905	848220	keystroke_a	a	n/a
424.38	0.0755	848760	keystroke_c	c	n/a
424.47	0.06	848940	keystroke_o	o	n/a
424.6045	0.06	849209	keystroke_l	l	n/a
424.7245	0.09	849449	keystroke_o	o	n/a
424.83	0.105	849660	keystroke_g	g	n/a
425.01	0.075	850020	keystroke_y	y	n/a
425.894	0.075	851788	keystroke_Key.space	Key.space	n/a
426.1935	0.135	852387	keystroke_r	r	n/a
426.2835	0.105	852567	keystroke_e	e	n/a
426.449	0.075	852898	keystroke_j	j	n/a
426.539	0.105	853078	keystroke_e	e	n/a
426.658	0.076	853316	keystroke_c	c	n/a
426.839	0.0895	853678	keystroke_t	t	n/a
426.943	0.061	853886	keystroke_e	e	n/a
427.049	0.0885	854098	keystroke_d	d	n/a
427.1685	0.0895	854337	keystroke_Key.enter	Key.enter	n/a
427.265	5.1085	854530	prompt	n/a	bonds bent suse democrat\n
427.858	0.0895	855716	keystroke_b	b	n/a
427.903	0.0745	855806	keystroke_o	o	n/a
428.1125	0.0755	856225	keystroke_n	n	n/a
428.1725	0.12	856345	keystroke_d	d	n/a
428.2625	0.09	856525	keystroke_s	s	n/a
428.3375	0.075	856675	keystroke_Key.space	Key.space	n/a
428.5325	0.12	857065	keystroke_b	b	n/a
428.608	0.09	857216	keystroke_e	e	n/a
428.7575	0.09	857515	keystroke_n	n	n/a
429.4025	0.09	858805	keystroke_t	t	n/a
429.522	0.12	859044	keystroke_Key.space	Key.space	n/a
429.657	0.075	859314	keystroke_s	s	n/a
429.8075	0.0305	859615	keystroke_u	u	n/a
429.897	0.09	859794	keystroke_s	s	n/a
430.122	0.075	860244	keystroke_e	e	n/a
430.2265	0.075	860453	keystroke_Key.space	Key.space	n/a
430.4225	0.135	860845	keystroke_d	d	n/a
430.512	0.12	861024	keystroke_e	e	n/a
430.647	0.0745	861294	keystroke_m	m	n/a
430.8565	0.06	861713	keystroke_o	o	n/a
431.246	0.046	862492	keystroke_c	c	n/a
431.426	0.105	862852	keystroke_r	r	n/a
431.606	0.0305	863212	keystroke_a	a	n/a
432.086	0.0895	864172	keystroke_t	t	n/a
432.2805	0.0905	864561	keystroke_Key.enter	Key.enter	n/a
432.3785	4.957	864757	prompt	n/a	logos notices issued literary\n
432.9705	0.06	865941	keystroke_l	l	n/a
433.136	0.074	866272	keystroke_o	o	n/a
433.2245	0.0905	866449	keystroke_g	g	n/a
433.3455	0.09	866691	keystroke_o	o	n/a
433.45	0.091	866900	keystroke_s	s	n/a
433.6905	0.09	867381	keystroke_Key.space	Key.space	n/a
434.0055	0.0595	868011	keystroke_n	n	n/a
434.2	0.0605	868400	keystroke_o	o	n/a
434.245	0.06	868490	keystroke_t	t	n/a
434.395	0.06	868790	keystroke_i	i	n/a
434.5	0.1355	869000	keystroke_c	c	n/a
434.575	0.09	869150	keystroke_e	e	n/a
434.77	0.075	869540	keystroke_s	s	n/a
434.815	0.09	869630	keystroke_Key.space	Key.space	n/a
435.055	0.0755	870110	keystroke_i	i	n/a
435.145	0.045	870290	keystroke_s	s	n/a
435.265	0.12	870530	keystroke_s	s	n/a
435.415	0.0595	870830	keystroke_u	u	n/a
435.445	0.089	870890	keystroke_e	e	n/a
435.6395	0.105	871279	keystroke_d	d	n/a
435.7895	0.06	871579	keystroke_Key.space	Key.space	n/a
435.9995	0.075	871999	keystroke_l	l	n/a
436.1795	0.09	872359	keystroke_i	i	n/a
436.2395	0.105	872479	keystroke_t	t	n/a
436.4045	0.135	872809	keystroke_e	e	n/a
436.554	0.135	873108	keystroke_r	r	n/a
436.704	0.1205	873408	keystroke_a	a	n/a
436.8085	0.1205	873617	keystroke_r	r	n/a
437.0335	0.09	874067	keystroke_y	y	n/a
437.2435	0.09	874487	keystroke_Key.enter	Key.enter	n/a
437.339	7.7485	874678	prompt	n/a	constraint celebration transition frederick\n
437.9935	0.0745	875987	keystroke_c	c	n/a
438.083	0.046	876166	keystroke_o	o	n/a
438.248	0.09	876496	keystroke_n	n	n/a
438.3235	0.06	876647	keystroke_t	t	n/a
438.488	0.0905	876976	keystroke_r	r	n/a
438.548	0.1045	877096	keystroke_a	a	n/a
438.6225	0.0755	877245	keystroke_i	i	n/a
438.7875	0.075	877575	keystroke_n	n	n/a
438.848	0.105	877696	keystroke_t	t	n/a
438.9975	0.075	877995	keystroke_Key.space	Key.space	n/a
439.208	0.0445	878416	keystroke_c	c	n/a
439.328	0.0445	878656	keystroke_o	o	n/a
439.718	0.0745	879436	keystroke_Key.backspace	Key.backspace	n/a
439.8075	0.09	879615	keystroke_e	e	n/a
439.9425	0.0755	879885	keystroke_l	l	n/a
440.048	0.074	880096	keystroke_e	e	n/a
440.302	0.06	880604	keystroke_b	b	n/a
440.512	0.105	881024	keystroke_r	r	n/a
440.632	0.1205	881264	keystroke_a	a	n/a
440.722	0.1205	881444	keystroke_t	t	n/a
440.8575	0.045	881715	keystroke_i	i	n/a
441.0225	0.0295	882045	keystroke_o	o	n/a
441.053	0.075	882106	keystroke_n	n	n/a
441.2025	0.09	882405	keystroke_Key.space	Key.space	n/a
441.307	0.121	882614	keystroke_t	t	n/a
441.547	0.135	883094	keystroke_r	r	n/a
441.652	0.1195	883304	keystroke_a	a	n/a
441.7565	0.09	883513	keystroke_n	n	n/a
441.9065	0.075	883813	keystroke_s	s	n/a
442.2815	0.0745	884563	keystroke_i	i	n/a
442.432	0.1045	884864	keystroke_t	t	n/a
442.5515	0.045	885103	keystroke_i	i	n/a
442.7165	0.1045	885433	keystroke_o	o	n/a
442.8515	0.06	885703	keystroke_n	n	n/a
443.0015	0.0745	886003	keystroke_Key.space	Key.space	n/a
443.1815	0.1045	886363	keystroke_f	f	n/a
443.481	0.15	886962	keystroke_r	r	n/a
443.601	0.104	887202	keystroke_e	e	n/a
443.8265	0.0595	887653	keystroke_d	d	n/a
444.156	0.135	888312	keystroke_e	e	n/a
444.2755	0.105	888551	keystroke_r	r	n/a
444.456	0.0595	888912	keystroke_i	i	n/a
444.5455	0.09	889091	keystroke_c	c	n/a
444.6955	0.105	889391	keystroke_k	k	n/a
444.965	0.12	889930	keystroke_Key.enter	Key.enter	n/a
445.092	6.2345	890184	prompt	n/a	links rebecca academic efforts\n
445.625	0.105	891250	keystroke_l	l	n/a
445.8345	0.0455	891669	keystroke_i	i	n/a
445.9855	0.06	891971	keystroke_n	n	n/a
446.1345	0.075	892269	keystroke_k	k	n/a
446.2255	0.104	892451	keystroke_s	s	n/a
446.3145	0.075	892629	keystroke_Key.space	Key.space	n/a
446.5545	0.0905	893109	keystroke_r	r	n/a
446.63	0.105	893260	keystroke_e	e	n/a
446.8255	0.089	893651	keystroke_b	b	n/a
446.8845	0.1055	893769	keystroke_e	e	n/a
447.065	0.074	894130	keystroke_c	c	n/a
447.244	0.1355	894488	keystroke_c	c	n/a
447.365	0.134	894730	keystroke_a	a	n/a
447.634	0.09	895268	keystroke_Key.space	Key.space	n/a
448.2195	0.1045	896439	keystroke_a	a	n/a
448.354	0.12	896708	keystroke_c	c	n/a
448.579	0.075	897158	keystroke_a	a	n/a
448.924	0.0895	897848	keystroke_d	d	n/a
449.0885	0.0895	898177	keystroke_e	e	n/a
449.193	0.075	898386	keystroke_m	m	n/a
449.313	0.06	898626	keystroke_c	c	n/a
449.388	0.0605	898776	keystroke_i	i	n/a
449.7475	0.0755	899495	keystroke_Key.backspace	Key.backspace	n/a
449.9135	0.0595	899827	keystroke_Key.backspace	Key.backspace	n/a
450.0335	0.0895	900067	keystroke_i	i	n/a
450.138	0.09	900276	keystroke_c	c	n/a
450.243	0.09	900486	keystroke_Key.space	Key.space	n/a
450.423	0.1055	900846	keystroke_e	e	n/a
450.618	0.06	901236	keystroke_f	f	n/a
450.7235	0.09	901447	keystroke_f	f	n/a
450.8435	0.089	901687	keystroke_o	o	n/a
450.918	0.0745	901836	keystroke_r	r	n/a
451.0675	0.075	902135	keystroke_t	t	n/a
451.1125	0.09	902225	keystroke_s	s	n/a
451.218	0.1045	902436	keystroke_Key.enter	Key.enter	n/a
451.3305	6.216	902661	prompt	n/a	eval sociology debt ieee\n
451.863	0.1045	903726	keystroke_e	e	n/a
452.0275	0.09	904055	keystroke_v	v	n/a
452.1325	0.075	904265	keystroke_a	a	n/a
452.2375	0.09	904475	keystroke_l	l	n/a
452.4165	0.091	904833	keystroke_Key.space	Key.space	n/a
452.5375	0.075	905075	keystroke_s	s	n/a
452.6575	0.0595	905315	keystroke_o	o	n/a
452.732	0.105	905464	keystroke_c	c	n/a
452.8525	0.0745	905705	keystroke_i	i	n/a
453.032	0.075	906064	keystroke_a	a	n/a
453.122	0.075	906244	keystroke_l	l	n/a
453.287	0.06	906574	keystroke_o	o	n/a
453.467	0.045	906934	keystroke_o	o	n/a
453.527	0.075	907054	keystroke_g	g	n/a
453.7665	0.0305	907533	keystroke_y	y	n/a
453.811	0.0755	907622	keystroke_Key.backspace	Key.backspace	n/a
453.947	0.089	907894	keystroke_Key.backspace	Key.backspace	n/a
