onset	duration	sample	value	key	prompt_text
1.3105	6.115	2621	prompt	n/a	the quick brown fox jumps over a lazy dog\n
2.84	0.135	5680	keystroke_t	t	n/a
2.9525	0.0685	5905	keystroke_h	h	n/a
3.302	0.109	6604	keystroke_e	e	n/a
3.432	0.1135	6864	keystroke_Key.space	Key.space	n/a
3.621	0.1155	7242	keystroke_q	q	n/a
3.737	0.1125	7474	keystroke_u	u	n/a
3.8045	0.0675	7609	keystroke_i	i	n/a
3.873	0.113	7746	keystroke_c	c	n/a
3.963	0.0905	7926	keystroke_k	k	n/a
4.008	0.1135	8016	keystroke_Key.space	Key.space	n/a
4.179	0.0675	8358	keystroke_b	b	n/a
4.268	0.0685	8536	keystroke_r	r	n/a
4.3655	0.1345	8731	keystroke_o	o	n/a
4.522	0.112	9044	keystroke_w	w	n/a
4.61	0.095	9220	keystroke_n	n	n/a
4.7055	0.11	9411	keystroke_Key.space	Key.space	n/a
4.8165	0.066	9633	keystroke_f	f	n/a
4.905	0.0665	9810	keystroke_o	o	n/a
5.014	0.135	10028	keystroke_x	x	n/a
5.104	0.112	10208	keystroke_Key.space	Key.space	n/a
5.218	0.021	10436	keystroke_j	j	n/a
5.352	0.0705	10704	keystroke_u	u	n/a
5.5595	0.0455	11119	keystroke_m	m	n/a
5.6055	0.092	11211	keystroke_p	p	n/a
5.6285	0.071	11257	keystroke_s	s	n/a
5.7435	0.1115	11487	keystroke_Key.space	Key.space	n/a
5.8765	0.0935	11753	keystroke_o	o	n/a
5.971	0.111	11942	keystroke_v	v	n/a
6.059	0.113	12118	keystroke_e	e	n/a
6.173	0.089	12346	keystroke_r	r	n/a
6.238	0.09	12476	keystroke_Key.space	Key.space	n/a
6.35	0.067	12700	keystroke_a	a	n/a
6.438	0.1105	12876	keystroke_Key.space	Key.space	n/a
6.549	0.0895	13098	keystroke_l	l	n/a
6.6385	0.088	13277	keystroke_a	a	n/a
6.7275	0.1355	13455	keystroke_z	z	n/a
6.817	0.092	13634	keystroke_y	y	n/a
6.91	0.089	13820	keystroke_Key.space	Key.space	n/a
7	0.1335	14000	keystroke_d	d	n/a
7.0885	0.111	14177	keystroke_o	o	n/a
7.221	0.0925	14442	keystroke_g	g	n/a
7.314	0.108	14628	keystroke_Key.enter	Key.enter	n/a
7.4305	5.2775	14861	prompt	n/a	newest atlantic victorian sync\n
8.303	0.0895	16606	keystroke_n	n	n/a
8.369	0.1135	16738	keystroke_e	e	n/a
8.4145	0.067	16829	keystroke_w	w	n/a
8.6455	0.1105	17291	keystroke_e	e	n/a
8.859	0.1105	17718	keystroke_s	s	n/a
8.946	0.1135	17892	keystroke_t	t	n/a
9.0125	0.1145	18025	keystroke_Key.space	Key.space	n/a
9.2295	0.1125	18459	keystroke_a	a	n/a
9.4015	0.089	18803	keystroke_t	t	n/a
9.6045	0.117	19209	keystroke_a	a	n/a
9.7695	0.087	19539	keystroke_n	n	n/a
9.896	0.088	19792	keystroke_t	t	n/a
10.0055	0.0915	20011	keystroke_i	i	n/a
10.1275	0.0895	20255	keystroke_c	c	n/a
10.218	0.1095	20436	keystroke_Key.space	Key.space	n/a
10.5615	0.115	21123	keystroke_v	v	n/a
10.6965	0.067	21393	keystroke_i	i	n/a
10.802	0.047	21604	keystroke_t	t	n/a
11.0605	0.111	22121	keystroke_Key.backspace	Key.backspace	n/a
11.1475	0.111	22295	keystroke_c	c	n/a
11.3715	0.091	22743	keystroke_t	t	n/a
11.4845	0.0675	22969	keystroke_o	o	n/a
11.5955	0.1165	23191	keystroke_r	r	n/a
11.776	0.0905	23552	keystroke_i	i	n/a
11.8675	0.1345	23735	keystroke_a	a	n/a
11.9775	0.0705	23955	keystroke_n	n	n/a
12.0485	0.09	24097	keystroke_Key.space	Key.space	n/a
12.16	0.1355	24320	keystroke_s	s	n/a
12.2955	0.044	24591	keystroke_y	y	n/a
12.429	0.0895	24858	keystroke_n	n	n/a
12.5195	0.0665	25039	keystroke_c	c	n/a
12.6165	0.0895	25233	keystroke_Key.enter	Key.enter	n/a
12.711	8.857	25422	prompt	n/a	expansion herb kijiji design\n
16.21	0.0895	32420	keystroke_e	e	n/a
16.5805	0.18	33161	keystroke_x	x	n/a
16.693	0.0695	33386	keystroke_p	p	n/a
16.867	0.0695	33734	keystroke_n	n	n/a
16.8895	0.0915	33779	keystroke_a	a	n/a
17.2915	0.0895	34583	keystroke_Key.backspace	Key.backspace	n/a
17.4325	0.09	34865	keystroke_Key.backspace	Key.backspace	n/a
17.4985	0.092	34997	keystroke_a	a	n/a
17.613	0.0895	35226	keystroke_n	n	n/a
17.679	0.112	35358	keystroke_s	s	n/a
17.8125	0.09	35625	keystroke_i	i	n/a
17.8565	0.09	35713	keystroke_o	o	n/a
18.0185	0.067	36037	keystroke_n	n	n/a
18.0865	0.11	36173	keystroke_Key.space	Key.space	n/a
18.469	0.1135	36938	keystroke_h	h	n/a
18.606	0.068	37212	keystroke_e	e	n/a
18.65	0.0915	37300	keystroke_r	r	n/a
18.7415	0.0875	37483	keystroke_b	b	n/a
18.8585	0.11	37717	keystroke_Key.space	Key.space	n/a
19.0795	0.089	38159	keystroke_k	k	n/a
19.412	0.1125	38824	keystroke_i	i	n/a
19.558	0.136	39116	keystroke_j	j	n/a
19.6475	0.091	39295	keystroke_i	i	n/a
20.2025	0.091	40405	keystroke_j	j	n/a
20.2475	0.1125	40495	keystroke_i	i	n/a
20.381	0.132	40762	keystroke_Key.space	Key.space	n/a
20.6135	0.115	41227	keystroke_d	d	n/a
20.7045	0.09	41409	keystroke_e	e	n/a
20.8775	0.0895	41755	keystroke_s	s	n/a
21.0205	0.0905	42041	keystroke_i	i	n/a
21.1115	0.0885	42223	keystroke_g	g	n/a
21.2215	0.091	42443	keystroke_n	n	n/a
21.455	0.1115	42910	keystroke_Key.enter	Key.enter	n/a
21.5715	5.5625	43143	prompt	n/a	march buys reed payments\n
22.096	0.1105	44192	keystroke_m	m	n/a
22.1835	0.09	44367	keystroke_a	a	n/a
22.2285	0.0685	44457	keystroke_r	r	n/a
22.4175	0.11	44835	keystroke_c	c	n/a
22.4825	0.068	44965	keystroke_h	h	n/a
22.551	0.088	45102	keystroke_Key.space	Key.space	n/a
22.7445	0.1135	45489	keystroke_b	b	n/a
22.835	0.066	45670	keystroke_i	i	n/a
22.9665	0.0895	45933	keystroke_u	u	n/a
23.081	0.066	46162	keystroke_s	s	n/a
23.1685	0.1105	46337	keystroke_Key.space	Key.space	n/a
23.3335	0.135	46667	keystroke_e	e	n/a
23.356	0.046	46712	keystroke_r	r	n/a
24.2465	0.068	48493	keystroke_Key.backspace	Key.backspace	n/a
24.3995	0.068	48799	keystroke_Key.backspace	Key.backspace	n/a
24.4965	0.112	48993	keystroke_r	r	n/a
24.5845	0.0685	49169	keystroke_e	e	n/a
24.7435	0.047	49487	keystroke_e	e	n/a
24.8625	0.1135	49725	keystroke_d	d	n/a
24.9285	0.115	49857	keystroke_Key.space	Key.space	n/a
25.2175	0.0915	50435	keystroke_p	p	n/a
25.309	0.1105	50618	keystroke_a	a	n/a
25.4585	0.069	50917	keystroke_y	y	n/a
25.647	0.109	51294	keystroke_m	m	n/a
25.7335	0.0675	51467	keystroke_e	e	n/a
25.8625	0.0685	51725	keystroke_m	m	n/a
25.864	0.0685	51728	keystroke_n	n	n/a
25.9535	0.1565	51907	keystroke_t	t	n/a
26.11	0.0665	52220	keystroke_s	s	n/a
26.2465	0.0915	52493	keystroke_Key.backspace	Key.backspace	n/a
26.417	0.089	52834	keystroke_Key.backspace	Key.backspace	n/a
26.5775	0.091	53155	keystroke_Key.backspace	Key.backspace	n/a
26.8645	0.0875	53729	keystroke_n	n	n/a
26.953	0.0895	53906	keystroke_t	t	n/a
26.9965	0.068	53993	keystroke_s	s	n/a
27.0655	0.0665	54131	keystroke_Key.enter	Key.enter	n/a
27.1375	6.0695	54275	prompt	n/a	visited learners dates claimed\n
28.124	0.0915	56248	keystroke_v	v	n/a
28.2995	0.09	56599	keystroke_i	i	n/a
28.411	0.0685	56822	keystroke_s	s	n/a
28.48	0.089	56960	keystroke_i	i	n/a
28.59	0.068	57180	keystroke_t	t	n/a
28.635	0.0905	57270	keystroke_e	e	n/a
28.812	0.069	57624	keystroke_d	d	n/a
28.856	0.1165	57712	keystroke_Key.space	Key.space	n/a
28.993	0.0905	57986	keystroke_l	l	n/a
29.084	0.0665	58168	keystroke_e	e	n/a
29.126	0.134	58252	keystroke_a	a	n/a
29.715	0.0455	59430	keystroke_t	t	n/a
30.088	0.115	60176	keystroke_Key.backspace	Key.backspace	n/a
30.156	0.091	60312	keystroke_r	r	n/a
30.2685	0.0905	60537	keystroke_n	n	n/a
30.336	0.0895	60672	keystroke_e	e	n/a
30.468	0.113	60936	keystroke_d	d	n/a
30.811	0.1355	61622	keystroke_Key.backspace	Key.backspace	n/a
31.031	0.1365	62062	keystroke_r	r	n/a
31.1225	0.091	62245	keystroke_s	s	n/a
31.1895	0.135	62379	keystroke_Key.space	Key.space	n/a
31.47	0.135	62940	keystroke_d	d	n/a
31.7035	0.1145	63407	keystroke_a	a	n/a
31.7935	0.09	63587	keystroke_t	t	n/a
31.8845	0.069	63769	keystroke_e	e	n/a
32.0375	0.091	64075	keystroke_s	s	n/a
32.1035	0.113	64207	keystroke_Key.space	Key.space	n/a
32.2385	0.091	64477	keystroke_c	c	n/a
32.3305	0.0665	64661	keystroke_l	l	n/a
32.443	0.0915	64886	keystroke_a	a	n/a
32.5345	0.113	65069	keystroke_i	i	n/a
32.714	0.0905	65428	keystroke_m	m	n/a
32.781	0.0695	65562	keystroke_e	e	n/a
33.092	0.067	66184	keystroke_d	d	n/a
33.1595	0.045	66319	keystroke_Key.enter	Key.enter	n/a
33.2105	6.0055	66421	prompt	n/a	finger asus thanksgiving global\n
33.892	0.089	67784	keystroke_f	f	n/a
33.957	0.068	67914	keystroke_i	i	n/a
34.112	0.0695	68224	keystroke_n	n	n/a
34.1565	0.0695	68313	keystroke_g	g	n/a
34.248	0.1125	68496	keystroke_e	e	n/a
34.4055	0.092	68811	keystroke_r	r	n/a
35.1375	0.0875	70275	keystroke_Key.space	Key.space	n/a
35.3145	0.1125	70629	keystroke_a	a	n/a
35.428	0.113	70856	keystroke_n	n	n/a
35.542	0.136	71084	keystroke_u	u	n/a
35.655	0.113	71310	keystroke_s	s	n/a
35.838	0.1115	71676	keystroke_Key.space	Key.space	n/a
36.127	0.0895	72254	keystroke_t	t	n/a
36.15	0.0875	72300	keystroke_h	h	n/a
36.2725	0.09	72545	keystroke_a	a	n/a
36.384	0.0255	72768	keystroke_n	n	n/a
36.4105	0.065	72821	keystroke_k	k	n/a
36.4535	0.111	72907	keystroke_s	s	n/a
36.7395	0.0895	73479	keystroke_f	f	n/a
36.8295	0.089	73659	keystroke_i	i	n/a
37.0145	0.091	74029	keystroke_Key.backspace	Key.backspace	n/a
37.1645	0.088	74329	keystroke_Key.backspace	Key.backspace	n/a
37.283	0.0905	74566	keystroke_g	g	n/a
37.405	0.09	74810	keystroke_i	i	n/a
37.517	0.09	75034	keystroke_v	v	n/a
37.629	0.0665	75258	keystroke_i	i	n/a
37.7735	0.071	75547	keystroke_n	n	n/a
37.8205	0.09	75641	keystroke_g	g	n/a
37.8655	0.1135	75731	keystroke_Key.space	Key.space	n/a
38.0355	0.0895	76071	keystroke_l	l	n/a
38.261	0.09	76522	keystroke_Key.backspace	Key.backspace	n/a
38.4455	0.0895	76891	keystroke_g	g	n/a
38.556	0.069	77112	keystroke_l	l	n/a
38.706	0.089	77412	keystroke_o	o	n/a
38.751	0.132	77502	keystroke_b	b	n/a
38.86	0.114	77720	keystroke_a	a	n/a
38.928	0.09	77856	keystroke_l	l	n/a
39.101	0.113	78202	keystroke_Key.enter	Key.enter	n/a
39.2215	4.3215	78443	prompt	n/a	luke excited manufactured idea\n
39.744	0.112	79488	keystroke_l	l	n/a
39.94	0.089	79880	keystroke_u	u	n/a
40.098	0.0915	80196	keystroke_k	k	n/a
40.142	0.117	80284	keystroke_e	e	n/a
40.212	0.159	80424	keystroke_Key.space	Key.space	n/a
40.348	0.089	80696	keystroke_e	e	n/a
40.551	0.112	81102	keystroke_x	x	n/a
40.761	0.091	81522	keystroke_c	c	n/a
40.872	0.066	81744	keystroke_i	i	n/a
41.091	0.111	82182	keystroke_t	t	n/a
41.1795	0.089	82359	keystroke_e	e	n/a
41.335	0.0905	82670	keystroke_d	d	n/a
41.38	0.0885	82760	keystroke_Key.space	Key.space	n/a
41.508	0.0895	83016	keystroke_m	m	n/a
41.62	0.067	83240	keystroke_a	a	n/a
41.708	0.0685	83416	keystroke_n	n	n/a
41.899	0.0905	83798	keystroke_u	u	n/a
42.041	0.135	84082	keystroke_f	f	n/a
42.212	0.1565	84424	keystroke_a	a	n/a
42.344	0.0685	84688	keystroke_c	c	n/a
42.53	0.068	85060	keystroke_t	t	n/a
42.5995	0.089	85199	keystroke_u	u	n/a
42.7105	0.1125	85421	keystroke_r	r	n/a
42.8	0.047	85600	keystroke_e	e	n/a
42.924	0.067	85848	keystroke_d	d	n/a
42.9685	0.1105	85937	keystroke_Key.space	Key.space	n/a
43.1805	0.0675	86361	keystroke_i	i	n/a
43.249	0.1115	86498	keystroke_d	d	n/a
43.3145	0.113	86629	keystroke_e	e	n/a
43.3815	0.116	86763	keystroke_a	a	n/a
43.4495	0.091	86899	keystroke_Key.enter	Key.enter	n/a
43.5485	5.7755	87097	prompt	n/a	trigger repeat growing vietnamese\n
44.1075	0.09	88215	keystroke_t	t	n/a
44.1525	0.135	88305	keystroke_r	r	n/a
44.2885	0.112	88577	keystroke_i	i	n/a
44.4005	0.0915	88801	keystroke_g	g	n/a
44.9645	0.1145	89929	keystroke_g	g	n/a
45.0545	0.134	90109	keystroke_e	e	n/a
45.1895	0.066	90379	keystroke_r	r	n/a
45.2565	0.11	90513	keystroke_Key.space	Key.space	n/a
45.4155	0.137	90831	keystroke_r	r	n/a
45.4835	0.092	90967	keystroke_e	e	n/a
45.5765	0.1065	91153	keystroke_p	p	n/a
45.704	0.09	91408	keystroke_r	r	n/a
45.923	0.111	91846	keystroke_Key.backspace	Key.backspace	n/a
46.01	0.114	92020	keystroke_e	e	n/a
46.101	0.156	92202	keystroke_a	a	n/a
46.234	0.1125	92468	keystroke_t	t	n/a
46.4135	0.137	92827	keystroke_Key.space	Key.space	n/a
46.5515	0.088	93103	keystroke_g	g	n/a
46.5935	0.0665	93187	keystroke_r	r	n/a
46.683	0.0695	93366	keystroke_o	o	n/a
46.783	0.1125	93566	keystroke_w	w	n/a
46.9175	0.045	93835	keystroke_i	i	n/a
47.047	0.0905	94094	keystroke_n	n	n/a
47.0915	0.113	94183	keystroke_g	g	n/a
47.2265	0.112	94453	keystroke_Key.space	Key.space	n/a
47.3395	0.1125	94679	keystroke_v	v	n/a
47.4045	0.093	94809	keystroke_i	i	n/a
47.5505	0.089	95101	keystroke_e	e	n/a
47.8935	0.067	95787	keystroke_t	t	n/a
48.451	0.091	96902	keystroke_n	n	n/a
48.543	0.088	97086	keystroke_a	a	n/a
48.632	0.09	97264	keystroke_m	m	n/a
48.698	0.09	97396	keystroke_e	e	n/a
48.951	0.111	97902	keystroke_s	s	n/a
49.1435	0.1105	98287	keystroke_e	e	n/a
49.21	0.112	98420	keystroke_Key.enter	Key.enter	n/a
49.333	4.948	98666	prompt	n/a	atlantic level dimensions assessing\n
49.877	0.066	99754	keystroke_a	a	n/a
50.015	0.089	100030	keystroke_t	t	n/a
50.166	0.069	100332	keystroke_l	l	n/a
50.2355	0.11	100471	keystroke_a	a	n/a
50.3885	0.093	100777	keystroke_n	n	n/a
50.4585	0.088	100917	keystroke_t	t	n/a
50.5805	0.088	101161	keystroke_i	i	n/a
50.6895	0.09	101379	keystroke_c	c	n/a
50.7565	0.113	101513	keystroke_Key.space	Key.space	n/a
50.891	0.1125	101782	keystroke_l	l	n/a
50.9565	0.07	101913	keystroke_e	e	n/a
51.0595	0.091	102119	keystroke_v	v	n/a
51.1275	0.091	102255	keystroke_e	e	n/a
51.1515	0.088	102303	keystroke_l	l	n/a
51.2615	0.0885	102523	keystroke_Key.space	Key.space	n/a
51.4125	0.092	102825	keystroke_d	d	n/a
51.633	0.0865	103266	keystroke_i	i	n/a
51.8035	0.09	103607	keystroke_m	m	n/a
51.872	0.0885	103744	keystroke_e	e	n/a
52.0365	0.068	104073	keystroke_n	n	n/a
52.126	0.0685	104252	keystroke_s	s	n/a
52.2505	0.093	104501	keystroke_i	i	n/a
52.2965	0.092	104593	keystroke_o	o	n/a
52.4535	0.0925	104907	keystroke_n	n	n/a
52.502	0.089	105004	keystroke_s	s	n/a
52.6225	0.112	105245	keystroke_Key.space	Key.space	n/a
52.7105	0.1335	105421	keystroke_a	a	n/a
52.821	0.068	105642	keystroke_s	s	n/a
52.969	0.069	105938	keystroke_s	s	n/a
53.129	0.069	106258	keystroke_e	e	n/a
53.288	0.0885	106576	keystroke_s	s	n/a
53.424	0.112	106848	keystroke_s	s	n/a
53.511	0.154	107022	keystroke_i	i	n/a
53.831	0.0895	107662	keystroke_n	n	n/a
53.8745	0.089	107749	keystroke_g	g	n/a
54.2335	0.046	108467	keystroke_Key.enter	Key.enter	n/a
54.285	6.4075	108570	prompt	n/a	builds moderator eligibility exposed\n
54.8235	0.109	109647	keystroke_b	b	n/a
54.9335	0.089	109867	keystroke_u	u	n/a
54.9765	0.068	109953	keystroke_i	i	n/a
55.163	0.09	110326	keystroke_l	l	n/a
55.2065	0.1145	110413	keystroke_d	d	n/a
55.254	0.111	110508	keystroke_s	s	n/a
55.321	0.113	110642	keystroke_Key.space	Key.space	n/a
55.529	0.113	111058	keystroke_m	m	n/a
55.596	0.113	111192	keystroke_o	o	n/a
55.663	0.09	111326	keystroke_d	d	n/a
55.7305	0.0665	111461	keystroke_e	e	n/a
55.891	0.068	111782	keystroke_r	r	n/a
56.3165	0.093	112633	keystroke_a	a	n/a
56.4105	0.089	112821	keystroke_t	t	n/a
56.6245	0.111	113249	keystroke_o	o	n/a
56.6895	0.09	113379	keystroke_r	r	n/a
56.7805	0.111	113561	keystroke_Key.space	Key.space	n/a
56.9325	0.0465	113865	keystroke_a	a	n/a
57.2535	0.091	114507	keystroke_Key.backspace	Key.backspace	n/a
57.322	0.0895	114644	keystroke_e	e	n/a
57.4405	0.087	114881	keystroke_l	l	n/a
58.308	0.069	116616	keystroke_g	g	n/a
58.4085	0.0895	116817	keystroke_i	i	n/a
58.5385	0.112	117077	keystroke_b	b	n/a
58.651	0.087	117302	keystroke_l	l	n/a
58.844	0.091	117688	keystroke_i	i	n/a
59.173	0.112	118346	keystroke_t	t	n/a
59.26	0.118	118520	keystroke_y	y	n/a
59.3535	0.1325	118707	keystroke_Key.space	Key.space	n/a
59.569	0.09	119138	keystroke_e	e	n/a
59.7365	0.136	119473	keystroke_x	x	n/a
59.782	0.0685	119564	keystroke_p	p	n/a
59.954	0.11	119908	keystroke_o	o	n/a
60.224	0.091	120448	keystroke_s	s	n/a
60.398	0.067	120796	keystroke_e	e	n/a
60.555	0.0915	121110	keystroke_d	d	n/a
60.623	0.067	121246	keystroke_Key.enter	Key.enter	n/a
60.6965	13.238	121393	prompt	n/a	ugly though includes consumption\n
66.768	0.09	133536	keystroke_u	u	n/a
66.8795	0.066	133759	keystroke_g	g	n/a
67.0565	0.068	134113	keystroke_l	l	n/a
67.1015	0.1115	134203	keystroke_y	y	n/a
67.2135	0.089	134427	keystroke_Key.space	Key.space	n/a
67.5865	0.113	135173	keystroke_t	t	n/a
67.6545	0.0895	135309	keystroke_h	h	n/a
70.048	0.134	140096	keystroke_o	o	n/a
70.158	0.0925	140316	keystroke_u	u	n/a
70.344	0.112	140688	keystroke_g	g	n/a
70.456	0.09	140912	keystroke_h	h	n/a
70.619	0.09	141238	keystroke_Key.space	Key.space	n/a
70.834	0.089	141668	keystroke_i	i	n/a
71.001	0.091	142002	keystroke_n	n	n/a
71.112	0.09	142224	keystroke_c	c	n/a
71.203	0.066	142406	keystroke_l	l	n/a
71.369	0.068	142738	keystroke_u	u	n/a
71.414	0.09	142828	keystroke_d	d	n/a
71.457	0.091	142914	keystroke_e	e	n/a
71.6305	0.068	143261	keystroke_s	s	n/a
71.6735	0.112	143347	keystroke_Key.space	Key.space	n/a
71.8145	0.0905	143629	keystroke_c	c	n/a
71.8815	0.068	143763	keystroke_o	o	n/a
72.0385	0.091	144077	keystroke_n	n	n/a
72.1055	0.113	144211	keystroke_s	s	n/a
72.3465	0.092	144693	keystroke_u	u	n/a
72.5285	0.091	145057	keystroke_m	m	n/a
72.802	0.0665	145604	keystroke_p	p	n/a
72.9085	0.1295	145817	keystroke_t	t	n/a
73.015	0.091	146030	keystroke_i	i	n/a
73.0825	0.068	146165	keystroke_o	o	n/a
73.2295	0.0675	146459	keystroke_n	n	n/a
73.3475	0.066	146695	keystroke_s	s	n/a
73.6745	0.067	147349	keystroke_Key.backspace	Key.backspace	n/a
73.821	0.1115	147642	keystroke_Key.enter	Key.enter	n/a
73.9375	4.937	147875	prompt	n/a	sierra was solaris baking\n
74.4715	0.089	148943	keystroke_s	s	n/a
74.538	0.0895	149076	keystroke_i	i	n/a
74.6475	0.069	149295	keystroke_e	e	n/a
74.746	0.045	149492	keystroke_r	r	n/a
74.868	0.0895	149736	keystroke_r	r	n/a
74.9785	0.115	149957	keystroke_a	a	n/a
75.0685	0.1335	150137	keystroke_Key.space	Key.space	n/a
75.512	0.1125	151024	keystroke_w	w	n/a
75.6005	0.113	151201	keystroke_a	a	n/a
75.6685	0.091	151337	keystroke_s	s	n/a
75.7345	0.09	151469	keystroke_Key.space	Key.space	n/a
75.8455	0.133	151691	keystroke_s	s	n/a
75.9555	0.089	151911	keystroke_o	o	n/a
76.0985	0.089	152197	keystroke_l	l	n/a
76.1885	0.088	152377	keystroke_a	a	n/a
76.2315	0.1145	152463	keystroke_r	r	n/a
76.3465	0.068	152693	keystroke_i	i	n/a
76.4765	0.048	152953	keystroke_s	s	n/a
76.5795	0.1135	153159	keystroke_Key.space	Key.space	n/a
77.211	0.07	154422	keystroke_b	b	n/a
77.282	0.066	154564	keystroke_a	a	n/a
77.38	0.0695	154760	keystroke_k	k	n/a
77.673	0.088	155346	keystroke_n	n	n/a
77.7375	0.0475	155475	keystroke_g	g	n/a
78.065	0.1105	156130	keystroke_Key.backspace	Key.backspace	n/a
78.2445	0.1135	156489	keystroke_Key.backspace	Key.backspace	n/a
78.4	0.112	156800	keystroke_i	i	n/a
78.5775	0.0895	157155	keystroke_n	n	n/a
78.6435	0.0875	157287	keystroke_g	g	n/a
78.7625	0.11	157525	keystroke_Key.enter	Key.enter	n/a
78.878	5.1745	157756	prompt	n/a	ceramic virginia plug bubble\n
79.4175	0.134	158835	keystroke_c	c	n/a
79.5525	0.0885	159105	keystroke_e	e	n/a
79.6765	0.1125	159353	keystroke_r	r	n/a
79.81	0.1365	159620	keystroke_a	a	n/a
79.9215	0.0695	159843	keystroke_m	m	n/a
79.968	0.113	159936	keystroke_i	i	n/a
80.035	0.0895	160070	keystroke_c	c	n/a
80.147	0.113	160294	keystroke_Key.space	Key.space	n/a
80.33	0.113	160660	keystroke_v	v	n/a
80.464	0.091	160928	keystroke_i	i	n/a
80.556	0.066	161112	keystroke_r	r	n/a
80.709	0.1095	161418	keystroke_g	g	n/a
80.7735	0.089	161547	keystroke_i	i	n/a
80.9575	0.09	161915	keystroke_n	n	n/a
81.189	0.1125	162378	keystroke_i	i	n/a
81.3025	0.067	162605	keystroke_a	a	n/a
81.43	0.1125	162860	keystroke_Key.space	Key.space	n/a
81.7635	0.088	163527	keystroke_p	p	n/a
81.9545	0.091	163909	keystroke_l	l	n/a
82.1555	0.068	164311	keystroke_u	u	n/a
82.2005	0.111	164401	keystroke_g	g	n/a
82.3435	0.1105	164687	keystroke_Key.space	Key.space	n/a
82.6235	0.113	165247	keystroke_p	p	n/a
82.8715	0.11	165743	keystroke_Key.backspace	Key.backspace	n/a
82.9825	0.065	165965	keystroke_b	b	n/a
83.0695	0.065	166139	keystroke_u	u	n/a
83.1585	0.066	166317	keystroke_b	b	n/a
83.3515	0.088	166703	keystroke_l	l	n/a
83.5675	0.11	167135	keystroke_Key.backspace	Key.backspace	n/a
83.6555	0.089	167311	keystroke_b	b	n/a
83.7665	0.09	167533	keystroke_l	l	n/a
83.833	0.0895	167666	keystroke_e	e	n/a
83.961	0.0895	167922	keystroke_Key.enter	Key.enter	n/a
84.0565	7.4365	168113	prompt	n/a	inventory logs custody deficit\n
85.0805	0.156	170161	keystroke_i	i	n/a
85.3135	0.0895	170627	keystroke_n	n	n/a
85.4045	0.1105	170809	keystroke_v	v	n/a
85.4925	0.0895	170985	keystroke_e	e	n/a
85.7365	0.0875	171473	keystroke_n	n	n/a
85.825	0.065	171650	keystroke_t	t	n/a
85.927	0.0895	171854	keystroke_o	o	n/a
86.039	0.1125	172078	keystroke_r	r	n/a
86.1295	0.091	172259	keystroke_y	y	n/a
86.196	0.113	172392	keystroke_Key.space	Key.space	n/a
86.385	0.088	172770	keystroke_l	l	n/a
86.546	0.091	173092	keystroke_o	o	n/a
86.638	0.0875	173276	keystroke_g	g	n/a
86.89	0.0925	173780	keystroke_s	s	n/a
87.0045	0.0895	174009	keystroke_Key.space	Key.space	n/a
87.362	0.093	174724	keystroke_u	u	n/a
87.477	0.133	174954	keystroke_s	s	n/a
87.698	0.0905	175396	keystroke_Key.backspace	Key.backspace	n/a
87.853	0.115	175706	keystroke_Key.backspace	Key.backspace	n/a
87.9225	0.1125	175845	keystroke_c	c	n/a
88.089	0.089	176178	keystroke_u	u	n/a
88.2	0.112	176400	keystroke_s	s	n/a
88.267	0.133	176534	keystroke_t	t	n/a
88.6875	0.1315	177375	keystroke_o	o	n/a
88.82	0.132	177640	keystroke_d	d	n/a
88.975	0.113	177950	keystroke_y	y	n/a
89.064	0.111	178128	keystroke_Key.space	Key.space	n/a
89.3555	0.0905	178711	keystroke_d	d	n/a
89.423	0.09	178846	keystroke_e	e	n/a
89.567	0.112	179134	keystroke_f	f	n/a
89.732	0.09	179464	keystroke_i	i	n/a
89.843	0.09	179686	keystroke_c	c	n/a
90.518	0.111	181036	keystroke_t	t	n/a
90.562	0.089	181124	keystroke_i	i	n/a
90.865	0.112	181730	keystroke_Key.backspace	Key.backspace	n/a
91.036	0.112	182072	keystroke_Key.backspace	Key.backspace	n/a
91.179	0.11	182358	keystroke_i	i	n/a
91.266	0.138	182532	keystroke_t	t	n/a
91.379	0.1115	182758	keystroke_Key.enter	Key.enter	n/a
91.497	11.7535	182994	prompt	n/a	nation exhibit specs organizational\n
92.1055	0.09	184211	keystroke_n	n	n/a
92.1965	0.109	184393	keystroke_a	a	n/a
92.3065	0.1565	184613	keystroke_t	t	n/a
92.3935	0.091	184787	keystroke_i	i	n/a
92.4385	0.068	184877	keystroke_o	o	n/a
92.5925	0.068	185185	keystroke_n	n	n/a
92.6615	0.111	185323	keystroke_Key.space	Key.space	n/a
92.7745	0.067	185549	keystroke_e	e	n/a
92.9805	0.157	185961	keystroke_x	x	n/a
93.1935	0.1105	186387	keystroke_h	h	n/a
93.4235	0.0895	186847	keystroke_i	i	n/a
93.546	0.0645	187092	keystroke_b	b	n/a
93.6565	0.0685	187313	keystroke_i	i	n/a
98.029	0.09	196058	keystroke_i	i	n/a
98.0955	0.1135	196191	keystroke_t	t	n/a
98.14	0.114	196280	keystroke_s	s	n/a
98.21	0.131	196420	keystroke_Key.space	Key.space	n/a
98.6955	0.0445	197391	keystroke_e	e	n/a
98.842	0.0885	197684	keystroke_s	s	n/a
98.9315	0.089	197863	keystroke_Key.backspace	Key.backspace	n/a
99.0995	0.112	198199	keystroke_Key.backspace	Key.backspace	n/a
99.2445	0.0925	198489	keystroke_s	s	n/a
99.3585	0.0905	198717	keystroke_p	p	n/a
99.4265	0.067	198853	keystroke_e	e	n/a
99.5405	0.18	199081	keystroke_c	c	n/a
99.8945	0.089	199789	keystroke_s	s	n/a
99.9605	0.134	199921	keystroke_Key.space	Key.space	n/a
100.2465	0.1115	200493	keystroke_o	o	n/a
100.3955	0.0895	200791	keystroke_r	r	n/a
100.585	0.111	201170	keystroke_g	g	n/a
100.848	0.068	201696	keystroke_a	a	n/a
100.973	0.1145	201946	keystroke_n	n	n/a
101.063	0.09	202126	keystroke_i	i	n/a
101.129	0.135	202258	keystroke_z	z	n/a
101.988	0.0695	203976	keystroke_a	a	n/a
102.058	0.131	204116	keystroke_t	t	n/a
102.19	0.068	204380	keystroke_i	i	n/a
102.211	0.0905	204422	keystroke_o	o	n/a
102.4735	0.0895	204947	keystroke_n	n	n/a
102.788	0.091	205576	keystroke_a	a	n/a
102.901	0.0675	205802	keystroke_l	l	n/a
103.1585	0.09	206317	keystroke_Key.enter	Key.enter	n/a
103.255	4.0625	206510	prompt	n/a	demand comments event california\n
103.876	0.1545	207752	keystroke_d	d	n/a
103.941	0.134	207882	keystroke_e	e	n/a
104.0315	0.066	208063	keystroke_m	m	n/a
104.137	0.1105	208274	keystroke_a	a	n/a
104.2235	0.0695	208447	keystroke_n	n	n/a
104.2935	0.089	208587	keystroke_d	d	n/a
104.3835	0.088	208767	keystroke_Key.space	Key.space	n/a
104.4725	0.09	208945	keystroke_c	c	n/a
104.5395	0.088	209079	keystroke_o	o	n/a
104.7105	0.068	209421	keystroke_m	m	n/a
104.8275	0.0905	209655	keystroke_m	m	n/a
104.895	0.0895	209790	keystroke_e	e	n/a
105.029	0.068	210058	keystroke_n	n	n/a
105.1195	0.114	210239	keystroke_t	t	n/a
105.187	0.1135	210374	keystroke_s	s	n/a
105.3015	0.088	210603	keystroke_Key.space	Key.space	n/a
105.4125	0.11	210825	keystroke_e	e	n/a
105.607	0.114	211214	keystroke_v	v	n/a
105.6755	0.0895	211351	keystroke_e	e	n/a
105.788	0.0665	211576	keystroke_n	n	n/a
105.8765	0.0905	211753	keystroke_t	t	n/a
105.943	0.0885	211886	keystroke_Key.space	Key.space	n/a
106.08	0.1335	212160	keystroke_c	c	n/a
106.1675	0.113	212335	keystroke_a	a	n/a
106.2345	0.093	212469	keystroke_l	l	n/a
106.4165	0.0675	212833	keystroke_i	i	n/a
106.4605	0.069	212921	keystroke_f	f	n/a
106.6675	0.135	213335	keystroke_r	r	n/a
106.6895	0.115	213379	keystroke_o	o	n/a
106.8995	0.07	213799	keystroke_n	n	n/a
106.9455	0.113	213891	keystroke_i	i	n/a
107.0125	0.068	214025	keystroke_a	a	n/a
107.203	0.112	214406	keystroke_Key.enter	Key.enter	n/a
107.321	5.777	214642	prompt	n/a	surfaces measures visibility quote\n
107.7845	0.088	215569	keystroke_s	s	n/a
108.0695	0.073	216139	keystroke_u	u	n/a
108.1175	0.133	216235	keystroke_f	f	n/a
108.6505	0.112	217301	keystroke_Key.backspace	Key.backspace	n/a
108.739	0.09	217478	keystroke_r	r	n/a
108.908	0.089	217816	keystroke_f	f	n/a
108.9975	0.089	217995	keystroke_a	a	n/a
109.1095	0.091	218219	keystroke_c	c	n/a
109.1765	0.047	218353	keystroke_e	e	n/a
109.3365	0.086	218673	keystroke_s	s	n/a
109.4015	0.088	218803	keystroke_Key.space	Key.space	n/a
109.5595	0.0915	219119	keystroke_m	m	n/a
109.6285	0.0675	219257	keystroke_e	e	n/a
109.6975	0.087	219395	keystroke_a	a	n/a
109.7855	0.111	219571	keystroke_s	s	n/a
109.9515	0.0915	219903	keystroke_u	u	n/a
110.064	0.0925	220128	keystroke_r	r	n/a
110.112	0.0685	220224	keystroke_e	e	n/a
110.5915	0.136	221183	keystroke_s	s	n/a
110.7035	0.111	221407	keystroke_Key.space	Key.space	n/a
110.9555	0.114	221911	keystroke_v	v	n/a
111.0705	0.069	222141	keystroke_i	i	n/a
111.1405	0.065	222281	keystroke_s	s	n/a
111.27	0.068	222540	keystroke_i	i	n/a
111.3595	0.0895	222719	keystroke_b	b	n/a
111.7865	0.0885	223573	keystroke_i	i	n/a
111.931	0.0685	223862	keystroke_l	l	n/a
112.029	0.1155	224058	keystroke_t	t	n/a
112.1655	0.089	224331	keystroke_y	y	n/a
112.231	0.111	224462	keystroke_Key.space	Key.space	n/a
112.424	0.0885	224848	keystroke_q	q	n/a
112.5345	0.135	225069	keystroke_u	u	n/a
112.6465	0.091	225293	keystroke_o	o	n/a
112.7145	0.135	225429	keystroke_t	t	n/a
112.8045	0.068	225609	keystroke_e	e	n/a
113.0055	0.091	226011	keystroke_Key.enter	Key.enter	n/a
113.101	6.2705	226202	prompt	n/a	paragraphs disorder anatomy serial\n
113.6555	0.114	227311	keystroke_p	p	n/a
113.7705	0.066	227541	keystroke_a	a	n/a
113.8375	0.133	227675	keystroke_r	r	n/a
113.9705	0.091	227941	keystroke_a	a	n/a
114.3255	0.135	228651	keystroke_g	g	n/a
114.4135	0.113	228827	keystroke_r	r	n/a
114.505	0.1105	229010	keystroke_a	a	n/a
114.6165	0.089	229233	keystroke_p	p	n/a
114.7065	0.066	229413	keystroke_h	h	n/a
114.9325	0.1125	229865	keystroke_s	s	n/a
115.0455	0.111	230091	keystroke_Key.space	Key.space	n/a
115.462	0.1165	230924	keystroke_d	d	n/a
115.552	0.072	231104	keystroke_i	i	n/a
115.624	0.0895	231248	keystroke_s	s	n/a
115.744	0.135	231488	keystroke_o	o	n/a
115.833	0.0685	231666	keystroke_r	r	n/a
116.009	0.093	232018	keystroke_d	d	n/a
116.0785	0.0885	232157	keystroke_e	e	n/a
116.241	0.0885	232482	keystroke_r	r	n/a
116.952	0.113	233904	keystroke_Key.space	Key.space	n/a
116.997	0.09	233994	keystroke_a	a	n/a
117.186	0.11	234372	keystroke_n	n	n/a
117.273	0.1345	234546	keystroke_a	a	n/a
117.497	0.1125	234994	keystroke_t	t	n/a
117.8455	0.135	235691	keystroke_o	o	n/a
118.003	0.067	236006	keystroke_m	m	n/a
118.142	0.0885	236284	keystroke_y	y	n/a
118.4555	0.113	236911	keystroke_Key.space	Key.space	n/a
118.5895	0.111	237179	keystroke_s	s	n/a
118.7505	0.114	237501	keystroke_e	e	n/a
118.8415	0.066	237683	keystroke_r	r	n/a
118.9085	0.113	237817	keystroke_i	i	n/a
119.0215	0.088	238043	keystroke_a	a	n/a
119.1105	0.0895	238221	keystroke_l	l	n/a
119.258	0.1105	238516	keystroke_Key.enter	Key.enter	n/a
119.3755	5.701	238751	prompt	n/a	exceptional recording less rows\n
119.8725	0.09	239745	keystroke_e	e	n/a
120.0655	0.111	240131	keystroke_x	x	n/a
120.2725	0.179	240545	keystroke_c	c	n/a
120.6365	0.133	241273	keystroke_Key.backspace	Key.backspace	n/a
120.7465	0.111	241493	keystroke_e	e	n/a
120.8935	0.134	241787	keystroke_c	c	n/a
121.0285	0.09	242057	keystroke_p	p	n/a
121.2235	0.133	242447	keystroke_t	t	n/a
121.5295	0.136	243059	keystroke_i	i	n/a
121.6205	0.089	243241	keystroke_o	o	n/a
121.7885	0.0905	243577	keystroke_n	n	n/a
121.913	0.1135	243826	keystroke_a	a	n/a
122.0485	0.0675	244097	keystroke_l	l	n/a
122.1385	0.1125	244277	keystroke_Key.space	Key.space	n/a
122.33	0.111	244660	keystroke_r	r	n/a
122.352	0.176	244704	keystroke_e	e	n/a
122.563	0.1115	245126	keystroke_c	c	n/a
122.675	0.088	245350	keystroke_o	o	n/a
122.764	0.088	245528	keystroke_r	r	n/a
122.921	0.092	245842	keystroke_d	d	n/a
122.922	0.115	245844	keystroke_i	i	n/a
123.111	0.089	246222	keystroke_n	n	n/a
123.177	0.113	246354	keystroke_g	g	n/a
123.222	0.1115	246444	keystroke_Key.space	Key.space	n/a
123.3555	0.067	246711	keystroke_e	e	n/a
123.4235	0.065	246847	keystroke_l	l	n/a
123.599	0.0665	247198	keystroke_Key.backspace	Key.backspace	n/a
123.7285	0.1125	247457	keystroke_Key.backspace	Key.backspace	n/a
123.8625	0.1325	247725	keystroke_l	l	n/a
123.973	0.089	247946	keystroke_e	e	n/a
124.144	0.0905	248288	keystroke_s	s	n/a
124.303	0.091	248606	keystroke_s	s	n/a
124.395	0.131	248790	keystroke_Key.space	Key.space	n/a
124.527	0.087	249054	keystroke_r	r	n/a
124.591	0.111	249182	keystroke_o	o	n/a
124.703	0.069	249406	keystroke_w	w	n/a
124.851	0.091	249702	keystroke_s	s	n/a
124.919	0.1555	249838	keystroke_Key.enter	Key.enter	n/a
125.081	5.5195	250162	prompt	n/a	procedure discount polar submission\n
125.547	0.114	251094	keystroke_p	p	n/a
125.614	0.112	251228	keystroke_r	r	n/a
125.77	0.113	251540	keystroke_o	o	n/a
125.989	0.114	251978	keystroke_c	c	n/a
126.125	0.067	252250	keystroke_e	e	n/a
126.297	0.068	252594	keystroke_d	d	n/a
126.387	0.0675	252774	keystroke_u	u	n/a
126.543	0.1145	253086	keystroke_r	r	n/a
126.635	0.112	253270	keystroke_e	e	n/a
126.748	0.111	253496	keystroke_Key.space	Key.space	n/a
127.264	0.133	254528	keystroke_d	d	n/a
127.353	0.09	254706	keystroke_i	i	n/a
127.444	0.112	254888	keystroke_s	s	n/a
127.532	0.113	255064	keystroke_c	c	n/a
127.622	0.067	255244	keystroke_o	o	n/a
127.785	0.0685	255570	keystroke_u	u	n/a
127.935	0.07	255870	keystroke_n	n	n/a
127.981	0.112	255962	keystroke_t	t	n/a
128.05	0.111	256100	keystroke_Key.space	Key.space	n/a
128.162	0.088	256324	keystroke_p	p	n/a
128.251	0.0875	256502	keystroke_o	o	n/a
128.38	0.088	256760	keystroke_l	l	n/a
128.444	0.089	256888	keystroke_a	a	n/a
128.489	0.09	256978	keystroke_r	r	n/a
128.601	0.0905	257202	keystroke_Key.space	Key.space	n/a
128.7135	0.1125	257427	keystroke_s	s	n/a
128.802	0.069	257604	keystroke_u	u	n/a
128.972	0.0455	257944	keystroke_b	b	n/a
129.1765	0.111	258353	keystroke_m	m	n/a
129.2185	0.024	258437	keystroke_i	i	n/a
129.2885	0.0645	258577	keystroke_i	i	n/a
129.459	0.09	258918	keystroke_s	s	n/a
129.678	0.09	259356	keystroke_Key.backspace	Key.backspace	n/a
129.821	0.091	259642	keystroke_Key.backspace	Key.backspace	n/a
129.889	0.091	259778	keystroke_s	s	n/a
130.051	0.0895	260102	keystroke_s	s	n/a
130.141	0.091	260282	keystroke_i	i	n/a
130.209	0.044	260418	keystroke_o	o	n/a
130.3415	0.07	260683	keystroke_n	n	n/a
130.511	0.088	261022	keystroke_Key.enter	Key.enter	n/a
130.6035	5.0755	261207	prompt	n/a	calendar pride kilometers filed\n
131.0915	0.1335	262183	keystroke_c	c	n/a
131.179	0.1135	262358	keystroke_a	a	n/a
131.226	0.087	262452	keystroke_l	l	n/a
131.388	0.115	262776	keystroke_e	e	n/a
131.5255	0.0665	263051	keystroke_n	n	n/a
131.6145	0.135	263229	keystroke_d	d	n/a
131.7505	0.0875	263501	keystroke_a	a	n/a
131.8745	0.09	263749	keystroke_r	r	n/a
131.9655	0.11	263931	keystroke_Key.space	Key.space	n/a
132.2325	0.0895	264465	keystroke_p	p	n/a
132.3235	0.088	264647	keystroke_r	r	n/a
132.433	0.068	264866	keystroke_i	i	n/a
132.5215	0.136	265043	keystroke_d	d	n/a
132.5875	0.1165	265175	keystroke_e	e	n/a
132.6325	0.094	265265	keystroke_Key.space	Key.space	n/a
132.7775	0.091	265555	keystroke_k	k	n/a
132.9445	0.068	265889	keystroke_i	i	n/a
133.0965	0.088	266193	keystroke_l	l	n/a
133.3695	0.087	266739	keystroke_o	o	n/a
133.6105	0.0905	267221	keystroke_m	m	n/a
133.7585	0.11	267517	keystroke_e	e	n/a
133.9855	0.0895	267971	keystroke_e	e	n/a
134.242	0.113	268484	keystroke_Key.backspace	Key.backspace	n/a
134.287	0.1125	268574	keystroke_t	t	n/a
134.377	0.11	268754	keystroke_e	e	n/a
134.488	0.1535	268976	keystroke_r	r	n/a
134.617	0.113	269234	keystroke_s	s	n/a
134.78	0.113	269560	keystroke_Key.space	Key.space	n/a
135.018	0.114	270036	keystroke_f	f	n/a
135.085	0.092	270170	keystroke_i	i	n/a
135.256	0.068	270512	keystroke_l	l	n/a
135.385	0.045	270770	keystroke_l	l	n/a
135.431	0.089	270862	keystroke_e	e	n/a
135.542	0.1125	271084	keystroke_d	d	n/a
135.588	0.0895	271176	keystroke_Key.enter	Key.enter	n/a
135.683	4.076	271366	prompt	n/a	grades smaller kerry how'll\n
136.2885	0.1125	272577	keystroke_g	g	n/a
136.356	0.112	272712	keystroke_r	r	n/a
136.445	0.155	272890	keystroke_a	a	n/a
136.576	0.113	273152	keystroke_d	d	n/a
136.644	0.067	273288	keystroke_e	e	n/a
136.7845	0.0915	273569	keystroke_s	s	n/a
136.877	0.088	273754	keystroke_Key.space	Key.space	n/a
136.986	0.133	273972	keystroke_s	s	n/a
137.096	0.067	274192	keystroke_m	m	n/a
137.2445	0.0885	274489	keystroke_a	a	n/a
137.334	0.069	274668	keystroke_l	l	n/a
137.4615	0.0905	274923	keystroke_l	l	n/a
137.529	0.09	275058	keystroke_e	e	n/a
137.573	0.1135	275146	keystroke_r	r	n/a
137.64	0.0685	275280	keystroke_Key.space	Key.space	n/a
137.7385	0.087	275477	keystroke_k	k	n/a
137.8475	0.067	275695	keystroke_e	e	n/a
137.8695	0.09	275739	keystroke_r	r	n/a
138.0315	0.112	276063	keystroke_r	r	n/a
138.097	0.0915	276194	keystroke_y	y	n/a
138.1445	0.1335	276289	keystroke_Key.space	Key.space	n/a
138.344	0.111	276688	keystroke_h	h	n/a
138.4085	0.0885	276817	keystroke_o	o	n/a
138.455	0.0865	276910	keystroke_w	w	n/a
139.106	0.068	278212	keystroke_'	'	n/a
139.34	0.0695	278680	keystroke_l	l	n/a
139.488	0.0675	278976	keystroke_l	l	n/a
139.6675	0.0895	279335	keystroke_Key.enter	Key.enter	n/a
139.762	8.407	279524	prompt	n/a	optics venezuela blogger disciplinary\n
140.525	0.137	281050	keystroke_o	o	n/a
140.6125	0.071	281225	keystroke_p	p	n/a
140.7165	0.109	281433	keystroke_t	t	n/a
140.8265	0.0645	281653	keystroke_i	i	n/a
140.949	0.0895	281898	keystroke_c	c	n/a
141.0905	0.0895	282181	keystroke_Key.space	Key.space	n/a
141.447	0.1115	282894	keystroke_v	v	n/a
141.535	0.113	283070	keystroke_e	e	n/a
141.6785	0.1135	283357	keystroke_n	n	n/a
141.7675	0.092	283535	keystroke_e	e	n/a
141.9805	0.134	283961	keystroke_z	z	n/a
142.1355	0.0685	284271	keystroke_u	u	n/a
142.3455	0.089	284691	keystroke_l	l	n/a
142.6095	0.0455	285219	keystroke_e	e	n/a
142.9395	0.152	285879	keystroke_Key.backspace	Key.backspace	n/a
143.4015	0.132	286803	keystroke_Key.backspace	Key.backspace	n/a
143.875	0.1345	287750	keystroke_e	e	n/a
144.4485	0.114	288897	keystroke_l	l	n/a
144.5165	0.091	289033	keystroke_a	a	n/a
144.6495	0.134	289299	keystroke_Key.space	Key.space	n/a
144.9015	0.111	289803	keystroke_b	b	n/a
144.9915	0.088	289983	keystroke_l	l	n/a
145.1745	0.0885	290349	keystroke_o	o	n/a
145.197	0.112	290394	keystroke_g	g	n/a
145.385	0.116	290770	keystroke_g	g	n/a
145.477	0.113	290954	keystroke_e	e	n/a
145.592	0.087	291184	keystroke_r	r	n/a
145.656	0.088	291312	keystroke_Key.space	Key.space	n/a
145.802	0.091	291604	keystroke_d	d	n/a
145.894	0.066	291788	keystroke_i	i	n/a
146.1095	0.114	292219	keystroke_s	s	n/a
146.816	0.1105	293632	keystroke_c	c	n/a
146.904	0.088	293808	keystroke_i	i	n/a
147.084	0.09	294168	keystroke_p	p	n/a
147.2685	0.113	294537	keystroke_l	l	n/a
147.4745	0.091	294949	keystroke_i	i	n/a
147.6385	0.069	295277	keystroke_n	n	n/a
147.708	0.067	295416	keystroke_a	a	n/a
147.776	0.088	295552	keystroke_r	r	n/a
147.818	0.112	295636	keystroke_y	y	n/a
148.076	0.0915	296152	keystroke_Key.enter	Key.enter	n/a
148.1735	5.211	296347	prompt	n/a	trades query spyware estonia\n
148.7025	0.136	297405	keystroke_t	t	n/a
148.7925	0.092	297585	keystroke_r	r	n/a
148.9585	0.089	297917	keystroke_a	a	n/a
149.0485	0.066	298097	keystroke_d	d	n/a
149.0905	0.0685	298181	keystroke_e	e	n/a
149.2675	0.113	298535	keystroke_s	s	n/a
149.3815	0.088	298763	keystroke_Key.space	Key.space	n/a
149.4015	0.0455	298803	keystroke_q	q	n/a
149.7745	0.114	299549	keystroke_u	u	n/a
149.9105	0.07	299821	keystroke_a	a	n/a
150.2585	0.136	300517	keystroke_Key.backspace	Key.backspace	n/a
150.3495	0.091	300699	keystroke_e	e	n/a
150.3955	0.1555	300791	keystroke_r	r	n/a
150.5055	0.112	301011	keystroke_y	y	n/a
150.5725	0.132	301145	keystroke_Key.space	Key.space	n/a
150.9975	0.114	301995	keystroke_s	s	n/a
151.0865	0.069	302173	keystroke_p	p	n/a
151.2805	0.0915	302561	keystroke_y	y	n/a
151.3925	0.113	302785	keystroke_w	w	n/a
151.5065	0.112	303013	keystroke_a	a	n/a
151.6915	0.113	303383	keystroke_r	r	n/a
151.737	0.139	303474	keystroke_e	e	n/a
151.9175	0.137	303835	keystroke_Key.space	Key.space	n/a
152.3135	0.1115	304627	keystroke_e	e	n/a
152.501	0.113	305002	keystroke_s	s	n/a
152.71	0.089	305420	keystroke_t	t	n/a
152.777	0.091	305554	keystroke_o	o	n/a
152.965	0.092	305930	keystroke_n	n	n/a
153.011	0.091	306022	keystroke_i	i	n/a
153.103	0.088	306206	keystroke_a	a	n/a
153.249	0.134	306498	keystroke_Key.enter	Key.enter	n/a
153.3885	5.3135	306777	prompt	n/a	considers flags action diamonds\n
153.949	0.0905	307898	keystroke_c	c	n/a
154.015	0.09	308030	keystroke_o	o	n/a
154.218	0.067	308436	keystroke_n	n	n/a
154.305	0.092	308610	keystroke_s	s	n/a
154.439	0.091	308878	keystroke_i	i	n/a
154.531	0.112	309062	keystroke_d	d	n/a
154.619	0.114	309238	keystroke_e	e	n/a
154.9125	0.113	309825	keystroke_s	s	n/a
155.1445	0.113	310289	keystroke_Key.backspace	Key.backspace	n/a
155.2345	0.111	310469	keystroke_r	r	n/a
155.3015	0.089	310603	keystroke_s	s	n/a
155.4475	0.135	310895	keystroke_Key.space	Key.space	n/a
155.6035	0.114	311207	keystroke_f	f	n/a
155.7185	0.112	311437	keystroke_l	l	n/a
155.7865	0.115	311573	keystroke_a	a	n/a
155.9015	0.135	311803	keystroke_g	g	n/a
155.991	0.0895	311982	keystroke_s	s	n/a
156.4245	0.114	312849	keystroke_Key.space	Key.space	n/a
156.5395	0.111	313079	keystroke_a	a	n/a
156.6845	0.111	313369	keystroke_c	c	n/a
156.903	0.0905	313806	keystroke_t	t	n/a
156.926	0.1125	313852	keystroke_i	i	n/a
156.9945	0.066	313989	keystroke_o	o	n/a
157.1475	0.066	314295	keystroke_n	n	n/a
157.455	0.1325	314910	keystroke_Key.space	Key.space	n/a
158.0045	0.1345	316009	keystroke_d	d	n/a
158.115	0.091	316230	keystroke_i	i	n/a
158.207	0.111	316414	keystroke_a	a	n/a
158.2955	0.068	316591	keystroke_m	m	n/a
158.34	0.112	316680	keystroke_o	o	n/a
158.473	0.0695	316946	keystroke_n	n	n/a
158.543	0.1115	317086	keystroke_d	d	n/a
158.6765	0.0245	317353	keystroke_Key.enter	Key.enter	n/a
158.7065	5.0095	317413	prompt	n/a	rachel spec specially falling\n
160.534	0.134	321068	keystroke_r	r	n/a
160.646	0.109	321292	keystroke_a	a	n/a
160.776	0.114	321552	keystroke_c	c	n/a
160.891	0.089	321782	keystroke_h	h	n/a
160.98	0.065	321960	keystroke_e	e	n/a
161.084	0.089	322168	keystroke_l	l	n/a
161.15	0.1125	322300	keystroke_Key.space	Key.space	n/a
161.238	0.092	322476	keystroke_s	s	n/a
161.306	0.091	322612	keystroke_p	p	n/a
161.398	0.113	322796	keystroke_e	e	n/a
161.5325	0.113	323065	keystroke_c	c	n/a
161.6	0.135	323200	keystroke_Key.space	Key.space	n/a
161.91	0.091	323820	keystroke_s	s	n/a
161.955	0.113	323910	keystroke_p	p	n/a
162.0905	0.0695	324181	keystroke_e	e	n/a
162.182	0.1125	324364	keystroke_c	c	n/a
162.295	0.067	324590	keystroke_i	i	n/a
162.383	0.091	324766	keystroke_a	a	n/a
162.475	0.066	324950	keystroke_l	l	n/a
162.593	0.0665	325186	keystroke_l	l	n/a
162.7735	0.071	325547	keystroke_y	y	n/a
162.845	0.088	325690	keystroke_Key.space	Key.space	n/a
162.886	0.1145	325772	keystroke_f	f	n/a
162.955	0.092	325910	keystroke_a	a	n/a
163.023	0.0885	326046	keystroke_l	l	n/a
163.168	0.068	326336	keystroke_l	l	n/a
163.3255	0.0675	326651	keystroke_i	i	n/a
163.466	0.068	326932	keystroke_n	n	n/a
163.535	0.068	327070	keystroke_g	g	n/a
163.603	0.111	327206	keystroke_Key.enter	Key.enter	n/a
163.7195	5.198	327439	prompt	n/a	valued grades measures generates\n
164.249	0.112	328498	keystroke_v	v	n/a
164.337	0.135	328674	keystroke_a	a	n/a
164.4275	0.0905	328855	keystroke_l	l	n/a
164.627	0.0695	329254	keystroke_u	u	n/a
164.673	0.09	329346	keystroke_e	e	n/a
164.876	0.091	329752	keystroke_d	d	n/a
164.968	0.109	329936	keystroke_Key.space	Key.space	n/a
165.186	0.133	330372	keystroke_g	g	n/a
165.424	0.068	330848	keystroke_a	a	n/a
165.657	0.111	331314	keystroke_Key.backspace	Key.backspace	n/a
165.745	0.088	331490	keystroke_r	r	n/a
165.923	0.136	331846	keystroke_a	a	n/a
166.06	0.112	332120	keystroke_d	d	n/a
166.147	0.0705	332294	keystroke_e	e	n/a
166.3065	0.1135	332613	keystroke_s	s	n/a
166.4205	0.11	332841	keystroke_Key.space	Key.space	n/a
166.6145	0.112	333229	keystroke_m	m	n/a
166.6815	0.115	333363	keystroke_e	e	n/a
166.7725	0.135	333545	keystroke_a	a	n/a
166.9085	0.043	333817	keystroke_s	s	n/a
166.9995	0.066	333999	keystroke_u	u	n/a
167.0885	0.09	334177	keystroke_r	r	n/a
167.1095	0.071	334219	keystroke_e	e	n/a
167.3135	0.113	334627	keystroke_s	s	n/a
167.4275	0.11	334855	keystroke_Key.space	Key.space	n/a
167.6025	0.089	335205	keystroke_g	g	n/a
167.6685	0.069	335337	keystroke_e	e	n/a
167.8155	0.091	335631	keystroke_n	n	n/a
167.8825	0.114	335765	keystroke_e	e	n/a
167.9725	0.135	335945	keystroke_r	r	n/a
168.0845	0.1115	336169	keystroke_a	a	n/a
168.197	0.112	336394	keystroke_t	t	n/a
168.286	0.025	336572	keystroke_e	e	n/a
168.668	0.112	337336	keystroke_s	s	n/a
168.826	0.09	337652	keystroke_Key.enter	Key.enter	n/a
168.921	6.346	337842	prompt	n/a	eagles telling century austin\n
169.3705	0.134	338741	keystroke_e	e	n/a
169.481	0.1365	338962	keystroke_a	a	n/a
169.67	0.047	339340	keystroke_g	g	n/a
169.6925	0.046	339385	keystroke_e	e	n/a
170.1335	0.0895	340267	keystroke_Key.backspace	Key.backspace	n/a
170.275	0.068	340550	keystroke_g	g	n/a
170.364	0.092	340728	keystroke_l	l	n/a
170.457	0.065	340914	keystroke_e	e	n/a
170.631	0.0655	341262	keystroke_Key.backspace	Key.backspace	n/a
170.774	0.11	341548	keystroke_Key.backspace	Key.backspace	n/a
170.914	0.09	341828	keystroke_l	l	n/a
170.959	0.089	341918	keystroke_e	e	n/a
171.1335	0.113	342267	keystroke_s	s	n/a
171.2215	0.116	342443	keystroke_Key.space	Key.space	n/a
171.359	0.1135	342718	keystroke_t	t	n/a
171.4255	0.07	342851	keystroke_e	e	n/a
171.4965	0.043	342993	keystroke_l	l	n/a
171.6065	0.09	343213	keystroke_l	l	n/a
171.7685	0.089	343537	keystroke_i	i	n/a
171.916	0.088	343832	keystroke_n	n	n/a
171.959	0.0905	343918	keystroke_g	g	n/a
172.0505	0.085	344101	keystroke_Key.space	Key.space	n/a
172.2185	0.114	344437	keystroke_e	e	n/a
172.2875	0.048	344575	keystroke_n	n	n/a
172.4915	0.092	344983	keystroke_Key.backspace	Key.backspace	n/a
172.6295	0.089	345259	keystroke_Key.backspace	Key.backspace	n/a
172.7195	0.1335	345439	keystroke_c	c	n/a
172.787	0.111	345574	keystroke_e	e	n/a
172.899	0.065	345798	keystroke_n	n	n/a
173.0255	0.1125	346051	keystroke_t	t	n/a
173.139	0.068	346278	keystroke_u	u	n/a
173.4995	0.1555	346999	keystroke_r	r	n/a
173.6325	0.113	347265	keystroke_y	y	n/a
173.721	0.1355	347442	keystroke_Key.space	Key.space	n/a
173.9395	0.133	347879	keystroke_a	a	n/a
174.1265	0.112	348253	keystroke_u	u	n/a
174.2155	0.134	348431	keystroke_s	s	n/a
174.3495	0.09	348699	keystroke_i	i	n/a
174.392	0.1365	348784	keystroke_t	t	n/a
174.6325	0.089	349265	keystroke_Key.backspace	Key.backspace	n/a
174.7825	0.093	349565	keystroke_Key.backspace	Key.backspace	n/a
174.829	0.1345	349658	keystroke_t	t	n/a
174.8975	0.088	349795	keystroke_i	i	n/a
175.0625	0.0695	350125	keystroke_n	n	n/a
175.1325	0.133	350265	keystroke_Key.enter	Key.enter	n/a
175.2715	5.4785	350543	prompt	n/a	twenty hoping productivity jail\n
175.8795	0.09	351759	keystroke_t	t	n/a
175.9255	0.154	351851	keystroke_w	w	n/a
176.1015	0.132	352203	keystroke_e	e	n/a
176.1675	0.068	352335	keystroke_n	n	n/a
176.442	0.1325	352884	keystroke_t	t	n/a
176.5285	0.09	353057	keystroke_y	y	n/a
176.5955	0.137	353191	keystroke_Key.space	Key.space	n/a
176.9295	0.092	353859	keystroke_h	h	n/a
176.999	0.0675	353998	keystroke_o	o	n/a
177.1995	0.111	354399	keystroke_p	p	n/a
177.3315	0.088	354663	keystroke_i	i	n/a
177.5965	0.091	355193	keystroke_n	n	n/a
177.6415	0.092	355283	keystroke_g	g	n/a
177.774	0.11	355548	keystroke_Key.space	Key.space	n/a
177.967	0.114	355934	keystroke_p	p	n/a
178.0575	0.1115	356115	keystroke_r	r	n/a
178.17	0.088	356340	keystroke_o	o	n/a
178.279	0.089	356558	keystroke_d	d	n/a
178.403	0.089	356806	keystroke_u	u	n/a
178.514	0.067	357028	keystroke_c	c	n/a
178.716	0.1785	357432	keystroke_t	t	n/a
178.895	0.11	357790	keystroke_i	i	n/a
179.03	0.134	358060	keystroke_v	v	n/a
179.1865	0.09	358373	keystroke_i	i	n/a
179.5315	0.136	359063	keystroke_t	t	n/a
179.5985	0.091	359197	keystroke_y	y	n/a
179.6675	0.109	359335	keystroke_Key.space	Key.space	n/a
180.09	0.0885	360180	keystroke_j	j	n/a
180.179	0.1325	360358	keystroke_a	a	n/a
180.2875	0.068	360575	keystroke_i	i	n/a
180.5115	0.089	361023	keystroke_l	l	n/a
180.6765	0.071	361353	keystroke_Key.enter	Key.enter	n/a
180.7545	5.562	361509	prompt	n/a	timely difficulty amounts geography\n
181.2635	0.0915	362527	keystroke_t	t	n/a
181.287	0.112	362574	keystroke_i	i	n/a
181.47	0.089	362940	keystroke_m	m	n/a
181.536	0.0895	363072	keystroke_e	e	n/a
181.6725	0.047	363345	keystroke_l	l	n/a
181.795	0.11	363590	keystroke_y	y	n/a
181.9375	0.089	363875	keystroke_Key.space	Key.space	n/a
182.1155	0.11	364231	keystroke_d	d	n/a
182.2265	0.068	364453	keystroke_i	i	n/a
182.317	0.066	364634	keystroke_f	f	n/a
182.4595	0.069	364919	keystroke_f	f	n/a
182.5705	0.0455	365141	keystroke_u	u	n/a
182.8295	0.1115	365659	keystroke_Key.backspace	Key.backspace	n/a
182.9175	0.1135	365835	keystroke_i	i	n/a
183.032	0.1335	366064	keystroke_c	c	n/a
183.1655	0.0885	366331	keystroke_u	u	n/a
183.3415	0.0685	366683	keystroke_l	l	n/a
183.411	0.1335	366822	keystroke_t	t	n/a
183.575	0.09	367150	keystroke_y	y	n/a
183.641	0.114	367282	keystroke_Key.space	Key.space	n/a
183.786	0.112	367572	keystroke_a	a	n/a
183.9195	0.1135	367839	keystroke_m	m	n/a
183.987	0.112	367974	keystroke_o	o	n/a
184.1205	0.0915	368241	keystroke_u	u	n/a
184.2915	0.069	368583	keystroke_n	n	n/a
184.338	0.11	368676	keystroke_t	t	n/a
184.403	0.09	368806	keystroke_s	s	n/a
184.494	0.11	368988	keystroke_Key.space	Key.space	n/a
184.771	0.111	369542	keystroke_g	g	n/a
184.837	0.089	369674	keystroke_e	e	n/a
184.9495	0.0905	369899	keystroke_o	o	n/a
185.167	0.091	370334	keystroke_r	r	n/a
185.443	0.114	370886	keystroke_Key.backspace	Key.backspace	n/a
185.532	0.1145	371064	keystroke_g	g	n/a
185.5785	0.091	371157	keystroke_r	r	n/a
185.6235	0.138	371247	keystroke_a	a	n/a
185.738	0.0885	371476	keystroke_p	p	n/a
185.8895	0.09	371779	keystroke_h	h	n/a
186.0565	0.09	372113	keystroke_y	y	n/a
186.2035	0.111	372407	keystroke_Key.enter	Key.enter	n/a
186.3235	5.0855	372647	prompt	n/a	observe hist extras fine\n
186.9505	0.131	373901	keystroke_o	o	n/a
187.2015	0.091	374403	keystroke_b	b	n/a
187.2935	0.089	374587	keystroke_s	s	n/a
187.4565	0.114	374913	keystroke_e	e	n/a
187.5255	0.089	375051	keystroke_r	r	n/a
187.6965	0.11	375393	keystroke_v	v	n/a
187.7395	0.112	375479	keystroke_e	e	n/a
187.916	0.1345	375832	keystroke_r	r	n/a
188.1015	0.134	376203	keystroke_Key.space	Key.space	n/a
188.5365	0.09	377073	keystroke_Key.backspace	Key.backspace	n/a
188.6885	0.115	377377	keystroke_Key.backspace	Key.backspace	n/a
188.78	0.1095	377560	keystroke_Key.space	Key.space	n/a
188.8905	0.112	377781	keystroke_h	h	n/a
188.9555	0.09	377911	keystroke_i	i	n/a
189.0035	0.131	378007	keystroke_s	s	n/a
189.1565	0.157	378313	keystroke_t	t	n/a
189.27	0.11	378540	keystroke_Key.space	Key.space	n/a
189.4465	0.09	378893	keystroke_e	e	n/a
189.6215	0.114	379243	keystroke_x	x	n/a
189.8585	0.136	379717	keystroke_t	t	n/a
189.9705	0.112	379941	keystroke_r	r	n/a
190.0585	0.112	380117	keystroke_a	a	n/a
190.5335	0.113	381067	keystroke_s	s	n/a
190.7015	0.1325	381403	keystroke_Key.space	Key.space	n/a
190.899	0.111	381798	keystroke_f	f	n/a
190.964	0.091	381928	keystroke_i	i	n/a
191.1375	0.07	382275	keystroke_n	n	n/a
191.208	0.11	382416	keystroke_e	e	n/a
191.319	0.0885	382638	keystroke_Key.enter	Key.enter	n/a
191.4125	4.1575	382825	prompt	n/a	minds working writes downloads\n
192.1005	0.0915	384201	keystroke_m	m	n/a
192.168	0.069	384336	keystroke_i	i	n/a
192.281	0.089	384562	keystroke_n	n	n/a
192.371	0.134	384742	keystroke_d	d	n/a
192.437	0.071	384874	keystroke_s	s	n/a
192.509	0.11	385018	keystroke_Key.space	Key.space	n/a
192.621	0.088	385242	keystroke_w	w	n/a
192.71	0.0895	385420	keystroke_o	o	n/a
192.821	0.0905	385642	keystroke_r	r	n/a
192.867	0.069	385734	keystroke_k	k	n/a
192.991	0.088	385982	keystroke_i	i	n/a
193.156	0.066	386312	keystroke_n	n	n/a
193.178	0.066	386356	keystroke_g	g	n/a
193.265	0.113	386530	keystroke_Key.space	Key.space	n/a
193.354	0.0905	386708	keystroke_w	w	n/a
193.614	0.113	387228	keystroke_r	r	n/a
193.704	0.092	387408	keystroke_i	i	n/a
193.817	0.088	387634	keystroke_t	t	n/a
193.906	0.065	387812	keystroke_e	e	n/a
194.059	0.092	388118	keystroke_s	s	n/a
194.105	0.09	388210	keystroke_Key.space	Key.space	n/a
194.2495	0.091	388499	keystroke_d	d	n/a
194.341	0.086	388682	keystroke_o	o	n/a
194.501	0.112	389002	keystroke_w	w	n/a
194.524	0.067	389048	keystroke_n	n	n/a
194.773	0.07	389546	keystroke_l	l	n/a
194.968	0.09	389936	keystroke_o	o	n/a
195.035	0.155	390070	keystroke_a	a	n/a
195.145	0.155	390290	keystroke_d	d	n/a
195.368	0.091	390736	keystroke_s	s	n/a
195.48	0.088	390960	keystroke_Key.enter	Key.enter	n/a
195.5745	9.0065	391149	prompt	n/a	invasion professional biotechnology expressions\n
196.1425	0.067	392285	keystroke_i	i	n/a
196.3475	0.092	392695	keystroke_n	n	n/a
196.4625	0.0895	392925	keystroke_v	v	n/a
196.5285	0.0895	393057	keystroke_a	a	n/a
196.6525	0.114	393305	keystroke_s	s	n/a
196.767	0.0905	393534	keystroke_i	i	n/a
196.8115	0.069	393623	keystroke_o	o	n/a
196.9615	0.091	393923	keystroke_n	n	n/a
197.0535	0.0885	394107	keystroke_Key.space	Key.space	n/a
197.2355	0.091	394471	keystroke_p	p	n/a
197.3025	0.09	394605	keystroke_r	r	n/a
197.4295	0.09	394859	keystroke_o	o	n/a
197.549	0.1105	395098	keystroke_e	e	n/a
197.8105	0.133	395621	keystroke_Key.backspace	Key.backspace	n/a
197.92	0.1145	395840	keystroke_f	f	n/a
198.0105	0.088	396021	keystroke_e	e	n/a
198.2135	0.0695	396427	keystroke_s	s	n/a
198.3665	0.091	396733	keystroke_s	s	n/a
198.4345	0.091	396869	keystroke_i	i	n/a
198.8065	0.09	397613	keystroke_o	o	n/a
199.4935	0.09	398987	keystroke_n	n	n/a
199.5605	0.136	399121	keystroke_a	a	n/a
199.6975	0.09	399395	keystroke_l	l	n/a
199.85	0.136	399700	keystroke_Key.space	Key.space	n/a
200.261	0.1105	400522	keystroke_b	b	n/a
200.392	0.071	400784	keystroke_o	o	n/a
200.393	0.071	400786	keystroke_i	i	n/a
200.945	0.091	401890	keystroke_Key.backspace	Key.backspace	n/a
201.1035	0.068	402207	keystroke_Key.backspace	Key.backspace	n/a
201.222	0.1145	402444	keystroke_i	i	n/a
201.291	0.089	402582	keystroke_o	o	n/a
201.549	0.115	403098	keystroke_t	t	n/a
201.844	0.1135	403688	keystroke_e	e	n/a
202.002	0.133	404004	keystroke_c	c	n/a
202.068	0.1115	404136	keystroke_h	h	n/a
202.2525	0.0885	404505	keystroke_n	n	n/a
202.296	0.1135	404592	keystroke_o	o	n/a
202.5165	0.1145	405033	keystroke_l	l	n/a
202.692	0.09	405384	keystroke_o	o	n/a
202.804	0.114	405608	keystroke_g	g	n/a
202.8945	0.092	405789	keystroke_y	y	n/a
202.962	0.1345	405924	keystroke_Key.space	Key.space	n/a
203.154	0.089	406308	keystroke_e	e	n/a
203.3735	0.1115	406747	keystroke_x	x	n/a
203.486	0.1545	406972	keystroke_p	p	n/a
203.616	0.0915	407232	keystroke_r	r	n/a
203.641	0.089	407282	keystroke_e	e	n/a
203.83	0.045	407660	keystroke_s	s	n/a
203.976	0.115	407952	keystroke_s	s	n/a
204.067	0.1125	408134	keystroke_i	i	n/a
204.134	0.111	408268	keystroke_o	o	n/a
204.289	0.0685	408578	keystroke_n	n	n/a
204.334	0.089	408668	keystroke_s	s	n/a
204.446	0.1335	408892	keystroke_Key.enter	Key.enter	n/a
204.585	4.732	409170	prompt	n/a	appearing where're cell replies\n
205.09	0.088	410180	keystroke_a	a	n/a
205.2375	0.089	410475	keystroke_p	p	n/a
205.3825	0.1135	410765	keystroke_p	p	n/a
205.4725	0.135	410945	keystroke_e	e	n/a
205.5395	0.136	411079	keystroke_a	a	n/a
205.6075	0.112	411215	keystroke_r	r	n/a
205.7205	0.088	411441	keystroke_i	i	n/a
205.8895	0.068	411779	keystroke_n	n	n/a
205.934	0.09	411868	keystroke_g	g	n/a
205.9995	0.092	411999	keystroke_Key.space	Key.space	n/a
206.0925	0.089	412185	keystroke_w	w	n/a
206.1585	0.068	412317	keystroke_h	h	n/a
206.2885	0.092	412577	keystroke_e	e	n/a
206.3575	0.157	412715	keystroke_r	r	n/a
206.4685	0.067	412937	keystroke_e	e	n/a
207.195	0.089	414390	keystroke_'	'	n/a
207.2605	0.132	414521	keystroke_r	r	n/a
207.3045	0.1105	414609	keystroke_e	e	n/a
207.436	0.0685	414872	keystroke_Key.space	Key.space	n/a
207.854	0.134	415708	keystroke_c	c	n/a
207.944	0.088	415888	keystroke_e	e	n/a
208.0085	0.069	416017	keystroke_l	l	n/a
208.1455	0.067	416291	keystroke_l	l	n/a
208.234	0.1125	416468	keystroke_Key.space	Key.space	n/a
208.4885	0.114	416977	keystroke_r	r	n/a
208.5555	0.0935	417111	keystroke_e	e	n/a
208.6035	0.092	417207	keystroke_p	p	n/a
208.7835	0.0915	417567	keystroke_l	l	n/a
208.9545	0.0895	417909	keystroke_i	i	n/a
208.9975	0.067	417995	keystroke_e	e	n/a
209.134	0.112	418268	keystroke_s	s	n/a
209.2215	0.0935	418443	keystroke_Key.enter	Key.enter	n/a
209.321	6.8515	418642	prompt	n/a	misc factory interaction injuries\n
209.87	0.135	419740	keystroke_m	m	n/a
209.981	0.114	419962	keystroke_i	i	n/a
210.006	0.134	420012	keystroke_s	s	n/a
210.1615	0.11	420323	keystroke_c	c	n/a
210.249	0.1125	420498	keystroke_Key.space	Key.space	n/a
210.4455	0.113	420891	keystroke_f	f	n/a
210.5335	0.094	421067	keystroke_a	a	n/a
210.649	0.0685	421298	keystroke_c	c	n/a
210.8085	0.113	421617	keystroke_o	o	n/a
210.9225	0.087	421845	keystroke_t	t	n/a
211.2085	0.112	422417	keystroke_y	y	n/a
211.2535	0.112	422507	keystroke_r	r	n/a
211.5675	0.09	423135	keystroke_Key.backspace	Key.backspace	n/a
211.7165	0.067	423433	keystroke_Key.backspace	Key.backspace	n/a
211.8655	0.112	423731	keystroke_Key.backspace	Key.backspace	n/a
212.0725	0.11	424145	keystroke_t	t	n/a
212.2055	0.09	424411	keystroke_Key.backspace	Key.backspace	n/a
212.3515	0.114	424703	keystroke_Key.backspace	Key.backspace	n/a
212.4425	0.091	424885	keystroke_t	t	n/a
212.5085	0.094	425017	keystroke_o	o	n/a
212.6485	0.09	425297	keystroke_r	r	n/a
212.7395	0.066	425479	keystroke_y	y	n/a
212.7825	0.136	425565	keystroke_Key.space	Key.space	n/a
213.128	0.091	426256	keystroke_i	i	n/a
213.3035	0.114	426607	keystroke_n	n	n/a
213.3935	0.091	426787	keystroke_t	t	n/a
213.4395	0.115	426879	keystroke_e	e	n/a
213.5295	0.137	427059	keystroke_r	r	n/a
213.6675	0.156	427335	keystroke_a	a	n/a
213.7995	0.091	427599	keystroke_c	c	n/a
214.0475	0.135	428095	keystroke_t	t	n/a
214.1365	0.09	428273	keystroke_i	i	n/a
214.2035	0.0675	428407	keystroke_o	o	n/a
214.3605	0.07	428721	keystroke_n	n	n/a
214.4315	0.112	428863	keystroke_Key.space	Key.space	n/a
214.5655	0.09	429131	keystroke_i	i	n/a
214.7375	0.0875	429475	keystroke_n	n	n/a
214.957	0.1115	429914	keystroke_j	j	n/a
215.0225	0.091	430045	keystroke_u	u	n/a
215.188	0.1115	430376	keystroke_r	r	n/a
215.2545	0.112	430509	keystroke_e	e	n/a
215.6645	0.135	431329	keystroke_Key.backspace	Key.backspace	n/a
215.7755	0.114	431551	keystroke_i	i	n/a
215.8215	0.0905	431643	keystroke_e	e	n/a
215.9925	0.135	431985	keystroke_s	s	n/a
216.0585	0.112	432117	keystroke_Key.enter	Key.enter	n/a
216.1755	5.298	432351	prompt	n/a	grill collections comfort illness\n
216.7565	0.0895	433513	keystroke_g	g	n/a
216.878	0.0935	433756	keystroke_i	i	n/a
217.1125	0.156	434225	keystroke_Key.backspace	Key.backspace	n/a
217.2455	0.113	434491	keystroke_r	r	n/a
217.3345	0.0895	434669	keystroke_i	i	n/a
217.5155	0.0675	435031	keystroke_l	l	n/a
217.643	0.088	435286	keystroke_l	l	n/a
217.732	0.11	435464	keystroke_Key.space	Key.space	n/a
217.843	0.09	435686	keystroke_c	c	n/a
217.9085	0.0915	435817	keystroke_o	o	n/a
218.0735	0.1545	436147	keystroke_l	l	n/a
218.228	0.089	436456	keystroke_e	e	n/a
218.295	0.132	436590	keystroke_c	c	n/a
218.5335	0.1105	437067	keystroke_t	t	n/a
218.601	0.111	437202	keystroke_i	i	n/a
218.666	0.089	437332	keystroke_o	o	n/a
218.825	0.089	437650	keystroke_n	n	n/a
218.914	0.0905	437828	keystroke_s	s	n/a
219.005	0.088	438010	keystroke_Key.space	Key.space	n/a
219.423	0.112	438846	keystroke_c	c	n/a
219.5115	0.068	439023	keystroke_o	o	n/a
219.643	0.0935	439286	keystroke_m	m	n/a
219.7125	0.09	439425	keystroke_f	f	n/a
219.8395	0.1115	439679	keystroke_o	o	n/a
219.928	0.067	439856	keystroke_r	r	n/a
220.117	0.1125	440234	keystroke_t	t	n/a
220.205	0.1335	440410	keystroke_Key.space	Key.space	n/a
220.433	0.088	440866	keystroke_i	i	n/a
220.6125	0.069	441225	keystroke_l	l	n/a
220.7315	0.0695	441463	keystroke_l	l	n/a
220.9075	0.0675	441815	keystroke_n	n	n/a
220.951	0.0685	441902	keystroke_e	e	n/a
221.106	0.089	442212	keystroke_s	s	n/a
221.249	0.1135	442498	keystroke_s	s	n/a
221.3635	0.108	442727	keystroke_Key.enter	Key.enter	n/a
221.477	4.522	442954	prompt	n/a	born connecting generate johns\n
222.187	0.091	444374	keystroke_b	b	n/a
222.3905	0.069	444781	keystroke_o	o	n/a
222.4815	0.09	444963	keystroke_r	r	n/a
222.5735	0.065	445147	keystroke_n	n	n/a
222.6955	0.111	445391	keystroke_Key.space	Key.space	n/a
222.7835	0.09	445567	keystroke_c	c	n/a
222.8745	0.091	445749	keystroke_o	o	n/a
223.0575	0.046	446115	keystroke_n	n	n/a
223.1675	0.067	446335	keystroke_n	n	n/a
223.2125	0.112	446425	keystroke_e	e	n/a
223.3005	0.0685	446601	keystroke_c	c	n/a
223.481	0.116	446962	keystroke_t	t	n/a
223.572	0.091	447144	keystroke_i	i	n/a
223.746	0.068	447492	keystroke_n	n	n/a
223.791	0.09	447582	keystroke_g	g	n/a
223.8585	0.1125	447717	keystroke_Key.space	Key.space	n/a
224.14	0.1105	448280	keystroke_g	g	n/a
224.2065	0.1105	448413	keystroke_e	e	n/a
224.4385	0.0895	448877	keystroke_n	n	n/a
224.505	0.112	449010	keystroke_e	e	n/a
224.593	0.134	449186	keystroke_r	r	n/a
224.728	0.109	449456	keystroke_a	a	n/a
224.838	0.1105	449676	keystroke_t	t	n/a
224.9255	0.111	449851	keystroke_e	e	n/a
224.991	0.113	449982	keystroke_Key.space	Key.space	n/a
225.162	0.157	450324	keystroke_j	j	n/a
225.273	0.0895	450546	keystroke_o	o	n/a
225.491	0.111	450982	keystroke_h	h	n/a
225.6785	0.068	451357	keystroke_n	n	n/a
225.7235	0.111	451447	keystroke_s	s	n/a
225.8865	0.1115	451773	keystroke_Key.enter	Key.enter	n/a
226.003	5.5795	452006	prompt	n/a	produces bills offset longer\n
226.4805	0.111	452961	keystroke_p	p	n/a
226.5675	0.0905	453135	keystroke_r	r	n/a
226.7835	0.113	453567	keystroke_o	o	n/a
226.8735	0.158	453747	keystroke_d	d	n/a
227.0815	0.087	454163	keystroke_u	u	n/a
227.1695	0.044	454339	keystroke_c	c	n/a
227.49	0.0685	454980	keystroke_e	e	n/a
227.7505	0.112	455501	keystroke_s	s	n/a
227.8835	0.114	455767	keystroke_Key.space	Key.space	n/a
228.477	0.1125	456954	keystroke_b	b	n/a
228.566	0.068	457132	keystroke_i	i	n/a
228.742	0.0685	457484	keystroke_l	l	n/a
228.8745	0.0435	457749	keystroke_l	l	n/a
228.941	0.092	457882	keystroke_s	s	n/a
229.034	0.111	458068	keystroke_Key.space	Key.space	n/a
229.168	0.024	458336	keystroke_b	b	n/a
229.245	0.089	458490	keystroke_o	o	n/a
229.4695	0.114	458939	keystroke_Key.backspace	Key.backspace	n/a
229.6415	0.07	459283	keystroke_Key.backspace	Key.backspace	n/a
229.7325	0.09	459465	keystroke_o	o	n/a
229.8	0.067	459600	keystroke_f	f	n/a
229.9325	0.135	459865	keystroke_f	f	n/a
230.0425	0.069	460085	keystroke_e	e	n/a
230.2755	0.112	460551	keystroke_Key.backspace	Key.backspace	n/a
230.3635	0.0685	460727	keystroke_s	s	n/a
230.525	0.0905	461050	keystroke_e	e	n/a
230.6155	0.111	461231	keystroke_t	t	n/a
230.7265	0.156	461453	keystroke_Key.space	Key.space	n/a
230.8835	0.088	461767	keystroke_l	l	n/a
231.0395	0.0895	462079	keystroke_o	o	n/a
231.2	0.087	462400	keystroke_n	n	n/a
231.242	0.091	462484	keystroke_g	g	n/a
231.309	0.115	462618	keystroke_e	e	n/a
231.425	0.1125	462850	keystroke_r	r	n/a
231.468	0.113	462936	keystroke_Key.enter	Key.enter	n/a
231.5855	4.728	463171	prompt	n/a	vintage brands boat lyrics\n
232.2255	0.0945	464451	keystroke_v	v	n/a
232.3215	0.0655	464643	keystroke_i	i	n/a
232.461	0.09	464922	keystroke_n	n	n/a
232.5045	0.0915	465009	keystroke_t	t	n/a
232.597	0.11	465194	keystroke_a	a	n/a
232.684	0.111	465368	keystroke_g	g	n/a
232.749	0.091	465498	keystroke_e	e	n/a
232.796	0.088	465592	keystroke_Key.space	Key.space	n/a
232.965	0.0685	465930	keystroke_b	b	n/a
233.071	0.134	466142	keystroke_a	a	n/a
233.408	0.18	466816	keystroke_Key.backspace	Key.backspace	n/a
233.542	0.114	467084	keystroke_r	r	n/a
233.631	0.137	467262	keystroke_a	a	n/a
233.723	0.109	467446	keystroke_n	n	n/a
233.81	0.11	467620	keystroke_d	d	n/a
233.943	0.114	467886	keystroke_Key.space	Key.space	n/a
234.421	0.1165	468842	keystroke_Key.backspace	Key.backspace	n/a
234.513	0.112	469026	keystroke_s	s	n/a
234.626	0.067	469252	keystroke_Key.space	Key.space	n/a
234.822	0.093	469644	keystroke_b	b	n/a
234.8455	0.1595	469691	keystroke_o	o	n/a
234.938	0.089	469876	keystroke_a	a	n/a
235.006	0.11	470012	keystroke_t	t	n/a
235.117	0.133	470234	keystroke_Key.space	Key.space	n/a
235.2715	0.088	470543	keystroke_l	l	n/a
235.496	0.0675	470992	keystroke_y	y	n/a
235.5405	0.09	471081	keystroke_r	r	n/a
235.6515	0.09	471303	keystroke_i	i	n/a
235.7425	0.09	471485	keystroke_c	c	n/a
235.7865	0.048	471573	keystroke_s	s	n/a
236.244	0.0675	472488	keystroke_Key.enter	Key.enter	n/a
236.317	6.0825	472634	prompt	n/a	contrast resort reporter motor\n
237.4155	0.112	474831	keystroke_c	c	n/a
237.671	0.1125	475342	keystroke_o	o	n/a
237.8695	0.09	475739	keystroke_n	n	n/a
237.9605	0.131	475921	keystroke_t	t	n/a
238.0935	0.022	476187	keystroke_a	a	n/a
238.137	0.1565	476274	keystroke_r	r	n/a
238.3475	0.067	476695	keystroke_Key.backspace	Key.backspace	n/a
238.5035	0.114	477007	keystroke_Key.backspace	Key.backspace	n/a
238.5475	0.114	477095	keystroke_r	r	n/a
238.6385	0.178	477277	keystroke_a	a	n/a
239.0615	0.111	478123	keystroke_s	s	n/a
239.1485	0.1125	478297	keystroke_t	t	n/a
239.2375	0.0905	478475	keystroke_Key.space	Key.space	n/a
239.547	0.1115	479094	keystroke_r	r	n/a
239.635	0.0895	479270	keystroke_e	e	n/a
239.8405	0.1095	479681	keystroke_s	s	n/a
239.928	0.11	479856	keystroke_o	o	n/a
240.078	0.068	480156	keystroke_r	r	n/a
240.223	0.091	480446	keystroke_t	t	n/a
240.291	0.089	480582	keystroke_Key.space	Key.space	n/a
240.402	0.135	480804	keystroke_r	r	n/a
240.469	0.091	480938	keystroke_e	e	n/a
240.538	0.089	481076	keystroke_p	p	n/a
240.71	0.0895	481420	keystroke_o	o	n/a
240.775	0.07	481550	keystroke_r	r	n/a
240.927	0.114	481854	keystroke_t	t	n/a
241.018	0.112	482036	keystroke_e	e	n/a
241.168	0.089	482336	keystroke_r	r	n/a
241.433	0.134	482866	keystroke_Key.space	Key.space	n/a
241.842	0.09	483684	keystroke_m	m	n/a
241.9085	0.0685	483817	keystroke_o	o	n/a
241.953	0.09	483906	keystroke_t	t	n/a
242.074	0.0905	484148	keystroke_o	o	n/a
242.1415	0.111	484283	keystroke_r	r	n/a
242.3055	0.092	484611	keystroke_Key.enter	Key.enter	n/a
242.4045	6.354	484809	prompt	n/a	formal handheld injection available\n
243.0195	0.091	486039	keystroke_f	f	n/a
243.0865	0.09	486173	keystroke_o	o	n/a
243.2095	0.0905	486419	keystroke_r	r	n/a
243.3005	0.066	486601	keystroke_m	m	n/a
243.3905	0.088	486781	keystroke_a	a	n/a
243.5005	0.046	487001	keystroke_l	l	n/a
243.5675	0.092	487135	keystroke_Key.space	Key.space	n/a
243.7345	0.091	487469	keystroke_h	h	n/a
243.8265	0.09	487653	keystroke_a	a	n/a
243.9175	0.0875	487835	keystroke_n	n	n/a
243.9825	0.0885	487965	keystroke_d	d	n/a
244.161	0.068	488322	keystroke_h	h	n/a
244.205	0.1135	488410	keystroke_e	e	n/a
244.3505	0.09	488701	keystroke_l	l	n/a
244.4625	0.089	488925	keystroke_d	d	n/a
244.5735	0.09	489147	keystroke_Key.space	Key.space	n/a
244.9265	0.112	489853	keystroke_n	n	n/a
245.1925	0.111	490385	keystroke_Key.backspace	Key.backspace	n/a
245.3255	0.046	490651	keystroke_i	i	n/a
245.5195	0.0675	491039	keystroke_n	n	n/a
245.752	0.089	491504	keystroke_j	j	n/a
245.8175	0.089	491635	keystroke_e	e	n/a
245.9075	0.0885	491815	keystroke_c	c	n/a
246.1125	0.0915	492225	keystroke_t	t	n/a
246.1585	0.0905	492317	keystroke_i	i	n/a
246.224	0.048	492448	keystroke_o	o	n/a
246.35	0.089	492700	keystroke_n	n	n/a
246.416	0.112	492832	keystroke_Key.space	Key.space	n/a
246.529	0.0905	493058	keystroke_a	a	n/a
246.62	0.089	493240	keystroke_v	v	n/a
246.71	0.111	493420	keystroke_i	i	n/a
246.842	0.111	493684	keystroke_a	a	n/a
246.981	0.091	493962	keystroke_l	l	n/a
247.209	0.09	494418	keystroke_Key.backspace	Key.backspace	n/a
247.378	0.091	494756	keystroke_Key.backspace	Key.backspace	n/a
247.543	0.093	495086	keystroke_Key.backspace	Key.backspace	n/a
247.6125	0.1115	495225	keystroke_a	a	n/a
247.746	0.092	495492	keystroke_i	i	n/a
248.1525	0.0885	496305	keystroke_l	l	n/a
248.2895	0.1125	496579	keystroke_a	a	n/a
248.4025	0.111	496805	keystroke_b	b	n/a
248.5145	0.0855	497029	keystroke_l	l	n/a
248.6005	0.067	497201	keystroke_e	e	n/a
248.6675	0.0885	497335	keystroke_Key.enter	Key.enter	n/a
248.762	4.346	497524	prompt	n/a	exempt senate java satin\n
249.1825	0.133	498365	keystroke_e	e	n/a
249.408	0.1125	498816	keystroke_x	x	n/a
249.5775	0.0885	499155	keystroke_e	e	n/a
249.734	0.114	499468	keystroke_m	m	n/a
249.802	0.114	499604	keystroke_p	p	n/a
249.8695	0.1115	499739	keystroke_t	t	n/a
250.042	0.09	500084	keystroke_Key.space	Key.space	n/a
250.2295	0.114	500459	keystroke_s	s	n/a
250.413	0.112	500826	keystroke_e	e	n/a
250.5465	0.09	501093	keystroke_n	n	n/a
250.7005	0.154	501401	keystroke_a	a	n/a
250.8755	0.112	501751	keystroke_t	t	n/a
250.942	0.113	501884	keystroke_e	e	n/a
251.055	0.1105	502110	keystroke_Key.space	Key.space	n/a
251.305	0.091	502610	keystroke_j	j	n/a
251.35	0.0905	502700	keystroke_a	a	n/a
251.4705	0.1365	502941	keystroke_v	v	n/a
251.561	0.069	503122	keystroke_a	a	n/a
251.63	0.113	503260	keystroke_Key.space	Key.space	n/a
251.9025	0.1575	503805	keystroke_s	s	n/a
252.036	0.091	504072	keystroke_a	a	n/a
252.218	0.114	504436	keystroke_t	t	n/a
252.741	0.1135	505482	keystroke_i	i	n/a
252.925	0.09	505850	keystroke_n	n	n/a
252.99	0.1165	505980	keystroke_Key.enter	Key.enter	n/a
253.1125	6.443	506225	prompt	n/a	adults imports evaluations placing\n
253.61	0.133	507220	keystroke_a	a	n/a
253.7205	0.1325	507441	keystroke_d	d	n/a
253.854	0.065	507708	keystroke_u	u	n/a
254.0415	0.0905	508083	keystroke_l	l	n/a
254.133	0.11	508266	keystroke_t	t	n/a
254.197	0.0905	508394	keystroke_s	s	n/a
254.3105	0.136	508621	keystroke_Key.space	Key.space	n/a
254.5755	0.09	509151	keystroke_i	i	n/a
254.741	0.0905	509482	keystroke_m	m	n/a
254.8535	0.046	509707	keystroke_p	p	n/a
255.0255	0.112	510051	keystroke_o	o	n/a
255.1135	0.069	510227	keystroke_r	r	n/a
255.2725	0.114	510545	keystroke_t	t	n/a
255.3415	0.155	510683	keystroke_s	s	n/a
255.474	0.1105	510948	keystroke_Key.space	Key.space	n/a
255.755	0.091	511510	keystroke_e	e	n/a
256.1735	0.111	512347	keystroke_v	v	n/a
256.4745	0.091	512949	keystroke_a	a	n/a
256.9475	0.112	513895	keystroke_Key.backspace	Key.backspace	n/a
257.0605	0.11	514121	keystroke_e	e	n/a
257.365	0.1325	514730	keystroke_Key.backspace	Key.backspace	n/a
257.4535	0.1115	514907	keystroke_a	a	n/a
257.6015	0.0895	515203	keystroke_l	l	n/a
257.8105	0.068	515621	keystroke_u	u	n/a
257.9	0.0905	515800	keystroke_a	a	n/a
257.967	0.1145	515934	keystroke_t	t	n/a
258.0585	0.09	516117	keystroke_i	i	n/a
258.0825	0.0885	516165	keystroke_o	o	n/a
258.256	0.089	516512	keystroke_n	n	n/a
258.346	0.112	516692	keystroke_s	s	n/a
258.435	0.11	516870	keystroke_Key.space	Key.space	n/a
258.764	0.092	517528	keystroke_p	p	n/a
258.917	0.092	517834	keystroke_l	l	n/a
258.984	0.0705	517968	keystroke_a	a	n/a
259.031	0.1145	518062	keystroke_c	c	n/a
259.121	0.07	518242	keystroke_i	i	n/a
259.27	0.089	518540	keystroke_n	n	n/a
259.313	0.092	518626	keystroke_g	g	n/a
259.4645	0.089	518929	keystroke_Key.enter	Key.enter	n/a
259.559	4.692	519118	prompt	n/a	valentine handheld rooms ending\n
260.1685	0.136	520337	keystroke_v	v	n/a
260.2795	0.1365	520559	keystroke_a	a	n/a
260.437	0.0885	520874	keystroke_l	l	n/a
260.6555	0.091	521311	keystroke_n	n	n/a
260.903	0.1355	521806	keystroke_Key.backspace	Key.backspace	n/a
261.0395	0.131	522079	keystroke_e	e	n/a
261.1915	0.1125	522383	keystroke_n	n	n/a
261.3045	0.113	522609	keystroke_t	t	n/a
261.418	0.1105	522836	keystroke_i	i	n/a
261.529	0.088	523058	keystroke_n	n	n/a
261.573	0.0895	523146	keystroke_e	e	n/a
261.6835	0.1125	523367	keystroke_Key.space	Key.space	n/a
261.9825	0.0895	523965	keystroke_h	h	n/a
262.0275	0.135	524055	keystroke_a	a	n/a
262.1635	0.0655	524327	keystroke_n	n	n/a
262.2055	0.091	524411	keystroke_d	d	n/a
262.3615	0.0885	524723	keystroke_h	h	n/a
262.4505	0.09	524901	keystroke_e	e	n/a
262.5615	0.1095	525123	keystroke_l	l	n/a
262.6925	0.111	525385	keystroke_d	d	n/a
262.8045	0.11	525609	keystroke_Key.space	Key.space	n/a
262.9625	0.113	525925	keystroke_r	r	n/a
263.0305	0.089	526061	keystroke_o	o	n/a
263.1585	0.087	526317	keystroke_o	o	n/a
263.3175	0.0905	526635	keystroke_m	m	n/a
263.3845	0.0905	526769	keystroke_s	s	n/a
263.496	0.09	526992	keystroke_Key.space	Key.space	n/a
263.607	0.092	527214	keystroke_e	e	n/a
263.7005	0.087	527401	keystroke_n	n	n/a
263.7885	0.1095	527577	keystroke_d	d	n/a
263.8985	0.088	527797	keystroke_i	i	n/a
263.942	0.1115	527884	keystroke_n	n	n/a
264.0295	0.067	528059	keystroke_g	g	n/a
264.1585	0.0905	528317	keystroke_Key.enter	Key.enter	n/a
264.254	3.9475	528508	prompt	n/a	hardly watson lifetime watt\n
265.056	0.09	530112	keystroke_h	h	n/a
265.1985	0.0915	530397	keystroke_a	a	n/a
265.2655	0.09	530531	keystroke_r	r	n/a
265.4305	0.112	530861	keystroke_d	d	n/a
265.4965	0.089	530993	keystroke_l	l	n/a
265.65	0.0925	531300	keystroke_y	y	n/a
265.7435	0.111	531487	keystroke_Key.space	Key.space	n/a
265.9465	0.159	531893	keystroke_w	w	n/a
266.0605	0.136	532121	keystroke_a	a	n/a
266.1975	0.1095	532395	keystroke_t	t	n/a
266.3075	0.134	532615	keystroke_s	s	n/a
266.4185	0.111	532837	keystroke_o	o	n/a
266.6165	0.0885	533233	keystroke_n	n	n/a
266.725	0.091	533450	keystroke_Key.space	Key.space	n/a
266.852	0.09	533704	keystroke_l	l	n/a
267.0155	0.0675	534031	keystroke_i	i	n/a
267.06	0.113	534120	keystroke_f	f	n/a
267.104	0.0915	534208	keystroke_e	e	n/a
267.28	0.092	534560	keystroke_t	t	n/a
267.325	0.091	534650	keystroke_i	i	n/a
267.48	0.0905	534960	keystroke_m	m	n/a
267.546	0.092	535092	keystroke_e	e	n/a
267.592	0.115	535184	keystroke_Key.space	Key.space	n/a
267.684	0.134	535368	keystroke_w	w	n/a
267.773	0.092	535546	keystroke_a	a	n/a
267.886	0.067	535772	keystroke_t	t	n/a
268.043	0.089	536086	keystroke_t	t	n/a
268.134	0.066	536268	keystroke_Key.enter	Key.enter	n/a
268.206	7.0935	536412	prompt	n/a	refurbished hughes peoples pittsburgh\n
268.783	0.089	537566	keystroke_r	r	n/a
268.85	0.1115	537700	keystroke_e	e	n/a
269.055	0.0695	538110	keystroke_g	g	n/a
269.3625	0.115	538725	keystroke_Key.backspace	Key.backspace	n/a
269.384	0.025	538768	keystroke_\	\	n/a
269.4535	0.0675	538907	keystroke_f	f	n/a
269.662	0.0915	539324	keystroke_u	u	n/a
269.834	0.0905	539668	keystroke_Key.backspace	Key.backspace	n/a
269.9835	0.0915	539967	keystroke_Key.backspace	Key.backspace	n/a
270.1395	0.1155	540279	keystroke_Key.backspace	Key.backspace	n/a
270.23	0.092	540460	keystroke_f	f	n/a
270.3435	0.0885	540687	keystroke_u	u	n/a
270.432	0.1125	540864	keystroke_r	r	n/a
270.8415	0.1095	541683	keystroke_b	b	n/a
270.9275	0.0895	541855	keystroke_i	i	n/a
271.0395	0.0885	542079	keystroke_s	s	n/a
271.174	0.091	542348	keystroke_h	h	n/a
271.266	0.068	542532	keystroke_e	e	n/a
271.411	0.135	542822	keystroke_d	d	n/a
271.4775	0.0905	542955	keystroke_Key.space	Key.space	n/a
271.6085	0.0895	543217	keystroke_h	h	n/a
271.651	0.0935	543302	keystroke_u	u	n/a
271.72	0.1365	543440	keystroke_g	g	n/a
271.878	0.0905	543756	keystroke_h	h	n/a
271.945	0.088	543890	keystroke_e	e	n/a
272.138	0.09	544276	keystroke_s	s	n/a
272.2045	0.0895	544409	keystroke_Key.space	Key.space	n/a
272.3855	0.0885	544771	keystroke_p	p	n/a
272.4745	0.066	544949	keystroke_e	e	n/a
272.5705	0.068	545141	keystroke_o	o	n/a
272.615	0.0895	545230	keystroke_p	p	n/a
272.7335	0.111	545467	keystroke_l	l	n/a
272.8215	0.067	545643	keystroke_e	e	n/a
272.9555	0.112	545911	keystroke_s	s	n/a
273.0215	0.1555	546043	keystroke_Key.space	Key.space	n/a
273.1315	0.112	546263	keystroke_p	p	n/a
273.433	0.1145	546866	keystroke_i	i	n/a
273.5795	0.0675	547159	keystroke_t	t	n/a
273.74	0.1135	547480	keystroke_t	t	n/a
273.808	0.134	547616	keystroke_s	s	n/a
273.9625	0.114	547925	keystroke_b	b	n/a
274.0295	0.136	548059	keystroke_u	u	n/a
274.1195	0.0675	548239	keystroke_r	r	n/a
274.314	0.1125	548628	keystroke_g	g	n/a
274.782	0.067	549564	keystroke_h	h	n/a
275.185	0.113	550370	keystroke_Key.enter	Key.enter	n/a
275.303	4.9305	550606	prompt	n/a	assignment pakistan opens regional\n
275.78	0.134	551560	keystroke_a	a	n/a
275.966	0.067	551932	keystroke_s	s	n/a
276.116	0.089	552232	keystroke_s	s	n/a
276.226	0.0905	552452	keystroke_i	i	n/a
276.337	0.089	552674	keystroke_g	g	n/a
276.4485	0.0905	552897	keystroke_n	n	n/a
276.593	0.112	553186	keystroke_m	m	n/a
276.706	0.0885	553412	keystroke_e	e	n/a
276.823	0.0915	553646	keystroke_n	n	n/a
276.935	0.132	553870	keystroke_t	t	n/a
277.113	0.1365	554226	keystroke_Key.space	Key.space	n/a
277.525	0.111	555050	keystroke_p	p	n/a
277.637	0.109	555274	keystroke_a	a	n/a
277.724	0.09	555448	keystroke_k	k	n/a
277.883	0.092	555766	keystroke_i	i	n/a
278.081	0.114	556162	keystroke_s	s	n/a
278.196	0.111	556392	keystroke_t	t	n/a
278.284	0.134	556568	keystroke_a	a	n/a
278.394	0.069	556788	keystroke_n	n	n/a
278.464	0.108	556928	keystroke_d	d	n/a
278.549	0.089	557098	keystroke_Key.space	Key.space	n/a
278.6605	0.135	557321	keystroke_o	o	n/a
278.7275	0.0905	557455	keystroke_p	p	n/a
278.819	0.086	557638	keystroke_e	e	n/a
278.9275	0.0895	557855	keystroke_n	n	n/a
279.039	0.111	558078	keystroke_s	s	n/a
279.151	0.067	558302	keystroke_Key.space	Key.space	n/a
279.354	0.114	558708	keystroke_r	r	n/a
279.422	0.048	558844	keystroke_e	e	n/a
279.568	0.091	559136	keystroke_g	g	n/a
279.614	0.09	559228	keystroke_i	i	n/a
279.66	0.088	559320	keystroke_o	o	n/a
279.792	0.0915	559584	keystroke_n	n	n/a
279.884	0.111	559768	keystroke_a	a	n/a
280.166	0.066	560332	keystroke_Key.enter	Key.enter	n/a
280.238	6.0085	560476	prompt	n/a	organizing street dominican buck\n
280.9435	0.113	561887	keystroke_o	o	n/a
281.0335	0.067	562067	keystroke_r	r	n/a
281.19	0.0895	562380	keystroke_g	g	n/a
281.2575	0.111	562515	keystroke_a	a	n/a
281.3695	0.087	562739	keystroke_n	n	n/a
281.4335	0.112	562867	keystroke_i	i	n/a
281.5005	0.112	563001	keystroke_z	z	n/a
281.6345	0.089	563269	keystroke_i	i	n/a
281.746	0.089	563492	keystroke_n	n	n/a
281.8125	0.0895	563625	keystroke_g	g	n/a
281.9305	0.113	563861	keystroke_Key.space	Key.space	n/a
282.144	0.113	564288	keystroke_s	s	n/a
282.362	0.068	564724	keystroke_t	t	n/a
282.526	0.11	565052	keystroke_r	r	n/a
282.591	0.068	565182	keystroke_e	e	n/a
282.7435	0.0885	565487	keystroke_e	e	n/a
282.9665	0.111	565933	keystroke_t	t	n/a
283.053	0.114	566106	keystroke_Key.space	Key.space	n/a
283.398	0.113	566796	keystroke_d	d	n/a
283.4665	0.0895	566933	keystroke_o	o	n/a
283.629	0.07	567258	keystroke_m	m	n/a
283.7205	0.134	567441	keystroke_i	i	n/a
283.9075	0.09	567815	keystroke_c	c	n/a
284.183	0.0895	568366	keystroke_Key.backspace	Key.backspace	n/a
284.2945	0.09	568589	keystroke_n	n	n/a
284.4565	0.114	568913	keystroke_c	c	n/a
284.798	0.1115	569596	keystroke_Key.backspace	Key.backspace	n/a
284.8875	0.09	569775	keystroke_i	i	n/a
284.9775	0.09	569955	keystroke_c	c	n/a
285.0675	0.11	570135	keystroke_a	a	n/a
285.3385	0.087	570677	keystroke_n	n	n/a
285.4985	0.112	570997	keystroke_Key.space	Key.space	n/a
285.7695	0.091	571539	keystroke_b	b	n/a
285.8375	0.089	571675	keystroke_u	u	n/a
285.904	0.1125	571808	keystroke_c	c	n/a
286.0175	0.089	572035	keystroke_k	k	n/a
286.1545	0.0905	572309	keystroke_Key.enter	Key.enter	n/a
286.249	4.757	572498	prompt	n/a	hugh expects careers biography\n
286.8905	0.112	573781	keystroke_h	h	n/a
286.9785	0.068	573957	keystroke_u	u	n/a
287.0245	0.1125	574049	keystroke_g	g	n/a
287.1595	0.1105	574319	keystroke_h	h	n/a
287.2705	0.11	574541	keystroke_Key.space	Key.space	n/a
287.465	0.089	574930	keystroke_e	e	n/a
287.6555	0.09	575311	keystroke_x	x	n/a
287.769	0.113	575538	keystroke_p	p	n/a
287.8575	0.092	575715	keystroke_e	e	n/a
287.9255	0.09	575851	keystroke_c	c	n/a
288.1555	0.093	576311	keystroke_t	t	n/a
288.2235	0.114	576447	keystroke_s	s	n/a
288.3135	0.1135	576627	keystroke_Key.space	Key.space	n/a
288.559	0.113	577118	keystroke_c	c	n/a
288.673	0.11	577346	keystroke_a	a	n/a
288.875	0.114	577750	keystroke_r	r	n/a
288.943	0.1145	577886	keystroke_e	e	n/a
289.1395	0.091	578279	keystroke_e	e	n/a
289.2525	0.136	578505	keystroke_r	r	n/a
289.3645	0.09	578729	keystroke_s	s	n/a
289.4305	0.093	578861	keystroke_Key.space	Key.space	n/a
289.6105	0.091	579221	keystroke_b	b	n/a
289.6785	0.091	579357	keystroke_i	i	n/a
289.7455	0.0885	579491	keystroke_g	g	n/a
289.9125	0.1325	579825	keystroke_o	o	n/a
290.0665	0.1295	580133	keystroke_g	g	n/a
290.1315	0.1305	580263	keystroke_r	r	n/a
290.2395	0.1555	580479	keystroke_a	a	n/a
290.581	0.09	581162	keystroke_o	o	n/a
290.693	0.133	581386	keystroke_g	g	n/a
290.827	0.177	581654	keystroke_Key.enter	Key.enter	n/a
291.0095	7.753	582019	prompt	n/a	diagnostic selective semi designer\n
291.499	0.136	582998	keystroke_d	d	n/a
291.61	0.092	583220	keystroke_i	i	n/a
291.703	0.108	583406	keystroke_a	a	n/a
291.8485	0.1115	583697	keystroke_g	g	n/a
292.9835	0.112	585967	keystroke_n	n	n/a
293.0285	0.1355	586057	keystroke_o	o	n/a
293.1845	0.068	586369	keystroke_s	s	n/a
293.2735	0.089	586547	keystroke_t	t	n/a
293.3385	0.091	586677	keystroke_i	i	n/a
293.4805	0.092	586961	keystroke_c	c	n/a
293.5485	0.09	587097	keystroke_Key.space	Key.space	n/a
293.943	0.109	587886	keystroke_s	s	n/a
294.073	0.069	588146	keystroke_l	l	n/a
294.143	0.066	588286	keystroke_e	e	n/a
294.517	0.045	589034	keystroke_e	e	n/a
294.583	0.067	589166	keystroke_c	c	n/a
294.827	0.089	589654	keystroke_Key.backspace	Key.backspace	n/a
294.996	0.0895	589992	keystroke_Key.backspace	Key.backspace	n/a
295.1695	0.07	590339	keystroke_Key.backspace	Key.backspace	n/a
295.3395	0.069	590679	keystroke_Key.backspace	Key.backspace	n/a
295.4305	0.091	590861	keystroke_e	e	n/a
295.5995	0.111	591199	keystroke_e	e	n/a
295.8455	0.1125	591691	keystroke_Key.backspace	Key.backspace	n/a
295.9595	0.066	591919	keystroke_l	l	n/a
296.0265	0.111	592053	keystroke_e	e	n/a
296.1925	0.0885	592385	keystroke_c	c	n/a
296.4085	0.113	592817	keystroke_t	t	n/a
296.5435	0.0915	593087	keystroke_i	i	n/a
296.663	0.114	593326	keystroke_c	c	n/a
296.731	0.111	593462	keystroke_e	e	n/a
296.778	0.131	593556	keystroke_Key.space	Key.space	n/a
297.305	0.0885	594610	keystroke_s	s	n/a
297.476	0.136	594952	keystroke_e	e	n/a
297.589	0.1135	595178	keystroke_m	m	n/a
297.6785	0.092	595357	keystroke_i	i	n/a
297.8045	0.113	595609	keystroke_Key.space	Key.space	n/a
298.0485	0.068	596097	keystroke_e	e	n/a
298.3805	0.133	596761	keystroke_s	s	n/a
298.4695	0.088	596939	keystroke_i	i	n/a
298.5585	0.022	597117	keystroke_j	j	n/a
298.6035	0.0675	597207	keystroke_n	n	n/a
298.626	0.09	597252	keystroke_g	g	n/a
298.673	0.087	597346	keystroke_Key.enter	Key.enter	n/a
298.767	0.4885	597534	prompt	n/a	lies tourism involve explaining\n
299.165	0.089	598330	keystroke_Key.enter	Key.enter	n/a
299.258	0.1575	598516	prompt	n/a	hunt leaf strength strips\n
299.321	0.093	598642	keystroke_Key.enter	Key.enter	n/a
299.418	0.1275	598836	prompt	n/a	logic budget minute electron\n
299.4785	0.0655	598957	keystroke_Key.enter	Key.enter	n/a
299.548	0.1435	599096	prompt	n/a	roman message quiet browse\n
299.601	0.089	599202	keystroke_Key.enter	Key.enter	n/a
299.6945	0.1045	599389	prompt	n/a	straight african fraser sections\n
299.73	0.067	599460	keystroke_Key.enter	Key.enter	n/a
299.802	0.128	599604	prompt	n/a	thru relax funeral arab\n
299.84	0.088	599680	keystroke_Key.enter	Key.enter	n/a
299.933	0.1055	599866	prompt	n/a	marble loose christine convergence\n
299.969	0.068	599938	keystroke_Key.enter	Key.enter	n/a
300.0415	0.116	600083	prompt	n/a	acne documentary aspects complex\n
300.1105	0.046	600221	keystroke_Key.enter	Key.enter	n/a
300.1605	0.144	600321	prompt	n/a	surprise finals chosen eden\n
300.235	0.068	600470	keystroke_Key.enter	Key.enter	n/a
300.3075	0.1615	600615	prompt	n/a	sperm translated ownership anthony\n
300.356	0.111	600712	keystroke_Key.enter	Key.enter	n/a
300.472	0.1785	600944	prompt	n/a	will appliance decent gzip\n
300.579	0.0695	601158	keystroke_Key.enter	Key.enter	n/a
300.653	0.1215	601306	prompt	n/a	biological companion gamespot wants\n
300.705	0.068	601410	keystroke_Key.enter	Key.enter	n/a
300.777	0.1415	601554	prompt	n/a	afternoon developmental code departmental\n
300.8275	0.089	601655	keystroke_Key.enter	Key.enter	n/a
300.922	0.1415	601844	prompt	n/a	institutional delivered addressed voters\n
300.9725	0.089	601945	keystroke_Key.enter	Key.enter	n/a
301.067	0.134	602134	prompt	n/a	battlefield throwing target roll\n
301.1105	0.089	602221	keystroke_Key.enter	Key.enter	n/a
301.2045	0.166	602409	prompt	n/a	bristol plenty between application\n
301.2555	0.1135	602511	keystroke_Key.enter	Key.enter	n/a
301.3735	0.173	602747	prompt	n/a	totally accessories guarantees advertisements\n
301.3905	0.154	602781	keystroke_Key.enter	Key.enter	n/a
301.55	0.4825	603100	prompt	n/a	anatomy energy bottle guidance\n
301.5895	0.4415	603179	keystroke_Key.enter	Key.enter	n/a
302.036	0.407	604072	prompt	n/a	appointed propecia quotes disease\n
302.109	0.331	604218	keystroke_Key.enter	Key.enter	n/a
302.447	0.4455	604894	prompt	n/a	twelve tyler clinton showtimes\n
302.805	0.086	605610	keystroke_Key.enter	Key.enter	n/a
302.896	3.1365	605792	prompt	n/a	projection articles alleged guatemala\n
303.137	0.1365	606274	keystroke_t	t	n/a
303.249	0.177	606498	keystroke_w	w	n/a
303.52	0.088	607040	keystroke_e	e	n/a
303.658	0.1355	607316	keystroke_l	l	n/a
303.7705	0.0455	607541	keystroke_e	e	n/a
304.04	0.133	608080	keystroke_Key.backspace	Key.backspace	n/a
304.1495	0.113	608299	keystroke_v	v	n/a
304.2165	0.113	608433	keystroke_e	e	n/a
304.3665	0.133	608733	keystroke_Key.space	Key.space	n/a
304.688	0.089	609376	keystroke_Key.backspace	Key.backspace	n/a
304.899	0.1125	609798	keystroke_Key.backspace	Key.backspace	n/a
304.965	0.1995	609930	keystroke_Key.space	Key.space	n/a
305.2735	0.1555	610547	keystroke_Key.backspace	Key.backspace	n/a
305.318	0.199	610636	keystroke_Key.space	Key.space	n/a
305.688	0.094	611376	keystroke_Key.backspace	Key.backspace	n/a
305.8985	0.1325	611797	keystroke_Key.enter	Key.enter	n/a
306.0365	4.8645	612073	prompt	n/a	habitat granted managing throat\n
306.6735	0.113	613347	keystroke_h	h	n/a
306.741	0.1345	613482	keystroke_a	a	n/a
306.8765	0.088	613753	keystroke_b	b	n/a
306.9175	0.112	613835	keystroke_i	i	n/a
307.0535	0.0905	614107	keystroke_t	t	n/a
307.1205	0.088	614241	keystroke_i	i	n/a
307.4075	0.132	614815	keystroke_Key.backspace	Key.backspace	n/a
307.5165	0.113	615033	keystroke_t	t	n/a
307.606	0.135	615212	keystroke_a	a	n/a
307.7165	0.135	615433	keystroke_t	t	n/a
307.8525	0.133	615705	keystroke_Key.space	Key.space	n/a
308.2735	0.111	616547	keystroke_g	g	n/a
308.3615	0.113	616723	keystroke_r	r	n/a
308.451	0.1575	616902	keystroke_a	a	n/a
308.6095	0.0895	617219	keystroke_n	n	n/a
308.6735	0.1135	617347	keystroke_t	t	n/a
308.719	0.092	617438	keystroke_e	e	n/a
308.8765	0.0915	617753	keystroke_d	d	n/a
308.9205	0.113	617841	keystroke_Key.space	Key.space	n/a
309.0345	0.1115	618069	keystroke_m	m	n/a
309.1965	0.1155	618393	keystroke_a	a	n/a
309.2885	0.09	618577	keystroke_n	n	n/a
309.4115	0.1355	618823	keystroke_a	a	n/a
309.523	0.135	619046	keystroke_g	g	n/a
309.589	0.157	619178	keystroke_i	i	n/a
309.7215	0.112	619443	keystroke_n	n	n/a
309.8095	0.091	619619	keystroke_g	g	n/a
309.878	0.111	619756	keystroke_Key.space	Key.space	n/a
310.0105	0.0885	620021	keystroke_t	t	n/a
310.0995	0.0665	620199	keystroke_h	h	n/a
310.187	0.0875	620374	keystroke_r	r	n/a
310.2965	0.0895	620593	keystroke_o	o	n/a
310.4075	0.135	620815	keystroke_a	a	n/a
310.564	0.136	621128	keystroke_t	t	n/a
310.8085	0.0905	621617	keystroke_Key.enter	Key.enter	n/a
310.905	5.385	621810	prompt	n/a	wellness validation specify laden\n
311.4505	0.0685	622901	keystroke_e	e	n/a
311.5195	0.044	623039	keystroke_w	w	n/a
311.5835	0.1155	623167	keystroke_e	e	n/a
311.6525	0.048	623305	keystroke_l	l	n/a
311.7915	0.0895	623583	keystroke_Key.backspace	Key.backspace	n/a
311.9625	0.0685	623925	keystroke_Key.backspace	Key.backspace	n/a
312.129	0.0665	624258	keystroke_Key.backspace	Key.backspace	n/a
312.2955	0.0915	624591	keystroke_Key.backspace	Key.backspace	n/a
312.388	0.088	624776	keystroke_w	w	n/a
312.4535	0.1115	624907	keystroke_e	e	n/a
312.519	0.068	625038	keystroke_l	l	n/a
312.656	0.0915	625312	keystroke_l	l	n/a
312.866	0.089	625732	keystroke_n	n	n/a
312.91	0.089	625820	keystroke_e	e	n/a
313.0815	0.068	626163	keystroke_s	s	n/a
313.2375	0.113	626475	keystroke_s	s	n/a
313.3515	0.111	626703	keystroke_Key.space	Key.space	n/a
313.4635	0.09	626927	keystroke_v	v	n/a
313.5075	0.113	627015	keystroke_a	a	n/a
313.5745	0.0685	627149	keystroke_l	l	n/a
313.7615	0.045	627523	keystroke_i	i	n/a
313.8075	0.0865	627615	keystroke_d	d	n/a
314.1515	0.068	628303	keystroke_a	a	n/a
314.354	0.1335	628708	keystroke_t	t	n/a
314.4425	0.0915	628885	keystroke_i	i	n/a
314.511	0.09	629022	keystroke_o	o	n/a
314.6735	0.09	629347	keystroke_n	n	n/a
314.7645	0.066	629529	keystroke_Key.space	Key.space	n/a
314.7855	0.11	629571	keystroke_s	s	n/a
314.9285	0.0935	629857	keystroke_p	p	n/a
314.973	0.0705	629946	keystroke_e	e	n/a
315.0785	0.1355	630157	keystroke_c	c	n/a
315.2145	0.088	630429	keystroke_i	i	n/a
315.3395	0.09	630679	keystroke_f	f	n/a
315.5105	0.11	631021	keystroke_y	y	n/a
315.5975	0.114	631195	keystroke_Key.space	Key.space	n/a
315.7965	0.09	631593	keystroke_l	l	n/a
315.8405	0.092	631681	keystroke_a	a	n/a
315.9335	0.1335	631867	keystroke_d	d	n/a
316.043	0.09	632086	keystroke_e	e	n/a
316.111	0.0675	632222	keystroke_n	n	n/a
316.18	0.108	632360	keystroke_Key.enter	Key.enter	n/a
316.294	5.3015	632588	prompt	n/a	appearance arising i've albania\n
316.6975	0.135	633395	keystroke_a	a	n/a
316.861	0.089	633722	keystroke_p	p	n/a
317.013	0.0905	634026	keystroke_p	p	n/a
317.0795	0.116	634159	keystroke_e	e	n/a
317.172	0.09	634344	keystroke_r	r	n/a
317.515	0.0675	635030	keystroke_Key.backspace	Key.backspace	n/a
317.6045	0.091	635209	keystroke_a	a	n/a
317.672	0.1115	635344	keystroke_r	r	n/a
317.9115	0.113	635823	keystroke_a	a	n/a
318.0255	0.089	636051	keystroke_n	n	n/a
318.1165	0.1095	636233	keystroke_c	c	n/a
318.1815	0.1125	636363	keystroke_e	e	n/a
318.269	0.114	636538	keystroke_Key.space	Key.space	n/a
318.6255	0.113	637251	keystroke_r	r	n/a
318.694	0.1125	637388	keystroke_a	a	n/a
318.8725	0.0885	637745	keystroke_Key.backspace	Key.backspace	n/a
319.0285	0.091	638057	keystroke_Key.backspace	Key.backspace	n/a
319.097	0.0925	638194	keystroke_a	a	n/a
319.1645	0.069	638329	keystroke_r	r	n/a
319.4415	0.1155	638883	keystroke_i	i	n/a
319.5335	0.113	639067	keystroke_s	s	n/a
319.6665	0.089	639333	keystroke_i	i	n/a
319.8265	0.069	639653	keystroke_n	n	n/a
319.8725	0.09	639745	keystroke_g	g	n/a
319.9645	0.089	639929	keystroke_Key.space	Key.space	n/a
320.0915	0.09	640183	keystroke_i	i	n/a
320.3245	0.09	640649	keystroke_'	'	n/a
320.3695	0.114	640739	keystroke_v	v	n/a
320.4155	0.0905	640831	keystroke_e	e	n/a
320.5275	0.1135	641055	keystroke_Key.space	Key.space	n/a
320.679	0.112	641358	keystroke_a	a	n/a
320.7675	0.1115	641535	keystroke_l	l	n/a
320.901	0.114	641802	keystroke_b	b	n/a
320.991	0.1345	641982	keystroke_a	a	n/a
321.103	0.1355	642206	keystroke_n	n	n/a
321.2145	0.1085	642429	keystroke_i	i	n/a
321.346	0.066	642692	keystroke_a	a	n/a
321.5035	0.0905	643007	keystroke_Key.enter	Key.enter	n/a
321.599	4.6655	643198	prompt	n/a	thats somalia paper clothes\n
322.0035	0.0685	644007	keystroke_a	a	n/a
322.2225	0.155	644445	keystroke_Key.backspace	Key.backspace	n/a
322.3785	0.1085	644757	keystroke_t	t	n/a
322.5085	0.089	645017	keystroke_h	h	n/a
322.5745	0.113	645149	keystroke_a	a	n/a
322.6425	0.111	645285	keystroke_t	t	n/a
322.8585	0.116	645717	keystroke_s	s	n/a
322.9495	0.092	645899	keystroke_Key.space	Key.space	n/a
323.1075	0.154	646215	keystroke_s	s	n/a
323.2165	0.134	646433	keystroke_o	o	n/a
323.563	0.1105	647126	keystroke_m	m	n/a
323.694	0.092	647388	keystroke_a	a	n/a
323.787	0.0875	647574	keystroke_l	l	n/a
323.98	0.0885	647960	keystroke_i	i	n/a
324.09	0.1115	648180	keystroke_a	a	n/a
324.2025	0.11	648405	keystroke_Key.space	Key.space	n/a
324.8695	0.07	649739	keystroke_p	p	n/a
324.9165	0.113	649833	keystroke_a	a	n/a
325.0605	0.089	650121	keystroke_p	p	n/a
325.1255	0.112	650251	keystroke_e	e	n/a
325.1935	0.11	650387	keystroke_r	r	n/a
325.2805	0.09	650561	keystroke_Key.space	Key.space	n/a
325.4035	0.093	650807	keystroke_c	c	n/a
325.4495	0.093	650899	keystroke_l	l	n/a
325.6175	0.09	651235	keystroke_o	o	n/a
325.6625	0.114	651325	keystroke_t	t	n/a
325.836	0.1115	651672	keystroke_h	h	n/a
325.978	0.0685	651956	keystroke_e	e	n/a
326.1265	0.092	652253	keystroke_s	s	n/a
326.1945	0.068	652389	keystroke_Key.enter	Key.enter	n/a
326.2695	6.6995	652539	prompt	n/a	justin garden prague glossary\n
327.8685	0.088	655737	keystroke_j	j	n/a
328.0425	0.068	656085	keystroke_u	u	n/a
328.1115	0.1325	656223	keystroke_s	s	n/a
328.246	0.1535	656492	keystroke_t	t	n/a
328.353	0.0685	656706	keystroke_Key.space	Key.space	n/a
328.4005	0.11	656801	keystroke_i	i	n/a
328.6075	0.047	657215	keystroke_Key.backspace	Key.backspace	n/a
328.7125	0.069	657425	keystroke_Key.backspace	Key.backspace	n/a
328.8035	0.0895	657607	keystroke_i	i	n/a
328.982	0.0675	657964	keystroke_n	n	n/a
329.0505	0.111	658101	keystroke_Key.space	Key.space	n/a
329.2085	0.1155	658417	keystroke_g	g	n/a
329.3	0.114	658600	keystroke_a	a	n/a
329.436	0.069	658872	keystroke_r	r	n/a
329.613	0.136	659226	keystroke_d	d	n/a
329.679	0.1395	659358	keystroke_e	e	n/a
329.75	0.066	659500	keystroke_n	n	n/a
329.819	0.132	659638	keystroke_Key.space	Key.space	n/a
330.198	0.113	660396	keystroke_p	p	n/a
330.242	0.07	660484	keystroke_r	r	n/a
330.562	0.111	661124	keystroke_a	a	n/a
330.741	0.1335	661482	keystroke_g	g	n/a
331.3225	0.112	662645	keystroke_u	u	n/a
331.4105	0.069	662821	keystroke_e	e	n/a
331.4565	0.113	662913	keystroke_Key.space	Key.space	n/a
331.745	0.1125	663490	keystroke_g	g	n/a
331.8355	0.066	663671	keystroke_l	l	n/a
331.9775	0.0885	663955	keystroke_o	o	n/a
332.1515	0.0895	664303	keystroke_s	s	n/a
332.3375	0.068	664675	keystroke_s	s	n/a
332.552	0.1125	665104	keystroke_a	a	n/a
332.641	0.1585	665282	keystroke_r	r	n/a
332.6855	0.1125	665371	keystroke_y	y	n/a
332.8565	0.1115	665713	keystroke_Key.enter	Key.enter	n/a
332.9725	4.2305	665945	prompt	n/a	the quick brown fox jumps over a lazy dog\n
333.4935	0.112	666987	keystroke_t	t	n/a
333.5595	0.07	667119	keystroke_h	h	n/a
333.6305	0.0885	667261	keystroke_e	e	n/a
333.719	0.09	667438	keystroke_Key.space	Key.space	n/a
333.81	0.113	667620	keystroke_q	q	n/a
333.876	0.113	667752	keystroke_u	u	n/a
333.924	0.11	667848	keystroke_i	i	n/a
334.035	0.11	668070	keystroke_c	c	n/a
334.1225	0.1115	668245	keystroke_k	k	n/a
334.19	0.1075	668380	keystroke_Key.space	Key.space	n/a
334.347	0.067	668694	keystroke_b	b	n/a
334.391	0.114	668782	keystroke_r	r	n/a
334.526	0.09	669052	keystroke_o	o	n/a
334.591	0.113	669182	keystroke_w	w	n/a
334.681	0.09	669362	keystroke_n	n	n/a
334.7915	0.091	669583	keystroke_Key.space	Key.space	n/a
334.8365	0.0925	669673	keystroke_f	f	n/a
334.9295	0.087	669859	keystroke_o	o	n/a
335.0375	0.113	670075	keystroke_x	x	n/a
335.1265	0.0685	670253	keystroke_Key.space	Key.space	n/a
335.237	0.089	670474	keystroke_j	j	n/a
335.406	0.067	670812	keystroke_u	u	n/a
335.564	0.07	671128	keystroke_m	m	n/a
335.586	0.117	671172	keystroke_p	p	n/a
335.635	0.066	671270	keystroke_s	s	n/a
335.746	0.09	671492	keystroke_Key.space	Key.space	n/a
335.813	0.093	671626	keystroke_o	o	n/a
335.8575	0.095	671715	keystroke_v	v	n/a
335.907	0.136	671814	keystroke_e	e	n/a
336.0645	0.0895	672129	keystroke_r	r	n/a
336.131	0.067	672262	keystroke_Key.space	Key.space	n/a
336.199	0.113	672398	keystroke_a	a	n/a
336.313	0.132	672626	keystroke_Key.space	Key.space	n/a
336.421	0.092	672842	keystroke_l	l	n/a
336.488	0.091	672976	keystroke_a	a	n/a
336.58	0.111	673160	keystroke_z	z	n/a
336.666	0.068	673332	keystroke_y	y	n/a
336.757	0.089	673514	keystroke_Key.space	Key.space	n/a
336.847	0.069	673694	keystroke_d	d	n/a
336.917	0.088	673834	keystroke_o	o	n/a
337.064	0.071	674128	keystroke_g	g	n/a
337.135	0.066	674270	keystroke_Key.enter	Key.enter	n/a
337.207	3.128	674414	prompt	n/a	there, they break off\n
337.65	0.09	675300	keystroke_t	t	n/a
337.763	0.068	675526	keystroke_h	h	n/a
337.785	0.089	675570	keystroke_e	e	n/a
337.876	0.113	675752	keystroke_r	r	n/a
337.963	0.114	675926	keystroke_e	e	n/a
338.078	0.087	676156	keystroke_,	,	n/a
338.2	0.112	676400	keystroke_Key.space	Key.space	n/a
338.288	0.1145	676576	keystroke_t	t	n/a
338.378	0.069	676756	keystroke_h	h	n/a
338.403	0.022	676806	keystroke_j	j	n/a
338.4685	0.067	676937	keystroke_e	e	n/a
338.558	0.047	677116	keystroke_y	y	n/a
339.0495	0.112	678099	keystroke_Key.space	Key.space	n/a
339.2365	0.045	678473	keystroke_b	b	n/a
339.2825	0.112	678565	keystroke_r	r	n/a
339.3265	0.09	678653	keystroke_e	e	n/a
339.3705	0.134	678741	keystroke_a	a	n/a
339.7115	0.1115	679423	keystroke_k	k	n/a
339.843	0.1135	679686	keystroke_Key.space	Key.space	n/a
339.9575	0.063	679915	keystroke_o	o	n/a
340.0215	0.069	680043	keystroke_f	f	n/a
340.1565	0.088	680313	keystroke_f	f	n/a
340.266	0.0675	680532	keystroke_Key.enter	Key.enter	n/a
340.339	3.6685	680678	prompt	n/a	their wings and begin\n
340.8055	0.092	681611	keystroke_t	t	n/a
340.8985	0.066	681797	keystroke_h	h	n/a
340.9655	0.088	681931	keystroke_e	e	n/a
341.0965	0.09	682193	keystroke_i	i	n/a
341.1625	0.091	682325	keystroke_r	r	n/a
341.2545	0.0865	682509	keystroke_Key.space	Key.space	n/a
341.296	0.1365	682592	keystroke_w	w	n/a
341.607	0.092	683214	keystroke_e	e	n/a
341.808	0.091	683616	keystroke_i	i	n/a
342.077	0.089	684154	keystroke_Key.backspace	Key.backspace	n/a
342.2175	0.068	684435	keystroke_Key.backspace	Key.backspace	n/a
342.2625	0.1345	684525	keystroke_i	i	n/a
342.4775	0.092	684955	keystroke_n	n	n/a
342.524	0.0915	685048	keystroke_g	g	n/a
342.5705	0.09	685141	keystroke_s	s	n/a
342.637	0.0905	685274	keystroke_Key.space	Key.space	n/a
342.7495	0.1125	685499	keystroke_a	a	n/a
342.863	0.066	685726	keystroke_n	n	n/a
342.931	0.1105	685862	keystroke_d	d	n/a
342.9955	0.09	685991	keystroke_Key.space	Key.space	n/a
343.1335	0.072	686267	keystroke_b	b	n/a
343.1825	0.067	686365	keystroke_e	e	n/a
343.5175	0.113	687035	keystroke_g	g	n/a
343.5185	0.113	687037	keystroke_i	i	n/a
343.6745	0.09	687349	keystroke_n	n	n/a
343.9165	0.0895	687833	keystroke_Key.enter	Key.enter	n/a
344.0115	2.1265	688023	prompt	n/a	to lay and care\n
344.491	0.0905	688982	keystroke_t	t	n/a
344.755	0.093	689510	keystroke_o	o	n/a
344.823	0.1345	689646	keystroke_Key.space	Key.space	n/a
344.9795	0.091	689959	keystroke_l	l	n/a
345.0705	0.1105	690141	keystroke_a	a	n/a
345.1815	0.089	690363	keystroke_y	y	n/a
345.2475	0.089	690495	keystroke_Key.space	Key.space	n/a
345.3575	0.132	690715	keystroke_a	a	n/a
345.4445	0.09	690889	keystroke_n	n	n/a
345.4905	0.0875	690981	keystroke_d	d	n/a
345.5995	0.111	691199	keystroke_Key.space	Key.space	n/a
345.6875	0.09	691375	keystroke_c	c	n/a
345.755	0.0915	691510	keystroke_a	a	n/a
345.8905	0.114	691781	keystroke_r	r	n/a
345.9585	0.0895	691917	keystroke_e	e	n/a
346.0685	0.068	692137	keystroke_Key.enter	Key.enter	n/a
346.1415	3.0305	692283	prompt	n/a	for eggs. this allows\n
346.7925	0.069	693585	keystroke_f	f	n/a
346.839	0.0885	693678	keystroke_o	o	n/a
346.9585	0.068	693917	keystroke_r	r	n/a
347.0275	0.066	694055	keystroke_Key.space	Key.space	n/a
347.0935	0.087	694187	keystroke_e	e	n/a
347.202	0.068	694404	keystroke_g	g	n/a
347.3475	0.069	694695	keystroke_g	g	n/a
347.4665	0.09	694933	keystroke_s	s	n/a
347.5325	0.113	695065	keystroke_.	.	n/a
347.716	0.1105	695432	keystroke_Key.space	Key.space	n/a
347.8475	0.113	695695	keystroke_t	t	n/a
347.9365	0.093	695873	keystroke_h	h	n/a
347.9825	0.0935	695965	keystroke_i	i	n/a
348.0535	0.0905	696107	keystroke_s	s	n/a
348.144	0.111	696288	keystroke_Key.space	Key.space	n/a
348.2315	0.1135	696463	keystroke_a	a	n/a
348.299	0.068	696598	keystroke_l	l	n/a
348.4235	0.09	696847	keystroke_l	l	n/a
348.577	0.068	697154	keystroke_o	o	n/a
348.6455	0.067	697291	keystroke_w	w	n/a
349.0115	0.114	698023	keystroke_s	s	n/a
349.1015	0.069	698203	keystroke_Key.enter	Key.enter	n/a
349.175	2.982	698350	prompt	n/a	players to keep playing\n
349.6205	0.091	699241	keystroke_p	p	n/a
349.82	0.0915	699640	keystroke_l	l	n/a
349.8865	0.09	699773	keystroke_a	a	n/a
350.0375	0.0675	700075	keystroke_y	y	n/a
350.082	0.067	700164	keystroke_e	e	n/a
350.127	0.09	700254	keystroke_r	r	n/a
350.2485	0.0705	700497	keystroke_s	s	n/a
350.294	0.114	700588	keystroke_Key.space	Key.space	n/a
350.41	0.0885	700820	keystroke_t	t	n/a
350.4305	0.09	700861	keystroke_o	o	n/a
350.5415	0.09	701083	keystroke_Key.space	Key.space	n/a
350.6535	0.09	701307	keystroke_k	k	n/a
350.7445	0.045	701489	keystroke_e	e	n/a
350.886	0.1105	701772	keystroke_e	e	n/a
351.1205	0.114	702241	keystroke_p	p	n/a
351.2765	0.135	702553	keystroke_Key.space	Key.space	n/a
351.3875	0.092	702775	keystroke_p	p	n/a
351.5165	0.113	703033	keystroke_l	l	n/a
351.6055	0.068	703211	keystroke_a	a	n/a
351.7285	0.066	703457	keystroke_y	y	n/a
351.7955	0.088	703591	keystroke_i	i	n/a
351.9075	0.089	703815	keystroke_n	n	n/a
351.9975	0.089	703995	keystroke_g	g	n/a
352.0875	0.067	704175	keystroke_Key.enter	Key.enter	n/a
352.1625	3.979	704325	prompt	n/a	for longer periods of\n
352.6055	0.091	705211	keystroke_f	f	n/a
352.6725	0.09	705345	keystroke_o	o	n/a
352.7835	0.095	705567	keystroke_r	r	n/a
352.8535	0.114	705707	keystroke_Key.space	Key.space	n/a
352.9445	0.088	705889	keystroke_l	l	n/a
353.1005	0.069	706201	keystroke_o	o	n/a
353.2625	0.067	706525	keystroke_n	n	n/a
353.285	0.0915	706570	keystroke_g	g	n/a
353.352	0.1145	706704	keystroke_e	e	n/a
353.468	0.0895	706936	keystroke_r	r	n/a
353.5335	0.09	707067	keystroke_Key.space	Key.space	n/a
353.645	0.0695	707290	keystroke_o	o	n/a
353.6905	0.114	707381	keystroke_e	e	n/a
353.78	0.135	707560	keystroke_r	r	n/a
354.1285	0.068	708257	keystroke_Key.backspace	Key.backspace	n/a
354.2925	0.088	708585	keystroke_Key.backspace	Key.backspace	n/a
354.4605	0.089	708921	keystroke_Key.backspace	Key.backspace	n/a
354.7485	0.138	709497	keystroke_p	p	n/a
354.8635	0.068	709727	keystroke_e	e	n/a
354.9085	0.113	709817	keystroke_r	r	n/a
355.0225	0.1105	710045	keystroke_i	i	n/a
355.0865	0.0905	710173	keystroke_o	o	n/a
355.154	0.1335	710308	keystroke_d	d	n/a
355.4985	0.134	710997	keystroke_s	s	n/a
355.8225	0.068	711645	keystroke_Key.space	Key.space	n/a
355.9125	0.0675	711825	keystroke_o	o	n/a
355.9355	0.0885	711871	keystroke_f	f	n/a
356.0705	0.069	712141	keystroke_Key.enter	Key.enter	n/a
356.1445	3.5765	712289	prompt	n/a	time without straining their\n
356.7035	0.09	713407	keystroke_t	t	n/a
356.864	0.11	713728	keystroke_i	i	n/a
357.045	0.09	714090	keystroke_m	m	n/a
357.0895	0.068	714179	keystroke_e	e	n/a
357.1585	0.111	714317	keystroke_Key.space	Key.space	n/a
357.2705	0.066	714541	keystroke_w	w	n/a
357.3375	0.089	714675	keystroke_i	i	n/a
357.428	0.1115	714856	keystroke_t	t	n/a
357.5155	0.0695	715031	keystroke_h	h	n/a
357.5615	0.134	715123	keystroke_o	o	n/a
357.673	0.114	715346	keystroke_u	u	n/a
357.741	0.09	715482	keystroke_t	t	n/a
357.868	0.1115	715736	keystroke_Key.space	Key.space	n/a
358.002	0.1115	716004	keystroke_s	s	n/a
358.2225	0.111	716445	keystroke_t	t	n/a
358.3105	0.068	716621	keystroke_r	r	n/a
358.401	0.133	716802	keystroke_a	a	n/a
358.5105	0.1115	717021	keystroke_i	i	n/a
358.7135	0.091	717427	keystroke_n	n	n/a
358.781	0.092	717562	keystroke_i	i	n/a
358.9165	0.067	717833	keystroke_n	n	n/a
358.9605	0.089	717921	keystroke_g	g	n/a
359.0825	0.1155	718165	keystroke_Key.space	Key.space	n/a
359.199	0.087	718398	keystroke_t	t	n/a
359.287	0.064	718574	keystroke_h	h	n/a
359.352	0.0675	718704	keystroke_e	e	n/a
359.452	0.089	718904	keystroke_i	i	n/a
359.543	0.111	719086	keystroke_r	r	n/a
359.629	0.09	719258	keystroke_Key.enter	Key.enter	n/a
359.7255	1.9035	719451	prompt	n/a	eyes. these usually have\n
360.184	0.0905	720368	keystroke_e	e	n/a
360.2955	0.071	720591	keystroke_y	y	n/a
360.3675	0.066	720735	keystroke_e	e	n/a
360.5145	0.068	721029	keystroke_s	s	n/a
360.5605	0.068	721121	keystroke_/	/	n/a
