onset	duration	sample	value	key	prompt_text
4.321	7.956	8642	prompt	n/a	the quick brown fox jumps over a lazy dog\n
5.7145	0.096	11429	keystroke	t	n/a
5.8985	0.072	11797	keystroke	h	n/a
6.0345	0.088	12069	keystroke	e	n/a
6.1945	0.0805	12389	keystroke	Key.space	n/a
6.346	0.0885	12692	keystroke	q	n/a
6.6185	0.128	13237	keystroke	u	n/a
6.7385	0.064	13477	keystroke	i	n/a
6.8825	0.088	13765	keystroke	c	n/a
7.0025	0.0875	14005	keystroke	k	n/a
7.13	0.088	14260	keystroke	Key.space	n/a
7.338	0.073	14676	keystroke	b	n/a
7.419	0.119	14838	keystroke	r	n/a
7.539	0.103	15078	keystroke	o	n/a
7.666	0.0735	15332	keystroke	w	n/a
7.7875	0.104	15575	keystroke	n	n/a
7.8985	0.096	15797	keystroke	Key.space	n/a
8.0755	0.096	16151	keystroke	f	n/a
8.1945	0.104	16389	keystroke	o	n/a
8.3635	0.0875	16727	keystroke	x	n/a
8.547	0.136	17094	keystroke	Key.space	n/a
8.907	0.088	17814	keystroke	j	n/a
9.091	0.072	18182	keystroke	u	n/a
9.299	0.096	18598	keystroke	m	n/a
9.379	0.112	18758	keystroke	p	n/a
9.539	0.104	19078	keystroke	s	n/a
9.683	0.12	19366	keystroke	Key.space	n/a
9.851	0.12	19702	keystroke	o	n/a
9.963	0.08	19926	keystroke	v	n/a
10.155	0.112	20310	keystroke	e	n/a
10.227	0.104	20454	keystroke	r	n/a
10.307	0.104	20614	keystroke	Key.space	n/a
10.427	0.12	20854	keystroke	a	n/a
10.548	0.087	21096	keystroke	Key.space	n/a
10.683	0.056	21366	keystroke	l	n/a
11.139	0.0965	22278	keystroke	a	n/a
11.3555	0.071	22711	keystroke	z	n/a
11.5785	0.121	23157	keystroke	y	n/a
11.6585	0.128	23317	keystroke	Key.space	n/a
11.8115	0.087	23623	keystroke	d	n/a
11.9065	0.096	23813	keystroke	o	n/a
12.0435	0.071	24087	keystroke	g	n/a
12.2265	0.048	24453	keystroke	Key.enter	n/a
12.281	8.7475	24562	prompt	n/a	video architectural directive discussion\n
13.075	0.08	26150	keystroke	v	n/a
13.171	0.088	26342	keystroke	i	n/a
13.275	0.048	26550	keystroke	d	n/a
13.427	0.064	26854	keystroke	e	n/a
13.547	0.064	27094	keystroke	o	n/a
13.683	0.0875	27366	keystroke	Key.space	n/a
14.187	0.088	28374	keystroke	a	n/a
14.3785	0.08	28757	keystroke	r	n/a
14.635	0.1115	29270	keystroke	c	n/a
15.0665	0.0965	30133	keystroke	h	n/a
15.275	0.104	30550	keystroke	i	n/a
15.507	0.12	31014	keystroke	t	n/a
15.723	0.056	31446	keystroke	e	n/a
15.923	0.104	31846	keystroke	c	n/a
16.3155	0.104	32631	keystroke	t	n/a
16.4835	0.088	32967	keystroke	u	n/a
16.5875	0.072	33175	keystroke	r	n/a
16.7875	0.064	33575	keystroke	a	n/a
16.8835	0.08	33767	keystroke	l	n/a
17.0195	0.127	34039	keystroke	Key.space	n/a
17.2425	0.088	34485	keystroke	d	n/a
17.4025	0.096	34805	keystroke	i	n/a
17.5545	0.088	35109	keystroke	v	n/a
18.0265	0.056	36053	keystroke	Key.backspace	n/a
18.0585	0.104	36117	keystroke	r	n/a
18.1225	0.088	36245	keystroke	e	n/a
18.3065	0.12	36613	keystroke	c	n/a
18.5545	0.088	37109	keystroke	t	n/a
18.6585	0.088	37317	keystroke	i	n/a
18.7705	0.104	37541	keystroke	v	n/a
18.8665	0.096	37733	keystroke	e	n/a
18.9545	0.112	37909	keystroke	Key.space	n/a
19.667	0.072	39334	keystroke	d	n/a
19.787	0.088	39574	keystroke	i	n/a
19.876	0.063	39752	keystroke	s	n/a
20.019	0.112	40038	keystroke	c	n/a
20.139	0.08	40278	keystroke	u	n/a
20.267	0.064	40534	keystroke	s	n/a
20.427	0.08	40854	keystroke	s	n/a
20.523	0.112	41046	keystroke	i	n/a
20.603	0.064	41206	keystroke	o	n/a
20.755	0.08	41510	keystroke	n	n/a
20.947	0.08	41894	keystroke	Key.enter	n/a
21.0315	6.085	42063	prompt	n/a	inside continental line mature\n
21.6265	0.056	43253	keystroke	i	n/a
21.7785	0.08	43557	keystroke	n	n/a
21.8825	0.089	43765	keystroke	s	n/a
21.9945	0.096	43989	keystroke	i	n/a
22.0825	0.065	44165	keystroke	d	n/a
22.2505	0.072	44501	keystroke	e	n/a
22.3945	0.088	44789	keystroke	Key.space	n/a
22.8745	0.096	45749	keystroke	c	n/a
22.9625	0.072	45925	keystroke	o	n/a
23.115	0.08	46230	keystroke	n	n/a
23.227	0.104	46454	keystroke	t	n/a
23.499	0.072	46998	keystroke	i	n/a
23.859	0.064	47718	keystroke	n	n/a
24.355	0.104	48710	keystroke	e	n/a
24.539	0.088	49078	keystroke	n	n/a
24.603	0.088	49206	keystroke	t	n/a
24.827	0.12	49654	keystroke	a	n/a
24.963	0.088	49926	keystroke	l	n/a
25.1385	0.112	50277	keystroke	Key.space	n/a
25.7705	0.08	51541	keystroke	l	n/a
25.9465	0.064	51893	keystroke	i	n/a
26.0985	0.096	52197	keystroke	n	n/a
26.1865	0.08	52373	keystroke	e	n/a
26.2745	0.08	52549	keystroke	Key.space	n/a
26.3955	0.096	52791	keystroke	m	n/a
26.4995	0.063	52999	keystroke	a	n/a
26.5945	0.12	53189	keystroke	t	n/a
26.7305	0.113	53461	keystroke	u	n/a
26.8345	0.12	53669	keystroke	r	n/a
26.8665	0.112	53733	keystroke	e	n/a
27.0425	0.0725	54085	keystroke	Key.enter	n/a
27.119	6.4455	54238	prompt	n/a	organizations referred onto rivers\n
27.835	0.112	55670	keystroke	o	n/a
27.931	0.096	55862	keystroke	r	n/a
28.107	0.112	56214	keystroke	g	n/a
28.227	0.112	56454	keystroke	a	n/a
28.347	0.048	56694	keystroke	n	n/a
28.427	0.096	56854	keystroke	i	n/a
28.531	0.064	57062	keystroke	z	n/a
28.715	0.12	57430	keystroke	a	n/a
28.811	0.104	57622	keystroke	t	n/a
28.867	0.104	57734	keystroke	i	n/a
28.939	0.08	57878	keystroke	o	n/a
29.1465	0.056	58293	keystroke	n	n/a
29.3225	0.04	58645	keystroke	s	n/a
29.4585	0.064	58917	keystroke	Key.space	n/a
29.6585	0.112	59317	keystroke	r	n/a
29.7305	0.096	59461	keystroke	e	n/a
29.9065	0.096	59813	keystroke	f	n/a
30.4105	0.096	60821	keystroke	e	n/a
30.6985	0.072	61397	keystroke	r	n/a
30.8825	0.112	61765	keystroke	r	n/a
30.9465	0.096	61893	keystroke	e	n/a
31.1225	0.121	62245	keystroke	d	n/a
31.251	0.12	62502	keystroke	Key.space	n/a
31.707	0.072	63414	keystroke	o	n/a
31.883	0.136	63766	keystroke	n	n/a
32.075	0.08	64150	keystroke	t	n/a
32.243	0.096	64486	keystroke	o	n/a
32.4665	0.096	64933	keystroke	Key.space	n/a
32.7785	0.064	65557	keystroke	r	n/a
32.8745	0.096	65749	keystroke	i	n/a
32.9865	0.096	65973	keystroke	v	n/a
33.1465	0.136	66293	keystroke	e	n/a
33.2185	0.144	66437	keystroke	r	n/a
33.3465	0.096	66693	keystroke	s	n/a
33.4665	0.096	66933	keystroke	Key.enter	n/a
33.568	10.9965	67136	prompt	n/a	theater geographic returns trips\n
34.3145	0.128	68629	keystroke	t	n/a
34.4185	0.096	68837	keystroke	h	n/a
34.5155	0.079	69031	keystroke	e	n/a
34.6915	0.087	69383	keystroke	a	n/a
34.8505	0.104	69701	keystroke	t	n/a
35.0905	0.1525	70181	keystroke	r	n/a
35.171	0.112	70342	keystroke	e	n/a
35.347	0.04	70694	keystroke	Key.space	n/a
35.691	0.064	71382	keystroke	Key.backspace	n/a
35.859	0.064	71718	keystroke	Key.backspace	n/a
36.003	0.088	72006	keystroke	Key.backspace	n/a
36.099	0.088	72198	keystroke	e	n/a
36.147	0.1195	72294	keystroke	r	n/a
36.2905	0.0885	72581	keystroke	Key.space	n/a
37.067	0.096	74134	keystroke	g	n/a
37.275	0.096	74550	keystroke	e	n/a
37.451	0.095	74902	keystroke	o	n/a
37.811	0.12	75622	keystroke	p	n/a
38.307	0.072	76614	keystroke	Key.backspace	n/a
39.082	0.0965	78164	keystroke	g	n/a
39.2665	0.08	78533	keystroke	r	n/a
39.4185	0.128	78837	keystroke	a	n/a
39.5145	0.088	79029	keystroke	p	n/a
39.6505	0.112	79301	keystroke	c	n/a
39.8985	0.072	79797	keystroke	i	n/a
40.3785	0.08	80757	keystroke	Key.backspace	n/a
40.7145	0.088	81429	keystroke	Key.backspace	n/a
41.003	0.056	82006	keystroke	h	n/a
41.179	0.0795	82358	keystroke	i	n/a
41.2985	0.112	82597	keystroke	c	n/a
42.1545	0.128	84309	keystroke	Key.space	n/a
42.3945	0.136	84789	keystroke	r	n/a
42.4745	0.104	84949	keystroke	e	n/a
42.6505	0.128	85301	keystroke	t	n/a
42.7795	0.087	85559	keystroke	u	n/a
42.8985	0.112	85797	keystroke	r	n/a
43.0585	0.088	86117	keystroke	n	n/a
43.1625	0.104	86325	keystroke	s	n/a
43.2985	0.104	86597	keystroke	Key.space	n/a
43.4185	0.112	86837	keystroke	t	n/a
43.6345	0.12	87269	keystroke	r	n/a
43.7945	0.072	87589	keystroke	i	n/a
43.9945	0.08	87989	keystroke	p	n/a
44.0985	0.072	88197	keystroke	s	n/a
44.4825	0.08	88965	keystroke	Key.enter	n/a
44.5685	7.9885	89137	prompt	n/a	fees angels cache canberra\n
45.322	0.089	90644	keystroke	f	n/a
45.474	0.0565	90948	keystroke	e	n/a
45.642	0.064	91284	keystroke	e	n/a
45.8665	0.0875	91733	keystroke	s	n/a
46.034	0.096	92068	keystroke	Key.space	n/a
46.227	0.12	92454	keystroke	a	n/a
46.355	0.096	92710	keystroke	n	n/a
46.483	0.088	92966	keystroke	g	n/a
46.659	0.064	93318	keystroke	e	n/a
46.827	0.088	93654	keystroke	l	n/a
46.987	0.08	93974	keystroke	s	n/a
47.091	0.088	94182	keystroke	Key.space	n/a
47.827	0.096	95654	keystroke	c	n/a
47.954	0.152	95908	keystroke	a	n/a
48.155	0.08	96310	keystroke	h	n/a
48.195	0.151	96390	keystroke	c	n/a
48.283	0.12	96566	keystroke	e	n/a
48.41	0.08	96820	keystroke	Key.space	n/a
48.922	0.048	97844	keystroke	Key.backspace	n/a
49.074	0.057	98148	keystroke	Key.backspace	n/a
49.235	0.056	98470	keystroke	Key.backspace	n/a
49.411	0.056	98822	keystroke	Key.backspace	n/a
49.499	0.08	98998	keystroke	c	n/a
49.651	0.072	99302	keystroke	h	n/a
49.755	0.048	99510	keystroke	e	n/a
49.859	0.08	99718	keystroke	Key.space	n/a
50.427	0.08	100854	keystroke	c	n/a
50.643	0.088	101286	keystroke	a	n/a
50.811	0.08	101622	keystroke	n	n/a
51.123	0.0795	102246	keystroke	b	n/a
51.403	0.111	102806	keystroke	e	n/a
51.834	0.104	103668	keystroke	r	n/a
52.026	0.088	104052	keystroke	r	n/a
52.219	0.112	104438	keystroke	a	n/a
52.4665	0.088	104933	keystroke	Key.enter	n/a
52.563	7.521	105126	prompt	n/a	awful amazon freight equipment\n
53.147	0.0795	106294	keystroke	a	n/a
53.3465	0.064	106693	keystroke	w	n/a
53.6265	0.096	107253	keystroke	f	n/a
53.7465	0.096	107493	keystroke	u	n/a
53.9545	0.096	107909	keystroke	l	n/a
54.1065	0.12	108213	keystroke	Key.space	n/a
54.6505	0.104	109301	keystroke	a	n/a
54.7865	0.088	109573	keystroke	m	n/a
54.9065	0.072	109813	keystroke	a	n/a
55.21	0.056	110420	keystroke	o	n/a
55.554	0.072	111108	keystroke	Key.backspace	n/a
55.618	0.112	111236	keystroke	z	n/a
55.786	0.064	111572	keystroke	o	n/a
55.954	0.072	111908	keystroke	n	n/a
56.059	0.104	112118	keystroke	Key.space	n/a
56.7785	0.096	113557	keystroke	f	n/a
57.0185	0.16	114037	keystroke	r	n/a
57.1065	0.1195	114213	keystroke	e	n/a
57.234	0.096	114468	keystroke	i	n/a
57.338	0.113	114676	keystroke	g	n/a
57.466	0.104	114932	keystroke	h	n/a
57.578	0.105	115156	keystroke	t	n/a
57.778	0.104	115556	keystroke	Key.space	n/a
58.554	0.104	117108	keystroke	e	n/a
58.754	0.08	117508	keystroke	q	n/a
58.858	0.112	117716	keystroke	u	n/a
58.915	0.079	117830	keystroke	i	n/a
59.106	0.08	118212	keystroke	p	n/a
59.3225	0.088	118645	keystroke	m	n/a
59.4265	0.112	118853	keystroke	e	n/a
59.5465	0.096	119093	keystroke	n	n/a
59.6585	0.096	119317	keystroke	t	n/a
60.0025	0.08	120005	keystroke	Key.enter	n/a
60.0885	10.531	120177	prompt	n/a	counts portions bible expires\n
60.738	0.096	121476	keystroke	c	n/a
60.842	0.128	121684	keystroke	o	n/a
60.922	0.072	121844	keystroke	u	n/a
61.114	0.088	122228	keystroke	n	n/a
61.2105	0.072	122421	keystroke	t	n/a
61.9385	0.08	123877	keystroke	s	n/a
62.131	0.08	124262	keystroke	Key.space	n/a
62.6025	0.088	125205	keystroke	p	n/a
63.0025	0.08	126005	keystroke	r	n/a
63.3785	0.04	126757	keystroke	Key.backspace	n/a
63.5865	0.08	127173	keystroke	o	n/a
63.7225	0.104	127445	keystroke	r	n/a
63.9785	0.104	127957	keystroke	t	n/a
64.0665	0.136	128133	keystroke	i	n/a
64.1625	0.08	128325	keystroke	o	n/a
64.3305	0.088	128661	keystroke	n	n/a
64.4345	0.08	128869	keystroke	s	n/a
65.2185	0.0875	130437	keystroke	Key.space	n/a
65.442	0.064	130884	keystroke	b	n/a
65.651	0.08	131302	keystroke	i	n/a
65.835	0.072	131670	keystroke	b	n/a
66.011	0.08	132022	keystroke	l	n/a
66.114	0.088	132228	keystroke	e	n/a
66.2265	0.096	132453	keystroke	Key.space	n/a
66.634	0.056	133268	keystroke	e	n/a
66.834	0.104	133668	keystroke	x	n/a
66.962	0.088	133924	keystroke	p	n/a
67.138	0.1765	134276	keystroke	r	n/a
67.2505	0.104	134501	keystroke	e	n/a
67.2745	0.072	134549	keystroke	i	n/a
67.7065	0.056	135413	keystroke	Key.backspace	n/a
67.8745	0.064	135749	keystroke	Key.backspace	n/a
68.0345	0.072	136069	keystroke	Key.backspace	n/a
68.2665	0.12	136533	keystroke	r	n/a
68.2825	0.072	136565	keystroke	i	n/a
68.3305	0.057	136661	keystroke	e	n/a
68.4825	0.096	136965	keystroke	s	n/a
68.8665	0.056	137733	keystroke	Key.backspace	n/a
69.0345	0.064	138069	keystroke	Key.backspace	n/a
69.2105	0.048	138421	keystroke	Key.backspace	n/a
69.3785	0.048	138757	keystroke	Key.backspace	n/a
69.7225	0.096	139445	keystroke	i	n/a
69.8585	0.128	139717	keystroke	r	n/a
69.8985	0.08	139797	keystroke	e	n/a
70.1065	0.104	140213	keystroke	s	n/a
70.5385	0.08	141077	keystroke	Key.enter	n/a
70.6235	7.1485	141247	prompt	n/a	heated retrieve phrase racing\n
71.4025	0.104	142805	keystroke	h	n/a
71.4905	0.064	142981	keystroke	e	n/a
71.6505	0.112	143301	keystroke	a	n/a
71.7545	0.144	143509	keystroke	t	n/a
71.8425	0.088	143685	keystroke	e	n/a
72.0185	0.08	144037	keystroke	d	n/a
72.1465	0.072	144293	keystroke	Key.space	n/a
72.7545	0.12	145509	keystroke	r	n/a
72.8025	0.112	145605	keystroke	e	n/a
73.0265	0.096	146053	keystroke	v	n/a
73.491	0.063	146982	keystroke	Key.backspace	n/a
73.547	0.088	147094	keystroke	t	n/a
73.699	0.104	147398	keystroke	r	n/a
73.843	0.104	147686	keystroke	i	n/a
74.003	0.088	148006	keystroke	e	n/a
74.283	0.12	148566	keystroke	v	n/a
74.411	0.104	148822	keystroke	e	n/a
74.578	0.112	149156	keystroke	Key.space	n/a
75.2825	0.08	150565	keystroke	p	n/a
75.5065	0.096	151013	keystroke	h	n/a
75.6265	0.096	151253	keystroke	r	n/a
75.8025	0.24	151605	keystroke	a	n/a
75.8665	0.208	151733	keystroke	s	n/a
75.9545	0.121	151909	keystroke	e	n/a
76.41	0.12	152820	keystroke	Key.space	n/a
76.874	0.104	153748	keystroke	r	n/a
77.05	0.128	154100	keystroke	a	n/a
77.106	0.128	154212	keystroke	c	n/a
77.202	0.073	154404	keystroke	i	n/a
77.371	0.08	154742	keystroke	n	n/a
77.475	0.072	154950	keystroke	g	n/a
77.691	0.08	155382	keystroke	Key.enter	n/a
77.775	15.9805	155550	prompt	n/a	possession produces feature up\n
78.379	0.064	156758	keystroke	p	n/a
78.579	0.064	157158	keystroke	o	n/a
78.667	0.0635	157334	keystroke	s	n/a
78.835	0.0875	157670	keystroke	s	n/a
79.059	0.0795	158118	keystroke	i	n/a
79.5225	0.064	159045	keystroke	Key.backspace	n/a
79.7305	0.072	159461	keystroke	s	n/a
79.9785	0.064	159957	keystroke	e	n/a
80.1705	0.08	160341	keystroke	s	n/a
80.3305	0.08	160661	keystroke	s	n/a
80.4345	0.12	160869	keystroke	i	n/a
80.5225	0.072	161045	keystroke	o	n/a
80.6905	0.08	161381	keystroke	n	n/a
80.8585	0.088	161717	keystroke	Key.space	n/a
81.6105	0.088	163221	keystroke	p	n/a
83.0105	0.064	166021	keystroke	=	n/a
83.4905	0.096	166981	keystroke	Key.backspace	n/a
83.7065	0.064	167413	keystroke	Key.backspace	n/a
83.8985	0.08	167797	keystroke	Key.backspace	n/a
84.0825	0.088	168165	keystroke	Key.backspace	n/a
85.322	0.112	170644	keystroke	Key.backspace	n/a
85.53	0.064	171060	keystroke	Key.backspace	n/a
85.69	0.072	171380	keystroke	Key.backspace	n/a
85.882	0.056	171764	keystroke	Key.backspace	n/a
86.042	0.08	172084	keystroke	Key.backspace	n/a
86.2265	0.08	172453	keystroke	Key.backspace	n/a
86.3385	0.072	172677	keystroke	e	n/a
86.5145	0.072	173029	keystroke	s	n/a
86.6745	0.08	173349	keystroke	s	n/a
86.8095	0.161	173619	keystroke	i	n/a
87.89	0.072	175780	keystroke	o	n/a
88.626	0.096	177252	keystroke	n	n/a
88.794	0.104	177588	keystroke	Key.space	n/a
89.3065	0.088	178613	keystroke	p	n/a
89.4185	0.096	178837	keystroke	r	n/a
89.5385	0.088	179077	keystroke	o	n/a
89.6345	0.088	179269	keystroke	d	n/a
89.8025	0.104	179605	keystroke	u	n/a
89.9465	0.136	179893	keystroke	c	n/a
90.2265	0.08	180453	keystroke	e	n/a
90.402	0.0965	180804	keystroke	s	n/a
90.7065	0.096	181413	keystroke	Key.space	n/a
91.0265	0.064	182053	keystroke	h	n/a
91.37	0.064	182740	keystroke	Key.backspace	n/a
91.41	0.12	182820	keystroke	f	n/a
91.506	0.08	183012	keystroke	e	n/a
91.698	0.104	183396	keystroke	a	n/a
91.882	0.128	183764	keystroke	t	n/a
92.058	0.104	184116	keystroke	u	n/a
92.122	0.136	184244	keystroke	r	n/a
92.186	0.088	184372	keystroke	e	n/a
92.33	0.096	184660	keystroke	Key.space	n/a
93.202	0.1045	186404	keystroke	u	n/a
93.4015	0.089	186803	keystroke	p	n/a
93.6815	0.072	187363	keystroke	Key.enter	n/a
93.7585	12.1645	187517	prompt	n/a	framing subdivision costume downloadable\n
94.4655	0.097	188931	keystroke	f	n/a
94.6585	0.047	189317	keystroke	r	n/a
94.7935	0.112	189587	keystroke	a	n/a
94.9855	0.08	189971	keystroke	m	n/a
95.1545	0.055	190309	keystroke	i	n/a
95.3225	0.0875	190645	keystroke	n	n/a
95.434	0.088	190868	keystroke	g	n/a
95.586	0.081	191172	keystroke	Key.space	n/a
96.066	0.104	192132	keystroke	s	n/a
96.2185	0.08	192437	keystroke	u	n/a
96.4265	0.08	192853	keystroke	b	n/a
96.7305	0.088	193461	keystroke	d	n/a
96.8425	0.08	193685	keystroke	i	n/a
97.1625	0.072	194325	keystroke	v	n/a
97.33	0.032	194660	keystroke	i	n/a
97.538	0.1035	195076	keystroke	s	n/a
97.69	0.1675	195380	keystroke	i	n/a
97.802	0.1195	195604	keystroke	o	n/a
97.9935	0.072	195987	keystroke	n	n/a
98.1535	0.112	196307	keystroke	Key.space	n/a
98.9225	0.08	197845	keystroke	s	n/a
99.2825	0.0555	198565	keystroke	Key.backspace	n/a
99.419	0.143	198838	keystroke	c	n/a
99.57	0.096	199140	keystroke	o	n/a
99.73	0.088	199460	keystroke	s	n/a
99.93	0.136	199860	keystroke	t	n/a
100.09	0.104	200180	keystroke	u	n/a
100.346	0.0875	200692	keystroke	m	n/a
100.458	0.0795	200916	keystroke	e	n/a
100.6015	0.088	201203	keystroke	Key.space	n/a
101.498	0.088	202996	keystroke	d	n/a
101.626	0.08	203252	keystroke	o	n/a
101.762	0.072	203524	keystroke	w	n/a
101.858	0.088	203716	keystroke	n	n/a
102.514	0.12	205028	keystroke	l	n/a
102.994	0.096	205988	keystroke	a	n/a
103.058	0.088	206116	keystroke	d	n/a
103.4255	0.056	206851	keystroke	Key.backspace	n/a
103.5935	0.056	207187	keystroke	Key.backspace	n/a
103.8095	0.064	207619	keystroke	o	n/a
103.9295	0.088	207859	keystroke	a	n/a
103.9855	0.08	207971	keystroke	d	n/a
105.2015	0.104	210403	keystroke	a	n/a
105.2895	0.056	210579	keystroke	b	n/a
105.482	0.072	210964	keystroke	l	n/a
105.594	0.072	211188	keystroke	e	n/a
105.866	0.056	211732	keystroke	Key.enter	n/a
105.926	8.125	211852	prompt	n/a	references collaboration standing youth\n
106.6655	0.136	213331	keystroke	r	n/a
106.7545	0.08	213509	keystroke	e	n/a
106.9215	0.112	213843	keystroke	f	n/a
107.0975	0.121	214195	keystroke	e	n/a
107.1775	0.096	214355	keystroke	r	n/a
107.7615	0.096	215523	keystroke	e	n/a
107.8975	0.096	215795	keystroke	n	n/a
107.9615	0.12	215923	keystroke	c	n/a
108.0335	0.088	216067	keystroke	e	n/a
108.2735	0.072	216547	keystroke	s	n/a
108.7055	0.12	217411	keystroke	Key.space	n/a
109.2815	0.104	218563	keystroke	c	n/a
109.3935	0.072	218787	keystroke	o	n/a
109.5855	0.056	219171	keystroke	l	n/a
109.7455	0.08	219491	keystroke	l	n/a
109.8655	0.104	219731	keystroke	a	n/a
110.1455	0.065	220291	keystroke	b	n/a
110.3135	0.08	220627	keystroke	o	n/a
110.4335	0.089	220867	keystroke	r	n/a
110.6105	0.111	221221	keystroke	a	n/a
110.6745	0.112	221349	keystroke	t	n/a
110.7455	0.104	221491	keystroke	i	n/a
110.8175	0.081	221635	keystroke	o	n/a
111.0095	0.08	222019	keystroke	n	n/a
111.2015	0.0645	222403	keystroke	Key.space	n/a
111.9375	0.072	223875	keystroke	s	n/a
112.0975	0.08	224195	keystroke	t	n/a
112.2255	0.096	224451	keystroke	a	n/a
112.3455	0.072	224691	keystroke	n	n/a
112.4575	0.112	224915	keystroke	d	n/a
112.5295	0.072	225059	keystroke	i	n/a
112.6895	0.096	225379	keystroke	n	n/a
112.8175	0.136	225635	keystroke	g	n/a
112.9375	0.096	225875	keystroke	Key.space	n/a
113.1775	0.1045	226355	keystroke	y	n/a
113.314	0.1595	226628	keystroke	o	n/a
113.4255	0.08	226851	keystroke	u	n/a
113.4975	0.096	226995	keystroke	t	n/a
113.6415	0.096	227283	keystroke	h	n/a
113.9615	0.088	227923	keystroke	Key.enter	n/a
114.0585	6.8325	228117	prompt	n/a	screening readers annual transport\n
114.6895	0.096	229379	keystroke	s	n/a
114.8735	0.112	229747	keystroke	c	n/a
115.1135	0.12	230227	keystroke	r	n/a
115.1935	0.088	230387	keystroke	e	n/a
115.3535	0.0965	230707	keystroke	e	n/a
115.514	0.096	231028	keystroke	n	n/a
115.698	0.08	231396	keystroke	i	n/a
115.866	0.096	231732	keystroke	n	n/a
116.01	0.104	232020	keystroke	g	n/a
116.146	0.0795	232292	keystroke	Key.space	n/a
116.4255	0.16	232851	keystroke	r	n/a
116.4975	0.12	232995	keystroke	e	n/a
116.6895	0.12	233379	keystroke	a	n/a
116.7695	0.12	233539	keystroke	d	n/a
116.9695	0.16	233939	keystroke	e	n/a
117.0655	0.12	234131	keystroke	r	n/a
117.2015	0.08	234403	keystroke	s	n/a
118.034	0.104	236068	keystroke	Key.space	n/a
118.202	0.112	236404	keystroke	a	n/a
118.346	0.048	236692	keystroke	n	n/a
118.522	0.04	237044	keystroke	n	n/a
118.714	0.096	237428	keystroke	u	n/a
118.834	0.096	237668	keystroke	a	n/a
118.97	0.096	237940	keystroke	l	n/a
119.146	0.112	238292	keystroke	Key.space	n/a
119.4815	0.088	238963	keystroke	t	n/a
119.6415	0.088	239283	keystroke	r	n/a
119.8255	0.128	239651	keystroke	a	n/a
119.9615	0.056	239923	keystroke	n	n/a
120.0735	0.112	240147	keystroke	s	n/a
120.2335	0.1685	240467	keystroke	p	n/a
120.2975	0.1205	240595	keystroke	o	n/a
120.402	0.088	240804	keystroke	r	n/a
120.602	0.072	241204	keystroke	t	n/a
120.794	0.096	241588	keystroke	Key.enter	n/a
120.894	10.077	241788	prompt	n/a	suspect transparency club resolved\n
121.5295	0.096	243059	keystroke	s	n/a
121.6495	0.12	243299	keystroke	u	n/a
121.7535	0.072	243507	keystroke	s	n/a
121.9855	0.08	243971	keystroke	p	n/a
122.1535	0.224	244307	keystroke	e	n/a
122.2975	0.12	244595	keystroke	c	n/a
122.5295	0.112	245059	keystroke	t	n/a
122.6335	0.096	245267	keystroke	Key.space	n/a
123.2335	0.08	246467	keystroke	t	n/a
123.4015	0.088	246803	keystroke	r	n/a
123.5535	0.128	247107	keystroke	a	n/a
123.6825	0.047	247365	keystroke	n	n/a
123.8095	0.088	247619	keystroke	s	n/a
124.0415	0.096	248083	keystroke	p	n/a
124.2495	0.104	248499	keystroke	a	n/a
124.3215	0.12	248643	keystroke	r	n/a
124.6015	0.072	249203	keystroke	e	n/a
124.7935	0.104	249587	keystroke	n	n/a
125.0655	0.104	250131	keystroke	c	n/a
125.2255	0.104	250451	keystroke	y	n/a
125.3775	0.1205	250755	keystroke	Key.space	n/a
126.01	0.088	252020	keystroke	s	n/a
126.194	0.0715	252388	keystroke	l	n/a
126.7135	0.056	253427	keystroke	Key.backspace	n/a
126.8415	0.072	253683	keystroke	c	n/a
127.1775	0.064	254355	keystroke	Key.backspace	n/a
127.3455	0.072	254691	keystroke	Key.backspace	n/a
127.458	0.112	254916	keystroke	c	n/a
127.578	0.064	255156	keystroke	l	n/a
127.746	0.072	255492	keystroke	u	n/a
127.946	0.064	255892	keystroke	b	n/a
128.098	0.088	256196	keystroke	Key.space	n/a
128.7615	0.184	257523	keystroke	r	n/a
128.8655	0.112	257731	keystroke	e	n/a
129.0815	0.104	258163	keystroke	s	n/a
129.2015	0.048	258403	keystroke	o	n/a
129.3535	0.1125	258707	keystroke	l	n/a
129.4255	0.1045	258851	keystroke	v	n/a
129.538	0.104	259076	keystroke	e	n/a
129.746	0.088	259492	keystroke	d	n/a
129.858	0.104	259716	keystroke	Key.space	n/a
130.5855	0.088	261171	keystroke	Key.backspace	n/a
130.8815	0.088	261763	keystroke	Key.enter	n/a
130.9735	10.917	261947	prompt	n/a	assessing visitors than mining\n
131.8895	0.12	263779	keystroke	a	n/a
132.0015	0.0235	264003	keystroke	s	n/a
132.1455	0.072	264291	keystroke	s	n/a
132.537	0.08	265074	keystroke	s	n/a
132.729	0.0565	265458	keystroke	e	n/a
133.049	0.0565	266098	keystroke	s	n/a
133.225	0.0565	266450	keystroke	s	n/a
133.3295	0.072	266659	keystroke	i	n/a
133.8655	0.016	267731	keystroke	=	n/a
133.9935	0.072	267987	keystroke	Key.backspace	n/a
134.1695	0.056	268339	keystroke	Key.backspace	n/a
134.3135	0.08	268627	keystroke	Key.backspace	n/a
134.4815	0.08	268963	keystroke	Key.backspace	n/a
134.6655	0.08	269331	keystroke	Key.backspace	n/a
134.8415	0.072	269683	keystroke	Key.backspace	n/a
134.9695	0.048	269939	keystroke	e	n/a
135.1855	0.024	270371	keystroke	s	n/a
135.3375	0.048	270675	keystroke	s	n/a
135.6335	0.064	271267	keystroke	g	n/a
136.1375	0.056	272275	keystroke	Key.backspace	n/a
136.369	0.04	272738	keystroke	i	n/a
136.513	0.096	273026	keystroke	n	n/a
136.625	0.096	273250	keystroke	g	n/a
136.729	0.096	273458	keystroke	Key.space	n/a
137.7535	0.096	275507	keystroke	v	n/a
137.9295	0.112	275859	keystroke	i	n/a
138.0425	0.103	276085	keystroke	s	n/a
138.1855	0.064	276371	keystroke	i	n/a
138.9455	0.088	277891	keystroke	t	n/a
139.0415	0.112	278083	keystroke	o	n/a
139.1695	0.104	278339	keystroke	r	n/a
139.3615	0.064	278723	keystroke	s	n/a
139.4255	0.12	278851	keystroke	Key.space	n/a
139.8975	0.088	279795	keystroke	t	n/a
139.9775	0.088	279955	keystroke	h	n/a
140.1935	0.104	280387	keystroke	a	n/a
140.3135	0.104	280627	keystroke	n	n/a
140.4655	0.072	280931	keystroke	Key.space	n/a
140.6815	0.096	281363	keystroke	m	n/a
140.8815	0.072	281763	keystroke	i	n/a
141.0495	0.12	282099	keystroke	n	n/a
141.266	0.063	282532	keystroke	i	n/a
141.473	0.104	282946	keystroke	n	n/a
141.593	0.088	283186	keystroke	g	n/a
141.801	0.088	283602	keystroke	Key.enter	n/a
141.894	7.7485	283788	prompt	n/a	luck jackets selective bizarre\n
142.569	0.064	285138	keystroke	l	n/a
142.737	0.081	285474	keystroke	u	n/a
142.825	0.104	285650	keystroke	c	n/a
142.961	0.08	285922	keystroke	k	n/a
143.089	0.104	286178	keystroke	Key.space	n/a
143.329	0.088	286658	keystroke	j	n/a
143.513	0.112	287026	keystroke	a	n/a
143.561	0.128	287122	keystroke	c	n/a
143.753	0.096	287506	keystroke	k	n/a
143.913	0.12	287826	keystroke	e	n/a
144.121	0.136	288242	keystroke	t	n/a
144.241	0.072	288482	keystroke	s	n/a
144.737	0.12	289474	keystroke	Key.space	n/a
145.193	0.088	290386	keystroke	s	n/a
145.393	0.104	290786	keystroke	e	n/a
145.8815	0.104	291763	keystroke	l	n/a
146.0655	0.1835	292131	keystroke	e	n/a
146.1455	0.1275	292291	keystroke	c	n/a
146.769	0.104	293538	keystroke	t	n/a
146.89	0.087	293780	keystroke	i	n/a
147.025	0.104	294050	keystroke	v	n/a
147.13	0.111	294260	keystroke	e	n/a
147.209	0.104	294418	keystroke	Key.space	n/a
148.0415	0.088	296083	keystroke	b	n/a
148.2655	0.096	296531	keystroke	i	n/a
148.5135	0.08	297027	keystroke	z	n/a
148.8095	0.096	297619	keystroke	a	n/a
149.0095	0.072	298019	keystroke	r	n/a
149.2015	0.112	298403	keystroke	r	n/a
149.3535	0.08	298707	keystroke	e	n/a
149.5775	0.064	299155	keystroke	Key.enter	n/a
149.6495	7.1855	299299	prompt	n/a	prep always delaware i'll\n
151.4895	0.096	302979	keystroke	p	n/a
151.5855	0.136	303171	keystroke	r	n/a
151.6575	0.088	303315	keystroke	e	n/a
151.7615	0.096	303523	keystroke	p	n/a
152.0415	0.072	304083	keystroke	Key.space	n/a
152.3695	0.12	304739	keystroke	a	n/a
152.5135	0.112	305027	keystroke	l	n/a
152.6335	0.056	305267	keystroke	w	n/a
152.7935	0.112	305587	keystroke	a	n/a
152.9535	0.0875	305907	keystroke	y	n/a
153.081	0.056	306162	keystroke	s	n/a
153.217	0.104	306434	keystroke	Key.space	n/a
154.2415	0.056	308483	keystroke	d	n/a
154.3855	0.088	308771	keystroke	e	n/a
154.5055	0.064	309011	keystroke	l	n/a
154.6015	0.104	309203	keystroke	a	n/a
154.9935	0.064	309987	keystroke	w	n/a
155.1935	0.088	310387	keystroke	a	n/a
155.2575	0.136	310515	keystroke	r	n/a
155.3295	0.088	310659	keystroke	e	n/a
155.601	0.096	311202	keystroke	Key.space	n/a
155.817	0.08	311634	keystroke	i	n/a
156.153	0.0805	312306	keystroke	'	n/a
156.3535	0.072	312707	keystroke	l	n/a
156.5295	0.048	313059	keystroke	l	n/a
156.7615	0.072	313523	keystroke	Key.enter	n/a
156.839	11.5395	313678	prompt	n/a	cruises exhibits curve promised\n
157.5455	0.1195	315091	keystroke	c	n/a
157.801	0.104	315602	keystroke	r	n/a
157.945	0.104	315890	keystroke	u	n/a
158.265	0.08	316530	keystroke	i	n/a
158.417	0.096	316834	keystroke	s	n/a
158.633	0.072	317266	keystroke	e	n/a
158.793	0.08	317586	keystroke	s	n/a
158.993	0.12	317986	keystroke	Key.space	n/a
159.337	0.08	318674	keystroke	e	n/a
160.0655	0.104	320131	keystroke	x	n/a
160.2415	0.072	320483	keystroke	h	n/a
160.3855	0.096	320771	keystroke	i	n/a
160.9135	0.08	321827	keystroke	b	n/a
161.105	0.0965	322210	keystroke	i	n/a
161.2415	0.096	322483	keystroke	t	n/a
161.4575	0.088	322915	keystroke	s	n/a
163.2965	0.112	326593	keystroke	Key.space	n/a
163.5365	0.0965	327073	keystroke	c	n/a
163.665	0.088	327330	keystroke	u	n/a
163.769	0.056	327538	keystroke	r	n/a
163.961	0.096	327922	keystroke	v	n/a
164.041	0.12	328082	keystroke	e	n/a
164.169	0.104	328338	keystroke	Key.space	n/a
164.617	0.096	329234	keystroke	p	n/a
164.745	0.104	329490	keystroke	r	n/a
164.873	0.064	329746	keystroke	o	n/a
165.049	0.08	330098	keystroke	m	n/a
165.185	0.096	330370	keystroke	i	n/a
165.297	0.104	330594	keystroke	s	n/a
165.449	0.064	330898	keystroke	i	n/a
165.6175	0.104	331235	keystroke	n	n/a
165.7455	0.12	331491	keystroke	g	n/a
166.601	0.088	333202	keystroke	Key.backspace	n/a
166.793	0.072	333586	keystroke	Key.backspace	n/a
166.977	0.072	333954	keystroke	Key.backspace	n/a
167.105	0.088	334210	keystroke	e	n/a
167.281	0.096	334562	keystroke	d	n/a
168.2645	0.112	336529	keystroke	Key.enter	n/a
168.3835	12.299	336767	prompt	n/a	spend clinic financial efforts\n
168.977	0.1035	337954	keystroke	s	n/a
169.1125	0.08	338225	keystroke	p	n/a
169.2165	0.064	338433	keystroke	e	n/a
169.3365	0.0805	338673	keystroke	n	n/a
169.4005	0.096	338801	keystroke	d	n/a
169.5285	0.1045	339057	keystroke	Key.space	n/a
170.353	0.112	340706	keystroke	c	n/a
170.441	0.072	340882	keystroke	l	n/a
170.609	0.064	341218	keystroke	i	n/a
170.769	0.08	341538	keystroke	n	n/a
171.017	0.104	342034	keystroke	i	n/a
171.145	0.1045	342290	keystroke	c	n/a
171.2735	0.088	342547	keystroke	Key.space	n/a
173.0415	0.096	346083	keystroke	f	n/a
173.1455	0.064	346291	keystroke	i	n/a
173.297	0.08	346594	keystroke	n	n/a
173.441	0.08	346882	keystroke	a	n/a
173.537	0.08	347074	keystroke	n	n/a
173.705	0.128	347410	keystroke	c	n/a
173.857	0.088	347714	keystroke	i	n/a
174.041	0.096	348082	keystroke	a	n/a
174.145	0.08	348290	keystroke	l	n/a
174.297	0.08	348594	keystroke	Key.space	n/a
175.377	0.08	350754	keystroke	e	n/a
176.889	0.072	353778	keystroke	f	n/a
177.377	0.096	354754	keystroke	r	n/a
177.7775	0.072	355555	keystroke	=	n/a
177.8575	0.08	355715	keystroke	f	n/a
178.0255	0.064	356051	keystroke	o	n/a
178.2975	0.0795	356595	keystroke	Key.backspace	n/a
178.473	0.072	356946	keystroke	Key.backspace	n/a
178.649	0.0725	357298	keystroke	Key.backspace	n/a
178.801	0.072	357602	keystroke	Key.backspace	n/a
179.289	0.072	358578	keystroke	f	n/a
179.5135	0.0795	359027	keystroke	o	n/a
179.601	0.1035	359202	keystroke	r	n/a
179.8165	0.137	359633	keystroke	t	n/a
179.9125	0.064	359825	keystroke	s	n/a
180.6085	0.072	361217	keystroke	Key.enter	n/a
180.6855	8.717	361371	prompt	n/a	corners unsigned reservation penalty\n
181.529	0.1035	363058	keystroke	c	n/a
181.6335	0.071	363267	keystroke	o	n/a
181.8405	0.104	363681	keystroke	r	n/a
182.0085	0.088	364017	keystroke	n	n/a
182.1205	0.104	364241	keystroke	e	n/a
182.2005	0.049	364401	keystroke	r	n/a
182.465	0.064	364930	keystroke	s	n/a
183.153	0.096	366306	keystroke	Key.space	n/a
183.585	0.064	367170	keystroke	u	n/a
183.753	0.088	367506	keystroke	n	n/a
184.033	0.056	368066	keystroke	s	n/a
184.153	0.072	368306	keystroke	i	n/a
184.313	0.1115	368626	keystroke	g	n/a
184.4655	0.103	368931	keystroke	n	n/a
184.5765	0.064	369153	keystroke	e	n/a
184.7765	0.097	369553	keystroke	d	n/a
184.9125	0.112	369825	keystroke	Key.space	n/a
185.7685	0.1525	371537	keystroke	r	n/a
185.849	0.064	371698	keystroke	e	n/a
186.0085	0.112	372017	keystroke	s	n/a
186.1365	0.152	372273	keystroke	e	n/a
186.2325	0.073	372465	keystroke	r	n/a
186.4245	0.081	372849	keystroke	v	n/a
186.8165	0.088	373633	keystroke	a	n/a
186.8885	0.12	373777	keystroke	t	n/a
186.9765	0.105	373953	keystroke	i	n/a
187.0255	0.087	374051	keystroke	o	n/a
187.2245	0.072	374449	keystroke	n	n/a
187.3685	0.136	374737	keystroke	Key.space	n/a
188.0085	0.072	376017	keystroke	p	n/a
188.1685	0.072	376337	keystroke	e	n/a
188.2485	0.08	376497	keystroke	n	n/a
188.4245	0.064	376849	keystroke	a	n/a
188.6165	0.072	377233	keystroke	l	n/a
188.7525	0.104	377505	keystroke	t	n/a
188.9205	0.096	377841	keystroke	y	n/a
189.3045	0.096	378609	keystroke	Key.enter	n/a
189.4055	8.8045	378811	prompt	n/a	exists soap florists veterans\n
190.057	0.072	380114	keystroke	e	n/a
190.233	0.072	380466	keystroke	x	n/a
190.353	0.088	380706	keystroke	i	n/a
190.4725	0.04	380945	keystroke	s	n/a
190.8885	0.096	381777	keystroke	t	n/a
191.0645	0.064	382129	keystroke	s	n/a
191.225	0.104	382450	keystroke	Key.space	n/a
192.009	0.0715	384018	keystroke	o	n/a
192.6405	0.064	385281	keystroke	Key.backspace	n/a
192.8485	0.12	385697	keystroke	s	n/a
193.3045	0.104	386609	keystroke	o	n/a
193.4725	0.104	386945	keystroke	a	n/a
193.5925	0.0725	387185	keystroke	p	n/a
193.929	0.112	387858	keystroke	Key.space	n/a
194.201	0.104	388402	keystroke	f	n/a
194.369	0.064	388738	keystroke	l	n/a
194.561	0.088	389122	keystroke	o	n/a
194.697	0.072	389394	keystroke	r	n/a
194.817	0.104	389634	keystroke	i	n/a
194.937	0.096	389874	keystroke	s	n/a
195.113	0.136	390226	keystroke	t	n/a
195.241	0.072	390482	keystroke	s	n/a
195.673	0.112	391346	keystroke	Key.space	n/a
196.001	0.064	392002	keystroke	e	n/a
196.193	0.0955	392386	keystroke	v	n/a
196.5045	0.056	393009	keystroke	Key.backspace	n/a
196.6565	0.08	393313	keystroke	Key.backspace	n/a
196.7205	0.088	393441	keystroke	v	n/a
196.8725	0.104	393745	keystroke	e	n/a
197.0165	0.128	394033	keystroke	t	n/a
197.1285	0.152	394257	keystroke	e	n/a
197.2325	0.096	394465	keystroke	r	n/a
197.3925	0.104	394785	keystroke	a	n/a
197.5365	0.056	395073	keystroke	n	n/a
197.6325	0.0725	395265	keystroke	s	n/a
198.137	0.072	396274	keystroke	Key.enter	n/a
198.214	7.108	396428	prompt	n/a	varieties block driver sally\n
198.921	0.12	397842	keystroke	v	n/a
199.121	0.128	398242	keystroke	a	n/a
199.241	0.112	398482	keystroke	r	n/a
199.449	0.096	398898	keystroke	i	n/a
199.617	0.1035	399234	keystroke	e	n/a
199.7925	0.12	399585	keystroke	t	n/a
200.1125	0.12	400225	keystroke	i	n/a
200.2245	0.04	400449	keystroke	e	n/a
200.3765	0.072	400753	keystroke	s	n/a
200.4885	0.112	400977	keystroke	Key.space	n/a
200.8245	0.072	401649	keystroke	b	n/a
200.9845	0.072	401969	keystroke	l	n/a
201.1605	0.0725	402321	keystroke	o	n/a
201.313	0.12	402626	keystroke	c	n/a
201.441	0.104	402882	keystroke	k	n/a
201.56	0.096	403120	keystroke	Key.space	n/a
201.689	0.087	403378	keystroke	d	n/a
201.92	0.128	403840	keystroke	i	n/a
202.096	0.096	404192	keystroke	r	n/a
202.448	0.072	404896	keystroke	Key.backspace	n/a
202.608	0.056	405216	keystroke	Key.backspace	n/a
202.704	0.08	405408	keystroke	r	n/a
202.856	0.064	405712	keystroke	i	n/a
202.936	0.08	405872	keystroke	v	n/a
203.12	0.136	406240	keystroke	e	n/a
203.208	0.104	406416	keystroke	r	n/a
203.264	0.152	406528	keystroke	Key.space	n/a
203.672	0.1285	407344	keystroke	r	n/a
203.7205	0.104	407441	keystroke	e	n/a
204.0805	0.056	408161	keystroke	Key.backspace	n/a
204.2325	0.08	408465	keystroke	Key.backspace	n/a
204.3285	0.072	408657	keystroke	s	n/a
204.4885	0.12	408977	keystroke	a	n/a
204.5605	0.064	409121	keystroke	l	n/a
204.7125	0.08	409425	keystroke	l	n/a
204.9685	0.088	409937	keystroke	y	n/a
205.2485	0.072	410497	keystroke	Key.enter	n/a
205.3265	9.755	410653	prompt	n/a	undergraduate substances treasures otherwise\n
206.0645	0.072	412129	keystroke	u	n/a
206.272	0.08	412544	keystroke	n	n/a
206.648	0.04	413296	keystroke	d	n/a
206.8	0.136	413600	keystroke	e	n/a
206.872	0.096	413744	keystroke	r	n/a
207.08	0.08	414160	keystroke	g	n/a
207.256	0.056	414512	keystroke	r	n/a
207.416	0.104	414832	keystroke	a	n/a
207.7285	0.136	415457	keystroke	d	n/a
207.9445	0.12	415889	keystroke	u	n/a
208.0805	0.104	416161	keystroke	a	n/a
208.1685	0.128	416337	keystroke	t	n/a
208.2485	0.104	416497	keystroke	e	n/a
208.3765	0.112	416753	keystroke	Key.space	n/a
209.0805	0.104	418161	keystroke	s	n/a
209.2245	0.088	418449	keystroke	u	n/a
209.4325	0.08	418865	keystroke	b	n/a
209.5685	0.104	419137	keystroke	s	n/a
209.777	0.088	419554	keystroke	t	n/a
209.921	0.12	419842	keystroke	a	n/a
210.033	0.072	420066	keystroke	n	n/a
210.129	0.144	420258	keystroke	c	n/a
210.225	0.0955	420450	keystroke	e	n/a
210.393	0.08	420786	keystroke	s	n/a
210.905	0.096	421810	keystroke	Key.space	n/a
211.193	0.0875	422386	keystroke	t	n/a
211.3685	0.12	422737	keystroke	r	n/a
211.3925	0.08	422785	keystroke	e	n/a
211.5845	0.128	423169	keystroke	a	n/a
211.6965	0.1595	423393	keystroke	s	n/a
212.048	0.112	424096	keystroke	u	n/a
212.152	0.12	424304	keystroke	r	n/a
212.192	0.096	424384	keystroke	e	n/a
212.392	0.08	424784	keystroke	s	n/a
213.208	0.104	426416	keystroke	Key.space	n/a
213.52	0.088	427040	keystroke	o	n/a
213.664	0.104	427328	keystroke	t	n/a
213.784	0.104	427568	keystroke	h	n/a
213.816	0.208	427632	keystroke	e	n/a
214.112	0.176	428224	keystroke	r	n/a
214.376	0.096	428752	keystroke	w	n/a
214.52	0.088	429040	keystroke	i	n/a
214.632	0.224	429264	keystroke	s	n/a
214.712	0.16	429424	keystroke	e	n/a
214.976	0.104	429952	keystroke	Key.enter	n/a
215.0845	10.2295	430169	prompt	n/a	pantyhose excel tribune philippines\n
215.728	0.0805	431456	keystroke	p	n/a
215.8885	0.08	431777	keystroke	a	n/a
215.9695	0.071	431939	keystroke	n	n/a
216.1685	0.0965	432337	keystroke	y	n/a
216.313	0.1195	432626	keystroke	t	n/a
216.4725	0.128	432945	keystroke	h	n/a
216.6245	0.08	433249	keystroke	o	n/a
216.9925	0.072	433985	keystroke	Key.backspace	n/a
217.1525	0.072	434305	keystroke	Key.backspace	n/a
217.3285	0.048	434657	keystroke	Key.backspace	n/a
217.4965	0.048	434993	keystroke	Key.backspace	n/a
217.5605	0.104	435121	keystroke	t	n/a
217.7525	0.08	435505	keystroke	y	n/a
218.1925	0.088	436385	keystroke	h	n/a
218.3845	0.0725	436769	keystroke	o	n/a
218.529	0.192	437058	keystroke	s	n/a
218.633	0.096	437266	keystroke	e	n/a
218.721	0.104	437442	keystroke	Key.space	n/a
219.393	0.072	438786	keystroke	e	n/a
219.569	0.072	439138	keystroke	x	n/a
219.753	0.127	439506	keystroke	c	n/a
219.872	0.121	439744	keystroke	e	n/a
220.016	0.072	440032	keystroke	l	n/a
220.184	0.12	440368	keystroke	Key.space	n/a
220.6325	0.088	441265	keystroke	t	n/a
220.8325	0.096	441665	keystroke	r	n/a
220.9925	0.056	441985	keystroke	i	n/a
221.624	0.08	443248	keystroke	b	n/a
221.824	0.0725	443648	keystroke	u	n/a
222.0325	0.088	444065	keystroke	n	n/a
222.1365	0.072	444273	keystroke	e	n/a
222.7605	0.112	445521	keystroke	Key.space	n/a
222.9845	0.08	445969	keystroke	p	n/a
223.1845	0.144	446369	keystroke	h	n/a
223.3125	0.104	446625	keystroke	i	n/a
223.5285	0.04	447057	keystroke	l	n/a
223.7045	0.056	447409	keystroke	l	n/a
224.0085	0.088	448017	keystroke	i	n/a
224.2315	0.057	448463	keystroke	p	n/a
224.4165	0.08	448833	keystroke	p	n/a
224.6245	0.072	449249	keystroke	i	n/a
224.8165	0.08	449633	keystroke	n	n/a
224.8885	0.072	449777	keystroke	e	n/a
225.0565	0.096	450113	keystroke	s	n/a
225.2245	0.088	450449	keystroke	Key.enter	n/a
225.3165	6.749	450633	prompt	n/a	procurement thumb coins robert\n
225.936	0.08	451872	keystroke	p	n/a
226.072	0.088	452144	keystroke	r	n/a
226.168	0.0725	452336	keystroke	o	n/a
226.3125	0.088	452625	keystroke	c	n/a
226.4405	0.088	452881	keystroke	u	n/a
226.5845	0.144	453169	keystroke	r	n/a
226.7205	0.08	453441	keystroke	e	n/a
226.9125	0.088	453825	keystroke	m	n/a
227.0645	0.096	454129	keystroke	e	n/a
227.1525	0.096	454305	keystroke	n	n/a
227.2725	0.104	454545	keystroke	t	n/a
227.4485	0.112	454897	keystroke	Key.space	n/a
227.7765	0.112	455553	keystroke	t	n/a
227.8795	0.081	455759	keystroke	h	n/a
228.0485	0.072	456097	keystroke	u	n/a
228.2325	0.096	456465	keystroke	m	n/a
228.3445	0.096	456689	keystroke	b	n/a
228.8645	0.072	457729	keystroke	Key.space	n/a
229.2165	0.096	458433	keystroke	c	n/a
229.3045	0.152	458609	keystroke	o	n/a
229.3765	0.072	458753	keystroke	i	n/a
229.5605	0.08	459121	keystroke	n	n/a
229.6885	0.08	459377	keystroke	s	n/a
229.832	0.1035	459664	keystroke	Key.space	n/a
230.5195	0.056	461039	keystroke	c	n/a
230.8235	0.064	461647	keystroke	Key.backspace	n/a
230.9355	0.088	461871	keystroke	r	n/a
231.0555	0.057	462111	keystroke	o	n/a
231.4005	0.088	462801	keystroke	b	n/a
231.5925	0.144	463185	keystroke	e	n/a
231.6565	0.12	463313	keystroke	r	n/a
231.8485	0.096	463697	keystroke	t	n/a
231.9765	0.088	463953	keystroke	Key.enter	n/a
232.069	9.8765	464138	prompt	n/a	music spelling focused zero\n
232.9205	0.088	465841	keystroke	m	n/a
233.0885	0.08	466177	keystroke	s	n/a
233.2165	0.072	466433	keystroke	u	n/a
233.4245	0.072	466849	keystroke	i	n/a
233.9035	0.056	467807	keystroke	Key.backspace	n/a
234.0715	0.056	468143	keystroke	Key.backspace	n/a
234.2235	0.048	468447	keystroke	Key.backspace	n/a
234.4875	0.08	468975	keystroke	u	n/a
234.6005	0.071	469201	keystroke	s	n/a
234.7675	0.104	469535	keystroke	i	n/a
234.9195	0.088	469839	keystroke	c	n/a
235.0085	0.095	470017	keystroke	Key.space	n/a
236.2085	0.088	472417	keystroke	s	n/a
236.4165	0.064	472833	keystroke	p	n/a
236.6005	0.096	473201	keystroke	e	n/a
236.7605	0.064	473521	keystroke	l	n/a
236.9205	0.056	473841	keystroke	l	n/a
237.0805	0.064	474161	keystroke	i	n/a
237.2325	0.08	474465	keystroke	n	n/a
237.3445	0.056	474689	keystroke	g	n/a
237.4405	0.064	474881	keystroke	Key.space	n/a
238.064	0.08	476128	keystroke	f	n/a
238.152	0.096	476304	keystroke	o	n/a
238.296	0.112	476592	keystroke	c	n/a
238.409	0.103	476818	keystroke	u	n/a
238.552	0.032	477104	keystroke	e	n/a
239.24	0.072	478480	keystroke	Key.backspace	n/a
239.336	0.08	478672	keystroke	s	n/a
239.472	0.064	478944	keystroke	e	n/a
239.672	0.04	479344	keystroke	d	n/a
239.72	0.088	479440	keystroke	Key.space	n/a
240.2725	0.064	480545	keystroke	z	n/a
240.4325	0.088	480865	keystroke	e	n/a
240.6165	0.128	481233	keystroke	i	n/a
240.7205	0.08	481441	keystroke	o	n/a
241.224	0.056	482448	keystroke	Key.backspace	n/a
241.376	0.056	482752	keystroke	Key.backspace	n/a
241.433	0.111	482866	keystroke	r	n/a
241.6	0.064	483200	keystroke	o	n/a
241.888	0.056	483776	keystroke	Key.enter	n/a
241.961	12.8165	483922	prompt	n/a	eyes sensitivity traffic johnson\n
242.5195	0.072	485039	keystroke	e	n/a
242.8315	0.072	485663	keystroke	e	n/a
242.9595	0.112	485919	keystroke	y	n/a
243.3195	0.056	486639	keystroke	Key.backspace	n/a
243.4715	0.056	486943	keystroke	Key.backspace	n/a
243.7115	0.072	487423	keystroke	y	n/a
243.7515	0.064	487503	keystroke	e	n/a
243.912	0.064	487824	keystroke	s	n/a
244.008	0.112	488016	keystroke	Key.space	n/a
244.5365	0.095	489073	keystroke	s	n/a
244.7195	0.08	489439	keystroke	e	n/a
244.8395	0.072	489679	keystroke	n	n/a
244.9515	0.088	489903	keystroke	s	n/a
245.6875	0.096	491375	keystroke	i	n/a
246.2165	0.064	492433	keystroke	t	n/a
246.4875	0.088	492975	keystroke	i	n/a
246.6475	0.072	493295	keystroke	t	n/a
247.2795	0.056	494559	keystroke	Key.backspace	n/a
247.4475	0.096	494895	keystroke	v	n/a
247.888	0.056	495776	keystroke	t	n/a
248.28	0.048	496560	keystroke	Key.backspace	n/a
248.5035	0.08	497007	keystroke	i	n/a
248.6315	0.104	497263	keystroke	t	n/a
248.7995	0.088	497599	keystroke	y	n/a
248.9355	0.088	497871	keystroke	Key.space	n/a
249.464	0.112	498928	keystroke	r	n/a
249.8725	0.0555	499745	keystroke	Key.backspace	n/a
249.888	0.096	499776	keystroke	t	n/a
250.056	0.096	500112	keystroke	r	n/a
250.24	0.112	500480	keystroke	a	n/a
250.464	0.088	500928	keystroke	f	n/a
250.656	0.072	501312	keystroke	f	n/a
250.824	0.08	501648	keystroke	i	n/a
250.912	0.096	501824	keystroke	c	n/a
251.032	0.104	502064	keystroke	Key.space	n/a
251.5035	0.096	503007	keystroke	j	n/a
251.7355	0.096	503471	keystroke	o	n/a
252.064	0.104	504128	keystroke	h	n/a
252.344	0.072	504688	keystroke	s	n/a
253.248	0.072	506496	keystroke	Key.backspace	n/a
253.488	0.064	506976	keystroke	n	n/a
253.608	0.064	507216	keystroke	s	n/a
254.008	0.072	508016	keystroke	o	n/a
254.2	0.088	508400	keystroke	n	n/a
254.712	0.064	509424	keystroke	Key.enter	n/a
254.78	6.1335	509560	prompt	n/a	connect attempt hours cultures\n
255.416	0.088	510832	keystroke	c	n/a
255.544	0.08	511088	keystroke	o	n/a
255.728	0.064	511456	keystroke	n	n/a
255.888	0.0875	511776	keystroke	n	n/a
255.9845	0.143	511969	keystroke	e	n/a
256.0395	0.081	512079	keystroke	c	n/a
256.272	0.08	512544	keystroke	t	n/a
256.384	0.08	512768	keystroke	Key.space	n/a
256.8	0.072	513600	keystroke	a	n/a
256.952	0.088	513904	keystroke	t	n/a
257.136	0.112	514272	keystroke	t	n/a
257.256	0.128	514512	keystroke	e	n/a
257.376	0.136	514752	keystroke	m	n/a
257.512	0.097	515024	keystroke	p	n/a
257.624	0.096	515248	keystroke	t	n/a
257.8	0.072	515600	keystroke	Key.space	n/a
258.304	0.08	516608	keystroke	h	n/a
258.456	0.112	516912	keystroke	o	n/a
258.528	0.104	517056	keystroke	u	n/a
258.64	0.088	517280	keystroke	r	n/a
258.808	0.08	517616	keystroke	s	n/a
259.144	0.112	518288	keystroke	Key.space	n/a
259.544	0.12	519088	keystroke	c	n/a
259.8	0.096	519600	keystroke	u	n/a
260.0085	0.0865	520017	keystroke	l	n/a
260.1685	0.096	520337	keystroke	t	n/a
260.3285	0.12	520657	keystroke	u	n/a
260.4085	0.104	520817	keystroke	r	n/a
260.4485	0.088	520897	keystroke	e	n/a
260.632	0.072	521264	keystroke	s	n/a
260.832	0.08	521664	keystroke	Key.enter	n/a
260.9185	6.899	521837	prompt	n/a	wearing alto what gasoline\n
261.632	0.072	523264	keystroke	w	n/a
261.896	0.0955	523792	keystroke	e	n/a
262.1445	0.095	524289	keystroke	e	n/a
262.6315	0.064	525263	keystroke	Key.backspace	n/a
262.7035	0.073	525407	keystroke	a	n/a
262.7435	0.088	525487	keystroke	r	n/a
262.9035	0.048	525807	keystroke	i	n/a
263.0555	0.088	526111	keystroke	n	n/a
263.1355	0.104	526271	keystroke	g	n/a
263.2955	0.096	526591	keystroke	Key.space	n/a
263.8475	0.096	527695	keystroke	a	n/a
263.9835	0.088	527967	keystroke	l	n/a
264.2555	0.096	528511	keystroke	s	n/a
264.6155	0.056	529231	keystroke	Key.backspace	n/a
264.7195	0.064	529439	keystroke	t	n/a
264.8555	0.064	529711	keystroke	o	n/a
265.0235	0.08	530047	keystroke	Key.space	n/a
265.6315	0.048	531263	keystroke	w	n/a
265.7515	0.104	531503	keystroke	h	n/a
265.8715	0.104	531743	keystroke	a	n/a
265.9515	0.096	531903	keystroke	t	n/a
266.0875	0.144	532175	keystroke	Key.space	n/a
266.3275	0.121	532655	keystroke	g	n/a
266.4875	0.144	532975	keystroke	a	n/a
266.5675	0.112	533135	keystroke	s	n/a
266.9205	0.087	533841	keystroke	o	n/a
267.1675	0.064	534335	keystroke	l	n/a
267.3355	0.064	534671	keystroke	i	n/a
267.4955	0.073	534991	keystroke	n	n/a
267.5845	0.071	535169	keystroke	e	n/a
267.7435	0.072	535487	keystroke	Key.enter	n/a
267.821	8.484	535642	prompt	n/a	deep deviation town unnecessary\n
268.48	0.072	536960	keystroke	d	n/a
268.648	0.08	537296	keystroke	e	n/a
269.04	0.072	538080	keystroke	e	n/a
269.144	0.08	538288	keystroke	p	n/a
269.304	0.104	538608	keystroke	Key.space	n/a
269.8	0.072	539600	keystroke	d	n/a
269.984	0.048	539968	keystroke	e	n/a
270.184	0.096	540368	keystroke	v	n/a
270.3195	0.0805	540639	keystroke	i	n/a
270.48	0.112	540960	keystroke	a	n/a
270.568	0.104	541136	keystroke	t	n/a
270.673	0.127	541346	keystroke	i	n/a
270.736	0.112	541472	keystroke	o	n/a
271.024	0.08	542048	keystroke	n	n/a
271.192	0.095	542384	keystroke	Key.space	n/a
271.8555	0.0805	543711	keystroke	t	n/a
271.976	0.103	543952	keystroke	o	n/a
272.12	0.08	544240	keystroke	w	n/a
272.232	0.104	544464	keystroke	n	n/a
272.343	0.097	544686	keystroke	Key.space	n/a
272.544	0.088	545088	keystroke	u	n/a
272.752	0.096	545504	keystroke	n	n/a
273.232	0.112	546464	keystroke	n	n/a
273.896	0.087	547792	keystroke	e	n/a
274.392	0.104	548784	keystroke	c	n/a
274.664	0.056	549328	keystroke	e	n/a
274.872	0.08	549744	keystroke	s	n/a
275.256	0.08	550512	keystroke	s	n/a
275.496	0.104	550992	keystroke	a	n/a
275.568	0.096	551136	keystroke	r	n/a
275.72	0.08	551440	keystroke	y	n/a
276.208	0.096	552416	keystroke	Key.enter	n/a
276.3075	7.8855	552615	prompt	n/a	pools spies circumstances aviation\n
276.9915	0.096	553983	keystroke	p	n/a
277.2155	0.024	554431	keystroke	o	n/a
277.3435	0.04	554687	keystroke	o	n/a
277.5275	0.08	555055	keystroke	l	n/a
277.6715	0.08	555343	keystroke	s	n/a
277.7915	0.104	555583	keystroke	Key.space	n/a
278.6075	0.072	557215	keystroke	p	n/a
279.0075	0.064	558015	keystroke	Key.backspace	n/a
279.1195	0.072	558239	keystroke	s	n/a
279.2235	0.048	558447	keystroke	p	n/a
279.3995	0.072	558799	keystroke	i	n/a
279.5195	0.056	559039	keystroke	e	n/a
279.6795	0.056	559359	keystroke	s	n/a
279.7835	0.072	559567	keystroke	Key.space	n/a
280.3835	0.112	560767	keystroke	c	n/a
280.7275	0.088	561455	keystroke	i	n/a
280.8795	0.056	561759	keystroke	r	n/a
281.063	0.056	562126	keystroke	c	n/a
281.1755	0.0725	562351	keystroke	u	n/a
281.376	0.08	562752	keystroke	m	n/a
281.504	0.088	563008	keystroke	s	n/a
281.656	0.088	563312	keystroke	t	n/a
281.808	0.112	563616	keystroke	a	n/a
281.912	0.064	563824	keystroke	n	n/a
282	0.136	564000	keystroke	c	n/a
282.096	0.064	564192	keystroke	e	n/a
282.287	0.065	564574	keystroke	s	n/a
282.415	0.088	564830	keystroke	Key.space	n/a
282.895	0.081	565790	keystroke	a	n/a
283.088	0.112	566176	keystroke	v	n/a
283.224	0.096	566448	keystroke	i	n/a
283.336	0.08	566672	keystroke	a	n/a
283.48	0.112	566960	keystroke	t	n/a
283.623	0.113	567246	keystroke	i	n/a
283.704	0.071	567408	keystroke	o	n/a
283.896	0.072	567792	keystroke	n	n/a
284.103	0.088	568206	keystroke	Key.enter	n/a
284.1955	7.2935	568391	prompt	n/a	advocacy buddy tongue locate\n
284.791	0.104	569582	keystroke	s	n/a
285.423	0.056	570846	keystroke	Key.backspace	n/a
285.447	0.096	570894	keystroke	a	n/a
285.503	0.104	571006	keystroke	d	n/a
285.759	0.12	571518	keystroke	v	n/a
285.935	0.0885	571870	keystroke	o	n/a
286.0955	0.072	572191	keystroke	c	n/a
286.648	0.112	573296	keystroke	a	n/a
286.768	0.088	573536	keystroke	c	n/a
287.016	0.072	574032	keystroke	y	n/a
287.159	0.113	574318	keystroke	Key.space	n/a
287.888	0.08	575776	keystroke	b	n/a
288.015	0.096	576030	keystroke	u	n/a
288.247	0.065	576494	keystroke	d	n/a
288.391	0.104	576782	keystroke	d	n/a
288.503	0.096	577006	keystroke	y	n/a
288.623	0.088	577246	keystroke	Key.space	n/a
289.303	0.096	578606	keystroke	t	n/a
289.407	0.072	578814	keystroke	o	n/a
289.567	0.065	579134	keystroke	n	n/a
289.679	0.08	579358	keystroke	g	n/a
289.783	0.088	579566	keystroke	u	n/a
289.903	0.064	579806	keystroke	e	n/a
290.0075	0.088	580015	keystroke	Key.space	n/a
290.6395	0.072	581279	keystroke	l	n/a
290.8155	0.072	581631	keystroke	o	n/a
290.9035	0.104	581807	keystroke	c	n/a
291.0235	0.128	582047	keystroke	a	n/a
291.1595	0.128	582319	keystroke	t	n/a
291.2395	0.096	582479	keystroke	e	n/a
291.4075	0.08	582815	keystroke	Key.enter	n/a
291.492	7.733	582984	prompt	n/a	gods vsnet sites holdem\n
292.048	0.088	584096	keystroke	d	n/a
292.168	0.088	584336	keystroke	o	n/a
292.264	0.12	584528	keystroke	g	n/a
292.376	0.08	584752	keystroke	s	n/a
292.544	0.096	585088	keystroke	Key.space	n/a
293.8475	0.16	587695	keystroke	v	n/a
294.0795	0.096	588159	keystroke	s	n/a
294.2875	0.08	588575	keystroke	n	n/a
294.4875	0.096	588975	keystroke	e	n/a
294.5915	0.104	589183	keystroke	t	n/a
295.0315	0.112	590063	keystroke	Key.space	n/a
295.5595	0.088	591119	keystroke	s	n/a
295.6955	0.096	591391	keystroke	i	n/a
295.8155	0.12	591631	keystroke	t	n/a
295.8875	0.08	591775	keystroke	e	n/a
296.0555	0.08	592111	keystroke	s	n/a
296.1915	0.112	592383	keystroke	Key.space	n/a
297.0635	0.096	594127	keystroke	b	n/a
297.1995	0.08	594399	keystroke	o	n/a
297.3995	0.08	594799	keystroke	l	n/a
297.6955	0.064	595391	keystroke	Key.backspace	n/a
297.8555	0.064	595711	keystroke	Key.backspace	n/a
298.0235	0.08	596047	keystroke	Key.backspace	n/a
298.2715	0.12	596543	keystroke	h	n/a
298.3595	0.072	596719	keystroke	o	n/a
298.5435	0.088	597087	keystroke	l	n/a
298.6235	0.064	597247	keystroke	d	n/a
298.7995	0.056	597599	keystroke	e	n/a
298.9275	0.088	597855	keystroke	m	n/a
299.1595	0.064	598319	keystroke	Key.enter	n/a
299.231	10.2015	598462	prompt	n/a	bringing converter edges extraordinary\n
300.103	0.144	600206	keystroke	b	n/a
300.399	0.12	600798	keystroke	r	n/a
300.5835	0.0715	601167	keystroke	i	n/a
300.767	0.0805	601534	keystroke	n	n/a
300.919	0.128	601838	keystroke	g	n/a
301.471	0.064	602942	keystroke	i	n/a
301.655	0.064	603310	keystroke	n	n/a
301.768	0.088	603536	keystroke	g	n/a
301.911	0.08	603822	keystroke	Key.space	n/a
302.5675	0.088	605135	keystroke	c	n/a
302.6635	0.072	605327	keystroke	o	n/a
302.8315	0.104	605663	keystroke	n	n/a
302.9435	0.104	605887	keystroke	c	n/a
303.3675	0.056	606735	keystroke	Key.backspace	n/a
303.4075	0.072	606815	keystroke	v	n/a
303.5755	0.128	607151	keystroke	e	n/a
303.6555	0.104	607311	keystroke	r	n/a
303.8475	0.08	607695	keystroke	t	n/a
304.104	0.119	608208	keystroke	e	n/a
304.175	0.088	608350	keystroke	r	n/a
304.271	0.0885	608542	keystroke	Key.space	n/a
304.9435	0.072	609887	keystroke	e	n/a
305.1355	0.112	610271	keystroke	d	n/a
305.351	0.144	610702	keystroke	g	n/a
305.471	0.128	610942	keystroke	e	n/a
305.671	0.072	611342	keystroke	s	n/a
305.807	0.128	611614	keystroke	Key.space	n/a
306.503	0.064	613006	keystroke	e	n/a
306.679	0.064	613358	keystroke	x	n/a
306.871	0.048	613742	keystroke	t	n/a
307.007	0.096	614014	keystroke	r	n/a
307.199	0.104	614398	keystroke	a	n/a
307.671	0.096	615342	keystroke	o	n/a
307.895	0.096	615790	keystroke	r	n/a
308.1275	0.144	616255	keystroke	d	n/a
308.2875	0.064	616575	keystroke	i	n/a
308.455	0.096	616910	keystroke	n	n/a
308.807	0.064	617614	keystroke	a	n/a
308.935	0.088	617870	keystroke	r	n/a
309.095	0.08	618190	keystroke	y	n/a
309.367	0.064	618734	keystroke	Key.enter	n/a
309.4355	7.893	618871	prompt	n/a	peninsula feature unlikely invite\n
310.0795	0.088	620159	keystroke	p	n/a
310.2795	0.088	620559	keystroke	e	n/a
310.423	0.064	620846	keystroke	n	n/a
310.615	0.064	621230	keystroke	i	n/a
310.775	0.088	621550	keystroke	n	n/a
310.967	0.072	621934	keystroke	s	n/a
311.079	0.088	622158	keystroke	u	n/a
311.2875	0.08	622575	keystroke	l	n/a
311.4315	0.08	622863	keystroke	a	n/a
311.5835	0.08	623167	keystroke	Key.space	n/a
312.3115	0.096	624623	keystroke	f	n/a
312.4875	0.096	624975	keystroke	e	n/a
312.6955	0.08	625391	keystroke	a	n/a
312.8395	0.04	625679	keystroke	t	n/a
312.9275	0.112	625855	keystroke	u	n/a
313.0545	0.137	626109	keystroke	r	n/a
313.1195	0.088	626239	keystroke	e	n/a
313.2235	0.104	626447	keystroke	Key.space	n/a
313.7915	0.08	627583	keystroke	i	n/a
314.223	0.072	628446	keystroke	Key.backspace	n/a
314.447	0.056	628894	keystroke	u	n/a
314.639	0.08	629278	keystroke	n	n/a
314.839	0.064	629678	keystroke	l	n/a
314.999	0.072	629998	keystroke	i	n/a
315.175	0.08	630350	keystroke	k	n/a
315.303	0.088	630606	keystroke	e	n/a
315.447	0.072	630894	keystroke	l	n/a
315.687	0.072	631374	keystroke	y	n/a
315.831	0.112	631662	keystroke	Key.space	n/a
316.3355	0.063	632671	keystroke	i	n/a
316.5105	0.072	633021	keystroke	n	n/a
316.6715	0.072	633343	keystroke	v	n/a
316.7505	0.088	633501	keystroke	i	n/a
316.9105	0.112	633821	keystroke	t	n/a
317.0545	0.104	634109	keystroke	e	n/a
317.2385	0.088	634477	keystroke	Key.enter	n/a
317.331	6.6535	634662	prompt	n/a	past cowboy trip optional\n
317.9505	0.088	635901	keystroke	p	n/a
318.0875	0.168	636175	keystroke	a	n/a
318.1515	0.192	636303	keystroke	s	n/a
318.2635	0.104	636527	keystroke	t	n/a
318.3675	0.112	636735	keystroke	Key.space	n/a
318.4955	0.136	636991	keystroke	c	n/a
318.6075	0.096	637215	keystroke	o	n/a
318.7755	0.096	637551	keystroke	v	n/a
318.9595	0.088	637919	keystroke	w	n/a
319.3675	0.04	638735	keystroke	Key.backspace	n/a
319.5035	0.064	639007	keystroke	Key.backspace	n/a
319.5995	0.08	639199	keystroke	w	n/a
319.8955	0.04	639791	keystroke	b	n/a
320.2235	0.088	640447	keystroke	o	n/a
320.4475	0.056	640895	keystroke	y	n/a
320.6395	0.088	641279	keystroke	Key.space	n/a
321.207	0.088	642414	keystroke	t	n/a
321.383	0.096	642766	keystroke	r	n/a
321.495	0.064	642990	keystroke	i	n/a
321.695	0.072	643390	keystroke	p	n/a
321.919	0.104	643838	keystroke	Key.space	n/a
322.2795	0.088	644559	keystroke	o	n/a
322.5915	0.12	645183	keystroke	p	n/a
322.9995	0.072	645999	keystroke	t	n/a
323.1595	0.144	646319	keystroke	i	n/a
323.2715	0.072	646543	keystroke	o	n/a
323.4075	0.08	646815	keystroke	n	n/a
323.5195	0.128	647039	keystroke	a	n/a
323.6395	0.072	647279	keystroke	l	n/a
323.9035	0.08	647807	keystroke	Key.enter	n/a
323.988	10.6605	647976	prompt	n/a	shaved finest principle utilities\n
324.6795	0.104	649359	keystroke	s	n/a
324.7915	0.087	649583	keystroke	h	n/a
324.8955	0.096	649791	keystroke	a	n/a
324.9595	0.088	649919	keystroke	v	n/a
325.1035	0.048	650207	keystroke	e	n/a
325.2795	0.056	650559	keystroke	d	n/a
325.4305	0.088	650861	keystroke	Key.space	n/a
325.6875	0.12	651375	keystroke	f	n/a
325.8155	0.064	651631	keystroke	i	n/a
325.9595	0.104	651919	keystroke	n	n/a
326.0715	0.0715	652143	keystroke	e	n/a
326.4635	0.12	652927	keystroke	t	n/a
326.7915	0.056	653583	keystroke	Key.backspace	n/a
326.8875	0.08	653775	keystroke	s	n/a
326.9275	0.128	653855	keystroke	t	n/a
327.0315	0.08	654063	keystroke	Key.space	n/a
327.6625	0.113	655325	keystroke	p	n/a
327.8315	0.088	655663	keystroke	r	n/a
327.9435	0.064	655887	keystroke	i	n/a
328.103	0.072	656206	keystroke	n	n/a
328.191	0.12	656382	keystroke	c	n/a
328.312	0.071	656624	keystroke	i	n/a
328.543	0.056	657086	keystroke	p	n/a
328.815	0.112	657630	keystroke	l	n/a
328.975	0.048	657950	keystroke	e	n/a
329.087	0.072	658174	keystroke	Key.space	n/a
329.703	0.072	659406	keystroke	u	n/a
329.975	0.112	659950	keystroke	t	n/a
330.4075	0.0875	660815	keystroke	l	n/a
330.591	0.088	661182	keystroke	i	n/a
330.743	0.112	661486	keystroke	t	n/a
330.847	0.088	661694	keystroke	i	n/a
330.975	0.064	661950	keystroke	e	n/a
331.143	0.064	662286	keystroke	s	n/a
331.423	0.112	662846	keystroke	Key.space	n/a
332.111	0.072	664222	keystroke	Key.backspace	n/a
332.255	0.072	664510	keystroke	Key.backspace	n/a
332.415	0.064	664830	keystroke	Key.backspace	n/a
332.575	0.064	665150	keystroke	Key.backspace	n/a
332.735	0.072	665470	keystroke	Key.backspace	n/a
332.911	0.088	665822	keystroke	Key.backspace	n/a
333.143	0.072	666286	keystroke	Key.backspace	n/a
333.519	0.088	667038	keystroke	i	n/a
333.759	0.064	667518	keystroke	l	n/a
333.943	0.072	667886	keystroke	i	n/a
334.071	0.104	668142	keystroke	t	n/a
334.167	0.072	668334	keystroke	i	n/a
334.263	0.072	668526	keystroke	e	n/a
334.431	0.064	668862	keystroke	s	n/a
334.559	0.088	669118	keystroke	Key.enter	n/a
334.6605	7.388	669321	prompt	n/a	arms controversy fifty kathy\n
335.359	0.12	670718	keystroke	a	n/a
335.487	0.096	670974	keystroke	r	n/a
335.607	0.08	671214	keystroke	m	n/a
335.703	0.096	671406	keystroke	s	n/a
335.823	0.096	671646	keystroke	Key.space	n/a
336.103	0.12	672206	keystroke	c	n/a
336.215	0.072	672430	keystroke	o	n/a
336.383	0.104	672766	keystroke	n	n/a
336.535	0.096	673070	keystroke	t	n/a
336.703	0.104	673406	keystroke	r	n/a
336.887	0.104	673774	keystroke	o	n/a
337.055	0.112	674110	keystroke	v	n/a
337.271	0.128	674542	keystroke	e	n/a
337.343	0.104	674686	keystroke	r	n/a
337.495	0.072	674990	keystroke	s	n/a
337.695	0.08	675390	keystroke	e	n/a
337.983	0.032	675966	keystroke	y	n/a
338.463	0.072	676926	keystroke	Key.backspace	n/a
338.631	0.056	677262	keystroke	Key.backspace	n/a
339.007	0.088	678014	keystroke	y	n/a
339.247	0.088	678494	keystroke	Key.space	n/a
339.815	0.112	679630	keystroke	f	n/a
339.983	0.072	679966	keystroke	i	n/a
340.103	0.088	680206	keystroke	f	n/a
340.295	0.08	680590	keystroke	t	n/a
340.455	0.08	680910	keystroke	y	n/a
340.591	0.096	681182	keystroke	Key.space	n/a
340.8945	0.096	681789	keystroke	k	n/a
341.255	0.104	682510	keystroke	a	n/a
341.439	0.072	682878	keystroke	t	n/a
341.591	0.072	683182	keystroke	h	n/a
341.775	0.064	683550	keystroke	y	n/a
341.975	0.072	683950	keystroke	Key.enter	n/a
342.057	12.727	684114	prompt	n/a	yorkshire traditional market y'all\n
342.8705	0.088	685741	keystroke	y	n/a
343.2625	0.04	686525	keystroke	r	n/a
343.4465	0.104	686893	keystroke	o	n/a
343.7505	0.04	687501	keystroke	Key.backspace	n/a
343.8785	0.072	687757	keystroke	Key.backspace	n/a
344.3025	0.089	688605	keystroke	o	n/a
344.4475	0.103	688895	keystroke	r	n/a
344.6305	0.073	689261	keystroke	k	n/a
344.9675	0.079	689935	keystroke	s	n/a
345.0945	0.112	690189	keystroke	h	n/a
345.1585	0.088	690317	keystroke	i	n/a
345.2305	0.105	690461	keystroke	r	n/a
345.2785	0.072	690557	keystroke	e	n/a
345.3825	0.096	690765	keystroke	Key.space	n/a
346.271	0.08	692542	keystroke	t	n/a
346.415	0.096	692830	keystroke	r	n/a
346.583	0.112	693166	keystroke	a	n/a
346.807	0.064	693614	keystroke	i	n/a
347.247	0.056	694494	keystroke	Key.backspace	n/a
347.311	0.064	694622	keystroke	d	n/a
347.503	0.112	695006	keystroke	t	n/a
347.559	0.072	695118	keystroke	i	n/a
347.791	0.184	695582	keystroke	i	n/a
347.935	0.096	695870	keystroke	o	n/a
348.135	0.0955	696270	keystroke	n	n/a
348.4385	0.056	696877	keystroke	Key.backspace	n/a
348.5985	0.064	697197	keystroke	Key.backspace	n/a
348.7665	0.072	697533	keystroke	Key.backspace	n/a
348.9505	0.064	697901	keystroke	Key.backspace	n/a
349.1105	0.056	698221	keystroke	Key.backspace	n/a
349.3585	0.064	698717	keystroke	i	n/a
349.4545	0.12	698909	keystroke	t	n/a
349.5665	0.144	699133	keystroke	i	n/a
349.6705	0.088	699341	keystroke	o	n/a
349.8225	0.096	699645	keystroke	n	n/a
349.9585	0.072	699917	keystroke	a	n/a
350.2385	0.096	700477	keystroke	l	n/a
350.9265	0.12	701853	keystroke	Key.space	n/a
351.1905	0.1125	702381	keystroke	m	n/a
351.311	0.104	702622	keystroke	a	n/a
351.399	0.112	702798	keystroke	r	n/a
351.527	0.08	703054	keystroke	k	n/a
351.639	0.136	703278	keystroke	e	n/a
351.735	0.096	703470	keystroke	t	n/a
351.935	0.112	703870	keystroke	Key.space	n/a
352.2465	0.104	704493	keystroke	y	n/a
353.8065	0.072	707613	keystroke	'	n/a
354.0545	0.088	708109	keystroke	a	n/a
354.287	0.088	708574	keystroke	l	n/a
354.447	0.088	708894	keystroke	l	n/a
354.727	0.056	709454	keystroke	Key.enter	n/a
354.7875	7.1805	709575	prompt	n/a	fancy kenneth strain he'll\n
355.591	0.072	711182	keystroke	c	n/a
355.967	0.064	711934	keystroke	Key.backspace	n/a
356.039	0.112	712078	keystroke	f	n/a
356.167	0.128	712334	keystroke	a	n/a
356.31	0.065	712620	keystroke	n	n/a
356.391	0.104	712782	keystroke	c	n/a
356.567	0.088	713134	keystroke	y	n/a
356.719	0.104	713438	keystroke	Key.space	n/a
357.031	0.08	714062	keystroke	k	n/a
357.158	0.073	714316	keystroke	e	n/a
357.87	0.057	715740	keystroke	n	n/a
358.047	0.072	716094	keystroke	n	n/a
358.111	0.08	716222	keystroke	e	n/a
358.3265	0.112	716653	keystroke	t	n/a
358.5105	0.096	717021	keystroke	h	n/a
358.7185	0.096	717437	keystroke	Key.space	n/a
359.5105	0.112	719021	keystroke	s	n/a
359.7505	0.088	719501	keystroke	t	n/a
359.9025	0.112	719805	keystroke	r	n/a
360.0705	0.128	720141	keystroke	a	n/a
360.2225	0.056	720445	keystroke	i	n/a
360.391	0.08	720782	keystroke	n	n/a
360.527	0.096	721054	keystroke	Key.space	n/a
361.063	0.088	722126	keystroke	h	n/a
361.143	0.0875	722286	keystroke	e	n/a
361.3105	0.12	722621	keystroke	'	n/a
361.5345	0.064	723069	keystroke	l	n/a
361.6865	0.064	723373	keystroke	l	n/a
361.8865	0.08	723773	keystroke	Key.enter	n/a
361.971	6.397	723942	prompt	n/a	programming evening minimal pendant\n
362.647	0.088	725294	keystroke	p	n/a
362.751	0.096	725502	keystroke	r	n/a
362.871	0.104	725742	keystroke	o	n/a
362.983	0.08	725966	keystroke	g	n/a
363.143	0.088	726286	keystroke	r	n/a
363.303	0.104	726606	keystroke	a	n/a
363.367	0.064	726734	keystroke	m	n/a
363.535	0.112	727070	keystroke	m	n/a
363.679	0.08	727358	keystroke	i	n/a
363.847	0.104	727694	keystroke	n	n/a
363.983	0.072	727966	keystroke	g	n/a
364.055	0.112	728110	keystroke	Key.space	n/a
364.255	0.08	728510	keystroke	e	n/a
364.4305	0.104	728861	keystroke	v	n/a
364.5345	0.104	729069	keystroke	e	n/a
364.6395	0.079	729279	keystroke	n	n/a
364.7745	0.064	729549	keystroke	i	n/a
364.9265	0.096	729853	keystroke	n	n/a
365.0545	0.136	730109	keystroke	g	n/a
365.1585	0.088	730317	keystroke	Key.space	n/a
365.3185	0.088	730637	keystroke	m	n/a
365.4225	0.088	730845	keystroke	i	n/a
365.5665	0.08	731133	keystroke	n	n/a
365.6955	0.055	731391	keystroke	i	n/a
365.8065	0.112	731613	keystroke	m	n/a
365.9665	0.104	731933	keystroke	a	n/a
366.0705	0.08	732141	keystroke	l	n/a
366.2465	0.0875	732493	keystroke	Key.space	n/a
366.6385	0.0795	733277	keystroke	p	n/a
366.822	0.072	733644	keystroke	r	n/a
367.438	0.064	734876	keystroke	Key.backspace	n/a
367.55	0.08	735100	keystroke	e	n/a
367.702	0.08	735404	keystroke	n	n/a
367.75	0.088	735500	keystroke	d	n/a
367.934	0.12	735868	keystroke	a	n/a
368.047	0.087	736094	keystroke	n	n/a
368.182	0.0965	736364	keystroke	t	n/a
368.2865	0.08	736573	keystroke	Key.enter	n/a
368.373	12.7145	736746	prompt	n/a	phenomenon responded aggregate discretion\n
369.0225	0.088	738045	keystroke	p	n/a
369.5265	0.112	739053	keystroke	h	n/a
369.6705	0.088	739341	keystroke	e	n/a
369.8305	0.112	739661	keystroke	n	n/a
370.0465	0.096	740093	keystroke	o	n/a
370.2785	0.112	740557	keystroke	m	n/a
370.502	0.104	741004	keystroke	i	n/a
370.766	0.097	741532	keystroke	m	n/a
371.5905	0.072	743181	keystroke	Key.backspace	n/a
371.9665	0.072	743933	keystroke	e	n/a
372.2465	0.056	744493	keystroke	Key.backspace	n/a
372.3905	0.064	744781	keystroke	Key.backspace	n/a
372.4625	0.072	744925	keystroke	e	n/a
372.6305	0.072	745261	keystroke	n	n/a
372.7985	0.12	745597	keystroke	o	n/a
373.0625	0.064	746125	keystroke	m	n/a
373.8225	0.064	747645	keystroke	Key.backspace	n/a
374.0545	0.072	748109	keystroke	n	n/a
374.2225	0.072	748445	keystroke	Key.space	n/a
374.8545	0.064	749709	keystroke	p	n/a
375.1905	0.056	750381	keystroke	Key.backspace	n/a
375.2145	0.136	750429	keystroke	r	n/a
375.2625	0.08	750525	keystroke	e	n/a
375.4465	0.096	750893	keystroke	s	n/a
375.6065	0.08	751213	keystroke	p	n/a
375.8545	0.072	751709	keystroke	o	n/a
376.0625	0.096	752125	keystroke	n	n/a
376.1825	0.096	752365	keystroke	d	n/a
376.3665	0.096	752733	keystroke	e	n/a
376.5585	0.088	753117	keystroke	d	n/a
376.6865	0.072	753373	keystroke	Key.space	n/a
377.4385	0.072	754877	keystroke	a	n/a
377.5745	0.104	755149	keystroke	g	n/a
377.8225	0.08	755645	keystroke	g	n/a
378.0465	0.152	756093	keystroke	r	n/a
378.1345	0.104	756269	keystroke	e	n/a
378.4305	0.112	756861	keystroke	g	n/a
378.6145	0.104	757229	keystroke	a	n/a
378.7025	0.136	757405	keystroke	t	n/a
378.7905	0.1125	757581	keystroke	e	n/a
378.9105	0.096	757821	keystroke	Key.space	n/a
379.5905	0.1045	759181	keystroke	d	n/a
379.7425	0.096	759485	keystroke	i	n/a
379.8305	0.096	759661	keystroke	s	n/a
380.0225	0.056	760045	keystroke	c	n/a
380.191	0.103	760382	keystroke	r	n/a
380.2465	0.1115	760493	keystroke	e	n/a
380.438	0.113	760876	keystroke	t	n/a
380.51	0.12	761020	keystroke	i	n/a
380.583	0.079	761166	keystroke	o	n/a
380.766	0.08	761532	keystroke	n	n/a
381.014	0.072	762028	keystroke	Key.enter	n/a
381.0905	9.0935	762181	prompt	n/a	festivals canberra couldn't meaningful\n
381.8545	0.136	763709	keystroke	f	n/a
382.0065	0.096	764013	keystroke	e	n/a
382.1985	0.1035	764397	keystroke	s	n/a
382.2705	0.1035	764541	keystroke	t	n/a
382.398	0.08	764796	keystroke	i	n/a
382.494	0.112	764988	keystroke	v	n/a
382.638	0.112	765276	keystroke	a	n/a
382.766	0.088	765532	keystroke	l	n/a
382.862	0.088	765724	keystroke	s	n/a
383.39	0.112	766780	keystroke	Key.space	n/a
383.582	0.08	767164	keystroke	c	n/a
383.894	0.12	767788	keystroke	a	n/a
384.015	0.095	768030	keystroke	n	n/a
384.43	0.104	768860	keystroke	b	n/a
384.606	0.072	769212	keystroke	e	n/a
385.062	0.088	770124	keystroke	r	n/a
385.39	0.104	770780	keystroke	a	n/a
385.942	0.072	771884	keystroke	Key.backspace	n/a
385.99	0.112	771980	keystroke	r	n/a
386.103	0.1115	772206	keystroke	a	n/a
386.2065	0.088	772413	keystroke	Key.space	n/a
386.806	0.104	773612	keystroke	c	n/a
386.942	0.096	773884	keystroke	o	n/a
386.998	0.088	773996	keystroke	u	n/a
387.174	0.08	774348	keystroke	l	n/a
387.262	0.08	774524	keystroke	d	n/a
387.366	0.144	774732	keystroke	n	n/a
387.446	0.096	774892	keystroke	'	n/a
387.543	0.055	775086	keystroke	t	n/a
387.686	0.096	775372	keystroke	Key.space	n/a
388.294	0.1045	776588	keystroke	m	n/a
388.3995	0.071	776799	keystroke	e	n/a
388.5505	0.12	777101	keystroke	a	n/a
388.6065	0.096	777213	keystroke	n	n/a
388.7665	0.072	777533	keystroke	i	n/a
388.9265	0.1115	777853	keystroke	n	n/a
389.1265	0.0955	778253	keystroke	g	n/a
389.534	0.1365	779068	keystroke	f	n/a
389.6625	0.0795	779325	keystroke	u	n/a
389.862	0.0725	779724	keystroke	l	n/a
390.118	0.0645	780236	keystroke	Key.enter	n/a
390.188	9.2035	780376	prompt	n/a	craig preferred selected fairy\n
391.1025	0.071	782205	keystroke	f	n/a
391.5105	0.072	783021	keystroke	Key.backspace	n/a
391.5425	0.088	783085	keystroke	c	n/a
391.7105	0.104	783421	keystroke	r	n/a
391.8705	0.104	783741	keystroke	a	n/a
392.0225	0.08	784045	keystroke	i	n/a
392.1585	0.08	784317	keystroke	g	n/a
392.2465	0.088	784493	keystroke	Key.space	n/a
393.1015	0.105	786203	keystroke	p	n/a
393.2455	0.136	786491	keystroke	r	n/a
393.3255	0.081	786651	keystroke	e	n/a
393.9255	0.104	787851	keystroke	f	n/a
394.2215	0.072	788443	keystroke	e	n/a
394.5505	0.112	789101	keystroke	r	n/a
394.7585	0.128	789517	keystroke	r	n/a
394.8305	0.112	789661	keystroke	e	n/a
395.0785	0.024	790157	keystroke	d	n/a
395.1665	0.112	790333	keystroke	Key.space	n/a
395.9265	0.088	791853	keystroke	s	n/a
396.1345	0.0715	792269	keystroke	e	n/a
396.294	0.1045	792588	keystroke	l	n/a
396.4225	0.16	792845	keystroke	e	n/a
396.4625	0.152	792925	keystroke	c	n/a
396.8785	0.096	793757	keystroke	t	n/a
397.0945	0.088	794189	keystroke	e	n/a
397.3345	0.088	794669	keystroke	Key.space	n/a
397.9265	0.08	795853	keystroke	Key.backspace	n/a
398.0625	0.088	796125	keystroke	d	n/a
398.1745	0.072	796349	keystroke	Key.space	n/a
398.518	0.104	797036	keystroke	f	n/a
398.678	0.096	797356	keystroke	a	n/a
398.782	0.088	797564	keystroke	i	n/a
398.894	0.088	797788	keystroke	r	n/a
399.046	0.072	798092	keystroke	y	n/a
399.31	0.08	798620	keystroke	Key.enter	n/a
399.395	7.0365	798790	prompt	n/a	cleanup eclipse usual quiz\n
400.006	0.136	800012	keystroke	c	n/a
400.15	0.088	800300	keystroke	l	n/a
400.31	0.072	800620	keystroke	e	n/a
400.4695	0.104	800939	keystroke	a	n/a
400.5665	0.055	801133	keystroke	n	n/a
400.7735	0.121	801547	keystroke	u	n/a
400.8625	0.087	801725	keystroke	p	n/a
401.1735	0.089	802347	keystroke	Key.space	n/a
401.6705	0.056	803341	keystroke	e	n/a
401.8475	0.1185	803695	keystroke	c	n/a
402.014	0.0645	804028	keystroke	l	n/a
402.206	0.072	804412	keystroke	i	n/a
402.39	0.064	804780	keystroke	p	n/a
402.478	0.08	804956	keystroke	s	n/a
402.63	0.104	805260	keystroke	Key.space	n/a
403.478	0.064	806956	keystroke	Key.backspace	n/a
403.59	0.056	807180	keystroke	e	n/a
403.686	0.08	807372	keystroke	Key.space	n/a
403.902	0.104	807804	keystroke	u	n/a
404.4225	0.112	808845	keystroke	s	n/a
404.5505	0.096	809101	keystroke	u	n/a
404.7095	0.081	809419	keystroke	a	n/a
404.8295	0.081	809659	keystroke	l	n/a
405.0145	0.088	810029	keystroke	Key.space	n/a
405.3025	0.088	810605	keystroke	q	n/a
405.4305	0.104	810861	keystroke	u	n/a
405.4945	0.096	810989	keystroke	i	n/a
405.6225	0.096	811245	keystroke	c	n/a
406.0375	0.081	812075	keystroke	Key.backspace	n/a
406.1345	0.0955	812269	keystroke	z	n/a
406.374	0.056	812748	keystroke	Key.enter	n/a
406.4345	7.869	812869	prompt	n/a	streets just stanford norton\n
407.111	0.087	814222	keystroke	s	n/a
407.294	0.088	814588	keystroke	t	n/a
407.47	0.128	814940	keystroke	r	n/a
407.542	0.072	815084	keystroke	e	n/a
407.734	0.096	815468	keystroke	e	n/a
408.046	0.136	816092	keystroke	t	n/a
408.158	0.08	816316	keystroke	s	n/a
408.374	0.1045	816748	keystroke	Key.space	n/a
408.8225	0.072	817645	keystroke	j	n/a
409.0065	0.088	818013	keystroke	u	n/a
409.1025	0.128	818205	keystroke	s	n/a
409.1745	0.112	818349	keystroke	t	n/a
409.2625	0.12	818525	keystroke	Key.space	n/a
410.0625	0.08	820125	keystroke	s	n/a
410.2225	0.096	820445	keystroke	t	n/a
410.3585	0.0955	820717	keystroke	a	n/a
410.446	0.072	820892	keystroke	n	n/a
410.79	0.112	821580	keystroke	f	n/a
410.95	0.072	821900	keystroke	o	n/a
411.11	0.072	822220	keystroke	d	n/a
411.2695	0.096	822539	keystroke	Key.space	n/a
411.7175	0.072	823435	keystroke	Key.backspace	n/a
411.8775	0.072	823755	keystroke	Key.backspace	n/a
411.9575	0.088	823915	keystroke	r	n/a
412.1255	0.12	824251	keystroke	d	n/a
412.2055	0.096	824411	keystroke	Key.space	n/a
412.774	0.08	825548	keystroke	n	n/a
412.958	0.088	825916	keystroke	o	n/a
413.062	0.096	826124	keystroke	r	n/a
413.27	0.0805	826540	keystroke	t	n/a
413.494	0.096	826988	keystroke	o	n/a
413.686	0.072	827372	keystroke	n	n/a
414.19	0.112	828380	keystroke	Key.enter	n/a
414.3105	10.257	828621	prompt	n/a	virus likewise configure conversations\n
415.0615	0.064	830123	keystroke	l	n/a
415.4295	0.048	830859	keystroke	Key.backspace	n/a
415.4945	0.095	830989	keystroke	v	n/a
415.7095	0.072	831419	keystroke	u	n/a
416.278	0.056	832556	keystroke	Key.backspace	n/a
416.494	0.072	832988	keystroke	i	n/a
416.606	0.072	833212	keystroke	r	n/a
416.734	0.104	833468	keystroke	u	n/a
416.87	0.08	833740	keystroke	s	n/a
416.958	0.08	833916	keystroke	Key.space	n/a
417.71	0.064	835420	keystroke	l	n/a
417.886	0.064	835772	keystroke	i	n/a
418.078	0.064	836156	keystroke	k	n/a
418.206	0.072	836412	keystroke	e	n/a
418.9015	0.105	837803	keystroke	w	n/a
419.0705	0.079	838141	keystroke	i	n/a
419.2135	0.185	838427	keystroke	s	n/a
419.3185	0.103	838637	keystroke	e	n/a
419.4535	0.112	838907	keystroke	Key.space	n/a
419.9815	0.12	839963	keystroke	c	n/a
420.0775	0.072	840155	keystroke	o	n/a
420.2385	0.103	840477	keystroke	n	n/a
420.374	0.1125	840748	keystroke	f	n/a
420.7655	0.089	841531	keystroke	i	n/a
420.9655	0.088	841931	keystroke	g	n/a
421.0935	0.112	842187	keystroke	u	n/a
421.1735	0.1285	842347	keystroke	r	n/a
421.246	0.088	842492	keystroke	e	n/a
421.35	0.112	842700	keystroke	Key.space	n/a
421.95	0.056	843900	keystroke	c	n/a
422.038	0.072	844076	keystroke	o	n/a
422.238	0.12	844476	keystroke	n	n/a
422.358	0.096	844716	keystroke	v	n/a
422.55	0.168	845100	keystroke	e	n/a
422.646	0.112	845292	keystroke	r	n/a
422.958	0.096	845916	keystroke	s	n/a
423.254	0.096	846508	keystroke	t	n/a
423.63	0.08	847260	keystroke	Key.backspace	n/a
423.742	0.104	847484	keystroke	a	n/a
423.806	0.128	847612	keystroke	t	n/a
423.934	0.104	847868	keystroke	i	n/a
423.99	0.08	847980	keystroke	o	n/a
424.166	0.104	848332	keystroke	n	n/a
424.262	0.072	848524	keystroke	s	n/a
424.5015	0.064	849003	keystroke	Key.enter	n/a
424.57	11.765	849140	prompt	n/a	lesbian literature anatomy alternative\n
426.502	0.12	853004	keystroke	l	n/a
426.646	0.072	853292	keystroke	e	n/a
426.814	0.104	853628	keystroke	s	n/a
427.006	0.04	854012	keystroke	b	n/a
427.174	0.08	854348	keystroke	i	n/a
427.334	0.0635	854668	keystroke	a	n/a
427.4055	0.088	854811	keystroke	n	n/a
427.5575	0.088	855115	keystroke	Key.space	n/a
428.1895	0.08	856379	keystroke	l	n/a
428.3175	0.024	856635	keystroke	e	n/a
428.446	0.112	856892	keystroke	i	n/a
428.59	0.1195	857180	keystroke	t	n/a
428.9095	0.048	857819	keystroke	Key.backspace	n/a
429.0695	0.056	858139	keystroke	Key.backspace	n/a
429.2375	0.0485	858475	keystroke	Key.backspace	n/a
429.4455	0.064	858891	keystroke	i	n/a
429.5175	0.104	859035	keystroke	t	n/a
429.7015	0.128	859403	keystroke	e	n/a
429.7815	0.096	859563	keystroke	r	n/a
430.0615	0.088	860123	keystroke	a	n/a
430.566	0.112	861132	keystroke	t	n/a
430.694	0.096	861388	keystroke	u	n/a
430.814	0.12	861628	keystroke	r	n/a
430.87	0.072	861740	keystroke	e	n/a
430.926	0.112	861852	keystroke	Key.space	n/a
431.7175	0.112	863435	keystroke	a	n/a
431.8375	0.08	863675	keystroke	n	n/a
431.9655	0.08	863931	keystroke	a	n/a
432.7335	0.096	865467	keystroke	t	n/a
432.8695	0.072	865739	keystroke	o	n/a
433.1015	0.072	866203	keystroke	m	n/a
433.3255	0.096	866651	keystroke	y	n/a
433.4615	0.104	866923	keystroke	Key.space	n/a
434.1735	0.128	868347	keystroke	a	n/a
434.2775	0.096	868555	keystroke	l	n/a
434.4295	0.1045	868859	keystroke	t	n/a
434.5895	0.16	869179	keystroke	e	n/a
434.6775	0.096	869355	keystroke	r	n/a
434.7815	0.096	869563	keystroke	n	n/a
435.4375	0.128	870875	keystroke	a	n/a
435.5575	0.064	871115	keystroke	t	n/a
435.7575	0.12	871515	keystroke	i	n/a
435.8695	0.12	871739	keystroke	v	n/a
436.0135	0.088	872027	keystroke	e	n/a
436.2455	0.088	872491	keystroke	Key.enter	n/a
436.339	8.724	872678	prompt	n/a	orders substitute admissions civil\n
437.1895	0.112	874379	keystroke	o	n/a
437.2855	0.072	874571	keystroke	r	n/a
437.5335	0.08	875067	keystroke	d	n/a
437.7255	0.12	875451	keystroke	e	n/a
437.7975	0.088	875595	keystroke	r	n/a
437.9415	0.08	875883	keystroke	s	n/a
438.3975	0.096	876795	keystroke	Key.space	n/a
438.5975	0.112	877195	keystroke	s	n/a
438.7255	0.096	877451	keystroke	u	n/a
438.9655	0.064	877931	keystroke	b	n/a
439.4935	0.08	878987	keystroke	s	n/a
439.9255	0.096	879851	keystroke	u	n/a
440.3895	0.056	880779	keystroke	Key.backspace	n/a
440.5095	0.112	881019	keystroke	t	n/a
440.6375	0.064	881275	keystroke	i	n/a
440.7815	0.104	881563	keystroke	t	n/a
440.8935	0.104	881787	keystroke	u	n/a
441.1655	0.12	882331	keystroke	t	n/a
441.2295	0.072	882459	keystroke	e	n/a
441.3175	0.104	882635	keystroke	Key.space	n/a
442.1975	0.056	884395	keystroke	a	n/a
442.3175	0.088	884635	keystroke	d	n/a
442.4375	0.1205	884875	keystroke	m	n/a
442.55	0.096	885100	keystroke	i	n/a
442.678	0.072	885356	keystroke	s	n/a
442.854	0.08	885708	keystroke	s	n/a
442.942	0.136	885884	keystroke	i	n/a
443.062	0.056	886124	keystroke	o	n/a
443.214	0.072	886428	keystroke	n	n/a
443.302	0.064	886604	keystroke	s	n/a
443.894	0.104	887788	keystroke	Key.space	n/a
444.07	0.104	888140	keystroke	c	n/a
444.214	0.088	888428	keystroke	i	n/a
444.342	0.112	888684	keystroke	v	n/a
444.438	0.0715	888876	keystroke	i	n/a
444.6455	0.104	889291	keystroke	l	n/a
444.9815	0.08	889963	keystroke	Key.enter	n/a
445.071	5.9355	890142	prompt	n/a	dating donate hopefully oral\n
445.6455	0.08	891291	keystroke	d	n/a
445.7975	0.128	891595	keystroke	a	n/a
445.9095	0.112	891819	keystroke	t	n/a
446.0295	0.064	892059	keystroke	i	n/a
446.1895	0.088	892379	keystroke	n	n/a
446.3175	0.12	892635	keystroke	g	n/a
446.4455	0.096	892891	keystroke	Key.space	n/a
446.6455	0.104	893291	keystroke	d	n/a
446.7735	0.088	893547	keystroke	o	n/a
447.1415	0.104	894283	keystroke	n	n/a
447.3575	0.08	894715	keystroke	a	n/a
447.4775	0.152	894955	keystroke	t	n/a
447.5815	0.104	895163	keystroke	e	n/a
447.7335	0.096	895467	keystroke	Key.space	n/a
448.4375	0.128	896875	keystroke	h	n/a
448.5735	0.112	897147	keystroke	o	n/a
448.8135	0.096	897627	keystroke	p	n/a
448.9495	0.072	897899	keystroke	e	n/a
449.1655	0.112	898331	keystroke	f	n/a
449.2935	0.096	898587	keystroke	u	n/a
449.4775	0.072	898955	keystroke	l	n/a
449.6535	0.048	899307	keystroke	l	n/a
449.8135	0.088	899627	keystroke	y	n/a
449.9415	0.112	899883	keystroke	Key.space	n/a
450.2855	0.0805	900571	keystroke	o	n/a
450.382	0.104	900764	keystroke	r	n/a
450.55	0.103	901100	keystroke	a	n/a
450.654	0.087	901308	keystroke	l	n/a
450.925	0.08	901850	keystroke	Key.enter	n/a
451.0105	6.2365	902021	prompt	n/a	toolbar me provided theology\n
451.7095	0.104	903419	keystroke	t	n/a
451.8145	0.063	903629	keystroke	o	n/a
451.9975	0.056	903995	keystroke	o	n/a
452.1735	0.064	904347	keystroke	l	n/a
452.4855	0.1035	904971	keystroke	b	n/a
452.701	0.128	905402	keystroke	a	n/a
452.797	0.088	905594	keystroke	r	n/a
452.997	0.104	905994	keystroke	Key.space	n/a
453.421	0.104	906842	keystroke	m	n/a
453.613	0.08	907226	keystroke	e	n/a
453.741	0.104	907482	keystroke	Key.space	n/a
453.966	0.087	907932	keystroke	p	n/a
454.109	0.08	908218	keystroke	r	n/a
454.205	0.08	908410	keystroke	o	n/a
454.341	0.128	908682	keystroke	v	n/a
454.453	0.104	908906	keystroke	i	n/a
454.573	0.088	909146	keystroke	d	n/a
454.765	0.072	909530	keystroke	e	n/a
454.949	0.081	909898	keystroke	d	n/a
455.077	0.12	910154	keystroke	Key.space	n/a
455.701	0.136	911402	keystroke	t	n/a
455.829	0.096	911658	keystroke	h	n/a
455.917	0.104	911834	keystroke	e	n/a
456.061	0.08	912122	keystroke	o	n/a
456.477	0.072	912954	keystroke	l	n/a
456.661	0.088	913322	keystroke	o	n/a
456.789	0.088	913578	keystroke	g	n/a
456.941	0.072	913882	keystroke	y	n/a
457.189	0.056	914378	keystroke	Key.enter	n/a
457.251	10.8035	914502	prompt	n/a	dale control integrate synthesis\n
458.069	0.08	916138	keystroke	d	n/a
458.285	0.112	916570	keystroke	a	n/a
458.405	0.088	916810	keystroke	l	n/a
458.5335	0.088	917067	keystroke	e	n/a
458.6295	0.112	917259	keystroke	Key.space	n/a
459.2695	0.104	918539	keystroke	c	n/a
459.3895	0.072	918779	keystroke	o	n/a
459.5575	0.088	919115	keystroke	n	n/a
459.6935	0.08	919387	keystroke	t	n/a
459.8695	0.08	919739	keystroke	r	n/a
459.9255	0.072	919851	keystroke	o	n/a
460.1095	0.104	920219	keystroke	l	n/a
460.4775	0.095	920955	keystroke	Key.space	n/a
461.3095	0.072	922619	keystroke	i	n/a
461.5015	0.104	923003	keystroke	n	n/a
461.6135	0.096	923227	keystroke	t	n/a
462.237	0.08	924474	keystroke	e	n/a
462.581	0.04	925162	keystroke	t	n/a
463.965	0.088	927930	keystroke	Key.backspace	n/a
464.054	0.095	928108	keystroke	g	n/a
464.453	0.136	928906	keystroke	r	n/a
464.669	0.088	929338	keystroke	a	n/a
464.749	0.136	929498	keystroke	t	n/a
464.845	0.12	929690	keystroke	e	n/a
465.101	0.12	930202	keystroke	Key.space	n/a
465.845	0.08	931690	keystroke	s	n/a
465.973	0.096	931946	keystroke	y	n/a
466.285	0.048	932570	keystroke	n	n/a
466.781	0.104	933562	keystroke	t	n/a
466.933	0.096	933866	keystroke	h	n/a
467.021	0.096	934042	keystroke	e	n/a
467.381	0.104	934762	keystroke	s	n/a
467.573	0.08	935146	keystroke	i	n/a
467.677	0.088	935354	keystroke	s	n/a
467.957	0.096	935914	keystroke	Key.enter	n/a
468.0575	13.661	936115	prompt	n/a	tags globe promotions windows\n
468.885	0.056	937770	keystroke	t	n/a
469.165	0.104	938330	keystroke	a	n/a
469.261	0.112	938522	keystroke	g	n/a
469.421	0.056	938842	keystroke	s	n/a
469.509	0.104	939018	keystroke	Key.space	n/a
470.397	0.12	940794	keystroke	b	n/a
470.557	0.088	941114	keystroke	l	n/a
470.773	0.08	941546	keystroke	o	n/a
471.101	0.04	942202	keystroke	Key.backspace	n/a
471.2535	0.064	942507	keystroke	Key.backspace	n/a
471.4295	0.064	942859	keystroke	Key.backspace	n/a
471.5735	0.088	943147	keystroke	g	n/a
471.6855	0.064	943371	keystroke	l	n/a
471.8775	0.056	943755	keystroke	o	n/a
473.485	0.104	946970	keystroke	b	n/a
473.693	0.064	947386	keystroke	e	n/a
473.821	0.096	947642	keystroke	Key.space	n/a
474.493	0.08	948986	keystroke	p	n/a
474.621	0.12	949242	keystroke	r	n/a
474.718	0.063	949436	keystroke	o	n/a
474.885	0.144	949770	keystroke	m	n/a
474.989	0.16	949978	keystroke	o	n/a
475.405	0.088	950810	keystroke	t	n/a
475.565	0.136	951130	keystroke	i	n/a
475.685	0.032	951370	keystroke	o	n/a
476.029	0.08	952058	keystroke	n	n/a
476.653	0.08	953306	keystroke	s	n/a
477.077	0.128	954154	keystroke	Key.space	n/a
477.805	0.088	955610	keystroke	w	n/a
477.909	0.064	955818	keystroke	i	n/a
478.061	0.104	956122	keystroke	n	n/a
478.229	0.104	956458	keystroke	d	n/a
478.7655	0.104	957531	keystroke	w	n/a
479.3575	0.064	958715	keystroke	Key.backspace	n/a
479.5895	0.096	959179	keystroke	o	n/a
479.7255	0.064	959451	keystroke	w	n/a
479.9175	0.088	959835	keystroke	s	n/a
479.9975	0.08	959995	keystroke	Key.space	n/a
481.6295	0.087	963259	keystroke	Key.enter	n/a
481.7205	6.8225	963441	prompt	n/a	faced park sort hearings\n
482.7405	0.096	965481	keystroke	f	n/a
482.9165	0.112	965833	keystroke	a	n/a
482.9885	0.112	965977	keystroke	c	n/a
483.1485	0.072	966297	keystroke	e	n/a
483.3325	0.088	966665	keystroke	d	n/a
483.4365	0.088	966873	keystroke	Key.space	n/a
484.893	0.08	969786	keystroke	p	n/a
485.085	0.104	970170	keystroke	a	n/a
485.141	0.112	970282	keystroke	r	n/a
485.237	0.072	970474	keystroke	k	n/a
485.413	0.096	970826	keystroke	Key.space	n/a
486.3165	0.088	972633	keystroke	s	n/a
486.4125	0.088	972825	keystroke	o	n/a
486.5085	0.089	973017	keystroke	r	n/a
486.709	0.048	973418	keystroke	t	n/a
486.853	0.104	973706	keystroke	Key.space	n/a
487.421	0.096	974842	keystroke	h	n/a
487.493	0.072	974986	keystroke	e	n/a
487.661	0.104	975322	keystroke	a	n/a
487.733	0.12	975466	keystroke	r	n/a
487.877	0.072	975754	keystroke	i	n/a
488.037	0.12	976074	keystroke	n	n/a
488.109	0.136	976218	keystroke	g	n/a
488.165	0.096	976330	keystroke	s	n/a
488.453	0.088	976906	keystroke	Key.enter	n/a
488.5455	5.8125	977091	prompt	n/a	meetup his one polo\n
489.2215	0.096	978443	keystroke	m	n/a
489.3255	0.072	978651	keystroke	e	n/a
489.5245	0.105	979049	keystroke	e	n/a
489.6455	0.128	979291	keystroke	t	n/a
490.3255	0.095	980651	keystroke	u	n/a
490.4525	0.104	980905	keystroke	p	n/a
491.093	0.096	982186	keystroke	Key.space	n/a
491.365	0.12	982730	keystroke	h	n/a
491.493	0.088	982986	keystroke	i	n/a
491.653	0.072	983306	keystroke	s	n/a
491.805	0.104	983610	keystroke	Key.space	n/a
492.5645	0.08	985129	keystroke	o	n/a
492.797	0.104	985594	keystroke	n	n/a
492.893	0.096	985786	keystroke	e	n/a
493.069	0.088	986138	keystroke	Key.space	n/a
493.205	0.096	986410	keystroke	p	n/a
493.397	0.072	986794	keystroke	o	n/a
493.573	0.064	987146	keystroke	l	n/a
493.765	0.072	987530	keystroke	o	n/a
494.293	0.064	988586	keystroke	Key.enter	n/a
494.361	9.4225	988722	prompt	n/a	charts advised validation deborah\n
495.069	0.112	990138	keystroke	c	n/a
495.293	0.072	990586	keystroke	h	n/a
495.373	0.12	990746	keystroke	a	n/a
495.453	0.096	990906	keystroke	r	n/a
495.669	0.128	991338	keystroke	t	n/a
495.789	0.056	991578	keystroke	s	n/a
495.901	0.096	991802	keystroke	Key.space	n/a
496.997	0.144	993994	keystroke	a	n/a
497.229	0.088	994458	keystroke	d	n/a
497.437	0.136	994874	keystroke	v	n/a
497.605	0.088	995210	keystroke	i	n/a
497.733	0.072	995466	keystroke	s	n/a
498.261	0.088	996522	keystroke	e	n/a
498.453	0.08	996906	keystroke	d	n/a
498.557	0.096	997114	keystroke	Key.space	n/a
498.9165	0.12	997833	keystroke	v	n/a
499.0605	0.12	998121	keystroke	a	n/a
499.3645	0.112	998729	keystroke	l	n/a
499.6045	0.096	999209	keystroke	i	n/a
499.7645	0.112	999529	keystroke	d	n/a
500.2605	0.112	1000521	keystroke	a	n/a
500.3405	0.112	1000681	keystroke	t	n/a
500.4205	0.12	1000841	keystroke	i	n/a
500.4925	0.088	1000985	keystroke	o	n/a
500.709	0.096	1001418	keystroke	n	n/a
500.837	0.104	1001674	keystroke	Key.space	n/a
502.0605	0.08	1004121	keystroke	d	n/a
502.2445	0.088	1004489	keystroke	e	n/a
502.6125	0.0885	1005225	keystroke	b	n/a
502.8045	0.128	1005609	keystroke	o	n/a
503.0205	0.112	1006041	keystroke	r	n/a
503.2525	0.096	1006505	keystroke	a	n/a
503.4125	0.072	1006825	keystroke	h	n/a
503.6845	0.096	1007369	keystroke	Key.enter	n/a
503.7855	5.8365	1007571	prompt	n/a	wilson plays wars exhaust\n
504.4685	0.088	1008937	keystroke	w	n/a
504.5885	0.088	1009177	keystroke	i	n/a
504.7645	0.08	1009529	keystroke	l	n/a
504.8845	0.088	1009769	keystroke	s	n/a
504.9805	0.056	1009961	keystroke	o	n/a
505.1485	0.0885	1010297	keystroke	n	n/a
505.485	0.072	1010970	keystroke	Key.space	n/a
505.605	0.0795	1011210	keystroke	p	n/a
505.7885	0.088	1011577	keystroke	l	n/a
505.8845	0.072	1011769	keystroke	a	n/a
506.0285	0.08	1012057	keystroke	y	n/a
506.0925	0.096	1012185	keystroke	s	n/a
506.2125	0.128	1012425	keystroke	Key.space	n/a
507.101	0.08	1014202	keystroke	w	n/a
507.317	0.072	1014634	keystroke	a	n/a
507.341	0.128	1014682	keystroke	s	n/a
507.829	0.064	1015658	keystroke	Key.backspace	n/a
507.901	0.12	1015802	keystroke	r	n/a
507.957	0.072	1015914	keystroke	s	n/a
508.053	0.08	1016106	keystroke	Key.space	n/a
508.525	0.064	1017050	keystroke	e	n/a
508.717	0.096	1017434	keystroke	x	n/a
508.893	0.112	1017786	keystroke	h	n/a
509.029	0.096	1018058	keystroke	a	n/a
509.141	0.104	1018282	keystroke	u	n/a
509.277	0.128	1018554	keystroke	s	n/a
509.357	0.104	1018714	keystroke	t	n/a
509.549	0.071	1019098	keystroke	Key.enter	n/a
509.635	7.139	1019270	prompt	n/a	caution synthesis surprising vice\n
510.237	0.0875	1020474	keystroke	c	n/a
510.3965	0.096	1020793	keystroke	a	n/a
510.5405	0.088	1021081	keystroke	u	n/a
510.6365	0.1205	1021273	keystroke	t	n/a
510.789	0.12	1021578	keystroke	i	n/a
510.853	0.096	1021706	keystroke	o	n/a
511.045	0.088	1022090	keystroke	n	n/a
511.165	0.1435	1022330	keystroke	Key.space	n/a
511.5725	0.096	1023145	keystroke	s	n/a
511.7085	0.08	1023417	keystroke	y	n/a
511.8925	0.104	1023785	keystroke	n	n/a
512.0765	0.12	1024153	keystroke	t	n/a
512.2605	0.088	1024521	keystroke	h	n/a
512.3495	0.071	1024699	keystroke	e	n/a
512.6845	0.0965	1025369	keystroke	s	n/a
512.869	0.088	1025738	keystroke	i	n/a
512.997	0.064	1025994	keystroke	s	n/a
513.109	0.112	1026218	keystroke	Key.space	n/a
514.005	0.12	1028010	keystroke	s	n/a
514.133	0.112	1028266	keystroke	u	n/a
514.261	0.1275	1028522	keystroke	r	n/a
514.3805	0.08	1028761	keystroke	p	n/a
514.5485	0.12	1029097	keystroke	r	n/a
514.6765	0.0885	1029353	keystroke	i	n/a
514.853	0.088	1029706	keystroke	s	n/a
515.285	0.088	1030570	keystroke	i	n/a
515.485	0.072	1030970	keystroke	n	n/a
515.589	0.12	1031178	keystroke	g	n/a
515.725	0.12	1031450	keystroke	Key.space	n/a
516.037	0.08	1032074	keystroke	v	n/a
516.2205	0.096	1032441	keystroke	i	n/a
516.3805	0.136	1032761	keystroke	c	n/a
516.5245	0.104	1033049	keystroke	e	n/a
516.6845	0.0885	1033369	keystroke	Key.enter	n/a
516.7785	10.8835	1033557	prompt	n/a	sending maui sublimedirectory lecture\n
517.397	0.08	1034794	keystroke	s	n/a
517.581	0.088	1035162	keystroke	e	n/a
517.693	0.072	1035386	keystroke	n	n/a
517.789	0.088	1035578	keystroke	d	n/a
517.901	0.064	1035802	keystroke	i	n/a
518.053	0.104	1036106	keystroke	n	n/a
518.149	0.12	1036298	keystroke	g	n/a
518.261	0.072	1036522	keystroke	Key.space	n/a
518.4125	0.048	1036825	keystroke	m	n/a
518.4845	0.096	1036969	keystroke	a	n/a
518.7085	0.0965	1037417	keystroke	u	n/a
518.877	0.088	1037754	keystroke	i	n/a
519.037	0.104	1038074	keystroke	Key.space	n/a
519.765	0.096	1039530	keystroke	s	n/a
519.933	0.072	1039866	keystroke	u	n/a
520.141	0.048	1040282	keystroke	b	n/a
520.8685	0.088	1041737	keystroke	l	n/a
521.348	0.096	1042696	keystroke	i	n/a
522.756	0.1285	1045512	keystroke	m	n/a
523.1325	0.064	1046265	keystroke	e	n/a
523.7005	0.08	1047401	keystroke	d	n/a
523.8445	0.088	1047689	keystroke	i	n/a
523.9645	0.12	1047929	keystroke	r	n/a
524.0285	0.096	1048057	keystroke	e	n/a
524.2365	0.088	1048473	keystroke	c	n/a
524.4445	0.08	1048889	keystroke	t	n/a
524.5645	0.072	1049129	keystroke	o	n/a
524.6845	0.104	1049369	keystroke	r	n/a
524.8365	0.08	1049673	keystroke	y	n/a
524.9805	0.112	1049961	keystroke	Key.space	n/a
525.6365	0.104	1051273	keystroke	l	n/a
525.7805	0.136	1051561	keystroke	e	n/a
525.9725	0.096	1051945	keystroke	c	n/a
526.2045	0.0955	1052409	keystroke	t	n/a
526.308	0.088	1052616	keystroke	u	n/a
526.436	0.128	1052872	keystroke	r	n/a
526.5	0.12	1053000	keystroke	e	n/a
527.5645	0.096	1055129	keystroke	Key.enter	n/a
527.666	9.532	1055332	prompt	n/a	lafayette websites there're fewer\n
528.2925	0.112	1056585	keystroke	l	n/a
528.8285	0.12	1057657	keystroke	a	n/a
528.9805	0.096	1057961	keystroke	f	n/a
529.1085	0.128	1058217	keystroke	a	n/a
529.2845	0.12	1058569	keystroke	y	n/a
529.5965	0.08	1059193	keystroke	e	n/a
529.8125	0.072	1059625	keystroke	t	n/a
529.9965	0.144	1059993	keystroke	t	n/a
530.0765	0.088	1060153	keystroke	e	n/a
530.1485	0.088	1060297	keystroke	Key.space	n/a
530.9005	0.064	1061801	keystroke	w	n/a
531.2205	0.104	1062441	keystroke	e	n/a
531.3645	0.088	1062729	keystroke	b	n/a
531.7005	0.112	1063401	keystroke	s	n/a
531.9085	0.072	1063817	keystroke	i	n/a
531.9885	0.12	1063977	keystroke	t	n/a
532.0525	0.072	1064105	keystroke	e	n/a
532.2285	0.08	1064457	keystroke	s	n/a
532.3565	0.112	1064713	keystroke	Key.space	n/a
532.877	0.112	1065754	keystroke	f	n/a
533.005	0.112	1066010	keystroke	i	n/a
533.109	0.152	1066218	keystroke	r	n/a
533.189	0.104	1066378	keystroke	e	n/a
533.421	0.104	1066842	keystroke	h	n/a
533.756	0.057	1067512	keystroke	Key.backspace	n/a
533.925	0.064	1067850	keystroke	Key.backspace	n/a
534.076	0.065	1068152	keystroke	Key.backspace	n/a
534.2445	0.072	1068489	keystroke	Key.backspace	n/a
534.4045	0.072	1068809	keystroke	Key.backspace	n/a
534.7005	0.128	1069401	keystroke	t	n/a
534.813	0.0955	1069626	keystroke	h	n/a
534.9095	0.095	1069819	keystroke	e	n/a
534.9885	0.136	1069977	keystroke	r	n/a
535.0845	0.104	1070169	keystroke	e	n/a
535.3245	0.12	1070649	keystroke	'	n/a
535.5485	0.112	1071097	keystroke	r	n/a
535.5965	0.072	1071193	keystroke	e	n/a
536.0125	0.12	1072025	keystroke	Key.space	n/a
536.3	0.216	1072600	keystroke	f	n/a
536.412	0.24	1072824	keystroke	e	n/a
536.517	0.207	1073034	keystroke	w	n/a
536.772	0.176	1073544	keystroke	e	n/a
536.876	0.152	1073752	keystroke	r	n/a
537.132	0.064	1074264	keystroke	Key.enter	n/a
537.2055	9.408	1074411	prompt	n/a	reading distinguished confidential adobe\n
537.98	0.12	1075960	keystroke	r	n/a
538.06	0.072	1076120	keystroke	e	n/a
538.212	0.096	1076424	keystroke	a	n/a
538.292	0.104	1076584	keystroke	d	n/a
538.388	0.056	1076776	keystroke	i	n/a
538.532	0.08	1077064	keystroke	n	n/a
538.628	0.096	1077256	keystroke	g	n/a
538.684	0.12	1077368	keystroke	Key.space	n/a
538.812	0.0885	1077624	keystroke	d	n/a
538.9325	0.055	1077865	keystroke	i	n/a
539.012	0.0805	1078024	keystroke	s	n/a
539.5565	0.095	1079113	keystroke	t	n/a
539.6845	0.071	1079369	keystroke	i	n/a
539.8605	0.072	1079721	keystroke	n	n/a
539.9485	0.088	1079897	keystroke	g	n/a
540.2275	0.097	1080455	keystroke	s	n/a
540.5325	0.16	1081065	keystroke	u	n/a
540.6765	0.032	1081353	keystroke	i	n/a
541.0995	0.049	1082199	keystroke	Key.backspace	n/a
541.2605	0.064	1082521	keystroke	Key.backspace	n/a
541.4285	0.064	1082857	keystroke	Key.backspace	n/a
541.7005	0.128	1083401	keystroke	u	n/a
541.8045	0.064	1083609	keystroke	i	n/a
542.2445	0.088	1084489	keystroke	s	n/a
542.4045	0.088	1084809	keystroke	h	n/a
542.4765	0.072	1084953	keystroke	e	n/a
542.6685	0.096	1085337	keystroke	d	n/a
542.7405	0.1195	1085481	keystroke	Key.space	n/a
543.036	0.08	1086072	keystroke	c	n/a
543.108	0.08	1086216	keystroke	o	n/a
543.276	0.08	1086552	keystroke	n	n/a
543.38	0.104	1086760	keystroke	f	n/a
543.516	0.096	1087032	keystroke	i	n/a
543.604	0.072	1087208	keystroke	d	n/a
543.788	0.088	1087576	keystroke	e	n/a
543.884	0.088	1087768	keystroke	n	n/a
544.004	0.112	1088008	keystroke	t	n/a
544.124	0.08	1088248	keystroke	i	n/a
544.292	0.088	1088584	keystroke	a	n/a
544.412	0.104	1088824	keystroke	l	n/a
544.596	0.104	1089192	keystroke	Key.space	n/a
544.748	0.072	1089496	keystroke	a	n/a
544.9805	0.088	1089961	keystroke	d	n/a
545.3725	0.088	1090745	keystroke	o	n/a
545.6845	0.04	1091369	keystroke	v	n/a
546.1085	0.088	1092217	keystroke	Key.backspace	n/a
546.2045	0.0875	1092409	keystroke	b	n/a
546.364	0.112	1092728	keystroke	e	n/a
546.524	0.088	1093048	keystroke	Key.enter	n/a
546.6175	5.4605	1093235	prompt	n/a	coaching kansas tommy it's\n
547.348	0.088	1094696	keystroke	c	n/a
547.468	0.08	1094936	keystroke	o	n/a
547.564	0.12	1095128	keystroke	a	n/a
547.636	0.112	1095272	keystroke	c	n/a
547.764	0.08	1095528	keystroke	h	n/a
547.852	0.056	1095704	keystroke	i	n/a
548.02	0.072	1096040	keystroke	n	n/a
548.148	0.112	1096296	keystroke	g	n/a
548.252	0.096	1096504	keystroke	Key.space	n/a
548.7725	0.088	1097545	keystroke	k	n/a
548.9085	0.112	1097817	keystroke	a	n/a
549.0125	0.103	1098025	keystroke	n	n/a
549.1325	0.096	1098265	keystroke	s	n/a
549.516	0.168	1099032	keystroke	a	n/a
549.588	0.136	1099176	keystroke	s	n/a
549.732	0.096	1099464	keystroke	Key.space	n/a
550.404	0.064	1100808	keystroke	t	n/a
550.492	0.072	1100984	keystroke	o	n/a
550.692	0.08	1101384	keystroke	m	n/a
550.8845	0.0635	1101769	keystroke	m	n/a
551.108	0.1045	1102216	keystroke	y	n/a
551.2045	0.088	1102409	keystroke	Key.space	n/a
551.3805	0.0955	1102761	keystroke	i	n/a
551.532	0.104	1103064	keystroke	t	n/a
551.676	0.072	1103352	keystroke	'	n/a
551.804	0.08	1103608	keystroke	s	n/a
551.996	0.08	1103992	keystroke	Key.enter	n/a
552.082	7.835	1104164	prompt	n/a	father controls instrumentation saved\n
552.812	0.0955	1105624	keystroke	f	n/a
552.9635	0.104	1105927	keystroke	a	n/a
553.1165	0.119	1106233	keystroke	t	n/a
553.2685	0.096	1106537	keystroke	h	n/a
553.3325	0.127	1106665	keystroke	e	n/a
553.3965	0.104	1106793	keystroke	r	n/a
553.4755	0.104	1106951	keystroke	Key.space	n/a
553.6285	0.127	1107257	keystroke	c	n/a
553.7715	0.113	1107543	keystroke	o	n/a
554.0035	0.073	1108007	keystroke	n	n/a
554.1165	0.103	1108233	keystroke	t	n/a
554.3005	0.119	1108601	keystroke	r	n/a
554.4205	0.063	1108841	keystroke	o	n/a
554.6045	0.072	1109209	keystroke	l	n/a
554.7725	0.064	1109545	keystroke	s	n/a
554.8675	0.1045	1109735	keystroke	Key.space	n/a
555.452	0.064	1110904	keystroke	i	n/a
555.604	0.096	1111208	keystroke	n	n/a
555.708	0.112	1111416	keystroke	t	n/a
556.212	0.104	1112424	keystroke	r	n/a
556.46	0.064	1112920	keystroke	Key.backspace	n/a
556.628	0.056	1113256	keystroke	Key.backspace	n/a
556.692	0.128	1113384	keystroke	s	n/a
556.764	0.096	1113528	keystroke	t	n/a
556.9485	0.088	1113897	keystroke	r	n/a
557.1165	0.088	1114233	keystroke	u	n/a
557.3405	0.104	1114681	keystroke	m	n/a
557.5005	0.088	1115001	keystroke	e	n/a
557.5965	0.096	1115193	keystroke	n	n/a
557.7245	0.12	1115449	keystroke	t	n/a
558.0045	0.104	1116009	keystroke	a	n/a
558.2845	0.112	1116569	keystroke	t	n/a
558.4845	0.128	1116969	keystroke	i	n/a
558.5725	0.072	1117145	keystroke	o	n/a
558.7565	0.088	1117513	keystroke	n	n/a
558.9155	0.129	1117831	keystroke	Key.space	n/a
559.0765	0.088	1118153	keystroke	s	n/a
559.2765	0.088	1118553	keystroke	a	n/a
559.3405	0.096	1118681	keystroke	v	n/a
559.5165	0.064	1119033	keystroke	e	n/a
559.7165	0.064	1119433	keystroke	d	n/a
559.8365	0.079	1119673	keystroke	Key.enter	n/a
559.921	9.1485	1119842	prompt	n/a	symptoms smooth facial namibia\n
560.5645	0.072	1121129	keystroke	s	n/a
560.7165	0.072	1121433	keystroke	y	n/a
560.9235	0.12	1121847	keystroke	m	n/a
561.0125	0.095	1122025	keystroke	p	n/a
561.1235	0.1285	1122247	keystroke	t	n/a
561.244	0.08	1122488	keystroke	o	n/a
561.404	0.104	1122808	keystroke	n	n/a
561.532	0.088	1123064	keystroke	s	n/a
561.66	0.088	1123320	keystroke	Key.space	n/a
562.172	0.056	1124344	keystroke	Key.backspace	n/a
562.332	0.064	1124664	keystroke	Key.backspace	n/a
562.492	0.064	1124984	keystroke	Key.backspace	n/a
562.708	0.064	1125416	keystroke	m	n/a
562.844	0.072	1125688	keystroke	s	n/a
562.924	0.0875	1125848	keystroke	Key.space	n/a
563.2035	0.064	1126407	keystroke	m	n/a
563.4515	0.088	1126903	keystroke	s	n/a
563.6995	0.04	1127399	keystroke	Key.backspace	n/a
563.8595	0.056	1127719	keystroke	Key.backspace	n/a
563.9555	0.096	1127911	keystroke	s	n/a
564.0835	0.072	1128167	keystroke	m	n/a
564.2435	0.056	1128487	keystroke	o	n/a
564.3955	0.088	1128791	keystroke	o	n/a
564.5155	0.112	1129031	keystroke	t	n/a
564.6755	0.032	1129351	keystroke	h	n/a
564.8115	0.104	1129623	keystroke	Key.space	n/a
565.2445	0.112	1130489	keystroke	f	n/a
565.4445	0.096	1130889	keystroke	a	n/a
565.6125	0.128	1131225	keystroke	c	n/a
565.7885	0.08	1131577	keystroke	i	n/a
565.9485	0.12	1131897	keystroke	a	n/a
566.06	0.088	1132120	keystroke	l	n/a
566.244	0.072	1132488	keystroke	Key.space	n/a
566.876	0.104	1133752	keystroke	n	n/a
567.06	0.104	1134120	keystroke	a	n/a
567.26	0.096	1134520	keystroke	m	n/a
567.508	0.088	1135016	keystroke	i	n/a
568.476	0.032	1136952	keystroke	b	n/a
568.676	0.12	1137352	keystroke	i	n/a
568.804	0.112	1137608	keystroke	a	n/a
568.988	0.08	1137976	keystroke	Key.enter	n/a
569.0785	6.279	1138157	prompt	n/a	holly manga absolute seminar\n
569.748	0.08	1139496	keystroke	h	n/a
569.916	0.072	1139832	keystroke	o	n/a
570.116	0.056	1140232	keystroke	l	n/a
570.2845	0.055	1140569	keystroke	l	n/a
570.436	0.12	1140872	keystroke	y	n/a
570.54	0.08	1141080	keystroke	Key.space	n/a
570.788	0.088	1141576	keystroke	m	n/a
570.932	0.088	1141864	keystroke	a	n/a
571.036	0.104	1142072	keystroke	n	n/a
571.156	0.0955	1142312	keystroke	g	n/a
571.3075	0.096	1142615	keystroke	a	n/a
571.3555	0.104	1142711	keystroke	Key.space	n/a
572.1315	0.104	1144263	keystroke	a	n/a
572.5565	0.088	1145113	keystroke	b	n/a
572.7155	0.104	1145431	keystroke	s	n/a
572.8925	0.064	1145785	keystroke	o	n/a
573.0755	0.072	1146151	keystroke	l	n/a
573.2515	0.12	1146503	keystroke	u	n/a
573.3635	0.136	1146727	keystroke	t	n/a
573.4435	0.088	1146887	keystroke	e	n/a
573.5555	0.088	1147111	keystroke	Key.space	n/a
573.9955	0.112	1147991	keystroke	m	n/a
574.3475	0.072	1148695	keystroke	Key.backspace	n/a
574.4355	0.056	1148871	keystroke	s	n/a
574.5315	0.12	1149063	keystroke	e	n/a
574.6595	0.088	1149319	keystroke	m	n/a
574.7955	0.056	1149591	keystroke	i	n/a
574.9315	0.0885	1149863	keystroke	n	n/a
575.0675	0.12	1150135	keystroke	a	n/a
575.1315	0.12	1150263	keystroke	r	n/a
575.2835	0.072	1150567	keystroke	Key.enter	n/a
575.363	13.442	1150726	prompt	n/a	represent samples drugs clusters\n
577.8915	0.128	1155783	keystroke	r	n/a
577.9475	0.088	1155895	keystroke	e	n/a
578.2115	0.096	1156423	keystroke	o	n/a
578.3395	0.128	1156679	keystroke	r	n/a
578.3875	0.088	1156775	keystroke	e	n/a
578.5715	0.096	1157143	keystroke	s	n/a
578.7155	0.128	1157431	keystroke	e	n/a
578.8835	0.064	1157767	keystroke	b	n/a
579.052	0.096	1158104	keystroke	t	n/a
579.18	0.072	1158360	keystroke	Key.space	n/a
580.268	0.048	1160536	keystroke	Key.backspace	n/a
580.412	0.064	1160824	keystroke	Key.backspace	n/a
580.572	0.056	1161144	keystroke	Key.backspace	n/a
580.732	0.056	1161464	keystroke	Key.backspace	n/a
580.876	0.072	1161752	keystroke	Key.backspace	n/a
581.036	0.064	1162072	keystroke	Key.backspace	n/a
581.196	0.072	1162392	keystroke	Key.backspace	n/a
581.364	0.072	1162728	keystroke	Key.backspace	n/a
582.02	0.08	1164040	keystroke	p	n/a
582.068	0.152	1164136	keystroke	r	n/a
582.124	0.104	1164248	keystroke	e	n/a
582.308	0.088	1164616	keystroke	s	n/a
582.412	0.104	1164824	keystroke	e	n/a
582.572	0.08	1165144	keystroke	n	n/a
582.668	0.104	1165336	keystroke	t	n/a
582.788	0.096	1165576	keystroke	Key.space	n/a
583.3875	0.088	1166775	keystroke	s	n/a
583.5875	0.104	1167175	keystroke	a	n/a
