onset	duration	sample	value	key	prompt_text
1.5135	8.6725	3027	prompt	n/a	the quick brown fox jumps over a lazy dog\n
3.6405	0.128	7281	keystroke	t	n/a
3.7365	0.12	7473	keystroke	h	n/a
3.8565	0.12	7713	keystroke	e	n/a
4.0085	0.087	8017	keystroke	Key.space	n/a
4.3205	0.152	8641	keystroke	q	n/a
4.4005	0.144	8801	keystroke	u	n/a
4.4805	0.128	8961	keystroke	i	n/a
4.6485	0.1515	9297	keystroke	c	n/a
4.7365	0.1035	9473	keystroke	k	n/a
4.944	0.072	9888	keystroke	Key.space	n/a
5.121	0.095	10242	keystroke	b	n/a
5.264	0.16	10528	keystroke	r	n/a
5.384	0.088	10768	keystroke	o	n/a
5.536	0.144	11072	keystroke	w	n/a
5.688	0.088	11376	keystroke	n	n/a
5.904	0.064	11808	keystroke	Key.space	n/a
6.096	0.096	12192	keystroke	b	n/a
6.448	0.08	12896	keystroke	Key.backspace	n/a
6.712	0.112	13424	keystroke	f	n/a
6.816	0.104	13632	keystroke	o	n/a
6.952	0.144	13904	keystroke	x	n/a
7.0745	0.0655	14149	keystroke	Key.space	n/a
7.249	0.102	14498	keystroke	j	n/a
7.4235	0.0875	14847	keystroke	u	n/a
7.5835	0.109	15167	keystroke	m	n/a
7.7145	0.087	15429	keystroke	p	n/a
8.049	0.133	16098	keystroke	s	n/a
8.2265	0.08	16453	keystroke	Key.space	n/a
8.422	0.1225	16844	keystroke	o	n/a
8.5365	0.1515	17073	keystroke	v	n/a
8.6525	0.181	17305	keystroke	e	n/a
8.8495	0.1355	17699	keystroke	r	n/a
9.017	0.0875	18034	keystroke	Key.space	n/a
9.162	0.0975	18324	keystroke	a	n/a
9.216	0.0735	18432	keystroke	Key.space	n/a
9.3915	0.0565	18783	keystroke	l	n/a
9.4285	0.0795	18857	keystroke	a	n/a
9.5445	0.075	19089	keystroke	z	n/a
9.7395	0.0815	19479	keystroke	y	n/a
9.8365	0.028	19673	keystroke	Key.space	n/a
9.916	0.0635	19832	keystroke	d	n/a
9.972	0.0435	19944	keystroke	o	n/a
10.0355	0.0635	20071	keystroke	g	n/a
10.0875	0.097	20175	keystroke	Key.enter	n/a
10.1905	3.232	20381	prompt	n/a	laser raleigh access give\n
10.7995	0.12	21599	keystroke	l	n/a
10.9115	0.183	21823	keystroke	a	n/a
10.983	0.1195	21966	keystroke	s	n/a
11.1985	0.0955	22397	keystroke	e	n/a
11.2635	0.086	22527	keystroke	r	n/a
11.3315	0.0655	22663	keystroke	Key.space	n/a
11.544	0.0835	23088	keystroke	r	n/a
11.6235	0.0885	23247	keystroke	a	n/a
11.7215	0.0265	23443	keystroke	l	n/a
11.829	0.087	23658	keystroke	e	n/a
11.928	0.04	23856	keystroke	i	n/a
11.969	0.0905	23938	keystroke	g	n/a
12.0755	0.06	24151	keystroke	h	n/a
12.136	0.0645	24272	keystroke	t	n/a
12.248	0.064	24496	keystroke	Key.space	n/a
12.3315	0.048	24663	keystroke	a	n/a
12.4275	0.0795	24855	keystroke	c	n/a
12.5585	0.076	25117	keystroke	c	n/a
12.624	0.052	25248	keystroke	e	n/a
12.752	0.0555	25504	keystroke	s	n/a
12.8835	0.103	25767	keystroke	s	n/a
12.9785	0.056	25957	keystroke	Key.space	n/a
13.09	0.038	26180	keystroke	g	n/a
13.134	0.018	26268	keystroke	i	n/a
13.1535	0.132	26307	keystroke	v	n/a
13.2195	0.1615	26439	keystroke	e	n/a
13.3095	0.1115	26619	keystroke	Key.enter	n/a
13.426	4.8865	26852	prompt	n/a	careers addition allan feature\n
14.125	0.16	28250	keystroke	c	n/a
14.261	0.136	28522	keystroke	a	n/a
14.4605	0.12	28921	keystroke	r	n/a
14.652	0.104	29304	keystroke	e	n/a
14.8	0.12	29600	keystroke	e	n/a
14.904	0.1755	29808	keystroke	r	n/a
15.04	0.1355	30080	keystroke	s	n/a
15.2235	0.072	30447	keystroke	Key.space	n/a
15.3925	0.1355	30785	keystroke	a	n/a
15.56	0.1035	31120	keystroke	d	n/a
15.7515	0.0955	31503	keystroke	d	n/a
15.9	0.095	31800	keystroke	i	n/a
16.0985	0.104	32197	keystroke	t	n/a
16.1465	0.2155	32293	keystroke	i	n/a
16.234	0.12	32468	keystroke	o	n/a
16.302	0.0995	32604	keystroke	n	n/a
16.498	0.104	32996	keystroke	Key.space	n/a
16.626	0.128	33252	keystroke	a	n/a
16.738	0.0805	33476	keystroke	l	n/a
16.9055	0.079	33811	keystroke	l	n/a
17.0355	0.1405	34071	keystroke	a	n/a
17.137	0.0785	34274	keystroke	n	n/a
17.268	0.1035	34536	keystroke	Key.space	n/a
17.467	0.1565	34934	keystroke	f	n/a
17.568	0.207	35136	keystroke	e	n/a
17.6675	0.1085	35335	keystroke	a	n/a
17.799	0.12	35598	keystroke	t	n/a
17.927	0.097	35854	keystroke	u	n/a
18.016	0.1835	36032	keystroke	r	n/a
18.072	0.1755	36144	keystroke	e	n/a
18.2155	0.096	36431	keystroke	Key.enter	n/a
18.3165	3.885	36633	prompt	n/a	titled finals consumers remote\n
19.1255	0.104	38251	keystroke	t	n/a
19.2055	0.0715	38411	keystroke	i	n/a
19.325	0.0915	38650	keystroke	t	n/a
19.4245	0.0595	38849	keystroke	l	n/a
19.488	0.0835	38976	keystroke	e	n/a
19.649	0.039	39298	keystroke	d	n/a
19.7085	0.0755	39417	keystroke	Key.space	n/a
19.939	0.08	39878	keystroke	f	n/a
19.967	0.104	39934	keystroke	i	n/a
20.06	0.064	40120	keystroke	n	n/a
20.128	0.1115	40256	keystroke	a	n/a
20.2395	0.064	40479	keystroke	l	n/a
20.3865	0.1135	40773	keystroke	s	n/a
20.562	0.033	41124	keystroke	Key.space	n/a
20.675	0.1555	41350	keystroke	c	n/a
20.7385	0.14	41477	keystroke	o	n/a
20.8225	0.1035	41645	keystroke	n	n/a
20.95	0.1055	41900	keystroke	s	n/a
21.0375	0.0635	42075	keystroke	u	n/a
21.205	0.095	42410	keystroke	m	n/a
21.221	0.123	42442	keystroke	e	n/a
21.328	0.144	42656	keystroke	r	n/a
21.412	0.0955	42824	keystroke	s	n/a
21.4795	0.06	42959	keystroke	Key.space	n/a
21.571	0.157	43142	keystroke	r	n/a
21.6275	0.1325	43255	keystroke	e	n/a
21.7045	0.1115	43409	keystroke	m	n/a
21.808	0.12	43616	keystroke	o	n/a
21.888	0.152	43776	keystroke	t	n/a
21.952	0.144	43904	keystroke	e	n/a
22.104	0.096	44208	keystroke	Key.enter	n/a
22.204	5.596	44408	prompt	n/a	neil anyway meal booth\n
22.807	0.111	45614	keystroke	n	n/a
22.91	0.1355	45820	keystroke	e	n/a
23.014	0.0795	46028	keystroke	i	n/a
23.214	0.0725	46428	keystroke	l	n/a
23.4575	0.096	46915	keystroke	Key.space	n/a
23.665	0.1445	47330	keystroke	a	n/a
23.7935	0.109	47587	keystroke	n	n/a
23.97	0.079	47940	keystroke	y	n/a
24.17	0.191	48340	keystroke	w	n/a
24.274	0.111	48548	keystroke	a	n/a
24.4975	0.081	48995	keystroke	y	n/a
24.5855	0.072	49171	keystroke	Key.space	n/a
24.7695	0.1025	49539	keystroke	m	n/a
24.8455	0.1945	49691	keystroke	e	n/a
24.912	0.152	49824	keystroke	a	n/a
25.032	0.08	50064	keystroke	l	n/a
25.72	0.112	51440	keystroke	Key.space	n/a
26.0585	0.1295	52117	keystroke	o	n/a
26.5305	0.089	53061	keystroke	Key.backspace	n/a
26.8535	0.1385	53707	keystroke	b	n/a
27.104	0.08	54208	keystroke	o	n/a
27.256	0.08	54512	keystroke	o	n/a
27.416	0.143	54832	keystroke	t	n/a
27.511	0.08	55022	keystroke	h	n/a
27.687	0.112	55374	keystroke	Key.enter	n/a
27.803	6.229	55606	prompt	n/a	institutional reflect young sufficiently\n
28.4535	0.137	56907	keystroke	i	n/a
28.5585	0.104	57117	keystroke	n	n/a
28.6785	0.1355	57357	keystroke	s	n/a
28.91	0.1205	57820	keystroke	t	n/a
28.958	0.0805	57916	keystroke	i	n/a
29.294	0.1275	58588	keystroke	t	n/a
29.398	0.0795	58796	keystroke	u	n/a
29.562	0.108	59124	keystroke	t	n/a
29.606	0.2155	59212	keystroke	i	n/a
29.702	0.1115	59404	keystroke	o	n/a
29.758	0.1275	59516	keystroke	n	n/a
29.9015	0.16	59803	keystroke	a	n/a
30.0455	0.0805	60091	keystroke	l	n/a
30.2215	0.08	60443	keystroke	Key.space	n/a
30.3335	0.136	60667	keystroke	r	n/a
30.4215	0.1275	60843	keystroke	e	n/a
30.597	0.1445	61194	keystroke	f	n/a
30.6775	0.096	61355	keystroke	l	n/a
30.7575	0.1355	61515	keystroke	e	n/a
30.925	0.104	61850	keystroke	c	n/a
31.1735	0.1595	62347	keystroke	t	n/a
31.2855	0.0955	62571	keystroke	Key.space	n/a
31.701	0.128	63402	keystroke	y	n/a
31.821	0.183	63642	keystroke	o	n/a
31.9245	0.1345	63849	keystroke	u	n/a
32.083	0.0515	64166	keystroke	n	n/a
32.119	0.0595	64238	keystroke	g	n/a
32.188	0.048	64376	keystroke	Key.space	n/a
32.272	0.076	64544	keystroke	s	n/a
32.3485	0.0585	64697	keystroke	u	n/a
32.431	0.068	64862	keystroke	f	n/a
32.5675	0.0805	65135	keystroke	f	n/a
32.648	0.066	65296	keystroke	i	n/a
32.883	0.1155	65766	keystroke	c	n/a
32.9705	0.076	65941	keystroke	i	n/a
33.0865	0.1435	66173	keystroke	e	n/a
33.294	0.081	66588	keystroke	n	n/a
33.4305	0.1595	66861	keystroke	t	n/a
33.7455	0.08	67491	keystroke	l	n/a
33.8475	0.0885	67695	keystroke	y	n/a
33.938	0.092	67876	keystroke	Key.enter	n/a
34.035	8.191	68070	prompt	n/a	removal disability genres extraction\n
34.662	0.2005	69324	keystroke	r	n/a
34.7665	0.185	69533	keystroke	e	n/a
35.0155	0.1605	70031	keystroke	m	n/a
35.152	0.12	70304	keystroke	o	n/a
35.28	0.144	70560	keystroke	v	n/a
35.352	0.1365	70704	keystroke	e	n/a
35.7605	0.088	71521	keystroke	Key.backspace	n/a
36	0.1685	72000	keystroke	a	n/a
36.1125	0.096	72225	keystroke	l	n/a
36.377	0.08	72754	keystroke	Key.space	n/a
36.5535	0.152	73107	keystroke	d	n/a
36.6815	0.088	73363	keystroke	i	n/a
36.794	0.104	73588	keystroke	s	n/a
36.978	0.1455	73956	keystroke	a	n/a
37.1235	0.144	74247	keystroke	b	n/a
37.3875	0.12	74775	keystroke	i	n/a
37.54	0.247	75080	keystroke	l	n/a
37.667	0.136	75334	keystroke	i	n/a
38.003	0.1115	76006	keystroke	t	n/a
38.2185	0.104	76437	keystroke	y	n/a
38.3305	0.08	76661	keystroke	Key.space	n/a
38.5225	0.176	77045	keystroke	g	n/a
38.6265	0.128	77253	keystroke	e	n/a
38.7225	0.096	77445	keystroke	n	n/a
38.8425	0.128	77685	keystroke	e	n/a
38.9225	0.1765	77845	keystroke	r	n/a
39.075	0.024	78150	keystroke	a	n/a
39.556	0.1205	79112	keystroke	Key.backspace	n/a
39.7975	0.0885	79595	keystroke	e	n/a
40.006	0.1445	80012	keystroke	s	n/a
40.1825	0.0875	80365	keystroke	Key.space	n/a
40.5265	0.1135	81053	keystroke	e	n/a
40.767	0.0715	81534	keystroke	x	n/a
40.9345	0.1045	81869	keystroke	t	n/a
41.119	0.1285	82238	keystroke	r	n/a
41.199	0.1205	82398	keystroke	a	n/a
41.3905	0.072	82781	keystroke	c	n/a
41.607	0.1845	83214	keystroke	t	n/a
41.7435	0.2075	83487	keystroke	i	n/a
41.8315	0.1205	83663	keystroke	o	n/a
41.863	0.128	83726	keystroke	n	n/a
42.087	0.1365	84174	keystroke	Key.enter	n/a
42.232	9.211	84464	prompt	n/a	different witch universal young\n
42.951	0.129	85902	keystroke	d	n/a
43.039	0.1045	86078	keystroke	i	n/a
43.1675	0.112	86335	keystroke	f	n/a
43.369	0.031	86738	keystroke	f	n/a
43.369	0.1665	86738	keystroke	e	n/a
43.5125	0.175	87025	keystroke	r	n/a
43.6475	0.1685	87295	keystroke	e	n/a
43.6955	0.1125	87391	keystroke	n	n/a
44.0395	0.064	88079	keystroke	Key.backspace	n/a
44.0485	0.039	88097	keystroke	=	n/a
44.2075	0.0965	88415	keystroke	Key.backspace	n/a
44.384	0.0965	88768	keystroke	Key.backspace	n/a
44.5355	0.128	89071	keystroke	Key.backspace	n/a
44.7355	0.0565	89471	keystroke	Key.backspace	n/a
45.6395	0.16	91279	keystroke	r	n/a
45.7195	0.184	91439	keystroke	e	n/a
45.96	0.096	91920	keystroke	n	n/a
46.2235	0.136	92447	keystroke	t	n/a
46.4	0.096	92800	keystroke	Key.space	n/a
46.944	0.1685	93888	keystroke	w	n/a
47.096	0.0645	94192	keystroke	i	n/a
47.2235	0.08	94447	keystroke	t	n/a
47.88	0.16	95760	keystroke	c	n/a
48.032	0.0725	96064	keystroke	h	n/a
48.2475	0.08	96495	keystroke	Key.space	n/a
48.7765	0.1035	97553	keystroke	u	n/a
48.928	0.176	97856	keystroke	n	n/a
49.04	0.1365	98080	keystroke	i	n/a
49.3045	0.1195	98609	keystroke	v	n/a
49.392	0.177	98784	keystroke	e	n/a
49.584	0.1685	99168	keystroke	r	n/a
49.7775	0.1825	99555	keystroke	s	n/a
49.92	0.176	99840	keystroke	a	n/a
50.008	0.072	100016	keystroke	l	n/a
50.377	0.087	100754	keystroke	Key.space	n/a
50.6805	0.113	101361	keystroke	y	n/a
50.7855	0.1905	101571	keystroke	o	n/a
50.921	0.144	101842	keystroke	u	n/a
51.1285	0.096	102257	keystroke	n	n/a
51.2165	0.08	102433	keystroke	g	n/a
51.369	0.072	102738	keystroke	Key.enter	n/a
51.4475	8.379	102895	prompt	n/a	timely abstracts analyzes firmware\n
52.1605	0.152	104321	keystroke	t	n/a
52.2885	0.152	104577	keystroke	m	n/a
52.3525	0.16	104705	keystroke	i	n/a
52.4565	0.1195	104913	keystroke	e	n/a
52.632	0.096	105264	keystroke	l	n/a
52.761	0.111	105522	keystroke	y	n/a
52.984	0.104	105968	keystroke	Key.space	n/a
53.3125	0.08	106625	keystroke	a	n/a
53.6	0.096	107200	keystroke	b	n/a
53.7845	0.128	107569	keystroke	s	n/a
54.017	0.096	108034	keystroke	t	n/a
54.2005	0.12	108401	keystroke	r	n/a
54.2725	0.2485	108545	keystroke	a	n/a
54.473	0.12	108946	keystroke	c	n/a
54.728	0.2005	109456	keystroke	t	n/a
54.8405	0.168	109681	keystroke	s	n/a
54.9925	0.0885	109985	keystroke	Key.space	n/a
55.2085	0.136	110417	keystroke	a	n/a
55.3365	0.1205	110673	keystroke	n	n/a
55.553	0.1195	111106	keystroke	y	n/a
56.3525	0.08	112705	keystroke	Key.backspace	n/a
56.569	0.128	113138	keystroke	a	n/a
56.721	0.1355	113442	keystroke	l	n/a
56.8885	0.104	113777	keystroke	y	n/a
57.225	0.1835	114450	keystroke	z	n/a
57.3925	0.104	114785	keystroke	e	n/a
57.6245	0.128	115249	keystroke	s	n/a
57.7685	0.08	115537	keystroke	Key.space	n/a
58.0565	0.128	116113	keystroke	f	n/a
58.1765	0.0885	116353	keystroke	i	n/a
58.296	0.1205	116592	keystroke	r	n/a
58.4325	0.112	116865	keystroke	m	n/a
58.6965	0.088	117393	keystroke	a	n/a
59.0565	0.104	118113	keystroke	Key.backspace	n/a
59.1845	0.2	118369	keystroke	w	n/a
59.2885	0.12	118577	keystroke	a	n/a
59.3765	0.288	118753	keystroke	r	n/a
59.5365	0.16	119073	keystroke	e	n/a
59.737	0.088	119474	keystroke	Key.enter	n/a
59.8295	5.4935	119659	prompt	n/a	regions nutritional can micro\n
60.465	0.1355	120930	keystroke	r	n/a
60.5365	0.12	121073	keystroke	e	n/a
60.7205	0.12	121441	keystroke	g	n/a
60.8005	0.2085	121601	keystroke	i	n/a
60.897	0.12	121794	keystroke	o	n/a
60.945	0.1275	121890	keystroke	n	n/a
61.0645	0.128	122129	keystroke	s	n/a
61.2005	0.064	122401	keystroke	Key.space	n/a
61.393	0.096	122786	keystroke	n	n/a
61.6005	0.096	123201	keystroke	u	n/a
61.7365	0.104	123473	keystroke	t	n/a
61.9205	0.136	123841	keystroke	r	n/a
62.0405	0.096	124081	keystroke	i	n/a
62.248	0.1675	124496	keystroke	t	n/a
62.3755	0.232	124751	keystroke	i	n/a
62.4715	0.112	124943	keystroke	o	n/a
62.5435	0.129	125087	keystroke	n	n/a
62.6965	0.16	125393	keystroke	a	n/a
62.8165	0.08	125633	keystroke	l	n/a
62.9765	0.0875	125953	keystroke	Key.space	n/a
63.128	0.192	126256	keystroke	c	n/a
63.2485	0.1675	126497	keystroke	a	n/a
63.376	0.08	126752	keystroke	n	n/a
63.5525	0.056	127105	keystroke	Key.space	n/a
63.7205	0.088	127441	keystroke	m	n/a
63.9045	0.0965	127809	keystroke	i	n/a
64.009	0.096	128018	keystroke	r	n/a
64.537	0.08	129074	keystroke	Key.backspace	n/a
64.657	0.088	129314	keystroke	c	n/a
64.8645	0.16	129729	keystroke	r	n/a
64.9685	0.088	129937	keystroke	o	n/a
65.209	0.112	130418	keystroke	Key.enter	n/a
65.3265	6.4215	130653	prompt	n/a	chorus candidates asian earth\n
66.153	0.1925	132306	keystroke	c	n/a
66.2815	0.136	132563	keystroke	h	n/a
66.3935	0.0955	132787	keystroke	o	n/a
66.8895	0.1515	133779	keystroke	r	n/a
67.001	0.096	134002	keystroke	u	n/a
67.185	0.1365	134370	keystroke	s	n/a
67.2975	0.08	134595	keystroke	Key.space	n/a
67.4895	0.1515	134979	keystroke	c	n/a
67.561	0.1845	135122	keystroke	a	n/a
67.7055	0.096	135411	keystroke	n	n/a
67.8495	0.1525	135699	keystroke	d	n/a
67.97	0.063	135940	keystroke	i	n/a
68.1135	0.144	136227	keystroke	d	n/a
68.2335	0.16	136467	keystroke	a	n/a
68.4895	0.2	136979	keystroke	t	n/a
68.577	0.1605	137154	keystroke	e	n/a
68.994	0.1355	137988	keystroke	s	n/a
69.2815	0.088	138563	keystroke	Key.space	n/a
69.498	0.1675	138996	keystroke	a	n/a
69.65	0.1675	139300	keystroke	s	n/a
70.018	0.2715	140036	keystroke	i	n/a
70.13	0.1595	140260	keystroke	o	n/a
70.2415	0.1125	140483	keystroke	n	n/a
70.474	0.088	140948	keystroke	Key.space	n/a
70.6905	0.2875	141381	keystroke	e	n/a
70.802	0.152	141604	keystroke	a	n/a
70.906	0.16	141812	keystroke	r	n/a
71.146	0.184	142292	keystroke	t	n/a
71.266	0.088	142532	keystroke	h	n/a
71.61	0.1365	143220	keystroke	Key.enter	n/a
71.7515	7.0055	143503	prompt	n/a	very lion designs properly\n
72.482	0.1285	144964	keystroke	v	n/a
72.5865	0.184	145173	keystroke	e	n/a
72.7625	0.144	145525	keystroke	r	n/a
73.0345	0.184	146069	keystroke	t	n/a
73.3305	0.088	146661	keystroke	Key.space	n/a
73.731	0.072	147462	keystroke	Key.backspace	n/a
73.883	0.072	147766	keystroke	Key.backspace	n/a
73.9865	0.112	147973	keystroke	y	n/a
74.1145	0.088	148229	keystroke	Key.space	n/a
74.275	0.104	148550	keystroke	l	n/a
74.491	0.264	148982	keystroke	i	n/a
74.5945	0.1685	149189	keystroke	o	n/a
74.731	0.112	149462	keystroke	n	n/a
74.9475	0.096	149895	keystroke	Key.space	n/a
75.115	0.136	150230	keystroke	d	n/a
75.235	0.1285	150470	keystroke	e	n/a
75.5075	0.1275	151015	keystroke	s	n/a
75.627	0.0885	151254	keystroke	i	n/a
75.7795	0.112	151559	keystroke	g	n/a
75.8835	0.096	151767	keystroke	n	n/a
76.2595	0.112	152519	keystroke	s	n/a
76.8035	0.0805	153607	keystroke	Key.space	n/a
77.012	0.12	154024	keystroke	p	n/a
77.1475	0.136	154295	keystroke	r	n/a
77.2355	0.088	154471	keystroke	o	n/a
77.4515	0.0965	154903	keystroke	p	n/a
77.5235	0.1445	155047	keystroke	e	n/a
77.636	0.152	155272	keystroke	r	n/a
77.804	0.104	155608	keystroke	l	n/a
77.94	0.136	155880	keystroke	y	n/a
78.164	0.048	156328	keystroke	\	n/a
78.6035	0.152	157207	keystroke	Key.enter	n/a
78.76	7.3875	157520	prompt	n/a	liechtenstein ment calls recently\n
79.596	0.1835	159192	keystroke	l	n/a
79.7235	0.128	159447	keystroke	i	n/a
79.988	0.16	159976	keystroke	e	n/a
80.3315	0.1765	160663	keystroke	c	n/a
80.5	0.104	161000	keystroke	h	n/a
81.212	0.1445	162424	keystroke	t	n/a
81.316	0.1445	162632	keystroke	e	n/a
81.4685	0.0955	162937	keystroke	n	n/a
81.9325	0.0875	163865	keystroke	s	n/a
82.108	0.1685	164216	keystroke	t	n/a
82.1965	0.176	164393	keystroke	e	n/a
82.46	0.176	164920	keystroke	i	n/a
82.58	0.1275	165160	keystroke	n	n/a
82.836	0.076	165672	keystroke	Key.space	n/a
83.0555	0.1125	166111	keystroke	m	n/a
83.192	0.2555	166384	keystroke	e	n/a
83.32	0.1515	166640	keystroke	a	n/a
83.4555	0.072	166911	keystroke	n	n/a
83.688	0.12	167376	keystroke	t	n/a
83.928	0.072	167856	keystroke	Key.space	n/a
84.1285	0.2075	168257	keystroke	c	n/a
84.248	0.1765	168496	keystroke	a	n/a
84.352	0.0645	168704	keystroke	l	n/a
84.4965	0.112	168993	keystroke	l	n/a
84.6725	0.152	169345	keystroke	s	n/a
84.8565	0.064	169713	keystroke	Key.space	n/a
85.145	0.1595	170290	keystroke	r	n/a
85.225	0.1595	170450	keystroke	e	n/a
85.4725	0.152	170945	keystroke	c	n/a
85.5605	0.1515	171121	keystroke	e	n/a
85.728	0.0805	171456	keystroke	n	n/a
85.8005	0.127	171601	keystroke	t	n/a
85.928	0.087	171856	keystroke	l	n/a
85.999	0.1035	171998	keystroke	y	n/a
86.1065	0.041	172213	keystroke	Key.enter	n/a
86.1475	5.9575	172295	prompt	n/a	concert purposes gentle database\n
86.854	0.169	173708	keystroke	c	n/a
86.9915	0.1355	173983	keystroke	o	n/a
87.071	0.1275	174142	keystroke	n	n/a
87.191	0.1195	174382	keystroke	c	n/a
87.2705	0.2005	174541	keystroke	e	n/a
87.455	0.128	174910	keystroke	r	n/a
87.6865	0.1035	175373	keystroke	t	n/a
87.782	0.072	175564	keystroke	Key.space	n/a
87.95	0.121	175900	keystroke	p	n/a
88.1985	0.088	176397	keystroke	u	n/a
88.2945	0.096	176589	keystroke	r	n/a
88.4225	0.08	176845	keystroke	p	n/a
88.599	0.1035	177198	keystroke	o	n/a
88.7345	0.072	177469	keystroke	s	n/a
88.9185	0.072	177837	keystroke	e	n/a
89.119	0.112	178238	keystroke	s	n/a
89.215	0.064	178430	keystroke	Key.space	n/a
89.367	0.16	178734	keystroke	g	n/a
89.447	0.16	178894	keystroke	e	n/a
89.567	0.096	179134	keystroke	n	n/a
89.743	0.144	179486	keystroke	t	n/a
89.903	0.0965	179806	keystroke	l	n/a
90.375	0.144	180750	keystroke	e	n/a
90.647	0.072	181294	keystroke	Key.space	n/a
90.951	0.1525	181902	keystroke	d	n/a
91.0875	0.12	182175	keystroke	a	n/a
91.271	0.1525	182542	keystroke	t	n/a
91.3675	0.128	182735	keystroke	a	n/a
91.5275	0.104	183055	keystroke	b	n/a
91.6635	0.104	183327	keystroke	s	n/a
91.8875	0.104	183775	keystroke	e	n/a
92.0075	0.096	184015	keystroke	Key.enter	n/a
92.1075	5.095	184215	prompt	n/a	deemed answer updating sept\n
93.016	0.128	186032	keystroke	d	n/a
93.1685	0.12	186337	keystroke	e	n/a
93.36	0.136	186720	keystroke	e	n/a
93.456	0.088	186912	keystroke	m	n/a
93.592	0.096	187184	keystroke	e	n/a
93.7765	0.1595	187553	keystroke	d	n/a
93.904	0.072	187808	keystroke	Key.space	n/a
94.1765	0.16	188353	keystroke	a	n/a
94.3285	0.0955	188657	keystroke	n	n/a
94.432	0.1125	188864	keystroke	s	n/a
94.6485	0.192	189297	keystroke	e	n/a
94.7765	0.16	189553	keystroke	r	n/a
94.92	0.0805	189840	keystroke	Key.space	n/a
95.1845	0.112	190369	keystroke	u	n/a
95.425	0.1435	190850	keystroke	p	n/a
95.5925	0.1445	191185	keystroke	d	n/a
95.705	0.104	191410	keystroke	a	n/a
95.937	0.12	191874	keystroke	t	n/a
96.065	0.16	192130	keystroke	i	n/a
96.169	0.12	192338	keystroke	n	n/a
96.265	0.104	192530	keystroke	g	n/a
96.385	0.088	192770	keystroke	Key.space	n/a
96.545	0.088	193090	keystroke	s	n/a
96.729	0.1205	193458	keystroke	e	n/a
96.8575	0.104	193715	keystroke	p	n/a
96.9695	0.1355	193939	keystroke	t	n/a
97.106	0.095	194212	keystroke	Key.enter	n/a
97.2055	5.757	194411	prompt	n/a	detective gabriel shots confusion\n
97.9215	0.1435	195843	keystroke	d	n/a
98.0255	0.1195	196051	keystroke	e	n/a
98.233	0.152	196466	keystroke	t	n/a
98.329	0.1755	196658	keystroke	e	n/a
98.5605	0.112	197121	keystroke	c	n/a
98.8085	0.112	197617	keystroke	t	n/a
98.9285	0.0795	197857	keystroke	i	n/a
99.0965	0.144	198193	keystroke	v	n/a
99.3125	0.152	198625	keystroke	e	n/a
99.561	0.072	199122	keystroke	Key.space	n/a
99.777	0.16	199554	keystroke	g	n/a
99.889	0.1525	199778	keystroke	a	n/a
100.0975	0.0955	200195	keystroke	b	n/a
100.273	0.1285	200546	keystroke	r	n/a
100.4175	0.088	200835	keystroke	i	n/a
100.5215	0.152	201043	keystroke	e	n/a
100.6815	0.0795	201363	keystroke	l	n/a
100.9135	0.056	201827	keystroke	Key.space	n/a
101.0575	0.136	202115	keystroke	s	n/a
101.1535	0.1275	202307	keystroke	h	n/a
101.241	0.1365	202482	keystroke	o	n/a
101.3375	0.176	202675	keystroke	t	n/a
101.4175	0.168	202835	keystroke	s	n/a
101.6575	0.08	203315	keystroke	Key.space	n/a
101.8015	0.144	203603	keystroke	c	n/a
101.8815	0.136	203763	keystroke	o	n/a
101.9615	0.104	203923	keystroke	n	n/a
102.0735	0.16	204147	keystroke	f	n/a
102.2175	0.072	204435	keystroke	u	n/a
102.3615	0.168	204723	keystroke	s	n/a
102.5055	0.216	205011	keystroke	i	n/a
102.6015	0.128	205203	keystroke	o	n/a
102.6495	0.12	205299	keystroke	n	n/a
102.8495	0.1115	205699	keystroke	Key.enter	n/a
102.9655	5.451	205931	prompt	n/a	attract contract hall respondent\n
103.6015	0.144	207203	keystroke	a	n/a
103.8975	0.0955	207795	keystroke	t	n/a
104.065	0.088	208130	keystroke	t	n/a
104.2405	0.144	208481	keystroke	r	n/a
104.3525	0.1525	208705	keystroke	a	n/a
104.6005	0.12	209201	keystroke	c	n/a
104.8885	0.144	209777	keystroke	t	n/a
105.0725	0.072	210145	keystroke	Key.space	n/a
105.385	0.136	210770	keystroke	c	n/a
105.473	0.1275	210946	keystroke	o	n/a
105.5525	0.1285	211105	keystroke	n	n/a
105.705	0.112	211410	keystroke	t	n/a
105.897	0.136	211794	keystroke	r	n/a
106.001	0.144	212002	keystroke	a	n/a
106.217	0.096	212434	keystroke	c	n/a
106.441	0.12	212882	keystroke	t	n/a
106.513	0.08	213026	keystroke	Key.space	n/a
106.713	0.08	213426	keystroke	h	n/a
106.809	0.1195	213618	keystroke	a	n/a
106.9205	0.064	213841	keystroke	l	n/a
107.048	0.0805	214096	keystroke	l	n/a
107.256	0.1035	214512	keystroke	Key.space	n/a
107.3675	0.1235	214735	keystroke	r	n/a
107.447	0.044	214894	keystroke	e	n/a
107.5385	0.068	215077	keystroke	s	n/a
107.5985	0.081	215197	keystroke	p	n/a
107.799	0.12	215598	keystroke	o	n/a
107.875	0.089	215750	keystroke	n	n/a
107.948	0.1225	215896	keystroke	d	n/a
107.9985	0.152	215997	keystroke	e	n/a
108.1345	0.089	216269	keystroke	n	n/a
108.2315	0.128	216463	keystroke	t	n/a
108.3275	0.088	216655	keystroke	Key.enter	n/a
108.419	5.9355	216838	prompt	n/a	recovered monster cole consideration\n
109.0555	0.144	218111	keystroke	r	n/a
109.1355	0.136	218271	keystroke	e	n/a
109.3755	0.136	218751	keystroke	c	n/a
109.4875	0.08	218975	keystroke	o	n/a
109.5995	0.128	219199	keystroke	v	n/a
109.6795	0.16	219359	keystroke	e	n/a
109.8555	0.1755	219711	keystroke	r	n/a
110.023	0.048	220046	keystroke	a	n/a
110.343	0.0725	220686	keystroke	Key.backspace	n/a
110.4395	0.0545	220879	keystroke	e	n/a
110.5735	0.1315	221147	keystroke	d	n/a
110.745	0.0395	221490	keystroke	Key.space	n/a
110.906	0.0675	221812	keystroke	m	n/a
110.9415	0.0825	221883	keystroke	o	n/a
111.041	0.0795	222082	keystroke	n	n/a
111.144	0.0755	222288	keystroke	s	n/a
111.2795	0.0285	222559	keystroke	t	n/a
111.3075	0.0605	222615	keystroke	e	n/a
111.352	0.073	222704	keystroke	r	n/a
111.5085	0.0555	223017	keystroke	Key.space	n/a
111.8505	0.1135	223701	keystroke	c	n/a
112.0035	0.04	224007	keystroke	o	n/a
112.079	0.0685	224158	keystroke	l	n/a
112.278	0.066	224556	keystroke	e	n/a
112.393	0.0585	224786	keystroke	Key.space	n/a
112.596	0.0865	225192	keystroke	c	n/a
112.644	0.102	225288	keystroke	o	n/a
112.6985	0.0915	225397	keystroke	n	n/a
112.8615	0.134	225723	keystroke	s	n/a
112.9275	0.0635	225855	keystroke	i	n/a
113.393	0.1535	226786	keystroke	e	n/a
113.4825	0.1755	226965	keystroke	r	n/a
113.674	0.1075	227348	keystroke	a	n/a
113.8295	0.149	227659	keystroke	t	n/a
113.9235	0.1425	227847	keystroke	i	n/a
113.9705	0.1115	227941	keystroke	o	n/a
114.0185	0.1195	228037	keystroke	n	n/a
114.2415	0.1115	228483	keystroke	Key.enter	n/a
114.3595	4.2	228719	prompt	n/a	failing july tips mesh\n
114.812	0.088	229624	keystroke	f	n/a
114.8995	0.052	229799	keystroke	a	n/a
114.9	0.036	229800	keystroke	i	n/a
115.017	0.092	230034	keystroke	l	n/a
115.9855	0.152	231971	keystroke	i	n/a
116.0975	0.104	232195	keystroke	n	n/a
116.2095	0.1445	232419	keystroke	g	n/a
116.306	0.072	232612	keystroke	Key.space	n/a
116.5375	0.0805	233075	keystroke	j	n/a
116.722	0.096	233444	keystroke	u	n/a
116.9385	0.1035	233877	keystroke	l	n/a
117.074	0.1125	234148	keystroke	y	n/a
117.2105	0.08	234421	keystroke	Key.space	n/a
117.3385	0.1525	234677	keystroke	t	n/a
117.435	0.088	234870	keystroke	i	n/a
117.602	0.112	235204	keystroke	p	n/a
117.754	0.152	235508	keystroke	s	n/a
117.906	0.0715	235812	keystroke	Key.space	n/a
118.098	0.103	236196	keystroke	m	n/a
118.193	0.071	236386	keystroke	e	n/a
118.2915	0.0445	236583	keystroke	s	n/a
118.3435	0.044	236687	keystroke	h	n/a
118.479	0.0795	236958	keystroke	Key.enter	n/a
118.56	5.005	237120	prompt	n/a	kinda maintain calgary attended\n
119.091	0.106	238182	keystroke	k	n/a
119.265	0.1435	238530	keystroke	i	n/a
119.3525	0.144	238705	keystroke	n	n/a
119.4645	0.1915	238929	keystroke	d	n/a
119.5605	0.1925	239121	keystroke	a	n/a
119.729	0.0875	239458	keystroke	Key.space	n/a
120.1	0.096	240200	keystroke	m	n/a
120.1875	0.132	240375	keystroke	a	n/a
120.3035	0.0795	240607	keystroke	i	n/a
120.352	0.0635	240704	keystroke	n	n/a
120.416	0.032	240832	keystroke	t	n/a
120.448	0.014	240896	keystroke	a	n/a
120.4595	0.0425	240919	keystroke	i	n/a
120.492	0.038	240984	keystroke	n	n/a
120.5935	0.072	241187	keystroke	Key.space	n/a
120.859	0.106	241718	keystroke	c	n/a
120.926	0.0825	241852	keystroke	a	n/a
120.9755	0.041	241951	keystroke	l	n/a
121.124	0.0265	242248	keystroke	g	n/a
121.156	0.028	242312	keystroke	a	n/a
121.1985	0.1155	242397	keystroke	r	n/a
121.464	0.0315	242928	keystroke	y	n/a
121.516	0.024	243032	keystroke	Key.space	n/a
121.9035	0.052	243807	keystroke	a	n/a
122.0115	0.035	244023	keystroke	t	n/a
122.0755	0.049	244151	keystroke	t	n/a
122.0775	0.078	244155	keystroke	e	n/a
122.1555	0.024	244311	keystroke	n	n/a
122.2355	0.02	244471	keystroke	t	n/a
122.256	0.0515	244512	keystroke	e	n/a
122.707	0.049	245414	keystroke	Key.backspace	n/a
122.8115	0.0205	245623	keystroke	Key.backspace	n/a
122.904	0.074	245808	keystroke	d	n/a
123.0925	0.1145	246185	keystroke	t	n/a
123.1205	0.1105	246241	keystroke	e	n/a
123.28	0.052	246560	keystroke	Key.backspace	n/a
123.3575	0.03	246715	keystroke	Key.backspace	n/a
123.3895	0.062	246779	keystroke	e	n/a
123.484	0.0555	246968	keystroke	d	n/a
123.532	0.032	247064	keystroke	Key.enter	n/a
123.568	6.792	247136	prompt	n/a	calculators seafood revelation trade\n
124.1355	0.061	248271	keystroke	c	n/a
124.1525	0.1735	248305	keystroke	a	n/a
124.2125	0.0895	248425	keystroke	l	n/a
124.366	0.168	248732	keystroke	c	n/a
124.486	0.072	248972	keystroke	u	n/a
124.67	0.1035	249340	keystroke	l	n/a
124.7575	0.1045	249515	keystroke	a	n/a
124.9255	0.128	249851	keystroke	t	n/a
125.0215	0.088	250043	keystroke	o	n/a
125.1495	0.128	250299	keystroke	r	n/a
125.541	0.088	251082	keystroke	s	n/a
125.6925	0.08	251385	keystroke	Key.space	n/a
126.1325	0.092	252265	keystroke	s	n/a
126.312	0.069	252624	keystroke	e	n/a
126.4765	0.072	252953	keystroke	a	n/a
127.1085	0.136	254217	keystroke	f	n/a
127.1885	0.088	254377	keystroke	o	n/a
127.3325	0.096	254665	keystroke	o	n/a
127.469	0.1275	254938	keystroke	d	n/a
127.5645	0.072	255129	keystroke	Key.space	n/a
127.7645	0.128	255529	keystroke	r	n/a
127.8525	0.1285	255705	keystroke	e	n/a
128.0925	0.1685	256185	keystroke	v	n/a
128.2045	0.0645	256409	keystroke	e	n/a
128.62	0.104	257240	keystroke	l	n/a
128.772	0.1115	257544	keystroke	a	n/a
128.9795	0.1365	257959	keystroke	t	n/a
129.0275	0.2	258055	keystroke	i	n/a
129.088	0.1315	258176	keystroke	o	n/a
129.1635	0.1115	258327	keystroke	n	n/a
129.344	0.04	258688	keystroke	Key.space	n/a
129.423	0.088	258846	keystroke	r	n/a
129.7195	0.0875	259439	keystroke	Key.backspace	n/a
129.815	0.08	259630	keystroke	t	n/a
129.9665	0.0575	259933	keystroke	r	n/a
130.018	0.092	260036	keystroke	a	n/a
130.175	0.0995	260350	keystroke	d	n/a
130.215	0.0955	260430	keystroke	e	n/a
130.2825	0.076	260565	keystroke	Key.enter	n/a
130.363	6.3785	260726	prompt	n/a	awful boxes exercise used\n
130.984	0.1315	261968	keystroke	a	n/a
131.104	0.1015	262208	keystroke	w	n/a
131.31	0.158	262620	keystroke	f	n/a
131.422	0.054	262844	keystroke	u	n/a
131.581	0.076	263162	keystroke	l	n/a
131.733	0.02	263466	keystroke	l	n/a
132.054	0.072	264108	keystroke	Key.backspace	n/a
132.3105	0.0875	264621	keystroke	Key.space	n/a
132.686	0.136	265372	keystroke	f	n/a
132.798	0.0795	265596	keystroke	o	n/a
132.9975	0.1195	265995	keystroke	x	n/a
133.2525	0.073	266505	keystroke	e	n/a
133.449	0.092	266898	keystroke	s	n/a
133.5485	0.06	267097	keystroke	Key.space	n/a
133.7765	0.076	267553	keystroke	e	n/a
134.0125	0.08	268025	keystroke	x	n/a
134.2205	0.1195	268441	keystroke	c	n/a
134.3165	0.175	268633	keystroke	e	n/a
134.4765	0.068	268953	keystroke	r	n/a
134.7	0.152	269400	keystroke	c	n/a
134.868	0.08	269736	keystroke	i	n/a
134.98	0.108	269960	keystroke	s	n/a
135.4315	0.1285	270863	keystroke	e	n/a
135.6955	0.076	271391	keystroke	Key.space	n/a
136.0195	0.096	272039	keystroke	u	n/a
136.132	0.088	272264	keystroke	s	n/a
136.308	0.112	272616	keystroke	e	n/a
136.5325	0.1195	273065	keystroke	d	n/a
136.668	0.072	273336	keystroke	Key.enter	n/a
136.7445	9.7955	273489	prompt	n/a	photograph bestsellers structural glossary\n
137.719	0.1125	275438	keystroke	p	n/a
137.9435	0.1045	275887	keystroke	h	n/a
138.104	0.1195	276208	keystroke	o	n/a
138.336	0.1605	276672	keystroke	t	n/a
138.4485	0.088	276897	keystroke	o	n/a
138.913	0.0965	277826	keystroke	g	n/a
139.1215	0.1835	278243	keystroke	r	n/a
139.225	0.1765	278450	keystroke	a	n/a
139.345	0.0805	278690	keystroke	p	n/a
139.61	0.088	279220	keystroke	h	n/a
139.8575	0.08	279715	keystroke	Key.space	n/a
140.082	0.1045	280164	keystroke	b	n/a
140.1945	0.1105	280389	keystroke	e	n/a
140.4175	0.1045	280835	keystroke	s	n/a
140.602	0.1525	281204	keystroke	t	n/a
141.066	0.112	282132	keystroke	s	n/a
141.3145	0.087	282629	keystroke	e	n/a
141.4735	0.0565	282947	keystroke	l	n/a
141.61	0.0965	283220	keystroke	l	n/a
141.7145	0.12	283429	keystroke	e	n/a
141.8105	0.199	283621	keystroke	r	n/a
141.9695	0.1365	283939	keystroke	s	n/a
142.098	0.08	284196	keystroke	Key.space	n/a
142.4495	0.112	284899	keystroke	s	n/a
142.6575	0.0885	285315	keystroke	t	n/a
142.8345	0.104	285669	keystroke	r	n/a
142.9545	0.071	285909	keystroke	u	n/a
143.1055	0.1045	286211	keystroke	c	n/a
143.3465	0.144	286693	keystroke	t	n/a
143.4825	0.087	286965	keystroke	u	n/a
143.6255	0.1365	287251	keystroke	r	n/a
143.8585	0.144	287717	keystroke	a	n/a
144.01	0.0795	288020	keystroke	l	n/a
144.29	0.0885	288580	keystroke	Key.space	n/a
144.8585	0.1445	289717	keystroke	g	n/a
145.0975	0.0805	290195	keystroke	l	n/a
145.29	0.0725	290580	keystroke	o	n/a
145.499	0.0865	290998	keystroke	s	n/a
145.6655	0.1365	291331	keystroke	s	n/a
145.77	0.1925	291540	keystroke	a	n/a
145.9545	0.135	291909	keystroke	r	n/a
146.258	0.1125	292516	keystroke	y	n/a
146.4345	0.1045	292869	keystroke	Key.enter	n/a
146.5435	5.0205	293087	prompt	n/a	edward moral tropical fruit\n
147.2825	0.1045	294565	keystroke	e	n/a
147.523	0.119	295046	keystroke	d	n/a
147.674	0.2325	295348	keystroke	w	n/a
147.8025	0.1445	295605	keystroke	a	n/a
147.939	0.128	295878	keystroke	r	n/a
148.194	0.1525	296388	keystroke	d	n/a
148.3225	0.064	296645	keystroke	Key.space	n/a
148.571	0.1205	297142	keystroke	m	n/a
148.643	0.119	297286	keystroke	o	n/a
148.786	0.1685	297572	keystroke	r	n/a
148.8985	0.1845	297797	keystroke	a	n/a
149.0105	0.0885	298021	keystroke	l	n/a
149.2195	0.0865	298439	keystroke	Key.space	n/a
149.3945	0.096	298789	keystroke	t	n/a
149.579	0.1445	299158	keystroke	r	n/a
149.675	0.0955	299350	keystroke	o	n/a
149.8745	0.088	299749	keystroke	p	n/a
150.083	0.088	300166	keystroke	i	n/a
150.187	0.2075	300374	keystroke	c	n/a
150.2995	0.183	300599	keystroke	a	n/a
150.4025	0.072	300805	keystroke	l	n/a
150.619	0.072	301238	keystroke	Key.space	n/a
150.8515	0.111	301703	keystroke	f	n/a
151.0585	0.1125	302117	keystroke	r	n/a
151.107	0.152	302214	keystroke	u	n/a
151.195	0.112	302390	keystroke	i	n/a
151.299	0.1435	302598	keystroke	t	n/a
151.4585	0.104	302917	keystroke	Key.enter	n/a
151.5675	5.32	303135	prompt	n/a	loved polymer blues september\n
152.227	0.08	304454	keystroke	l	n/a
152.395	0.1195	304790	keystroke	o	n/a
152.475	0.1435	304950	keystroke	v	n/a
152.5625	0.144	305125	keystroke	e	n/a
152.7865	0.1605	305573	keystroke	d	n/a
152.915	0.072	305830	keystroke	Key.space	n/a
153.1065	0.104	306213	keystroke	p	n/a
153.339	0.08	306678	keystroke	o	n/a
153.531	0.1115	307062	keystroke	l	n/a
153.7305	0.12	307461	keystroke	y	n/a
153.9065	0.12	307813	keystroke	m	n/a
153.9945	0.1835	307989	keystroke	e	n/a
154.0905	0.1675	308181	keystroke	r	n/a
154.342	0.0795	308684	keystroke	Key.space	n/a
154.5895	0.0965	309179	keystroke	b	n/a
154.702	0.1595	309404	keystroke	l	n/a
154.8575	0.1235	309715	keystroke	u	n/a
155.005	0.076	310010	keystroke	e	n/a
155.202	0.1	310404	keystroke	s	n/a
155.31	0.0635	310620	keystroke	Key.space	n/a
155.4615	0.104	310923	keystroke	s	n/a
155.67	0.1275	311340	keystroke	e	n/a
155.7815	0.096	311563	keystroke	p	n/a
155.9335	0.1595	311867	keystroke	t	n/a
156.0535	0.1925	312107	keystroke	e	n/a
156.262	0.1115	312524	keystroke	m	n/a
156.4855	0.08	312971	keystroke	b	n/a
156.5895	0.1525	313179	keystroke	e	n/a
156.6855	0.1445	313371	keystroke	r	n/a
156.806	0.08	313612	keystroke	Key.enter	n/a
156.89	7.791	313780	prompt	n/a	patio intro infringement sussex\n
157.5345	0.0965	315069	keystroke	p	n/a
157.719	0.127	315438	keystroke	a	n/a
157.95	0.1365	315900	keystroke	t	n/a
158.0545	0.152	316109	keystroke	i	n/a
158.1585	0.08	316317	keystroke	o	n/a
158.342	0.08	316684	keystroke	Key.space	n/a
158.5495	0.1365	317099	keystroke	i	n/a
158.646	0.128	317292	keystroke	n	n/a
158.71	0.096	317420	keystroke	t	n/a
158.9015	0.152	317803	keystroke	r	n/a
158.9895	0.08	317979	keystroke	o	n/a
159.198	0.064	318396	keystroke	Key.space	n/a
159.5905	0.151	319181	keystroke	i	n/a
159.7015	0.144	319403	keystroke	n	n/a
159.8535	0.088	319707	keystroke	f	n/a
160.0775	0.16	320155	keystroke	r	n/a
160.2295	0.16	320459	keystroke	i	n/a
160.3415	0.12	320683	keystroke	n	n/a
160.4625	0.191	320925	keystroke	g	n/a
160.6455	0.168	321291	keystroke	e	n/a
160.8695	0.096	321739	keystroke	m	n/a
161.0135	0.104	322027	keystroke	e	n/a
161.0855	0.096	322171	keystroke	n	n/a
161.1895	0.136	322379	keystroke	t	n/a
161.3095	0.072	322619	keystroke	Key.space	n/a
161.542	0.1035	323084	keystroke	m	n/a
161.894	0.088	323788	keystroke	Key.backspace	n/a
162.1255	0.1605	324251	keystroke	s	n/a
162.206	0.096	324412	keystroke	u	n/a
162.5505	0.1195	325101	keystroke	s	n/a
162.806	0.1045	325612	keystroke	e	n/a
163.734	0.072	327468	keystroke	Key.backspace	n/a
163.8785	0.112	327757	keystroke	s	n/a
164.103	0.088	328206	keystroke	e	n/a
164.3665	0.1125	328733	keystroke	x	n/a
164.583	0.0965	329166	keystroke	Key.enter	n/a
164.6845	6.5325	329369	prompt	n/a	cleaning license clinical jordan\n
165.351	0.128	330702	keystroke	c	n/a
165.463	0.1125	330926	keystroke	l	n/a
165.5915	0.2555	331183	keystroke	e	n/a
165.6875	0.1675	331375	keystroke	a	n/a
165.863	0.1045	331726	keystroke	n	n/a
166.0635	0.1525	332127	keystroke	i	n/a
166.1675	0.1035	332335	keystroke	n	n/a
166.2395	0.1355	332479	keystroke	g	n/a
166.399	0.0645	332798	keystroke	Key.space	n/a
166.5915	0.0645	333183	keystroke	l	n/a
166.775	0.088	333550	keystroke	i	n/a
166.943	0.2005	333886	keystroke	c	n/a
167.0555	0.1765	334111	keystroke	e	n/a
167.1995	0.0885	334399	keystroke	n	n/a
167.391	0.0965	334782	keystroke	s	n/a
167.5835	0.1605	335167	keystroke	e	n/a
167.712	0.08	335424	keystroke	Key.space	n/a
168.12	0.176	336240	keystroke	c	n/a
168.248	0.1995	336496	keystroke	l	n/a
168.336	0.1435	336672	keystroke	i	n/a
168.4475	0.12	336895	keystroke	n	n/a
168.84	0.0795	337680	keystroke	i	n/a
169.0715	0.2325	338143	keystroke	c	n/a
169.208	0.1915	338416	keystroke	a	n/a
169.296	0.0645	338592	keystroke	l	n/a
169.4875	0.0805	338975	keystroke	Key.space	n/a
169.728	0.1285	339456	keystroke	j	n/a
169.8165	0.143	339633	keystroke	o	n/a
169.9675	0.152	339935	keystroke	r	n/a
170.104	0.104	340208	keystroke	n	n/a
170.4165	0.1515	340833	keystroke	d	n/a
170.4715	0.2165	340943	keystroke	a	n/a
170.632	0.0965	341264	keystroke	n	n/a
171.096	0.12	342192	keystroke	Key.enter	n/a
171.22	5.5015	342440	prompt	n/a	eagles teach puzzles isolation\n
172.0475	0.1555	344095	keystroke	e	n/a
172.143	0.156	344286	keystroke	a	n/a
172.5305	0.161	345061	keystroke	g	n/a
172.6755	0.0715	345351	keystroke	l	n/a
172.763	0.096	345526	keystroke	e	n/a
172.9785	0.145	345957	keystroke	s	n/a
173.1075	0.0715	346215	keystroke	Key.space	n/a
173.451	0.1445	346902	keystroke	t	n/a
173.5225	0.2165	347045	keystroke	e	n/a
173.6115	0.1675	347223	keystroke	a	n/a
173.875	0.1915	347750	keystroke	c	n/a
174.0825	0.0965	348165	keystroke	h	n/a
174.299	0.08	348598	keystroke	Key.space	n/a
174.483	0.1195	348966	keystroke	p	n/a
174.707	0.096	349414	keystroke	u	n/a
174.867	0.0875	349734	keystroke	z	n/a
175.042	0.1195	350084	keystroke	z	n/a
175.1615	0.0415	350323	keystroke	l	n/a
175.207	0.053	350414	keystroke	e	n/a
175.346	0.0755	350692	keystroke	s	n/a
175.416	0.04	350832	keystroke	Key.space	n/a
175.7045	0.086	351409	keystroke	i	n/a
175.85	0.118	351700	keystroke	s	n/a
175.9735	0.056	351947	keystroke	o	n/a
176.137	0.101	352274	keystroke	l	n/a
176.221	0.075	352442	keystroke	a	n/a
176.3535	0.1035	352707	keystroke	t	n/a
176.38	0.1515	352760	keystroke	i	n/a
176.465	0.0595	352930	keystroke	o	n/a
176.5005	0.0715	353001	keystroke	n	n/a
176.624	0.0955	353248	keystroke	Key.enter	n/a
176.724	7.6475	353448	prompt	n/a	paintings studied emission bosnia\n
177.156	0.113	354312	keystroke	p	n/a
177.3495	0.1475	354699	keystroke	a	n/a
177.561	0.1705	355122	keystroke	i	n/a
177.6965	0.1315	355393	keystroke	n	n/a
178.1205	0.1755	356241	keystroke	t	n/a
178.3455	0.1515	356691	keystroke	i	n/a
178.449	0.128	356898	keystroke	n	n/a
178.513	0.1595	357026	keystroke	g	n/a
178.6805	0.1435	357361	keystroke	s	n/a
178.792	0.093	357584	keystroke	Key.space	n/a
178.921	0.0795	357842	keystroke	s	n/a
179.1125	0.1115	358225	keystroke	t	n/a
179.232	0.0795	358464	keystroke	u	n/a
179.3835	0.109	358767	keystroke	d	n/a
179.4845	0.08	358969	keystroke	i	n/a
179.6205	0.1035	359241	keystroke	e	n/a
179.8525	0.123	359705	keystroke	s	n/a
180.06	0.056	360120	keystroke	Key.backspace	n/a
180.1595	0.1275	360319	keystroke	d	n/a
180.307	0.0755	360614	keystroke	Key.space	n/a
180.6755	0.1595	361351	keystroke	e	n/a
180.851	0.065	361702	keystroke	m	n/a
181.0275	0.056	362055	keystroke	i	n/a
181.163	0.0635	362326	keystroke	s	n/a
181.28	0.076	362560	keystroke	s	n/a
181.334	0.094	362668	keystroke	i	n/a
181.3615	0.066	362723	keystroke	o	n/a
181.3975	0.074	362795	keystroke	n	n/a
181.603	0.0925	363206	keystroke	Key.space	n/a
182.047	0.112	364094	keystroke	b	n/a
182.135	0.1275	364270	keystroke	o	n/a
182.3585	0.1405	364717	keystroke	s	n/a
182.539	0.101	365078	keystroke	i	n/a
182.64	0.1185	365280	keystroke	n	n/a
182.8385	0.192	365677	keystroke	a	n/a
183.2585	0.072	366517	keystroke	Key.backspace	n/a
183.4345	0.0805	366869	keystroke	Key.backspace	n/a
183.587	0.0635	367174	keystroke	Key.backspace	n/a
183.8905	0.128	367781	keystroke	n	n/a
183.9625	0.128	367925	keystroke	i	n/a
184.0425	0.16	368085	keystroke	a	n/a
184.2425	0.1275	368485	keystroke	Key.enter	n/a
184.374	4.769	368748	prompt	n/a	bidding exhibit racial juan\n
185.026	0.1525	370052	keystroke	b	n/a
185.1225	0.136	370245	keystroke	i	n/a
185.2585	0.088	370517	keystroke	d	n/a
185.4185	0.12	370837	keystroke	d	n/a
185.4665	0.16	370933	keystroke	i	n/a
185.5865	0.1115	371173	keystroke	n	n/a
185.6745	0.1515	371349	keystroke	g	n/a
185.81	0.088	371620	keystroke	Key.space	n/a
186.0335	0.086	372067	keystroke	e	n/a
186.2435	0.064	372487	keystroke	x	n/a
186.321	0.1275	372642	keystroke	h	n/a
186.4125	0.1155	372825	keystroke	i	n/a
186.6635	0.0845	373327	keystroke	b	n/a
186.7055	0.1115	373411	keystroke	i	n/a
186.849	0.148	373698	keystroke	t	n/a
187.2055	0.0875	374411	keystroke	Key.space	n/a
187.4045	0.1675	374809	keystroke	r	n/a
187.492	0.1515	374984	keystroke	a	n/a
187.741	0.128	375482	keystroke	c	n/a
187.821	0.08	375642	keystroke	i	n/a
187.949	0.1595	375898	keystroke	a	n/a
188.0445	0.08	376089	keystroke	l	n/a
188.229	0.064	376458	keystroke	Key.space	n/a
188.429	0.08	376858	keystroke	j	n/a
188.6055	0.1035	377211	keystroke	u	n/a
188.7015	0.1355	377403	keystroke	a	n/a
188.813	0.0965	377626	keystroke	n	n/a
189.0135	0.1285	378027	keystroke	Key.enter	n/a
189.1475	6.7245	378295	prompt	n/a	andrew outline exercises nationally\n
189.9335	0.1845	379867	keystroke	a	n/a
190.0935	0.1045	380187	keystroke	n	n/a
190.206	0.1125	380412	keystroke	d	n/a
190.4615	0.2405	380923	keystroke	r	n/a
190.55	0.208	381100	keystroke	e	n/a
191.005	0.1755	382010	keystroke	w	n/a
191.368	0.065	382736	keystroke	Key.space	n/a
191.5605	0.1795	383121	keystroke	o	n/a
191.668	0.072	383336	keystroke	u	n/a
191.7475	0.096	383495	keystroke	t	n/a
191.8435	0.1685	383687	keystroke	l	n/a
191.896	0.1485	383792	keystroke	i	n/a
192.0045	0.112	384009	keystroke	n	n/a
192.1085	0.1355	384217	keystroke	e	n/a
192.372	0.0965	384744	keystroke	Key.space	n/a
193.132	0.0875	386264	keystroke	e	n/a
193.2955	0.0405	386591	keystroke	x	n/a
193.56	0.176	387120	keystroke	e	n/a
193.6875	0.088	387375	keystroke	r	n/a
193.899	0.1205	387798	keystroke	c	n/a
194.044	0.0875	388088	keystroke	i	n/a
194.1395	0.12	388279	keystroke	s	n/a
194.347	0.088	388694	keystroke	e	n/a
194.5635	0.128	389127	keystroke	s	n/a
194.795	0.061	389590	keystroke	Key.space	n/a
194.9505	0.0835	389901	keystroke	n	n/a
195.012	0.1155	390024	keystroke	a	n/a
195.1755	0.0965	390351	keystroke	t	n/a
195.199	0.151	390398	keystroke	i	n/a
195.2715	0.0825	390543	keystroke	o	n/a
195.2785	0.1095	390557	keystroke	n	n/a
195.378	0.0715	390756	keystroke	a	n/a
195.4695	0.052	390939	keystroke	l	n/a
195.552	0.0945	391104	keystroke	l	n/a
195.6465	0.12	391293	keystroke	y	n/a
195.7745	0.096	391549	keystroke	Key.enter	n/a
195.8745	7.22	391749	prompt	n/a	boards bottom continental destination\n
196.4955	0.136	392991	keystroke	b	n/a
196.6075	0.1275	393215	keystroke	o	n/a
196.743	0.1765	393486	keystroke	a	n/a
196.9595	0.1285	393919	keystroke	r	n/a
197.2165	0.1925	394433	keystroke	d	n/a
197.3365	0.1685	394673	keystroke	s	n/a
197.513	0.0725	395026	keystroke	Key.space	n/a
197.7215	0.096	395443	keystroke	b	n/a
197.8255	0.096	395651	keystroke	o	n/a
198.01	0.072	396020	keystroke	t	n/a
198.17	0.1445	396340	keystroke	t	n/a
198.378	0.088	396756	keystroke	o	n/a
198.6665	0.1205	397333	keystroke	m	n/a
198.907	0.0955	397814	keystroke	Key.space	n/a
199.3475	0.152	398695	keystroke	c	n/a
199.412	0.1355	398824	keystroke	o	n/a
199.4915	0.128	398983	keystroke	n	n/a
199.716	0.1525	399432	keystroke	t	n/a
199.796	0.1285	399592	keystroke	i	n/a
199.8925	0.119	399785	keystroke	n	n/a
200.0355	0.1685	400071	keystroke	e	n/a
200.22	0.1125	400440	keystroke	n	n/a
200.7005	0.12	401401	keystroke	t	n/a
200.933	0.135	401866	keystroke	a	n/a
201.053	0.071	402106	keystroke	l	n/a
201.2525	0.0885	402505	keystroke	Key.space	n/a
201.445	0.151	402890	keystroke	d	n/a
201.541	0.079	403082	keystroke	e	n/a
201.7325	0.088	403465	keystroke	s	n/a
201.965	0.1285	403930	keystroke	t	n/a
202.0695	0.135	404139	keystroke	i	n/a
202.1645	0.128	404329	keystroke	n	n/a
202.2845	0.1285	404569	keystroke	a	n/a
202.501	0.1595	405002	keystroke	t	n/a
202.6055	0.1995	405211	keystroke	i	n/a
202.6925	0.1365	405385	keystroke	o	n/a
202.7405	0.1285	405481	keystroke	n	n/a
202.989	0.1045	405978	keystroke	Key.enter	n/a
203.0975	6.9175	406195	prompt	n/a	quit communicate varied manager\n
203.7495	0.1595	407499	keystroke	q	n/a
203.8445	0.1445	407689	keystroke	u	n/a
203.917	0.112	407834	keystroke	i	n/a
204.021	0.1605	408042	keystroke	t	n/a
204.2695	0.087	408539	keystroke	Key.space	n/a
204.8055	0.1275	409611	keystroke	c	n/a
204.853	0.12	409706	keystroke	o	n/a
205.053	0.0965	410106	keystroke	m	n/a
205.2295	0.0725	410459	keystroke	m	n/a
205.429	0.1365	410858	keystroke	u	n/a
205.6535	0.2085	411307	keystroke	n	n/a
205.9815	0.1765	411963	keystroke	a	n/a
206.4135	0.096	412827	keystroke	Key.backspace	n/a
206.662	0.088	413324	keystroke	i	n/a
206.8065	0.183	413613	keystroke	c	n/a
206.9025	0.1835	413805	keystroke	a	n/a
207.214	0.1765	414428	keystroke	t	n/a
207.3025	0.175	414605	keystroke	e	n/a
207.5175	0.0885	415035	keystroke	Key.space	n/a
207.8225	0.167	415645	keystroke	v	n/a
207.942	0.144	415884	keystroke	a	n/a
208.166	0.1365	416332	keystroke	r	n/a
208.3105	0.096	416621	keystroke	i	n/a
208.4145	0.0955	416829	keystroke	e	n/a
208.638	0.1445	417276	keystroke	d	n/a
208.8065	0.064	417613	keystroke	Key.space	n/a
209.014	0.096	418028	keystroke	m	n/a
209.118	0.0965	418236	keystroke	a	n/a
209.2305	0.088	418461	keystroke	n	n/a
209.3105	0.08	418621	keystroke	a	n/a
209.471	0.111	418942	keystroke	g	n/a
209.534	0.1685	419068	keystroke	e	n/a
209.7105	0.12	419421	keystroke	r	n/a
209.911	0.103	419822	keystroke	Key.enter	n/a
210.019	6.302	420038	prompt	n/a	infectious stay motion they've\n
210.6385	0.1365	421277	keystroke	i	n/a
210.7425	0.1205	421485	keystroke	n	n/a
210.895	0.1365	421790	keystroke	f	n/a
210.967	0.1435	421934	keystroke	e	n/a
211.1745	0.104	422349	keystroke	c	n/a
211.423	0.1525	422846	keystroke	t	n/a
211.5835	0.1835	423167	keystroke	i	n/a
211.6865	0.289	423373	keystroke	o	n/a
211.879	0.1445	423758	keystroke	u	n/a
212.1185	0.1285	424237	keystroke	s	n/a
212.287	0.088	424574	keystroke	Key.space	n/a
212.727	0.104	425454	keystroke	s	n/a
212.9435	0.152	425887	keystroke	t	n/a
213.104	0.119	426208	keystroke	a	n/a
213.3435	0.136	426687	keystroke	y	n/a
213.5035	0.0885	427007	keystroke	Key.space	n/a
213.7995	0.112	427599	keystroke	m	n/a
213.8875	0.12	427775	keystroke	o	n/a
214.056	0.152	428112	keystroke	t	n/a
214.152	0.2155	428304	keystroke	i	n/a
214.2395	0.12	428479	keystroke	o	n/a
214.3115	0.112	428623	keystroke	n	n/a
214.52	0.088	429040	keystroke	Key.space	n/a
214.7195	0.152	429439	keystroke	t	n/a
214.8315	0.088	429663	keystroke	h	n/a
214.9035	0.1285	429807	keystroke	e	n/a
215.1765	0.135	430353	keystroke	y	n/a
215.3515	0.1445	430703	keystroke	'	n/a
215.992	0.1525	431984	keystroke	v	n/a
216.096	0.1595	432192	keystroke	e	n/a
216.2165	0.103	432433	keystroke	Key.enter	n/a
216.3235	6.223	432647	prompt	n/a	bloggers expected villages settle\n
217.2005	0.135	434401	keystroke	b	n/a
217.36	0.104	434720	keystroke	l	n/a
217.56	0.1045	435120	keystroke	o	n/a
217.7605	0.1035	435521	keystroke	g	n/a
217.92	0.104	435840	keystroke	g	n/a
217.984	0.1765	435968	keystroke	e	n/a
218.1525	0.184	436305	keystroke	r	n/a
218.3205	0.1275	436641	keystroke	s	n/a
218.44	0.08	436880	keystroke	Key.space	n/a
218.576	0.0885	437152	keystroke	e	n/a
218.8085	0.0875	437617	keystroke	x	n/a
218.912	0.104	437824	keystroke	p	n/a
219.032	0.1685	438064	keystroke	e	n/a
219.2165	0.12	438433	keystroke	c	n/a
219.48	0.1605	438960	keystroke	t	n/a
219.568	0.0965	439136	keystroke	e	n/a
219.7605	0.1445	439521	keystroke	d	n/a
219.873	0.087	439746	keystroke	Key.space	n/a
220.2325	0.1445	440465	keystroke	v	n/a
220.321	0.072	440642	keystroke	i	n/a
220.512	0.0725	441024	keystroke	l	n/a
220.6565	0.1125	441313	keystroke	l	n/a
220.7525	0.1125	441505	keystroke	a	n/a
220.937	0.1355	441874	keystroke	g	n/a
221.001	0.1195	442002	keystroke	e	n/a
221.225	0.112	442450	keystroke	s	n/a
221.321	0.08	442642	keystroke	Key.space	n/a
221.5125	0.104	443025	keystroke	s	n/a
221.737	0.112	443474	keystroke	e	n/a
221.913	0.1045	443826	keystroke	t	n/a
222.1045	0.12	444209	keystroke	t	n/a
222.2005	0.0965	444401	keystroke	l	n/a
222.337	0.112	444674	keystroke	e	n/a
222.465	0.08	444930	keystroke	Key.enter	n/a
222.5485	6.695	445097	prompt	n/a	dell arthritis surround combinations\n
223.3445	0.1205	446689	keystroke	d	n/a
223.457	0.151	446914	keystroke	e	n/a
223.624	0.0725	447248	keystroke	l	n/a
223.7445	0.096	447489	keystroke	l	n/a
223.9125	0.0965	447825	keystroke	Key.space	n/a
224.105	0.1355	448210	keystroke	a	n/a
224.3125	0.1125	448625	keystroke	r	n/a
224.521	0.152	449042	keystroke	t	n/a
224.681	0.1195	449362	keystroke	h	n/a
225.057	0.1755	450114	keystroke	r	n/a
225.2405	0.0965	450481	keystroke	i	n/a
225.6575	0.1275	451315	keystroke	t	n/a
225.825	0.08	451650	keystroke	i	n/a
225.985	0.1525	451970	keystroke	s	n/a
226.2015	0.0715	452403	keystroke	Key.space	n/a
226.385	0.1525	452770	keystroke	s	n/a
226.5215	0.072	453043	keystroke	u	n/a
226.761	0.104	453522	keystroke	r	n/a
226.961	0.12	453922	keystroke	r	n/a
227.041	0.1845	454082	keystroke	o	n/a
227.153	0.1275	454306	keystroke	u	n/a
227.321	0.144	454642	keystroke	n	n/a
227.433	0.144	454866	keystroke	d	n/a
227.601	0.0965	455202	keystroke	Key.space	n/a
227.7535	0.1675	455507	keystroke	c	n/a
227.841	0.152	455682	keystroke	o	n/a
227.937	0.1125	455874	keystroke	n	n/a
228.1775	0.104	456355	keystroke	b	n/a
228.2655	0.1675	456531	keystroke	i	n/a
228.409	0.1125	456818	keystroke	n	n/a
228.5135	0.12	457027	keystroke	a	n/a
228.7055	0.1365	457411	keystroke	t	n/a
228.7215	0.2	457443	keystroke	i	n/a
228.794	0.1355	457588	keystroke	o	n/a
228.85	0.1595	457700	keystroke	n	n/a
228.9855	0.136	457971	keystroke	s	n/a
229.1455	0.0965	458291	keystroke	Key.enter	n/a
229.246	11.4805	458492	prompt	n/a	unnecessary depending exact showed\n
229.874	0.1115	459748	keystroke	u	n/a
230.0655	0.0965	460131	keystroke	n	n/a
230.234	0.1285	460468	keystroke	n	n/a
230.3545	0.0795	460709	keystroke	e	n/a
230.5705	0.104	461141	keystroke	s	n/a
230.8185	0.1435	461637	keystroke	c	n/a
230.915	0.1275	461830	keystroke	e	n/a
231.355	0.1435	462710	keystroke	s	n/a
232.1385	0.1125	464277	keystroke	Key.backspace	n/a
232.443	0.128	464886	keystroke	Key.backspace	n/a
234.0435	0.152	468087	keystroke	e	n/a
234.8835	0.0485	469767	keystroke	s	n/a
235.036	0.1275	470072	keystroke	s	n/a
235.1635	0.1845	470327	keystroke	a	n/a
235.316	0.12	470632	keystroke	r	n/a
235.564	0.1275	471128	keystroke	y	n/a
235.6995	0.088	471399	keystroke	Key.space	n/a
236.044	0.176	472088	keystroke	d	n/a
236.156	0.136	472312	keystroke	e	n/a
236.244	0.088	472488	keystroke	p	n/a
236.388	0.1365	472776	keystroke	e	n/a
236.6285	0.1275	473257	keystroke	d	n/a
237.0605	0.064	474121	keystroke	n	n/a
237.3005	0.064	474601	keystroke	Key.backspace	n/a
237.4365	0.0795	474873	keystroke	Key.backspace	n/a
237.836	0.104	475672	keystroke	n	n/a
238.0925	0.1275	476185	keystroke	d	n/a
238.1805	0.168	476361	keystroke	i	n/a
238.3005	0.104	476601	keystroke	n	n/a
238.3805	0.136	476761	keystroke	g	n/a
238.5245	0.08	477049	keystroke	Key.space	n/a
238.7245	0.08	477449	keystroke	e	n/a
238.9565	0.0645	477913	keystroke	x	n/a
239.117	0.1355	478234	keystroke	a	n/a
239.3005	0.096	478601	keystroke	c	n/a
239.549	0.12	479098	keystroke	t	n/a
239.677	0.072	479354	keystroke	Key.space	n/a
239.8205	0.1365	479641	keystroke	s	n/a
239.933	0.12	479866	keystroke	h	n/a
239.997	0.128	479994	keystroke	o	n/a
240.085	0.112	480170	keystroke	w	n/a
240.365	0.096	480730	keystroke	e	n/a
240.557	0.128	481114	keystroke	d	n/a
240.637	0.088	481274	keystroke	Key.enter	n/a
240.729	5.8	481458	prompt	n/a	waste system crafts puppy\n
241.3495	0.192	482699	keystroke	w	n/a
241.4695	0.168	482939	keystroke	a	n/a
241.6775	0.104	483355	keystroke	s	n/a
241.902	0.1595	483804	keystroke	t	n/a
241.9655	0.2	483931	keystroke	e	n/a
242.2855	0.0965	484571	keystroke	Key.space	n/a
242.782	0.088	485564	keystroke	s	n/a
243.046	0.112	486092	keystroke	y	n/a
243.23	0.112	486460	keystroke	s	n/a
243.35	0.248	486700	keystroke	t	n/a
243.47	0.184	486940	keystroke	e	n/a
243.59	0.088	487180	keystroke	m	n/a
243.838	0.088	487676	keystroke	Key.space	n/a
244.11	0.096	488220	keystroke	c	n/a
244.3345	0.168	488669	keystroke	r	n/a
244.4545	0.176	488909	keystroke	a	n/a
244.6305	0.104	489261	keystroke	f	n/a
244.8785	0.064	489757	keystroke	t	n/a
245.031	0.1435	490062	keystroke	s	n/a
245.1585	0.088	490317	keystroke	Key.space	n/a
245.4145	0.1285	490829	keystroke	p	n/a
245.6785	0.0965	491357	keystroke	u	n/a
245.935	0.072	491870	keystroke	p	n/a
246.063	0.12	492126	keystroke	p	n/a
246.247	0.12	492494	keystroke	y	n/a
246.439	0.0885	492878	keystroke	Key.enter	n/a
246.532	7.5425	493064	prompt	n/a	wanted dialog consultants delivered\n
247.215	0.2325	494430	keystroke	w	n/a
247.3435	0.128	494687	keystroke	a	n/a
247.4235	0.104	494847	keystroke	n	n/a
247.5515	0.168	495103	keystroke	t	n/a
247.68	0.1115	495360	keystroke	e	n/a
247.9035	0.0965	495807	keystroke	d	n/a
247.984	0.064	495968	keystroke	Key.space	n/a
248.2635	0.1445	496527	keystroke	d	n/a
248.392	0.112	496784	keystroke	i	n/a
248.512	0.152	497024	keystroke	a	n/a
248.824	0.088	497648	keystroke	l	n/a
248.992	0.104	497984	keystroke	o	n/a
249.1125	0.12	498225	keystroke	g	n/a
249.2565	0.0715	498513	keystroke	Key.space	n/a
249.424	0.1525	498848	keystroke	c	n/a
249.5205	0.144	499041	keystroke	o	n/a
249.6085	0.112	499217	keystroke	n	n/a
249.7925	0.1355	499585	keystroke	s	n/a
249.84	0.08	499680	keystroke	u	n/a
250.0325	0.112	500065	keystroke	l	n/a
250.1845	0.1595	500369	keystroke	t	n/a
250.2885	0.152	500577	keystroke	a	n/a
250.408	0.0965	500816	keystroke	n	n/a
250.6405	0.12	501281	keystroke	t	n/a
250.8565	0.136	501713	keystroke	s	n/a
251.1045	0.1045	502209	keystroke	Key.space	n/a
251.273	0.1595	502546	keystroke	d	n/a
251.3765	0.136	502753	keystroke	e	n/a
251.4725	0.072	502945	keystroke	l	n/a
251.673	0.112	503346	keystroke	i	n/a
252.4085	0.128	504817	keystroke	v	n/a
252.4885	0.2085	504977	keystroke	e	n/a
252.737	0.184	505474	keystroke	r	n/a
252.857	0.1595	505714	keystroke	e	n/a
253.121	0.12	506242	keystroke	d	n/a
253.353	0.064	506706	keystroke	Key.space	n/a
253.777	0.056	507554	keystroke	Key.backspace	n/a
253.977	0.096	507954	keystroke	Key.enter	n/a
254.077	7.887	508154	prompt	n/a	native largest consequence gale\n
254.673	0.088	509346	keystroke	n	n/a
254.769	0.1205	509538	keystroke	a	n/a
254.9375	0.1195	509875	keystroke	t	n/a
255.0095	0.1035	510019	keystroke	i	n/a
255.217	0.1845	510434	keystroke	v	n/a
255.3135	0.176	510627	keystroke	e	n/a
255.4895	0.088	510979	keystroke	Key.space	n/a
255.7135	0.096	511427	keystroke	l	n/a
255.8015	0.152	511603	keystroke	a	n/a
255.9215	0.0965	511843	keystroke	r	n/a
256.1215	0.128	512243	keystroke	g	n/a
256.1935	0.112	512387	keystroke	e	n/a
256.418	0.096	512836	keystroke	s	n/a
256.5775	0.112	513155	keystroke	t	n/a
256.6815	0.0885	513363	keystroke	Key.space	n/a
256.914	0.168	513828	keystroke	c	n/a
257.034	0.12	514068	keystroke	o	n/a
257.0975	0.1365	514195	keystroke	n	n/a
257.258	0.08	514516	keystroke	s	n/a
257.458	0.104	514916	keystroke	e	n/a
257.6655	0.1205	515331	keystroke	q	n/a
257.778	0.08	515556	keystroke	u	n/a
257.97	0.096	515940	keystroke	n	n/a
258.1135	0.1925	516227	keystroke	c	n/a
258.2255	0.1685	516451	keystroke	e	n/a
258.41	0.096	516820	keystroke	Key.space	n/a
259.146	0.072	518292	keystroke	Key.backspace	n/a
259.3225	0.08	518645	keystroke	Key.backspace	n/a
259.515	0.104	519030	keystroke	Key.backspace	n/a
259.8185	0.072	519637	keystroke	Key.backspace	n/a
260.043	0.1515	520086	keystroke	e	n/a
260.155	0.0955	520310	keystroke	n	n/a
260.3945	0.2005	520789	keystroke	c	n/a
260.499	0.176	520998	keystroke	e	n/a
260.691	0.0875	521382	keystroke	Key.space	n/a
261.315	0.16	522630	keystroke	g	n/a
261.427	0.16	522854	keystroke	a	n/a
261.571	0.072	523142	keystroke	l	n/a
261.667	0.144	523334	keystroke	e	n/a
261.851	0.112	523702	keystroke	Key.enter	n/a
261.968	7.405	523936	prompt	n/a	portable openings procedures walk\n
262.635	0.1045	525270	keystroke	p	n/a
262.867	0.104	525734	keystroke	o	n/a
263.019	0.0885	526038	keystroke	r	n/a
263.1875	0.1515	526375	keystroke	t	n/a
263.2995	0.1595	526599	keystroke	a	n/a
263.451	0.144	526902	keystroke	b	n/a
263.571	0.112	527142	keystroke	l	n/a
263.659	0.112	527318	keystroke	e	n/a
263.835	0.088	527670	keystroke	Key.space	n/a
264.211	0.1045	528422	keystroke	o	n/a
264.427	0.096	528854	keystroke	p	n/a
264.595	0.1525	529190	keystroke	e	n/a
264.8115	0.08	529623	keystroke	n	n/a
264.987	0.1445	529974	keystroke	i	n/a
265.099	0.1125	530198	keystroke	n	n/a
265.1795	0.112	530359	keystroke	g	n/a
265.3555	0.1435	530711	keystroke	s	n/a
265.491	0.0885	530982	keystroke	Key.space	n/a
265.7235	0.12	531447	keystroke	p	n/a
265.8595	0.12	531719	keystroke	r	n/a
266.003	0.0885	532006	keystroke	o	n/a
266.3235	0.1675	532647	keystroke	c	n/a
266.4355	0.1115	532871	keystroke	e	n/a
266.6835	0.096	533367	keystroke	s	n/a
266.9555	0.056	533911	keystroke	u	n/a
267.492	0.0635	534984	keystroke	Key.backspace	n/a
267.6515	0.08	535303	keystroke	Key.backspace	n/a
267.8115	0.12	535623	keystroke	d	n/a
267.9235	0.0885	535847	keystroke	u	n/a
268.0435	0.192	536087	keystroke	r	n/a
268.1475	0.168	536295	keystroke	e	n/a
268.452	0.1355	536904	keystroke	s	n/a
268.6035	0.08	537207	keystroke	Key.space	n/a
268.7315	0.1845	537463	keystroke	w	n/a
268.8195	0.1765	537639	keystroke	a	n/a
268.908	0.1995	537816	keystroke	l	n/a
269.06	0.0875	538120	keystroke	k	n/a
269.2835	0.0885	538567	keystroke	Key.enter	n/a
269.3755	7.838	538751	prompt	n/a	world python showtimes collaboration\n
269.932	0.152	539864	keystroke	w	n/a
270.084	0.0795	540168	keystroke	o	n/a
270.236	0.104	540472	keystroke	r	n/a
270.372	0.096	540744	keystroke	l	n/a
270.516	0.1435	541032	keystroke	d	n/a
270.6515	0.0885	541303	keystroke	Key.space	n/a
271.06	0.08	542120	keystroke	p	n/a
271.3	0.04	542600	keystroke	y	n/a
271.468	0.152	542936	keystroke	t	n/a
271.596	0.112	543192	keystroke	h	n/a
271.6835	0.1525	543367	keystroke	o	n/a
271.828	0.104	543656	keystroke	n	n/a
272.044	0.096	544088	keystroke	Key.space	n/a
272.508	0.144	545016	keystroke	s	n/a
272.644	0.096	545288	keystroke	h	n/a
272.716	0.128	545432	keystroke	o	n/a
272.788	0.112	545576	keystroke	w	n/a
273.004	0.1525	546008	keystroke	t	n/a
273.02	0.1685	546040	keystroke	i	n/a
273.244	0.128	546488	keystroke	e	n/a
273.244	0.176	546488	keystroke	m	n/a
273.644	0.1125	547288	keystroke	s	n/a
273.8835	0.08	547767	keystroke	Key.backspace	n/a
274.0515	0.0725	548103	keystroke	Key.backspace	n/a
274.18	0.08	548360	keystroke	Key.backspace	n/a
274.396	0.128	548792	keystroke	m	n/a
274.484	0.08	548968	keystroke	e	n/a
274.676	0.152	549352	keystroke	s	n/a
274.772	0.072	549544	keystroke	Key.space	n/a
274.996	0.168	549992	keystroke	c	n/a
275.348	0.104	550696	keystroke	o	n/a
275.58	0.08	551160	keystroke	l	n/a
275.74	0.104	551480	keystroke	l	n/a
275.852	0.16	551704	keystroke	a	n/a
276.06	0.112	552120	keystroke	b	n/a
276.18	0.1045	552360	keystroke	o	n/a
276.348	0.152	552696	keystroke	r	n/a
276.452	0.144	552904	keystroke	a	n/a
276.62	0.1605	553240	keystroke	t	n/a
276.7245	0.2075	553449	keystroke	i	n/a
276.7965	0.1275	553593	keystroke	o	n/a
276.868	0.12	553736	keystroke	n	n/a
277.108	0.1045	554216	keystroke	Key.enter	n/a
277.216	6.3255	554432	prompt	n/a	process think once florists\n
277.812	0.0725	555624	keystroke	p	n/a
277.9005	0.112	555801	keystroke	r	n/a
278.0045	0.1045	556009	keystroke	o	n/a
278.149	0.184	556298	keystroke	c	n/a
278.245	0.1275	556490	keystroke	e	n/a
278.501	0.064	557002	keystroke	s	n/a
278.661	0.144	557322	keystroke	s	n/a
278.82	0.0875	557640	keystroke	Key.space	n/a
279.037	0.168	558074	keystroke	t	n/a
279.125	0.12	558250	keystroke	h	n/a
279.213	0.136	558426	keystroke	i	n/a
279.381	0.192	558762	keystroke	n	n/a
279.509	0.144	559018	keystroke	k	n/a
279.868	0.0955	559736	keystroke	Key.space	n/a
280.293	0.088	560586	keystroke	o	n/a
280.549	0.112	561098	keystroke	n	n/a
280.813	0.1915	561626	keystroke	c	n/a
280.9165	0.184	561833	keystroke	e	n/a
281.261	0.096	562522	keystroke	Key.space	n/a
281.5005	0.1765	563001	keystroke	f	n/a
281.645	0.08	563290	keystroke	l	n/a
281.845	0.088	563690	keystroke	o	n/a
282.461	0.184	564922	keystroke	r	n/a
282.637	0.08	565274	keystroke	i	n/a
282.804	0.121	565608	keystroke	s	n/a
283.013	0.144	566026	keystroke	t	n/a
283.237	0.128	566474	keystroke	s	n/a
283.436	0.104	566872	keystroke	Key.enter	n/a
283.544	6.366	567088	prompt	n/a	arrival existed platforms dollar\n
284.317	0.144	568634	keystroke	a	n/a
284.7245	0.072	569449	keystroke	r	n/a
284.8925	0.104	569785	keystroke	r	n/a
285.0045	0.08	570009	keystroke	i	n/a
285.2045	0.176	570409	keystroke	v	n/a
285.3165	0.2	570633	keystroke	a	n/a
285.4285	0.08	570857	keystroke	l	n/a
285.6125	0.088	571225	keystroke	Key.space	n/a
285.7085	0.088	571417	keystroke	e	n/a
285.949	0.096	571898	keystroke	x	n/a
286.109	0.0635	572218	keystroke	i	n/a
286.253	0.152	572506	keystroke	s	n/a
286.589	0.168	573178	keystroke	t	n/a
286.6845	0.1285	573369	keystroke	e	n/a
286.925	0.136	573850	keystroke	d	n/a
287.069	0.0715	574138	keystroke	Key.space	n/a
287.3645	0.096	574729	keystroke	p	n/a
287.573	0.1035	575146	keystroke	l	n/a
287.6925	0.0885	575385	keystroke	a	n/a
287.853	0.112	575706	keystroke	t	n/a
288.069	0.12	576138	keystroke	f	n/a
288.181	0.088	576362	keystroke	o	n/a
288.301	0.104	576602	keystroke	r	n/a
288.405	0.104	576810	keystroke	m	n/a
288.573	0.12	577146	keystroke	s	n/a
288.725	0.08	577450	keystroke	Key.space	n/a
288.893	0.144	577786	keystroke	d	n/a
288.997	0.08	577994	keystroke	o	n/a
289.261	0.072	578522	keystroke	l	n/a
289.413	0.112	578826	keystroke	l	n/a
289.509	0.136	579018	keystroke	a	n/a
289.605	0.1515	579210	keystroke	r	n/a
289.8205	0.0885	579641	keystroke	Key.enter	n/a
289.914	13.053	579828	prompt	n/a	replacing poison george hosts\n
290.6925	0.176	581385	keystroke	r	n/a
290.8045	0.1365	581609	keystroke	e	n/a
290.8845	0.0805	581769	keystroke	p	n/a
291.085	0.096	582170	keystroke	l	n/a
291.181	0.1355	582362	keystroke	a	n/a
291.3805	0.192	582761	keystroke	c	n/a
291.4605	0.2	582921	keystroke	e	n/a
292.197	0.0715	584394	keystroke	Key.backspace	n/a
292.445	0.152	584890	keystroke	i	n/a
292.549	0.112	585098	keystroke	n	n/a
292.621	0.136	585242	keystroke	g	n/a
292.789	0.08	585578	keystroke	Key.space	n/a
293.013	0.096	586026	keystroke	p	n/a
293.197	0.096	586394	keystroke	o	n/a
293.389	0.128	586778	keystroke	s	n/a
294.389	0.072	588778	keystroke	Key.backspace	n/a
294.637	0.072	589274	keystroke	i	n/a
294.805	0.16	589610	keystroke	s	n/a
294.917	0.16	589834	keystroke	o	n/a
295.005	0.12	590010	keystroke	n	n/a
295.261	0.088	590522	keystroke	Key.space	n/a
295.693	0.1525	591386	keystroke	g	n/a
295.7975	0.192	591595	keystroke	e	n/a
295.9815	0.096	591963	keystroke	o	n/a
296.429	0.1605	592858	keystroke	r	n/a
297.5975	0.192	595195	keystroke	g	n/a
297.6935	0.168	595387	keystroke	e	n/a
297.8775	0.0795	595755	keystroke	Key.space	n/a
298.6215	0.08	597243	keystroke	Key.backspace	n/a
298.8295	0.072	597659	keystroke	Key.backspace	n/a
299.7815	0.088	599563	keystroke	Key.backspace	n/a
299.9895	0.096	599979	keystroke	Key.backspace	n/a
301.5175	0.136	603035	keystroke	r	n/a
301.7655	0.1685	603531	keystroke	g	n/a
301.8375	0.168	603675	keystroke	e	n/a
301.9735	0.072	603947	keystroke	Key.space	n/a
302.31	0.112	604620	keystroke	h	n/a
302.382	0.1355	604764	keystroke	o	n/a
302.4775	0.096	604955	keystroke	s	n/a
302.6455	0.168	605291	keystroke	t	n/a
302.7335	0.16	605467	keystroke	s	n/a
302.8775	0.088	605755	keystroke	Key.enter	n/a
302.9695	10.149	605939	prompt	n/a	preservation asthma matches protocols\n
303.6695	0.12	607339	keystroke	p	n/a
303.7815	0.1765	607563	keystroke	r	n/a
303.8615	0.1365	607723	keystroke	e	n/a
304.2695	0.24	608539	keystroke	e	n/a
304.7575	0.096	609515	keystroke	Key.backspace	n/a
304.9495	0.104	609899	keystroke	s	n/a
305.1335	0.2	610267	keystroke	e	n/a
305.2455	0.12	610491	keystroke	r	n/a
305.5335	0.12	611067	keystroke	v	n/a
305.582	0.1675	611164	keystroke	a	n/a
305.8695	0.1525	611739	keystroke	t	n/a
305.9655	0.192	611931	keystroke	i	n/a
306.022	0.1595	612044	keystroke	o	n/a
306.11	0.1275	612220	keystroke	n	n/a
306.3255	0.096	612651	keystroke	Key.space	n/a
306.4855	0.184	612971	keystroke	a	n/a
306.6535	0.144	613307	keystroke	s	n/a
307.9895	0.176	615979	keystroke	t	n/a
308.1255	0.088	616251	keystroke	h	n/a
308.3495	0.112	616699	keystroke	m	n/a
308.4615	0.176	616923	keystroke	a	n/a
308.702	0.088	617404	keystroke	Key.space	n/a
309.078	0.12	618156	keystroke	m	n/a
309.158	0.12	618316	keystroke	a	n/a
309.318	0.1115	618636	keystroke	t	n/a
309.5255	0.056	619051	keystroke	h	n/a
309.9015	0.088	619803	keystroke	Key.backspace	n/a
310.0375	0.1525	620075	keystroke	c	n/a
310.1655	0.0965	620331	keystroke	h	n/a
310.3575	0.16	620715	keystroke	e	n/a
310.678	0.168	621356	keystroke	s	n/a
310.9095	0.088	621819	keystroke	Key.space	n/a
311.206	0.112	622412	keystroke	p	n/a
311.342	0.1275	622684	keystroke	r	n/a
311.4455	0.088	622891	keystroke	o	n/a
311.7575	0.1285	623515	keystroke	t	n/a
311.926	0.0715	623852	keystroke	o	n/a
312.1495	0.208	624299	keystroke	c	n/a
312.2695	0.2	624539	keystroke	a	n/a
312.4135	0.104	624827	keystroke	l	n/a
312.7015	0.152	625403	keystroke	s	n/a
313.0135	0.104	626027	keystroke	Key.enter	n/a
313.122	9.228	626244	prompt	n/a	credit photographs precise accordingly\n
313.7815	0.128	627563	keystroke	c	n/a
314.029	0.152	628058	keystroke	r	n/a
314.109	0.136	628218	keystroke	e	n/a
314.293	0.12	628586	keystroke	d	n/a
314.445	0.064	628890	keystroke	i	n/a
314.549	0.072	629098	keystroke	g	n/a
314.581	0.096	629162	keystroke	t	n/a
314.741	0.088	629482	keystroke	Key.space	n/a
314.957	0.104	629914	keystroke	p	n/a
315.293	0.072	630586	keystroke	Key.backspace	n/a
315.4695	0.072	630939	keystroke	Key.backspace	n/a
315.6295	0.072	631259	keystroke	Key.backspace	n/a
315.7815	0.104	631563	keystroke	Key.backspace	n/a
315.9495	0.144	631899	keystroke	t	n/a
316.1575	0.088	632315	keystroke	Key.space	n/a
316.4455	0.128	632891	keystroke	p	n/a
316.6775	0.12	633355	keystroke	h	n/a
316.8295	0.128	633659	keystroke	o	n/a
317.0055	0.136	634011	keystroke	t	n/a
317.1015	0.096	634203	keystroke	o	n/a
317.3255	0.12	634651	keystroke	g	n/a
317.5495	0.16	635099	keystroke	r	n/a
317.6295	0.168	635259	keystroke	a	n/a
317.6935	0.088	635387	keystroke	p	n/a
317.9175	0.096	635835	keystroke	h	n/a
318.1175	0.144	636235	keystroke	s	n/a
318.4055	0.08	636811	keystroke	Key.space	n/a
318.7255	0.128	637451	keystroke	p	n/a
318.8455	0.16	637691	keystroke	r	n/a
318.9335	0.128	637867	keystroke	e	n/a
319.1575	0.152	638315	keystroke	c	n/a
319.2855	0.088	638571	keystroke	i	n/a
319.4295	0.168	638859	keystroke	s	n/a
320.0215	0.1355	640043	keystroke	e	n/a
320.237	0.088	640474	keystroke	Key.space	n/a
320.669	0.12	641338	keystroke	a	n/a
320.877	0.088	641754	keystroke	c	n/a
321.037	0.104	642074	keystroke	c	n/a
321.133	0.08	642266	keystroke	o	n/a
321.277	0.104	642554	keystroke	r	n/a
321.501	0.12	643002	keystroke	d	n/a
321.605	0.144	643210	keystroke	i	n/a
321.709	0.1195	643418	keystroke	n	n/a
321.797	0.1275	643594	keystroke	g	n/a
321.9485	0.12	643897	keystroke	l	n/a
322.0845	0.08	644169	keystroke	y	n/a
322.228	0.1205	644456	keystroke	Key.enter	n/a
322.352	6.869	644704	prompt	n/a	sudan role worth quantum\n
323.1725	0.136	646345	keystroke	s	n/a
323.2685	0.08	646537	keystroke	u	n/a
323.3885	0.16	646777	keystroke	d	n/a
323.5085	0.184	647017	keystroke	a	n/a
323.6125	0.088	647225	keystroke	n	n/a
323.8125	0.08	647625	keystroke	Key.space	n/a
323.9805	0.192	647961	keystroke	r	n/a
324.0765	0.088	648153	keystroke	o	n/a
324.7245	0.08	649449	keystroke	Key.backspace	n/a
325.6605	0.08	651321	keystroke	o	n/a
325.8525	0.08	651705	keystroke	l	n/a
325.9725	0.152	651945	keystroke	e	n/a
326.1405	0.072	652281	keystroke	Key.space	n/a
326.668	0.152	653336	keystroke	w	n/a
326.844	0.096	653688	keystroke	o	n/a
327.0285	0.0955	654057	keystroke	r	n/a
327.244	0.16	654488	keystroke	t	n/a
327.388	0.104	654776	keystroke	h	n/a
327.684	0.072	655368	keystroke	Key.space	n/a
328.0275	0.1275	656055	keystroke	q	n/a
328.163	0.0645	656326	keystroke	u	n/a
328.2675	0.136	656535	keystroke	a	n/a
328.3795	0.0875	656759	keystroke	n	n/a
328.579	0.104	657158	keystroke	t	n/a
328.659	0.0805	657318	keystroke	u	n/a
328.8435	0.12	657687	keystroke	m	n/a
329.1235	0.096	658247	keystroke	Key.enter	n/a
329.224	8.157	658448	prompt	n/a	novel votes montana computed\n
330.1475	0.096	660295	keystroke	n	n/a
330.2115	0.12	660423	keystroke	o	n/a
330.3875	0.168	660775	keystroke	v	n/a
330.4835	0.192	660967	keystroke	e	n/a
330.6195	0.088	661239	keystroke	l	n/a
330.8355	0.088	661671	keystroke	Key.space	n/a
331.3235	0.184	662647	keystroke	v	n/a
331.4115	0.096	662823	keystroke	o	n/a
331.5395	0.08	663079	keystroke	e	n/a
331.9315	0.024	663863	keystroke	=	n/a
332.0035	0.176	664007	keystroke	t	n/a
332.1235	0.088	664247	keystroke	e	n/a
332.3075	0.08	664615	keystroke	Key.backspace	n/a
332.4755	0.088	664951	keystroke	Key.backspace	n/a
332.6515	0.08	665303	keystroke	Key.backspace	n/a
332.8195	0.104	665639	keystroke	Key.backspace	n/a
332.9555	0.136	665911	keystroke	t	n/a
333.0115	0.08	666023	keystroke	e	n/a
333.2195	0.144	666439	keystroke	s	n/a
333.3235	0.072	666647	keystroke	Key.space	n/a
333.7555	0.16	667511	keystroke	m	n/a
333.8995	0.208	667799	keystroke	o	n/a
334.0835	0.104	668167	keystroke	n	n/a
334.3395	0.144	668679	keystroke	t	n/a
334.6275	0.168	669255	keystroke	a	n/a
334.9235	0.088	669847	keystroke	n	n/a
335.0355	0.152	670071	keystroke	a	n/a
335.4115	0.096	670823	keystroke	Key.space	n/a
335.8195	0.184	671639	keystroke	c	n/a
335.9475	0.184	671895	keystroke	o	n/a
336.0675	0.12	672135	keystroke	m	n/a
336.2995	0.096	672599	keystroke	p	n/a
336.5235	0.088	673047	keystroke	u	n/a
336.6275	0.16	673255	keystroke	t	n/a
336.7235	0.12	673447	keystroke	e	n/a
336.9715	0.152	673943	keystroke	d	n/a
337.2595	0.12	674519	keystroke	Key.enter	n/a
337.3835	9.685	674767	prompt	n/a	definitions disposal director families\n
338.2355	0.2	676471	keystroke	d	n/a
338.3635	0.176	676727	keystroke	e	n/a
338.5395	0.192	677079	keystroke	f	n/a
338.6595	0.112	677319	keystroke	i	n/a
338.7395	0.2	677479	keystroke	n	n/a
338.9075	0.16	677815	keystroke	i	n/a
339.4675	0.136	678935	keystroke	t	n/a
339.5155	0.216	679031	keystroke	i	n/a
339.6195	0.128	679239	keystroke	o	n/a
339.6595	0.152	679319	keystroke	n	n/a
339.8195	0.168	679639	keystroke	s	n/a
339.9555	0.088	679911	keystroke	Key.space	n/a
340.2835	0.168	680567	keystroke	d	n/a
340.4115	0.072	680823	keystroke	i	n/a
340.4675	0.168	680935	keystroke	s	n/a
340.7635	0.096	681527	keystroke	p	n/a
341.115	0.104	682230	keystroke	o	n/a
341.363	0.104	682726	keystroke	s	n/a
341.5545	0.08	683109	keystroke	s	n/a
341.6105	0.1755	683221	keystroke	a	n/a
341.8025	0.104	683605	keystroke	l	n/a
342.1545	0.064	684309	keystroke	Key.backspace	n/a
342.3145	0.0725	684629	keystroke	Key.backspace	n/a
342.459	0.088	684918	keystroke	Key.backspace	n/a
342.643	0.16	685286	keystroke	a	n/a
342.747	0.08	685494	keystroke	l	n/a
343.003	0.088	686006	keystroke	Key.space	n/a
343.171	0.104	686342	keystroke	d	n/a
343.283	0.072	686566	keystroke	i	n/a
343.4345	0.128	686869	keystroke	r	n/a
343.5065	0.1445	687013	keystroke	e	n/a
343.723	0.12	687446	keystroke	c	n/a
343.9625	0.12	687925	keystroke	t	n/a
344.1785	0.064	688357	keystroke	o	n/a
344.2905	0.136	688581	keystroke	r	n/a
345.2425	0.096	690485	keystroke	Key.space	n/a
345.4425	0.12	690885	keystroke	f	n/a
345.6265	0.16	691253	keystroke	a	n/a
345.8025	0.088	691605	keystroke	m	n/a
345.9865	0.088	691973	keystroke	i	n/a
346.1545	0.152	692309	keystroke	l	n/a
346.5625	0.08	693125	keystroke	i	n/a
346.6665	0.088	693333	keystroke	e	n/a
346.8745	0.096	693749	keystroke	s	n/a
347.0105	0.056	694021	keystroke	Key.enter	n/a
347.0705	6.421	694141	prompt	n/a	support person favorites wiki\n
347.7225	0.152	695445	keystroke	s	n/a
347.8185	0.072	695637	keystroke	u	n/a
348.0185	0.08	696037	keystroke	p	n/a
348.1625	0.072	696325	keystroke	p	n/a
348.3225	0.104	696645	keystroke	o	n/a
348.4345	0.088	696869	keystroke	r	n/a
348.6105	0.144	697221	keystroke	t	n/a
348.8105	0.072	697621	keystroke	Key.space	n/a
349.0265	0.112	698053	keystroke	p	n/a
349.1145	0.1435	698229	keystroke	e	n/a
349.202	0.128	698404	keystroke	r	n/a
349.402	0.16	698804	keystroke	s	n/a
349.546	0.16	699092	keystroke	o	n/a
349.65	0.096	699300	keystroke	n	n/a
349.85	0.088	699700	keystroke	Key.space	n/a
350.002	0.1445	700004	keystroke	f	n/a
350.098	0.1365	700196	keystroke	a	n/a
350.2905	0.112	700581	keystroke	v	n/a
350.4505	0.072	700901	keystroke	i	n/a
350.6425	0.184	701285	keystroke	r	n/a
351.0505	0.064	702101	keystroke	Key.backspace	n/a
351.1945	0.064	702389	keystroke	Key.backspace	n/a
351.41	0.112	702820	keystroke	o	n/a
351.578	0.1525	703156	keystroke	r	n/a
351.8665	0.08	703733	keystroke	i	n/a
352.01	0.1685	704020	keystroke	t	n/a
352.1145	0.1195	704229	keystroke	e	n/a
352.378	0.1045	704756	keystroke	s	n/a
352.5305	0.064	705061	keystroke	Key.space	n/a
352.6985	0.1515	705397	keystroke	w	n/a
352.834	0.072	705668	keystroke	i	n/a
353.05	0.0645	706100	keystroke	k	n/a
353.1945	0.0715	706389	keystroke	i	n/a
353.402	0.088	706804	keystroke	Key.enter	n/a
353.496	10.163	706992	prompt	n/a	admissions chevrolet delivers resolution\n
354.314	0.184	708628	keystroke	a	n/a
354.45	0.136	708900	keystroke	d	n/a
354.53	0.104	709060	keystroke	m	n/a
354.69	0.112	709380	keystroke	i	n/a
354.834	0.08	709668	keystroke	s	n/a
355.002	0.128	710004	keystroke	s	n/a
355.09	0.192	710180	keystroke	i	n/a
355.186	0.112	710372	keystroke	o	n/a
355.218	0.144	710436	keystroke	n	n/a
355.322	0.12	710644	keystroke	s	n/a
355.786	0.112	711572	keystroke	Key.space	n/a
356.626	0.12	713252	keystroke	c	n/a
356.746	0.088	713492	keystroke	h	n/a
356.858	0.176	713716	keystroke	e	n/a
357.018	0.184	714036	keystroke	r	n/a
357.498	0.096	714996	keystroke	Key.backspace	n/a
358.002	0.152	716004	keystroke	v	n/a
358.634	0.16	717268	keystroke	r	n/a
358.754	0.112	717508	keystroke	o	n/a
359.4175	0.104	718835	keystroke	l	n/a
359.5135	0.144	719027	keystroke	e	n/a
359.6975	0.16	719395	keystroke	t	n/a
359.8575	0.08	719715	keystroke	Key.space	n/a
360.1455	0.208	720291	keystroke	d	n/a
360.2895	0.176	720579	keystroke	e	n/a
360.5375	0.088	721075	keystroke	l	n/a
360.7295	0.104	721459	keystroke	i	n/a
360.8655	0.136	721731	keystroke	v	n/a
360.9615	0.168	721923	keystroke	e	n/a
361.1455	0.2	722291	keystroke	r	n/a
361.3055	0.176	722611	keystroke	s	n/a
361.5135	0.08	723027	keystroke	Key.space	n/a
361.9375	0.16	723875	keystroke	r	n/a
362.0095	0.112	724019	keystroke	e	n/a
362.2575	0.152	724515	keystroke	s	n/a
362.4095	0.096	724819	keystroke	o	n/a
362.6335	0.096	725267	keystroke	l	n/a
362.8575	0.08	725715	keystroke	u	n/a
363.0335	0.144	726067	keystroke	t	n/a
363.0975	0.208	726195	keystroke	i	n/a
363.1695	0.168	726339	keystroke	o	n/a
363.2655	0.128	726531	keystroke	n	n/a
363.5535	0.104	727107	keystroke	Key.enter	n/a
363.6615	7.7085	727323	prompt	n/a	damaged that'll kong commonly\n
364.3615	0.136	728723	keystroke	d	n/a
364.4655	0.12	728931	keystroke	a	n/a
364.5775	0.112	729155	keystroke	m	n/a
364.6975	0.096	729395	keystroke	a	n/a
364.8415	0.152	729683	keystroke	g	n/a
364.9295	0.112	729859	keystroke	e	n/a
365.1295	0.12	730259	keystroke	d	n/a
365.2655	0.072	730531	keystroke	Key.space	n/a
365.505	0.104	731010	keystroke	t	n/a
365.577	0.088	731154	keystroke	h	n/a
365.713	0.16	731426	keystroke	a	n/a
365.849	0.1435	731698	keystroke	t	n/a
366.0885	0.144	732177	keystroke	'	n/a
366.6725	0.104	733345	keystroke	;	n/a
366.8405	0.1045	733681	keystroke	;	n/a
367.265	0.064	734530	keystroke	Key.backspace	n/a
367.417	0.096	734834	keystroke	Key.backspace	n/a
368.033	0.072	736066	keystroke	l	n/a
368.185	0.088	736370	keystroke	l	n/a
368.401	0.096	736802	keystroke	Key.space	n/a
368.689	0.144	737378	keystroke	k	n/a
369.049	0.168	738098	keystroke	o	n/a
369.169	0.12	738338	keystroke	n	n/a
369.297	0.152	738594	keystroke	g	n/a
369.457	0.088	738914	keystroke	Key.space	n/a
369.921	0.136	739842	keystroke	c	n/a
369.969	0.112	739938	keystroke	o	n/a
370.169	0.096	740338	keystroke	m	n/a
370.345	0.096	740690	keystroke	m	n/a
370.497	0.216	740994	keystroke	o	n/a
370.617	0.144	741234	keystroke	n	n/a
370.937	0.1115	741874	keystroke	l	n/a
371.0725	0.12	742145	keystroke	y	n/a
371.2725	0.096	742545	keystroke	Key.enter	n/a
371.3725	9.539	742745	prompt	n/a	exercise wendy begin chrysler\n
372.5445	0.096	745089	keystroke	e	n/a
372.7845	0.104	745569	keystroke	x	n/a
373.8165	0.2155	747633	keystroke	e	n/a
373.944	0.12	747888	keystroke	r	n/a
374.192	0.152	748384	keystroke	c	n/a
374.336	0.088	748672	keystroke	i	n/a
374.464	0.136	748928	keystroke	s	n/a
374.8565	0.16	749713	keystroke	e	n/a
375.0805	0.096	750161	keystroke	Key.space	n/a
375.2805	0.112	750561	keystroke	w	n/a
375.4965	0.168	750993	keystroke	e	n/a
375.6965	0.096	751393	keystroke	n	n/a
375.8565	0.1515	751713	keystroke	d	n/a
376.24	0.096	752480	keystroke	y	n/a
376.376	0.08	752752	keystroke	Key.space	n/a
376.688	0.088	753376	keystroke	b	n/a
376.792	0.152	753584	keystroke	e	n/a
376.96	0.1755	753920	keystroke	g	n/a
377.032	0.1595	754064	keystroke	i	n/a
377.1355	0.144	754271	keystroke	n	n/a
377.928	0.088	755856	keystroke	Key.space	n/a
378.6155	0.144	757231	keystroke	c	n/a
378.7835	0.072	757567	keystroke	h	n/a
378.9355	0.16	757871	keystroke	r	n/a
379.3195	0.112	758639	keystroke	y	n/a
380.0315	0.092	760063	keystroke	s	n/a
380.1385	0.06	760277	keystroke	l	n/a
380.27	0.1515	760540	keystroke	e	n/a
380.4695	0.161	760939	keystroke	r	n/a
380.798	0.112	761596	keystroke	Key.enter	n/a
380.914	13.96	761828	prompt	n/a	introduces chair surgeon marcus\n
388.505	0.168	777010	keystroke	i	n/a
388.633	0.136	777266	keystroke	n	n/a
388.681	0.104	777362	keystroke	t	n/a
388.857	0.144	777714	keystroke	r	n/a
388.953	0.128	777906	keystroke	o	n/a
389.193	0.112	778386	keystroke	d	n/a
389.281	0.096	778562	keystroke	u	n/a
389.433	0.104	778866	keystroke	c	n/a
389.577	0.12	779154	keystroke	e	n/a
389.793	0.112	779586	keystroke	s	n/a
389.897	0.08	779794	keystroke	Key.space	n/a
390.113	0.112	780226	keystroke	c	n/a
390.497	0.104	780994	keystroke	h	n/a
390.673	0.168	781346	keystroke	a	n/a
390.857	0.088	781714	keystroke	i	n/a
390.977	0.168	781954	keystroke	r	n/a
391.153	0.08	782306	keystroke	Key.space	n/a
391.409	0.12	782818	keystroke	s	n/a
391.513	0.08	783026	keystroke	u	n/a
391.665	0.128	783330	keystroke	r	n/a
392.5845	0.176	785169	keystroke	g	n/a
392.696	0.1925	785392	keystroke	e	n/a
392.9045	0.1595	785809	keystroke	o	n/a
393.016	0.096	786032	keystroke	n	n/a
393.232	0.096	786464	keystroke	Key.space	n/a
393.5845	0.12	787169	keystroke	m	n/a
393.6805	0.144	787361	keystroke	a	n/a
393.8085	0.12	787617	keystroke	r	n/a
394.4005	0.12	788801	keystroke	c	n/a
394.4965	0.08	788993	keystroke	u	n/a
394.6485	0.144	789297	keystroke	s	n/a
394.7605	0.112	789521	keystroke	Key.enter	n/a
394.8765	8.0135	789753	prompt	n/a	expenses proof nurse disclaimer\n
395.624	0.072	791248	keystroke	e	n/a
395.8325	0.0795	791665	keystroke	x	n/a
395.92	0.08	791840	keystroke	p	n/a
396.032	0.1205	792064	keystroke	e	n/a
396.1445	0.088	792289	keystroke	n	n/a
396.2805	0.08	792561	keystroke	s	n/a
396.432	0.12	792864	keystroke	e	n/a
396.64	0.128	793280	keystroke	s	n/a
396.784	0.08	793568	keystroke	Key.space	n/a
397.088	0.136	794176	keystroke	r	n/a
397.44	0.064	794880	keystroke	Key.backspace	n/a
397.664	0.112	795328	keystroke	p	n/a
397.792	0.1365	795584	keystroke	r	n/a
397.9045	0.0875	795809	keystroke	o	n/a
398.064	0.096	796128	keystroke	o	n/a
398.24	0.136	796480	keystroke	f	n/a
398.408	0.072	796816	keystroke	Key.space	n/a
399.016	0.12	798032	keystroke	n	n/a
399.224	0.128	798448	keystroke	u	n/a
399.344	0.128	798688	keystroke	r	n/a
399.616	0.088	799232	keystroke	s	n/a
399.8	0.152	799600	keystroke	e	n/a
399.936	0.064	799872	keystroke	Key.space	n/a
400.184	0.12	800368	keystroke	d	n/a
400.552	0.096	801104	keystroke	i	n/a
400.8	0.144	801600	keystroke	s	n/a
401.28	0.144	802560	keystroke	c	n/a
401.664	0.088	803328	keystroke	l	n/a
401.8	0.176	803600	keystroke	a	n/a
401.952	0.1365	803904	keystroke	i	n/a
402.184	0.1445	804368	keystroke	m	n/a
402.3445	0.184	804689	keystroke	e	n/a
402.4485	0.152	804897	keystroke	r	n/a
402.7845	0.104	805569	keystroke	Key.enter	n/a
402.8925	4.917	805785	prompt	n/a	condo grid rouge he\n
403.6485	0.168	807297	keystroke	c	n/a
403.744	0.1445	807488	keystroke	o	n/a
403.8245	0.112	807649	keystroke	n	n/a
403.9925	0.128	807985	keystroke	d	n/a
404.1045	0.088	808209	keystroke	o	n/a
404.3925	0.08	808785	keystroke	Key.space	n/a
404.7285	0.088	809457	keystroke	g	n/a
404.9205	0.128	809841	keystroke	r	n/a
405.0245	0.072	810049	keystroke	i	n/a
405.1845	0.136	810369	keystroke	d	n/a
405.3285	0.08	810657	keystroke	Key.space	n/a
405.5525	0.112	811105	keystroke	g	n/a
405.7685	0.176	811537	keystroke	r	n/a
406.1445	0.072	812289	keystroke	Key.backspace	n/a
406.2965	0.056	812593	keystroke	Key.backspace	n/a
406.4165	0.16	812833	keystroke	r	n/a
406.5125	0.224	813025	keystroke	o	n/a
406.6565	0.12	813313	keystroke	u	n/a
406.8165	0.176	813633	keystroke	g	n/a
406.9045	0.192	813809	keystroke	e	n/a
407.1365	0.08	814273	keystroke	Key.space	n/a
407.4645	0.088	814929	keystroke	h	n/a
407.5605	0.144	815121	keystroke	e	n/a
407.7045	0.104	815409	keystroke	Key.enter	n/a
407.8125	9.4365	815625	prompt	n/a	frequencies mathematical democrat cleaning\n
408.616	0.1205	817232	keystroke	f	n/a
408.8485	0.2075	817697	keystroke	r	n/a
408.944	0.12	817888	keystroke	e	n/a
409.168	0.128	818336	keystroke	q	n/a
409.264	0.08	818528	keystroke	u	n/a
409.528	0.136	819056	keystroke	e	n/a
409.896	0.096	819792	keystroke	n	n/a
410.248	0.104	820496	keystroke	c	n/a
410.376	0.08	820752	keystroke	i	n/a
410.464	0.096	820928	keystroke	e	n/a
410.664	0.136	821328	keystroke	s	n/a
410.776	0.072	821552	keystroke	Key.space	n/a
410.976	0.12	821952	keystroke	m	n/a
411.056	0.128	822112	keystroke	a	n/a
411.264	0.168	822528	keystroke	t	n/a
411.432	0.08	822864	keystroke	h	n/a
411.944	0.12	823888	keystroke	e	n/a
412.224	0.088	824448	keystroke	m	n/a
412.352	0.104	824704	keystroke	a	n/a
412.576	0.112	825152	keystroke	t	n/a
412.704	0.088	825408	keystroke	i	n/a
413.272	0.136	826544	keystroke	c	n/a
413.36	0.1525	826720	keystroke	a	n/a
413.432	0.0645	826864	keystroke	l	n/a
413.64	0.08	827280	keystroke	Key.space	n/a
413.8165	0.176	827633	keystroke	d	n/a
413.9125	0.16	827825	keystroke	e	n/a
414.0805	0.0715	828161	keystroke	m	n/a
414.24	0.104	828480	keystroke	o	n/a
414.512	0.1045	829024	keystroke	c	n/a
414.792	0.16	829584	keystroke	r	n/a
414.904	0.1285	829808	keystroke	a	n/a
415.0885	0.1595	830177	keystroke	t	n/a
415.304	0.0805	830608	keystroke	Key.space	n/a
415.816	0.1205	831632	keystroke	c	n/a
415.9045	0.088	831809	keystroke	l	n/a
416.0325	0.2475	832065	keystroke	e	n/a
416.1445	0.1675	832289	keystroke	a	n/a
416.6645	0.0795	833329	keystroke	n	n/a
416.84	0.136	833680	keystroke	i	n/a
416.928	0.1045	833856	keystroke	n	n/a
416.992	0.1045	833984	keystroke	g	n/a
417.1605	0.0875	834321	keystroke	Key.enter	n/a
417.252	7.7005	834504	prompt	n/a	doctors asus montgomery campus\n
417.96	0.128	835920	keystroke	d	n/a
418.16	0.088	836320	keystroke	o	n/a
418.328	0.088	836656	keystroke	c	n/a
418.608	0.112	837216	keystroke	t	n/a
418.76	0.048	837520	keystroke	o	n/a
418.84	0.184	837680	keystroke	r	n/a
418.96	0.16	837920	keystroke	s	n/a
419.104	0.08	838208	keystroke	Key.space	n/a
419.336	0.184	838672	keystroke	a	n/a
419.496	0.144	838992	keystroke	s	n/a
419.672	0.088	839344	keystroke	u	n/a
419.784	0.168	839568	keystroke	s	n/a
420.016	0.08	840032	keystroke	Key.space	n/a
420.24	0.16	840480	keystroke	m	n/a
420.536	0.136	841072	keystroke	o	n/a
420.752	0.104	841504	keystroke	n	n/a
421.5355	0.104	843071	keystroke	g	n/a
421.8635	0.12	843727	keystroke	o	n/a
422.1755	0.104	844351	keystroke	m	n/a
422.2315	0.176	844463	keystroke	e	n/a
422.3595	0.152	844719	keystroke	r	n/a
422.6475	0.128	845295	keystroke	y	n/a
422.9115	0.08	845823	keystroke	Key.space	n/a
423.2235	0.144	846447	keystroke	c	n/a
423.3035	0.208	846607	keystroke	a	n/a
423.4155	0.096	846831	keystroke	m	n/a
423.5915	0.104	847183	keystroke	p	n/a
423.8075	0.096	847615	keystroke	u	n/a
423.9275	0.184	847855	keystroke	t	n/a
424.2235	0.16	848447	keystroke	s	n/a
424.5035	0.064	849007	keystroke	Key.backspace	n/a
424.6395	0.08	849279	keystroke	Key.backspace	n/a
424.7595	0.112	849519	keystroke	s	n/a
424.8395	0.112	849679	keystroke	Key.enter	n/a
424.955	6.0055	849910	prompt	n/a	checked august tricks manager\n
425.672	0.111	851344	keystroke	c	n/a
425.735	0.08	851470	keystroke	h	n/a
425.847	0.12	851694	keystroke	e	n/a
425.975	0.136	851950	keystroke	c	n/a
426.071	0.08	852142	keystroke	k	n/a
426.231	0.104	852462	keystroke	e	n/a
426.4235	0.112	852847	keystroke	d	n/a
426.5435	0.096	853087	keystroke	Key.space	n/a
426.9675	0.128	853935	keystroke	a	n/a
427.1755	0.088	854351	keystroke	u	n/a
427.6475	0.128	855295	keystroke	g	n/a
427.7755	0.08	855551	keystroke	u	n/a
427.9675	0.096	855935	keystroke	s	n/a
428.2155	0.12	856431	keystroke	t	n/a
428.4875	0.096	856975	keystroke	Key.space	n/a
428.9915	0.088	857983	keystroke	t	n/a
429.1755	0.088	858351	keystroke	r	n/a
429.2715	0.0715	858543	keystroke	i	n/a
429.3915	0.12	858783	keystroke	c	n/a
429.5355	0.088	859071	keystroke	k	n/a
429.6555	0.16	859311	keystroke	s	n/a
429.8475	0.072	859695	keystroke	Key.space	n/a
430.0475	0.096	860095	keystroke	m	n/a
430.1355	0.096	860271	keystroke	a	n/a
430.2635	0.08	860527	keystroke	n	n/a
430.3195	0.08	860639	keystroke	a	n/a
430.4475	0.136	860895	keystroke	g	n/a
430.5275	0.184	861055	keystroke	e	n/a
430.7115	0.128	861423	keystroke	r	n/a
430.8635	0.096	861727	keystroke	Key.enter	n/a
430.9635	7.741	861927	prompt	n/a	norton utils withdrawal imported\n
431.767	0.152	863534	keystroke	n	n/a
431.879	0.104	863758	keystroke	o	n/a
431.975	0.128	863950	keystroke	r	n/a
432.175	0.176	864350	keystroke	t	n/a
432.311	0.136	864622	keystroke	o	n/a
432.391	0.12	864782	keystroke	n	n/a
432.631	0.088	865262	keystroke	Key.space	n/a
432.855	0.104	865710	keystroke	u	n/a
433.7115	0.136	867423	keystroke	t	n/a
433.7915	0.088	867583	keystroke	i	n/a
433.9675	0.112	867935	keystroke	l	n/a
434.2635	0.136	868527	keystroke	s	n/a
434.4795	0.096	868959	keystroke	Key.space	n/a
434.7835	0.144	869567	keystroke	w	n/a
434.8875	0.088	869775	keystroke	i	n/a
435.0395	0.136	870079	keystroke	t	n/a
435.1275	0.088	870255	keystroke	h	n/a
435.3835	0.12	870767	keystroke	d	n/a
435.5995	0.184	871199	keystroke	r	n/a
436.488	0.16	872976	keystroke	a	n/a
436.664	0.128	873328	keystroke	w	n/a
436.936	0.152	873872	keystroke	a	n/a
437.064	0.08	874128	keystroke	l	n/a
437.2955	0.0805	874591	keystroke	Key.space	n/a
437.536	0.12	875072	keystroke	i	n/a
437.656	0.1195	875312	keystroke	m	n/a
437.8475	0.096	875695	keystroke	p	n/a
438.0315	0.104	876063	keystroke	o	n/a
438.0955	0.096	876191	keystroke	r	n/a
438.2715	0.128	876543	keystroke	t	n/a
438.3435	0.112	876687	keystroke	e	n/a
438.5675	0.12	877135	keystroke	d	n/a
438.6235	0.08	877247	keystroke	Key.enter	n/a
438.7075	6.8695	877415	prompt	n/a	kodak handles memorial edmonton\n
439.6555	0.096	879311	keystroke	k	n/a
439.9035	0.104	879807	keystroke	o	n/a
440.1755	0.136	880351	keystroke	d	n/a
440.2955	0.184	880591	keystroke	a	n/a
440.5195	0.096	881039	keystroke	k	n/a
440.887	0.08	881774	keystroke	Key.space	n/a
441.151	0.0805	882302	keystroke	h	n/a
441.2715	0.1275	882543	keystroke	a	n/a
441.367	0.088	882734	keystroke	n	n/a
441.471	0.1365	882942	keystroke	d	n/a
441.6315	0.088	883263	keystroke	l	n/a
441.7115	0.104	883423	keystroke	e	n/a
441.927	0.112	883854	keystroke	s	n/a
442.111	0.072	884222	keystroke	Key.space	n/a
442.639	0.104	885278	keystroke	m	n/a
442.759	0.152	885518	keystroke	e	n/a
442.927	0.112	885854	keystroke	m	n/a
443.031	0.144	886062	keystroke	e	n/a
443.151	0.184	886302	keystroke	r	n/a
443.383	0.0965	886766	keystroke	i	n/a
443.5675	0.144	887135	keystroke	a	n/a
443.7035	0.08	887407	keystroke	l	n/a
443.9275	0.08	887855	keystroke	Key.space	n/a
444.2075	0.128	888415	keystroke	e	n/a
444.4475	0.12	888895	keystroke	d	n/a
444.7435	0.072	889487	keystroke	m	n/a
444.8955	0.16	889791	keystroke	o	n/a
445.0075	0.104	890015	keystroke	n	n/a
445.1275	0.144	890255	keystroke	t	n/a
445.2315	0.104	890463	keystroke	o	n/a
445.2795	0.104	890559	keystroke	n	n/a
445.4715	0.104	890943	keystroke	Key.enter	n/a
445.5815	10.0345	891163	prompt	n/a	precise resist trailers telecommunications\n
446.2475	0.104	892495	keystroke	p	n/a
446.5835	0.192	893167	keystroke	r	n/a
446.6955	0.144	893391	keystroke	e	n/a
446.9995	0.128	893999	keystroke	c	n/a
447.1275	0.096	894255	keystroke	i	n/a
447.2475	0.12	894495	keystroke	s	n/a
447.4635	0.112	894927	keystroke	e	n/a
448.1675	0.08	896335	keystroke	Key.space	n/a
448.6155	0.16	897231	keystroke	r	n/a
448.6955	0.096	897391	keystroke	e	n/a
448.8875	0.096	897775	keystroke	s	n/a
449.0075	0.08	898015	keystroke	i	n/a
449.1035	0.128	898207	keystroke	s	n/a
449.3835	0.144	898767	keystroke	t	n/a
449.7035	0.088	899407	keystroke	Key.space	n/a
450.0395	0.088	900079	keystroke	t	n/a
450.2155	0.16	900431	keystroke	r	n/a
450.2955	0.192	900591	keystroke	a	n/a
450.4075	0.088	900815	keystroke	i	n/a
450.5915	0.104	901183	keystroke	l	n/a
450.7435	0.24	901487	keystroke	e	n/a
450.9035	0.184	901807	keystroke	r	n/a
451.3515	0.12	902703	keystroke	s	n/a
451.6795	0.08	903359	keystroke	Key.space	n/a
452.2075	0.192	904415	keystroke	t	n/a
452.3275	0.168	904655	keystroke	e	n/a
452.5515	0.096	905103	keystroke	l	n/a
452.6555	0.128	905311	keystroke	e	n/a
452.9195	0.168	905839	keystroke	c	n/a
453.1755	0.192	906351	keystroke	o	n/a
453.3035	0.144	906607	keystroke	m	n/a
453.5595	0.096	907119	keystroke	m	n/a
453.8075	0.112	907615	keystroke	u	n/a
454.2635	0.112	908527	keystroke	n	n/a
454.4315	0.104	908863	keystroke	i	n/a
454.5755	0.168	909151	keystroke	c	n/a
454.7035	0.152	909407	keystroke	a	n/a
454.9995	0.1515	909999	keystroke	t	n/a
455.0715	0.2075	910143	keystroke	i	n/a
455.151	0.16	910302	keystroke	o	n/a
455.207	0.1355	910414	keystroke	n	n/a
455.3265	0.152	910653	keystroke	s	n/a
455.535	0.08	911070	keystroke	Key.enter	n/a
455.619	7.6755	911238	prompt	n/a	squad mercy frequencies desktop\n
456.279	0.144	912558	keystroke	s	n/a
456.559	0.112	913118	keystroke	q	n/a
456.703	0.088	913406	keystroke	u	n/a
456.823	0.152	913646	keystroke	a	n/a
457.279	0.144	914558	keystroke	d	n/a
457.535	0.08	915070	keystroke	Key.space	n/a
457.735	0.136	915470	keystroke	m	n/a
457.831	0.168	915662	keystroke	e	n/a
457.951	0.152	915902	keystroke	r	n/a
458.279	0.088	916558	keystroke	c	n/a
458.519	0.12	917038	keystroke	y	n/a
458.663	0.096	917326	keystroke	Key.space	n/a
458.815	0.128	917630	keystroke	f	n/a
459.039	0.168	918078	keystroke	r	n/a
459.127	0.104	918254	keystroke	e	n/a
459.3265	0.1275	918653	keystroke	q	n/a
459.446	0.096	918892	keystroke	u	n/a
459.7025	0.088	919405	keystroke	n	n/a
460.358	0.088	920716	keystroke	Key.backspace	n/a
460.494	0.128	920988	keystroke	e	n/a
460.654	0.096	921308	keystroke	n	n/a
460.782	0.208	921564	keystroke	c	n/a
461.1825	0.0635	922365	keystroke	i	n/a
461.302	0.072	922604	keystroke	e	n/a
461.502	0.08	923004	keystroke	s	n/a
461.582	0.072	923164	keystroke	Key.space	n/a
461.83	0.152	923660	keystroke	d	n/a
461.902	0.136	923804	keystroke	e	n/a
462.126	0.152	924252	keystroke	s	n/a
462.398	0.088	924796	keystroke	k	n/a
462.7335	0.152	925467	keystroke	t	n/a
462.83	0.1755	925660	keystroke	o	n/a
462.9415	0.144	925883	keystroke	p	n/a
463.1975	0.0955	926395	keystroke	Key.enter	n/a
463.297	9.4715	926594	prompt	n/a	sapphire jaguar every cigarette\n
463.9095	0.128	927819	keystroke	s	n/a
464.1175	0.1685	928235	keystroke	a	n/a
464.3575	0.112	928715	keystroke	p	n/a
464.5495	0.104	929099	keystroke	p	n/a
464.9655	0.112	929931	keystroke	h	n/a
465.5175	0.088	931035	keystroke	i	n/a
465.6535	0.2	931307	keystroke	r	n/a
465.7575	0.168	931515	keystroke	e	n/a
465.9815	0.072	931963	keystroke	Key.space	n/a
466.2215	0.088	932443	keystroke	j	n/a
466.3495	0.128	932699	keystroke	a	n/a
466.941	0.112	933882	keystroke	g	n/a
467.1975	0.072	934395	keystroke	u	n/a
467.693	0.136	935386	keystroke	a	n/a
467.837	0.12	935674	keystroke	r	n/a
468.117	0.104	936234	keystroke	y	n/a
468.3325	0.104	936665	keystroke	Key.space	n/a
468.7325	0.0635	937465	keystroke	Key.backspace	n/a
468.884	0.064	937768	keystroke	Key.backspace	n/a
469.1245	0.088	938249	keystroke	Key.space	n/a
469.5085	0.136	939017	keystroke	e	n/a
469.7405	0.1115	939481	keystroke	v	n/a
469.8205	0.1355	939641	keystroke	e	n/a
470.028	0.104	940056	keystroke	r	n/a
470.244	0.1275	940488	keystroke	y	n/a
470.4195	0.088	940839	keystroke	Key.space	n/a
470.872	0.1025	941744	keystroke	c	n/a
470.9745	0.0875	941949	keystroke	i	n/a
471.1755	0.1435	942351	keystroke	g	n/a
471.3985	0.1035	942797	keystroke	a	n/a
471.662	0.217	943324	keystroke	r	n/a
471.767	0.16	943534	keystroke	e	n/a
472.1585	0.0885	944317	keystroke	t	n/a
472.327	0.112	944654	keystroke	t	n/a
472.407	0.144	944814	keystroke	e	n/a
472.687	0.08	945374	keystroke	Key.enter	n/a
472.7725	14.2995	945545	prompt	n/a	antigua preference commentary engine\n
473.591	0.136	947182	keystroke	a	n/a
473.695	0.088	947390	keystroke	n	n/a
473.863	0.152	947726	keystroke	t	n/a
474.015	0.088	948030	keystroke	i	n/a
474.2075	0.1515	948415	keystroke	g	n/a
474.343	0.104	948686	keystroke	u	n/a
474.511	0.184	949022	keystroke	a	n/a
474.959	0.088	949918	keystroke	Key.space	n/a
476.8795	0.1595	953759	keystroke	a	n/a
477.015	0.104	954030	keystroke	n	n/a
477.287	0.152	954574	keystroke	t	n/a
477.415	0.072	954830	keystroke	i	n/a
477.671	0.144	955342	keystroke	g	n/a
477.807	0.096	955614	keystroke	u	n/a
477.927	0.152	955854	keystroke	a	n/a
478.103	0.0955	956206	keystroke	Key.space	n/a
478.6785	0.08	957357	keystroke	p	n/a
478.7745	0.175	957549	keystroke	r	n/a
478.878	0.1355	957756	keystroke	e	n/a
479.1345	0.1115	958269	keystroke	f	n/a
479.2065	0.1595	958413	keystroke	e	n/a
479.35	0.1755	958700	keystroke	r	n/a
479.4615	0.176	958923	keystroke	e	n/a
479.6455	0.0805	959291	keystroke	n	n/a
479.774	0.184	959548	keystroke	c	n/a
479.854	0.208	959708	keystroke	e	n/a
479.974	0.096	959948	keystroke	Key.space	n/a
480.2625	0.16	960525	keystroke	a	n/a
480.5665	0.104	961133	keystroke	o	n/a
481.1265	0.08	962253	keystroke	Key.backspace	n/a
481.294	0.0805	962588	keystroke	Key.backspace	n/a
481.4225	0.168	962845	keystroke	c	n/a
481.5345	0.12	963069	keystroke	o	n/a
481.7345	0.096	963469	keystroke	m	n/a
481.9105	0.12	963821	keystroke	m	n/a
481.9985	0.192	963997	keystroke	e	n/a
482.1425	0.192	964285	keystroke	r	n/a
482.5825	0.072	965165	keystroke	Key.backspace	n/a
482.7345	0.08	965469	keystroke	Key.backspace	n/a
483.2065	0.152	966413	keystroke	e	n/a
483.3185	0.096	966637	keystroke	n	n/a
483.5745	0.16	967149	keystroke	t	n/a
483.958	0.168	967916	keystroke	a	n/a
484.086	0.104	968172	keystroke	r	n/a
484.31	0.112	968620	keystroke	y	n/a
484.438	0.088	968876	keystroke	Key.space	n/a
484.798	0.16	969596	keystroke	e	n/a
484.934	0.08	969868	keystroke	n	n/a
485.07	0.1525	970140	keystroke	g	n/a
485.2385	0.08	970477	keystroke	i	n/a
485.3345	0.152	970669	keystroke	e	n/a
485.4865	0.088	970973	keystroke	n	n/a
486.1825	0.08	972365	keystroke	Key.backspace	n/a
486.3425	0.08	972685	keystroke	Key.backspace	n/a
486.5505	0.096	973101	keystroke	n	n/a
486.6385	0.128	973277	keystroke	e	n/a
486.9665	0.104	973933	keystroke	Key.enter	n/a
487.0745	6.8365	974149	prompt	n/a	selling symbol importance absent\n
487.7105	0.104	975421	keystroke	s	n/a
487.9105	0.128	975821	keystroke	e	n/a
488.0225	0.072	976045	keystroke	l	n/a
488.1665	0.208	976333	keystroke	l	n/a
488.3185	0.136	976637	keystroke	i	n/a
488.4145	0.128	976829	keystroke	n	n/a
488.5265	0.152	977053	keystroke	g	n/a
488.6625	0.096	977325	keystroke	Key.space	n/a
488.8465	0.096	977693	keystroke	s	n/a
489.0865	0.112	978173	keystroke	y	n/a
489.2225	0.096	978445	keystroke	m	n/a
489.47	0.2	978940	keystroke	e	n/a
489.878	0.088	979756	keystroke	Key.backspace	n/a
490.134	0.1435	980268	keystroke	b	n/a
490.2375	0.128	980475	keystroke	o	n/a
490.47	0.0955	980940	keystroke	l	n/a
490.6775	0.08	981355	keystroke	Key.space	n/a
490.8855	0.1045	981771	keystroke	i	n/a
491.03	0.12	982060	keystroke	m	n/a
491.206	0.096	982412	keystroke	p	n/a
491.39	0.1035	982780	keystroke	o	n/a
491.5575	0.104	983115	keystroke	r	n/a
491.8615	0.168	983723	keystroke	t	n/a
492.0535	0.192	984107	keystroke	a	n/a
492.2295	0.088	984459	keystroke	n	n/a
492.4615	0.208	984923	keystroke	c	n/a
492.5655	0.176	985131	keystroke	e	n/a
492.6775	0.08	985355	keystroke	Key.space	n/a
492.998	0.1515	985996	keystroke	a	n/a
493.1575	0.056	986315	keystroke	b	n/a
493.3095	0.072	986619	keystroke	s	n/a
493.4775	0.112	986955	keystroke	e	n/a
493.5815	0.08	987163	keystroke	n	n/a
493.6695	0.136	987339	keystroke	t	n/a
493.7975	0.112	987595	keystroke	Key.enter	n/a
493.914	7.1325	987828	prompt	n/a	incentives download october corps\n
494.5415	0.136	989083	keystroke	i	n/a
494.6535	0.096	989307	keystroke	n	n/a
494.7335	0.16	989467	keystroke	c	n/a
494.8295	0.176	989659	keystroke	e	n/a
494.9175	0.096	989835	keystroke	n	n/a
495.1015	0.104	990203	keystroke	t	n/a
495.1895	0.088	990379	keystroke	i	n/a
495.3575	0.12	990715	keystroke	v	n/a
495.4375	0.104	990875	keystroke	e	n/a
495.6535	0.152	991307	keystroke	s	n/a
495.7735	0.064	991547	keystroke	Key.space	n/a
496.0135	0.152	992027	keystroke	d	n/a
496.1575	0.04	992315	keystroke	o	n/a
496.2055	0.16	992411	keystroke	w	n/a
496.3815	0.072	992763	keystroke	n	n/a
496.5815	0.08	993163	keystroke	l	n/a
496.7495	0.088	993499	keystroke	o	n/a
496.9095	0.168	993819	keystroke	a	n/a
497.1335	0.144	994267	keystroke	d	n/a
497.989	0.112	995978	keystroke	Key.space	n/a
498.2535	0.0795	996507	keystroke	o	n/a
498.413	0.088	996826	keystroke	c	n/a
499.1015	0.16	998203	keystroke	t	n/a
499.2855	0.088	998571	keystroke	o	n/a
499.5335	0.104	999067	keystroke	b	n/a
499.6695	0.208	999339	keystroke	e	n/a
499.7735	0.176	999547	keystroke	r	n/a
499.9415	0.088	999883	keystroke	Key.space	n/a
500.3495	0.128	1000699	keystroke	c	n/a
500.4375	0.096	1000875	keystroke	o	n/a
500.6135	0.088	1001227	keystroke	r	n/a
500.7095	0.072	1001419	keystroke	p	n/a
500.7895	0.144	1001579	keystroke	s	n/a
500.9495	0.096	1001899	keystroke	Key.enter	n/a
501.049	9.0365	1002098	prompt	n/a	barely phoenix attachment totally\n
501.7975	0.12	1003595	keystroke	b	n/a
501.9495	0.176	1003899	keystroke	a	n/a
502.1175	0.2	1004235	keystroke	r	n/a
502.2295	0.088	1004459	keystroke	e	n/a
502.3975	0.08	1004795	keystroke	l	n/a
502.5335	0.112	1005067	keystroke	y	n/a
502.6615	0.088	1005323	keystroke	Key.space	n/a
503.141	0.024	1006282	keystroke	p	n/a
503.229	0.0395	1006458	keystroke	p	n/a
503.5085	0.128	1007017	keystroke	h	n/a
503.597	0.1675	1007194	keystroke	o	n/a
503.956	0.072	1007912	keystroke	Key.backspace	n/a
504.1245	0.072	1008249	keystroke	Key.backspace	n/a
504.2605	0.088	1008521	keystroke	Key.backspace	n/a
504.588	0.1285	1009176	keystroke	h	n/a
504.6845	0.176	1009369	keystroke	o	n/a
504.8685	0.12	1009737	keystroke	n	n/a
505.2365	0.088	1010473	keystroke	i	n/a
505.8045	0.08	1011609	keystroke	Key.backspace	n/a
505.9565	0.08	1011913	keystroke	Key.backspace	n/a
506.0445	0.112	1012089	keystroke	e	n/a
506.3405	0.12	1012681	keystroke	n	n/a
506.4365	0.104	1012873	keystroke	i	n/a
506.6605	0.12	1013321	keystroke	x	n/a
506.852	0.0885	1013704	keystroke	Key.space	n/a
507.34	0.12	1014680	keystroke	a	n/a
507.548	0.088	1015096	keystroke	t	n/a
507.708	0.104	1015416	keystroke	t	n/a
507.804	0.12	1015608	keystroke	a	n/a
508.004	0.128	1016008	keystroke	c	n/a
508.164	0.064	1016328	keystroke	h	n/a
508.492	0.08	1016984	keystroke	m	n/a
508.588	0.128	1017176	keystroke	e	n/a
508.716	0.08	1017432	keystroke	n	n/a
508.788	0.144	1017576	keystroke	t	n/a
508.916	0.096	1017832	keystroke	Key.space	n/a
509.124	0.104	1018248	keystroke	t	n/a
509.26	0.08	1018520	keystroke	o	n/a
509.404	0.192	1018808	keystroke	t	n/a
509.54	0.136	1019080	keystroke	a	n/a
509.644	0.064	1019288	keystroke	l	n/a
509.78	0.096	1019560	keystroke	l	n/a
509.884	0.136	1019768	keystroke	y	n/a
509.996	0.088	1019992	keystroke	Key.enter	n/a
510.088	7.068	1020176	prompt	n/a	whatever demanding neither accomplished\n
510.884	0.128	1021768	keystroke	w	n/a
511.02	0.088	1022040	keystroke	h	n/a
511.092	0.104	1022184	keystroke	a	n/a
511.236	0.192	1022472	keystroke	t	n/a
511.748	0.1115	1023496	keystroke	e	n/a
511.9235	0.112	1023847	keystroke	v	n/a
511.9955	0.1365	1023991	keystroke	e	n/a
512.188	0.1435	1024376	keystroke	r	n/a
512.3395	0.096	1024679	keystroke	Key.space	n/a
512.612	0.1435	1025224	keystroke	d	n/a
512.7	0.1115	1025400	keystroke	e	n/a
512.7635	0.08	1025527	keystroke	m	n/a
512.8915	0.136	1025783	keystroke	a	n/a
512.9715	0.064	1025943	keystroke	n	n/a
513.0915	0.1205	1026183	keystroke	d	n/a
513.22	0.136	1026440	keystroke	i	n/a
513.308	0.096	1026616	keystroke	n	n/a
513.372	0.128	1026744	keystroke	g	n/a
513.516	0.088	1027032	keystroke	Key.space	n/a
