onset	duration	sample	value	key	prompt_text
5.7275	13.243	11455	prompt	n/a	the quick brown fox jumps over a lazy dog\n
10.1045	0.013	20209	keystroke_t	t	n/a
10.2225	0.075	20445	keystroke_h	h	n/a
10.3275	0.075	20655	keystroke_e	e	n/a
10.4325	0.075	20865	keystroke_Key.space	Key.space	n/a
10.7175	0.06	21435	keystroke_q	q	n/a
10.882	0.06	21764	keystroke_u	u	n/a
11.047	0.0755	22094	keystroke_i	i	n/a
11.1675	0.075	22335	keystroke_c	c	n/a
11.3025	0.0905	22605	keystroke_k	k	n/a
11.407	0.076	22814	keystroke_Key.space	Key.space	n/a
11.633	0.074	23266	keystroke_b	b	n/a
11.797	0.06	23594	keystroke_r	r	n/a
11.902	0.06	23804	keystroke_o	o	n/a
12.022	0.075	24044	keystroke_w	w	n/a
12.157	0.09	24314	keystroke_n	n	n/a
12.262	0.105	24524	keystroke_Key.space	Key.space	n/a
12.697	0.105	25394	keystroke_f	f	n/a
12.877	0.06	25754	keystroke_o	o	n/a
13.1625	0.12	26325	keystroke_Key.space	Key.space	n/a
13.702	0.105	27404	keystroke_Key.backspace	Key.backspace	n/a
14.347	0.076	28694	keystroke_x	x	n/a
15.1125	0.075	30225	keystroke_Key.space	Key.space	n/a
15.457	0.075	30914	keystroke_j	j	n/a
15.622	0.0905	31244	keystroke_u	u	n/a
15.8775	0.075	31755	keystroke_m	m	n/a
16.0725	0.075	32145	keystroke_p	p	n/a
16.1925	0.09	32385	keystroke_s	s	n/a
16.2975	0.105	32595	keystroke_Key.space	Key.space	n/a
16.4925	0.105	32985	keystroke_o	o	n/a
16.6125	0.09	33225	keystroke_v	v	n/a
16.7775	0.135	33555	keystroke_e	e	n/a
16.8975	0.105	33795	keystroke_r	r	n/a
17.0325	0.09	34065	keystroke_Key.space	Key.space	n/a
17.1375	0.0895	34275	keystroke_a	a	n/a
17.212	0.12	34424	keystroke_Key.space	Key.space	n/a
17.407	0.09	34814	keystroke_l	l	n/a
17.527	0.06	35054	keystroke_a	a	n/a
17.752	0.1655	35504	keystroke_z	z	n/a
17.992	0.105	35984	keystroke_y	y	n/a
18.112	0.135	36224	keystroke_Key.space	Key.space	n/a
18.307	0.1355	36614	keystroke_d	d	n/a
18.4275	0.1055	36855	keystroke_o	o	n/a
18.638	0.105	37276	keystroke_g	g	n/a
18.878	0.09	37756	keystroke_Key.enter	Key.enter	n/a
18.974	8.8305	37948	prompt	n/a	acrylic street markets visa\n
19.643	0.105	39286	keystroke_a	a	n/a
19.853	0.1045	39706	keystroke_c	c	n/a
20.077	0.09	40154	keystroke_r	r	n/a
20.212	0.105	40424	keystroke_y	y	n/a
20.467	0.15	40934	keystroke_l	l	n/a
20.602	0.091	41204	keystroke_i	i	n/a
20.873	0.105	41746	keystroke_c	c	n/a
21.1875	0.09	42375	keystroke_Key.space	Key.space	n/a
21.458	0.09	42916	keystroke_s	s	n/a
21.653	0.075	43306	keystroke_t	t	n/a
21.923	0.075	43846	keystroke_e	e	n/a
23.062	0.075	46124	keystroke_Key.backspace	Key.backspace	n/a
23.228	0.1195	46456	keystroke_r	r	n/a
23.3325	0.105	46665	keystroke_e	e	n/a
23.5125	0.12	47025	keystroke_e	e	n/a
23.7075	0.105	47415	keystroke_t	t	n/a
23.8425	0.105	47685	keystroke_Key.space	Key.space	n/a
24.367	0.105	48734	keystroke_m	m	n/a
24.517	0.1205	49034	keystroke_a	a	n/a
24.6975	0.105	49395	keystroke_r	r	n/a
24.8325	0.12	49665	keystroke_k	k	n/a
24.9825	0.105	49965	keystroke_e	e	n/a
25.2075	0.09	50415	keystroke_y	y	n/a
25.3875	0.1045	50775	keystroke_s	s	n/a
25.792	0.076	51584	keystroke_Key.backspace	Key.backspace	n/a
26.047	0.06	52094	keystroke_Key.backspace	Key.backspace	n/a
26.197	0.12	52394	keystroke_t	t	n/a
26.302	0.12	52604	keystroke_s	s	n/a
26.858	0.09	53716	keystroke_Key.space	Key.space	n/a
27.083	0.12	54166	keystroke_v	v	n/a
27.278	0.105	54556	keystroke_i	i	n/a
27.428	0.135	54856	keystroke_s	s	n/a
27.548	0.12	55096	keystroke_a	a	n/a
27.713	0.09	55426	keystroke_Key.enter	Key.enter	n/a
27.8075	16.347	55615	prompt	n/a	witness effectiveness theatre holder\n
28.4925	0.09	56985	keystroke_w	w	n/a
28.748	0.075	57496	keystroke_i	i	n/a
28.883	0.075	57766	keystroke_t	t	n/a
29.018	0.06	58036	keystroke_h	h	n/a
29.213	0.059	58426	keystroke_n	n	n/a
29.273	0.075	58546	keystroke_e	e	n/a
29.422	0.09	58844	keystroke_s	s	n/a
29.5725	0.09	59145	keystroke_s	s	n/a
29.6775	0.105	59355	keystroke_Key.space	Key.space	n/a
29.8425	0.09	59685	keystroke_e	e	n/a
30.0525	0.06	60105	keystroke_f	f	n/a
30.2025	0.075	60405	keystroke_f	f	n/a
30.4875	0.12	60975	keystroke_e	e	n/a
32.108	0.045	64216	keystroke_Key.backspace	Key.backspace	n/a
32.317	0.046	64634	keystroke_Key.backspace	Key.backspace	n/a
32.512	0.061	65024	keystroke_Key.backspace	Key.backspace	n/a
32.737	0.061	65474	keystroke_Key.backspace	Key.backspace	n/a
32.977	0.031	65954	keystroke_Key.backspace	Key.backspace	n/a
33.173	0.045	66346	keystroke_Key.backspace	Key.backspace	n/a
33.382	0.046	66764	keystroke_Key.backspace	Key.backspace	n/a
33.5925	0.045	67185	keystroke_Key.backspace	Key.backspace	n/a
33.8025	0.075	67605	keystroke_Key.backspace	Key.backspace	n/a
34.042	0.016	68084	keystroke_Key.backspace	Key.backspace	n/a
34.733	0.075	69466	keystroke_n	n	n/a
34.868	0.075	69736	keystroke_e	e	n/a
35.078	0.06	70156	keystroke_s	s	n/a
35.213	0.075	70426	keystroke_s	s	n/a
35.348	0.12	70696	keystroke_Key.space	Key.space	n/a
35.678	0.09	71356	keystroke_e	e	n/a
35.933	0.075	71866	keystroke_f	f	n/a
36.128	0.09	72256	keystroke_f	f	n/a
36.2325	0.0905	72465	keystroke_e	e	n/a
36.473	0.059	72946	keystroke_c	c	n/a
36.698	0.074	73396	keystroke_t	t	n/a
36.892	0.105	73784	keystroke_i	i	n/a
37.103	0.09	74206	keystroke_v	v	n/a
37.493	0.09	74986	keystroke_e	e	n/a
37.703	0.12	75406	keystroke_n	n	n/a
37.898	0.12	75796	keystroke_e	e	n/a
38.198	0.09	76396	keystroke_s	s	n/a
38.363	0.06	76726	keystroke_s	s	n/a
38.482	0.09	76964	keystroke_Key.space	Key.space	n/a
38.723	0.105	77446	keystroke_t	t	n/a
38.843	0.105	77686	keystroke_h	h	n/a
39.008	0.165	78016	keystroke_e	e	n/a
39.203	0.135	78406	keystroke_a	a	n/a
39.428	0.105	78856	keystroke_t	t	n/a
39.638	0.06	79276	keystroke_h	h	n/a
40.163	0.105	80326	keystroke_Key.backspace	Key.backspace	n/a
40.343	0.135	80686	keystroke_r	r	n/a
40.448	0.12	80896	keystroke_e	e	n/a
40.777	0.09	81554	keystroke_Key.space	Key.space	n/a
41.167	0.061	82334	keystroke_h	h	n/a
41.362	0.075	82724	keystroke_o	o	n/a
41.677	0.1655	83354	keystroke_d	d	n/a
42.0225	0.09	84045	keystroke_e	e	n/a
42.3225	0.105	84645	keystroke_Key.backspace	Key.backspace	n/a
42.5325	0.075	85065	keystroke_Key.backspace	Key.backspace	n/a
43.3725	0.075	86745	keystroke_l	l	n/a
43.5075	0.105	87015	keystroke_d	d	n/a
43.7175	0.075	87435	keystroke_e	e	n/a
43.9125	0.075	87825	keystroke_r	r	n/a
44.0625	0.09	88125	keystroke_Key.enter	Key.enter	n/a
44.158	6.5215	88316	prompt	n/a	faced interest stuck structured\n
45.0375	0.09	90075	keystroke_f	f	n/a
45.1425	0.135	90285	keystroke_a	a	n/a
45.3525	0.12	90705	keystroke_c	c	n/a
45.4575	0.09	90915	keystroke_e	e	n/a
45.6375	0.105	91275	keystroke_d	d	n/a
45.7725	0.135	91545	keystroke_Key.space	Key.space	n/a
45.938	0.1645	91876	keystroke_i	i	n/a
46.0575	0.105	92115	keystroke_n	n	n/a
46.1325	0.135	92265	keystroke_t	t	n/a
46.2825	0.105	92565	keystroke_e	e	n/a
46.3875	0.135	92775	keystroke_r	r	n/a
46.5075	0.105	93015	keystroke_e	e	n/a
46.7175	0.09	93435	keystroke_s	s	n/a
46.9125	0.06	93825	keystroke_t	t	n/a
47.0175	0.09	94035	keystroke_Key.space	Key.space	n/a
47.2275	0.105	94455	keystroke_s	s	n/a
47.4075	0.075	94815	keystroke_t	t	n/a
47.5725	0.09	95145	keystroke_u	u	n/a
47.6775	0.105	95355	keystroke_c	c	n/a
47.8575	0.15	95715	keystroke_k	k	n/a
47.9775	0.135	95955	keystroke_Key.space	Key.space	n/a
48.473	0.105	96946	keystroke_s	s	n/a
48.668	0.09	97336	keystroke_t	t	n/a
48.833	0.089	97666	keystroke_r	r	n/a
48.968	0.09	97936	keystroke_u	u	n/a
49.073	0.105	98146	keystroke_c	c	n/a
49.312	0.091	98624	keystroke_t	t	n/a
49.463	0.075	98926	keystroke_u	u	n/a
49.613	0.105	99226	keystroke_r	r	n/a
49.733	0.09	99466	keystroke_e	e	n/a
49.928	0.075	99856	keystroke_d	d	n/a
50.6025	0.075	101205	keystroke_Key.enter	Key.enter	n/a
50.6825	9.912	101365	prompt	n/a	javascript accounting inch entrepreneur\n
51.5625	0.09	103125	keystroke_j	j	n/a
51.6375	0.075	103275	keystroke_a	a	n/a
51.8775	0.075	103755	keystroke_v	v	n/a
52.0125	0.12	104025	keystroke_a	a	n/a
52.1775	0.12	104355	keystroke_s	s	n/a
52.3425	0.075	104685	keystroke_c	c	n/a
52.5375	0.06	105075	keystroke_r	r	n/a
52.6425	0.135	105285	keystroke_i	i	n/a
52.7625	0.06	105525	keystroke_p	p	n/a
52.9425	0.075	105885	keystroke_t	t	n/a
53.0475	0.105	106095	keystroke_Key.space	Key.space	n/a
53.3175	0.09	106635	keystroke_a	a	n/a
53.5425	0.18	107085	keystroke_c	c	n/a
53.7675	0.135	107535	keystroke_o	o	n/a
54.953	0.12	109906	keystroke_Key.backspace	Key.backspace	n/a
55.2075	0.09	110415	keystroke_c	c	n/a
55.508	0.165	111016	keystroke_o	o	n/a
55.643	0.12	111286	keystroke_u	u	n/a
55.898	0.09	111796	keystroke_n	n	n/a
55.958	0.09	111916	keystroke_t	t	n/a
56.093	0.135	112186	keystroke_i	i	n/a
56.213	0.09	112426	keystroke_n	n	n/a
56.333	0.105	112666	keystroke_g	g	n/a
56.528	0.075	113056	keystroke_Key.space	Key.space	n/a
56.8425	0.12	113685	keystroke_i	i	n/a
56.9475	0.105	113895	keystroke_n	n	n/a
57.0825	0.1205	114165	keystroke_c	c	n/a
57.293	0.1045	114586	keystroke_h	h	n/a
57.4575	0.09	114915	keystroke_Key.space	Key.space	n/a
57.7425	0.105	115485	keystroke_a	a	n/a
58.0875	0.06	116175	keystroke_Key.backspace	Key.backspace	n/a
58.2075	0.105	116415	keystroke_e	e	n/a
58.4175	0.09	116835	keystroke_n	n	n/a
58.5675	0.0905	117135	keystroke_t	t	n/a
58.8835	0.0895	117767	keystroke_r	r	n/a
59.032	0.1065	118064	keystroke_e	e	n/a
59.318	0.09	118636	keystroke_p	p	n/a
59.513	0.0605	119026	keystroke_r	r	n/a
59.588	0.075	119176	keystroke_e	e	n/a
59.738	0.09	119476	keystroke_n	n	n/a
59.9785	0.075	119957	keystroke_e	e	n/a
60.1285	0.105	120257	keystroke_u	u	n/a
60.2775	0.075	120555	keystroke_r	r	n/a
60.5025	0.09	121005	keystroke_Key.enter	Key.enter	n/a
60.5975	10.5875	121195	prompt	n/a	vice clinic organizing housewares\n
61.5975	0.09	123195	keystroke_v	v	n/a
62.0175	0.06	124035	keystroke_i	i	n/a
62.1525	0.075	124305	keystroke_c	c	n/a
62.2125	0.09	124425	keystroke_e	e	n/a
62.3925	0.075	124785	keystroke_Key.space	Key.space	n/a
62.7825	0.105	125565	keystroke_c	c	n/a
62.9025	0.195	125805	keystroke_l	l	n/a
63.1125	0.105	126225	keystroke_i	i	n/a
63.5035	0.0895	127007	keystroke_i	i	n/a
64.028	0.075	128056	keystroke_Key.backspace	Key.backspace	n/a
64.328	0.12	128656	keystroke_n	n	n/a
64.448	0.075	128896	keystroke_i	i	n/a
64.628	0.105	129256	keystroke_c	c	n/a
64.853	0.105	129706	keystroke_Key.space	Key.space	n/a
65.3925	0.045	130785	keystroke_o	o	n/a
65.4525	0.06	130905	keystroke_r	r	n/a
65.6775	0.09	131355	keystroke_g	g	n/a
65.9025	0.0605	131805	keystroke_a	a	n/a
66.188	0.105	132376	keystroke_n	n	n/a
66.923	0.06	133846	keystroke_i	i	n/a
67.118	0.105	134236	keystroke_z	z	n/a
67.418	0.105	134836	keystroke_i	i	n/a
67.613	0.06	135226	keystroke_n	n	n/a
67.793	0.09	135586	keystroke_g	g	n/a
67.973	0.0745	135946	keystroke_Key.space	Key.space	n/a
68.3025	0.045	136605	keystroke_g	g	n/a
68.858	0.09	137716	keystroke_Key.backspace	Key.backspace	n/a
69.353	0.075	138706	keystroke_h	h	n/a
69.533	0.075	139066	keystroke_o	o	n/a
69.623	0.09	139246	keystroke_u	u	n/a
69.743	0.1495	139486	keystroke_s	s	n/a
69.9075	0.091	139815	keystroke_e	e	n/a
70.2085	0.089	140417	keystroke_w	w	n/a
70.418	0.135	140836	keystroke_a	a	n/a
70.628	0.135	141256	keystroke_r	r	n/a
70.733	0.09	141466	keystroke_e	e	n/a
70.9275	0.0905	141855	keystroke_s	s	n/a
71.0775	0.105	142155	keystroke_Key.enter	Key.enter	n/a
71.191	7.2685	142382	prompt	n/a	charming vary bryan trans\n
71.8435	0.089	143687	keystroke_c	c	n/a
71.9935	0.09	143987	keystroke_h	h	n/a
72.1135	0.075	144227	keystroke_a	a	n/a
72.2175	0.09	144435	keystroke_r	r	n/a
72.3685	0.0895	144737	keystroke_m	m	n/a
72.533	0.1495	145066	keystroke_i	i	n/a
72.6675	0.09	145335	keystroke_n	n	n/a
72.7875	0.075	145575	keystroke_g	g	n/a
72.8925	0.105	145785	keystroke_Key.space	Key.space	n/a
73.1475	0.105	146295	keystroke_v	v	n/a
73.3575	0.09	146715	keystroke_a	a	n/a
73.463	0.09	146926	keystroke_r	r	n/a
73.568	0.105	147136	keystroke_y	y	n/a
73.763	0.075	147526	keystroke_Key.space	Key.space	n/a
73.958	0.075	147916	keystroke_b	b	n/a
74.273	0.075	148546	keystroke_r	r	n/a
74.438	0.105	148876	keystroke_y	y	n/a
74.723	0.09	149446	keystroke_n	n	n/a
74.873	0.075	149746	keystroke_a	a	n/a
75.323	0.03	150646	keystroke_Key.backspace	Key.backspace	n/a
75.743	0.0745	151486	keystroke_Key.backspace	Key.backspace	n/a
76.073	0.09	152146	keystroke_a	a	n/a
76.268	0.075	152536	keystroke_n	n	n/a
76.4785	0.09	152957	keystroke_Key.space	Key.space	n/a
77.1385	0.105	154277	keystroke_t	t	n/a
77.3335	0.105	154667	keystroke_r	r	n/a
77.4235	0.12	154847	keystroke_a	a	n/a
77.5885	0.075	155177	keystroke_n	n	n/a
77.9035	0.09	155807	keystroke_s	s	n/a
78.3685	0.0895	156737	keystroke_Key.enter	Key.enter	n/a
78.4635	3.521	156927	prompt	n/a	rare is think he'd\n
79.073	0.12	158146	keystroke_r	r	n/a
79.148	0.18	158296	keystroke_a	a	n/a
79.343	0.135	158686	keystroke_r	r	n/a
79.463	0.06	158926	keystroke_e	e	n/a
79.553	0.075	159106	keystroke_Key.space	Key.space	n/a
79.673	0.09	159346	keystroke_i	i	n/a
79.793	0.09	159586	keystroke_s	s	n/a
79.898	0.09	159796	keystroke_Key.space	Key.space	n/a
80.003	0.075	160006	keystroke_t	t	n/a
80.123	0.105	160246	keystroke_h	h	n/a
80.243	0.075	160486	keystroke_i	i	n/a
80.423	0.105	160846	keystroke_n	n	n/a
80.558	0.105	161116	keystroke_k	k	n/a
80.768	0.06	161536	keystroke_Key.space	Key.space	n/a
80.918	0.075	161836	keystroke_h	h	n/a
81.008	0.09	162016	keystroke_e	e	n/a
81.233	0.075	162466	keystroke_'	'	n/a
81.608	0.075	163216	keystroke_d	d	n/a
81.908	0.075	163816	keystroke_Key.enter	Key.enter	n/a
81.9875	7.4225	163975	prompt	n/a	entirely activation liquid jews\n
82.703	0.12	165406	keystroke_e	e	n/a
82.898	0.075	165796	keystroke_n	n	n/a
83.033	0.09	166066	keystroke_t	t	n/a
83.183	0.0895	166366	keystroke_i	i	n/a
83.3325	0.0605	166665	keystroke_r	r	n/a
83.498	0.075	166996	keystroke_e	e	n/a
83.618	0.09	167236	keystroke_l	l	n/a
83.828	0.075	167656	keystroke_y	y	n/a
83.963	0.12	167926	keystroke_Key.space	Key.space	n/a
84.368	0.09	168736	keystroke_a	a	n/a
84.608	0.105	169216	keystroke_c	c	n/a
84.863	0.06	169726	keystroke_t	t	n/a
84.983	0.075	169966	keystroke_i	i	n/a
85.118	0.075	170236	keystroke_v	v	n/a
85.2985	0.0145	170597	keystroke_i	i	n/a
85.688	0.03	171376	keystroke_Key.backspace	Key.backspace	n/a
85.823	0.12	171646	keystroke_a	a	n/a
86.078	0.075	172156	keystroke_t	t	n/a
86.213	0.15	172426	keystroke_i	i	n/a
86.348	0.075	172696	keystroke_o	o	n/a
86.588	0.09	173176	keystroke_n	n	n/a
86.723	0.09	173446	keystroke_Key.space	Key.space	n/a
87.188	0.135	174376	keystroke_l	l	n/a
87.308	0.12	174616	keystroke_i	i	n/a
87.488	0.09	174976	keystroke_q	q	n/a
87.638	0.09	175276	keystroke_u	u	n/a
87.848	0.09	175696	keystroke_i	i	n/a
88.163	0.105	176326	keystroke_d	d	n/a
88.313	0.105	176626	keystroke_Key.space	Key.space	n/a
88.643	0.075	177286	keystroke_j	j	n/a
88.778	0.105	177556	keystroke_e	e	n/a
88.853	0.105	177706	keystroke_w	w	n/a
89.078	0.09	178156	keystroke_s	s	n/a
89.333	0.0745	178666	keystroke_Key.enter	Key.enter	n/a
89.413	6.4765	178826	prompt	n/a	pursuant wheel ascii assurance\n
90.1285	0.06	180257	keystroke_p	p	n/a
90.3535	0.074	180707	keystroke_u	u	n/a
90.4735	0.089	180947	keystroke_r	r	n/a
90.6975	0.0755	181395	keystroke_s	s	n/a
91.0875	0.091	182175	keystroke_u	u	n/a
91.2675	0.09	182535	keystroke_a	a	n/a
91.4475	0.09	182895	keystroke_n	n	n/a
91.5825	0.06	183165	keystroke_t	t	n/a
91.6875	0.105	183375	keystroke_Key.space	Key.space	n/a
92.0175	0.09	184035	keystroke_w	w	n/a
92.1525	0.06	184305	keystroke_h	h	n/a
92.2425	0.06	184485	keystroke_e	e	n/a
92.3775	0.09	184755	keystroke_e	e	n/a
92.5125	0.09	185025	keystroke_l	l	n/a
92.6625	0.075	185325	keystroke_Key.space	Key.space	n/a
92.7525	0.105	185505	keystroke_a	a	n/a
92.9025	0.105	185805	keystroke_s	s	n/a
93.2025	0.09	186405	keystroke_c	c	n/a
93.4125	0.076	186825	keystroke_i	i	n/a
93.6975	0.06	187395	keystroke_i	i	n/a
93.9375	0.06	187875	keystroke_Key.space	Key.space	n/a
94.2075	0.105	188415	keystroke_a	a	n/a
94.3575	0.1055	188715	keystroke_s	s	n/a
94.508	0.075	189016	keystroke_s	s	n/a
94.988	0.06	189976	keystroke_u	u	n/a
95.123	0.09	190246	keystroke_r	r	n/a
95.198	0.12	190396	keystroke_a	a	n/a
95.333	0.12	190666	keystroke_n	n	n/a
95.483	0.135	190966	keystroke_c	c	n/a
95.588	0.105	191176	keystroke_e	e	n/a
95.813	0.075	191626	keystroke_Key.enter	Key.enter	n/a
95.8925	11.487	191785	prompt	n/a	minerals ring producer screens\n
96.6375	0.106	193275	keystroke_m	m	n/a
96.7885	0.15	193577	keystroke_i	i	n/a
96.9685	0.09	193937	keystroke_n	n	n/a
97.0885	0.09	194177	keystroke_r	r	n/a
97.2835	0.12	194567	keystroke_e	e	n/a
97.4185	0.105	194837	keystroke_a	a	n/a
97.5685	0.075	195137	keystroke_l	l	n/a
97.7485	0.075	195497	keystroke_s	s	n/a
97.9735	0.089	195947	keystroke_Key.space	Key.space	n/a
98.6775	0.09	197355	keystroke_Key.backspace	Key.backspace	n/a
98.8725	0.09	197745	keystroke_Key.backspace	Key.backspace	n/a
99.0825	0.06	198165	keystroke_Key.backspace	Key.backspace	n/a
99.2775	0.03	198555	keystroke_Key.backspace	Key.backspace	n/a
99.4275	0.06	198855	keystroke_Key.backspace	Key.backspace	n/a
99.6075	0.06	199215	keystroke_Key.backspace	Key.backspace	n/a
99.7725	0.075	199545	keystroke_e	e	n/a
99.9375	0.09	199875	keystroke_r	r	n/a
100.0585	0.104	200117	keystroke_a	a	n/a
100.2375	0.0755	200475	keystroke_l	l	n/a
100.5825	0.09	201165	keystroke_s	s	n/a
101.0325	0.091	202065	keystroke_Key.space	Key.space	n/a
101.5585	0.09	203117	keystroke_r	r	n/a
101.768	0.015	203536	keystroke_u	u	n/a
102.3835	0.0745	204767	keystroke_Key.backspace	Key.backspace	n/a
102.773	0.105	205546	keystroke_i	i	n/a
102.848	0.105	205696	keystroke_n	n	n/a
102.968	0.09	205936	keystroke_g	g	n/a
103.253	0.09	206506	keystroke_Key.space	Key.space	n/a
103.793	0.09	207586	keystroke_p	p	n/a
103.943	0.075	207886	keystroke_r	r	n/a
104.048	0.0905	208096	keystroke_o	o	n/a
104.1835	0.104	208367	keystroke_d	d	n/a
104.3325	0.0915	208665	keystroke_u	u	n/a
104.438	0.09	208876	keystroke_c	c	n/a
104.8735	0.105	209747	keystroke_e	e	n/a
105.0385	0.09	210077	keystroke_r	r	n/a
105.2335	0.105	210467	keystroke_Key.space	Key.space	n/a
105.758	0.075	211516	keystroke_s	s	n/a
105.968	0.09	211936	keystroke_c	c	n/a
106.2085	0.045	212417	keystroke_r	r	n/a
106.3735	0.0745	212747	keystroke_e	e	n/a
106.538	0.09	213076	keystroke_e	e	n/a
106.928	0.105	213856	keystroke_n	n	n/a
107.063	0.09	214126	keystroke_s	s	n/a
107.303	0.0755	214606	keystroke_Key.enter	Key.enter	n/a
107.3825	7.527	214765	prompt	n/a	normally kinda paintball lucas\n
107.9935	0.0895	215987	keystroke_n	n	n/a
108.203	0.075	216406	keystroke_o	o	n/a
108.308	0.075	216616	keystroke_r	r	n/a
108.488	0.09	216976	keystroke_m	m	n/a
108.653	0.09	217306	keystroke_a	a	n/a
108.803	0.06	217606	keystroke_l	l	n/a
108.953	0.06	217906	keystroke_l	l	n/a
109.163	0.105	218326	keystroke_y	y	n/a
109.313	0.12	218626	keystroke_Key.space	Key.space	n/a
109.568	0.075	219136	keystroke_k	k	n/a
109.733	0.06	219466	keystroke_i	i	n/a
109.973	0.09	219946	keystroke_n	n	n/a
110.213	0.1355	220426	keystroke_d	d	n/a
110.3635	0.104	220727	keystroke_a	a	n/a
110.5275	0.105	221055	keystroke_Key.space	Key.space	n/a
110.9175	0.075	221835	keystroke_p	p	n/a
111.0825	0.091	222165	keystroke_a	a	n/a
111.2185	0.135	222437	keystroke_i	i	n/a
111.3385	0.105	222677	keystroke_n	n	n/a
111.503	0.09	223006	keystroke_t	t	n/a
111.683	0.075	223366	keystroke_b	b	n/a
111.788	0.135	223576	keystroke_a	a	n/a
111.998	0.045	223996	keystroke_l	l	n/a
112.148	0.045	224296	keystroke_l	l	n/a
112.328	0.075	224656	keystroke_Key.space	Key.space	n/a
112.8085	0.089	225617	keystroke_l	l	n/a
113.0335	0.015	226067	keystroke_y	y	n/a
113.1835	0.09	226367	keystroke_c	c	n/a
113.5735	0.074	227147	keystroke_Key.backspace	Key.backspace	n/a
113.7685	0.075	227537	keystroke_Key.backspace	Key.backspace	n/a
114.3235	0.09	228647	keystroke_u	u	n/a
114.428	0.091	228856	keystroke_c	c	n/a
114.503	0.196	229006	keystroke_a	a	n/a
114.653	0.12	229306	keystroke_s	s	n/a
114.803	0.105	229606	keystroke_Key.enter	Key.enter	n/a
114.9125	8.4425	229825	prompt	n/a	wound pleased add nikon\n
115.5235	0.09	231047	keystroke_w	w	n/a
115.6435	0.105	231287	keystroke_o	o	n/a
115.7035	0.12	231407	keystroke_u	u	n/a
116.438	0.075	232876	keystroke_n	n	n/a
116.603	0.09	233206	keystroke_d	d	n/a
116.888	0.03	233776	keystroke_Key.space	Key.space	n/a
117.383	0.045	234766	keystroke_p	p	n/a
117.578	0.09	235156	keystroke_l	l	n/a
117.7285	0.119	235457	keystroke_e	e	n/a
117.8625	0.106	235725	keystroke_a	a	n/a
117.9085	0.1495	235817	keystroke_s	s	n/a
118.073	0.105	236146	keystroke_e	e	n/a
118.298	0.09	236596	keystroke_d	d	n/a
118.433	0.105	236866	keystroke_Key.space	Key.space	n/a
118.868	0.165	237736	keystroke_a	a	n/a
119.303	0.0755	238606	keystroke_d	d	n/a
119.453	0.09	238906	keystroke_d	d	n/a
119.558	0.105	239116	keystroke_Key.space	Key.space	n/a
119.753	0.105	239506	keystroke_n	n	n/a
119.978	0.045	239956	keystroke_i	i	n/a
120.158	0.075	240316	keystroke_k	k	n/a
120.323	0.06	240646	keystroke_o	o	n/a
120.518	0.075	241036	keystroke_n	n	n/a
120.848	0.06	241696	keystroke_\	\	n/a
122.768	0.045	245536	keystroke_Key.backspace	Key.backspace	n/a
123.308	0.045	246616	keystroke_Key.enter	Key.enter	n/a
123.3585	10.7815	246717	prompt	n/a	grill although bangladesh olympic\n
124.4635	0.075	248927	keystroke_g	g	n/a
124.6435	0.06	249287	keystroke_r	r	n/a
124.7635	0.075	249527	keystroke_i	i	n/a
124.9735	0.06	249947	keystroke_l	l	n/a
125.1535	0.045	250307	keystroke_l	l	n/a
125.2285	0.1345	250457	keystroke_Key.space	Key.space	n/a
125.648	0.12	251296	keystroke_a	a	n/a
125.828	0.09	251656	keystroke_l	l	n/a
125.978	0.105	251956	keystroke_t	t	n/a
126.113	0.105	252226	keystroke_h	h	n/a
126.248	0.09	252496	keystroke_r	r	n/a
126.383	0.1505	252766	keystroke_o	o	n/a
126.5185	0.105	253037	keystroke_u	u	n/a
127.0135	0.045	254027	keystroke_Key.backspace	Key.backspace	n/a
127.1935	0.06	254387	keystroke_Key.backspace	Key.backspace	n/a
127.5385	0.0595	255077	keystroke_Key.backspace	Key.backspace	n/a
128.063	0.15	256126	keystroke_o	o	n/a
128.214	0.089	256428	keystroke_u	u	n/a
128.348	0.0905	256696	keystroke_g	g	n/a
128.4985	0.105	256997	keystroke_h	h	n/a
128.6635	0.135	257327	keystroke_Key.space	Key.space	n/a
129.083	0.0755	258166	keystroke_b	b	n/a
129.173	0.12	258346	keystroke_a	a	n/a
129.338	0.105	258676	keystroke_n	n	n/a
129.548	0.09	259096	keystroke_g	g	n/a
130.193	0.075	260386	keystroke_l	l	n/a
130.358	0.12	260716	keystroke_a	a	n/a
130.643	0.075	261286	keystroke_d	d	n/a
130.808	0.075	261616	keystroke_e	e	n/a
131.0185	0.0905	262037	keystroke_s	s	n/a
131.199	0.0595	262398	keystroke_h	h	n/a
131.363	0.105	262726	keystroke_Key.space	Key.space	n/a
131.783	0.075	263566	keystroke_o	o	n/a
132.068	0.09	264136	keystroke_l	l	n/a
132.3535	0.075	264707	keystroke_y	y	n/a
133.014	0.089	266028	keystroke_m	m	n/a
133.418	0.075	266836	keystroke_p	p	n/a
133.673	0.075	267346	keystroke_i	i	n/a
133.823	0.09	267646	keystroke_c	c	n/a
134.033	0.105	268066	keystroke_Key.enter	Key.enter	n/a
134.143	9.417	268286	prompt	n/a	entertaining apparel fitness jessica\n
134.7235	0.09	269447	keystroke_e	e	n/a
134.8735	0.09	269747	keystroke_n	n	n/a
135.0685	0.09	270137	keystroke_t	t	n/a
135.1885	0.1195	270377	keystroke_e	e	n/a
135.2935	0.1045	270587	keystroke_r	r	n/a
135.443	0.09	270886	keystroke_n	n	n/a
135.864	0.075	271728	keystroke_Key.backspace	Key.backspace	n/a
136.808	0.1055	273616	keystroke_t	t	n/a
136.9435	0.105	273887	keystroke_a	a	n/a
137.1085	0.135	274217	keystroke_i	i	n/a
137.3485	0.075	274697	keystroke_n	n	n/a
137.4985	0.12	274997	keystroke_i	i	n/a
137.6335	0.105	275267	keystroke_n	n	n/a
137.7985	0.09	275597	keystroke_g	g	n/a
138.0535	0.105	276107	keystroke_Key.space	Key.space	n/a
138.383	0.105	276766	keystroke_a	a	n/a
138.578	0.06	277156	keystroke_p	p	n/a
138.743	0.045	277486	keystroke_p	p	n/a
138.848	0.135	277696	keystroke_a	a	n/a
139.073	0.12	278146	keystroke_r	r	n/a
139.178	0.09	278356	keystroke_e	e	n/a
139.328	0.105	278656	keystroke_l	l	n/a
139.5385	0.0895	279077	keystroke_Key.space	Key.space	n/a
139.8685	0.105	279737	keystroke_f	f	n/a
140.0035	0.09	280007	keystroke_i	i	n/a
140.1235	0.075	280247	keystroke_t	t	n/a
140.3185	0.06	280637	keystroke_n	n	n/a
140.4535	0.09	280907	keystroke_e	e	n/a
140.5885	0.105	281177	keystroke_s	s	n/a
140.7985	0.045	281597	keystroke_s	s	n/a
140.9485	0.105	281897	keystroke_Key.space	Key.space	n/a
141.2185	0.045	282437	keystroke_a	a	n/a
141.6385	0.09	283277	keystroke_Key.backspace	Key.backspace	n/a
142.2985	0.06	284597	keystroke_j	j	n/a
142.448	0.075	284896	keystroke_e	e	n/a
142.6135	0.075	285227	keystroke_s	s	n/a
142.7635	0.0895	285527	keystroke_s	s	n/a
142.928	0.105	285856	keystroke_i	i	n/a
143.093	0.105	286186	keystroke_c	c	n/a
143.318	0.075	286636	keystroke_a	a	n/a
143.483	0.075	286966	keystroke_Key.enter	Key.enter	n/a
143.563	7.992	287126	prompt	n/a	interactive pattern ain't rebates\n
144.128	0.135	288256	keystroke_i	i	n/a
144.248	0.09	288496	keystroke_n	n	n/a
144.594	0.074	289188	keystroke_t	t	n/a
144.878	0.15	289756	keystroke_e	e	n/a
145.029	0.104	290058	keystroke_r	r	n/a
145.193	0.1205	290386	keystroke_a	a	n/a
145.4785	0.09	290957	keystroke_c	c	n/a
145.6735	0.075	291347	keystroke_t	t	n/a
145.8085	0.0895	291617	keystroke_i	i	n/a
145.973	0.105	291946	keystroke_v	v	n/a
146.093	0.09	292186	keystroke_e	e	n/a
146.378	0.09	292756	keystroke_Key.space	Key.space	n/a
146.8885	0.075	293777	keystroke_p	p	n/a
146.9785	0.075	293957	keystroke_a	a	n/a
147.1885	0.06	294377	keystroke_t	t	n/a
147.3235	0.09	294647	keystroke_t	t	n/a
147.4735	0.12	294947	keystroke_e	e	n/a
147.5635	0.105	295127	keystroke_r	r	n/a
148.133	0.075	296266	keystroke_n	n	n/a
148.343	0.1045	296686	keystroke_Key.space	Key.space	n/a
148.5835	0.09	297167	keystroke_a	a	n/a
148.7035	0.09	297407	keystroke_i	i	n/a
148.9435	0.075	297887	keystroke_n	n	n/a
149.2285	0.06	298457	keystroke_'	'	n/a
149.4385	0.045	298877	keystroke_t	t	n/a
149.5885	0.09	299177	keystroke_Key.space	Key.space	n/a
150.0685	0.15	300137	keystroke_r	r	n/a
150.2035	0.105	300407	keystroke_e	e	n/a
150.3835	0.075	300767	keystroke_b	b	n/a
150.5335	0.12	301067	keystroke_a	a	n/a
150.758	0.09	301516	keystroke_t	t	n/a
150.833	0.09	301666	keystroke_e	e	n/a
151.178	0.06	302356	keystroke_s	s	n/a
151.463	0.09	302926	keystroke_Key.enter	Key.enter	n/a
151.56	7.54	303120	prompt	n/a	yoga dolls adware thank\n
152.378	0.12	304756	keystroke_y	y	n/a
152.603	0.075	305206	keystroke_o	o	n/a
152.858	0.06	305716	keystroke_g	g	n/a
153.0235	0.1045	306047	keystroke_a	a	n/a
153.278	0.105	306556	keystroke_Key.space	Key.space	n/a
153.7885	0.09	307577	keystroke_d	d	n/a
153.8935	0.075	307787	keystroke_o	o	n/a
154.1035	0.045	308207	keystroke_l	l	n/a
154.3285	0.075	308657	keystroke_l	l	n/a
154.793	0.075	309586	keystroke_s	s	n/a
155.018	0.09	310036	keystroke_Key.space	Key.space	n/a
155.228	0.105	310456	keystroke_a	a	n/a
155.393	0.135	310786	keystroke_d	d	n/a
155.873	0.105	311746	keystroke_w	w	n/a
156.068	0.075	312136	keystroke_a	a	n/a
156.233	0.15	312466	keystroke_r	r	n/a
156.353	0.09	312706	keystroke_e	e	n/a
156.563	0.09	313126	keystroke_Key.space	Key.space	n/a
156.9535	0.09	313907	keystroke_t	t	n/a
157.0885	0.09	314177	keystroke_h	h	n/a
157.1935	0.12	314387	keystroke_a	a	n/a
157.3135	0.12	314627	keystroke_n	n	n/a
157.5385	0.09	315077	keystroke_k	k	n/a
159.053	0.045	318106	keystroke_Key.enter	Key.enter	n/a
159.103	9.552	318206	prompt	n/a	maternity condition financing inform\n
160.1935	0.1045	320387	keystroke_m	m	n/a
160.313	0.135	320626	keystroke_a	a	n/a
160.568	0.135	321136	keystroke_t	t	n/a
160.733	0.12	321466	keystroke_e	e	n/a
160.838	0.075	321676	keystroke_r	r	n/a
160.898	0.105	321796	keystroke_n	n	n/a
161.123	0.075	322246	keystroke_i	i	n/a
161.318	0.09	322636	keystroke_t	t	n/a
161.483	0.0905	322966	keystroke_y	y	n/a
161.678	0.105	323356	keystroke_Key.space	Key.space	n/a
161.9485	0.105	323897	keystroke_c	c	n/a
162.0235	0.09	324047	keystroke_o	o	n/a
162.2035	0.1055	324407	keystroke_n	n	n/a
162.413	0.0605	324826	keystroke_i	i	n/a
162.593	0.075	325186	keystroke_d	d	n/a
162.863	0.075	325726	keystroke_Key.backspace	Key.backspace	n/a
163.0435	0.06	326087	keystroke_Key.backspace	Key.backspace	n/a
163.2085	0.09	326417	keystroke_d	d	n/a
163.3135	0.12	326627	keystroke_i	i	n/a
163.5085	0.075	327017	keystroke_t	t	n/a
163.6435	0.135	327287	keystroke_i	i	n/a
163.7635	0.0595	327527	keystroke_o	o	n/a
164.018	0.09	328036	keystroke_n	n	n/a
164.168	0.09	328336	keystroke_Key.space	Key.space	n/a
164.5285	0.09	329057	keystroke_f	f	n/a
164.6485	0.12	329297	keystroke_i	i	n/a
164.7235	0.12	329447	keystroke_n	n	n/a
164.8735	0.12	329747	keystroke_a	a	n/a
165.0235	0.09	330047	keystroke_n	n	n/a
165.1885	0.09	330377	keystroke_c	c	n/a
165.5185	0.135	331037	keystroke_i	i	n/a
165.6685	0.105	331337	keystroke_n	n	n/a
165.7885	0.105	331577	keystroke_g	g	n/a
165.9835	0.06	331967	keystroke_Key.space	Key.space	n/a
166.5685	0.06	333137	keystroke_a	a	n/a
167.033	0.06	334066	keystroke_Key.backspace	Key.backspace	n/a
167.318	0.15	334636	keystroke_i	i	n/a
167.423	0.09	334846	keystroke_n	n	n/a
167.528	0.135	335056	keystroke_f	f	n/a
167.738	0.09	335476	keystroke_o	o	n/a
167.918	0.075	335836	keystroke_r	r	n/a
168.218	0.09	336436	keystroke_m	m	n/a
168.593	0.06	337186	keystroke_Key.enter	Key.enter	n/a
168.6575	10.7075	337315	prompt	n/a	authors inventory quiet miracle\n
169.193	0.12	338386	keystroke_a	a	n/a
169.463	0.075	338926	keystroke_y	y	n/a
169.553	0.06	339106	keystroke_t	t	n/a
169.673	0.075	339346	keystroke_h	h	n/a
170.274	0.06	340548	keystroke_Key.backspace	Key.backspace	n/a
170.468	0.076	340936	keystroke_Key.backspace	Key.backspace	n/a
170.889	0.06	341778	keystroke_Key.backspace	Key.backspace	n/a
171.7285	0.06	343457	keystroke_u	u	n/a
171.8485	0.06	343697	keystroke_t	t	n/a
171.9385	0.06	343877	keystroke_h	h	n/a
172.1185	0.06	344237	keystroke_o	o	n/a
172.2385	0.09	344477	keystroke_r	r	n/a
172.4035	0.1045	344807	keystroke_s	s	n/a
172.523	0.1055	345046	keystroke_Key.space	Key.space	n/a
172.6735	0.165	345347	keystroke_i	i	n/a
172.7935	0.105	345587	keystroke_n	n	n/a
172.9135	0.12	345827	keystroke_v	v	n/a
173.049	0.09	346098	keystroke_e	e	n/a
173.169	0.105	346338	keystroke_n	n	n/a
173.304	0.09	346608	keystroke_t	t	n/a
173.439	0.135	346878	keystroke_o	o	n/a
173.604	0.104	347208	keystroke_r	r	n/a
173.799	0.089	347598	keystroke_y	y	n/a
174.009	0.0895	348018	keystroke_Key.space	Key.space	n/a
174.518	0.03	349036	keystroke_a	a	n/a
174.938	0.075	349876	keystroke_Key.backspace	Key.backspace	n/a
175.103	0.09	350206	keystroke_q	q	n/a
175.253	0.0905	350506	keystroke_u	u	n/a
175.4635	0.09	350927	keystroke_i	i	n/a
175.6285	0.135	351257	keystroke_e	e	n/a
175.7785	0.075	351557	keystroke_r	r	n/a
176.3485	0.0745	352697	keystroke_Key.backspace	Key.backspace	n/a
176.454	0.105	352908	keystroke_t	t	n/a
176.723	0.105	353446	keystroke_Key.space	Key.space	n/a
177.024	0.105	354048	keystroke_m	m	n/a
177.204	0.074	354408	keystroke_i	i	n/a
177.308	0.1055	354616	keystroke_r	r	n/a
178.1635	0.09	356327	keystroke_a	a	n/a
178.7635	0.075	357527	keystroke_c	c	n/a
178.9435	0.075	357887	keystroke_l	l	n/a
179.0785	0.09	358157	keystroke_e	e	n/a
179.2885	0.075	358577	keystroke_Key.enter	Key.enter	n/a
179.368	9.192	358736	prompt	n/a	particularly anytime poland reasonable\n
179.993	0.075	359986	keystroke_p	p	n/a
180.158	0.12	360316	keystroke_a	a	n/a
180.338	0.1055	360676	keystroke_r	r	n/a
180.5035	0.105	361007	keystroke_t	t	n/a
180.6385	0.105	361277	keystroke_i	i	n/a
180.7885	0.075	361577	keystroke_c	c	n/a
180.9235	0.075	361847	keystroke_u	u	n/a
181.1185	0.09	362237	keystroke_l	l	n/a
181.2535	0.1195	362507	keystroke_a	a	n/a
181.418	0.105	362836	keystroke_r	r	n/a
181.613	0.106	363226	keystroke_l	l	n/a
181.913	0.09	363826	keystroke_y	y	n/a
182.138	0.09	364276	keystroke_Key.space	Key.space	n/a
182.393	0.12	364786	keystroke_a	a	n/a
182.528	0.0905	365056	keystroke_n	n	n/a
182.7535	0.09	365507	keystroke_y	y	n/a
182.8585	0.09	365717	keystroke_t	t	n/a
183.2485	0.075	366497	keystroke_i	i	n/a
183.533	0.09	367066	keystroke_m	m	n/a
183.668	0.09	367336	keystroke_e	e	n/a
183.863	0.03	367726	keystroke_Key.space	Key.space	n/a
184.5685	0.06	369137	keystroke_p	p	n/a
184.7935	0.0605	369587	keystroke_o	o	n/a
184.974	0.075	369948	keystroke_l	l	n/a
185.169	0.09	370338	keystroke_a	a	n/a
185.319	0.075	370638	keystroke_n	n	n/a
185.499	0.075	370998	keystroke_d	d	n/a
185.589	0.0745	371178	keystroke_Key.space	Key.space	n/a
185.8585	0.045	371717	keystroke_r	r	n/a
186.0235	0.105	372047	keystroke_e	e	n/a
186.1885	0.15	372377	keystroke_a	a	n/a
186.3235	0.1045	372647	keystroke_s	s	n/a
186.444	0.135	372888	keystroke_o	o	n/a
186.548	0.105	373096	keystroke_n	n	n/a
186.699	0.134	373398	keystroke_a	a	n/a
186.848	0.075	373696	keystroke_b	b	n/a
187.779	0.09	375558	keystroke_l	l	n/a
187.929	0.0745	375858	keystroke_e	e	n/a
188.4835	0.075	376967	keystroke_Key.enter	Key.enter	n/a
188.563	7.287	377126	prompt	n/a	carried natural relatively delta\n
189.4735	0.105	378947	keystroke_c	c	n/a
189.5935	0.15	379187	keystroke_a	a	n/a
189.7735	0.06	379547	keystroke_r	r	n/a
189.9085	0.09	379817	keystroke_r	r	n/a
190.0735	0.075	380147	keystroke_i	i	n/a
190.1785	0.0745	380357	keystroke_e	e	n/a
190.343	0.106	380686	keystroke_d	d	n/a
190.479	0.089	380958	keystroke_Key.space	Key.space	n/a
190.704	0.09	381408	keystroke_n	n	n/a
190.809	0.09	381618	keystroke_a	a	n/a
190.974	0.09	381948	keystroke_t	t	n/a
191.124	0.09	382248	keystroke_u	u	n/a
191.214	0.105	382428	keystroke_r	r	n/a
191.349	0.09	382698	keystroke_a	a	n/a
191.454	0.105	382908	keystroke_l	l	n/a
191.574	0.119	383148	keystroke_Key.space	Key.space	n/a
191.768	0.12	383536	keystroke_r	r	n/a
191.873	0.121	383746	keystroke_e	e	n/a
192.069	0.105	384138	keystroke_l	l	n/a
192.204	0.12	384408	keystroke_a	a	n/a
192.503	0.091	385006	keystroke_i	i	n/a
192.938	0.076	385876	keystroke_Key.backspace	Key.backspace	n/a
193.089	0.1195	386178	keystroke_t	t	n/a
193.2835	0.105	386567	keystroke_i	i	n/a
193.4785	0.12	386957	keystroke_v	v	n/a
193.5835	0.105	387167	keystroke_e	e	n/a
193.7185	0.105	387437	keystroke_l	l	n/a
193.9585	0.091	387917	keystroke_y	y	n/a
194.1235	0.09	388247	keystroke_Key.space	Key.space	n/a
194.3635	0.12	388727	keystroke_d	d	n/a
194.4535	0.135	388907	keystroke_e	e	n/a
194.6335	0.075	389267	keystroke_l	l	n/a
194.7835	0.135	389567	keystroke_a	a	n/a
195.3235	0.045	390647	keystroke_Key.backspace	Key.backspace	n/a
195.4135	0.15	390827	keystroke_t	t	n/a
195.5485	0.135	391097	keystroke_a	a	n/a
195.7585	0.09	391517	keystroke_Key.enter	Key.enter	n/a
195.853	6.147	391706	prompt	n/a	current grocery adam clark\n
196.7185	0.09	393437	keystroke_c	c	n/a
196.8385	0.075	393677	keystroke_u	u	n/a
197.138	0.075	394276	keystroke_r	r	n/a
197.288	0.136	394576	keystroke_r	r	n/a
197.408	0.135	394816	keystroke_e	e	n/a
197.573	0.105	395146	keystroke_n	n	n/a
197.679	0.104	395358	keystroke_t	t	n/a
197.828	0.105	395656	keystroke_Key.space	Key.space	n/a
198.113	0.105	396226	keystroke_g	g	n/a
198.338	0.0905	396676	keystroke_r	r	n/a
198.4735	0.09	396947	keystroke_o	o	n/a
198.8185	0.105	397637	keystroke_c	c	n/a
199.0435	0.09	398087	keystroke_e	e	n/a
199.2385	0.09	398477	keystroke_r	r	n/a
199.4185	0.075	398837	keystroke_y	y	n/a
199.5685	0.0895	399137	keystroke_Key.space	Key.space	n/a
199.674	0.119	399348	keystroke_a	a	n/a
199.824	0.089	399648	keystroke_d	d	n/a
199.959	0.119	399918	keystroke_a	a	n/a
200.123	0.09	400246	keystroke_m	m	n/a
200.273	0.105	400546	keystroke_Key.space	Key.space	n/a
200.4385	0.09	400877	keystroke_a	a	n/a
200.7535	0.075	401507	keystroke_Key.backspace	Key.backspace	n/a
200.8885	0.09	401777	keystroke_c	c	n/a
201.0685	0.075	402137	keystroke_l	l	n/a
201.1735	0.105	402347	keystroke_a	a	n/a
201.489	0.1195	402978	keystroke_r	r	n/a
201.6835	0.105	403367	keystroke_k	k	n/a
201.9235	0.075	403847	keystroke_Key.enter	Key.enter	n/a
202.003	8.9975	404006	prompt	n/a	management toyota strap rewards\n
202.6135	0.075	405227	keystroke_m	m	n/a
202.8085	0.105	405617	keystroke_a	a	n/a
202.9285	0.075	405857	keystroke_n	n	n/a
202.9885	0.12	405977	keystroke_a	a	n/a
203.3335	0.09	406667	keystroke_g	g	n/a
203.648	0.12	407296	keystroke_e	e	n/a
204.0235	0.09	408047	keystroke_m	m	n/a
204.1735	0.09	408347	keystroke_e	e	n/a
204.3085	0.105	408617	keystroke_n	n	n/a
204.4585	0.105	408917	keystroke_t	t	n/a
204.6385	0.105	409277	keystroke_Key.space	Key.space	n/a
205.4935	0.075	410987	keystroke_t	t	n/a
205.5695	0.014	411139	keystroke_o	o	n/a
205.7035	0.075	411407	keystroke_y	y	n/a
206.2285	0.06	412457	keystroke_o	o	n/a
206.3335	0.09	412667	keystroke_t	t	n/a
206.5885	0.1655	413177	keystroke_a	a	n/a
207.309	0.134	414618	keystroke_Key.space	Key.space	n/a
207.669	0.075	415338	keystroke_s	s	n/a
207.834	0.09	415668	keystroke_t	t	n/a
208.0285	0.105	416057	keystroke_r	r	n/a
208.1185	0.12	416237	keystroke_a	a	n/a
208.3135	0.1205	416627	keystroke_p	p	n/a
208.479	0.104	416958	keystroke_Key.space	Key.space	n/a
208.809	0.09	417618	keystroke_r	r	n/a
208.989	0.1195	417978	keystroke_e	e	n/a
209.1835	0.06	418367	keystroke_q	q	n/a
209.7085	0.09	419417	keystroke_Key.backspace	Key.backspace	n/a
209.8285	0.105	419657	keystroke_w	w	n/a
210.099	0.1345	420198	keystroke_a	a	n/a
210.3685	0.075	420737	keystroke_r	r	n/a
210.5785	0.135	421157	keystroke_d	d	n/a
210.7285	0.105	421457	keystroke_s	s	n/a
210.8935	0.105	421787	keystroke_Key.enter	Key.enter	n/a
211.003	6.372	422006	prompt	n/a	meters brooks texts schools\n
211.6435	0.105	423287	keystroke_m	m	n/a
211.9735	0.135	423947	keystroke_e	e	n/a
212.1235	0.09	424247	keystroke_t	t	n/a
212.2585	0.1955	424517	keystroke_e	e	n/a
212.439	0.15	424878	keystroke_r	r	n/a
212.784	0.105	425568	keystroke_s	s	n/a
212.994	0.09	425988	keystroke_Key.space	Key.space	n/a
213.279	0.0895	426558	keystroke_b	b	n/a
213.4735	0.09	426947	keystroke_r	r	n/a
213.6385	0.06	427277	keystroke_o	o	n/a
213.7585	0.12	427517	keystroke_o	o	n/a
213.8935	0.12	427787	keystroke_k	k	n/a
214.2685	0.075	428537	keystroke_s	s	n/a
214.448	0.075	428896	keystroke_Key.space	Key.space	n/a
214.733	0.075	429466	keystroke_t	t	n/a
214.973	0.09	429946	keystroke_e	e	n/a
215.243	0.075	430486	keystroke_x	x	n/a
215.424	0.074	430848	keystroke_t	t	n/a
215.6035	0.0895	431207	keystroke_s	s	n/a
215.783	0.075	431566	keystroke_Key.space	Key.space	n/a
216.1735	0.09	432347	keystroke_s	s	n/a
216.3685	0.09	432737	keystroke_c	c	n/a
216.473	0.075	432946	keystroke_h	h	n/a
216.684	0.059	433368	keystroke_o	o	n/a
216.818	0.075	433636	keystroke_o	o	n/a
217.0135	0.0605	434027	keystroke_l	l	n/a
217.1635	0.0755	434327	keystroke_s	s	n/a
217.298	0.0755	434596	keystroke_Key.enter	Key.enter	n/a
217.378	11.292	434756	prompt	n/a	waterproof philosophy grove human\n
218.199	0.135	436398	keystroke_w	w	n/a
218.484	0.135	436968	keystroke_a	a	n/a
218.739	0.105	437478	keystroke_t	t	n/a
218.859	0.12	437718	keystroke_e	e	n/a
218.963	0.09	437926	keystroke_r	r	n/a
219.983	0.076	439966	keystroke_p	p	n/a
220.4335	0.06	440867	keystroke_r	r	n/a
220.5985	0.06	441197	keystroke_o	o	n/a
220.7335	0.075	441467	keystroke_o	o	n/a
220.9735	0.09	441947	keystroke_f	f	n/a
221.3785	0.09	442757	keystroke_Key.space	Key.space	n/a
221.829	0.105	443658	keystroke_p	p	n/a
222.114	0.075	444228	keystroke_h	h	n/a
222.309	0.06	444618	keystroke_i	i	n/a
222.519	0.075	445038	keystroke_l	l	n/a
222.759	0.075	445518	keystroke_o	o	n/a
222.969	0.0895	445938	keystroke_s	s	n/a
223.1335	0.075	446267	keystroke_o	o	n/a
223.8685	0.105	447737	keystroke_p	p	n/a
224.1385	0.075	448277	keystroke_h	h	n/a
224.3335	0.0605	448667	keystroke_y	y	n/a
224.469	0.105	448938	keystroke_Key.space	Key.space	n/a
224.949	0.135	449898	keystroke_f	f	n/a
225.429	0.06	450858	keystroke_Key.backspace	Key.backspace	n/a
225.519	0.0895	451038	keystroke_g	g	n/a
225.729	0.075	451458	keystroke_r	r	n/a
226.029	0.09	452058	keystroke_o	o	n/a
226.3285	0.1355	452657	keystroke_v	v	n/a
226.479	0.12	452958	keystroke_e	e	n/a
226.644	0.105	453288	keystroke_Key.space	Key.space	n/a
226.944	0.09	453888	keystroke_h	h	n/a
227.889	0.06	455778	keystroke_u	u	n/a
228.099	0.06	456198	keystroke_m	m	n/a
228.219	0.104	456438	keystroke_a	a	n/a
228.339	0.059	456678	keystroke_n	n	n/a
228.6085	0.06	457217	keystroke_Key.enter	Key.enter	n/a
228.673	7.2425	457346	prompt	n/a	good iowa warranties providing\n
229.6285	0.075	459257	keystroke_g	g	n/a
229.869	0.045	459738	keystroke_o	o	n/a
230.004	0.06	460008	keystroke_o	o	n/a
230.124	0.045	460248	keystroke_d	d	n/a
230.229	0.06	460458	keystroke_Key.space	Key.space	n/a
230.3935	0.09	460787	keystroke_i	i	n/a
230.6485	0.09	461297	keystroke_o	o	n/a
230.9935	0.135	461987	keystroke_w	w	n/a
231.1135	0.1355	462227	keystroke_a	a	n/a
231.714	0.1045	463428	keystroke_Key.space	Key.space	n/a
232.0135	0.09	464027	keystroke_w	w	n/a
232.1185	0.12	464237	keystroke_a	a	n/a
232.3135	0.075	464627	keystroke_r	r	n/a
232.464	0.0895	464928	keystroke_r	r	n/a
232.6135	0.105	465227	keystroke_a	a	n/a
232.7635	0.105	465527	keystroke_n	n	n/a
232.9135	0.105	465827	keystroke_t	t	n/a
233.1085	0.0745	466217	keystroke_i	i	n/a
233.213	0.105	466426	keystroke_e	e	n/a
233.424	0.119	466848	keystroke_s	s	n/a
233.648	0.075	467296	keystroke_Key.space	Key.space	n/a
234.084	0.0595	468168	keystroke_p	p	n/a
234.2335	0.09	468467	keystroke_r	r	n/a
234.3985	0.0755	468797	keystroke_o	o	n/a
234.699	0.09	469398	keystroke_v	v	n/a
234.939	0.09	469878	keystroke_i	i	n/a
235.239	0.1195	470478	keystroke_d	d	n/a
235.3735	0.135	470747	keystroke_i	i	n/a
235.4785	0.12	470957	keystroke_n	n	n/a
235.6135	0.09	471227	keystroke_g	g	n/a
235.8235	0.09	471647	keystroke_Key.enter	Key.enter	n/a
235.92	6.46	471840	prompt	n/a	editorial bookings plots part\n
236.574	0.105	473148	keystroke_e	e	n/a
236.859	0.105	473718	keystroke_d	d	n/a
236.994	0.105	473988	keystroke_i	i	n/a
237.129	0.075	474258	keystroke_t	t	n/a
237.294	0.075	474588	keystroke_o	o	n/a
237.429	0.09	474858	keystroke_r	r	n/a
237.549	0.0895	475098	keystroke_i	i	n/a
237.6685	0.12	475337	keystroke_a	a	n/a
237.8785	0.075	475757	keystroke_l	l	n/a
238.0285	0.0905	476057	keystroke_Key.space	Key.space	n/a
238.254	0.075	476508	keystroke_b	b	n/a
238.464	0.06	476928	keystroke_o	o	n/a
238.584	0.075	477168	keystroke_o	o	n/a
238.794	0.075	477588	keystroke_k	k	n/a
238.989	0.09	477978	keystroke_i	i	n/a
239.124	0.105	478248	keystroke_n	n	n/a
239.244	0.075	478488	keystroke_g	g	n/a
239.4235	0.09	478847	keystroke_s	s	n/a
239.5885	0.09	479177	keystroke_Key.space	Key.space	n/a
239.8435	0.045	479687	keystroke_p	p	n/a
240.0385	0.0455	480077	keystroke_l	l	n/a
240.1885	0.075	480377	keystroke_o	o	n/a
240.3385	0.135	480677	keystroke_t	t	n/a
240.4885	0.12	480977	keystroke_s	s	n/a
240.7285	0.075	481457	keystroke_Key.space	Key.space	n/a
240.9535	0.06	481907	keystroke_p	p	n/a
241.0585	0.12	482117	keystroke_a	a	n/a
241.2235	0.09	482447	keystroke_r	r	n/a
241.4185	0.09	482837	keystroke_t	t	n/a
241.5535	0.09	483107	keystroke_s	s	n/a
242.0485	0.075	484097	keystroke_Key.backspace	Key.backspace	n/a
242.304	0.074	484608	keystroke_Key.enter	Key.enter	n/a
242.383	8.8475	484766	prompt	n/a	polo ended snowboard replaced\n
243.039	0.06	486078	keystroke_p	p	n/a
243.924	0.075	487848	keystroke_o	o	n/a
244.089	0.075	488178	keystroke_l	l	n/a
244.269	0.06	488538	keystroke_o	o	n/a
244.629	0.045	489258	keystroke_Key.space	Key.space	n/a
244.824	0.075	489648	keystroke_e	e	n/a
244.944	0.075	489888	keystroke_n	n	n/a
245.064	0.09	490128	keystroke_d	d	n/a
245.274	0.06	490548	keystroke_e	e	n/a
245.424	0.09	490848	keystroke_d	d	n/a
245.544	0.09	491088	keystroke_Key.space	Key.space	n/a
245.979	0.045	491958	keystroke_w	w	n/a
246.3235	0.06	492647	keystroke_Key.backspace	Key.backspace	n/a
246.4445	0.104	492889	keystroke_s	s	n/a
246.6235	0.06	493247	keystroke_n	n	n/a
246.8035	0.046	493607	keystroke_o	o	n/a
246.9535	0.09	493907	keystroke_w	w	n/a
247.509	0.09	495018	keystroke_b	b	n/a
248.079	0.075	496158	keystroke_o	o	n/a
248.259	0.09	496518	keystroke_a	a	n/a
248.394	0.075	496788	keystroke_r	r	n/a
248.589	0.075	497178	keystroke_d	d	n/a
248.694	0.105	497388	keystroke_Key.space	Key.space	n/a
248.949	0.12	497898	keystroke_r	r	n/a
249.039	0.12	498078	keystroke_e	e	n/a
249.189	0.12	498378	keystroke_p	p	n/a
249.444	0.075	498888	keystroke_l	l	n/a
249.549	0.12	499098	keystroke_a	a	n/a
249.909	0.135	499818	keystroke_v	v	n/a
250.074	0.12	500148	keystroke_e	e	n/a
250.419	0.06	500838	keystroke_Key.backspace	Key.backspace	n/a
250.584	0.06	501168	keystroke_Key.backspace	Key.backspace	n/a
250.659	0.105	501318	keystroke_c	c	n/a
250.734	0.105	501468	keystroke_e	e	n/a
250.959	0.0895	501918	keystroke_d	d	n/a
251.1535	0.075	502307	keystroke_Key.enter	Key.enter	n/a
251.2335	12.972	502467	prompt	n/a	drilling nightmare domains ability\n
252.0835	0.075	504167	keystroke_d	d	n/a
252.2485	0.075	504497	keystroke_r	r	n/a
252.3985	0.075	504797	keystroke_i	i	n/a
253.178	0.045	506356	keystroke_Key.backspace	Key.backspace	n/a
255.0235	0.06	510047	keystroke_i	i	n/a
255.2785	0.06	510557	keystroke_l	l	n/a
255.3985	0.075	510797	keystroke_l	l	n/a
255.6085	0.135	511217	keystroke_i	i	n/a
255.7285	0.105	511457	keystroke_n	n	n/a
255.8485	0.09	511697	keystroke_g	g	n/a
255.9685	0.075	511937	keystroke_Key.space	Key.space	n/a
256.0885	0.105	512177	keystroke_n	n	n/a
256.2535	0.0905	512507	keystroke_i	i	n/a
256.344	0.12	512688	keystroke_g	g	n/a
256.494	0.09	512988	keystroke_h	h	n/a
256.614	0.105	513228	keystroke_t	t	n/a
257.034	0.12	514068	keystroke_m	m	n/a
257.169	0.12	514338	keystroke_a	a	n/a
257.334	0.15	514668	keystroke_r	r	n/a
257.469	0.09	514938	keystroke_e	e	n/a
257.604	0.105	515208	keystroke_Key.space	Key.space	n/a
257.859	0.105	515718	keystroke_d	d	n/a
257.979	0.105	515958	keystroke_o	o	n/a
258.069	0.12	516138	keystroke_m	m	n/a
258.234	0.1045	516468	keystroke_a	a	n/a
258.3685	0.165	516737	keystroke_i	i	n/a
258.4735	0.12	516947	keystroke_n	n	n/a
258.6235	0.12	517247	keystroke_s	s	n/a
258.7885	0.09	517577	keystroke_Key.space	Key.space	n/a
258.9985	0.12	517997	keystroke_a	a	n/a
259.1335	0.09	518267	keystroke_b	b	n/a
259.3435	0.045	518687	keystroke_i	i	n/a
260.634	0.075	521268	keystroke_l	l	n/a
260.814	0.075	521628	keystroke_i	i	n/a
261.009	0.03	522018	keystroke_t	t	n/a
261.054	0.03	522108	keystroke_i	i	n/a
261.9085	0.105	523817	keystroke_Key.backspace	Key.backspace	n/a
262.1785	0.06	524357	keystroke_t	t	n/a
262.644	0.12	525288	keystroke_Key.backspace	Key.backspace	n/a
262.884	0.105	525768	keystroke_y	y	n/a
263.169	0.105	526338	keystroke_Key.space	Key.space	n/a
263.829	0.0595	527658	keystroke_Key.backspace	Key.backspace	n/a
264.1435	0.06	528287	keystroke_Key.enter	Key.enter	n/a
264.2085	7.932	528417	prompt	n/a	arcade means aviation achievements\n
264.804	0.12	529608	keystroke_a	a	n/a
265.119	0.09	530238	keystroke_r	r	n/a
265.3435	0.105	530687	keystroke_c	c	n/a
265.4935	0.1505	530987	keystroke_a	a	n/a
265.6885	0.195	531377	keystroke_d	d	n/a
265.8535	0.105	531707	keystroke_e	e	n/a
265.9885	0.09	531977	keystroke_Key.space	Key.space	n/a
266.1985	0.09	532397	keystroke_m	m	n/a
266.3185	0.1205	532637	keystroke_e	e	n/a
266.3935	0.1655	532787	keystroke_a	a	n/a
266.574	0.105	533148	keystroke_n	n	n/a
266.739	0.09	533478	keystroke_s	s	n/a
266.859	0.06	533718	keystroke_Key.space	Key.space	n/a
266.964	0.105	533928	keystroke_a	a	n/a
267.204	0.1045	534408	keystroke_v	v	n/a
267.369	0.105	534738	keystroke_i	i	n/a
267.489	0.12	534978	keystroke_a	a	n/a
267.729	0.075	535458	keystroke_t	t	n/a
267.849	0.135	535698	keystroke_i	i	n/a
267.954	0.06	535908	keystroke_o	o	n/a
268.179	0.135	536358	keystroke_n	n	n/a
268.329	0.09	536658	keystroke_Key.space	Key.space	n/a
268.449	0.12	536898	keystroke_a	a	n/a
268.599	0.06	537198	keystroke_a	a	n/a
268.794	0.09	537588	keystroke_c	c	n/a
268.899	0.105	537798	keystroke_h	h	n/a
269.109	0.06	538218	keystroke_e	e	n/a
269.7985	0.075	539597	keystroke_Key.backspace	Key.backspace	n/a
270.0685	0.105	540137	keystroke_i	i	n/a
270.2035	0.12	540407	keystroke_e	e	n/a
270.5785	0.09	541157	keystroke_v	v	n/a
270.699	0.105	541398	keystroke_e	e	n/a
271.074	0.06	542148	keystroke_m	m	n/a
271.375	0.119	542750	keystroke_e	e	n/a
271.524	0.105	543048	keystroke_n	n	n/a
271.674	0.09	543348	keystroke_t	t	n/a
271.884	0.075	543768	keystroke_s	s	n/a
272.034	0.105	544068	keystroke_Key.enter	Key.enter	n/a
272.1435	7.167	544287	prompt	n/a	mature duck quantity influenced\n
272.8135	0.09	545627	keystroke_m	m	n/a
272.9335	0.12	545867	keystroke_a	a	n/a
273.1135	0.105	546227	keystroke_t	t	n/a
273.2635	0.105	546527	keystroke_u	u	n/a
273.3835	0.12	546767	keystroke_r	r	n/a
273.4885	0.06	546977	keystroke_e	e	n/a
273.5935	0.09	547187	keystroke_Key.space	Key.space	n/a
273.7885	0.06	547577	keystroke_d	d	n/a
273.8935	0.09	547787	keystroke_u	u	n/a
274.0135	0.105	548027	keystroke_c	c	n/a
274.1635	0.1205	548327	keystroke_k	k	n/a
274.299	0.135	548598	keystroke_Key.space	Key.space	n/a
274.464	0.09	548928	keystroke_q	q	n/a
274.644	0.03	549288	keystroke_u	u	n/a
274.7645	0.119	549529	keystroke_a	a	n/a
274.8985	0.105	549797	keystroke_n	n	n/a
275.1235	0.061	550247	keystroke_i	i	n/a
275.2145	0.074	550429	keystroke_t	t	n/a
275.9635	0.075	551927	keystroke_Key.backspace	Key.backspace	n/a
276.0985	0.075	552197	keystroke_Key.backspace	Key.backspace	n/a
276.2035	0.105	552407	keystroke_t	t	n/a
276.3385	0.09	552677	keystroke_i	i	n/a
276.4885	0.09	552977	keystroke_t	t	n/a
276.6685	0.075	553337	keystroke_y	y	n/a
277.0585	0.09	554117	keystroke_Key.space	Key.space	n/a
277.4035	0.1355	554807	keystroke_i	i	n/a
277.5085	0.0905	555017	keystroke_n	n	n/a
277.974	0.09	555948	keystroke_f	f	n/a
278.184	0.06	556368	keystroke_l	l	n/a
278.364	0.0895	556728	keystroke_u	u	n/a
278.4985	0.09	556997	keystroke_e	e	n/a
278.6485	0.09	557297	keystroke_n	n	n/a
278.7535	0.105	557507	keystroke_c	c	n/a
278.8595	0.104	557719	keystroke_e	e	n/a
279.0535	0.105	558107	keystroke_d	d	n/a
279.2335	0.075	558467	keystroke_Key.enter	Key.enter	n/a
279.315	6.9255	558630	prompt	n/a	destroyed labs beginners conduct\n
279.9085	0.12	559817	keystroke_d	d	n/a
280.0135	0.135	560027	keystroke_e	e	n/a
280.2835	0.135	560567	keystroke_s	s	n/a
280.4785	0.105	560957	keystroke_t	t	n/a
280.6585	0.075	561317	keystroke_r	r	n/a
280.7635	0.105	561527	keystroke_o	o	n/a
281.4835	0.06	562967	keystroke_y	y	n/a
281.6035	0.09	563207	keystroke_e	e	n/a
281.7835	0.105	563567	keystroke_d	d	n/a
281.9485	0.105	563897	keystroke_Key.space	Key.space	n/a
282.2035	0.09	564407	keystroke_l	l	n/a
282.3385	0.105	564677	keystroke_a	a	n/a
282.4885	0.09	564977	keystroke_b	b	n/a
282.6385	0.075	565277	keystroke_s	s	n/a
282.7285	0.105	565457	keystroke_Key.space	Key.space	n/a
282.9535	0.09	565907	keystroke_b	b	n/a
283.0285	0.075	566057	keystroke_e	e	n/a
283.3285	0.09	566657	keystroke_g	g	n/a
283.5085	0.15	567017	keystroke_i	i	n/a
283.7185	0.105	567437	keystroke_n	n	n/a
283.9285	0.09	567857	keystroke_n	n	n/a
284.0635	0.105	568127	keystroke_e	e	n/a
284.1535	0.12	568307	keystroke_r	r	n/a
284.319	0.1045	568638	keystroke_s	s	n/a
284.5585	0.09	569117	keystroke_Key.space	Key.space	n/a
284.9935	0.075	569987	keystroke_c	c	n/a
285.0835	0.09	570167	keystroke_o	o	n/a
285.2935	0.09	570587	keystroke_n	n	n/a
285.3985	0.075	570797	keystroke_d	d	n/a
285.5035	0.09	571007	keystroke_u	u	n/a
285.699	0.09	571398	keystroke_c	c	n/a
285.954	0.075	571908	keystroke_t	t	n/a
286.164	0.075	572328	keystroke_Key.enter	Key.enter	n/a
286.244	8.7565	572488	prompt	n/a	museum grammar heating dressing\n
286.9135	0.105	573827	keystroke_m	m	n/a
287.0495	0.075	574099	keystroke_e	e	n/a
287.469	0.06	574938	keystroke_Key.backspace	Key.backspace	n/a
287.724	0.075	575448	keystroke_u	u	n/a
287.859	0.105	575718	keystroke_s	s	n/a
288.219	0.09	576438	keystroke_e	e	n/a
288.474	0.075	576948	keystroke_u	u	n/a
288.774	0.12	577548	keystroke_m	m	n/a
289.014	0.075	578028	keystroke_Key.space	Key.space	n/a
289.524	0.09	579048	keystroke_g	g	n/a
289.7785	0.09	579557	keystroke_r	r	n/a
289.9135	0.105	579827	keystroke_a	a	n/a
290.0485	0.045	580097	keystroke_m	m	n/a
290.1985	0.091	580397	keystroke_m	m	n/a
290.3345	0.0895	580669	keystroke_e	e	n/a
290.439	0.09	580878	keystroke_r	r	n/a
290.589	0.075	581178	keystroke_Key.space	Key.space	n/a
291.279	0.075	582558	keystroke_Key.backspace	Key.backspace	n/a
291.429	0.075	582858	keystroke_Key.backspace	Key.backspace	n/a
291.8185	0.09	583637	keystroke_Key.backspace	Key.backspace	n/a
291.9985	0.105	583997	keystroke_a	a	n/a
292.1185	0.09	584237	keystroke_r	r	n/a
292.2985	0.09	584597	keystroke_Key.space	Key.space	n/a
292.629	0.0895	585258	keystroke_h	h	n/a
292.7785	0.105	585557	keystroke_e	e	n/a
292.839	0.1495	585678	keystroke_a	a	n/a
293.034	0.1195	586068	keystroke_t	t	n/a
293.199	0.18	586398	keystroke_i	i	n/a
293.319	0.1045	586638	keystroke_n	n	n/a
293.409	0.0895	586818	keystroke_g	g	n/a
293.5585	0.105	587117	keystroke_Key.space	Key.space	n/a
293.7685	0.1055	587537	keystroke_d	d	n/a
293.979	0.075	587958	keystroke_r	r	n/a
294.129	0.0745	588258	keystroke_e	e	n/a
294.2635	0.09	588527	keystroke_s	s	n/a
294.414	0.0895	588828	keystroke_s	s	n/a
294.5335	0.15	589067	keystroke_i	i	n/a
294.6385	0.15	589277	keystroke_n	n	n/a
294.7435	0.075	589487	keystroke_g	g	n/a
294.9385	0.06	589877	keystroke_Key.enter	Key.enter	n/a
295.0035	7.422	590007	prompt	n/a	initiated supreme equivalent cruz\n
295.539	0.105	591078	keystroke_i	i	n/a
295.674	0.09	591348	keystroke_n	n	n/a
295.779	0.09	591558	keystroke_i	i	n/a
295.899	0.09	591798	keystroke_t	t	n/a
296.094	0.09	592188	keystroke_i	i	n/a
296.9035	0.12	593807	keystroke_a	a	n/a
297.1135	0.075	594227	keystroke_t	t	n/a
297.2035	0.09	594407	keystroke_e	e	n/a
297.3985	0.0905	594797	keystroke_d	d	n/a
297.519	0.09	595038	keystroke_Key.space	Key.space	n/a
297.669	0.12	595338	keystroke_s	s	n/a
297.804	0.075	595608	keystroke_u	u	n/a
297.999	0.09	595998	keystroke_p	p	n/a
298.149	0.105	596298	keystroke_r	r	n/a
298.209	0.135	596418	keystroke_e	e	n/a
298.449	0.06	596898	keystroke_m	m	n/a
298.614	0.09	597228	keystroke_e	e	n/a
298.794	0.075	597588	keystroke_Key.space	Key.space	n/a
299.394	0.15	598788	keystroke_e	e	n/a
299.514	0.105	599028	keystroke_q	q	n/a
299.739	0.12	599478	keystroke_u	u	n/a
299.979	0.105	599958	keystroke_i	i	n/a
300.159	0.135	600318	keystroke_v	v	n/a
300.594	0.105	601188	keystroke_a	a	n/a
300.729	0.075	601458	keystroke_l	l	n/a
300.879	0.09	601758	keystroke_e	e	n/a
301.014	0.075	602028	keystroke_n	n	n/a
301.149	0.09	602298	keystroke_t	t	n/a
301.284	0.09	602568	keystroke_Key.space	Key.space	n/a
301.554	0.09	603108	keystroke_c	c	n/a
301.749	0.075	603498	keystroke_r	r	n/a
301.869	0.105	603738	keystroke_u	u	n/a
302.109	0.075	604218	keystroke_z	z	n/a
302.349	0.075	604698	keystroke_Key.enter	Key.enter	n/a
302.4285	4.9325	604857	prompt	n/a	plays moon probably court\n
303.774	0.105	607548	keystroke_p	p	n/a
303.804	0.12	607608	keystroke_l	l	n/a
303.954	0.12	607908	keystroke_a	a	n/a
304.134	0.075	608268	keystroke_y	y	n/a
304.254	0.105	608508	keystroke_s	s	n/a
304.344	0.12	608688	keystroke_Key.space	Key.space	n/a
304.509	0.105	609018	keystroke_m	m	n/a
304.719	0.06	609438	keystroke_o	o	n/a
304.839	0.075	609678	keystroke_o	o	n/a
305.049	0.1045	610098	keystroke_n	n	n/a
305.1985	0.075	610397	keystroke_Key.space	Key.space	n/a
305.3335	0.09	610667	keystroke_p	p	n/a
305.4535	0.075	610907	keystroke_r	r	n/a
305.5735	0.075	611147	keystroke_o	o	n/a
305.7835	0.0755	611567	keystroke_b	b	n/a
305.9035	0.1055	611807	keystroke_a	a	n/a
305.9785	0.105	611957	keystroke_b	b	n/a
306.1895	0.09	612379	keystroke_l	l	n/a
306.414	0.06	612828	keystroke_y	y	n/a
306.549	0.075	613098	keystroke_Key.space	Key.space	n/a
306.654	0.105	613308	keystroke_c	c	n/a
306.774	0.12	613548	keystroke_o	o	n/a
306.849	0.105	613698	keystroke_u	u	n/a
306.969	0.09	613938	keystroke_r	r	n/a
307.149	0.075	614298	keystroke_t	t	n/a
307.269	0.0895	614538	keystroke_Key.enter	Key.enter	n/a
307.3635	7.377	614727	prompt	n/a	consequence weird newbie decimal\n
308.049	0.09	616098	keystroke_c	c	n/a
308.1695	0.18	616339	keystroke_o	o	n/a
308.3345	0.0745	616669	keystroke_n	n	n/a
308.454	0.0755	616908	keystroke_s	s	n/a
308.664	0.1505	617328	keystroke_e	e	n/a
309.294	0.075	618588	keystroke_q	q	n/a
309.684	0.09	619368	keystroke_u	u	n/a
309.819	0.09	619638	keystroke_e	e	n/a
309.969	0.09	619938	keystroke_n	n	n/a
310.164	0.045	620328	keystroke_c	c	n/a
310.224	0.105	620448	keystroke_e	e	n/a
310.5995	0.105	621199	keystroke_Key.space	Key.space	n/a
311.0945	0.12	622189	keystroke_w	w	n/a
311.2745	0.09	622549	keystroke_e	e	n/a
311.4695	0.09	622939	keystroke_i	i	n/a
311.5895	0.075	623179	keystroke_r	r	n/a
311.7985	0.105	623597	keystroke_d	d	n/a
311.9185	0.105	623837	keystroke_Key.space	Key.space	n/a
312.3385	0.091	624677	keystroke_n	n	n/a
312.4745	0.105	624949	keystroke_e	e	n/a
312.5195	0.135	625039	keystroke_w	w	n/a
312.6845	0.12	625369	keystroke_b	b	n/a
312.9245	0.06	625849	keystroke_i	i	n/a
313.1045	0.075	626209	keystroke_e	e	n/a
313.2245	0.09	626449	keystroke_Key.space	Key.space	n/a
313.4645	0.135	626929	keystroke_d	d	n/a
313.5845	0.09	627169	keystroke_e	e	n/a
313.8095	0.09	627619	keystroke_c	c	n/a
313.9595	0.06	627919	keystroke_i	i	n/a
314.1395	0.09	628279	keystroke_m	m	n/a
314.2895	0.089	628579	keystroke_a	a	n/a
314.4385	0.075	628877	keystroke_l	l	n/a
314.6635	0.075	629327	keystroke_Key.enter	Key.enter	n/a
314.7435	9.012	629487	prompt	n/a	stereo over associate gonna\n
315.3395	0.119	630679	keystroke_s	s	n/a
315.5485	0.105	631097	keystroke_t	t	n/a
315.7745	0.104	631549	keystroke_e	e	n/a
315.8795	0.089	631759	keystroke_r	r	n/a
316.3435	0.075	632687	keystroke_e	e	n/a
316.5095	0.059	633019	keystroke_o	o	n/a
316.7635	0.06	633527	keystroke_Key.space	Key.space	n/a
317.1235	0.075	634247	keystroke_c	c	n/a
317.5445	0.09	635089	keystroke_Key.backspace	Key.backspace	n/a
317.8445	0.075	635689	keystroke_o	o	n/a
317.9495	0.12	635899	keystroke_c	c	n/a
318.0395	0.24	636079	keystroke_e	e	n/a
318.2945	0.06	636589	keystroke_r	r	n/a
318.5795	0.075	637159	keystroke_Key.backspace	Key.backspace	n/a
318.7595	0.075	637519	keystroke_Key.backspace	Key.backspace	n/a
318.9995	0.075	637999	keystroke_Key.backspace	Key.backspace	n/a
319.1195	0.105	638239	keystroke_v	v	n/a
319.2395	0.165	638479	keystroke_e	e	n/a
319.4045	0.105	638809	keystroke_r	r	n/a
319.6745	0.075	639349	keystroke_Key.space	Key.space	n/a
320.199	0.105	640398	keystroke_a	a	n/a
320.364	0.09	640728	keystroke_s	s	n/a
320.529	0.09	641058	keystroke_s	s	n/a
320.889	0.09	641778	keystroke_o	o	n/a
321.069	0.09	642138	keystroke_c	c	n/a
321.279	0.075	642558	keystroke_i	i	n/a
321.384	0.105	642768	keystroke_a	a	n/a
321.654	0.135	643308	keystroke_t	t	n/a
321.774	0.105	643548	keystroke_e	e	n/a
321.909	0.105	643818	keystroke_Key.space	Key.space	n/a
322.8245	0.075	645649	keystroke_g	g	n/a
323.0345	0.075	646069	keystroke_o	o	n/a
323.2295	0.06	646459	keystroke_n	n	n/a
323.3645	0.09	646729	keystroke_n	n	n/a
323.4845	0.12	646969	keystroke_a	a	n/a
323.6795	0.075	647359	keystroke_Key.enter	Key.enter	n/a
323.7605	11.5305	647521	prompt	n/a	firefox inappropriate encryption locator\n
324.5795	0.105	649159	keystroke_f	f	n/a
324.7295	0.075	649459	keystroke_i	i	n/a
324.8645	0.09	649729	keystroke_r	r	n/a
324.9395	0.09	649879	keystroke_e	e	n/a
325.2395	0.09	650479	keystroke_f	f	n/a
325.4195	0.075	650839	keystroke_o	o	n/a
325.5395	0.105	651079	keystroke_x	x	n/a
325.7195	0.105	651439	keystroke_Key.space	Key.space	n/a
325.9295	0.06	651859	keystroke_a	a	n/a
326.2595	0.06	652519	keystroke_Key.backspace	Key.backspace	n/a
326.559	0.135	653118	keystroke_i	i	n/a
326.664	0.105	653328	keystroke_n	n	n/a
326.844	0.09	653688	keystroke_a	a	n/a
326.964	0.075	653928	keystroke_p	p	n/a
327.189	0.06	654378	keystroke_r	r	n/a
327.594	0.015	655188	keystroke_Key.backspace	Key.backspace	n/a
327.789	0.09	655578	keystroke_p	p	n/a
327.924	0.075	655848	keystroke_r	r	n/a
328.239	0.075	656478	keystroke_o	o	n/a
328.764	0.09	657528	keystroke_p	p	n/a
329.094	0.075	658188	keystroke_r	r	n/a
330.069	0.075	660138	keystroke_i	i	n/a
330.159	0.12	660318	keystroke_a	a	n/a
330.399	0.105	660798	keystroke_t	t	n/a
330.489	0.12	660978	keystroke_e	e	n/a
330.654	0.105	661308	keystroke_Key.space	Key.space	n/a
331.119	0.165	662238	keystroke_e	e	n/a
331.644	0.12	663288	keystroke_n	n	n/a
331.884	0.12	663768	keystroke_c	c	n/a
332.229	0.03	664458	keystroke_r	r	n/a
332.4395	0.075	664879	keystroke_y	y	n/a
332.6645	0.06	665329	keystroke_p	p	n/a
332.7695	0.09	665539	keystroke_t	t	n/a
332.8895	0.195	665779	keystroke_i	i	n/a
333.0545	0.09	666109	keystroke_o	o	n/a
333.3695	0.075	666739	keystroke_n	n	n/a
333.6995	0.09	667399	keystroke_Key.space	Key.space	n/a
334.1195	0.075	668239	keystroke_l	l	n/a
334.2995	0.06	668599	keystroke_o	o	n/a
334.4045	0.12	668809	keystroke_c	c	n/a
334.5095	0.105	669019	keystroke_a	a	n/a
334.7195	0.075	669439	keystroke_t	t	n/a
334.8395	0.15	669679	keystroke_o	o	n/a
335.0495	0.1045	670099	keystroke_r	r	n/a
335.1995	0.09	670399	keystroke_Key.enter	Key.enter	n/a
335.2955	10.285	670591	prompt	n/a	studies reserved receivers sites\n
338.4715	0.013	676943	keystroke_s	s	n/a
338.6045	0.059	677209	keystroke_t	t	n/a
338.7695	0.074	677539	keystroke_u	u	n/a
338.8895	0.105	677779	keystroke_d	d	n/a
339.0395	0.075	678079	keystroke_i	i	n/a
339.1295	0.075	678259	keystroke_e	e	n/a
339.3245	0.09	678649	keystroke_d	d	n/a
339.5345	0.09	679069	keystroke_Key.space	Key.space	n/a
339.7445	0.06	679489	keystroke_s	s	n/a
340.0595	0.075	680119	keystroke_Key.backspace	Key.backspace	n/a
340.1645	0.105	680329	keystroke_r	r	n/a
340.2545	0.09	680509	keystroke_e	e	n/a
340.4945	0.09	680989	keystroke_s	s	n/a
340.6595	0.12	681319	keystroke_e	e	n/a
340.854	0.09	681708	keystroke_r	r	n/a
341.0945	0.09	682189	keystroke_v	v	n/a
341.7695	0.045	683539	keystroke_e	e	n/a
342.039	0.09	684078	keystroke_d	d	n/a
342.234	0.105	684468	keystroke_Key.space	Key.space	n/a
342.714	0.12	685428	keystroke_r	r	n/a
342.819	0.105	685638	keystroke_e	e	n/a
343.059	0.105	686118	keystroke_c	c	n/a
343.2095	0.12	686419	keystroke_e	e	n/a
343.419	0.12	686838	keystroke_i	i	n/a
343.6895	0.1345	687379	keystroke_v	v	n/a
343.8545	0.135	687709	keystroke_e	e	n/a
343.9895	0.135	687979	keystroke_r	r	n/a
344.304	0.076	688608	keystroke_s	s	n/a
344.4845	0.09	688969	keystroke_Key.space	Key.space	n/a
344.6945	0.075	689389	keystroke_s	s	n/a
344.8745	0.075	689749	keystroke_i	i	n/a
344.9795	0.135	689959	keystroke_t	t	n/a
345.0995	0.105	690199	keystroke_e	e	n/a
345.325	0.075	690650	keystroke_s	s	n/a
345.504	0.075	691008	keystroke_Key.enter	Key.enter	n/a
345.584	10.0915	691168	prompt	n/a	historical legislative pose often\n
346.284	0.1055	692568	keystroke_h	h	n/a
346.3895	0.09	692779	keystroke_i	i	n/a
346.4945	0.135	692989	keystroke_s	s	n/a
346.6895	0.135	693379	keystroke_t	t	n/a
346.8695	0.09	693739	keystroke_o	o	n/a
347.0045	0.0905	694009	keystroke_r	r	n/a
347.139	0.09	694278	keystroke_i	i	n/a
347.29	0.119	694580	keystroke_a	a	n/a
347.469	0.06	694938	keystroke_l	l	n/a
347.814	0.075	695628	keystroke_Key.backspace	Key.backspace	n/a
347.994	0.075	695988	keystroke_Key.backspace	Key.backspace	n/a
348.145	0.089	696290	keystroke_c	c	n/a
348.204	0.09	696408	keystroke_a	a	n/a
348.339	0.105	696678	keystroke_l	l	n/a
348.579	0.075	697158	keystroke_Key.space	Key.space	n/a
349.2695	0.09	698539	keystroke_l	l	n/a
349.4045	0.09	698809	keystroke_e	e	n/a
349.764	0.135	699528	keystroke_g	g	n/a
350.064	0.075	700128	keystroke_i	i	n/a
350.229	0.105	700458	keystroke_s	s	n/a
350.4845	0.105	700969	keystroke_t	t	n/a
350.8445	0.06	701689	keystroke_Key.backspace	Key.backspace	n/a
351.16	0.075	702320	keystroke_l	l	n/a
351.295	0.12	702590	keystroke_a	a	n/a
351.64	0.09	703280	keystroke_t	t	n/a
351.82	0.0745	703640	keystroke_i	i	n/a
352.689	0.075	705378	keystroke_v	v	n/a
352.795	0.074	705590	keystroke_e	e	n/a
352.929	0.105	705858	keystroke_Key.space	Key.space	n/a
353.65	0.044	707300	keystroke_p	p	n/a
353.844	0.06	707688	keystroke_o	o	n/a
353.949	0.151	707898	keystroke_s	s	n/a
354.084	0.09	708168	keystroke_e	e	n/a
354.219	0.09	708438	keystroke_Key.space	Key.space	n/a
354.34	0.089	708680	keystroke_o	o	n/a
354.519	0.121	709038	keystroke_f	f	n/a
354.97	0.089	709940	keystroke_t	t	n/a
355.179	0.075	710358	keystroke_e	e	n/a
355.329	0.09	710658	keystroke_n	n	n/a
355.614	0.06	711228	keystroke_Key.enter	Key.enter	n/a
355.679	7.692	711358	prompt	n/a	simple shanghai pale across\n
356.305	0.104	712610	keystroke_s	s	n/a
356.469	0.09	712938	keystroke_i	i	n/a
356.6945	0.09	713389	keystroke_m	m	n/a
356.9195	0.195	713839	keystroke_p	p	n/a
357.0395	0.15	714079	keystroke_l	l	n/a
357.2645	0.075	714529	keystroke_e	e	n/a
357.3995	0.075	714799	keystroke_Key.space	Key.space	n/a
357.654	0.09	715308	keystroke_s	s	n/a
357.759	0.09	715518	keystroke_h	h	n/a
357.924	0.075	715848	keystroke_a	a	n/a
358.074	0.075	716148	keystroke_n	n	n/a
358.254	0.09	716508	keystroke_g	g	n/a
358.839	0.09	717678	keystroke_h	h	n/a
359.019	0.09	718038	keystroke_a	a	n/a
359.244	0.0755	718488	keystroke_i	i	n/a
359.4095	0.105	718819	keystroke_Key.space	Key.space	n/a
359.4995	0.06	718999	keystroke_a	a	n/a
359.905	0.0595	719810	keystroke_Key.backspace	Key.backspace	n/a
360.1595	0.075	720319	keystroke_p	p	n/a
360.2945	0.1205	720589	keystroke_a	a	n/a
360.4295	0.09	720859	keystroke_l	l	n/a
360.5495	0.09	721099	keystroke_e	e	n/a
360.669	0.105	721338	keystroke_Key.space	Key.space	n/a
360.805	0.12	721610	keystroke_a	a	n/a
361	0.12	722000	keystroke_c	c	n/a
361.405	0.075	722810	keystroke_o	o	n/a
362.154	0.09	724308	keystroke_Key.backspace	Key.backspace	n/a
362.274	0.091	724548	keystroke_r	r	n/a
362.485	0.09	724970	keystroke_o	o	n/a
362.665	0.074	725330	keystroke_s	s	n/a
362.98	0.06	725960	keystroke_s	s	n/a
363.28	0.089	726560	keystroke_Key.enter	Key.enter	n/a
363.374	10.017	726748	prompt	n/a	soft especially expenses jake\n
366.8065	0.043	733613	keystroke_s	s	n/a
367.0145	0.09	734029	keystroke_o	o	n/a
367.1495	0.075	734299	keystroke_f	f	n/a
367.3295	0.075	734659	keystroke_t	t	n/a
367.4645	0.105	734929	keystroke_Key.space	Key.space	n/a
367.794	0.075	735588	keystroke_e	e	n/a
367.929	0.09	735858	keystroke_s	s	n/a
368.094	0.075	736188	keystroke_p	p	n/a
368.184	0.075	736368	keystroke_e	e	n/a
368.424	0.09	736848	keystroke_c	c	n/a
368.559	0.075	737118	keystroke_i	i	n/a
368.679	0.09	737358	keystroke_a	a	n/a
368.829	0.0605	737658	keystroke_l	l	n/a
368.9495	0.075	737899	keystroke_l	l	n/a
369.1595	0.09	738319	keystroke_y	y	n/a
369.3245	0.075	738649	keystroke_Key.space	Key.space	n/a
369.4145	0.09	738829	keystroke_e	e	n/a
369.6845	0.06	739369	keystroke_x	x	n/a
369.7745	0.06	739549	keystroke_p	p	n/a
369.9395	0.06	739879	keystroke_e	e	n/a
370.24	0.075	740480	keystroke_n	n	n/a
370.3745	0.135	740749	keystroke_s	s	n/a
370.5545	0.135	741109	keystroke_e	e	n/a
370.7195	0.105	741439	keystroke_s	s	n/a
370.9595	0.06	741919	keystroke_Key.space	Key.space	n/a
371.3345	0.105	742669	keystroke_j	j	n/a
371.4545	0.075	742909	keystroke_a	a	n/a
371.5445	0.06	743089	keystroke_a	a	n/a
371.6795	0.09	743359	keystroke_k	k	n/a
371.8745	0.075	743749	keystroke_e	e	n/a
372.2045	0.06	744409	keystroke_Key.backspace	Key.backspace	n/a
372.339	0.075	744678	keystroke_Key.backspace	Key.backspace	n/a
372.489	0.06	744978	keystroke_Key.backspace	Key.backspace	n/a
372.789	0.03	745578	keystroke_k	k	n/a
373.089	0.075	746178	keystroke_e	e	n/a
373.314	0.075	746628	keystroke_Key.enter	Key.enter	n/a
373.3935	6.8075	746787	prompt	n/a	raise gibraltar patio consult\n
374.1545	0.105	748309	keystroke_r	r	n/a
374.289	0.0905	748578	keystroke_a	a	n/a
374.4095	0.09	748819	keystroke_i	i	n/a
374.5445	0.165	749089	keystroke_s	s	n/a
374.6945	0.06	749389	keystroke_e	e	n/a
374.7995	0.06	749599	keystroke_Key.space	Key.space	n/a
375.1145	0.105	750229	keystroke_g	g	n/a
375.2645	0.105	750529	keystroke_i	i	n/a
375.7445	0.015	751489	keystroke_b	b	n/a
375.8045	0.12	751609	keystroke_r	r	n/a
375.9095	0.15	751819	keystroke_a	a	n/a
376.4495	0.105	752899	keystroke_l	l	n/a
376.6745	0.12	753349	keystroke_t	t	n/a
376.8995	0.15	753799	keystroke_a	a	n/a
377.0645	0.12	754129	keystroke_r	r	n/a
377.2745	0.105	754549	keystroke_Key.space	Key.space	n/a
377.6495	0.135	755299	keystroke_p	p	n/a
377.8595	0.135	755719	keystroke_a	a	n/a
378.0395	0.12	756079	keystroke_t	t	n/a
378.2045	0.075	756409	keystroke_i	i	n/a
378.459	0.105	756918	keystroke_o	o	n/a
378.744	0.09	757488	keystroke_Key.space	Key.space	n/a
379.134	0.091	758268	keystroke_c	c	n/a
379.239	0.06	758478	keystroke_o	o	n/a
379.404	0.075	758808	keystroke_n	n	n/a
379.495	0.089	758990	keystroke_s	s	n/a
379.66	0.0745	759320	keystroke_u	u	n/a
379.869	0.09	759738	keystroke_l	l	n/a
379.989	0.091	759978	keystroke_t	t	n/a
380.139	0.06	760278	keystroke_Key.enter	Key.enter	n/a
380.204	7.6175	760408	prompt	n/a	aids fewer signup reward\n
380.785	0.09	761570	keystroke_a	a	n/a
381.114	0.075	762228	keystroke_i	i	n/a
381.354	0.12	762708	keystroke_d	d	n/a
381.549	0.105	763098	keystroke_s	s	n/a
381.774	0.09	763548	keystroke_Key.space	Key.space	n/a
383.019	0.12	766038	keystroke_e	e	n/a
383.394	0.12	766788	keystroke_Key.backspace	Key.backspace	n/a
383.545	0.105	767090	keystroke_f	f	n/a
383.77	0.15	767540	keystroke_e	e	n/a
383.905	0.135	767810	keystroke_w	w	n/a
384.025	0.135	768050	keystroke_e	e	n/a
384.25	0.09	768500	keystroke_r	r	n/a
384.4595	0.105	768919	keystroke_Key.space	Key.space	n/a
384.819	0.09	769638	keystroke_s	s	n/a
384.939	0.075	769878	keystroke_i	i	n/a
385.164	0.075	770328	keystroke_g	g	n/a
385.33	0.074	770660	keystroke_n	n	n/a
385.5545	0.09	771109	keystroke_u	u	n/a
385.7795	0.075	771559	keystroke_p	p	n/a
386.0495	0.015	772099	keystroke_Key.space	Key.space	n/a
386.6045	0.09	773209	keystroke_r	r	n/a
386.8145	0.105	773629	keystroke_e	e	n/a
386.9795	0.15	773959	keystroke_w	w	n/a
387.1445	0.135	774289	keystroke_a	a	n/a
387.3395	0.09	774679	keystroke_r	r	n/a
387.5645	0.075	775129	keystroke_d	d	n/a
387.73	0.09	775460	keystroke_Key.enter	Key.enter	n/a
387.8245	12.102	775649	prompt	n/a	regulated refurbished minneapolis trials\n
388.4045	0.1205	776809	keystroke_r	r	n/a
388.495	0.135	776990	keystroke_e	e	n/a
388.7495	0.12	777499	keystroke_g	g	n/a
388.8995	0.105	777799	keystroke_u	u	n/a
389.1395	0.09	778279	keystroke_l	l	n/a
389.2895	0.12	778579	keystroke_a	a	n/a
389.6795	0.12	779359	keystroke_t	t	n/a
389.7845	0.105	779569	keystroke_e	e	n/a
389.9945	0.075	779989	keystroke_d	d	n/a
390.129	0.1205	780258	keystroke_Key.space	Key.space	n/a
390.3845	0.105	780769	keystroke_r	r	n/a
390.4745	0.09	780949	keystroke_e	e	n/a
390.7145	0.015	781429	keystroke_g	g	n/a
391.1495	0.06	782299	keystroke_Key.backspace	Key.backspace	n/a
391.2545	0.105	782509	keystroke_f	f	n/a
391.4045	0.09	782809	keystroke_u	u	n/a
391.5245	0.09	783049	keystroke_r	r	n/a
391.8395	0.1205	783679	keystroke_b	b	n/a
392.395	0.09	784790	keystroke_i	i	n/a
392.53	0.09	785060	keystroke_s	s	n/a
392.695	0.075	785390	keystroke_h	h	n/a
392.785	0.075	785570	keystroke_e	e	n/a
392.95	0.075	785900	keystroke_d	d	n/a
393.07	0.075	786140	keystroke_Key.space	Key.space	n/a
393.295	0.105	786590	keystroke_m	m	n/a
393.505	0.09	787010	keystroke_i	i	n/a
393.685	0.075	787370	keystroke_n	n	n/a
393.835	0.105	787670	keystroke_n	n	n/a
394	0.09	788000	keystroke_e	e	n/a
394.405	0.1045	788810	keystroke_a	a	n/a
395.0945	0.075	790189	keystroke_p	p	n/a
395.3645	0.06	790729	keystroke_l	l	n/a
396.0995	0.075	792199	keystroke_Key.backspace	Key.backspace	n/a
396.3845	0.06	792769	keystroke_o	o	n/a
396.6245	0.06	793249	keystroke_l	l	n/a
396.8945	0.06	793789	keystroke_i	i	n/a
397.0745	0.075	794149	keystroke_s	s	n/a
397.3145	0.075	794629	keystroke_Key.space	Key.space	n/a
397.7495	0.09	795499	keystroke_t	t	n/a
397.9295	0.105	795859	keystroke_r	r	n/a
398.0345	0.105	796069	keystroke_a	a	n/a
398.1545	0.105	796309	keystroke_i	i	n/a
398.3945	0.075	796789	keystroke_l	l	n/a
399.2345	0.075	798469	keystroke_s	s	n/a
399.85	0.075	799700	keystroke_Key.enter	Key.enter	n/a
399.929	8.1275	799858	prompt	n/a	victim trees prozac justify\n
400.8995	0.075	801799	keystroke_v	v	n/a
401.1095	0.075	802219	keystroke_i	i	n/a
401.1995	0.06	802399	keystroke_c	c	n/a
401.3795	0.075	802759	keystroke_t	t	n/a
401.4995	0.06	802999	keystroke_i	i	n/a
401.695	0.12	803390	keystroke_m	m	n/a
401.875	0.06	803750	keystroke_Key.space	Key.space	n/a
402.01	0.09	804020	keystroke_t	t	n/a
402.25	0.105	804500	keystroke_r	r	n/a
402.46	0.09	804920	keystroke_e	e	n/a
402.64	0.105	805280	keystroke_e	e	n/a
402.9545	0.06	805909	keystroke_s	s	n/a
403.1345	0.105	806269	keystroke_Key.space	Key.space	n/a
403.5245	0.075	807049	keystroke_p	p	n/a
403.6295	0.075	807259	keystroke_r	r	n/a
403.8095	0.06	807619	keystroke_o	o	n/a
404.0195	0.12	808039	keystroke_z	z	n/a
404.349	0.0905	808698	keystroke_a	a	n/a
405.024	0.15	810048	keystroke_x	x	n/a
405.414	0.09	810828	keystroke_Key.backspace	Key.backspace	n/a
405.52	0.104	811040	keystroke_c	c	n/a
405.8795	0.0895	811759	keystroke_Key.space	Key.space	n/a
406.314	0.091	812628	keystroke_j	j	n/a
406.5095	0.075	813019	keystroke_u	u	n/a
406.5995	0.09	813199	keystroke_s	s	n/a
406.7045	0.075	813409	keystroke_t	t	n/a
406.8245	0.09	813649	keystroke_i	i	n/a
406.9595	0.06	813919	keystroke_c	c	n/a
407.3195	0.075	814639	keystroke_Key.backspace	Key.backspace	n/a
407.3955	0.089	814791	keystroke_f	f	n/a
407.6045	0.09	815209	keystroke_y	y	n/a
407.995	0.06	815990	keystroke_Key.enter	Key.enter	n/a
408.059	12.8525	816118	prompt	n/a	outsourcing restructuring reserve lesson\n
408.8195	0.165	817639	keystroke_o	o	n/a
408.9695	0.09	817939	keystroke_u	u	n/a
409.0295	0.105	818059	keystroke_t	t	n/a
409.2395	0.105	818479	keystroke_s	s	n/a
409.3595	0.15	818719	keystroke_o	o	n/a
409.4795	0.12	818959	keystroke_u	u	n/a
409.5245	0.105	819049	keystroke_r	r	n/a
409.8245	0.105	819649	keystroke_c	c	n/a
410.1545	0.15	820309	keystroke_i	i	n/a
410.2445	0.135	820489	keystroke_n	n	n/a
410.3645	0.105	820729	keystroke_g	g	n/a
410.5445	0.0745	821089	keystroke_Key.space	Key.space	n/a
410.799	0.12	821598	keystroke_r	r	n/a
410.904	0.091	821808	keystroke_e	e	n/a
411.085	0.0745	822170	keystroke_s	s	n/a
411.2645	0.075	822529	keystroke_t	t	n/a
411.3995	0.105	822799	keystroke_r	r	n/a
412.0145	0.09	824029	keystroke_u	u	n/a
412.1195	0.105	824239	keystroke_c	c	n/a
412.3745	0.075	824749	keystroke_t	t	n/a
412.5245	0.09	825049	keystroke_i	i	n/a
413.3045	0.075	826609	keystroke_Key.backspace	Key.backspace	n/a
413.83	0.075	827660	keystroke_Key.backspace	Key.backspace	n/a
415.3145	0.135	830629	keystroke_t	t	n/a
416.1395	0.075	832279	keystroke_u	u	n/a
416.2295	0.09	832459	keystroke_r	r	n/a
416.3795	0.1355	832759	keystroke_i	i	n/a
416.5	0.0895	833000	keystroke_n	n	n/a
416.5745	0.09	833149	keystroke_g	g	n/a
416.7245	0.105	833449	keystroke_Key.space	Key.space	n/a
416.9195	0.105	833839	keystroke_r	r	n/a
416.9945	0.105	833989	keystroke_e	e	n/a
417.2195	0.225	834439	keystroke_s	s	n/a
417.3395	0.03	834679	keystroke_e	e	n/a
417.4745	0.105	834949	keystroke_e	e	n/a
417.925	0.09	835850	keystroke_Key.backspace	Key.backspace	n/a
418.45	0.135	836900	keystroke_r	r	n/a
418.915	0.12	837830	keystroke_v	v	n/a
419.3645	0.105	838729	keystroke_e	e	n/a
419.5595	0.12	839119	keystroke_Key.space	Key.space	n/a
419.8445	0.09	839689	keystroke_l	l	n/a
419.9495	0.105	839899	keystroke_e	e	n/a
420.0695	0.105	840139	keystroke_s	s	n/a
420.2645	0.075	840529	keystroke_s	s	n/a
420.3995	0.0905	840799	keystroke_o	o	n/a
420.624	0.0755	841248	keystroke_n	n	n/a
420.8345	0.075	841669	keystroke_Key.enter	Key.enter	n/a
420.9165	10.315	841833	prompt	n/a	notify silk stock exercises\n
424.468	0.0575	848936	keystroke_n	n	n/a
424.48	0.1205	848960	keystroke_o	o	n/a
424.6305	0.059	849261	keystroke_t	t	n/a
424.825	0.09	849650	keystroke_i	i	n/a
424.945	0.09	849890	keystroke_f	f	n/a
425.125	0.09	850250	keystroke_y	y	n/a
425.575	0.0895	851150	keystroke_Key.space	Key.space	n/a
425.7995	0.0905	851599	keystroke_s	s	n/a
425.9345	0.105	851869	keystroke_i	i	n/a
426.1745	0.121	852349	keystroke_l	l	n/a
426.3245	0.135	852649	keystroke_k	k	n/a
426.6545	0.06	853309	keystroke_Key.space	Key.space	n/a
426.9395	0.105	853879	keystroke_s	s	n/a
427.1495	0.075	854299	keystroke_t	t	n/a
427.3595	0.0755	854719	keystroke_o	o	n/a
427.51	0.09	855020	keystroke_c	c	n/a
427.66	0.12	855320	keystroke_k	k	n/a
427.81	0.105	855620	keystroke_Key.space	Key.space	n/a
428.05	0.075	856100	keystroke_e	e	n/a
428.275	0.105	856550	keystroke_x	x	n/a
428.485	0.105	856970	keystroke_e	e	n/a
428.665	0.075	857330	keystroke_r	r	n/a
429.46	0.075	858920	keystroke_v	v	n/a
430.03	0.06	860060	keystroke_Key.backspace	Key.backspace	n/a
430.12	0.105	860240	keystroke_c	c	n/a
430.36	0.075	860720	keystroke_i	i	n/a
430.555	0.135	861110	keystroke_s	s	n/a
430.75	0.105	861500	keystroke_e	e	n/a
430.9	0.09	861800	keystroke_s	s	n/a
431.14	0.09	862280	keystroke_Key.enter	Key.enter	n/a
431.2345	9.237	862469	prompt	n/a	exclusive resumes intelligent experiencing\n
432.025	0.075	864050	keystroke_e	e	n/a
432.235	0.12	864470	keystroke_x	x	n/a
432.43	0.1055	864860	keystroke_c	c	n/a
432.5955	0.105	865191	keystroke_l	l	n/a
432.73	0.0755	865460	keystroke_u	u	n/a
432.895	0.0755	865790	keystroke_s	s	n/a
433.1205	0.075	866241	keystroke_i	i	n/a
433.2705	0.105	866541	keystroke_v	v	n/a
433.4655	0.075	866931	keystroke_e	e	n/a
433.6305	0.06	867261	keystroke_Key.space	Key.space	n/a
433.9905	0.09	867981	keystroke_r	r	n/a
434.0655	0.09	868131	keystroke_e	e	n/a
434.2605	0.089	868521	keystroke_s	s	n/a
434.3645	0.09	868729	keystroke_u	u	n/a
434.5895	0.09	869179	keystroke_m	m	n/a
434.6945	0.1055	869389	keystroke_e	e	n/a
434.8	0.12	869600	keystroke_s	s	n/a
434.95	0.075	869900	keystroke_Key.space	Key.space	n/a
435.04	0.15	870080	keystroke_i	i	n/a
435.145	0.105	870290	keystroke_n	n	n/a
435.22	0.105	870440	keystroke_t	t	n/a
435.34	0.12	870680	keystroke_e	e	n/a
435.985	0.015	871970	keystroke_l	l	n/a
436.03	0.105	872060	keystroke_l	l	n/a
436.315	0.09	872630	keystroke_i	i	n/a
436.6295	0.09	873259	keystroke_g	g	n/a
436.7495	0.12	873499	keystroke_e	e	n/a
436.9145	0.075	873829	keystroke_n	n	n/a
437.005	0.105	874010	keystroke_t	t	n/a
437.17	0.105	874340	keystroke_Key.space	Key.space	n/a
437.575	0.135	875150	keystroke_e	e	n/a
437.86	0.09	875720	keystroke_x	x	n/a
437.965	0.09	875930	keystroke_p	p	n/a
438.145	0.135	876290	keystroke_e	e	n/a
438.31	0.075	876620	keystroke_r	r	n/a
439.0145	0.075	878029	keystroke_i	i	n/a
439.1645	0.075	878329	keystroke_e	e	n/a
439.5245	0.09	879049	keystroke_n	n	n/a
439.7195	0.09	879439	keystroke_c	c	n/a
439.9145	0.165	879829	keystroke_i	i	n/a
440.0345	0.105	880069	keystroke_n	n	n/a
440.1095	0.09	880219	keystroke_g	g	n/a
440.38	0.09	880760	keystroke_Key.enter	Key.enter	n/a
440.475	8.7865	880950	prompt	n/a	equal analysis committees allied\n
441.13	0.15	882260	keystroke_e	e	n/a
441.325	0.1055	882650	keystroke_q	q	n/a
441.5055	0.105	883011	keystroke_u	u	n/a
441.6555	0.089	883311	keystroke_a	a	n/a
441.8205	0.09	883641	keystroke_l	l	n/a
442.0295	0.09	884059	keystroke_Key.space	Key.space	n/a
442.4955	0.075	884991	keystroke_a	a	n/a
442.5855	0.105	885171	keystroke_n	n	n/a
442.7055	0.135	885411	keystroke_a	a	n/a
442.8555	0.075	885711	keystroke_l	l	n/a
443.0505	0.06	886101	keystroke_y	y	n/a
443.1405	0.075	886281	keystroke_s	s	n/a
443.2905	0.075	886581	keystroke_i	i	n/a
443.3805	0.105	886761	keystroke_s	s	n/a
443.5455	0.09	887091	keystroke_Key.space	Key.space	n/a
444.04	0.09	888080	keystroke_c	c	n/a
444.16	0.06	888320	keystroke_o	o	n/a
444.34	0.0895	888680	keystroke_m	m	n/a
444.4895	0.105	888979	keystroke_m	m	n/a
444.6545	0.105	889309	keystroke_i	i	n/a
444.8355	0.104	889671	keystroke_t	t	n/a
445.1655	0.074	890331	keystroke_t	t	n/a
445.3595	0.0905	890719	keystroke_e	e	n/a
445.93	0.06	891860	keystroke_s	s	n/a
446.065	0.09	892130	keystroke_s	s	n/a
446.44	0.105	892880	keystroke_Key.space	Key.space	n/a
446.89	0.09	893780	keystroke_Key.backspace	Key.backspace	n/a
447.04	0.075	894080	keystroke_Key.backspace	Key.backspace	n/a
447.175	0.075	894350	keystroke_Key.backspace	Key.backspace	n/a
447.28	0.105	894560	keystroke_e	e	n/a
447.37	0.12	894740	keystroke_s	s	n/a
447.67	0.09	895340	keystroke_Key.space	Key.space	n/a
448.195	0.105	896390	keystroke_a	a	n/a
448.345	0.0895	896690	keystroke_l	l	n/a
448.4945	0.12	896989	keystroke_l	l	n/a
448.6295	0.105	897259	keystroke_i	i	n/a
448.8995	0.075	897799	keystroke_e	e	n/a
449.0645	0.09	898129	keystroke_d	d	n/a
449.1695	0.0905	898339	keystroke_Key.enter	Key.enter	n/a
449.2645	6.1175	898529	prompt	n/a	node buck supplies temperature\n
450.25	0.09	900500	keystroke_n	n	n/a
450.43	0.075	900860	keystroke_o	o	n/a
450.535	0.1205	901070	keystroke_d	d	n/a
450.61	0.1055	901220	keystroke_e	e	n/a
450.7305	0.089	901461	keystroke_Key.space	Key.space	n/a
450.9405	0.06	901881	keystroke_b	b	n/a
451.1355	0.09	902271	keystroke_u	u	n/a
451.2855	0.105	902571	keystroke_c	c	n/a
451.4055	0.135	902811	keystroke_k	k	n/a
451.5245	0.091	903049	keystroke_Key.space	Key.space	n/a
451.6605	0.1045	903321	keystroke_s	s	n/a
451.78	0.075	903560	keystroke_u	u	n/a
452.05	0.06	904100	keystroke_p	p	n/a
452.2	0.06	904400	keystroke_p	p	n/a
452.455	0.075	904910	keystroke_l	l	n/a
452.695	0.06	905390	keystroke_i	i	n/a
452.86	0.06	905720	keystroke_e	e	n/a
452.935	0.105	905870	keystroke_s	s	n/a
453.145	0.06	906290	keystroke_Key.space	Key.space	n/a
453.3695	0.105	906739	keystroke_t	t	n/a
453.5045	0.0905	907009	keystroke_e	e	n/a
453.6395	0.09	907279	keystroke_m	m	n/a
453.9545	0.0605	907909	keystroke_p	p	n/a
454.12	0.15	908240	keystroke_e	e	n/a
454.255	0.1195	908510	keystroke_r	r	n/a
454.435	0.12	908870	keystroke_a	a	n/a
454.66	0.03	909320	keystroke_t	t	n/a
454.885	0.06	909770	keystroke_u	u	n/a
455.005	0.09	910010	keystroke_r	r	n/a
455.08	0.09	910160	keystroke_e	e	n/a
455.305	0.075	910610	keystroke_Key.enter	Key.enter	n/a
455.385	5.9365	910770	prompt	n/a	belt yeah julian lobby\n
456.355	0.06	912710	keystroke_b	b	n/a
456.46	0.105	912920	keystroke_e	e	n/a
456.64	0.06	913280	keystroke_l	l	n/a
456.715	0.06	913430	keystroke_t	t	n/a
456.835	0.075	913670	keystroke_Key.space	Key.space	n/a
457.03	0.075	914060	keystroke_y	y	n/a
457.09	0.12	914180	keystroke_e	e	n/a
457.195	0.135	914390	keystroke_a	a	n/a
457.36	0.09	914720	keystroke_h	h	n/a
457.54	0.09	915080	keystroke_Key.space	Key.space	n/a
457.855	0.075	915710	keystroke_j	j	n/a
458.035	0.06	916070	keystroke_u	u	n/a
458.2605	0.075	916521	keystroke_l	l	n/a
458.4555	0.075	916911	keystroke_i	i	n/a
458.5745	0.12	917149	keystroke_a	a	n/a
458.7255	0.09	917451	keystroke_n	n	n/a
458.8445	0.105	917689	keystroke_Key.space	Key.space	n/a
459.625	0.12	919250	keystroke_l	l	n/a
460.045	0.075	920090	keystroke_o	o	n/a
460.45	0.09	920900	keystroke_b	b	n/a
460.645	0.09	921290	keystroke_b	b	n/a
460.945	0.09	921890	keystroke_y	y	n/a
461.245	0.075	922490	keystroke_Key.enter	Key.enter	n/a
461.3245	7.497	922649	prompt	n/a	troubleshooting parking clinics greeting\n
462.235	0.105	924470	keystroke_t	t	n/a
462.341	0.119	924682	keystroke_r	r	n/a
462.55	0.12	925100	keystroke_o	o	n/a
462.64	0.075	925280	keystroke_u	u	n/a
462.82	0.09	925640	keystroke_b	b	n/a
463	0.075	926000	keystroke_l	l	n/a
463.09	0.075	926180	keystroke_e	e	n/a
463.3	0.09	926600	keystroke_h	h	n/a
463.705	0.06	927410	keystroke_Key.backspace	Key.backspace	n/a
463.81	0.105	927620	keystroke_s	s	n/a
463.945	0.09	927890	keystroke_h	h	n/a
464.1095	0.0755	928219	keystroke_o	o	n/a
464.245	0.09	928490	keystroke_o	o	n/a
464.38	0.09	928760	keystroke_t	t	n/a
464.485	0.18	928970	keystroke_i	i	n/a
464.605	0.105	929210	keystroke_n	n	n/a
464.725	0.09	929450	keystroke_g	g	n/a
464.845	0.09	929690	keystroke_Key.space	Key.space	n/a
464.995	0.09	929990	keystroke_p	p	n/a
465.1	0.15	930200	keystroke_a	a	n/a
465.235	0.105	930470	keystroke_r	r	n/a
465.385	0.06	930770	keystroke_k	k	n/a
465.565	0.075	931130	keystroke_i	i	n/a
465.775	0.09	931550	keystroke_n	n	n/a
465.88	0.075	931760	keystroke_g	g	n/a
465.97	0.1055	931940	keystroke_Key.space	Key.space	n/a
466.1505	0.09	932301	keystroke_c	c	n/a
466.2555	0.075	932511	keystroke_l	l	n/a
466.45	0.06	932900	keystroke_i	i	n/a
466.615	0.09	933230	keystroke_n	n	n/a
466.72	0.09	933440	keystroke_i	i	n/a
466.8995	0.075	933799	keystroke_c	c	n/a
467.08	0.105	934160	keystroke_s	s	n/a
467.245	0.075	934490	keystroke_Key.space	Key.space	n/a
467.56	0.09	935120	keystroke_g	g	n/a
467.68	0.09	935360	keystroke_r	r	n/a
467.95	0.015	935900	keystroke_e	e	n/a
468.01	0.105	936020	keystroke_e	e	n/a
468.235	0.09	936470	keystroke_t	t	n/a
468.3705	0.1495	936741	keystroke_i	i	n/a
468.4605	0.1195	936921	keystroke_n	n	n/a
468.565	0.075	937130	keystroke_g	g	n/a
468.745	0.075	937490	keystroke_Key.enter	Key.enter	n/a
468.8245	7.8875	937649	prompt	n/a	remix vincent cached bernard\n
469.4355	0.12	938871	keystroke_r	r	n/a
469.5405	0.0895	939081	keystroke_e	e	n/a
469.6745	0.09	939349	keystroke_m	m	n/a
469.7795	0.105	939559	keystroke_i	i	n/a
470.0045	0.0905	940009	keystroke_x	x	n/a
470.1395	0.09	940279	keystroke_Key.space	Key.space	n/a
470.53	0.105	941060	keystroke_v	v	n/a
470.665	0.12	941330	keystroke_i	i	n/a
470.755	0.12	941510	keystroke_n	n	n/a
471.025	0.09	942050	keystroke_c	c	n/a
471.625	0.105	943250	keystroke_e	e	n/a
471.895	0.105	943790	keystroke_n	n	n/a
472.015	0.09	944030	keystroke_t	t	n/a
472.165	0.075	944330	keystroke_Key.space	Key.space	n/a
472.945	0.09	945890	keystroke_c	c	n/a
473.065	0.1795	946130	keystroke_a	a	n/a
473.2295	0.06	946459	keystroke_s	s	n/a
474.115	0.075	948230	keystroke_Key.backspace	Key.backspace	n/a
474.5805	0.09	949161	keystroke_c	c	n/a
474.7305	0.06	949461	keystroke_h	h	n/a
474.8955	0.045	949791	keystroke_e	e	n/a
475.345	0.09	950690	keystroke_d	d	n/a
475.465	0.09	950930	keystroke_Key.space	Key.space	n/a
475.705	0.09	951410	keystroke_b	b	n/a
475.825	0.09	951650	keystroke_e	e	n/a
475.9755	0.0895	951951	keystroke_r	r	n/a
476.095	0.09	952190	keystroke_n	n	n/a
476.2	0.09	952400	keystroke_a	a	n/a
476.335	0.0755	952670	keystroke_r	r	n/a
476.5155	0.09	953031	keystroke_d	d	n/a
476.6205	0.09	953241	keystroke_Key.enter	Key.enter	n/a
476.715	6.252	953430	prompt	n/a	volt cincinnati actor setting\n
477.5055	0.12	955011	keystroke_v	v	n/a
477.6405	0.075	955281	keystroke_o	o	n/a
477.8355	0.075	955671	keystroke_l	l	n/a
478.0005	0.09	956001	keystroke_t	t	n/a
478.1205	0.09	956241	keystroke_Key.space	Key.space	n/a
478.3755	0.0595	956751	keystroke_c	c	n/a
478.585	0.09	957170	keystroke_i	i	n/a
478.735	0.105	957470	keystroke_n	n	n/a
478.87	0.09	957740	keystroke_c	c	n/a
479.035	0.09	958070	keystroke_i	i	n/a
479.275	0.06	958550	keystroke_n	n	n/a
479.41	0.075	958820	keystroke_n	n	n/a
479.5	0.12	959000	keystroke_a	a	n/a
479.6955	0.09	959391	keystroke_t	t	n/a
479.8305	0.105	959661	keystroke_i	i	n/a
480.0705	0.09	960141	keystroke_Key.space	Key.space	n/a
480.4905	0.134	960981	keystroke_a	a	n/a
480.7595	0.076	961519	keystroke_c	c	n/a
480.9545	0.091	961909	keystroke_t	t	n/a
481.1055	0.09	962211	keystroke_o	o	n/a
481.2255	0.0895	962451	keystroke_r	r	n/a
481.36	0.09	962720	keystroke_Key.space	Key.space	n/a
481.615	0.09	963230	keystroke_s	s	n/a
482.0055	0.09	964011	keystroke_e	e	n/a
482.2455	0.06	964491	keystroke_t	t	n/a
482.3805	0.09	964761	keystroke_t	t	n/a
482.5305	0.165	965061	keystroke_i	i	n/a
482.6355	0.09	965271	keystroke_n	n	n/a
482.7105	0.075	965421	keystroke_g	g	n/a
482.8605	0.105	965721	keystroke_Key.enter	Key.enter	n/a
482.9695	7.9025	965939	prompt	n/a	coordinate capabilities buyers powers\n
483.505	0.135	967010	keystroke_c	c	n/a
483.685	0.075	967370	keystroke_o	o	n/a
483.82	0.09	967640	keystroke_o	o	n/a
483.94	0.09	967880	keystroke_r	r	n/a
484.1355	0.09	968271	keystroke_d	d	n/a
484.2555	0.12	968511	keystroke_i	i	n/a
484.3455	0.105	968691	keystroke_n	n	n/a
484.4955	0.135	968991	keystroke_a	a	n/a
484.6755	0.135	969351	keystroke_t	t	n/a
484.7955	0.075	969591	keystroke_e	e	n/a
484.9005	0.105	969801	keystroke_Key.space	Key.space	n/a
485.2455	0.105	970491	keystroke_c	c	n/a
485.4555	0.09	970911	keystroke_a	a	n/a
485.6655	0.06	971331	keystroke_p	p	n/a
485.8605	0.105	971721	keystroke_a	a	n/a
486.0255	0.09	972051	keystroke_b	b	n/a
486.49	0.075	972980	keystroke_i	i	n/a
486.685	0.075	973370	keystroke_l	l	n/a
486.88	0.075	973760	keystroke_i	i	n/a
487.0145	0.076	974029	keystroke_t	t	n/a
487.375	0.0905	974750	keystroke_i	i	n/a
487.555	0.09	975110	keystroke_e	e	n/a
487.66	0.105	975320	keystroke_s	s	n/a
487.87	0.075	975740	keystroke_Key.space	Key.space	n/a
488.425	0.09	976850	keystroke_b	b	n/a
488.59	0.15	977180	keystroke_u	u	n/a
488.77	0.1205	977540	keystroke_y	y	n/a
489.0705	0.09	978141	keystroke_e	e	n/a
489.2505	0.075	978501	keystroke_r	r	n/a
489.3705	0.105	978741	keystroke_s	s	n/a
489.5205	0.12	979041	keystroke_Key.space	Key.space	n/a
489.8355	0.135	979671	keystroke_p	p	n/a
489.9255	0.15	979851	keystroke_o	o	n/a
490.1655	0.135	980331	keystroke_w	w	n/a
490.2855	0.135	980571	keystroke_e	e	n/a
490.4805	0.105	980961	keystroke_r	r	n/a
490.6455	0.09	981291	keystroke_s	s	n/a
490.7655	0.105	981531	keystroke_Key.enter	Key.enter	n/a
490.875	6.237	981750	prompt	n/a	amount where overseas smile\n
491.5315	0.089	983063	keystroke_a	a	n/a
491.6655	0.09	983331	keystroke_m	m	n/a
491.8455	0.105	983691	keystroke_o	o	n/a
491.9355	0.09	983871	keystroke_u	u	n/a
492.1445	0.121	984289	keystroke_n	n	n/a
492.2955	0.06	984591	keystroke_t	t	n/a
492.3705	0.09	984741	keystroke_Key.space	Key.space	n/a
492.5505	0.075	985101	keystroke_w	w	n/a
492.6405	0.09	985281	keystroke_h	h	n/a
492.7605	0.09	985521	keystroke_e	e	n/a
492.955	0.06	985910	keystroke_r	r	n/a
493.105	0.06	986210	keystroke_e	e	n/a
493.24	0.075	986480	keystroke_Key.space	Key.space	n/a
493.45	0.075	986900	keystroke_o	o	n/a
493.6	0.105	987200	keystroke_v	v	n/a
493.765	0.1055	987530	keystroke_e	e	n/a
493.9005	0.089	987801	keystroke_r	r	n/a
494.0955	0.12	988191	keystroke_s	s	n/a
494.3355	0.105	988671	keystroke_e	e	n/a
494.5155	0.135	989031	keystroke_a	a	n/a
494.7855	0.075	989571	keystroke_r	r	n/a
495.2805	0.075	990561	keystroke_Key.backspace	Key.backspace	n/a
495.3705	0.06	990741	keystroke_s	s	n/a
495.5505	0.0895	991101	keystroke_Key.space	Key.space	n/a
496.3005	0.09	992601	keystroke_s	s	n/a
496.42	0.12	992840	keystroke_m	m	n/a
496.525	0.09	993050	keystroke_i	i	n/a
496.735	0.09	993470	keystroke_l	l	n/a
496.915	0.0605	993830	keystroke_e	e	n/a
497.0355	0.075	994071	keystroke_Key.enter	Key.enter	n/a
497.1165	8.1255	994233	prompt	n/a	entertaining valium saturn arise\n
497.755	0.09	995510	keystroke_e	e	n/a
497.876	0.089	995752	keystroke_n	n	n/a
498.01	0.106	996020	keystroke_t	t	n/a
498.161	0.104	996322	keystroke_e	e	n/a
498.25	0.0905	996500	keystroke_r	r	n/a
498.595	0.075	997190	keystroke_t	t	n/a
498.73	0.12	997460	keystroke_a	a	n/a
498.88	0.135	997760	keystroke_i	i	n/a
498.985	0.105	997970	keystroke_n	n	n/a
499.12	0.105	998240	keystroke_i	i	n/a
499.2095	0.105	998419	keystroke_n	n	n/a
499.3755	0.06	998751	keystroke_g	g	n/a
499.5545	0.075	999109	keystroke_Key.space	Key.space	n/a
500.0955	0.12	1000191	keystroke_v	v	n/a
500.3355	0.089	1000671	keystroke_a	a	n/a
500.4855	0.12	1000971	keystroke_l	l	n/a
500.6655	0.105	1001331	keystroke_i	i	n/a
500.8905	0.075	1001781	keystroke_u	u	n/a
501.146	0.105	1002292	keystroke_m	m	n/a
501.355	0.06	1002710	keystroke_Key.space	Key.space	n/a
501.7455	0.1055	1003491	keystroke_s	s	n/a
501.9245	0.1055	1003849	keystroke_t	t	n/a
502.0605	0.075	1004121	keystroke_a	a	n/a
502.525	0.06	1005050	keystroke_Key.backspace	Key.backspace	n/a
502.765	0.075	1005530	keystroke_Key.backspace	Key.backspace	n/a
502.931	0.119	1005862	keystroke_a	a	n/a
503.036	0.104	1006072	keystroke_t	t	n/a
503.201	0.09	1006402	keystroke_u	u	n/a
503.306	0.09	1006612	keystroke_r	r	n/a
503.515	0.09	1007030	keystroke_n	n	n/a
503.71	0.0755	1007420	keystroke_Key.space	Key.space	n/a
504.1755	0.1645	1008351	keystroke_a	a	n/a
504.475	0.075	1008950	keystroke_r	r	n/a
504.655	0.105	1009310	keystroke_i	i	n/a
504.775	0.165	1009550	keystroke_s	s	n/a
504.941	0.089	1009882	keystroke_e	e	n/a
505.165	0.075	1010330	keystroke_Key.enter	Key.enter	n/a
505.2445	7.0325	1010489	prompt	n/a	fourth hundreds never stayed\n
506.095	0.09	1012190	keystroke_f	f	n/a
506.35	0.165	1012700	keystroke_o	o	n/a
506.455	0.12	1012910	keystroke_u	u	n/a
506.591	0.089	1013182	keystroke_r	r	n/a
506.83	0.09	1013660	keystroke_t	t	n/a
506.95	0.105	1013900	keystroke_h	h	n/a
507.13	0.09	1014260	keystroke_Key.space	Key.space	n/a
507.43	0.06	1014860	keystroke_h	h	n/a
507.595	0.075	1015190	keystroke_u	u	n/a
507.79	0.09	1015580	keystroke_n	n	n/a
508.375	0.06	1016750	keystroke_g	g	n/a
508.855	0.075	1017710	keystroke_Key.backspace	Key.backspace	n/a
508.945	0.105	1017890	keystroke_d	d	n/a
509.185	0.105	1018370	keystroke_r	r	n/a
509.335	0.12	1018670	keystroke_e	e	n/a
509.65	0.075	1019300	keystroke_d	d	n/a
510.01	0.075	1020020	keystroke_s	s	n/a
510.145	0.105	1020290	keystroke_Key.space	Key.space	n/a
510.505	0.0905	1021010	keystroke_n	n	n/a
510.6255	0.075	1021251	keystroke_e	e	n/a
510.8355	0.075	1021671	keystroke_v	v	n/a
510.9855	0.12	1021971	keystroke_e	e	n/a
511.0905	0.09	1022181	keystroke_r	r	n/a
511.2105	0.075	1022421	keystroke_Key.space	Key.space	n/a
511.3455	0.075	1022691	keystroke_s	s	n/a
511.4955	0.09	1022991	keystroke_t	t	n/a
511.6305	0.135	1023261	keystroke_a	a	n/a
511.8105	0.09	1023621	keystroke_y	y	n/a
511.9305	0.075	1023861	keystroke_e	e	n/a
512.0955	0.075	1024191	keystroke_d	d	n/a
512.1855	0.09	1024371	keystroke_Key.enter	Key.enter	n/a
512.28	10.302	1024560	prompt	n/a	keno agricultural replaced remembered\n
512.9055	0.075	1025811	keystroke_k	k	n/a
513.0105	0.09	1026021	keystroke_e	e	n/a
513.1305	0.09	1026261	keystroke_n	n	n/a
513.3405	0.06	1026681	keystroke_o	o	n/a
513.4755	0.09	1026951	keystroke_Key.space	Key.space	n/a
513.6105	0.12	1027221	keystroke_a	a	n/a
513.8355	0.09	1027671	keystroke_r	r	n/a
514.2555	0.075	1028511	keystroke_Key.backspace	Key.backspace	n/a
514.3605	0.12	1028721	keystroke_g	g	n/a
514.6005	0.075	1029201	keystroke_r	r	n/a
515.0655	0.09	1030131	keystroke_i	i	n/a
515.3955	0.075	1030791	keystroke_c	c	n/a
515.5005	0.075	1031001	keystroke_u	u	n/a
515.7405	0.09	1031481	keystroke_l	l	n/a
516.46	0.1055	1032920	keystroke_t	t	n/a
516.8805	0.09	1033761	keystroke_u	u	n/a
517.0155	0.09	1034031	keystroke_r	r	n/a
517.1505	0.135	1034301	keystroke_a	a	n/a
517.3155	0.09	1034631	keystroke_l	l	n/a
517.4805	0.105	1034961	keystroke_Key.space	Key.space	n/a
517.8855	0.105	1035771	keystroke_r	r	n/a
517.9605	0.12	1035921	keystroke_e	e	n/a
518.0955	0.18	1036191	keystroke_p	p	n/a
518.2155	0.135	1036431	keystroke_l	l	n/a
518.3655	0.1345	1036731	keystroke_a	a	n/a
518.71	0.12	1037420	keystroke_v	v	n/a
519.205	0.015	1038410	keystroke_Key.backspace	Key.backspace	n/a
519.235	0.0605	1038470	keystroke_c	c	n/a
519.2805	0.105	1038561	keystroke_e	e	n/a
519.5205	0.12	1039041	keystroke_d	d	n/a
519.7305	0.09	1039461	keystroke_Key.space	Key.space	n/a
520.1355	0.09	1040271	keystroke_r	r	n/a
520.1955	0.105	1040391	keystroke_e	e	n/a
520.3755	0.09	1040751	keystroke_m	m	n/a
520.5105	0.105	1041021	keystroke_e	e	n/a
520.6305	0.09	1041261	keystroke_m	m	n/a
521.83	0.075	1043660	keystroke_b	b	n/a
521.92	0.06	1043840	keystroke_e	e	n/a
522.0705	0.075	1044141	keystroke_r	r	n/a
522.2355	0.045	1044471	keystroke_e	e	n/a
522.3855	0.0745	1044771	keystroke_d	d	n/a
522.505	0.0755	1045010	keystroke_Key.enter	Key.enter	n/a
522.5845	5.9975	1045169	prompt	n/a	breed particle lisa withdrawal\n
523.2105	0.105	1046421	keystroke_b	b	n/a
523.3005	0.06	1046601	keystroke_r	r	n/a
523.4655	0.045	1046931	keystroke_e	e	n/a
523.5705	0.09	1047141	keystroke_e	e	n/a
523.7805	0.09	1047561	keystroke_d	d	n/a
523.9005	0.075	1047801	keystroke_Key.space	Key.space	n/a
524.0805	0.075	1048161	keystroke_p	p	n/a
524.2005	0.075	1048401	keystroke_a	a	n/a
524.3055	0.09	1048611	keystroke_r	r	n/a
524.4705	0.06	1048941	keystroke_t	t	n/a
524.5605	0.09	1049121	keystroke_i	i	n/a
524.6805	0.09	1049361	keystroke_c	c	n/a
524.8305	0.075	1049661	keystroke_l	l	n/a
524.9655	0.075	1049931	keystroke_e	e	n/a
525.1305	0.075	1050261	keystroke_Key.space	Key.space	n/a
525.3705	0.12	1050741	keystroke_l	l	n/a
525.4605	0.105	1050921	keystroke_i	i	n/a
525.5805	0.105	1051161	keystroke_s	s	n/a
525.6405	0.135	1051281	keystroke_a	a	n/a
525.8355	0.09	1051671	keystroke_Key.space	Key.space	n/a
526.0005	0.09	1052001	keystroke_w	w	n/a
526.1055	0.09	1052211	keystroke_i	i	n/a
526.3455	0.0745	1052691	keystroke_t	t	n/a
526.45	0.09	1052900	keystroke_h	h	n/a
526.75	0.12	1053500	keystroke_d	d	n/a
526.99	0.09	1053980	keystroke_r	r	n/a
527.62	0.18	1055240	keystroke_a	a	n/a
527.815	0.075	1055630	keystroke_w	w	n/a
528.13	0.09	1056260	keystroke_a	a	n/a
528.28	0.091	1056560	keystroke_l	l	n/a
528.521	0.06	1057042	keystroke_Key.enter	Key.enter	n/a
528.5845	6.1325	1057169	prompt	n/a	shortly gave deleted knights\n
529.181	0.1195	1058362	keystroke_s	s	n/a
529.2855	0.06	1058571	keystroke_h	h	n/a
529.4655	0.075	1058931	keystroke_o	o	n/a
529.5705	0.09	1059141	keystroke_r	r	n/a
529.7055	0.105	1059411	keystroke_t	t	n/a
529.7955	0.09	1059591	keystroke_l	l	n/a
530.0205	0.075	1060041	keystroke_y	y	n/a
530.1855	0.09	1060371	keystroke_Key.space	Key.space	n/a
530.4705	0.135	1060941	keystroke_a	a	n/a
530.9655	0.045	1061931	keystroke_Key.backspace	Key.backspace	n/a
531.1155	0.075	1062231	keystroke_g	g	n/a
531.2505	0.135	1062501	keystroke_a	a	n/a
531.4905	0.09	1062981	keystroke_v	v	n/a
531.6105	0.09	1063221	keystroke_e	e	n/a
531.7455	0.105	1063491	keystroke_Key.space	Key.space	n/a
532.2105	0.0905	1064421	keystroke_d	d	n/a
532.3905	0.09	1064781	keystroke_e	e	n/a
532.4955	0.09	1064991	keystroke_l	l	n/a
532.6005	0.12	1065201	keystroke_e	e	n/a
532.8255	0.075	1065651	keystroke_t	t	n/a
532.9155	0.105	1065831	keystroke_e	e	n/a
533.1555	0.075	1066311	keystroke_d	d	n/a
533.3655	0.075	1066731	keystroke_Key.space	Key.space	n/a
533.7255	0.1505	1067451	keystroke_k	k	n/a
533.891	0.06	1067782	keystroke_n	n	n/a
533.996	0.09	1067992	keystroke_i	i	n/a
534.101	0.105	1068202	keystroke_g	g	n/a
534.251	0.1045	1068502	keystroke_h	h	n/a
534.3705	0.105	1068741	keystroke_t	t	n/a
534.4905	0.09	1068981	keystroke_s	s	n/a
534.6255	0.09	1069251	keystroke_Key.enter	Key.enter	n/a
534.72	9.372	1069440	prompt	n/a	determining daddy filed nevertheless\n
535.255	0.075	1070510	keystroke_s	s	n/a
535.555	0.075	1071110	keystroke_Key.backspace	Key.backspace	n/a
535.645	0.09	1071290	keystroke_d	d	n/a
535.721	0.104	1071442	keystroke_e	e	n/a
535.871	0.119	1071742	keystroke_t	t	n/a
535.991	0.209	1071982	keystroke_e	e	n/a
536.215	0.105	1072430	keystroke_r	r	n/a
536.47	0.135	1072940	keystroke_m	m	n/a
536.755	0.12	1073510	keystroke_i	i	n/a
536.86	0.12	1073720	keystroke_n	n	n/a
537.13	0.15	1074260	keystroke_i	i	n/a
537.25	0.135	1074500	keystroke_n	n	n/a
537.445	0.06	1074890	keystroke_g	g	n/a
537.58	0.075	1075160	keystroke_Key.space	Key.space	n/a
538.285	0.135	1076570	keystroke_d	d	n/a
538.405	0.12	1076810	keystroke_a	a	n/a
538.57	0.105	1077140	keystroke_d	d	n/a
538.75	0.0905	1077500	keystroke_d	d	n/a
538.9305	0.075	1077861	keystroke_y	y	n/a
539.0505	0.135	1078101	keystroke_Key.space	Key.space	n/a
539.5155	0.075	1079031	keystroke_f	f	n/a
539.6655	0.105	1079331	keystroke_i	i	n/a
540.2055	0.06	1080411	keystroke_l	l	n/a
540.5655	0.09	1081131	keystroke_e	e	n/a
540.7605	0.105	1081521	keystroke_d	d	n/a
540.8505	0.09	1081701	keystroke_Key.space	Key.space	n/a
541.0755	0.09	1082151	keystroke_n	n	n/a
541.1805	0.09	1082361	keystroke_e	e	n/a
541.4055	0.1045	1082811	keystroke_v	v	n/a
541.556	0.134	1083112	keystroke_e	e	n/a
541.675	0.06	1083350	keystroke_r	r	n/a
541.81	0.106	1083620	keystroke_t	t	n/a
541.93	0.09	1083860	keystroke_h	h	n/a
542.05	0.075	1084100	keystroke_e	e	n/a
542.215	0.0755	1084430	keystroke_l	l	n/a
542.8305	0.075	1085661	keystroke_s	s	n/a
542.9805	0.09	1085961	keystroke_s	s	n/a
543.3105	0.075	1086621	keystroke_Key.backspace	Key.backspace	n/a
543.4605	0.075	1086921	keystroke_Key.backspace	Key.backspace	n/a
543.5505	0.09	1087101	keystroke_e	e	n/a
543.6555	0.105	1087311	keystroke_s	s	n/a
543.8355	0.075	1087671	keystroke_s	s	n/a
544.0155	0.075	1088031	keystroke_Key.enter	Key.enter	n/a
544.095	4.857	1088190	prompt	n/a	sara assessing boost onion\n
544.9755	0.12	1089951	keystroke_s	s	n/a
545.0505	0.135	1090101	keystroke_a	a	n/a
545.2605	0.105	1090521	keystroke_r	r	n/a
545.3955	0.09	1090791	keystroke_a	a	n/a
545.56	0.075	1091120	keystroke_Key.space	Key.space	n/a
545.696	0.195	1091392	keystroke_a	a	n/a
545.92	0.061	1091840	keystroke_s	s	n/a
546.0555	0.12	1092111	keystroke_s	s	n/a
546.2205	0.105	1092441	keystroke_e	e	n/a
546.3855	0.09	1092771	keystroke_s	s	n/a
546.5355	0.105	1093071	keystroke_s	s	n/a
546.6415	0.119	1093283	keystroke_i	i	n/a
546.7305	0.105	1093461	keystroke_n	n	n/a
546.8205	0.09	1093641	keystroke_g	g	n/a
546.9855	0.075	1093971	keystroke_Key.space	Key.space	n/a
547.2255	0.075	1094451	keystroke_b	b	n/a
547.4205	0.06	1094841	keystroke_o	o	n/a
547.5405	0.075	1095081	keystroke_o	o	n/a
547.6005	0.105	1095201	keystroke_s	s	n/a
547.7355	0.09	1095471	keystroke_t	t	n/a
547.8555	0.075	1095711	keystroke_Key.space	Key.space	n/a
548.0955	0.075	1096191	keystroke_o	o	n/a
548.2455	0.105	1096491	keystroke_n	n	n/a
548.3805	0.0745	1096761	keystroke_i	i	n/a
548.545	0.09	1097090	keystroke_o	o	n/a
548.71	0.075	1097420	keystroke_n	n	n/a
548.875	0.075	1097750	keystroke_Key.enter	Key.enter	n/a
548.955	9.958	1097910	prompt	n/a	subscribe played violent individual\n
549.4905	0.09	1098981	keystroke_s	s	n/a
549.6705	0.06	1099341	keystroke_u	u	n/a
549.7315	0.104	1099463	keystroke_b	b	n/a
549.9105	0.09	1099821	keystroke_s	s	n/a
550.0605	0.105	1100121	keystroke_c	c	n/a
550.451	0.09	1100902	keystroke_r	r	n/a
550.751	0.075	1101502	keystroke_i	i	n/a
550.991	0.06	1101982	keystroke_b	b	n/a
551.141	0.075	1102282	keystroke_e	e	n/a
