onset	duration	sample	value	key	prompt_text
7.1545	13.3325	14309	prompt	n/a	the quick brown fox jumps over a lazy dog\n
9.7	0.001	19400	keystroke_t	t	n/a
9.879	0.09	19758	keystroke_h	h	n/a
10.073	0.105	20146	keystroke_e	e	n/a
10.6585	0.105	21317	keystroke_Key.space	Key.space	n/a
11.139	0.09	22278	keystroke_q	q	n/a
11.379	0.09	22758	keystroke_u	u	n/a
11.5735	0.105	23147	keystroke_i	i	n/a
11.754	0.0895	23508	keystroke_c	c	n/a
11.888	0.136	23776	keystroke_k	k	n/a
12.0085	0.1195	24017	keystroke_Key.space	Key.space	n/a
12.2635	0.1055	24527	keystroke_b	b	n/a
12.4435	0.075	24887	keystroke_r	r	n/a
12.7585	0.0755	25517	keystroke_w	w	n/a
13.718	0.075	27436	keystroke_Key.backspace	Key.backspace	n/a
14.499	0.09	28998	keystroke_o	o	n/a
14.829	0.1345	29658	keystroke_w	w	n/a
15.0835	0.135	30167	keystroke_n	n	n/a
15.4135	0.09	30827	keystroke_Key.space	Key.space	n/a
15.849	0.075	31698	keystroke_f	f	n/a
16.088	0.0905	32176	keystroke_o	o	n/a
16.2385	0.1205	32477	keystroke_x	x	n/a
16.373	0.1205	32746	keystroke_Key.space	Key.space	n/a
16.644	0.09	33288	keystroke_j	j	n/a
16.808	0.106	33616	keystroke_u	u	n/a
17.049	0.089	34098	keystroke_m	m	n/a
17.3785	0.0755	34757	keystroke_p	p	n/a
17.5295	0.1195	35059	keystroke_s	s	n/a
17.664	0.105	35328	keystroke_Key.space	Key.space	n/a
17.874	0.0595	35748	keystroke_o	o	n/a
17.978	0.121	35956	keystroke_v	v	n/a
18.2485	0.1655	36497	keystroke_e	e	n/a
18.369	0.12	36738	keystroke_r	r	n/a
18.519	0.104	37038	keystroke_Key.space	Key.space	n/a
18.683	0.091	37366	keystroke_a	a	n/a
18.804	0.1195	37608	keystroke_Key.space	Key.space	n/a
19.118	0.016	38236	keystroke_l	l	n/a
19.149	0.075	38298	keystroke_a	a	n/a
19.344	0.135	38688	keystroke_z	z	n/a
19.4935	0.12	38987	keystroke_y	y	n/a
19.674	0.1195	39348	keystroke_Key.space	Key.space	n/a
19.824	0.18	39648	keystroke_d	d	n/a
20.019	0.12	40038	keystroke_o	o	n/a
20.198	0.1355	40396	keystroke_g	g	n/a
20.378	0.1055	40756	keystroke_Key.enter	Key.enter	n/a
20.493	8.858	40986	prompt	n/a	compatibility terry standings pass\n
21.279	0.09	42558	keystroke_c	c	n/a
21.383	0.0755	42766	keystroke_o	o	n/a
21.878	0.091	43756	keystroke_m	m	n/a
22.119	0.0745	44238	keystroke_p	p	n/a
22.284	0.12	44568	keystroke_a	a	n/a
22.523	0.09	45046	keystroke_t	t	n/a
22.719	0.0895	45438	keystroke_i	i	n/a
23.0035	0.1055	46007	keystroke_v	v	n/a
23.649	0.074	47298	keystroke_Key.backspace	Key.backspace	n/a
23.799	0.1045	47598	keystroke_b	b	n/a
23.9785	0.1055	47957	keystroke_i	i	n/a
24.399	0.09	48798	keystroke_l	l	n/a
24.6395	0.0885	49279	keystroke_i	i	n/a
24.789	0.119	49578	keystroke_t	t	n/a
24.984	0.105	49968	keystroke_y	y	n/a
25.2685	0.0905	50537	keystroke_Key.space	Key.space	n/a
25.8985	0.1205	51797	keystroke_t	t	n/a
26.004	0.1355	52008	keystroke_e	e	n/a
26.124	0.105	52248	keystroke_r	r	n/a
26.289	0.105	52578	keystroke_r	r	n/a
26.514	0.09	53028	keystroke_y	y	n/a
26.6935	0.0905	53387	keystroke_Key.space	Key.space	n/a
26.964	0.09	53928	keystroke_s	s	n/a
27.1435	0.0905	54287	keystroke_t	t	n/a
27.264	0.119	54528	keystroke_a	a	n/a
27.4135	0.1045	54827	keystroke_n	n	n/a
27.534	0.0895	55068	keystroke_d	d	n/a
27.684	0.1205	55368	keystroke_i	i	n/a
27.819	0.09	55638	keystroke_n	n	n/a
27.894	0.09	55788	keystroke_g	g	n/a
28.104	0.0895	56208	keystroke_s	s	n/a
28.299	0.104	56598	keystroke_Key.space	Key.space	n/a
28.584	0.075	57168	keystroke_p	p	n/a
28.7785	0.1645	57557	keystroke_a	a	n/a
28.959	0.0895	57918	keystroke_s	s	n/a
29.124	0.09	58248	keystroke_s	s	n/a
29.2285	0.1195	58457	keystroke_Key.enter	Key.enter	n/a
29.3555	6.7765	58711	prompt	n/a	routines corporate vary jaguar\n
30.114	0.0595	60228	keystroke_r	r	n/a
30.1885	0.165	60377	keystroke_o	o	n/a
30.3685	0.1045	60737	keystroke_u	u	n/a
30.474	0.1045	60948	keystroke_t	t	n/a
30.594	0.1345	61188	keystroke_i	i	n/a
30.714	0.1045	61428	keystroke_n	n	n/a
30.8335	0.105	61667	keystroke_e	e	n/a
30.9685	0.1205	61937	keystroke_s	s	n/a
31.1335	0.0905	62267	keystroke_Key.space	Key.space	n/a
31.284	0.105	62568	keystroke_c	c	n/a
31.419	0.089	62838	keystroke_o	o	n/a
31.5685	0.0605	63137	keystroke_r	r	n/a
31.6735	0.09	63347	keystroke_p	p	n/a
32.349	0.0745	64698	keystroke_o	o	n/a
32.5135	0.1205	65027	keystroke_r	r	n/a
32.7395	0.134	65479	keystroke_a	a	n/a
32.904	0.1195	65808	keystroke_t	t	n/a
33.009	0.105	66018	keystroke_e	e	n/a
33.189	0.0895	66378	keystroke_Key.space	Key.space	n/a
33.5035	0.0905	67007	keystroke_v	v	n/a
33.699	0.135	67398	keystroke_a	a	n/a
33.804	0.105	67608	keystroke_r	r	n/a
33.939	0.12	67878	keystroke_y	y	n/a
34.074	0.074	68148	keystroke_Key.space	Key.space	n/a
34.314	0.09	68628	keystroke_j	j	n/a
34.6135	0.0755	69227	keystroke_a	a	n/a
35.304	0.09	70608	keystroke_g	g	n/a
35.4535	0.0905	70907	keystroke_u	u	n/a
35.6035	0.1205	71207	keystroke_a	a	n/a
35.754	0.075	71508	keystroke_r	r	n/a
36.039	0.09	72078	keystroke_Key.enter	Key.enter	n/a
36.1355	9.0555	72271	prompt	n/a	simultaneously abilities except finances\n
36.834	0.09	73668	keystroke_s	s	n/a
36.969	0.104	73938	keystroke_i	i	n/a
37.193	0.075	74386	keystroke_m	m	n/a
37.418	0.091	74836	keystroke_u	u	n/a
37.7035	0.09	75407	keystroke_l	l	n/a
38.0335	0.1055	76067	keystroke_t	t	n/a
38.559	0.075	77118	keystroke_a	a	n/a
38.784	0.09	77568	keystroke_n	n	n/a
39.038	0.0755	78076	keystroke_e	e	n/a
39.399	0.165	78798	keystroke_o	o	n/a
39.5335	0.1055	79067	keystroke_u	u	n/a
39.8635	0.0755	79727	keystroke_s	s	n/a
40.0885	0.09	80177	keystroke_l	l	n/a
40.359	0.0745	80718	keystroke_y	y	n/a
40.569	0.105	81138	keystroke_Key.space	Key.space	n/a
40.899	0.09	81798	keystroke_a	a	n/a
41.0635	0.0915	82127	keystroke_b	b	n/a
41.303	0.061	82606	keystroke_i	i	n/a
41.4985	0.045	82997	keystroke_l	l	n/a
41.649	0.075	83298	keystroke_i	i	n/a
41.799	0.0745	83598	keystroke_t	t	n/a
41.9185	0.1055	83837	keystroke_i	i	n/a
42.069	0.0745	84138	keystroke_e	e	n/a
42.1745	0.105	84349	keystroke_s	s	n/a
42.309	0.09	84618	keystroke_Key.space	Key.space	n/a
42.549	0.074	85098	keystroke_e	e	n/a
42.788	0.106	85576	keystroke_x	x	n/a
42.983	0.121	85966	keystroke_c	c	n/a
43.149	0.0905	86298	keystroke_e	e	n/a
43.299	0.09	86598	keystroke_p	p	n/a
43.449	0.105	86898	keystroke_t	t	n/a
43.583	0.091	87166	keystroke_Key.space	Key.space	n/a
43.944	0.0895	87888	keystroke_f	f	n/a
44.0485	0.15	88097	keystroke_i	i	n/a
44.1985	0.09	88397	keystroke_n	n	n/a
44.259	0.1345	88518	keystroke_a	a	n/a
44.4835	0.1055	88967	keystroke_n	n	n/a
44.6035	0.1055	89207	keystroke_c	c	n/a
44.724	0.0895	89448	keystroke_e	e	n/a
44.934	0.075	89868	keystroke_s	s	n/a
45.114	0.075	90228	keystroke_Key.enter	Key.enter	n/a
45.196	6.1445	90392	prompt	n/a	warehouse quest ever apparently\n
45.9095	0.164	91819	keystroke_w	w	n/a
46.0285	0.121	92057	keystroke_a	a	n/a
46.2245	0.1195	92449	keystroke_r	r	n/a
46.314	0.15	92628	keystroke_e	e	n/a
46.689	0.105	93378	keystroke_h	h	n/a
46.899	0.135	93798	keystroke_o	o	n/a
46.989	0.09	93978	keystroke_u	u	n/a
47.124	0.195	94248	keystroke_s	s	n/a
47.259	0.135	94518	keystroke_e	e	n/a
47.4685	0.105	94937	keystroke_Key.space	Key.space	n/a
47.859	0.09	95718	keystroke_q	q	n/a
47.979	0.09	95958	keystroke_u	u	n/a
48.084	0.1045	96168	keystroke_e	e	n/a
48.204	0.1195	96408	keystroke_s	s	n/a
48.444	0.09	96888	keystroke_t	t	n/a
48.579	0.105	97158	keystroke_Key.space	Key.space	n/a
48.819	0.105	97638	keystroke_e	e	n/a
49.0735	0.075	98147	keystroke_v	v	n/a
49.194	0.149	98388	keystroke_e	e	n/a
49.3145	0.1045	98629	keystroke_r	r	n/a
49.4485	0.105	98897	keystroke_Key.space	Key.space	n/a
49.6735	0.0755	99347	keystroke_a	a	n/a
49.8395	0.045	99679	keystroke_p	p	n/a
49.9595	0.059	99919	keystroke_p	p	n/a
50.0645	0.105	100129	keystroke_a	a	n/a
50.2285	0.12	100457	keystroke_r	r	n/a
50.334	0.12	100668	keystroke_e	e	n/a
50.4835	0.105	100967	keystroke_n	n	n/a
50.6045	0.105	101209	keystroke_t	t	n/a
50.799	0.075	101598	keystroke_l	l	n/a
50.919	0.06	101838	keystroke_y	y	n/a
51.249	0.0895	102498	keystroke_Key.enter	Key.enter	n/a
51.3445	6.2815	102689	prompt	n/a	xhtml draft sterling thirty\n
52.4485	0.046	104897	keystroke_x	x	n/a
52.5835	0.0905	105167	keystroke_h	h	n/a
52.734	0.105	105468	keystroke_t	t	n/a
52.944	0.0905	105888	keystroke_m	m	n/a
53.1835	0.061	106367	keystroke_l	l	n/a
53.3785	0.0905	106757	keystroke_Key.space	Key.space	n/a
53.679	0.1655	107358	keystroke_d	d	n/a
53.949	0.15	107898	keystroke_r	r	n/a
54.0845	0.1645	108169	keystroke_a	a	n/a
54.369	0.105	108738	keystroke_f	f	n/a
54.609	0.0905	109218	keystroke_t	t	n/a
54.774	0.06	109548	keystroke_Key.space	Key.space	n/a
54.9995	0.1345	109999	keystroke_s	s	n/a
55.194	0.105	110388	keystroke_t	t	n/a
55.314	0.135	110628	keystroke_e	e	n/a
55.418	0.1065	110836	keystroke_r	r	n/a
55.584	0.0895	111168	keystroke_l	l	n/a
55.839	0.165	111678	keystroke_i	i	n/a
55.9585	0.1055	111917	keystroke_n	n	n/a
56.0785	0.105	112157	keystroke_g	g	n/a
56.1845	0.089	112369	keystroke_Key.space	Key.space	n/a
56.409	0.09	112818	keystroke_t	t	n/a
56.5285	0.0905	113057	keystroke_h	h	n/a
56.6635	0.105	113327	keystroke_i	i	n/a
56.8285	0.09	113657	keystroke_r	r	n/a
57.054	0.1205	114108	keystroke_t	t	n/a
57.204	0.105	114408	keystroke_y	y	n/a
57.549	0.0745	115098	keystroke_Key.enter	Key.enter	n/a
57.632	12.1885	115264	prompt	n/a	actively continue bridal arbitration\n
58.269	0.0155	116538	keystroke_s	s	n/a
58.509	0.06	117018	keystroke_Key.backspace	Key.backspace	n/a
58.584	0.12	117168	keystroke_a	a	n/a
59.229	0.105	118458	keystroke_c	c	n/a
59.4845	0.089	118969	keystroke_t	t	n/a
59.6185	0.106	119237	keystroke_i	i	n/a
59.7545	0.105	119509	keystroke_v	v	n/a
60.19	0.1345	120380	keystroke_e	e	n/a
60.294	0.0895	120588	keystroke_r	r	n/a
60.3985	0.1055	120797	keystroke_l	l	n/a
60.6395	0.0745	121279	keystroke_y	y	n/a
60.909	0.015	121818	keystroke_Key.space	Key.space	n/a
61.1795	0.105	122359	keystroke_c	c	n/a
61.254	0.0905	122508	keystroke_o	o	n/a
61.824	0.0595	123648	keystroke_Key.backspace	Key.backspace	n/a
61.9885	0.0605	123977	keystroke_Key.backspace	Key.backspace	n/a
62.1535	0.045	124307	keystroke_Key.backspace	Key.backspace	n/a
62.319	0.06	124638	keystroke_Key.backspace	Key.backspace	n/a
62.499	0.045	124998	keystroke_Key.backspace	Key.backspace	n/a
62.784	0.09	125568	keystroke_Key.backspace	Key.backspace	n/a
63.4445	0.0745	126889	keystroke_l	l	n/a
63.6695	0.074	127339	keystroke_y	y	n/a
63.7585	0.12	127517	keystroke_Key.space	Key.space	n/a
64.0735	0.015	128147	keystroke_c	c	n/a
64.1485	0.0905	128297	keystroke_o	o	n/a
64.3745	0.09	128749	keystroke_n	n	n/a
65.1395	0.105	130279	keystroke_t	t	n/a
65.3945	0.09	130789	keystroke_i	i	n/a
65.5745	0.165	131149	keystroke_n	n	n/a
65.7085	0.136	131417	keystroke_u	u	n/a
65.934	0.0905	131868	keystroke_e	e	n/a
66.1735	0.105	132347	keystroke_Key.space	Key.space	n/a
66.6995	0.089	133399	keystroke_b	b	n/a
66.8045	0.089	133609	keystroke_r	r	n/a
66.954	0.0595	133908	keystroke_i	i	n/a
67.0735	0.135	134147	keystroke_d	d	n/a
67.1935	0.106	134387	keystroke_a	a	n/a
67.3745	0.075	134749	keystroke_l	l	n/a
67.4785	0.105	134957	keystroke_Key.space	Key.space	n/a
67.7045	0.12	135409	keystroke_a	a	n/a
68.004	0.0905	136008	keystroke_r	r	n/a
68.1695	0.104	136339	keystroke_b	b	n/a
68.3185	0.1205	136637	keystroke_i	i	n/a
68.5135	0.135	137027	keystroke_t	t	n/a
68.7695	0.135	137539	keystroke_r	r	n/a
68.9045	0.15	137809	keystroke_a	a	n/a
69.069	0.105	138138	keystroke_t	t	n/a
69.205	0.1345	138410	keystroke_i	i	n/a
69.3095	0.075	138619	keystroke_o	o	n/a
69.5045	0.09	139009	keystroke_n	n	n/a
69.744	0.075	139488	keystroke_Key.enter	Key.enter	n/a
69.8275	6.8785	139655	prompt	n/a	she'll skirt coin announced\n
70.4795	0.12	140959	keystroke_s	s	n/a
70.584	0.105	141168	keystroke_h	h	n/a
70.704	0.0755	141408	keystroke_e	e	n/a
70.944	0.031	141888	keystroke_'	'	n/a
71.9945	0.06	143989	keystroke_l	l	n/a
72.1295	0.075	144259	keystroke_l	l	n/a
72.2645	0.12	144529	keystroke_Key.space	Key.space	n/a
72.759	0.1055	145518	keystroke_s	s	n/a
72.879	0.075	145758	keystroke_k	k	n/a
73.074	0.075	146148	keystroke_i	i	n/a
73.194	0.105	146388	keystroke_r	r	n/a
73.39	0.1035	146780	keystroke_t	t	n/a
73.5535	0.09	147107	keystroke_Key.space	Key.space	n/a
73.8985	0.105	147797	keystroke_c	c	n/a
73.9885	0.076	147977	keystroke_o	o	n/a
74.2285	0.075	148457	keystroke_i	i	n/a
74.469	0.105	148938	keystroke_n	n	n/a
74.694	0.09	149388	keystroke_Key.space	Key.space	n/a
74.949	0.09	149898	keystroke_a	a	n/a
75.279	0.0755	150558	keystroke_n	n	n/a
75.4145	0.0895	150829	keystroke_n	n	n/a
75.624	0.12	151248	keystroke_o	o	n/a
75.729	0.075	151458	keystroke_u	u	n/a
75.924	0.1205	151848	keystroke_n	n	n/a
76.104	0.105	152208	keystroke_c	c	n/a
76.239	0.1055	152478	keystroke_e	e	n/a
76.449	0.09	152898	keystroke_d	d	n/a
76.599	0.105	153198	keystroke_Key.enter	Key.enter	n/a
76.71	7.496	153420	prompt	n/a	major frozen william gale\n
77.3495	0.075	154699	keystroke_m	m	n/a
77.4835	0.106	154967	keystroke_a	a	n/a
77.6795	0.089	155359	keystroke_j	j	n/a
77.8585	0.0605	155717	keystroke_o	o	n/a
77.994	0.075	155988	keystroke_r	r	n/a
78.1435	0.105	156287	keystroke_Key.space	Key.space	n/a
78.5645	0.1345	157129	keystroke_f	f	n/a
79.014	0.15	158028	keystroke_r	r	n/a
79.179	0.1355	158358	keystroke_a	a	n/a
80.0035	0.09	160007	keystroke_o	o	n/a
80.424	0.06	160848	keystroke_Key.backspace	Key.backspace	n/a
80.574	0.06	161148	keystroke_Key.backspace	Key.backspace	n/a
80.799	0.1055	161598	keystroke_o	o	n/a
81.069	0.1055	162138	keystroke_z	z	n/a
81.2345	0.1045	162469	keystroke_e	e	n/a
81.4295	0.105	162859	keystroke_n	n	n/a
81.579	0.1205	163158	keystroke_Key.space	Key.space	n/a
81.7885	0.106	163577	keystroke_w	w	n/a
81.9395	0.089	163879	keystroke_i	i	n/a
82.1635	0.0755	164327	keystroke_l	l	n/a
82.3	0.059	164600	keystroke_l	l	n/a
82.479	0.075	164958	keystroke_i	i	n/a
82.599	0.09	165198	keystroke_a	a	n/a
82.7945	0.12	165589	keystroke_m	m	n/a
82.944	0.1045	165888	keystroke_Key.space	Key.space	n/a
83.484	0.075	166968	keystroke_g	g	n/a
83.664	0.1055	167328	keystroke_a	a	n/a
83.829	0.075	167658	keystroke_l	l	n/a
83.964	0.105	167928	keystroke_e	e	n/a
84.129	0.075	168258	keystroke_Key.enter	Key.enter	n/a
84.2105	12.5655	168421	prompt	n/a	untitled baptist charter tennessee\n
85.059	0.0905	170118	keystroke_u	u	n/a
85.2545	0.0745	170509	keystroke_n	n	n/a
85.4045	0.0595	170809	keystroke_i	i	n/a
85.5545	0.1055	171109	keystroke_t	t	n/a
86.304	0.06	172608	keystroke_Key.backspace	Key.backspace	n/a
86.439	0.0755	172878	keystroke_Key.backspace	Key.backspace	n/a
86.5445	0.135	173089	keystroke_t	t	n/a
86.7395	0.075	173479	keystroke_i	i	n/a
86.8595	0.135	173719	keystroke_t	t	n/a
87.5495	0.0895	175099	keystroke_l	l	n/a
87.654	0.0745	175308	keystroke_e	e	n/a
87.8945	0.1045	175789	keystroke_d	d	n/a
88.089	0.09	176178	keystroke_Key.space	Key.space	n/a
88.479	0.0755	176958	keystroke_b	b	n/a
88.599	0.091	177198	keystroke_a	a	n/a
88.734	0.06	177468	keystroke_p	p	n/a
88.869	0.1055	177738	keystroke_t	t	n/a
89.1395	0.0595	178279	keystroke_u	u	n/a
89.589	0.06	179178	keystroke_Key.backspace	Key.backspace	n/a
89.814	0.0755	179628	keystroke_i	i	n/a
89.9345	0.1645	179869	keystroke_s	s	n/a
90.084	0.12	180168	keystroke_t	t	n/a
90.2635	0.091	180527	keystroke_Key.space	Key.space	n/a
90.5785	0.121	181157	keystroke_c	c	n/a
90.7145	0.089	181429	keystroke_h	h	n/a
90.8485	0.121	181697	keystroke_a	a	n/a
90.9845	0.104	181969	keystroke_r	r	n/a
91.24	0.074	182480	keystroke_t	t	n/a
91.329	0.18	182658	keystroke_e	e	n/a
91.494	0.0905	182988	keystroke_r	r	n/a
91.6435	0.105	183287	keystroke_Key.space	Key.space	n/a
92.0795	0.105	184159	keystroke_t	t	n/a
92.1545	0.12	184309	keystroke_e	e	n/a
92.3195	0.105	184639	keystroke_n	n	n/a
92.5445	0.075	185089	keystroke_e	e	n/a
92.9795	0.075	185959	keystroke_Key.backspace	Key.backspace	n/a
93.2795	0.0895	186559	keystroke_n	n	n/a
93.444	0.1055	186888	keystroke_e	e	n/a
94.1195	0.0755	188239	keystroke_s	s	n/a
94.285	0.089	188570	keystroke_s	s	n/a
94.5695	0.089	189139	keystroke_e	e	n/a
94.8695	0.0895	189739	keystroke_e	e	n/a
96.6695	0.105	193339	keystroke_Key.enter	Key.enter	n/a
96.78	10.6015	193560	prompt	n/a	available blocking sponsorship diamonds\n
97.5395	0.105	195079	keystroke_a	a	n/a
97.8095	0.09	195619	keystroke_v	v	n/a
98.0045	0.0595	196009	keystroke_a	a	n/a
98.214	0.075	196428	keystroke_i	i	n/a
98.679	0.0905	197358	keystroke_l	l	n/a
98.8735	0.106	197747	keystroke_a	a	n/a
99.0545	0.105	198109	keystroke_b	b	n/a
99.3245	0.06	198649	keystroke_l	l	n/a
99.5195	0.075	199039	keystroke_e	e	n/a
99.729	0.075	199458	keystroke_Key.space	Key.space	n/a
100.104	0.09	200208	keystroke_b	b	n/a
100.329	0.0455	200658	keystroke_l	l	n/a
100.494	0.075	200988	keystroke_o	o	n/a
100.584	0.105	201168	keystroke_c	c	n/a
100.7035	0.091	201407	keystroke_k	k	n/a
100.899	0.1355	201798	keystroke_i	i	n/a
101.0045	0.12	202009	keystroke_n	n	n/a
101.139	0.09	202278	keystroke_g	g	n/a
101.289	0.09	202578	keystroke_Key.space	Key.space	n/a
101.6335	0.091	203267	keystroke_s	s	n/a
101.7545	0.09	203509	keystroke_p	p	n/a
101.9945	0.075	203989	keystroke_o	o	n/a
102.2795	0.075	204559	keystroke_n	n	n/a
102.4295	0.1045	204859	keystroke_s	s	n/a
102.655	0.074	205310	keystroke_o	o	n/a
102.7595	0.09	205519	keystroke_r	r	n/a
103.0895	0.12	206179	keystroke_s	s	n/a
103.2245	0.075	206449	keystroke_h	h	n/a
103.4645	0.09	206929	keystroke_i	i	n/a
103.6145	0.06	207229	keystroke_p	p	n/a
103.809	0.0605	207618	keystroke_Key.space	Key.space	n/a
104.47	0.074	208940	keystroke_d	d	n/a
104.5595	0.0595	209119	keystroke_i	i	n/a
104.6935	0.106	209387	keystroke_a	a	n/a
104.8295	0.09	209659	keystroke_m	m	n/a
105.0095	0.059	210019	keystroke_o	o	n/a
105.2045	0.075	210409	keystroke_n	n	n/a
105.4895	0.0445	210979	keystroke_g	g	n/a
105.8945	0.06	211789	keystroke_Key.backspace	Key.backspace	n/a
105.9845	0.135	211969	keystroke_f	f	n/a
106.3145	0.075	212629	keystroke_s	s	n/a
106.5995	0.06	213199	keystroke_Key.backspace	Key.backspace	n/a
106.734	0.075	213468	keystroke_Key.backspace	Key.backspace	n/a
106.81	0.194	213620	keystroke_d	d	n/a
106.9895	0.0445	213979	keystroke_s	s	n/a
107.3035	0.075	214607	keystroke_Key.enter	Key.enter	n/a
107.3865	6.7145	214773	prompt	n/a	shaved belgium gale adam\n
108.0845	0.075	216169	keystroke_s	s	n/a
108.1745	0.105	216349	keystroke_h	h	n/a
108.5195	0.165	217039	keystroke_a	a	n/a
108.9245	0.09	217849	keystroke_v	v	n/a
109.1045	0.105	218209	keystroke_e	e	n/a
109.314	0.1055	218628	keystroke_d	d	n/a
109.4795	0.0895	218959	keystroke_Key.space	Key.space	n/a
109.779	0.0755	219558	keystroke_b	b	n/a
109.914	0.0755	219828	keystroke_e	e	n/a
110.0495	0.0895	220099	keystroke_l	l	n/a
110.2295	0.105	220459	keystroke_g	g	n/a
111.084	0.1495	222168	keystroke_i	i	n/a
111.2035	0.105	222407	keystroke_u	u	n/a
111.4595	0.089	222919	keystroke_m	m	n/a
111.6545	0.09	223309	keystroke_Key.space	Key.space	n/a
112.0445	0.06	224089	keystroke_g	g	n/a
112.2245	0.1055	224449	keystroke_a	a	n/a
112.3745	0.075	224749	keystroke_l	l	n/a
112.4945	0.09	224989	keystroke_e	e	n/a
112.615	0.104	225230	keystroke_Key.space	Key.space	n/a
113.1845	0.1195	226369	keystroke_a	a	n/a
113.3195	0.105	226639	keystroke_d	d	n/a
113.439	0.09	226878	keystroke_a	a	n/a
113.7095	0.1045	227419	keystroke_m	m	n/a
114.024	0.075	228048	keystroke_Key.enter	Key.enter	n/a
114.1055	6.1305	228211	prompt	n/a	automobiles muscles todd younger\n
114.8045	0.1355	229609	keystroke_a	a	n/a
114.9545	0.09	229909	keystroke_u	u	n/a
115.1045	0.1205	230209	keystroke_t	t	n/a
115.2395	0.09	230479	keystroke_o	o	n/a
115.464	0.106	230928	keystroke_m	m	n/a
115.6595	0.09	231319	keystroke_o	o	n/a
115.884	0.09	231768	keystroke_b	b	n/a
116.0495	0.075	232099	keystroke_i	i	n/a
116.2595	0.06	232519	keystroke_l	l	n/a
116.3795	0.075	232759	keystroke_e	e	n/a
116.4845	0.105	232969	keystroke_s	s	n/a
116.6345	0.105	233269	keystroke_Key.space	Key.space	n/a
116.8895	0.075	233779	keystroke_m	m	n/a
117.0995	0.075	234199	keystroke_u	u	n/a
117.204	0.0905	234408	keystroke_s	s	n/a
117.385	0.1185	234770	keystroke_c	c	n/a
117.5345	0.075	235069	keystroke_l	l	n/a
117.6695	0.104	235339	keystroke_e	e	n/a
117.8045	0.0895	235609	keystroke_s	s	n/a
117.939	0.0905	235878	keystroke_Key.space	Key.space	n/a
118.1795	0.075	236359	keystroke_t	t	n/a
118.3145	0.075	236629	keystroke_o	o	n/a
118.54	0.0745	237080	keystroke_d	d	n/a
118.6895	0.09	237379	keystroke_d	d	n/a
118.8245	0.105	237649	keystroke_Key.space	Key.space	n/a
119.1695	0.075	238339	keystroke_y	y	n/a
119.3195	0.105	238639	keystroke_o	o	n/a
119.4095	0.075	238819	keystroke_u	u	n/a
119.6195	0.09	239239	keystroke_n	n	n/a
119.7545	0.09	239509	keystroke_g	g	n/a
119.8595	0.165	239719	keystroke_e	e	n/a
119.9945	0.12	239989	keystroke_r	r	n/a
120.1295	0.105	240259	keystroke_Key.enter	Key.enter	n/a
120.241	13.9	240482	prompt	n/a	tactics luggage anthropology undertaken\n
120.864	0.1045	241728	keystroke_t	t	n/a
120.9845	0.119	241969	keystroke_a	a	n/a
121.1795	0.09	242359	keystroke_c	c	n/a
121.3885	0.061	242777	keystroke_t	t	n/a
121.5245	0.0745	243049	keystroke_i	i	n/a
121.6295	0.1045	243259	keystroke_c	c	n/a
121.779	0.0905	243558	keystroke_s	s	n/a
121.899	0.105	243798	keystroke_Key.space	Key.space	n/a
122.124	0.0755	244248	keystroke_l	l	n/a
122.289	0.0895	244578	keystroke_u	u	n/a
122.4245	0.104	244849	keystroke_g	g	n/a
122.5895	0.089	245179	keystroke_g	g	n/a
122.7995	0.134	245599	keystroke_a	a	n/a
123.2035	0.136	246407	keystroke_g	g	n/a
123.3395	0.119	246679	keystroke_e	e	n/a
123.5485	0.09	247097	keystroke_Key.space	Key.space	n/a
123.789	0.075	247578	keystroke_a	a	n/a
123.9545	0.0895	247909	keystroke_n	n	n/a
124.3295	0.12	248659	keystroke_t	t	n/a
124.4645	0.09	248929	keystroke_h	h	n/a
124.5845	0.0755	249169	keystroke_r	r	n/a
124.8695	0.075	249739	keystroke_o	o	n/a
125.109	0.06	250218	keystroke_p	p	n/a
125.2895	0.0445	250579	keystroke_p	p	n/a
125.6795	0.0595	251359	keystroke_Key.backspace	Key.backspace	n/a
125.965	0.059	251930	keystroke_o	o	n/a
126.1745	0.06	252349	keystroke_l	l	n/a
127.044	0.09	254088	keystroke_o	o	n/a
127.1945	0.09	254389	keystroke_g	g	n/a
127.3895	0.06	254779	keystroke_y	y	n/a
127.5985	0.0755	255197	keystroke_Key.space	Key.space	n/a
128.02	0.1045	256040	keystroke_a	a	n/a
128.4545	0.0895	256909	keystroke_u	u	n/a
128.934	0.0455	257868	keystroke_Key.backspace	Key.backspace	n/a
129.0545	0.0745	258109	keystroke_Key.backspace	Key.backspace	n/a
129.325	0.089	258650	keystroke_u	u	n/a
129.5495	0.09	259099	keystroke_n	n	n/a
129.6545	0.105	259309	keystroke_d	d	n/a
129.7295	0.1505	259459	keystroke_e	e	n/a
129.895	0.1485	259790	keystroke_t	t	n/a
130.0595	0.12	260119	keystroke_a	a	n/a
130.2545	0.074	260509	keystroke_k	k	n/a
130.3895	0.09	260779	keystroke_e	e	n/a
130.5245	0.09	261049	keystroke_n	n	n/a
131.5895	0.074	263179	keystroke_Key.backspace	Key.backspace	n/a
131.7845	0.0595	263569	keystroke_Key.backspace	Key.backspace	n/a
131.9195	0.074	263839	keystroke_Key.backspace	Key.backspace	n/a
132.0835	0.076	264167	keystroke_Key.backspace	Key.backspace	n/a
132.3395	0.074	264679	keystroke_Key.backspace	Key.backspace	n/a
132.9845	0.1055	265969	keystroke_r	r	n/a
133.2845	0.09	266569	keystroke_t	t	n/a
133.389	0.12	266778	keystroke_a	a	n/a
133.555	0.09	267110	keystroke_k	k	n/a
133.6895	0.09	267379	keystroke_e	e	n/a
133.8395	0.09	267679	keystroke_n	n	n/a
134.0935	0.045	268187	keystroke_Key.enter	Key.enter	n/a
134.1445	7.7	268289	prompt	n/a	subsequently prot dream herbs\n
134.8295	0.12	269659	keystroke_s	s	n/a
134.9645	0.075	269929	keystroke_u	u	n/a
135.4445	0.075	270889	keystroke_b	b	n/a
135.8045	0.119	271609	keystroke_s	s	n/a
136.3445	0.134	272689	keystroke_e	e	n/a
136.4945	0.1345	272989	keystroke_q	q	n/a
136.7645	0.1195	273529	keystroke_u	u	n/a
136.9295	0.119	273859	keystroke_e	e	n/a
137.0795	0.105	274159	keystroke_n	n	n/a
137.3185	0.105	274637	keystroke_t	t	n/a
137.4545	0.09	274909	keystroke_l	l	n/a
137.6795	0.09	275359	keystroke_y	y	n/a
137.889	0.075	275778	keystroke_Key.space	Key.space	n/a
138.8645	0.075	277729	keystroke_p	p	n/a
138.9995	0.104	277999	keystroke_r	r	n/a
139.1485	0.076	278297	keystroke_o	o	n/a
139.284	0.09	278568	keystroke_t	t	n/a
139.404	0.0905	278808	keystroke_Key.space	Key.space	n/a
139.854	0.075	279708	keystroke_d	d	n/a
140.0495	0.0895	280099	keystroke_r	r	n/a
140.2295	0.105	280459	keystroke_e	e	n/a
140.3495	0.12	280699	keystroke_a	a	n/a
140.529	0.105	281058	keystroke_m	m	n/a
140.6645	0.1045	281329	keystroke_Key.space	Key.space	n/a
140.9345	0.105	281869	keystroke_h	h	n/a
141.0845	0.12	282169	keystroke_e	e	n/a
141.2645	0.1205	282529	keystroke_r	r	n/a
141.4145	0.1045	282829	keystroke_b	b	n/a
141.579	0.09	283158	keystroke_s	s	n/a
141.7745	0.0595	283549	keystroke_Key.enter	Key.enter	n/a
141.85	13.981	283700	prompt	n/a	purpose lightning directive could've\n
142.3295	0.06	284659	keystroke_s	s	n/a
142.659	0.045	285318	keystroke_Key.backspace	Key.backspace	n/a
142.854	0.0605	285708	keystroke_p	p	n/a
143.0345	0.0895	286069	keystroke_u	u	n/a
143.1695	0.09	286339	keystroke_r	r	n/a
143.4845	0.06	286969	keystroke_p	p	n/a
143.6945	0.06	287389	keystroke_o	o	n/a
143.8895	0.15	287779	keystroke_s	s	n/a
144.0245	0.09	288049	keystroke_e	e	n/a
144.3245	0.0745	288649	keystroke_Key.space	Key.space	n/a
144.8945	0.0745	289789	keystroke_l	l	n/a
145.074	0.075	290148	keystroke_i	i	n/a
145.254	0.075	290508	keystroke_g	g	n/a
145.359	0.1045	290718	keystroke_h	h	n/a
145.4795	0.0905	290959	keystroke_t	t	n/a
145.5845	0.105	291169	keystroke_i	i	n/a
145.7195	0.12	291439	keystroke_n	n	n/a
147.729	0.06	295458	keystroke_Key.backspace	Key.backspace	n/a
147.9995	0.0895	295999	keystroke_Key.backspace	Key.backspace	n/a
148.434	0.105	296868	keystroke_n	n	n/a
148.5995	0.1195	297199	keystroke_i	i	n/a
148.734	0.1055	297468	keystroke_n	n	n/a
148.9295	0.0745	297859	keystroke_g	g	n/a
149.079	0.0905	298158	keystroke_Key.space	Key.space	n/a
149.5	0.1045	299000	keystroke_a	a	n/a
149.8595	0.045	299719	keystroke_Key.backspace	Key.backspace	n/a
149.9645	0.105	299929	keystroke_d	d	n/a
150.145	0.0745	300290	keystroke_i	i	n/a
150.25	0.0895	300500	keystroke_r	r	n/a
150.325	0.1195	300650	keystroke_e	e	n/a
150.5195	0.12	301039	keystroke_c	c	n/a
150.7445	0.1055	301489	keystroke_t	t	n/a
150.8945	0.0745	301789	keystroke_i	i	n/a
151.059	0.1355	302118	keystroke_v	v	n/a
151.2395	0.12	302479	keystroke_e	e	n/a
151.419	0.105	302838	keystroke_Key.space	Key.space	n/a
151.7945	0.0605	303589	keystroke_a	a	n/a
152.1095	0.0595	304219	keystroke_Key.backspace	Key.backspace	n/a
152.274	0.0755	304548	keystroke_c	c	n/a
152.41	0.1345	304820	keystroke_o	o	n/a
152.4995	0.105	304999	keystroke_u	u	n/a
152.965	0.0445	305930	keystroke_l	l	n/a
153.1445	0.09	306289	keystroke_d	d	n/a
153.6695	0.0895	307339	keystroke_v	v	n/a
154.0895	0.105	308179	keystroke_Key.backspace	Key.backspace	n/a
155.11	0.0445	310220	keystroke_'	'	n/a
155.274	0.091	310548	keystroke_v	v	n/a
155.499	0.0755	310998	keystroke_e	e	n/a
155.7545	0.0745	311509	keystroke_Key.enter	Key.enter	n/a
155.8355	7.0305	311671	prompt	n/a	injury alternate factor ebooks\n
156.729	0.12	313458	keystroke_i	i	n/a
156.834	0.091	313668	keystroke_n	n	n/a
157.0445	0.105	314089	keystroke_j	j	n/a
157.7495	0.045	315499	keystroke_u	u	n/a
157.8245	0.09	315649	keystroke_r	r	n/a
157.989	0.0905	315978	keystroke_y	y	n/a
158.2445	0.075	316489	keystroke_Key.space	Key.space	n/a
158.4545	0.09	316909	keystroke_a	a	n/a
158.634	0.061	317268	keystroke_l	l	n/a
158.7845	0.0905	317569	keystroke_t	t	n/a
158.889	0.106	317778	keystroke_e	e	n/a
158.98	0.075	317960	keystroke_r	r	n/a
159.0845	0.0905	318169	keystroke_n	n	n/a
159.1445	0.135	318289	keystroke_a	a	n/a
159.325	0.1195	318650	keystroke_t	t	n/a
159.415	0.1345	318830	keystroke_e	e	n/a
159.5645	0.104	319129	keystroke_Key.space	Key.space	n/a
160.4495	0.075	320899	keystroke_f	f	n/a
160.5695	0.1195	321139	keystroke_a	a	n/a
160.765	0.09	321530	keystroke_c	c	n/a
160.959	0.076	321918	keystroke_t	t	n/a
161.125	0.0445	322250	keystroke_o	o	n/a
161.214	0.075	322428	keystroke_r	r	n/a
161.3195	0.105	322639	keystroke_Key.space	Key.space	n/a
161.6945	0.075	323389	keystroke_e	e	n/a
161.9945	0.09	323989	keystroke_b	b	n/a
162.2345	0.0595	324469	keystroke_o	o	n/a
162.354	0.1355	324708	keystroke_o	o	n/a
162.4745	0.105	324949	keystroke_k	k	n/a
162.6395	0.075	325279	keystroke_s	s	n/a
162.7895	0.075	325579	keystroke_Key.enter	Key.enter	n/a
162.8705	8.756	325741	prompt	n/a	webpage wing administrator rebecca\n
163.6895	0.091	327379	keystroke_w	w	n/a
163.7655	0.09	327531	keystroke_e	e	n/a
163.914	0.091	327828	keystroke_b	b	n/a
164.1845	0.06	328369	keystroke_p	p	n/a
164.2895	0.105	328579	keystroke_a	a	n/a
164.5445	0.12	329089	keystroke_g	g	n/a
164.6655	0.104	329331	keystroke_e	e	n/a
164.8145	0.075	329629	keystroke_Key.space	Key.space	n/a
165.0095	0.0745	330019	keystroke_w	w	n/a
165.13	0.105	330260	keystroke_i	i	n/a
165.2045	0.1205	330409	keystroke_n	n	n/a
165.4605	0.074	330921	keystroke_g	g	n/a
165.9395	0.0745	331879	keystroke_Key.space	Key.space	n/a
166.2395	0.09	332479	keystroke_a	a	n/a
166.389	0.091	332778	keystroke_d	d	n/a
166.51	0.104	333020	keystroke_m	m	n/a
166.645	0.1195	333290	keystroke_i	i	n/a
166.7645	0.09	333529	keystroke_n	n	n/a
166.8695	0.0905	333739	keystroke_i	i	n/a
166.9895	0.1055	333979	keystroke_s	s	n/a
167.1995	0.0755	334399	keystroke_t	t	n/a
167.4095	0.09	334819	keystroke_r	r	n/a
167.664	0.15	335328	keystroke_a	a	n/a
167.9195	0.09	335839	keystroke_t	t	n/a
168.0995	0.0745	336199	keystroke_o	o	n/a
168.234	0.075	336468	keystroke_r	r	n/a
168.519	0.06	337038	keystroke_Key.space	Key.space	n/a
169.2245	0.105	338449	keystroke_r	r	n/a
169.2995	0.135	338599	keystroke_e	e	n/a
169.555	0.0295	339110	keystroke_v	v	n/a
169.7195	0.1055	339439	keystroke_e	e	n/a
170.064	0.0755	340128	keystroke_Key.backspace	Key.backspace	n/a
170.2145	0.06	340429	keystroke_Key.backspace	Key.backspace	n/a
170.4995	0.075	340999	keystroke_b	b	n/a
170.635	0.0895	341270	keystroke_e	e	n/a
170.92	0.0755	341840	keystroke_c	c	n/a
171.069	0.09	342138	keystroke_c	c	n/a
171.235	0.12	342470	keystroke_a	a	n/a
171.5495	0.0745	343099	keystroke_Key.enter	Key.enter	n/a
171.6305	6.536	343261	prompt	n/a	clan netscape enhancement duties\n
172.449	0.105	344898	keystroke_c	c	n/a
172.599	0.0455	345198	keystroke_l	l	n/a
172.6895	0.09	345379	keystroke_a	a	n/a
172.854	0.09	345708	keystroke_n	n	n/a
172.989	0.09	345978	keystroke_Key.space	Key.space	n/a
173.2	0.075	346400	keystroke_n	n	n/a
173.3645	0.135	346729	keystroke_e	e	n/a
173.4845	0.12	346969	keystroke_t	t	n/a
173.785	0.09	347570	keystroke_s	s	n/a
174.07	0.089	348140	keystroke_c	c	n/a
174.279	0.09	348558	keystroke_a	a	n/a
174.505	0.059	349010	keystroke_p	p	n/a
174.6545	0.09	349309	keystroke_e	e	n/a
174.8045	0.09	349609	keystroke_Key.space	Key.space	n/a
175.119	0.06	350238	keystroke_e	e	n/a
175.254	0.076	350508	keystroke_n	n	n/a
175.464	0.0755	350928	keystroke_h	h	n/a
175.57	0.104	351140	keystroke_a	a	n/a
175.72	0.104	351440	keystroke_n	n	n/a
175.885	0.09	351770	keystroke_c	c	n/a
175.99	0.1045	351980	keystroke_e	e	n/a
176.3045	0.09	352609	keystroke_m	m	n/a
176.4395	0.1205	352879	keystroke_e	e	n/a
176.59	0.104	353180	keystroke_n	n	n/a
176.71	0.075	353420	keystroke_t	t	n/a
176.815	0.104	353630	keystroke_Key.space	Key.space	n/a
177.1445	0.0755	354289	keystroke_d	d	n/a
177.2645	0.09	354529	keystroke_u	u	n/a
177.46	0.105	354920	keystroke_t	t	n/a
177.5795	0.09	355159	keystroke_i	i	n/a
177.775	0.0895	355550	keystroke_e	e	n/a
177.8945	0.12	355789	keystroke_s	s	n/a
178.0745	0.09	356149	keystroke_Key.enter	Key.enter	n/a
178.174	7.1775	356348	prompt	n/a	interpreted viewpicture attacked cult\n
178.7645	0.1355	357529	keystroke_i	i	n/a
178.8845	0.075	357769	keystroke_n	n	n/a
179.0195	0.09	358039	keystroke_t	t	n/a
179.125	0.1195	358250	keystroke_e	e	n/a
179.23	0.09	358460	keystroke_r	r	n/a
179.4095	0.075	358819	keystroke_p	p	n/a
179.5595	0.105	359119	keystroke_r	r	n/a
179.6495	0.165	359299	keystroke_e	e	n/a
179.875	0.12	359750	keystroke_t	t	n/a
180.01	0.1045	360020	keystroke_e	e	n/a
180.219	0.105	360438	keystroke_d	d	n/a
180.384	0.12	360768	keystroke_Key.space	Key.space	n/a
180.879	0.075	361758	keystroke_v	v	n/a
181.059	0.0755	362118	keystroke_i	i	n/a
181.18	0.1195	362360	keystroke_e	e	n/a
181.285	0.0895	362570	keystroke_w	w	n/a
181.5845	0.0755	363169	keystroke_p	p	n/a
181.7795	0.0905	363559	keystroke_i	i	n/a
181.914	0.0755	363828	keystroke_c	c	n/a
182.125	0.089	364250	keystroke_t	t	n/a
182.245	0.105	364490	keystroke_u	u	n/a
182.395	0.089	364790	keystroke_r	r	n/a
182.605	0.074	365210	keystroke_e	e	n/a
183.039	0.09	366078	keystroke_Key.space	Key.space	n/a
183.309	0.09	366618	keystroke_a	a	n/a
183.5645	0.046	367129	keystroke_t	t	n/a
183.6995	0.0605	367399	keystroke_t	t	n/a
183.7895	0.1205	367579	keystroke_a	a	n/a
184.0295	0.0755	368059	keystroke_c	c	n/a
184.2095	0.075	368419	keystroke_k	k	n/a
184.3445	0.0605	368689	keystroke_e	e	n/a
184.51	0.075	369020	keystroke_d	d	n/a
184.599	0.075	369198	keystroke_Key.space	Key.space	n/a
184.7345	0.1055	369469	keystroke_c	c	n/a
184.824	0.106	369648	keystroke_u	u	n/a
185.02	0.0745	370040	keystroke_l	l	n/a
185.1395	0.09	370279	keystroke_t	t	n/a
185.26	0.0895	370520	keystroke_Key.enter	Key.enter	n/a
185.3555	6.386	370711	prompt	n/a	farmers revenge struggle pledge\n
186.1	0.0895	372200	keystroke_f	f	n/a
186.2945	0.1505	372589	keystroke_a	a	n/a
186.46	0.075	372920	keystroke_r	r	n/a
186.595	0.089	373190	keystroke_m	m	n/a
186.729	0.0905	373458	keystroke_e	e	n/a
186.924	0.076	373848	keystroke_r	r	n/a
187.0745	0.1055	374149	keystroke_s	s	n/a
187.2245	0.0905	374449	keystroke_Key.space	Key.space	n/a
187.6595	0.0905	375319	keystroke_r	r	n/a
187.7505	0.089	375501	keystroke_e	e	n/a
187.9595	0.075	375919	keystroke_v	v	n/a
188.079	0.075	376158	keystroke_e	e	n/a
188.2145	0.075	376429	keystroke_n	n	n/a
188.3195	0.135	376639	keystroke_g	g	n/a
188.4845	0.09	376969	keystroke_e	e	n/a
188.6495	0.09	377299	keystroke_Key.space	Key.space	n/a
189.0245	0.075	378049	keystroke_s	s	n/a
189.1745	0.075	378349	keystroke_t	t	n/a
189.3245	0.09	378649	keystroke_r	r	n/a
189.49	0.0895	378980	keystroke_u	u	n/a
189.5945	0.075	379189	keystroke_g	g	n/a
189.73	0.0745	379460	keystroke_g	g	n/a
189.8945	0.0605	379789	keystroke_l	l	n/a
190	0.074	380000	keystroke_e	e	n/a
190.179	0.09	380358	keystroke_Key.space	Key.space	n/a
190.4795	0.0445	380959	keystroke_p	p	n/a
190.6745	0.0605	381349	keystroke_l	l	n/a
190.8395	0.075	381679	keystroke_e	e	n/a
191.0045	0.09	382009	keystroke_d	d	n/a
191.245	0.09	382490	keystroke_g	g	n/a
191.38	0.105	382760	keystroke_e	e	n/a
191.635	0.105	383270	keystroke_Key.enter	Key.enter	n/a
191.746	7.3	383492	prompt	n/a	shirts early overhead molecular\n
192.355	0.105	384710	keystroke_s	s	n/a
192.4745	0.09	384949	keystroke_h	h	n/a
192.5645	0.09	385129	keystroke_i	i	n/a
192.7145	0.1055	385429	keystroke_r	r	n/a
192.925	0.1355	385850	keystroke_t	t	n/a
193.0615	0.103	386123	keystroke_s	s	n/a
193.345	0.09	386690	keystroke_Key.space	Key.space	n/a
193.645	0.075	387290	keystroke_e	e	n/a
193.8695	0.195	387739	keystroke_a	a	n/a
194.154	0.1055	388308	keystroke_r	r	n/a
194.3205	0.104	388641	keystroke_l	l	n/a
194.6355	0.0595	389271	keystroke_y	y	n/a
195.01	0.06	390020	keystroke_Key.space	Key.space	n/a
195.3995	0.09	390799	keystroke_o	o	n/a
195.5195	0.075	391039	keystroke_v	v	n/a
195.6845	0.075	391369	keystroke_e	e	n/a
195.7445	0.09	391489	keystroke_r	r	n/a
195.88	0.075	391760	keystroke_h	h	n/a
195.9995	0.12	391999	keystroke_e	e	n/a
196.105	0.1345	392210	keystroke_a	a	n/a
196.2245	0.12	392449	keystroke_d	d	n/a
196.3595	0.09	392719	keystroke_Key.space	Key.space	n/a
196.6895	0.105	393379	keystroke_m	m	n/a
196.93	0.06	393860	keystroke_o	o	n/a
197.1095	0.075	394219	keystroke_l	l	n/a
197.2745	0.075	394549	keystroke_e	e	n/a
197.965	0.0895	395930	keystroke_c	c	n/a
198.0845	0.09	396169	keystroke_u	u	n/a
198.3545	0.075	396709	keystroke_l	l	n/a
198.55	0.135	397100	keystroke_a	a	n/a
198.7	0.09	397400	keystroke_r	r	n/a
198.97	0.0745	397940	keystroke_Key.enter	Key.enter	n/a
199.0495	8.487	398099	prompt	n/a	activation found sensitivity curve\n
199.7195	0.12	399439	keystroke_a	a	n/a
199.9595	0.105	399919	keystroke_c	c	n/a
200.2	0.0745	400400	keystroke_t	t	n/a
200.4545	0.015	400909	keystroke_i	i	n/a
200.5155	0.0885	401031	keystroke_v	v	n/a
200.7845	0.1205	401569	keystroke_a	a	n/a
200.9495	0.0905	401899	keystroke_t	t	n/a
201.0995	0.135	402199	keystroke_i	i	n/a
201.2355	0.059	402471	keystroke_o	o	n/a
201.4295	0.105	402859	keystroke_n	n	n/a
201.5495	0.09	403099	keystroke_Key.space	Key.space	n/a
201.8795	0.12	403759	keystroke_d	d	n/a
201.9845	0.1505	403969	keystroke_o	o	n/a
202.0895	0.105	404179	keystroke_u	u	n/a
202.4945	0.045	404989	keystroke_Key.backspace	Key.backspace	n/a
202.6145	0.0755	405229	keystroke_Key.backspace	Key.backspace	n/a
202.7645	0.06	405529	keystroke_Key.backspace	Key.backspace	n/a
202.8845	0.09	405769	keystroke_f	f	n/a
203.0345	0.1355	406069	keystroke_o	o	n/a
203.1245	0.0755	406249	keystroke_u	u	n/a
203.35	0.09	406700	keystroke_n	n	n/a
203.4695	0.105	406939	keystroke_d	d	n/a
203.6195	0.12	407239	keystroke_Key.space	Key.space	n/a
204.04	0.1645	408080	keystroke_s	s	n/a
204.19	0.06	408380	keystroke_e	e	n/a
204.264	0.105	408528	keystroke_n	n	n/a
204.3845	0.1195	408769	keystroke_s	s	n/a
204.549	0.09	409098	keystroke_i	i	n/a
204.624	0.1055	409248	keystroke_t	t	n/a
204.7895	0.105	409579	keystroke_i	i	n/a
205	0.0895	410000	keystroke_v	v	n/a
205.15	0.119	410300	keystroke_i	i	n/a
205.33	0.1045	410660	keystroke_t	t	n/a
205.6445	0.1055	411289	keystroke_y	y	n/a
206.0045	0.0755	412009	keystroke_Key.space	Key.space	n/a
206.694	0.106	413388	keystroke_c	c	n/a
206.815	0.09	413630	keystroke_u	u	n/a
206.935	0.0895	413870	keystroke_r	r	n/a
207.175	0.1195	414350	keystroke_v	v	n/a
207.339	0.105	414678	keystroke_e	e	n/a
207.4595	0.0745	414919	keystroke_Key.enter	Key.enter	n/a
207.541	6.3855	415082	prompt	n/a	binary midi cameras lycos\n
208.8405	0.104	417681	keystroke_b	b	n/a
208.99	0.105	417980	keystroke_i	i	n/a
209.1395	0.09	418279	keystroke_n	n	n/a
209.245	0.135	418490	keystroke_a	a	n/a
209.38	0.075	418760	keystroke_r	r	n/a
209.4845	0.09	418969	keystroke_y	y	n/a
209.5895	0.135	419179	keystroke_Key.space	Key.space	n/a
209.785	0.1195	419570	keystroke_m	m	n/a
209.9345	0.0905	419869	keystroke_i	i	n/a
210.0695	0.075	420139	keystroke_d	d	n/a
210.1745	0.09	420349	keystroke_i	i	n/a
210.339	0.12	420678	keystroke_Key.space	Key.space	n/a
210.6995	0.09	421399	keystroke_c	c	n/a
211.044	0.12	422088	keystroke_a	a	n/a
211.194	0.09	422388	keystroke_m	m	n/a
211.314	0.121	422628	keystroke_e	e	n/a
211.5095	0.0895	423019	keystroke_r	r	n/a
211.6145	0.2095	423229	keystroke_a	a	n/a
211.825	0.089	423650	keystroke_s	s	n/a
212.019	0.045	424038	keystroke_Key.space	Key.space	n/a
212.3045	0.165	424609	keystroke_l	l	n/a
212.4845	0.0605	424969	keystroke_y	y	n/a
212.6195	0.12	425239	keystroke_c	c	n/a
213.116	0.074	426232	keystroke_o	o	n/a
213.28	0.09	426560	keystroke_s	s	n/a
213.835	0.09	427670	keystroke_Key.enter	Key.enter	n/a
213.931	6.881	427862	prompt	n/a	including mods contrast miniature\n
214.48	0.045	428960	keystroke_n	n	n/a
214.885	0.06	429770	keystroke_Key.backspace	Key.backspace	n/a
215.1395	0.12	430279	keystroke_i	i	n/a
215.23	0.1195	430460	keystroke_n	n	n/a
215.59	0.105	431180	keystroke_c	c	n/a
215.7545	0.135	431509	keystroke_l	l	n/a
215.86	0.1195	431720	keystroke_u	u	n/a
215.995	0.0895	431990	keystroke_d	d	n/a
216.0995	0.135	432199	keystroke_i	i	n/a
216.2045	0.105	432409	keystroke_n	n	n/a
216.3245	0.09	432649	keystroke_g	g	n/a
216.4745	0.15	432949	keystroke_Key.space	Key.space	n/a
216.7445	0.0445	433489	keystroke_m	m	n/a
216.8345	0.0745	433669	keystroke_o	o	n/a
216.9695	0.09	433939	keystroke_d	d	n/a
217.1205	0.1335	434241	keystroke_s	s	n/a
217.269	0.105	434538	keystroke_Key.space	Key.space	n/a
217.569	0.091	435138	keystroke_c	c	n/a
217.675	0.134	435350	keystroke_o	o	n/a
217.899	0.091	435798	keystroke_n	n	n/a
218.275	0.0895	436550	keystroke_t	t	n/a
218.4545	0.12	436909	keystroke_r	r	n/a
218.605	0.1795	437210	keystroke_a	a	n/a
218.7545	0.1355	437509	keystroke_s	s	n/a
218.92	0.0895	437840	keystroke_t	t	n/a
219.0695	0.09	438139	keystroke_Key.space	Key.space	n/a
219.2045	0.1805	438409	keystroke_m	m	n/a
219.3695	0.12	438739	keystroke_i	i	n/a
219.6095	0.12	439219	keystroke_n	n	n/a
219.7595	0.1205	439519	keystroke_i	i	n/a
219.9245	0.1045	439849	keystroke_a	a	n/a
220.1195	0.09	440239	keystroke_t	t	n/a
220.3	0.1045	440600	keystroke_u	u	n/a
220.419	0.076	440838	keystroke_r	r	n/a
220.5845	0.075	441169	keystroke_e	e	n/a
220.7345	0.075	441469	keystroke_Key.enter	Key.enter	n/a
220.8165	6.6545	441633	prompt	n/a	expectations refers alumni jesse\n
221.365	0.0905	442730	keystroke_e	e	n/a
221.6045	0.075	443209	keystroke_x	x	n/a
221.7845	0.045	443569	keystroke_p	p	n/a
221.8745	0.075	443749	keystroke_e	e	n/a
222.0995	0.075	444199	keystroke_c	c	n/a
222.4595	0.0755	444919	keystroke_t	t	n/a
222.7595	0.135	445519	keystroke_a	a	n/a
222.9245	0.0755	445849	keystroke_t	t	n/a
223.0145	0.135	446029	keystroke_i	i	n/a
223.12	0.075	446240	keystroke_o	o	n/a
223.3745	0.075	446749	keystroke_n	n	n/a
223.4505	0.0895	446901	keystroke_s	s	n/a
223.6145	0.075	447229	keystroke_Key.space	Key.space	n/a
223.8395	0.165	447679	keystroke_r	r	n/a
224.0195	0.106	448039	keystroke_e	e	n/a
224.1405	0.1045	448281	keystroke_f	f	n/a
224.2595	0.105	448519	keystroke_e	e	n/a
224.3495	0.105	448699	keystroke_r	r	n/a
224.5145	0.105	449029	keystroke_s	s	n/a
224.755	0.074	449510	keystroke_Key.space	Key.space	n/a
225.2195	0.1055	450439	keystroke_a	a	n/a
225.34	0.0895	450680	keystroke_l	l	n/a
225.5045	0.105	451009	keystroke_u	u	n/a
225.715	0.075	451430	keystroke_m	m	n/a
225.9095	0.0605	451819	keystroke_n	n	n/a
226.075	0.0295	452150	keystroke_i	i	n/a
226.224	0.09	452448	keystroke_Key.space	Key.space	n/a
226.57	0.0895	453140	keystroke_j	j	n/a
226.6895	0.09	453379	keystroke_e	e	n/a
226.8545	0.09	453709	keystroke_s	s	n/a
227.005	0.105	454010	keystroke_s	s	n/a
227.185	0.074	454370	keystroke_e	e	n/a
227.38	0.089	454760	keystroke_Key.enter	Key.enter	n/a
227.4755	6.566	454951	prompt	n/a	peninsula follows track juan\n
228.19	0.0605	456380	keystroke_e	e	n/a
228.265	0.0595	456530	keystroke_p	p	n/a
228.6255	0.059	457251	keystroke_Key.backspace	Key.backspace	n/a
228.7445	0.09	457489	keystroke_Key.backspace	Key.backspace	n/a
228.985	0.075	457970	keystroke_p	p	n/a
229.105	0.09	458210	keystroke_e	e	n/a
229.239	0.091	458478	keystroke_n	n	n/a
229.645	0.0295	459290	keystroke_i	i	n/a
229.9595	0.09	459919	keystroke_n	n	n/a
230.185	0.09	460370	keystroke_s	s	n/a
230.3345	0.09	460669	keystroke_u	u	n/a
230.53	0.075	461060	keystroke_l	l	n/a
230.665	0.09	461330	keystroke_a	a	n/a
230.7395	0.1055	461479	keystroke_Key.space	Key.space	n/a
230.995	0.09	461990	keystroke_f	f	n/a
231.13	0.06	462260	keystroke_o	o	n/a
231.31	0.06	462620	keystroke_l	l	n/a
231.43	0.09	462860	keystroke_l	l	n/a
231.61	0.09	463220	keystroke_o	o	n/a
231.7895	0.075	463579	keystroke_w	w	n/a
231.9995	0.075	463999	keystroke_s	s	n/a
232.0895	0.09	464179	keystroke_Key.space	Key.space	n/a
232.315	0.0905	464630	keystroke_t	t	n/a
232.4795	0.1505	464959	keystroke_r	r	n/a
232.645	0.1345	465290	keystroke_a	a	n/a
232.8095	0.105	465619	keystroke_c	c	n/a
232.9445	0.12	465889	keystroke_k	k	n/a
233.0655	0.1195	466131	keystroke_Key.space	Key.space	n/a
233.3055	0.0745	466611	keystroke_j	j	n/a
233.485	0.0895	466970	keystroke_u	u	n/a
233.59	0.0895	467180	keystroke_a	a	n/a
233.74	0.075	467480	keystroke_n	n	n/a
233.95	0.09	467900	keystroke_Key.enter	Key.enter	n/a
234.046	8.157	468092	prompt	n/a	stock tropical choir contacted\n
234.655	0.09	469310	keystroke_s	s	n/a
234.775	0.105	469550	keystroke_t	t	n/a
235.0595	0.091	470119	keystroke_o	o	n/a
235.2095	0.1055	470419	keystroke_c	c	n/a
235.3455	0.089	470691	keystroke_k	k	n/a
235.465	0.105	470930	keystroke_Key.space	Key.space	n/a
235.6755	0.089	471351	keystroke_t	t	n/a
235.84	0.09	471680	keystroke_r	r	n/a
235.9445	0.0895	471889	keystroke_o	o	n/a
236.139	0.061	472278	keystroke_p	p	n/a
236.35	0.074	472700	keystroke_i	i	n/a
236.4545	0.1205	472909	keystroke_c	c	n/a
236.605	0.135	473210	keystroke_a	a	n/a
236.7555	0.0895	473511	keystroke_l	l	n/a
236.889	0.091	473778	keystroke_Key.space	Key.space	n/a
237.145	0.06	474290	keystroke_h	h	n/a
237.49	0.0445	474980	keystroke_Key.backspace	Key.backspace	n/a
237.67	0.12	475340	keystroke_c	c	n/a
237.8795	0.0905	475759	keystroke_h	h	n/a
238.0895	0.1505	476179	keystroke_o	o	n/a
238.3295	0.0905	476659	keystroke_i	i	n/a
238.5545	0.0905	477109	keystroke_r	r	n/a
238.8245	0.0755	477649	keystroke_Key.space	Key.space	n/a
239.5	0.105	479000	keystroke_c	c	n/a
239.59	0.0755	479180	keystroke_o	o	n/a
239.8	0.105	479600	keystroke_n	n	n/a
239.92	0.09	479840	keystroke_t	t	n/a
241.12	0.1195	482240	keystroke_a	a	n/a
241.4195	0.091	482839	keystroke_c	c	n/a
241.6305	0.0445	483261	keystroke_t	t	n/a
241.7195	0.09	483439	keystroke_e	e	n/a
241.885	0.09	483770	keystroke_d	d	n/a
242.11	0.09	484220	keystroke_Key.enter	Key.enter	n/a
242.2075	8.6185	484415	prompt	n/a	addresses rate yard opened\n
242.83	0.075	485660	keystroke_a	a	n/a
242.995	0.09	485990	keystroke_d	d	n/a
243.145	0.09	486290	keystroke_d	d	n/a
243.67	0.09	487340	keystroke_r	r	n/a
243.865	0.075	487730	keystroke_e	e	n/a
244.075	0.075	488150	keystroke_e	e	n/a
245.0945	0.06	490189	keystroke_Key.backspace	Key.backspace	n/a
245.2755	0.075	490551	keystroke_s	s	n/a
245.4255	0.119	490851	keystroke_s	s	n/a
245.65	0.1045	491300	keystroke_e	e	n/a
245.7845	0.121	491569	keystroke_s	s	n/a
245.9795	0.1055	491959	keystroke_Key.space	Key.space	n/a
246.16	0.1045	492320	keystroke_r	r	n/a
246.25	0.1345	492500	keystroke_a	a	n/a
246.4145	0.12	492829	keystroke_t	t	n/a
246.52	0.0895	493040	keystroke_e	e	n/a
246.6545	0.0905	493309	keystroke_Key.space	Key.space	n/a
247.63	0.0745	495260	keystroke_y	y	n/a
247.75	0.105	495500	keystroke_a	a	n/a
247.84	0.09	495680	keystroke_r	r	n/a
248.005	0.15	496010	keystroke_d	d	n/a
248.215	0.09	496430	keystroke_Key.space	Key.space	n/a
248.485	0.195	496970	keystroke_o	o	n/a
248.8	0.1045	497600	keystroke_e	e	n/a
249.205	0.0745	498410	keystroke_Key.backspace	Key.backspace	n/a
249.5945	0.075	499189	keystroke_p	p	n/a
249.7445	0.1055	499489	keystroke_e	e	n/a
250.045	0.105	500090	keystroke_n	n	n/a
250.21	0.09	500420	keystroke_e	e	n/a
250.525	0.105	501050	keystroke_d	d	n/a
250.735	0.0895	501470	keystroke_Key.enter	Key.enter	n/a
250.832	5.215	501664	prompt	n/a	earl site worldwide romania\n
251.604	0.1365	503208	keystroke_e	e	n/a
251.7095	0.165	503419	keystroke_a	a	n/a
251.8445	0.1055	503689	keystroke_r	r	n/a
251.9655	0.089	503931	keystroke_l	l	n/a
252.0695	0.105	504139	keystroke_Key.space	Key.space	n/a
252.1895	0.1355	504379	keystroke_s	s	n/a
252.3405	0.089	504681	keystroke_i	i	n/a
252.4895	0.1055	504979	keystroke_t	t	n/a
252.5645	0.12	505129	keystroke_e	e	n/a
252.67	0.12	505340	keystroke_Key.space	Key.space	n/a
252.895	0.1045	505790	keystroke_w	w	n/a
253.0145	0.1055	506029	keystroke_o	o	n/a
253.15	0.09	506300	keystroke_r	r	n/a
253.345	0.075	506690	keystroke_l	l	n/a
253.705	0.09	507410	keystroke_d	d	n/a
254.05	0.075	508100	keystroke_w	w	n/a
254.2	0.075	508400	keystroke_i	i	n/a
254.365	0.105	508730	keystroke_d	d	n/a
254.545	0.12	509090	keystroke_e	e	n/a
254.694	0.091	509388	keystroke_Key.space	Key.space	n/a
254.905	0.09	509810	keystroke_r	r	n/a
254.9645	0.0905	509929	keystroke_o	o	n/a
255.175	0.09	510350	keystroke_m	m	n/a
255.31	0.0895	510620	keystroke_a	a	n/a
255.445	0.0895	510890	keystroke_n	n	n/a
255.595	0.075	511190	keystroke_i	i	n/a
255.775	0.09	511550	keystroke_a	a	n/a
255.9545	0.09	511909	keystroke_Key.enter	Key.enter	n/a
256.0505	7.406	512101	prompt	n/a	pokemon qualifications fitting freight\n
256.6445	0.0905	513289	keystroke_p	p	n/a
256.8995	0.09	513799	keystroke_o	o	n/a
257.1545	0.0905	514309	keystroke_k	k	n/a
257.305	0.0895	514610	keystroke_e	e	n/a
257.47	0.0745	514940	keystroke_m	m	n/a
257.6495	0.061	515299	keystroke_o	o	n/a
257.8295	0.0755	515659	keystroke_n	n	n/a
257.965	0.0895	515930	keystroke_Key.space	Key.space	n/a
258.264	0.061	516528	keystroke_q	q	n/a
258.355	0.09	516710	keystroke_u	u	n/a
258.55	0.135	517100	keystroke_a	a	n/a
258.7145	0.1205	517429	keystroke_l	l	n/a
258.805	0.1055	517610	keystroke_i	i	n/a
258.999	0.151	517998	keystroke_f	f	n/a
259.165	0.12	518330	keystroke_i	i	n/a
259.42	0.105	518840	keystroke_c	c	n/a
259.615	0.12	519230	keystroke_a	a	n/a
259.795	0.075	519590	keystroke_t	t	n/a
259.885	0.135	519770	keystroke_i	i	n/a
259.99	0.06	519980	keystroke_o	o	n/a
260.185	0.0895	520370	keystroke_n	n	n/a
260.2905	0.09	520581	keystroke_s	s	n/a
260.395	0.09	520790	keystroke_Key.space	Key.space	n/a
260.6205	0.1195	521241	keystroke_f	f	n/a
261.0545	0.091	522109	keystroke_i	i	n/a
261.2645	0.076	522529	keystroke_t	t	n/a
261.4145	0.105	522829	keystroke_t	t	n/a
261.55	0.1045	523100	keystroke_i	i	n/a
261.73	0.1045	523460	keystroke_n	n	n/a
261.8495	0.075	523699	keystroke_g	g	n/a
261.97	0.09	523940	keystroke_Key.space	Key.space	n/a
262.195	0.135	524390	keystroke_f	f	n/a
262.4355	0.0895	524871	keystroke_r	r	n/a
262.6	0.105	525200	keystroke_e	e	n/a
262.795	0.105	525590	keystroke_i	i	n/a
262.9165	0.103	525833	keystroke_g	g	n/a
263.0805	0.1195	526161	keystroke_h	h	n/a
263.185	0.09	526370	keystroke_t	t	n/a
263.3645	0.0905	526729	keystroke_Key.enter	Key.enter	n/a
263.462	6.5645	526924	prompt	n/a	molecules tooth particle giant\n
264.22	0.075	528440	keystroke_m	m	n/a
264.49	0.06	528980	keystroke_o	o	n/a
264.6995	0.075	529399	keystroke_l	l	n/a
264.8345	0.09	529669	keystroke_e	e	n/a
265.029	0.121	530058	keystroke_c	c	n/a
265.135	0.09	530270	keystroke_u	u	n/a
265.315	0.09	530630	keystroke_l	l	n/a
265.42	0.09	530840	keystroke_e	e	n/a
265.555	0.105	531110	keystroke_s	s	n/a
265.66	0.1045	531320	keystroke_Key.space	Key.space	n/a
265.8405	0.0745	531681	keystroke_t	t	n/a
265.945	0.075	531890	keystroke_o	o	n/a
266.0805	0.089	532161	keystroke_o	o	n/a
266.2295	0.09	532459	keystroke_t	t	n/a
266.4545	0.106	532909	keystroke_h	h	n/a
266.6645	0.105	533329	keystroke_Key.space	Key.space	n/a
267.0845	0.0755	534169	keystroke_p	p	n/a
267.2205	0.1195	534441	keystroke_a	a	n/a
267.3095	0.0605	534619	keystroke_r	r	n/a
267.46	0.075	534920	keystroke_t	t	n/a
267.5805	0.1045	535161	keystroke_i	i	n/a
267.79	0.0905	535580	keystroke_c	c	n/a
268.375	0.0755	536750	keystroke_l	l	n/a
268.525	0.09	537050	keystroke_e	e	n/a
268.735	0.09	537470	keystroke_Key.space	Key.space	n/a
269.245	0.09	538490	keystroke_g	g	n/a
269.365	0.09	538730	keystroke_i	i	n/a
269.485	0.105	538970	keystroke_a	a	n/a
269.62	0.105	539240	keystroke_n	n	n/a
269.755	0.105	539510	keystroke_t	t	n/a
269.95	0.075	539900	keystroke_Key.enter	Key.enter	n/a
270.033	11.3035	540066	prompt	n/a	specifically gras matching liabilities\n
270.625	0.105	541250	keystroke_s	s	n/a
270.715	0.075	541430	keystroke_p	p	n/a
270.8505	0.075	541701	keystroke_e	e	n/a
271.3	0.1055	542600	keystroke_c	c	n/a
271.5095	0.091	543019	keystroke_i	i	n/a
271.6295	0.105	543259	keystroke_f	f	n/a
271.8245	0.09	543649	keystroke_i	i	n/a
271.9745	0.105	543949	keystroke_c	c	n/a
272.2295	0.09	544459	keystroke_a	a	n/a
272.365	0.0905	544730	keystroke_l	l	n/a
272.5145	0.045	545029	keystroke_l	l	n/a
272.71	0.0745	545420	keystroke_y	y	n/a
272.905	0.0895	545810	keystroke_Key.space	Key.space	n/a
274.0895	0.076	548179	keystroke_g	g	n/a
274.21	0.105	548420	keystroke_r	r	n/a
274.3	0.15	548600	keystroke_a	a	n/a
274.6305	0.0745	549261	keystroke_s	s	n/a
275.14	0.1045	550280	keystroke_Key.space	Key.space	n/a
275.4405	0.1045	550881	keystroke_m	m	n/a
275.5595	0.0905	551119	keystroke_a	a	n/a
276.13	0.075	552260	keystroke_t	t	n/a
276.3695	0.075	552739	keystroke_c	c	n/a
276.4905	0.074	552981	keystroke_h	h	n/a
276.655	0.12	553310	keystroke_i	i	n/a
276.79	0.09	553580	keystroke_n	n	n/a
276.895	0.0895	553790	keystroke_g	g	n/a
276.9995	0.0905	553999	keystroke_Key.space	Key.space	n/a
277.1505	0.1795	554301	keystroke_l	l	n/a
277.285	0.1055	554570	keystroke_i	i	n/a
277.405	0.105	554810	keystroke_a	a	n/a
277.54	0.09	555080	keystroke_b	b	n/a
277.735	0.075	555470	keystroke_i	i	n/a
277.93	0.045	555860	keystroke_l	l	n/a
278.08	0.0605	556160	keystroke_i	i	n/a
278.26	0.075	556520	keystroke_t	t	n/a
278.395	0.09	556790	keystroke_y	y	n/a
279.2645	0.0745	558529	keystroke_Key.backspace	Key.backspace	n/a
279.91	0.03	559820	keystroke_i	i	n/a
280.15	0.105	560300	keystroke_e	e	n/a
280.255	0.15	560510	keystroke_s	s	n/a
280.4495	0.0755	560899	keystroke_Key.space	Key.space	n/a
280.78	0.09	561560	keystroke_Key.backspace	Key.backspace	n/a
281.245	0.0895	562490	keystroke_Key.enter	Key.enter	n/a
281.3405	8.021	562681	prompt	n/a	brooklyn rebate ownership pitch\n
282.1595	0.075	564319	keystroke_b	b	n/a
282.2945	0.0905	564589	keystroke_r	r	n/a
282.4305	0.0895	564861	keystroke_o	o	n/a
282.6405	0.1195	565281	keystroke_o	o	n/a
282.9105	0.1345	565821	keystroke_k	k	n/a
283.0595	0.09	566119	keystroke_l	l	n/a
283.2995	0.076	566599	keystroke_y	y	n/a
283.57	0.1045	567140	keystroke_n	n	n/a
283.8545	0.0755	567709	keystroke_Key.space	Key.space	n/a
284.215	0.0595	568430	keystroke_o	o	n/a
284.35	0.105	568700	keystroke_w	w	n/a
284.544	0.1055	569088	keystroke_n	n	n/a
285.22	0.1205	570440	keystroke_e	e	n/a
285.43	0.0745	570860	keystroke_r	r	n/a
285.5805	0.12	571161	keystroke_s	s	n/a
285.7305	0.0745	571461	keystroke_h	h	n/a
285.9995	0.106	571999	keystroke_i	i	n/a
286.12	0.0745	572240	keystroke_p	p	n/a
286.3155	0.0895	572631	keystroke_Key.space	Key.space	n/a
286.63	0.06	573260	keystroke_o	o	n/a
287.185	0.06	574370	keystroke_Key.backspace	Key.backspace	n/a
287.395	0.09	574790	keystroke_p	p	n/a
287.545	0.09	575090	keystroke_t	t	n/a
288.01	0.015	576020	keystroke_Key.backspace	Key.backspace	n/a
288.2195	0.045	576439	keystroke_i	i	n/a
288.61	0.0895	577220	keystroke_t	t	n/a
288.88	0.09	577760	keystroke_c	c	n/a
289.0745	0.06	578149	keystroke_h	h	n/a
289.3	0.06	578600	keystroke_Key.enter	Key.enter	n/a
289.3665	5.831	578733	prompt	n/a	query isaac wages russia\n
290.094	0.1205	580188	keystroke_q	q	n/a
290.2445	0.09	580489	keystroke_u	u	n/a
290.4395	0.151	580879	keystroke_e	e	n/a
290.56	0.1055	581120	keystroke_r	r	n/a
290.7395	0.09	581479	keystroke_y	y	n/a
290.9345	0.075	581869	keystroke_Key.space	Key.space	n/a
291.13	0.0745	582260	keystroke_i	i	n/a
291.22	0.105	582440	keystroke_s	s	n/a
291.535	0.0745	583070	keystroke_a	a	n/a
292.2545	0.136	584509	keystroke_a	a	n/a
292.93	0.0745	585860	keystroke_c	c	n/a
293.0945	0.075	586189	keystroke_Key.space	Key.space	n/a
293.2595	0.1355	586519	keystroke_w	w	n/a
293.365	0.1505	586730	keystroke_a	a	n/a
293.5905	0.1195	587181	keystroke_g	g	n/a
293.7245	0.106	587449	keystroke_e	e	n/a
293.9505	0.089	587901	keystroke_s	s	n/a
294.0695	0.075	588139	keystroke_Key.space	Key.space	n/a
294.2495	0.09	588499	keystroke_r	r	n/a
294.3695	0.105	588739	keystroke_u	u	n/a
294.4895	0.075	588979	keystroke_s	s	n/a
294.6245	0.0905	589249	keystroke_s	s	n/a
294.73	0.075	589460	keystroke_i	i	n/a
294.895	0.12	589790	keystroke_a	a	n/a
295.12	0.075	590240	keystroke_Key.enter	Key.enter	n/a
295.2025	7.449	590405	prompt	n/a	hole africa provincial employed\n
296.485	0.075	592970	keystroke_h	h	n/a
296.6345	0.0605	593269	keystroke_o	o	n/a
296.8145	0.076	593629	keystroke_l	l	n/a
296.9045	0.0755	593809	keystroke_e	e	n/a
296.9945	0.09	593989	keystroke_Key.space	Key.space	n/a
297.1295	0.105	594259	keystroke_a	a	n/a
297.3695	0.0755	594739	keystroke_f	f	n/a
297.61	0.105	595220	keystroke_r	r	n/a
297.7605	0.09	595521	keystroke_i	i	n/a
297.865	0.09	595730	keystroke_c	c	n/a
298.075	0.09	596150	keystroke_a	a	n/a
298.255	0.1045	596510	keystroke_Key.space	Key.space	n/a
298.4945	0.075	596989	keystroke_p	p	n/a
298.6295	0.075	597259	keystroke_r	r	n/a
298.735	0.0745	597470	keystroke_o	o	n/a
298.8545	0.105	597709	keystroke_v	v	n/a
299.635	0.15	599270	keystroke_i	i	n/a
299.7705	0.1045	599541	keystroke_n	n	n/a
299.935	0.09	599870	keystroke_c	c	n/a
300.16	0.0895	600320	keystroke_i	i	n/a
300.31	0.105	600620	keystroke_a	a	n/a
300.4745	0.091	600949	keystroke_l	l	n/a
300.895	0.0745	601790	keystroke_Key.space	Key.space	n/a
301.1805	0.074	602361	keystroke_e	e	n/a
301.2845	0.09	602569	keystroke_m	m	n/a
301.5105	0.045	603021	keystroke_p	p	n/a
301.6905	0.074	603381	keystroke_l	l	n/a
301.8555	0.104	603711	keystroke_o	o	n/a
302.08	0.09	604160	keystroke_y	y	n/a
302.2295	0.076	604459	keystroke_e	e	n/a
302.4095	0.09	604819	keystroke_d	d	n/a
302.56	0.0895	605120	keystroke_Key.enter	Key.enter	n/a
302.6565	5.875	605313	prompt	n/a	ipod covered coach breeds\n
303.8355	0.1045	607671	keystroke_i	i	n/a
303.9545	0.06	607909	keystroke_p	p	n/a
304.21	0.105	608420	keystroke_o	o	n/a
304.39	0.09	608780	keystroke_d	d	n/a
304.585	0.09	609170	keystroke_Key.space	Key.space	n/a
305.0205	0.104	610041	keystroke_c	c	n/a
305.1105	0.074	610221	keystroke_o	o	n/a
305.2745	0.09	610549	keystroke_v	v	n/a
305.4255	0.1195	610851	keystroke_e	e	n/a
305.53	0.135	611060	keystroke_r	r	n/a
305.65	0.06	611300	keystroke_e	e	n/a
305.8305	0.0745	611661	keystroke_d	d	n/a
305.9645	0.09	611929	keystroke_Key.space	Key.space	n/a
306.115	0.09	612230	keystroke_c	c	n/a
306.295	0.06	612590	keystroke_o	o	n/a
306.4	0.12	612800	keystroke_a	a	n/a
306.61	0.12	613220	keystroke_c	c	n/a
306.775	0.105	613550	keystroke_h	h	n/a
306.94	0.1045	613880	keystroke_Key.space	Key.space	n/a
307.1945	0.076	614389	keystroke_b	b	n/a
307.5545	0.09	615109	keystroke_r	r	n/a
307.7345	0.075	615469	keystroke_e	e	n/a
307.8695	0.1055	615739	keystroke_e	e	n/a
308.0795	0.09	616159	keystroke_d	d	n/a
308.32	0.075	616640	keystroke_s	s	n/a
308.44	0.09	616880	keystroke_Key.enter	Key.enter	n/a
308.5365	6.625	617073	prompt	n/a	jets dogs ahead interracial\n
309.505	0.06	619010	keystroke_j	j	n/a
309.6095	0.105	619219	keystroke_e	e	n/a
309.7445	0.0905	619489	keystroke_t	t	n/a
309.8945	0.105	619789	keystroke_s	s	n/a
310.1195	0.0905	620239	keystroke_Key.space	Key.space	n/a
310.87	0.1045	621740	keystroke_d	d	n/a
310.9755	0.0895	621951	keystroke_o	o	n/a
311.1255	0.09	622251	keystroke_g	g	n/a
311.2605	0.134	622521	keystroke_s	s	n/a
311.4845	0.105	622969	keystroke_Key.space	Key.space	n/a
312.0405	0.12	624081	keystroke_a	a	n/a
312.2045	0.091	624409	keystroke_h	h	n/a
312.3255	0.135	624651	keystroke_e	e	n/a
312.4755	0.12	624951	keystroke_a	a	n/a
312.5805	0.119	625161	keystroke_d	d	n/a
312.73	0.105	625460	keystroke_Key.space	Key.space	n/a
313.1045	0.136	626209	keystroke_i	i	n/a
313.21	0.105	626420	keystroke_n	n	n/a
313.33	0.045	626660	keystroke_t	t	n/a
313.3755	0.18	626751	keystroke_e	e	n/a
313.51	0.15	627020	keystroke_r	r	n/a
313.9145	0.09	627829	keystroke_r	r	n/a
314.0345	0.136	628069	keystroke_a	a	n/a
314.2455	0.105	628491	keystroke_c	c	n/a
314.47	0.09	628940	keystroke_i	i	n/a
314.65	0.0905	629300	keystroke_a	a	n/a
314.785	0.09	629570	keystroke_l	l	n/a
315.07	0.09	630140	keystroke_Key.enter	Key.enter	n/a
315.167	8.26	630334	prompt	n/a	ensure we've perfect speeds\n
315.775	0.0755	631550	keystroke_e	e	n/a
315.895	0.09	631790	keystroke_n	n	n/a
316.06	0.1205	632120	keystroke_d	d	n/a
316.24	0.075	632480	keystroke_u	u	n/a
316.36	0.09	632720	keystroke_r	r	n/a
316.63	0.105	633260	keystroke_e	e	n/a
316.84	0.0745	633680	keystroke_Key.space	Key.space	n/a
317.17	0.06	634340	keystroke_Key.backspace	Key.backspace	n/a
317.305	0.0745	634610	keystroke_Key.backspace	Key.backspace	n/a
317.4695	0.06	634939	keystroke_Key.backspace	Key.backspace	n/a
317.6045	0.09	635209	keystroke_Key.backspace	Key.backspace	n/a
317.83	0.09	635660	keystroke_Key.backspace	Key.backspace	n/a
318.0245	0.12	636049	keystroke_s	s	n/a
318.34	0.12	636680	keystroke_r	r	n/a
318.445	0.06	636890	keystroke_e	e	n/a
318.715	0.075	637430	keystroke_Key.backspace	Key.backspace	n/a
318.88	0.06	637760	keystroke_Key.backspace	Key.backspace	n/a
319.105	0.09	638210	keystroke_u	u	n/a
319.2255	0.1045	638451	keystroke_r	r	n/a
319.285	0.12	638570	keystroke_e	e	n/a
319.5105	0.0745	639021	keystroke_Key.space	Key.space	n/a
319.7345	0.136	639469	keystroke_w	w	n/a
319.855	0.09	639710	keystroke_e	e	n/a
320.0355	0.0895	640071	keystroke_'	'	n/a
320.23	0.1055	640460	keystroke_v	v	n/a
320.3645	0.105	640729	keystroke_e	e	n/a
320.5445	0.0905	641089	keystroke_Key.space	Key.space	n/a
320.9355	0.075	641871	keystroke_p	p	n/a
321.115	0.105	642230	keystroke_e	e	n/a
321.2045	0.136	642409	keystroke_r	r	n/a
321.5645	0.1505	643129	keystroke_f	f	n/a
321.73	0.12	643460	keystroke_e	e	n/a
321.9845	0.1055	643969	keystroke_c	c	n/a
322.21	0.075	644420	keystroke_t	t	n/a
322.3455	0.0745	644691	keystroke_Key.space	Key.space	n/a
322.5705	0.105	645141	keystroke_s	s	n/a
322.72	0.0605	645440	keystroke_p	p	n/a
322.81	0.075	645620	keystroke_e	e	n/a
322.945	0.0755	645890	keystroke_e	e	n/a
323.1255	0.1045	646251	keystroke_d	d	n/a
323.245	0.0905	646490	keystroke_s	s	n/a
323.35	0.0745	646700	keystroke_Key.enter	Key.enter	n/a
323.4345	7.147	646869	prompt	n/a	cancer chaos clouds anthony\n
324.0855	0.15	648171	keystroke_c	c	n/a
324.2205	0.15	648441	keystroke_a	a	n/a
324.4905	0.089	648981	keystroke_n	n	n/a
324.5655	0.1495	649131	keystroke_c	c	n/a
324.76	0.165	649520	keystroke_e	e	n/a
324.9105	0.1045	649821	keystroke_r	r	n/a
325.06	0.105	650120	keystroke_Key.space	Key.space	n/a
325.375	0.0905	650750	keystroke_c	c	n/a
325.48	0.09	650960	keystroke_h	h	n/a
325.615	0.105	651230	keystroke_a	a	n/a
325.975	0.0755	651950	keystroke_r	r	n/a
326.3345	0.06	652669	keystroke_Key.backspace	Key.backspace	n/a
326.89	0.0745	653780	keystroke_o	o	n/a
327.04	0.1055	654080	keystroke_s	s	n/a
327.205	0.09	654410	keystroke_Key.space	Key.space	n/a
327.4455	0.1045	654891	keystroke_c	c	n/a
327.9255	0.015	655851	keystroke_l	l	n/a
327.985	0.0605	655970	keystroke_o	o	n/a
328.2095	0.075	656419	keystroke_u	u	n/a
328.3755	0.12	656751	keystroke_d	d	n/a
328.4655	0.1195	656931	keystroke_s	s	n/a
328.66	0.105	657320	keystroke_Key.space	Key.space	n/a
329.0945	0.151	658189	keystroke_a	a	n/a
329.3205	0.105	658641	keystroke_n	n	n/a
329.5005	0.12	659001	keystroke_t	t	n/a
329.6355	0.0745	659271	keystroke_h	h	n/a
329.8	0.06	659600	keystroke_o	o	n/a
330.025	0.0905	660050	keystroke_n	n	n/a
330.2505	0.06	660501	keystroke_y	y	n/a
330.5205	0.06	661041	keystroke_Key.enter	Key.enter	n/a
330.5865	6.0855	661173	prompt	n/a	sleeps admitted wonderful relations\n
331.225	0.061	662450	keystroke_s	s	n/a
331.39	0.0605	662780	keystroke_l	l	n/a
331.51	0.06	663020	keystroke_e	e	n/a
331.645	0.09	663290	keystroke_e	e	n/a
331.81	0.075	663620	keystroke_p	p	n/a
331.945	0.0745	663890	keystroke_s	s	n/a
332.0345	0.1055	664069	keystroke_Key.space	Key.space	n/a
332.185	0.1045	664370	keystroke_a	a	n/a
332.335	0.075	664670	keystroke_d	d	n/a
332.4405	0.0895	664881	keystroke_m	m	n/a
332.5455	0.0895	665091	keystroke_i	i	n/a
332.695	0.0755	665390	keystroke_t	t	n/a
332.8445	0.106	665689	keystroke_t	t	n/a
332.98	0.09	665960	keystroke_e	e	n/a
333.175	0.0755	666350	keystroke_d	d	n/a
333.325	0.075	666650	keystroke_Key.space	Key.space	n/a
333.4605	0.1045	666921	keystroke_w	w	n/a
333.58	0.0755	667160	keystroke_o	o	n/a
333.73	0.0905	667460	keystroke_n	n	n/a
333.8355	0.0605	667671	keystroke_d	d	n/a
334.0005	0.0755	668001	keystroke_e	e	n/a
334.1645	0.091	668329	keystroke_r	r	n/a
334.495	0.0905	668990	keystroke_f	f	n/a
334.7055	0.0895	669411	keystroke_u	u	n/a
334.9005	0.0745	669801	keystroke_l	l	n/a
335.0345	0.0905	670069	keystroke_Key.space	Key.space	n/a
335.44	0.0745	670880	keystroke_r	r	n/a
335.59	0.1195	671180	keystroke_e	e	n/a
335.7245	0.0905	671449	keystroke_l	l	n/a
335.7705	0.1495	671541	keystroke_a	a	n/a
335.9645	0.075	671929	keystroke_t	t	n/a
336.055	0.136	672110	keystroke_i	i	n/a
336.1595	0.061	672319	keystroke_o	o	n/a
336.3395	0.091	672679	keystroke_n	n	n/a
336.4445	0.09	672889	keystroke_s	s	n/a
336.595	0.0745	673190	keystroke_Key.enter	Key.enter	n/a
336.6775	11.454	673355	prompt	n/a	beliefs diagram journalist build\n
337.3155	0.0745	674631	keystroke_b	b	n/a
337.436	0.089	674872	keystroke_e	e	n/a
337.57	0.12	675140	keystroke_l	l	n/a
337.66	0.105	675320	keystroke_i	i	n/a
337.72	0.12	675440	keystroke_e	e	n/a
337.96	0.12	675920	keystroke_f	f	n/a
338.2005	0.0895	676401	keystroke_s	s	n/a
338.41	0.045	676820	keystroke_Key.space	Key.space	n/a
338.725	0.09	677450	keystroke_a	a	n/a
339.04	0.045	678080	keystroke_Key.backspace	Key.backspace	n/a
339.1305	0.1345	678261	keystroke_d	d	n/a
339.31	0.075	678620	keystroke_i	i	n/a
339.415	0.12	678830	keystroke_a	a	n/a
339.6855	0.0745	679371	keystroke_g	g	n/a
339.88	0.105	679760	keystroke_r	r	n/a
340	0.105	680000	keystroke_a	a	n/a
340.15	0.09	680300	keystroke_m	m	n/a
340.256	0.104	680512	keystroke_Key.space	Key.space	n/a
340.7055	0.03	681411	keystroke_j	j	n/a
340.9605	0.1345	681921	keystroke_o	o	n/a
341.065	0.1205	682130	keystroke_u	u	n/a
341.4105	0.105	682821	keystroke_n	n	n/a
341.7855	0.089	683571	keystroke_a	a	n/a
341.95	0.1505	683900	keystroke_l	l	n/a
342.04	0.1055	684080	keystroke_i	i	n/a
342.1595	0.121	684319	keystroke_s	s	n/a
342.2945	0.1055	684589	keystroke_t	t	n/a
342.445	0.09	684890	keystroke_Key.space	Key.space	n/a
342.8045	0.061	685609	keystroke_b	b	n/a
343.7345	0.06	687469	keystroke_Key.backspace	Key.backspace	n/a
343.915	0.075	687830	keystroke_Key.backspace	Key.backspace	n/a
344.1095	0.06	688219	keystroke_Key.backspace	Key.backspace	n/a
344.275	0.075	688550	keystroke_Key.backspace	Key.backspace	n/a
344.455	0.09	688910	keystroke_Key.backspace	Key.backspace	n/a
344.6505	0.0745	689301	keystroke_Key.backspace	Key.backspace	n/a
344.845	0.075	689690	keystroke_Key.backspace	Key.backspace	n/a
345.055	0.09	690110	keystroke_Key.backspace	Key.backspace	n/a
345.5805	0.1045	691161	keystroke_r	r	n/a
345.775	0.105	691550	keystroke_n	n	n/a
345.91	0.09	691820	keystroke_a	a	n/a
346.12	0.15	692240	keystroke_l	l	n/a
346.2105	0.105	692421	keystroke_i	i	n/a
346.345	0.12	692690	keystroke_s	s	n/a
346.495	0.105	692990	keystroke_t	t	n/a
346.6445	0.061	693289	keystroke_Key.space	Key.space	n/a
346.855	0.0905	693710	keystroke_b	b	n/a
347.0045	0.09	694009	keystroke_u	u	n/a
347.23	0.09	694460	keystroke_i	i	n/a
347.6945	0.046	695389	keystroke_l	l	n/a
347.8305	0.0745	695661	keystroke_d	d	n/a
348.055	0.075	696110	keystroke_Key.enter	Key.enter	n/a
348.1385	4.493	696277	prompt	n/a	cite scores income bars\n
348.9255	0.089	697851	keystroke_c	c	n/a
349.045	0.09	698090	keystroke_i	i	n/a
349.18	0.0745	698360	keystroke_t	t	n/a
349.465	0.0895	698930	keystroke_e	e	n/a
349.6155	0.105	699231	keystroke_Key.space	Key.space	n/a
349.825	0.0895	699650	keystroke_s	s	n/a
349.9905	0.0895	699981	keystroke_c	c	n/a
350.395	0.09	700790	keystroke_o	o	n/a
350.6205	0.0895	701241	keystroke_r	r	n/a
350.695	0.1205	701390	keystroke_e	e	n/a
350.89	0.09	701780	keystroke_Key.space	Key.space	n/a
351.205	0.12	702410	keystroke_i	i	n/a
351.2955	0.0895	702591	keystroke_n	n	n/a
351.4	0.09	702800	keystroke_c	c	n/a
351.5055	0.0895	703011	keystroke_o	o	n/a
351.655	0.09	703310	keystroke_m	m	n/a
351.7605	0.0745	703521	keystroke_e	e	n/a
351.8505	0.0895	703701	keystroke_Key.space	Key.space	n/a
352.0755	0.09	704151	keystroke_b	b	n/a
352.1805	0.105	704361	keystroke_a	a	n/a
352.2705	0.12	704541	keystroke_r	r	n/a
352.4355	0.089	704871	keystroke_s	s	n/a
352.5405	0.089	705081	keystroke_Key.enter	Key.enter	n/a
352.6365	6.22	705273	prompt	n/a	rhode natural stress ascii\n
353.65	0.105	707300	keystroke_r	r	n/a
353.77	0.105	707540	keystroke_h	h	n/a
353.995	0.0745	707990	keystroke_o	o	n/a
354.2355	0.1045	708471	keystroke_d	d	n/a
354.5505	0.089	709101	keystroke_e	e	n/a
354.8045	0.076	709609	keystroke_Key.space	Key.space	n/a
355.27	0.0905	710540	keystroke_n	n	n/a
355.3755	0.09	710751	keystroke_a	a	n/a
355.495	0.105	710990	keystroke_t	t	n/a
355.645	0.1045	711290	keystroke_u	u	n/a
355.7505	0.0895	711501	keystroke_r	r	n/a
355.841	0.119	711682	keystroke_a	a	n/a
355.975	0.075	711950	keystroke_l	l	n/a
356.065	0.12	712130	keystroke_Key.space	Key.space	n/a
356.306	0.105	712612	keystroke_s	s	n/a
356.455	0.1055	712910	keystroke_t	t	n/a
356.635	0.1205	713270	keystroke_r	r	n/a
356.9205	0.105	713841	keystroke_e	e	n/a
357.115	0.0905	714230	keystroke_s	s	n/a
357.2805	0.09	714561	keystroke_s	s	n/a
357.445	0.075	714890	keystroke_Key.space	Key.space	n/a
357.67	0.09	715340	keystroke_a	a	n/a
357.835	0.09	715670	keystroke_s	s	n/a
358.1805	0.09	716361	keystroke_c	c	n/a
358.3295	0.09	716659	keystroke_i	i	n/a
358.555	0.0755	717110	keystroke_i	i	n/a
358.7805	0.075	717561	keystroke_Key.enter	Key.enter	n/a
358.8595	4.9175	717719	prompt	n/a	going france tips concerns\n
359.5295	0.09	719059	keystroke_g	g	n/a
359.6205	0.075	719241	keystroke_o	o	n/a
359.815	0.1355	719630	keystroke_i	i	n/a
359.9205	0.12	719841	keystroke_n	n	n/a
360.0255	0.09	720051	keystroke_g	g	n/a
360.1755	0.1045	720351	keystroke_Key.space	Key.space	n/a
360.415	0.1355	720830	keystroke_f	f	n/a
360.655	0.105	721310	keystroke_r	r	n/a
360.745	0.135	721490	keystroke_a	a	n/a
360.8955	0.1045	721791	keystroke_n	n	n/a
361.045	0.0895	722090	keystroke_c	c	n/a
361.1195	0.121	722239	keystroke_e	e	n/a
361.2695	0.0905	722539	keystroke_Key.space	Key.space	n/a
361.5695	0.0605	723139	keystroke_t	t	n/a
361.6755	0.21	723351	keystroke_i	i	n/a
361.9905	0.105	723981	keystroke_p	p	n/a
362.1845	0.1055	724369	keystroke_s	s	n/a
362.335	0.105	724670	keystroke_Key.space	Key.space	n/a
362.65	0.09	725300	keystroke_c	c	n/a
362.755	0.075	725510	keystroke_o	o	n/a
362.9655	0.0895	725931	keystroke_n	n	n/a
363.0705	0.0595	726141	keystroke_c	c	n/a
363.16	0.135	726320	keystroke_e	e	n/a
363.265	0.0905	726530	keystroke_r	r	n/a
363.4	0.1055	726800	keystroke_n	n	n/a
363.5205	0.1055	727041	keystroke_s	s	n/a
363.685	0.09	727370	keystroke_Key.enter	Key.enter	n/a
363.7815	6.1755	727563	prompt	n/a	jamie stick advance stick\n
364.3455	0.105	728691	keystroke_j	j	n/a
364.48	0.1045	728960	keystroke_a	a	n/a
364.5995	0.1215	729199	keystroke_m	m	n/a
364.7355	0.0745	729471	keystroke_i	i	n/a
364.8555	0.105	729711	keystroke_e	e	n/a
364.99	0.0755	729980	keystroke_Key.space	Key.space	n/a
365.155	0.09	730310	keystroke_s	s	n/a
365.291	0.0895	730582	keystroke_t	t	n/a
365.395	0.105	730790	keystroke_i	i	n/a
365.5305	0.12	731061	keystroke_c	c	n/a
365.635	0.12	731270	keystroke_k	k	n/a
365.7245	0.12	731449	keystroke_Key.space	Key.space	n/a
365.8755	0.135	731751	keystroke_a	a	n/a
365.9945	0.0905	731989	keystroke_d	d	n/a
366.67	0.1045	733340	keystroke_v	v	n/a
367.2405	0.075	734481	keystroke_a	a	n/a
367.4505	0.075	734901	keystroke_n	n	n/a
367.5705	0.12	735141	keystroke_c	c	n/a
367.7045	0.136	735409	keystroke_e	e	n/a
368.32	0.045	736640	keystroke_s	s	n/a
368.74	0.045	737480	keystroke_Key.backspace	Key.backspace	n/a
368.92	0.105	737840	keystroke_Key.space	Key.space	n/a
369.13	0.075	738260	keystroke_s	s	n/a
369.2805	0.09	738561	keystroke_t	t	n/a
369.401	0.089	738802	keystroke_i	i	n/a
369.535	0.1045	739070	keystroke_c	c	n/a
369.6855	0.0745	739371	keystroke_k	k	n/a
369.91	0.045	739820	keystroke_Key.enter	Key.enter	n/a
369.9615	8.0805	739923	prompt	n/a	defining entertaining oracle coal\n
370.631	0.1345	741262	keystroke_d	d	n/a
370.7505	0.105	741501	keystroke_e	e	n/a
370.8705	0.09	741741	keystroke_f	f	n/a
370.9755	0.12	741951	keystroke_i	i	n/a
371.0505	0.09	742101	keystroke_n	n	n/a
371.1855	0.12	742371	keystroke_i	i	n/a
371.3655	0.12	742731	keystroke_n	n	n/a
371.9955	0.074	743991	keystroke_g	g	n/a
372.1905	0.09	744381	keystroke_Key.space	Key.space	n/a
372.715	0.0755	745430	keystroke_e	e	n/a
372.805	0.105	745610	keystroke_n	n	n/a
372.94	0.0755	745880	keystroke_t	t	n/a
373.061	0.105	746122	keystroke_e	e	n/a
373.136	0.104	746272	keystroke_r	r	n/a
373.3905	0.09	746781	keystroke_t	t	n/a
373.4945	0.12	746989	keystroke_a	a	n/a
373.6595	0.135	747319	keystroke_i	i	n/a
373.7655	0.119	747531	keystroke_n	n	n/a
374.02	0.0905	748040	keystroke_i	i	n/a
374.0955	0.149	748191	keystroke_n	n	n/a
374.6205	0.09	749241	keystroke_g	g	n/a
374.95	0.06	749900	keystroke_Key.space	Key.space	n/a
375.7305	0.0455	751461	keystroke_o	o	n/a
375.85	0.075	751700	keystroke_r	r	n/a
375.9405	0.1195	751881	keystroke_a	a	n/a
376.21	0.06	752420	keystroke_c	c	n/a
376.36	0.0755	752720	keystroke_l	l	n/a
376.5405	0.105	753081	keystroke_e	e	n/a
376.735	0.09	753470	keystroke_Key.space	Key.space	n/a
377.1555	0.105	754311	keystroke_c	c	n/a
377.3045	0.061	754609	keystroke_o	o	n/a
377.5745	0.09	755149	keystroke_a	a	n/a
377.7405	0.09	755481	keystroke_l	l	n/a
377.95	0.0895	755900	keystroke_Key.enter	Key.enter	n/a
378.0465	8.1855	756093	prompt	n/a	framework scanner actions unwrap\n
378.5355	0.0745	757071	keystroke_d	d	n/a
378.715	0.1055	757430	keystroke_r	r	n/a
378.8655	0.104	757731	keystroke_a	a	n/a
379.1795	0.061	758359	keystroke_Key.backspace	Key.backspace	n/a
379.3295	0.06	758659	keystroke_Key.backspace	Key.backspace	n/a
379.4495	0.0605	758899	keystroke_Key.backspace	Key.backspace	n/a
380.0655	0.075	760131	keystroke_f	f	n/a
380.2455	0.0895	760491	keystroke_r	r	n/a
380.336	0.1195	760672	keystroke_a	a	n/a
380.4705	0.075	760941	keystroke_m	m	n/a
380.5755	0.09	761151	keystroke_e	e	n/a
380.8755	0.0745	761751	keystroke_w	w	n/a
380.9805	0.075	761961	keystroke_o	o	n/a
381.1005	0.105	762201	keystroke_r	r	n/a
381.25	0.105	762500	keystroke_k	k	n/a
381.4005	0.09	762801	keystroke_Key.space	Key.space	n/a
381.58	0.09	763160	keystroke_s	s	n/a
381.7305	0.075	763461	keystroke_c	c	n/a
381.895	0.1055	763790	keystroke_a	a	n/a
382.0755	0.075	764151	keystroke_n	n	n/a
382.2555	0.075	764511	keystroke_n	n	n/a
382.4055	0.1195	764811	keystroke_e	e	n/a
382.495	0.1055	764990	keystroke_r	r	n/a
382.6605	0.0595	765321	keystroke_Key.space	Key.space	n/a
382.8395	0.091	765679	keystroke_a	a	n/a
383.0045	0.105	766009	keystroke_c	c	n/a
383.2305	0.0595	766461	keystroke_t	t	n/a
383.35	0.135	766700	keystroke_i	i	n/a
383.44	0.0755	766880	keystroke_o	o	n/a
383.6205	0.105	767241	keystroke_n	n	n/a
383.7405	0.089	767481	keystroke_s	s	n/a
383.86	0.075	767720	keystroke_Key.space	Key.space	n/a
383.9655	0.09	767931	keystroke_w	w	n/a
384.1155	0.09	768231	keystroke_r	r	n/a
384.5205	0.0595	769041	keystroke_Key.backspace	Key.backspace	n/a
384.6705	0.06	769341	keystroke_Key.backspace	Key.backspace	n/a
385.0155	0.12	770031	keystroke_u	u	n/a
385.0905	0.1195	770181	keystroke_n	n	n/a
385.4505	0.12	770901	keystroke_w	w	n/a
385.5705	0.1045	771141	keystroke_r	r	n/a
385.7055	0.12	771411	keystroke_a	a	n/a
385.915	0.0755	771830	keystroke_p	p	n/a
386.14	0.09	772280	keystroke_Key.enter	Key.enter	n/a
386.236	4.6765	772472	prompt	n/a	houston treatments luck his\n
386.846	0.089	773692	keystroke_h	h	n/a
386.996	0.1345	773992	keystroke_o	o	n/a
387.0855	0.089	774171	keystroke_u	u	n/a
387.1605	0.105	774321	keystroke_s	s	n/a
387.3095	0.091	774619	keystroke_t	t	n/a
387.4145	0.09	774829	keystroke_o	o	n/a
387.611	0.0895	775222	keystroke_n	n	n/a
387.79	0.075	775580	keystroke_Key.space	Key.space	n/a
387.97	0.0905	775940	keystroke_t	t	n/a
388.18	0.1205	776360	keystroke_r	r	n/a
388.3905	0.195	776781	keystroke_e	e	n/a
388.5555	0.15	777111	keystroke_a	a	n/a
388.8395	0.0755	777679	keystroke_m	m	n/a
389.0345	0.091	778069	keystroke_e	e	n/a
389.1845	0.0905	778369	keystroke_n	n	n/a
389.2905	0.09	778581	keystroke_t	t	n/a
389.411	0.1045	778822	keystroke_s	s	n/a
389.5605	0.0745	779121	keystroke_Key.space	Key.space	n/a
389.815	0.15	779630	keystroke_l	l	n/a
389.951	0.09	779902	keystroke_u	u	n/a
390.071	0.089	780142	keystroke_c	c	n/a
390.175	0.0905	780350	keystroke_k	k	n/a
390.2805	0.09	780561	keystroke_Key.space	Key.space	n/a
390.4305	0.12	780861	keystroke_h	h	n/a
390.565	0.0605	781130	keystroke_i	i	n/a
390.7	0.075	781400	keystroke_s	s	n/a
390.835	0.075	781670	keystroke_Key.enter	Key.enter	n/a
390.9205	6.5165	781841	prompt	n/a	dialog prozac sign mailed\n
391.51	0.105	783020	keystroke_d	d	n/a
391.631	0.074	783262	keystroke_i	i	n/a
391.736	0.12	783472	keystroke_a	a	n/a
391.8705	0.075	783741	keystroke_l	l	n/a
392.051	0.0595	784102	keystroke_o	o	n/a
392.3055	0.12	784611	keystroke_g	g	n/a
392.4705	0.089	784941	keystroke_Key.space	Key.space	n/a
393.0855	0.045	786171	keystroke_p	p	n/a
393.28	0.075	786560	keystroke_o	o	n/a
393.6855	0.0295	787371	keystroke_Key.backspace	Key.backspace	n/a
393.76	0.09	787520	keystroke_r	r	n/a
393.91	0.0755	787820	keystroke_o	o	n/a
394.2855	0.0755	788571	keystroke_z	z	n/a
394.5105	0.075	789021	keystroke_a	a	n/a
394.7805	0.12	789561	keystroke_c	c	n/a
395.215	0.09	790430	keystroke_Key.space	Key.space	n/a
395.485	0.106	790970	keystroke_s	s	n/a
395.6505	0.09	791301	keystroke_i	i	n/a
395.8305	0.09	791661	keystroke_g	g	n/a
395.9655	0.09	791931	keystroke_n	n	n/a
396.296	0.0895	792592	keystroke_Key.space	Key.space	n/a
396.4905	0.09	792981	keystroke_m	m	n/a
396.61	0.106	793220	keystroke_a	a	n/a
396.76	0.076	793520	keystroke_i	i	n/a
396.9555	0.075	793911	keystroke_l	l	n/a
397.0445	0.0755	794089	keystroke_e	e	n/a
397.21	0.09	794420	keystroke_d	d	n/a
397.3605	0.0745	794721	keystroke_Key.enter	Key.enter	n/a
397.442	11.29	794884	prompt	n/a	nickel quote oughtn't buzz\n
398.021	0.1045	796042	keystroke_n	n	n/a
398.155	0.06	796310	keystroke_i	i	n/a
398.2605	0.1055	796521	keystroke_c	c	n/a
398.5905	0.09	797181	keystroke_k	k	n/a
398.831	0.0745	797662	keystroke_e	e	n/a
399.025	0.0455	798050	keystroke_l	l	n/a
399.041	0.015	798082	keystroke_;	;	n/a
399.1305	0.105	798261	keystroke_Key.space	Key.space	n/a
399.8055	0.06	799611	keystroke_Key.backspace	Key.backspace	n/a
399.955	0.06	799910	keystroke_Key.backspace	Key.backspace	n/a
400.285	0.0905	800570	keystroke_Key.space	Key.space	n/a
400.7805	0.045	801561	keystroke_q	q	n/a
400.8555	0.105	801711	keystroke_u	u	n/a
401.081	0.0745	802162	keystroke_o	o	n/a
401.201	0.1345	802402	keystroke_t	t	n/a
401.3055	0.1045	802611	keystroke_e	e	n/a
401.455	0.0895	802910	keystroke_Key.space	Key.space	n/a
401.951	0.164	803902	keystroke_o	o	n/a
402.07	0.09	804140	keystroke_u	u	n/a
402.19	0.0605	804380	keystroke_t	t	n/a
402.6405	0.06	805281	keystroke_Key.backspace	Key.backspace	n/a
402.7155	0.1205	805431	keystroke_g	g	n/a
402.896	0.089	805792	keystroke_h	h	n/a
403.06	0.091	806120	keystroke_t	t	n/a
405.2665	0.0295	810533	keystroke_n	n	n/a
405.8355	0.045	811671	keystroke_'	'	n/a
406.871	0.0895	813742	keystroke_t	t	n/a
407.185	0.105	814370	keystroke_Key.space	Key.space	n/a
408.011	0.12	816022	keystroke_b	b	n/a
408.086	0.105	816172	keystroke_u	u	n/a
408.206	0.135	816412	keystroke_z	z	n/a
408.416	0.105	816832	keystroke_z	z	n/a
408.6395	0.091	817279	keystroke_Key.enter	Key.enter	n/a
408.736	10.211	817472	prompt	n/a	violin looksmart kissing ricky\n
409.5705	0.06	819141	keystroke_v	v	n/a
410.0355	0.1645	820071	keystroke_i	i	n/a
410.185	0.12	820370	keystroke_o	o	n/a
410.485	0.0905	820970	keystroke_l	l	n/a
410.741	0.1195	821482	keystroke_i	i	n/a
410.906	0.1195	821812	keystroke_n	n	n/a
411.145	0.105	822290	keystroke_Key.space	Key.space	n/a
411.4605	0.0595	822921	keystroke_l	l	n/a
411.625	0.0605	823250	keystroke_o	o	n/a
411.7455	0.105	823491	keystroke_o	o	n/a
411.8955	0.1045	823791	keystroke_k	k	n/a
412.03	0.1205	824060	keystroke_s	s	n/a
412.211	0.09	824422	keystroke_m	m	n/a
412.316	0.134	824632	keystroke_a	a	n/a
412.4655	0.105	824931	keystroke_r	r	n/a
412.66	0.075	825320	keystroke_t	t	n/a
412.78	0.1055	825560	keystroke_Key.space	Key.space	n/a
413.006	0.0745	826012	keystroke_k	k	n/a
413.1705	0.075	826341	keystroke_i	i	n/a
413.261	0.0595	826522	keystroke_s	s	n/a
413.38	0.105	826760	keystroke_s	s	n/a
413.5	0.136	827000	keystroke_i	i	n/a
413.59	0.1205	827180	keystroke_n	n	n/a
413.7255	0.075	827451	keystroke_g	g	n/a
417.642	0.058	835284	keystroke_Key.space	Key.space	n/a
417.731	0.105	835462	keystroke_r	r	n/a
417.851	0.12	835702	keystroke_i	i	n/a
417.986	0.135	835972	keystroke_c	c	n/a
418.151	0.06	836302	keystroke_k	k	n/a
418.541	0.09	837082	keystroke_y	y	n/a
418.871	0.0745	837742	keystroke_Key.enter	Key.enter	n/a
418.952	7.435	837904	prompt	n/a	consequences buried crude turning\n
419.74	0.09	839480	keystroke_c	c	n/a
419.815	0.075	839630	keystroke_o	o	n/a
420.025	0.0755	840050	keystroke_n	n	n/a
420.221	0.089	840442	keystroke_s	s	n/a
420.685	0.121	841370	keystroke_e	e	n/a
420.865	0.1055	841730	keystroke_q	q	n/a
422.051	0.0895	844102	keystroke_u	u	n/a
422.29	0.121	844580	keystroke_e	e	n/a
422.455	0.105	844910	keystroke_n	n	n/a
422.6055	0.1205	845211	keystroke_c	c	n/a
422.711	0.105	845422	keystroke_e	e	n/a
422.95	0.105	845900	keystroke_s	s	n/a
423.086	0.074	846172	keystroke_Key.space	Key.space	n/a
423.2955	0.1055	846591	keystroke_b	b	n/a
423.3855	0.09	846771	keystroke_u	u	n/a
423.5055	0.06	847011	keystroke_r	r	n/a
423.7005	0.06	847401	keystroke_i	i	n/a
423.8505	0.075	847701	keystroke_e	e	n/a
424.0155	0.09	848031	keystroke_d	d	n/a
424.1205	0.075	848241	keystroke_Key.space	Key.space	n/a
424.301	0.059	848602	keystroke_c	c	n/a
424.4505	0.0905	848901	keystroke_r	r	n/a
424.5705	0.105	849141	keystroke_u	u	n/a
424.6755	0.075	849351	keystroke_d	d	n/a
424.8405	0.075	849681	keystroke_e	e	n/a
424.9295	0.0755	849859	keystroke_Key.space	Key.space	n/a
425.081	0.105	850162	keystroke_t	t	n/a
425.4105	0.12	850821	keystroke_u	u	n/a
425.6355	0.09	851271	keystroke_r	r	n/a
425.786	0.105	851572	keystroke_n	n	n/a
425.936	0.1045	851872	keystroke_i	i	n/a
426.026	0.0895	852052	keystroke_n	n	n/a
426.1305	0.0905	852261	keystroke_g	g	n/a
426.28	0.105	852560	keystroke_Key.enter	Key.enter	n/a
426.3925	6.955	852785	prompt	n/a	depot featured spoken overall\n
426.9555	0.045	853911	keystroke_d	d	n/a
427.091	0.09	854182	keystroke_e	e	n/a
427.195	0.061	854390	keystroke_p	p	n/a
427.391	0.06	854782	keystroke_o	o	n/a
427.5555	0.12	855111	keystroke_t	t	n/a
427.6905	0.075	855381	keystroke_Key.space	Key.space	n/a
428.606	0.075	857212	keystroke_f	f	n/a
428.786	0.119	857572	keystroke_e	e	n/a
428.92	0.105	857840	keystroke_a	a	n/a
429.01	0.106	858020	keystroke_t	t	n/a
429.175	0.0905	858350	keystroke_u	u	n/a
429.251	0.0895	858502	keystroke_r	r	n/a
429.415	0.106	858830	keystroke_e	e	n/a
429.6405	0.0905	859281	keystroke_d	d	n/a
429.85	0.09	859700	keystroke_Key.space	Key.space	n/a
430.09	0.0765	860180	keystroke_s	s	n/a
430.21	0.075	860420	keystroke_p	p	n/a
430.4355	0.045	860871	keystroke_o	o	n/a
430.69	0.1055	861380	keystroke_j	j	n/a
431.335	0.06	862670	keystroke_Key.backspace	Key.backspace	n/a
431.575	0.075	863150	keystroke_k	k	n/a
431.681	0.089	863362	keystroke_e	e	n/a
431.8305	0.1045	863661	keystroke_n	n	n/a
431.965	0.09	863930	keystroke_Key.space	Key.space	n/a
432.265	0.1205	864530	keystroke_o	o	n/a
432.4005	0.09	864801	keystroke_v	v	n/a
432.5655	0.105	865131	keystroke_e	e	n/a
432.656	0.0745	865312	keystroke_r	r	n/a
432.8055	0.075	865611	keystroke_a	a	n/a
432.9555	0.061	865911	keystroke_l	l	n/a
433.091	0.074	866182	keystroke_l	l	n/a
433.2405	0.1045	866481	keystroke_Key.enter	Key.enter	n/a
433.3525	9.94	866705	prompt	n/a	diamonds captain department designs\n
433.901	0.06	867802	keystroke_d	d	n/a
433.99	0.105	867980	keystroke_i	i	n/a
434.14	0.1055	868280	keystroke_a	a	n/a
434.231	0.0895	868462	keystroke_m	m	n/a
434.4855	0.045	868971	keystroke_i	i	n/a
434.9205	0.075	869841	keystroke_Key.backspace	Key.backspace	n/a
435.1605	0.1505	870321	keystroke_o	o	n/a
435.2655	0.135	870531	keystroke_n	n	n/a
436.301	0.15	872602	keystroke_d	d	n/a
436.406	0.1345	872812	keystroke_s	s	n/a
436.6605	0.075	873321	keystroke_Key.space	Key.space	n/a
437.1555	0.09	874311	keystroke_c	c	n/a
437.3055	0.105	874611	keystroke_a	a	n/a
437.3955	0.0755	874791	keystroke_p	p	n/a
437.5305	0.075	875061	keystroke_t	t	n/a
437.6205	0.105	875241	keystroke_a	a	n/a
437.7405	0.1345	875481	keystroke_i	i	n/a
437.831	0.1195	875662	keystroke_n	n	n/a
437.98	0.12	875960	keystroke_Key.space	Key.space	n/a
438.22	0.061	876440	keystroke_e	e	n/a
438.55	0.061	877100	keystroke_Key.backspace	Key.backspace	n/a
438.625	0.0905	877250	keystroke_d	d	n/a
438.8065	0.089	877613	keystroke_e	e	n/a
438.955	0.0755	877910	keystroke_p	p	n/a
439.091	0.1045	878182	keystroke_a	a	n/a
439.2855	0.0895	878571	keystroke_r	r	n/a
439.48	0.09	878960	keystroke_t	t	n/a
439.6305	0.0895	879261	keystroke_m	m	n/a
439.7355	0.105	879471	keystroke_e	e	n/a
439.9005	0.105	879801	keystroke_n	n	n/a
440.0355	0.12	880071	keystroke_t	t	n/a
440.1855	0.105	880371	keystroke_Key.space	Key.space	n/a
440.621	0.0595	881242	keystroke_d	d	n/a
441.0255	0.09	882051	keystroke_e	e	n/a
441.161	0.119	882322	keystroke_s	s	n/a
441.4005	0.06	882801	keystroke_g	g	n/a
442.1355	0.06	884271	keystroke_Key.backspace	Key.backspace	n/a
442.3755	0.1055	884751	keystroke_i	i	n/a
442.4955	0.12	884991	keystroke_g	g	n/a
442.6455	0.12	885291	keystroke_n	n	n/a
443.0805	0.045	886161	keystroke_s	s	n/a
443.186	0.105	886372	keystroke_Key.enter	Key.enter	n/a
443.2965	5.5905	886593	prompt	n/a	interact butler donors cleaner\n
443.846	0.1495	887692	keystroke_i	i	n/a
443.965	0.105	887930	keystroke_n	n	n/a
444.0865	0.044	888173	keystroke_t	t	n/a
444.16	0.12	888320	keystroke_e	e	n/a
444.266	0.1045	888532	keystroke_r	r	n/a
444.401	0.1345	888802	keystroke_a	a	n/a
444.5955	0.1045	889191	keystroke_c	c	n/a
444.82	0.075	889640	keystroke_t	t	n/a
445.0005	0.075	890001	keystroke_Key.space	Key.space	n/a
445.406	0.1195	890812	keystroke_b	b	n/a
445.5105	0.135	891021	keystroke_u	u	n/a
445.6755	0.1205	891351	keystroke_t	t	n/a
445.901	0.075	891802	keystroke_l	l	n/a
446.066	0.0895	892132	keystroke_e	e	n/a
446.261	0.105	892522	keystroke_r	r	n/a
446.4105	0.12	892821	keystroke_Key.space	Key.space	n/a
446.6655	0.09	893331	keystroke_d	d	n/a
446.741	0.09	893482	keystroke_o	o	n/a
446.936	0.075	893872	keystroke_n	n	n/a
447.116	0.075	894232	keystroke_o	o	n/a
447.2505	0.075	894501	keystroke_r	r	n/a
447.3855	0.1055	894771	keystroke_s	s	n/a
447.5205	0.09	895041	keystroke_Key.space	Key.space	n/a
447.7905	0.09	895581	keystroke_c	c	n/a
447.911	0.075	895822	keystroke_l	l	n/a
448.0155	0.105	896031	keystroke_e	e	n/a
448.1215	0.134	896243	keystroke_a	a	n/a
448.3005	0.105	896601	keystroke_n	n	n/a
448.421	0.1045	896842	keystroke_e	e	n/a
448.646	0.074	897292	keystroke_r	r	n/a
448.796	0.0895	897592	keystroke_Key.enter	Key.enter	n/a
448.8915	7.5555	897783	prompt	n/a	combination statement sequence herbal\n
449.545	0.076	899090	keystroke_c	c	n/a
449.606	0.075	899212	keystroke_o	o	n/a
449.786	0.0895	899572	keystroke_m	m	n/a
450.0555	0.0745	900111	keystroke_b	b	n/a
450.175	0.1355	900350	keystroke_i	i	n/a
450.296	0.1045	900592	keystroke_n	n	n/a
450.416	0.0895	900832	keystroke_a	a	n/a
450.5655	0.09	901131	keystroke_t	t	n/a
450.701	0.15	901402	keystroke_i	i	n/a
450.836	0.075	901672	keystroke_o	o	n/a
451.031	0.105	902062	keystroke_n	n	n/a
451.196	0.075	902392	keystroke_Key.space	Key.space	n/a
451.406	0.1045	902812	keystroke_s	s	n/a
451.556	0.1205	903112	keystroke_t	t	n/a
451.691	0.1045	903382	keystroke_a	a	n/a
451.781	0.1195	903562	keystroke_t	t	n/a
451.886	0.1045	903772	keystroke_e	e	n/a
452.021	0.09	904042	keystroke_m	m	n/a
452.126	0.12	904252	keystroke_e	e	n/a
452.2905	0.09	904581	keystroke_n	n	n/a
452.3655	0.1205	904731	keystroke_t	t	n/a
452.516	0.1045	905032	keystroke_Key.space	Key.space	n/a
453.266	0.075	906532	keystroke_s	s	n/a
453.476	0.105	906952	keystroke_e	e	n/a
454.001	0.105	908002	keystroke_q	q	n/a
454.226	0.1045	908452	keystroke_u	u	n/a
454.376	0.09	908752	keystroke_e	e	n/a
454.5705	0.0905	909141	keystroke_n	n	n/a
454.6915	0.104	909383	keystroke_c	c	n/a
454.781	0.135	909562	keystroke_e	e	n/a
454.961	0.075	909922	keystroke_Key.space	Key.space	n/a
455.396	0.09	910792	keystroke_h	h	n/a
455.576	0.1195	911152	keystroke_e	e	n/a
455.756	0.0895	911512	keystroke_r	r	n/a
455.876	0.105	911752	keystroke_b	b	n/a
456.0255	0.1055	912051	keystroke_a	a	n/a
456.1755	0.0605	912351	keystroke_l	l	n/a
456.385	0.061	912770	keystroke_Key.enter	Key.enter	n/a
456.4505	4.873	912901	prompt	n/a	crimes coated brook throughout\n
457.256	0.075	914512	keystroke_c	c	n/a
457.436	0.06	914872	keystroke_r	r	n/a
457.541	0.1795	915082	keystroke_i	i	n/a
457.6615	0.119	915323	keystroke_m	m	n/a
457.7805	0.105	915561	keystroke_e	e	n/a
457.9005	0.1055	915801	keystroke_s	s	n/a
458.0505	0.075	916101	keystroke_Key.space	Key.space	n/a
458.231	0.09	916462	keystroke_c	c	n/a
458.3505	0.076	916701	keystroke_o	o	n/a
458.486	0.1045	916972	keystroke_a	a	n/a
458.6655	0.105	917331	keystroke_t	t	n/a
458.7855	0.0605	917571	keystroke_e	e	n/a
458.9505	0.0755	917901	keystroke_d	d	n/a
459.0555	0.106	918111	keystroke_Key.space	Key.space	n/a
459.295	0.076	918590	keystroke_b	b	n/a
459.401	0.075	918802	keystroke_r	r	n/a
459.536	0.0595	919072	keystroke_o	o	n/a
459.6705	0.1055	919341	keystroke_o	o	n/a
459.7765	0.1195	919553	keystroke_k	k	n/a
459.9105	0.09	919821	keystroke_Key.space	Key.space	n/a
460.196	0.09	920392	keystroke_t	t	n/a
460.301	0.09	920602	keystroke_h	h	n/a
460.3765	0.1195	920753	keystroke_r	r	n/a
460.481	0.1505	920962	keystroke_o	o	n/a
460.571	0.0905	921142	keystroke_u	u	n/a
460.6465	0.1195	921293	keystroke_g	g	n/a
460.766	0.075	921532	keystroke_h	h	n/a
460.931	0.0905	921862	keystroke_o	o	n/a
460.99	0.106	921980	keystroke_u	u	n/a
461.111	0.075	922222	keystroke_t	t	n/a
461.2305	0.0905	922461	keystroke_Key.enter	Key.enter	n/a
461.3285	11.6185	922657	prompt	n/a	reservations nuclear classifieds mysql\n
461.951	0.1055	923902	keystroke_r	r	n/a
462.0565	0.105	924113	keystroke_e	e	n/a
462.281	0.1045	924562	keystroke_s	s	n/a
462.4005	0.1055	924801	keystroke_e	e	n/a
462.581	0.105	925162	keystroke_r	r	n/a
462.836	0.075	925672	keystroke_v	v	n/a
463.016	0.09	926032	keystroke_a	a	n/a
463.151	0.0595	926302	keystroke_t	t	n/a
463.2565	0.1195	926513	keystroke_i	i	n/a
463.346	0.0595	926692	keystroke_o	o	n/a
463.5255	0.0905	927051	keystroke_n	n	n/a
463.646	0.09	927292	keystroke_s	s	n/a
463.751	0.09	927502	keystroke_Key.space	Key.space	n/a
464.0215	0.104	928043	keystroke_u	u	n/a
464.621	0.0895	929242	keystroke_n	n	n/a
464.9805	0.0455	929961	keystroke_Key.backspace	Key.backspace	n/a
465.101	0.075	930202	keystroke_Key.backspace	Key.backspace	n/a
465.4005	0.1355	930801	keystroke_n	n	n/a
465.5805	0.105	931161	keystroke_u	u	n/a
465.8055	0.0905	931611	keystroke_c	c	n/a
465.986	0.0755	931972	keystroke_l	l	n/a
466.1205	0.1955	932241	keystroke_e	e	n/a
466.4515	0.119	932903	keystroke_a	a	n/a
466.5565	0.1045	933113	keystroke_r	r	n/a
466.7805	0.0905	933561	keystroke_Key.space	Key.space	n/a
467.2305	0.09	934461	keystroke_c	c	n/a
467.366	0.1205	934732	keystroke_a	a	n/a
468.115	0.046	936230	keystroke_Key.backspace	Key.backspace	n/a
468.356	0.089	936712	keystroke_l	l	n/a
468.4765	0.1345	936953	keystroke_a	a	n/a
468.596	0.12	937192	keystroke_s	s	n/a
468.821	0.105	937642	keystroke_s	s	n/a
469.5855	0.076	939171	keystroke_i	i	n/a
469.6915	0.1045	939383	keystroke_f	f	n/a
469.855	0.106	939710	keystroke_i	i	n/a
470.066	0.09	940132	keystroke_e	e	n/a
470.3505	0.0905	940701	keystroke_d	d	n/a
470.575	0.106	941150	keystroke_Key.space	Key.space	n/a
470.936	0.0755	941872	keystroke_m	m	n/a
471.296	0.105	942592	keystroke_s	s	n/a
471.641	0.075	943282	keystroke_Key.backspace	Key.backspace	n/a
471.9705	0.0755	943941	keystroke_y	y	n/a
472.1055	0.09	944211	keystroke_s	s	n/a
472.4055	0.1055	944811	keystroke_q	q	n/a
472.5705	0.09	945141	keystroke_l	l	n/a
472.886	0.0595	945772	keystroke_Key.enter	Key.enter	n/a
472.9515	9.0265	945903	prompt	n/a	satisfactory slovenia this sequences\n
473.771	0.135	947542	keystroke_s	s	n/a
473.891	0.15	947782	keystroke_a	a	n/a
474.446	0.105	948892	keystroke_t	t	n/a
474.6105	0.0755	949221	keystroke_i	i	n/a
475.1055	0.09	950211	keystroke_s	s	n/a
475.571	0.1195	951142	keystroke_f	f	n/a
475.886	0.075	951772	keystroke_a	a	n/a
476.0805	0.12	952161	keystroke_c	c	n/a
476.3205	0.075	952641	keystroke_t	t	n/a
476.5615	0.089	953123	keystroke_o	o	n/a
476.7115	0.089	953423	keystroke_r	r	n/a
476.9215	0.074	953843	keystroke_y	y	n/a
477.0715	0.1045	954143	keystroke_Key.space	Key.space	n/a
477.2065	0.1045	954413	keystroke_s	s	n/a
477.3555	0.075	954711	keystroke_l	l	n/a
477.536	0.0745	955072	keystroke_o	o	n/a
477.5955	0.076	955191	keystroke_v	v	n/a
477.7315	0.074	955463	keystroke_e	e	n/a
477.8505	0.105	955701	keystroke_n	n	n/a
478.0155	0.06	956031	keystroke_i	i	n/a
478.1365	0.089	956273	keystroke_a	a	n/a
478.2405	0.09	956481	keystroke_Key.space	Key.space	n/a
478.4365	0.0895	956873	keystroke_t	t	n/a
478.5105	0.136	957021	keystroke_h	h	n/a
478.6315	0.06	957263	keystroke_i	i	n/a
478.721	0.104	957442	keystroke_s	s	n/a
478.826	0.09	957652	keystroke_Key.space	Key.space	n/a
479.2165	0.0895	958433	keystroke_q	q	n/a
479.576	0.075	959152	keystroke_Key.backspace	Key.backspace	n/a
479.771	0.105	959542	keystroke_s	s	n/a
479.936	0.135	959872	keystroke_e	e	n/a
480.1905	0.105	960381	keystroke_u	u	n/a
480.3715	0.075	960743	keystroke_q	q	n/a
480.7605	0.0605	961521	keystroke_Key.backspace	Key.backspace	n/a
480.8805	0.075	961761	keystroke_Key.backspace	Key.backspace	n/a
480.9855	0.105	961971	keystroke_q	q	n/a
481.241	0.0595	962482	keystroke_u	u	n/a
481.3155	0.106	962631	keystroke_e	e	n/a
481.4815	0.105	962963	keystroke_n	n	n/a
481.616	0.12	963232	keystroke_c	c	n/a
481.721	0.09	963442	keystroke_e	e	n/a
481.871	0.105	963742	keystroke_Key.enter	Key.enter	n/a
481.986	7.717	963972	prompt	n/a	expressed began validation failing\n
482.9065	0.074	965813	keystroke_e	e	n/a
483.086	0.105	966172	keystroke_x	x	n/a
483.221	0.0755	966442	keystroke_p	p	n/a
483.3415	0.0895	966683	keystroke_r	r	n/a
483.521	0.0905	967042	keystroke_e	e	n/a
483.701	0.0745	967402	keystroke_s	s	n/a
483.8515	0.089	967703	keystroke_s	s	n/a
484.3915	0.0595	968783	keystroke_e	e	n/a
484.571	0.0905	969142	keystroke_d	d	n/a
484.721	0.09	969442	keystroke_Key.space	Key.space	n/a
484.976	0.105	969952	keystroke_b	b	n/a
485.066	0.09	970132	keystroke_e	e	n/a
485.2915	0.0745	970583	keystroke_g	g	n/a
485.426	0.1055	970852	keystroke_a	a	n/a
485.576	0.12	971152	keystroke_n	n	n/a
485.741	0.09	971482	keystroke_Key.space	Key.space	n/a
486.041	0.09	972082	keystroke_v	v	n/a
486.3855	0.0755	972771	keystroke_l	l	n/a
486.7455	0.045	973491	keystroke_Key.backspace	Key.backspace	n/a
486.866	0.1045	973732	keystroke_a	a	n/a
487.016	0.1805	974032	keystroke_l	l	n/a
487.136	0.12	974272	keystroke_i	i	n/a
487.271	0.1355	974542	keystroke_d	d	n/a
487.3915	0.1195	974783	keystroke_a	a	n/a
487.5415	0.0745	975083	keystroke_t	t	n/a
487.63	0.136	975260	keystroke_i	i	n/a
487.721	0.075	975442	keystroke_o	o	n/a
487.961	0.12	975922	keystroke_n	n	n/a
488.126	0.0895	976252	keystroke_Key.space	Key.space	n/a
488.486	0.0895	976972	keystroke_f	f	n/a
488.6055	0.12	977211	keystroke_a	a	n/a
488.8615	0.074	977723	keystroke_i	i	n/a
489.071	0.0445	978142	keystroke_l	l	n/a
489.2365	0.134	978473	keystroke_i	i	n/a
489.3555	0.09	978711	keystroke_n	n	n/a
489.4615	0.0745	978923	keystroke_g	g	n/a
489.6105	0.0905	979221	keystroke_Key.enter	Key.enter	n/a
489.7085	7.2995	979417	prompt	n/a	slovak actor won't magnetic\n
490.197	0.044	980394	keystroke_e	e	n/a
490.556	0.045	981112	keystroke_Key.backspace	Key.backspace	n/a
490.676	0.105	981352	keystroke_s	s	n/a
490.7955	0.0755	981591	keystroke_l	l	n/a
490.976	0.06	981952	keystroke_o	o	n/a
491.6815	0.134	983363	keystroke_v	v	n/a
492.1465	0.0895	984293	keystroke_a	a	n/a
492.446	0.0905	984892	keystroke_k	k	n/a
492.641	0.12	985282	keystroke_Key.space	Key.space	n/a
492.776	0.1355	985552	keystroke_a	a	n/a
492.956	0.09	985912	keystroke_c	c	n/a
493.1665	0.075	986333	keystroke_t	t	n/a
493.2865	0.09	986573	keystroke_o	o	n/a
493.4215	0.089	986843	keystroke_r	r	n/a
493.5265	0.105	987053	keystroke_Key.space	Key.space	n/a
493.811	0.105	987622	keystroke_w	w	n/a
493.9015	0.09	987803	keystroke_o	o	n/a
494.0815	0.06	988163	keystroke_n	n	n/a
494.606	0.0905	989212	keystroke_'	'	n/a
494.876	0.075	989752	keystroke_t	t	n/a
495.0405	0.09	990081	keystroke_Key.space	Key.space	n/a
495.3115	0.09	990623	keystroke_m	m	n/a
495.4315	0.1045	990863	keystroke_a	a	n/a
495.6415	0.074	991283	keystroke_g	g	n/a
496.0605	0.106	992121	keystroke_n	n	n/a
496.2255	0.136	992451	keystroke_e	e	n/a
496.421	0.1045	992842	keystroke_t	t	n/a
496.6015	0.1045	993203	keystroke_i	i	n/a
496.736	0.1055	993472	keystroke_c	c	n/a
496.916	0.09	993832	keystroke_Key.enter	Key.enter	n/a
497.013	7.5565	994026	prompt	n/a	frank stretch physicians show\n
497.7115	0.1195	995423	keystroke_f	f	n/a
498.041	0.1205	996082	keystroke_a	a	n/a
498.506	0.0445	997012	keystroke_Key.backspace	Key.backspace	n/a
498.5655	0.076	997131	keystroke_r	r	n/a
498.6115	0.1345	997223	keystroke_a	a	n/a
498.7305	0.151	997461	keystroke_n	n	n/a
498.8665	0.075	997733	keystroke_k	k	n/a
499.046	0.09	998092	keystroke_Key.space	Key.space	n/a
499.226	0.09	998452	keystroke_s	s	n/a
499.3765	0.1045	998753	keystroke_t	t	n/a
499.5855	0.0305	999171	keystroke_r	r	n/a
499.721	0.09	999442	keystroke_e	e	n/a
499.9455	0.0905	999891	keystroke_t	t	n/a
500.171	0.105	1000342	keystroke_c	c	n/a
500.2905	0.091	1000581	keystroke_h	h	n/a
500.441	0.105	1000882	keystroke_Key.space	Key.space	n/a
500.726	0.075	1001452	keystroke_p	p	n/a
500.9515	0.09	1001903	keystroke_h	h	n/a
501.9115	0.09	1003823	keystroke_y	y	n/a
502.2555	0.075	1004511	keystroke_s	s	n/a
502.4805	0.105	1004961	keystroke_i	i	n/a
502.631	0.1055	1005262	keystroke_c	c	n/a
502.7505	0.1355	1005501	keystroke_i	i	n/a
502.976	0.1195	1005952	keystroke_a	a	n/a
503.156	0.1045	1006312	keystroke_n	n	n/a
503.291	0.0895	1006582	keystroke_s	s	n/a
503.4255	0.075	1006851	keystroke_Key.space	Key.space	n/a
503.5605	0.1205	1007121	keystroke_s	s	n/a
503.695	0.061	1007390	keystroke_h	h	n/a
503.876	0.06	1007752	keystroke_o	o	n/a
503.981	0.09	1007962	keystroke_w	w	n/a
504.461	0.1045	1008922	keystroke_Key.enter	Key.enter	n/a
504.5745	10.478	1009149	prompt	n/a	windows michel powerseller dealt\n
505.211	0.09	1010422	keystroke_w	w	n/a
505.316	0.1205	1010632	keystroke_i	i	n/a
505.406	0.09	1010812	keystroke_n	n	n/a
505.511	0.09	1011022	keystroke_d	d	n/a
505.691	0.075	1011382	keystroke_o	o	n/a
506.2915	0.074	1012583	keystroke_w	w	n/a
506.5015	0.1045	1013003	keystroke_s	s	n/a
506.666	0.0895	1013332	keystroke_Key.space	Key.space	n/a
507.266	0.12	1014532	keystroke_m	m	n/a
507.371	0.1055	1014742	keystroke_i	i	n/a
507.506	0.105	1015012	keystroke_c	c	n/a
507.8815	0.1045	1015763	keystroke_h	h	n/a
508.046	0.0895	1016092	keystroke_e	e	n/a
508.2255	0.0755	1016451	keystroke_l	l	n/a
508.361	0.1195	1016722	keystroke_Key.space	Key.space	n/a
510.7035	0.0425	1021407	keystroke_p	p	n/a
510.881	0.1045	1021762	keystroke_w	w	n/a
511.271	0.045	1022542	keystroke_Key.backspace	Key.backspace	n/a
511.4965	0.0745	1022993	keystroke_o	o	n/a
511.6015	0.149	1023203	keystroke_w	w	n/a
511.721	0.1045	1023442	keystroke_e	e	n/a
511.901	0.09	1023802	keystroke_r	r	n/a
512.081	0.12	1024162	keystroke_s	s	n/a
512.231	0.105	1024462	keystroke_e	e	n/a
512.381	0.075	1024762	keystroke_l	l	n/a
512.5465	0.075	1025093	keystroke_l	l	n/a
512.6815	0.1195	1025363	keystroke_e	e	n/a
512.7865	0.1045	1025573	keystroke_r	r	n/a
512.9055	0.0905	1025811	keystroke_Key.space	Key.space	n/a
513.146	0.03	1026292	keystroke_d	d	n/a
513.491	0.1805	1026982	keystroke_e	e	n/a
513.521	0.0605	1027042	keystroke_a	a	n/a
514.1215	0.1045	1028243	keystroke_l	l	n/a
514.256	0.1355	1028512	keystroke_t	t	n/a
514.931	0.12	1029862	keystroke_Key.enter	Key.enter	n/a
515.0585	6.2795	1030117	prompt	n/a	seriously undo harrison receivers\n
515.636	0.1055	1031272	keystroke_s	s	n/a
515.936	0.09	1031872	keystroke_r	r	n/a
516.296	0.06	1032592	keystroke_Key.backspace	Key.backspace	n/a
516.3265	0.135	1032653	keystroke_e	e	n/a
516.4315	0.0895	1032863	keystroke_r	r	n/a
516.656	0.1505	1033312	keystroke_i	i	n/a
516.79	0.1515	1033580	keystroke_o	o	n/a
516.9255	0.106	1033851	keystroke_u	u	n/a
517.046	0.1195	1034092	keystroke_s	s	n/a
517.1505	0.1055	1034301	keystroke_l	l	n/a
517.376	0.075	1034752	keystroke_y	y	n/a
517.496	0.09	1034992	keystroke_Key.space	Key.space	n/a
517.721	0.105	1035442	keystroke_u	u	n/a
517.796	0.1045	1035592	keystroke_n	n	n/a
517.916	0.1055	1035832	keystroke_d	d	n/a
518.0365	0.0895	1036073	keystroke_o	o	n/a
518.171	0.09	1036342	keystroke_Key.space	Key.space	n/a
518.546	0.045	1037092	keystroke_h	h	n/a
518.6515	0.12	1037303	keystroke_a	a	n/a
518.7715	0.059	1037543	keystroke_r	r	n/a
518.906	0.0895	1037812	keystroke_r	r	n/a
519.0255	0.075	1038051	keystroke_i	i	n/a
519.1455	0.091	1038291	keystroke_s	s	n/a
519.251	0.0755	1038502	keystroke_o	o	n/a
519.461	0.0905	1038922	keystroke_n	n	n/a
519.566	0.1045	1039132	keystroke_Key.space	Key.space	n/a
519.881	0.1055	1039762	keystroke_r	r	n/a
520.0005	0.09	1040001	keystroke_e	e	n/a
520.1505	0.105	1040301	keystroke_c	c	n/a
520.2705	0.075	1040541	keystroke_e	e	n/a
520.4355	0.105	1040871	keystroke_i	i	n/a
520.5565	0.1195	1041113	keystroke_v	v	n/a
520.7055	0.136	1041411	keystroke_e	e	n/a
520.8565	0.105	1041713	keystroke_r	r	n/a
521.096	0.0895	1042192	keystroke_s	s	n/a
521.2455	0.09	1042491	keystroke_Key.enter	Key.enter	n/a
521.3435	5.874	1042687	prompt	n/a	draw housewares riders holdings\n
522.0115	0.0745	1044023	keystroke_d	d	n/a
522.1765	0.1045	1044353	keystroke_r	r	n/a
522.311	0.1955	1044622	keystroke_a	a	n/a
522.476	0.12	1044952	keystroke_w	w	n/a
522.6105	0.0905	1045221	keystroke_Key.space	Key.space	n/a
522.836	0.0905	1045672	keystroke_h	h	n/a
523.001	0.1355	1046002	keystroke_o	o	n/a
523.0765	0.09	1046153	keystroke_u	u	n/a
523.1515	0.089	1046303	keystroke_s	s	n/a
523.2265	0.104	1046453	keystroke_e	e	n/a
523.4215	0.12	1046843	keystroke_w	w	n/a
523.5265	0.105	1047053	keystroke_a	a	n/a
523.6455	0.136	1047291	keystroke_r	r	n/a
523.7665	0.0745	1047533	keystroke_e	e	n/a
523.9305	0.091	1047861	keystroke_s	s	n/a
524.0665	0.09	1048133	keystroke_Key.space	Key.space	n/a
524.2615	0.045	1048523	keystroke_d	d	n/a
524.4265	0.045	1048853	keystroke_r	r	n/a
