onset	duration	sample	value	key	prompt_text
84.5075	0.1045	169015	keystroke_v	v	n/a
84.553	0.1045	169106	keystroke_i	i	n/a
84.6725	0.1505	169345	keystroke_s	s	n/a
84.748	0.0595	169496	keystroke_h	h	n/a
87.0725	0.2545	174145	keystroke_Key.cmd	Key.cmd	n/a
87.1025	0.2095	174205	keystroke_v	v	n/a
94.3775	0.0745	188755	keystroke_Key.space	Key.space	n/a
94.4835	5.086	188967	prompt	n/a	the quick brown fox jumps over a lazy dog\n
95.0675	0.1055	190135	keystroke_t	t	n/a
95.1275	0.12	190255	keystroke_h	h	n/a
95.263	0.1195	190526	keystroke_e	e	n/a
95.3525	0.15	190705	keystroke_Key.space	Key.space	n/a
95.518	0.1345	191036	keystroke_q	q	n/a
95.6525	0.105	191305	keystroke_u	u	n/a
95.6675	0.1055	191335	keystroke_i	i	n/a
95.7875	0.18	191575	keystroke_c	c	n/a
95.923	0.1045	191846	keystroke_k	k	n/a
95.9825	0.1205	191965	keystroke_Key.space	Key.space	n/a
96.073	0.0745	192146	keystroke_b	b	n/a
96.2525	0.12	192505	keystroke_r	r	n/a
96.3275	0.1205	192655	keystroke_o	o	n/a
96.433	0.1195	192866	keystroke_w	w	n/a
96.5375	0.075	193075	keystroke_n	n	n/a
96.5675	0.1055	193135	keystroke_Key.space	Key.space	n/a
96.658	0.1045	193316	keystroke_f	f	n/a
96.748	0.0895	193496	keystroke_o	o	n/a
96.8375	0.136	193675	keystroke_x	x	n/a
96.8825	0.15	193765	keystroke_Key.space	Key.space	n/a
97.048	0.06	194096	keystroke_j	j	n/a
97.183	0.075	194366	keystroke_u	u	n/a
97.378	0.1195	194756	keystroke_m	m	n/a
97.4825	0.15	194965	keystroke_p	p	n/a
97.5585	0.1495	195117	keystroke_s	s	n/a
97.693	0.195	195386	keystroke_Key.space	Key.space	n/a
98.008	0.1195	196016	keystroke_o	o	n/a
98.098	0.09	196196	keystroke_v	v	n/a
98.2325	0.1345	196465	keystroke_e	e	n/a
98.308	0.0745	196616	keystroke_r	r	n/a
98.3525	0.075	196705	keystroke_Key.space	Key.space	n/a
98.488	0.09	196976	keystroke_a	a	n/a
98.518	0.1195	197036	keystroke_Key.space	Key.space	n/a
98.6525	0.12	197305	keystroke_l	l	n/a
98.758	0.06	197516	keystroke_a	a	n/a
98.9375	0.121	197875	keystroke_z	z	n/a
99.013	0.105	198026	keystroke_y	y	n/a
99.103	0.06	198206	keystroke_Key.space	Key.space	n/a
99.178	0.12	198356	keystroke_d	d	n/a
99.2525	0.1205	198505	keystroke_o	o	n/a
99.373	0.1195	198746	keystroke_g	g	n/a
99.4775	0.09	198955	keystroke_Key.enter	Key.enter	n/a
99.573	7.017	199146	prompt	n/a	associations oven potatoes samples\n
100.2125	0.0755	200425	keystroke_a	a	n/a
100.393	0.0745	200786	keystroke_s	s	n/a
100.558	0.09	201116	keystroke_s	s	n/a
100.588	0.105	201176	keystroke_o	o	n/a
100.7525	0.09	201505	keystroke_c	c	n/a
100.8275	0.1055	201655	keystroke_i	i	n/a
100.918	0.1495	201836	keystroke_a	a	n/a
101.0525	0.1205	202105	keystroke_t	t	n/a
101.1275	0.1355	202255	keystroke_i	i	n/a
101.173	0.1345	202346	keystroke_o	o	n/a
101.248	0.1195	202496	keystroke_n	n	n/a
101.3225	0.1205	202645	keystroke_Key.space	Key.space	n/a
101.4875	0.09	202975	keystroke_o	o	n/a
101.5625	0.0905	203125	keystroke_v	v	n/a
101.683	0.15	203366	keystroke_e	e	n/a
101.7725	0.105	203545	keystroke_r	r	n/a
101.833	0.0745	203666	keystroke_n	n	n/a
101.8925	0.0905	203785	keystroke_Key.space	Key.space	n/a
101.998	0.105	203996	keystroke_p	p	n/a
102.1775	0.1655	204355	keystroke_o	o	n/a
102.358	0.1495	204716	keystroke_t	t	n/a
102.4925	0.1055	204985	keystroke_a	a	n/a
102.583	0.12	205166	keystroke_t	t	n/a
102.883	0.06	205766	keystroke_Key.backspace	Key.backspace	n/a
103.048	0.0445	206096	keystroke_Key.backspace	Key.backspace	n/a
103.198	0.045	206396	keystroke_Key.backspace	Key.backspace	n/a
103.3325	0.06	206665	keystroke_Key.backspace	Key.backspace	n/a
103.483	0.06	206966	keystroke_Key.backspace	Key.backspace	n/a
103.633	0.0595	207266	keystroke_Key.backspace	Key.backspace	n/a
103.768	0.075	207536	keystroke_Key.backspace	Key.backspace	n/a
103.9625	0.045	207925	keystroke_Key.backspace	Key.backspace	n/a
104.203	0.0895	208406	keystroke_n	n	n/a
104.2775	0.0905	208555	keystroke_Key.space	Key.space	n/a
104.383	0.135	208766	keystroke_p	p	n/a
104.6225	0.1055	209245	keystroke_o	o	n/a
104.758	0.15	209516	keystroke_t	t	n/a
104.923	0.135	209846	keystroke_a	a	n/a
105.043	0.105	210086	keystroke_t	t	n/a
105.163	0.105	210326	keystroke_o	o	n/a
105.343	0.12	210686	keystroke_e	e	n/a
105.418	0.165	210836	keystroke_s	s	n/a
105.538	0.09	211076	keystroke_Key.space	Key.space	n/a
105.883	0.135	211766	keystroke_s	s	n/a
105.958	0.1645	211916	keystroke_a	a	n/a
106.0625	0.1055	212125	keystroke_m	m	n/a
106.108	0.15	212216	keystroke_p	p	n/a
106.2125	0.1205	212425	keystroke_l	l	n/a
106.258	0.1495	212516	keystroke_e	e	n/a
106.318	0.165	212636	keystroke_s	s	n/a
106.528	0.0595	213056	keystroke_Key.enter	Key.enter	n/a
106.593	5.9065	213186	prompt	n/a	daisy deer modem water\n
107.338	0.105	214676	keystroke_d	d	n/a
107.6075	0.1055	215215	keystroke_s	s	n/a
107.7275	0.1955	215455	keystroke_a	a	n/a
107.938	0.015	215876	keystroke_i	i	n/a
107.998	0.105	215996	keystroke_s	s	n/a
108.238	0.0595	216476	keystroke_Key.backspace	Key.backspace	n/a
108.4025	0.06	216805	keystroke_Key.backspace	Key.backspace	n/a
108.553	0.06	217106	keystroke_Key.backspace	Key.backspace	n/a
108.703	0.1045	217406	keystroke_Key.backspace	Key.backspace	n/a
108.7925	0.1655	217585	keystroke_a	a	n/a
108.9435	0.0445	217887	keystroke_i	i	n/a
108.973	0.165	217946	keystroke_s	s	n/a
109.123	0.075	218246	keystroke_y	y	n/a
109.183	0.0895	218366	keystroke_Key.space	Key.space	n/a
109.288	0.1045	218576	keystroke_d	d	n/a
109.498	0.0895	218996	keystroke_e	e	n/a
109.828	0.045	219656	keystroke_e	e	n/a
109.888	0.15	219776	keystroke_r	r	n/a
110.053	0.045	220106	keystroke_Key.space	Key.space	n/a
110.2625	0.09	220525	keystroke_m	m	n/a
110.3085	0.1195	220617	keystroke_o	o	n/a
110.653	0.075	221306	keystroke_d	d	n/a
110.8025	0.12	221605	keystroke_e	e	n/a
110.8775	0.1055	221755	keystroke_m	m	n/a
110.938	0.1195	221876	keystroke_Key.space	Key.space	n/a
111.1625	0.1205	222325	keystroke_w	w	n/a
111.268	0.12	222536	keystroke_a	a	n/a
111.403	0.1045	222806	keystroke_t	t	n/a
112.2275	0.15	224455	keystroke_e	e	n/a
112.333	0.135	224666	keystroke_r	r	n/a
112.423	0.075	224846	keystroke_Key.enter	Key.enter	n/a
112.5035	5.1405	225007	prompt	n/a	athens sisters excellent reports\n
113.2925	0.1355	226585	keystroke_a	a	n/a
113.443	0.1045	226886	keystroke_t	t	n/a
113.833	0.075	227666	keystroke_h	h	n/a
113.9075	0.1505	227815	keystroke_e	e	n/a
114.043	0.1045	228086	keystroke_n	n	n/a
114.1325	0.09	228265	keystroke_s	s	n/a
114.238	0.075	228476	keystroke_Key.space	Key.space	n/a
114.343	0.075	228686	keystroke_s	s	n/a
114.4325	0.09	228865	keystroke_i	i	n/a
114.538	0.12	229076	keystroke_s	s	n/a
114.643	0.1045	229286	keystroke_t	t	n/a
114.733	0.135	229466	keystroke_e	e	n/a
114.868	0.1495	229736	keystroke_r	r	n/a
114.943	0.1195	229886	keystroke_s	s	n/a
115.0775	0.0755	230155	keystroke_Key.space	Key.space	n/a
115.213	0.105	230426	keystroke_e	e	n/a
115.4225	0.1205	230845	keystroke_x	x	n/a
115.828	0.09	231656	keystroke_c	c	n/a
115.9925	0.0905	231985	keystroke_e	e	n/a
116.113	0.0595	232226	keystroke_l	l	n/a
116.2475	0.105	232495	keystroke_l	l	n/a
116.308	0.12	232616	keystroke_e	e	n/a
116.5325	0.0905	233065	keystroke_n	n	n/a
116.6075	0.12	233215	keystroke_t	t	n/a
116.713	0.105	233426	keystroke_Key.space	Key.space	n/a
116.8475	0.12	233695	keystroke_r	r	n/a
116.8925	0.1355	233785	keystroke_e	e	n/a
117.013	0.1495	234026	keystroke_p	p	n/a
117.073	0.1805	234146	keystroke_o	o	n/a
117.1475	0.0905	234295	keystroke_r	r	n/a
117.358	0.1195	234716	keystroke_t	t	n/a
117.4325	0.1205	234865	keystroke_s	s	n/a
117.5535	0.089	235107	keystroke_Key.enter	Key.enter	n/a
117.6475	11.7715	235295	prompt	n/a	wherever base sufficiently employ\n
118.3025	0.09	236605	keystroke_w	w	n/a
118.3775	0.1055	236755	keystroke_h	h	n/a
118.439	0.134	236878	keystroke_a	a	n/a
118.558	0.0745	237116	keystroke_t	t	n/a
118.8735	0.074	237747	keystroke_Key.backspace	Key.backspace	n/a
119.023	0.075	238046	keystroke_Key.backspace	Key.backspace	n/a
119.203	0.136	238406	keystroke_e	e	n/a
119.383	0.0895	238766	keystroke_v	v	n/a
119.4875	0.121	238975	keystroke_e	e	n/a
119.5625	0.1205	239125	keystroke_r	r	n/a
120.089	0.119	240178	keystroke_v	v	n/a
120.4175	0.045	240835	keystroke_Key.backspace	Key.backspace	n/a
120.5375	0.0905	241075	keystroke_Key.backspace	Key.backspace	n/a
120.6135	0.104	241227	keystroke_v	v	n/a
120.7325	0.1205	241465	keystroke_e	e	n/a
120.8085	0.1195	241617	keystroke_r	r	n/a
120.898	0.0595	241796	keystroke_Key.space	Key.space	n/a
121.453	0.1205	242906	keystroke_b	b	n/a
121.5575	0.1505	243115	keystroke_a	a	n/a
121.618	0.135	243236	keystroke_s	s	n/a
121.6775	0.135	243355	keystroke_e	e	n/a
121.7975	0.1055	243595	keystroke_Key.space	Key.space	n/a
122.398	0.075	244796	keystroke_Key.backspace	Key.backspace	n/a
122.5775	0.046	245155	keystroke_Key.backspace	Key.backspace	n/a
122.728	0.03	245456	keystroke_Key.backspace	Key.backspace	n/a
122.8475	0.0605	245695	keystroke_Key.backspace	Key.backspace	n/a
123.0135	0.06	246027	keystroke_Key.backspace	Key.backspace	n/a
123.1475	0.075	246295	keystroke_Key.backspace	Key.backspace	n/a
123.298	0.075	246596	keystroke_Key.backspace	Key.backspace	n/a
123.4625	0.045	246925	keystroke_Key.backspace	Key.backspace	n/a
123.613	0.045	247226	keystroke_Key.backspace	Key.backspace	n/a
123.748	0.0745	247496	keystroke_Key.backspace	Key.backspace	n/a
123.9135	0.089	247827	keystroke_Key.backspace	Key.backspace	n/a
124.153	0.15	248306	keystroke_r	r	n/a
124.228	0.1495	248456	keystroke_e	e	n/a
125.5775	0.0905	251155	keystroke_v	v	n/a
125.6975	0.1505	251395	keystroke_e	e	n/a
125.803	0.12	251606	keystroke_r	r	n/a
125.893	0.09	251786	keystroke_Key.space	Key.space	n/a
126.0435	0.1495	252087	keystroke_b	b	n/a
126.1475	0.1655	252295	keystroke_a	a	n/a
126.2385	0.1045	252477	keystroke_s	s	n/a
126.2675	0.1355	252535	keystroke_e	e	n/a
126.3735	0.104	252747	keystroke_Key.space	Key.space	n/a
126.673	0.0895	253346	keystroke_s	s	n/a
126.793	0.06	253586	keystroke_u	u	n/a
126.8685	0.0595	253737	keystroke_f	f	n/a
127.0325	0.076	254065	keystroke_f	f	n/a
127.153	0.075	254306	keystroke_i	i	n/a
127.273	0.1655	254546	keystroke_c	c	n/a
127.393	0.1495	254786	keystroke_i	i	n/a
127.5885	0.09	255177	keystroke_e	e	n/a
127.679	0.0895	255358	keystroke_n	n	n/a
127.783	0.12	255566	keystroke_t	t	n/a
127.858	0.1655	255716	keystroke_l	l	n/a
127.993	0.12	255986	keystroke_y	y	n/a
128.068	0.1645	256136	keystroke_Key.space	Key.space	n/a
128.5475	0.0755	257095	keystroke_e	e	n/a
128.623	0.135	257246	keystroke_m	m	n/a
128.713	0.1495	257426	keystroke_p	p	n/a
128.803	0.105	257606	keystroke_l	l	n/a
128.9975	0.135	257995	keystroke_o	o	n/a
129.0885	0.1045	258177	keystroke_y	y	n/a
129.343	0.0745	258686	keystroke_Key.enter	Key.enter	n/a
129.4225	3.987	258845	prompt	n/a	asset lock request waves\n
130.0625	0.121	260125	keystroke_a	a	n/a
130.153	0.105	260306	keystroke_s	s	n/a
130.363	0.1055	260726	keystroke_s	s	n/a
130.453	0.1645	260906	keystroke_e	e	n/a
130.753	0.12	261506	keystroke_t	t	n/a
130.8885	0.1505	261777	keystroke_Key.space	Key.space	n/a
131.113	0.045	262226	keystroke_l	l	n/a
131.2325	0.12	262465	keystroke_o	o	n/a
131.3675	0.1505	262735	keystroke_c	c	n/a
131.443	0.135	262886	keystroke_k	k	n/a
131.5325	0.1205	263065	keystroke_Key.space	Key.space	n/a
131.9085	0.1195	263817	keystroke_r	r	n/a
131.953	0.105	263906	keystroke_e	e	n/a
132.043	0.12	264086	keystroke_q	q	n/a
132.1635	0.0895	264327	keystroke_u	u	n/a
132.2385	0.2095	264477	keystroke_e	e	n/a
132.3135	0.1645	264627	keystroke_s	s	n/a
132.418	0.1215	264836	keystroke_t	t	n/a
132.508	0.075	265016	keystroke_Key.space	Key.space	n/a
132.718	0.105	265436	keystroke_w	w	n/a
132.8385	0.105	265677	keystroke_a	a	n/a
132.9725	0.166	265945	keystroke_v	v	n/a
133.093	0.1795	266186	keystroke_e	e	n/a
133.168	0.1495	266336	keystroke_s	s	n/a
133.333	0.075	266666	keystroke_Key.enter	Key.enter	n/a
133.4145	4.2415	266829	prompt	n/a	hughes lending bother he\n
134.143	0.06	268286	keystroke_h	h	n/a
134.308	0.075	268616	keystroke_u	u	n/a
134.398	0.0905	268796	keystroke_g	g	n/a
134.5185	0.105	269037	keystroke_h	h	n/a
134.7885	0.1195	269577	keystroke_e	e	n/a
134.893	0.12	269786	keystroke_s	s	n/a
134.998	0.1055	269996	keystroke_Key.space	Key.space	n/a
135.1485	0.1045	270297	keystroke_l	l	n/a
135.208	0.1055	270416	keystroke_e	e	n/a
135.373	0.06	270746	keystroke_n	n	n/a
135.433	0.15	270866	keystroke_d	d	n/a
135.5235	0.1345	271047	keystroke_i	i	n/a
135.598	0.105	271196	keystroke_n	n	n/a
135.6885	0.105	271377	keystroke_g	g	n/a
135.7635	0.1195	271527	keystroke_Key.space	Key.space	n/a
135.913	0.045	271826	keystroke_o	o	n/a
136.468	0.105	272936	keystroke_Key.backspace	Key.backspace	n/a
136.618	0.1215	273236	keystroke_b	b	n/a
136.6935	0.12	273387	keystroke_o	o	n/a
136.858	0.09	273716	keystroke_t	t	n/a
136.933	0.106	273866	keystroke_h	h	n/a
137.0235	0.1195	274047	keystroke_e	e	n/a
137.098	0.1055	274196	keystroke_r	r	n/a
137.173	0.135	274346	keystroke_Key.space	Key.space	n/a
137.3235	0.1195	274647	keystroke_h	h	n/a
137.4285	0.15	274857	keystroke_e	e	n/a
137.593	0.0605	275186	keystroke_Key.enter	Key.enter	n/a
137.6595	5.516	275319	prompt	n/a	thumb forwarding husband arab\n
138.403	0.1055	276806	keystroke_t	t	n/a
138.463	0.0755	276926	keystroke_h	h	n/a
138.6135	0.0595	277227	keystroke_u	u	n/a
138.7935	0.12	277587	keystroke_m	m	n/a
138.8985	0.1195	277797	keystroke_b	b	n/a
139.003	0.1205	278006	keystroke_Key.space	Key.space	n/a
139.1685	0.1045	278337	keystroke_f	f	n/a
139.273	0.1205	278546	keystroke_o	o	n/a
139.3785	0.105	278757	keystroke_r	r	n/a
139.4685	0.12	278937	keystroke_w	w	n/a
139.573	0.166	279146	keystroke_a	a	n/a
140.143	0.0755	280286	keystroke_r	r	n/a
140.2935	0.1495	280587	keystroke_d	d	n/a
140.4135	0.1195	280827	keystroke_i	i	n/a
140.458	0.1205	280916	keystroke_n	n	n/a
140.5485	0.12	281097	keystroke_g	g	n/a
140.6385	0.1195	281277	keystroke_Key.space	Key.space	n/a
140.743	0.0755	281486	keystroke_h	h	n/a
140.923	0.0755	281846	keystroke_u	u	n/a
141.043	0.1055	282086	keystroke_s	s	n/a
141.2685	0.1945	282537	keystroke_b	b	n/a
141.4485	0.1495	282897	keystroke_a	a	n/a
141.613	0.1055	283226	keystroke_n	n	n/a
141.7035	0.12	283407	keystroke_d	d	n/a
141.8385	0.1045	283677	keystroke_Key.space	Key.space	n/a
141.9885	0.135	283977	keystroke_r	r	n/a
142.0785	0.1195	284157	keystroke_a	a	n/a
142.3935	0.0595	284787	keystroke_Key.backspace	Key.backspace	n/a
142.528	0.1055	285056	keystroke_Key.backspace	Key.backspace	n/a
142.6485	0.105	285297	keystroke_a	a	n/a
142.7385	0.12	285477	keystroke_r	r	n/a
142.843	0.1055	285686	keystroke_a	a	n/a
142.9635	0.135	285927	keystroke_b	b	n/a
143.0685	0.105	286137	keystroke_Key.enter	Key.enter	n/a
143.179	4.1205	286358	prompt	n/a	hero passing dispute james\n
143.9085	0.09	287817	keystroke_h	h	n/a
143.9835	0.1345	287967	keystroke_e	e	n/a
144.058	0.135	288116	keystroke_r	r	n/a
144.2085	0.1195	288417	keystroke_o	o	n/a
144.313	0.1505	288626	keystroke_Key.space	Key.space	n/a
144.643	0.1505	289286	keystroke_p	p	n/a
144.763	0.1205	289526	keystroke_a	a	n/a
144.8385	0.0895	289677	keystroke_s	s	n/a
145.0035	0.1355	290007	keystroke_s	s	n/a
145.1235	0.1345	290247	keystroke_i	i	n/a
145.1985	0.105	290397	keystroke_n	n	n/a
145.274	0.134	290548	keystroke_g	g	n/a
145.393	0.1055	290786	keystroke_Key.space	Key.space	n/a
145.6335	0.105	291267	keystroke_d	d	n/a
145.6935	0.1195	291387	keystroke_i	i	n/a
145.7985	0.12	291597	keystroke_s	s	n/a
146.038	0.165	292076	keystroke_p	p	n/a
146.1585	0.15	292317	keystroke_u	u	n/a
146.2485	0.15	292497	keystroke_t	t	n/a
146.3235	0.1345	292647	keystroke_e	e	n/a
146.4135	0.09	292827	keystroke_Key.space	Key.space	n/a
146.563	0.105	293126	keystroke_j	j	n/a
146.743	0.1205	293486	keystroke_a	a	n/a
146.8185	0.12	293637	keystroke_m	m	n/a
146.9535	0.135	293907	keystroke_e	e	n/a
147.058	0.1955	294116	keystroke_s	s	n/a
147.2385	0.0595	294477	keystroke_Key.enter	Key.enter	n/a
147.3025	5.1425	294605	prompt	n/a	bowling bank involving tutorial\n
148.0485	0.105	296097	keystroke_b	b	n/a
148.1085	0.0895	296217	keystroke_o	o	n/a
148.228	0.1655	296456	keystroke_w	w	n/a
148.3935	0.1945	296787	keystroke_l	l	n/a
148.498	0.1805	296996	keystroke_i	i	n/a
148.573	0.135	297146	keystroke_n	n	n/a
148.6635	0.1345	297327	keystroke_g	g	n/a
148.7685	0.105	297537	keystroke_Key.space	Key.space	n/a
149.0235	0.1195	298047	keystroke_b	b	n/a
149.128	0.1355	298256	keystroke_a	a	n/a
149.1885	0.1355	298377	keystroke_n	n	n/a
149.2785	0.1645	298557	keystroke_k	k	n/a
149.428	0.1205	298856	keystroke_Key.space	Key.space	n/a
150.043	0.1355	300086	keystroke_i	i	n/a
150.1185	0.12	300237	keystroke_n	n	n/a
150.2685	0.135	300537	keystroke_v	v	n/a
150.3435	0.06	300687	keystroke_o	o	n/a
150.5235	0.0895	301047	keystroke_l	l	n/a
150.628	0.1055	301256	keystroke_v	v	n/a
150.7035	0.165	301407	keystroke_i	i	n/a
150.7785	0.1195	301557	keystroke_n	n	n/a
150.8835	0.12	301767	keystroke_g	g	n/a
150.9885	0.09	301977	keystroke_Key.space	Key.space	n/a
151.378	0.105	302756	keystroke_t	t	n/a
151.4385	0.0745	302877	keystroke_u	u	n/a
151.5735	0.12	303147	keystroke_t	t	n/a
151.6335	0.105	303267	keystroke_o	o	n/a
151.813	0.1655	303626	keystroke_r	r	n/a
151.9635	0.075	303927	keystroke_i	i	n/a
152.053	0.1355	304106	keystroke_a	a	n/a
152.128	0.1205	304256	keystroke_l	l	n/a
152.3385	0.1045	304677	keystroke_Key.enter	Key.enter	n/a
152.448	4.572	304896	prompt	n/a	someone faqs speeds prospective\n
153.148	0.1205	306296	keystroke_s	s	n/a
153.1935	0.1345	306387	keystroke_o	o	n/a
153.2535	0.1045	306507	keystroke_m	m	n/a
153.3735	0.12	306747	keystroke_e	e	n/a
153.4485	0.12	306897	keystroke_o	o	n/a
153.5235	0.135	307047	keystroke_n	n	n/a
153.613	0.1055	307226	keystroke_e	e	n/a
153.7035	0.15	307407	keystroke_Key.space	Key.space	n/a
153.7935	0.15	307587	keystroke_f	f	n/a
153.898	0.1205	307796	keystroke_a	a	n/a
154.1535	0.12	308307	keystroke_q	q	n/a
154.3785	0.15	308757	keystroke_s	s	n/a
154.5435	0.0745	309087	keystroke_Key.space	Key.space	n/a
154.843	0.0605	309686	keystroke_s	s	n/a
154.8895	0.0735	309779	keystroke_p	p	n/a
154.948	0.0755	309896	keystroke_e	e	n/a
155.128	0.0605	310256	keystroke_e	e	n/a
155.2935	0.0895	310587	keystroke_d	d	n/a
155.3085	0.135	310617	keystroke_s	s	n/a
155.4285	0.06	310857	keystroke_Key.space	Key.space	n/a
155.653	0.0905	311306	keystroke_p	p	n/a
155.728	0.105	311456	keystroke_r	r	n/a
155.8185	0.09	311637	keystroke_o	o	n/a
155.9235	0.135	311847	keystroke_s	s	n/a
156.0435	0.135	312087	keystroke_p	p	n/a
156.1335	0.06	312267	keystroke_e	e	n/a
156.3285	0.075	312657	keystroke_c	c	n/a
156.4635	0.1045	312927	keystroke_t	t	n/a
156.613	0.1205	313226	keystroke_i	i	n/a
156.7185	0.0755	313437	keystroke_v	v	n/a
156.7785	0.1345	313557	keystroke_e	e	n/a
156.928	0.0905	313856	keystroke_Key.enter	Key.enter	n/a
157.0235	4.3465	314047	prompt	n/a	tolerance drinks paso href\n
157.6635	0.1345	315327	keystroke_t	t	n/a
157.783	0.0905	315566	keystroke_o	o	n/a
157.9935	0.15	315987	keystroke_l	l	n/a
158.128	0.077	316256	keystroke_e	e	n/a
158.1885	0.165	316377	keystroke_r	r	n/a
158.3085	0.105	316617	keystroke_a	a	n/a
158.398	0.1055	316796	keystroke_n	n	n/a
158.5185	0.075	317037	keystroke_c	c	n/a
158.668	0.0905	317336	keystroke_e	e	n/a
158.7435	0.105	317487	keystroke_Key.space	Key.space	n/a
158.8635	0.18	317727	keystroke_d	d	n/a
159.1185	0.1205	318237	keystroke_r	r	n/a
159.2235	0.0745	318447	keystroke_i	i	n/a
159.313	0.1505	318626	keystroke_n	n	n/a
159.433	0.1205	318866	keystroke_k	k	n/a
159.5385	0.09	319077	keystroke_s	s	n/a
159.598	0.1205	319196	keystroke_Key.space	Key.space	n/a
159.703	0.136	319406	keystroke_p	p	n/a
159.8235	0.12	319647	keystroke_a	a	n/a
159.913	0.135	319826	keystroke_s	s	n/a
160.0185	0.105	320037	keystroke_o	o	n/a
160.1085	0.105	320217	keystroke_Key.space	Key.space	n/a
160.2735	0.12	320547	keystroke_r	r	n/a
160.348	0.12	320696	keystroke_e	e	n/a
160.6035	0.045	321207	keystroke_Key.backspace	Key.backspace	n/a
160.7235	0.09	321447	keystroke_Key.backspace	Key.backspace	n/a
160.9185	0.09	321837	keystroke_h	h	n/a
160.9485	0.1345	321897	keystroke_r	r	n/a
161.0235	0.105	322047	keystroke_e	e	n/a
161.1585	0.15	322317	keystroke_f	f	n/a
161.309	0.059	322618	keystroke_Key.enter	Key.enter	n/a
161.373	5.922	322746	prompt	n/a	feat organisations kiss decades\n
162.1035	0.12	324207	keystroke_f	f	n/a
162.1785	0.1645	324357	keystroke_e	e	n/a
162.2685	0.135	324537	keystroke_a	a	n/a
162.3585	0.135	324717	keystroke_t	t	n/a
162.4785	0.1195	324957	keystroke_Key.space	Key.space	n/a
162.643	0.0905	325286	keystroke_o	o	n/a
162.7485	0.09	325497	keystroke_r	r	n/a
162.928	0.1205	325856	keystroke_g	g	n/a
163.0185	0.09	326037	keystroke_a	a	n/a
163.0635	0.12	326127	keystroke_n	n	n/a
163.169	0.1645	326338	keystroke_i	i	n/a
163.273	0.0755	326546	keystroke_z	z	n/a
163.423	0.12	326846	keystroke_a	a	n/a
163.528	0.1055	327056	keystroke_t	t	n/a
163.5585	0.105	327117	keystroke_i	i	n/a
163.6185	0.09	327237	keystroke_o	o	n/a
163.903	0.0455	327806	keystroke_Key.backspace	Key.backspace	n/a
164.024	0.074	328048	keystroke_Key.backspace	Key.backspace	n/a
164.1735	0.105	328347	keystroke_Key.backspace	Key.backspace	n/a
164.3385	0.0745	328677	keystroke_Key.backspace	Key.backspace	n/a
164.489	0.1045	328978	keystroke_Key.backspace	Key.backspace	n/a
164.7435	0.15	329487	keystroke_s	s	n/a
164.8485	0.09	329697	keystroke_a	a	n/a
164.9535	0.1355	329907	keystroke_t	t	n/a
165.0435	0.18	330087	keystroke_i	i	n/a
165.1035	0.135	330207	keystroke_o	o	n/a
165.1485	0.12	330297	keystroke_n	n	n/a
165.2535	0.105	330507	keystroke_s	s	n/a
165.3435	0.105	330687	keystroke_Key.space	Key.space	n/a
165.4635	0.075	330927	keystroke_k	k	n/a
165.6735	0.0595	331347	keystroke_i	i	n/a
165.7185	0.0595	331437	keystroke_s	s	n/a
165.8535	0.105	331707	keystroke_s	s	n/a
165.928	0.1205	331856	keystroke_Key.space	Key.space	n/a
166.093	0.12	332186	keystroke_d	d	n/a
166.2885	0.075	332577	keystroke_e	e	n/a
166.468	0.1205	332936	keystroke_c	c	n/a
166.5735	0.15	333147	keystroke_a	a	n/a
166.798	0.1205	333596	keystroke_d	d	n/a
166.994	0.1345	333988	keystroke_e	e	n/a
167.068	0.15	334136	keystroke_s	s	n/a
167.203	0.0905	334406	keystroke_Key.enter	Key.enter	n/a
167.2985	4.6905	334597	prompt	n/a	search patent willow retention\n
168.1335	0.09	336267	keystroke_s	s	n/a
168.2085	0.135	336417	keystroke_e	e	n/a
168.2985	0.135	336597	keystroke_a	a	n/a
168.358	0.1055	336716	keystroke_r	r	n/a
168.5385	0.1355	337077	keystroke_c	c	n/a
168.6135	0.09	337227	keystroke_h	h	n/a
168.6585	0.1355	337317	keystroke_Key.space	Key.space	n/a
168.7785	0.15	337557	keystroke_p	p	n/a
168.8835	0.1215	337767	keystroke_a	a	n/a
168.988	0.1355	337976	keystroke_t	t	n/a
169.1835	0.15	338367	keystroke_e	e	n/a
169.3785	0.135	338757	keystroke_n	n	n/a
169.468	0.1215	338936	keystroke_t	t	n/a
169.5895	0.0895	339179	keystroke_Key.space	Key.space	n/a
169.7535	0.1205	339507	keystroke_w	w	n/a
169.8585	0.075	339717	keystroke_i	i	n/a
170.0685	0.03	340137	keystroke_l	l	n/a
170.1735	0.075	340347	keystroke_l	l	n/a
170.368	0.0905	340736	keystroke_o	o	n/a
170.444	0.1195	340888	keystroke_w	w	n/a
170.534	0.0895	341068	keystroke_Key.space	Key.space	n/a
170.6685	0.135	341337	keystroke_r	r	n/a
170.729	0.1195	341458	keystroke_e	e	n/a
170.908	0.1205	341816	keystroke_t	t	n/a
171.0435	0.1355	342087	keystroke_e	e	n/a
171.283	0.0755	342566	keystroke_n	n	n/a
171.3735	0.1645	342747	keystroke_t	t	n/a
171.523	0.15	343046	keystroke_i	i	n/a
171.583	0.135	343166	keystroke_o	o	n/a
171.643	0.12	343286	keystroke_n	n	n/a
171.913	0.075	343826	keystroke_Key.enter	Key.enter	n/a
171.992	5.065	343984	prompt	n/a	sitting brazil jump motorcycles\n
172.7065	0.105	345413	keystroke_s	s	n/a
172.8265	0.06	345653	keystroke_i	i	n/a
173.053	0.0735	346106	keystroke_t	t	n/a
173.2315	0.09	346463	keystroke_t	t	n/a
173.2765	0.1045	346553	keystroke_i	i	n/a
173.321	0.1045	346642	keystroke_n	n	n/a
173.411	0.091	346822	keystroke_g	g	n/a
173.471	0.1495	346942	keystroke_Key.space	Key.space	n/a
173.6055	0.1055	347211	keystroke_b	b	n/a
173.816	0.119	347632	keystroke_r	r	n/a
173.8605	0.1195	347721	keystroke_a	a	n/a
174.07	0.09	348140	keystroke_z	z	n/a
174.1755	0.15	348351	keystroke_i	i	n/a
174.3105	0.1055	348621	keystroke_l	l	n/a
174.4	0.105	348800	keystroke_Key.space	Key.space	n/a
174.55	0.0755	349100	keystroke_j	j	n/a
174.7005	0.12	349401	keystroke_u	u	n/a
174.8965	0.105	349793	keystroke_m	m	n/a
174.9405	0.1645	349881	keystroke_p	p	n/a
175.1205	0.181	350241	keystroke_Key.space	Key.space	n/a
175.345	0.1205	350690	keystroke_m	m	n/a
175.435	0.1205	350870	keystroke_o	o	n/a
175.661	0.1195	351322	keystroke_t	t	n/a
175.7655	0.1045	351531	keystroke_o	o	n/a
175.9015	0.134	351803	keystroke_r	r	n/a
176.381	0.0145	352762	keystroke_c	c	n/a
176.411	0.1045	352822	keystroke_y	y	n/a
176.531	0.074	353062	keystroke_c	c	n/a
176.6055	0.135	353211	keystroke_l	l	n/a
176.7255	0.1355	353451	keystroke_e	e	n/a
176.801	0.1505	353602	keystroke_s	s	n/a
176.9515	0.104	353903	keystroke_Key.enter	Key.enter	n/a
177.06	4.3175	354120	prompt	n/a	them postal michael range\n
177.7155	0.105	355431	keystroke_t	t	n/a
177.8055	0.06	355611	keystroke_h	h	n/a
177.881	0.15	355762	keystroke_e	e	n/a
177.9855	0.0905	355971	keystroke_m	m	n/a
178.046	0.12	356092	keystroke_Key.space	Key.space	n/a
178.1515	0.15	356303	keystroke_p	p	n/a
178.211	0.1645	356422	keystroke_o	o	n/a
178.286	0.1045	356572	keystroke_s	s	n/a
178.361	0.15	356722	keystroke_t	t	n/a
178.466	0.1355	356932	keystroke_a	a	n/a
178.5555	0.1055	357111	keystroke_l	l	n/a
178.646	0.09	357292	keystroke_Key.space	Key.space	n/a
178.8105	0.1205	357621	keystroke_m	m	n/a
179.216	0.1345	358432	keystroke_i	i	n/a
179.456	0.12	358912	keystroke_c	c	n/a
179.5605	0.0915	359121	keystroke_h	h	n/a
179.696	0.1345	359392	keystroke_a	a	n/a
180.1155	0.136	360231	keystroke_e	e	n/a
180.266	0.1045	360532	keystroke_l	l	n/a
180.3555	0.1205	360711	keystroke_Key.space	Key.space	n/a
180.641	0.1195	361282	keystroke_r	r	n/a
180.7015	0.151	361403	keystroke_a	a	n/a
180.8205	0.1055	361641	keystroke_n	n	n/a
180.911	0.1645	361822	keystroke_g	g	n/a
181.002	0.1785	362004	keystroke_e	e	n/a
181.2855	0.0905	362571	keystroke_Key.enter	Key.enter	n/a
181.3805	6.973	362761	prompt	n/a	difference bankruptcy shock camcorder\n
182.0965	0.1055	364193	keystroke_d	d	n/a
182.1715	0.119	364343	keystroke_i	i	n/a
182.276	0.076	364552	keystroke_f	f	n/a
182.4565	0.105	364913	keystroke_f	f	n/a
182.5615	0.1045	365123	keystroke_e	e	n/a
182.651	0.1505	365302	keystroke_r	r	n/a
182.741	0.075	365482	keystroke_e	e	n/a
182.786	0.12	365572	keystroke_n	n	n/a
182.921	0.075	365842	keystroke_c	c	n/a
183.1905	0.106	366381	keystroke_Key.space	Key.space	n/a
183.5055	0.0605	367011	keystroke_b	b	n/a
183.746	0.075	367492	keystroke_Key.backspace	Key.backspace	n/a
183.8815	0.09	367763	keystroke_Key.backspace	Key.backspace	n/a
184.0465	0.12	368093	keystroke_e	e	n/a
184.152	0.134	368304	keystroke_Key.space	Key.space	n/a
184.2415	0.1345	368483	keystroke_b	b	n/a
184.361	0.1805	368722	keystroke_a	a	n/a
184.5565	0.1195	369113	keystroke_n	n	n/a
184.6315	0.18	369263	keystroke_k	k	n/a
185.261	0.1205	370522	keystroke_r	r	n/a
185.336	0.1205	370672	keystroke_u	u	n/a
185.4115	0.1945	370823	keystroke_p	p	n/a
185.591	0.0905	371182	keystroke_t	t	n/a
185.891	0.1505	371782	keystroke_c	c	n/a
185.9965	0.075	371993	keystroke_y	y	n/a
186.0565	0.09	372113	keystroke_Key.space	Key.space	n/a
186.447	0.0745	372894	keystroke_s	s	n/a
186.491	0.1055	372982	keystroke_h	h	n/a
186.5665	0.1045	373133	keystroke_o	o	n/a
186.6565	0.1645	373313	keystroke_c	c	n/a
186.806	0.0755	373612	keystroke_k	k	n/a
186.8365	0.12	373673	keystroke_Key.space	Key.space	n/a
187.061	0.1505	374122	keystroke_c	c	n/a
187.2565	0.1195	374513	keystroke_a	a	n/a
187.346	0.0905	374692	keystroke_m	m	n/a
187.481	0.1355	374962	keystroke_c	c	n/a
187.602	0.1345	375204	keystroke_o	o	n/a
187.7215	0.075	375443	keystroke_r	r	n/a
187.8715	0.1045	375743	keystroke_d	d	n/a
188.0215	0.165	376043	keystroke_e	e	n/a
188.096	0.1355	376192	keystroke_r	r	n/a
188.2165	0.1345	376433	keystroke_Key.enter	Key.enter	n/a
188.3565	6.537	376713	prompt	n/a	gently ethical newly positioning\n
189.1165	0.105	378233	keystroke_g	g	n/a
189.206	0.1055	378412	keystroke_e	e	n/a
189.2665	0.1045	378533	keystroke_n	n	n/a
189.402	0.1645	378804	keystroke_t	t	n/a
189.5075	0.1195	379015	keystroke_l	l	n/a
189.6115	0.105	379223	keystroke_y	y	n/a
189.6865	0.105	379373	keystroke_Key.space	Key.space	n/a
189.867	0.1495	379734	keystroke_e	e	n/a
190.1525	0.1045	380305	keystroke_t	t	n/a
190.272	0.1195	380544	keystroke_h	h	n/a
190.3465	0.106	380693	keystroke_i	i	n/a
190.4365	0.1355	380873	keystroke_c	c	n/a
190.527	0.1495	381054	keystroke_a	a	n/a
190.752	0.18	381504	keystroke_n	n	n/a
190.8725	0.074	381745	keystroke_Key.space	Key.space	n/a
191.157	0.06	382314	keystroke_Key.backspace	Key.backspace	n/a
191.2915	0.0905	382583	keystroke_Key.backspace	Key.backspace	n/a
191.5025	0.104	383005	keystroke_l	l	n/a
191.5615	0.1055	383123	keystroke_Key.space	Key.space	n/a
191.772	0.0755	383544	keystroke_n	n	n/a
191.847	0.15	383694	keystroke_e	e	n/a
192.327	0.105	384654	keystroke_w	w	n/a
192.8065	0.1805	385613	keystroke_l	l	n/a
192.972	0.1045	385944	keystroke_y	y	n/a
193.1065	0.075	386213	keystroke_Key.space	Key.space	n/a
193.347	0.135	386694	keystroke_p	p	n/a
193.4215	0.1055	386843	keystroke_o	o	n/a
193.5425	0.119	387085	keystroke_s	s	n/a
193.6765	0.0905	387353	keystroke_i	i	n/a
193.797	0.135	387594	keystroke_t	t	n/a
193.887	0.1045	387774	keystroke_i	i	n/a
193.9615	0.1205	387923	keystroke_o	o	n/a
194.037	0.1505	388074	keystroke_n	n	n/a
194.4425	0.149	388885	keystroke_i	i	n/a
194.532	0.1205	389064	keystroke_n	n	n/a
194.637	0.135	389274	keystroke_g	g	n/a
194.7725	0.119	389545	keystroke_Key.enter	Key.enter	n/a
194.898	9.086	389796	prompt	n/a	stunning scheduled wherever parliament\n
195.942	0.105	391884	keystroke_s	s	n/a
196.0625	0.1195	392125	keystroke_t	t	n/a
196.1525	0.0895	392305	keystroke_u	u	n/a
196.3475	0.074	392695	keystroke_n	n	n/a
196.4975	0.0895	392995	keystroke_n	n	n/a
196.6175	0.1495	393235	keystroke_i	i	n/a
196.677	0.1355	393354	keystroke_n	n	n/a
196.7525	0.135	393505	keystroke_g	g	n/a
196.872	0.12	393744	keystroke_Key.space	Key.space	n/a
196.977	0.12	393954	keystroke_s	s	n/a
197.1425	0.1495	394285	keystroke_c	c	n/a
197.277	0.0905	394554	keystroke_h	h	n/a
197.3825	0.075	394765	keystroke_e	e	n/a
197.562	0.105	395124	keystroke_d	d	n/a
197.6375	0.15	395275	keystroke_u	u	n/a
197.7575	0.1495	395515	keystroke_l	l	n/a
197.7725	0.1195	395545	keystroke_e	e	n/a
197.9375	0.12	395875	keystroke_d	d	n/a
198.0425	0.1045	396085	keystroke_Key.space	Key.space	n/a
198.3725	0.0745	396745	keystroke_w	w	n/a
198.4625	0.105	396925	keystroke_h	h	n/a
198.5825	0.1795	397165	keystroke_e	e	n/a
198.747	0.1355	397494	keystroke_r	r	n/a
198.8225	0.09	397645	keystroke_e	e	n/a
199.0175	0.0445	398035	keystroke_v	v	n/a
199.0325	0.12	398065	keystroke_e	e	n/a
199.2125	0.105	398425	keystroke_v	v	n/a
199.7225	0.09	399445	keystroke_Key.backspace	Key.backspace	n/a
199.888	0.074	399776	keystroke_Key.backspace	Key.backspace	n/a
200.0825	0.03	400165	keystroke_Key.backspace	Key.backspace	n/a
201.0575	0.075	402115	keystroke_v	v	n/a
201.147	0.165	402294	keystroke_e	e	n/a
201.2375	0.135	402475	keystroke_r	r	n/a
201.3275	0.09	402655	keystroke_Key.space	Key.space	n/a
201.5225	0.1355	403045	keystroke_p	p	n/a
201.643	0.0595	403286	keystroke_a	a	n/a
201.658	0.1195	403316	keystroke_r	r	n/a
201.823	0.105	403646	keystroke_t	t	n/a
201.883	0.0895	403766	keystroke_i	i	n/a
202.047	0.135	404094	keystroke_a	a	n/a
202.6175	0.06	405235	keystroke_Key.backspace	Key.backspace	n/a
202.753	0.075	405506	keystroke_Key.backspace	Key.backspace	n/a
202.9025	0.09	405805	keystroke_Key.backspace	Key.backspace	n/a
203.128	0.1645	406256	keystroke_l	l	n/a
203.203	0.105	406406	keystroke_i	i	n/a
203.3075	0.165	406615	keystroke_a	a	n/a
203.488	0.0595	406976	keystroke_m	m	n/a
203.5785	0.1195	407157	keystroke_e	e	n/a
203.668	0.0895	407336	keystroke_n	n	n/a
203.773	0.135	407546	keystroke_t	t	n/a
203.893	0.09	407786	keystroke_Key.enter	Key.enter	n/a
203.987	4.3475	407974	prompt	n/a	thee heater bracelets grant\n
204.8535	0.074	409707	keystroke_t	t	n/a
204.943	0.105	409886	keystroke_h	h	n/a
205.063	0.075	410126	keystroke_e	e	n/a
205.213	0.1045	410426	keystroke_e	e	n/a
205.3175	0.105	410635	keystroke_Key.space	Key.space	n/a
205.453	0.105	410906	keystroke_h	h	n/a
205.498	0.1195	410996	keystroke_e	e	n/a
205.603	0.135	411206	keystroke_a	a	n/a
205.753	0.105	411506	keystroke_t	t	n/a
205.903	0.1355	411806	keystroke_e	e	n/a
205.993	0.12	411986	keystroke_r	r	n/a
206.083	0.09	412166	keystroke_Key.space	Key.space	n/a
206.3535	0.1045	412707	keystroke_b	b	n/a
206.5325	0.1355	413065	keystroke_r	r	n/a
206.6075	0.1055	413215	keystroke_a	a	n/a
206.7575	0.0905	413515	keystroke_c	c	n/a
206.9375	0.0755	413875	keystroke_e	e	n/a
207.028	0.12	414056	keystroke_l	l	n/a
207.1325	0.105	414265	keystroke_e	e	n/a
207.2835	0.1495	414567	keystroke_t	t	n/a
207.3875	0.1205	414775	keystroke_s	s	n/a
207.493	0.105	414986	keystroke_Key.space	Key.space	n/a
207.613	0.09	415226	keystroke_g	g	n/a
207.7935	0.1195	415587	keystroke_r	r	n/a
207.853	0.135	415706	keystroke_a	a	n/a
207.9725	0.121	415945	keystroke_n	n	n/a
208.1085	0.15	416217	keystroke_t	t	n/a
208.2435	0.0895	416487	keystroke_Key.enter	Key.enter	n/a
208.3375	10.2275	416675	prompt	n/a	opportunities chrysler asian brave\n
209.0535	0.0895	418107	keystroke_o	o	n/a
209.263	0.06	418526	keystroke_p	p	n/a
209.398	0.135	418796	keystroke_p	p	n/a
209.4585	0.1645	418917	keystroke_o	o	n/a
209.5785	0.1045	419157	keystroke_r	r	n/a
209.773	0.1055	419546	keystroke_t	t	n/a
209.788	0.03	419576	keystroke_u	u	n/a
210.658	0.0605	421316	keystroke_Key.backspace	Key.backspace	n/a
210.8085	0.075	421617	keystroke_Key.backspace	Key.backspace	n/a
211.498	0.1655	422996	keystroke_t	t	n/a
211.648	0.03	423296	keystroke_u	u	n/a
211.7835	0.1195	423567	keystroke_n	n	n/a
211.858	0.1055	423716	keystroke_i	i	n/a
211.9785	0.105	423957	keystroke_t	t	n/a
212.068	0.12	424136	keystroke_i	i	n/a
212.1435	0.165	424287	keystroke_e	e	n/a
212.2335	0.15	424467	keystroke_s	s	n/a
212.3985	0.15	424797	keystroke_Key.space	Key.space	n/a
212.5635	0.15	425127	keystroke_c	c	n/a
212.788	0.165	425576	keystroke_r	r	n/a
212.938	0.045	425876	keystroke_h	h	n/a
213.148	0.1055	426296	keystroke_y	y	n/a
213.3135	0.15	426627	keystroke_s	s	n/a
213.643	0.0605	427286	keystroke_Key.backspace	Key.backspace	n/a
213.7935	0.0605	427587	keystroke_Key.backspace	Key.backspace	n/a
213.929	0.0895	427858	keystroke_Key.backspace	Key.backspace	n/a
214.0785	0.1055	428157	keystroke_Key.backspace	Key.backspace	n/a
214.318	0.061	428636	keystroke_h	h	n/a
214.543	0.0905	429086	keystroke_r	r	n/a
214.6485	0.075	429297	keystroke_y	y	n/a
214.7385	0.1495	429477	keystroke_s	s	n/a
214.903	0.15	429806	keystroke_t	t	n/a
215.8035	0.0455	431607	keystroke_Key.backspace	Key.backspace	n/a
215.9835	0.105	431967	keystroke_l	l	n/a
216.043	0.1655	432086	keystroke_e	e	n/a
216.119	0.12	432238	keystroke_r	r	n/a
216.2235	0.12	432447	keystroke_Key.space	Key.space	n/a
216.358	0.1055	432716	keystroke_a	a	n/a
216.4785	0.105	432957	keystroke_s	s	n/a
216.5985	0.045	433197	keystroke_i	i	n/a
216.704	0.1195	433408	keystroke_a	a	n/a
216.778	0.106	433556	keystroke_n	n	n/a
216.8385	0.1345	433677	keystroke_Key.space	Key.space	n/a
216.9885	0.075	433977	keystroke_b	b	n/a
217.1685	0.1505	434337	keystroke_r	r	n/a
217.2435	0.15	434487	keystroke_a	a	n/a
217.4685	0.165	434937	keystroke_v	v	n/a
217.588	0.106	435176	keystroke_e	e	n/a
218.4735	0.09	436947	keystroke_Key.enter	Key.enter	n/a
218.569	9.747	437138	prompt	n/a	fountain subsequently coupled billion\n
219.3435	0.1655	438687	keystroke_f	f	n/a
219.3885	0.1355	438777	keystroke_o	o	n/a
219.464	0.105	438928	keystroke_u	u	n/a
219.6435	0.1055	439287	keystroke_n	n	n/a
219.764	0.105	439528	keystroke_d	d	n/a
220.0485	0.061	440097	keystroke_Key.backspace	Key.backspace	n/a
220.109	0.1795	440218	keystroke_t	t	n/a
220.214	0.1495	440428	keystroke_a	a	n/a
220.2735	0.1205	440547	keystroke_i	i	n/a
220.334	0.12	440668	keystroke_n	n	n/a
220.4085	0.135	440817	keystroke_Key.space	Key.space	n/a
220.739	0.1045	441478	keystroke_s	s	n/a
220.8585	0.0755	441717	keystroke_u	u	n/a
220.949	0.135	441898	keystroke_b	b	n/a
221.099	0.1345	442198	keystroke_s	s	n/a
221.189	0.12	442378	keystroke_e	e	n/a
221.4435	0.105	442887	keystroke_q	q	n/a
221.519	0.075	443038	keystroke_u	u	n/a
221.639	0.1495	443278	keystroke_e	e	n/a
221.729	0.105	443458	keystroke_n	n	n/a
221.849	0.105	443698	keystroke_t	t	n/a
221.9685	0.1505	443937	keystroke_l	l	n/a
222.0735	0.1355	444147	keystroke_y	y	n/a
222.194	0.09	444388	keystroke_Key.space	Key.space	n/a
222.3885	0.0755	444777	keystroke_o	o	n/a
222.749	0.06	445498	keystroke_Key.backspace	Key.backspace	n/a
222.87	0.1635	445740	keystroke_c	c	n/a
222.9885	0.1655	445977	keystroke_u	u	n/a
223.1985	0.2555	446397	keystroke_p	p	n/a
223.349	0.165	446698	keystroke_l	l	n/a
223.529	0.12	447058	keystroke_e	e	n/a
223.739	0.1345	447478	keystroke_d	d	n/a
223.8445	0.0895	447689	keystroke_Key.space	Key.space	n/a
224.0095	0.1195	448019	keystroke_b	b	n/a
224.084	0.105	448168	keystroke_i	i	n/a
224.549	0.045	449098	keystroke_Key.backspace	Key.backspace	n/a
224.669	0.06	449338	keystroke_Key.backspace	Key.backspace	n/a
224.939	0.075	449878	keystroke_Key.backspace	Key.backspace	n/a
225.089	0.075	450178	keystroke_Key.backspace	Key.backspace	n/a
225.2395	0.0745	450479	keystroke_Key.backspace	Key.backspace	n/a
225.389	0.06	450778	keystroke_Key.backspace	Key.backspace	n/a
225.5395	0.06	451079	keystroke_Key.backspace	Key.backspace	n/a
225.689	0.0905	451378	keystroke_Key.backspace	Key.backspace	n/a
226.0645	0.12	452129	keystroke_o	o	n/a
226.244	0.1355	452488	keystroke_u	u	n/a
226.364	0.2555	452728	keystroke_p	p	n/a
226.5145	0.165	453029	keystroke_l	l	n/a
226.6645	0.09	453329	keystroke_e	e	n/a
226.874	0.1505	453748	keystroke_d	d	n/a
226.994	0.0905	453988	keystroke_Key.space	Key.space	n/a
227.264	0.1205	454528	keystroke_b	b	n/a
227.3395	0.06	454679	keystroke_i	i	n/a
227.534	0.0305	455068	keystroke_l	l	n/a
227.654	0.09	455308	keystroke_l	l	n/a
227.7745	0.105	455549	keystroke_i	i	n/a
227.954	0.12	455908	keystroke_o	o	n/a
228.03	0.1195	456060	keystroke_n	n	n/a
228.2395	0.075	456479	keystroke_Key.enter	Key.enter	n/a
228.319	5.9225	456638	prompt	n/a	truly schedules five gifts\n
229.094	0.0605	458188	keystroke_t	t	n/a
229.2295	0.12	458459	keystroke_r	r	n/a
230.655	0.1045	461310	keystroke_u	u	n/a
230.955	0.1195	461910	keystroke_l	l	n/a
231.0595	0.0905	462119	keystroke_y	y	n/a
231.165	0.1055	462330	keystroke_Key.space	Key.space	n/a
231.3445	0.0905	462689	keystroke_s	s	n/a
231.5095	0.105	463019	keystroke_c	c	n/a
231.5845	0.09	463169	keystroke_h	h	n/a
231.69	0.09	463380	keystroke_e	e	n/a
231.855	0.09	463710	keystroke_d	d	n/a
231.9145	0.1355	463829	keystroke_u	u	n/a
231.99	0.1805	463980	keystroke_l	l	n/a
232.065	0.1495	464130	keystroke_e	e	n/a
232.1845	0.1205	464369	keystroke_s	s	n/a
232.29	0.09	464580	keystroke_Key.space	Key.space	n/a
232.4845	0.1055	464969	keystroke_f	f	n/a
232.5455	0.1195	465091	keystroke_i	i	n/a
232.68	0.091	465360	keystroke_v	v	n/a
232.7245	0.1205	465449	keystroke_e	e	n/a
232.8295	0.105	465659	keystroke_Key.space	Key.space	n/a
233.055	0.18	466110	keystroke_g	g	n/a
233.58	0.1195	467160	keystroke_i	i	n/a
233.715	0.1055	467430	keystroke_f	f	n/a
233.925	0.1495	467850	keystroke_t	t	n/a
234.0145	0.1355	468029	keystroke_s	s	n/a
234.15	0.09	468300	keystroke_Key.enter	Key.enter	n/a
234.245	4.9945	468490	prompt	n/a	sexuality unlikely blues grace\n
234.945	0.09	469890	keystroke_s	s	n/a
234.99	0.1045	469980	keystroke_e	e	n/a
235.44	0.1055	470880	keystroke_x	x	n/a
235.545	0.09	471090	keystroke_u	u	n/a
235.665	0.15	471330	keystroke_a	a	n/a
235.7555	0.21	471511	keystroke_l	l	n/a
235.9055	0.12	471811	keystroke_i	i	n/a
236.0555	0.12	472111	keystroke_t	t	n/a
236.1605	0.1045	472321	keystroke_y	y	n/a
236.2505	0.06	472501	keystroke_Key.space	Key.space	n/a
236.385	0.0755	472770	keystroke_u	u	n/a
236.565	0.105	473130	keystroke_n	n	n/a
236.7	0.1505	473400	keystroke_l	l	n/a
236.7905	0.105	473581	keystroke_i	i	n/a
236.985	0.1055	473970	keystroke_k	k	n/a
237.0755	0.165	474151	keystroke_e	e	n/a
237.1655	0.165	474331	keystroke_l	l	n/a
237.285	0.136	474570	keystroke_y	y	n/a
237.3455	0.1195	474691	keystroke_Key.space	Key.space	n/a
237.57	0.151	475140	keystroke_b	b	n/a
237.87	0.1655	475740	keystroke_l	l	n/a
237.9755	0.1205	475951	keystroke_u	u	n/a
238.0655	0.135	476131	keystroke_e	e	n/a
238.155	0.1505	476310	keystroke_s	s	n/a
238.2755	0.1045	476551	keystroke_Key.space	Key.space	n/a
238.4105	0.1045	476821	keystroke_g	g	n/a
238.621	0.1195	477242	keystroke_r	r	n/a
238.6955	0.1195	477391	keystroke_a	a	n/a
238.8755	0.0745	477751	keystroke_c	c	n/a
239.0255	0.1045	478051	keystroke_e	e	n/a
239.1305	0.1055	478261	keystroke_Key.enter	Key.enter	n/a
239.2425	5.17	478485	prompt	n/a	modifications animals sharon vids\n
239.9255	0.1055	479851	keystroke_m	m	n/a
240.0005	0.1205	480001	keystroke_o	o	n/a
240.1055	0.18	480211	keystroke_d	d	n/a
240.272	0.0885	480544	keystroke_i	i	n/a
240.421	0.1345	480842	keystroke_f	f	n/a
240.511	0.1355	481022	keystroke_i	i	n/a
240.631	0.12	481262	keystroke_c	c	n/a
240.736	0.12	481472	keystroke_a	a	n/a
240.826	0.12	481652	keystroke_t	t	n/a
240.8715	0.179	481743	keystroke_i	i	n/a
240.931	0.135	481862	keystroke_o	o	n/a
240.976	0.15	481952	keystroke_n	n	n/a
241.081	0.135	482162	keystroke_s	s	n/a
241.2005	0.121	482401	keystroke_Key.space	Key.space	n/a
241.696	0.1345	483392	keystroke_a	a	n/a
241.7715	0.0745	483543	keystroke_n	n	n/a
241.861	0.09	483722	keystroke_i	i	n/a
242.011	0.15	484022	keystroke_m	m	n/a
242.4005	0.1355	484801	keystroke_a	a	n/a
242.5215	0.1045	485043	keystroke_l	l	n/a
242.5955	0.1655	485191	keystroke_s	s	n/a
242.7155	0.1205	485431	keystroke_Key.space	Key.space	n/a
242.9555	0.1055	485911	keystroke_s	s	n/a
243.0305	0.106	486061	keystroke_h	h	n/a
243.136	0.09	486272	keystroke_a	a	n/a
243.211	0.15	486422	keystroke_r	r	n/a
243.3155	0.1355	486631	keystroke_o	o	n/a
243.376	0.135	486752	keystroke_n	n	n/a
243.5115	0.06	487023	keystroke_Key.space	Key.space	n/a
243.661	0.12	487322	keystroke_v	v	n/a
243.736	0.1355	487472	keystroke_i	i	n/a
243.856	0.151	487712	keystroke_d	d	n/a
243.991	0.1945	487982	keystroke_s	s	n/a
244.306	0.105	488612	keystroke_Key.enter	Key.enter	n/a
244.4155	8.953	488831	prompt	n/a	specification chrysler penn circuit\n
245.101	0.1055	490202	keystroke_s	s	n/a
245.2215	0.105	490443	keystroke_p	p	n/a
245.281	0.06	490562	keystroke_e	e	n/a
245.4615	0.105	490923	keystroke_c	c	n/a
245.5515	0.09	491103	keystroke_i	i	n/a
245.6565	0.12	491313	keystroke_f	f	n/a
245.7765	0.105	491553	keystroke_i	i	n/a
245.8665	0.1345	491733	keystroke_c	c	n/a
245.9715	0.15	491943	keystroke_a	a	n/a
246.136	0.1055	492272	keystroke_t	t	n/a
246.1815	0.165	492363	keystroke_i	i	n/a
246.2265	0.15	492453	keystroke_o	o	n/a
246.286	0.1205	492572	keystroke_n	n	n/a
246.5115	0.1045	493023	keystroke_Key.space	Key.space	n/a
246.9615	0.15	493923	keystroke_c	c	n/a
247.4565	0.075	494913	keystroke_h	h	n/a
247.6225	0.1035	495245	keystroke_r	r	n/a
247.7115	0.0895	495423	keystroke_y	y	n/a
247.8765	0.1795	495753	keystroke_s	s	n/a
249.0315	0.045	498063	keystroke_Key.backspace	Key.backspace	n/a
249.1815	0.0445	498363	keystroke_Key.backspace	Key.backspace	n/a
249.3015	0.105	498603	keystroke_Key.backspace	Key.backspace	n/a
249.7065	0.1055	499413	keystroke_r	r	n/a
249.8125	0.044	499625	keystroke_y	y	n/a
249.872	0.135	499744	keystroke_s	s	n/a
250.0815	0.1045	500163	keystroke_t	t	n/a
250.5915	0.045	501183	keystroke_Key.backspace	Key.backspace	n/a
250.772	0.12	501544	keystroke_l	l	n/a
250.817	0.165	501634	keystroke_e	e	n/a
250.907	0.1495	501814	keystroke_r	r	n/a
250.997	0.0895	501994	keystroke_Key.space	Key.space	n/a
251.2365	0.0905	502473	keystroke_p	p	n/a
251.312	0.0895	502624	keystroke_e	e	n/a
251.6865	0.0605	503373	keystroke_n	n	n/a
251.8075	0.1045	503615	keystroke_n	n	n/a
251.8825	0.149	503765	keystroke_Key.space	Key.space	n/a
252.017	0.165	504034	keystroke_c	c	n/a
252.137	0.1195	504274	keystroke_i	i	n/a
252.467	0.1195	504934	keystroke_r	r	n/a
252.737	0.195	505474	keystroke_c	c	n/a
252.947	0.1055	505894	keystroke_u	u	n/a
252.9775	0.164	505955	keystroke_i	i	n/a
253.097	0.1195	506194	keystroke_t	t	n/a
253.277	0.09	506554	keystroke_Key.enter	Key.enter	n/a
253.372	5.5465	506744	prompt	n/a	profits divx comments sustained\n
254.162	0.135	508324	keystroke_p	p	n/a
254.282	0.1045	508564	keystroke_r	r	n/a
254.372	0.09	508744	keystroke_o	o	n/a
254.507	0.1345	509014	keystroke_f	f	n/a
255.032	0.0905	510064	keystroke_i	i	n/a
255.0765	0.151	510153	keystroke_t	t	n/a
255.212	0.12	510424	keystroke_s	s	n/a
255.317	0.1195	510634	keystroke_Key.space	Key.space	n/a
255.5125	0.1345	511025	keystroke_d	d	n/a
255.6015	0.1055	511203	keystroke_i	i	n/a
255.722	0.15	511444	keystroke_v	v	n/a
256.037	0.15	512074	keystroke_x	x	n/a
256.1415	0.1505	512283	keystroke_Key.space	Key.space	n/a
256.457	0.1505	512914	keystroke_c	c	n/a
256.5025	0.12	513005	keystroke_o	o	n/a
256.6975	0.0445	513395	keystroke_m	m	n/a
256.8175	0.105	513635	keystroke_m	m	n/a
256.9375	0.1045	513875	keystroke_e	e	n/a
257.0125	0.0895	514025	keystroke_n	n	n/a
257.087	0.136	514174	keystroke_t	t	n/a
257.1625	0.15	514325	keystroke_s	s	n/a
257.252	0.105	514504	keystroke_Key.space	Key.space	n/a
257.4925	0.1195	514985	keystroke_s	s	n/a
257.597	0.06	515194	keystroke_u	u	n/a
257.927	0.1355	515854	keystroke_s	s	n/a
258.1375	0.12	516275	keystroke_t	t	n/a
258.242	0.135	516484	keystroke_a	a	n/a
258.3625	0.135	516725	keystroke_i	i	n/a
258.4225	0.15	516845	keystroke_n	n	n/a
258.4975	0.0895	516995	keystroke_e	e	n/a
258.6775	0.1645	517355	keystroke_d	d	n/a
258.827	0.09	517654	keystroke_Key.enter	Key.enter	n/a
258.9215	7.1375	517843	prompt	n/a	genres flights labor applicant\n
259.787	0.1655	519574	keystroke_g	g	n/a
259.9675	0.0745	519935	keystroke_e	e	n/a
260.087	0.09	520174	keystroke_n	n	n/a
260.4625	0.1195	520925	keystroke_r	r	n/a
260.5675	0.15	521135	keystroke_e	e	n/a
260.718	0.1495	521436	keystroke_s	s	n/a
261.107	0.1655	522214	keystroke_Key.space	Key.space	n/a
261.798	0.1645	523596	keystroke_f	f	n/a
261.9475	0.09	523895	keystroke_i	i	n/a
262.0525	0.135	524105	keystroke_g	g	n/a
262.5325	0.06	525065	keystroke_Key.backspace	Key.backspace	n/a
262.8775	0.12	525755	keystroke_g	g	n/a
263.013	0.0745	526026	keystroke_h	h	n/a
263.418	0.0745	526836	keystroke_t	t	n/a
263.8975	0.165	527795	keystroke_s	s	n/a
264.048	0.1195	528096	keystroke_Key.space	Key.space	n/a
264.2125	0.12	528425	keystroke_l	l	n/a
264.3175	0.09	528635	keystroke_a	a	n/a
264.453	0.1205	528906	keystroke_b	b	n/a
264.5575	0.1055	529115	keystroke_o	o	n/a
264.648	0.105	529296	keystroke_r	r	n/a
264.738	0.0745	529476	keystroke_Key.space	Key.space	n/a
264.918	0.1795	529836	keystroke_a	a	n/a
265.023	0.0895	530046	keystroke_p	p	n/a
265.1575	0.15	530315	keystroke_p	p	n/a
265.3225	0.18	530645	keystroke_l	l	n/a
265.4275	0.12	530855	keystroke_i	i	n/a
265.593	0.1195	531186	keystroke_c	c	n/a
265.668	0.135	531336	keystroke_a	a	n/a
265.7875	0.0905	531575	keystroke_n	n	n/a
265.8925	0.12	531785	keystroke_t	t	n/a
265.968	0.0895	531936	keystroke_Key.enter	Key.enter	n/a
266.062	5.667	532124	prompt	n/a	door thermal citizen work\n
266.7325	0.135	533465	keystroke_d	d	n/a
266.823	0.06	533646	keystroke_o	o	n/a
266.9575	0.1205	533915	keystroke_o	o	n/a
267.063	0.135	534126	keystroke_r	r	n/a
267.1825	0.06	534365	keystroke_Key.space	Key.space	n/a
267.3785	0.104	534757	keystroke_t	t	n/a
267.468	0.0745	534936	keystroke_h	h	n/a
267.5575	0.1355	535115	keystroke_e	e	n/a
267.633	0.12	535266	keystroke_r	r	n/a
267.723	0.06	535446	keystroke_m	m	n/a
267.8575	0.1205	535715	keystroke_a	a	n/a
267.888	0.12	535776	keystroke_n	n	n/a
268.008	0.1345	536016	keystroke_Key.space	Key.space	n/a
268.158	0.15	536316	keystroke_c	c	n/a
268.293	0.06	536586	keystroke_i	i	n/a
268.578	0.06	537156	keystroke_Key.backspace	Key.backspace	n/a
268.7275	0.0455	537455	keystroke_Key.backspace	Key.backspace	n/a
268.863	0.06	537726	keystroke_Key.backspace	Key.backspace	n/a
269.0425	0.0755	538085	keystroke_Key.backspace	Key.backspace	n/a
269.493	0.09	538986	keystroke_l	l	n/a
269.568	0.12	539136	keystroke_Key.space	Key.space	n/a
269.793	0.1495	539586	keystroke_c	c	n/a
269.8975	0.06	539795	keystroke_i	i	n/a
270.018	0.12	540036	keystroke_t	t	n/a
270.093	0.09	540186	keystroke_i	i	n/a
270.393	0.1045	540786	keystroke_z	z	n/a
270.5735	0.1195	541147	keystroke_e	e	n/a
270.678	0.09	541356	keystroke_n	n	n/a
270.7235	0.119	541447	keystroke_Key.space	Key.space	n/a
271.0225	0.105	542045	keystroke_w	w	n/a
271.1425	0.0755	542285	keystroke_o	o	n/a
271.233	0.15	542466	keystroke_r	r	n/a
271.4275	0.105	542855	keystroke_k	k	n/a
271.6525	0.075	543305	keystroke_Key.enter	Key.enter	n/a
271.7325	9.508	543465	prompt	n/a	churches britain debt strap\n
272.538	0.15	545076	keystroke_c	c	n/a
272.6275	0.0455	545255	keystroke_h	h	n/a
272.763	0.0895	545526	keystroke_u	u	n/a
272.868	0.1045	545736	keystroke_r	r	n/a
273.0325	0.106	546065	keystroke_c	c	n/a
273.1235	0.104	546247	keystroke_l	l	n/a
273.2125	0.0755	546425	keystroke_e	e	n/a
273.453	0.0445	546906	keystroke_Key.backspace	Key.backspace	n/a
273.5735	0.1195	547147	keystroke_Key.backspace	Key.backspace	n/a
273.768	0.09	547536	keystroke_h	h	n/a
273.8125	0.1655	547625	keystroke_e	e	n/a
273.903	0.165	547806	keystroke_s	s	n/a
274.0235	0.089	548047	keystroke_Key.space	Key.space	n/a
274.758	0.1195	549516	keystroke_b	b	n/a
275.073	0.15	550146	keystroke_r	r	n/a
275.448	0.12	550896	keystroke_i	i	n/a
275.5825	0.1505	551165	keystroke_t	t	n/a
275.958	0.03	551916	keystroke_a	a	n/a
275.9725	0.106	551945	keystroke_i	i	n/a
276.003	0.165	552006	keystroke_n	n	n/a
276.1685	0.134	552337	keystroke_Key.space	Key.space	n/a
279.003	0.09	558006	keystroke_d	d	n/a
279.153	0.0895	558306	keystroke_e	e	n/a
279.288	0.1795	558576	keystroke_b	b	n/a
279.4535	0.0595	558907	keystroke_u	u	n/a
279.8585	0.045	559717	keystroke_Key.backspace	Key.backspace	n/a
280.0405	0.0875	560081	keystroke_t	t	n/a
280.143	0.09	560286	keystroke_Key.space	Key.space	n/a
280.4285	0.1345	560857	keystroke_s	s	n/a
280.518	0.1055	561036	keystroke_t	t	n/a
280.7285	0.1195	561457	keystroke_r	r	n/a
280.789	0.149	561578	keystroke_a	a	n/a
280.9235	0.105	561847	keystroke_p	p	n/a
281.133	0.106	562266	keystroke_Key.enter	Key.enter	n/a
281.2435	6.192	562487	prompt	n/a	lenses pioneer fares cage\n
281.898	0.135	563796	keystroke_l	l	n/a
282.0485	0.0905	564097	keystroke_e	e	n/a
282.1235	0.105	564247	keystroke_n	n	n/a
282.423	0.166	564846	keystroke_e	e	n/a
282.7825	0.0905	565565	keystroke_Key.backspace	Key.backspace	n/a
282.8285	0.1045	565657	keystroke_s	s	n/a
282.889	0.1505	565778	keystroke_e	e	n/a
283.0395	0.134	566079	keystroke_s	s	n/a
283.158	0.09	566316	keystroke_Key.space	Key.space	n/a
283.653	0.105	567306	keystroke_p	p	n/a
283.818	0.135	567636	keystroke_i	i	n/a
283.939	0.1345	567878	keystroke_p	p	n/a
284.553	0.075	569106	keystroke_Key.backspace	Key.backspace	n/a
284.7785	0.0605	569557	keystroke_o	o	n/a
284.913	0.1055	569826	keystroke_n	n	n/a
285.033	0.106	570066	keystroke_e	e	n/a
285.2135	0.135	570427	keystroke_e	e	n/a
285.2895	0.1495	570579	keystroke_r	r	n/a
285.3935	0.1195	570787	keystroke_Key.space	Key.space	n/a
285.678	0.12	571356	keystroke_f	f	n/a
285.768	0.1355	571536	keystroke_a	a	n/a
285.9185	0.1195	571837	keystroke_r	r	n/a
286.0235	0.1645	572047	keystroke_e	e	n/a
286.1135	0.12	572227	keystroke_s	s	n/a
286.218	0.105	572436	keystroke_Key.space	Key.space	n/a
286.4585	0.12	572917	keystroke_c	c	n/a
286.563	0.12	573126	keystroke_a	a	n/a
286.7285	0.165	573457	keystroke_g	g	n/a
286.8035	0.1495	573607	keystroke_e	e	n/a
287.3285	0.105	574657	keystroke_Key.enter	Key.enter	n/a
287.4395	6.4605	574879	prompt	n/a	ralph editorial rejected recipes\n
288.0935	0.1495	576187	keystroke_r	r	n/a
288.198	0.1505	576396	keystroke_a	a	n/a
288.3635	0.135	576727	keystroke_p	p	n/a
288.873	0.0905	577746	keystroke_Key.backspace	Key.backspace	n/a
289.083	0.0905	578166	keystroke_l	l	n/a
289.189	0.149	578378	keystroke_p	p	n/a
289.3085	0.12	578617	keystroke_h	h	n/a
289.503	0.121	579006	keystroke_Key.space	Key.space	n/a
289.7585	0.1045	579517	keystroke_e	e	n/a
289.879	0.074	579758	keystroke_i	i	n/a
289.983	0.15	579966	keystroke_d	d	n/a
290.3135	0.045	580627	keystroke_Key.backspace	Key.backspace	n/a
290.4335	0.1055	580867	keystroke_Key.backspace	Key.backspace	n/a
290.553	0.1505	581106	keystroke_d	d	n/a
290.6285	0.09	581257	keystroke_i	i	n/a
290.7635	0.1195	581527	keystroke_t	t	n/a
290.853	0.105	581706	keystroke_o	o	n/a
291.0485	0.1195	582097	keystroke_r	r	n/a
291.183	0.0755	582366	keystroke_i	i	n/a
291.289	0.134	582578	keystroke_a	a	n/a
291.364	0.134	582728	keystroke_l	l	n/a
291.453	0.105	582906	keystroke_Key.space	Key.space	n/a
291.739	0.1345	583478	keystroke_r	r	n/a
291.8135	0.105	583627	keystroke_e	e	n/a
291.9635	0.1195	583927	keystroke_j	j	n/a
292.053	0.136	584106	keystroke_e	e	n/a
292.293	0.0905	584586	keystroke_c	c	n/a
292.4585	0.105	584917	keystroke_t	t	n/a
292.5185	0.0745	585037	keystroke_e	e	n/a
292.698	0.12	585396	keystroke_d	d	n/a
292.803	0.12	585606	keystroke_Key.space	Key.space	n/a
292.923	0.1505	585846	keystroke_r	r	n/a
292.9835	0.1055	585967	keystroke_e	e	n/a
293.238	0.09	586476	keystroke_c	c	n/a
293.3135	0.09	586627	keystroke_i	i	n/a
293.4185	0.15	586837	keystroke_p	p	n/a
293.553	0.1205	587106	keystroke_e	e	n/a
293.6435	0.1495	587287	keystroke_s	s	n/a
293.808	0.0905	587616	keystroke_Key.enter	Key.enter	n/a
293.903	4.3465	587806	prompt	n/a	cuba mesh shop airplane\n
294.633	0.1505	589266	keystroke_c	c	n/a
294.739	0.0895	589478	keystroke_u	u	n/a
294.8435	0.12	589687	keystroke_b	b	n/a
294.9185	0.165	589837	keystroke_a	a	n/a
295.039	0.1195	590078	keystroke_Key.space	Key.space	n/a
295.2335	0.0895	590467	keystroke_m	m	n/a
295.2785	0.105	590557	keystroke_e	e	n/a
295.4435	0.1495	590887	keystroke_s	s	n/a
295.5185	0.1045	591037	keystroke_h	h	n/a
295.6085	0.135	591217	keystroke_Key.space	Key.space	n/a
295.789	0.119	591578	keystroke_s	s	n/a
295.878	0.1505	591756	keystroke_h	h	n/a
295.923	0.2105	591846	keystroke_o	o	n/a
296.0135	0.1645	592027	keystroke_p	p	n/a
296.1635	0.09	592327	keystroke_Key.space	Key.space	n/a
296.3135	0.15	592627	keystroke_a	a	n/a
296.7035	0.1045	593407	keystroke_i	i	n/a
296.839	0.105	593678	keystroke_r	r	n/a
297.0185	0.1495	594037	keystroke_p	p	n/a
297.108	0.1355	594216	keystroke_l	l	n/a
297.2435	0.105	594487	keystroke_a	a	n/a
297.363	0.1055	594726	keystroke_n	n	n/a
297.6485	0.1495	595297	keystroke_e	e	n/a
298.1585	0.09	596317	keystroke_Key.enter	Key.enter	n/a
298.2525	10.8575	596505	prompt	n/a	hormone ordinance endorsed effectiveness\n
299.148	0.091	598296	keystroke_o	o	n/a
299.253	0.0905	598506	keystroke_r	r	n/a
299.539	0.0745	599078	keystroke_Key.backspace	Key.backspace	n/a
299.703	0.075	599406	keystroke_Key.backspace	Key.backspace	n/a
299.8535	0.09	599707	keystroke_h	h	n/a
299.928	0.1655	599856	keystroke_o	o	n/a
300.0785	0.12	600157	keystroke_m	m	n/a
300.483	0.106	600966	keystroke_Key.backspace	Key.backspace	n/a
300.604	0.135	601208	keystroke_r	r	n/a
301.0985	0.105	602197	keystroke_m	m	n/a
301.2185	0.15	602437	keystroke_o	o	n/a
301.293	0.1505	602586	keystroke_n	n	n/a
301.4285	0.1345	602857	keystroke_e	e	n/a
301.518	0.121	603036	keystroke_Key.space	Key.space	n/a
301.8035	0.1045	603607	keystroke_o	o	n/a
301.893	0.1055	603786	keystroke_r	r	n/a
302.1035	0.1355	604207	keystroke_d	d	n/a
302.193	0.06	604386	keystroke_i	i	n/a
302.4035	0.075	604807	keystroke_n	n	n/a
302.493	0.1205	604986	keystroke_a	a	n/a
302.5985	0.09	605197	keystroke_n	n	n/a
302.7035	0.075	605407	keystroke_c	c	n/a
302.8535	0.1355	605707	keystroke_e	e	n/a
302.9735	0.0895	605947	keystroke_Key.space	Key.space	n/a
303.6785	0.105	607357	keystroke_a	a	n/a
304.0985	0.0745	608197	keystroke_Key.backspace	Key.backspace	n/a
304.2335	0.135	608467	keystroke_e	e	n/a
304.3235	0.105	608647	keystroke_n	n	n/a
304.6085	0.181	609217	keystroke_d	d	n/a
304.7895	0.074	609579	keystroke_o	o	n/a
304.893	0.1205	609786	keystroke_r	r	n/a
306.4835	0.135	612967	keystroke_s	s	n/a
306.574	0.0895	613148	keystroke_e	e	n/a
306.783	0.0905	613566	keystroke_d	d	n/a
306.8585	0.1195	613717	keystroke_Key.space	Key.space	n/a
307.278	0.09	614556	keystroke_e	e	n/a
307.4285	0.12	614857	keystroke_f	f	n/a
307.6385	0.1505	615277	keystroke_f	f	n/a
307.7285	0.136	615457	keystroke_e	e	n/a
307.9535	0.09	615907	keystroke_c	c	n/a
308.1035	0.0895	616207	keystroke_t	t	n/a
308.208	0.0905	616416	keystroke_i	i	n/a
308.2835	0.135	616567	keystroke_v	v	n/a
308.374	0.119	616748	keystroke_e	e	n/a
308.539	0.0895	617078	keystroke_n	n	n/a
308.5985	0.1055	617197	keystroke_e	e	n/a
308.764	0.075	617528	keystroke_s	s	n/a
308.9135	0.12	617827	keystroke_s	s	n/a
309.0185	0.09	618037	keystroke_Key.enter	Key.enter	n/a
309.113	9.9865	618226	prompt	n/a	chelsea quizzes pathology game\n
309.874	0.0895	619748	keystroke_c	c	n/a
309.9485	0.0595	619897	keystroke_h	h	n/a
310.023	0.1205	620046	keystroke_e	e	n/a
310.2035	0.135	620407	keystroke_l	l	n/a
310.278	0.1205	620556	keystroke_e	e	n/a
310.4135	0.1795	620827	keystroke_s	s	n/a
310.5185	0.18	621037	keystroke_e	e	n/a
311.0585	0.0445	622117	keystroke_Key.backspace	Key.backspace	n/a
311.2985	0.075	622597	keystroke_Key.backspace	Key.backspace	n/a
311.448	0.105	622896	keystroke_Key.backspace	Key.backspace	n/a
311.9735	0.12	623947	keystroke_s	s	n/a
312.078	0.0605	624156	keystroke_e	e	n/a
312.2435	0.1495	624487	keystroke_a	a	n/a
312.408	0.1055	624816	keystroke_Key.space	Key.space	n/a
314.223	0.1055	628446	keystroke_q	q	n/a
314.3135	0.075	628627	keystroke_u	u	n/a
314.3435	0.09	628687	keystroke_i	i	n/a
314.4485	0.0595	628897	keystroke_c	c	n/a
314.8235	0.075	629647	keystroke_Key.backspace	Key.backspace	n/a
314.9285	0.075	629857	keystroke_z	z	n/a
315.1235	0.075	630247	keystroke_z	z	n/a
315.333	0.15	630666	keystroke_e	e	n/a
315.8435	0.1495	631687	keystroke_s	s	n/a
316.0085	0.075	632017	keystroke_Key.space	Key.space	n/a
316.489	0.1495	632978	keystroke_p	p	n/a
316.6535	0.105	633307	keystroke_a	a	n/a
316.8185	0.1495	633637	keystroke_t	t	n/a
316.923	0.1055	633846	keystroke_h	h	n/a
317.014	0.0895	634028	keystroke_o	o	n/a
317.4185	0.045	634837	keystroke_l	l	n/a
317.568	0.0905	635136	keystroke_o	o	n/a
317.6735	0.165	635347	keystroke_g	g	n/a
317.778	0.105	635556	keystroke_y	y	n/a
317.8685	0.105	635737	keystroke_Key.space	Key.space	n/a
318.184	0.1495	636368	keystroke_g	g	n/a
318.258	0.135	636516	keystroke_a	a	n/a
318.3935	0.105	636787	keystroke_m	m	n/a
318.4535	0.15	636907	keystroke_e	e	n/a
319.009	0.089	638018	keystroke_Key.enter	Key.enter	n/a
319.1025	5.7575	638205	prompt	n/a	proceeds retrieval property total\n
319.7585	0.1195	639517	keystroke_p	p	n/a
319.863	0.1055	639726	keystroke_r	r	n/a
319.9235	0.105	639847	keystroke_o	o	n/a
320.044	0.089	640088	keystroke_c	c	n/a
320.208	0.1055	640416	keystroke_e	e	n/a
320.3885	0.1045	640777	keystroke_e	e	n/a
320.554	0.1645	641108	keystroke_d	d	n/a
320.643	0.135	641286	keystroke_s	s	n/a
320.748	0.1055	641496	keystroke_Key.space	Key.space	n/a
321.4385	0.1345	642877	keystroke_r	r	n/a
321.5135	0.105	643027	keystroke_e	e	n/a
321.6935	0.075	643387	keystroke_t	t	n/a
321.844	0.1345	643688	keystroke_r	r	n/a
321.903	0.1365	643806	keystroke_i	i	n/a
321.9935	0.1495	643987	keystroke_e	e	n/a
322.293	0.1355	644586	keystroke_v	v	n/a
322.3835	0.135	644767	keystroke_a	a	n/a
322.458	0.1055	644916	keystroke_l	l	n/a
322.533	0.1055	645066	keystroke_Key.space	Key.space	n/a
322.7285	0.1045	645457	keystroke_p	p	n/a
322.848	0.1355	645696	keystroke_r	r	n/a
322.9235	0.1055	645847	keystroke_o	o	n/a
323.013	0.1505	646026	keystroke_p	p	n/a
323.148	0.1955	646296	keystroke_e	e	n/a
323.299	0.119	646598	keystroke_r	r	n/a
323.599	0.149	647198	keystroke_l	l	n/a
323.718	0.1505	647436	keystroke_y	y	n/a
323.8385	0.1045	647677	keystroke_Key.space	Key.space	n/a
324.2435	0.0895	648487	keystroke_t	t	n/a
324.3185	0.105	648637	keystroke_o	o	n/a
324.424	0.1345	648848	keystroke_t	t	n/a
324.4985	0.1345	648997	keystroke_a	a	n/a
324.574	0.089	649148	keystroke_l	l	n/a
324.7835	0.075	649567	keystroke_Key.enter	Key.enter	n/a
324.863	9.3115	649726	prompt	n/a	immediately manchester by providence\n
325.5785	0.06	651157	keystroke_i	i	n/a
325.7885	0.045	651577	keystroke_m	m	n/a
325.908	0.1055	651816	keystroke_m	m	n/a
325.9685	0.0905	651937	keystroke_e	e	n/a
326.163	0.15	652326	keystroke_d	d	n/a
326.2385	0.09	652477	keystroke_i	i	n/a
326.3435	0.135	652687	keystroke_a	a	n/a
326.418	0.166	652836	keystroke_t	t	n/a
326.493	0.1655	652986	keystroke_e	e	n/a
326.5385	0.1795	653077	keystroke_l	l	n/a
326.6735	0.105	653347	keystroke_y	y	n/a
326.733	0.0905	653466	keystroke_Key.space	Key.space	n/a
327.0335	0.075	654067	keystroke_m	m	n/a
327.1235	0.105	654247	keystroke_a	a	n/a
327.2435	0.0745	654487	keystroke_n	n	n/a
327.364	0.135	654728	keystroke_c	c	n/a
327.4535	0.09	654907	keystroke_h	h	n/a
327.588	0.1355	655176	keystroke_e	e	n/a
327.679	0.1495	655358	keystroke_s	s	n/a
328.0835	0.106	656167	keystroke_t	t	n/a
328.1895	0.1645	656379	keystroke_e	e	n/a
328.2935	0.105	656587	keystroke_r	r	n/a
328.3835	0.105	656767	keystroke_Key.space	Key.space	n/a
328.6085	0.135	657217	keystroke_b	b	n/a
328.6985	0.1045	657397	keystroke_y	y	n/a
328.789	0.1045	657578	keystroke_Key.space	Key.space	n/a
329.6135	0.0895	659227	keystroke_p	p	n/a
329.688	0.1505	659376	keystroke_r	r	n/a
329.824	0.0895	659648	keystroke_o	o	n/a
330.4085	0.135	660817	keystroke_v	v	n/a
330.5145	0.1035	661029	keystroke_i	i	n/a
330.7235	0.12	661447	keystroke_d	d	n/a
330.9185	0.15	661837	keystroke_e	e	n/a
332.2085	0.15	664417	keystroke_Key.backspace	Key.backspace	n/a
333.5735	0.12	667147	keystroke_e	e	n/a
333.6785	0.1045	667357	keystroke_n	n	n/a
333.814	0.089	667628	keystroke_c	c	n/a
333.9785	0.12	667957	keystroke_e	e	n/a
334.1135	0.0595	668227	keystroke_Key.enter	Key.enter	n/a
334.1775	7.9785	668355	prompt	n/a	epinions murphy reid sets\n
334.863	0.1205	669726	keystroke_e	e	n/a
334.9685	0.1495	669937	keystroke_p	p	n/a
335.103	0.1355	670206	keystroke_i	i	n/a
335.5545	0.104	671109	keystroke_n	n	n/a
335.703	0.0905	671406	keystroke_i	i	n/a
335.794	0.165	671588	keystroke_o	o	n/a
335.9435	0.1345	671887	keystroke_n	n	n/a
336.093	0.1055	672186	keystroke_s	s	n/a
336.184	0.119	672368	keystroke_Key.space	Key.space	n/a
336.528	0.075	673056	keystroke_m	m	n/a
336.8585	0.0445	673717	keystroke_u	u	n/a
337.0085	0.105	674017	keystroke_r	r	n/a
337.188	0.0455	674376	keystroke_h	h	n/a
337.5785	0.09	675157	keystroke_Key.backspace	Key.backspace	n/a
337.818	0.1365	675636	keystroke_p	p	n/a
337.9085	0.1195	675817	keystroke_h	h	n/a
338.103	0.1055	676206	keystroke_y	y	n/a
338.3435	0.105	676687	keystroke_Key.space	Key.space	n/a
339.9635	0.075	679927	keystroke_r	r	n/a
340.2635	0.1345	680527	keystroke_e	e	n/a
340.414	0.149	680828	keystroke_i	i	n/a
340.578	0.151	681156	keystroke_d	d	n/a
340.7435	0.0745	681487	keystroke_Key.space	Key.space	n/a
341.448	0.1505	682896	keystroke_s	s	n/a
341.523	0.165	683046	keystroke_e	e	n/a
341.643	0.1655	683286	keystroke_t	t	n/a
341.7335	0.15	683467	keystroke_s	s	n/a
342.079	0.0755	684158	keystroke_Key.enter	Key.enter	n/a
342.159	4.256	684318	prompt	n/a	session hear tour glenn\n
342.873	0.1355	685746	keystroke_s	s	n/a
342.9635	0.0895	685927	keystroke_e	e	n/a
343.1135	0.0895	686227	keystroke_s	s	n/a
343.2785	0.105	686557	keystroke_s	s	n/a
343.354	0.134	686708	keystroke_i	i	n/a
343.4285	0.15	686857	keystroke_o	o	n/a
343.548	0.0755	687096	keystroke_n	n	n/a
343.6085	0.1495	687217	keystroke_Key.space	Key.space	n/a
343.7285	0.1195	687457	keystroke_h	h	n/a
343.7735	0.135	687547	keystroke_e	e	n/a
343.8785	0.135	687757	keystroke_a	a	n/a
343.9985	0.135	687997	keystroke_r	r	n/a
344.1045	0.074	688209	keystroke_Key.space	Key.space	n/a
344.418	0.121	688836	keystroke_t	t	n/a
344.5235	0.195	689047	keystroke_o	o	n/a
344.6885	0.0745	689377	keystroke_u	u	n/a
344.7045	0.0885	689409	keystroke_r	r	n/a
345.273	0.1205	690546	keystroke_Key.space	Key.space	n/a
345.513	0.135	691026	keystroke_g	g	n/a
345.604	0.089	691208	keystroke_l	l	n/a
345.708	0.12	691416	keystroke_e	e	n/a
345.8885	0.06	691777	keystroke_n	n	n/a
346.0235	0.1045	692047	keystroke_n	n	n/a
346.293	0.12	692586	keystroke_Key.enter	Key.enter	n/a
346.418	6.012	692836	prompt	n/a	catalogue dear pamela educational\n
347.8545	0.1035	695709	keystroke_c	c	n/a
347.943	0.12	695886	keystroke_a	a	n/a
348.0635	0.15	696127	keystroke_t	t	n/a
348.1835	0.1205	696367	keystroke_a	a	n/a
348.438	0.0455	696876	keystroke_l	l	n/a
348.588	0.1055	697176	keystroke_o	o	n/a
348.7235	0.1345	697447	keystroke_g	g	n/a
348.814	0.09	697628	keystroke_u	u	n/a
348.9485	0.12	697897	keystroke_e	e	n/a
349.0235	0.105	698047	keystroke_Key.space	Key.space	n/a
349.1885	0.12	698377	keystroke_d	d	n/a
349.354	0.1795	698708	keystroke_e	e	n/a
349.488	0.1205	698976	keystroke_a	a	n/a
349.5635	0.135	699127	keystroke_r	r	n/a
349.6685	0.09	699337	keystroke_Key.space	Key.space	n/a
349.9085	0.105	699817	keystroke_p	p	n/a
350.013	0.1205	700026	keystroke_a	a	n/a
350.134	0.119	700268	keystroke_m	m	n/a
350.2235	0.1345	700447	keystroke_e	e	n/a
350.4335	0.1505	700867	keystroke_l	l	n/a
350.5835	0.1055	701167	keystroke_a	a	n/a
350.658	0.105	701316	keystroke_Key.space	Key.space	n/a
350.943	0.1205	701886	keystroke_e	e	n/a
351.154	0.089	702308	keystroke_d	d	n/a
351.258	0.0755	702516	keystroke_u	u	n/a
351.3635	0.15	702727	keystroke_c	c	n/a
351.498	0.1205	702996	keystroke_a	a	n/a
351.6335	0.1055	703267	keystroke_t	t	n/a
351.6785	0.1495	703357	keystroke_i	i	n/a
351.739	0.134	703478	keystroke_o	o	n/a
351.814	0.12	703628	keystroke_n	n	n/a
351.9185	0.1355	703837	keystroke_a	a	n/a
352.0085	0.12	704017	keystroke_l	l	n/a
352.3385	0.0895	704677	keystroke_Key.enter	Key.enter	n/a
352.4325	4.5735	704865	prompt	n/a	insert webpage ideal charts\n
353.104	0.1345	706208	keystroke_i	i	n/a
353.1635	0.1345	706327	keystroke_n	n	n/a
353.254	0.1345	706508	keystroke_s	s	n/a
353.343	0.166	706686	keystroke_e	e	n/a
353.4335	0.135	706867	keystroke_r	r	n/a
353.5835	0.121	707167	keystroke_t	t	n/a
353.689	0.119	707378	keystroke_Key.space	Key.space	n/a
353.913	0.1655	707826	keystroke_w	w	n/a
354.213	0.1355	708426	keystroke_e	e	n/a
354.4235	0.1345	708847	keystroke_b	b	n/a
354.7385	0.15	709477	keystroke_p	p	n/a
354.8735	0.12	709747	keystroke_a	a	n/a
355.039	0.1495	710078	keystroke_g	g	n/a
355.0985	0.1195	710197	keystroke_e	e	n/a
355.204	0.0745	710408	keystroke_Key.space	Key.space	n/a
355.369	0.104	710738	keystroke_i	i	n/a
355.428	0.1055	710856	keystroke_d	d	n/a
355.5935	0.1345	711187	keystroke_e	e	n/a
355.683	0.121	711366	keystroke_a	a	n/a
355.743	0.1205	711486	keystroke_l	l	n/a
355.8185	0.105	711637	keystroke_Key.space	Key.space	n/a
356.254	0.1645	712508	keystroke_c	c	n/a
356.3285	0.135	712657	keystroke_h	h	n/a
356.4335	0.1205	712867	keystroke_a	a	n/a
356.508	0.12	713016	keystroke_r	r	n/a
356.704	0.15	713408	keystroke_t	t	n/a
356.749	0.1495	713498	keystroke_s	s	n/a
356.913	0.091	713826	keystroke_Key.enter	Key.enter	n/a
357.009	8.1415	714018	prompt	n/a	composition confirm animation appliances\n
357.858	0.1355	715716	keystroke_c	c	n/a
357.904	0.15	715808	keystroke_o	o	n/a
357.9785	0.1195	715957	keystroke_m	m	n/a
358.0085	0.1645	716017	keystroke_p	p	n/a
358.2785	0.1495	716557	keystroke_o	o	n/a
358.879	0.164	717758	keystroke_s	s	n/a
358.9835	0.0745	717967	keystroke_i	i	n/a
359.134	0.1045	718268	keystroke_t	t	n/a
359.194	0.1495	718388	keystroke_i	i	n/a
359.2545	0.134	718509	keystroke_o	o	n/a
359.3285	0.135	718657	keystroke_n	n	n/a
359.4785	0.0755	718957	keystroke_Key.space	Key.space	n/a
359.688	0.1805	719376	keystroke_c	c	n/a
359.7335	0.1495	719467	keystroke_o	o	n/a
359.8545	0.0735	719709	keystroke_n	n	n/a
360.183	0.1355	720366	keystroke_f	f	n/a
360.3045	0.074	720609	keystroke_i	i	n/a
360.3935	0.1195	720787	keystroke_r	r	n/a
360.4685	0.12	720937	keystroke_m	m	n/a
360.5735	0.09	721147	keystroke_Key.space	Key.space	n/a
360.889	0.1045	721778	keystroke_a	a	n/a
360.9485	0.06	721897	keystroke_n	n	n/a
361.0385	0.135	722077	keystroke_i	i	n/a
361.1585	0.105	722317	keystroke_m	m	n/a
361.2785	0.1045	722557	keystroke_a	a	n/a
361.3985	0.1195	722797	keystroke_t	t	n/a
361.4435	0.12	722887	keystroke_i	i	n/a
361.488	0.1205	722976	keystroke_o	o	n/a
361.533	0.121	723066	keystroke_n	n	n/a
361.6085	0.1195	723217	keystroke_Key.space	Key.space	n/a
361.9235	0.1195	723847	keystroke_a	a	n/a
361.9985	0.09	723997	keystroke_p	p	n/a
362.1485	0.1495	724297	keystroke_p	p	n/a
362.313	0.1505	724626	keystroke_l	l	n/a
362.389	0.12	724778	keystroke_i	i	n/a
362.509	0.1345	725018	keystroke_c	c	n/a
362.6285	0.1045	725257	keystroke_a	a	n/a
363.498	0.0605	726996	keystroke_Key.backspace	Key.backspace	n/a
363.648	0.091	727296	keystroke_Key.backspace	Key.backspace	n/a
364.3235	0.135	728647	keystroke_a	a	n/a
364.4735	0.0745	728947	keystroke_n	n	n/a
364.683	0.1055	729366	keystroke_c	c	n/a
364.8485	0.1495	729697	keystroke_e	e	n/a
364.9545	0.134	729909	keystroke_s	s	n/a
365.0735	0.0755	730147	keystroke_Key.enter	Key.enter	n/a
365.154	8.471	730308	prompt	n/a	challenge migration journalism perception\n
365.8385	0.15	731677	keystroke_c	c	n/a
365.9735	0.0305	731947	keystroke_h	h	n/a
366.033	0.15	732066	keystroke_a	a	n/a
366.198	0.046	732396	keystroke_l	l	n/a
366.3485	0.09	732697	keystroke_l	l	n/a
366.4535	0.12	732907	keystroke_e	e	n/a
366.5585	0.1045	733117	keystroke_n	n	n/a
366.6485	0.165	733297	keystroke_g	g	n/a
366.7535	0.12	733507	keystroke_e	e	n/a
367.2185	0.12	734437	keystroke_s	s	n/a
367.323	0.1205	734646	keystroke_Key.space	Key.space	n/a
367.819	0.1045	735638	keystroke_m	m	n/a
367.938	0.12	735876	keystroke_i	i	n/a
368.0135	0.12	736027	keystroke_g	g	n/a
368.2235	0.105	736447	keystroke_r	r	n/a
368.5685	0.0745	737137	keystroke_Key.backspace	Key.backspace	n/a
368.7185	0.0745	737437	keystroke_Key.backspace	Key.backspace	n/a
368.883	0.0605	737766	keystroke_Key.backspace	Key.backspace	n/a
369.034	0.0595	738068	keystroke_Key.backspace	Key.backspace	n/a
369.183	0.045	738366	keystroke_Key.backspace	Key.backspace	n/a
369.3335	0.105	738667	keystroke_Key.backspace	Key.backspace	n/a
369.4985	0.075	738997	keystroke_Key.space	Key.space	n/a
369.6485	0.0905	739297	keystroke_m	m	n/a
369.6935	0.135	739387	keystroke_i	i	n/a
369.7985	0.1205	739597	keystroke_g	g	n/a
369.9935	0.135	739987	keystroke_r	r	n/a
370.0685	0.18	740137	keystroke_a	a	n/a
370.518	0.1215	741036	keystroke_t	t	n/a
370.609	0.1495	741218	keystroke_i	i	n/a
370.639	0.1345	741278	keystroke_o	o	n/a
370.7285	0.12	741457	keystroke_n	n	n/a
370.8185	0.1055	741637	keystroke_Key.space	Key.space	n/a
371.0285	0.105	742057	keystroke_j	j	n/a
371.1485	0.15	742297	keystroke_o	o	n/a
371.2235	0.105	742447	keystroke_u	u	n/a
371.3135	0.12	742627	keystroke_r	r	n/a
371.449	0.0745	742898	keystroke_n	n	n/a
371.538	0.0755	743076	keystroke_a	a	n/a
371.629	0.135	743258	keystroke_l	l	n/a
371.6885	0.1205	743377	keystroke_i	i	n/a
371.7935	0.1505	743587	keystroke_s	s	n/a
371.9285	0.09	743857	keystroke_m	m	n/a
371.989	0.1045	743978	keystroke_Key.space	Key.space	n/a
372.2735	0.135	744547	keystroke_p	p	n/a
372.3485	0.15	744697	keystroke_e	e	n/a
372.4535	0.09	744907	keystroke_r	r	n/a
372.6635	0.075	745327	keystroke_c	c	n/a
372.799	0.1345	745598	keystroke_e	e	n/a
372.874	0.1045	745748	keystroke_p	p	n/a
372.9935	0.12	745987	keystroke_t	t	n/a
373.0985	0.105	746197	keystroke_i	i	n/a
373.1585	0.1355	746317	keystroke_o	o	n/a
373.2785	0.135	746557	keystroke_n	n	n/a
373.5485	0.075	747097	keystroke_Key.enter	Key.enter	n/a
373.628	5.202	747256	prompt	n/a	entrance chem outer wear\n
374.4935	0.1495	748987	keystroke_e	e	n/a
374.598	0.0905	749196	keystroke_n	n	n/a
374.7035	0.0755	749407	keystroke_t	t	n/a
374.868	0.1505	749736	keystroke_r	r	n/a
374.958	0.1205	749916	keystroke_a	a	n/a
375.094	0.09	750188	keystroke_n	n	n/a
375.1835	0.09	750367	keystroke_c	c	n/a
375.3485	0.1195	750697	keystroke_e	e	n/a
375.4535	0.09	750907	keystroke_Key.space	Key.space	n/a
375.619	0.119	751238	keystroke_e	e	n/a
376.1435	0.1195	752287	keystroke_Key.backspace	Key.backspace	n/a
376.248	0.136	752496	keystroke_c	c	n/a
376.3685	0.09	752737	keystroke_h	h	n/a
376.473	0.1055	752946	keystroke_e	e	n/a
376.579	0.1195	753158	keystroke_m	m	n/a
376.6535	0.1195	753307	keystroke_Key.space	Key.space	n/a
376.849	0.1345	753698	keystroke_o	o	n/a
376.938	0.12	753876	keystroke_u	u	n/a
377.0285	0.105	754057	keystroke_t	t	n/a
377.179	0.1345	754358	keystroke_e	e	n/a
377.253	0.1505	754506	keystroke_r	r	n/a
377.3285	0.09	754657	keystroke_Key.space	Key.space	n/a
377.629	0.1195	755258	keystroke_w	w	n/a
377.7335	0.15	755467	keystroke_e	e	n/a
377.9285	0.105	755857	keystroke_a	a	n/a
378.6185	0.15	757237	keystroke_r	r	n/a
378.753	0.0755	757506	keystroke_Key.enter	Key.enter	n/a
378.833	7.3465	757666	prompt	n/a	wanted commitment karaoke videos\n
379.699	0.1945	759398	keystroke_w	w	n/a
379.8035	0.1195	759607	keystroke_a	a	n/a
379.9085	0.09	759817	keystroke_n	n	n/a
380.014	0.1495	760028	keystroke_t	t	n/a
380.0885	0.12	760177	keystroke_e	e	n/a
380.2985	0.135	760597	keystroke_d	d	n/a
380.404	0.119	760808	keystroke_Key.space	Key.space	n/a
380.6885	0.135	761377	keystroke_c	c	n/a
380.719	0.0745	761438	keystroke_o	o	n/a
380.944	0.045	761888	keystroke_m	m	n/a
381.0785	0.1055	762157	keystroke_m	m	n/a
381.513	0.0905	763026	keystroke_i	i	n/a
381.7385	0.1205	763477	keystroke_t	t	n/a
381.9785	0.075	763957	keystroke_m	m	n/a
382.084	0.135	764168	keystroke_e	e	n/a
382.174	0.0895	764348	keystroke_n	n	n/a
382.2785	0.12	764557	keystroke_t	t	n/a
382.354	0.1045	764708	keystroke_Key.space	Key.space	n/a
382.564	0.1045	765128	keystroke_k	k	n/a
382.6835	0.1205	765367	keystroke_a	a	n/a
382.939	0.105	765878	keystroke_r	r	n/a
383.029	0.1345	766058	keystroke_a	a	n/a
383.359	0.105	766718	keystroke_o	o	n/a
383.554	0.1195	767108	keystroke_k	k	n/a
383.644	0.135	767288	keystroke_e	e	n/a
383.764	0.119	767528	keystroke_Key.space	Key.space	n/a
384.3335	0.12	768667	keystroke_v	v	n/a
384.4085	0.105	768817	keystroke_i	i	n/a
384.5285	0.12	769057	keystroke_d	d	n/a
384.738	0.1205	769476	keystroke_e	e	n/a
385.774	0.1045	771548	keystroke_o	o	n/a
385.8935	0.15	771787	keystroke_s	s	n/a
386.089	0.089	772178	keystroke_Key.enter	Key.enter	n/a
386.184	6.1165	772368	prompt	n/a	does hidden sucking freight\n
387.0785	0.091	774157	keystroke_d	d	n/a
387.154	0.1345	774308	keystroke_o	o	n/a
387.2735	0.12	774547	keystroke_e	e	n/a
387.3185	0.151	774637	keystroke_s	s	n/a
387.454	0.09	774908	keystroke_Key.space	Key.space	n/a
387.604	0.089	775208	keystroke_h	h	n/a
387.6635	0.1345	775327	keystroke_i	i	n/a
387.7835	0.09	775567	keystroke_d	d	n/a
387.949	0.09	775898	keystroke_d	d	n/a
388.159	0.09	776318	keystroke_e	e	n/a
388.204	0.075	776408	keystroke_n	n	n/a
388.263	0.1055	776526	keystroke_Key.space	Key.space	n/a
388.4735	0.12	776947	keystroke_s	s	n/a
388.5635	0.075	777127	keystroke_u	u	n/a
388.699	0.15	777398	keystroke_c	c	n/a
388.7885	0.0745	777577	keystroke_k	k	n/a
388.9685	0.1355	777937	keystroke_i	i	n/a
388.9985	0.135	777997	keystroke_n	n	n/a
389.089	0.135	778178	keystroke_g	g	n/a
389.2085	0.1055	778417	keystroke_Key.space	Key.space	n/a
390.0485	0.075	780097	keystroke_f	f	n/a
390.199	0.1345	780398	keystroke_r	r	n/a
390.3045	0.104	780609	keystroke_i	i	n/a
391.129	0.1045	782258	keystroke_Key.backspace	Key.backspace	n/a
391.354	0.1495	782708	keystroke_e	e	n/a
391.459	0.119	782918	keystroke_i	i	n/a
391.6835	0.12	783367	keystroke_g	g	n/a
391.8195	0.1195	783639	keystroke_h	h	n/a
391.97	0.1035	783940	keystroke_t	t	n/a
392.2085	0.09	784417	keystroke_Key.enter	Key.enter	n/a
392.3035	7.0465	784607	prompt	n/a	sandwich islamic window prostores\n
393.0935	0.0905	786187	keystroke_s	s	n/a
393.154	0.1655	786308	keystroke_a	a	n/a
393.274	0.1045	786548	keystroke_n	n	n/a
393.6195	0.104	787239	keystroke_d	d	n/a
394.1885	0.1205	788377	keystroke_w	w	n/a
394.324	0.09	788648	keystroke_i	i	n/a
394.429	0.1345	788858	keystroke_c	c	n/a
394.5195	0.0895	789039	keystroke_h	h	n/a
394.5935	0.0905	789187	keystroke_Key.space	Key.space	n/a
394.759	0.1195	789518	keystroke_i	i	n/a
394.894	0.105	789788	keystroke_s	s	n/a
395.014	0.1055	790028	keystroke_l	l	n/a
395.1335	0.0905	790267	keystroke_a	a	n/a
395.4045	0.089	790809	keystroke_m	m	n/a
395.4485	0.165	790897	keystroke_i	i	n/a
395.599	0.105	791198	keystroke_c	c	n/a
395.689	0.0895	791378	keystroke_Key.space	Key.space	n/a
395.839	0.135	791678	keystroke_w	w	n/a
395.959	0.0895	791918	keystroke_i	i	n/a
395.9885	0.1205	791977	keystroke_n	n	n/a
396.0935	0.1355	792187	keystroke_d	d	n/a
396.244	0.0895	792488	keystroke_o	o	n/a
396.3195	0.089	792639	keystroke_w	w	n/a
396.424	0.075	792848	keystroke_Key.space	Key.space	n/a
396.859	0.135	793718	keystroke_p	p	n/a
397.174	0.1045	794348	keystroke_r	r	n/a
397.2635	0.1505	794527	keystroke_o	o	n/a
397.429	0.1045	794858	keystroke_s	s	n/a
397.9235	0.135	795847	keystroke_t	t	n/a
398.1035	0.1355	796207	keystroke_e	e	n/a
398.4635	0.106	796927	keystroke_Key.backspace	Key.backspace	n/a
398.7485	0.121	797497	keystroke_o	o	n/a
398.884	0.12	797768	keystroke_r	r	n/a
398.959	0.15	797918	keystroke_e	e	n/a
399.124	0.1805	798248	keystroke_s	s	n/a
399.319	0.0295	798638	keystroke_Key.enter	Key.enter	n/a
399.353	5.2025	798706	prompt	n/a	airport singles nylon nokia\n
400.024	0.105	800048	keystroke_a	a	n/a
400.1135	0.106	800227	keystroke_i	i	n/a
400.204	0.105	800408	keystroke_r	r	n/a
400.3695	0.15	800739	keystroke_p	p	n/a
400.414	0.1345	800828	keystroke_o	o	n/a
400.5335	0.0455	801067	keystroke_r	r	n/a
400.684	0.1195	801368	keystroke_t	t	n/a
400.924	0.135	801848	keystroke_Key.space	Key.space	n/a
401.314	0.15	802628	keystroke_s	s	n/a
401.419	0.1045	802838	keystroke_i	i	n/a
401.479	0.1045	802958	keystroke_n	n	n/a
401.5535	0.1505	803107	keystroke_g	g	n/a
401.689	0.12	803378	keystroke_l	l	n/a
401.7635	0.135	803527	keystroke_e	e	n/a
401.914	0.1345	803828	keystroke_s	s	n/a
402.0335	0.0605	804067	keystroke_Key.space	Key.space	n/a
402.139	0.075	804278	keystroke_n	n	n/a
402.3195	0.074	804639	keystroke_y	y	n/a
402.499	0.075	804998	keystroke_l	l	n/a
402.6785	0.1205	805357	keystroke_o	o	n/a
402.754	0.12	805508	keystroke_n	n	n/a
402.859	0.1045	805718	keystroke_g	g	n/a
402.9335	0.105	805867	keystroke_Key.space	Key.space	n/a
403.4135	0.0455	806827	keystroke_Key.backspace	Key.backspace	n/a
403.5635	0.09	807127	keystroke_Key.backspace	Key.backspace	n/a
403.6535	0.12	807307	keystroke_Key.space	Key.space	n/a
403.7885	0.1055	807577	keystroke_n	n	n/a
403.864	0.135	807728	keystroke_o	o	n/a
404.1035	0.045	808207	keystroke_k	k	n/a
404.239	0.1045	808478	keystroke_i	i	n/a
404.359	0.12	808718	keystroke_a	a	n/a
404.4635	0.0905	808927	keystroke_Key.enter	Key.enter	n/a
404.5585	3.867	809117	prompt	n/a	bless relocation builder bite\n
405.259	0.12	810518	keystroke_b	b	n/a
405.3185	0.1355	810637	keystroke_l	l	n/a
405.439	0.1045	810878	keystroke_e	e	n/a
405.6335	0.0755	811267	keystroke_s	s	n/a
405.784	0.1195	811568	keystroke_s	s	n/a
405.8885	0.135	811777	keystroke_Key.space	Key.space	n/a
405.979	0.165	811958	keystroke_r	r	n/a
406.0545	0.134	812109	keystroke_e	e	n/a
406.1735	0.0455	812347	keystroke_l	l	n/a
406.3535	0.105	812707	keystroke_o	o	n/a
406.4285	0.135	812857	keystroke_c	c	n/a
406.5335	0.1055	813067	keystroke_a	a	n/a
406.684	0.1195	813368	keystroke_t	t	n/a
406.729	0.15	813458	keystroke_i	i	n/a
406.774	0.15	813548	keystroke_o	o	n/a
406.8485	0.1355	813697	keystroke_n	n	n/a
406.9385	0.1205	813877	keystroke_Key.space	Key.space	n/a
407.119	0.135	814238	keystroke_b	b	n/a
407.164	0.1345	814328	keystroke_u	u	n/a
407.224	0.1645	814448	keystroke_i	i	n/a
407.2835	0.1355	814567	keystroke_l	l	n/a
407.3735	0.1355	814747	keystroke_d	d	n/a
407.584	0.1495	815168	keystroke_e	e	n/a
407.659	0.12	815318	keystroke_r	r	n/a
407.719	0.1045	815438	keystroke_Key.space	Key.space	n/a
407.884	0.1195	815768	keystroke_b	b	n/a
407.9735	0.135	815947	keystroke_i	i	n/a
408.1235	0.18	816247	keystroke_t	t	n/a
408.2135	0.165	816427	keystroke_e	e	n/a
408.364	0.06	816728	keystroke_Key.enter	Key.enter	n/a
408.4285	5.9965	816857	prompt	n/a	boundaries compressed lightbox greeting\n
409.2035	0.166	818407	keystroke_b	b	n/a
409.279	0.1195	818558	keystroke_o	o	n/a
409.354	0.0595	818708	keystroke_u	u	n/a
409.549	0.06	819098	keystroke_n	n	n/a
409.969	0.164	819938	keystroke_d	d	n/a
410.0885	0.1355	820177	keystroke_a	a	n/a
410.1785	0.135	820357	keystroke_r	r	n/a
410.329	0.1045	820658	keystroke_i	i	n/a
410.3735	0.135	820747	keystroke_e	e	n/a
410.464	0.135	820928	keystroke_s	s	n/a
410.5835	0.09	821167	keystroke_Key.space	Key.space	n/a
410.8085	0.1505	821617	keystroke_c	c	n/a
410.854	0.1795	821708	keystroke_o	o	n/a
410.9285	0.135	821857	keystroke_m	m	n/a
411.0035	0.1505	822007	keystroke_p	p	n/a
411.139	0.1345	822278	keystroke_r	r	n/a
411.199	0.12	822398	keystroke_e	e	n/a
411.3935	0.0605	822787	keystroke_s	s	n/a
411.5585	0.1205	823117	keystroke_s	s	n/a
411.664	0.0895	823328	keystroke_e	e	n/a
411.8285	0.1355	823657	keystroke_d	d	n/a
411.9335	0.12	823867	keystroke_Key.space	Key.space	n/a
412.084	0.15	824168	keystroke_l	l	n/a
412.189	0.075	824378	keystroke_i	i	n/a
412.249	0.1205	824498	keystroke_g	g	n/a
412.354	0.1045	824708	keystroke_h	h	n/a
412.4435	0.0755	824887	keystroke_t	t	n/a
412.639	0.1045	825278	keystroke_b	b	n/a
412.699	0.12	825398	keystroke_o	o	n/a
412.834	0.135	825668	keystroke_x	x	n/a
412.939	0.1045	825878	keystroke_Key.space	Key.space	n/a
413.254	0.045	826508	keystroke_g	g	n/a
413.434	0.135	826868	keystroke_r	r	n/a
413.479	0.105	826958	keystroke_e	e	n/a
413.6735	0.1355	827347	keystroke_e	e	n/a
413.974	0.1205	827948	keystroke_t	t	n/a
414.049	0.12	828098	keystroke_i	i	n/a
414.094	0.1345	828188	keystroke_n	n	n/a
414.2135	0.1355	828427	keystroke_g	g	n/a
414.334	0.0895	828668	keystroke_Key.enter	Key.enter	n/a
414.4275	6.3575	828855	prompt	n/a	spell conditioning connected institutions\n
415.054	0.1045	830108	keystroke_s	s	n/a
415.1135	0.1205	830227	keystroke_p	p	n/a
415.219	0.09	830438	keystroke_e	e	n/a
415.4735	0.0455	830947	keystroke_l	l	n/a
415.594	0.1195	831188	keystroke_l	l	n/a
415.669	0.1045	831338	keystroke_Key.space	Key.space	n/a
415.7885	0.1355	831577	keystroke_c	c	n/a
415.849	0.105	831698	keystroke_o	o	n/a
415.939	0.0895	831878	keystroke_n	n	n/a
416.0435	0.1505	832087	keystroke_d	d	n/a
416.134	0.075	832268	keystroke_i	i	n/a
416.254	0.1195	832508	keystroke_t	t	n/a
416.3285	0.0905	832657	keystroke_i	i	n/a
416.4035	0.1655	832807	keystroke_o	o	n/a
416.464	0.1495	832928	keystroke_n	n	n/a
416.9435	0.1205	833887	keystroke_i	i	n/a
417.019	0.135	834038	keystroke_n	n	n/a
417.0785	0.15	834157	keystroke_g	g	n/a
417.2135	0.1205	834427	keystroke_Key.space	Key.space	n/a
417.5285	0.0905	835057	keystroke_c	c	n/a
417.5735	0.0605	835147	keystroke_o	o	n/a
417.754	0.0595	835508	keystroke_n	n	n/a
417.904	0.075	835808	keystroke_n	n	n/a
417.949	0.09	835898	keystroke_e	e	n/a
418.1585	0.1055	836317	keystroke_c	c	n/a
418.3085	0.15	836617	keystroke_t	t	n/a
418.384	0.09	836768	keystroke_e	e	n/a
418.564	0.105	837128	keystroke_d	d	n/a
418.6385	0.105	837277	keystroke_Key.space	Key.space	n/a
418.804	0.18	837608	keystroke_i	i	n/a
418.9095	0.119	837819	keystroke_n	n	n/a
418.984	0.15	837968	keystroke_s	s	n/a
419.2535	0.1205	838507	keystroke_t	t	n/a
419.3285	0.1205	838657	keystroke_i	i	n/a
419.4635	0.135	838927	keystroke_t	t	n/a
419.5835	0.1055	839167	keystroke_u	u	n/a
419.9285	0.1205	839857	keystroke_t	t	n/a
420.1245	0.1945	840249	keystroke_i	i	n/a
420.2135	0.1955	840427	keystroke_o	o	n/a
420.334	0.135	840668	keystroke_n	n	n/a
420.484	0.1795	840968	keystroke_s	s	n/a
420.679	0.1045	841358	keystroke_Key.enter	Key.enter	n/a
420.788	5.2925	841576	prompt	n/a	plan applicant humanities guestbook\n
421.5485	0.1655	843097	keystroke_p	p	n/a
421.6685	0.1505	843337	keystroke_l	l	n/a
421.8045	0.1345	843609	keystroke_a	a	n/a
421.864	0.135	843728	keystroke_n	n	n/a
421.954	0.1195	843908	keystroke_Key.space	Key.space	n/a
422.0885	0.1205	844177	keystroke_a	a	n/a
422.134	0.0905	844268	keystroke_p	p	n/a
422.2985	0.1205	844597	keystroke_p	p	n/a
422.3735	0.21	844747	keystroke_l	l	n/a
422.494	0.1205	844988	keystroke_i	i	n/a
422.599	0.135	845198	keystroke_c	c	n/a
422.6885	0.1205	845377	keystroke_a	a	n/a
422.884	0.1195	845768	keystroke_n	n	n/a
422.9885	0.1205	845977	keystroke_t	t	n/a
423.079	0.075	846158	keystroke_Key.space	Key.space	n/a
423.319	0.06	846638	keystroke_h	h	n/a
423.499	0.0595	846998	keystroke_u	u	n/a
423.664	0.075	847328	keystroke_m	m	n/a
423.784	0.165	847568	keystroke_a	a	n/a
423.8885	0.1205	847777	keystroke_n	n	n/a
423.994	0.0905	847988	keystroke_i	i	n/a
424.1285	0.1235	848257	keystroke_t	t	n/a
424.204	0.12	848408	keystroke_i	i	n/a
424.3085	0.135	848617	keystroke_e	e	n/a
424.399	0.15	848798	keystroke_s	s	n/a
424.5035	0.105	849007	keystroke_Key.space	Key.space	n/a
424.7285	0.1805	849457	keystroke_g	g	n/a
424.924	0.075	849848	keystroke_u	u	n/a
425.0135	0.1205	850027	keystroke_e	e	n/a
425.089	0.15	850178	keystroke_s	s	n/a
425.254	0.1345	850508	keystroke_t	t	n/a
425.509	0.165	851018	keystroke_b	b	n/a
425.5985	0.06	851197	keystroke_o	o	n/a
425.704	0.15	851408	keystroke_o	o	n/a
425.809	0.09	851618	keystroke_k	k	n/a
426.0035	0.0755	852007	keystroke_Key.enter	Key.enter	n/a
426.0835	5.097	852167	prompt	n/a	prevention meditation carbon medicine\n
426.724	0.1345	853448	keystroke_p	p	n/a
426.8435	0.1355	853687	keystroke_r	r	n/a
426.934	0.09	853868	keystroke_e	e	n/a
427.084	0.12	854168	keystroke_v	v	n/a
427.1285	0.1505	854257	keystroke_e	e	n/a
427.2485	0.0905	854497	keystroke_n	n	n/a
427.354	0.1195	854708	keystroke_t	t	n/a
427.4435	0.1505	854887	keystroke_i	i	n/a
427.504	0.15	855008	keystroke_o	o	n/a
427.579	0.091	855158	keystroke_n	n	n/a
427.654	0.12	855308	keystroke_Key.space	Key.space	n/a
427.804	0.12	855608	keystroke_m	m	n/a
427.894	0.105	855788	keystroke_e	e	n/a
428.089	0.12	856178	keystroke_d	d	n/a
428.134	0.12	856268	keystroke_i	i	n/a
428.284	0.15	856568	keystroke_t	t	n/a
428.389	0.15	856778	keystroke_a	a	n/a
428.5085	0.165	857017	keystroke_t	t	n/a
428.569	0.15	857138	keystroke_i	i	n/a
428.6285	0.166	857257	keystroke_o	o	n/a
428.689	0.12	857378	keystroke_n	n	n/a
428.734	0.1355	857468	keystroke_Key.space	Key.space	n/a
429.034	0.1045	858068	keystroke_c	c	n/a
429.1235	0.1655	858247	keystroke_a	a	n/a
429.2435	0.1205	858487	keystroke_r	r	n/a
429.439	0.1195	858878	keystroke_b	b	n/a
429.4985	0.1055	858997	keystroke_o	o	n/a
429.5735	0.0905	859147	keystroke_n	n	n/a
429.6185	0.1205	859237	keystroke_Key.space	Key.space	n/a
430.0835	0.1205	860167	keystroke_m	m	n/a
430.204	0.075	860408	keystroke_e	e	n/a
430.354	0.1195	860708	keystroke_d	d	n/a
430.399	0.105	860798	keystroke_i	i	n/a
430.6535	0.1355	861307	keystroke_c	c	n/a
430.759	0.15	861518	keystroke_i	i	n/a
430.819	0.15	861638	keystroke_n	n	n/a
430.924	0.1345	861848	keystroke_e	e	n/a
431.104	0.075	862208	keystroke_Key.enter	Key.enter	n/a
431.183	7.4675	862366	prompt	n/a	quebec protecting west version\n
431.959	0.12	863918	keystroke_q	q	n/a
432.049	0.075	864098	keystroke_u	u	n/a
432.139	0.1195	864278	keystroke_e	e	n/a
432.799	0.09	865598	keystroke_b	b	n/a
432.9185	0.076	865837	keystroke_e	e	n/a
433.1135	0.1205	866227	keystroke_c	c	n/a
433.219	0.12	866438	keystroke_Key.space	Key.space	n/a
433.564	0.105	867128	keystroke_p	p	n/a
433.6835	0.1205	867367	keystroke_r	r	n/a
433.7585	0.1205	867517	keystroke_o	o	n/a
434.6135	0.12	869227	keystroke_t	t	n/a
434.719	0.0895	869438	keystroke_e	e	n/a
434.944	0.12	869888	keystroke_c	c	n/a
435.124	0.12	870248	keystroke_t	t	n/a
435.2285	0.1055	870457	keystroke_i	i	n/a
435.259	0.1355	870518	keystroke_n	n	n/a
435.349	0.1345	870698	keystroke_g	g	n/a
435.4545	0.104	870909	keystroke_Key.space	Key.space	n/a
435.7695	0.1195	871539	keystroke_w	w	n/a
435.844	0.1195	871688	keystroke_e	e	n/a
436.0985	0.1355	872197	keystroke_s	s	n/a
436.249	0.12	872498	keystroke_t	t	n/a
436.354	0.0745	872708	keystroke_Key.space	Key.space	n/a
436.9835	0.0605	873967	keystroke_v	v	n/a
437.074	0.12	874148	keystroke_e	e	n/a
437.374	0.09	874748	keystroke_r	r	n/a
437.5245	0.1345	875049	keystroke_s	s	n/a
437.6285	0.1805	875257	keystroke_i	i	n/a
437.674	0.15	875348	keystroke_o	o	n/a
437.7195	0.164	875439	keystroke_n	n	n/a
437.869	0.06	875738	keystroke_Key.space	Key.space	n/a
438.364	0.045	876728	keystroke_Key.backspace	Key.backspace	n/a
438.634	0.015	877268	keystroke_Key.enter	Key.enter	n/a
438.6535	7.858	877307	prompt	n/a	respectively karaoke arise defensive\n
439.3835	0.1205	878767	keystroke_r	r	n/a
439.459	0.105	878918	keystroke_e	e	n/a
439.579	0.1345	879158	keystroke_s	s	n/a
439.6685	0.1055	879337	keystroke_p	p	n/a
439.759	0.076	879518	keystroke_e	e	n/a
439.9835	0.2405	879967	keystroke_c	c	n/a
440.2685	0.0905	880537	keystroke_t	t	n/a
440.344	0.12	880688	keystroke_i	i	n/a
440.479	0.1645	880958	keystroke_v	v	n/a
440.5385	0.1505	881077	keystroke_e	e	n/a
440.8685	0.1655	881737	keystroke_l	l	n/a
440.9735	0.12	881947	keystroke_y	y	n/a
441.109	0.1045	882218	keystroke_Key.space	Key.space	n/a
441.409	0.105	882818	keystroke_k	k	n/a
441.5435	0.135	883087	keystroke_a	a	n/a
442.249	0.1195	884498	keystroke_r	r	n/a
442.339	0.135	884678	keystroke_a	a	n/a
442.849	0.1345	885698	keystroke_o	o	n/a
442.969	0.15	885938	keystroke_k	k	n/a
443.089	0.135	886178	keystroke_e	e	n/a
443.5835	0.1515	887167	keystroke_Key.space	Key.space	n/a
443.689	0.135	887378	keystroke_a	a	n/a
443.779	0.18	887558	keystroke_r	r	n/a
443.944	0.105	887888	keystroke_i	i	n/a
444.004	0.1645	888008	keystroke_s	s	n/a
444.064	0.15	888128	keystroke_e	e	n/a
444.1835	0.0905	888367	keystroke_Key.space	Key.space	n/a
444.964	0.0745	889928	keystroke_d	d	n/a
445.1135	0.1375	890227	keystroke_e	e	n/a
445.2205	0.1935	890441	keystroke_f	f	n/a
445.744	0.1495	891488	keystroke_e	e	n/a
445.909	0.075	891818	keystroke_n	n	n/a
445.999	0.136	891998	keystroke_s	s	n/a
446.089	0.12	892178	keystroke_i	i	n/a
446.194	0.12	892388	keystroke_v	v	n/a
446.254	0.135	892508	keystroke_e	e	n/a
446.404	0.105	892808	keystroke_Key.enter	Key.enter	n/a
446.5145	8.426	893029	prompt	n/a	athletic ended grateful sporting\n
447.409	0.12	894818	keystroke_a	a	n/a
447.649	0.136	895298	keystroke_t	t	n/a
447.7535	0.0905	895507	keystroke_h	h	n/a
448.054	0.1945	896108	keystroke_l	l	n/a
448.1595	0.1045	896319	keystroke_i	i	n/a
448.744	0.105	897488	keystroke_Key.backspace	Key.backspace	n/a
448.864	0.21	897728	keystroke_e	e	n/a
449.089	0.09	898178	keystroke_t	t	n/a
449.164	0.1195	898328	keystroke_i	i	n/a
449.299	0.1355	898598	keystroke_c	c	n/a
449.659	0.12	899318	keystroke_Key.space	Key.space	n/a
450.0495	0.149	900099	keystroke_e	e	n/a
450.514	0.1205	901028	keystroke_n	n	n/a
450.6185	0.0605	901237	keystroke_d	d	n/a
450.7535	0.075	901507	keystroke_e	e	n/a
450.9345	0.119	901869	keystroke_d	d	n/a
451.0385	0.0755	902077	keystroke_Key.space	Key.space	n/a
451.264	0.0895	902528	keystroke_g	g	n/a
451.474	0.1345	902948	keystroke_r	r	n/a
451.5335	0.136	903067	keystroke_a	a	n/a
451.654	0.165	903308	keystroke_t	t	n/a
451.744	0.12	903488	keystroke_e	e	n/a
452.2235	0.1055	904447	keystroke_Key.backspace	Key.backspace	n/a
452.749	0.09	905498	keystroke_Key.backspace	Key.backspace	n/a
453.3785	0.1205	906757	keystroke_t	t	n/a
453.4535	0.1055	906907	keystroke_e	e	n/a
453.604	0.1805	907208	keystroke_f	f	n/a
453.7085	0.1055	907417	keystroke_u	u	n/a
453.799	0.1355	907598	keystroke_l	l	n/a
453.919	0.1345	907838	keystroke_Key.space	Key.space	n/a
454.0985	0.1205	908197	keystroke_s	s	n/a
454.174	0.1495	908348	keystroke_p	p	n/a
454.2645	0.1345	908529	keystroke_o	o	n/a
454.309	0.105	908618	keystroke_r	r	n/a
454.489	0.1195	908978	keystroke_t	t	n/a
454.564	0.15	909128	keystroke_i	i	n/a
454.6385	0.0905	909277	keystroke_n	n	n/a
454.6985	0.1505	909397	keystroke_g	g	n/a
454.8495	0.089	909699	keystroke_Key.enter	Key.enter	n/a
454.943	4.243	909886	prompt	n/a	temporal toolbar came graphs\n
455.6895	0.134	911379	keystroke_t	t	n/a
455.779	0.165	911558	keystroke_e	e	n/a
455.8385	0.15	911677	keystroke_m	m	n/a
455.9285	0.1505	911857	keystroke_p	p	n/a
456.0045	0.1645	912009	keystroke_o	o	n/a
456.0935	0.1655	912187	keystroke_r	r	n/a
456.214	0.1205	912428	keystroke_a	a	n/a
456.319	0.1045	912638	keystroke_l	l	n/a
456.4085	0.0905	912817	keystroke_Key.space	Key.space	n/a
456.664	0.105	913328	keystroke_t	t	n/a
456.7385	0.0605	913477	keystroke_o	o	n/a
456.8595	0.1045	913719	keystroke_o	o	n/a
457.069	0.09	914138	keystroke_l	l	n/a
457.204	0.1655	914408	keystroke_b	b	n/a
457.3845	0.1045	914769	keystroke_a	a	n/a
457.474	0.1495	914948	keystroke_r	r	n/a
457.609	0.0755	915218	keystroke_Key.space	Key.space	n/a
457.9545	0.12	915909	keystroke_c	c	n/a
458.059	0.105	916118	keystroke_a	a	n/a
458.119	0.1195	916238	keystroke_m	m	n/a
458.2545	0.09	916509	keystroke_e	e	n/a
458.299	0.09	916598	keystroke_Key.space	Key.space	n/a
458.4045	0.104	916809	keystroke_g	g	n/a
458.599	0.165	917198	keystroke_r	r	n/a
458.659	0.1345	917318	keystroke_a	a	n/a
458.7785	0.106	917557	keystroke_p	p	n/a
458.839	0.12	917678	keystroke_h	h	n/a
458.9745	0.134	917949	keystroke_s	s	n/a
459.0935	0.091	918187	keystroke_Key.enter	Key.enter	n/a
459.189	6.9265	918378	prompt	n/a	jose mechanical headline minnesota\n
459.9345	0.1045	919869	keystroke_j	j	n/a
459.994	0.135	919988	keystroke_o	o	n/a
460.024	0.165	920048	keystroke_s	s	n/a
460.1145	0.15	920229	keystroke_e	e	n/a
460.249	0.06	920498	keystroke_Key.space	Key.space	n/a
460.369	0.105	920738	keystroke_m	m	n/a
460.459	0.0755	920918	keystroke_e	e	n/a
460.639	0.105	921278	keystroke_c	c	n/a
460.685	0.089	921370	keystroke_h	h	n/a
460.8345	0.12	921669	keystroke_a	a	n/a
460.909	0.105	921818	keystroke_n	n	n/a
460.9695	0.12	921939	keystroke_i	i	n/a
461.4345	0.059	922869	keystroke_Key.backspace	Key.backspace	n/a
461.449	0.18	922898	keystroke_c	c	n/a
461.9295	0.1055	923859	keystroke_Key.backspace	Key.backspace	n/a
462.1395	0.0895	924279	keystroke_i	i	n/a
462.185	0.1345	924370	keystroke_c	c	n/a
462.274	0.135	924548	keystroke_a	a	n/a
462.364	0.075	924728	keystroke_l	l	n/a
462.7845	0.075	925569	keystroke_Key.space	Key.space	n/a
463.2195	0.1045	926439	keystroke_h	h	n/a
463.309	0.135	926618	keystroke_e	e	n/a
463.399	0.1205	926798	keystroke_a	a	n/a
463.564	0.135	927128	keystroke_d	d	n/a
463.7745	0.165	927549	keystroke_l	l	n/a
463.849	0.15	927698	keystroke_i	i	n/a
463.894	0.12	927788	keystroke_n	n	n/a
463.9545	0.12	927909	keystroke_e	e	n/a
464.089	0.09	928178	keystroke_Key.space	Key.space	n/a
464.3145	0.12	928629	keystroke_m	m	n/a
464.405	0.089	928810	keystroke_i	i	n/a
465.0495	0.0445	930099	keystroke_n	n	n/a
465.185	0.104	930370	keystroke_n	n	n/a
465.2745	0.1795	930549	keystroke_e	e	n/a
465.469	0.135	930938	keystroke_s	s	n/a
465.5745	0.06	931149	keystroke_o	o	n/a
465.799	0.12	931598	keystroke_t	t	n/a
465.8895	0.1045	931779	keystroke_a	a	n/a
466.024	0.09	932048	keystroke_Key.enter	Key.enter	n/a
466.1205	7.21	932241	prompt	n/a	process hydraulic donation digital\n
466.759	0.1195	933518	keystroke_p	p	n/a
466.864	0.105	933728	keystroke_r	r	n/a
466.924	0.135	933848	keystroke_o	o	n/a
467.0445	0.105	934089	keystroke_c	c	n/a
467.194	0.105	934388	keystroke_e	e	n/a
467.314	0.105	934628	keystroke_s	s	n/a
467.5095	0.15	935019	keystroke_s	s	n/a
467.6745	0.0745	935349	keystroke_Key.space	Key.space	n/a
467.944	0.075	935888	keystroke_h	h	n/a
468.259	0.045	936518	keystroke_u	u	n/a
468.6195	0.15	937239	keystroke_Key.backspace	Key.backspace	n/a
468.8145	0.0895	937629	keystroke_y	y	n/a
469.0095	0.1195	938019	keystroke_r	r	n/a
469.444	0.0605	938888	keystroke_Key.backspace	Key.backspace	n/a
469.4895	0.18	938979	keystroke_d	d	n/a
469.6545	0.15	939309	keystroke_r	r	n/a
469.7445	0.1945	939489	keystroke_a	a	n/a
470.194	0.0755	940388	keystroke_u	u	n/a
470.4345	0.1945	940869	keystroke_l	l	n/a
470.479	0.1655	940958	keystroke_i	i	n/a
470.6145	0.1195	941229	keystroke_c	c	n/a
470.7195	0.1195	941439	keystroke_Key.space	Key.space	n/a
470.9445	0.1345	941889	keystroke_g	g	n/a
471.304	0.031	942608	keystroke_Key.backspace	Key.backspace	n/a
471.349	0.165	942698	keystroke_d	d	n/a
471.4545	0.1195	942909	keystroke_o	o	n/a
471.529	0.12	943058	keystroke_n	n	n/a
471.6945	0.149	943389	keystroke_a	a	n/a
471.859	0.12	943718	keystroke_t	t	n/a
471.889	0.15	943778	keystroke_i	i	n/a
471.934	0.135	943868	keystroke_o	o	n/a
472.0095	0.1045	944019	keystroke_n	n	n/a
472.0845	0.105	944169	keystroke_Key.space	Key.space	n/a
472.234	0.135	944468	keystroke_d	d	n/a
472.309	0.1055	944618	keystroke_i	i	n/a
472.4295	0.1495	944859	keystroke_g	g	n/a
472.549	0.12	945098	keystroke_i	i	n/a
472.7145	0.1495	945429	keystroke_t	t	n/a
472.849	0.12	945698	keystroke_a	a	n/a
473.0145	0.1045	946029	keystroke_l	l	n/a
473.2545	0.0745	946509	keystroke_Key.enter	Key.enter	n/a
473.3335	8.997	946667	prompt	n/a	peoples murphy diana sphere\n
473.9595	0.075	947919	keystroke_p	p	n/a
474.0345	0.1345	948069	keystroke_e	e	n/a
474.124	0.105	948248	keystroke_o	o	n/a
474.2145	0.1495	948429	keystroke_p	p	n/a
474.349	0.135	948698	keystroke_l	l	n/a
474.409	0.0905	948818	keystroke_e	e	n/a
474.544	0.1195	949088	keystroke_s	s	n/a
474.634	0.105	949268	keystroke_Key.space	Key.space	n/a
474.859	0.0455	949718	keystroke_m	m	n/a
475.0095	0.075	950019	keystroke_u	u	n/a
475.219	0.135	950438	keystroke_p	p	n/a
475.3095	0.0755	950619	keystroke_h	h	n/a
475.4895	0.09	950979	keystroke_y	y	n/a
475.609	0.09	951218	keystroke_Key.space	Key.space	n/a
475.7145	0.1495	951429	keystroke_d	d	n/a
475.8045	0.0745	951609	keystroke_i	i	n/a
475.9245	0.135	951849	keystroke_a	a	n/a
476.0145	0.1045	952029	keystroke_n	n	n/a
476.285	0.149	952570	keystroke_a	a	n/a
476.659	0.0755	953318	keystroke_Key.backspace	Key.backspace	n/a
476.8095	0.075	953619	keystroke_Key.backspace	Key.backspace	n/a
476.959	0.0755	953918	keystroke_Key.backspace	Key.backspace	n/a
477.1395	0.0295	954279	keystroke_Key.backspace	Key.backspace	n/a
477.2895	0.045	954579	keystroke_Key.backspace	Key.backspace	n/a
477.4095	0.0745	954819	keystroke_Key.backspace	Key.backspace	n/a
477.5595	0.0745	955119	keystroke_Key.backspace	Key.backspace	n/a
477.7095	0.0745	955419	keystroke_Key.backspace	Key.backspace	n/a
477.889	0.045	955778	keystroke_Key.backspace	Key.backspace	n/a
478.0245	0.06	956049	keystroke_Key.backspace	Key.backspace	n/a
478.774	0.045	957548	keystroke_u	u	n/a
478.834	0.1505	957668	keystroke_r	r	n/a
478.9995	0.1495	957999	keystroke_p	p	n/a
479.104	0.0905	958208	keystroke_h	h	n/a
479.2995	0.1045	958599	keystroke_y	y	n/a
479.9745	0.12	959949	keystroke_Key.space	Key.space	n/a
480.2895	0.15	960579	keystroke_d	d	n/a
480.424	0.0905	960848	keystroke_i	i	n/a
480.9945	0.15	961989	keystroke_a	a	n/a
481.159	0.09	962318	keystroke_n	n	n/a
481.234	0.151	962468	keystroke_a	a	n/a
481.3855	0.104	962771	keystroke_Key.space	Key.space	n/a
481.5795	0.12	963159	keystroke_s	s	n/a
481.6545	0.135	963309	keystroke_p	p	n/a
481.7445	0.1045	963489	keystroke_h	h	n/a
481.804	0.1655	963608	keystroke_e	e	n/a
481.9545	0.1645	963909	keystroke_r	r	n/a
482.074	0.1055	964148	keystroke_e	e	n/a
482.2245	0.1045	964449	keystroke_Key.enter	Key.enter	n/a
482.3335	5.9075	964667	prompt	n/a	pink casting became nasdaq\n
482.914	0.09	965828	keystroke_p	p	n/a
483.2145	0.1345	966429	keystroke_i	i	n/a
483.364	0.1355	966728	keystroke_n	n	n/a
483.4695	0.1495	966939	keystroke_k	k	n/a
483.59	0.119	967180	keystroke_Key.space	Key.space	n/a
483.8145	0.135	967629	keystroke_c	c	n/a
483.934	0.1055	967868	keystroke_a	a	n/a
483.964	0.2105	967928	keystroke_s	s	n/a
484.1445	0.0905	968289	keystroke_t	t	n/a
484.1595	0.12	968319	keystroke_i	i	n/a
484.7745	0.135	969549	keystroke_n	n	n/a
484.8795	0.135	969759	keystroke_g	g	n/a
484.999	0.09	969998	keystroke_Key.space	Key.space	n/a
485.1345	0.09	970269	keystroke_b	b	n/a
485.2995	0.075	970599	keystroke_e	e	n/a
485.554	0.1055	971108	keystroke_c	c	n/a
485.6445	0.1045	971289	keystroke_a	a	n/a
485.734	0.1205	971468	keystroke_m	m	n/a
485.8395	0.12	971679	keystroke_e	e	n/a
485.9445	0.105	971889	keystroke_Key.space	Key.space	n/a
486.0645	0.135	972129	keystroke_n	n	n/a
486.304	0.1055	972608	keystroke_a	a	n/a
486.424	0.1355	972848	keystroke_d	d	n/a
486.664	0.1205	973328	keystroke_s	s	n/a
487.144	0.1055	974288	keystroke_Key.backspace	Key.backspace	n/a
487.3695	0.075	974739	keystroke_Key.backspace	Key.backspace	n/a
487.4595	0.12	974919	keystroke_s	s	n/a
487.6095	0.1345	975219	keystroke_d	d	n/a
487.7295	0.1045	975459	keystroke_a	a	n/a
488.0295	0.09	976059	keystroke_q	q	n/a
488.1345	0.105	976269	keystroke_Key.enter	Key.enter	n/a
488.2445	4.993	976489	prompt	n/a	fees gaps was cheaper\n
488.96	0.0895	977920	keystroke_f	f	n/a
489.0195	0.105	978039	keystroke_e	e	n/a
489.1995	0.1045	978399	keystroke_e	e	n/a
489.3645	0.0905	978729	keystroke_s	s	n/a
489.455	0.1045	978910	keystroke_Key.space	Key.space	n/a
489.6945	0.15	979389	keystroke_g	g	n/a
489.7995	0.0745	979599	keystroke_a	a	n/a
489.8595	0.135	979719	keystroke_p	p	n/a
489.9795	0.12	979959	keystroke_s	s	n/a
490.0845	0.0895	980169	keystroke_Key.space	Key.space	n/a
490.204	0.15	980408	keystroke_w	w	n/a
490.2945	0.0745	980589	keystroke_e	e	n/a
490.7295	0.0895	981459	keystroke_a	a	n/a
490.984	0.105	981968	keystroke_Key.backspace	Key.backspace	n/a
491.134	0.1205	982268	keystroke_Key.backspace	Key.backspace	n/a
491.2095	0.135	982419	keystroke_a	a	n/a
491.3145	0.135	982629	keystroke_s	s	n/a
491.4345	0.0745	982869	keystroke_Key.space	Key.space	n/a
491.674	0.0905	983348	keystroke_c	c	n/a
