onset	duration	sample	value	key	prompt_text
2.201	24.1055	4402	prompt	n/a	the quick brown fox jumps over a lazy dog\n
4.1375	0.042	8275	keystroke_t	t	n/a
4.1945	0.105	8389	keystroke_h	h	n/a
4.2695	0.09	8539	keystroke_e	e	n/a
4.4645	0.134	8929	keystroke_Key.space	Key.space	n/a
4.7945	0.075	9589	keystroke_q	q	n/a
4.9295	0.105	9859	keystroke_u	u	n/a
5.1245	0.075	10249	keystroke_i	i	n/a
5.2595	0.075	10519	keystroke_c	c	n/a
5.3945	0.075	10789	keystroke_i	i	n/a
5.5135	0.121	11027	keystroke_Key.space	Key.space	n/a
6.5335	0.075	13067	keystroke_Key.backspace	Key.backspace	n/a
6.7285	0.089	13457	keystroke_Key.backspace	Key.backspace	n/a
7.7935	0.09	15587	keystroke_k	k	n/a
8.0185	0.09	16037	keystroke_b	b	n/a
8.1385	0.105	16277	keystroke_r	r	n/a
8.3185	0.089	16637	keystroke_o	o	n/a
8.4235	0.09	16847	keystroke_w	w	n/a
8.5585	0.074	17117	keystroke_n	n	n/a
8.7675	0.15	17535	keystroke_Key.space	Key.space	n/a
9.4125	0.09	18825	keystroke_f	f	n/a
9.5635	0.074	19127	keystroke_o	o	n/a
9.6675	0.09	19335	keystroke_x	x	n/a
9.7875	0.135	19575	keystroke_Key.space	Key.space	n/a
11.2725	0.015	22545	keystroke_Key.backspace	Key.backspace	n/a
11.4075	0.075	22815	keystroke_Key.backspace	Key.backspace	n/a
11.6025	0.075	23205	keystroke_Key.backspace	Key.backspace	n/a
11.7825	0.075	23565	keystroke_Key.backspace	Key.backspace	n/a
11.9625	0.09	23925	keystroke_Key.backspace	Key.backspace	n/a
12.1275	0.09	24255	keystroke_Key.backspace	Key.backspace	n/a
12.2925	0.1205	24585	keystroke_Key.backspace	Key.backspace	n/a
12.473	0.1055	24946	keystroke_Key.backspace	Key.backspace	n/a
12.6685	0.075	25337	keystroke_Key.backspace	Key.backspace	n/a
12.8335	0.075	25667	keystroke_Key.backspace	Key.backspace	n/a
13.7485	0.09	27497	keystroke_b	b	n/a
13.8835	0.09	27767	keystroke_r	r	n/a
14.0335	0.075	28067	keystroke_o	o	n/a
14.1535	0.075	28307	keystroke_w	w	n/a
14.2735	0.075	28547	keystroke_n	n	n/a
14.888	0.075	29776	keystroke_Key.backspace	Key.backspace	n/a
15.068	0.09	30136	keystroke_Key.backspace	Key.backspace	n/a
15.248	0.09	30496	keystroke_Key.backspace	Key.backspace	n/a
15.443	0.075	30886	keystroke_Key.backspace	Key.backspace	n/a
15.593	0.105	31186	keystroke_Key.backspace	Key.backspace	n/a
16.328	0.135	32656	keystroke_Key.space	Key.space	n/a
17.288	0.075	34576	keystroke_b	b	n/a
17.423	0.09	34846	keystroke_r	r	n/a
17.603	0.06	35206	keystroke_o	o	n/a
17.708	0.075	35416	keystroke_w	w	n/a
17.843	0.075	35686	keystroke_n	n	n/a
18.428	0.105	36856	keystroke_Key.space	Key.space	n/a
18.668	0.09	37336	keystroke_f	f	n/a
18.788	0.075	37576	keystroke_o	o	n/a
18.938	0.075	37876	keystroke_x	x	n/a
19.148	0.12	38296	keystroke_Key.space	Key.space	n/a
19.7635	0.045	39527	keystroke_j	j	n/a
19.9285	0.075	39857	keystroke_u	u	n/a
20.618	0.135	41236	keystroke_m	m	n/a
20.873	0.12	41746	keystroke_p	p	n/a
21.143	0.09	42286	keystroke_s	s	n/a
21.383	0.105	42766	keystroke_Key.space	Key.space	n/a
21.893	0.075	43786	keystroke_o	o	n/a
22.013	0.075	44026	keystroke_v	v	n/a
22.193	0.12	44386	keystroke_e	e	n/a
22.298	0.075	44596	keystroke_r	r	n/a
22.748	0.12	45496	keystroke_Key.space	Key.space	n/a
22.988	0.105	45976	keystroke_a	a	n/a
23.363	0.12	46726	keystroke_Key.space	Key.space	n/a
23.723	0.075	47446	keystroke_l	l	n/a
23.858	0.105	47716	keystroke_a	a	n/a
24.068	0.09	48136	keystroke_z	z	n/a
24.233	0.09	48466	keystroke_y	y	n/a
24.473	0.09	48946	keystroke_Key.space	Key.space	n/a
25.1035	0.1345	50207	keystroke_d	d	n/a
25.2985	0.0745	50597	keystroke_o	o	n/a
25.433	0.06	50866	keystroke_g	g	n/a
26.213	0.09	52426	keystroke_Key.enter	Key.enter	n/a
26.3125	8.753	52625	prompt	n/a	parallel by competent complete\n
27.1135	0.09	54227	keystroke_p	p	n/a
27.2185	0.15	54437	keystroke_a	a	n/a
27.4135	0.075	54827	keystroke_r	r	n/a
27.5635	0.135	55127	keystroke_a	a	n/a
28.943	0.075	57886	keystroke_l	l	n/a
29.108	0.075	58216	keystroke_l	l	n/a
29.228	0.075	58456	keystroke_e	e	n/a
29.378	0.09	58756	keystroke_l	l	n/a
29.873	0.09	59746	keystroke_Key.space	Key.space	n/a
30.173	0.06	60346	keystroke_b	b	n/a
30.383	0.06	60766	keystroke_y	y	n/a
30.533	0.105	61066	keystroke_Key.space	Key.space	n/a
30.788	0.075	61576	keystroke_c	c	n/a
30.893	0.105	61786	keystroke_o	o	n/a
31.133	0.105	62266	keystroke_m	m	n/a
31.373	0.105	62746	keystroke_p	p	n/a
31.538	0.075	63076	keystroke_e	e	n/a
31.778	0.075	63556	keystroke_t	t	n/a
31.958	0.09	63916	keystroke_e	e	n/a
32.168	0.0595	64336	keystroke_n	n	n/a
32.2585	0.09	64517	keystroke_t	t	n/a
32.6775	0.106	65355	keystroke_Key.space	Key.space	n/a
33.0085	0.09	66017	keystroke_c	c	n/a
33.1735	0.105	66347	keystroke_o	o	n/a
33.4285	0.12	66857	keystroke_m	m	n/a
33.6825	0.061	67365	keystroke_p	p	n/a
33.8635	0.105	67727	keystroke_l	l	n/a
34.0135	0.09	68027	keystroke_e	e	n/a
34.2085	0.105	68417	keystroke_t	t	n/a
34.3435	0.09	68687	keystroke_e	e	n/a
34.9885	0.074	69977	keystroke_Key.enter	Key.enter	n/a
35.0695	7.4065	70139	prompt	n/a	chance durham rare altered\n
35.7525	0.091	71505	keystroke_c	c	n/a
35.8585	0.075	71717	keystroke_h	h	n/a
36.0385	0.12	72077	keystroke_a	a	n/a
36.1135	0.09	72227	keystroke_n	n	n/a
36.2335	0.12	72467	keystroke_c	c	n/a
36.3385	0.089	72677	keystroke_e	e	n/a
36.7575	0.091	73515	keystroke_Key.space	Key.space	n/a
37.0735	0.09	74147	keystroke_d	d	n/a
37.2235	0.075	74447	keystroke_u	u	n/a
37.3135	0.09	74627	keystroke_r	r	n/a
37.5835	0.06	75167	keystroke_h	h	n/a
37.6735	0.12	75347	keystroke_a	a	n/a
37.8385	0.075	75677	keystroke_m	m	n/a
38.2135	0.135	76427	keystroke_Key.space	Key.space	n/a
38.6485	0.075	77297	keystroke_r	r	n/a
38.8285	0.12	77657	keystroke_a	a	n/a
38.9785	0.105	77957	keystroke_r	r	n/a
39.0845	0.119	78169	keystroke_e	e	n/a
40.1485	0.12	80297	keystroke_Key.space	Key.space	n/a
40.4935	0.12	80987	keystroke_a	a	n/a
40.9885	0.09	81977	keystroke_l	l	n/a
41.1235	0.075	82247	keystroke_t	t	n/a
41.3035	0.105	82607	keystroke_e	e	n/a
41.3935	0.105	82787	keystroke_r	r	n/a
41.5585	0.09	83117	keystroke_e	e	n/a
41.7685	0.075	83537	keystroke_d	d	n/a
42.3835	0.09	84767	keystroke_Key.enter	Key.enter	n/a
42.4875	17.253	84975	prompt	n/a	governing harbor paying mysimon\n
43.1335	0.09	86267	keystroke_g	g	n/a
43.2685	0.06	86537	keystroke_o	o	n/a
43.4035	0.075	86807	keystroke_v	v	n/a
43.5685	0.089	87137	keystroke_e	e	n/a
43.6435	0.089	87287	keystroke_r	r	n/a
43.8535	0.059	87707	keystroke_n	n	n/a
44.2425	0.09	88485	keystroke_m	m	n/a
44.4525	0.09	88905	keystroke_e	e	n/a
45.3375	0.105	90675	keystroke_Key.backspace	Key.backspace	n/a
45.8625	0.0755	91725	keystroke_Key.backspace	Key.backspace	n/a
46.4475	0.06	92895	keystroke_i	i	n/a
46.6125	0.06	93225	keystroke_n	n	n/a
46.7475	0.0915	93495	keystroke_g	g	n/a
47.2275	0.105	94455	keystroke_Key.space	Key.space	n/a
48.263	0.0755	96526	keystroke_b	b	n/a
48.5335	0.165	97067	keystroke_a	a	n/a
48.6675	0.061	97335	keystroke_r	r	n/a
49.2235	0.09	98447	keystroke_Key.backspace	Key.backspace	n/a
49.3885	0.09	98777	keystroke_Key.backspace	Key.backspace	n/a
50.2735	0.09	100547	keystroke_Key.backspace	Key.backspace	n/a
51.2335	0.06	102467	keystroke_h	h	n/a
51.3835	0.135	102767	keystroke_a	a	n/a
51.4735	0.09	102947	keystroke_r	r	n/a
51.6085	0.075	103217	keystroke_u	u	n/a
51.9835	0.045	103967	keystroke_b	b	n/a
52.673	0.105	105346	keystroke_Key.backspace	Key.backspace	n/a
53.123	0.06	106246	keystroke_Key.backspace	Key.backspace	n/a
53.888	0.06	107776	keystroke_b	b	n/a
54.0685	0.0595	108137	keystroke_o	o	n/a
54.143	0.09	108286	keystroke_r	r	n/a
54.698	0.105	109396	keystroke_Key.space	Key.space	n/a
55.058	0.09	110116	keystroke_p	p	n/a
55.193	0.105	110386	keystroke_a	a	n/a
55.328	0.06	110656	keystroke_y	y	n/a
56.003	0.075	112006	keystroke_i	i	n/a
56.153	0.075	112306	keystroke_n	n	n/a
56.243	0.09	112486	keystroke_g	g	n/a
56.393	0.12	112786	keystroke_Key.space	Key.space	n/a
57.3985	0.09	114797	keystroke_m	m	n/a
57.6385	0.06	115277	keystroke_y	y	n/a
57.8785	0.105	115757	keystroke_s	s	n/a
57.9985	0.03	115997	keystroke_i	i	n/a
58.5985	0.0895	117197	keystroke_m	m	n/a
58.853	0.106	117706	keystroke_o	o	n/a
59.018	0.091	118036	keystroke_n	n	n/a
59.663	0.075	119326	keystroke_Key.enter	Key.enter	n/a
59.746	7.854	119492	prompt	n/a	vacations char stored acne\n
60.578	0.09	121156	keystroke_v	v	n/a
60.758	0.12	121516	keystroke_a	a	n/a
61.0275	0.165	122055	keystroke_c	c	n/a
61.1775	0.136	122355	keystroke_a	a	n/a
62.123	0.075	124246	keystroke_t	t	n/a
62.378	0.075	124756	keystroke_i	i	n/a
62.573	0.09	125146	keystroke_o	o	n/a
62.693	0.075	125386	keystroke_n	n	n/a
62.828	0.075	125656	keystroke_s	s	n/a
63.143	0.135	126286	keystroke_Key.space	Key.space	n/a
63.593	0.0895	127186	keystroke_c	c	n/a
63.7435	0.059	127487	keystroke_h	h	n/a
64.2525	0.195	128505	keystroke_a	a	n/a
64.4335	0.059	128867	keystroke_r	r	n/a
64.6425	0.135	129285	keystroke_Key.space	Key.space	n/a
64.9425	0.076	129885	keystroke_s	s	n/a
65.0925	0.075	130185	keystroke_t	t	n/a
65.2275	0.075	130455	keystroke_o	o	n/a
65.4075	0.091	130815	keystroke_r	r	n/a
65.5575	0.09	131115	keystroke_e	e	n/a
65.7525	0.076	131505	keystroke_d	d	n/a
66.0525	0.12	132105	keystroke_Key.space	Key.space	n/a
66.4425	0.12	132885	keystroke_a	a	n/a
66.5935	0.09	133187	keystroke_c	c	n/a
66.8185	0.059	133637	keystroke_n	n	n/a
66.8925	0.075	133785	keystroke_e	e	n/a
67.508	0.09	135016	keystroke_Key.enter	Key.enter	n/a
67.605	10.1655	135210	prompt	n/a	washing actually barbie expenditures\n
68.393	0.075	136786	keystroke_w	w	n/a
68.588	0.1045	137176	keystroke_a	a	n/a
68.7525	0.09	137505	keystroke_s	s	n/a
68.933	0.075	137866	keystroke_h	h	n/a
69.2025	0.075	138405	keystroke_i	i	n/a
69.3225	0.075	138645	keystroke_n	n	n/a
69.4425	0.075	138885	keystroke_g	g	n/a
70.0275	0.12	140055	keystroke_Key.space	Key.space	n/a
70.433	0.12	140866	keystroke_a	a	n/a
70.568	0.09	141136	keystroke_c	c	n/a
70.823	0.075	141646	keystroke_t	t	n/a
71.0025	0.061	142005	keystroke_u	u	n/a
71.1075	0.12	142215	keystroke_a	a	n/a
71.3925	0.121	142785	keystroke_l	l	n/a
71.7385	0.074	143477	keystroke_l	l	n/a
71.9935	0.074	143987	keystroke_y	y	n/a
72.4125	0.06	144825	keystroke_Key.space	Key.space	n/a
72.8485	0.045	145697	keystroke_b	b	n/a
73.0135	0.119	146027	keystroke_a	a	n/a
73.0875	0.09	146175	keystroke_r	r	n/a
73.3275	0.06	146655	keystroke_b	b	n/a
73.5985	0.06	147197	keystroke_i	i	n/a
73.6885	0.075	147377	keystroke_e	e	n/a
74.1375	0.12	148275	keystroke_Key.space	Key.space	n/a
74.4225	0.076	148845	keystroke_e	e	n/a
74.7385	0.074	149477	keystroke_x	x	n/a
75.683	0.075	151366	keystroke_p	p	n/a
75.803	0.075	151606	keystroke_e	e	n/a
75.923	0.06	151846	keystroke_n	n	n/a
76.043	0.105	152086	keystroke_d	d	n/a
76.343	0.06	152686	keystroke_i	i	n/a
76.478	0.075	152956	keystroke_t	t	n/a
76.628	0.06	153256	keystroke_u	u	n/a
76.733	0.135	153466	keystroke_r	r	n/a
76.838	0.09	153676	keystroke_e	e	n/a
77.033	0.09	154066	keystroke_s	s	n/a
77.663	0.105	155326	keystroke_Key.enter	Key.enter	n/a
77.7745	7.212	155549	prompt	n/a	mall bloom awful written\n
78.608	0.06	157216	keystroke_m	m	n/a
78.7735	0.134	157547	keystroke_a	a	n/a
78.9985	0.075	157997	keystroke_l	l	n/a
79.1775	0.061	158355	keystroke_l	l	n/a
79.4175	0.105	158835	keystroke_Key.space	Key.space	n/a
80.1525	0.0605	160305	keystroke_b	b	n/a
80.393	0.075	160786	keystroke_l	l	n/a
80.603	0.09	161206	keystroke_o	o	n/a
80.933	0.09	161866	keystroke_o	o	n/a
81.233	0.075	162466	keystroke_m	m	n/a
81.653	0.09	163306	keystroke_Key.space	Key.space	n/a
82.073	0.09	164146	keystroke_a	a	n/a
82.313	0.075	164626	keystroke_w	w	n/a
82.523	0.09	165046	keystroke_f	f	n/a
82.643	0.06	165286	keystroke_u	u	n/a
82.838	0.06	165676	keystroke_l	l	n/a
83.063	0.09	166126	keystroke_Key.space	Key.space	n/a
83.288	0.135	166576	keystroke_w	w	n/a
83.425	0.088	166850	keystroke_r	r	n/a
83.633	0.06	167266	keystroke_i	i	n/a
83.738	0.045	167476	keystroke_t	t	n/a
83.873	0.09	167746	keystroke_t	t	n/a
84.0835	0.075	168167	keystroke_e	e	n/a
84.2335	0.06	168467	keystroke_n	n	n/a
84.8635	0.12	169727	keystroke_Key.enter	Key.enter	n/a
84.9945	7.521	169989	prompt	n/a	longest quickly safari flights\n
85.7185	0.075	171437	keystroke_l	l	n/a
85.9135	0.075	171827	keystroke_o	o	n/a
86.3035	0.06	172607	keystroke_n	n	n/a
86.3935	0.09	172787	keystroke_g	g	n/a
86.5885	0.12	173177	keystroke_e	e	n/a
86.8435	0.1345	173687	keystroke_s	s	n/a
86.948	0.09	173896	keystroke_t	t	n/a
87.383	0.075	174766	keystroke_Key.space	Key.space	n/a
87.848	0.09	175696	keystroke_q	q	n/a
87.968	0.06	175936	keystroke_u	u	n/a
88.208	0.06	176416	keystroke_i	i	n/a
88.328	0.09	176656	keystroke_c	c	n/a
88.478	0.06	176956	keystroke_k	k	n/a
88.703	0.105	177406	keystroke_l	l	n/a
88.853	0.075	177706	keystroke_y	y	n/a
89.198	0.09	178396	keystroke_Key.space	Key.space	n/a
89.633	0.105	179266	keystroke_s	s	n/a
89.783	0.135	179566	keystroke_a	a	n/a
90.008	0.12	180016	keystroke_f	f	n/a
90.248	0.135	180496	keystroke_a	a	n/a
90.398	0.075	180796	keystroke_r	r	n/a
90.488	0.09	180976	keystroke_i	i	n/a
90.728	0.135	181456	keystroke_Key.space	Key.space	n/a
90.953	0.075	181906	keystroke_f	f	n/a
91.088	0.075	182176	keystroke_l	l	n/a
91.313	0.075	182626	keystroke_i	i	n/a
91.448	0.075	182896	keystroke_g	g	n/a
91.538	0.075	183076	keystroke_h	h	n/a
91.658	0.045	183316	keystroke_t	t	n/a
91.808	0.105	183616	keystroke_s	s	n/a
92.408	0.105	184816	keystroke_Key.enter	Key.enter	n/a
92.5215	13.404	185043	prompt	n/a	coupons honor islam similar\n
93.248	0.06	186496	keystroke_c	c	n/a
93.503	0.09	187006	keystroke_o	o	n/a
94.073	0.06	188146	keystroke_u	u	n/a
94.328	0.12	188656	keystroke_p	p	n/a
94.553	0.09	189106	keystroke_o	o	n/a
94.688	0.06	189376	keystroke_n	n	n/a
94.808	0.09	189616	keystroke_s	s	n/a
95.078	0.105	190156	keystroke_Key.space	Key.space	n/a
95.4385	0.059	190877	keystroke_h	h	n/a
95.6185	0.09	191237	keystroke_o	o	n/a
95.8575	0.061	191715	keystroke_n	n	n/a
95.9785	0.075	191957	keystroke_r	r	n/a
96.1135	0.075	192227	keystroke_o	o	n/a
96.4275	0.09	192855	keystroke_Key.space	Key.space	n/a
97.5525	0.075	195105	keystroke_Key.backspace	Key.backspace	n/a
97.8075	0.0895	195615	keystroke_Key.backspace	Key.backspace	n/a
98.813	0.059	197626	keystroke_Key.backspace	Key.backspace	n/a
99.623	0.06	199246	keystroke_o	o	n/a
99.728	0.06	199456	keystroke_r	r	n/a
100.013	0.09	200026	keystroke_Key.space	Key.space	n/a
100.268	0.06	200536	keystroke_i	i	n/a
100.3875	0.09	200775	keystroke_s	s	n/a
100.6425	0.075	201285	keystroke_l	l	n/a
100.823	0.135	201646	keystroke_a	a	n/a
100.943	0.09	201886	keystroke_m	m	n/a
101.408	0.09	202816	keystroke_Key.space	Key.space	n/a
101.768	0.06	203536	keystroke_s	s	n/a
101.843	0.06	203686	keystroke_i	i	n/a
102.128	0.075	204256	keystroke_m	m	n/a
102.398	0.06	204796	keystroke_i	i	n/a
102.623	0.06	205246	keystroke_l	l	n/a
102.698	0.15	205396	keystroke_a	a	n/a
102.803	0.09	205606	keystroke_r	r	n/a
104.138	0.075	208276	keystroke_Key.backspace	Key.backspace	n/a
105.5035	0.074	211007	keystroke_r	r	n/a
105.8325	0.091	211665	keystroke_Key.enter	Key.enter	n/a
105.932	6.1285	211864	prompt	n/a	illegal tuning clean said\n
106.8385	0.044	213677	keystroke_i	i	n/a
107.0635	0.059	214127	keystroke_l	l	n/a
107.228	0.06	214456	keystroke_l	l	n/a
107.333	0.09	214666	keystroke_e	e	n/a
107.543	0.075	215086	keystroke_g	g	n/a
107.693	0.105	215386	keystroke_a	a	n/a
107.843	0.075	215686	keystroke_l	l	n/a
108.278	0.12	216556	keystroke_Key.space	Key.space	n/a
108.653	0.075	217306	keystroke_t	t	n/a
108.773	0.06	217546	keystroke_u	u	n/a
109.013	0.06	218026	keystroke_n	n	n/a
109.343	0.075	218686	keystroke_i	i	n/a
109.478	0.075	218956	keystroke_n	n	n/a
109.583	0.06	219166	keystroke_g	g	n/a
109.9275	0.1505	219855	keystroke_Key.space	Key.space	n/a
110.168	0.09	220336	keystroke_c	c	n/a
110.288	0.0745	220576	keystroke_l	l	n/a
110.4075	0.09	220815	keystroke_e	e	n/a
110.5575	0.105	221115	keystroke_a	a	n/a
110.6775	0.09	221355	keystroke_n	n	n/a
110.8425	0.135	221685	keystroke_Key.space	Key.space	n/a
111.0525	0.15	222105	keystroke_s	s	n/a
111.1575	0.12	222315	keystroke_a	a	n/a
111.2925	0.06	222585	keystroke_i	i	n/a
111.3825	0.075	222765	keystroke_d	d	n/a
111.9375	0.12	223875	keystroke_Key.enter	Key.enter	n/a
112.064	8.2165	224128	prompt	n/a	bible dish georgia layout\n
112.8075	0.075	225615	keystroke_b	b	n/a
112.9575	0.06	225915	keystroke_i	i	n/a
113.1975	0.045	226395	keystroke_b	b	n/a
113.4525	0.06	226905	keystroke_l	l	n/a
113.5275	0.06	227055	keystroke_e	e	n/a
113.7525	0.15	227505	keystroke_Key.space	Key.space	n/a
113.9325	0.09	227865	keystroke_d	d	n/a
114.0075	0.075	228015	keystroke_i	i	n/a
114.1725	0.09	228345	keystroke_s	s	n/a
114.2775	0.06	228555	keystroke_h	h	n/a
114.5475	0.09	229095	keystroke_Key.space	Key.space	n/a
114.8475	0.105	229695	keystroke_g	g	n/a
114.9825	0.106	229965	keystroke_e	e	n/a
115.1475	0.075	230295	keystroke_o	o	n/a
115.2375	0.075	230475	keystroke_r	r	n/a
115.4775	0.09	230955	keystroke_g	g	n/a
115.6275	0.06	231255	keystroke_i	i	n/a
115.7325	0.105	231465	keystroke_a	a	n/a
116.1525	0.135	232305	keystroke_Key.space	Key.space	n/a
117.3375	0.075	234675	keystroke_l	l	n/a
117.5175	0.12	235035	keystroke_a	a	n/a
118.6125	0.09	237225	keystroke_y	y	n/a
119.0325	0.09	238065	keystroke_o	o	n/a
119.1675	0.09	238335	keystroke_u	u	n/a
119.3025	0.075	238605	keystroke_t	t	n/a
120.1875	0.09	240375	keystroke_Key.enter	Key.enter	n/a
120.2855	12.5345	240571	prompt	n/a	mandatory humans deutsche additionally\n
121.2075	0.075	242415	keystroke_m	m	n/a
121.3275	0.135	242655	keystroke_a	a	n/a
121.5075	0.045	243015	keystroke_n	n	n/a
121.6125	0.105	243225	keystroke_a	a	n/a
123.4125	0.0755	246825	keystroke_Key.backspace	Key.backspace	n/a
124.148	0.09	248296	keystroke_d	d	n/a
124.283	0.15	248566	keystroke_a	a	n/a
124.523	0.06	249046	keystroke_t	t	n/a
124.643	0.075	249286	keystroke_o	o	n/a
124.763	0.09	249526	keystroke_r	r	n/a
124.868	0.075	249736	keystroke_y	y	n/a
125.363	0.09	250726	keystroke_Key.space	Key.space	n/a
125.813	0.045	251626	keystroke_h	h	n/a
125.978	0.06	251956	keystroke_u	u	n/a
126.233	0.075	252466	keystroke_m	m	n/a
126.458	0.105	252916	keystroke_a	a	n/a
126.533	0.075	253066	keystroke_n	n	n/a
126.773	0.075	253546	keystroke_s	s	n/a
127.013	0.105	254026	keystroke_Key.space	Key.space	n/a
127.298	0.075	254596	keystroke_d	d	n/a
127.703	0.09	255406	keystroke_e	e	n/a
127.838	0.06	255676	keystroke_u	u	n/a
128.138	0.075	256276	keystroke_t	t	n/a
128.963	0.0895	257926	keystroke_s	s	n/a
129.1125	0.075	258225	keystroke_c	c	n/a
129.2025	0.06	258405	keystroke_h	h	n/a
129.3075	0.075	258615	keystroke_e	e	n/a
129.5925	0.09	259185	keystroke_Key.space	Key.space	n/a
129.7725	0.105	259545	keystroke_a	a	n/a
129.9375	0.06	259875	keystroke_d	d	n/a
130.0725	0.105	260145	keystroke_d	d	n/a
130.4775	0.06	260955	keystroke_i	i	n/a
130.7025	0.075	261405	keystroke_t	t	n/a
130.8225	0.12	261645	keystroke_i	i	n/a
130.9575	0.12	261915	keystroke_o	o	n/a
131.0625	0.105	262125	keystroke_n	n	n/a
131.1985	0.104	262397	keystroke_a	a	n/a
131.3185	0.029	262637	keystroke_l	l	n/a
131.4075	0.135	262815	keystroke_l	l	n/a
131.6175	0.075	263235	keystroke_y	y	n/a
132.728	0.09	265456	keystroke_Key.enter	Key.enter	n/a
132.8245	10.375	265649	prompt	n/a	graduated promoted nonprofit roughly\n
133.463	0.075	266926	keystroke_g	g	n/a
133.853	0.075	267706	keystroke_r	r	n/a
134.003	0.135	268006	keystroke_a	a	n/a
134.153	0.09	268306	keystroke_d	d	n/a
134.273	0.075	268546	keystroke_u	u	n/a
134.408	0.165	268816	keystroke_a	a	n/a
134.543	0.12	269086	keystroke_t	t	n/a
134.648	0.09	269296	keystroke_e	e	n/a
134.843	0.09	269686	keystroke_d	d	n/a
135.3075	0.075	270615	keystroke_Key.space	Key.space	n/a
135.6225	0.105	271245	keystroke_p	p	n/a
135.7875	0.075	271575	keystroke_r	r	n/a
135.8925	0.105	271785	keystroke_o	o	n/a
136.1775	0.09	272355	keystroke_m	m	n/a
136.3575	0.0605	272715	keystroke_o	o	n/a
136.508	0.045	273016	keystroke_t	t	n/a
136.628	0.075	273256	keystroke_e	e	n/a
136.823	0.075	273646	keystroke_d	d	n/a
137.033	0.075	274066	keystroke_Key.space	Key.space	n/a
137.303	0.06	274606	keystroke_n	n	n/a
137.498	0.09	274996	keystroke_o	o	n/a
137.633	0.09	275266	keystroke_n	n	n/a
137.873	0.105	275746	keystroke_p	p	n/a
138.038	0.06	276076	keystroke_r	r	n/a
138.143	0.075	276286	keystroke_o	o	n/a
138.413	0.075	276826	keystroke_i	i	n/a
139.283	0.075	278566	keystroke_Key.backspace	Key.backspace	n/a
140.3025	0.09	280605	keystroke_f	f	n/a
140.4825	0.06	280965	keystroke_i	i	n/a
140.5575	0.075	281115	keystroke_t	t	n/a
141.0675	0.105	282135	keystroke_Key.space	Key.space	n/a
141.3825	0.075	282765	keystroke_r	r	n/a
141.6375	0.135	283275	keystroke_o	o	n/a
141.8175	0.075	283635	keystroke_u	u	n/a
141.9825	0.075	283965	keystroke_g	g	n/a
142.0885	0.074	284177	keystroke_h	h	n/a
142.3125	0.105	284625	keystroke_l	l	n/a
142.4325	0.09	284865	keystroke_y	y	n/a
143.0925	0.105	286185	keystroke_Key.enter	Key.enter	n/a
143.2045	9.97	286409	prompt	n/a	colonial had destination suppose\n
143.8585	0.089	287717	keystroke_c	c	n/a
143.9925	0.075	287985	keystroke_o	o	n/a
144.2025	0.105	288405	keystroke_l	l	n/a
144.4875	0.075	288975	keystroke_o	o	n/a
144.7125	0.075	289425	keystroke_n	n	n/a
145.1925	0.06	290385	keystroke_i	i	n/a
145.3575	0.135	290715	keystroke_a	a	n/a
145.4775	0.06	290955	keystroke_l	l	n/a
145.9725	0.105	291945	keystroke_Key.space	Key.space	n/a
146.3625	0.045	292725	keystroke_h	h	n/a
146.5125	0.105	293025	keystroke_a	a	n/a
146.5875	0.09	293175	keystroke_d	d	n/a
146.7825	0.12	293565	keystroke_Key.space	Key.space	n/a
147.0225	0.06	294045	keystroke_d	d	n/a
147.1725	0.105	294345	keystroke_e	e	n/a
147.3825	0.09	294765	keystroke_t	t	n/a
148.7625	0.075	297525	keystroke_Key.backspace	Key.backspace	n/a
148.9885	0.089	297977	keystroke_s	s	n/a
149.1975	0.075	298395	keystroke_t	t	n/a
149.2885	0.089	298577	keystroke_i	i	n/a
149.5285	0.059	299057	keystroke_n	n	n/a
149.6935	0.164	299387	keystroke_a	a	n/a
149.8425	0.076	299685	keystroke_t	t	n/a
149.9335	0.12	299867	keystroke_i	i	n/a
150.0675	0.076	300135	keystroke_o	o	n/a
150.1125	0.12	300225	keystroke_n	n	n/a
150.5475	0.12	301095	keystroke_Key.space	Key.space	n/a
151.0125	0.106	302025	keystroke_s	s	n/a
151.2225	0.076	302445	keystroke_u	u	n/a
151.4775	0.09	302955	keystroke_p	p	n/a
151.6275	0.12	303255	keystroke_p	p	n/a
152.1225	0.061	304245	keystroke_o	o	n/a
152.3335	0.089	304667	keystroke_s	s	n/a
152.4085	0.105	304817	keystroke_e	e	n/a
153.083	0.09	306166	keystroke_Key.enter	Key.enter	n/a
153.1795	7.9305	306359	prompt	n/a	urban divide correctly payday\n
153.8485	0.0895	307697	keystroke_u	u	n/a
153.998	0.089	307996	keystroke_r	r	n/a
154.163	0.045	308326	keystroke_b	b	n/a
154.283	0.119	308566	keystroke_a	a	n/a
154.417	0.046	308834	keystroke_n	n	n/a
154.807	0.105	309614	keystroke_Key.space	Key.space	n/a
155.0775	0.075	310155	keystroke_d	d	n/a
155.2125	0.06	310425	keystroke_i	i	n/a
155.3775	0.075	310755	keystroke_v	v	n/a
155.4975	0.075	310995	keystroke_i	i	n/a
155.5875	0.06	311175	keystroke_d	d	n/a
155.7375	0.076	311475	keystroke_e	e	n/a
156.4875	0.135	312975	keystroke_Key.space	Key.space	n/a
156.7425	0.09	313485	keystroke_c	c	n/a
157.4925	0.075	314985	keystroke_o	o	n/a
157.7475	0.045	315495	keystroke_r	r	n/a
157.9275	0.135	315855	keystroke_r	r	n/a
158.0775	0.075	316155	keystroke_e	e	n/a
158.2875	0.076	316575	keystroke_c	c	n/a
158.4975	0.076	316995	keystroke_t	t	n/a
158.6775	0.09	317355	keystroke_l	l	n/a
158.8275	0.075	317655	keystroke_y	y	n/a
159.3075	0.12	318615	keystroke_Key.space	Key.space	n/a
159.6375	0.12	319275	keystroke_p	p	n/a
159.7725	0.105	319545	keystroke_a	a	n/a
159.8925	0.06	319785	keystroke_y	y	n/a
160.1925	0.15	320385	keystroke_d	d	n/a
160.3125	0.12	320625	keystroke_a	a	n/a
160.4175	0.075	320835	keystroke_y	y	n/a
161.0325	0.075	322065	keystroke_Key.enter	Key.enter	n/a
161.115	6.9245	322230	prompt	n/a	pocket boots cooking iran\n
161.8275	0.105	323655	keystroke_p	p	n/a
162.0975	0.06	324195	keystroke_o	o	n/a
162.1725	0.075	324345	keystroke_c	c	n/a
162.5335	0.074	325067	keystroke_k	k	n/a
162.6525	0.12	325305	keystroke_e	e	n/a
162.7875	0.075	325575	keystroke_t	t	n/a
163.943	0.09	327886	keystroke_Key.space	Key.space	n/a
164.138	0.06	328276	keystroke_b	b	n/a
164.378	0.06	328756	keystroke_o	o	n/a
164.513	0.075	329026	keystroke_o	o	n/a
164.693	0.075	329386	keystroke_t	t	n/a
164.903	0.09	329806	keystroke_s	s	n/a
165.188	0.105	330376	keystroke_Key.space	Key.space	n/a
165.413	0.09	330826	keystroke_c	c	n/a
165.577	0.061	331154	keystroke_o	o	n/a
165.728	0.09	331456	keystroke_o	o	n/a
165.938	0.075	331876	keystroke_k	k	n/a
166.133	0.06	332266	keystroke_i	i	n/a
166.223	0.075	332446	keystroke_n	n	n/a
166.313	0.06	332626	keystroke_g	g	n/a
166.598	0.09	333196	keystroke_Key.space	Key.space	n/a
166.868	0.075	333736	keystroke_i	i	n/a
166.958	0.06	333916	keystroke_r	r	n/a
167.138	0.09	334276	keystroke_a	a	n/a
167.258	0.06	334516	keystroke_n	n	n/a
167.918	0.12	335836	keystroke_Key.enter	Key.enter	n/a
168.0445	6.6555	336089	prompt	n/a	current lots might tracy\n
168.6825	0.09	337365	keystroke_c	c	n/a
168.8025	0.075	337605	keystroke_u	u	n/a
168.9825	0.06	337965	keystroke_r	r	n/a
169.1325	0.06	338265	keystroke_r	r	n/a
169.3125	0.09	338625	keystroke_e	e	n/a
169.4625	0.06	338925	keystroke_n	n	n/a
169.5375	0.075	339075	keystroke_t	t	n/a
169.9725	0.09	339945	keystroke_Key.space	Key.space	n/a
170.2275	0.06	340455	keystroke_l	l	n/a
170.4075	0.045	340815	keystroke_o	o	n/a
170.4825	0.075	340965	keystroke_t	t	n/a
170.7075	0.09	341415	keystroke_s	s	n/a
171.3825	0.09	342765	keystroke_Key.space	Key.space	n/a
171.6225	0.09	343245	keystroke_m	m	n/a
171.8925	0.06	343785	keystroke_i	i	n/a
172.0425	0.045	344085	keystroke_g	g	n/a
172.1475	0.061	344295	keystroke_h	h	n/a
172.2375	0.075	344475	keystroke_t	t	n/a
172.6125	0.075	345225	keystroke_Key.space	Key.space	n/a
173.2575	0.045	346515	keystroke_t	t	n/a
173.4085	0.089	346817	keystroke_r	r	n/a
173.5875	0.135	347175	keystroke_a	a	n/a
173.7675	0.09	347535	keystroke_c	c	n/a
173.9175	0.075	347835	keystroke_y	y	n/a
174.6075	0.09	349215	keystroke_Key.enter	Key.enter	n/a
174.7055	9.4	349411	prompt	n/a	listening newly selected matched\n
175.3875	0.06	350775	keystroke_l	l	n/a
175.5375	0.09	351075	keystroke_i	i	n/a
175.6875	0.09	351375	keystroke_s	s	n/a
175.8825	0.075	351765	keystroke_t	t	n/a
176.0775	0.09	352155	keystroke_e	e	n/a
176.2125	0.075	352425	keystroke_n	n	n/a
177.9225	0.09	355845	keystroke_i	i	n/a
178.1025	0.0755	356205	keystroke_n	n	n/a
178.193	0.075	356386	keystroke_g	g	n/a
178.508	0.12	357016	keystroke_Key.space	Key.space	n/a
179.0325	0.045	358065	keystroke_n	n	n/a
179.1825	0.18	358365	keystroke_e	e	n/a
179.2575	0.09	358515	keystroke_w	w	n/a
179.8125	0.06	359625	keystroke_l	l	n/a
180.0075	0.06	360015	keystroke_y	y	n/a
180.3075	0.075	360615	keystroke_Key.space	Key.space	n/a
180.5925	0.09	361185	keystroke_s	s	n/a
180.8025	0.075	361605	keystroke_e	e	n/a
181.0425	0.075	362085	keystroke_l	l	n/a
181.1185	0.089	362237	keystroke_e	e	n/a
181.3425	0.075	362685	keystroke_c	c	n/a
181.5525	0.09	363105	keystroke_t	t	n/a
181.7475	0.075	363495	keystroke_e	e	n/a
181.9425	0.06	363885	keystroke_d	d	n/a
182.2725	0.105	364545	keystroke_Key.space	Key.space	n/a
182.5275	0.075	365055	keystroke_m	m	n/a
182.6175	0.18	365235	keystroke_a	a	n/a
182.7675	0.075	365535	keystroke_t	t	n/a
182.9925	0.09	365985	keystroke_c	c	n/a
183.1125	0.075	366225	keystroke_h	h	n/a
183.2925	0.045	366585	keystroke_e	e	n/a
183.4575	0.045	366915	keystroke_d	d	n/a
183.997	0.106	367994	keystroke_Key.enter	Key.enter	n/a
184.1135	10.0115	368227	prompt	n/a	orders headset time tigers\n
184.7785	0.044	369557	keystroke_o	o	n/a
185.0775	0.09	370155	keystroke_r	r	n/a
185.2725	0.06	370545	keystroke_d	d	n/a
185.4525	0.105	370905	keystroke_e	e	n/a
185.5725	0.075	371145	keystroke_r	r	n/a
185.7675	0.06	371535	keystroke_s	s	n/a
186.0225	0.12	372045	keystroke_Key.space	Key.space	n/a
186.2475	0.061	372495	keystroke_h	h	n/a
186.3385	0.074	372677	keystroke_e	e	n/a
186.5025	0.15	373005	keystroke_a	a	n/a
186.6085	0.104	373217	keystroke_d	d	n/a
187.2075	0.09	374415	keystroke_s	s	n/a
187.4325	0.09	374865	keystroke_e	e	n/a
187.5375	0.09	375075	keystroke_t	t	n/a
187.9875	0.075	375975	keystroke_Key.space	Key.space	n/a
188.2725	0.045	376545	keystroke_l	l	n/a
188.5425	0.06	377085	keystroke_t	t	n/a
189.6975	0.045	379395	keystroke_Key.backspace	Key.backspace	n/a
189.8925	0.06	379785	keystroke_Key.backspace	Key.backspace	n/a
190.2225	0.075	380445	keystroke_t	t	n/a
190.8085	0.075	381617	keystroke_i	i	n/a
191.0775	0.075	382155	keystroke_m	m	n/a
191.1825	0.06	382365	keystroke_e	e	n/a
191.6175	0.09	383235	keystroke_Key.space	Key.space	n/a
192.3525	0.015	384705	keystroke_t	t	n/a
192.4275	0.06	384855	keystroke_i	i	n/a
192.6375	0.06	385275	keystroke_g	g	n/a
192.8335	0.104	385667	keystroke_e	e	n/a
192.9075	0.105	385815	keystroke_r	r	n/a
193.1775	0.075	386355	keystroke_s	s	n/a
194.0325	0.09	388065	keystroke_Key.enter	Key.enter	n/a
194.13	8.125	388260	prompt	n/a	outcomes virtually conversations title\n
194.9475	0.0905	389895	keystroke_o	o	n/a
195.098	0.075	390196	keystroke_u	u	n/a
195.203	0.075	390406	keystroke_t	t	n/a
195.488	0.09	390976	keystroke_c	c	n/a
195.608	0.075	391216	keystroke_o	o	n/a
195.848	0.06	391696	keystroke_m	m	n/a
195.954	0.059	391908	keystroke_e	e	n/a
196.1325	0.075	392265	keystroke_s	s	n/a
196.3725	0.12	392745	keystroke_Key.space	Key.space	n/a
196.7175	0.075	393435	keystroke_v	v	n/a
196.9125	0.06	393825	keystroke_i	i	n/a
197.0175	0.075	394035	keystroke_r	r	n/a
197.2275	0.045	394455	keystroke_t	t	n/a
197.2875	0.075	394575	keystroke_u	u	n/a
197.4975	0.105	394995	keystroke_a	a	n/a
197.6175	0.045	395235	keystroke_l	l	n/a
197.7685	0.089	395537	keystroke_l	l	n/a
197.8875	0.091	395775	keystroke_y	y	n/a
198.1425	0.09	396285	keystroke_Key.space	Key.space	n/a
198.7425	0.045	397485	keystroke_c	c	n/a
198.8175	0.075	397635	keystroke_o	o	n/a
199.2225	0.075	398445	keystroke_n	n	n/a
199.3725	0.09	398745	keystroke_v	v	n/a
199.5375	0.105	399075	keystroke_e	e	n/a
199.6275	0.12	399255	keystroke_r	r	n/a
199.8675	0.1355	399735	keystroke_s	s	n/a
200.018	0.1505	400036	keystroke_a	a	n/a
200.2725	0.0605	400545	keystroke_t	t	n/a
200.3635	0.1035	400727	keystroke_i	i	n/a
200.4835	0.0885	400967	keystroke_o	o	n/a
200.543	0.1205	401086	keystroke_n	n	n/a
200.7085	0.074	401417	keystroke_s	s	n/a
200.9625	0.0895	401925	keystroke_Key.space	Key.space	n/a
201.158	0.074	402316	keystroke_t	t	n/a
201.247	0.061	402494	keystroke_i	i	n/a
201.3675	0.0755	402735	keystroke_t	t	n/a
201.488	0.0745	402976	keystroke_l	l	n/a
201.5785	0.075	403157	keystroke_e	e	n/a
202.163	0.089	404326	keystroke_Key.enter	Key.enter	n/a
202.2605	15.759	404521	prompt	n/a	olympics candidates erik humanities\n
203.1225	0.09	406245	keystroke_o	o	n/a
203.3475	0.105	406695	keystroke_l	l	n/a
203.4825	0.09	406965	keystroke_y	y	n/a
203.7825	0.09	407565	keystroke_m	m	n/a
203.9925	0.09	407985	keystroke_p	p	n/a
204.1875	0.06	408375	keystroke_i	i	n/a
204.2625	0.06	408525	keystroke_c	c	n/a
204.3975	0.09	408795	keystroke_s	s	n/a
204.6675	0.09	409335	keystroke_Key.space	Key.space	n/a
204.998	0.075	409996	keystroke_c	c	n/a
205.118	0.12	410236	keystroke_a	a	n/a
205.223	0.075	410446	keystroke_n	n	n/a
205.342	0.091	410684	keystroke_d	d	n/a
205.448	0.075	410896	keystroke_i	i	n/a
205.553	0.105	411106	keystroke_d	d	n/a
205.688	0.12	411376	keystroke_a	a	n/a
205.823	0.06	411646	keystroke_t	t	n/a
205.868	0.075	411736	keystroke_e	e	n/a
206.063	0.075	412126	keystroke_s	s	n/a
208.7805	0.001	417561	keystroke_e	e	n/a
208.8975	0.06	417795	keystroke_r	r	n/a
209.0035	0.074	418007	keystroke_i	i	n/a
209.2275	0.06	418455	keystroke_k	k	n/a
209.3925	0.09	418785	keystroke_Key.space	Key.space	n/a
209.6175	0.045	419235	keystroke_h	h	n/a
209.8135	0.059	419627	keystroke_u	u	n/a
210.0675	0.045	420135	keystroke_m	m	n/a
210.2025	0.075	420405	keystroke_a	a	n/a
210.3075	0.076	420615	keystroke_n	n	n/a
211.2975	0.06	422595	keystroke_Key.backspace	Key.backspace	n/a
211.5075	0.075	423015	keystroke_Key.backspace	Key.backspace	n/a
211.7175	0.09	423435	keystroke_Key.backspace	Key.backspace	n/a
211.928	0.09	423856	keystroke_Key.backspace	Key.backspace	n/a
212.1375	0.075	424275	keystroke_Key.backspace	Key.backspace	n/a
212.3325	0.09	424665	keystroke_Key.backspace	Key.backspace	n/a
212.5575	0.09	425115	keystroke_Key.backspace	Key.backspace	n/a
213.2025	0.09	426405	keystroke_Key.backspace	Key.backspace	n/a
213.5475	0.09	427095	keystroke_Key.backspace	Key.backspace	n/a
213.7875	0.075	427575	keystroke_Key.backspace	Key.backspace	n/a
214.2075	0.09	428415	keystroke_Key.space	Key.space	n/a
214.4775	0.09	428955	keystroke_e	e	n/a
214.5525	0.105	429105	keystroke_r	r	n/a
214.6875	0.075	429375	keystroke_i	i	n/a
214.8975	0.06	429795	keystroke_k	k	n/a
215.1975	0.09	430395	keystroke_Key.space	Key.space	n/a
215.4525	0.045	430905	keystroke_h	h	n/a
215.6325	0.06	431265	keystroke_u	u	n/a
215.8725	0.075	431745	keystroke_m	m	n/a
216.0225	0.075	432045	keystroke_a	a	n/a
216.1125	0.075	432225	keystroke_n	n	n/a
216.3075	0.06	432615	keystroke_i	i	n/a
216.4425	0.075	432885	keystroke_t	t	n/a
216.5325	0.06	433065	keystroke_i	i	n/a
216.6075	0.075	433215	keystroke_e	e	n/a
216.7725	0.09	433545	keystroke_s	s	n/a
217.9125	0.105	435825	keystroke_Key.enter	Key.enter	n/a
218.03	10.31	436060	prompt	n/a	decades reputation something's brick\n
218.7075	0.075	437415	keystroke_d	d	n/a
219.3375	0.075	438675	keystroke_e	e	n/a
219.5625	0.105	439125	keystroke_c	c	n/a
219.7125	0.12	439425	keystroke_a	a	n/a
219.9225	0.06	439845	keystroke_d	d	n/a
220.1325	0.075	440265	keystroke_e	e	n/a
220.2975	0.09	440595	keystroke_s	s	n/a
220.6275	0.12	441255	keystroke_Key.space	Key.space	n/a
220.9425	0.135	441885	keystroke_r	r	n/a
221.0475	0.09	442095	keystroke_e	e	n/a
221.3175	0.09	442635	keystroke_p	p	n/a
221.932	0.061	443864	keystroke_u	u	n/a
222.547	0.075	445094	keystroke_t	t	n/a
222.848	0.119	445696	keystroke_a	a	n/a
223.117	0.076	446234	keystroke_t	t	n/a
223.343	0.059	446686	keystroke_i	i	n/a
223.448	0.12	446896	keystroke_o	o	n/a
223.569	0.089	447138	keystroke_n	n	n/a
223.927	0.12	447854	keystroke_Key.space	Key.space	n/a
224.243	0.089	448486	keystroke_s	s	n/a
224.377	0.061	448754	keystroke_o	o	n/a
224.618	0.075	449236	keystroke_m	m	n/a
224.678	0.09	449356	keystroke_e	e	n/a
224.872	0.075	449744	keystroke_t	t	n/a
224.933	0.074	449866	keystroke_h	h	n/a
225.157	0.06	450314	keystroke_i	i	n/a
225.277	0.06	450554	keystroke_n	n	n/a
225.367	0.076	450734	keystroke_g	g	n/a
226.013	0.105	452026	keystroke_'	'	n/a
226.118	0.074	452236	keystroke_s	s	n/a
226.417	0.075	452834	keystroke_Key.space	Key.space	n/a
227.048	0.074	454096	keystroke_b	b	n/a
227.138	0.09	454276	keystroke_r	r	n/a
227.363	0.045	454726	keystroke_i	i	n/a
227.497	0.061	454994	keystroke_c	c	n/a
227.588	0.075	455176	keystroke_k	k	n/a
228.263	0.074	456526	keystroke_Key.enter	Key.enter	n/a
228.3455	7.3	456691	prompt	n/a	applies higher shift farmers\n
228.9975	0.075	457995	keystroke_a	a	n/a
229.1325	0.06	458265	keystroke_p	p	n/a
229.2825	0.075	458565	keystroke_p	p	n/a
229.5075	0.075	459015	keystroke_l	l	n/a
229.9125	0.06	459825	keystroke_i	i	n/a
230.0025	0.045	460005	keystroke_e	e	n/a
230.1975	0.075	460395	keystroke_s	s	n/a
230.4525	0.09	460905	keystroke_Key.space	Key.space	n/a
230.7375	0.06	461475	keystroke_h	h	n/a
230.8575	0.045	461715	keystroke_i	i	n/a
231.008	0.06	462016	keystroke_g	g	n/a
231.083	0.074	462166	keystroke_h	h	n/a
231.172	0.091	462344	keystroke_e	e	n/a
231.248	0.075	462496	keystroke_r	r	n/a
231.5175	0.12	463035	keystroke_Key.space	Key.space	n/a
231.9825	0.075	463965	keystroke_s	s	n/a
232.1025	0.06	464205	keystroke_h	h	n/a
232.2825	0.06	464565	keystroke_i	i	n/a
232.4025	0.09	464805	keystroke_f	f	n/a
232.8225	0.045	465645	keystroke_t	t	n/a
233.1825	0.09	466365	keystroke_Key.space	Key.space	n/a
233.6925	0.075	467385	keystroke_f	f	n/a
234.0075	0.105	468015	keystroke_a	a	n/a
234.1275	0.075	468255	keystroke_r	r	n/a
234.3225	0.075	468645	keystroke_m	m	n/a
234.5475	0.09	469095	keystroke_e	e	n/a
234.6225	0.075	469245	keystroke_r	r	n/a
234.8175	0.06	469635	keystroke_s	s	n/a
235.5525	0.09	471105	keystroke_Key.enter	Key.enter	n/a
235.6505	8.094	471301	prompt	n/a	soma greg kenneth interfaces\n
236.2875	0.105	472575	keystroke_s	s	n/a
236.4375	0.06	472875	keystroke_o	o	n/a
236.7525	0.06	473505	keystroke_m	m	n/a
236.9475	0.06	473895	keystroke_a	a	n/a
237.1725	0.12	474345	keystroke_Key.space	Key.space	n/a
237.8475	0.075	475695	keystroke_g	g	n/a
238.1625	0.105	476325	keystroke_r	r	n/a
238.3125	0.105	476625	keystroke_e	e	n/a
238.5225	0.075	477045	keystroke_g	g	n/a
238.7325	0.105	477465	keystroke_Key.space	Key.space	n/a
239.1225	0.075	478245	keystroke_k	k	n/a
239.2425	0.075	478485	keystroke_e	e	n/a
239.5425	0.075	479085	keystroke_n	n	n/a
240.2335	0.089	480467	keystroke_e	e	n/a
240.4425	0.075	480885	keystroke_t	t	n/a
240.5325	0.075	481065	keystroke_h	h	n/a
240.9375	0.12	481875	keystroke_Key.space	Key.space	n/a
241.3275	0.06	482655	keystroke_i	i	n/a
241.5085	0.044	483017	keystroke_n	n	n/a
241.7175	0.06	483435	keystroke_t	t	n/a
241.8525	0.09	483705	keystroke_e	e	n/a
241.9575	0.09	483915	keystroke_r	r	n/a
242.3625	0.06	484725	keystroke_f	f	n/a
242.5425	0.165	485085	keystroke_a	a	n/a
242.7225	0.09	485445	keystroke_c	c	n/a
242.9325	0.045	485865	keystroke_e	e	n/a
243.0975	0.09	486195	keystroke_s	s	n/a
243.6375	0.105	487275	keystroke_Key.enter	Key.enter	n/a
243.749	8.1405	487498	prompt	n/a	perfume gently demands personality\n
244.5225	0.0745	489045	keystroke_p	p	n/a
244.6125	0.1045	489225	keystroke_r	r	n/a
244.687	0.1055	489374	keystroke_e	e	n/a
245.7975	0.075	491595	keystroke_Key.backspace	Key.backspace	n/a
245.9775	0.075	491955	keystroke_Key.backspace	Key.backspace	n/a
246.2925	0.12	492585	keystroke_e	e	n/a
246.3975	0.09	492795	keystroke_r	r	n/a
246.6075	0.075	493215	keystroke_f	f	n/a
246.742	0.0905	493484	keystroke_u	u	n/a
246.997	0.06	493994	keystroke_m	m	n/a
247.0875	0.06	494175	keystroke_e	e	n/a
247.387	0.09	494774	keystroke_Key.space	Key.space	n/a
247.807	0.0755	495614	keystroke_g	g	n/a
247.958	0.09	495916	keystroke_e	e	n/a
248.063	0.059	496126	keystroke_n	n	n/a
248.212	0.06	496424	keystroke_t	t	n/a
248.287	0.135	496574	keystroke_l	l	n/a
248.453	0.074	496906	keystroke_y	y	n/a
248.707	0.09	497414	keystroke_Key.space	Key.space	n/a
248.858	0.075	497716	keystroke_d	d	n/a
249.037	0.091	498074	keystroke_e	e	n/a
249.187	0.06	498374	keystroke_m	m	n/a
249.277	0.12	498554	keystroke_a	a	n/a
249.383	0.044	498766	keystroke_n	n	n/a
249.503	0.044	499006	keystroke_d	d	n/a
249.682	0.09	499364	keystroke_s	s	n/a
249.787	0.105	499574	keystroke_Key.space	Key.space	n/a
250.042	0.105	500084	keystroke_p	p	n/a
250.132	0.105	500264	keystroke_e	e	n/a
250.222	0.09	500444	keystroke_r	r	n/a
250.402	0.121	500804	keystroke_s	s	n/a
250.538	0.044	501076	keystroke_o	o	n/a
250.642	0.09	501284	keystroke_n	n	n/a
250.762	0.091	501524	keystroke_a	a	n/a
250.867	0.075	501734	keystroke_l	l	n/a
251.0025	0.075	502005	keystroke_i	i	n/a
251.0925	0.0755	502185	keystroke_t	t	n/a
251.213	0.074	502426	keystroke_y	y	n/a
251.812	0.075	503624	keystroke_Key.enter	Key.enter	n/a
251.8935	8.711	503787	prompt	n/a	displays require contents erik\n
252.503	0.03	505006	keystroke_d	d	n/a
252.832	0.061	505664	keystroke_i	i	n/a
252.938	0.089	505876	keystroke_s	s	n/a
253.163	0.105	506326	keystroke_p	p	n/a
253.387	0.075	506774	keystroke_l	l	n/a
253.553	0.09	507106	keystroke_a	a	n/a
253.657	0.046	507314	keystroke_y	y	n/a
253.838	0.059	507676	keystroke_s	s	n/a
254.137	0.135	508274	keystroke_Key.space	Key.space	n/a
254.617	0.136	509234	keystroke_r	r	n/a
254.753	0.044	509506	keystroke_e	e	n/a
254.858	0.104	509716	keystroke_q	q	n/a
255.188	0.075	510376	keystroke_u	u	n/a
255.457	0.046	510914	keystroke_i	i	n/a
255.517	0.12	511034	keystroke_r	r	n/a
255.608	0.09	511216	keystroke_e	e	n/a
256.057	0.0905	512114	keystroke_Key.space	Key.space	n/a
256.447	0.075	512894	keystroke_c	c	n/a
256.538	0.075	513076	keystroke_o	o	n/a
256.672	0.075	513344	keystroke_n	n	n/a
256.928	0.075	513856	keystroke_e	e	n/a
257.737	0.075	515474	keystroke_Key.backspace	Key.backspace	n/a
258.068	0.074	516136	keystroke_t	t	n/a
258.292	0.075	516584	keystroke_e	e	n/a
258.562	0.061	517124	keystroke_n	n	n/a
258.638	0.06	517276	keystroke_t	t	n/a
259.042	0.105	518084	keystroke_Key.space	Key.space	n/a
259.327	0.151	518654	keystroke_e	e	n/a
259.433	0.09	518866	keystroke_r	r	n/a
259.628	0.045	519256	keystroke_i	i	n/a
259.883	0.044	519766	keystroke_k	k	n/a
260.5275	0.075	521055	keystroke_Key.enter	Key.enter	n/a
260.6095	9.85	521219	prompt	n/a	carlo attempting requirement crossing\n
261.3375	0.075	522675	keystroke_c	c	n/a
261.4575	0.15	522915	keystroke_a	a	n/a
261.5775	0.09	523155	keystroke_r	r	n/a
261.8325	0.06	523665	keystroke_l	l	n/a
261.9975	0.075	523995	keystroke_o	o	n/a
262.3875	0.09	524775	keystroke_Key.space	Key.space	n/a
262.7775	0.12	525555	keystroke_a	a	n/a
263.0175	0.06	526035	keystroke_t	t	n/a
263.2425	0.015	526485	keystroke_t	t	n/a
263.3625	0.09	526725	keystroke_e	e	n/a
263.4825	0.09	526965	keystroke_m	m	n/a
264.4875	0.09	528975	keystroke_p	p	n/a
264.6375	0.075	529275	keystroke_t	t	n/a
264.7875	0.075	529575	keystroke_i	i	n/a
264.9075	0.06	529815	keystroke_n	n	n/a
264.9375	0.075	529875	keystroke_g	g	n/a
265.4475	0.12	530895	keystroke_Key.space	Key.space	n/a
265.7625	0.135	531525	keystroke_r	r	n/a
265.8825	0.15	531765	keystroke_e	e	n/a
266.0475	0.0605	532095	keystroke_q	q	n/a
266.243	0.075	532486	keystroke_u	u	n/a
266.498	0.075	532996	keystroke_i	i	n/a
266.678	0.15	533356	keystroke_r	r	n/a
266.813	0.074	533626	keystroke_e	e	n/a
267.0825	0.0755	534165	keystroke_m	m	n/a
267.1725	0.075	534345	keystroke_e	e	n/a
267.2925	0.06	534585	keystroke_n	n	n/a
267.3825	0.0605	534765	keystroke_t	t	n/a
267.728	0.0895	535456	keystroke_Key.space	Key.space	n/a
268.1475	0.06	536295	keystroke_c	c	n/a
268.7175	0.06	537435	keystroke_r	r	n/a
268.8075	0.0755	537615	keystroke_o	o	n/a
268.987	0.061	537974	keystroke_s	s	n/a
269.138	0.089	538276	keystroke_s	s	n/a
269.362	0.061	538724	keystroke_i	i	n/a
269.528	0.06	539056	keystroke_n	n	n/a
269.618	0.074	539236	keystroke_g	g	n/a
270.368	0.089	540736	keystroke_Key.enter	Key.enter	n/a
270.465	10.869	540930	prompt	n/a	bulgaria liberia portfolio jumping\n
271.177	0.06	542354	keystroke_b	b	n/a
271.478	0.045	542956	keystroke_u	u	n/a
271.763	0.074	543526	keystroke_l	l	n/a
271.927	0.076	543854	keystroke_g	g	n/a
272.078	0.105	544156	keystroke_a	a	n/a
272.212	0.0905	544424	keystroke_r	r	n/a
272.4975	0.059	544995	keystroke_i	i	n/a
272.6165	0.121	545233	keystroke_a	a	n/a
272.9765	0.075	545953	keystroke_Key.space	Key.space	n/a
273.5915	0.075	547183	keystroke_l	l	n/a
273.7125	0.075	547425	keystroke_i	i	n/a
273.9375	0.044	547875	keystroke_b	b	n/a
274.0575	0.105	548115	keystroke_e	e	n/a
274.1475	0.104	548295	keystroke_r	r	n/a
274.2975	0.06	548595	keystroke_i	i	n/a
274.3725	0.12	548745	keystroke_a	a	n/a
274.6275	0.12	549255	keystroke_Key.space	Key.space	n/a
275.107	0.09	550214	keystroke_p	p	n/a
275.347	0.045	550694	keystroke_o	o	n/a
275.393	0.074	550786	keystroke_r	r	n/a
275.572	0.075	551144	keystroke_t	t	n/a
275.797	0.075	551594	keystroke_f	f	n/a
276.217	0.06	552434	keystroke_l	l	n/a
276.982	0.105	553964	keystroke_Key.backspace	Key.backspace	n/a
277.567	0.06	555134	keystroke_o	o	n/a
277.792	0.105	555584	keystroke_l	l	n/a
277.972	0.135	555944	keystroke_i	i	n/a
278.092	0.075	556184	keystroke_o	o	n/a
278.572	0.12	557144	keystroke_Key.space	Key.space	n/a
279.007	0.045	558014	keystroke_j	j	n/a
279.127	0.075	558254	keystroke_u	u	n/a
279.412	0.12	558824	keystroke_m	m	n/a
279.652	0.09	559304	keystroke_p	p	n/a
280.117	0.06	560234	keystroke_i	i	n/a
280.372	0.06	560744	keystroke_n	n	n/a
280.477	0.09	560954	keystroke_g	g	n/a
281.257	0.0755	562514	keystroke_Key.enter	Key.enter	n/a
281.3385	8.4115	562677	prompt	n/a	updating realized rotary outside\n
282.0675	0.09	564135	keystroke_u	u	n/a
282.2775	0.105	564555	keystroke_p	p	n/a
282.5775	0.09	565155	keystroke_d	d	n/a
282.7875	0.165	565575	keystroke_a	a	n/a
282.9675	0.0745	565935	keystroke_t	t	n/a
283.222	0.06	566444	keystroke_i	i	n/a
283.312	0.075	566624	keystroke_n	n	n/a
283.417	0.06	566834	keystroke_g	g	n/a
283.957	0.06	567914	keystroke_Key.space	Key.space	n/a
284.662	0.105	569324	keystroke_r	r	n/a
284.752	0.09	569504	keystroke_e	e	n/a
284.902	0.12	569804	keystroke_a	a	n/a
285.112	0.075	570224	keystroke_l	l	n/a
285.247	0.09	570494	keystroke_i	i	n/a
285.352	0.105	570704	keystroke_z	z	n/a
285.472	0.075	570944	keystroke_e	e	n/a
285.637	0.075	571274	keystroke_d	d	n/a
285.907	0.12	571814	keystroke_Key.space	Key.space	n/a
286.282	0.075	572564	keystroke_r	r	n/a
286.672	0.045	573344	keystroke_o	o	n/a
286.792	0.06	573584	keystroke_t	t	n/a
286.927	0.09	573854	keystroke_a	a	n/a
287.152	0.06	574304	keystroke_r	r	n/a
287.332	0.06	574664	keystroke_y	y	n/a
287.797	0.09	575594	keystroke_Key.space	Key.space	n/a
288.247	0.075	576494	keystroke_o	o	n/a
288.382	0.06	576764	keystroke_u	u	n/a
288.472	0.075	576944	keystroke_t	t	n/a
288.697	0.09	577394	keystroke_s	s	n/a
288.772	0.06	577544	keystroke_i	i	n/a
288.907	0.06	577814	keystroke_d	d	n/a
289.057	0.075	578114	keystroke_e	e	n/a
289.687	0.06	579374	keystroke_Key.enter	Key.enter	n/a
289.7575	10.5675	579515	prompt	n/a	worldwide containers publication chester\n
290.392	0.09	580784	keystroke_w	w	n/a
290.602	0.06	581204	keystroke_o	o	n/a
290.707	0.075	581414	keystroke_r	r	n/a
290.9765	0.076	581953	keystroke_l	l	n/a
291.0525	0.059	582105	keystroke_d	d	n/a
291.2775	0.075	582555	keystroke_w	w	n/a
291.3975	0.059	582795	keystroke_i	i	n/a
291.5165	0.061	583033	keystroke_d	d	n/a
291.7125	0.045	583425	keystroke_e	e	n/a
291.9975	0.105	583995	keystroke_Key.space	Key.space	n/a
292.2675	0.075	584535	keystroke_c	c	n/a
292.5365	0.076	585073	keystroke_o	o	n/a
292.6575	0.09	585315	keystroke_n	n	n/a
292.9115	0.031	585823	keystroke_t	t	n/a
293.0315	0.075	586063	keystroke_a	a	n/a
293.8125	0.075	587625	keystroke_i	i	n/a
294.0215	0.06	588043	keystroke_n	n	n/a
294.8315	0.136	589663	keystroke_e	e	n/a
294.9375	0.09	589875	keystroke_r	r	n/a
295.1475	0.09	590295	keystroke_s	s	n/a
295.6875	0.135	591375	keystroke_Key.space	Key.space	n/a
295.9725	0.12	591945	keystroke_p	p	n/a
296.1225	0.075	592245	keystroke_u	u	n/a
296.3625	0.12	592725	keystroke_b	b	n/a
296.752	0.06	593504	keystroke_l	l	n/a
296.872	0.06	593744	keystroke_i	i	n/a
297.007	0.15	594014	keystroke_c	c	n/a
297.142	0.12	594284	keystroke_a	a	n/a
297.427	0.075	594854	keystroke_t	t	n/a
297.503	0.074	595006	keystroke_i	i	n/a
297.592	0.0905	595184	keystroke_o	o	n/a
297.6675	0.105	595335	keystroke_n	n	n/a
298.4625	0.105	596925	keystroke_Key.space	Key.space	n/a
298.6275	0.09	597255	keystroke_c	c	n/a
298.8975	0.075	597795	keystroke_h	h	n/a
298.9875	0.06	597975	keystroke_e	e	n/a
299.1525	0.105	598305	keystroke_s	s	n/a
299.3325	0.09	598665	keystroke_t	t	n/a
299.4675	0.105	598935	keystroke_e	e	n/a
299.5875	0.06	599175	keystroke_r	r	n/a
300.2325	0.09	600465	keystroke_Key.enter	Key.enter	n/a
300.3295	10.495	600659	prompt	n/a	related battlefield catalyst gaps\n
301.0875	0.135	602175	keystroke_r	r	n/a
301.1625	0.089	602325	keystroke_e	e	n/a
301.3875	0.06	602775	keystroke_l	l	n/a
301.567	0.165	603134	keystroke_a	a	n/a
301.687	0.075	603374	keystroke_t	t	n/a
301.807	0.06	603614	keystroke_e	e	n/a
301.972	0.075	603944	keystroke_d	d	n/a
303.652	0.06	607304	keystroke_Key.space	Key.space	n/a
303.967	0.06	607934	keystroke_b	b	n/a
304.177	0.075	608354	keystroke_a	a	n/a
304.297	0.075	608594	keystroke_t	t	n/a
304.432	0.075	608864	keystroke_t	t	n/a
304.792	0.075	609584	keystroke_l	l	n/a
304.882	0.075	609764	keystroke_e	e	n/a
305.137	0.06	610274	keystroke_f	f	n/a
305.257	0.06	610514	keystroke_i	i	n/a
305.572	0.06	611144	keystroke_e	e	n/a
305.737	0.06	611474	keystroke_l	l	n/a
305.798	0.059	611596	keystroke_d	d	n/a
306.202	0.09	612404	keystroke_Key.space	Key.space	n/a
306.487	0.09	612974	keystroke_c	c	n/a
307.147	0.105	614294	keystroke_a	a	n/a
307.657	0.06	615314	keystroke_t	t	n/a
307.867	0.09	615734	keystroke_a	a	n/a
308.227	0.09	616454	keystroke_l	l	n/a
308.392	0.06	616784	keystroke_y	y	n/a
308.557	0.135	617114	keystroke_s	s	n/a
308.647	0.09	617294	keystroke_t	t	n/a
309.247	0.105	618494	keystroke_Key.space	Key.space	n/a
309.562	0.075	619124	keystroke_g	g	n/a
309.667	0.105	619334	keystroke_a	a	n/a
309.967	0.09	619934	keystroke_p	p	n/a
310.042	0.075	620084	keystroke_s	s	n/a
310.717	0.105	621434	keystroke_Key.enter	Key.enter	n/a
310.83	19.569	621660	prompt	n/a	leadership livestock defined copy\n
311.662	0.075	623324	keystroke_l	l	n/a
311.767	0.06	623534	keystroke_e	e	n/a
311.932	0.135	623864	keystroke_a	a	n/a
312.307	0.09	624614	keystroke_e	e	n/a
313.117	0.105	626234	keystroke_Key.backspace	Key.backspace	n/a
313.447	0.06	626894	keystroke_d	d	n/a
313.6425	0.0895	627285	keystroke_e	e	n/a
313.7175	0.09	627435	keystroke_r	r	n/a
314.017	0.105	628034	keystroke_s	s	n/a
314.167	0.12	628334	keystroke_i	i	n/a
314.302	0.12	628604	keystroke_p	p	n/a
315.337	0.075	630674	keystroke_Key.backspace	Key.backspace	n/a
315.487	0.075	630974	keystroke_Key.backspace	Key.backspace	n/a
316.147	0.09	632294	keystroke_s	s	n/a
316.252	0.06	632504	keystroke_h	h	n/a
316.372	0.135	632744	keystroke_i	i	n/a
316.522	0.12	633044	keystroke_p	p	n/a
317.212	0.09	634424	keystroke_Key.backspace	Key.backspace	n/a
317.362	0.105	634724	keystroke_Key.backspace	Key.backspace	n/a
317.962	0.075	635924	keystroke_Key.backspace	Key.backspace	n/a
318.277	0.09	636554	keystroke_Key.backspace	Key.backspace	n/a
319.6725	0.06	639345	keystroke_h	h	n/a
319.8825	0.12	639765	keystroke_i	i	n/a
320.0325	0.09	640065	keystroke_p	p	n/a
320.2865	0.105	640573	keystroke_Key.space	Key.space	n/a
320.5425	0.06	641085	keystroke_l	l	n/a
320.7225	0.06	641445	keystroke_i	i	n/a
320.7975	0.09	641595	keystroke_v	v	n/a
320.9325	0.105	641865	keystroke_e	e	n/a
321.3825	0.09	642765	keystroke_s	s	n/a
321.5175	0.075	643035	keystroke_t	t	n/a
321.6825	0.045	643365	keystroke_o	o	n/a
321.7725	0.06	643545	keystroke_r	r	n/a
321.9675	0.06	643935	keystroke_c	c	n/a
322.0575	0.075	644115	keystroke_k	k	n/a
322.3265	0.12	644653	keystroke_Key.space	Key.space	n/a
322.5525	0.045	645105	keystroke_d	d	n/a
322.7175	0.09	645435	keystroke_e	e	n/a
323.452	0.09	646904	keystroke_Key.backspace	Key.backspace	n/a
323.707	0.075	647414	keystroke_Key.backspace	Key.backspace	n/a
323.887	0.075	647774	keystroke_Key.backspace	Key.backspace	n/a
324.067	0.075	648134	keystroke_Key.backspace	Key.backspace	n/a
324.247	0.06	648494	keystroke_Key.backspace	Key.backspace	n/a
324.397	0.075	648794	keystroke_Key.backspace	Key.backspace	n/a
324.562	0.075	649124	keystroke_Key.backspace	Key.backspace	n/a
325.162	0.06	650324	keystroke_o	o	n/a
325.297	0.075	650594	keystroke_c	c	n/a
325.402	0.09	650804	keystroke_k	k	n/a
325.627	0.075	651254	keystroke_Key.space	Key.space	n/a
326.692	0.061	653384	keystroke_e	e	n/a
327.4575	0.09	654915	keystroke_Key.backspace	Key.backspace	n/a
327.6825	0.06	655365	keystroke_d	d	n/a
327.8475	0.075	655695	keystroke_e	e	n/a
328.0275	0.09	656055	keystroke_f	f	n/a
328.1475	0.06	656295	keystroke_i	i	n/a
328.3425	0.045	656685	keystroke_n	n	n/a
328.4025	0.06	656805	keystroke_e	e	n/a
328.5975	0.03	657195	keystroke_d	d	n/a
328.7775	0.075	657555	keystroke_Key.space	Key.space	n/a
329.1975	0.09	658395	keystroke_c	c	n/a
329.3175	0.1195	658635	keystroke_o	o	n/a
329.482	0.075	658964	keystroke_p	p	n/a
329.602	0.09	659204	keystroke_y	y	n/a
330.307	0.09	660614	keystroke_Key.enter	Key.enter	n/a
330.404	11.95	660808	prompt	n/a	nose expressions petersburg owners\n
331.1315	0.061	662263	keystroke_n	n	n/a
331.6275	0.12	663255	keystroke_s	s	n/a
331.7325	0.09	663465	keystroke_e	e	n/a
332.4515	0.091	664903	keystroke_Key.backspace	Key.backspace	n/a
333.1275	0.075	666255	keystroke_Key.backspace	Key.backspace	n/a
333.4875	0.075	666975	keystroke_o	o	n/a
333.6225	0.12	667245	keystroke_s	s	n/a
333.7275	0.075	667455	keystroke_e	e	n/a
333.8925	0.089	667785	keystroke_Key.space	Key.space	n/a
334.1475	0.06	668295	keystroke_e	e	n/a
334.3425	0.075	668685	keystroke_x	x	n/a
334.5375	0.105	669075	keystroke_p	p	n/a
334.6275	0.195	669255	keystroke_r	r	n/a
334.8075	0.06	669615	keystroke_e	e	n/a
334.9875	0.045	669975	keystroke_s	s	n/a
335.1065	0.106	670213	keystroke_s	s	n/a
336.5325	0.045	673065	keystroke_i	i	n/a
336.6375	0.105	673275	keystroke_o	o	n/a
336.7125	0.104	673425	keystroke_n	n	n/a
336.8325	0.09	673665	keystroke_s	s	n/a
337.0265	0.0905	674053	keystroke_Key.space	Key.space	n/a
337.297	0.105	674594	keystroke_p	p	n/a
337.387	0.075	674774	keystroke_e	e	n/a
337.792	0.075	675584	keystroke_t	t	n/a
338.002	0.135	676004	keystroke_e	e	n/a
338.107	0.075	676214	keystroke_r	r	n/a
338.272	0.09	676544	keystroke_s	s	n/a
338.407	0.045	676814	keystroke_b	b	n/a
338.587	0.06	677174	keystroke_u	u	n/a
338.662	0.06	677324	keystroke_r	r	n/a
338.857	0.06	677714	keystroke_g	g	n/a
339.067	0.09	678134	keystroke_Key.space	Key.space	n/a
339.292	0.06	678584	keystroke_o	o	n/a
339.397	0.09	678794	keystroke_w	w	n/a
339.547	0.075	679094	keystroke_n	n	n/a
339.637	0.105	679274	keystroke_e	e	n/a
339.727	0.09	679454	keystroke_r	r	n/a
340.9875	0.075	681975	keystroke_s	s	n/a
342.2615	0.09	684523	keystroke_Key.enter	Key.enter	n/a
342.36	5.86	684720	prompt	n/a	jersey thought noise floor\n
343.0275	0.06	686055	keystroke_j	j	n/a
343.1175	0.104	686235	keystroke_e	e	n/a
343.3575	0.074	686715	keystroke_r	r	n/a
343.5675	0.12	687135	keystroke_s	s	n/a
343.6725	0.09	687345	keystroke_e	e	n/a
343.8225	0.075	687645	keystroke_y	y	n/a
344.0765	0.076	688153	keystroke_Key.space	Key.space	n/a
344.2575	0.06	688515	keystroke_t	t	n/a
344.3325	0.06	688665	keystroke_h	h	n/a
344.5875	0.089	689175	keystroke_o	o	n/a
344.6925	0.075	689385	keystroke_u	u	n/a
344.8115	0.076	689623	keystroke_g	g	n/a
344.9475	0.0595	689895	keystroke_h	h	n/a
345.022	0.06	690044	keystroke_t	t	n/a
345.472	0.12	690944	keystroke_Key.space	Key.space	n/a
345.892	0.075	691784	keystroke_n	n	n/a
346.027	0.075	692054	keystroke_o	o	n/a
346.192	0.06	692384	keystroke_i	i	n/a
346.267	0.12	692534	keystroke_s	s	n/a
346.357	0.09	692714	keystroke_e	e	n/a
346.567	0.075	693134	keystroke_Key.space	Key.space	n/a
347.002	0.105	694004	keystroke_f	f	n/a
347.122	0.06	694244	keystroke_l	l	n/a
347.317	0.045	694634	keystroke_o	o	n/a
347.452	0.075	694904	keystroke_o	o	n/a
347.542	0.075	695084	keystroke_r	r	n/a
348.127	0.09	696254	keystroke_Key.enter	Key.enter	n/a
348.225	8.995	696450	prompt	n/a	nikon arts sing merge\n
349.042	0.075	698084	keystroke_n	n	n/a
349.507	0.045	699014	keystroke_i	i	n/a
349.762	0.06	699524	keystroke_k	k	n/a
349.9865	0.075	699973	keystroke_o	o	n/a
350.0915	0.09	700183	keystroke_n	n	n/a
350.4815	0.075	700963	keystroke_Key.space	Key.space	n/a
350.6175	0.179	701235	keystroke_a	a	n/a
350.7515	0.075	701503	keystroke_r	r	n/a
350.9315	0.0905	701863	keystroke_t	t	n/a
351.112	0.075	702224	keystroke_s	s	n/a
351.307	0.09	702614	keystroke_Key.space	Key.space	n/a
351.937	0.135	703874	keystroke_s	s	n/a
352.042	0.075	704084	keystroke_i	i	n/a
352.372	0.045	704744	keystroke_n	n	n/a
352.462	0.075	704924	keystroke_g	g	n/a
352.672	0.09	705344	keystroke_Key.space	Key.space	n/a
353.032	0.105	706064	keystroke_p	p	n/a
353.152	0.15	706304	keystroke_e	e	n/a
353.287	0.06	706574	keystroke_r	r	n/a
353.482	0.105	706964	keystroke_g	g	n/a
353.602	0.09	707204	keystroke_e	e	n/a
354.307	0.045	708614	keystroke_Key.backspace	Key.backspace	n/a
354.502	0.075	709004	keystroke_Key.backspace	Key.backspace	n/a
354.682	0.075	709364	keystroke_Key.backspace	Key.backspace	n/a
354.877	0.075	709754	keystroke_Key.backspace	Key.backspace	n/a
355.072	0.075	710144	keystroke_Key.backspace	Key.backspace	n/a
355.822	0.075	711644	keystroke_m	m	n/a
355.987	0.135	711974	keystroke_e	e	n/a
356.092	0.09	712184	keystroke_r	r	n/a
356.317	0.135	712634	keystroke_g	g	n/a
356.437	0.105	712874	keystroke_e	e	n/a
357.1425	0.075	714285	keystroke_Key.enter	Key.enter	n/a
357.224	14.801	714448	prompt	n/a	spouse annotation chevrolet claim\n
357.9075	0.105	715815	keystroke_s	s	n/a
358.0275	0.075	716055	keystroke_u	u	n/a
358.8225	0.075	717645	keystroke_Key.backspace	Key.backspace	n/a
359.1825	0.09	718365	keystroke_p	p	n/a
359.4525	0.075	718905	keystroke_o	o	n/a
359.5875	0.09	719175	keystroke_u	u	n/a
359.7375	0.12	719475	keystroke_s	s	n/a
359.8125	0.105	719625	keystroke_e	e	n/a
360.2025	0.105	720405	keystroke_Key.space	Key.space	n/a
360.6975	0.12	721395	keystroke_a	a	n/a
360.9525	0.0295	721905	keystroke_n	n	n/a
361.0715	0.09	722143	keystroke_n	n	n/a
361.2225	0.075	722445	keystroke_o	o	n/a
361.6115	0.09	723223	keystroke_t	t	n/a
361.8075	0.119	723615	keystroke_a	a	n/a
362.1215	0.075	724243	keystroke_t	t	n/a
362.2715	0.045	724543	keystroke_i	i	n/a
362.3025	0.119	724605	keystroke_o	o	n/a
362.4365	0.045	724873	keystroke_n	n	n/a
363.247	0.135	726494	keystroke_Key.space	Key.space	n/a
363.637	0.06	727274	keystroke_c	c	n/a
363.757	0.06	727514	keystroke_h	h	n/a
363.862	0.09	727724	keystroke_e	e	n/a
365.362	0.075	730724	keystroke_v	v	n/a
366.622	0.105	733244	keystroke_r	r	n/a
366.757	0.09	733514	keystroke_o	o	n/a
367.0415	0.09	734083	keystroke_l	l	n/a
367.1465	0.105	734293	keystroke_e	e	n/a
367.2215	0.105	734443	keystroke_t	t	n/a
367.6115	0.12	735223	keystroke_Key.space	Key.space	n/a
368.1065	0.075	736213	keystroke_c	c	n/a
368.2265	0.075	736453	keystroke_l	l	n/a
368.3915	0.12	736783	keystroke_a	a	n/a
368.5415	0.076	737083	keystroke_i	i	n/a
368.7515	0.0605	737503	keystroke_m	m	n/a
371.9955	0.027	743991	keystroke_Key.enter	Key.enter	n/a
372.0315	10.4495	744063	prompt	n/a	loss completion hosts travelers\n
372.772	0.075	745544	keystroke_l	l	n/a
372.997	0.06	745994	keystroke_o	o	n/a
373.087	0.12	746174	keystroke_s	s	n/a
373.162	0.105	746324	keystroke_e	e	n/a
373.507	0.09	747014	keystroke_Key.space	Key.space	n/a
374.902	0.09	749804	keystroke_Key.backspace	Key.backspace	n/a
375.547	0.075	751094	keystroke_Key.backspace	Key.backspace	n/a
375.877	0.12	751754	keystroke_s	s	n/a
376.402	0.165	752804	keystroke_Key.space	Key.space	n/a
376.792	0.09	753584	keystroke_c	c	n/a
376.897	0.0755	753794	keystroke_o	o	n/a
377.0475	0.135	754095	keystroke_m	m	n/a
377.2865	0.09	754573	keystroke_p	p	n/a
377.4515	0.09	754903	keystroke_l	l	n/a
377.6615	0.076	755323	keystroke_e	e	n/a
377.8565	0.076	755713	keystroke_t	t	n/a
378.0225	0.059	756045	keystroke_i	i	n/a
378.2765	0.076	756553	keystroke_o	o	n/a
378.3675	0.089	756735	keystroke_n	n	n/a
378.8465	0.09	757693	keystroke_Key.space	Key.space	n/a
379.2815	0.091	758563	keystroke_h	h	n/a
379.4025	0.06	758805	keystroke_o	o	n/a
379.5675	0.12	759135	keystroke_s	s	n/a
379.7315	0.031	759463	keystroke_t	t	n/a
379.8215	0.09	759643	keystroke_s	s	n/a
380.0465	0.105	760093	keystroke_Key.space	Key.space	n/a
380.6015	0.09	761203	keystroke_t	t	n/a
380.8415	0.09	761683	keystroke_r	r	n/a
380.9625	0.2395	761925	keystroke_a	a	n/a
381.157	0.09	762314	keystroke_v	v	n/a
381.307	0.09	762614	keystroke_e	e	n/a
381.442	0.09	762884	keystroke_l	l	n/a
381.547	0.105	763094	keystroke_e	e	n/a
381.637	0.075	763274	keystroke_r	r	n/a
381.787	0.075	763574	keystroke_s	s	n/a
382.357	0.12	764714	keystroke_Key.enter	Key.enter	n/a
382.4865	8.782	764973	prompt	n/a	chevrolet stanley missed icons\n
383.1075	0.0745	766215	keystroke_c	c	n/a
383.3315	0.06	766663	keystroke_h	h	n/a
383.5715	0.091	767143	keystroke_e	e	n/a
384.5015	0.061	769003	keystroke_v	v	n/a
384.7425	0.075	769485	keystroke_r	r	n/a
384.8325	0.06	769665	keystroke_o	o	n/a
385.1015	0.075	770203	keystroke_l	l	n/a
385.1925	0.075	770385	keystroke_e	e	n/a
385.2975	0.104	770595	keystroke_t	t	n/a
385.9415	0.105	771883	keystroke_Key.space	Key.space	n/a
386.2875	0.089	772575	keystroke_s	s	n/a
386.3625	0.075	772725	keystroke_t	t	n/a
386.5865	0.106	773173	keystroke_a	a	n/a
386.6765	0.075	773353	keystroke_n	n	n/a
386.9475	0.074	773895	keystroke_l	l	n/a
387.0815	0.075	774163	keystroke_e	e	n/a
387.2015	0.046	774403	keystroke_y	y	n/a
388.0415	0.105	776083	keystroke_Key.space	Key.space	n/a
388.6265	0.045	777253	keystroke_m	m	n/a
388.7765	0.061	777553	keystroke_i	i	n/a
388.9265	0.075	777853	keystroke_s	s	n/a
389.0915	0.075	778183	keystroke_s	s	n/a
389.2415	0.06	778483	keystroke_e	e	n/a
389.4215	0.076	778843	keystroke_d	d	n/a
389.6015	0.12	779203	keystroke_Key.space	Key.space	n/a
389.9315	0.06	779863	keystroke_i	i	n/a
390.1565	0.075	780313	keystroke_c	c	n/a
390.3215	0.075	780643	keystroke_o	o	n/a
390.4125	0.089	780825	keystroke_n	n	n/a
390.5315	0.075	781063	keystroke_s	s	n/a
391.1615	0.105	782323	keystroke_Key.enter	Key.enter	n/a
391.2725	8.6365	782545	prompt	n/a	gently landscapes opened relate\n
391.9715	0.0755	783943	keystroke_g	g	n/a
392.467	0.075	784934	keystroke_e	e	n/a
392.542	0.075	785084	keystroke_n	n	n/a
392.737	0.06	785474	keystroke_t	t	n/a
392.827	0.105	785654	keystroke_l	l	n/a
392.977	0.075	785954	keystroke_y	y	n/a
393.412	0.075	786824	keystroke_Key.space	Key.space	n/a
393.8315	0.061	787663	keystroke_l	l	n/a
393.9665	0.105	787933	keystroke_a	a	n/a
394.0425	0.089	788085	keystroke_n	n	n/a
394.1165	0.075	788233	keystroke_d	d	n/a
394.3415	0.12	788683	keystroke_s	s	n/a
394.5075	0.074	789015	keystroke_c	c	n/a
394.6415	0.09	789283	keystroke_a	a	n/a
394.7765	0.09	789553	keystroke_p	p	n/a
394.9115	0.06	789823	keystroke_e	e	n/a
395.2715	0.075	790543	keystroke_s	s	n/a
395.5265	0.105	791053	keystroke_Key.space	Key.space	n/a
395.9915	0.06	791983	keystroke_o	o	n/a
396.1715	0.09	792343	keystroke_p	p	n/a
396.2765	0.09	792553	keystroke_e	e	n/a
397.0715	0.06	794143	keystroke_n	n	n/a
397.2665	0.045	794533	keystroke_e	e	n/a
397.4015	0.06	794803	keystroke_d	d	n/a
397.6565	0.075	795313	keystroke_Key.space	Key.space	n/a
398.2565	0.09	796513	keystroke_r	r	n/a
398.3615	0.09	796723	keystroke_e	e	n/a
398.6015	0.06	797203	keystroke_l	l	n/a
398.9465	0.12	797893	keystroke_a	a	n/a
399.1715	0.09	798343	keystroke_t	t	n/a
399.2915	0.105	798583	keystroke_e	e	n/a
399.8315	0.075	799663	keystroke_Key.enter	Key.enter	n/a
399.915	6.114	799830	prompt	n/a	marked prayer viewers finals\n
400.6565	0.06	801313	keystroke_m	m	n/a
400.7465	0.135	801493	keystroke_a	a	n/a
400.8375	0.074	801675	keystroke_r	r	n/a
400.9565	0.075	801913	keystroke_k	k	n/a
401.0465	0.076	802093	keystroke_e	e	n/a
401.1965	0.09	802393	keystroke_d	d	n/a
401.4515	0.075	802903	keystroke_Key.space	Key.space	n/a
401.9165	0.09	803833	keystroke_p	p	n/a
402.0225	0.074	804045	keystroke_r	r	n/a
402.2015	0.105	804403	keystroke_a	a	n/a
402.3075	0.059	804615	keystroke_y	y	n/a
402.4115	0.09	804823	keystroke_e	e	n/a
402.4865	0.075	804973	keystroke_r	r	n/a
402.7865	0.09	805573	keystroke_Key.space	Key.space	n/a
403.1465	0.09	806293	keystroke_v	v	n/a
403.2515	0.06	806503	keystroke_i	i	n/a
403.3715	0.135	806743	keystroke_e	e	n/a
403.5075	0.089	807015	keystroke_w	w	n/a
403.7015	0.075	807403	keystroke_e	e	n/a
403.7615	0.075	807523	keystroke_r	r	n/a
403.9415	0.09	807883	keystroke_s	s	n/a
404.5715	0.105	809143	keystroke_Key.space	Key.space	n/a
404.6915	0.075	809383	keystroke_f	f	n/a
404.8115	0.06	809623	keystroke_i	i	n/a
404.9915	0.075	809983	keystroke_n	n	n/a
405.0965	0.12	810193	keystroke_a	a	n/a
405.2315	0.06	810463	keystroke_l	l	n/a
405.3065	0.075	810613	keystroke_s	s	n/a
405.9215	0.105	811843	keystroke_Key.enter	Key.enter	n/a
406.0395	16.7745	812079	prompt	n/a	always harper christianity items\n
406.5975	0.089	813195	keystroke_a	a	n/a
406.7165	0.075	813433	keystroke_l	l	n/a
406.8365	0.09	813673	keystroke_w	w	n/a
407.0165	0.151	814033	keystroke_a	a	n/a
407.1515	0.03	814303	keystroke_s	s	n/a
407.9615	0.03	815923	keystroke_Key.backspace	Key.backspace	n/a
407.9765	0.016	815953	keystroke_=	=	n/a
408.9065	0.045	817813	keystroke_Key.backspace	Key.backspace	n/a
409.0565	0.075	818113	keystroke_Key.backspace	Key.backspace	n/a
409.8065	0.12	819613	keystroke_a	a	n/a
409.9565	0.06	819913	keystroke_y	y	n/a
410.0465	0.091	820093	keystroke_s	s	n/a
410.4515	0.135	820903	keystroke_Key.space	Key.space	n/a
410.8715	0.046	821743	keystroke_h	h	n/a
411.0065	0.105	822013	keystroke_a	a	n/a
411.4265	0.075	822853	keystroke_r	r	n/a
411.6815	0.12	823363	keystroke_p	p	n/a
411.8915	0.105	823783	keystroke_e	e	n/a
411.9515	0.075	823903	keystroke_r	r	n/a
412.2065	0.106	824413	keystroke_Key.space	Key.space	n/a
412.5065	0.075	825013	keystroke_c	c	n/a
412.6115	0.045	825223	keystroke_h	h	n/a
413.0015	0.09	826003	keystroke_r	r	n/a
413.1365	0.075	826273	keystroke_i	i	n/a
413.3015	0.105	826603	keystroke_s	s	n/a
413.4815	0.075	826963	keystroke_t	t	n/a
413.5865	0.061	827173	keystroke_i	i	n/a
413.9615	0.136	827923	keystroke_a	a	n/a
414.0815	0.06	828163	keystroke_n	n	n/a
414.3065	0.09	828613	keystroke_i	i	n/a
414.4265	0.045	828853	keystroke_t	t	n/a
414.5315	0.075	829063	keystroke_y	y	n/a
414.8915	0.09	829783	keystroke_Key.space	Key.space	n/a
416.3625	0.104	832725	keystroke_Key.backspace	Key.backspace	n/a
416.5565	0.135	833113	keystroke_Key.backspace	Key.backspace	n/a
416.7065	0.135	833413	keystroke_Key.backspace	Key.backspace	n/a
416.9315	0.075	833863	keystroke_Key.backspace	Key.backspace	n/a
417.1115	0.09	834223	keystroke_Key.backspace	Key.backspace	n/a
417.2915	0.105	834583	keystroke_Key.backspace	Key.backspace	n/a
417.5015	0.09	835003	keystroke_Key.backspace	Key.backspace	n/a
417.6815	0.09	835363	keystroke_Key.backspace	Key.backspace	n/a
419.7375	0.074	839475	keystroke_t	t	n/a
419.9015	0.075	839803	keystroke_i	i	n/a
420.0815	0.106	840163	keystroke_a	a	n/a
420.1565	0.061	840313	keystroke_n	n	n/a
420.3375	0.075	840675	keystroke_i	i	n/a
420.4265	0.046	840853	keystroke_t	t	n/a
420.5165	0.076	841033	keystroke_y	y	n/a
420.7265	0.09	841453	keystroke_Key.space	Key.space	n/a
421.5825	0.044	843165	keystroke_i	i	n/a
421.672	0.09	843344	keystroke_t	t	n/a
421.822	0.075	843644	keystroke_e	e	n/a
421.972	0.075	843944	keystroke_m	m	n/a
422.107	0.06	844214	keystroke_s	s	n/a
422.722	0.09	845444	keystroke_Key.enter	Key.enter	n/a
422.819	10.3905	845638	prompt	n/a	valued pennsylvania link attitudes\n
423.502	0.075	847004	keystroke_v	v	n/a
423.637	0.135	847274	keystroke_a	a	n/a
423.757	0.09	847514	keystroke_l	l	n/a
423.892	0.075	847784	keystroke_u	u	n/a
423.982	0.075	847964	keystroke_e	e	n/a
424.237	0.075	848474	keystroke_d	d	n/a
424.432	0.12	848864	keystroke_Key.space	Key.space	n/a
424.687	0.1045	849374	keystroke_p	p	n/a
424.972	0.06	849944	keystroke_e	e	n/a
425.062	0.045	850124	keystroke_n	n	n/a
425.212	0.06	850424	keystroke_n	n	n/a
425.422	0.075	850844	keystroke_s	s	n/a
425.992	0.06	851984	keystroke_y	y	n/a
426.697	0.06	853394	keystroke_l	l	n/a
426.862	0.09	853724	keystroke_v	v	n/a
427.027	0.105	854054	keystroke_a	a	n/a
427.147	0.06	854294	keystroke_n	n	n/a
427.267	0.06	854534	keystroke_i	i	n/a
427.342	0.09	854684	keystroke_a	a	n/a
428.1215	0.105	856243	keystroke_Key.space	Key.space	n/a
428.4975	0.074	856995	keystroke_i	i	n/a
429.3965	0.075	858793	keystroke_Key.backspace	Key.backspace	n/a
430.0415	0.075	860083	keystroke_l	l	n/a
430.2065	0.075	860413	keystroke_i	i	n/a
430.3865	0.075	860773	keystroke_n	n	n/a
430.5215	0.075	861043	keystroke_k	k	n/a
430.9265	0.075	861853	keystroke_Key.space	Key.space	n/a
431.1225	0.149	862245	keystroke_a	a	n/a
431.3615	0.045	862723	keystroke_t	t	n/a
431.4965	0.045	862993	keystroke_t	t	n/a
431.7515	0.075	863503	keystroke_i	i	n/a
431.8865	0.06	863773	keystroke_t	t	n/a
432.0215	0.075	864043	keystroke_u	u	n/a
432.1115	0.045	864223	keystroke_d	d	n/a
432.2915	0.015	864583	keystroke_e	e	n/a
432.4415	0.06	864883	keystroke_s	s	n/a
433.102	0.105	866204	keystroke_Key.enter	Key.enter	n/a
433.2145	10.5245	866429	prompt	n/a	sharp samsung rarely soft\n
433.852	0.045	867704	keystroke_s	s	n/a
434.107	0.06	868214	keystroke_h	h	n/a
434.212	0.15	868424	keystroke_a	a	n/a
434.332	0.075	868664	keystroke_r	r	n/a
434.4515	0.09	868903	keystroke_p	p	n/a
434.8715	0.12	869743	keystroke_Key.space	Key.space	n/a
435.3815	0.09	870763	keystroke_s	s	n/a
435.6515	0.015	871303	keystroke_a	a	n/a
435.6815	0.045	871363	keystroke_m	m	n/a
435.9065	0.09	871813	keystroke_s	s	n/a
436.0865	0.045	872173	keystroke_u	u	n/a
436.4765	0.045	872953	keystroke_n	n	n/a
436.5365	0.045	873073	keystroke_g	g	n/a
436.9415	0.06	873883	keystroke_Key.space	Key.space	n/a
437.8875	0.134	875775	keystroke_r	r	n/a
437.9915	0.075	875983	keystroke_e	e	n/a
438.5625	0.119	877125	keystroke_r	r	n/a
438.6825	0.074	877365	keystroke_e	e	n/a
438.9065	0.09	877813	keystroke_l	l	n/a
439.0875	0.06	878175	keystroke_y	y	n/a
440.0615	0.045	880123	keystroke_Key.backspace	Key.backspace	n/a
440.2265	0.06	880453	keystroke_Key.backspace	Key.backspace	n/a
440.3765	0.09	880753	keystroke_Key.backspace	Key.backspace	n/a
440.5415	0.09	881083	keystroke_Key.backspace	Key.backspace	n/a
440.9165	0.09	881833	keystroke_Key.backspace	Key.backspace	n/a
441.0825	0.119	882165	keystroke_a	a	n/a
441.2765	0.105	882553	keystroke_r	r	n/a
441.3365	0.106	882673	keystroke_e	e	n/a
441.5615	0.12	883123	keystroke_l	l	n/a
441.7415	0.075	883483	keystroke_y	y	n/a
442.1915	0.12	884383	keystroke_Key.space	Key.space	n/a
442.4915	0.0905	884983	keystroke_s	s	n/a
442.792	0.045	885584	keystroke_o	o	n/a
442.897	0.06	885794	keystroke_f	f	n/a
443.062	0.075	886124	keystroke_t	t	n/a
443.6315	0.105	887263	keystroke_Key.enter	Key.enter	n/a
443.745	9.684	887490	prompt	n/a	attractive coupons engaged anchor\n
444.397	0.135	888794	keystroke_a	a	n/a
445.132	0.075	890264	keystroke_t	t	n/a
445.477	0.075	890954	keystroke_r	r	n/a
446.197	0.075	892394	keystroke_Key.backspace	Key.backspace	n/a
446.377	0.045	892754	keystroke_t	t	n/a
446.557	0.09	893114	keystroke_r	r	n/a
446.707	0.135	893414	keystroke_a	a	n/a
446.902	0.0745	893804	keystroke_c	c	n/a
447.1565	0.06	894313	keystroke_t	t	n/a
447.2315	0.06	894463	keystroke_i	i	n/a
447.3515	0.105	894703	keystroke_v	v	n/a
447.4715	0.09	894943	keystroke_e	e	n/a
447.8765	0.105	895753	keystroke_Key.space	Key.space	n/a
448.2515	0.075	896503	keystroke_c	c	n/a
448.4165	0.12	896833	keystroke_o	o	n/a
448.5665	0.09	897133	keystroke_u	u	n/a
448.8665	0.09	897733	keystroke_p	p	n/a
449.0765	0.075	898153	keystroke_o	o	n/a
449.2565	0.06	898513	keystroke_n	n	n/a
449.4965	0.09	898993	keystroke_s	s	n/a
449.7665	0.09	899533	keystroke_Key.space	Key.space	n/a
450.3065	0.075	900613	keystroke_e	e	n/a
450.5615	0.06	901123	keystroke_n	n	n/a
450.6815	0.09	901363	keystroke_g	g	n/a
450.8765	0.15	901753	keystroke_a	a	n/a
450.9815	0.12	901963	keystroke_g	g	n/a
451.1165	0.09	902233	keystroke_e	e	n/a
451.2815	0.075	902563	keystroke_d	d	n/a
451.4315	0.09	902863	keystroke_Key.space	Key.space	n/a
451.7765	0.12	903553	keystroke_a	a	n/a
452.1065	0.075	904213	keystroke_n	n	n/a
452.2565	0.075	904513	keystroke_c	c	n/a
452.3765	0.075	904753	keystroke_h	h	n/a
452.6015	0.045	905203	keystroke_o	o	n/a
452.6915	0.09	905383	keystroke_r	r	n/a
453.3365	0.09	906673	keystroke_Key.enter	Key.enter	n/a
453.4325	9.027	906865	prompt	n/a	shouldn't problems surgeon fridge\n
454.0565	0.075	908113	keystroke_s	s	n/a
454.1915	0.06	908383	keystroke_h	h	n/a
454.4615	0.106	908923	keystroke_o	o	n/a
454.5825	0.104	909165	keystroke_u	u	n/a
454.8065	0.075	909613	keystroke_l	l	n/a
454.9415	0.076	909883	keystroke_d	d	n/a
455.7365	0.075	911473	keystroke_n	n	n/a
455.9615	0.09	911923	keystroke_'	'	n/a
456.0225	0.074	912045	keystroke_t	t	n/a
456.5915	0.121	913183	keystroke_Key.space	Key.space	n/a
456.9225	0.12	913845	keystroke_p	p	n/a
457.0275	0.06	914055	keystroke_r	r	n/a
457.1025	0.104	914205	keystroke_o	o	n/a
457.3415	0.06	914683	keystroke_b	b	n/a
457.8375	0.089	915675	keystroke_l	l	n/a
457.9575	0.075	915915	keystroke_e	e	n/a
458.0625	0.089	916125	keystroke_m	m	n/a
458.2425	0.075	916485	keystroke_s	s	n/a
458.5265	0.105	917053	keystroke_Key.space	Key.space	n/a
458.8575	0.105	917715	keystroke_s	s	n/a
459.0665	0.06	918133	keystroke_u	u	n/a
459.1415	0.075	918283	keystroke_r	r	n/a
459.8165	0.09	919633	keystroke_g	g	n/a
459.9665	0.09	919933	keystroke_e	e	n/a
460.1465	0.075	920293	keystroke_o	o	n/a
460.2665	0.0905	920533	keystroke_n	n	n/a
460.7315	0.105	921463	keystroke_Key.space	Key.space	n/a
461.1065	0.06	922213	keystroke_f	f	n/a
461.2715	0.075	922543	keystroke_r	r	n/a
461.3915	0.09	922783	keystroke_i	i	n/a
461.4665	0.075	922933	keystroke_d	d	n/a
461.6315	0.12	923263	keystroke_g	g	n/a
461.7215	0.12	923443	keystroke_e	e	n/a
462.367	0.09	924734	keystroke_Key.enter	Key.enter	n/a
462.464	9.715	924928	prompt	n/a	presentation anchor functions incident\n
463.177	0.075	926354	keystroke_p	p	n/a
463.237	0.135	926474	keystroke_r	r	n/a
463.342	0.09	926684	keystroke_e	e	n/a
463.552	0.15	927104	keystroke_s	s	n/a
463.672	0.1045	927344	keystroke_e	e	n/a
463.7915	0.06	927583	keystroke_n	n	n/a
463.9865	0.075	927973	keystroke_t	t	n/a
464.1225	0.149	928245	keystroke_a	a	n/a
464.3015	0.09	928603	keystroke_t	t	n/a
464.4375	0.089	928875	keystroke_i	i	n/a
464.5415	0.12	929083	keystroke_o	o	n/a
464.6465	0.105	929293	keystroke_n	n	n/a
464.9765	0.105	929953	keystroke_Key.space	Key.space	n/a
465.4265	0.12	930853	keystroke_a	a	n/a
465.5915	0.075	931183	keystroke_h	h	n/a
466.6865	0.075	933373	keystroke_Key.backspace	Key.backspace	n/a
467.077	0.06	934154	keystroke_n	n	n/a
467.257	0.06	934514	keystroke_c	c	n/a
467.362	0.06	934724	keystroke_h	h	n/a
467.602	0.045	935204	keystroke_o	o	n/a
467.692	0.06	935384	keystroke_r	r	n/a
468.157	0.105	936314	keystroke_Key.space	Key.space	n/a
468.337	0.105	936674	keystroke_f	f	n/a
468.697	0.06	937394	keystroke_u	u	n/a
469.012	0.06	938024	keystroke_n	n	n/a
469.072	0.06	938144	keystroke_c	c	n/a
469.342	0.075	938684	keystroke_t	t	n/a
469.447	0.105	938894	keystroke_i	i	n/a
469.567	0.09	939134	keystroke_o	o	n/a
469.627	0.12	939254	keystroke_n	n	n/a
469.822	0.09	939644	keystroke_s	s	n/a
470.092	0.09	940184	keystroke_Key.space	Key.space	n/a
470.482	0.045	940964	keystroke_i	i	n/a
470.602	0.06	941204	keystroke_n	n	n/a
470.707	0.105	941414	keystroke_c	c	n/a
470.887	0.06	941774	keystroke_i	i	n/a
470.992	0.09	941984	keystroke_d	d	n/a
471.202	0.075	942404	keystroke_e	e	n/a
471.382	0.075	942764	keystroke_n	n	n/a
471.547	0.06	943094	keystroke_t	t	n/a
472.102	0.075	944204	keystroke_Key.enter	Key.enter	n/a
472.185	9.129	944370	prompt	n/a	chosen shuttle altered screenshots\n
472.9865	0.075	945973	keystroke_c	c	n/a
473.0915	0.06	946183	keystroke_h	h	n/a
473.3165	0.045	946633	keystroke_o	o	n/a
473.4065	0.135	946813	keystroke_s	s	n/a
473.4965	0.09	946993	keystroke_e	e	n/a
473.8115	0.06	947623	keystroke_n	n	n/a
474.1415	0.06	948283	keystroke_Key.space	Key.space	n/a
474.4865	0.09	948973	keystroke_s	s	n/a
474.5915	0.045	949183	keystroke_h	h	n/a
475.3715	0.06	950743	keystroke_u	u	n/a
475.6115	0.045	951223	keystroke_t	t	n/a
475.7465	0.075	951493	keystroke_t	t	n/a
476.0015	0.06	952003	keystroke_l	l	n/a
476.0465	0.075	952093	keystroke_e	e	n/a
476.4515	0.09	952903	keystroke_Key.space	Key.space	n/a
476.9465	0.105	953893	keystroke_a	a	n/a
477.0665	0.06	954133	keystroke_l	l	n/a
477.2315	0.091	954463	keystroke_t	t	n/a
477.4265	0.075	954853	keystroke_e	e	n/a
477.5175	0.105	955035	keystroke_r	r	n/a
477.6375	0.075	955275	keystroke_e	e	n/a
477.8015	0.075	955603	keystroke_d	d	n/a
478.0565	0.105	956113	keystroke_Key.space	Key.space	n/a
478.3575	0.089	956715	keystroke_s	s	n/a
478.5065	0.06	957013	keystroke_c	c	n/a
478.8975	0.06	957795	keystroke_r	r	n/a
479.0625	0.059	958125	keystroke_e	e	n/a
479.2275	0.059	958455	keystroke_e	e	n/a
479.3165	0.091	958633	keystroke_n	n	n/a
479.9015	0.091	959803	keystroke_s	s	n/a
479.9775	0.09	959955	keystroke_h	h	n/a
480.1415	0.061	960283	keystroke_o	o	n/a
480.1865	0.076	960373	keystroke_t	t	n/a
480.3665	0.076	960733	keystroke_s	s	n/a
481.2215	0.09	962443	keystroke_Key.enter	Key.enter	n/a
481.3185	7.81	962637	prompt	n/a	completing bahamas debt holds\n
481.9875	0.059	963975	keystroke_c	c	n/a
482.0915	0.075	964183	keystroke_o	o	n/a
482.3165	0.09	964633	keystroke_m	m	n/a
482.5115	0.091	965023	keystroke_p	p	n/a
482.9015	0.06	965803	keystroke_l	l	n/a
482.9765	0.12	965953	keystroke_e	e	n/a
483.1115	0.09	966223	keystroke_t	t	n/a
483.2615	0.06	966523	keystroke_i	i	n/a
483.3665	0.06	966733	keystroke_n	n	n/a
483.412	0.0595	966824	keystroke_g	g	n/a
483.7715	0.075	967543	keystroke_Key.space	Key.space	n/a
484.2825	0.059	968565	keystroke_b	b	n/a
484.6415	0.105	969283	keystroke_a	a	n/a
484.8815	0.045	969763	keystroke_h	h	n/a
485.0015	0.105	970003	keystroke_a	a	n/a
485.3615	0.06	970723	keystroke_m	m	n/a
485.4965	0.105	970993	keystroke_a	a	n/a
485.6915	0.09	971383	keystroke_s	s	n/a
486.0065	0.12	972013	keystroke_Key.space	Key.space	n/a
486.5015	0.06	973003	keystroke_d	d	n/a
486.6815	0.0755	973363	keystroke_e	e	n/a
486.8315	0.06	973663	keystroke_b	b	n/a
486.9215	0.075	973843	keystroke_t	t	n/a
487.4915	0.12	974983	keystroke_Key.space	Key.space	n/a
487.8665	0.075	975733	keystroke_h	h	n/a
488.0015	0.075	976003	keystroke_o	o	n/a
488.2115	0.075	976423	keystroke_l	l	n/a
488.3165	0.075	976633	keystroke_d	d	n/a
488.4365	0.106	976873	keystroke_s	s	n/a
489.0215	0.105	978043	keystroke_Key.enter	Key.enter	n/a
489.1335	6.715	978267	prompt	n/a	edition wedding golden ohio\n
489.8025	0.044	979605	keystroke_e	e	n/a
489.9825	0.074	979965	keystroke_d	d	n/a
490.1015	0.06	980203	keystroke_i	i	n/a
490.2515	0.061	980503	keystroke_t	t	n/a
490.3265	0.106	980653	keystroke_i	i	n/a
490.4175	0.12	980835	keystroke_o	o	n/a
490.4915	0.105	980983	keystroke_n	n	n/a
490.9715	0.09	981943	keystroke_Key.space	Key.space	n/a
491.2265	0.075	982453	keystroke_w	w	n/a
491.3325	0.075	982665	keystroke_e	e	n/a
491.5565	0.045	983113	keystroke_d	d	n/a
491.7065	0.075	983413	keystroke_d	d	n/a
491.8865	0.091	983773	keystroke_i	i	n/a
492.0215	0.075	984043	keystroke_n	n	n/a
492.1415	0.075	984283	keystroke_g	g	n/a
492.6965	0.105	985393	keystroke_Key.space	Key.space	n/a
493.1165	0.06	986233	keystroke_g	g	n/a
493.2225	0.075	986445	keystroke_o	o	n/a
493.4625	0.074	986925	keystroke_l	l	n/a
493.5825	0.075	987165	keystroke_d	d	n/a
493.7915	0.06	987583	keystroke_e	e	n/a
493.8825	0.044	987765	keystroke_n	n	n/a
494.1065	0.105	988213	keystroke_Key.space	Key.space	n/a
494.542	0.06	989084	keystroke_o	o	n/a
494.632	0.09	989264	keystroke_h	h	n/a
494.857	0.09	989714	keystroke_i	i	n/a
495.127	0.0145	990254	keystroke_o	o	n/a
495.7565	0.09	991513	keystroke_Key.enter	Key.enter	n/a
495.853	7.331	991706	prompt	n/a	brakes beans haven't ncaa\n
496.6415	0.0605	993283	keystroke_b	b	n/a
496.7315	0.0905	993463	keystroke_r	r	n/a
496.8515	0.12	993703	keystroke_a	a	n/a
497.0765	0.06	994153	keystroke_k	k	n/a
497.212	0.135	994424	keystroke_e	e	n/a
497.542	0.06	995084	keystroke_s	s	n/a
497.902	0.075	995804	keystroke_Key.space	Key.space	n/a
498.622	0.0445	997244	keystroke_b	b	n/a
498.697	0.0595	997394	keystroke_e	e	n/a
498.8615	0.09	997723	keystroke_a	a	n/a
498.9665	0.0455	997933	keystroke_n	n	n/a
499.0715	0.075	998143	keystroke_s	s	n/a
499.3265	0.0905	998653	keystroke_Key.space	Key.space	n/a
499.822	0.0595	999644	keystroke_h	h	n/a
499.972	0.1645	999944	keystroke_a	a	n/a
500.1215	0.105	1000243	keystroke_v	v	n/a
500.2415	0.09	1000483	keystroke_e	e	n/a
500.5865	0.075	1001173	keystroke_n	n	n/a
501.1565	0.09	1002313	keystroke_'	'	n/a
501.2315	0.075	1002463	keystroke_t	t	n/a
501.472	0.0745	1002944	keystroke_Key.space	Key.space	n/a
501.9965	0.06	1003993	keystroke_n	n	n/a
502.1765	0.06	1004353	keystroke_c	c	n/a
502.3865	0.06	1004773	keystroke_a	a	n/a
502.5515	0.075	1005103	keystroke_a	a	n/a
503.1215	0.06	1006243	keystroke_Key.enter	Key.enter	n/a
503.1905	25.1185	1006381	prompt	n/a	metal specialties diabetes stem\n
504.0365	0.075	1008073	keystroke_m	m	n/a
504.1715	0.06	1008343	keystroke_e	e	n/a
504.3815	0.06	1008763	keystroke_t	t	n/a
504.5765	0.075	1009153	keystroke_a	a	n/a
504.7115	0.06	1009423	keystroke_l	l	n/a
505.072	0.12	1010144	keystroke_Key.space	Key.space	n/a
505.312	0.0895	1010624	keystroke_s	s	n/a
505.4325	0.089	1010865	keystroke_p	p	n/a
505.5665	0.06	1011133	keystroke_e	e	n/a
505.7765	0.06	1011553	keystroke_c	c	n/a
505.9115	0.045	1011823	keystroke_i	i	n/a
506.0165	0.105	1012033	keystroke_a	a	n/a
506.1365	0.06	1012273	keystroke_l	l	n/a
506.2565	0.075	1012513	keystroke_i	i	n/a
506.3615	0.075	1012723	keystroke_t	t	n/a
506.4815	0.045	1012963	keystroke_i	i	n/a
506.5715	0.06	1013143	keystroke_e	e	n/a
506.7375	0.074	1013475	keystroke_s	s	n/a
507.0965	0.09	1014193	keystroke_Key.space	Key.space	n/a
507.9215	0.061	1015843	keystroke_d	d	n/a
508.9865	0.06	1017973	keystroke_Key.backspace	Key.backspace	n/a
509.1215	0.09	1018243	keystroke_Key.backspace	Key.backspace	n/a
509.2865	0.105	1018573	keystroke_Key.backspace	Key.backspace	n/a
509.4815	0.09	1018963	keystroke_Key.backspace	Key.backspace	n/a
509.6915	0.06	1019383	keystroke_Key.backspace	Key.backspace	n/a
510.0065	0.075	1020013	keystroke_Key.backspace	Key.backspace	n/a
510.2015	0.09	1020403	keystroke_Key.backspace	Key.backspace	n/a
511.2365	0.045	1022473	keystroke_i	i	n/a
511.3715	0.075	1022743	keystroke_t	t	n/a
511.4765	0.045	1022953	keystroke_i	i	n/a
511.5675	0.059	1023135	keystroke_e	e	n/a
511.7315	0.076	1023463	keystroke_s	s	n/a
511.8965	0.06	1023793	keystroke_Key.space	Key.space	n/a
517.5555	0.012	1035111	keystroke_=	=	n/a
517.747	0.06	1035494	keystroke_=	=	n/a
518.482	0.09	1036964	keystroke_Key.backspace	Key.backspace	n/a
518.677	0.09	1037354	keystroke_Key.backspace	Key.backspace	n/a
518.8565	0.105	1037713	keystroke_Key.backspace	Key.backspace	n/a
519.0365	0.105	1038073	keystroke_Key.backspace	Key.backspace	n/a
519.2165	0.105	1038433	keystroke_Key.backspace	Key.backspace	n/a
519.3965	0.09	1038793	keystroke_Key.backspace	Key.backspace	n/a
519.5765	0.075	1039153	keystroke_Key.backspace	Key.backspace	n/a
519.7715	0.075	1039543	keystroke_Key.backspace	Key.backspace	n/a
520.3565	0.06	1040713	keystroke_t	t	n/a
521.2115	0.06	1042423	keystroke_i	i	n/a
521.3475	0.059	1042695	keystroke_e	e	n/a
521.5115	0.075	1043023	keystroke_s	s	n/a
521.6915	0.09	1043383	keystroke_Key.space	Key.space	n/a
522.3965	0.075	1044793	keystroke_d	d	n/a
522.6365	0.015	1045273	keystroke_e	e	n/a
523.6415	0.09	1047283	keystroke_Key.backspace	Key.backspace	n/a
523.9875	0.059	1047975	keystroke_i	i	n/a
524.1065	0.105	1048213	keystroke_a	a	n/a
524.5415	0.06	1049083	keystroke_b	b	n/a
524.7815	0.09	1049563	keystroke_e	e	n/a
525.1865	0.06	1050373	keystroke_t	t	n/a
525.3365	0.075	1050673	keystroke_e	e	n/a
525.5165	0.075	1051033	keystroke_s	s	n/a
525.6965	0.075	1051393	keystroke_Key.space	Key.space	n/a
525.9065	0.09	1051813	keystroke_s	s	n/a
526.0565	0.09	1052113	keystroke_t	t	n/a
526.1915	0.075	1052383	keystroke_e	e	n/a
526.3265	0.075	1052653	keystroke_m	m	n/a
528.2315	0.075	1056463	keystroke_Key.enter	Key.enter	n/a
528.3145	6.759	1056629	prompt	n/a	years urls father chances\n
529.0125	0.059	1058025	keystroke_y	y	n/a
529.0865	0.075	1058173	keystroke_e	e	n/a
529.2515	0.12	1058503	keystroke_a	a	n/a
529.3265	0.09	1058653	keystroke_r	r	n/a
529.4915	0.09	1058983	keystroke_s	s	n/a
529.6115	0.075	1059223	keystroke_Key.space	Key.space	n/a
529.837	0.06	1059674	keystroke_u	u	n/a
529.942	0.075	1059884	keystroke_r	r	n/a
530.137	0.06	1060274	keystroke_l	l	n/a
530.212	0.075	1060424	keystroke_s	s	n/a
530.782	0.09	1061564	keystroke_Key.space	Key.space	n/a
530.932	0.135	1061864	keystroke_f	f	n/a
531.068	0.164	1062136	keystroke_a	a	n/a
531.247	0.075	1062494	keystroke_t	t	n/a
531.367	0.075	1062734	keystroke_h	h	n/a
531.442	0.09	1062884	keystroke_e	e	n/a
531.517	0.09	1063034	keystroke_r	r	n/a
531.682	0.06	1063364	keystroke_Key.space	Key.space	n/a
531.937	0.075	1063874	keystroke_c	c	n/a
532.042	0.075	1064084	keystroke_h	h	n/a
532.177	0.135	1064354	keystroke_a	a	n/a
532.327	0.06	1064654	keystroke_n	n	n/a
532.417	0.135	1064834	keystroke_c	c	n/a
532.537	0.09	1065074	keystroke_e	e	n/a
534.8805	0.026	1069761	keystroke_s	s	n/a
534.9965	0.075	1069993	keystroke_Key.enter	Key.enter	n/a
535.0795	11.4995	1070159	prompt	n/a	electoral hundred practitioners math\n
535.7765	0.075	1071553	keystroke_e	e	n/a
536.0615	0.06	1072123	keystroke_l	l	n/a
536.4815	0.075	1072963	keystroke_e	e	n/a
536.6615	0.075	1073323	keystroke_x	x	n/a
536.9025	0.075	1073805	keystroke_t	t	n/a
537.1865	0.06	1074373	keystroke_r	r	n/a
538.1465	0.06	1076293	keystroke_Key.backspace	Key.backspace	n/a
538.3265	0.075	1076653	keystroke_Key.backspace	Key.backspace	n/a
538.5365	0.075	1077073	keystroke_Key.backspace	Key.backspace	n/a
538.9415	0.061	1077883	keystroke_c	c	n/a
539.1515	0.075	1078303	keystroke_t	t	n/a
539.3325	0.059	1078665	keystroke_o	o	n/a
539.4365	0.075	1078873	keystroke_r	r	n/a
539.5865	0.105	1079173	keystroke_a	a	n/a
539.6615	0.091	1079323	keystroke_l	l	n/a
540.3965	0.09	1080793	keystroke_Key.space	Key.space	n/a
540.6665	0.061	1081333	keystroke_h	h	n/a
540.8775	0.045	1081755	keystroke_u	u	n/a
541.0875	0.059	1082175	keystroke_n	n	n/a
541.1775	0.09	1082355	keystroke_d	d	n/a
541.4025	0.105	1082805	keystroke_r	r	n/a
541.4765	0.09	1082953	keystroke_e	e	n/a
541.6575	0.075	1083315	keystroke_d	d	n/a
541.8515	0.106	1083703	keystroke_Key.space	Key.space	n/a
542.3015	0.076	1084603	keystroke_p	p	n/a
542.4075	0.075	1084815	keystroke_r	r	n/a
542.5565	0.135	1085113	keystroke_a	a	n/a
543.2315	0.061	1086463	keystroke_c	c	n/a
543.4715	0.075	1086943	keystroke_t	t	n/a
543.6365	0.045	1087273	keystroke_i	i	n/a
543.7865	0.06	1087573	keystroke_t	t	n/a
543.8915	0.136	1087783	keystroke_i	i	n/a
544.0415	0.105	1088083	keystroke_o	o	n/a
544.1165	0.105	1088233	keystroke_n	n	n/a
544.2075	0.089	1088415	keystroke_e	e	n/a
544.2825	0.074	1088565	keystroke_r	r	n/a
544.4315	0.09	1088863	keystroke_s	s	n/a
545.1965	0.105	1090393	keystroke_Key.space	Key.space	n/a
545.4515	0.076	1090903	keystroke_m	m	n/a
545.5725	0.089	1091145	keystroke_a	a	n/a
545.7525	0.06	1091505	keystroke_t	t	n/a
545.8425	0.074	1091685	keystroke_h	h	n/a
546.4865	0.09	1092973	keystroke_Key.enter	Key.enter	n/a
546.585	6.4745	1093170	prompt	n/a	breach does faces perform\n
547.2525	0.044	1094505	keystroke_b	b	n/a
547.3125	0.075	1094625	keystroke_r	r	n/a
547.5375	0.074	1095075	keystroke_e	e	n/a
547.7175	0.119	1095435	keystroke_a	a	n/a
547.8965	0.076	1095793	keystroke_c	c	n/a
548.0175	0.06	1096035	keystroke_h	h	n/a
548.4065	0.075	1096813	keystroke_Key.space	Key.space	n/a
548.9615	0.046	1097923	keystroke_d	d	n/a
549.5615	0.061	1099123	keystroke_o	o	n/a
549.7425	0.075	1099485	keystroke_e	e	n/a
549.8925	0.09	1099785	keystroke_s	s	n/a
550.0865	0.09	1100173	keystroke_Key.space	Key.space	n/a
550.4475	0.075	1100895	keystroke_f	f	n/a
550.6575	0.135	1101315	keystroke_a	a	n/a
550.8525	0.119	1101705	keystroke_c	c	n/a
550.9575	0.089	1101915	keystroke_e	e	n/a
551.1515	0.12	1102303	keystroke_Key.space	Key.space	n/a
551.3915	0.076	1102783	keystroke_p	p	n/a
551.4975	0.09	1102995	keystroke_e	e	n/a
551.5725	0.105	1103145	keystroke_r	r	n/a
551.7975	0.09	1103595	keystroke_f	f	n/a
551.9315	0.075	1103863	keystroke_o	o	n/a
552.0675	0.06	1104135	keystroke_r	r	n/a
552.1725	0.075	1104345	keystroke_m	m	n/a
552.9665	0.091	1105933	keystroke_Key.enter	Key.enter	n/a
553.0645	9.385	1106129	prompt	n/a	buck cream placement committees\n
554.0315	0.031	1108063	keystroke_b	b	n/a
554.2275	0.0585	1108455	keystroke_u	u	n/a
554.4375	0.059	1108875	keystroke_c	c	n/a
554.542	0.06	1109084	keystroke_k	k	n/a
555.156	0.076	1110312	keystroke_Key.space	Key.space	n/a
555.262	0.075	1110524	keystroke_c	c	n/a
555.472	0.1355	1110944	keystroke_r	r	n/a
555.577	0.075	1111154	keystroke_e	e	n/a
555.6975	0.1045	1111395	keystroke_a	a	n/a
555.832	0.09	1111664	keystroke_m	m	n/a
556.641	0.0755	1113282	keystroke_Key.space	Key.space	n/a
556.8665	0.105	1113733	keystroke_p	p	n/a
557.1215	0.06	1114243	keystroke_l	l	n/a
557.1665	0.15	1114333	keystroke_a	a	n/a
557.2715	0.15	1114543	keystroke_c	c	n/a
557.3915	0.09	1114783	keystroke_e	e	n/a
557.6765	0.0755	1115353	keystroke_m	m	n/a
557.7665	0.0605	1115533	keystroke_e	e	n/a
557.8865	0.0455	1115773	keystroke_n	n	n/a
557.9615	0.0755	1115923	keystroke_t	t	n/a
559.4465	0.09	1118893	keystroke_Key.space	Key.space	n/a
560.287	0.105	1120574	keystroke_c	c	n/a
560.422	0.075	1120844	keystroke_o	o	n/a
560.647	0.045	1121294	keystroke_m	m	n/a
560.737	0.09	1121474	keystroke_m	m	n/a
560.992	0.045	1121984	keystroke_i	i	n/a
561.157	0.03	1122314	keystroke_t	t	n/a
561.292	0.06	1122584	keystroke_t	t	n/a
561.457	0.06	1122914	keystroke_e	e	n/a
561.622	0.045	1123244	keystroke_e	e	n/a
561.7865	0.0905	1123573	keystroke_s	s	n/a
562.3415	0.105	1124683	keystroke_Key.enter	Key.enter	n/a
562.4555	7.8535	1124911	prompt	n/a	hang navigation keep methodology\n
563.1675	0.044	1126335	keystroke_h	h	n/a
563.3775	0.12	1126755	keystroke_a	a	n/a
563.4815	0.076	1126963	keystroke_n	n	n/a
563.5725	0.075	1127145	keystroke_g	g	n/a
563.8565	0.06	1127713	keystroke_Key.space	Key.space	n/a
564.187	0.06	1128374	keystroke_n	n	n/a
564.262	0.165	1128524	keystroke_a	a	n/a
564.502	0.09	1129004	keystroke_v	v	n/a
564.832	0.075	1129664	keystroke_i	i	n/a
564.937	0.06	1129874	keystroke_g	g	n/a
565.072	0.12	1130144	keystroke_a	a	n/a
565.312	0.06	1130624	keystroke_t	t	n/a
565.402	0.075	1130804	keystroke_i	i	n/a
565.522	0.09	1131044	keystroke_o	o	n/a
565.567	0.12	1131134	keystroke_n	n	n/a
565.972	0.075	1131944	keystroke_Key.space	Key.space	n/a
566.242	0.06	1132484	keystroke_k	k	n/a
566.317	0.075	1132634	keystroke_e	e	n/a
566.482	0.075	1132964	keystroke_e	e	n/a
566.572	0.09	1133144	keystroke_p	p	n/a
566.8115	0.09	1133623	keystroke_Key.space	Key.space	n/a
567.0375	0.089	1134075	keystroke_m	m	n/a
567.0965	0.075	1134193	keystroke_e	e	n/a
567.2465	0.09	1134493	keystroke_t	t	n/a
567.3815	0.046	1134763	keystroke_h	h	n/a
567.6065	0.06	1135213	keystroke_o	o	n/a
568.5525	0.089	1137105	keystroke_d	d	n/a
568.8665	0.06	1137733	keystroke_o	o	n/a
569.1365	0.075	1138273	keystroke_l	l	n/a
569.3165	0.061	1138633	keystroke_o	o	n/a
569.3915	0.09	1138783	keystroke_g	g	n/a
569.4965	0.09	1138993	keystroke_y	y	n/a
570.2165	0.09	1140433	keystroke_Key.enter	Key.enter	n/a
570.3145	8.079	1140629	prompt	n/a	avon tables medicaid assured\n
570.9525	0.12	1141905	keystroke_a	a	n/a
571.0875	0.074	1142175	keystroke_v	v	n/a
571.2515	0.076	1142503	keystroke_o	o	n/a
571.3575	0.075	1142715	keystroke_n	n	n/a
571.6715	0.09	1143343	keystroke_Key.space	Key.space	n/a
571.8815	0.091	1143763	keystroke_t	t	n/a
572.0315	0.105	1144063	keystroke_a	a	n/a
572.1215	0.075	1144243	keystroke_b	b	n/a
572.3165	0.061	1144633	keystroke_l	l	n/a
572.3775	0.045	1144755	keystroke_e	e	n/a
572.5575	0.044	1145115	keystroke_s	s	n/a
572.946	0.135	1145892	keystroke_Key.space	Key.space	n/a
573.412	0.0755	1146824	keystroke_m	m	n/a
573.532	0.044	1147064	keystroke_e	e	n/a
573.727	0.075	1147454	keystroke_d	d	n/a
573.847	0.075	1147694	keystroke_i	i	n/a
573.967	0.105	1147934	keystroke_c	c	n/a
574.087	0.105	1148174	keystroke_a	a	n/a
574.612	0.06	1149224	keystroke_i	i	n/a
574.702	0.09	1149404	keystroke_d	d	n/a
574.912	0.075	1149824	keystroke_Key.space	Key.space	n/a
576.967	0.075	1153934	keystroke_a	a	n/a
577.147	0.075	1154294	keystroke_s	s	n/a
577.282	0.09	1154564	keystroke_s	s	n/a
577.417	0.045	1154834	keystroke_u	u	n/a
577.507	0.105	1155014	keystroke_r	r	n/a
577.597	0.09	1155194	keystroke_e	e	n/a
577.762	0.075	1155524	keystroke_d	d	n/a
578.302	0.09	1156604	keystroke_Key.enter	Key.enter	n/a
578.3975	15.762	1156795	prompt	n/a	rats seattle spotlight bracket\n
579.067	0.075	1158134	keystroke_r	r	n/a
579.202	0.105	1158404	keystroke_a	a	n/a
579.547	0.03	1159094	keystroke_t	t	n/a
579.922	0.075	1159844	keystroke_a	a	n/a
580.777	0.045	1161554	keystroke_Key.backspace	Key.backspace	n/a
580.912	0.06	1161824	keystroke_s	s	n/a
581.197	0.09	1162394	keystroke_Key.space	Key.space	n/a
581.527	0.09	1163054	keystroke_s	s	n/a
581.662	0.075	1163324	keystroke_e	e	n/a
581.827	0.1195	1163654	keystroke_a	a	n/a
582.0665	0.015	1164133	keystroke_t	t	n/a
582.157	0.0745	1164314	keystroke_t	t	n/a
582.442	0.075	1164884	keystroke_l	l	n/a
582.5015	0.0755	1165003	keystroke_e	e	n/a
582.7715	0.075	1165543	keystroke_Key.space	Key.space	n/a
583.1915	0.09	1166383	keystroke_s	s	n/a
583.2965	0.06	1166593	keystroke_p	p	n/a
583.5065	0.075	1167013	keystroke_o	o	n/a
583.5665	0.06	1167133	keystroke_t	t	n/a
584.0165	0.09	1168033	keystroke_l	l	n/a
584.2115	0.075	1168423	keystroke_i	i	n/a
584.4215	0.06	1168843	keystroke_h	h	n/a
584.4965	0.06	1168993	keystroke_t	t	n/a
585.3365	0.075	1170673	keystroke_Key.backspace	Key.backspace	n/a
585.5165	0.06	1171033	keystroke_Key.backspace	Key.backspace	n/a
585.6815	0.06	1171363	keystroke_Key.backspace	Key.backspace	n/a
585.8465	0.03	1171693	keystroke_Key.backspace	Key.backspace	n/a
587.4215	0.0755	1174843	keystroke_l	l	n/a
587.572	0.06	1175144	keystroke_i	i	n/a
587.692	0.075	1175384	keystroke_g	g	n/a
587.827	0.075	1175654	keystroke_h	h	n/a
587.932	0.06	1175864	keystroke_t	t	n/a
588.621	0.12	1177242	keystroke_Key.space	Key.space	n/a
589.266	0.0615	1178532	keystroke_b	b	n/a
589.3275	0.075	1178655	keystroke_r	r	n/a
589.491	0.151	1178982	keystroke_a	a	n/a
589.672	0.105	1179344	keystroke_c	c	n/a
589.807	0.09	1179614	keystroke_e	e	n/a
590.347	0.059	1180694	keystroke_k	k	n/a
590.961	0.075	1181922	keystroke_Key.backspace	Key.backspace	n/a
591.336	0.06	1182672	keystroke_Key.backspace	Key.backspace	n/a
593.017	0.059	1186034	keystroke_k	k	n/a
593.197	0.06	1186394	keystroke_e	e	n/a
593.361	0.075	1186722	keystroke_t	t	n/a
594.052	0.105	1188104	keystroke_Key.enter	Key.enter	n/a
594.165	7.8235	1188330	prompt	n/a	picture choose assurance bulgarian\n
594.907	0.09	1189814	keystroke_p	p	n/a
595.192	0.06	1190384	keystroke_i	i	n/a
595.282	0.09	1190564	keystroke_c	c	n/a
595.537	0.075	1191074	keystroke_t	t	n/a
595.657	0.06	1191314	keystroke_u	u	n/a
595.747	0.135	1191494	keystroke_r	r	n/a
595.852	0.09	1191704	keystroke_e	e	n/a
596.137	0.075	1192274	keystroke_Key.space	Key.space	n/a
596.437	0.06	1192874	keystroke_c	c	n/a
596.527	0.045	1193054	keystroke_h	h	n/a
596.782	0.06	1193564	keystroke_o	o	n/a
596.902	0.075	1193804	keystroke_o	o	n/a
597.067	0.09	1194134	keystroke_s	s	n/a
597.157	0.075	1194314	keystroke_e	e	n/a
597.442	0.15	1194884	keystroke_Key.space	Key.space	n/a
597.877	0.12	1195754	keystroke_a	a	n/a
598.147	0.075	1196294	keystroke_s	s	n/a
598.282	0.075	1196564	keystroke_s	s	n/a
598.507	0.075	1197014	keystroke_u	u	n/a
598.612	0.06	1197224	keystroke_r	r	n/a
598.793	0.089	1197586	keystroke_a	a	n/a
598.927	0.06	1197854	keystroke_n	n	n/a
599.032	0.135	1198064	keystroke_c	c	n/a
599.152	0.09	1198304	keystroke_e	e	n/a
599.482	0.09	1198964	keystroke_Key.space	Key.space	n/a
599.812	0.075	1199624	keystroke_b	b	n/a
600.082	0.075	1200164	keystroke_u	u	n/a
600.262	0.075	1200524	keystroke_l	l	n/a
600.487	0.09	1200974	keystroke_g	g	n/a
600.622	0.135	1201244	keystroke_a	a	n/a
600.832	0.06	1201664	keystroke_r	r	n/a
601.027	0.09	1202054	keystroke_i	i	n/a
601.207	0.12	1202414	keystroke_a	a	n/a
601.312	0.06	1202624	keystroke_n	n	n/a
601.912	0.075	1203824	keystroke_Key.enter	Key.enter	n/a
601.993	15.9255	1203986	prompt	n/a	outcomes eligibility clusters commit\n
602.962	0.075	1205924	keystroke_o	o	n/a
603.082	0.09	1206164	keystroke_u	u	n/a
603.637	0.06	1207274	keystroke_t	t	n/a
603.862	0.075	1207724	keystroke_c	c	n/a
603.967	0.075	1207934	keystroke_o	o	n/a
604.177	0.09	1208354	keystroke_m	m	n/a
604.222	0.075	1208444	keystroke_e	e	n/a
604.7765	0.075	1209553	keystroke_s	s	n/a
605.092	0.1045	1210184	keystroke_Key.space	Key.space	n/a
605.3765	0.06	1210753	keystroke_e	e	n/a
605.6165	0.015	1211233	keystroke_l	l	n/a
605.6915	0.09	1211383	keystroke_i	i	n/a
608.2595	0.001	1216519	keystroke_g	g	n/a
608.2865	0.09	1216573	keystroke_i	i	n/a
608.5415	0.09	1217083	keystroke_b	b	n/a
608.6615	0.075	1217323	keystroke_i	i	n/a
608.8865	0.075	1217773	keystroke_l	l	n/a
608.9915	0.105	1217983	keystroke_i	i	n/a
609.1565	0.06	1218313	keystroke_t	t	n/a
609.276	0.06	1218552	keystroke_y	y	n/a
609.621	0.06	1219242	keystroke_Key.space	Key.space	n/a
610.101	0.09	1220202	keystroke_c	c	n/a
610.206	0.031	1220412	keystroke_h	h	n/a
611.031	0.075	1222062	keystroke_Key.backspace	Key.backspace	n/a
611.782	0.059	1223564	keystroke_l	l	n/a
611.991	0.061	1223982	keystroke_u	u	n/a
612.517	0.09	1225034	keystroke_s	s	n/a
612.697	0.089	1225394	keystroke_t	t	n/a
612.876	0.105	1225752	keystroke_e	e	n/a
612.952	0.105	1225904	keystroke_r	r	n/a
613.221	0.076	1226442	keystroke_s	s	n/a
613.537	0.134	1227074	keystroke_Key.space	Key.space	n/a
613.896	0.076	1227792	keystroke_c	c	n/a
613.972	0.09	1227944	keystroke_o	o	n/a
614.226	0.06	1228452	keystroke_m	m	n/a
614.376	0.06	1228752	keystroke_m	m	n/a
614.557	0.059	1229114	keystroke_i	i	n/a
614.572	0.03	1229144	keystroke_u	u	n/a
614.661	0.076	1229322	keystroke_t	t	n/a
616.476	0.075	1232952	keystroke_Key.backspace	Key.backspace	n/a
616.731	0.06	1233462	keystroke_Key.backspace	Key.backspace	n/a
617.211	0.046	1234422	keystroke_t	t	n/a
617.811	0.105	1235622	keystroke_Key.enter	Key.enter	n/a
617.933	15.6955	1235866	prompt	n/a	maintain respondent matter cumulative\n
618.652	0.075	1237304	keystroke_m	m	n/a
618.742	0.09	1237484	keystroke_a	a	n/a
618.892	0.06	1237784	keystroke_i	i	n/a
619.012	0.06	1238024	keystroke_n	n	n/a
619.192	0.03	1238384	keystroke_t	t	n/a
619.297	0.105	1238594	keystroke_a	a	n/a
619.447	0.09	1238894	keystroke_i	i	n/a
619.552	0.06	1239104	keystroke_n	n	n/a
619.852	0.09	1239704	keystroke_Key.space	Key.space	n/a
620.122	0.135	1240244	keystroke_r	r	n/a
620.227	0.075	1240454	keystroke_e	e	n/a
620.3915	0.105	1240783	keystroke_s	s	n/a
620.587	0.12	1241174	keystroke_p	p	n/a
620.7665	0.09	1241533	keystroke_o	o	n/a
620.9015	0.075	1241803	keystroke_n	n	n/a
621.0365	0.075	1242073	keystroke_d	d	n/a
621.2615	0.075	1242523	keystroke_e	e	n/a
621.4265	0.045	1242853	keystroke_n	n	n/a
621.5015	0.075	1243003	keystroke_t	t	n/a
621.7715	0.075	1243543	keystroke_Key.space	Key.space	n/a
621.9965	0.075	1243993	keystroke_m	m	n/a
622.1165	0.105	1244233	keystroke_a	a	n/a
622.7315	0.015	1245463	keystroke_t	t	n/a
622.8965	0.06	1245793	keystroke_t	t	n/a
623.1365	0.135	1246273	keystroke_e	e	n/a
623.2415	0.09	1246483	keystroke_r	r	n/a
623.7365	0.075	1247473	keystroke_c	c	n/a
624.0815	0.06	1248163	keystroke_u	u	n/a
624.3665	0.06	1248733	keystroke_m	m	n/a
624.5465	0.09	1249093	keystroke_u	u	n/a
624.8315	0.045	1249663	keystroke_l	l	n/a
624.9215	0.12	1249843	keystroke_a	a	n/a
625.1015	0.0745	1250203	keystroke_t	t	n/a
625.206	0.06	1250412	keystroke_i	i	n/a
625.431	0.105	1250862	keystroke_e	e	n/a
626.586	0.09	1253172	keystroke_Key.backspace	Key.backspace	n/a
626.781	0.09	1253562	keystroke_Key.backspace	Key.backspace	n/a
626.961	0.0755	1253922	keystroke_Key.backspace	Key.backspace	n/a
627.1265	0.075	1254253	keystroke_Key.backspace	Key.backspace	n/a
627.3065	0.09	1254613	keystroke_Key.backspace	Key.backspace	n/a
627.4715	0.09	1254943	keystroke_Key.backspace	Key.backspace	n/a
627.6515	0.09	1255303	keystroke_Key.backspace	Key.backspace	n/a
627.8165	0.09	1255633	keystroke_Key.backspace	Key.backspace	n/a
627.9815	0.09	1255963	keystroke_Key.backspace	Key.backspace	n/a
628.6115	0.075	1257223	keystroke_Key.space	Key.space	n/a
628.8215	0.045	1257643	keystroke_c	c	n/a
628.9565	0.06	1257913	keystroke_u	u	n/a
629.8865	0.09	1259773	keystroke_m	m	n/a
630.1115	0.06	1260223	keystroke_u	u	n/a
630.4115	0.075	1260823	keystroke_l	l	n/a
630.5465	0.135	1261093	keystroke_a	a	n/a
630.7415	0.06	1261483	keystroke_t	t	n/a
630.8315	0.09	1261663	keystroke_i	i	n/a
630.967	0.1045	1261934	keystroke_v	v	n/a
631.0565	0.09	1262113	keystroke_e	e	n/a
633.625	0	1267250	keystroke_Key.enter	Key.enter	n/a
633.637	10.8115	1267274	prompt	n/a	offensive truck contacts danger\n
634.537	0.06	1269074	keystroke_o	o	n/a
634.657	0.06	1269314	keystroke_f	f	n/a
634.7915	0.075	1269583	keystroke_f	f	n/a
634.9865	0.06	1269973	keystroke_e	e	n/a
635.2715	0.075	1270543	keystroke_s	s	n/a
636.1715	0.105	1272343	keystroke_Key.backspace	Key.backspace	n/a
636.5315	0.06	1273063	keystroke_n	n	n/a
636.7115	0.09	1273423	keystroke_s	s	n/a
636.8315	0.075	1273663	keystroke_i	i	n/a
636.9065	0.105	1273813	keystroke_v	v	n/a
637.0415	0.09	1274083	keystroke_e	e	n/a
637.4015	0.105	1274803	keystroke_Key.space	Key.space	n/a
638.0315	0.06	1276063	keystroke_t	t	n/a
638.1815	0.075	1276363	keystroke_r	r	n/a
638.4215	0.06	1276843	keystroke_u	u	n/a
638.5865	0.075	1277173	keystroke_c	c	n/a
638.7365	0.06	1277473	keystroke_k	k	n/a
639.2165	0.06	1278433	keystroke_Key.space	Key.space	n/a
639.4865	0.075	1278973	keystroke_c	c	n/a
639.6665	0.06	1279333	keystroke_o	o	n/a
639.9065	0.075	1279813	keystroke_n	n	n/a
640.3415	0.045	1280683	keystroke_t	t	n/a
640.5365	0.165	1281073	keystroke_a	a	n/a
640.7165	0.06	1281433	keystroke_c	c	n/a
640.9415	0.045	1281883	keystroke_t	t	n/a
641.1065	0.06	1282213	keystroke_s	s	n/a
641.3465	0.105	1282693	keystroke_Key.space	Key.space	n/a
641.5115	0.075	1283023	keystroke_d	d	n/a
641.6465	0.105	1283293	keystroke_a	a	n/a
641.7965	0.075	1283593	keystroke_n	n	n/a
642.2165	0.09	1284433	keystroke_e	e	n/a
643.1165	0.105	1286233	keystroke_Key.backspace	Key.backspace	n/a
643.3565	0.075	1286713	keystroke_g	g	n/a
643.5365	0.09	1287073	keystroke_e	e	n/a
643.6115	0.09	1287223	keystroke_r	r	n/a
644.3315	0.105	1288663	keystroke_Key.enter	Key.enter	n/a
644.454	9.104	1288908	prompt	n/a	while internet elizabeth point\n
645.0215	0.075	1290043	keystroke_w	w	n/a
645.1265	0.045	1290253	keystroke_h	h	n/a
645.3515	0.06	1290703	keystroke_i	i	n/a
645.5765	0.0755	1291153	keystroke_l	l	n/a
645.667	0.06	1291334	keystroke_e	e	n/a
645.8765	0.075	1291753	keystroke_Key.space	Key.space	n/a
646.1465	0.06	1292293	keystroke_i	i	n/a
646.2815	0.075	1292563	keystroke_n	n	n/a
646.4315	0.075	1292863	keystroke_t	t	n/a
