onset	duration	sample	value	key	prompt_text
6.911	6.6495	13822	prompt	n/a	the quick brown fox jumps over a lazy dog\n
8.0235	0.0285	16047	keystroke_t	t	n/a
8.066	0.105	16132	keystroke_h	h	n/a
8.172	0.075	16344	keystroke_e	e	n/a
8.261	0.0895	16522	keystroke_Key.space	Key.space	n/a
8.381	0.0895	16762	keystroke_q	q	n/a
8.4555	0.0605	16911	keystroke_u	u	n/a
8.6355	0.045	17271	keystroke_i	i	n/a
8.755	0.1055	17510	keystroke_c	c	n/a
8.8455	0.0165	17691	keystroke_k	k	n/a
8.936	0.075	17872	keystroke_Key.space	Key.space	n/a
9.657	0.0895	19314	keystroke_b	b	n/a
9.7615	0.0745	19523	keystroke_r	r	n/a
9.8515	0.0605	19703	keystroke_o	o	n/a
9.927	0.105	19854	keystroke_w	w	n/a
10.002	0.1195	20004	keystroke_n	n	n/a
10.151	0.046	20302	keystroke_Key.space	Key.space	n/a
10.181	0.0905	20362	keystroke_f	f	n/a
10.302	0.1045	20604	keystroke_o	o	n/a
10.421	0.105	20842	keystroke_x	x	n/a
10.541	0.0905	21082	keystroke_Key.space	Key.space	n/a
11.037	0.104	22074	keystroke_j	j	n/a
11.186	0.061	22372	keystroke_u	u	n/a
11.337	0.075	22674	keystroke_m	m	n/a
11.487	0.105	22974	keystroke_p	p	n/a
11.5765	0.105	23153	keystroke_s	s	n/a
11.651	0.0905	23302	keystroke_Key.space	Key.space	n/a
11.801	0.106	23602	keystroke_o	o	n/a
11.8775	0.0745	23755	keystroke_v	v	n/a
12.0415	0.1055	24083	keystroke_e	e	n/a
12.101	0.0905	24202	keystroke_r	r	n/a
12.176	0.09	24352	keystroke_Key.space	Key.space	n/a
12.3575	0.104	24715	keystroke_a	a	n/a
12.4465	0.0595	24893	keystroke_Key.space	Key.space	n/a
12.596	0.105	25192	keystroke_l	l	n/a
12.687	0.0745	25374	keystroke_a	a	n/a
12.732	0.1045	25464	keystroke_z	z	n/a
12.792	0.059	25584	keystroke_y	y	n/a
12.956	0.1055	25912	keystroke_Key.space	Key.space	n/a
13.032	0.1195	26064	keystroke_d	d	n/a
13.1965	0.0605	26393	keystroke_o	o	n/a
13.3015	0.0905	26603	keystroke_g	g	n/a
13.4365	0.12	26873	keystroke_Key.enter	Key.enter	n/a
13.5675	3.591	27135	prompt	n/a	plains frost fitting else\n
14.217	0.0895	28434	keystroke_p	p	n/a
14.3075	0.119	28615	keystroke_l	l	n/a
14.3515	0.1045	28703	keystroke_a	a	n/a
14.546	0.075	29092	keystroke_i	i	n/a
14.682	0.1045	29364	keystroke_n	n	n/a
14.727	0.104	29454	keystroke_s	s	n/a
14.8615	0.0895	29723	keystroke_Key.space	Key.space	n/a
14.967	0.105	29934	keystroke_f	f	n/a
15.1465	0.0905	30293	keystroke_r	r	n/a
15.1915	0.1055	30383	keystroke_o	o	n/a
15.342	0.0895	30684	keystroke_s	s	n/a
15.5365	0.06	31073	keystroke_t	t	n/a
15.5815	0.0895	31163	keystroke_Key.space	Key.space	n/a
15.792	0.0895	31584	keystroke_f	f	n/a
15.867	0.119	31734	keystroke_i	i	n/a
16.002	0.0595	32004	keystroke_t	t	n/a
16.1515	0.0745	32303	keystroke_t	t	n/a
16.1815	0.0755	32363	keystroke_i	i	n/a
16.317	0.089	32634	keystroke_n	n	n/a
16.3615	0.0595	32723	keystroke_g	g	n/a
16.4365	0.09	32873	keystroke_Key.space	Key.space	n/a
16.5565	0.0605	33113	keystroke_e	e	n/a
16.6315	0.09	33263	keystroke_l	l	n/a
16.7365	0.0605	33473	keystroke_s	s	n/a
16.901	0.09	33802	keystroke_e	e	n/a
16.9615	0.1045	33923	keystroke_Key.space	Key.space	n/a
17.082	0.0745	34164	keystroke_Key.enter	Key.enter	n/a
17.1645	6.1895	34329	prompt	n/a	endorsement mission generates parental\n
17.8775	0.1185	35755	keystroke_e	e	n/a
18.117	0.12	36234	keystroke_d	d	n/a
18.672	0.0745	37344	keystroke_Key.backspace	Key.backspace	n/a
18.8975	0.0745	37795	keystroke_n	n	n/a
18.956	0.091	37912	keystroke_d	d	n/a
19.077	0.1045	38154	keystroke_o	o	n/a
19.1825	0.0745	38365	keystroke_r	r	n/a
19.3615	0.106	38723	keystroke_s	s	n/a
19.557	0.0905	39114	keystroke_e	e	n/a
19.692	0.0895	39384	keystroke_m	m	n/a
19.827	0.075	39654	keystroke_e	e	n/a
19.887	0.074	39774	keystroke_n	n	n/a
19.962	0.09	39924	keystroke_t	t	n/a
20.0665	0.0595	40133	keystroke_Key.space	Key.space	n/a
20.202	0.06	40404	keystroke_m	m	n/a
20.322	0.12	40644	keystroke_i	i	n/a
20.367	0.09	40734	keystroke_s	s	n/a
20.5475	0.0735	41095	keystroke_s	s	n/a
20.5925	0.0595	41185	keystroke_i	i	n/a
20.757	0.0445	41514	keystroke_o	o	n/a
20.8775	0.09	41755	keystroke_n	n	n/a
20.952	0.105	41904	keystroke_Key.space	Key.space	n/a
21.012	0.06	42024	keystroke_g	g	n/a
21.162	0.104	42324	keystroke_e	e	n/a
21.312	0.09	42624	keystroke_n	n	n/a
21.3575	0.134	42715	keystroke_e	e	n/a
21.4615	0.061	42923	keystroke_r	r	n/a
21.6425	0.0445	43285	keystroke_a	a	n/a
21.762	0.135	43524	keystroke_t	t	n/a
21.852	0.0895	43704	keystroke_e	e	n/a
22.047	0.09	44094	keystroke_s	s	n/a
22.107	0.045	44214	keystroke_Key.space	Key.space	n/a
22.2565	0.0905	44513	keystroke_p	p	n/a
22.287	0.075	44574	keystroke_a	a	n/a
22.4825	0.119	44965	keystroke_r	r	n/a
22.527	0.1055	45054	keystroke_e	e	n/a
22.6165	0.076	45233	keystroke_n	n	n/a
22.722	0.09	45444	keystroke_t	t	n/a
22.8265	0.135	45653	keystroke_l	l	n/a
22.9765	0.12	45953	keystroke_s	s	n/a
23.2315	0.1205	46463	keystroke_Key.enter	Key.enter	n/a
23.3585	4.0305	46717	prompt	n/a	worn call write screenshot\n
23.9065	0.136	47813	keystroke_w	w	n/a
24.0425	0.075	48085	keystroke_o	o	n/a
24.3575	0.105	48715	keystroke_r	r	n/a
24.4925	0.075	48985	keystroke_n	n	n/a
24.612	0.135	49224	keystroke_Key.space	Key.space	n/a
24.762	0.0755	49524	keystroke_c	c	n/a
24.9425	0.09	49885	keystroke_a	a	n/a
25.017	0.0605	50034	keystroke_l	l	n/a
25.1515	0.121	50303	keystroke_l	l	n/a
25.242	0.075	50484	keystroke_Key.space	Key.space	n/a
25.287	0.1505	50574	keystroke_w	w	n/a
25.3925	0.1045	50785	keystroke_r	r	n/a
25.5265	0.106	51053	keystroke_i	i	n/a
25.6475	0.1345	51295	keystroke_t	t	n/a
25.737	0.1055	51474	keystroke_e	e	n/a
25.857	0.075	51714	keystroke_Key.space	Key.space	n/a
25.9625	0.0745	51925	keystroke_s	s	n/a
26.082	0.1055	52164	keystroke_c	c	n/a
26.2925	0.09	52585	keystroke_r	r	n/a
26.4715	0.076	52943	keystroke_e	e	n/a
26.6525	0.0295	53305	keystroke_e	e	n/a
26.697	0.0605	53394	keystroke_n	n	n/a
26.802	0.0745	53604	keystroke_s	s	n/a
26.8625	0.0595	53725	keystroke_h	h	n/a
26.9825	0.09	53965	keystroke_o	o	n/a
27.0865	0.105	54173	keystroke_t	t	n/a
27.2065	0.106	54413	keystroke_Key.space	Key.space	n/a
27.2825	0.105	54565	keystroke_Key.enter	Key.enter	n/a
27.394	5.6655	54788	prompt	n/a	appeals palm plane receiving\n
28.0925	0.015	56185	keystroke_a	a	n/a
28.1375	0.059	56275	keystroke_p	p	n/a
28.287	0.09	56574	keystroke_p	p	n/a
28.392	0.0895	56784	keystroke_e	e	n/a
28.467	0.135	56934	keystroke_a	a	n/a
28.542	0.1195	57084	keystroke_l	l	n/a
28.692	0.0755	57384	keystroke_s	s	n/a
28.7965	0.076	57593	keystroke_Key.space	Key.space	n/a
28.977	0.1055	57954	keystroke_p	p	n/a
29.0375	0.105	58075	keystroke_a	a	n/a
29.1875	0.105	58375	keystroke_l	l	n/a
29.5625	0.105	59125	keystroke_m	m	n/a
29.8025	0.1045	59605	keystroke_Key.space	Key.space	n/a
29.967	0.135	59934	keystroke_p	p	n/a
30.073	0.149	60146	keystroke_l	l	n/a
30.537	0.091	61074	keystroke_a	a	n/a
30.6725	0.0745	61345	keystroke_n	n	n/a
31.588	0.1345	63176	keystroke_e	e	n/a
31.632	0.1355	63264	keystroke_Key.space	Key.space	n/a
31.9625	0.1205	63925	keystroke_r	r	n/a
32.0375	0.105	64075	keystroke_e	e	n/a
32.2025	0.135	64405	keystroke_c	c	n/a
32.278	0.0895	64556	keystroke_e	e	n/a
32.4125	0.09	64825	keystroke_i	i	n/a
32.4725	0.09	64945	keystroke_v	v	n/a
32.6225	0.12	65245	keystroke_n	n	n/a
32.7575	0.09	65515	keystroke_g	g	n/a
32.862	0.015	65724	keystroke_Key.space	Key.space	n/a
32.937	0.12	65874	keystroke_Key.enter	Key.enter	n/a
33.0645	10.4805	66129	prompt	n/a	financing costa consciousness dealtime\n
33.8225	0.1205	67645	keystroke_f	f	n/a
33.973	0.1495	67946	keystroke_i	i	n/a
34.632	0.09	69264	keystroke_a	a	n/a
34.647	0.09	69294	keystroke_n	n	n/a
35.2475	0.06	70495	keystroke_Key.backspace	Key.backspace	n/a
35.4125	0.06	70825	keystroke_Key.backspace	Key.backspace	n/a
35.6675	0.075	71335	keystroke_n	n	n/a
35.7425	0.06	71485	keystroke_a	a	n/a
35.8475	0.09	71695	keystroke_n	n	n/a
35.9225	0.105	71845	keystroke_c	c	n/a
36.0425	0.09	72085	keystroke_i	i	n/a
36.1925	0.075	72385	keystroke_n	n	n/a
36.283	0.0895	72566	keystroke_g	g	n/a
36.3735	0.089	72747	keystroke_Key.space	Key.space	n/a
36.7015	0.076	73403	keystroke_c	c	n/a
36.8075	0.075	73615	keystroke_o	o	n/a
36.9275	0.1045	73855	keystroke_s	s	n/a
37.122	0.09	74244	keystroke_t	t	n/a
37.662	0.09	75324	keystroke_a	a	n/a
37.7375	0.1045	75475	keystroke_Key.space	Key.space	n/a
37.947	0.0905	75894	keystroke_c	c	n/a
37.9625	0.0895	75925	keystroke_o	o	n/a
38.158	0.105	76316	keystroke_n	n	n/a
38.352	0.0905	76704	keystroke_s	s	n/a
38.5025	0.1205	77005	keystroke_c	c	n/a
38.562	0.061	77124	keystroke_i	i	n/a
38.7575	0.059	77515	keystroke_o	o	n/a
38.908	0.09	77816	keystroke_u	u	n/a
39.3425	0.105	78685	keystroke_n	n	n/a
40.7225	0.06	81445	keystroke_Key.backspace	Key.backspace	n/a
40.858	0.1195	81716	keystroke_s	s	n/a
41.3075	0.105	82615	keystroke_n	n	n/a
41.4275	0.075	82855	keystroke_e	e	n/a
41.6525	0.09	83305	keystroke_s	s	n/a
41.818	0.09	83636	keystroke_s	s	n/a
41.862	0.12	83724	keystroke_Key.space	Key.space	n/a
41.998	0.12	83996	keystroke_d	d	n/a
42.253	0.149	84506	keystroke_e	e	n/a
42.358	0.105	84716	keystroke_a	a	n/a
42.613	0.2245	85226	keystroke_l	l	n/a
42.9725	0.075	85945	keystroke_t	t	n/a
43.0175	0.0755	86035	keystroke_i	i	n/a
43.168	0.0895	86336	keystroke_m	m	n/a
43.1825	0.1345	86365	keystroke_e	e	n/a
43.2875	0.12	86575	keystroke_Key.space	Key.space	n/a
43.4375	0.105	86875	keystroke_Key.enter	Key.enter	n/a
43.5505	5.2745	87101	prompt	n/a	patient addition parts represented\n
44.2775	0.0895	88555	keystroke_p	p	n/a
44.3075	0.1045	88615	keystroke_a	a	n/a
44.5625	0.075	89125	keystroke_t	t	n/a
44.6525	0.0605	89305	keystroke_i	i	n/a
44.7735	0.0735	89547	keystroke_e	e	n/a
44.803	0.119	89606	keystroke_n	n	n/a
44.983	0.1195	89966	keystroke_t	t	n/a
45.087	0.1055	90174	keystroke_Key.space	Key.space	n/a
45.253	0.09	90506	keystroke_a	a	n/a
45.433	0.059	90866	keystroke_d	d	n/a
45.582	0.076	91164	keystroke_d	d	n/a
45.6875	0.0905	91375	keystroke_i	i	n/a
45.852	0.061	91704	keystroke_t	t	n/a
45.913	0.06	91826	keystroke_i	i	n/a
46.0625	0.045	92125	keystroke_o	o	n/a
46.1975	0.0755	92395	keystroke_n	n	n/a
46.2575	0.09	92515	keystroke_Key.space	Key.space	n/a
46.4225	0.09	92845	keystroke_p	p	n/a
46.4825	0.06	92965	keystroke_a	a	n/a
46.6475	0.06	93295	keystroke_r	r	n/a
46.8125	0.0605	93625	keystroke_t	t	n/a
46.993	0.0895	93986	keystroke_s	s	n/a
47.0675	0.09	94135	keystroke_Key.space	Key.space	n/a
47.218	0.1495	94436	keystroke_r	r	n/a
47.2925	0.15	94585	keystroke_e	e	n/a
47.578	0.135	95156	keystroke_p	p	n/a
47.727	0.09	95454	keystroke_r	r	n/a
47.758	0.0895	95516	keystroke_e	e	n/a
47.953	0.074	95906	keystroke_s	s	n/a
48.088	0.075	96176	keystroke_e	e	n/a
48.208	0.075	96416	keystroke_n	n	n/a
48.253	0.09	96506	keystroke_t	t	n/a
48.478	0.149	96956	keystroke_e	e	n/a
48.582	0.1355	97164	keystroke_d	d	n/a
48.7325	0.09	97465	keystroke_Key.enter	Key.enter	n/a
48.831	5.3035	97662	prompt	n/a	flash name convertible prevention\n
49.5875	0.0905	99175	keystroke_f	f	n/a
49.8725	0.0905	99745	keystroke_l	l	n/a
49.9325	0.15	99865	keystroke_a	a	n/a
50.0375	0.105	100075	keystroke_s	s	n/a
50.1585	0.074	100317	keystroke_h	h	n/a
50.2775	0.075	100555	keystroke_Key.space	Key.space	n/a
50.398	0.09	100796	keystroke_n	n	n/a
50.4425	0.105	100885	keystroke_a	a	n/a
50.563	0.1045	101126	keystroke_m	m	n/a
50.6075	0.0905	101215	keystroke_e	e	n/a
50.7425	0.0605	101485	keystroke_Key.space	Key.space	n/a
50.8775	0.0605	101755	keystroke_c	c	n/a
50.9675	0.06	101935	keystroke_o	o	n/a
51.1025	0.105	102205	keystroke_n	n	n/a
51.1625	0.0755	102325	keystroke_v	v	n/a
51.3275	0.1805	102655	keystroke_e	e	n/a
51.448	0.075	102896	keystroke_r	r	n/a
51.688	0.0895	103376	keystroke_t	t	n/a
51.7785	0.0445	103557	keystroke_i	i	n/a
51.9425	0.03	103885	keystroke_b	b	n/a
52.1225	0.091	104245	keystroke_l	l	n/a
52.2275	0.106	104455	keystroke_e	e	n/a
52.3175	0.075	104635	keystroke_Key.space	Key.space	n/a
52.5435	0.029	105087	keystroke_p	p	n/a
52.5575	0.1055	105115	keystroke_r	r	n/a
52.6175	0.105	105235	keystroke_e	e	n/a
52.9025	0.135	105805	keystroke_v	v	n/a
52.9625	0.1655	105925	keystroke_e	e	n/a
53.1875	0.105	106375	keystroke_n	n	n/a
53.442	0.121	106884	keystroke_t	t	n/a
53.548	0.045	107096	keystroke_i	i	n/a
53.698	0.06	107396	keystroke_o	o	n/a
53.863	0.044	107726	keystroke_n	n	n/a
53.952	0.061	107904	keystroke_Key.space	Key.space	n/a
54.043	0.09	108086	keystroke_Key.enter	Key.enter	n/a
54.1375	6.252	108275	prompt	n/a	relevant inspiration admissions fraction\n
54.8375	0.12	109675	keystroke_r	r	n/a
54.898	0.1355	109796	keystroke_e	e	n/a
55.0775	0.09	110155	keystroke_l	l	n/a
55.153	0.105	110306	keystroke_e	e	n/a
55.3935	0.104	110787	keystroke_v	v	n/a
55.798	0.0895	111596	keystroke_a	a	n/a
55.9475	0.0905	111895	keystroke_n	n	n/a
56.0675	0.09	112135	keystroke_t	t	n/a
56.1425	0.0605	112285	keystroke_Key.space	Key.space	n/a
56.2775	0.06	112555	keystroke_i	i	n/a
56.398	0.09	112796	keystroke_n	n	n/a
56.5175	0.09	113035	keystroke_s	s	n/a
56.682	0.016	113364	keystroke_p	p	n/a
56.8325	0.075	113665	keystroke_i	i	n/a
56.9225	0.0905	113845	keystroke_r	r	n/a
57.1475	0.0605	114295	keystroke_a	a	n/a
57.343	0.075	114686	keystroke_t	t	n/a
57.4035	0.074	114807	keystroke_i	i	n/a
57.5675	0.0605	115135	keystroke_o	o	n/a
57.688	0.105	115376	keystroke_n	n	n/a
57.793	0.1205	115586	keystroke_Key.space	Key.space	n/a
57.837	0.0915	115674	keystroke_a	a	n/a
58.0175	0.105	116035	keystroke_d	d	n/a
58.093	0.0595	116186	keystroke_m	m	n/a
58.228	0.075	116456	keystroke_i	i	n/a
58.348	0.03	116696	keystroke_s	s	n/a
58.483	0.0905	116966	keystroke_s	s	n/a
58.5585	0.044	117117	keystroke_i	i	n/a
58.692	0.061	117384	keystroke_o	o	n/a
58.812	0.091	117624	keystroke_n	n	n/a
58.872	0.09	117744	keystroke_s	s	n/a
58.978	0.075	117956	keystroke_Key.space	Key.space	n/a
59.067	0.0605	118134	keystroke_f	f	n/a
59.233	0.03	118466	keystroke_r	r	n/a
59.338	0.104	118676	keystroke_a	a	n/a
59.578	0.045	119156	keystroke_c	c	n/a
59.788	0.09	119576	keystroke_t	t	n/a
59.863	0.06	119726	keystroke_i	i	n/a
60.013	0.045	120026	keystroke_o	o	n/a
60.1025	0.0895	120205	keystroke_n	n	n/a
60.207	0.076	120414	keystroke_Key.space	Key.space	n/a
60.2985	0.0885	120597	keystroke_Key.enter	Key.enter	n/a
60.3945	7.285	120789	prompt	n/a	islands contributions boring cedar\n
61.0785	0.0745	122157	keystroke_i	i	n/a
61.138	0.075	122276	keystroke_s	s	n/a
61.258	0.0755	122516	keystroke_l	l	n/a
61.318	0.075	122636	keystroke_a	a	n/a
61.438	0.1045	122876	keystroke_n	n	n/a
61.5575	0.166	123115	keystroke_d	d	n/a
61.693	0.135	123386	keystroke_s	s	n/a
61.8125	0.0905	123625	keystroke_Key.space	Key.space	n/a
62.1135	0.119	124227	keystroke_c	c	n/a
62.2175	0.045	124435	keystroke_o	o	n/a
62.3385	0.104	124677	keystroke_n	n	n/a
62.4275	0.12	124855	keystroke_t	t	n/a
62.488	0.09	124976	keystroke_r	r	n/a
62.5175	0.075	125035	keystroke_i	i	n/a
62.6835	0.0595	125367	keystroke_b	b	n/a
62.818	0.075	125636	keystroke_u	u	n/a
62.938	0.1655	125876	keystroke_t	t	n/a
63.013	0.1055	126026	keystroke_i	i	n/a
63.178	0.045	126356	keystroke_o	o	n/a
63.3125	0.076	126625	keystroke_n	n	n/a
63.373	0.091	126746	keystroke_s	s	n/a
63.478	0.045	126956	keystroke_Key.space	Key.space	n/a
63.5975	0.06	127195	keystroke_b	b	n/a
63.763	0.0745	127526	keystroke_o	o	n/a
63.8075	0.0755	127615	keystroke_r	r	n/a
63.9575	0.091	127915	keystroke_i	i	n/a
64.408	0.0445	128816	keystroke_Key.backspace	Key.backspace	n/a
64.5575	0.1055	129115	keystroke_d	d	n/a
64.6475	0.0755	129295	keystroke_i	i	n/a
65.1125	0.0455	130225	keystroke_Key.backspace	Key.backspace	n/a
65.2325	0.075	130465	keystroke_Key.backspace	Key.backspace	n/a
65.458	0.075	130916	keystroke_i	i	n/a
65.6085	0.074	131217	keystroke_n	n	n/a
65.7135	0.119	131427	keystroke_g	g	n/a
65.8175	0.0905	131635	keystroke_Key.space	Key.space	n/a
66.1625	0.1205	132325	keystroke_d	d	n/a
66.522	0.06	133044	keystroke_Key.backspace	Key.backspace	n/a
66.5975	0.151	133195	keystroke_c	c	n/a
66.6725	0.166	133345	keystroke_e	e	n/a
66.988	0.105	133976	keystroke_d	d	n/a
67.168	0.09	134336	keystroke_a	a	n/a
67.348	0.12	134696	keystroke_r	r	n/a
67.483	0.105	134966	keystroke_Key.space	Key.space	n/a
67.558	0.12	135116	keystroke_Key.enter	Key.enter	n/a
67.685	7.7955	135370	prompt	n/a	tracked pulled benefits attachment\n
68.4435	0.1195	136887	keystroke_t	t	n/a
68.4875	0.105	136975	keystroke_r	r	n/a
68.698	0.09	137396	keystroke_a	a	n/a
68.8775	0.076	137755	keystroke_c	c	n/a
68.9985	0.06	137997	keystroke_k	k	n/a
69.0725	0.1205	138145	keystroke_e	e	n/a
69.1325	0.1355	138265	keystroke_d	d	n/a
69.223	0.0745	138446	keystroke_Key.space	Key.space	n/a
69.3585	0.0895	138717	keystroke_p	p	n/a
69.5225	0.105	139045	keystroke_u	u	n/a
69.778	0.045	139556	keystroke_l	l	n/a
69.9275	0.061	139855	keystroke_l	l	n/a
69.9725	0.12	139945	keystroke_e	e	n/a
70.0485	0.105	140097	keystroke_d	d	n/a
70.138	0.075	140276	keystroke_Key.space	Key.space	n/a
70.3785	0.089	140757	keystroke_b	b	n/a
70.483	0.0905	140966	keystroke_e	e	n/a
70.618	0.0905	141236	keystroke_n	n	n/a
70.7085	0.089	141417	keystroke_e	e	n/a
70.9025	0.091	141805	keystroke_f	f	n/a
70.962	0.091	141924	keystroke_i	i	n/a
71.113	0.0755	142226	keystroke_t	t	n/a
71.308	0.105	142616	keystroke_s	s	n/a
71.397	0.0755	142794	keystroke_Key.space	Key.space	n/a
71.5035	0.09	143007	keystroke_a	a	n/a
71.7135	0.059	143427	keystroke_t	t	n/a
71.848	0.075	143696	keystroke_t	t	n/a
72.028	0.09	144056	keystroke_a	a	n/a
72.658	0.12	145316	keystroke_c	c	n/a
72.8235	0.0895	145647	keystroke_h	h	n/a
73.663	0.15	147326	keystroke_m	m	n/a
73.798	0.105	147596	keystroke_e	e	n/a
74.0535	0.0895	148107	keystroke_t	t	n/a
74.773	0.06	149546	keystroke_Key.backspace	Key.backspace	n/a
75.0275	0.076	150055	keystroke_n	n	n/a
75.1175	0.105	150235	keystroke_t	t	n/a
75.2525	0.12	150505	keystroke_Key.space	Key.space	n/a
75.3435	0.134	150687	keystroke_Key.enter	Key.enter	n/a
75.4855	5.4545	150971	prompt	n/a	reject survivor sought wind\n
76.2135	0.1195	152427	keystroke_e	e	n/a
76.678	0.059	153356	keystroke_Key.backspace	Key.backspace	n/a
76.7535	0.1345	153507	keystroke_r	r	n/a
76.813	0.1505	153626	keystroke_e	e	n/a
76.947	0.0915	153894	keystroke_j	j	n/a
77.053	0.1345	154106	keystroke_e	e	n/a
77.173	0.0745	154346	keystroke_c	c	n/a
77.3985	0.089	154797	keystroke_t	t	n/a
77.503	0.1045	155006	keystroke_Key.space	Key.space	n/a
77.683	0.105	155366	keystroke_s	s	n/a
77.8325	0.09	155665	keystroke_u	u	n/a
77.9235	0.0745	155847	keystroke_r	r	n/a
78.1935	0.0745	156387	keystroke_v	v	n/a
78.2685	0.09	156537	keystroke_i	i	n/a
78.448	0.09	156896	keystroke_v	v	n/a
79.093	0.059	158186	keystroke_o	o	n/a
79.183	0.12	158366	keystroke_r	r	n/a
79.258	0.12	158516	keystroke_Key.space	Key.space	n/a
79.513	0.1045	159026	keystroke_s	s	n/a
79.603	0.0455	159206	keystroke_o	o	n/a
79.7375	0.075	159475	keystroke_u	u	n/a
79.8135	0.06	159627	keystroke_g	g	n/a
79.9635	0.1195	159927	keystroke_h	h	n/a
80.038	0.105	160076	keystroke_t	t	n/a
80.113	0.09	160226	keystroke_Key.space	Key.space	n/a
80.278	0.09	160556	keystroke_w	w	n/a
80.3235	0.0595	160647	keystroke_i	i	n/a
80.473	0.0895	160946	keystroke_n	n	n/a
80.5775	0.09	161155	keystroke_d	d	n/a
80.6525	0.0905	161305	keystroke_Key.space	Key.space	n/a
80.8025	0.135	161605	keystroke_Key.enter	Key.enter	n/a
80.945	5.74	161890	prompt	n/a	fighters sink denmark rent\n
81.613	0.135	163226	keystroke_f	f	n/a
81.7175	0.1205	163435	keystroke_i	i	n/a
81.8525	0.09	163705	keystroke_g	g	n/a
82.0325	0.0755	164065	keystroke_t	t	n/a
83.278	0.0595	166556	keystroke_Key.backspace	Key.backspace	n/a
83.533	0.0605	167066	keystroke_h	h	n/a
83.683	0.0595	167366	keystroke_t	t	n/a
83.833	0.1055	167666	keystroke_e	e	n/a
83.893	0.0905	167786	keystroke_r	r	n/a
84.088	0.0905	168176	keystroke_s	s	n/a
84.2375	0.15	168475	keystroke_Key.space	Key.space	n/a
84.3885	0.029	168777	keystroke_s	s	n/a
84.4035	0.104	168807	keystroke_i	i	n/a
84.523	0.0595	169046	keystroke_n	n	n/a
84.687	0.09	169374	keystroke_k	k	n/a
84.793	0.105	169586	keystroke_Key.space	Key.space	n/a
84.9135	0.1645	169827	keystroke_d	d	n/a
85.0175	0.136	170035	keystroke_e	e	n/a
85.348	0.09	170696	keystroke_n	n	n/a
85.573	0.09	171146	keystroke_m	m	n/a
85.648	0.09	171296	keystroke_a	a	n/a
85.873	0.09	171746	keystroke_r	r	n/a
85.948	0.105	171896	keystroke_k	k	n/a
86.054	0.089	172108	keystroke_Key.space	Key.space	n/a
86.188	0.105	172376	keystroke_r	r	n/a
86.263	0.09	172526	keystroke_e	e	n/a
86.323	0.09	172646	keystroke_n	n	n/a
86.428	0.12	172856	keystroke_t	t	n/a
86.563	0.1205	173126	keystroke_Key.enter	Key.enter	n/a
86.608	0.1045	173216	keystroke_Key.space	Key.space	n/a
86.69	7.239	173380	prompt	n/a	against temperature yearly upload\n
87.3585	0.104	174717	keystroke_a	a	n/a
87.539	0.0745	175078	keystroke_g	g	n/a
87.6285	0.105	175257	keystroke_a	a	n/a
87.7185	0.0595	175437	keystroke_i	i	n/a
87.868	0.09	175736	keystroke_n	n	n/a
87.9135	0.09	175827	keystroke_s	s	n/a
88.0785	0.0895	176157	keystroke_t	t	n/a
88.138	0.1055	176276	keystroke_Key.space	Key.space	n/a
88.2885	0.104	176577	keystroke_r	r	n/a
88.3785	0.1195	176757	keystroke_e	e	n/a
88.8125	0.0455	177625	keystroke_Key.backspace	Key.backspace	n/a
88.948	0.06	177896	keystroke_Key.backspace	Key.backspace	n/a
89.0685	0.09	178137	keystroke_t	t	n/a
89.1135	0.12	178227	keystroke_e	e	n/a
89.2185	0.09	178437	keystroke_m	m	n/a
89.4425	0.0905	178885	keystroke_p	p	n/a
89.563	0.135	179126	keystroke_e	e	n/a
89.6835	0.0595	179367	keystroke_r	r	n/a
89.848	0.075	179696	keystroke_a	a	n/a
90.043	0.075	180086	keystroke_t	t	n/a
90.148	0.09	180296	keystroke_u	u	n/a
90.2235	0.1045	180447	keystroke_r	r	n/a
90.283	0.15	180566	keystroke_e	e	n/a
90.343	0.075	180686	keystroke_Key.space	Key.space	n/a
90.493	0.09	180986	keystroke_y	y	n/a
90.568	0.1205	181136	keystroke_e	e	n/a
90.6585	0.0595	181317	keystroke_a	a	n/a
90.823	0.075	181646	keystroke_r	r	n/a
91.4975	0.061	182995	keystroke_Key.backspace	Key.backspace	n/a
92.0835	0.105	184167	keystroke_r	r	n/a
92.1885	0.09	184377	keystroke_l	l	n/a
92.3225	0.1055	184645	keystroke_y	y	n/a
92.443	0.0895	184886	keystroke_Key.space	Key.space	n/a
93.0135	0.0595	186027	keystroke_u	u	n/a
93.148	0.0755	186296	keystroke_p	p	n/a
93.358	0.06	186716	keystroke_l	l	n/a
93.463	0.1045	186926	keystroke_o	o	n/a
93.5525	0.1055	187105	keystroke_a	a	n/a
93.6125	0.1505	187225	keystroke_d	d	n/a
93.778	0.075	187556	keystroke_Key.space	Key.space	n/a
93.808	0.1195	187616	keystroke_Key.enter	Key.enter	n/a
93.932	6.013	187864	prompt	n/a	quad ours occasional pakistan\n
94.6185	0.1195	189237	keystroke_q	q	n/a
94.7085	0.105	189417	keystroke_u	u	n/a
94.843	0.0755	189686	keystroke_a	a	n/a
95.038	0.09	190076	keystroke_d	d	n/a
95.1125	0.1055	190225	keystroke_Key.space	Key.space	n/a
95.308	0.0605	190616	keystroke_o	o	n/a
95.443	0.075	190886	keystroke_u	u	n/a
95.5185	0.1495	191037	keystroke_r	r	n/a
95.593	0.12	191186	keystroke_s	s	n/a
95.728	0.075	191456	keystroke_Key.space	Key.space	n/a
95.8935	0.105	191787	keystroke_o	o	n/a
96.538	0.045	193076	keystroke_c	c	n/a
96.718	0.0755	193436	keystroke_a	a	n/a
97.498	0.06	194996	keystroke_s	s	n/a
97.663	0.09	195326	keystroke_s	s	n/a
97.738	0.0745	195476	keystroke_i	i	n/a
97.9025	0.06	195805	keystroke_o	o	n/a
98.023	0.09	196046	keystroke_n	n	n/a
98.1275	0.09	196255	keystroke_a	a	n/a
98.2935	0.0745	196587	keystroke_l	l	n/a
98.383	0.045	196766	keystroke_Key.space	Key.space	n/a
98.503	0.09	197006	keystroke_p	p	n/a
98.6235	0.135	197247	keystroke_a	a	n/a
98.773	0.12	197546	keystroke_k	k	n/a
98.968	0.12	197936	keystroke_i	i	n/a
99.103	0.1345	198206	keystroke_s	s	n/a
99.3425	0.076	198685	keystroke_t	t	n/a
99.5375	0.1055	199075	keystroke_a	a	n/a
99.6125	0.0905	199225	keystroke_n	n	n/a
99.7175	0.0755	199435	keystroke_Key.space	Key.space	n/a
99.883	0.0595	199766	keystroke_Key.enter	Key.enter	n/a
99.95	8.4415	199900	prompt	n/a	mileage version beliefs withdrawal\n
100.588	0.0745	201176	keystroke_m	m	n/a
100.7225	0.1055	201445	keystroke_i	i	n/a
101.338	0.12	202676	keystroke_l	l	n/a
101.443	0.075	202886	keystroke_e	e	n/a
101.8035	0.12	203607	keystroke_a	a	n/a
102.088	0.1355	204176	keystroke_g	g	n/a
102.1775	0.1205	204355	keystroke_e	e	n/a
102.2375	0.09	204475	keystroke_Key.space	Key.space	n/a
102.4175	0.0905	204835	keystroke_v	v	n/a
102.5835	0.1195	205167	keystroke_e	e	n/a
102.673	0.0905	205346	keystroke_r	r	n/a
102.868	0.09	205736	keystroke_s	s	n/a
102.9435	0.0745	205887	keystroke_i	i	n/a
103.0935	0.089	206187	keystroke_o	o	n/a
103.228	0.0905	206456	keystroke_n	n	n/a
103.288	0.075	206576	keystroke_Key.space	Key.space	n/a
103.423	0.09	206846	keystroke_b	b	n/a
103.498	0.106	206996	keystroke_e	e	n/a
103.648	0.09	207296	keystroke_l	l	n/a
104.2785	0.134	208557	keystroke_e	e	n/a
104.3835	0.105	208767	keystroke_i	i	n/a
105.4035	0.18	210807	keystroke_f	f	n/a
106.1085	0.12	212217	keystroke_s	s	n/a
106.2435	0.105	212487	keystroke_Key.space	Key.space	n/a
106.4535	0.105	212907	keystroke_w	w	n/a
106.528	0.105	213056	keystroke_i	i	n/a
106.903	0.09	213806	keystroke_t	t	n/a
106.993	0.075	213986	keystroke_h	h	n/a
107.1285	0.1045	214257	keystroke_d	d	n/a
107.308	0.075	214616	keystroke_r	r	n/a
107.6985	0.12	215397	keystroke_a	a	n/a
107.9235	0.1195	215847	keystroke_w	w	n/a
108.028	0.12	216056	keystroke_l	l	n/a
108.133	0.0895	216266	keystroke_Key.space	Key.space	n/a
108.2825	0.1055	216565	keystroke_Key.enter	Key.enter	n/a
108.3945	4.4655	216789	prompt	n/a	rover code spine ericsson\n
109.0785	0.06	218157	keystroke_r	r	n/a
109.1685	0.075	218337	keystroke_o	o	n/a
109.2735	0.061	218547	keystroke_v	v	n/a
109.4385	0.104	218877	keystroke_e	e	n/a
109.4825	0.091	218965	keystroke_r	r	n/a
109.5575	0.09	219115	keystroke_Key.space	Key.space	n/a
109.7385	0.06	219477	keystroke_c	c	n/a
109.8275	0.09	219655	keystroke_o	o	n/a
109.9635	0.1195	219927	keystroke_d	d	n/a
110.0235	0.135	220047	keystroke_e	e	n/a
110.113	0.09	220226	keystroke_Key.space	Key.space	n/a
110.293	0.075	220586	keystroke_s	s	n/a
110.338	0.0755	220676	keystroke_p	p	n/a
110.5035	0.06	221007	keystroke_i	i	n/a
110.638	0.105	221276	keystroke_n	n	n/a
110.773	0.121	221546	keystroke_e	e	n/a
110.8035	0.0745	221607	keystroke_Key.space	Key.space	n/a
111.4775	0.09	222955	keystroke_e	e	n/a
111.5535	0.059	223107	keystroke_r	r	n/a
111.6285	0.089	223257	keystroke_i	i	n/a
111.748	0.075	223496	keystroke_c	c	n/a
111.958	0.09	223916	keystroke_s	s	n/a
112.393	0.12	224786	keystroke_s	s	n/a
112.4685	0.075	224937	keystroke_o	o	n/a
112.618	0.06	225236	keystroke_n	n	n/a
112.6935	0.135	225387	keystroke_Key.space	Key.space	n/a
112.7385	0.12	225477	keystroke_Key.enter	Key.enter	n/a
112.8645	4.3605	225729	prompt	n/a	perry toilet teacher bench\n
113.4575	0.076	226915	keystroke_p	p	n/a
113.548	0.105	227096	keystroke_e	e	n/a
113.6835	0.0595	227367	keystroke_r	r	n/a
113.879	0.0895	227758	keystroke_r	r	n/a
114.013	0.0755	228026	keystroke_y	y	n/a
114.163	0.0905	228326	keystroke_Key.space	Key.space	n/a
114.313	0.1055	228626	keystroke_t	t	n/a
114.358	0.135	228716	keystroke_o	o	n/a
114.5085	0.0745	229017	keystroke_i	i	n/a
114.688	0.121	229376	keystroke_l	l	n/a
114.794	0.0895	229588	keystroke_e	e	n/a
114.9435	0.1645	229887	keystroke_t	t	n/a
115.0335	0.0895	230067	keystroke_Key.space	Key.space	n/a
115.4535	0.1495	230907	keystroke_t	t	n/a
115.558	0.1055	231116	keystroke_e	e	n/a
115.784	0.059	231568	keystroke_a	a	n/a
115.949	0.09	231898	keystroke_c	c	n/a
116.023	0.091	232046	keystroke_h	h	n/a
116.144	0.1495	232288	keystroke_e	e	n/a
116.263	0.06	232526	keystroke_r	r	n/a
116.308	0.0905	232616	keystroke_Key.space	Key.space	n/a
116.4885	0.1195	232977	keystroke_b	b	n/a
116.563	0.105	233126	keystroke_e	e	n/a
116.6835	0.075	233367	keystroke_n	n	n/a
116.7585	0.09	233517	keystroke_c	c	n/a
116.8785	0.105	233757	keystroke_h	h	n/a
116.9675	0.091	233935	keystroke_Key.space	Key.space	n/a
117.1185	0.104	234237	keystroke_Key.enter	Key.enter	n/a
117.229	5.9215	234458	prompt	n/a	written visual lodging another\n
117.8385	0.105	235677	keystroke_w	w	n/a
118.0635	0.134	236127	keystroke_r	r	n/a
118.2425	0.0905	236485	keystroke_i	i	n/a
118.393	0.061	236786	keystroke_t	t	n/a
118.5135	0.0895	237027	keystroke_t	t	n/a
118.6335	0.1495	237267	keystroke_e	e	n/a
118.769	0.0895	237538	keystroke_n	n	n/a
118.8435	0.0745	237687	keystroke_Key.space	Key.space	n/a
118.978	0.0755	237956	keystroke_v	v	n/a
119.068	0.091	238136	keystroke_i	i	n/a
119.2035	0.0595	238407	keystroke_s	s	n/a
119.2785	0.09	238557	keystroke_u	u	n/a
119.398	0.09	238796	keystroke_a	a	n/a
119.489	0.104	238978	keystroke_l	l	n/a
119.6085	0.0745	239217	keystroke_Key.space	Key.space	n/a
119.8335	0.1195	239667	keystroke_l	l	n/a
120.088	0.0605	240176	keystroke_o	o	n/a
120.164	0.105	240328	keystroke_d	d	n/a
121.5735	0.105	243147	keystroke_g	g	n/a
121.6635	0.075	243327	keystroke_i	i	n/a
121.7985	0.12	243597	keystroke_n	n	n/a
121.8885	0.105	243777	keystroke_g	g	n/a
121.963	0.1045	243926	keystroke_Key.space	Key.space	n/a
122.369	0.1195	244738	keystroke_a	a	n/a
122.4435	0.06	244887	keystroke_n	n	n/a
122.5635	0.09	245127	keystroke_o	o	n/a
122.638	0.075	245276	keystroke_t	t	n/a
122.728	0.1055	245456	keystroke_h	h	n/a
122.818	0.15	245636	keystroke_e	e	n/a
122.878	0.12	245756	keystroke_r	r	n/a
122.983	0.03	245966	keystroke_Key.space	Key.space	n/a
123.0585	0.09	246117	keystroke_Key.enter	Key.enter	n/a
123.1575	5.8575	246315	prompt	n/a	downloadable adoption lawrence banner\n
123.778	0.0905	247556	keystroke_d	d	n/a
123.943	0.0455	247886	keystroke_o	o	n/a
124.018	0.1505	248036	keystroke_w	w	n/a
124.079	0.074	248158	keystroke_n	n	n/a
124.258	0.06	248516	keystroke_l	l	n/a
124.408	0.061	248816	keystroke_o	o	n/a
124.423	0.1055	248846	keystroke_a	a	n/a
124.6635	0.1645	249327	keystroke_d	d	n/a
125.2785	0.1205	250557	keystroke_a	a	n/a
125.354	0.09	250708	keystroke_b	b	n/a
125.5485	0.09	251097	keystroke_l	l	n/a
125.698	0.135	251396	keystroke_e	e	n/a
125.773	0.15	251546	keystroke_Key.space	Key.space	n/a
125.9985	0.0745	251997	keystroke_a	a	n/a
126.178	0.1055	252356	keystroke_d	d	n/a
126.238	0.091	252476	keystroke_o	o	n/a
126.4035	0.09	252807	keystroke_p	p	n/a
126.5085	0.09	253017	keystroke_t	t	n/a
126.6135	0.045	253227	keystroke_i	i	n/a
126.793	0.016	253586	keystroke_o	o	n/a
126.8985	0.0905	253797	keystroke_n	n	n/a
127.0035	0.09	254007	keystroke_Key.space	Key.space	n/a
127.1535	0.105	254307	keystroke_l	l	n/a
127.1975	0.091	254395	keystroke_a	a	n/a
127.3925	0.076	254785	keystroke_w	w	n/a
127.5735	0.104	255147	keystroke_r	r	n/a
127.6335	0.15	255267	keystroke_e	e	n/a
127.768	0.075	255536	keystroke_n	n	n/a
127.8735	0.1495	255747	keystroke_c	c	n/a
127.963	0.121	255926	keystroke_e	e	n/a
128.0385	0.0745	256077	keystroke_Key.space	Key.space	n/a
128.233	0.09	256466	keystroke_b	b	n/a
128.308	0.0905	256616	keystroke_a	a	n/a
128.443	0.06	256886	keystroke_n	n	n/a
128.5935	0.0595	257187	keystroke_n	n	n/a
128.6235	0.135	257247	keystroke_e	e	n/a
128.713	0.15	257426	keystroke_r	r	n/a
128.848	0.09	257696	keystroke_Key.space	Key.space	n/a
128.8935	0.12	257787	keystroke_Key.enter	Key.enter	n/a
129.019	7.467	258038	prompt	n/a	anaheim schema path participate\n
129.6585	0.135	259317	keystroke_a	a	n/a
129.9735	0.135	259947	keystroke_n	n	n/a
130.1235	0.12	260247	keystroke_a	a	n/a
130.483	0.1205	260966	keystroke_h	h	n/a
130.8285	0.18	261657	keystroke_e	e	n/a
131.0235	0.0745	262047	keystroke_i	i	n/a
131.323	0.0755	262646	keystroke_m	m	n/a
131.473	0.105	262946	keystroke_Key.space	Key.space	n/a
131.608	0.09	263216	keystroke_s	s	n/a
131.7735	0.1045	263547	keystroke_c	c	n/a
131.848	0.12	263696	keystroke_h	h	n/a
132.373	0.121	264746	keystroke_e	e	n/a
133.963	0.105	267926	keystroke_m	m	n/a
134.053	0.105	268106	keystroke_a	a	n/a
134.173	0.075	268346	keystroke_Key.space	Key.space	n/a
134.3685	0.1195	268737	keystroke_p	p	n/a
134.4285	0.1045	268857	keystroke_a	a	n/a
134.6385	0.1045	269277	keystroke_t	t	n/a
134.7585	0.0745	269517	keystroke_h	h	n/a
134.8785	0.0445	269757	keystroke_Key.space	Key.space	n/a
134.998	0.105	269996	keystroke_p	p	n/a
135.0435	0.0895	270087	keystroke_a	a	n/a
135.208	0.091	270416	keystroke_r	r	n/a
135.3735	0.075	270747	keystroke_t	t	n/a
135.4635	0.09	270927	keystroke_i	i	n/a
135.5685	0.0755	271137	keystroke_c	c	n/a
135.6585	0.075	271317	keystroke_i	i	n/a
135.839	0.0905	271678	keystroke_p	p	n/a
135.9135	0.09	271827	keystroke_a	a	n/a
136.1235	0.12	272247	keystroke_t	t	n/a
136.1985	0.135	272397	keystroke_e	e	n/a
136.3485	0.135	272697	keystroke_Key.enter	Key.enter	n/a
136.4905	6.5045	272981	prompt	n/a	send readers faculty conditional\n
137.1285	0.0745	274257	keystroke_s	s	n/a
137.279	0.074	274558	keystroke_e	e	n/a
137.398	0.09	274796	keystroke_n	n	n/a
137.4735	0.1045	274947	keystroke_d	d	n/a
137.6085	0.0595	275217	keystroke_Key.space	Key.space	n/a
137.7285	0.12	275457	keystroke_r	r	n/a
137.758	0.1655	275516	keystroke_e	e	n/a
138.419	0.104	276838	keystroke_a	a	n/a
138.628	0.1205	277256	keystroke_d	d	n/a
138.7635	0.135	277527	keystroke_e	e	n/a
138.8685	0.09	277737	keystroke_r	r	n/a
139.0635	0.09	278127	keystroke_s	s	n/a
139.1685	0.09	278337	keystroke_Key.space	Key.space	n/a
139.3185	0.105	278637	keystroke_f	f	n/a
139.5585	0.075	279117	keystroke_a	a	n/a
139.8135	0.104	279627	keystroke_c	c	n/a
139.903	0.0745	279806	keystroke_u	u	n/a
140.098	0.09	280196	keystroke_l	l	n/a
140.203	0.135	280406	keystroke_t	t	n/a
140.309	0.1045	280618	keystroke_y	y	n/a
140.458	0.0905	280916	keystroke_Key.space	Key.space	n/a
140.7135	0.105	281427	keystroke_c	c	n/a
140.8035	0.044	281607	keystroke_o	o	n/a
140.9235	0.075	281847	keystroke_n	n	n/a
140.9825	0.121	281965	keystroke_d	d	n/a
141.0885	0.105	282177	keystroke_i	i	n/a
141.2685	0.105	282537	keystroke_t	t	n/a
141.359	0.0595	282718	keystroke_i	i	n/a
141.4935	0.06	282987	keystroke_o	o	n/a
141.6135	0.075	283227	keystroke_n	n	n/a
141.7035	0.089	283407	keystroke_a	a	n/a
141.8535	0.075	283707	keystroke_Key.space	Key.space	n/a
142.348	0.06	284696	keystroke_Key.backspace	Key.backspace	n/a
142.7085	0.075	285417	keystroke_l	l	n/a
142.8885	0.119	285777	keystroke_Key.space	Key.space	n/a
142.903	0.09	285806	keystroke_Key.enter	Key.enter	n/a
143	9.266	286000	prompt	n/a	mentioned fees laden garmin\n
143.6835	0.074	287367	keystroke_m	m	n/a
143.743	0.12	287486	keystroke_e	e	n/a
143.8635	0.089	287727	keystroke_n	n	n/a
143.983	0.105	287966	keystroke_i	i	n/a
144.028	0.105	288056	keystroke_t	t	n/a
144.223	0.0755	288446	keystroke_o	o	n/a
144.403	0.09	288806	keystroke_n	n	n/a
144.478	0.1505	288956	keystroke_e	e	n/a
144.554	0.1195	289108	keystroke_d	d	n/a
144.658	0.0895	289316	keystroke_Key.space	Key.space	n/a
145.0175	0.09	290035	keystroke_f	f	n/a
145.333	0.105	290666	keystroke_Key.backspace	Key.backspace	n/a
145.4975	0.045	290995	keystroke_Key.backspace	Key.backspace	n/a
145.6175	0.06	291235	keystroke_Key.backspace	Key.backspace	n/a
145.7835	0.044	291567	keystroke_Key.backspace	Key.backspace	n/a
145.9025	0.0765	291805	keystroke_Key.backspace	Key.backspace	n/a
146.0975	0.076	292195	keystroke_Key.backspace	Key.backspace	n/a
146.3675	0.075	292735	keystroke_Key.backspace	Key.backspace	n/a
146.8035	0.045	293607	keystroke_Key.backspace	Key.backspace	n/a
147.6285	0.09	295257	keystroke_t	t	n/a
147.7185	0.045	295437	keystroke_i	i	n/a
147.8535	0.06	295707	keystroke_o	o	n/a
147.9735	0.09	295947	keystroke_n	n	n/a
148.0485	0.135	296097	keystroke_e	e	n/a
148.1235	0.1055	296247	keystroke_d	d	n/a
148.213	0.09	296426	keystroke_Key.space	Key.space	n/a
148.348	0.09	296696	keystroke_f	f	n/a
148.558	0.0905	297116	keystroke_e	e	n/a
148.724	0.06	297448	keystroke_e	e	n/a
149.098	0.0905	298196	keystroke_s	s	n/a
149.2035	0.0895	298407	keystroke_Key.space	Key.space	n/a
149.383	0.12	298766	keystroke_l	l	n/a
149.458	0.0895	298916	keystroke_a	a	n/a
149.6825	0.121	299365	keystroke_d	d	n/a
149.7435	0.15	299487	keystroke_e	e	n/a
149.8325	0.091	299665	keystroke_n	n	n/a
149.9675	0.076	299935	keystroke_Key.space	Key.space	n/a
150.2985	0.06	300597	keystroke_f	f	n/a
150.988	0.06	301976	keystroke_Key.backspace	Key.backspace	n/a
151.183	0.06	302366	keystroke_g	g	n/a
151.393	0.09	302786	keystroke_a	a	n/a
151.588	0.09	303176	keystroke_r	r	n/a
151.6935	0.09	303387	keystroke_m	m	n/a
151.8585	0.09	303717	keystroke_i	i	n/a
151.9635	0.09	303927	keystroke_n	n	n/a
152.0675	0.075	304135	keystroke_Key.space	Key.space	n/a
152.1735	0.0895	304347	keystroke_Key.enter	Key.enter	n/a
152.27	4.78	304540	prompt	n/a	informational regime printer it'd\n
152.8935	0.075	305787	keystroke_i	i	n/a
153.0435	0.075	306087	keystroke_n	n	n/a
153.1035	0.06	306207	keystroke_f	f	n/a
153.2085	0.105	306417	keystroke_o	o	n/a
153.2835	0.045	306567	keystroke_r	r	n/a
153.4185	0.0595	306837	keystroke_m	m	n/a
153.4635	0.09	306927	keystroke_a	a	n/a
153.673	0.075	307346	keystroke_t	t	n/a
153.703	0.047	307406	keystroke_i	i	n/a
153.8385	0.031	307677	keystroke_o	o	n/a
153.9285	0.0755	307857	keystroke_n	n	n/a
154.019	0.119	308038	keystroke_a	a	n/a
154.1085	0.09	308217	keystroke_l	l	n/a
154.2135	0.09	308427	keystroke_Key.space	Key.space	n/a
154.2585	0.12	308517	keystroke_r	r	n/a
154.334	0.0745	308668	keystroke_e	e	n/a
154.5135	0.09	309027	keystroke_g	g	n/a
154.559	0.0595	309118	keystroke_i	i	n/a
154.6935	0.1055	309387	keystroke_m	m	n/a
154.8135	0.12	309627	keystroke_e	e	n/a
154.8585	0.09	309717	keystroke_Key.space	Key.space	n/a
155.0535	0.165	310107	keystroke_p	p	n/a
155.3685	0.09	310737	keystroke_r	r	n/a
155.504	0.0595	311008	keystroke_i	i	n/a
155.6385	0.09	311277	keystroke_n	n	n/a
155.6985	0.09	311397	keystroke_t	t	n/a
155.8485	0.165	311697	keystroke_e	e	n/a
155.9235	0.12	311847	keystroke_r	r	n/a
155.9985	0.06	311997	keystroke_Key.space	Key.space	n/a
156.134	0.1195	312268	keystroke_i	i	n/a
156.239	0.0895	312478	keystroke_t	t	n/a
156.703	0.0905	313406	keystroke_'	'	n/a
156.8085	0.105	313617	keystroke_d	d	n/a
156.9585	0.0905	313917	keystroke_Key.enter	Key.enter	n/a
157.055	4.3905	314110	prompt	n/a	banking lexus boot loaded\n
157.723	0.06	315446	keystroke_b	b	n/a
157.753	0.09	315506	keystroke_a	a	n/a
157.8885	0.0745	315777	keystroke_n	n	n/a
158.068	0.045	316136	keystroke_k	k	n/a
158.203	0.0605	316406	keystroke_i	i	n/a
158.294	0.134	316588	keystroke_n	n	n/a
158.3985	0.075	316797	keystroke_g	g	n/a
158.4735	0.0445	316947	keystroke_Key.space	Key.space	n/a
158.578	0.12	317156	keystroke_l	l	n/a
158.684	0.0445	317368	keystroke_e	e	n/a
158.818	0.106	317636	keystroke_x	x	n/a
158.908	0.075	317816	keystroke_u	u	n/a
159.134	0.1045	318268	keystroke_s	s	n/a
159.193	0.09	318386	keystroke_Key.space	Key.space	n/a
159.373	0.0605	318746	keystroke_b	b	n/a
159.568	0.045	319136	keystroke_o	o	n/a
159.718	0.0905	319436	keystroke_o	o	n/a
159.838	0.09	319676	keystroke_t	t	n/a
160.3475	0.075	320695	keystroke_Key.space	Key.space	n/a
160.4985	0.105	320997	keystroke_l	l	n/a
160.693	0.09	321386	keystroke_o	o	n/a
160.768	0.1205	321536	keystroke_a	a	n/a
160.9635	0.0895	321927	keystroke_d	d	n/a
161.113	0.135	322226	keystroke_e	e	n/a
161.188	0.105	322376	keystroke_d	d	n/a
161.338	0.105	322676	keystroke_Key.enter	Key.enter	n/a
161.4505	4.0145	322901	prompt	n/a	amounts usage modelling white\n
162.028	0.105	324056	keystroke_a	a	n/a
162.118	0.0755	324236	keystroke_m	m	n/a
162.253	0.0755	324506	keystroke_o	o	n/a
162.3735	0.0745	324747	keystroke_u	u	n/a
162.553	0.0895	325106	keystroke_n	n	n/a
162.613	0.0755	325226	keystroke_t	t	n/a
162.7935	0.105	325587	keystroke_s	s	n/a
162.8675	0.076	325735	keystroke_Key.space	Key.space	n/a
163.003	0.1505	326006	keystroke_u	u	n/a
163.1675	0.105	326335	keystroke_s	s	n/a
163.2125	0.15	326425	keystroke_a	a	n/a
163.5585	0.135	327117	keystroke_g	g	n/a
163.6635	0.12	327327	keystroke_e	e	n/a
163.6785	0.12	327357	keystroke_Key.space	Key.space	n/a
163.8435	0.105	327687	keystroke_m	m	n/a
163.9785	0.1055	327957	keystroke_o	o	n/a
164.0535	0.12	328107	keystroke_d	d	n/a
164.1135	0.15	328227	keystroke_e	e	n/a
164.2035	0.0755	328407	keystroke_l	l	n/a
164.3385	0.06	328677	keystroke_i	i	n/a
164.4585	0.09	328917	keystroke_n	n	n/a
164.5035	0.135	329007	keystroke_g	g	n/a
164.5785	0.119	329157	keystroke_Key.space	Key.space	n/a
164.7125	0.136	329425	keystroke_w	w	n/a
164.8635	0.015	329727	keystroke_h	h	n/a
164.9235	0.119	329847	keystroke_i	i	n/a
165.028	0.165	330056	keystroke_t	t	n/a
165.1035	0.254	330207	keystroke_Key.space	Key.space	n/a
165.1185	0.135	330237	keystroke_e	e	n/a
165.3285	0.134	330657	keystroke_Key.enter	Key.enter	n/a
165.4695	6.61	330939	prompt	n/a	tank plasma the oecd\n
166.273	0.015	332546	keystroke_t	t	n/a
166.393	0.09	332786	keystroke_a	a	n/a
166.468	0.0605	332936	keystroke_n	n	n/a
166.6035	0.1055	333207	keystroke_k	k	n/a
166.7225	0.0905	333445	keystroke_Key.space	Key.space	n/a
166.843	0.09	333686	keystroke_p	p	n/a
166.918	0.105	333836	keystroke_l	l	n/a
166.978	0.12	333956	keystroke_a	a	n/a
167.038	0.135	334076	keystroke_s	s	n/a
167.233	0.1355	334466	keystroke_m	m	n/a
167.4435	0.105	334887	keystroke_a	a	n/a
167.6385	0.12	335277	keystroke_Key.space	Key.space	n/a
167.9675	0.091	335935	keystroke_t	t	n/a
168.0285	0.105	336057	keystroke_h	h	n/a
168.1485	0.135	336297	keystroke_e	e	n/a
168.1935	0.06	336387	keystroke_Key.space	Key.space	n/a
168.3435	0.12	336687	keystroke_o	o	n/a
168.4485	0.18	336897	keystroke_c	c	n/a
168.5985	0.1195	337197	keystroke_e	e	n/a
169.753	0.105	339506	keystroke_d	d	n/a
170.398	0.105	340796	keystroke_d	d	n/a
170.7285	0.059	341457	keystroke_Key.backspace	Key.backspace	n/a
170.8635	0.09	341727	keystroke_Key.backspace	Key.backspace	n/a
170.9985	0.06	341997	keystroke_c	c	n/a
171.2235	0.075	342447	keystroke_c	c	n/a
171.6125	0.061	343225	keystroke_Key.backspace	Key.backspace	n/a
171.7935	0.104	343587	keystroke_d	d	n/a
171.9575	0.12	343915	keystroke_Key.enter	Key.enter	n/a
172.084	5.846	344168	prompt	n/a	clips causes integrating serve\n
172.873	0.12	345746	keystroke_c	c	n/a
173.263	0.105	346526	keystroke_l	l	n/a
173.4435	0.0895	346887	keystroke_i	i	n/a
173.6675	0.075	347335	keystroke_p	p	n/a
173.758	0.1045	347516	keystroke_s	s	n/a
173.848	0.1195	347696	keystroke_Key.space	Key.space	n/a
174.178	0.0905	348356	keystroke_c	c	n/a
174.358	0.09	348716	keystroke_a	a	n/a
174.4935	0.075	348987	keystroke_u	u	n/a
174.658	0.0605	349316	keystroke_s	s	n/a
174.793	0.15	349586	keystroke_e	e	n/a
174.8985	0.09	349797	keystroke_s	s	n/a
175.0035	0.075	350007	keystroke_Key.space	Key.space	n/a
175.1535	0.06	350307	keystroke_i	i	n/a
175.2885	0.104	350577	keystroke_n	n	n/a
175.5885	0.105	351177	keystroke_t	t	n/a
175.6485	0.12	351297	keystroke_e	e	n/a
175.8885	0.105	351777	keystroke_g	g	n/a
175.9325	0.121	351865	keystroke_r	r	n/a
176.158	0.0605	352316	keystroke_a	a	n/a
176.3535	0.0755	352707	keystroke_t	t	n/a
176.3985	0.045	352797	keystroke_i	i	n/a
176.5185	0.0895	353037	keystroke_n	n	n/a
176.578	0.075	353156	keystroke_g	g	n/a
176.683	0.1055	353366	keystroke_Key.space	Key.space	n/a
176.818	0.1055	353636	keystroke_s	s	n/a
177.0285	0.105	354057	keystroke_e	e	n/a
177.0885	0.105	354177	keystroke_r	r	n/a
177.3285	0.1205	354657	keystroke_v	v	n/a
177.4635	0.09	354927	keystroke_e	e	n/a
177.8235	0.105	355647	keystroke_Key.enter	Key.enter	n/a
177.935	6.8945	355870	prompt	n/a	bring irrigation matched somerset\n
178.7535	0.09	357507	keystroke_b	b	n/a
178.8735	0.06	357747	keystroke_e	e	n/a
178.9485	0.074	357897	keystroke_i	i	n/a
179.0085	0.105	358017	keystroke_r	r	n/a
179.428	0.03	358856	keystroke_Key.backspace	Key.backspace	n/a
179.5625	0.061	359125	keystroke_Key.backspace	Key.backspace	n/a
179.7135	0.135	359427	keystroke_r	r	n/a
179.8185	0.075	359637	keystroke_i	i	n/a
179.953	0.1055	359906	keystroke_n	n	n/a
180.043	0.09	360086	keystroke_g	g	n/a
180.149	0.074	360298	keystroke_Key.space	Key.space	n/a
180.538	0.0755	361076	keystroke_i	i	n/a
180.7935	0.0605	361587	keystroke_r	r	n/a
180.9285	0.09	361857	keystroke_r	r	n/a
181.2135	0.06	362427	keystroke_g	g	n/a
181.3935	0.075	362787	keystroke_a	a	n/a
181.5885	0.075	363177	keystroke_t	t	n/a
181.6485	0.06	363297	keystroke_i	i	n/a
181.7985	0.045	363597	keystroke_o	o	n/a
181.9035	0.09	363807	keystroke_n	n	n/a
181.9635	0.09	363927	keystroke_Key.space	Key.space	n/a
182.0985	0.089	364197	keystroke_m	m	n/a
182.1285	0.075	364257	keystroke_a	a	n/a
182.3085	0.045	364617	keystroke_t	t	n/a
182.5035	0.06	365007	keystroke_c	c	n/a
182.5935	0.12	365187	keystroke_h	h	n/a
182.6535	0.1355	365307	keystroke_e	e	n/a
182.7435	0.09	365487	keystroke_d	d	n/a
182.8035	0.12	365607	keystroke_Key.space	Key.space	n/a
183.0435	0.105	366087	keystroke_s	s	n/a
183.1635	0.09	366327	keystroke_o	o	n/a
183.478	0.1055	366956	keystroke_m	m	n/a
183.943	0.1355	367886	keystroke_e	e	n/a
184.018	0.12	368036	keystroke_r	r	n/a
184.243	0.09	368486	keystroke_s	s	n/a
184.378	0.1205	368756	keystroke_e	e	n/a
184.468	0.1505	368936	keystroke_t	t	n/a
184.6025	0.105	369205	keystroke_Key.space	Key.space	n/a
184.7085	0.1195	369417	keystroke_Key.enter	Key.enter	n/a
184.8345	7.0605	369669	prompt	n/a	permissions attention warren tunisia\n
185.443	0.105	370886	keystroke_p	p	n/a
185.563	0.165	371126	keystroke_e	e	n/a
185.683	0.1205	371366	keystroke_r	r	n/a
185.818	0.075	371636	keystroke_m	m	n/a
185.9535	0.1045	371907	keystroke_i	i	n/a
186.073	0.0905	372146	keystroke_s	s	n/a
186.2385	0.1195	372477	keystroke_s	s	n/a
186.3135	0.06	372627	keystroke_i	i	n/a
186.4785	0.075	372957	keystroke_o	o	n/a
186.5985	0.105	373197	keystroke_n	n	n/a
186.688	0.09	373376	keystroke_s	s	n/a
186.8085	0.09	373617	keystroke_Key.space	Key.space	n/a
187.018	0.0905	374036	keystroke_a	a	n/a
187.2885	0.06	374577	keystroke_t	t	n/a
187.423	0.075	374846	keystroke_t	t	n/a
187.513	0.105	375026	keystroke_e	e	n/a
187.633	0.1055	375266	keystroke_n	n	n/a
187.843	0.0905	375686	keystroke_t	t	n/a
187.918	0.075	375836	keystroke_i	i	n/a
188.114	0.044	376228	keystroke_o	o	n/a
188.248	0.09	376496	keystroke_n	n	n/a
188.353	0.105	376706	keystroke_Key.space	Key.space	n/a
188.638	0.12	377276	keystroke_w	w	n/a
188.819	0.12	377638	keystroke_a	a	n/a
189.103	0.06	378206	keystroke_r	r	n/a
189.238	0.106	378476	keystroke_r	r	n/a
189.3135	0.1195	378627	keystroke_e	e	n/a
189.418	0.12	378836	keystroke_n	n	n/a
189.568	0.09	379136	keystroke_Key.space	Key.space	n/a
189.7785	0.104	379557	keystroke_t	t	n/a
189.8835	0.074	379767	keystroke_u	u	n/a
190.1085	0.09	380217	keystroke_n	n	n/a
190.8885	0.165	381777	keystroke_i	i	n/a
191.2935	0.075	382587	keystroke_s	s	n/a
191.3535	0.12	382707	keystroke_i	i	n/a
191.5035	0.135	383007	keystroke_Key.space	Key.space	n/a
191.5485	0.12	383097	keystroke_a	a	n/a
191.7885	0.105	383577	keystroke_Key.enter	Key.enter	n/a
191.9	4.9895	383800	prompt	n/a	exam homeland energy estimate\n
192.5685	0.12	385137	keystroke_e	e	n/a
192.7785	0.075	385557	keystroke_x	x	n/a
192.9285	0.09	385857	keystroke_a	a	n/a
193.0185	0.105	386037	keystroke_m	m	n/a
193.1835	0.03	386367	keystroke_Key.space	Key.space	n/a
193.2585	0.06	386517	keystroke_h	h	n/a
193.3935	0.09	386787	keystroke_o	o	n/a
193.5135	0.105	387027	keystroke_m	m	n/a
193.6025	0.106	387205	keystroke_e	e	n/a
193.7385	0.105	387477	keystroke_l	l	n/a
193.8585	0.0605	387717	keystroke_a	a	n/a
193.934	0.0895	387868	keystroke_n	n	n/a
194.0085	0.12	388017	keystroke_d	d	n/a
194.1125	0.076	388225	keystroke_Key.space	Key.space	n/a
194.2485	0.1195	388497	keystroke_e	e	n/a
194.3375	0.076	388675	keystroke_n	n	n/a
194.4275	0.121	388855	keystroke_e	e	n/a
194.5185	0.089	389037	keystroke_r	r	n/a
194.7285	0.075	389457	keystroke_g	g	n/a
194.7885	0.075	389577	keystroke_y	y	n/a
194.9235	0.075	389847	keystroke_Key.space	Key.space	n/a
195.0435	0.06	390087	keystroke_s	s	n/a
195.4485	0.06	390897	keystroke_Key.backspace	Key.backspace	n/a
195.5235	0.105	391047	keystroke_e	e	n/a
195.5835	0.09	391167	keystroke_s	s	n/a
195.7935	0.09	391587	keystroke_t	t	n/a
195.8985	0.09	391797	keystroke_i	i	n/a
196.0485	0.1345	392097	keystroke_m	m	n/a
196.1235	0.0745	392247	keystroke_a	a	n/a
196.3335	0.0895	392667	keystroke_t	t	n/a
196.393	0.105	392786	keystroke_e	e	n/a
196.618	0.06	393236	keystroke_s	s	n/a
196.708	0.105	393416	keystroke_Key.space	Key.space	n/a
196.753	0.135	393506	keystroke_Key.enter	Key.enter	n/a
196.893	6.477	393786	prompt	n/a	ending retired estimate specified\n
197.6835	0.165	395367	keystroke_e	e	n/a
197.9385	0.09	395877	keystroke_n	n	n/a
198.0135	0.119	396027	keystroke_d	d	n/a
198.163	0.0605	396326	keystroke_i	i	n/a
198.2975	0.061	396595	keystroke_n	n	n/a
198.3275	0.075	396655	keystroke_g	g	n/a
198.4035	0.119	396807	keystroke_Key.space	Key.space	n/a
198.5375	0.1205	397075	keystroke_r	r	n/a
198.5975	0.12	397195	keystroke_e	e	n/a
198.853	0.1205	397706	keystroke_t	t	n/a
199.0175	0.106	398035	keystroke_i	i	n/a
199.1535	0.12	398307	keystroke_r	r	n/a
199.2435	0.12	398487	keystroke_e	e	n/a
199.438	0.0905	398876	keystroke_d	d	n/a
199.483	0.105	398966	keystroke_Key.space	Key.space	n/a
199.9185	0.135	399837	keystroke_e	e	n/a
199.9785	0.135	399957	keystroke_s	s	n/a
200.293	0.121	400586	keystroke_t	t	n/a
200.384	0.074	400768	keystroke_i	i	n/a
200.518	0.1205	401036	keystroke_m	m	n/a
200.608	0.09	401216	keystroke_a	a	n/a
200.833	0.135	401666	keystroke_t	t	n/a
200.893	0.135	401786	keystroke_e	e	n/a
200.983	0.09	401966	keystroke_Key.space	Key.space	n/a
201.1785	0.12	402357	keystroke_s	s	n/a
201.2985	0.1045	402597	keystroke_p	p	n/a
201.419	0.089	402838	keystroke_e	e	n/a
202.483	0.1055	404966	keystroke_c	c	n/a
202.6185	0.06	405237	keystroke_i	i	n/a
202.7235	0.1045	405447	keystroke_f	f	n/a
202.813	0.0905	405626	keystroke_i	i	n/a
202.978	0.12	405956	keystroke_e	e	n/a
203.038	0.1205	406076	keystroke_d	d	n/a
203.1885	0.1795	406377	keystroke_Key.enter	Key.enter	n/a
203.248	0.105	406496	keystroke_Key.space	Key.space	n/a
203.3755	6.009	406751	prompt	n/a	reflects attorney bizarre betting\n
204.074	0.1495	408148	keystroke_r	r	n/a
204.134	0.1495	408268	keystroke_e	e	n/a
204.328	0.1045	408656	keystroke_l	l	n/a
204.389	0.089	408778	keystroke_f	f	n/a
204.7325	0.046	409465	keystroke_Key.backspace	Key.backspace	n/a
204.898	0.0145	409796	keystroke_Key.backspace	Key.backspace	n/a
204.9585	0.09	409917	keystroke_f	f	n/a
205.0635	0.105	410127	keystroke_l	l	n/a
205.154	0.1645	410308	keystroke_e	e	n/a
205.2725	0.105	410545	keystroke_c	c	n/a
205.5285	0.075	411057	keystroke_t	t	n/a
205.828	0.09	411656	keystroke_s	s	n/a
205.948	0.0755	411896	keystroke_Key.space	Key.space	n/a
206.203	0.0905	412406	keystroke_a	a	n/a
206.4135	0.075	412827	keystroke_t	t	n/a
206.5335	0.09	413067	keystroke_t	t	n/a
206.653	0.12	413306	keystroke_o	o	n/a
206.728	0.0755	413456	keystroke_r	r	n/a
206.8485	0.104	413697	keystroke_n	n	n/a
206.9385	0.1045	413877	keystroke_e	e	n/a
207.0735	0.0595	414147	keystroke_y	y	n/a
207.1935	0.089	414387	keystroke_Key.space	Key.space	n/a
207.3425	0.075	414685	keystroke_b	b	n/a
207.4785	0.104	414957	keystroke_i	i	n/a
207.5535	0.12	415107	keystroke_z	z	n/a
207.6585	0.105	415317	keystroke_a	a	n/a
207.958	0.0755	415916	keystroke_r	r	n/a
208.1085	0.1495	416217	keystroke_r	r	n/a
208.2135	0.1345	416427	keystroke_e	e	n/a
208.333	0.075	416666	keystroke_Key.space	Key.space	n/a
208.483	0.09	416966	keystroke_b	b	n/a
208.5585	0.0895	417117	keystroke_e	e	n/a
208.738	0.0605	417476	keystroke_t	t	n/a
208.8735	0.09	417747	keystroke_t	t	n/a
208.9485	0.06	417897	keystroke_i	i	n/a
209.0535	0.09	418107	keystroke_n	n	n/a
209.1275	0.091	418255	keystroke_g	g	n/a
209.2785	0.1045	418557	keystroke_Key.enter	Key.enter	n/a
209.368	0.091	418736	keystroke_Key.space	Key.space	n/a
209.3875	7.3175	418775	prompt	n/a	season granted font costumes\n
210.226	0.1035	420452	keystroke_s	s	n/a
210.5235	0.119	421047	keystroke_a	a	n/a
211.0185	0.0595	422037	keystroke_Key.backspace	Key.backspace	n/a
211.1235	0.0605	422247	keystroke_e	e	n/a
211.3185	0.09	422637	keystroke_a	a	n/a
211.5285	0.12	423057	keystroke_s	s	n/a
211.6485	0.06	423297	keystroke_o	o	n/a
211.7835	0.12	423567	keystroke_n	n	n/a
211.9335	0.075	423867	keystroke_Key.space	Key.space	n/a
212.0835	0.135	424167	keystroke_g	g	n/a
212.159	0.104	424318	keystroke_r	r	n/a
212.383	0.09	424766	keystroke_a	a	n/a
212.518	0.0755	425036	keystroke_n	n	n/a
212.968	0.06	425936	keystroke_t	t	n/a
213.089	0.15	426178	keystroke_e	e	n/a
213.178	0.1205	426356	keystroke_d	d	n/a
213.283	0.075	426566	keystroke_Key.space	Key.space	n/a
213.403	0.09	426806	keystroke_f	f	n/a
213.509	0.0595	427018	keystroke_o	o	n/a
213.6735	0.0905	427347	keystroke_n	n	n/a
213.765	0.118	427530	keystroke_t	t	n/a
213.973	0.105	427946	keystroke_Key.space	Key.space	n/a
214.6035	0.075	429207	keystroke_c	c	n/a
214.7085	0.09	429417	keystroke_o	o	n/a
214.8585	0.09	429717	keystroke_n	n	n/a
215.473	0.06	430946	keystroke_Key.backspace	Key.backspace	n/a
215.5485	0.1045	431097	keystroke_s	s	n/a
215.743	0.105	431486	keystroke_t	t	n/a
215.818	0.0905	431636	keystroke_u	u	n/a
215.998	0.0905	431996	keystroke_m	m	n/a
216.1035	0.1195	432207	keystroke_e	e	n/a
216.374	0.0895	432748	keystroke_s	s	n/a
216.4785	0.0595	432957	keystroke_Key.space	Key.space	n/a
216.583	0.1195	433166	keystroke_Key.enter	Key.enter	n/a
216.7095	6.2655	433419	prompt	n/a	hughes focal equal dangerous\n
217.3625	0.0615	434725	keystroke_h	h	n/a
217.469	0.105	434938	keystroke_u	u	n/a
217.6035	0.105	435207	keystroke_g	g	n/a
217.7685	0.0895	435537	keystroke_h	h	n/a
217.9475	0.1355	435895	keystroke_e	e	n/a
218.0385	0.1195	436077	keystroke_s	s	n/a
218.173	0.1205	436346	keystroke_Key.space	Key.space	n/a
218.323	0.106	436646	keystroke_f	f	n/a
218.4435	0.1045	436887	keystroke_o	o	n/a
218.5635	0.045	437127	keystroke_c	c	n/a
218.7135	0.0905	437427	keystroke_a	a	n/a
218.8485	0.1505	437697	keystroke_l	l	n/a
219.013	0.0755	438026	keystroke_Key.space	Key.space	n/a
219.4025	0.106	438805	keystroke_e	e	n/a
219.5835	0.09	439167	keystroke_u	u	n/a
219.6435	0.0905	439287	keystroke_q	q	n/a
220.7385	0.045	441477	keystroke_Key.backspace	Key.backspace	n/a
220.8735	0.0895	441747	keystroke_Key.backspace	Key.backspace	n/a
221.0385	0.134	442077	keystroke_q	q	n/a
221.2185	0.105	442437	keystroke_u	u	n/a
221.3535	0.104	442707	keystroke_a	a	n/a
221.5035	0.075	443007	keystroke_l	l	n/a
221.6525	0.091	443305	keystroke_Key.space	Key.space	n/a
221.833	0.075	443666	keystroke_d	d	n/a
221.923	0.09	443846	keystroke_a	a	n/a
222.028	0.075	444056	keystroke_n	n	n/a
222.1485	0.0595	444297	keystroke_g	g	n/a
222.283	0.12	444566	keystroke_e	e	n/a
222.3435	0.09	444687	keystroke_r	r	n/a
222.388	0.046	444776	keystroke_o	o	n/a
222.5235	0.105	445047	keystroke_u	u	n/a
222.613	0.121	445226	keystroke_s	s	n/a
222.658	0.2245	445316	keystroke_Key.space	Key.space	n/a
222.8385	0.134	445677	keystroke_Key.enter	Key.enter	n/a
222.979	5.801	445958	prompt	n/a	graphs dominant msgstr before\n
223.634	0.0895	447268	keystroke_g	g	n/a
223.6935	0.075	447387	keystroke_r	r	n/a
223.9025	0.075	447805	keystroke_a	a	n/a
223.9185	0.06	447837	keystroke_p	p	n/a
224.1135	0.074	448227	keystroke_h	h	n/a
224.2175	0.121	448435	keystroke_s	s	n/a
224.3685	0.059	448737	keystroke_Key.space	Key.space	n/a
224.5775	0.121	449155	keystroke_d	d	n/a
224.6985	0.075	449397	keystroke_o	o	n/a
224.8185	0.075	449637	keystroke_m	m	n/a
224.9385	0.075	449877	keystroke_i	i	n/a
225.0885	0.075	450177	keystroke_n	n	n/a
225.1485	0.09	450297	keystroke_a	a	n/a
225.3285	0.09	450657	keystroke_n	n	n/a
225.4635	0.12	450927	keystroke_t	t	n/a
225.5385	0.075	451077	keystroke_Key.space	Key.space	n/a
225.7785	0.075	451557	keystroke_m	m	n/a
225.8685	0.1195	451737	keystroke_s	s	n/a
226.378	0.03	452756	keystroke_g	g	n/a
226.7085	0.135	453417	keystroke_s	s	n/a
227.0235	0.089	454047	keystroke_t	t	n/a
227.2475	0.0755	454495	keystroke_r	r	n/a
227.8335	0.0895	455667	keystroke_Key.space	Key.space	n/a
227.983	0.105	455966	keystroke_b	b	n/a
228.043	0.105	456086	keystroke_e	e	n/a
228.224	0.09	456448	keystroke_f	f	n/a
228.328	0.106	456656	keystroke_o	o	n/a
228.418	0.1205	456836	keystroke_r	r	n/a
228.4775	0.1055	456955	keystroke_e	e	n/a
228.553	0.1205	457106	keystroke_Key.space	Key.space	n/a
228.6735	0.105	457347	keystroke_Key.enter	Key.enter	n/a
228.785	4.6155	457570	prompt	n/a	noble live food screensaver\n
229.6935	0.06	459387	keystroke_n	n	n/a
229.8435	0.1045	459687	keystroke_o	o	n/a
229.963	0.09	459926	keystroke_b	b	n/a
230.0835	0.1195	460167	keystroke_l	l	n/a
230.2185	0.0745	460437	keystroke_e	e	n/a
230.263	0.09	460526	keystroke_Key.space	Key.space	n/a
230.428	0.0755	460856	keystroke_l	l	n/a
230.5485	0.09	461097	keystroke_i	i	n/a
230.654	0.0895	461308	keystroke_v	v	n/a
230.714	0.1195	461428	keystroke_e	e	n/a
230.788	0.0605	461576	keystroke_Key.space	Key.space	n/a
230.9685	0.075	461937	keystroke_f	f	n/a
231.058	0.045	462116	keystroke_o	o	n/a
231.1935	0.0745	462387	keystroke_o	o	n/a
231.283	0.1205	462566	keystroke_d	d	n/a
231.3885	0.075	462777	keystroke_Key.space	Key.space	n/a
231.5235	0.105	463047	keystroke_s	s	n/a
231.7185	0.0905	463437	keystroke_c	c	n/a
231.9285	0.075	463857	keystroke_r	r	n/a
232.1385	0.06	464277	keystroke_e	e	n/a
232.2585	0.105	464517	keystroke_e	e	n/a
232.3485	0.075	464697	keystroke_n	n	n/a
232.5285	0.135	465057	keystroke_s	s	n/a
232.6185	0.105	465237	keystroke_a	a	n/a
232.8585	0.075	465717	keystroke_v	v	n/a
233.0385	0.12	466077	keystroke_e	e	n/a
233.1285	0.12	466257	keystroke_r	r	n/a
233.2785	0.1195	466557	keystroke_Key.enter	Key.enter	n/a
233.323	0.09	466646	keystroke_Key.space	Key.space	n/a
233.405	7.21	466810	prompt	n/a	nicaragua bahrain champions instant\n
234.103	0.105	468206	keystroke_n	n	n/a
234.313	0.1205	468626	keystroke_i	i	n/a
234.538	0.1055	469076	keystroke_c	c	n/a
235.1685	0.1345	470337	keystroke_a	a	n/a
235.4385	0.075	470877	keystroke_r	r	n/a
235.6025	0.091	471205	keystroke_a	a	n/a
235.8575	0.076	471715	keystroke_g	g	n/a
235.9475	0.091	471895	keystroke_u	u	n/a
236.1135	0.09	472227	keystroke_a	a	n/a
236.2175	0.105	472435	keystroke_Key.space	Key.space	n/a
236.4435	0.105	472887	keystroke_b	b	n/a
236.5485	0.1195	473097	keystroke_a	a	n/a
236.7135	0.12	473427	keystroke_h	h	n/a
237.6435	0.0895	475287	keystroke_r	r	n/a
237.884	0.104	475768	keystroke_a	a	n/a
237.973	0.0455	475946	keystroke_i	i	n/a
238.093	0.1205	476186	keystroke_n	n	n/a
238.214	0.074	476428	keystroke_Key.space	Key.space	n/a
238.3335	0.0745	476667	keystroke_c	c	n/a
238.393	0.091	476786	keystroke_h	h	n/a
238.5575	0.076	477115	keystroke_a	a	n/a
238.6185	0.06	477237	keystroke_m	m	n/a
238.7535	0.0745	477507	keystroke_p	p	n/a
238.9485	0.075	477897	keystroke_i	i	n/a
239.1585	0.06	478317	keystroke_o	o	n/a
239.2935	0.0895	478587	keystroke_n	n	n/a
239.384	0.104	478768	keystroke_s	s	n/a
239.443	0.075	478886	keystroke_Key.space	Key.space	n/a
239.548	0.09	479096	keystroke_i	i	n/a
239.683	0.105	479366	keystroke_n	n	n/a
239.743	0.1055	479486	keystroke_s	s	n/a
239.8935	0.0745	479787	keystroke_t	t	n/a
240.059	0.1045	480118	keystroke_a	a	n/a
240.148	0.105	480296	keystroke_n	n	n/a
240.2685	0.1195	480537	keystroke_t	t	n/a
240.3585	0.0595	480717	keystroke_Key.space	Key.space	n/a
240.5385	0.075	481077	keystroke_Key.enter	Key.enter	n/a
240.6195	5.7405	481239	prompt	n/a	annoying resorts witch designated\n
241.3785	0.06	482757	keystroke_a	a	n/a
241.4535	0.06	482907	keystroke_n	n	n/a
241.5885	0.06	483177	keystroke_n	n	n/a
241.7085	0.09	483417	keystroke_o	o	n/a
241.8135	0.075	483627	keystroke_y	y	n/a
241.874	0.0745	483748	keystroke_i	i	n/a
242.0085	0.075	484017	keystroke_n	n	n/a
242.0685	0.105	484137	keystroke_g	g	n/a
242.1885	0.089	484377	keystroke_Key.space	Key.space	n/a
242.2935	0.1355	484587	keystroke_r	r	n/a
242.369	0.119	484738	keystroke_e	e	n/a
242.6075	0.075	485215	keystroke_s	s	n/a
242.714	0.0895	485428	keystroke_o	o	n/a
242.8485	0.105	485697	keystroke_r	r	n/a
243.0425	0.061	486085	keystroke_t	t	n/a
243.2085	0.075	486417	keystroke_s	s	n/a
243.2685	0.074	486537	keystroke_Key.space	Key.space	n/a
243.3725	0.121	486745	keystroke_w	w	n/a
243.4325	0.046	486865	keystroke_h	h	n/a
243.5525	0.09	487105	keystroke_i	i	n/a
243.7635	0.09	487527	keystroke_c	c	n/a
243.8685	0.059	487737	keystroke_h	h	n/a
243.9875	0.076	487975	keystroke_Key.space	Key.space	n/a
244.1235	0.15	488247	keystroke_d	d	n/a
244.2135	0.105	488427	keystroke_e	e	n/a
244.438	0.06	488876	keystroke_s	s	n/a
244.499	0.104	488998	keystroke_i	i	n/a
244.678	0.1205	489356	keystroke_g	g	n/a
244.783	0.105	489566	keystroke_n	n	n/a
245.6535	0.09	491307	keystroke_a	a	n/a
245.8785	0.06	491757	keystroke_t	t	n/a
246.0285	0.105	492057	keystroke_e	e	n/a
246.0585	0.1205	492117	keystroke_d	d	n/a
246.1635	0.044	492327	keystroke_Key.space	Key.space	n/a
246.253	0.105	492506	keystroke_Key.enter	Key.enter	n/a
246.366	5.604	492732	prompt	n/a	registered goes ongoing decorative\n
247.0335	0.1205	494067	keystroke_r	r	n/a
247.094	0.104	494188	keystroke_e	e	n/a
247.3035	0.06	494607	keystroke_g	g	n/a
247.408	0.075	494816	keystroke_i	i	n/a
247.498	0.105	494996	keystroke_s	s	n/a
248.0235	0.105	496047	keystroke_t	t	n/a
248.2485	0.12	496497	keystroke_e	e	n/a
248.3985	0.1045	496797	keystroke_r	r	n/a
248.488	0.0755	496976	keystroke_e	e	n/a
248.6385	0.12	497277	keystroke_d	d	n/a
248.7735	0.045	497547	keystroke_Key.space	Key.space	n/a
248.8785	0.075	497757	keystroke_g	g	n/a
248.9235	0.105	497847	keystroke_o	o	n/a
249.088	0.15	498176	keystroke_e	e	n/a
249.1785	0.12	498357	keystroke_s	s	n/a
249.253	0.075	498506	keystroke_Key.space	Key.space	n/a
249.4035	0.09	498807	keystroke_o	o	n/a
249.5535	0.09	499107	keystroke_n	n	n/a
249.7635	0.105	499527	keystroke_g	g	n/a
249.8835	0.089	499767	keystroke_o	o	n/a
250.0485	0.0605	500097	keystroke_i	i	n/a
250.184	0.0885	500368	keystroke_n	n	n/a
250.2575	0.076	500515	keystroke_g	g	n/a
250.3475	0.0905	500695	keystroke_Key.space	Key.space	n/a
250.4685	0.119	500937	keystroke_d	d	n/a
250.5585	0.105	501117	keystroke_e	e	n/a
250.723	0.1205	501446	keystroke_c	c	n/a
250.8585	0.0595	501717	keystroke_o	o	n/a
250.9635	0.0745	501927	keystroke_r	r	n/a
251.1585	0.0745	502317	keystroke_a	a	n/a
251.323	0.075	502646	keystroke_t	t	n/a
251.4135	0.075	502827	keystroke_i	i	n/a
251.548	0.075	503096	keystroke_v	v	n/a
251.653	0.12	503306	keystroke_e	e	n/a
251.698	0.09	503396	keystroke_Key.space	Key.space	n/a
251.863	0.1055	503726	keystroke_Key.enter	Key.enter	n/a
251.976	6.069	503952	prompt	n/a	mayor declaration telecom realize\n
252.6885	0.0745	505377	keystroke_m	m	n/a
252.733	0.106	505466	keystroke_a	a	n/a
252.883	0.09	505766	keystroke_y	y	n/a
253.0935	0.0905	506187	keystroke_o	o	n/a
253.243	0.1055	506486	keystroke_r	r	n/a
253.273	0.105	506546	keystroke_Key.space	Key.space	n/a
253.468	0.1205	506936	keystroke_d	d	n/a
253.513	0.121	507026	keystroke_e	e	n/a
253.754	0.059	507508	keystroke_c	c	n/a
253.858	0.106	507716	keystroke_l	l	n/a
253.964	0.0595	507928	keystroke_a	a	n/a
254.1585	0.09	508317	keystroke_r	r	n/a
254.3385	0.075	508677	keystroke_a	a	n/a
254.5035	0.09	509007	keystroke_t	t	n/a
254.5485	0.09	509097	keystroke_i	i	n/a
254.7135	0.045	509427	keystroke_o	o	n/a
254.8185	0.1195	509637	keystroke_n	n	n/a
254.9235	0.075	509847	keystroke_Key.space	Key.space	n/a
255.073	0.12	510146	keystroke_t	t	n/a
255.178	0.09	510356	keystroke_e	e	n/a
255.343	0.0755	510686	keystroke_l	l	n/a
255.403	0.09	510806	keystroke_e	e	n/a
255.583	0.1055	511166	keystroke_c	c	n/a
255.673	0.0605	511346	keystroke_o	o	n/a
255.8085	0.105	511617	keystroke_m	m	n/a
255.928	0.09	511856	keystroke_Key.space	Key.space	n/a
256.093	0.135	512186	keystroke_r	r	n/a
256.1685	0.1195	512337	keystroke_e	e	n/a
256.394	0.0895	512788	keystroke_a	a	n/a
256.454	0.0895	512908	keystroke_l	l	n/a
257.3985	0.075	514797	keystroke_i	i	n/a
257.5035	0.0895	515007	keystroke_z	z	n/a
257.6985	0.15	515397	keystroke_e	e	n/a
257.9235	0.12	515847	keystroke_Key.enter	Key.enter	n/a
258.05	6.265	516100	prompt	n/a	best conservation rescue rich\n
258.7485	0.09	517497	keystroke_b	b	n/a
258.7785	0.135	517557	keystroke_e	e	n/a
258.8685	0.09	517737	keystroke_s	s	n/a
259.0485	0.075	518097	keystroke_t	t	n/a
259.1085	0.06	518217	keystroke_Key.space	Key.space	n/a
259.2735	0.06	518547	keystroke_o	o	n/a
259.3185	0.03	518637	keystroke_c	c	n/a
259.5435	0.06	519087	keystroke_n	n	n/a
260.2785	0.045	520557	keystroke_Key.backspace	Key.backspace	n/a
260.4285	0.045	520857	keystroke_Key.backspace	Key.backspace	n/a
260.5485	0.06	521097	keystroke_Key.backspace	Key.backspace	n/a
260.5935	0.1195	521187	keystroke_c	c	n/a
260.743	0.06	521486	keystroke_o	o	n/a
260.908	0.0755	521816	keystroke_n	n	n/a
261.433	0.0605	522866	keystroke_s	s	n/a
261.5835	0.12	523167	keystroke_e	e	n/a
261.643	0.1055	523286	keystroke_r	r	n/a
261.8685	0.06	523737	keystroke_v	v	n/a
262.0335	0.074	524067	keystroke_a	a	n/a
262.2285	0.105	524457	keystroke_t	t	n/a
262.2435	0.074	524487	keystroke_i	i	n/a
262.4075	0.046	524815	keystroke_o	o	n/a
262.5435	0.105	525087	keystroke_n	n	n/a
262.6335	0.0595	525267	keystroke_Key.space	Key.space	n/a
262.6635	0.15	525327	keystroke_r	r	n/a
262.7385	0.09	525477	keystroke_e	e	n/a
262.918	0.0605	525836	keystroke_s	s	n/a
263.0385	0.1045	526077	keystroke_c	c	n/a
263.1735	0.089	526347	keystroke_u	u	n/a
263.3085	0.18	526617	keystroke_e	e	n/a
263.4285	0.104	526857	keystroke_Key.space	Key.space	n/a
263.6525	0.075	527305	keystroke_r	r	n/a
263.7425	0.075	527485	keystroke_i	i	n/a
263.849	0.0895	527698	keystroke_c	c	n/a
263.9685	0.0895	527937	keystroke_h	h	n/a
264.0585	0.1195	528117	keystroke_Key.space	Key.space	n/a
264.2535	0.06	528507	keystroke_Key.enter	Key.enter	n/a
264.319	7.691	528638	prompt	n/a	unable dressing additions designated\n
264.928	0.0755	529856	keystroke_u	u	n/a
265.0935	0.0905	530187	keystroke_n	n	n/a
265.2435	0.09	530487	keystroke_a	a	n/a
265.3635	0.06	530727	keystroke_b	b	n/a
265.5285	0.105	531057	keystroke_l	l	n/a
265.6035	0.105	531207	keystroke_e	e	n/a
265.6785	0.12	531357	keystroke_Key.space	Key.space	n/a
266.2635	0.12	532527	keystroke_d	d	n/a
266.4735	0.12	532947	keystroke_r	r	n/a
266.549	0.089	533098	keystroke_e	e	n/a
266.7285	0.0745	533457	keystroke_s	s	n/a
266.8785	0.0755	533757	keystroke_s	s	n/a
266.9385	0.06	533877	keystroke_i	i	n/a
267.0585	0.09	534117	keystroke_n	n	n/a
267.1485	0.06	534297	keystroke_g	g	n/a
267.2525	0.075	534505	keystroke_Key.space	Key.space	n/a
267.3425	0.091	534685	keystroke_a	a	n/a
267.5685	0.0745	535137	keystroke_d	d	n/a
267.748	0.075	535496	keystroke_d	d	n/a
267.883	0.09	535766	keystroke_i	i	n/a
268.048	0.0755	536096	keystroke_t	t	n/a
268.1085	0.075	536217	keystroke_i	i	n/a
268.2585	0.06	536517	keystroke_o	o	n/a
268.378	0.1205	536756	keystroke_n	n	n/a
268.483	0.0905	536966	keystroke_s	s	n/a
268.5885	0.075	537177	keystroke_Key.space	Key.space	n/a
268.7235	0.105	537447	keystroke_d	d	n/a
268.9475	0.121	537895	keystroke_e	e	n/a
269.1885	0.09	538377	keystroke_s	s	n/a
269.3535	0.165	538707	keystroke_i	i	n/a
269.6535	0.09	539307	keystroke_g	g	n/a
270.2525	0.046	540505	keystroke_Key.backspace	Key.backspace	n/a
271.0335	0.09	542067	keystroke_g	g	n/a
271.273	0.09	542546	keystroke_n	n	n/a
271.378	0.075	542756	keystroke_a	a	n/a
271.573	0.0905	543146	keystroke_t	t	n/a
271.6785	0.135	543357	keystroke_e	e	n/a
271.7835	0.105	543567	keystroke_d	d	n/a
271.9035	0.105	543807	keystroke_Key.enter	Key.enter	n/a
271.918	0.1055	543836	keystroke_Key.space	Key.space	n/a
272.0155	8.32	544031	prompt	n/a	aren't acquired considerable dramatically\n
272.6385	0.09	545277	keystroke_a	a	n/a
272.8475	0.1655	545695	keystroke_r	r	n/a
272.9535	0.119	545907	keystroke_e	e	n/a
273.0575	0.076	546115	keystroke_n	n	n/a
273.3425	0.1055	546685	keystroke_t	t	n/a
273.703	0.0605	547406	keystroke_Key.backspace	Key.backspace	n/a
273.898	0.12	547796	keystroke_'	'	n/a
273.988	0.121	547976	keystroke_t	t	n/a
274.1235	0.1045	548247	keystroke_Key.space	Key.space	n/a
274.408	0.1045	548816	keystroke_a	a	n/a
274.6335	0.1045	549267	keystroke_c	c	n/a
274.8735	0.1195	549747	keystroke_q	q	n/a
274.9785	0.075	549957	keystroke_u	u	n/a
275.158	0.09	550316	keystroke_i	i	n/a
275.188	0.105	550376	keystroke_r	r	n/a
275.308	0.15	550616	keystroke_e	e	n/a
275.413	0.1205	550826	keystroke_d	d	n/a
275.518	0.075	551036	keystroke_Key.space	Key.space	n/a
275.6385	0.0905	551277	keystroke_c	c	n/a
275.7135	0.075	551427	keystroke_o	o	n/a
275.878	0.09	551756	keystroke_n	n	n/a
276.163	0.0455	552326	keystroke_d	d	n/a
276.6135	0.06	553227	keystroke_Key.backspace	Key.backspace	n/a
276.703	0.105	553406	keystroke_s	s	n/a
276.8235	0.0895	553647	keystroke_i	i	n/a
276.9285	0.1345	553857	keystroke_d	d	n/a
277.0185	0.1795	554037	keystroke_e	e	n/a
277.183	0.075	554366	keystroke_r	r	n/a
277.3635	0.12	554727	keystroke_a	a	n/a
277.5435	0.045	555087	keystroke_b	b	n/a
277.6935	0.105	555387	keystroke_l	l	n/a
277.7535	0.105	555507	keystroke_e	e	n/a
277.8725	0.076	555745	keystroke_Key.space	Key.space	n/a
278.0235	0.075	556047	keystroke_d	d	n/a
278.2035	0.06	556407	keystroke_r	r	n/a
278.3835	0.075	556767	keystroke_a	a	n/a
278.773	0.06	557546	keystroke_Key.backspace	Key.backspace	n/a
278.998	0.121	557996	keystroke_m	m	n/a
279.0885	0.075	558177	keystroke_a	a	n/a
279.3585	0.09	558717	keystroke_t	t	n/a
279.4335	0.075	558867	keystroke_i	i	n/a
279.5835	0.12	559167	keystroke_c	c	n/a
279.6885	0.075	559377	keystroke_a	a	n/a
279.7785	0.06	559557	keystroke_l	l	n/a
279.9135	0.09	559827	keystroke_l	l	n/a
279.9885	0.165	559977	keystroke_y	y	n/a
280.1385	0.105	560277	keystroke_Key.space	Key.space	n/a
280.2135	0.12	560427	keystroke_Key.enter	Key.enter	n/a
280.3405	6.2795	560681	prompt	n/a	stupid palestinian bugs bottles\n
280.9935	0.045	561987	keystroke_s	s	n/a
281.1285	0.1045	562257	keystroke_t	t	n/a
281.218	0.075	562436	keystroke_u	u	n/a
281.3685	0.075	562737	keystroke_p	p	n/a
281.5185	0.1195	563037	keystroke_i	i	n/a
281.669	0.089	563338	keystroke_d	d	n/a
281.7735	0.075	563547	keystroke_Key.space	Key.space	n/a
281.9525	0.106	563905	keystroke_p	p	n/a
282.0435	0.089	564087	keystroke_a	a	n/a
282.2385	0.1645	564477	keystroke_l	l	n/a
282.6135	0.0895	565227	keystroke_e	e	n/a
283.1685	0.165	566337	keystroke_s	s	n/a
284.0685	0.06	568137	keystroke_t	t	n/a
284.1435	0.089	568287	keystroke_i	i	n/a
284.3375	0.061	568675	keystroke_n	n	n/a
284.4885	0.075	568977	keystroke_i	i	n/a
284.6085	0.09	569217	keystroke_a	a	n/a
284.6995	0.1195	569399	keystroke_n	n	n/a
284.8335	0.075	569667	keystroke_Key.space	Key.space	n/a
284.9685	0.09	569937	keystroke_b	b	n/a
285.0735	0.09	570147	keystroke_u	u	n/a
285.179	0.0895	570358	keystroke_g	g	n/a
285.3735	0.1055	570747	keystroke_s	s	n/a
285.4335	0.075	570867	keystroke_Key.space	Key.space	n/a
285.5835	0.09	571167	keystroke_b	b	n/a
285.7785	0.0895	571557	keystroke_o	o	n/a
285.883	0.03	571766	keystroke_t	t	n/a
285.9885	0.0755	571977	keystroke_t	t	n/a
286.065	0.088	572130	keystroke_l	l	n/a
286.213	0.1505	572426	keystroke_e	e	n/a
286.319	0.104	572638	keystroke_s	s	n/a
286.438	0.1205	572876	keystroke_Key.space	Key.space	n/a
286.483	0.1355	572966	keystroke_Key.enter	Key.enter	n/a
286.6245	5.9355	573249	prompt	n/a	assists correlation its percent\n
287.2635	0.09	574527	keystroke_a	a	n/a
287.4435	0.105	574887	keystroke_s	s	n/a
287.6535	0.0745	575307	keystroke_s	s	n/a
287.729	0.105	575458	keystroke_i	i	n/a
287.909	0.09	575818	keystroke_s	s	n/a
288.0885	0.09	576177	keystroke_t	t	n/a
288.3285	0.104	576657	keystroke_s	s	n/a
288.4785	0.104	576957	keystroke_Key.space	Key.space	n/a
288.763	0.12	577526	keystroke_c	c	n/a
288.9435	0.1045	577887	keystroke_o	o	n/a
289.6335	0.06	579267	keystroke_r	r	n/a
289.7985	0.09	579597	keystroke_r	r	n/a
289.8435	0.12	579687	keystroke_e	e	n/a
290.0535	0.0905	580107	keystroke_l	l	n/a
290.1585	0.0905	580317	keystroke_a	a	n/a
290.3685	0.09	580737	keystroke_t	t	n/a
290.4435	0.045	580887	keystroke_i	i	n/a
290.5785	0.045	581157	keystroke_o	o	n/a
290.714	0.0895	581428	keystroke_n	n	n/a
290.8335	0.0595	581667	keystroke_Key.space	Key.space	n/a
290.969	0.09	581938	keystroke_i	i	n/a
291.089	0.0745	582178	keystroke_t	t	n/a
291.2835	0.12	582567	keystroke_s	s	n/a
291.358	0.06	582716	keystroke_Key.space	Key.space	n/a
291.5085	0.09	583017	keystroke_p	p	n/a
291.583	0.121	583166	keystroke_e	e	n/a
291.689	0.074	583378	keystroke_r	r	n/a
291.868	0.15	583736	keystroke_c	c	n/a
291.959	0.135	583918	keystroke_e	e	n/a
292.064	0.104	584128	keystroke_n	n	n/a
292.183	0.1205	584366	keystroke_t	t	n/a
292.348	0.105	584696	keystroke_Key.space	Key.space	n/a
292.438	0.12	584876	keystroke_Key.enter	Key.enter	n/a
292.563	4.1225	585126	prompt	n/a	pole initially chicks clinic\n
293.218	0.075	586436	keystroke_p	p	n/a
293.3685	0.0895	586737	keystroke_o	o	n/a
293.548	0.075	587096	keystroke_l	l	n/a
293.6835	0.1195	587367	keystroke_e	e	n/a
293.713	0.06	587426	keystroke_Key.space	Key.space	n/a
293.849	0.059	587698	keystroke_i	i	n/a
293.969	0.0595	587938	keystroke_n	n	n/a
294.1035	0.09	588207	keystroke_i	i	n/a
294.1635	0.075	588327	keystroke_t	t	n/a
294.3585	0.0895	588717	keystroke_a	a	n/a
294.4635	0.03	588927	keystroke_l	l	n/a
294.583	0.075	589166	keystroke_l	l	n/a
294.7785	0.0745	589557	keystroke_y	y	n/a
294.8985	0.075	589797	keystroke_Key.space	Key.space	n/a
294.989	0.12	589978	keystroke_c	c	n/a
295.0485	0.0745	590097	keystroke_h	h	n/a
295.183	0.0755	590366	keystroke_i	i	n/a
295.259	0.09	590518	keystroke_c	c	n/a
295.364	0.1045	590728	keystroke_k	k	n/a
295.4535	0.075	590907	keystroke_s	s	n/a
295.5585	0.06	591117	keystroke_Key.space	Key.space	n/a
295.6335	0.12	591267	keystroke_c	c	n/a
295.7385	0.075	591477	keystroke_l	l	n/a
295.8735	0.0755	591747	keystroke_i	i	n/a
296.0535	0.06	592107	keystroke_n	n	n/a
296.1735	0.0895	592347	keystroke_i	i	n/a
296.3535	0.105	592707	keystroke_c	c	n/a
296.5035	0.1195	593007	keystroke_Key.space	Key.space	n/a
296.563	0.1205	593126	keystroke_Key.enter	Key.enter	n/a
296.6905	9.8945	593381	prompt	n/a	client crisis expenditure recently\n
297.419	0.1345	594838	keystroke_c	c	n/a
297.6885	0.09	595377	keystroke_l	l	n/a
297.8835	0.0305	595767	keystroke_i	i	n/a
298.004	0.0895	596008	keystroke_n	n	n/a
298.0185	0.075	596037	keystroke_e	e	n/a
298.1985	0.119	596397	keystroke_t	t	n/a
298.2585	0.075	596517	keystroke_Key.space	Key.space	n/a
298.9035	0.045	597807	keystroke_Key.backspace	Key.backspace	n/a
299.0385	0.074	598077	keystroke_Key.backspace	Key.backspace	n/a
299.2475	0.075	598495	keystroke_Key.backspace	Key.backspace	n/a
299.7275	0.061	599455	keystroke_Key.backspace	Key.backspace	n/a
299.8635	0.12	599727	keystroke_e	e	n/a
299.9535	0.135	599907	keystroke_n	n	n/a
300.1035	0.1055	600207	keystroke_c	c	n/a
300.538	0.06	601076	keystroke_Key.backspace	Key.backspace	n/a
300.629	0.0895	601258	keystroke_t	t	n/a
300.7785	0.1045	601557	keystroke_Key.space	Key.space	n/a
300.928	0.0755	601856	keystroke_c	c	n/a
301.108	0.06	602216	keystroke_i	i	n/a
301.169	0.119	602338	keystroke_r	r	n/a
301.4975	0.0605	602995	keystroke_Key.backspace	Key.backspace	n/a
301.6325	0.06	603265	keystroke_Key.backspace	Key.backspace	n/a
301.724	0.09	603448	keystroke_r	r	n/a
301.8725	0.046	603745	keystroke_i	i	n/a
302.608	0.1055	605216	keystroke_s	s	n/a
303.2085	0.1045	606417	keystroke_i	i	n/a
303.3885	0.12	606777	keystroke_s	s	n/a
303.538	0.0905	607076	keystroke_Key.space	Key.space	n/a
303.7035	0.105	607407	keystroke_e	e	n/a
303.9135	0.105	607827	keystroke_x	x	n/a
304.0485	0.06	608097	keystroke_p	p	n/a
304.1235	0.1505	608247	keystroke_e	e	n/a
304.2885	0.105	608577	keystroke_n	n	n/a
304.709	0.1045	609418	keystroke_d	d	n/a
304.8285	0.165	609657	keystroke_i	i	n/a
305.0385	0.09	610077	keystroke_t	t	n/a
305.1585	0.0755	610317	keystroke_u	u	n/a
305.2635	0.0905	610527	keystroke_r	r	n/a
305.3235	0.12	610647	keystroke_e	e	n/a
305.4135	0.06	610827	keystroke_Key.space	Key.space	n/a
305.5485	0.1055	611097	keystroke_r	r	n/a
305.6235	0.09	611247	keystroke_e	e	n/a
305.7885	0.1055	611577	keystroke_c	c	n/a
305.8485	0.075	611697	keystroke_e	e	n/a
305.9535	0.045	611907	keystroke_n	n	n/a
305.9985	0.135	611997	keystroke_t	t	n/a
306.1185	0.09	612237	keystroke_l	l	n/a
306.224	0.0895	612448	keystroke_y	y	n/a
306.2535	0.194	612507	keystroke_Key.space	Key.space	n/a
306.4635	0.119	612927	keystroke_Key.enter	Key.enter	n/a
306.5895	7.076	613179	prompt	n/a	determined ratios watches oakland\n
307.1835	0.15	614367	keystroke_d	d	n/a
307.3185	0.1045	614637	keystroke_e	e	n/a
307.528	0.0605	615056	keystroke_t	t	n/a
307.633	0.1205	615266	keystroke_e	e	n/a
307.7235	0.0905	615447	keystroke_r	r	n/a
307.7985	0.045	615597	keystroke_m	m	n/a
307.9335	0.06	615867	keystroke_i	i	n/a
308.0385	0.105	616077	keystroke_n	n	n/a
308.1285	0.09	616257	keystroke_e	e	n/a
308.3385	0.09	616677	keystroke_d	d	n/a
308.4435	0.09	616887	keystroke_Key.space	Key.space	n/a
308.6235	0.075	617247	keystroke_r	r	n/a
308.7885	0.09	617577	keystroke_a	a	n/a
308.9835	0.09	617967	keystroke_t	t	n/a
309.0585	0.0605	618117	keystroke_i	i	n/a
309.2085	0.06	618417	keystroke_o	o	n/a
309.3135	0.09	618627	keystroke_s	s	n/a
309.4185	0.105	618837	keystroke_Key.space	Key.space	n/a
309.5685	0.12	619137	keystroke_w	w	n/a
309.644	0.0895	619288	keystroke_a	a	n/a
309.8835	0.075	619767	keystroke_t	t	n/a
310.1535	0.0745	620307	keystroke_c	c	n/a
310.303	0.076	620606	keystroke_h	h	n/a
310.4985	0.1495	620997	keystroke_e	e	n/a
310.753	0.09	621506	keystroke_s	s	n/a
310.8285	0.075	621657	keystroke_Key.space	Key.space	n/a
310.993	0.1055	621986	keystroke_o	o	n/a
311.113	0.1205	622226	keystroke_a	a	n/a
311.2345	0.1335	622469	keystroke_l	l	n/a
311.6985	0.045	623397	keystroke_Key.backspace	Key.backspace	n/a
311.8935	0.0905	623787	keystroke_k	k	n/a
312.164	0.03	624328	keystroke_l	l	n/a
312.178	0.076	624356	keystroke_a	a	n/a
312.373	0.105	624746	keystroke_d	d	n/a
313.003	0.045	626006	keystroke_Key.backspace	Key.backspace	n/a
313.2285	0.075	626457	keystroke_n	n	n/a
313.318	0.135	626636	keystroke_d	d	n/a
313.4685	0.0895	626937	keystroke_Key.space	Key.space	n/a
313.558	0.105	627116	keystroke_Key.enter	Key.enter	n/a
313.6705	5.4995	627341	prompt	n/a	gates cents states charleston\n
314.369	0.075	628738	keystroke_g	g	n/a
314.5635	0.0755	629127	keystroke_a	a	n/a
314.744	0.105	629488	keystroke_t	t	n/a
314.7885	0.1355	629577	keystroke_e	e	n/a
314.999	0.1195	629998	keystroke_s	s	n/a
315.1935	0.075	630387	keystroke_Key.space	Key.space	n/a
315.4635	0.135	630927	keystroke_c	c	n/a
315.5385	0.18	631077	keystroke_e	e	n/a
315.763	0.045	631526	keystroke_n	n	n/a
315.8835	0.12	631767	keystroke_t	t	n/a
316.124	0.09	632248	keystroke_s	s	n/a
316.2735	0.089	632547	keystroke_Key.space	Key.space	n/a
316.5585	0.0155	633117	keystroke_s	s	n/a
316.649	0.06	633298	keystroke_t	t	n/a
316.799	0.09	633598	keystroke_a	a	n/a
316.979	0.1345	633958	keystroke_t	t	n/a
317.039	0.1195	634078	keystroke_e	e	n/a
317.2485	0.0905	634497	keystroke_s	s	n/a
317.339	0.0745	634678	keystroke_Key.space	Key.space	n/a
317.414	0.0895	634828	keystroke_c	c	n/a
317.5185	0.1055	635037	keystroke_h	h	n/a
317.6085	0.075	635217	keystroke_a	a	n/a
317.789	0.1045	635578	keystroke_r	r	n/a
318.209	0.119	636418	keystroke_l	l	n/a
318.329	0.134	636658	keystroke_e	e	n/a
318.403	0.105	636806	keystroke_s	s	n/a
318.6285	0.1055	637257	keystroke_t	t	n/a
318.704	0.045	637408	keystroke_o	o	n/a
318.8385	0.09	637677	keystroke_n	n	n/a
318.9435	0.12	637887	keystroke_Key.space	Key.space	n/a
319.0785	0.09	638157	keystroke_Key.enter	Key.enter	n/a
319.1765	5.2735	638353	prompt	n/a	analyze cedar provides oliver\n
319.8885	0.0905	639777	keystroke_a	a	n/a
319.9935	0.09	639987	keystroke_n	n	n/a
320.114	0.104	640228	keystroke_a	a	n/a
320.233	0.061	640466	keystroke_l	l	n/a
320.428	0.061	640856	keystroke_y	y	n/a
320.6085	0.1045	641217	keystroke_z	z	n/a
320.833	0.105	641666	keystroke_e	e	n/a
320.908	0.09	641816	keystroke_Key.space	Key.space	n/a
321.0735	0.1655	642147	keystroke_c	c	n/a
321.179	0.1195	642358	keystroke_e	e	n/a
321.434	0.1195	642868	keystroke_d	d	n/a
321.6435	0.09	643287	keystroke_a	a	n/a
321.8535	0.0905	643707	keystroke_r	r	n/a
321.9285	0.0295	643857	keystroke_Key.space	Key.space	n/a
322.034	0.0895	644068	keystroke_p	p	n/a
322.138	0.0455	644276	keystroke_r	r	n/a
322.229	0.074	644458	keystroke_o	o	n/a
322.3185	0.075	644637	keystroke_v	v	n/a
322.423	0.1055	644846	keystroke_i	i	n/a
322.5435	0.1645	645087	keystroke_d	d	n/a
322.9785	0.1645	645957	keystroke_e	e	n/a
323.279	0.105	646558	keystroke_s	s	n/a
323.398	0.09	646796	keystroke_Key.space	Key.space	n/a
323.654	0.0155	647308	keystroke_o	o	n/a
323.743	0.091	647486	keystroke_l	l	n/a
323.893	0.076	647786	keystroke_i	i	n/a
323.954	0.0745	647908	keystroke_v	v	n/a
324.1035	0.12	648207	keystroke_e	e	n/a
324.1935	0.12	648387	keystroke_r	r	n/a
324.2835	0.09	648567	keystroke_Key.space	Key.space	n/a
324.3285	0.12	648657	keystroke_Key.enter	Key.enter	n/a
324.455	5.785	648910	prompt	n/a	profit laboratory acts damaged\n
325.1085	0.12	650217	keystroke_p	p	n/a
325.2285	0.06	650457	keystroke_r	r	n/a
325.3185	0.0745	650637	keystroke_o	o	n/a
325.408	0.105	650816	keystroke_f	f	n/a
325.528	0.106	651056	keystroke_i	i	n/a
325.693	0.0905	651386	keystroke_t	t	n/a
325.753	0.1205	651506	keystroke_Key.space	Key.space	n/a
326.2185	0.1205	652437	keystroke_l	l	n/a
326.323	0.136	652646	keystroke_a	a	n/a
326.5475	0.0905	653095	keystroke_b	b	n/a
327.0435	0.06	654087	keystroke_o	o	n/a
327.1935	0.0455	654387	keystroke_r	r	n/a
327.3735	0.09	654747	keystroke_a	a	n/a
327.6435	0.06	655287	keystroke_t	t	n/a
327.7335	0.0755	655467	keystroke_o	o	n/a
327.8385	0.075	655677	keystroke_r	r	n/a
327.9425	0.0765	655885	keystroke_y	y	n/a
328.0925	0.075	656185	keystroke_Key.space	Key.space	n/a
328.1835	0.09	656367	keystroke_a	a	n/a
328.3785	0.09	656757	keystroke_c	c	n/a
328.5735	0.075	657147	keystroke_t	t	n/a
328.738	0.135	657476	keystroke_s	s	n/a
328.843	0.09	657686	keystroke_Key.space	Key.space	n/a
329.1285	0.06	658257	keystroke_d	d	n/a
329.2635	0.1045	658527	keystroke_a	a	n/a
329.383	0.1205	658766	keystroke_m	m	n/a
329.5185	0.075	659037	keystroke_a	a	n/a
329.7285	0.06	659457	keystroke_g	g	n/a
329.908	0.1205	659816	keystroke_e	e	n/a
329.9535	0.165	659907	keystroke_d	d	n/a
330.0735	0.075	660147	keystroke_Key.space	Key.space	n/a
330.133	0.105	660266	keystroke_Key.enter	Key.enter	n/a
330.2445	6.0405	660489	prompt	n/a	successful approx locking ministry\n
330.839	0.089	661678	keystroke_s	s	n/a
330.929	0.0895	661858	keystroke_u	u	n/a
331.1535	0.06	662307	keystroke_c	c	n/a
331.2885	0.105	662577	keystroke_c	c	n/a
331.4085	0.1055	662817	keystroke_e	e	n/a
331.6185	0.06	663237	keystroke_s	s	n/a
331.7685	0.075	663537	keystroke_s	s	n/a
331.934	0.0895	663868	keystroke_f	f	n/a
331.9935	0.074	663987	keystroke_u	u	n/a
332.1575	0.106	664315	keystroke_l	l	n/a
332.233	0.06	664466	keystroke_Key.space	Key.space	n/a
332.503	0.105	665006	keystroke_a	a	n/a
332.668	0.0605	665336	keystroke_p	p	n/a
332.818	0.075	665636	keystroke_p	p	n/a
333.013	0.091	666026	keystroke_o	o	n/a
333.5835	0.015	667167	keystroke_Key.backspace	Key.backspace	n/a
333.614	0.0295	667228	keystroke_r	r	n/a
333.629	0.1045	667258	keystroke_o	o	n/a
333.7935	0.1055	667587	keystroke_x	x	n/a
333.9135	0.104	667827	keystroke_Key.space	Key.space	n/a
334.1535	0.0895	668307	keystroke_l	l	n/a
334.2885	0.1045	668577	keystroke_o	o	n/a
334.408	0.105	668816	keystroke_c	c	n/a
334.498	0.075	668996	keystroke_k	k	n/a
334.739	0.015	669478	keystroke_i	i	n/a
334.783	0.1205	669566	keystroke_n	n	n/a
334.888	0.0745	669776	keystroke_g	g	n/a
334.933	0.0605	669866	keystroke_Key.space	Key.space	n/a
335.0685	0.075	670137	keystroke_m	m	n/a
335.1885	0.0745	670377	keystroke_i	i	n/a
335.309	0.089	670618	keystroke_n	n	n/a
335.4435	0.12	670887	keystroke_i	i	n/a
335.473	0.106	670946	keystroke_s	s	n/a
335.6685	0.15	671337	keystroke_t	t	n/a
335.7285	0.15	671457	keystroke_r	r	n/a
335.8635	0.044	671727	keystroke_y	y	n/a
335.8925	0.226	671785	keystroke_Key.space	Key.space	n/a
336.178	0.1045	672356	keystroke_Key.enter	Key.enter	n/a
336.29	6.445	672580	prompt	n/a	dominican card cottage worse\n
336.944	0.1045	673888	keystroke_d	d	n/a
337.0485	0.06	674097	keystroke_o	o	n/a
337.184	0.075	674368	keystroke_m	m	n/a
337.3035	0.1055	674607	keystroke_i	i	n/a
337.4535	0.0905	674907	keystroke_n	n	n/a
337.5885	0.105	675177	keystroke_i	i	n/a
337.7385	0.105	675477	keystroke_c	c	n/a
338.3685	0.135	676737	keystroke_a	a	n/a
338.4735	0.12	676947	keystroke_n	n	n/a
338.5785	0.105	677157	keystroke_Key.space	Key.space	n/a
339.044	0.0595	678088	keystroke_c	c	n/a
339.1935	0.09	678387	keystroke_a	a	n/a
339.3885	0.0595	678777	keystroke_r	r	n/a
339.538	0.0755	679076	keystroke_d	d	n/a
339.628	0.09	679256	keystroke_Key.space	Key.space	n/a
339.7485	0.0745	679497	keystroke_c	c	n/a
340.108	0.1055	680216	keystroke_o	o	n/a
340.228	0.0905	680456	keystroke_t	t	n/a
340.378	0.076	680756	keystroke_t	t	n/a
340.559	0.104	681118	keystroke_a	a	n/a
340.723	0.135	681446	keystroke_g	g	n/a
340.799	0.12	681598	keystroke_e	e	n/a
340.8735	0.0745	681747	keystroke_Key.space	Key.space	n/a
341.023	0.09	682046	keystroke_w	w	n/a
341.189	0.105	682378	keystroke_r	r	n/a
341.698	0.0155	683396	keystroke_Key.backspace	Key.backspace	n/a
341.878	0.105	683756	keystroke_o	o	n/a
342.0435	0.1045	684087	keystroke_r	r	n/a
342.253	0.105	684506	keystroke_s	s	n/a
342.448	0.1205	684896	keystroke_e	e	n/a
342.5535	0.12	685107	keystroke_Key.space	Key.space	n/a
342.658	0.0745	685316	keystroke_Key.enter	Key.enter	n/a
342.74	5.62	685480	prompt	n/a	population joshua risk racial\n
343.393	0.0905	686786	keystroke_p	p	n/a
343.574	0.0595	687148	keystroke_o	o	n/a
343.724	0.075	687448	keystroke_p	p	n/a
343.919	0.0595	687838	keystroke_u	u	n/a
344.0835	0.09	688167	keystroke_l	l	n/a
344.1585	0.0905	688317	keystroke_a	a	n/a
344.354	0.089	688708	keystroke_t	t	n/a
344.429	0.059	688858	keystroke_i	i	n/a
344.564	0.0595	689128	keystroke_o	o	n/a
344.6835	0.1355	689367	keystroke_n	n	n/a
344.8635	0.03	689727	keystroke_Key.space	Key.space	n/a
344.9985	0.09	689997	keystroke_j	j	n/a
345.1335	0.105	690267	keystroke_o	o	n/a
345.2685	0.105	690537	keystroke_s	s	n/a
345.3885	0.09	690777	keystroke_h	h	n/a
345.4935	0.105	690987	keystroke_u	u	n/a
345.703	0.076	691406	keystroke_a	a	n/a
345.793	0.0745	691586	keystroke_Key.space	Key.space	n/a
345.9585	0.0755	691917	keystroke_r	r	n/a
346.0035	0.074	692007	keystroke_i	i	n/a
346.1535	0.134	692307	keystroke_s	s	n/a
346.2425	0.12	692485	keystroke_k	k	n/a
346.3935	0.074	692787	keystroke_Key.space	Key.space	n/a
347.024	0.089	694048	keystroke_r	r	n/a
347.159	0.09	694318	keystroke_i	i	n/a
347.263	0.06	694526	keystroke_a	a	n/a
347.459	0.09	694918	keystroke_c	c	n/a
347.564	0.089	695128	keystroke_i	i	n/a
347.6985	0.1045	695397	keystroke_a	a	n/a
347.7885	0.09	695577	keystroke_l	l	n/a
347.863	0.1205	695726	keystroke_Key.space	Key.space	n/a
348.223	0.135	696446	keystroke_Key.enter	Key.enter	n/a
348.3645	5.1255	696729	prompt	n/a	guaranteed motors chef resort\n
349.154	0.074	698308	keystroke_g	g	n/a
349.2435	0.09	698487	keystroke_u	u	n/a
349.4085	0.1055	698817	keystroke_a	a	n/a
349.633	0.045	699266	keystroke_r	r	n/a
349.784	0.0745	699568	keystroke_a	a	n/a
349.8735	0.0755	699747	keystroke_n	n	n/a
350.0085	0.09	700017	keystroke_t	t	n/a
350.3235	0.06	700647	keystroke_e	e	n/a
350.4735	0.09	700947	keystroke_e	e	n/a
350.5185	0.135	701037	keystroke_d	d	n/a
350.6085	0.06	701217	keystroke_Key.space	Key.space	n/a
350.7285	0.0755	701457	keystroke_m	m	n/a
350.8335	0.12	701667	keystroke_o	o	n/a
350.9835	0.09	701967	keystroke_t	t	n/a
351.1035	0.0905	702207	keystroke_o	o	n/a
351.2085	0.1495	702417	keystroke_r	r	n/a
351.2985	0.1195	702597	keystroke_s	s	n/a
351.4635	0.0595	702927	keystroke_Key.space	Key.space	n/a
351.613	0.075	703226	keystroke_c	c	n/a
351.7185	0.0755	703437	keystroke_h	h	n/a
351.764	0.1195	703528	keystroke_e	e	n/a
351.9885	0.1195	703977	keystroke_f	f	n/a
352.168	0.105	704336	keystroke_Key.space	Key.space	n/a
352.438	0.1355	704876	keystroke_r	r	n/a
352.528	0.09	705056	keystroke_e	e	n/a
352.7385	0.0745	705477	keystroke_s	s	n/a
352.828	0.105	705656	keystroke_o	o	n/a
352.949	0.075	705898	keystroke_r	r	n/a
353.129	0.104	706258	keystroke_t	t	n/a
353.219	0.089	706438	keystroke_Key.space	Key.space	n/a
353.368	0.12	706736	keystroke_Key.enter	Key.enter	n/a
353.495	4.93	706990	prompt	n/a	indoor mall providing ryan\n
354.1035	0.0755	708207	keystroke_i	i	n/a
354.268	0.061	708536	keystroke_n	n	n/a
354.2985	0.09	708597	keystroke_d	d	n/a
354.493	0.0605	708986	keystroke_o	o	n/a
354.644	0.105	709288	keystroke_o	o	n/a
354.8535	0.06	709707	keystroke_Key.space	Key.space	n/a
355.258	0.06	710516	keystroke_Key.backspace	Key.backspace	n/a
355.348	0.121	710696	keystroke_r	r	n/a
355.453	0.075	710906	keystroke_Key.space	Key.space	n/a
355.648	0.075	711296	keystroke_m	m	n/a
355.738	0.0905	711476	keystroke_a	a	n/a
355.8885	0.06	711777	keystroke_l	l	n/a
356.0385	0.1205	712077	keystroke_l	l	n/a
356.1735	0.075	712347	keystroke_Key.space	Key.space	n/a
356.4435	0.075	712887	keystroke_p	p	n/a
356.5485	0.06	713097	keystroke_r	r	n/a
356.5935	0.105	713187	keystroke_o	o	n/a
356.743	0.075	713486	keystroke_v	v	n/a
356.833	0.09	713666	keystroke_i	i	n/a
356.938	0.1055	713876	keystroke_d	d	n/a
357.0285	0.075	714057	keystroke_i	i	n/a
357.1785	0.075	714357	keystroke_n	n	n/a
357.2685	0.075	714537	keystroke_g	g	n/a
357.3285	0.075	714657	keystroke_Key.space	Key.space	n/a
357.5985	0.12	715197	keystroke_r	r	n/a
357.7785	0.105	715557	keystroke_y	y	n/a
357.9435	0.135	715887	keystroke_a	a	n/a
358.093	0.076	716186	keystroke_n	n	n/a
358.1235	0.0895	716247	keystroke_Key.space	Key.space	n/a
358.333	0.09	716666	keystroke_Key.enter	Key.enter	n/a
358.429	8.4865	716858	prompt	n/a	antivirus subscribe allocated operational\n
359.2035	0.1055	718407	keystroke_a	a	n/a
359.3535	0.09	718707	keystroke_n	n	n/a
359.594	0.0595	719188	keystroke_t	t	n/a
359.6385	0.12	719277	keystroke_i	i	n/a
359.9235	0.09	719847	keystroke_v	v	n/a
360.0435	0.135	720087	keystroke_i	i	n/a
360.2535	0.0155	720507	keystroke_s	s	n/a
361.2135	0.06	722427	keystroke_Key.backspace	Key.backspace	n/a
361.484	0.1045	722968	keystroke_r	r	n/a
361.574	0.0595	723148	keystroke_u	u	n/a
361.769	0.089	723538	keystroke_s	s	n/a
361.873	0.1205	723746	keystroke_Key.space	Key.space	n/a
362.083	0.091	724166	keystroke_s	s	n/a
362.143	0.0755	724286	keystroke_u	u	n/a
362.3235	0.105	724647	keystroke_b	b	n/a
362.429	0.074	724858	keystroke_s	s	n/a
362.5935	0.075	725187	keystroke_c	c	n/a
362.789	0.105	725578	keystroke_r	r	n/a
362.8785	0.09	725757	keystroke_i	i	n/a
363.0135	0.12	726027	keystroke_b	b	n/a
363.1185	0.09	726237	keystroke_e	e	n/a
363.1935	0.09	726387	keystroke_Key.space	Key.space	n/a
363.3285	0.09	726657	keystroke_a	a	n/a
363.4635	0.075	726927	keystroke_l	l	n/a
363.6135	0.075	727227	keystroke_l	l	n/a
363.748	0.105	727496	keystroke_o	o	n/a
363.838	0.045	727676	keystroke_c	c	n/a
363.9585	0.09	727917	keystroke_a	a	n/a
364.168	0.076	728336	keystroke_t	t	n/a
364.303	0.1355	728606	keystroke_e	e	n/a
364.3935	0.1045	728787	keystroke_d	d	n/a
364.468	0.075	728936	keystroke_Key.space	Key.space	n/a
364.634	0.059	729268	keystroke_o	o	n/a
364.7985	0.075	729597	keystroke_p	p	n/a
364.844	0.134	729688	keystroke_e	e	n/a
364.934	0.089	729868	keystroke_r	r	n/a
365.4135	0.135	730827	keystroke_a	a	n/a
366.074	0.119	732148	keystroke_t	t	n/a
366.149	0.06	732298	keystroke_i	i	n/a
366.283	0.0455	732566	keystroke_o	o	n/a
366.3885	0.0745	732777	keystroke_n	n	n/a
366.4785	0.09	732957	keystroke_a	a	n/a
366.584	0.089	733168	keystroke_l	l	n/a
366.674	0.0895	733348	keystroke_Key.space	Key.space	n/a
366.8085	0.105	733617	keystroke_Key.enter	Key.enter	n/a
366.9205	6.43	733841	prompt	n/a	perceived gratuit reducing cargo\n
367.589	0.105	735178	keystroke_p	p	n/a
367.649	0.12	735298	keystroke_e	e	n/a
367.724	0.075	735448	keystroke_r	r	n/a
367.934	0.134	735868	keystroke_c	c	n/a
368.024	0.119	736048	keystroke_e	e	n/a
368.129	0.104	736258	keystroke_i	i	n/a
368.219	0.0745	736438	keystroke_v	v	n/a
368.4135	0.1655	736827	keystroke_e	e	n/a
368.4735	0.1645	736947	keystroke_d	d	n/a
368.5935	0.0895	737187	keystroke_Key.space	Key.space	n/a
368.9085	0.135	737817	keystroke_g	g	n/a
369.0285	0.09	738057	keystroke_r	r	n/a
369.2385	0.075	738477	keystroke_a	a	n/a
369.4635	0.1055	738927	keystroke_t	t	n/a
369.5385	0.0905	739077	keystroke_u	u	n/a
369.7635	0.0295	739527	keystroke_i	i	n/a
369.823	0.09	739646	keystroke_t	t	n/a
369.898	0.09	739796	keystroke_Key.space	Key.space	n/a
370.079	0.119	740158	keystroke_r	r	n/a
370.154	0.089	740308	keystroke_e	e	n/a
370.348	0.0755	740696	keystroke_d	d	n/a
370.948	0.09	741896	keystroke_u	u	n/a
371.5035	0.1355	743007	keystroke_c	c	n/a
371.5935	0.0755	743187	keystroke_i	i	n/a
371.713	0.1055	743426	keystroke_n	n	n/a
371.8035	0.09	743607	keystroke_g	g	n/a
371.8485	0.105	743697	keystroke_Key.space	Key.space	n/a
372.1485	0.075	744297	keystroke_c	c	n/a
372.3135	0.0445	744627	keystroke_a	a	n/a
372.448	0.0755	744896	keystroke_r	r	n/a
372.6735	0.09	745347	keystroke_g	g	n/a
372.7935	0.1055	745587	keystroke_o	o	n/a
373.2435	0.105	746487	keystroke_Key.enter	Key.enter	n/a
373.355	6.535	746710	prompt	n/a	touring dist returning wellington\n
374.0985	0.09	748197	keystroke_t	t	n/a
374.1735	0.0905	748347	keystroke_o	o	n/a
374.3085	0.105	748617	keystroke_u	u	n/a
374.3685	0.1205	748737	keystroke_r	r	n/a
374.5335	0.0595	749067	keystroke_i	i	n/a
374.6835	0.075	749367	keystroke_n	n	n/a
374.7435	0.09	749487	keystroke_g	g	n/a
374.8485	0.06	749697	keystroke_Key.space	Key.space	n/a
374.954	0.119	749908	keystroke_d	d	n/a
375.0135	0.1045	750027	keystroke_i	i	n/a
375.1485	0.0895	750297	keystroke_s	s	n/a
375.358	0.106	750716	keystroke_t	t	n/a
375.478	0.105	750956	keystroke_Key.space	Key.space	n/a
375.628	0.121	751256	keystroke_r	r	n/a
375.704	0.1045	751408	keystroke_e	e	n/a
376.3335	0.105	752667	keystroke_t	t	n/a
376.454	0.1045	752908	keystroke_u	u	n/a
377.9085	0.06	755817	keystroke_r	r	n/a
377.9535	0.075	755907	keystroke_n	n	n/a
378.0585	0.0755	756117	keystroke_i	i	n/a
378.209	0.105	756418	keystroke_n	n	n/a
378.254	0.0895	756508	keystroke_g	g	n/a
378.3285	0.09	756657	keystroke_Key.space	Key.space	n/a
378.4785	0.12	756957	keystroke_w	w	n/a
378.5685	0.1205	757137	keystroke_e	e	n/a
378.7185	0.0605	757437	keystroke_l	l	n/a
378.854	0.089	757708	keystroke_l	l	n/a
379.003	0.075	758006	keystroke_i	i	n/a
379.1235	0.09	758247	keystroke_n	n	n/a
379.183	0.06	758366	keystroke_g	g	n/a
379.349	0.075	758698	keystroke_t	t	n/a
379.378	0.0755	758756	keystroke_o	o	n/a
379.529	0.0745	759058	keystroke_n	n	n/a
379.6335	0.1045	759267	keystroke_Key.space	Key.space	n/a
379.768	0.1205	759536	keystroke_Key.enter	Key.enter	n/a
379.895	6.295	759790	prompt	n/a	linear yeah examination titled\n
380.5785	0.0755	761157	keystroke_l	l	n/a
380.714	0.0745	761428	keystroke_i	i	n/a
380.8485	0.0905	761697	keystroke_n	n	n/a
380.9085	0.12	761817	keystroke_e	e	n/a
380.9835	0.09	761967	keystroke_a	a	n/a
381.1485	0.09	762297	keystroke_r	r	n/a
381.2085	0.0745	762417	keystroke_Key.space	Key.space	n/a
381.373	0.075	762746	keystroke_y	y	n/a
381.433	0.121	762866	keystroke_e	e	n/a
381.508	0.0905	763016	keystroke_a	a	n/a
381.689	0.119	763378	keystroke_r	r	n/a
381.8235	0.0745	763647	keystroke_Key.space	Key.space	n/a
382.1235	0.075	764247	keystroke_e	e	n/a
382.3035	0.075	764607	keystroke_x	x	n/a
382.4535	0.0895	764907	keystroke_a	a	n/a
382.558	0.09	765116	keystroke_m	m	n/a
382.709	0.0745	765418	keystroke_i	i	n/a
382.8435	0.0605	765687	keystroke_n	n	n/a
382.964	0.075	765928	keystroke_i	i	n/a
383.0995	0.089	766199	keystroke_a	a	n/a
383.638	0.06	767276	keystroke_Key.backspace	Key.backspace	n/a
383.863	0.09	767726	keystroke_n	n	n/a
383.9835	0.0745	767967	keystroke_a	a	n/a
384.883	0.105	769766	keystroke_t	t	n/a
384.959	0.0595	769918	keystroke_i	i	n/a
385.108	0.06	770216	keystroke_o	o	n/a
385.2285	0.105	770457	keystroke_n	n	n/a
385.3485	0.06	770697	keystroke_Key.space	Key.space	n/a
385.424	0.1045	770848	keystroke_t	t	n/a
385.514	0.1045	771028	keystroke_i	i	n/a
385.6335	0.0905	771267	keystroke_t	t	n/a
385.8435	0.15	771687	keystroke_e	e	n/a
385.9185	0.12	771837	keystroke_d	d	n/a
386.0685	0.12	772137	keystroke_Key.enter	Key.enter	n/a
386.084	0.0895	772168	keystroke_Key.space	Key.space	n/a
386.1945	5.9665	772389	prompt	n/a	sweet presentations sink useful\n
386.8935	0.165	773787	keystroke_s	s	n/a
386.999	0.1045	773998	keystroke_w	w	n/a
387.1785	0.075	774357	keystroke_e	e	n/a
387.3285	0.09	774657	keystroke_e	e	n/a
387.5085	0.09	775017	keystroke_t	t	n/a
387.5835	0.0605	775167	keystroke_Key.space	Key.space	n/a
387.7335	0.105	775467	keystroke_p	p	n/a
387.7635	0.135	775527	keystroke_r	r	n/a
387.824	0.1495	775648	keystroke_e	e	n/a
388.453	0.0755	776906	keystroke_s	s	n/a
388.6185	0.1195	777237	keystroke_e	e	n/a
388.753	0.1205	777506	keystroke_n	n	n/a
388.918	0.09	777836	keystroke_t	t	n/a
389.128	0.075	778256	keystroke_a	a	n/a
389.3235	0.06	778647	keystroke_t	t	n/a
389.3685	0.0755	778737	keystroke_i	i	n/a
389.534	0.06	779068	keystroke_o	o	n/a
389.699	0.075	779398	keystroke_n	n	n/a
389.924	0.135	779848	keystroke_s	s	n/a
390.073	0.076	780146	keystroke_Key.space	Key.space	n/a
390.479	0.09	780958	keystroke_s	s	n/a
390.554	0.0745	781108	keystroke_i	i	n/a
390.6885	0.075	781377	keystroke_n	n	n/a
390.8085	0.12	781617	keystroke_k	k	n/a
390.9435	0.075	781887	keystroke_Key.space	Key.space	n/a
391.1685	0.06	782337	keystroke_u	u	n/a
391.2435	0.105	782487	keystroke_s	s	n/a
391.4235	0.06	782847	keystroke_e	e	n/a
391.5735	0.1055	783147	keystroke_f	f	n/a
391.649	0.0745	783298	keystroke_u	u	n/a
391.829	0.09	783658	keystroke_l	l	n/a
391.9035	0.1355	783807	keystroke_Key.space	Key.space	n/a
392.024	0.135	784048	keystroke_Key.enter	Key.enter	n/a
392.167	6.6985	784334	prompt	n/a	americans where administrators development\n
392.909	0.1045	785818	keystroke_a	a	n/a
393.044	0.0895	786088	keystroke_m	m	n/a
393.1485	0.105	786297	keystroke_e	e	n/a
393.2235	0.0745	786447	keystroke_r	r	n/a
393.343	0.0905	786686	keystroke_i	i	n/a
393.4485	0.15	786897	keystroke_c	c	n/a
393.5385	0.15	787077	keystroke_a	a	n/a
393.6435	0.09	787287	keystroke_n	n	n/a
393.7635	0.165	787527	keystroke_s	s	n/a
393.8835	0.075	787767	keystroke_Key.space	Key.space	n/a
394.004	0.06	788008	keystroke_w	w	n/a
394.094	0.0745	788188	keystroke_h	h	n/a
394.109	0.0895	788218	keystroke_e	e	n/a
394.2885	0.135	788577	keystroke_r	r	n/a
394.349	0.135	788698	keystroke_e	e	n/a
394.4385	0.075	788877	keystroke_Key.space	Key.space	n/a
394.6035	0.076	789207	keystroke_a	a	n/a
394.6935	0.09	789387	keystroke_n	n	n/a
395.1885	0.06	790377	keystroke_Key.backspace	Key.backspace	n/a
395.294	0.12	790588	keystroke_d	d	n/a
395.474	0.09	790948	keystroke_m	m	n/a
395.654	0.06	791308	keystroke_i	i	n/a
395.804	0.0595	791608	keystroke_n	n	n/a
395.984	0.045	791968	keystroke_i	i	n/a
395.999	0.09	791998	keystroke_s	s	n/a
396.1795	0.1195	792359	keystroke_t	t	n/a
396.224	0.12	792448	keystroke_r	r	n/a
396.479	0.075	792958	keystroke_a	a	n/a
396.719	0.09	793438	keystroke_t	t	n/a
396.794	0.075	793588	keystroke_o	o	n/a
396.914	0.135	793828	keystroke_r	r	n/a
397.034	0.135	794068	keystroke_s	s	n/a
397.214	0.075	794428	keystroke_Key.space	Key.space	n/a
397.453	0.1355	794906	keystroke_d	d	n/a
397.544	0.09	795088	keystroke_e	e	n/a
397.7085	0.12	795417	keystroke_v	v	n/a
397.754	0.1045	795508	keystroke_e	e	n/a
397.8135	0.075	795627	keystroke_l	l	n/a
397.994	0.06	795988	keystroke_o	o	n/a
398.144	0.075	796288	keystroke_p	p	n/a
398.309	0.0745	796618	keystroke_m	m	n/a
398.369	0.09	796738	keystroke_e	e	n/a
398.4735	0.1045	796947	keystroke_n	n	n/a
398.564	0.1045	797128	keystroke_t	t	n/a
398.608	0.0905	797216	keystroke_Key.space	Key.space	n/a
398.774	0.0895	797548	keystroke_Key.enter	Key.enter	n/a
398.87	6.431	797740	prompt	n/a	section password june owned\n
399.5085	0.0905	799017	keystroke_s	s	n/a
399.704	0.1045	799408	keystroke_e	e	n/a
400.154	0.075	800308	keystroke_c	c	n/a
400.379	0.075	800758	keystroke_t	t	n/a
400.424	0.06	800848	keystroke_i	i	n/a
400.558	0.0755	801116	keystroke_o	o	n/a
400.7235	0.06	801447	keystroke_n	n	n/a
400.8135	0.045	801627	keystroke_Key.space	Key.space	n/a
400.9035	0.106	801807	keystroke_p	p	n/a
400.9635	0.076	801927	keystroke_a	a	n/a
401.1435	0.0305	802287	keystroke_s	s	n/a
401.2485	0.09	802497	keystroke_s	s	n/a
401.3835	0.105	802767	keystroke_w	w	n/a
401.549	0.0895	803098	keystroke_o	o	n/a
401.609	0.0595	803218	keystroke_r	r	n/a
401.789	0.09	803578	keystroke_d	d	n/a
402.1485	0.1045	804297	keystroke_Key.space	Key.space	n/a
402.269	0.105	804538	keystroke_j	j	n/a
402.449	0.0895	804898	keystroke_u	u	n/a
402.599	0.105	805198	keystroke_n	n	n/a
402.718	0.091	805436	keystroke_e	e	n/a
402.809	0.0595	805618	keystroke_Key.space	Key.space	n/a
402.928	0.1055	805856	keystroke_o	o	n/a
403.0185	0.135	806037	keystroke_w	w	n/a
403.1385	0.12	806277	keystroke_e	e	n/a
403.3935	0.09	806787	keystroke_n	n	n/a
403.5585	0.1655	807117	keystroke_e	e	n/a
403.6635	0.105	807327	keystroke_d	d	n/a
404.0685	0.0605	808137	keystroke_Key.backspace	Key.backspace	n/a
404.2335	0.045	808467	keystroke_Key.backspace	Key.backspace	n/a
404.3685	0.06	808737	keystroke_Key.backspace	Key.backspace	n/a
404.4885	0.0445	808977	keystroke_Key.backspace	Key.backspace	n/a
404.849	0.0745	809698	keystroke_n	n	n/a
404.938	0.1355	809876	keystroke_e	e	n/a
405.0135	0.1045	810027	keystroke_d	d	n/a
405.1635	0.1345	810327	keystroke_Key.enter	Key.enter	n/a
405.223	0.1055	810446	keystroke_Key.space	Key.space	n/a
405.3055	8.3945	810611	prompt	n/a	lexington remarkable cialis informative\n
406.0485	0.105	812097	keystroke_l	l	n/a
406.108	0.091	812216	keystroke_e	e	n/a
406.288	0.1055	812576	keystroke_x	x	n/a
406.4235	0.0745	812847	keystroke_i	i	n/a
406.573	0.09	813146	keystroke_n	n	n/a
406.678	0.09	813356	keystroke_g	g	n/a
406.873	0.075	813746	keystroke_t	t	n/a
406.934	0.0595	813868	keystroke_o	o	n/a
407.0835	0.0755	814167	keystroke_n	n	n/a
407.1735	0.105	814347	keystroke_Key.space	Key.space	n/a
407.2795	0.1195	814559	keystroke_r	r	n/a
407.354	0.1195	814708	keystroke_e	e	n/a
407.489	0.089	814978	keystroke_m	m	n/a
407.593	0.09	815186	keystroke_a	a	n/a
407.7735	0.1045	815547	keystroke_r	r	n/a
