onset	duration	sample	value	key	prompt_text
7.902	10.4395	15804	prompt	n/a	the quick brown fox jumps over a lazy dog\n
10.1805	0	20361	keystroke_t	t	n/a
10.2535	0.0595	20507	keystroke_h	h	n/a
10.328	0.135	20656	keystroke_e	e	n/a
10.4325	0.135	20865	keystroke_Key.space	Key.space	n/a
11.0485	0.1045	22097	keystroke_q	q	n/a
11.1975	0.076	22395	keystroke_u	u	n/a
11.348	0.0755	22696	keystroke_i	i	n/a
11.5135	0.1045	23027	keystroke_c	c	n/a
11.7675	0.135	23535	keystroke_k	k	n/a
12.4585	0.0895	24917	keystroke_Key.space	Key.space	n/a
12.6535	0.0745	25307	keystroke_b	b	n/a
12.8485	0.075	25697	keystroke_r	r	n/a
13.0135	0.0885	26027	keystroke_o	o	n/a
13.1485	0.0745	26297	keystroke_w	w	n/a
13.2835	0.1045	26567	keystroke_n	n	n/a
13.358	0.1045	26716	keystroke_Key.space	Key.space	n/a
13.5535	0.09	27107	keystroke_f	f	n/a
13.6875	0.121	27375	keystroke_o	o	n/a
13.853	0.105	27706	keystroke_x	x	n/a
14.0325	0.09	28065	keystroke_Key.space	Key.space	n/a
14.1985	0.075	28397	keystroke_j	j	n/a
14.3935	0.0745	28787	keystroke_u	u	n/a
14.6025	0.151	29205	keystroke_m	m	n/a
14.7535	0.09	29507	keystroke_p	p	n/a
14.963	0.0895	29926	keystroke_s	s	n/a
15.023	0.105	30046	keystroke_Key.space	Key.space	n/a
15.2325	0.1055	30465	keystroke_o	o	n/a
15.353	0.0905	30706	keystroke_v	v	n/a
15.4875	0.1355	30975	keystroke_e	e	n/a
15.593	0.1045	31186	keystroke_r	r	n/a
15.7125	0.12	31425	keystroke_Key.space	Key.space	n/a
15.8175	0.12	31635	keystroke_a	a	n/a
16.043	0.0755	32086	keystroke_Key.space	Key.space	n/a
16.343	0.0745	32686	keystroke_l	l	n/a
16.448	0.09	32896	keystroke_a	a	n/a
16.658	0.1195	33316	keystroke_z	z	n/a
16.8225	0.09	33645	keystroke_y	y	n/a
16.9425	0.105	33885	keystroke_Key.space	Key.space	n/a
17.228	0.06	34456	keystroke_d	d	n/a
17.3635	0.119	34727	keystroke_o	o	n/a
17.512	0.0755	35024	keystroke_g	g	n/a
18.248	0.0895	36496	keystroke_Key.enter	Key.enter	n/a
18.347	8.5585	36694	prompt	n/a	teddy insurance shooting paso\n
18.9835	0.0895	37967	keystroke_t	t	n/a
19.044	0.074	38088	keystroke_h	h	n/a
19.148	0.06	38296	keystroke_e	e	n/a
19.403	0.075	38806	keystroke_d	d	n/a
19.5835	0.0595	39167	keystroke_d	d	n/a
20.0175	0.075	40035	keystroke_Key.backspace	Key.backspace	n/a
20.1975	0.06	40395	keystroke_Key.backspace	Key.backspace	n/a
20.317	0.0905	40634	keystroke_Key.backspace	Key.backspace	n/a
20.468	0.0745	40936	keystroke_Key.backspace	Key.backspace	n/a
20.784	0.059	41568	keystroke_e	e	n/a
21.0525	0.0455	42105	keystroke_d	d	n/a
21.1875	0.061	42375	keystroke_d	d	n/a
21.3825	0.0755	42765	keystroke_y	y	n/a
21.473	0.1045	42946	keystroke_Key.space	Key.space	n/a
21.638	0.12	43276	keystroke_i	i	n/a
21.743	0.1055	43486	keystroke_n	n	n/a
21.863	0.0755	43726	keystroke_s	s	n/a
22.0135	0.0895	44027	keystroke_u	u	n/a
22.1185	0.0745	44237	keystroke_r	r	n/a
22.2225	0.1205	44445	keystroke_a	a	n/a
22.343	0.1055	44686	keystroke_n	n	n/a
22.493	0.0445	44986	keystroke_c	c	n/a
22.673	0.0605	45346	keystroke_e	e	n/a
22.748	0.149	45496	keystroke_Key.space	Key.space	n/a
22.8835	0.074	45767	keystroke_s	s	n/a
22.9735	0.089	45947	keystroke_h	h	n/a
23.093	0.09	46186	keystroke_o	o	n/a
23.258	0.105	46516	keystroke_o	o	n/a
23.393	0.06	46786	keystroke_t	t	n/a
23.513	0.12	47026	keystroke_i	i	n/a
23.6035	0.134	47207	keystroke_n	n	n/a
23.6935	0.12	47387	keystroke_g	g	n/a
23.7975	0.0905	47595	keystroke_Key.space	Key.space	n/a
23.963	0.105	47926	keystroke_p	p	n/a
24.083	0.1345	48166	keystroke_a	a	n/a
24.173	0.104	48346	keystroke_s	s	n/a
24.3385	0.0895	48677	keystroke_o	o	n/a
26.8745	0.028	53749	keystroke_Key.enter	Key.enter	n/a
26.9095	10.8695	53819	prompt	n/a	gasoline atlantic stuff incident\n
27.593	0.0905	55186	keystroke_g	g	n/a
27.7285	0.134	55457	keystroke_a	a	n/a
27.8475	0.105	55695	keystroke_s	s	n/a
27.983	0.1645	55966	keystroke_o	o	n/a
28.3425	0.1805	56685	keystroke_l	l	n/a
28.6125	0.1205	57225	keystroke_i	i	n/a
28.7025	0.1205	57405	keystroke_n	n	n/a
28.8385	0.105	57677	keystroke_e	e	n/a
28.958	0.09	57916	keystroke_Key.space	Key.space	n/a
29.228	0.1055	58456	keystroke_a	a	n/a
29.4375	0.0905	58875	keystroke_t	t	n/a
29.6475	0.1205	59295	keystroke_l	l	n/a
29.858	0.1195	59716	keystroke_a	a	n/a
29.948	0.105	59896	keystroke_n	n	n/a
30.113	0.075	60226	keystroke_t	t	n/a
30.338	0.0745	60676	keystroke_i	i	n/a
30.443	0.09	60886	keystroke_c	c	n/a
30.5925	0.1195	61185	keystroke_Key.space	Key.space	n/a
30.773	0.12	61546	keystroke_s	s	n/a
30.908	0.075	61816	keystroke_t	t	n/a
31.0275	0.075	62055	keystroke_u	u	n/a
31.1325	0.0755	62265	keystroke_f	f	n/a
31.2825	0.0905	62565	keystroke_f	f	n/a
31.357	0.121	62714	keystroke_Key.space	Key.space	n/a
31.523	0.104	63046	keystroke_i	i	n/a
31.613	0.105	63226	keystroke_n	n	n/a
31.748	0.0895	63496	keystroke_c	c	n/a
31.8975	0.0905	63795	keystroke_i	i	n/a
32.033	0.06	64066	keystroke_d	d	n/a
32.243	0.09	64486	keystroke_e	e	n/a
36.1895	0.028	72379	keystroke_n	n	n/a
36.262	0.09	72524	keystroke_t	t	n/a
37.6725	0.1045	75345	keystroke_Key.enter	Key.enter	n/a
37.783	7.992	75566	prompt	n/a	carey clay batch profit\n
38.483	0.0745	76966	keystroke_c	c	n/a
38.6175	0.1505	77235	keystroke_a	a	n/a
38.708	0.105	77416	keystroke_r	r	n/a
38.903	0.0895	77806	keystroke_e	e	n/a
39.0975	0.075	78195	keystroke_y	y	n/a
39.7425	0.105	79485	keystroke_Key.space	Key.space	n/a
39.9375	0.0905	79875	keystroke_c	c	n/a
40.103	0.1045	80206	keystroke_l	l	n/a
40.1625	0.135	80325	keystroke_a	a	n/a
40.3875	0.0755	80775	keystroke_y	y	n/a
40.463	0.0895	80926	keystroke_Key.space	Key.space	n/a
40.6435	0.0595	81287	keystroke_b	b	n/a
40.762	0.151	81524	keystroke_a	a	n/a
40.868	0.089	81736	keystroke_t	t	n/a
41.468	0.075	82936	keystroke_c	c	n/a
41.618	0.089	83236	keystroke_h	h	n/a
41.692	0.09	83384	keystroke_Key.space	Key.space	n/a
42.008	0.09	84016	keystroke_p	p	n/a
42.113	0.09	84226	keystroke_r	r	n/a
42.248	0.12	84496	keystroke_o	o	n/a
42.383	0.06	84766	keystroke_f	f	n/a
42.548	0.06	85096	keystroke_f	f	n/a
43.612	0.106	87224	keystroke_i	i	n/a
44.093	0.0445	88186	keystroke_Key.backspace	Key.backspace	n/a
44.3785	0.089	88757	keystroke_i	i	n/a
44.453	0.0745	88906	keystroke_t	t	n/a
45.6375	0.135	91275	keystroke_Key.enter	Key.enter	n/a
45.7795	7.106	91559	prompt	n/a	new frederick ranges swap\n
46.823	0.09	93646	keystroke_n	n	n/a
46.897	0.1515	93794	keystroke_e	e	n/a
47.018	0.12	94036	keystroke_w	w	n/a
47.153	0.075	94306	keystroke_Key.space	Key.space	n/a
47.363	0.09	94726	keystroke_f	f	n/a
47.558	0.12	95116	keystroke_r	r	n/a
47.663	0.09	95326	keystroke_e	e	n/a
47.873	0.075	95746	keystroke_d	d	n/a
48.0525	0.151	96105	keystroke_e	e	n/a
48.188	0.1045	96376	keystroke_r	r	n/a
48.7875	0.1055	97575	keystroke_i	i	n/a
48.998	0.06	97996	keystroke_c	c	n/a
49.177	0.091	98354	keystroke_k	k	n/a
49.2225	0.1045	98445	keystroke_Key.space	Key.space	n/a
49.447	0.0905	98894	keystroke_r	r	n/a
49.552	0.166	99104	keystroke_a	a	n/a
49.658	0.09	99316	keystroke_n	n	n/a
49.7625	0.075	99525	keystroke_g	g	n/a
49.8975	0.1505	99795	keystroke_e	e	n/a
50.0025	0.1355	100005	keystroke_s	s	n/a
50.738	0.1045	101476	keystroke_Key.space	Key.space	n/a
51.053	0.0595	102106	keystroke_s	s	n/a
51.247	0.06	102494	keystroke_w	w	n/a
51.352	0.1355	102704	keystroke_a	a	n/a
51.623	0.06	103246	keystroke_p	p	n/a
52.808	0.075	105616	keystroke_Key.enter	Key.enter	n/a
52.89	6.91	105780	prompt	n/a	liver install nominated countries\n
53.752	0.091	107504	keystroke_l	l	n/a
53.9325	0.09	107865	keystroke_i	i	n/a
54.037	0.076	108074	keystroke_v	v	n/a
54.174	0.149	108348	keystroke_e	e	n/a
54.2935	0.1045	108587	keystroke_r	r	n/a
54.352	0.165	108704	keystroke_Key.space	Key.space	n/a
54.728	0.09	109456	keystroke_i	i	n/a
54.788	0.12	109576	keystroke_n	n	n/a
54.9375	0.1055	109875	keystroke_s	s	n/a
55.072	0.136	110144	keystroke_t	t	n/a
55.568	0.12	111136	keystroke_a	a	n/a
55.718	0.075	111436	keystroke_l	l	n/a
55.868	0.105	111736	keystroke_l	l	n/a
55.958	0.1045	111916	keystroke_Key.space	Key.space	n/a
56.348	0.12	112696	keystroke_n	n	n/a
56.6185	0.1045	113237	keystroke_o	o	n/a
56.783	0.105	113566	keystroke_m	m	n/a
56.948	0.075	113896	keystroke_i	i	n/a
57.113	0.104	114226	keystroke_n	n	n/a
57.248	0.165	114496	keystroke_a	a	n/a
57.398	0.075	114796	keystroke_t	t	n/a
57.563	0.09	115126	keystroke_e	e	n/a
57.818	0.09	115636	keystroke_d	d	n/a
57.938	0.105	115876	keystroke_Key.space	Key.space	n/a
58.1925	0.076	116385	keystroke_c	c	n/a
58.313	0.0895	116626	keystroke_o	o	n/a
58.4325	0.09	116865	keystroke_u	u	n/a
58.6425	0.12	117285	keystroke_n	n	n/a
58.748	0.075	117496	keystroke_t	t	n/a
58.9425	0.0755	117885	keystroke_r	r	n/a
59.063	0.0905	118126	keystroke_i	i	n/a
59.123	0.1655	118246	keystroke_e	e	n/a
59.258	0.119	118516	keystroke_s	s	n/a
59.708	0.0895	119416	keystroke_Key.enter	Key.enter	n/a
59.8055	7.5395	119611	prompt	n/a	stocks powerful presentation development\n
60.3975	0.1055	120795	keystroke_s	s	n/a
60.518	0.0745	121036	keystroke_t	t	n/a
60.6835	0.089	121367	keystroke_o	o	n/a
60.8175	0.075	121635	keystroke_c	c	n/a
60.983	0.0895	121966	keystroke_k	k	n/a
61.0875	0.09	122175	keystroke_e	e	n/a
61.7925	0.0755	123585	keystroke_s	s	n/a
61.8825	0.105	123765	keystroke_Key.space	Key.space	n/a
62.273	0.089	124546	keystroke_p	p	n/a
62.453	0.135	124906	keystroke_o	o	n/a
62.558	0.15	125116	keystroke_w	w	n/a
62.678	0.15	125356	keystroke_e	e	n/a
62.783	0.12	125566	keystroke_r	r	n/a
63.068	0.0895	126136	keystroke_f	f	n/a
63.2025	0.0755	126405	keystroke_u	u	n/a
63.413	0.135	126826	keystroke_l	l	n/a
63.518	0.12	127036	keystroke_Key.space	Key.space	n/a
63.8625	0.1205	127725	keystroke_p	p	n/a
63.9975	0.105	127995	keystroke_r	r	n/a
64.0425	0.1205	128085	keystroke_e	e	n/a
64.1175	0.1655	128235	keystroke_s	s	n/a
64.268	0.12	128536	keystroke_e	e	n/a
64.388	0.09	128776	keystroke_n	n	n/a
64.4925	0.0905	128985	keystroke_t	t	n/a
64.6575	0.1505	129315	keystroke_a	a	n/a
64.7625	0.12	129525	keystroke_t	t	n/a
64.8675	0.1945	129735	keystroke_i	i	n/a
64.9575	0.0905	129915	keystroke_o	o	n/a
65.0175	0.1655	130035	keystroke_n	n	n/a
65.197	0.1055	130394	keystroke_Key.space	Key.space	n/a
65.4525	0.045	130905	keystroke_d	d	n/a
65.603	0.075	131206	keystroke_e	e	n/a
65.7825	0.09	131565	keystroke_v	v	n/a
65.858	0.0745	131716	keystroke_e	e	n/a
65.978	0.1045	131956	keystroke_l	l	n/a
66.1875	0.135	132375	keystroke_o	o	n/a
66.2925	0.1355	132585	keystroke_p	p	n/a
66.488	0.0895	132976	keystroke_m	m	n/a
66.608	0.1345	133216	keystroke_e	e	n/a
66.7125	0.1055	133425	keystroke_n	n	n/a
66.848	0.1195	133696	keystroke_t	t	n/a
67.238	0.1045	134476	keystroke_Key.enter	Key.enter	n/a
67.3505	8.0185	134701	prompt	n/a	filename phil going enterprises\n
67.9575	0.09	135915	keystroke_f	f	n/a
68.0625	0.0755	136125	keystroke_i	i	n/a
68.1675	0.09	136335	keystroke_n	n	n/a
68.6625	0.1205	137325	keystroke_Key.backspace	Key.backspace	n/a
69.1575	0.091	138315	keystroke_l	l	n/a
69.353	0.075	138706	keystroke_e	e	n/a
69.653	0.1045	139306	keystroke_n	n	n/a
69.773	0.105	139546	keystroke_a	a	n/a
69.8925	0.0905	139785	keystroke_m	m	n/a
70.013	0.09	140026	keystroke_e	e	n/a
70.373	0.09	140746	keystroke_Key.space	Key.space	n/a
70.7625	0.165	141525	keystroke_p	p	n/a
70.943	0.1045	141886	keystroke_h	h	n/a
71.1075	0.1055	142215	keystroke_i	i	n/a
71.3475	0.0905	142695	keystroke_l	l	n/a
71.4525	0.1055	142905	keystroke_Key.space	Key.space	n/a
71.7225	0.06	143445	keystroke_g	g	n/a
71.8725	0.12	143745	keystroke_o	o	n/a
72.0525	0.1345	144105	keystroke_i	i	n/a
72.1575	0.1945	144315	keystroke_n	n	n/a
72.277	0.1205	144554	keystroke_g	g	n/a
72.4275	0.1355	144855	keystroke_Key.space	Key.space	n/a
73.1335	0.089	146267	keystroke_e	e	n/a
73.2975	0.1055	146595	keystroke_n	n	n/a
73.6125	0.091	147225	keystroke_t	t	n/a
73.7625	0.1205	147525	keystroke_e	e	n/a
73.8525	0.105	147705	keystroke_r	r	n/a
74.243	0.105	148486	keystroke_p	p	n/a
74.333	0.0895	148666	keystroke_r	r	n/a
74.483	0.1045	148966	keystroke_i	i	n/a
74.602	0.09	149204	keystroke_s	s	n/a
74.813	0.1055	149626	keystroke_e	e	n/a
74.9775	0.0755	149955	keystroke_s	s	n/a
75.2625	0.105	150525	keystroke_Key.enter	Key.enter	n/a
75.372	8.653	150744	prompt	n/a	branches annual tulsa incomplete\n
75.9375	0.06	151875	keystroke_f	f	n/a
76.387	0.09	152774	keystroke_Key.backspace	Key.backspace	n/a
76.463	0.075	152926	keystroke_b	b	n/a
76.658	0.12	153316	keystroke_r	r	n/a
76.8225	0.09	153645	keystroke_a	a	n/a
76.9275	0.105	153855	keystroke_n	n	n/a
77.063	0.09	154126	keystroke_c	c	n/a
77.2575	0.06	154515	keystroke_h	h	n/a
77.303	0.15	154606	keystroke_e	e	n/a
77.422	0.121	154844	keystroke_s	s	n/a
77.587	0.12	155174	keystroke_Key.space	Key.space	n/a
78.0825	0.12	156165	keystroke_a	a	n/a
78.2175	0.075	156435	keystroke_n	n	n/a
78.3975	0.06	156795	keystroke_n	n	n/a
78.6375	0.0605	157275	keystroke_u	u	n/a
78.7275	0.1205	157455	keystroke_a	a	n/a
78.9075	0.1055	157815	keystroke_l	l	n/a
79.0425	0.105	158085	keystroke_Key.space	Key.space	n/a
79.208	0.09	158416	keystroke_f	f	n/a
79.628	0.1045	159256	keystroke_Key.backspace	Key.backspace	n/a
79.793	0.0745	159586	keystroke_t	t	n/a
79.913	0.0745	159826	keystroke_u	u	n/a
80.1225	0.1355	160245	keystroke_l	l	n/a
80.4075	0.075	160815	keystroke_s	s	n/a
80.602	0.121	161204	keystroke_a	a	n/a
80.737	0.0755	161474	keystroke_Key.space	Key.space	n/a
80.9325	0.0905	161865	keystroke_i	i	n/a
81.0075	0.1345	162015	keystroke_n	n	n/a
81.157	0.0905	162314	keystroke_c	c	n/a
81.2775	0.135	162555	keystroke_o	o	n/a
81.3975	0.1805	162795	keystroke_m	m	n/a
82.6875	0.135	165375	keystroke_p	p	n/a
82.838	0.12	165676	keystroke_l	l	n/a
83.123	0.1495	166246	keystroke_e	e	n/a
83.287	0.136	166574	keystroke_t	t	n/a
83.4075	0.1055	166815	keystroke_e	e	n/a
83.9325	0.09	167865	keystroke_Key.enter	Key.enter	n/a
84.0295	9.22	168059	prompt	n/a	hollywood discs automobile criterion\n
84.7875	0.075	169575	keystroke_h	h	n/a
84.938	0.075	169876	keystroke_o	o	n/a
85.148	0.0745	170296	keystroke_l	l	n/a
85.283	0.1045	170566	keystroke_l	l	n/a
85.4775	0.075	170955	keystroke_y	y	n/a
85.628	0.104	171256	keystroke_w	w	n/a
85.762	0.09	171524	keystroke_o	o	n/a
86.0925	0.1205	172185	keystroke_o	o	n/a
86.363	0.09	172726	keystroke_d	d	n/a
86.4825	0.135	172965	keystroke_Key.space	Key.space	n/a
86.6775	0.06	173355	keystroke_d	d	n/a
86.7825	0.09	173565	keystroke_i	i	n/a
86.9325	0.0755	173865	keystroke_s	s	n/a
87.368	0.059	174736	keystroke_c	c	n/a
87.818	0.075	175636	keystroke_s	s	n/a
87.953	0.1195	175906	keystroke_Key.space	Key.space	n/a
88.3575	0.135	176715	keystroke_a	a	n/a
88.5525	0.09	177105	keystroke_u	u	n/a
88.6725	0.106	177345	keystroke_t	t	n/a
88.8375	0.0905	177675	keystroke_o	o	n/a
89.0625	0.12	178125	keystroke_m	m	n/a
89.1975	0.1205	178395	keystroke_o	o	n/a
89.4525	0.075	178905	keystroke_b	b	n/a
89.587	0.091	179174	keystroke_i	i	n/a
89.8125	0.135	179625	keystroke_l	l	n/a
90.0075	0.075	180015	keystroke_e	e	n/a
90.1125	0.105	180225	keystroke_Key.space	Key.space	n/a
90.8925	0.075	181785	keystroke_c	c	n/a
91.088	0.0745	182176	keystroke_r	r	n/a
91.208	0.0895	182416	keystroke_i	i	n/a
91.3425	0.075	182685	keystroke_t	t	n/a
91.5375	0.105	183075	keystroke_e	e	n/a
91.6275	0.09	183255	keystroke_r	r	n/a
91.8675	0.03	183735	keystroke_o	o	n/a
92.287	0.09	184574	keystroke_Key.backspace	Key.backspace	n/a
92.4825	0.105	184965	keystroke_i	i	n/a
92.6625	0.1205	185325	keystroke_o	o	n/a
92.7675	0.135	185535	keystroke_n	n	n/a
93.157	0.09	186314	keystroke_Key.enter	Key.enter	n/a
93.254	6.94	186508	prompt	n/a	visa lodging potentially lucky\n
94.012	0.076	188024	keystroke_v	v	n/a
94.147	0.091	188294	keystroke_i	i	n/a
94.298	0.09	188596	keystroke_s	s	n/a
94.552	0.1355	189104	keystroke_a	a	n/a
94.657	0.0905	189314	keystroke_Key.space	Key.space	n/a
94.807	0.0755	189614	keystroke_l	l	n/a
94.987	0.09	189974	keystroke_o	o	n/a
95.0925	0.09	190185	keystroke_d	d	n/a
95.272	0.09	190544	keystroke_g	g	n/a
95.6625	0.075	191325	keystroke_i	i	n/a
95.6925	0.135	191385	keystroke_n	n	n/a
95.858	0.0895	191716	keystroke_g	g	n/a
95.9625	0.12	191925	keystroke_Key.space	Key.space	n/a
96.308	0.0895	192616	keystroke_l	l	n/a
96.6375	0.0895	193275	keystroke_Key.backspace	Key.backspace	n/a
96.8925	0.165	193785	keystroke_p	p	n/a
97.0275	0.135	194055	keystroke_o	o	n/a
97.1925	0.09	194385	keystroke_t	t	n/a
97.297	0.076	194594	keystroke_e	e	n/a
97.417	0.0905	194834	keystroke_n	n	n/a
97.523	0.0895	195046	keystroke_t	t	n/a
97.7625	0.075	195525	keystroke_i	i	n/a
97.943	0.1045	195886	keystroke_a	a	n/a
98.0625	0.075	196125	keystroke_l	l	n/a
98.2425	0.09	196485	keystroke_l	l	n/a
98.4975	0.075	196995	keystroke_y	y	n/a
98.5575	0.105	197115	keystroke_Key.space	Key.space	n/a
98.7825	0.135	197565	keystroke_l	l	n/a
98.9625	0.075	197925	keystroke_u	u	n/a
99.0975	0.09	198195	keystroke_c	c	n/a
99.3075	0.12	198615	keystroke_k	k	n/a
99.652	0.0605	199304	keystroke_y	y	n/a
100.103	0.0895	200206	keystroke_Key.enter	Key.enter	n/a
100.199	6.76	200398	prompt	n/a	dutch preceding reduces ebay\n
100.7625	0.09	201525	keystroke_d	d	n/a
100.9425	0.075	201885	keystroke_u	u	n/a
101.0475	0.075	202095	keystroke_t	t	n/a
101.2725	0.1055	202545	keystroke_c	c	n/a
101.4675	0.09	202935	keystroke_h	h	n/a
101.5875	0.12	203175	keystroke_Key.space	Key.space	n/a
102.0825	0.105	204165	keystroke_p	p	n/a
102.1725	0.105	204345	keystroke_r	r	n/a
102.2175	0.0905	204435	keystroke_e	e	n/a
102.443	0.06	204886	keystroke_c	c	n/a
102.608	0.059	205216	keystroke_e	e	n/a
102.8025	0.06	205605	keystroke_d	d	n/a
102.9975	0.06	205995	keystroke_e	e	n/a
103.1625	0.045	206325	keystroke_n	n	n/a
103.4475	0.075	206895	keystroke_Key.backspace	Key.backspace	n/a
103.6275	0.06	207255	keystroke_Key.backspace	Key.backspace	n/a
103.7625	0.135	207525	keystroke_i	i	n/a
103.8525	0.135	207705	keystroke_n	n	n/a
103.9425	0.1205	207885	keystroke_g	g	n/a
104.033	0.1345	208066	keystroke_Key.space	Key.space	n/a
104.4375	0.105	208875	keystroke_r	r	n/a
104.482	0.106	208964	keystroke_e	e	n/a
104.693	0.0745	209386	keystroke_d	d	n/a
104.8425	0.075	209685	keystroke_u	u	n/a
104.963	0.0745	209926	keystroke_c	c	n/a
105.2175	0.135	210435	keystroke_e	e	n/a
105.3075	0.105	210615	keystroke_s	s	n/a
105.5175	0.09	211035	keystroke_Key.space	Key.space	n/a
105.892	0.0755	211784	keystroke_e	e	n/a
106.102	0.076	212204	keystroke_b	b	n/a
106.2685	0.1335	212537	keystroke_a	a	n/a
106.538	0.075	213076	keystroke_y	y	n/a
106.852	0.105	213704	keystroke_Key.enter	Key.enter	n/a
106.964	6.82	213928	prompt	n/a	ceiling hiking arrange everyone\n
107.528	0.0745	215056	keystroke_d	d	n/a
108.0075	0.09	216015	keystroke_Key.backspace	Key.backspace	n/a
108.128	0.06	216256	keystroke_c	c	n/a
108.308	0.09	216616	keystroke_e	e	n/a
108.412	0.0905	216824	keystroke_i	i	n/a
108.5765	0.2115	217153	keystroke_l	l	n/a
108.773	0.09	217546	keystroke_i	i	n/a
108.847	0.136	217694	keystroke_n	n	n/a
109.0275	0.1355	218055	keystroke_g	g	n/a
109.1475	0.105	218295	keystroke_Key.space	Key.space	n/a
109.6125	0.12	219225	keystroke_h	h	n/a
109.702	0.1205	219404	keystroke_i	i	n/a
109.9425	0.09	219885	keystroke_k	k	n/a
110.137	0.1205	220274	keystroke_i	i	n/a
110.243	0.1345	220486	keystroke_n	n	n/a
110.407	0.136	220814	keystroke_g	g	n/a
110.512	0.12	221024	keystroke_Key.space	Key.space	n/a
110.873	0.1645	221746	keystroke_a	a	n/a
110.9925	0.09	221985	keystroke_r	r	n/a
111.1575	0.09	222315	keystroke_r	r	n/a
111.2775	0.12	222555	keystroke_a	a	n/a
111.3525	0.105	222705	keystroke_n	n	n/a
111.4875	0.0605	222975	keystroke_g	g	n/a
111.593	0.089	223186	keystroke_e	e	n/a
112.1625	0.0895	224325	keystroke_Key.space	Key.space	n/a
112.313	0.0745	224626	keystroke_e	e	n/a
112.4925	0.075	224985	keystroke_v	v	n/a
112.5825	0.1355	225165	keystroke_e	e	n/a
112.6875	0.105	225375	keystroke_r	r	n/a
112.8075	0.1055	225615	keystroke_y	y	n/a
113.0025	0.165	226005	keystroke_o	o	n/a
113.122	0.135	226244	keystroke_n	n	n/a
113.302	0.105	226604	keystroke_e	e	n/a
113.6925	0.0895	227385	keystroke_Key.enter	Key.enter	n/a
113.788	7.1665	227576	prompt	n/a	saver attack ultram condo\n
114.4125	0.06	228825	keystroke_s	s	n/a
114.5625	0.165	229125	keystroke_a	a	n/a
114.6975	0.0755	229395	keystroke_v	v	n/a
114.833	0.135	229666	keystroke_e	e	n/a
114.938	0.0885	229876	keystroke_r	r	n/a
115.0415	0.1355	230083	keystroke_Key.space	Key.space	n/a
115.193	0.1645	230386	keystroke_a	a	n/a
115.3275	0.06	230655	keystroke_t	t	n/a
115.4615	0.091	230923	keystroke_t	t	n/a
115.5675	0.0895	231135	keystroke_a	a	n/a
115.732	0.09	231464	keystroke_c	c	n/a
115.972	0.105	231944	keystroke_k	k	n/a
116.107	0.1205	232214	keystroke_Key.space	Key.space	n/a
116.422	0.0905	232844	keystroke_u	u	n/a
116.618	0.149	233236	keystroke_l	l	n/a
117.1575	0.075	234315	keystroke_t	t	n/a
118.2675	0.09	236535	keystroke_r	r	n/a
118.4625	0.105	236925	keystroke_a	a	n/a
118.6875	0.105	237375	keystroke_m	m	n/a
119.1375	0.12	238275	keystroke_Key.space	Key.space	n/a
119.528	0.0895	239056	keystroke_c	c	n/a
119.6475	0.1045	239295	keystroke_o	o	n/a
119.738	0.119	239476	keystroke_n	n	n/a
119.842	0.0755	239684	keystroke_d	d	n/a
120.173	0.1195	240346	keystroke_o	o	n/a
120.8625	0.0895	241725	keystroke_Key.enter	Key.enter	n/a
120.959	7.21	241918	prompt	n/a	cottage expert surrounded captain\n
121.628	0.089	243256	keystroke_c	c	n/a
121.732	0.0755	243464	keystroke_o	o	n/a
121.8825	0.075	243765	keystroke_t	t	n/a
122.0475	0.06	244095	keystroke_t	t	n/a
122.1975	0.165	244395	keystroke_a	a	n/a
122.3175	0.075	244635	keystroke_g	g	n/a
122.4225	0.0895	244845	keystroke_e	e	n/a
122.527	0.12	245054	keystroke_Key.space	Key.space	n/a
122.662	0.0755	245324	keystroke_e	e	n/a
122.8575	0.0745	245715	keystroke_x	x	n/a
122.977	0.09	245954	keystroke_p	p	n/a
123.0975	0.105	246195	keystroke_e	e	n/a
123.172	0.105	246344	keystroke_r	r	n/a
123.4275	0.0745	246855	keystroke_t	t	n/a
123.5775	0.09	247155	keystroke_Key.space	Key.space	n/a
123.7275	0.075	247455	keystroke_s	s	n/a
123.8775	0.075	247755	keystroke_u	u	n/a
124.0125	0.0605	248025	keystroke_r	r	n/a
124.1625	0.075	248325	keystroke_r	r	n/a
124.2825	0.135	248565	keystroke_o	o	n/a
124.5525	0.12	249105	keystroke_u	u	n/a
124.8075	0.09	249615	keystroke_n	n	n/a
124.9575	0.075	249915	keystroke_d	d	n/a
125.288	0.06	250576	keystroke_e	e	n/a
125.468	0.075	250936	keystroke_d	d	n/a
125.572	0.1205	251144	keystroke_Key.space	Key.space	n/a
125.842	0.0755	251684	keystroke_c	c	n/a
125.962	0.135	251924	keystroke_a	a	n/a
126.1575	0.0895	252315	keystroke_p	p	n/a
126.307	0.06	252614	keystroke_t	t	n/a
126.7575	0.1045	253515	keystroke_a	a	n/a
126.938	0.134	253876	keystroke_i	i	n/a
127.0875	0.1045	254175	keystroke_n	n	n/a
128.0775	0.09	256155	keystroke_Key.enter	Key.enter	n/a
128.1735	4.751	256347	prompt	n/a	returned often tank read\n
128.902	0.166	257804	keystroke_r	r	n/a
129.037	0.105	258074	keystroke_e	e	n/a
129.2175	0.105	258435	keystroke_t	t	n/a
129.382	0.06	258764	keystroke_u	u	n/a
129.4725	0.1045	258945	keystroke_r	r	n/a
129.6375	0.0905	259275	keystroke_n	n	n/a
129.697	0.0905	259394	keystroke_e	e	n/a
129.937	0.0905	259874	keystroke_d	d	n/a
130.0415	0.121	260083	keystroke_Key.space	Key.space	n/a
130.2675	0.075	260535	keystroke_o	o	n/a
130.3725	0.075	260745	keystroke_f	f	n/a
130.5665	0.0915	261133	keystroke_t	t	n/a
130.673	0.1045	261346	keystroke_e	e	n/a
130.898	0.1045	261796	keystroke_n	n	n/a
130.9875	0.105	261975	keystroke_Key.space	Key.space	n/a
131.3475	0.075	262695	keystroke_t	t	n/a
131.452	0.166	262904	keystroke_a	a	n/a
131.6025	0.1945	263205	keystroke_n	n	n/a
131.812	0.105	263624	keystroke_k	k	n/a
132.022	0.106	264044	keystroke_Key.space	Key.space	n/a
132.203	0.075	264406	keystroke_r	r	n/a
132.233	0.089	264466	keystroke_e	e	n/a
132.352	0.18	264704	keystroke_a	a	n/a
132.518	0.09	265036	keystroke_d	d	n/a
132.833	0.0895	265666	keystroke_Key.enter	Key.enter	n/a
132.929	8.383	265858	prompt	n/a	snapshot questions city argument\n
133.568	0.0745	267136	keystroke_s	s	n/a
133.7025	0.105	267405	keystroke_n	n	n/a
133.943	0.089	267886	keystroke_a	a	n/a
134.1535	0.104	268307	keystroke_p	p	n/a
134.437	0.06	268874	keystroke_s	s	n/a
134.513	0.1195	269026	keystroke_h	h	n/a
134.662	0.12	269324	keystroke_o	o	n/a
134.857	0.09	269714	keystroke_t	t	n/a
134.992	0.09	269984	keystroke_Key.space	Key.space	n/a
135.3085	0.104	270617	keystroke_w	w	n/a
135.4275	0.0895	270855	keystroke_u	u	n/a
135.547	0.105	271094	keystroke_e	e	n/a
135.6675	0.165	271335	keystroke_s	s	n/a
135.8175	0.0905	271635	keystroke_t	t	n/a
135.9375	0.0605	271875	keystroke_i	i	n/a
136.373	0.1185	272746	keystroke_Key.backspace	Key.backspace	n/a
136.5965	0.061	273193	keystroke_Key.backspace	Key.backspace	n/a
136.748	0.0595	273496	keystroke_Key.backspace	Key.backspace	n/a
136.8975	0.0595	273795	keystroke_Key.backspace	Key.backspace	n/a
137.047	0.0605	274094	keystroke_Key.backspace	Key.backspace	n/a
137.212	0.06	274424	keystroke_Key.backspace	Key.backspace	n/a
137.6925	0.09	275385	keystroke_q	q	n/a
138.038	0.1195	276076	keystroke_u	u	n/a
138.172	0.166	276344	keystroke_e	e	n/a
138.308	0.1795	276616	keystroke_s	s	n/a
138.457	0.1355	276914	keystroke_t	t	n/a
138.5775	0.195	277155	keystroke_i	i	n/a
138.6675	0.1205	277335	keystroke_o	o	n/a
138.742	0.15	277484	keystroke_n	n	n/a
138.922	0.12	277844	keystroke_s	s	n/a
139.012	0.165	278024	keystroke_Key.space	Key.space	n/a
139.3725	0.0745	278745	keystroke_c	c	n/a
139.462	0.0905	278924	keystroke_i	i	n/a
139.5975	0.09	279195	keystroke_t	t	n/a
139.7325	0.075	279465	keystroke_y	y	n/a
139.8225	0.105	279645	keystroke_Key.space	Key.space	n/a
140.0775	0.165	280155	keystroke_a	a	n/a
140.1825	0.075	280365	keystroke_r	r	n/a
140.3925	0.075	280785	keystroke_g	g	n/a
140.483	0.0895	280966	keystroke_u	u	n/a
140.7075	0.0895	281415	keystroke_m	m	n/a
140.812	0.0905	281624	keystroke_e	e	n/a
140.9475	0.09	281895	keystroke_n	n	n/a
141.0075	0.09	282015	keystroke_t	t	n/a
141.2025	0.1045	282405	keystroke_Key.enter	Key.enter	n/a
141.324	7.725	282648	prompt	n/a	diary nested focused convergence\n
142.0125	0.075	284025	keystroke_d	d	n/a
142.1325	0.0895	284265	keystroke_i	i	n/a
142.252	0.1955	284504	keystroke_a	a	n/a
142.4325	0.106	284865	keystroke_r	r	n/a
142.7175	0.075	285435	keystroke_y	y	n/a
142.7775	0.1045	285555	keystroke_Key.space	Key.space	n/a
143.002	0.106	286004	keystroke_n	n	n/a
143.062	0.15	286124	keystroke_e	e	n/a
143.198	0.1045	286396	keystroke_t	t	n/a
143.827	0.09	287654	keystroke_Key.backspace	Key.backspace	n/a
143.933	0.12	287866	keystroke_s	s	n/a
144.038	0.09	288076	keystroke_t	t	n/a
144.143	0.0895	288286	keystroke_e	e	n/a
144.383	0.105	288766	keystroke_d	d	n/a
144.5625	0.12	289125	keystroke_Key.space	Key.space	n/a
144.8175	0.075	289635	keystroke_f	f	n/a
145.147	0.0755	290294	keystroke_o	o	n/a
145.2975	0.09	290595	keystroke_u	u	n/a
145.3125	0.0445	290625	keystroke_c	c	n/a
145.852	0.075	291704	keystroke_Key.backspace	Key.backspace	n/a
145.9875	0.12	291975	keystroke_Key.backspace	Key.backspace	n/a
146.0625	0.09	292125	keystroke_c	c	n/a
146.167	0.1055	292334	keystroke_u	u	n/a
146.3325	0.09	292665	keystroke_s	s	n/a
146.5125	0.075	293025	keystroke_e	e	n/a
146.7075	0.09	293415	keystroke_d	d	n/a
146.8125	0.135	293625	keystroke_Key.space	Key.space	n/a
147.1575	0.075	294315	keystroke_c	c	n/a
147.2175	0.105	294435	keystroke_o	o	n/a
147.308	0.1195	294616	keystroke_n	n	n/a
147.458	0.0595	294916	keystroke_v	v	n/a
147.6375	0.1205	295275	keystroke_e	e	n/a
147.7125	0.105	295425	keystroke_r	r	n/a
147.997	0.076	295994	keystroke_g	g	n/a
148.148	0.089	296296	keystroke_e	e	n/a
148.312	0.105	296624	keystroke_n	n	n/a
148.508	0.044	297016	keystroke_c	c	n/a
148.6875	0.075	297375	keystroke_e	e	n/a
148.9575	0.09	297915	keystroke_Key.enter	Key.enter	n/a
149.0535	7.8255	298107	prompt	n/a	dimensions gravity analytical indicate\n
149.5425	0.075	299085	keystroke_d	d	n/a
149.6625	0.075	299325	keystroke_i	i	n/a
149.813	0.1045	299626	keystroke_m	m	n/a
149.9775	0.0745	299955	keystroke_e	e	n/a
150.098	0.089	300196	keystroke_n	n	n/a
150.307	0.076	300614	keystroke_s	s	n/a
150.4725	0.18	300945	keystroke_i	i	n/a
150.562	0.121	301124	keystroke_o	o	n/a
150.6375	0.1495	301275	keystroke_n	n	n/a
150.8475	0.105	301695	keystroke_s	s	n/a
151.0125	0.1195	302025	keystroke_Key.space	Key.space	n/a
151.418	0.06	302836	keystroke_g	g	n/a
151.598	0.0745	303196	keystroke_r	r	n/a
151.687	0.1355	303374	keystroke_a	a	n/a
151.8525	0.0745	303705	keystroke_v	v	n/a
151.9725	0.1055	303945	keystroke_i	i	n/a
152.213	0.105	304426	keystroke_t	t	n/a
152.377	0.0905	304754	keystroke_y	y	n/a
152.5275	0.1045	305055	keystroke_Key.space	Key.space	n/a
152.7825	0.1055	305565	keystroke_a	a	n/a
152.9025	0.1055	305805	keystroke_n	n	n/a
153.0375	0.105	306075	keystroke_a	a	n/a
153.292	0.151	306584	keystroke_l	l	n/a
153.458	0.0445	306916	keystroke_i	i	n/a
153.787	0.1055	307574	keystroke_Key.backspace	Key.backspace	n/a
153.9975	0.12	307995	keystroke_y	y	n/a
154.2525	0.075	308505	keystroke_t	t	n/a
154.4325	0.09	308865	keystroke_i	i	n/a
154.5975	0.06	309195	keystroke_c	c	n/a
154.7775	0.1195	309555	keystroke_a	a	n/a
154.9275	0.119	309855	keystroke_l	l	n/a
155.0915	0.09	310183	keystroke_Key.space	Key.space	n/a
155.317	0.1055	310634	keystroke_i	i	n/a
155.407	0.12	310814	keystroke_n	n	n/a
155.5425	0.0745	311085	keystroke_d	d	n/a
155.6775	0.0745	311355	keystroke_i	i	n/a
156.0525	0.075	312105	keystroke_c	c	n/a
156.2475	0.1495	312495	keystroke_a	a	n/a
156.367	0.12	312734	keystroke_t	t	n/a
156.457	0.091	312914	keystroke_e	e	n/a
156.787	0.09	313574	keystroke_Key.enter	Key.enter	n/a
156.8875	5.0465	313775	prompt	n/a	hide crack center skills\n
157.642	0.09	315284	keystroke_h	h	n/a
157.7475	0.105	315495	keystroke_i	i	n/a
157.8825	0.0595	315765	keystroke_d	d	n/a
158.062	0.09	316124	keystroke_e	e	n/a
158.1975	0.1045	316395	keystroke_Key.space	Key.space	n/a
158.438	0.09	316876	keystroke_c	c	n/a
158.647	0.1205	317294	keystroke_r	r	n/a
158.752	0.1205	317504	keystroke_a	a	n/a
159.0675	0.075	318135	keystroke_c	c	n/a
159.2315	0.0915	318463	keystroke_k	k	n/a
159.3375	0.1045	318675	keystroke_Key.space	Key.space	n/a
159.9075	0.06	319815	keystroke_c	c	n/a
160.0725	0.105	320145	keystroke_e	e	n/a
160.2225	0.12	320445	keystroke_n	n	n/a
160.3575	0.09	320715	keystroke_t	t	n/a
160.4925	0.135	320985	keystroke_e	e	n/a
160.5825	0.12	321165	keystroke_r	r	n/a
160.6875	0.1045	321375	keystroke_Key.space	Key.space	n/a
160.957	0.06	321914	keystroke_s	s	n/a
161.033	0.075	322066	keystroke_k	k	n/a
161.212	0.0755	322424	keystroke_i	i	n/a
161.3475	0.09	322695	keystroke_l	l	n/a
161.4975	0.105	322995	keystroke_l	l	n/a
161.6475	0.075	323295	keystroke_s	s	n/a
161.8425	0.09	323685	keystroke_Key.enter	Key.enter	n/a
161.9385	7.7655	323877	prompt	n/a	bright pennsylvania pour tobago\n
162.5625	0.06	325125	keystroke_b	b	n/a
162.7275	0.075	325455	keystroke_r	r	n/a
162.8175	0.074	325635	keystroke_i	i	n/a
162.9375	0.075	325875	keystroke_g	g	n/a
163.0725	0.075	326145	keystroke_h	h	n/a
163.1325	0.09	326265	keystroke_t	t	n/a
163.2515	0.105	326503	keystroke_Key.space	Key.space	n/a
163.5075	0.104	327015	keystroke_p	p	n/a
163.643	0.0735	327286	keystroke_e	e	n/a
163.7615	0.091	327523	keystroke_n	n	n/a
163.943	0.089	327886	keystroke_n	n	n/a
164.137	0.075	328274	keystroke_s	s	n/a
164.317	0.075	328634	keystroke_y	y	n/a
164.5575	0.1045	329115	keystroke_l	l	n/a
164.7075	0.075	329415	keystroke_v	v	n/a
164.887	0.12	329774	keystroke_a	a	n/a
165.172	0.105	330344	keystroke_n	n	n/a
165.322	0.09	330644	keystroke_i	i	n/a
165.4725	0.135	330945	keystroke_a	a	n/a
165.6975	0.09	331395	keystroke_Key.space	Key.space	n/a
166.027	0.075	332054	keystroke_p	p	n/a
166.2975	0.0745	332595	keystroke_o	o	n/a
166.508	0.105	333016	keystroke_u	u	n/a
166.702	0.1055	333404	keystroke_r	r	n/a
167.3925	0.105	334785	keystroke_Key.space	Key.space	n/a
167.917	0.075	335834	keystroke_t	t	n/a
168.067	0.09	336134	keystroke_o	o	n/a
168.2175	0.0745	336435	keystroke_b	b	n/a
168.367	0.1805	336734	keystroke_a	a	n/a
168.5625	0.091	337125	keystroke_g	g	n/a
168.8325	0.09	337665	keystroke_o	o	n/a
169.5825	0.12	339165	keystroke_Key.enter	Key.enter	n/a
169.7095	11.319	339419	prompt	n/a	medication chat limits accepted\n
171.999	0.013	343998	keystroke_m	m	n/a
172.012	0.075	344024	keystroke_e	e	n/a
172.207	0.045	344414	keystroke_d	d	n/a
172.222	0.075	344444	keystroke_i	i	n/a
172.687	0.225	345374	keystroke_a	a	n/a
172.8825	0.105	345765	keystroke_t	t	n/a
172.9875	0.179	345975	keystroke_i	i	n/a
173.4375	0.074	346875	keystroke_Key.backspace	Key.backspace	n/a
173.632	0.0905	347264	keystroke_Key.backspace	Key.backspace	n/a
174.6815	0.076	349363	keystroke_Key.backspace	Key.backspace	n/a
174.8165	0.091	349633	keystroke_c	c	n/a
174.9825	0.1655	349965	keystroke_a	a	n/a
175.1025	0.105	350205	keystroke_t	t	n/a
175.1775	0.1805	350355	keystroke_i	i	n/a
175.268	0.104	350536	keystroke_o	o	n/a
175.3275	0.1205	350655	keystroke_n	n	n/a
175.702	0.09	351404	keystroke_Key.space	Key.space	n/a
175.8965	0.091	351793	keystroke_c	c	n/a
176.0325	0.0605	352065	keystroke_h	h	n/a
176.0775	0.1645	352155	keystroke_a	a	n/a
176.1975	0.105	352395	keystroke_t	t	n/a
176.3475	0.09	352695	keystroke_Key.space	Key.space	n/a
176.7675	0.135	353535	keystroke_l	l	n/a
177.0065	0.1355	354013	keystroke_i	i	n/a
177.098	0.179	354196	keystroke_m	m	n/a
177.2625	0.1195	354525	keystroke_i	i	n/a
177.5475	0.089	355095	keystroke_t	t	n/a
177.7715	0.0905	355543	keystroke_s	s	n/a
177.9215	0.075	355843	keystroke_Key.space	Key.space	n/a
178.2825	0.03	356565	keystroke_e	e	n/a
178.5825	0.105	357165	keystroke_Key.backspace	Key.backspace	n/a
178.6725	0.105	357345	keystroke_a	a	n/a
178.8375	0.06	357675	keystroke_c	c	n/a
178.9875	0.06	357975	keystroke_c	c	n/a
179.1675	0.06	358335	keystroke_e	e	n/a
179.3325	0.105	358665	keystroke_p	p	n/a
179.4825	0.09	358965	keystroke_t	t	n/a
179.5725	0.09	359145	keystroke_e	e	n/a
179.782	0.0905	359564	keystroke_d	d	n/a
179.8875	0.105	359775	keystroke_Key.space	Key.space	n/a
180.5025	0.1045	361005	keystroke_Key.backspace	Key.backspace	n/a
180.922	0.105	361844	keystroke_Key.enter	Key.enter	n/a
181.041	6.063	362082	prompt	n/a	browse rich neural coaches\n
181.642	0.06	363284	keystroke_b	b	n/a
181.822	0.09	363644	keystroke_r	r	n/a
181.9265	0.061	363853	keystroke_o	o	n/a
182.0175	0.09	364035	keystroke_w	w	n/a
182.2575	0.09	364515	keystroke_s	s	n/a
182.4525	0.075	364905	keystroke_e	e	n/a
182.5725	0.09	365145	keystroke_Key.space	Key.space	n/a
183.1575	0.075	366315	keystroke_r	r	n/a
183.2925	0.075	366585	keystroke_i	i	n/a
183.412	0.0905	366824	keystroke_c	c	n/a
183.5625	0.075	367125	keystroke_h	h	n/a
183.6675	0.12	367335	keystroke_Key.space	Key.space	n/a
183.9525	0.0895	367905	keystroke_n	n	n/a
184.3575	0.075	368715	keystroke_e	e	n/a
184.6565	0.091	369313	keystroke_u	u	n/a
184.7775	0.09	369555	keystroke_r	r	n/a
185.1075	0.135	370215	keystroke_a	a	n/a
185.2715	0.12	370543	keystroke_l	l	n/a
185.422	0.0895	370844	keystroke_Key.space	Key.space	n/a
185.707	0.0445	371414	keystroke_c	c	n/a
185.7675	0.075	371535	keystroke_o	o	n/a
186.2465	0.1055	372493	keystroke_a	a	n/a
186.4115	0.076	372823	keystroke_c	c	n/a
186.547	0.075	373094	keystroke_h	h	n/a
186.6675	0.1195	373335	keystroke_e	e	n/a
186.742	0.1355	373484	keystroke_s	s	n/a
186.9975	0.105	373995	keystroke_Key.enter	Key.enter	n/a
187.1085	6.715	374217	prompt	n/a	superb latter remarks xbox\n
187.702	0.075	375404	keystroke_s	s	n/a
187.822	0.1055	375644	keystroke_u	u	n/a
188.3175	0.105	376635	keystroke_p	p	n/a
188.4975	0.1495	376995	keystroke_e	e	n/a
188.602	0.09	377204	keystroke_r	r	n/a
188.872	0.0745	377744	keystroke_b	b	n/a
189.1265	0.0905	378253	keystroke_Key.space	Key.space	n/a
189.367	0.09	378734	keystroke_l	l	n/a
189.442	0.1805	378884	keystroke_a	a	n/a
189.562	0.075	379124	keystroke_t	t	n/a
189.697	0.075	379394	keystroke_t	t	n/a
189.8925	0.15	379785	keystroke_e	e	n/a
189.9975	0.149	379995	keystroke_r	r	n/a
190.1325	0.089	380265	keystroke_Key.space	Key.space	n/a
190.5375	0.1495	381075	keystroke_r	r	n/a
190.672	0.12	381344	keystroke_e	e	n/a
190.8675	0.1195	381735	keystroke_m	m	n/a
191.002	0.1505	382004	keystroke_a	a	n/a
191.1675	0.09	382335	keystroke_r	r	n/a
191.3765	0.105	382753	keystroke_d	d	n/a
191.9315	0.0905	383863	keystroke_Key.backspace	Key.backspace	n/a
192.1425	0.0895	384285	keystroke_k	k	n/a
192.277	0.105	384554	keystroke_s	s	n/a
192.397	0.105	384794	keystroke_Key.space	Key.space	n/a
192.7265	0.091	385453	keystroke_x	x	n/a
193.012	0.0595	386024	keystroke_b	b	n/a
193.132	0.1045	386264	keystroke_o	o	n/a
193.2815	0.075	386563	keystroke_x	x	n/a
193.7315	0.09	387463	keystroke_Key.enter	Key.enter	n/a
193.827	9.102	387654	prompt	n/a	couple guilty coleman canadian\n
194.5565	0.075	389113	keystroke_c	c	n/a
194.6615	0.12	389323	keystroke_o	o	n/a
194.7675	0.12	389535	keystroke_u	u	n/a
194.932	0.12	389864	keystroke_p	p	n/a
195.112	0.1355	390224	keystroke_l	l	n/a
195.2625	0.075	390525	keystroke_e	e	n/a
195.3375	0.0895	390675	keystroke_Key.space	Key.space	n/a
195.5625	0.075	391125	keystroke_g	g	n/a
195.8175	0.105	391635	keystroke_u	u	n/a
196.0125	0.105	392025	keystroke_i	i	n/a
196.118	0.134	392236	keystroke_l	l	n/a
196.417	0.105	392834	keystroke_t	t	n/a
196.6875	0.09	393375	keystroke_y	y	n/a
196.822	0.0905	393644	keystroke_Key.space	Key.space	n/a
197.062	0.075	394124	keystroke_c	c	n/a
197.152	0.105	394304	keystroke_o	o	n/a
197.377	0.12	394754	keystroke_l	l	n/a
197.5125	0.06	395025	keystroke_e	e	n/a
197.7225	0.09	395445	keystroke_m	m	n/a
197.8575	0.12	395715	keystroke_a	a	n/a
197.9625	0.075	395925	keystroke_n	n	n/a
198.5025	0.089	397005	keystroke_Key.space	Key.space	n/a
198.6975	0.074	397395	keystroke_c	c	n/a
198.8625	0.1045	397725	keystroke_a	a	n/a
198.937	0.105	397874	keystroke_n	n	n/a
199.057	0.135	398114	keystroke_a	a	n/a
199.702	0.12	399404	keystroke_d	d	n/a
200.002	0.12	400004	keystroke_i	i	n/a
200.1375	0.1345	400275	keystroke_a	a	n/a
200.737	0.075	401474	keystroke_n	n	n/a
202.8895	0.038	405779	keystroke_Key.enter	Key.enter	n/a
202.934	8.336	405868	prompt	n/a	environments gasoline bars belongs\n
203.5125	0.075	407025	keystroke_e	e	n/a
203.7525	0.12	407505	keystroke_n	n	n/a
203.9325	0.075	407865	keystroke_v	v	n/a
204.1125	0.0895	408225	keystroke_i	i	n/a
204.2325	0.1345	408465	keystroke_o	o	n/a
204.8775	0.1045	409755	keystroke_Key.backspace	Key.backspace	n/a
205.012	0.0755	410024	keystroke_r	r	n/a
205.132	0.09	410264	keystroke_o	o	n/a
205.207	0.105	410414	keystroke_n	n	n/a
205.448	0.0895	410896	keystroke_m	m	n/a
206.092	0.105	412184	keystroke_e	e	n/a
206.242	0.075	412484	keystroke_n	n	n/a
206.3925	0.0895	412785	keystroke_t	t	n/a
206.6625	0.075	413325	keystroke_s	s	n/a
206.782	0.105	413564	keystroke_Key.space	Key.space	n/a
207.2175	0.074	414435	keystroke_g	g	n/a
207.3375	0.134	414675	keystroke_a	a	n/a
207.5925	0.06	415185	keystroke_s	s	n/a
207.7575	0.1195	415515	keystroke_l	l	n/a
208.1165	0.09	416233	keystroke_Key.backspace	Key.backspace	n/a
208.2965	0.0905	416593	keystroke_o	o	n/a
208.492	0.135	416984	keystroke_l	l	n/a
208.6425	0.1495	417285	keystroke_i	i	n/a
208.762	0.135	417524	keystroke_n	n	n/a
208.882	0.075	417764	keystroke_e	e	n/a
208.972	0.09	417944	keystroke_Key.space	Key.space	n/a
209.1525	0.0595	418305	keystroke_b	b	n/a
209.302	0.12	418604	keystroke_a	a	n/a
209.3625	0.1195	418725	keystroke_r	r	n/a
209.6315	0.076	419263	keystroke_s	s	n/a
209.752	0.1195	419504	keystroke_Key.space	Key.space	n/a
209.9475	0.075	419895	keystroke_b	b	n/a
210.1125	0.075	420225	keystroke_e	e	n/a
210.1275	0.105	420255	keystroke_l	l	n/a
210.3525	0.104	420705	keystroke_o	o	n/a
210.4415	0.136	420883	keystroke_n	n	n/a
210.6075	0.089	421215	keystroke_g	g	n/a
210.7715	0.0905	421543	keystroke_s	s	n/a
211.162	0.1055	422324	keystroke_Key.enter	Key.enter	n/a
211.2745	11.2895	422549	prompt	n/a	motorcycle bolivia observe vietnam\n
214.51	0.042	429020	keystroke_m	m	n/a
214.5825	0.1045	429165	keystroke_o	o	n/a
214.702	0.075	429404	keystroke_t	t	n/a
214.882	0.09	429764	keystroke_o	o	n/a
215.032	0.03	430064	keystroke_t	t	n/a
215.512	0.09	431024	keystroke_Key.backspace	Key.backspace	n/a
215.632	0.0595	431264	keystroke_r	r	n/a
215.932	0.06	431864	keystroke_c	c	n/a
216.2315	0.0755	432463	keystroke_y	y	n/a
216.3365	0.0755	432673	keystroke_c	c	n/a
216.5325	0.12	433065	keystroke_l	l	n/a
216.7125	0.105	433425	keystroke_e	e	n/a
216.8315	0.09	433663	keystroke_Key.space	Key.space	n/a
217.2975	0.0745	434595	keystroke_b	b	n/a
217.462	0.09	434924	keystroke_o	o	n/a
217.672	0.15	435344	keystroke_l	l	n/a
217.8075	0.0745	435615	keystroke_i	i	n/a
217.9425	0.09	435885	keystroke_v	v	n/a
218.0475	0.075	436095	keystroke_i	i	n/a
218.1825	0.12	436365	keystroke_a	a	n/a
218.4075	0.09	436815	keystroke_Key.space	Key.space	n/a
218.8575	0.09	437715	keystroke_o	o	n/a
219.0075	0.09	438015	keystroke_b	b	n/a
219.2475	0.105	438495	keystroke_s	s	n/a
219.412	0.1355	438824	keystroke_e	e	n/a
219.517	0.0755	439034	keystroke_r	r	n/a
219.758	0.0595	439516	keystroke_v	v	n/a
219.9375	0.0745	439875	keystroke_e	e	n/a
220.072	0.105	440144	keystroke_Key.space	Key.space	n/a
220.537	0.076	441074	keystroke_v	v	n/a
220.7015	0.0905	441403	keystroke_i	i	n/a
220.852	0.1205	441704	keystroke_e	e	n/a
221.1525	0.09	442305	keystroke_t	t	n/a
221.4975	0.075	442995	keystroke_n	n	n/a
221.7525	0.105	443505	keystroke_a	a	n/a
222.0675	0.105	444135	keystroke_m	m	n/a
222.4725	0.09	444945	keystroke_Key.enter	Key.enter	n/a
222.5685	8.2605	445137	prompt	n/a	grand conducted skills nearly\n
223.2375	0.074	446475	keystroke_g	g	n/a
223.4175	0.089	446835	keystroke_r	r	n/a
223.4915	0.12	446983	keystroke_a	a	n/a
223.582	0.1055	447164	keystroke_n	n	n/a
224.1815	0.105	448363	keystroke_d	d	n/a
224.3615	0.09	448723	keystroke_Key.space	Key.space	n/a
224.6475	0.0895	449295	keystroke_c	c	n/a
224.752	0.09	449504	keystroke_o	o	n/a
224.8265	0.121	449653	keystroke_n	n	n/a
224.9625	0.074	449925	keystroke_d	d	n/a
225.1715	0.0905	450343	keystroke_u	u	n/a
225.502	0.075	451004	keystroke_c	c	n/a
225.682	0.0905	451364	keystroke_t	t	n/a
225.923	0.0595	451846	keystroke_e	e	n/a
226.1175	0.1195	452235	keystroke_d	d	n/a
226.2065	0.12	452413	keystroke_Key.space	Key.space	n/a
226.7475	0.074	453495	keystroke_s	s	n/a
226.8965	0.105	453793	keystroke_k	k	n/a
227.1515	0.106	454303	keystroke_i	i	n/a
227.333	0.0885	454666	keystroke_l	l	n/a
227.4965	0.106	454993	keystroke_l	l	n/a
227.6475	0.12	455295	keystroke_s	s	n/a
227.7825	0.074	455565	keystroke_Key.space	Key.space	n/a
228.562	0.1055	457124	keystroke_n	n	n/a
228.6525	0.09	457305	keystroke_e	e	n/a
229.3575	0.1495	458715	keystroke_a	a	n/a
229.642	0.0905	459284	keystroke_r	r	n/a
229.852	0.12	459704	keystroke_l	l	n/a
230.122	0.09	460244	keystroke_y	y	n/a
230.737	0.09	461474	keystroke_Key.enter	Key.enter	n/a
230.8335	7.9755	461667	prompt	n/a	panel begins part butts\n
231.562	0.105	463124	keystroke_p	p	n/a
231.817	0.12	463634	keystroke_n	n	n/a
232.597	0.105	465194	keystroke_Key.backspace	Key.backspace	n/a
232.717	0.12	465434	keystroke_a	a	n/a
232.897	0.1205	465794	keystroke_n	n	n/a
233.4965	0.076	466993	keystroke_e	e	n/a
233.7675	0.12	467535	keystroke_l	l	n/a
233.992	0.105	467984	keystroke_Key.space	Key.space	n/a
234.308	0.029	468616	keystroke_b	b	n/a
234.427	0.0755	468854	keystroke_e	e	n/a
234.5925	0.0595	469185	keystroke_g	g	n/a
234.757	0.12	469514	keystroke_i	i	n/a
234.847	0.1205	469694	keystroke_n	n	n/a
235.567	0.09	471134	keystroke_s	s	n/a
235.777	0.09	471554	keystroke_Key.space	Key.space	n/a
236.167	0.075	472334	keystroke_p	p	n/a
236.2275	0.1195	472455	keystroke_a	a	n/a
236.302	0.0755	472604	keystroke_r	r	n/a
236.497	0.075	472994	keystroke_t	t	n/a
236.617	0.075	473234	keystroke_Key.space	Key.space	n/a
236.842	0.075	473684	keystroke_b	b	n/a
236.9915	0.09	473983	keystroke_u	u	n/a
237.1415	0.045	474283	keystroke_t	t	n/a
237.2615	0.091	474523	keystroke_t	t	n/a
237.8475	0.075	475695	keystroke_s	s	n/a
238.6865	0.12	477373	keystroke_Key.enter	Key.enter	n/a
238.814	8.515	477628	prompt	n/a	compromise rising starter galleries\n
239.4525	0.014	478905	keystroke_c	c	n/a
239.5115	0.045	479023	keystroke_o	o	n/a
239.5715	0.195	479143	keystroke_m	m	n/a
239.7515	0.09	479503	keystroke_p	p	n/a
239.9765	0.0605	479953	keystroke_r	r	n/a
240.4725	0.1645	480945	keystroke_o	o	n/a
240.6515	0.1355	481303	keystroke_m	m	n/a
240.9515	0.09	481903	keystroke_i	i	n/a
241.1915	0.1205	482383	keystroke_s	s	n/a
241.432	0.09	482864	keystroke_e	e	n/a
241.5815	0.09	483163	keystroke_Key.space	Key.space	n/a
242.2265	0.09	484453	keystroke_r	r	n/a
242.527	0.09	485054	keystroke_i	i	n/a
242.6775	0.0745	485355	keystroke_s	s	n/a
242.932	0.12	485864	keystroke_i	i	n/a
243.0665	0.121	486133	keystroke_n	n	n/a
243.2315	0.1055	486463	keystroke_g	g	n/a
243.3965	0.1055	486793	keystroke_Key.space	Key.space	n/a
244.057	0.105	488114	keystroke_s	s	n/a
244.2075	0.074	488415	keystroke_t	t	n/a
244.3275	0.1645	488655	keystroke_a	a	n/a
244.4465	0.075	488893	keystroke_r	r	n/a
244.627	0.075	489254	keystroke_t	t	n/a
244.837	0.165	489674	keystroke_e	e	n/a
244.972	0.12	489944	keystroke_r	r	n/a
245.5265	0.09	491053	keystroke_Key.space	Key.space	n/a
245.7815	0.076	491563	keystroke_g	g	n/a
245.9025	0.135	491805	keystroke_a	a	n/a
246.0515	0.076	492103	keystroke_l	l	n/a
246.232	0.09	492464	keystroke_l	l	n/a
246.4415	0.121	492883	keystroke_e	e	n/a
246.5325	0.104	493065	keystroke_r	r	n/a
246.697	0.09	493394	keystroke_i	i	n/a
246.802	0.135	493604	keystroke_e	e	n/a
246.907	0.1045	493814	keystroke_s	s	n/a
247.2365	0.091	494473	keystroke_Key.enter	Key.enter	n/a
247.334	9.2655	494668	prompt	n/a	winner hygiene cordless 'tis\n
247.912	0.089	495824	keystroke_w	w	n/a
248.0025	0.104	496005	keystroke_i	i	n/a
248.0915	0.075	496183	keystroke_n	n	n/a
248.2565	0.0905	496513	keystroke_n	n	n/a
248.3615	0.1505	496723	keystroke_e	e	n/a
248.4525	0.1195	496905	keystroke_r	r	n/a
248.5265	0.1355	497053	keystroke_Key.space	Key.space	n/a
249.202	0.0745	498404	keystroke_Key.backspace	Key.backspace	n/a
249.397	0.075	498794	keystroke_h	h	n/a
249.922	0.1045	499844	keystroke_Key.backspace	Key.backspace	n/a
250.0425	0.089	500085	keystroke_Key.space	Key.space	n/a
250.2075	0.105	500415	keystroke_h	h	n/a
250.747	0.0895	501494	keystroke_y	y	n/a
251.1065	0.076	502213	keystroke_g	g	n/a
252.4875	0.089	504975	keystroke_i	i	n/a
252.6065	0.0755	505213	keystroke_e	e	n/a
252.7565	0.12	505513	keystroke_n	n	n/a
253.297	0.09	506594	keystroke_e	e	n/a
253.4465	0.1055	506893	keystroke_Key.space	Key.space	n/a
253.8225	0.0595	507645	keystroke_c	c	n/a
253.9415	0.1055	507883	keystroke_o	o	n/a
254.0615	0.091	508123	keystroke_r	r	n/a
254.212	0.105	508424	keystroke_d	d	n/a
254.632	0.15	509264	keystroke_l	l	n/a
254.707	0.135	509414	keystroke_e	e	n/a
254.797	0.12	509594	keystroke_s	s	n/a
255.007	0.0905	510014	keystroke_s	s	n/a
255.112	0.1045	510224	keystroke_Key.space	Key.space	n/a
255.621	0.1065	511242	keystroke_'	'	n/a
256.027	0.075	512054	keystroke_t	t	n/a
256.192	0.0755	512384	keystroke_i	i	n/a
256.327	0.075	512654	keystroke_s	s	n/a
256.522	0.075	513044	keystroke_Key.enter	Key.enter	n/a
256.6075	5.874	513215	prompt	n/a	managing beef caution so\n
257.2275	0.09	514455	keystroke_m	m	n/a
257.332	0.1045	514664	keystroke_a	a	n/a
257.452	0.0745	514904	keystroke_n	n	n/a
257.5275	0.149	515055	keystroke_a	a	n/a
257.6615	0.0755	515323	keystroke_g	g	n/a
257.8125	0.059	515625	keystroke_e	e	n/a
258.247	0.0895	516494	keystroke_Key.backspace	Key.backspace	n/a
258.4425	0.0895	516885	keystroke_i	i	n/a
258.5475	0.1045	517095	keystroke_n	n	n/a
258.667	0.1045	517334	keystroke_g	g	n/a
258.757	0.1045	517514	keystroke_Key.space	Key.space	n/a
258.997	0.0595	517994	keystroke_b	b	n/a
259.1465	0.1055	518293	keystroke_e	e	n/a
259.2965	0.165	518593	keystroke_e	e	n/a
260.0025	0.075	520005	keystroke_f	f	n/a
260.167	0.12	520334	keystroke_Key.space	Key.space	n/a
260.4665	0.076	520933	keystroke_c	c	n/a
260.7065	0.1505	521413	keystroke_a	a	n/a
260.8415	0.061	521683	keystroke_u	u	n/a
260.9915	0.06	521983	keystroke_t	t	n/a
261.277	0.1645	522554	keystroke_i	i	n/a
261.412	0.1495	522824	keystroke_o	o	n/a
261.5325	0.135	523065	keystroke_n	n	n/a
261.847	0.09	523694	keystroke_Key.space	Key.space	n/a
261.9825	0.0895	523965	keystroke_s	s	n/a
262.147	0.12	524294	keystroke_o	o	n/a
262.402	0.075	524804	keystroke_Key.enter	Key.enter	n/a
262.4905	9.1535	524981	prompt	n/a	providence grenada poultry inch\n
263.2125	0.0895	526425	keystroke_p	p	n/a
263.317	0.09	526634	keystroke_r	r	n/a
263.452	0.09	526904	keystroke_o	o	n/a
263.572	0.075	527144	keystroke_v	v	n/a
263.662	0.09	527324	keystroke_i	i	n/a
263.7975	0.0745	527595	keystroke_d	d	n/a
263.978	0.074	527956	keystroke_e	e	n/a
264.097	0.09	528194	keystroke_n	n	n/a
264.3065	0.075	528613	keystroke_c	c	n/a
264.5025	0.104	529005	keystroke_e	e	n/a
264.5925	0.1045	529185	keystroke_Key.space	Key.space	n/a
264.9975	0.075	529995	keystroke_g	g	n/a
265.2525	0.104	530505	keystroke_r	r	n/a
265.3265	0.105	530653	keystroke_e	e	n/a
265.5825	0.119	531165	keystroke_n	n	n/a
265.777	0.1195	531554	keystroke_a	a	n/a
266.092	0.09	532184	keystroke_d	d	n/a
266.302	0.106	532604	keystroke_a	a	n/a
266.482	0.105	532964	keystroke_Key.space	Key.space	n/a
266.8565	0.121	533713	keystroke_p	p	n/a
267.0965	0.06	534193	keystroke_p	p	n/a
267.6965	0.09	535393	keystroke_Key.backspace	Key.backspace	n/a
267.9375	0.0895	535875	keystroke_u	u	n/a
268.267	0.1205	536534	keystroke_o	o	n/a
268.6115	0.075	537223	keystroke_Key.backspace	Key.backspace	n/a
268.7465	0.0605	537493	keystroke_Key.backspace	Key.backspace	n/a
268.8665	0.1205	537733	keystroke_o	o	n/a
268.9565	0.12	537913	keystroke_u	u	n/a
269.1515	0.165	538303	keystroke_l	l	n/a
269.3615	0.09	538723	keystroke_t	t	n/a
269.5715	0.0905	539143	keystroke_y	y	n/a
270.0675	0.0895	540135	keystroke_Key.backspace	Key.backspace	n/a
270.1575	0.0895	540315	keystroke_r	r	n/a
270.337	0.075	540674	keystroke_y	y	n/a
270.472	0.105	540944	keystroke_Key.space	Key.space	n/a
270.7875	0.0895	541575	keystroke_i	i	n/a
270.877	0.09	541754	keystroke_n	n	n/a
271.012	0.09	542024	keystroke_c	c	n/a
271.177	0.075	542354	keystroke_h	h	n/a
271.567	0.075	543134	keystroke_Key.enter	Key.enter	n/a
271.649	5.335	543298	prompt	n/a	offshore expects fathers essence\n
272.2265	0.105	544453	keystroke_o	o	n/a
272.362	0.0745	544724	keystroke_f	f	n/a
272.497	0.0905	544994	keystroke_f	f	n/a
272.662	0.09	545324	keystroke_s	s	n/a
272.752	0.09	545504	keystroke_h	h	n/a
272.872	0.119	545744	keystroke_o	o	n/a
273.0375	0.1195	546075	keystroke_r	r	n/a
273.1125	0.1195	546225	keystroke_e	e	n/a
273.292	0.135	546584	keystroke_Key.space	Key.space	n/a
273.4875	0.0745	546975	keystroke_e	e	n/a
273.7265	0.06	547453	keystroke_x	x	n/a
273.8315	0.1355	547663	keystroke_p	p	n/a
273.9815	0.045	547963	keystroke_e	e	n/a
274.162	0.06	548324	keystroke_c	c	n/a
274.3565	0.09	548713	keystroke_t	t	n/a
274.5215	0.09	549043	keystroke_s	s	n/a
274.5965	0.12	549193	keystroke_Key.space	Key.space	n/a
274.747	0.09	549494	keystroke_f	f	n/a
274.8665	0.18	549733	keystroke_a	a	n/a
275.0315	0.0755	550063	keystroke_t	t	n/a
275.152	0.075	550304	keystroke_h	h	n/a
275.2725	0.18	550545	keystroke_e	e	n/a
275.317	0.119	550634	keystroke_r	r	n/a
275.407	0.105	550814	keystroke_s	s	n/a
275.527	0.135	551054	keystroke_Key.space	Key.space	n/a
275.662	0.0905	551324	keystroke_e	e	n/a
275.887	0.06	551774	keystroke_s	s	n/a
276.052	0.06	552104	keystroke_s	s	n/a
276.202	0.075	552404	keystroke_e	e	n/a
276.3075	0.1045	552615	keystroke_n	n	n/a
276.427	0.06	552854	keystroke_c	c	n/a
276.6065	0.09	553213	keystroke_e	e	n/a
276.8925	0.0895	553785	keystroke_Key.enter	Key.enter	n/a
276.9875	5.711	553975	prompt	n/a	completion falls sources speeds\n
277.657	0.09	555314	keystroke_c	c	n/a
277.866	0.18	555732	keystroke_o	o	n/a
278.031	0.121	556062	keystroke_m	m	n/a
278.091	0.151	556182	keystroke_p	p	n/a
278.2115	0.1655	556423	keystroke_l	l	n/a
278.437	0.1345	556874	keystroke_e	e	n/a
278.5865	0.1055	557173	keystroke_t	t	n/a
278.737	0.2395	557474	keystroke_i	i	n/a
278.8715	0.1205	557743	keystroke_o	o	n/a
278.9475	0.149	557895	keystroke_n	n	n/a
279.1115	0.0905	558223	keystroke_Key.space	Key.space	n/a
279.382	0.0745	558764	keystroke_f	f	n/a
279.5015	0.1355	559003	keystroke_a	a	n/a
279.652	0.0905	559304	keystroke_l	l	n/a
279.817	0.09	559634	keystroke_l	l	n/a
279.9375	0.089	559875	keystroke_s	s	n/a
279.9815	0.1345	559963	keystroke_Key.space	Key.space	n/a
280.191	0.09	560382	keystroke_s	s	n/a
280.4175	0.1195	560835	keystroke_o	o	n/a
280.507	0.105	561014	keystroke_u	u	n/a
280.597	0.075	561194	keystroke_r	r	n/a
280.8075	0.0595	561615	keystroke_c	c	n/a
281.002	0.134	562004	keystroke_e	e	n/a
281.1065	0.0905	562213	keystroke_s	s	n/a
281.287	0.119	562574	keystroke_Key.space	Key.space	n/a
281.676	0.076	563352	keystroke_s	s	n/a
281.767	0.104	563534	keystroke_p	p	n/a
281.901	0.0605	563802	keystroke_e	e	n/a
282.037	0.075	564074	keystroke_e	e	n/a
282.2315	0.076	564463	keystroke_d	d	n/a
282.4265	0.09	564853	keystroke_s	s	n/a
282.592	0.1045	565184	keystroke_Key.enter	Key.enter	n/a
282.703	7.1505	565406	prompt	n/a	shaft worse ratio conceptual\n
283.252	0.105	566504	keystroke_s	s	n/a
283.402	0.09	566804	keystroke_h	h	n/a
283.507	0.135	567014	keystroke_a	a	n/a
283.6725	0.105	567345	keystroke_f	f	n/a
283.897	0.09	567794	keystroke_t	t	n/a
284.031	0.091	568062	keystroke_Key.space	Key.space	n/a
284.182	0.0905	568364	keystroke_w	w	n/a
284.287	0.09	568574	keystroke_o	o	n/a
284.407	0.075	568814	keystroke_r	r	n/a
284.557	0.1345	569114	keystroke_s	s	n/a
284.7375	0.0895	569475	keystroke_e	e	n/a
284.872	0.09	569744	keystroke_Key.space	Key.space	n/a
285.0675	0.074	570135	keystroke_r	r	n/a
285.187	0.18	570374	keystroke_a	a	n/a
285.3815	0.0455	570763	keystroke_i	i	n/a
285.9065	0.1055	571813	keystroke_Key.backspace	Key.backspace	n/a
286.1015	0.075	572203	keystroke_t	t	n/a
286.1775	0.059	572355	keystroke_i	i	n/a
286.4175	0.119	572835	keystroke_o	o	n/a
286.867	0.12	573734	keystroke_Key.space	Key.space	n/a
287.212	0.075	574424	keystroke_c	c	n/a
287.257	0.135	574514	keystroke_o	o	n/a
287.377	0.105	574754	keystroke_n	n	n/a
287.572	0.0455	575144	keystroke_c	c	n/a
287.752	0.09	575504	keystroke_e	e	n/a
288.202	0.119	576404	keystroke_p	p	n/a
288.337	0.074	576674	keystroke_t	t	n/a
288.577	0.074	577154	keystroke_i	i	n/a
288.907	0.1195	577814	keystroke_Key.backspace	Key.backspace	n/a
289.042	0.1195	578084	keystroke_u	u	n/a
289.1465	0.12	578293	keystroke_a	a	n/a
289.3415	0.1205	578683	keystroke_l	l	n/a
289.777	0.075	579554	keystroke_Key.enter	Key.enter	n/a
289.8585	6.685	579717	prompt	n/a	eastern standing institution modes\n
290.4665	0.09	580933	keystroke_e	e	n/a
290.587	0.1645	581174	keystroke_a	a	n/a
290.7065	0.181	581413	keystroke_s	s	n/a
290.872	0.075	581744	keystroke_t	t	n/a
291.0075	0.1345	582015	keystroke_e	e	n/a
291.112	0.105	582224	keystroke_r	r	n/a
291.292	0.0905	582584	keystroke_n	n	n/a
291.412	0.105	582824	keystroke_Key.space	Key.space	n/a
291.592	0.09	583184	keystroke_s	s	n/a
291.697	0.09	583394	keystroke_t	t	n/a
291.832	0.165	583664	keystroke_a	a	n/a
291.982	0.075	583964	keystroke_n	n	n/a
292.1025	0.105	584205	keystroke_d	d	n/a
292.2225	0.104	584445	keystroke_i	i	n/a
292.3125	0.119	584625	keystroke_n	n	n/a
292.4165	0.105	584833	keystroke_g	g	n/a
292.4915	0.135	584983	keystroke_Key.space	Key.space	n/a
292.6715	0.136	585343	keystroke_i	i	n/a
292.7765	0.1055	585553	keystroke_n	n	n/a
292.912	0.105	585824	keystroke_s	s	n/a
293.077	0.105	586154	keystroke_t	t	n/a
293.242	0.09	586484	keystroke_i	i	n/a
293.377	0.09	586754	keystroke_t	t	n/a
293.497	0.075	586994	keystroke_u	u	n/a
293.602	0.104	587204	keystroke_t	t	n/a
293.7675	0.1795	587535	keystroke_i	i	n/a
293.901	0.2555	587802	keystroke_o	o	n/a
294.1875	0.179	588375	keystroke_n	n	n/a
294.7715	0.1055	589543	keystroke_Key.space	Key.space	n/a
295.0415	0.09	590083	keystroke_m	m	n/a
295.2225	0.104	590445	keystroke_o	o	n/a
295.4175	0.045	590835	keystroke_d	d	n/a
295.567	0.1345	591134	keystroke_e	e	n/a
295.657	0.09	591314	keystroke_s	s	n/a
296.437	0.105	592874	keystroke_Key.enter	Key.enter	n/a
296.556	5.7625	593112	prompt	n/a	captain issue entrance tomatoes\n
297.262	0.075	594524	keystroke_c	c	n/a
297.4115	0.15	594823	keystroke_a	a	n/a
297.5015	0.1055	595003	keystroke_p	p	n/a
297.6665	0.0755	595333	keystroke_t	t	n/a
297.7875	0.149	595575	keystroke_a	a	n/a
297.8915	0.121	595783	keystroke_i	i	n/a
297.9965	0.1205	595993	keystroke_n	n	n/a
298.131	0.09	596262	keystroke_Key.space	Key.space	n/a
298.2965	0.09	596593	keystroke_i	i	n/a
298.4315	0.075	596863	keystroke_s	s	n/a
298.5675	0.089	597135	keystroke_s	s	n/a
298.7165	0.075	597433	keystroke_u	u	n/a
298.8365	0.1055	597673	keystroke_e	e	n/a
298.957	0.089	597914	keystroke_Key.space	Key.space	n/a
299.256	0.076	598512	keystroke_e	e	n/a
299.377	0.105	598754	keystroke_n	n	n/a
299.4965	0.0605	598993	keystroke_t	t	n/a
299.6615	0.12	599323	keystroke_r	r	n/a
299.797	0.15	599594	keystroke_a	a	n/a
300.037	0.105	600074	keystroke_n	n	n/a
300.186	0.061	600372	keystroke_c	c	n/a
300.381	0.075	600762	keystroke_e	e	n/a
300.4865	0.1045	600973	keystroke_Key.space	Key.space	n/a
300.697	0.1045	601394	keystroke_t	t	n/a
300.8615	0.1195	601723	keystroke_o	o	n/a
300.997	0.1195	601994	keystroke_m	m	n/a
301.147	0.15	602294	keystroke_a	a	n/a
301.297	0.104	602594	keystroke_t	t	n/a
301.686	0.1055	603372	keystroke_o	o	n/a
301.8215	0.1495	603643	keystroke_e	e	n/a
301.9115	0.1505	603823	keystroke_s	s	n/a
302.227	0.09	604454	keystroke_Key.enter	Key.enter	n/a
302.3225	8.381	604645	prompt	n/a	melbourne payments chris separately\n
303.067	0.105	606134	keystroke_m	m	n/a
303.217	0.075	606434	keystroke_e	e	n/a
303.427	0.135	606854	keystroke_l	l	n/a
303.7415	0.0755	607483	keystroke_b	b	n/a
303.8765	0.12	607753	keystroke_o	o	n/a
304.0115	0.105	608023	keystroke_u	u	n/a
304.132	0.0745	608264	keystroke_r	r	n/a
304.4915	0.105	608983	keystroke_n	n	n/a
304.747	0.1195	609494	keystroke_e	e	n/a
304.9865	0.09	609973	keystroke_Key.space	Key.space	n/a
305.272	0.089	610544	keystroke_p	p	n/a
305.377	0.12	610754	keystroke_a	a	n/a
305.556	0.076	611112	keystroke_y	y	n/a
305.782	0.074	611564	keystroke_m	m	n/a
305.901	0.136	611802	keystroke_e	e	n/a
306.022	0.075	612044	keystroke_n	n	n/a
306.142	0.105	612284	keystroke_t	t	n/a
306.6975	0.104	613395	keystroke_s	s	n/a
306.8465	0.0905	613693	keystroke_Key.space	Key.space	n/a
307.057	0.0745	614114	keystroke_c	c	n/a
307.1765	0.0905	614353	keystroke_h	h	n/a
307.297	0.0895	614594	keystroke_r	r	n/a
307.3715	0.106	614743	keystroke_i	i	n/a
307.5375	0.104	615075	keystroke_s	s	n/a
307.6715	0.105	615343	keystroke_Key.space	Key.space	n/a
308.182	0.06	616364	keystroke_p	p	n/a
308.496	0.091	616992	keystroke_Key.backspace	Key.backspace	n/a
308.6475	0.0895	617295	keystroke_s	s	n/a
308.797	0.0755	617594	keystroke_e	e	n/a
308.947	0.12	617894	keystroke_p	p	n/a
309.082	0.1795	618164	keystroke_a	a	n/a
309.247	0.1195	618494	keystroke_r	r	n/a
309.397	0.1495	618794	keystroke_a	a	n/a
309.5315	0.1495	619063	keystroke_t	t	n/a
309.636	0.121	619272	keystroke_e	e	n/a
309.966	0.121	619932	keystroke_l	l	n/a
310.207	0.09	620414	keystroke_y	y	n/a
310.597	0.105	621194	keystroke_Key.enter	Key.enter	n/a
310.717	8.3415	621434	prompt	n/a	python ambassador wanna mice\n
311.422	0.12	622844	keystroke_p	p	n/a
311.6015	0.06	623203	keystroke_h	h	n/a
312.052	0.09	624104	keystroke_Key.backspace	Key.backspace	n/a
312.2475	0.089	624495	keystroke_y	y	n/a
312.4415	0.09	624883	keystroke_t	t	n/a
312.5465	0.165	625093	keystroke_h	h	n/a
312.7125	0.1195	625425	keystroke_i	i	n/a
313.117	0.09	626234	keystroke_Key.backspace	Key.backspace	n/a
313.2965	0.136	626593	keystroke_o	o	n/a
313.3865	0.12	626773	keystroke_n	n	n/a
313.5215	0.105	627043	keystroke_Key.space	Key.space	n/a
314.0165	0.1355	628033	keystroke_a	a	n/a
314.1365	0.1055	628273	keystroke_m	m	n/a
314.272	0.0895	628544	keystroke_b	b	n/a
314.4065	0.181	628813	keystroke_a	a	n/a
314.5715	0.105	629143	keystroke_s	s	n/a
315.1265	0.09	630253	keystroke_s	s	n/a
315.3365	0.1505	630673	keystroke_a	a	n/a
315.6065	0.0905	631213	keystroke_d	d	n/a
315.787	0.09	631574	keystroke_o	o	n/a
315.922	0.105	631844	keystroke_r	r	n/a
316.0415	0.1055	632083	keystroke_Key.space	Key.space	n/a
316.327	0.0895	632654	keystroke_w	w	n/a
316.4615	0.105	632923	keystroke_a	a	n/a
316.4915	0.075	632983	keystroke_n	n	n/a
316.6865	0.0755	633373	keystroke_n	n	n/a
316.9715	0.15	633943	keystroke_a	a	n/a
317.137	0.105	634274	keystroke_Key.space	Key.space	n/a
317.4815	0.135	634963	keystroke_m	m	n/a
317.6015	0.105	635203	keystroke_i	i	n/a
317.7215	0.045	635443	keystroke_d	d	n/a
318.277	0.1195	636554	keystroke_Key.backspace	Key.backspace	n/a
318.4575	0.0585	636915	keystroke_c	c	n/a
318.652	0.1045	637304	keystroke_e	e	n/a
318.9665	0.09	637933	keystroke_Key.enter	Key.enter	n/a
319.0615	8.772	638123	prompt	n/a	poland returned brave demanding\n
319.672	0.09	639344	keystroke_p	p	n/a
319.837	0.09	639674	keystroke_l	l	n/a
320.3165	0.105	640633	keystroke_Key.backspace	Key.backspace	n/a
320.5265	0.076	641053	keystroke_o	o	n/a
320.722	0.1045	641444	keystroke_l	l	n/a
320.8115	0.1205	641623	keystroke_a	a	n/a
320.977	0.0745	641954	keystroke_n	n	n/a
321.067	0.1045	642134	keystroke_d	d	n/a
321.6065	0.105	643213	keystroke_Key.space	Key.space	n/a
321.8325	0.149	643665	keystroke_r	r	n/a
321.9525	0.1185	643905	keystroke_e	e	n/a
322.102	0.105	644204	keystroke_t	t	n/a
322.267	0.09	644534	keystroke_u	u	n/a
322.372	0.105	644744	keystroke_r	r	n/a
322.492	0.12	644984	keystroke_n	n	n/a
322.567	0.075	645134	keystroke_e	e	n/a
323.0165	0.09	646033	keystroke_d	d	n/a
323.6465	0.09	647293	keystroke_Key.space	Key.space	n/a
324.1265	0.015	648253	keystroke_t	t	n/a
324.637	0.104	649274	keystroke_Key.backspace	Key.backspace	n/a
324.771	0.06	649542	keystroke_b	b	n/a
324.9665	0.09	649933	keystroke_r	r	n/a
325.0715	0.1505	650143	keystroke_a	a	n/a
325.387	0.1045	650774	keystroke_v	v	n/a
325.6415	0.0905	651283	keystroke_e	e	n/a
325.717	0.12	651434	keystroke_Key.space	Key.space	n/a
326.1815	0.075	652363	keystroke_d	d	n/a
326.362	0.075	652724	keystroke_e	e	n/a
326.437	0.1355	652874	keystroke_m	m	n/a
326.5575	0.134	653115	keystroke_a	a	n/a
326.7965	0.1355	653593	keystroke_n	n	n/a
327.111	0.0905	654222	keystroke_d	d	n/a
327.217	0.135	654434	keystroke_i	i	n/a
327.322	0.1195	654644	keystroke_n	n	n/a
327.426	0.106	654852	keystroke_g	g	n/a
327.712	0.119	655424	keystroke_Key.enter	Key.enter	n/a
327.8385	8.5745	655677	prompt	n/a	postage factory venture definition\n
328.477	0.1045	656954	keystroke_p	p	n/a
328.6265	0.12	657253	keystroke_o	o	n/a
328.7615	0.09	657523	keystroke_s	s	n/a
328.8365	0.0905	657673	keystroke_t	t	n/a
328.9565	0.15	657913	keystroke_a	a	n/a
329.1215	0.06	658243	keystroke_g	g	n/a
329.2715	0.0755	658543	keystroke_e	e	n/a
329.3615	0.12	658723	keystroke_Key.space	Key.space	n/a
329.5415	0.09	659083	keystroke_f	f	n/a
329.646	0.136	659292	keystroke_a	a	n/a
329.826	0.09	659652	keystroke_c	c	n/a
330.006	0.0905	660012	keystroke_o	o	n/a
330.111	0.09	660222	keystroke_t	t	n/a
330.307	0.1045	660614	keystroke_r	r	n/a
330.4565	0.1055	660913	keystroke_y	y	n/a
330.6515	0.105	661303	keystroke_Key.space	Key.space	n/a
331.1615	0.075	662323	keystroke_Key.backspace	Key.backspace	n/a
331.3115	0.0905	662623	keystroke_Key.backspace	Key.backspace	n/a
331.491	0.06	662982	keystroke_Key.backspace	Key.backspace	n/a
331.642	0.075	663284	keystroke_Key.backspace	Key.backspace	n/a
331.7625	0.1185	663525	keystroke_t	t	n/a
332.137	0.075	664274	keystroke_Key.backspace	Key.backspace	n/a
332.302	0.059	664604	keystroke_Key.backspace	Key.backspace	n/a
332.392	0.074	664784	keystroke_t	t	n/a
332.617	0.104	665234	keystroke_o	o	n/a
332.782	0.075	665564	keystroke_r	r	n/a
332.9615	0.0755	665923	keystroke_y	y	n/a
333.172	0.09	666344	keystroke_Key.space	Key.space	n/a
333.697	0.0745	667394	keystroke_v	v	n/a
333.8615	0.09	667723	keystroke_e	e	n/a
333.9665	0.1055	667933	keystroke_n	n	n/a
334.087	0.0895	668174	keystroke_t	t	n/a
334.2515	0.09	668503	keystroke_u	u	n/a
334.3265	0.1205	668653	keystroke_r	r	n/a
334.4015	0.12	668803	keystroke_e	e	n/a
334.507	0.1195	669014	keystroke_Key.space	Key.space	n/a
335.0015	0.06	670003	keystroke_d	d	n/a
335.1665	0.09	670333	keystroke_e	e	n/a
335.2415	0.12	670483	keystroke_f	f	n/a
335.3465	0.1205	670693	keystroke_i	i	n/a
335.452	0.1195	670904	keystroke_n	n	n/a
335.5565	0.12	671113	keystroke_i	i	n/a
335.7215	0.105	671443	keystroke_t	t	n/a
335.8115	0.2695	671623	keystroke_i	i	n/a
335.9165	0.1805	671833	keystroke_o	o	n/a
336.022	0.1645	672044	keystroke_n	n	n/a
336.307	0.1045	672614	keystroke_Key.enter	Key.enter	n/a
336.4185	5.995	672837	prompt	n/a	plugin profession cape here\n
337.042	0.1195	674084	keystroke_p	p	n/a
337.4015	0.105	674803	keystroke_o	o	n/a
337.8515	0.09	675703	keystroke_Key.backspace	Key.backspace	n/a
338.1365	0.105	676273	keystroke_l	l	n/a
338.3015	0.075	676603	keystroke_u	u	n/a
338.4215	0.09	676843	keystroke_g	g	n/a
338.557	0.1195	677114	keystroke_i	i	n/a
338.6615	0.1205	677323	keystroke_n	n	n/a
338.887	0.0895	677774	keystroke_Key.space	Key.space	n/a
339.367	0.105	678734	keystroke_p	p	n/a
339.487	0.074	678974	keystroke_r	r	n/a
339.577	0.105	679154	keystroke_o	o	n/a
339.696	0.0905	679392	keystroke_f	f	n/a
339.8165	0.1345	679633	keystroke_e	e	n/a
339.922	0.09	679844	keystroke_s	s	n/a
340.087	0.0895	680174	keystroke_s	s	n/a
340.2065	0.195	680413	keystroke_i	i	n/a
340.296	0.1205	680592	keystroke_o	o	n/a
340.3725	0.1795	680745	keystroke_n	n	n/a
340.537	0.12	681074	keystroke_Key.space	Key.space	n/a
340.942	0.074	681884	keystroke_c	c	n/a
341.077	0.1495	682154	keystroke_a	a	n/a
341.1965	0.12	682393	keystroke_p	p	n/a
341.3465	0.09	682693	keystroke_e	e	n/a
341.4815	0.12	682963	keystroke_Key.space	Key.space	n/a
341.6765	0.105	683353	keystroke_h	h	n/a
341.7515	0.1205	683503	keystroke_e	e	n/a
341.8565	0.12	683713	keystroke_r	r	n/a
341.962	0.09	683924	keystroke_e	e	n/a
342.337	0.0745	684674	keystroke_Key.enter	Key.enter	n/a
342.418	10.0005	684836	prompt	n/a	there'll pursuant vaccine roses\n
343.057	0.0745	686114	keystroke_t	t	n/a
343.177	0.1045	686354	keystroke_h	h	n/a
343.2665	0.09	686533	keystroke_e	e	n/a
343.3575	0.1045	686715	keystroke_r	r	n/a
343.432	0.105	686864	keystroke_e	e	n/a
343.5815	0.12	687163	keystroke_'	'	n/a
344.257	0.255	688514	keystroke_l	l	n/a
344.527	0.015	689054	keystroke_l	l	n/a
344.8115	0.105	689623	keystroke_Key.space	Key.space	n/a
345.5465	0.15	691093	keystroke_p	p	n/a
345.682	0.1045	691364	keystroke_u	u	n/a
346.236	0.091	692472	keystroke_r	r	n/a
346.5215	0.09	693043	keystroke_s	s	n/a
346.8365	0.075	693673	keystroke_u	u	n/a
347.0015	0.1195	694003	keystroke_a	a	n/a
347.197	0.104	694394	keystroke_n	n	n/a
347.5715	0.09	695143	keystroke_t	t	n/a
347.707	0.1045	695414	keystroke_Key.space	Key.space	n/a
347.9765	0.0605	695953	keystroke_v	v	n/a
348.0965	0.12	696193	keystroke_a	a	n/a
348.3215	0.0445	696643	keystroke_c	c	n/a
348.442	0.0745	696884	keystroke_c	c	n/a
348.562	0.1195	697124	keystroke_i	i	n/a
348.666	0.105	697332	keystroke_n	n	n/a
348.801	0.09	697602	keystroke_e	e	n/a
348.8615	0.12	697723	keystroke_Key.space	Key.space	n/a
349.086	0.06	698172	keystroke_r	r	n/a
349.101	0.105	698202	keystroke_Key.space	Key.space	n/a
349.731	0.0905	699462	keystroke_o	o	n/a
349.882	0.134	699764	keystroke_s	s	n/a
350.002	0.134	700004	keystroke_e	e	n/a
350.421	0.0755	700842	keystroke_Key.backspace	Key.backspace	n/a
350.5715	0.0745	701143	keystroke_Key.backspace	Key.backspace	n/a
350.736	0.0755	701472	keystroke_Key.backspace	Key.backspace	n/a
350.871	0.09	701742	keystroke_Key.backspace	Key.backspace	n/a
351.426	0.1055	702852	keystroke_o	o	n/a
351.757	0.0895	703514	keystroke_s	s	n/a
351.9365	0.1355	703873	keystroke_e	e	n/a
352.057	0.09	704114	keystroke_s	s	n/a
352.342	0.075	704684	keystroke_Key.enter	Key.enter	n/a
352.423	6.4155	704846	prompt	n/a	divine scope tones volume\n
353.0915	0.015	706183	keystroke_d	d	n/a
353.1215	0.0605	706243	keystroke_i	i	n/a
353.1965	0.075	706393	keystroke_v	v	n/a
353.3315	0.12	706663	keystroke_i	i	n/a
353.4375	0.119	706875	keystroke_n	n	n/a
353.6015	0.1055	707203	keystroke_e	e	n/a
353.721	0.105	707442	keystroke_Key.space	Key.space	n/a
354.0365	0.0605	708073	keystroke_s	s	n/a
354.382	0.0445	708764	keystroke_c	c	n/a
354.4865	0.06	708973	keystroke_l	l	n/a
354.9215	0.09	709843	keystroke_Key.backspace	Key.backspace	n/a
355.117	0.1645	710234	keystroke_o	o	n/a
355.2665	0.105	710533	keystroke_p	p	n/a
355.4915	0.0905	710983	keystroke_e	e	n/a
355.596	0.135	711192	keystroke_Key.space	Key.space	n/a
355.897	0.075	711794	keystroke_t	t	n/a
355.9865	0.12	711973	keystroke_o	o	n/a
356.0915	0.12	712183	keystroke_n	n	n/a
356.1965	0.1355	712393	keystroke_e	e	n/a
356.2865	0.15	712573	keystroke_s	s	n/a
356.4815	0.105	712963	keystroke_Key.space	Key.space	n/a
357.127	0.0895	714254	keystroke_v	v	n/a
357.2765	0.075	714553	keystroke_o	o	n/a
357.5165	0.0605	715033	keystroke_l	l	n/a
357.9815	0.09	715963	keystroke_u	u	n/a
358.2815	0.0745	716563	keystroke_m	m	n/a
358.4015	0.0755	716803	keystroke_e	e	n/a
358.7465	0.09	717493	keystroke_Key.enter	Key.enter	n/a
358.843	4.465	717686	prompt	n/a	flow relates memo feat\n
359.407	0.074	718814	keystroke_f	f	n/a
359.527	0.029	719054	keystroke_l	l	n/a
359.691	0.0755	719382	keystroke_o	o	n/a
359.7815	0.1045	719563	keystroke_w	w	n/a
359.9165	0.135	719833	keystroke_Key.space	Key.space	n/a
360.1715	0.105	720343	keystroke_r	r	n/a
360.2615	0.09	720523	keystroke_e	e	n/a
360.3965	0.0755	720793	keystroke_l	l	n/a
360.501	0.136	721002	keystroke_a	a	n/a
360.606	0.106	721212	keystroke_t	t	n/a
360.742	0.09	721484	keystroke_e	e	n/a
360.966	0.09	721932	keystroke_s	s	n/a
361.1165	0.12	722233	keystroke_Key.space	Key.space	n/a
361.3715	0.075	722743	keystroke_m	m	n/a
361.4315	0.075	722863	keystroke_e	e	n/a
361.5515	0.105	723103	keystroke_m	m	n/a
361.9725	0.119	723945	keystroke_o	o	n/a
362.2565	0.1055	724513	keystroke_Key.space	Key.space	n/a
362.541	0.0615	725082	keystroke_f	f	n/a
362.662	0.09	725324	keystroke_e	e	n/a
362.796	0.181	725592	keystroke_a	a	n/a
362.9615	0.0755	725923	keystroke_t	t	n/a
363.217	0.089	726434	keystroke_Key.enter	Key.enter	n/a
363.311	7.017	726622	prompt	n/a	claimed conviction theory shelter\n
363.877	0.0895	727754	keystroke_c	c	n/a
364.0415	0.1045	728083	keystroke_l	l	n/a
364.162	0.12	728324	keystroke_a	a	n/a
364.267	0.105	728534	keystroke_i	i	n/a
364.357	0.1195	728714	keystroke_m	m	n/a
365.032	0.09	730064	keystroke_e	e	n/a
365.242	0.1045	730484	keystroke_d	d	n/a
365.3915	0.12	730783	keystroke_Key.space	Key.space	n/a
365.932	0.0745	731864	keystroke_c	c	n/a
366.0365	0.1055	732073	keystroke_o	o	n/a
366.127	0.12	732254	keystroke_n	n	n/a
366.232	0.09	732464	keystroke_v	v	n/a
366.382	0.075	732764	keystroke_i	i	n/a
366.6665	0.06	733333	keystroke_c	c	n/a
366.8615	0.0895	733723	keystroke_t	t	n/a
366.967	0.24	733934	keystroke_i	i	n/a
367.0715	0.1495	734143	keystroke_o	o	n/a
367.162	0.15	734324	keystroke_n	n	n/a
367.3125	0.1035	734625	keystroke_Key.space	Key.space	n/a
367.776	0.076	735552	keystroke_t	t	n/a
367.852	0.0895	735704	keystroke_h	h	n/a
367.9565	0.135	735913	keystroke_e	e	n/a
368.2265	0.105	736453	keystroke_o	o	n/a
368.3915	0.1055	736783	keystroke_r	r	n/a
368.572	0.0745	737144	keystroke_y	y	n/a
368.826	0.1055	737652	keystroke_Key.space	Key.space	n/a
369.3065	0.09	738613	keystroke_s	s	n/a
369.4115	0.0905	738823	keystroke_h	h	n/a
369.5165	0.06	739033	keystroke_e	e	n/a
369.6665	0.09	739333	keystroke_l	l	n/a
369.7715	0.075	739543	keystroke_t	t	n/a
369.8915	0.135	739783	keystroke_e	e	n/a
369.9965	0.09	739993	keystroke_r	r	n/a
370.252	0.074	740504	keystroke_Key.enter	Key.enter	n/a
370.3325	9.2215	740665	prompt	n/a	obituaries jefferson starting supply\n
370.9865	0.105	741973	keystroke_o	o	n/a
371.2115	0.075	742423	keystroke_b	b	n/a
371.3465	0.075	742693	keystroke_i	i	n/a
371.5265	0.09	743053	keystroke_t	t	n/a
371.8565	0.075	743713	keystroke_u	u	n/a
371.9915	0.15	743983	keystroke_a	a	n/a
372.3065	0.1195	744613	keystroke_r	r	n/a
372.471	0.09	744942	keystroke_i	i	n/a
372.562	0.149	745124	keystroke_e	e	n/a
372.6815	0.135	745363	keystroke_s	s	n/a
372.891	0.12	745782	keystroke_Key.space	Key.space	n/a
373.386	0.076	746772	keystroke_f	f	n/a
373.776	0.1055	747552	keystroke_Key.backspace	Key.backspace	n/a
373.942	0.09	747884	keystroke_j	j	n/a
374.0915	0.105	748183	keystroke_e	e	n/a
374.2115	0.075	748423	keystroke_f	f	n/a
374.3465	0.09	748693	keystroke_f	f	n/a
374.571	0.2405	749142	keystroke_e	e	n/a
374.677	0.12	749354	keystroke_r	r	n/a
374.7815	0.09	749563	keystroke_s	s	n/a
374.9015	0.1205	749803	keystroke_o	o	n/a
375.0365	0.12	750073	keystroke_n	n	n/a
375.3515	0.105	750703	keystroke_Key.space	Key.space	n/a
375.6065	0.165	751213	keystroke_a	a	n/a
376.056	0.09	752112	keystroke_Key.backspace	Key.backspace	n/a
376.161	0.105	752322	keystroke_s	s	n/a
376.267	0.089	752534	keystroke_t	t	n/a
376.401	0.151	752802	keystroke_a	a	n/a
376.506	0.075	753012	keystroke_r	r	n/a
376.6865	0.0905	753373	keystroke_t	t	n/a
376.761	0.12	753522	keystroke_i	i	n/a
376.851	0.12	753702	keystroke_n	n	n/a
376.941	0.1055	753882	keystroke_g	g	n/a
377.0165	0.1645	754033	keystroke_Key.space	Key.space	n/a
377.1665	0.105	754333	keystroke_s	s	n/a
377.2865	0.1345	754573	keystroke_u	u	n/a
377.391	0.0905	754782	keystroke_p	p	n/a
377.5415	0.1045	755083	keystroke_p	p	n/a
377.7515	0.1655	755503	keystroke_l	l	n/a
378.0365	0.105	756073	keystroke_y	y	n/a
379.461	0.091	758922	keystroke_Key.enter	Key.enter	n/a
379.5725	4.7805	759145	prompt	n/a	menu flush ricky gary\n
380.2265	0.105	760453	keystroke_m	m	n/a
380.3465	0.09	760693	keystroke_e	e	n/a
380.4515	0.09	760903	keystroke_n	n	n/a
380.6915	0.075	761383	keystroke_u	u	n/a
380.8865	0.105	761773	keystroke_Key.space	Key.space	n/a
381.0365	0.105	762073	keystroke_f	f	n/a
381.666	0.091	763332	keystroke_l	l	n/a
381.8765	0.075	763753	keystroke_u	u	n/a
381.996	0.1055	763992	keystroke_s	s	n/a
382.1165	0.0895	764233	keystroke_h	h	n/a
382.251	0.105	764502	keystroke_Key.space	Key.space	n/a
382.716	0.076	765432	keystroke_r	r	n/a
382.8215	0.0745	765643	keystroke_i	i	n/a
382.956	0.0905	765912	keystroke_c	c	n/a
383.077	0.1195	766154	keystroke_k	k	n/a
383.1815	0.105	766363	keystroke_Key.space	Key.space	n/a
383.481	0.076	766962	keystroke_g	g	n/a
383.6465	0.165	767293	keystroke_a	a	n/a
383.766	0.12	767532	keystroke_r	r	n/a
383.916	0.075	767832	keystroke_y	y	n/a
384.2615	0.09	768523	keystroke_Key.enter	Key.enter	n/a
384.3585	5.199	768717	prompt	n/a	wanting tongue nasty voice\n
385.041	0.106	770082	keystroke_w	w	n/a
385.176	0.1505	770352	keystroke_a	a	n/a
385.3115	0.0905	770623	keystroke_n	n	n/a
385.4165	0.089	770833	keystroke_t	t	n/a
385.5965	0.12	771193	keystroke_i	i	n/a
385.686	0.135	771372	keystroke_n	n	n/a
385.8365	0.0895	771673	keystroke_g	g	n/a
385.881	0.1955	771762	keystroke_Key.space	Key.space	n/a
386.0465	0.1205	772093	keystroke_t	t	n/a
386.1965	0.18	772393	keystroke_o	o	n/a
386.3615	0.105	772723	keystroke_n	n	n/a
386.6315	0.075	773263	keystroke_g	g	n/a
386.856	0.0755	773712	keystroke_u	u	n/a
387.0665	0.105	774133	keystroke_e	e	n/a
387.216	0.12	774432	keystroke_Key.space	Key.space	n/a
387.6665	0.1045	775333	keystroke_n	n	n/a
387.772	0.149	775544	keystroke_a	a	n/a
387.862	0.2245	775724	keystroke_s	s	n/a
388.0415	0.105	776083	keystroke_t	t	n/a
388.2665	0.075	776533	keystroke_y	y	n/a
388.3865	0.105	776773	keystroke_Key.space	Key.space	n/a
388.5965	0.0895	777193	keystroke_v	v	n/a
388.731	0.121	777462	keystroke_o	o	n/a
388.881	0.091	777762	keystroke_i	i	n/a
389.0615	0.0445	778123	keystroke_c	c	n/a
389.2115	0.105	778423	keystroke_e	e	n/a
389.436	0.1205	778872	keystroke_Key.enter	Key.enter	n/a
389.5615	6.4915	779123	prompt	n/a	coordinate instruction edward lynn\n
390.1265	0.09	780253	keystroke_c	c	n/a
390.2615	0.105	780523	keystroke_o	o	n/a
390.4715	0.105	780943	keystroke_o	o	n/a
390.6065	0.075	781213	keystroke_r	r	n/a
390.7715	0.09	781543	keystroke_d	d	n/a
390.8915	0.12	781783	keystroke_i	i	n/a
390.9815	0.12	781963	keystroke_n	n	n/a
391.0715	0.15	782143	keystroke_a	a	n/a
391.2065	0.1055	782413	keystroke_t	t	n/a
391.2815	0.12	782563	keystroke_e	e	n/a
391.7165	0.0895	783433	keystroke_Key.space	Key.space	n/a
391.956	0.1055	783912	keystroke_i	i	n/a
392.0465	0.12	784093	keystroke_n	n	n/a
392.152	0.119	784304	keystroke_s	s	n/a
392.256	0.0755	784512	keystroke_t	t	n/a
392.436	0.0755	784872	keystroke_r	r	n/a
392.541	0.0755	785082	keystroke_u	u	n/a
392.661	0.09	785322	keystroke_c	c	n/a
392.856	0.1055	785712	keystroke_t	t	n/a
392.9165	0.2245	785833	keystroke_i	i	n/a
393.036	0.12	786072	keystroke_o	o	n/a
393.0965	0.15	786193	keystroke_n	n	n/a
393.2015	0.1345	786403	keystroke_Key.space	Key.space	n/a
393.276	0.1055	786552	keystroke_e	e	n/a
393.501	0.075	787002	keystroke_d	d	n/a
393.711	0.0905	787422	keystroke_w	w	n/a
393.861	0.165	787722	keystroke_a	a	n/a
393.981	0.105	787962	keystroke_r	r	n/a
394.146	0.1505	788292	keystroke_d	d	n/a
394.2815	0.1495	788563	keystroke_Key.space	Key.space	n/a
394.446	0.1355	788892	keystroke_l	l	n/a
394.686	0.091	789372	keystroke_y	y	n/a
394.9865	0.0895	789973	keystroke_n	n	n/a
395.1965	0.075	790393	keystroke_n	n	n/a
395.9465	0.104	791893	keystroke_Key.enter	Key.enter	n/a
396.0565	7.9615	792113	prompt	n/a	grades advisors xanax given\n
396.591	0.075	793182	keystroke_g	g	n/a
396.771	0.105	793542	keystroke_r	r	n/a
396.861	0.24	793722	keystroke_a	a	n/a
397.0715	0.09	794143	keystroke_d	d	n/a
397.282	0.134	794564	keystroke_e	e	n/a
397.356	0.1355	794712	keystroke_s	s	n/a
397.9415	0.105	795883	keystroke_Key.space	Key.space	n/a
398.106	0.1645	796212	keystroke_a	a	n/a
398.2415	0.09	796483	keystroke_d	d	n/a
398.436	0.09	796872	keystroke_v	v	n/a
398.6005	0.076	797201	keystroke_i	i	n/a
398.7805	0.0755	797561	keystroke_s	s	n/a
398.9005	0.105	797801	keystroke_o	o	n/a
399.0215	0.1045	798043	keystroke_r	r	n/a
399.8315	0.105	799663	keystroke_s	s	n/a
399.9965	0.0895	799993	keystroke_Key.space	Key.space	n/a
400.506	0.1055	801012	keystroke_x	x	n/a
400.7015	0.105	801403	keystroke_a	a	n/a
400.836	0.09	801672	keystroke_n	n	n/a
400.9565	0.105	801913	keystroke_a	a	n/a
401.2265	0.105	802453	keystroke_z	z	n/a
401.8405	0.0905	803681	keystroke_Key.backspace	Key.backspace	n/a
401.961	0.1205	803922	keystroke_x	x	n/a
402.2155	0.1055	804431	keystroke_Key.space	Key.space	n/a
402.696	0.075	805392	keystroke_g	g	n/a
402.831	0.09	805662	keystroke_i	i	n/a
402.951	0.0755	805902	keystroke_v	v	n/a
403.0715	0.09	806143	keystroke_e	e	n/a
403.1765	0.1195	806353	keystroke_n	n	n/a
403.9115	0.1045	807823	keystroke_Key.enter	Key.enter	n/a
404.0225	9.1005	808045	prompt	n/a	hands purposes services knows\n
404.616	0.09	809232	keystroke_h	h	n/a
404.706	0.1505	809412	keystroke_a	a	n/a
404.8715	0.0895	809743	keystroke_n	n	n/a
404.976	0.076	809952	keystroke_d	d	n/a
405.1565	0.12	810313	keystroke_s	s	n/a
405.2465	0.135	810493	keystroke_Key.space	Key.space	n/a
405.4865	0.1345	810973	keystroke_p	p	n/a
405.651	0.105	811302	keystroke_u	u	n/a
405.771	0.075	811542	keystroke_r	r	n/a
406.0415	0.15	812083	keystroke_p	p	n/a
406.2215	0.12	812443	keystroke_o	o	n/a
406.401	0.1795	812802	keystroke_s	s	n/a
406.5505	0.106	813101	keystroke_e	e	n/a
407.0005	0.121	814001	keystroke_s	s	n/a
407.5715	0.105	815143	keystroke_Key.space	Key.space	n/a
407.9465	0.09	815893	keystroke_s	s	n/a
408.1115	0.12	816223	keystroke_e	e	n/a
408.1865	0.09	816373	keystroke_r	r	n/a
408.4715	0.075	816943	keystroke_v	v	n/a
408.6065	0.09	817213	keystroke_i	i	n/a
408.726	0.135	817452	keystroke_e	e	n/a
408.801	0.165	817602	keystroke_s	s	n/a
408.936	0.12	817872	keystroke_Key.space	Key.space	n/a
409.177	0.149	818354	keystroke_k	k	n/a
409.296	0.135	818592	keystroke_n	n	n/a
409.7915	0.0745	819583	keystroke_Key.backspace	Key.backspace	n/a
409.956	0.0755	819912	keystroke_Key.backspace	Key.backspace	n/a
410.1065	0.075	820213	keystroke_Key.backspace	Key.backspace	n/a
410.2565	0.075	820513	keystroke_Key.backspace	Key.backspace	n/a
410.3915	0.105	820783	keystroke_Key.backspace	Key.backspace	n/a
410.6315	0.06	821263	keystroke_c	c	n/a
410.9315	0.135	821863	keystroke_e	e	n/a
411.0065	0.15	822013	keystroke_s	s	n/a
411.1865	0.105	822373	keystroke_Key.space	Key.space	n/a
411.4865	0.165	822973	keystroke_k	k	n/a
411.621	0.1205	823242	keystroke_n	n	n/a
412.1015	0.135	824203	keystroke_o	o	n/a
412.2815	0.105	824563	keystroke_w	w	n/a
412.5215	0.12	825043	keystroke_s	s	n/a
413.0165	0.1045	826033	keystroke_Key.enter	Key.enter	n/a
413.1275	7.975	826255	prompt	n/a	hilton resume advisory swim\n
413.7215	0.12	827443	keystroke_h	h	n/a
413.901	0.09	827802	keystroke_i	i	n/a
414.0815	0.12	828163	keystroke_l	l	n/a
414.2465	0.0895	828493	keystroke_t	t	n/a
414.396	0.1205	828792	keystroke_o	o	n/a
414.486	0.1505	828972	keystroke_n	n	n/a
414.591	0.09	829182	keystroke_Key.space	Key.space	n/a
414.786	0.075	829572	keystroke_r	r	n/a
414.8315	0.1495	829663	keystroke_e	e	n/a
414.9515	0.134	829903	keystroke_s	s	n/a
415.3565	0.0745	830713	keystroke_u	u	n/a
415.5815	0.0895	831163	keystroke_m	m	n/a
415.7605	0.151	831521	keystroke_e	e	n/a
415.8955	0.091	831791	keystroke_Key.space	Key.space	n/a
416.3765	0.135	832753	keystroke_a	a	n/a
416.5415	0.075	833083	keystroke_d	d	n/a
416.7365	0.075	833473	keystroke_v	v	n/a
416.8565	0.045	833713	keystroke_i	i	n/a
417.021	0.06	834042	keystroke_s	s	n/a
417.156	0.09	834312	keystroke_o	o	n/a
417.2765	0.105	834553	keystroke_r	r	n/a
417.441	0.0905	834882	keystroke_y	y	n/a
417.9515	0.104	835903	keystroke_Key.space	Key.space	n/a
418.191	0.1045	836382	keystroke_s	s	n/a
418.3265	0.105	836653	keystroke_i	i	n/a
418.7015	0.1045	837403	keystroke_Key.backspace	Key.backspace	n/a
418.821	0.09	837642	keystroke_w	w	n/a
418.971	0.15	837942	keystroke_i	i	n/a
419.076	0.1505	838152	keystroke_m	m	n/a
420.9955	0.1055	841991	keystroke_Key.enter	Key.enter	n/a
421.111	6.892	842222	prompt	n/a	marcus contract sporting enterprises\n
421.7015	0.105	843403	keystroke_m	m	n/a
421.776	0.15	843552	keystroke_a	a	n/a
421.8805	0.0755	843761	keystroke_r	r	n/a
422.091	0.075	844182	keystroke_c	c	n/a
422.2265	0.074	844453	keystroke_u	u	n/a
422.3765	0.0895	844753	keystroke_s	s	n/a
422.481	0.105	844962	keystroke_Key.space	Key.space	n/a
422.721	0.12	845442	keystroke_c	c	n/a
422.871	0.105	845742	keystroke_o	o	n/a
422.946	0.1355	845892	keystroke_n	n	n/a
423.651	0.0905	847302	keystroke_t	t	n/a
423.8465	0.09	847693	keystroke_r	r	n/a
424.011	0.12	848022	keystroke_a	a	n/a
424.251	0.06	848502	keystroke_c	c	n/a
424.461	0.105	848922	keystroke_t	t	n/a
424.581	0.0905	849162	keystroke_Key.space	Key.space	n/a
424.791	0.12	849582	keystroke_s	s	n/a
425.016	0.1505	850032	keystroke_p	p	n/a
425.181	0.135	850362	keystroke_o	o	n/a
425.301	0.0745	850602	keystroke_r	r	n/a
425.481	0.075	850962	keystroke_t	t	n/a
425.6165	0.135	851233	keystroke_i	i	n/a
425.7065	0.15	851413	keystroke_n	n	n/a
425.8415	0.089	851683	keystroke_g	g	n/a
425.8865	0.1645	851773	keystroke_Key.space	Key.space	n/a
426.036	0.105	852072	keystroke_e	e	n/a
426.186	0.12	852372	keystroke_n	n	n/a
426.2915	0.1045	852583	keystroke_t	t	n/a
426.3815	0.1645	852763	keystroke_e	e	n/a
426.5165	0.0895	853033	keystroke_r	r	n/a
426.786	0.105	853572	keystroke_p	p	n/a
426.9065	0.0895	853813	keystroke_r	r	n/a
427.041	0.09	854082	keystroke_i	i	n/a
427.116	0.135	854232	keystroke_s	s	n/a
427.266	0.165	854532	keystroke_e	e	n/a
427.401	0.135	854802	keystroke_s	s	n/a
427.911	0.09	855822	keystroke_Key.enter	Key.enter	n/a
428.008	7.755	856016	prompt	n/a	remainder error generators para\n
428.556	0.105	857112	keystroke_r	r	n/a
428.6165	0.1195	857233	keystroke_e	e	n/a
428.781	0.135	857562	keystroke_m	m	n/a
428.9015	0.1345	857803	keystroke_a	a	n/a
429.051	0.12	858102	keystroke_i	i	n/a
429.141	0.1205	858282	keystroke_n	n	n/a
429.306	0.135	858612	keystroke_e	e	n/a
429.7705	0.105	859541	keystroke_Key.backspace	Key.backspace	n/a
429.9365	0.0745	859873	keystroke_d	d	n/a
430.131	0.12	860262	keystroke_e	e	n/a
430.2065	0.15	860413	keystroke_r	r	n/a
430.3115	0.12	860623	keystroke_Key.space	Key.space	n/a
430.4615	0.119	860923	keystroke_e	e	n/a
430.6565	0.089	861313	keystroke_r	r	n/a
430.8365	0.1045	861673	keystroke_r	r	n/a
430.9565	0.089	861913	keystroke_o	o	n/a
431.0755	0.121	862151	keystroke_r	r	n/a
431.5115	0.134	863023	keystroke_Key.space	Key.space	n/a
431.8865	0.06	863773	keystroke_g	g	n/a
432.006	0.09	864012	keystroke_e	e	n/a
432.111	0.09	864222	keystroke_n	n	n/a
432.171	0.195	864342	keystroke_e	e	n/a
432.276	0.105	864552	keystroke_r	r	n/a
432.3515	0.2245	864703	keystroke_a	a	n/a
432.531	0.1205	865062	keystroke_t	t	n/a
432.816	0.12	865632	keystroke_o	o	n/a
432.937	0.089	865874	keystroke_r	r	n/a
433.0715	0.1195	866143	keystroke_s	s	n/a
433.176	0.135	866352	keystroke_Key.space	Key.space	n/a
433.6415	0.089	867283	keystroke_p	p	n/a
433.7315	0.12	867463	keystroke_a	a	n/a
433.8665	0.075	867733	keystroke_p	p	n/a
434.7665	0.0895	869533	keystroke_Key.backspace	Key.backspace	n/a
434.871	0.135	869742	keystroke_r	r	n/a
434.976	0.135	869952	keystroke_a	a	n/a
435.6505	0.105	871301	keystroke_Key.enter	Key.enter	n/a
435.7685	9.2895	871537	prompt	n/a	carrying wanted castle read\n
436.3265	0.0445	872653	keystroke_r	r	n/a
436.7155	0.06	873431	keystroke_Key.backspace	Key.backspace	n/a
436.806	0.0905	873612	keystroke_c	c	n/a
436.911	0.1345	873822	keystroke_a	a	n/a
437.0165	0.0745	874033	keystroke_r	r	n/a
437.166	0.1055	874332	keystroke_r	r	n/a
437.406	0.09	874812	keystroke_y	y	n/a
437.6015	0.1345	875203	keystroke_i	i	n/a
437.706	0.1205	875412	keystroke_n	n	n/a
437.781	0.105	875562	keystroke_g	g	n/a
437.856	0.1205	875712	keystroke_Key.space	Key.space	n/a
438.2165	0.075	876433	keystroke_w	w	n/a
438.336	0.1655	876672	keystroke_a	a	n/a
438.366	0.105	876732	keystroke_n	n	n/a
438.5165	0.09	877033	keystroke_t	t	n/a
438.591	0.0895	877182	keystroke_e	e	n/a
439.0415	0.09	878083	keystroke_d	d	n/a
439.2665	0.105	878533	keystroke_Key.space	Key.space	n/a
439.5055	0.061	879011	keystroke_c	c	n/a
439.6115	0.179	879223	keystroke_a	a	n/a
439.7615	0.18	879523	keystroke_s	s	n/a
439.9265	0.0745	879853	keystroke_t	t	n/a
440.1065	0.119	880213	keystroke_l	l	n/a
440.2705	0.091	880541	keystroke_y	y	n/a
440.3615	0.119	880723	keystroke_Key.space	Key.space	n/a
440.5415	0.1195	881083	keystroke_r	r	n/a
440.601	0.135	881202	keystroke_e	e	n/a
440.6915	0.135	881383	keystroke_a	a	n/a
441.021	0.075	882042	keystroke_Key.backspace	Key.backspace	n/a
441.1705	0.075	882341	keystroke_Key.backspace	Key.backspace	n/a
441.3215	0.074	882643	keystroke_Key.backspace	Key.backspace	n/a
441.4705	0.09	882941	keystroke_Key.backspace	Key.backspace	n/a
441.8905	0.0905	883781	keystroke_Key.backspace	Key.backspace	n/a
442.131	0.195	884262	keystroke_Key.space	Key.space	n/a
442.4315	0.1345	884863	keystroke_r	r	n/a
442.491	0.135	884982	keystroke_e	e	n/a
442.5965	0.165	885193	keystroke_a	a	n/a
443.076	0.105	886152	keystroke_Key.backspace	Key.backspace	n/a
443.2705	0.0605	886541	keystroke_Key.backspace	Key.backspace	n/a
443.4205	0.09	886841	keystroke_Key.backspace	Key.backspace	n/a
443.5855	0.09	887171	keystroke_Key.backspace	Key.backspace	n/a
443.8105	0.106	887621	keystroke_e	e	n/a
443.99	0.151	887980	keystroke_Key.space	Key.space	n/a
444.186	0.1055	888372	keystroke_r	r	n/a
444.246	0.1195	888492	keystroke_e	e	n/a
444.3505	0.195	888701	keystroke_a	a	n/a
444.5005	0.1055	889001	keystroke_d	d	n/a
444.966	0.09	889932	keystroke_Key.enter	Key.enter	n/a
445.063	9.31	890126	prompt	n/a	halloween accessed keno increasing\n
445.7165	0.09	891433	keystroke_h	h	n/a
445.7915	0.149	891583	keystroke_a	a	n/a
445.9565	0.0745	891913	keystroke_l	l	n/a
446.106	0.1055	892212	keystroke_l	l	n/a
446.316	0.075	892632	keystroke_o	o	n/a
446.406	0.105	892812	keystroke_w	w	n/a
446.721	0.075	893442	keystroke_e	e	n/a
446.871	0.12	893742	keystroke_e	e	n/a
447.0815	0.104	894163	keystroke_n	n	n/a
447.336	0.09	894672	keystroke_Key.space	Key.space	n/a
447.6065	0.135	895213	keystroke_a	a	n/a
447.8315	0.06	895663	keystroke_c	c	n/a
447.9815	0.09	895963	keystroke_c	c	n/a
448.8515	0.09	897703	keystroke_e	e	n/a
449.181	0.0605	898362	keystroke_s	s	n/a
449.3315	0.075	898663	keystroke_s	s	n/a
449.5115	0.0595	899023	keystroke_e	e	n/a
449.706	0.075	899412	keystroke_d	d	n/a
449.7965	0.1195	899593	keystroke_Key.space	Key.space	n/a
450.0505	0.121	900101	keystroke_k	k	n/a
450.2165	0.0445	900433	keystroke_e	e	n/a
450.2755	0.121	900551	keystroke_n	n	n/a
450.5765	0.045	901153	keystroke_y	y	n/a
450.9655	0.1055	901931	keystroke_Key.backspace	Key.backspace	n/a
451.1465	0.1045	902293	keystroke_o	o	n/a
451.491	0.105	902982	keystroke_Key.space	Key.space	n/a
451.836	0.1055	903672	keystroke_i	i	n/a
451.926	0.1205	903852	keystroke_n	n	n/a
452.0465	0.075	904093	keystroke_c	c	n/a
452.2415	0.1045	904483	keystroke_r	r	n/a
452.466	0.165	904932	keystroke_a	a	n/a
452.676	0.105	905352	keystroke_s	s	n/a
453.1405	0.0755	906281	keystroke_Key.backspace	Key.backspace	n/a
453.291	0.1045	906582	keystroke_Key.backspace	Key.backspace	n/a
453.366	0.0895	906732	keystroke_e	e	n/a
453.4405	0.1505	906881	keystroke_a	a	n/a
453.576	0.105	907152	keystroke_s	s	n/a
453.696	0.1355	907392	keystroke_i	i	n/a
453.816	0.105	907632	keystroke_n	n	n/a
453.936	0.0895	907872	keystroke_g	g	n/a
454.266	0.105	908532	keystroke_Key.enter	Key.enter	n/a
454.3785	13.4345	908757	prompt	n/a	dealer victorian reproduce belong\n
454.926	0.0905	909852	keystroke_h	h	n/a
455.0165	0.104	910033	keystroke_e	e	n/a
455.1215	0.1195	910243	keystroke_a	a	n/a
455.181	0.105	910362	keystroke_l	l	n/a
455.841	0.09	911682	keystroke_Key.backspace	Key.backspace	n/a
456.021	0.0745	912042	keystroke_Key.backspace	Key.backspace	n/a
456.1555	0.09	912311	keystroke_Key.backspace	Key.backspace	n/a
456.3205	0.0905	912641	keystroke_Key.backspace	Key.backspace	n/a
456.4715	0.09	912943	keystroke_d	d	n/a
456.6665	0.1345	913333	keystroke_e	e	n/a
456.7565	0.165	913513	keystroke_a	a	n/a
456.9055	0.1205	913811	keystroke_l	l	n/a
457.2055	0.12	914411	keystroke_t	t	n/a
457.866	0.0895	915732	keystroke_Key.backspace	Key.backspace	n/a
458.1655	0.166	916331	keystroke_e	e	n/a
458.2855	0.12	916571	keystroke_r	r	n/a
458.3905	0.105	916781	keystroke_Key.space	Key.space	n/a
459.321	0.09	918642	keystroke_v	v	n/a
459.396	0.075	918792	keystroke_i	i	n/a
459.5605	0.091	919121	keystroke_c	c	n/a
459.7265	0.0895	919453	keystroke_o	o	n/a
459.831	0.075	919662	keystroke_t	t	n/a
460.5055	0.075	921011	keystroke_Key.backspace	Key.backspace	n/a
460.671	0.075	921342	keystroke_Key.backspace	Key.backspace	n/a
460.791	0.0745	921582	keystroke_t	t	n/a
460.9855	0.09	921971	keystroke_o	o	n/a
461.1355	0.09	922271	keystroke_r	r	n/a
461.256	0.1045	922512	keystroke_i	i	n/a
461.4505	0.135	922901	keystroke_a	a	n/a
461.6915	0.0895	923383	keystroke_n	n	n/a
462.246	0.1045	924492	keystroke_Key.space	Key.space	n/a
462.621	0.135	925242	keystroke_r	r	n/a
462.771	0.0895	925542	keystroke_e	e	n/a
462.9665	0.089	925933	keystroke_p	p	n/a
463.1005	0.1205	926201	keystroke_o	o	n/a
463.222	0.134	926444	keystroke_r	r	n/a
464.6755	0.06	929351	keystroke_Key.backspace	Key.backspace	n/a
464.8105	0.0905	929621	keystroke_Key.backspace	Key.backspace	n/a
464.9305	0.0605	929861	keystroke_r	r	n/a
465.0815	0.1045	930163	keystroke_o	o	n/a
465.4715	0.059	930943	keystroke_d	d	n/a
465.6365	0.0745	931273	keystroke_u	u	n/a
465.7555	0.076	931511	keystroke_c	c	n/a
465.981	0.105	931962	keystroke_e	e	n/a
466.1155	0.105	932231	keystroke_Key.space	Key.space	n/a
466.386	0.075	932772	keystroke_h	h	n/a
466.7455	0.091	933491	keystroke_Key.backspace	Key.backspace	n/a
466.8515	0.09	933703	keystroke_b	b	n/a
467.0015	0.075	934003	keystroke_e	e	n/a
467.091	0.1055	934182	keystroke_l	l	n/a
467.4065	0.0145	934813	keystroke_o	o	n/a
467.436	0.075	934872	keystroke_n	n	n/a
467.526	0.075	935052	keystroke_g	g	n/a
467.721	0.089	935442	keystroke_Key.enter	Key.enter	n/a
467.8175	9.835	935635	prompt	n/a	judge innovation weapon techrepublic\n
468.516	0.0905	937032	keystroke_j	j	n/a
468.7415	0.09	937483	keystroke_u	u	n/a
468.8465	0.15	937693	keystroke_d	d	n/a
468.9815	0.09	937963	keystroke_g	g	n/a
469.1315	0.149	938263	keystroke_e	e	n/a
469.2955	0.1055	938591	keystroke_Key.space	Key.space	n/a
469.7005	0.09	939401	keystroke_i	i	n/a
469.8365	0.1195	939673	keystroke_n	n	n/a
470.0615	0.12	940123	keystroke_n	n	n/a
470.271	0.105	940542	keystroke_o	o	n/a
470.406	0.0905	940812	keystroke_v	v	n/a
470.571	0.18	941142	keystroke_a	a	n/a
470.721	0.1055	941442	keystroke_t	t	n/a
470.841	0.24	941682	keystroke_i	i	n/a
470.9465	0.1195	941893	keystroke_o	o	n/a
471.0515	0.1495	942103	keystroke_n	n	n/a
471.426	0.105	942852	keystroke_Key.space	Key.space	n/a
471.726	0.105	943452	keystroke_w	w	n/a
471.906	0.1045	943812	keystroke_e	e	n/a
472.446	0.1205	944892	keystroke_a	a	n/a
472.9265	0.029	945853	keystroke_p	p	n/a
472.9415	0.1945	945883	keystroke_o	o	n/a
473.1365	0.1345	946273	keystroke_n	n	n/a
473.5405	0.105	947081	keystroke_Key.space	Key.space	n/a
474.306	0.0905	948612	keystroke_t	t	n/a
474.4555	0.075	948911	keystroke_e	e	n/a
474.666	0.0745	949332	keystroke_c	c	n/a
474.816	0.0905	949632	keystroke_h	h	n/a
475.3565	0.119	950713	keystroke_r	r	n/a
475.4305	0.121	950861	keystroke_e	e	n/a
475.7755	0.15	951551	keystroke_p	p	n/a
475.9555	0.1205	951911	keystroke_u	u	n/a
476.2855	0.075	952571	keystroke_b	b	n/a
476.481	0.1645	952962	keystroke_l	l	n/a
476.6005	0.1205	953201	keystroke_i	i	n/a
476.7655	0.09	953531	keystroke_c	c	n/a
477.576	0.075	955152	keystroke_Key.enter	Key.enter	n/a
477.657	7.7215	955314	prompt	n/a	powerpoint lands geography definitely\n
478.371	0.1195	956742	keystroke_p	p	n/a
478.5365	0.1195	957073	keystroke_o	o	n/a
478.6405	0.12	957281	keystroke_w	w	n/a
478.7155	0.15	957431	keystroke_e	e	n/a
478.836	0.1045	957672	keystroke_r	r	n/a
479.1065	0.1045	958213	keystroke_p	p	n/a
479.166	0.2395	958332	keystroke_o	o	n/a
479.3755	0.1505	958751	keystroke_i	i	n/a
479.481	0.1655	958962	keystroke_n	n	n/a
479.616	0.12	959232	keystroke_t	t	n/a
479.7055	0.12	959411	keystroke_Key.space	Key.space	n/a
479.961	0.1205	959922	keystroke_l	l	n/a
480.051	0.1355	960102	keystroke_a	a	n/a
480.2155	0.135	960431	keystroke_n	n	n/a
480.3355	0.12	960671	keystroke_d	d	n/a
480.4855	0.15	960971	keystroke_s	s	n/a
481.1005	0.1055	962201	keystroke_Key.space	Key.space	n/a
481.5805	0.075	963161	keystroke_g	g	n/a
481.746	0.075	963492	keystroke_e	e	n/a
481.9715	0.104	963943	keystroke_o	o	n/a
482.2265	0.06	964453	keystroke_g	g	n/a
482.4055	0.1055	964811	keystroke_r	r	n/a
482.495	0.1365	964990	keystroke_a	a	n/a
482.6465	0.1195	965293	keystroke_p	p	n/a
482.781	0.105	965562	keystroke_h	h	n/a
483.066	0.09	966132	keystroke_y	y	n/a
483.4105	0.0895	966821	keystroke_Key.space	Key.space	n/a
483.651	0.0595	967302	keystroke_d	d	n/a
483.816	0.09	967632	keystroke_e	e	n/a
483.921	0.1205	967842	keystroke_f	f	n/a
484.0705	0.09	968141	keystroke_i	i	n/a
484.1455	0.135	968291	keystroke_n	n	n/a
484.2515	0.1345	968503	keystroke_i	i	n/a
484.3705	0.105	968741	keystroke_t	t	n/a
484.446	0.1205	968892	keystroke_e	e	n/a
484.5365	0.165	969073	keystroke_l	l	n/a
484.7605	0.1055	969521	keystroke_y	y	n/a
485.2705	0.105	970541	keystroke_Key.enter	Key.enter	n/a
485.383	6.8345	970766	prompt	n/a	pike ireland able posted\n
486.126	0.1045	972252	keystroke_p	p	n/a
486.291	0.1505	972582	keystroke_p	p	n/a
486.8465	0.104	973693	keystroke_Key.backspace	Key.backspace	n/a
487.0565	0.0895	974113	keystroke_i	i	n/a
487.2655	0.09	974531	keystroke_k	k	n/a
487.386	0.105	974772	keystroke_e	e	n/a
487.506	0.075	975012	keystroke_Key.space	Key.space	n/a
487.941	0.1045	975882	keystroke_i	i	n/a
488.0305	0.12	976061	keystroke_r	r	n/a
488.1055	0.105	976211	keystroke_e	e	n/a
488.3905	0.09	976781	keystroke_l	l	n/a
488.7365	0.119	977473	keystroke_a	a	n/a
488.8565	0.089	977713	keystroke_n	n	n/a
489.021	0.12	978042	keystroke_d	d	n/a
489.201	0.12	978402	keystroke_Key.space	Key.space	n/a
489.426	0.12	978852	keystroke_a	a	n/a
489.591	0.09	979182	keystroke_b	b	n/a
489.741	0.09	979482	keystroke_l	l	n/a
489.8165	0.104	979633	keystroke_e	e	n/a
489.906	0.1195	979812	keystroke_Key.space	Key.space	n/a
490.2505	0.1355	980501	keystroke_p	p	n/a
490.3555	0.1505	980711	keystroke_o	o	n/a
490.4915	0.1345	980983	keystroke_s	s	n/a
490.6115	0.1495	981223	keystroke_t	t	n/a
490.746	0.075	981492	keystroke_s	s	n/a
491.151	0.1045	982302	keystroke_Key.backspace	Key.backspace	n/a
491.3455	0.075	982691	keystroke_e	e	n/a
491.5405	0.09	983081	keystroke_d	d	n/a
492.111	0.1045	984222	keystroke_Key.enter	Key.enter	n/a
492.222	10.4365	984444	prompt	n/a	cove arizona fall minolta\n
493.761	0.06	987522	keystroke_c	c	n/a
494.1505	0.0905	988301	keystroke_o	o	n/a
494.2855	0.075	988571	keystroke_v	v	n/a
494.421	0.1505	988842	keystroke_e	e	n/a
494.7505	0.1055	989501	keystroke_Key.space	Key.space	n/a
495.4255	0.165	990851	keystroke_a	a	n/a
495.5615	0.09	991123	keystroke_r	r	n/a
495.7265	0.074	991453	keystroke_i	i	n/a
495.9655	0.12	991931	keystroke_z	z	n/a
496.131	0.135	992262	keystroke_o	o	n/a
496.221	0.1195	992442	keystroke_n	n	n/a
497.076	0.12	994152	keystroke_a	a	n/a
497.376	0.0895	994752	keystroke_Key.space	Key.space	n/a
497.7205	0.091	995441	keystroke_f	f	n/a
497.856	0.1355	995712	keystroke_a	a	n/a
498.021	0.075	996042	keystroke_l	l	n/a
498.186	0.09	996372	keystroke_l	l	n/a
498.321	0.09	996642	keystroke_Key.space	Key.space	n/a
499.2665	0.21	998533	keystroke_m	m	n/a
499.4605	0.15	998921	keystroke_i	i	n/a
499.5955	0.0905	999191	keystroke_n	n	n/a
499.881	0.1045	999762	keystroke_o	o	n/a
500.391	0.135	1000782	keystroke_l	l	n/a
500.616	0.1045	1001232	keystroke_t	t	n/a
500.7065	0.209	1001413	keystroke_a	a	n/a
502.551	0.104	1005102	keystroke_Key.enter	Key.enter	n/a
502.662	12.6855	1005324	prompt	n/a	heel brown communication germany\n
503.541	0.0745	1007082	keystroke_h	h	n/a
503.6155	0.105	1007231	keystroke_e	e	n/a
503.766	0.0745	1007532	keystroke_e	e	n/a
504.291	0.1045	1008582	keystroke_l	l	n/a
504.4255	0.105	1008851	keystroke_Key.space	Key.space	n/a
504.966	0.06	1009932	keystroke_b	b	n/a
505.146	0.075	1010292	keystroke_r	r	n/a
505.251	0.1055	1010502	keystroke_o	o	n/a
505.3715	0.0745	1010743	keystroke_w	w	n/a
505.4905	0.105	1010981	keystroke_n	n	n/a
505.6405	0.09	1011281	keystroke_Key.space	Key.space	n/a
506.1055	0.091	1012211	keystroke_c	c	n/a
506.181	0.12	1012362	keystroke_o	o	n/a
506.2705	0.06	1012541	keystroke_m	m	n/a
506.4355	0.0605	1012871	keystroke_m	m	n/a
506.6305	0.075	1013261	keystroke_u	u	n/a
506.826	0.165	1013652	keystroke_n	n	n/a
507.021	0.074	1014042	keystroke_c	c	n/a
507.126	0.1045	1014252	keystroke_c	c	n/a
507.185	0.165	1014370	keystroke_a	a	n/a
507.591	0.075	1015182	keystroke_Key.backspace	Key.backspace	n/a
507.741	0.09	1015482	keystroke_Key.backspace	Key.backspace	n/a
507.921	0.0895	1015842	keystroke_Key.backspace	Key.backspace	n/a
508.161	0.105	1016322	keystroke_i	i	n/a
508.566	0.075	1017132	keystroke_c	c	n/a
508.686	0.165	1017372	keystroke_a	a	n/a
508.806	0.09	1017612	keystroke_t	t	n/a
508.881	0.195	1017762	keystroke_i	i	n/a
508.986	0.105	1017972	keystroke_o	o	n/a
509.046	0.15	1018092	keystroke_n	n	n/a
509.5855	0.015	1019171	keystroke_Key.space	Key.space	n/a
509.6905	0.015	1019381	keystroke_Key.space	Key.space	n/a
509.7955	0.0755	1019591	keystroke_g	g	n/a
509.9315	0.105	1019863	keystroke_e	e	n/a
510.0065	0.075	1020013	keystroke_r	r	n/a
510.0665	0.075	1020133	keystroke_m	m	n/a
510.4555	0.06	1020911	keystroke_Key.backspace	Key.backspace	n/a
510.6355	0.045	1021271	keystroke_Key.backspace	Key.backspace	n/a
510.7855	0.0605	1021571	keystroke_Key.backspace	Key.backspace	n/a
510.936	0.0745	1021872	keystroke_Key.backspace	Key.backspace	n/a
511.73	0.0905	1023460	keystroke_Key.backspace	Key.backspace	n/a
512.3905	0.136	1024781	keystroke_g	g	n/a
512.6155	0.12	1025231	keystroke_e	e	n/a
512.6905	0.09	1025381	keystroke_r	r	n/a
512.8855	0.12	1025771	keystroke_a	a	n/a
512.9005	0.091	1025801	keystroke_m	m	n/a
513.1415	0.119	1026283	keystroke_n	n	n/a
513.5305	0.0905	1027061	keystroke_Key.backspace	Key.backspace	n/a
513.6955	0.0755	1027391	keystroke_Key.backspace	Key.backspace	n/a
513.846	0.105	1027692	keystroke_Key.backspace	Key.backspace	n/a
514.0855	0.0905	1028171	keystroke_m	m	n/a
514.177	0.1345	1028354	keystroke_a	a	n/a
514.326	0.09	1028652	keystroke_n	n	n/a
514.6855	0.0755	1029371	keystroke_y	y	n/a
515.256	0.09	1030512	keystroke_Key.enter	Key.enter	n/a
515.3525	6.2205	1030705	prompt	n/a	acting mardi charles motion\n
516.2165	0.119	1032433	keystroke_a	a	n/a
516.4115	0.0745	1032823	keystroke_c	c	n/a
516.576	0.09	1033152	keystroke_t	t	n/a
516.636	0.0895	1033272	keystroke_i	i	n/a
516.7855	0.105	1033571	keystroke_n	n	n/a
516.9055	0.1055	1033811	keystroke_g	g	n/a
516.981	0.1645	1033962	keystroke_Key.space	Key.space	n/a
517.4915	0.119	1034983	keystroke_m	m	n/a
517.5505	0.1505	1035101	keystroke_a	a	n/a
517.6405	0.1205	1035281	keystroke_r	r	n/a
517.8215	0.0895	1035643	keystroke_d	d	n/a
518.1655	0.091	1036331	keystroke_i	i	n/a
518.4055	0.1055	1036811	keystroke_Key.space	Key.space	n/a
518.646	0.0745	1037292	keystroke_c	c	n/a
518.7355	0.075	1037471	keystroke_h	h	n/a
518.8255	0.135	1037651	keystroke_a	a	n/a
518.9015	0.1045	1037803	keystroke_r	r	n/a
519.0505	0.0905	1038101	keystroke_l	l	n/a
519.1715	0.135	1038343	keystroke_e	e	n/a
519.261	0.12	1038522	keystroke_s	s	n/a
520.145	0.091	1040290	keystroke_Key.space	Key.space	n/a
520.37	0.121	1040740	keystroke_m	m	n/a
520.5055	0.12	1041011	keystroke_o	o	n/a
520.7305	0.0905	1041461	keystroke_t	t	n/a
520.836	0.3	1041672	keystroke_i	i	n/a
520.956	0.195	1041912	keystroke_o	o	n/a
521.106	0.18	1042212	keystroke_n	n	n/a
521.48	0.09	1042960	keystroke_Key.enter	Key.enter	n/a
521.5775	6.04	1043155	prompt	n/a	optimize martha holds out\n
522.1705	0.1655	1044341	keystroke_o	o	n/a
522.3205	0.1355	1044641	keystroke_p	p	n/a
