onset	duration	sample	value	key	prompt_text
1.243	11.3475	2486	prompt	n/a	the quick brown fox jumps over a lazy dog\n
6.121	0.027	12242	keystroke	h	n/a
6.345	0.06	12690	keystroke	Key.backspace	n/a
6.45	0.106	12900	keystroke	t	n/a
6.556	0.09	13112	keystroke	h	n/a
6.661	0.1355	13322	keystroke	e	n/a
6.8115	0.12	13623	keystroke	Key.space	n/a
6.9465	0.12	13893	keystroke	q	n/a
7.0375	0.119	14075	keystroke	u	n/a
7.1415	0.09	14283	keystroke	i	n/a
7.2765	0.105	14553	keystroke	c	n/a
7.4115	0.106	14823	keystroke	k	n/a
7.577	0.075	15154	keystroke	Key.space	n/a
7.832	0.0895	15664	keystroke	b	n/a
8.0265	0.09	16053	keystroke	r	n/a
8.1315	0.1055	16263	keystroke	o	n/a
8.297	0.09	16594	keystroke	w	n/a
8.4765	0.0905	16953	keystroke	n	n/a
8.627	0.105	17254	keystroke	Key.space	n/a
8.762	0.09	17524	keystroke	f	n/a
8.882	0.105	17764	keystroke	o	n/a
9.047	0.105	18094	keystroke	x	n/a
9.212	0.06	18424	keystroke	Key.space	n/a
9.242	0.105	18484	keystroke	j	n/a
9.572	0.09	19144	keystroke	u	n/a
9.797	0.1355	19594	keystroke	m	n/a
9.9465	0.106	19893	keystroke	p	n/a
10.0375	0.12	20075	keystroke	s	n/a
10.1425	0.105	20285	keystroke	Key.space	n/a
10.3525	0.09	20705	keystroke	o	n/a
10.5025	0.105	21005	keystroke	v	n/a
10.6665	0.106	21333	keystroke	e	n/a
10.7575	0.105	21515	keystroke	r	n/a
10.8925	0.089	21785	keystroke	Key.space	n/a
11.0125	0.135	22025	keystroke	a	n/a
11.1315	0.12	22263	keystroke	Key.space	n/a
11.2375	0.134	22475	keystroke	l	n/a
11.3425	0.104	22685	keystroke	a	n/a
11.5825	0.075	23165	keystroke	z	n/a
11.8225	0.12	23645	keystroke	y	n/a
11.9425	0.089	23885	keystroke	Key.space	n/a
12.1225	0.105	24245	keystroke	d	n/a
12.2125	0.12	24425	keystroke	o	n/a
12.3475	0.09	24695	keystroke	g	n/a
12.4825	0.105	24965	keystroke	Key.enter	n/a
12.5995	9.7245	25199	prompt	n/a	bronze registered accreditation manufactured\n
13.2025	0.075	26405	keystroke	b	n/a
13.4125	0.06	26825	keystroke	r	n/a
13.4875	0.12	26975	keystroke	o	n/a
13.5925	0.09	27185	keystroke	n	n/a
13.7575	0.09	27515	keystroke	z	n/a
13.9825	0.105	27965	keystroke	e	n/a
14.1175	0.104	28235	keystroke	Key.space	n/a
14.3265	0.076	28653	keystroke	r	n/a
14.4925	0.12	28985	keystroke	e	n/a
14.7475	0.105	29495	keystroke	g	n/a
14.9425	0.119	29885	keystroke	i	n/a
15.2575	0.075	30515	keystroke	s	n/a
15.4665	0.106	30933	keystroke	t	n/a
15.6325	0.165	31265	keystroke	e	n/a
15.7375	0.089	31475	keystroke	r	n/a
15.8425	0.104	31685	keystroke	e	n/a
16.0515	0.135	32103	keystroke	d	n/a
16.2015	0.105	32403	keystroke	Key.space	n/a
16.9825	0.0895	33965	keystroke	a	n/a
17.102	0.09	34204	keystroke	c	n/a
17.282	0.09	34564	keystroke	c	n/a
17.733	0.0895	35466	keystroke	r	n/a
17.807	0.12	35614	keystroke	e	n/a
18.062	0.075	36124	keystroke	d	n/a
18.1975	0.09	36395	keystroke	i	n/a
18.4675	0.0895	36935	keystroke	t	n/a
18.722	0.1205	37444	keystroke	a	n/a
19.2025	0.0745	38405	keystroke	t	n/a
19.262	0.2255	38524	keystroke	i	n/a
19.337	0.1355	38674	keystroke	o	n/a
19.4425	0.0895	38885	keystroke	n	n/a
19.8325	0.1045	39665	keystroke	Key.space	n/a
20.132	0.135	40264	keystroke	m	n/a
20.282	0.09	40564	keystroke	a	n/a
20.432	0.06	40864	keystroke	n	n/a
20.672	0.075	41344	keystroke	u	n/a
20.912	0.106	41824	keystroke	f	n/a
21.107	0.09	42214	keystroke	a	n/a
21.257	0.12	42514	keystroke	c	n/a
21.512	0.09	43024	keystroke	t	n/a
21.6915	0.091	43383	keystroke	u	n/a
21.7515	0.105	43503	keystroke	r	n/a
21.887	0.105	43774	keystroke	e	n/a
22.082	0.09	44164	keystroke	d	n/a
22.202	0.12	44404	keystroke	Key.enter	n/a
22.329	6.551	44658	prompt	n/a	views formula double lyrics\n
23.042	0.03	46084	keystroke	v	n/a
23.117	0.12	46234	keystroke	i	n/a
23.192	0.09	46384	keystroke	e	n/a
23.372	0.06	46744	keystroke	w	n/a
23.5365	0.105	47073	keystroke	s	n/a
23.6425	0.074	47285	keystroke	Key.space	n/a
24.002	0.105	48004	keystroke	f	n/a
24.107	0.075	48214	keystroke	o	n/a
24.617	0.09	49234	keystroke	r	n/a
24.917	0.06	49834	keystroke	m	n/a
25.082	0.06	50164	keystroke	u	n/a
25.277	0.075	50554	keystroke	l	n/a
25.517	0.105	51034	keystroke	a	n/a
25.847	0.06	51694	keystroke	Key.space	n/a
26.0715	0.106	52143	keystroke	d	n/a
26.1615	0.09	52323	keystroke	o	n/a
26.2825	0.089	52565	keystroke	u	n/a
26.4165	0.045	52833	keystroke	b	n/a
26.4915	0.121	52983	keystroke	l	n/a
26.6715	0.121	53343	keystroke	e	n/a
26.9265	0.06	53853	keystroke	Key.space	n/a
27.0325	0.134	54065	keystroke	l	n/a
27.3915	0.091	54783	keystroke	y	n/a
27.7815	0.045	55563	keystroke	c	n/a
28.1565	0.06	56313	keystroke	Key.backspace	n/a
28.2325	0.059	56465	keystroke	r	n/a
28.3515	0.105	56703	keystroke	i	n/a
28.4415	0.12	56883	keystroke	c	n/a
28.5915	0.105	57183	keystroke	s	n/a
28.7565	0.12	57513	keystroke	Key.enter	n/a
28.887	6.4265	57774	prompt	n/a	consult readers jeremy lips\n
29.5365	0.075	59073	keystroke	c	n/a
29.5665	0.135	59133	keystroke	o	n/a
29.6715	0.09	59343	keystroke	n	n/a
30.1215	0.075	60243	keystroke	s	n/a
30.4215	0.075	60843	keystroke	u	n/a
30.5865	0.105	61173	keystroke	l	n/a
30.7375	0.1195	61475	keystroke	t	n/a
31.007	0.075	62014	keystroke	Key.space	n/a
31.352	0.105	62704	keystroke	r	n/a
31.442	0.165	62884	keystroke	e	n/a
31.622	0.135	63244	keystroke	a	n/a
31.697	0.105	63394	keystroke	d	n/a
31.892	0.105	63784	keystroke	e	n/a
31.967	0.1045	63934	keystroke	r	n/a
32.1765	0.135	64353	keystroke	s	n/a
32.3415	0.105	64683	keystroke	Key.space	n/a
32.6415	0.15	65283	keystroke	j	n/a
32.7765	0.105	65553	keystroke	e	n/a
32.9415	0.09	65883	keystroke	r	n/a
33.0325	0.119	66065	keystroke	e	n/a
33.2715	0.12	66543	keystroke	m	n/a
33.6165	0.09	67233	keystroke	y	n/a
33.7815	0.105	67563	keystroke	Key.space	n/a
33.9165	0.09	67833	keystroke	l	n/a
34.0665	0.105	68133	keystroke	i	n/a
34.2465	0.09	68493	keystroke	p	n/a
34.3515	0.105	68703	keystroke	s	n/a
35.2215	0.09	70443	keystroke	Key.enter	n/a
35.318	6.912	70636	prompt	n/a	wars thesis each surplus\n
35.8215	0.105	71643	keystroke	w	n/a
36.0765	0.105	72153	keystroke	a	n/a
36.2265	0.075	72453	keystroke	r	n/a
36.4365	0.09	72873	keystroke	s	n/a
36.5415	0.105	73083	keystroke	Key.space	n/a
36.8565	0.09	73713	keystroke	t	n/a
36.9615	0.12	73923	keystroke	h	n/a
37.0065	0.105	74013	keystroke	i	n/a
37.3515	0.06	74703	keystroke	e	n/a
37.5465	0.075	75093	keystroke	Key.backspace	n/a
37.6515	0.075	75303	keystroke	Key.backspace	n/a
37.7415	0.075	75483	keystroke	e	n/a
37.8765	0.105	75753	keystroke	i	n/a
37.9365	0.09	75873	keystroke	s	n/a
38.5965	0.06	77193	keystroke	Key.backspace	n/a
38.7165	0.075	77433	keystroke	Key.backspace	n/a
38.8065	0.075	77613	keystroke	s	n/a
38.9415	0.0905	77883	keystroke	i	n/a
39.0015	0.0905	78003	keystroke	s	n/a
39.316	0.06	78632	keystroke	Key.space	n/a
39.512	0.075	79024	keystroke	e	n/a
39.632	0.12	79264	keystroke	a	n/a
39.827	0.074	79654	keystroke	c	n/a
39.931	0.106	79862	keystroke	h	n/a
40.022	0.089	80044	keystroke	Key.space	n/a
40.322	0.074	80644	keystroke	s	n/a
40.426	0.09	80852	keystroke	u	n/a
40.6675	0.0895	81335	keystroke	r	n/a
40.8465	0.075	81693	keystroke	p	n/a
41.027	0.1195	82054	keystroke	l	n/a
41.2365	0.03	82473	keystroke	c	n/a
41.3865	0.105	82773	keystroke	s	n/a
41.5965	0.06	83193	keystroke	Key.backspace	n/a
41.7165	0.075	83433	keystroke	Key.backspace	n/a
41.8965	0.12	83793	keystroke	u	n/a
41.9865	0.09	83973	keystroke	s	n/a
42.1515	0.075	84303	keystroke	Key.enter	n/a
42.235	10.24	84470	prompt	n/a	friendship organizational dramatically wishing\n
42.9465	0.09	85893	keystroke	f	n/a
43.0665	0.09	86133	keystroke	i	n/a
43.3965	0.075	86793	keystroke	Key.backspace	n/a
43.4865	0.105	86973	keystroke	r	n/a
43.5765	0.075	87153	keystroke	i	n/a
43.6665	0.12	87333	keystroke	e	n/a
43.8315	0.06	87663	keystroke	n	n/a
43.9065	0.09	87813	keystroke	d	n/a
44.1765	0.105	88353	keystroke	h	n/a
44.4465	0.06	88893	keystroke	Key.backspace	n/a
44.5515	0.075	89103	keystroke	s	n/a
44.6415	0.105	89283	keystroke	h	n/a
44.6865	0.165	89373	keystroke	i	n/a
44.9865	0.075	89973	keystroke	p	n/a
45.2415	0.105	90483	keystroke	Key.space	n/a
45.4515	0.12	90903	keystroke	o	n/a
45.6015	0.0895	91203	keystroke	r	n/a
45.8115	0.09	91623	keystroke	g	n/a
46.0515	0.09	92103	keystroke	a	n/a
46.1715	0.075	92343	keystroke	n	n/a
46.3365	0.09	92673	keystroke	i	n/a
46.666	0.045	93332	keystroke	z	n/a
46.8465	0.09	93693	keystroke	a	n/a
47.1315	0.06	94263	keystroke	t	n/a
47.2065	0.21	94413	keystroke	i	n/a
47.2515	0.15	94503	keystroke	o	n/a
47.3265	0.135	94653	keystroke	n	n/a
47.821	0.1205	95642	keystroke	s	n/a
48.1665	0.06	96333	keystroke	Key.backspace	n/a
48.2415	0.105	96483	keystroke	a	n/a
48.3615	0.12	96723	keystroke	l	n/a
48.5415	0.105	97083	keystroke	Key.space	n/a
48.7965	0.09	97593	keystroke	d	n/a
49.1115	0.075	98223	keystroke	r	n/a
49.3065	0.105	98613	keystroke	a	n/a
49.4415	0.075	98883	keystroke	m	n/a
49.5765	0.075	99153	keystroke	a	n/a
49.8165	0.09	99633	keystroke	t	n/a
49.9515	0.09	99903	keystroke	i	n/a
50.0865	0.12	100173	keystroke	c	n/a
50.1915	0.12	100383	keystroke	a	n/a
50.2965	0.03	100593	keystroke	l	n/a
50.4015	0.105	100803	keystroke	l	n/a
50.5215	0.12	101043	keystroke	y	n/a
50.6865	0.12	101373	keystroke	Key.space	n/a
50.9115	0.12	101823	keystroke	w	n/a
51.0465	0.09	102093	keystroke	i	n/a
51.1665	0.09	102333	keystroke	s	n/a
51.2715	0.09	102543	keystroke	h	n/a
51.3465	0.165	102693	keystroke	i	n/a
51.4375	0.134	102875	keystroke	n	n/a
51.5415	0.09	103083	keystroke	g	n/a
51.8715	0.09	103743	keystroke	s	n/a
52.1565	0.06	104313	keystroke	Key.backspace	n/a
52.3665	0.105	104733	keystroke	Key.enter	n/a
52.4815	7.598	104963	prompt	n/a	belly sunglasses looks defeat\n
53.1165	0.075	106233	keystroke	b	n/a
53.3115	0.075	106623	keystroke	a	n/a
53.5665	0.06	107133	keystroke	Key.backspace	n/a
53.6565	0.0895	107313	keystroke	e	n/a
53.777	0.045	107554	keystroke	l	n/a
53.912	0.09	107824	keystroke	l	n/a
54.002	0.09	108004	keystroke	y	n/a
54.137	0.09	108274	keystroke	Key.space	n/a
54.571	0.061	109142	keystroke	s	n/a
54.692	0.09	109384	keystroke	u	n/a
54.962	0.0745	109924	keystroke	n	n/a
55.1415	0.091	110283	keystroke	g	n/a
55.3515	0.045	110703	keystroke	r	n/a
55.6815	0.075	111363	keystroke	Key.backspace	n/a
56.4015	0.105	112803	keystroke	l	n/a
56.4915	0.15	112983	keystroke	a	n/a
56.6115	0.09	113223	keystroke	s	n/a
56.8065	0.09	113613	keystroke	s	n/a
57.0015	0.075	114003	keystroke	e	n/a
57.1815	0.12	114363	keystroke	s	n/a
57.5865	0.075	115173	keystroke	Key.space	n/a
57.7215	0.06	115443	keystroke	l	n/a
57.9015	0.045	115803	keystroke	o	n/a
58.0365	0.135	116073	keystroke	o	n/a
58.0965	0.135	116193	keystroke	k	n/a
58.2465	0.105	116493	keystroke	s	n/a
58.3665	0.0745	116733	keystroke	Key.space	n/a
58.561	0.0755	117122	keystroke	d	n/a
58.7415	0.105	117483	keystroke	e	n/a
59.1615	0.075	118323	keystroke	f	n/a
59.2515	0.12	118503	keystroke	e	n/a
59.5665	0.09	119133	keystroke	a	n/a
59.7465	0.09	119493	keystroke	t	n/a
59.9715	0.105	119943	keystroke	Key.enter	n/a
60.088	6.351	120176	prompt	n/a	lexus included japan happened\n
60.6465	0.09	121293	keystroke	l	n/a
60.8865	0.075	121773	keystroke	e	n/a
61.3065	0.09	122613	keystroke	x	n/a
61.4565	0.105	122913	keystroke	u	n/a
61.7115	0.09	123423	keystroke	s	n/a
62.1015	0.075	124203	keystroke	Key.space	n/a
62.2515	0.12	124503	keystroke	i	n/a
62.3415	0.075	124683	keystroke	n	n/a
62.4915	0.135	124983	keystroke	c	n/a
62.5965	0.075	125193	keystroke	l	n/a
62.7165	0.105	125433	keystroke	u	n/a
62.8365	0.09	125673	keystroke	d	n/a
63.0315	0.105	126063	keystroke	e	n/a
63.2265	0.09	126453	keystroke	Key.space	n/a
63.4815	0.075	126963	keystroke	j	n/a
63.5715	0.135	127143	keystroke	a	n/a
63.7215	0.09	127443	keystroke	p	n/a
64.0515	0.045	128103	keystroke	e	n/a
64.3065	0.105	128613	keystroke	Key.backspace	n/a
64.3965	0.12	128793	keystroke	a	n/a
64.5315	0.06	129063	keystroke	n	n/a
64.6815	0.105	129363	keystroke	Key.space	n/a
64.9515	0.09	129903	keystroke	h	n/a
65.1165	0.09	130233	keystroke	a	n/a
65.2215	0.045	130443	keystroke	p	n/a
65.3715	0.06	130743	keystroke	p	n/a
65.4765	0.075	130953	keystroke	e	n/a
65.5965	0.09	131193	keystroke	n	n/a
65.6415	0.105	131283	keystroke	e	n/a
65.8665	0.09	131733	keystroke	d	n/a
66.3315	0.105	132663	keystroke	Key.enter	n/a
66.4435	6.28	132887	prompt	n/a	dump quizzes intervals effects\n
67.1265	0.075	134253	keystroke	j	n/a
67.396	0.06	134792	keystroke	Key.backspace	n/a
67.502	0.09	135004	keystroke	d	n/a
67.546	0.106	135092	keystroke	u	n/a
67.742	0.1045	135484	keystroke	m	n/a
68.0865	0.1195	136173	keystroke	p	n/a
68.341	0.091	136682	keystroke	Key.space	n/a
68.627	0.09	137254	keystroke	q	n/a
68.731	0.09	137462	keystroke	u	n/a
68.822	0.105	137644	keystroke	i	n/a
68.942	0.119	137884	keystroke	z	n/a
69.166	0.075	138332	keystroke	z	n/a
69.3455	0.0755	138691	keystroke	e	n/a
69.527	0.12	139054	keystroke	s	n/a
69.782	0.09	139564	keystroke	Key.space	n/a
69.977	0.119	139954	keystroke	i	n/a
70.067	0.09	140134	keystroke	n	n/a
70.2455	0.106	140491	keystroke	t	n/a
70.4265	0.1505	140853	keystroke	e	n/a
70.5465	0.09	141093	keystroke	r	n/a
70.756	0.1055	141512	keystroke	v	n/a
70.8765	0.09	141753	keystroke	a	n/a
70.9815	0.12	141963	keystroke	l	n/a
71.0865	0.105	142173	keystroke	s	n/a
71.2365	0.12	142473	keystroke	Key.space	n/a
71.4315	0.105	142863	keystroke	e	n/a
71.5965	0.075	143193	keystroke	f	n/a
71.7615	0.105	143523	keystroke	f	n/a
71.8365	0.105	143673	keystroke	e	n/a
72.0615	0.09	144123	keystroke	c	n/a
72.2865	0.045	144573	keystroke	t	n/a
72.4365	0.105	144873	keystroke	s	n/a
72.6165	0.105	145233	keystroke	Key.enter	n/a
72.7275	8.306	145455	prompt	n/a	preferences continuing cohen immune\n
73.3065	0.09	146613	keystroke	p	n/a
73.3665	0.12	146733	keystroke	e	n/a
73.5165	0.09	147033	keystroke	r	n/a
74.0115	0.045	148023	keystroke	Key.backspace	n/a
74.1315	0.075	148263	keystroke	Key.backspace	n/a
74.2365	0.12	148473	keystroke	r	n/a
74.3265	0.135	148653	keystroke	e	n/a
74.6115	0.12	149223	keystroke	f	n/a
74.7165	0.12	149433	keystroke	e	n/a
74.8665	0.09	149733	keystroke	r	n/a
75.0015	0.12	150003	keystroke	e	n/a
75.1965	0.09	150393	keystroke	n	n/a
75.3465	0.105	150693	keystroke	c	n/a
75.5415	0.06	151083	keystroke	e	n/a
75.6915	0.105	151383	keystroke	s	n/a
75.8115	0.105	151623	keystroke	Key.space	n/a
75.9915	0.12	151983	keystroke	c	n/a
76.0965	0.105	152193	keystroke	o	n/a
76.2465	0.06	152493	keystroke	n	n/a
76.4715	0.09	152943	keystroke	t	n/a
76.5765	0.09	153153	keystroke	i	n/a
76.7865	0.075	153573	keystroke	n	n/a
76.9965	0.09	153993	keystroke	u	n/a
77.2365	0.12	154473	keystroke	i	n/a
77.3265	0.105	154653	keystroke	n	n/a
77.4465	0.12	154893	keystroke	g	n/a
77.6115	0.09	155223	keystroke	Key.space	n/a
77.7165	0.09	155433	keystroke	o	n/a
78.0315	0.045	156063	keystroke	Key.backspace	n/a
78.1515	0.12	156303	keystroke	c	n/a
78.2565	0.06	156513	keystroke	o	n/a
78.4215	0.09	156843	keystroke	h	n/a
78.6315	0.105	157263	keystroke	e	n/a
78.7665	0.075	157533	keystroke	n	n/a
78.8865	0.09	157773	keystroke	Key.space	n/a
79.0965	0.12	158193	keystroke	i	n/a
79.2015	0.09	158403	keystroke	m	n/a
79.3665	0.105	158733	keystroke	m	n/a
79.5915	0.075	159183	keystroke	u	n/a
79.8765	0.075	159753	keystroke	n	n/a
80.0565	0.105	160113	keystroke	e	n/a
80.9265	0.105	161853	keystroke	Key.enter	n/a
81.038	7.705	162076	prompt	n/a	rabbit controlled william modes\n
81.6765	0.075	163353	keystroke	r	n/a
81.8565	0.105	163713	keystroke	a	n/a
82.0065	0.06	164013	keystroke	b	n/a
82.1115	0.09	164223	keystroke	i	n/a
82.2315	0.105	164463	keystroke	t	n/a
82.5465	0.09	165093	keystroke	Key.space	n/a
83.2665	0.075	166533	keystroke	Key.backspace	n/a
83.3715	0.105	166743	keystroke	Key.backspace	n/a
83.5965	0.075	167193	keystroke	Key.backspace	n/a
83.8815	0.09	167763	keystroke	b	n/a
83.9865	0.105	167973	keystroke	i	n/a
84.1365	0.12	168273	keystroke	t	n/a
84.4515	0.105	168903	keystroke	Key.space	n/a
84.7815	0.105	169563	keystroke	c	n/a
84.8565	0.12	169713	keystroke	o	n/a
84.9315	0.105	169863	keystroke	n	n/a
85.1115	0.06	170223	keystroke	t	n/a
85.2465	0.105	170493	keystroke	r	n/a
85.3215	0.075	170643	keystroke	o	n/a
85.4865	0.06	170973	keystroke	l	n/a
85.6365	0.075	171273	keystroke	l	n/a
85.6965	0.09	171393	keystroke	e	n/a
85.8765	0.075	171753	keystroke	d	n/a
85.9665	0.09	171933	keystroke	Key.space	n/a
86.0715	0.135	172143	keystroke	w	n/a
86.1915	0.09	172383	keystroke	i	n/a
86.4915	0.03	172983	keystroke	l	n/a
86.6265	0.06	173253	keystroke	l	n/a
86.9265	0.105	173853	keystroke	i	n/a
87.0915	0.105	174183	keystroke	a	n/a
87.2265	0.105	174453	keystroke	m	n/a
87.5115	0.105	175023	keystroke	Key.space	n/a
87.7965	0.09	175593	keystroke	m	n/a
87.9015	0.12	175803	keystroke	o	n/a
88.0065	0.09	176013	keystroke	d	n/a
88.2015	0.06	176403	keystroke	e	n/a
88.3365	0.12	176673	keystroke	s	n/a
88.6215	0.12	177243	keystroke	Key.enter	n/a
88.7475	6.327	177495	prompt	n/a	by text available serbia\n
89.4165	0.09	178833	keystroke	b	n/a
89.6115	0.105	179223	keystroke	y	n/a
89.7315	0.135	179463	keystroke	Key.space	n/a
89.8515	0.09	179703	keystroke	t	n/a
90.1065	0.075	180213	keystroke	e	n/a
90.3165	0.075	180633	keystroke	s	n/a
90.6615	0.075	181323	keystroke	Key.backspace	n/a
90.7065	0.09	181413	keystroke	x	n/a
90.9615	0.12	181923	keystroke	t	n/a
91.1415	0.105	182283	keystroke	Key.space	n/a
91.6965	0.105	183393	keystroke	a	n/a
91.7715	0.105	183543	keystroke	v	n/a
91.8915	0.105	183783	keystroke	a	n/a
92.0115	0.12	184023	keystroke	i	n/a
92.5975	0.104	185195	keystroke	l	n/a
92.7315	0.12	185463	keystroke	a	n/a
92.8965	0.075	185793	keystroke	b	n/a
93.0465	0.105	186093	keystroke	l	n/a
93.2265	0.135	186453	keystroke	e	n/a
93.4665	0.06	186933	keystroke	Key.space	n/a
93.7815	0.09	187563	keystroke	s	n/a
93.9315	0.12	187863	keystroke	e	n/a
94.0665	0.0895	188133	keystroke	r	n/a
94.381	0.075	188762	keystroke	b	n/a
94.471	0.105	188942	keystroke	i	n/a
94.666	0.106	189332	keystroke	a	n/a
94.966	0.106	189932	keystroke	Key.enter	n/a
95.0795	7.524	190159	prompt	n/a	imagine formats galleries outdoor\n
95.717	0.09	191434	keystroke	i	n/a
95.8965	0.06	191793	keystroke	m	n/a
96.0765	0.1205	192153	keystroke	a	n/a
96.302	0.06	192604	keystroke	g	n/a
96.332	0.1795	192664	keystroke	i	n/a
96.4365	0.12	192873	keystroke	n	n/a
96.722	0.0745	193444	keystroke	e	n/a
96.9915	0.09	193983	keystroke	Key.space	n/a
97.411	0.1205	194822	keystroke	f	n/a
97.5165	0.135	195033	keystroke	o	n/a
97.6365	0.09	195273	keystroke	r	n/a
97.861	0.075	195722	keystroke	m	n/a
97.966	0.09	195932	keystroke	a	n/a
98.146	0.075	196292	keystroke	t	n/a
98.371	0.105	196742	keystroke	s	n/a
98.536	0.105	197072	keystroke	Key.space	n/a
98.911	0.075	197822	keystroke	g	n/a
99.121	0.105	198242	keystroke	a	n/a
99.421	0.06	198842	keystroke	l	n/a
99.631	0.03	199262	keystroke	l	n/a
99.646	0.105	199292	keystroke	e	n/a
99.781	0.076	199562	keystroke	r	n/a
99.961	0.12	199922	keystroke	i	n/a
100.066	0.09	200132	keystroke	e	n/a
100.231	0.121	200462	keystroke	s	n/a
100.606	0.105	201212	keystroke	Key.space	n/a
100.876	0.09	201752	keystroke	o	n/a
100.996	0.09	201992	keystroke	u	n/a
101.071	0.09	202142	keystroke	t	n/a
101.371	0.09	202742	keystroke	o	n/a
101.522	0.059	203044	keystroke	d	n/a
101.701	0.045	203402	keystroke	Key.backspace	n/a
101.821	0.06	203642	keystroke	Key.backspace	n/a
101.941	0.105	203882	keystroke	d	n/a
102.001	0.06	204002	keystroke	o	n/a
102.1515	0.0905	204303	keystroke	o	n/a
102.272	0.089	204544	keystroke	r	n/a
102.496	0.105	204992	keystroke	Key.enter	n/a
102.608	8.38	205216	prompt	n/a	enterprises loved artwork biography\n
103.126	0.09	206252	keystroke	e	n/a
103.456	0.105	206912	keystroke	n	n/a
103.861	0.091	207722	keystroke	e	n/a
104.176	0.045	208352	keystroke	Key.backspace	n/a
104.252	0.075	208504	keystroke	t	n/a
104.432	0.134	208864	keystroke	e	n/a
104.551	0.106	209102	keystroke	r	n/a
104.851	0.061	209702	keystroke	p	n/a
104.957	0.104	209914	keystroke	r	n/a
105.077	0.105	210154	keystroke	i	n/a
105.196	0.106	210392	keystroke	s	n/a
105.586	0.06	211172	keystroke	e	n/a
105.767	0.104	211534	keystroke	s	n/a
105.916	0.106	211832	keystroke	Key.space	n/a
106.112	0.06	212224	keystroke	l	n/a
106.261	0.091	212522	keystroke	o	n/a
106.307	0.09	212614	keystroke	v	n/a
106.442	0.089	212884	keystroke	e	n/a
106.682	0.15	213364	keystroke	d	n/a
106.846	0.105	213692	keystroke	Key.space	n/a
107.102	0.06	214204	keystroke	a	n/a
107.252	0.075	214504	keystroke	r	n/a
107.417	0.09	214834	keystroke	t	n/a
107.612	0.105	215224	keystroke	w	n/a
107.732	0.06	215464	keystroke	o	n/a
107.837	0.075	215674	keystroke	r	n/a
107.927	0.12	215854	keystroke	k	n/a
108.167	0.09	216334	keystroke	Key.space	n/a
108.407	0.06	216814	keystroke	b	n/a
108.572	0.09	217144	keystroke	i	n/a
108.812	0.09	217624	keystroke	o	n/a
109.3065	0.12	218613	keystroke	g	n/a
109.6525	0.089	219305	keystroke	r	n/a
109.8615	0.12	219723	keystroke	a	n/a
110.1765	0.09	220353	keystroke	p	n/a
110.4015	0.12	220803	keystroke	h	n/a
110.5365	0.105	221073	keystroke	y	n/a
110.8965	0.09	221793	keystroke	Key.enter	n/a
110.9935	7.6755	221987	prompt	n/a	marking left chorus costa\n
111.4965	0.09	222993	keystroke	m	n/a
111.6165	0.075	223233	keystroke	a	n/a
112.0365	0.106	224073	keystroke	r	n/a
112.1265	0.075	224253	keystroke	k	n/a
112.3215	0.136	224643	keystroke	i	n/a
112.4115	0.09	224823	keystroke	n	n/a
112.5165	0.12	225033	keystroke	g	n/a
112.667	0.1195	225334	keystroke	Key.space	n/a
112.8765	0.135	225753	keystroke	l	n/a
112.9965	0.12	225993	keystroke	e	n/a
113.0865	0.12	226173	keystroke	f	n/a
113.3265	0.09	226653	keystroke	t	n/a
113.4465	0.105	226893	keystroke	Key.space	n/a
113.7465	0.105	227493	keystroke	c	n/a
114.0765	0.12	228153	keystroke	h	n/a
114.1815	0.135	228363	keystroke	o	n/a
114.5265	0.09	229053	keystroke	u	n/a
114.6765	0.165	229353	keystroke	r	n/a
115.3965	0.03	230793	keystroke	Key.backspace	n/a
115.5315	0.075	231063	keystroke	Key.backspace	n/a
115.7565	0.091	231513	keystroke	u	n/a
115.8915	0.12	231783	keystroke	r	n/a
116.3565	0.03	232713	keystroke	Key.backspace	n/a
116.4765	0.06	232953	keystroke	Key.backspace	n/a
116.6265	0.105	233253	keystroke	r	n/a
116.7165	0.09	233433	keystroke	u	n/a
116.9115	0.09	233823	keystroke	s	n/a
117.091	0.091	234182	keystroke	Key.space	n/a
117.257	0.12	234514	keystroke	c	n/a
117.407	0.09	234814	keystroke	o	n/a
117.767	0.105	235534	keystroke	s	n/a
118.067	0.09	236134	keystroke	t	n/a
118.367	0.075	236734	keystroke	a	n/a
118.562	0.105	237124	keystroke	Key.enter	n/a
118.675	9.429	237350	prompt	n/a	forums concentration trinity submissions\n
119.507	0.09	239014	keystroke	f	n/a
119.627	0.075	239254	keystroke	o	n/a
119.732	0.09	239464	keystroke	r	n/a
119.927	0.105	239854	keystroke	m	n/a
120.527	0.06	241054	keystroke	Key.backspace	n/a
120.722	0.06	241444	keystroke	u	n/a
120.932	0.09	241864	keystroke	m	n/a
121.097	0.105	242194	keystroke	s	n/a
121.502	0.09	243004	keystroke	Key.space	n/a
121.712	0.09	243424	keystroke	c	n/a
121.847	0.075	243694	keystroke	o	n/a
121.907	0.105	243814	keystroke	n	n/a
122.222	0.09	244444	keystroke	c	n/a
122.432	0.075	244864	keystroke	e	n/a
122.522	0.105	245044	keystroke	n	n/a
122.717	0.06	245434	keystroke	t	n/a
122.867	0.075	245734	keystroke	r	n/a
123.047	0.105	246094	keystroke	a	n/a
123.257	0.075	246514	keystroke	t	n/a
123.317	0.21	246634	keystroke	i	n/a
123.407	0.105	246814	keystroke	o	n/a
123.467	0.105	246934	keystroke	n	n/a
123.632	0.12	247264	keystroke	Key.space	n/a
123.857	0.09	247714	keystroke	t	n/a
124.052	0.09	248104	keystroke	r	n/a
124.277	0.135	248554	keystroke	i	n/a
124.457	0.075	248914	keystroke	n	n/a
124.667	0.105	249334	keystroke	t	n/a
124.742	0.12	249484	keystroke	i	n/a
125.282	0.06	250564	keystroke	Key.backspace	n/a
125.432	0.045	250864	keystroke	Key.backspace	n/a
125.597	0.075	251194	keystroke	i	n/a
125.702	0.105	251404	keystroke	t	n/a
125.942	0.12	251884	keystroke	y	n/a
126.227	0.12	252454	keystroke	Key.space	n/a
126.437	0.12	252874	keystroke	s	n/a
126.542	0.105	253084	keystroke	u	n/a
126.677	0.105	253354	keystroke	b	n/a
126.902	0.105	253804	keystroke	m	n/a
127.022	0.105	254044	keystroke	i	n/a
127.217	0.074	254434	keystroke	s	n/a
127.382	0.075	254764	keystroke	s	n/a
127.442	0.225	254884	keystroke	i	n/a
127.532	0.12	255064	keystroke	o	n/a
127.577	0.12	255154	keystroke	n	n/a
127.742	0.105	255484	keystroke	s	n/a
127.982	0.119	255964	keystroke	Key.enter	n/a
128.1095	10.4945	256219	prompt	n/a	starring pharmacology performance spirit\n
128.597	0.12	257194	keystroke	s	n/a
128.837	0.075	257674	keystroke	t	n/a
128.987	0.105	257974	keystroke	a	n/a
129.122	0.105	258244	keystroke	r	n/a
129.287	0.12	258574	keystroke	r	n/a
129.422	0.165	258844	keystroke	i	n/a
129.497	0.12	258994	keystroke	n	n/a
129.632	0.12	259264	keystroke	g	n/a
129.812	0.12	259624	keystroke	Key.space	n/a
130.397	0.09	260794	keystroke	p	n/a
130.547	0.105	261094	keystroke	h	n/a
130.7575	0.09	261515	keystroke	a	n/a
130.9815	0.046	261963	keystroke	r	n/a
131.3725	0.089	262745	keystroke	a	n/a
131.9565	0.091	263913	keystroke	Key.backspace	n/a
132.527	0.105	265054	keystroke	m	n/a
132.722	0.105	265444	keystroke	a	n/a
132.992	0.135	265984	keystroke	c	n/a
133.187	0.075	266374	keystroke	o	n/a
133.367	0.075	266734	keystroke	l	n/a
133.547	0.09	267094	keystroke	o	n/a
133.742	0.12	267484	keystroke	g	n/a
134.042	0.12	268084	keystroke	y	n/a
134.432	0.075	268864	keystroke	Key.space	n/a
134.657	0.105	269314	keystroke	p	n/a
134.717	0.135	269434	keystroke	e	n/a
134.852	0.06	269704	keystroke	r	n/a
134.927	0.105	269854	keystroke	o	n/a
135.152	0.105	270304	keystroke	f	n/a
135.467	0.045	270934	keystroke	Key.backspace	n/a
135.587	0.06	271174	keystroke	Key.backspace	n/a
135.677	0.105	271354	keystroke	f	n/a
135.797	0.09	271594	keystroke	o	n/a
135.903	0.089	271806	keystroke	r	n/a
136.067	0.09	272134	keystroke	m	n/a
136.367	0.105	272734	keystroke	a	n/a
136.442	0.075	272884	keystroke	n	n/a
136.562	0.105	273124	keystroke	c	n/a
136.787	0.075	273574	keystroke	e	n/a
136.877	0.105	273754	keystroke	Key.space	n/a
137.012	0.12	274024	keystroke	s	n/a
137.222	0.09	274444	keystroke	p	n/a
137.462	0.075	274924	keystroke	i	n/a
137.792	0.12	275584	keystroke	r	n/a
138.092	0.12	276184	keystroke	i	n/a
138.227	0.105	276454	keystroke	t	n/a
138.512	0.09	277024	keystroke	Key.enter	n/a
138.6085	14.2	277217	prompt	n/a	randy apollo emergency thin\n
139.142	0.06	278284	keystroke	l	n/a
139.457	0.06	278914	keystroke	Key.backspace	n/a
139.532	0.105	279064	keystroke	r	n/a
139.667	0.06	279334	keystroke	n	n/a
139.757	0.12	279514	keystroke	a	n/a
139.907	0.09	279814	keystroke	d	n/a
140.162	0.0445	280324	keystroke	y	n/a
140.3265	0.06	280653	keystroke	Key.backspace	n/a
140.4615	0.06	280923	keystroke	Key.backspace	n/a
140.5815	0.075	281163	keystroke	Key.backspace	n/a
140.7315	0.045	281463	keystroke	Key.backspace	n/a
140.8965	0.015	281793	keystroke	Key.backspace	n/a
141.3615	0.075	282723	keystroke	r	n/a
141.5115	0.136	283023	keystroke	a	n/a
141.7365	0.09	283473	keystroke	d	n/a
142.0515	0.045	284103	keystroke	Key.backspace	n/a
142.2025	0.059	284405	keystroke	n	n/a
142.2915	0.09	284583	keystroke	d	n/a
142.5315	0.121	285063	keystroke	y	n/a
142.7115	0.105	285423	keystroke	Key.space	n/a
142.9815	0.105	285963	keystroke	a	n/a
143.0725	0.149	286145	keystroke	p	n/a
143.4015	0.105	286803	keystroke	l	n/a
143.582	0.06	287164	keystroke	o	n/a
143.987	0.045	287974	keystroke	Key.backspace	n/a
144.257	0.06	288514	keystroke	Key.backspace	n/a
144.437	0.06	288874	keystroke	o	n/a
144.617	0.06	289234	keystroke	l	n/a
144.752	0.09	289504	keystroke	l	n/a
144.917	0.09	289834	keystroke	o	n/a
145.262	0.06	290524	keystroke	Key.space	n/a
145.532	0.105	291064	keystroke	e	n/a
145.653	0.104	291306	keystroke	m	n/a
145.802	0.105	291604	keystroke	e	n/a
145.952	0.09	291904	keystroke	r	n/a
146.372	0.09	292744	keystroke	e	n/a
146.507	0.075	293014	keystroke	n	n/a
146.612	0.12	293224	keystroke	c	n/a
146.957	0.12	293914	keystroke	y	n/a
147.9615	0.09	295923	keystroke	Key.space	n/a
148.2315	0.0905	296463	keystroke	t	n/a
148.3065	0.0905	296613	keystroke	h	n/a
148.367	0.18	296734	keystroke	i	n/a
148.502	0.12	297004	keystroke	n	n/a
149.8665	0.075	299733	keystroke	Key.backspace	n/a
150.0315	0.075	300063	keystroke	Key.backspace	n/a
150.1365	0.09	300273	keystroke	Key.backspace	n/a
150.3015	0.075	300603	keystroke	Key.backspace	n/a
150.4365	0.075	300873	keystroke	Key.backspace	n/a
150.5715	0.06	301143	keystroke	Key.backspace	n/a
150.7065	0.075	301413	keystroke	Key.backspace	n/a
150.8415	0.075	301683	keystroke	Key.backspace	n/a
150.9915	0.09	301983	keystroke	Key.backspace	n/a
151.1115	0.09	302223	keystroke	g	n/a
151.2765	0.09	302553	keystroke	e	n/a
151.3965	0.075	302793	keystroke	n	n/a
151.5165	0.105	303033	keystroke	c	n/a
151.7715	0.135	303543	keystroke	y	n/a
151.9815	0.1195	303963	keystroke	Key.space	n/a
152.206	0.105	304412	keystroke	t	n/a
152.281	0.09	304562	keystroke	h	n/a
152.341	0.195	304682	keystroke	i	n/a
152.461	0.12	304922	keystroke	n	n/a
152.701	0.105	305402	keystroke	Key.enter	n/a
152.814	9.205	305628	prompt	n/a	holding shouldn't skype scott\n
153.4515	0.105	306903	keystroke	h	n/a
153.5265	0.09	307053	keystroke	o	n/a
153.6915	0.105	307383	keystroke	l	n/a
153.7665	0.105	307533	keystroke	d	n/a
153.8865	0.135	307773	keystroke	i	n/a
153.9465	0.12	307893	keystroke	n	n/a
154.0815	0.15	308163	keystroke	g	n/a
154.2765	0.105	308553	keystroke	Key.space	n/a
154.5165	0.09	309033	keystroke	s	n/a
154.5765	0.105	309153	keystroke	h	n/a
154.6965	0.12	309393	keystroke	o	n/a
154.8015	0.12	309603	keystroke	u	n/a
154.9965	0.09	309993	keystroke	l	n/a
155.2815	0.12	310563	keystroke	d	n/a
155.6115	0.09	311223	keystroke	'	n/a
155.9265	0.105	311853	keystroke	t	n/a
156.3915	0.075	312783	keystroke	Key.space	n/a
157.3065	0.075	314613	keystroke	Key.backspace	n/a
157.4565	0.075	314913	keystroke	Key.backspace	n/a
157.7715	0.06	315543	keystroke	Key.backspace	n/a
157.9665	0.12	315933	keystroke	n	n/a
158.3265	0.135	316653	keystroke	'	n/a
158.7015	0.105	317403	keystroke	t	n/a
159.0615	0.06	318123	keystroke	Key.space	n/a
159.2715	0.09	318543	keystroke	s	n/a
159.4515	0.12	318903	keystroke	k	n/a
159.6465	0.06	319293	keystroke	y	n/a
159.9315	0.105	319863	keystroke	p	n/a
160.0975	0.119	320195	keystroke	e	n/a
160.3665	0.105	320733	keystroke	Key.space	n/a
160.6665	0.105	321333	keystroke	c	n/a
161.191	0.0605	322382	keystroke	Key.backspace	n/a
161.2675	0.105	322535	keystroke	s	n/a
161.3115	0.1645	322623	keystroke	c	n/a
161.4465	0.09	322893	keystroke	o	n/a
161.642	0.059	323284	keystroke	t	n/a
161.776	0.105	323552	keystroke	t	n/a
161.911	0.1055	323822	keystroke	Key.enter	n/a
162.0285	7.205	324057	prompt	n/a	patch nation proxy thriller\n
162.5725	0.1035	325145	keystroke	p	n/a
162.677	0.1045	325354	keystroke	a	n/a
162.8565	0.105	325713	keystroke	t	n/a
163.1265	0.12	326253	keystroke	c	n/a
163.2615	0.09	326523	keystroke	h	n/a
163.3365	0.09	326673	keystroke	Key.space	n/a
163.5765	0.076	327153	keystroke	n	n/a
163.6665	0.09	327333	keystroke	a	n/a
163.9065	0.12	327813	keystroke	t	n/a
164.0115	0.225	328023	keystroke	i	n/a
164.0865	0.135	328173	keystroke	o	n/a
164.1315	0.15	328263	keystroke	n	n/a
164.492	0.105	328984	keystroke	Key.space	n/a
164.777	0.12	329554	keystroke	p	n/a
165.002	0.09	330004	keystroke	r	n/a
165.152	0.105	330304	keystroke	o	n/a
165.272	0.15	330544	keystroke	z	n/a
165.7515	0.075	331503	keystroke	Key.backspace	n/a
165.8115	0.12	331623	keystroke	x	n/a
166.2015	0.06	332403	keystroke	Key.space	n/a
166.5015	0.09	333003	keystroke	Key.backspace	n/a
166.877	0.0895	333754	keystroke	y	n/a
167.2515	0.12	334503	keystroke	Key.space	n/a
167.4315	0.105	334863	keystroke	t	n/a
167.6115	0.135	335223	keystroke	h	n/a
167.8225	0.105	335645	keystroke	r	n/a
168.392	0.089	336784	keystroke	i	n/a
168.5715	0.0605	337143	keystroke	l	n/a
168.706	0.105	337412	keystroke	l	n/a
168.782	0.119	337564	keystroke	e	n/a
168.917	0.075	337834	keystroke	r	n/a
169.096	0.135	338192	keystroke	Key.enter	n/a
169.2395	6.1895	338479	prompt	n/a	clarke mats ballot muslim\n
169.787	0.135	339574	keystroke	c	n/a
169.952	0.134	339904	keystroke	l	n/a
170.057	0.119	340114	keystroke	a	n/a
170.342	0.089	340684	keystroke	r	n/a
170.552	0.09	341104	keystroke	t	n/a
170.911	0.046	341822	keystroke	Key.backspace	n/a
171.077	0.135	342154	keystroke	k	n/a
171.197	0.12	342394	keystroke	e	n/a
171.361	0.136	342722	keystroke	Key.space	n/a
171.542	0.075	343084	keystroke	m	n/a
171.677	0.12	343354	keystroke	a	n/a
171.872	0.105	343744	keystroke	t	n/a
172.127	0.135	344254	keystroke	s	n/a
172.276	0.121	344552	keystroke	Key.space	n/a
172.577	0.076	345154	keystroke	b	n/a
172.682	0.165	345364	keystroke	a	n/a
172.831	0.076	345662	keystroke	l	n/a
172.997	0.06	345994	keystroke	l	n/a
173.162	0.075	346324	keystroke	o	n/a
173.267	0.105	346534	keystroke	t	n/a
173.342	0.12	346684	keystroke	Key.space	n/a
173.522	0.09	347044	keystroke	m	n/a
173.762	0.089	347524	keystroke	u	n/a
173.897	0.075	347794	keystroke	s	n/a
174.122	0.105	348244	keystroke	l	n/a
174.227	0.12	348454	keystroke	i	n/a
174.377	0.105	348754	keystroke	m	n/a
175.307	0.12	350614	keystroke	Key.enter	n/a
175.433	6.8505	350866	prompt	n/a	reel office appliances tasks\n
176.012	0.105	352024	keystroke	r	n/a
176.102	0.09	352204	keystroke	e	n/a
176.297	0.09	352594	keystroke	e	n/a
176.432	0.135	352864	keystroke	l	n/a
176.597	0.105	353194	keystroke	Key.space	n/a
176.882	0.045	353764	keystroke	o	n/a
176.942	0.09	353884	keystroke	f	n/a
177.227	0.105	354454	keystroke	f	n/a
177.422	0.105	354844	keystroke	i	n/a
177.542	0.0895	355084	keystroke	c	n/a
177.7825	0.089	355565	keystroke	e	n/a
178.0815	0.09	356163	keystroke	Key.space	n/a
178.3065	0.12	356613	keystroke	a	n/a
178.4415	0.075	356883	keystroke	p	n/a
178.6065	0.09	357213	keystroke	p	n/a
179.1315	0.12	358263	keystroke	l	n/a
179.2965	0.06	358593	keystroke	i	n/a
179.7915	0.135	359583	keystroke	a	n/a
179.9115	0.075	359823	keystroke	n	n/a
180.0465	0.12	360093	keystroke	c	n/a
180.286	0.061	360572	keystroke	e	n/a
180.466	0.106	360932	keystroke	s	n/a
180.601	0.105	361202	keystroke	Key.space	n/a
180.826	0.061	361652	keystroke	t	n/a
180.992	0.104	361984	keystroke	a	n/a
181.367	0.105	362734	keystroke	s	n/a
181.531	0.091	363062	keystroke	k	n/a
181.637	0.06	363274	keystroke	e	n/a
181.936	0.076	363872	keystroke	Key.backspace	n/a
182.057	0.074	364114	keystroke	s	n/a
182.191	0.09	364382	keystroke	Key.enter	n/a
182.2885	9.5805	364577	prompt	n/a	businesses gazette indiana disclaimer\n
182.971	0.091	365942	keystroke	b	n/a
183.106	0.09	366212	keystroke	u	n/a
183.226	0.075	366452	keystroke	s	n/a
183.407	0.09	366814	keystroke	s	n/a
183.692	0.059	367384	keystroke	Key.backspace	n/a
183.902	0.104	367804	keystroke	i	n/a
183.977	0.105	367954	keystroke	n	n/a
184.142	0.104	368284	keystroke	e	n/a
184.367	0.075	368734	keystroke	s	n/a
184.547	0.059	369094	keystroke	s	n/a
184.727	0.06	369454	keystroke	e	n/a
184.892	0.104	369784	keystroke	s	n/a
185.086	0.09	370172	keystroke	Key.space	n/a
185.327	0.06	370654	keystroke	g	n/a
185.612	0.105	371224	keystroke	a	n/a
185.881	0.075	371762	keystroke	z	n/a
186.062	0.105	372124	keystroke	e	n/a
186.422	0.075	372844	keystroke	t	n/a
186.601	0.061	373202	keystroke	e	n/a
186.947	0.075	373894	keystroke	Key.backspace	n/a
187.037	0.075	374074	keystroke	t	n/a
187.202	0.135	374404	keystroke	e	n/a
187.352	0.104	374704	keystroke	Key.space	n/a
187.667	0.135	375334	keystroke	i	n/a
187.772	0.09	375544	keystroke	n	n/a
187.892	0.15	375784	keystroke	d	n/a
188.057	0.105	376114	keystroke	i	n/a
188.177	0.12	376354	keystroke	a	n/a
188.267	0.105	376534	keystroke	n	n/a
188.387	0.12	376774	keystroke	a	n/a
188.762	0.12	377524	keystroke	Key.space	n/a
189.077	0.105	378154	keystroke	c	n/a
189.257	0.105	378514	keystroke	i	n/a
189.377	0.0745	378754	keystroke	s	n/a
189.5865	0.12	379173	keystroke	c	n/a
189.8265	0.12	379653	keystroke	l	n/a
190.0365	0.075	380073	keystroke	a	n/a
191.147	0.12	382294	keystroke	i	n/a
191.282	0.12	382564	keystroke	m	n/a
191.387	0.135	382774	keystroke	e	n/a
191.507	0.1045	383014	keystroke	r	n/a
191.7615	0.105	383523	keystroke	Key.enter	n/a
191.873	9.505	383746	prompt	n/a	beats administrative irish trends\n
192.8115	0.03	385623	keystroke	b	n/a
192.9165	0.105	385833	keystroke	e	n/a
193.0515	0.12	386103	keystroke	a	n/a
193.2165	0.09	386433	keystroke	t	n/a
193.4415	0.105	386883	keystroke	s	n/a
193.5615	0.105	387123	keystroke	Key.space	n/a
193.6965	0.135	387393	keystroke	a	n/a
193.8615	0.12	387723	keystroke	d	n/a
194.0415	0.105	388083	keystroke	m	n/a
194.2065	0.15	388413	keystroke	i	n/a
194.2965	0.105	388593	keystroke	n	n/a
194.6115	0.105	389223	keystroke	i	n/a
195.1515	0.075	390303	keystroke	s	n/a
195.3915	0.09	390783	keystroke	t	n/a
195.5865	0.06	391173	keystroke	r	n/a
195.7815	0.09	391563	keystroke	a	n/a
195.9765	0.09	391953	keystroke	t	n/a
196.2915	0.105	392583	keystroke	v	n/a
196.427	0.1195	392854	keystroke	i	n/a
196.7715	0.06	393543	keystroke	Key.backspace	n/a
196.9065	0.09	393813	keystroke	Key.backspace	n/a
197.1165	0.09	394233	keystroke	i	n/a
197.2215	0.06	394443	keystroke	v	n/a
197.3565	0.12	394713	keystroke	e	n/a
197.6715	0.06	395343	keystroke	Key.space	n/a
197.8365	0.12	395673	keystroke	i	n/a
198.1965	0.09	396393	keystroke	r	n/a
198.3015	0.135	396603	keystroke	i	n/a
198.5725	0.089	397145	keystroke	s	n/a
198.7965	0.09	397593	keystroke	h	n/a
198.9465	0.06	397893	keystroke	Key.space	n/a
199.1415	0.06	398283	keystroke	t	n/a
199.3065	0.075	398613	keystroke	r	n/a
199.4715	0.105	398943	keystroke	e	n/a
199.6065	0.1045	399213	keystroke	n	n/a
199.728	0.073	399456	keystroke	s	n/a
200.191	0.075	400382	keystroke	Key.backspace	n/a
200.686	0.15	401372	keystroke	d	n/a
200.791	0.135	401582	keystroke	s	n/a
201.256	0.12	402512	keystroke	Key.enter	n/a
201.383	7.8255	402766	prompt	n/a	lessons years phantom chapters\n
201.931	0.12	403862	keystroke	l	n/a
202.066	0.045	404132	keystroke	e	n/a
202.216	0.075	404432	keystroke	e	n/a
202.636	0.06	405272	keystroke	Key.backspace	n/a
202.711	0.09	405422	keystroke	s	n/a
202.831	0.075	405662	keystroke	o	n/a
202.981	0.105	405962	keystroke	o	n/a
203.371	0.06	406742	keystroke	Key.backspace	n/a
203.491	0.0895	406982	keystroke	Key.backspace	n/a
203.6115	0.0905	407223	keystroke	s	n/a
203.7155	0.106	407431	keystroke	o	n/a
203.7765	0.0895	407553	keystroke	n	n/a
203.956	0.1205	407912	keystroke	s	n/a
204.1065	0.105	408213	keystroke	Key.space	n/a
204.5715	0.09	409143	keystroke	y	n/a
204.7215	0.21	409443	keystroke	e	n/a
204.8415	0.12	409683	keystroke	a	n/a
205.0065	0.12	410013	keystroke	r	n/a
205.2615	0.105	410523	keystroke	s	n/a
205.3815	0.09	410763	keystroke	Key.space	n/a
205.6515	0.105	411303	keystroke	p	n/a
205.8165	0.09	411633	keystroke	h	n/a
206.0865	0.105	412173	keystroke	a	n/a
206.2365	0.045	412473	keystroke	o	n/a
206.5665	0.06	413133	keystroke	Key.backspace	n/a
206.7465	0.06	413493	keystroke	n	n/a
206.9115	0.075	413823	keystroke	t	n/a
207.0015	0.105	414003	keystroke	o	n/a
207.1965	0.075	414393	keystroke	m	n/a
207.4965	0.105	414993	keystroke	Key.space	n/a
207.8115	0.135	415623	keystroke	c	n/a
207.9475	0.119	415895	keystroke	h	n/a
208.1715	0.105	416343	keystroke	a	n/a
208.3215	0.12	416643	keystroke	p	n/a
208.486	0.0905	416972	keystroke	t	n/a
208.6365	0.15	417273	keystroke	e	n/a
208.7415	0.09	417483	keystroke	r	n/a
208.9365	0.12	417873	keystroke	s	n/a
209.1015	0.1045	418203	keystroke	Key.enter	n/a
209.214	6.2505	418428	prompt	n/a	cabin fires completion company\n
209.7765	0.1345	419553	keystroke	c	n/a
209.896	0.12	419792	keystroke	a	n/a
210.3165	0.09	420633	keystroke	b	n/a
210.4365	0.15	420873	keystroke	i	n/a
210.5115	0.1045	421023	keystroke	n	n/a
210.736	0.1055	421472	keystroke	Key.space	n/a
211.0215	0.09	422043	keystroke	f	n/a
211.1265	0.105	422253	keystroke	i	n/a
211.2165	0.105	422433	keystroke	r	n/a
211.4265	0.105	422853	keystroke	e	n/a
211.6665	0.105	423333	keystroke	s	n/a
211.8015	0.075	423603	keystroke	Key.space	n/a
212.0565	0.12	424113	keystroke	c	n/a
212.1915	0.09	424383	keystroke	o	n/a
212.2515	0.105	424503	keystroke	m	n/a
212.4165	0.105	424833	keystroke	p	n/a
212.5965	0.12	425193	keystroke	l	n/a
212.8965	0.09	425793	keystroke	e	n/a
213.1215	0.075	426243	keystroke	t	n/a
213.5115	0.24	427023	keystroke	i	n/a
213.5865	0.135	427173	keystroke	o	n/a
213.6765	0.105	427353	keystroke	n	n/a
214.0065	0.135	428013	keystroke	Key.space	n/a
214.3515	0.105	428703	keystroke	c	n/a
214.4415	0.135	428883	keystroke	o	n/a
214.5465	0.09	429093	keystroke	m	n/a
214.7115	0.075	429423	keystroke	p	n/a
214.9065	0.09	429813	keystroke	a	n/a
214.9815	0.09	429963	keystroke	n	n/a
215.1615	0.12	430323	keystroke	y	n/a
215.3565	0.105	430713	keystroke	Key.enter	n/a
215.47	6.398	430940	prompt	n/a	chapel antenna buying powers\n
216.2115	0.15	432423	keystroke	c	n/a
216.4515	0.091	432903	keystroke	a	n/a
216.7065	0.075	433413	keystroke	Key.backspace	n/a
216.8865	0.09	433773	keystroke	h	n/a
217.0215	0.105	434043	keystroke	a	n/a
217.2315	0.06	434463	keystroke	p	n/a
218.267	0.104	436534	keystroke	e	n/a
218.373	0.103	436746	keystroke	l	n/a
218.491	0.105	436982	keystroke	Key.space	n/a
218.716	0.105	437432	keystroke	a	n/a
218.836	0.075	437672	keystroke	n	n/a
219.032	0.089	438064	keystroke	t	n/a
219.226	0.075	438452	keystroke	e	n/a
219.346	0.06	438692	keystroke	n	n/a
219.496	0.06	438992	keystroke	n	n/a
219.601	0.12	439202	keystroke	a	n/a
219.751	0.09	439502	keystroke	Key.space	n/a
219.931	0.09	439862	keystroke	b	n/a
220.036	0.09	440072	keystroke	u	n/a
220.171	0.09	440342	keystroke	y	n/a
220.246	0.135	440492	keystroke	i	n/a
220.306	0.12	440612	keystroke	n	n/a
220.441	0.12	440882	keystroke	g	n/a
220.546	0.135	441092	keystroke	Key.space	n/a
220.861	0.0895	441722	keystroke	p	n/a
220.9815	0.15	441963	keystroke	o	n/a
221.1465	0.105	442293	keystroke	w	n/a
221.2665	0.135	442533	keystroke	e	n/a
221.3715	0.075	442743	keystroke	r	n/a
221.5665	0.09	443133	keystroke	s	n/a
221.7465	0.119	443493	keystroke	Key.enter	n/a
221.873	9.3855	443746	prompt	n/a	continent propecia determined looking\n
222.3755	0.106	444751	keystroke	c	n/a
222.5415	0.135	445083	keystroke	o	n/a
222.6315	0.119	445263	keystroke	n	n/a
222.8265	0.12	445653	keystroke	t	n/a
222.9315	0.09	445863	keystroke	i	n/a
223.1715	0.105	446343	keystroke	n	n/a
223.4715	0.12	446943	keystroke	e	n/a
223.6065	0.105	447213	keystroke	n	n/a
223.7115	0.12	447423	keystroke	t	n/a
223.8905	0.121	447781	keystroke	Key.space	n/a
224.1465	0.09	448293	keystroke	p	n/a
224.4465	0.12	448893	keystroke	r	n/a
224.821	0.09	449642	keystroke	o	n/a
225.182	0.074	450364	keystroke	p	n/a
225.271	0.1355	450542	keystroke	e	n/a
225.5415	0.12	451083	keystroke	c	n/a
225.7515	0.105	451503	keystroke	i	n/a
225.8715	0.1045	451743	keystroke	a	n/a
226.051	0.09	452102	keystroke	Key.space	n/a
226.261	0.06	452522	keystroke	d	n/a
226.441	0.06	452882	keystroke	e	n/a
226.606	0.09	453212	keystroke	t	n/a
226.741	0.135	453482	keystroke	e	n/a
226.831	0.105	453662	keystroke	r	n/a
226.981	0.105	453962	keystroke	m	n/a
227.131	0.15	454262	keystroke	i	n/a
227.236	0.0895	454472	keystroke	n	n/a
227.4755	0.106	454951	keystroke	e	n/a
227.6865	0.09	455373	keystroke	d	n/a
227.9105	0.075	455821	keystroke	Key.space	n/a
230.239	0	460478	keystroke	l	n/a
230.356	0.045	460712	keystroke	o	n/a
230.492	0.134	460984	keystroke	o	n/a
230.566	0.0905	461132	keystroke	k	n/a
230.7465	0.135	461493	keystroke	i	n/a
230.8215	0.135	461643	keystroke	n	n/a
230.9115	0.135	461823	keystroke	g	n/a
231.1215	0.135	462243	keystroke	Key.enter	n/a
231.263	8.0955	462526	prompt	n/a	cartridge leslie custom middle\n
231.886	0.135	463772	keystroke	c	n/a
232.036	0.105	464072	keystroke	a	n/a
232.261	0.135	464522	keystroke	t	n/a
232.741	0.06	465482	keystroke	Key.backspace	n/a
232.831	0.075	465662	keystroke	r	n/a
233.011	0.105	466022	keystroke	t	n/a
233.371	0.09	466742	keystroke	r	n/a
233.476	0.105	466952	keystroke	i	n/a
233.611	0.12	467222	keystroke	d	n/a
233.836	0.06	467672	keystroke	g	n/a
233.956	0.135	467912	keystroke	e	n/a
234.301	0.09	468602	keystroke	Key.space	n/a
234.436	0.12	468872	keystroke	l	n/a
234.571	0.105	469142	keystroke	e	n/a
234.796	0.09	469592	keystroke	s	n/a
235.156	0.136	470312	keystroke	l	n/a
235.276	0.09	470552	keystroke	e	n/a
235.426	0.105	470852	keystroke	i	n/a
235.696	0.06	471392	keystroke	Key.backspace	n/a
235.816	0.075	471632	keystroke	Key.backspace	n/a
235.996	0.09	471992	keystroke	i	n/a
236.176	0.15	472352	keystroke	e	n/a
236.521	0.015	473042	keystroke	Key.space	n/a
236.626	0.091	473252	keystroke	c	n/a
236.731	0.09	473462	keystroke	u	n/a
236.837	0.089	473674	keystroke	s	n/a
237.031	0.105	474062	keystroke	t	n/a
237.091	0.15	474182	keystroke	o	n/a
237.196	0.105	474392	keystroke	m	n/a
237.796	0.09	475592	keystroke	Key.space	n/a
238.381	0.09	476762	keystroke	m	n/a
238.486	0.105	476972	keystroke	i	n/a
238.621	0.091	477242	keystroke	d	n/a
238.771	0.091	477542	keystroke	d	n/a
238.936	0.12	477872	keystroke	l	n/a
239.042	0.089	478084	keystroke	e	n/a
239.266	0.09	478532	keystroke	Key.enter	n/a
239.363	8.35	478726	prompt	n/a	rhythm graham biography boxes\n
240.121	0.105	480242	keystroke	r	n/a
240.362	0.1045	480724	keystroke	y	n/a
240.841	0.0595	481682	keystroke	Key.backspace	n/a
241.0205	0.09	482041	keystroke	h	n/a
241.1555	0.106	482311	keystroke	y	n/a
241.3815	0.119	482763	keystroke	t	n/a
241.5155	0.105	483031	keystroke	h	n/a
241.8305	0.075	483661	keystroke	e	n/a
242.1005	0.091	484201	keystroke	Key.backspace	n/a
242.296	0.09	484592	keystroke	m	n/a
242.416	0.09	484832	keystroke	Key.space	n/a
242.551	0.105	485102	keystroke	g	n/a
243.031	0.06	486062	keystroke	r	n/a
243.211	0.12	486422	keystroke	a	n/a
243.436	0.09	486872	keystroke	h	n/a
243.616	0.135	487232	keystroke	a	n/a
243.736	0.105	487472	keystroke	m	n/a
244.036	0.105	488072	keystroke	Key.space	n/a
244.381	0.075	488762	keystroke	b	n/a
244.6065	0.09	489213	keystroke	i	n/a
244.7865	0.09	489573	keystroke	o	n/a
244.9965	0.075	489993	keystroke	g	n/a
245.1765	0.075	490353	keystroke	r	n/a
245.3865	0.105	490773	keystroke	a	n/a
245.687	0.1045	491374	keystroke	p	n/a
245.8965	0.09	491793	keystroke	h	n/a
246.0315	0.135	492063	keystroke	y	n/a
246.3765	0.105	492753	keystroke	Key.space	n/a
246.706	0.09	493412	keystroke	b	n/a
246.811	0.12	493622	keystroke	o	n/a
246.931	0.0605	493862	keystroke	x	n/a
247.306	0.0605	494612	keystroke	e	n/a
247.441	0.1205	494882	keystroke	s	n/a
247.591	0.12	495182	keystroke	Key.enter	n/a
247.7215	10.7915	495443	prompt	n/a	issued resistant attempts centuries\n
248.236	0.1055	496472	keystroke	i	n/a
248.3265	0.075	496653	keystroke	s	n/a
248.4765	0.12	496953	keystroke	s	n/a
248.8365	0.09	497673	keystroke	u	n/a
248.9415	0.075	497883	keystroke	e	n/a
249.3165	0.12	498633	keystroke	d	n/a
249.5115	0.105	499023	keystroke	Key.space	n/a
249.7365	0.09	499473	keystroke	r	n/a
249.9165	0.09	499833	keystroke	e	n/a
250.2315	0.075	500463	keystroke	s	n/a
250.3665	0.105	500733	keystroke	i	n/a
250.5465	0.075	501093	keystroke	s	n/a
251.131	0.09	502262	keystroke	t	n/a
251.611	0.135	503222	keystroke	a	n/a
251.731	0.12	503462	keystroke	n	n/a
251.986	0.105	503972	keystroke	t	n/a
252.136	0.075	504272	keystroke	Key.space	n/a
252.361	0.075	504722	keystroke	a	n/a
252.526	0.06	505052	keystroke	t	n/a
252.676	0.06	505352	keystroke	t	n/a
252.841	0.09	505682	keystroke	e	n/a
253.111	0.06	506222	keystroke	m	n/a
253.336	0.09	506672	keystroke	p	n/a
253.456	0.06	506912	keystroke	s	n/a
253.7115	0.09	507423	keystroke	t	n/a
254.0565	0.045	508113	keystroke	Key.backspace	n/a
254.2505	0.045	508501	keystroke	Key.backspace	n/a
254.4155	0.091	508831	keystroke	t	n/a
254.6415	0.104	509283	keystroke	s	n/a
254.7605	0.105	509521	keystroke	Key.space	n/a
255.0755	0.09	510151	keystroke	c	n/a
255.3165	0.104	510633	keystroke	e	n/a
255.4665	0.09	510933	keystroke	n	n/a
255.6905	0.091	511381	keystroke	t	n/a
255.9015	0.12	511803	keystroke	r	n/a
256.3065	0.06	512613	keystroke	Key.backspace	n/a
256.5015	0.06	513003	keystroke	u	n/a
257.026	0.135	514052	keystroke	r	n/a
257.956	0.09	515912	keystroke	i	n/a
258.016	0.09	516032	keystroke	e	n/a
258.181	0.12	516362	keystroke	s	n/a
258.406	0.105	516812	keystroke	Key.enter	n/a
258.518	9.0855	517036	prompt	n/a	overseas modern structure introducing\n
259.126	0.091	518252	keystroke	o	n/a
259.261	0.06	518522	keystroke	s	n/a
259.6515	0.075	519303	keystroke	Key.backspace	n/a
259.7565	0.06	519513	keystroke	v	n/a
259.8765	0.15	519753	keystroke	e	n/a
260.0115	0.105	520023	keystroke	r	n/a
260.2215	0.075	520443	keystroke	s	n/a
260.3565	0.105	520713	keystroke	e	n/a
260.5065	0.165	521013	keystroke	a	n/a
260.7315	0.09	521463	keystroke	s	n/a
260.8515	0.105	521703	keystroke	Key.space	n/a
261.0615	0.105	522123	keystroke	m	n/a
261.2115	0.09	522423	keystroke	o	n/a
261.3315	0.09	522663	keystroke	d	n/a
261.5115	0.105	523023	keystroke	e	n/a
261.7815	0.075	523563	keystroke	n	n/a
262.0665	0.075	524133	keystroke	Key.backspace	n/a
262.1715	0.135	524343	keystroke	r	n/a
262.2915	0.105	524583	keystroke	n	n/a
262.4415	0.105	524883	keystroke	Key.space	n/a
262.7565	0.075	525513	keystroke	s	n/a
263.0115	0.075	526023	keystroke	t	n/a
263.2065	0.09	526413	keystroke	r	n/a
263.2975	0.1035	526595	keystroke	u	n/a
263.491	0.105	526982	keystroke	c	n/a
263.731	0.09	527462	keystroke	t	n/a
263.956	0.09	527912	keystroke	u	n/a
264.061	0.09	528122	keystroke	r	n/a
264.286	0.06	528572	keystroke	e	n/a
264.8265	0.075	529653	keystroke	Key.space	n/a
265.0065	0.12	530013	keystroke	i	n/a
265.0965	0.105	530193	keystroke	n	n/a
265.6665	0.075	531333	keystroke	t	n/a
265.8465	0.075	531693	keystroke	r	n/a
265.9365	0.12	531873	keystroke	o	n/a
266.2365	0.135	532473	keystroke	d	n/a
266.4015	0.06	532803	keystroke	u	n/a
266.731	0.105	533462	keystroke	c	n/a
266.821	0.165	533642	keystroke	i	n/a
266.941	0.0905	533882	keystroke	n	n/a
267.0615	0.09	534123	keystroke	g	n/a
267.5115	0.09	535023	keystroke	Key.enter	n/a
267.608	7.5425	535216	prompt	n/a	transmit committee printers suites\n
268.1715	0.09	536343	keystroke	t	n/a
268.3365	0.06	536673	keystroke	r	n/a
268.5315	0.105	537063	keystroke	a	n/a
268.6515	0.06	537303	keystroke	n	n/a
268.7265	0.09	537453	keystroke	s	n/a
269.282	0.105	538564	keystroke	m	n/a
269.401	0.121	538802	keystroke	i	n/a
269.507	0.119	539014	keystroke	t	n/a
269.656	0.105	539312	keystroke	Key.space	n/a
269.942	0.1045	539884	keystroke	c	n/a
270.002	0.1345	540004	keystroke	o	n/a
270.2265	0.09	540453	keystroke	m	n/a
270.7065	0.075	541413	keystroke	m	n/a
270.8565	0.12	541713	keystroke	i	n/a
270.9915	0.105	541983	keystroke	t	n/a
271.4715	0.075	542943	keystroke	t	n/a
271.6365	0.075	543273	keystroke	e	n/a
271.8015	0.105	543603	keystroke	e	n/a
271.8765	0.135	543753	keystroke	Key.space	n/a
272.1765	0.075	544353	keystroke	p	n/a
272.3115	0.09	544623	keystroke	r	n/a
272.3715	0.15	544743	keystroke	i	n/a
272.4465	0.15	544893	keystroke	n	n/a
272.5815	0.075	545163	keystroke	t	n/a
272.7465	0.15	545493	keystroke	e	n/a
272.9115	0.06	545823	keystroke	r	n/a
273.1065	0.105	546213	keystroke	s	n/a
273.2415	0.075	546483	keystroke	Key.space	n/a
273.4815	0.105	546963	keystroke	s	n/a
273.6015	0.075	547203	keystroke	u	n/a
273.7215	0.0745	547443	keystroke	t	n/a
273.812	0.12	547624	keystroke	i	n/a
274.111	0.06	548222	keystroke	Key.backspace	n/a
274.2465	0.075	548493	keystroke	Key.backspace	n/a
274.4265	0.105	548853	keystroke	i	n/a
274.5465	0.09	549093	keystroke	t	n/a
274.7115	0.09	549423	keystroke	e	n/a
274.9065	0.09	549813	keystroke	s	n/a
275.0115	0.135	550023	keystroke	Key.enter	n/a
275.1555	8.678	550311	prompt	n/a	resolution looks traveler fundamentals\n
275.687	0.089	551374	keystroke	r	n/a
275.866	0.09	551732	keystroke	e	n/a
276.121	0.09	552242	keystroke	s	n/a
276.406	0.105	552812	keystroke	o	n/a
276.616	0.09	553232	keystroke	l	n/a
276.826	0.075	553652	keystroke	u	n/a
277.081	0.03	554162	keystroke	t	n/a
277.096	0.21	554192	keystroke	i	n/a
277.126	0.135	554252	keystroke	o	n/a
277.201	0.135	554402	keystroke	n	n/a
277.8465	0.09	555693	keystroke	Key.space	n/a
278.0115	0.0755	556023	keystroke	l	n/a
278.192	0.06	556384	keystroke	o	n/a
278.326	0.106	556652	keystroke	o	n/a
278.371	0.105	556742	keystroke	k	n/a
278.537	0.12	557074	keystroke	s	n/a
278.641	0.105	557282	keystroke	Key.space	n/a
278.942	0.074	557884	keystroke	t	n/a
279.107	0.09	558214	keystroke	r	n/a
279.287	0.134	558574	keystroke	a	n/a
279.512	0.075	559024	keystroke	v	n/a
279.647	0.074	559294	keystroke	e	n/a
280.021	0.136	560042	keystroke	l	n/a
280.246	0.12	560492	keystroke	e	n/a
280.427	0.074	560854	keystroke	r	n/a
280.561	0.091	561122	keystroke	Key.space	n/a
280.666	0.121	561332	keystroke	f	n/a
280.862	0.09	561724	keystroke	u	n/a
281.102	0.089	562204	keystroke	n	n/a
281.551	0.106	563102	keystroke	d	n/a
281.807	0.105	563614	keystroke	a	n/a
282.017	0.104	564034	keystroke	m	n/a
282.151	0.12	564302	keystroke	e	n/a
282.287	0.09	564574	keystroke	n	n/a
282.421	0.075	564842	keystroke	t	n/a
282.617	0.0895	565234	keystroke	a	n/a
282.886	0.075	565772	keystroke	Key.backspace	n/a
283.171	0.12	566342	keystroke	a	n/a
283.261	0.135	566522	keystroke	l	n/a
283.381	0.09	566762	keystroke	s	n/a
283.711	0.12	567422	keystroke	Key.enter	n/a
283.8385	7.18	567677	prompt	n/a	virtue raid legislative resistant\n
284.386	0.09	568772	keystroke	v	n/a
284.536	0.09	569072	keystroke	i	n/a
284.926	0.09	569852	keystroke	r	n/a
285.226	0.075	570452	keystroke	t	n/a
285.361	0.09	570722	keystroke	u	n/a
285.466	0.135	570932	keystroke	e	n/a
285.7365	0.12	571473	keystroke	Key.space	n/a
286.1565	0.09	572313	keystroke	r	n/a
286.3515	0.12	572703	keystroke	a	n/a
286.5915	0.09	573183	keystroke	i	n/a
286.6965	0.12	573393	keystroke	d	n/a
286.8315	0.06	573663	keystroke	Key.space	n/a
287.0115	0.12	574023	keystroke	l	n/a
287.1465	0.09	574293	keystroke	e	n/a
287.2815	0.105	574563	keystroke	g	n/a
287.4615	0.105	574923	keystroke	i	n/a
287.5815	0.09	575163	keystroke	s	n/a
287.912	0.15	575824	keystroke	l	n/a
288.092	0.09	576184	keystroke	a	n/a
288.257	0.09	576514	keystroke	t	n/a
288.332	0.12	576664	keystroke	i	n/a
288.452	0.09	576904	keystroke	v	n/a
288.617	0.12	577234	keystroke	e	n/a
288.871	0.106	577742	keystroke	Key.space	n/a
289.157	0.0745	578314	keystroke	r	n/a
289.276	0.136	578552	keystroke	e	n/a
289.532	0.089	579064	keystroke	s	n/a
289.666	0.105	579332	keystroke	i	n/a
289.772	0.104	579544	keystroke	s	n/a
290.087	0.075	580174	keystroke	t	n/a
290.521	0.12	581042	keystroke	a	n/a
290.657	0.074	581314	keystroke	n	n/a
290.761	0.1055	581522	keystroke	t	n/a
290.8965	0.12	581793	keystroke	Key.enter	n/a
291.0245	6.024	582049	prompt	n/a	navigate jeans another seeks\n
291.6015	0.09	583203	keystroke	n	n/a
291.7065	0.09	583413	keystroke	a	n/a
292.0965	0.06	584193	keystroke	g	n/a
292.3515	0.06	584703	keystroke	Key.backspace	n/a
292.5165	0.105	585033	keystroke	v	n/a
292.6065	0.105	585213	keystroke	i	n/a
292.8015	0.105	585603	keystroke	g	n/a
293.0415	0.075	586083	keystroke	a	n/a
293.2815	0.075	586563	keystroke	t	n/a
293.4465	0.135	586893	keystroke	e	n/a
293.9265	0.0755	587853	keystroke	Key.space	n/a
294.196	0.075	588392	keystroke	j	n/a
294.287	0.075	588574	keystroke	e	n/a
294.421	0.12	588842	keystroke	a	n/a
294.527	0.089	589054	keystroke	n	n/a
294.601	0.136	589202	keystroke	s	n/a
294.721	0.105	589442	keystroke	Key.space	n/a
294.991	0.12	589982	keystroke	a	n/a
295.096	0.135	590192	keystroke	n	n/a
295.307	0.074	590614	keystroke	o	n/a
295.486	0.06	590972	keystroke	t	n/a
295.606	0.09	591212	keystroke	h	n/a
295.666	0.166	591332	keystroke	e	n/a
295.801	0.12	591602	keystroke	r	n/a
295.966	0.075	591932	keystroke	Key.space	n/a
296.296	0.09	592592	keystroke	s	n/a
296.462	0.0595	592924	keystroke	e	n/a
296.5965	0.075	593193	keystroke	e	n/a
296.6415	0.12	593283	keystroke	k	n/a
296.7765	0.12	593553	keystroke	s	n/a
296.9265	0.12	593853	keystroke	Key.enter	n/a
297.054	5.275	594108	prompt	n/a	programs occurs grant mean\n
297.6165	0.075	595233	keystroke	p	n/a
297.7815	0.105	595563	keystroke	r	n/a
297.8415	0.105	595683	keystroke	o	n/a
298.0065	0.09	596013	keystroke	g	n/a
298.2465	0.105	596493	keystroke	r	n/a
298.4265	0.12	596853	keystroke	a	n/a
298.5765	0.09	597153	keystroke	m	n/a
298.6365	0.105	597273	keystroke	s	n/a
298.7565	0.075	597513	keystroke	Key.space	n/a
299.0415	0.105	598083	keystroke	o	n/a
299.1615	0.09	598323	keystroke	c	n/a
299.3415	0.075	598683	keystroke	c	n/a
299.4765	0.105	598953	keystroke	u	n/a
299.5965	0.075	599193	keystroke	r	n/a
299.7915	0.12	599583	keystroke	s	n/a
299.9265	0.1055	599853	keystroke	Key.space	n/a
300.302	0.075	600604	keystroke	g	n/a
300.496	0.076	600992	keystroke	r	n/a
300.647	0.06	601294	keystroke	i	n/a
301.081	0.06	602162	keystroke	Key.backspace	n/a
301.157	0.1045	602314	keystroke	a	n/a
301.276	0.0755	602552	keystroke	n	n/a
301.3665	0.1205	602733	keystroke	t	n/a
301.5315	0.105	603063	keystroke	Key.space	n/a
301.7415	0.09	603483	keystroke	m	n/a
301.8165	0.12	603633	keystroke	e	n/a
301.9815	0.075	603963	keystroke	a	n/a
302.0115	0.105	604023	keystroke	n	n/a
302.2215	0.105	604443	keystroke	Key.enter	n/a
302.334	8.5445	604668	prompt	n/a	commerce replace plaintiff ntsc\n
302.9265	0.0905	605853	keystroke	c	n/a
303.002	0.104	606004	keystroke	o	n/a
303.181	0.046	606362	keystroke	m	n/a
303.317	0.075	606634	keystroke	m	n/a
303.436	0.121	606872	keystroke	e	n/a
303.602	0.089	607204	keystroke	r	n/a
303.842	0.0895	607684	keystroke	c	n/a
304.0365	0.091	608073	keystroke	e	n/a
304.141	0.09	608282	keystroke	Key.space	n/a
304.291	0.121	608582	keystroke	r	n/a
304.396	0.105	608792	keystroke	e	n/a
304.516	0.09	609032	keystroke	p	n/a
304.681	0.1205	609362	keystroke	l	n/a
304.8315	0.09	609663	keystroke	a	n/a
304.9965	0.105	609993	keystroke	c	n/a
305.2215	0.09	610443	keystroke	e	n/a
305.3565	0.075	610713	keystroke	Key.space	n/a
305.7615	0.105	611523	keystroke	p	n/a
305.8965	0.1055	611793	keystroke	a	n/a
306.091	0.091	612182	keystroke	n	n/a
306.841	0.061	613682	keystroke	Key.backspace	n/a
306.991	0.0755	613982	keystroke	Key.backspace	n/a
307.2315	0.105	614463	keystroke	l	n/a
307.3965	0.135	614793	keystroke	a	n/a
307.5165	0.1355	615033	keystroke	i	n/a
307.622	0.06	615244	keystroke	n	n/a
308.4765	0.09	616953	keystroke	t	n/a
308.5965	0.105	617193	keystroke	i	n/a
308.7165	0.03	617433	keystroke	f	n/a
308.8365	0.105	617673	keystroke	f	n/a
309.0015	0.135	618003	keystroke	Key.space	n/a
309.4815	0.09	618963	keystroke	n	n/a
309.736	0.09	619472	keystroke	t	n/a
310.216	0.075	620432	keystroke	s	n/a
310.426	0.105	620852	keystroke	c	n/a
310.756	0.12	621512	keystroke	Key.enter	n/a
310.8825	7.9915	621765	prompt	n/a	pencil facial bias flexibility\n
311.5515	0.0305	623103	keystroke	p	n/a
311.777	0.105	623554	keystroke	e	n/a
311.866	0.105	623732	keystroke	n	n/a
312.017	0.1045	624034	keystroke	s	n/a
312.3015	0.06	624603	keystroke	Key.backspace	n/a
312.3765	0.105	624753	keystroke	c	n/a
312.4965	0.075	624993	keystroke	i	n/a
312.6765	0.09	625353	keystroke	l	n/a
312.8565	0.105	625713	keystroke	Key.space	n/a
313.5615	0.06	627123	keystroke	f	n/a
313.696	0.12	627392	keystroke	a	n/a
313.982	0.075	627964	keystroke	i	n/a
314.102	0.09	628204	keystroke	c	n/a
314.3865	0.06	628773	keystroke	Key.backspace	n/a
314.5215	0.06	629043	keystroke	Key.backspace	n/a
314.5965	0.12	629193	keystroke	c	n/a
314.7015	0.075	629403	keystroke	i	n/a
314.8065	0.09	629613	keystroke	a	n/a
314.9115	0.1045	629823	keystroke	l	n/a
315.136	0.09	630272	keystroke	Key.space	n/a
315.527	0.06	631054	keystroke	b	n/a
315.616	0.105	631232	keystroke	i	n/a
315.722	0.12	631444	keystroke	a	n/a
316.067	0.0895	632134	keystroke	s	n/a
316.3965	0.075	632793	keystroke	Key.space	n/a
316.6215	0.075	633243	keystroke	f	n/a
316.7265	0.09	633453	keystroke	l	n/a
316.8015	0.09	633603	keystroke	e	n/a
317.0265	0.09	634053	keystroke	x	n/a
317.3715	0.105	634743	keystroke	i	n/a
317.6265	0.106	635253	keystroke	b	n/a
317.882	0.089	635764	keystroke	i	n/a
318.062	0.15	636124	keystroke	l	n/a
318.182	0.12	636364	keystroke	i	n/a
318.362	0.105	636724	keystroke	t	n/a
318.602	0.089	637204	keystroke	y	n/a
318.752	0.119	637504	keystroke	Key.enter	n/a
318.879	11.439	637758	prompt	n/a	endorsed melbourne element mouse\n
319.457	0.105	638914	keystroke	e	n/a
319.577	0.1045	639154	keystroke	n	n/a
319.8765	0.105	639753	keystroke	d	n/a
319.9965	0.119	639993	keystroke	o	n/a
320.1165	0.075	640233	keystroke	r	n/a
320.3105	0.076	640621	keystroke	s	n/a
320.4465	0.075	640893	keystroke	e	n/a
320.6115	0.12	641223	keystroke	d	n/a
320.7165	0.119	641433	keystroke	Key.space	n/a
320.8965	0.119	641793	keystroke	m	n/a
320.9865	0.104	641973	keystroke	e	n/a
321.1065	0.09	642213	keystroke	l	n/a
321.3315	0.09	642663	keystroke	p	n/a
321.6615	0.075	643323	keystroke	Key.backspace	n/a
321.8115	0.105	643623	keystroke	b	n/a
322.3815	0.105	644763	keystroke	o	n/a
322.6365	0.105	645273	keystroke	u	n/a
322.8615	0.09	645723	keystroke	r	n/a
323.0565	0.06	646113	keystroke	n	n/a
323.1615	0.12	646323	keystroke	e	n/a
323.4155	0.09	646831	keystroke	Key.space	n/a
323.5955	0.076	647191	keystroke	e	n/a
323.6865	0.09	647373	keystroke	l	n/a
323.7905	0.091	647581	keystroke	e	n/a
324.5265	0.059	649053	keystroke	Key.backspace	n/a
324.6605	0.075	649321	keystroke	Key.backspace	n/a
324.7805	0.09	649561	keystroke	Key.backspace	n/a
328.534	0.057	657068	keystroke	e	n/a
328.606	0.12	657212	keystroke	l	n/a
328.711	0.09	657422	keystroke	e	n/a
329.011	0.09	658022	keystroke	m	n/a
329.116	0.06	658232	keystroke	e	n/a
329.206	0.09	658412	keystroke	n	n/a
329.297	0.104	658594	keystroke	t	n/a
329.386	0.12	658772	keystroke	Key.space	n/a
329.521	0.12	659042	keystroke	m	n/a
329.656	0.12	659312	keystroke	o	n/a
329.821	0.09	659642	keystroke	u	n/a
329.896	0.09	659792	keystroke	s	n/a
330.061	0.105	660122	keystroke	e	n/a
330.211	0.105	660422	keystroke	Key.enter	n/a
330.3235	5.289	660647	prompt	n/a	marina foot goto extras\n
331.036	0.12	662072	keystroke	m	n/a
331.171	0.09	662342	keystroke	a	n/a
331.426	0.075	662852	keystroke	r	n/a
331.516	0.09	663032	keystroke	i	n/a
331.696	0.0905	663392	keystroke	a	n/a
331.8315	0.03	663663	keystroke	n	n/a
332.0105	0.061	664021	keystroke	Key.backspace	n/a
332.1615	0.045	664323	keystroke	Key.backspace	n/a
332.3265	0.075	664653	keystroke	n	n/a
332.4615	0.105	664923	keystroke	a	n/a
332.6105	0.061	665221	keystroke	Key.space	n/a
332.8965	0.045	665793	keystroke	f	n/a
332.9565	0.045	665913	keystroke	o	n/a
333.0765	0.105	666153	keystroke	o	n/a
333.1965	0.075	666393	keystroke	t	n/a
333.2865	0.104	666573	keystroke	Key.space	n/a
333.5565	0.075	667113	keystroke	g	n/a
333.6465	0.09	667293	keystroke	o	n/a
333.9165	0.105	667833	keystroke	t	n/a
334.081	0.09	668162	keystroke	o	n/a
334.261	0.09	668522	keystroke	Key.space	n/a
334.426	0.09	668852	keystroke	e	n/a
334.652	0.089	669304	keystroke	x	n/a
334.861	0.075	669722	keystroke	t	n/a
334.996	0.075	669992	keystroke	r	n/a
335.176	0.12	670352	keystroke	a	n/a
335.311	0.105	670622	keystroke	s	n/a
335.476	0.135	670952	keystroke	Key.enter	n/a
335.6205	8.767	671241	prompt	n/a	resident password promising exact\n
336.346	0.1055	672692	keystroke	e	n/a
336.7205	0.091	673441	keystroke	Key.backspace	n/a
336.8265	0.135	673653	keystroke	r	n/a
337.0215	0.12	674043	keystroke	e	n/a
337.2465	0.12	674493	keystroke	s	n/a
337.3965	0.105	674793	keystroke	i	n/a
338.3265	0.059	676653	keystroke	d	n/a
338.5215	0.105	677043	keystroke	e	n/a
338.6415	0.12	677283	keystroke	n	n/a
338.7465	0.09	677493	keystroke	t	n/a
339.0755	0.105	678151	keystroke	Key.space	n/a
339.271	0.12	678542	keystroke	p	n/a
339.361	0.135	678722	keystroke	a	n/a
339.436	0.075	678872	keystroke	s	n/a
339.601	0.0605	679202	keystroke	s	n/a
339.871	0.09	679742	keystroke	o	n/a
339.991	0.105	679982	keystroke	w	n/a
340.291	0.045	680582	keystroke	Key.backspace	n/a
340.396	0.075	680792	keystroke	Key.backspace	n/a
340.486	0.106	680972	keystroke	w	n/a
340.606	0.105	681212	keystroke	o	n/a
340.696	0.12	681392	keystroke	r	n/a
340.996	0.105	681992	keystroke	d	n/a
341.191	0.105	682382	keystroke	Key.space	n/a
341.611	0.075	683222	keystroke	p	n/a
341.746	0.09	683492	keystroke	r	n/a
341.837	0.074	683674	keystroke	o	n/a
341.986	0.105	683972	keystroke	m	n/a
342.151	0.105	684302	keystroke	i	n/a
342.406	0.12	684812	keystroke	s	n/a
342.631	0.135	685262	keystroke	i	n/a
342.721	0.105	685442	keystroke	n	n/a
342.827	0.134	685654	keystroke	g	n/a
343.111	0.06	686222	keystroke	Key.space	n/a
343.3215	0.09	686643	keystroke	e	n/a
343.5615	0.09	687123	keystroke	x	n/a
343.7715	0.105	687543	keystroke	a	n/a
343.8605	0.106	687721	keystroke	c	n/a
344.1015	0.0895	688203	keystroke	t	n/a
344.2665	0.119	688533	keystroke	Key.enter	n/a
344.3925	6.37	688785	prompt	n/a	clients arrival hard translator\n
344.9565	0.09	689913	keystroke	c	n/a
345.1655	0.091	690331	keystroke	l	n/a
345.3465	0.09	690693	keystroke	i	n/a
345.4665	0.105	690933	keystroke	e	n/a
345.6315	0.09	691263	keystroke	n	n/a
345.7065	0.09	691413	keystroke	t	n/a
345.9315	0.12	691863	keystroke	s	n/a
346.0665	0.105	692133	keystroke	Key.space	n/a
346.441	0.09	692882	keystroke	a	n/a
346.606	0.06	693212	keystroke	r	n/a
346.741	0.09	693482	keystroke	r	n/a
346.861	0.105	693722	keystroke	i	n/a
346.951	0.09	693902	keystroke	v	n/a
347.341	0.075	694682	keystroke	a	n/a
347.566	0.105	695132	keystroke	l	n/a
347.716	0.09	695432	keystroke	Key.space	n/a
348.001	0.09	696002	keystroke	h	n/a
348.076	0.06	696152	keystroke	a	n/a
348.211	0.075	696422	keystroke	r	n/a
348.391	0.12	696782	keystroke	d	n/a
348.526	0.09	697052	keystroke	Key.space	n/a
348.781	0.06	697562	keystroke	t	n/a
348.916	0.105	697832	keystroke	r	n/a
349.111	0.12	698222	keystroke	a	n/a
349.261	0.045	698522	keystroke	n	n/a
349.321	0.105	698642	keystroke	s	n/a
349.726	0.12	699452	keystroke	l	n/a
349.861	0.135	699722	keystroke	a	n/a
350.116	0.105	700232	keystroke	t	n/a
350.251	0.12	700502	keystroke	o	n/a
350.416	0.09	700832	keystroke	r	n/a
350.656	0.105	701312	keystroke	Key.enter	n/a
350.767	13.992	701534	prompt	n/a	senator connecticut transferred manufacturer\n
351.331	0.12	702662	keystroke	a	n/a
351.646	0.06	703292	keystroke	Key.backspace	n/a
351.736	0.045	703472	keystroke	s	n/a
351.871	0.105	703742	keystroke	e	n/a
351.991	0.09	703982	keystroke	n	n/a
352.6365	0.075	705273	keystroke	a	n/a
352.8315	0.09	705663	keystroke	t	n/a
352.9515	0.105	705903	keystroke	o	n/a
353.0715	0.09	706143	keystroke	r	n/a
353.1915	0.105	706383	keystroke	Key.space	n/a
353.461	0.1055	706922	keystroke	c	n/a
353.5515	0.1045	707103	keystroke	o	n/a
353.641	0.06	707282	keystroke	n	n/a
353.776	0.09	707552	keystroke	n	n/a
353.881	0.075	707762	keystroke	e	n/a
354.0915	0.0745	708183	keystroke	c	n/a
354.301	0.105	708602	keystroke	t	n/a
354.4365	0.1195	708873	keystroke	i	n/a
354.946	0.0605	709892	keystroke	u	n/a
355.186	0.135	710372	keystroke	c	n/a
355.3965	0.059	710793	keystroke	Key.backspace	n/a
355.5305	0.06	711061	keystroke	Key.backspace	n/a
355.6065	0.105	711213	keystroke	c	n/a
355.7115	0.104	711423	keystroke	u	n/a
355.8615	0.135	711723	keystroke	t	n/a
356.3255	0.09	712651	keystroke	Key.space	n/a
356.4165	0.09	712833	keystroke	t	n/a
356.6105	0.105	713221	keystroke	r	n/a
356.8655	0.075	713731	keystroke	Key.backspace	n/a
357.0155	0.075	714031	keystroke	Key.backspace	n/a
358.7715	0.09	717543	keystroke	Key.backspace	n/a
359.2215	0.104	718443	keystroke	Key.space	n/a
359.4605	0.075	718921	keystroke	t	n/a
359.6105	0.075	719221	keystroke	r	n/a
359.7905	0.105	719581	keystroke	a	n/a
359.8965	0.089	719793	keystroke	n	n/a
359.9715	0.089	719943	keystroke	s	n/a
360.1805	0.105	720361	keystroke	f	n/a
360.421	0.09	720842	keystroke	e	n/a
360.586	0.06	721172	keystroke	r	n/a
360.751	0.075	721502	keystroke	r	n/a
360.886	0.09	721772	keystroke	e	n/a
361.141	0.1195	722282	keystroke	d	n/a
361.2755	0.105	722551	keystroke	Key.space	n/a
361.4405	0.106	722881	keystroke	n	n/a
361.6055	0.105	723211	keystroke	a	n/a
362.1905	0.0605	724381	keystroke	Key.backspace	n/a
362.311	0.09	724622	keystroke	Key.backspace	n/a
362.521	0.075	725042	keystroke	m	n/a
362.671	0.075	725342	keystroke	a	n/a
362.731	0.075	725462	keystroke	n	n/a
362.956	0.075	725912	keystroke	u	n/a
363.181	0.09	726362	keystroke	f	n/a
363.331	0.105	726662	keystroke	a	n/a
363.496	0.105	726992	keystroke	c	n/a
363.736	0.09	727472	keystroke	t	n/a
363.916	0.105	727832	keystroke	u	n/a
364.036	0.09	728072	keystroke	r	n/a
364.261	0.135	728522	keystroke	e	n/a
364.411	0.075	728822	keystroke	r	n/a
364.636	0.12	729272	keystroke	Key.enter	n/a
364.7635	5.755	729527	prompt	n/a	kick may settlement linking\n
365.476	0.075	730952	keystroke	k	n/a
365.611	0.105	731222	keystroke	i	n/a
365.701	0.105	731402	keystroke	c	n/a
365.836	0.105	731672	keystroke	k	n/a
365.986	0.105	731972	keystroke	Key.space	n/a
366.226	0.105	732452	keystroke	m	n/a
366.316	0.09	732632	keystroke	a	n/a
366.586	0.105	733172	keystroke	y	n/a
366.781	0.12	733562	keystroke	Key.space	n/a
367.066	0.105	734132	keystroke	s	n/a
367.246	0.105	734492	keystroke	e	n/a
367.396	0.09	734792	keystroke	t	n/a
367.576	0.09	735152	keystroke	t	n/a
367.681	0.12	735362	keystroke	l	n/a
367.771	0.12	735542	keystroke	e	n/a
367.996	0.105	735992	keystroke	m	n/a
368.102	0.074	736204	keystroke	e	n/a
368.221	0.075	736442	keystroke	n	n/a
368.281	0.105	736562	keystroke	t	n/a
368.401	0.105	736802	keystroke	Key.space	n/a
368.491	0.105	736982	keystroke	k	n/a
368.851	0.06	737702	keystroke	=	n/a
369.091	0.075	738182	keystroke	Key.backspace	n/a
369.226	0.075	738452	keystroke	Key.backspace	n/a
369.451	0.1505	738902	keystroke	l	n/a
369.556	0.12	739112	keystroke	i	n/a
369.706	0.135	739412	keystroke	n	n/a
369.766	0.09	739532	keystroke	k	n/a
369.946	0.135	739892	keystroke	i	n/a
370.006	0.135	740012	keystroke	n	n/a
370.111	0.135	740222	keystroke	g	n/a
370.396	0.12	740792	keystroke	Key.enter	n/a
370.5235	7.54	741047	prompt	n/a	instructor seafood uploaded contribution\n
371.191	0.105	742382	keystroke	i	n/a
371.386	0.09	742772	keystroke	n	n/a
371.491	0.105	742982	keystroke	s	n/a
371.671	0.09	743342	keystroke	t	n/a
371.851	0.09	743702	keystroke	r	n/a
371.971	0.105	743942	keystroke	u	n/a
372.121	0.105	744242	keystroke	c	n/a
372.346	0.105	744692	keystroke	t	n/a
372.466	0.12	744932	keystroke	o	n/a
372.601	0.105	745202	keystroke	r	n/a
372.827	0.104	745654	keystroke	Key.space	n/a
373.096	0.075	746192	keystroke	s	n/a
373.246	0.09	746492	keystroke	e	n/a
373.426	0.09	746852	keystroke	a	n/a
373.696	0.09	747392	keystroke	f	n/a
374.011	0.075	748022	keystroke	o	n/a
374.191	0.045	748382	keystroke	o	n/a
374.251	0.12	748502	keystroke	d	n/a
374.461	0.105	748922	keystroke	Key.space	n/a
374.686	0.075	749372	keystroke	u	n/a
374.866	0.105	749732	keystroke	p	n/a
375.046	0.105	750092	keystroke	l	n/a
375.256	0.09	750512	keystroke	o	n/a
375.361	0.135	750722	keystroke	a	n/a
375.481	0.09	750962	keystroke	d	n/a
375.691	0.09	751382	keystroke	e	n/a
375.916	0.12	751832	keystroke	d	n/a
376.036	0.12	752072	keystroke	Key.space	n/a
376.246	0.12	752492	keystroke	c	n/a
376.381	0.12	752762	keystroke	o	n/a
376.471	0.075	752942	keystroke	n	n/a
376.651	0.075	753302	keystroke	t	n/a
376.831	0.15	753662	keystroke	r	n/a
376.936	0.105	753872	keystroke	i	n/a
377.071	0.12	754142	keystroke	b	n/a
377.236	0.075	754472	keystroke	u	n/a
377.476	0.075	754952	keystroke	t	n/a
377.521	0.2555	755042	keystroke	i	n/a
377.581	0.165	755162	keystroke	o	n/a
377.656	0.1355	755312	keystroke	n	n/a
377.9715	0.09	755943	keystroke	Key.enter	n/a
378.069	6.8795	756138	prompt	n/a	expenditure running rome enjoy\n
378.6165	0.09	757233	keystroke	e	n/a
378.8265	0.105	757653	keystroke	x	n/a
378.9915	0.075	757983	keystroke	p	n/a
379.0815	0.12	758163	keystroke	e	n/a
379.2165	0.09	758433	keystroke	n	n/a
379.5015	0.09	759003	keystroke	d	n/a
379.6215	0.105	759243	keystroke	i	n/a
379.8465	0.075	759693	keystroke	t	n/a
379.9665	0.09	759933	keystroke	u	n/a
380.0265	0.12	760053	keystroke	r	n/a
380.2065	0.12	760413	keystroke	e	n/a
380.521	0.015	761042	keystroke	Key.space	n/a
380.791	0.105	761582	keystroke	r	n/a
380.942	0.089	761884	keystroke	u	n/a
381.181	0.015	762362	keystroke	n	n/a
381.301	0.045	762602	keystroke	n	n/a
381.466	0.1355	762932	keystroke	i	n/a
381.5415	0.089	763083	keystroke	n	n/a
381.6605	0.12	763321	keystroke	g	n/a
381.7665	0.105	763533	keystroke	Key.space	n/a
381.9915	0.06	763983	keystroke	r	n/a
382.0515	0.134	764103	keystroke	o	n/a
382.2015	0.1195	764403	keystroke	m	n/a
382.336	0.165	764672	keystroke	e	n/a
382.516	0.075	765032	keystroke	Key.space	n/a
382.906	0.1055	765812	keystroke	e	n/a
383.1165	0.105	766233	keystroke	j	n/a
383.2965	0.09	766593	keystroke	o	n/a
383.6415	0.06	767283	keystroke	Key.backspace	n/a
383.7915	0.045	767583	keystroke	Key.backspace	n/a
383.9565	0.075	767913	keystroke	n	n/a
384.1515	0.12	768303	keystroke	j	n/a
384.2115	0.135	768423	keystroke	o	n/a
384.4965	0.135	768993	keystroke	y	n/a
384.8265	0.12	769653	keystroke	Key.enter	n/a
384.9535	5.2755	769907	prompt	n/a	double participant hills thus\n
385.5165	0.105	771033	keystroke	d	n/a
385.6365	0.105	771273	keystroke	o	n/a
385.7565	0.09	771513	keystroke	u	n/a
385.8315	0.075	771663	keystroke	b	n/a
385.9515	0.119	771903	keystroke	l	n/a
386.0865	0.105	772173	keystroke	e	n/a
386.3555	0.105	772711	keystroke	Key.space	n/a
386.611	0.06	773222	keystroke	p	n/a
386.687	0.104	773374	keystroke	a	n/a
386.881	0.091	773762	keystroke	r	n/a
387.061	0.09	774122	keystroke	t	n/a
387.167	0.105	774334	keystroke	i	n/a
387.361	0.12	774722	keystroke	c	n/a
387.526	0.075	775052	keystroke	i	n/a
387.811	0.06	775622	keystroke	p	n/a
387.901	0.091	775802	keystroke	a	n/a
388.006	0.091	776012	keystroke	n	n/a
388.097	0.134	776194	keystroke	t	n/a
388.501	0.105	777002	keystroke	Key.space	n/a
388.741	0.105	777482	keystroke	h	n/a
388.802	0.074	777604	keystroke	i	n/a
388.967	0.059	777934	keystroke	l	n/a
389.116	0.09	778232	keystroke	l	n/a
389.221	0.076	778442	keystroke	s	n/a
389.297	0.104	778594	keystroke	Key.space	n/a
389.6415	0.105	779283	keystroke	t	n/a
389.7015	0.075	779403	keystroke	h	n/a
389.8665	0.09	779733	keystroke	u	n/a
389.9715	0.105	779943	keystroke	s	n/a
390.1215	0.105	780243	keystroke	Key.enter	n/a
390.235	9.593	780470	prompt	n/a	archives defend controversial gratis\n
391.0215	0.09	782043	keystroke	a	n/a
391.216	0.09	782432	keystroke	r	n/a
391.577	0.074	783154	keystroke	c	n/a
391.741	0.105	783482	keystroke	h	n/a
391.981	0.106	783962	keystroke	i	n/a
392.431	0.09	784862	keystroke	v	n/a
392.597	0.089	785194	keystroke	e	n/a
392.806	0.09	785612	keystroke	s	n/a
392.941	0.075	785882	keystroke	Key.space	n/a
393.541	0.09	787082	keystroke	d	n/a
393.811	0.15	787622	keystroke	f	n/a
394.231	0.105	788462	keystroke	Key.backspace	n/a
394.351	0.075	788702	keystroke	e	n/a
394.381	0.135	788762	keystroke	f	n/a
394.486	0.21	788972	keystroke	i	n/a
394.606	0.135	789212	keystroke	n	n/a
394.921	0.045	789842	keystroke	Key.backspace	n/a
395.041	0.075	790082	keystroke	Key.backspace	n/a
395.131	0.105	790262	keystroke	e	n/a
395.251	0.12	790502	keystroke	n	n/a
395.401	0.121	790802	keystroke	d	n/a
395.701	0.105	791402	keystroke	Key.space	n/a
395.926	0.12	791852	keystroke	c	n/a
396.031	0.105	792062	keystroke	o	n/a
396.106	0.09	792212	keystroke	n	n/a
396.361	0.09	792722	keystroke	t	n/a
396.601	0.105	793202	keystroke	r	n/a
396.766	0.09	793532	keystroke	o	n/a
397.021	0.0755	794042	keystroke	v	n/a
397.171	0.1505	794342	keystroke	e	n/a
397.276	0.075	794552	keystroke	r	n/a
397.471	0.12	794942	keystroke	s	n/a
397.861	0.105	795722	keystroke	i	n/a
398.011	0.105	796022	keystroke	a	n/a
398.131	0.12	796262	keystroke	l	n/a
398.461	0.09	796922	keystroke	Key.space	n/a
398.717	0.089	797434	keystroke	g	n/a
398.926	0.091	797852	keystroke	r	n/a
399.166	0.09	798332	keystroke	a	n/a
399.376	0.09	798752	keystroke	t	n/a
399.451	0.105	798902	keystroke	i	n/a
399.571	0.106	799142	keystroke	s	n/a
399.721	0.105	799442	keystroke	Key.enter	n/a
399.8345	10.719	799669	prompt	n/a	martin contributing voted bull\n
400.351	0.105	800702	keystroke	m	n/a
400.441	0.091	800882	keystroke	a	n/a
400.667	0.0745	801334	keystroke	t	n/a
400.7265	0.18	801453	keystroke	i	n/a
400.8315	0.09	801663	keystroke	n	n/a
401.0865	0.105	802173	keystroke	Key.space	n/a
402.0465	0.06	804093	keystroke	Key.backspace	n/a
402.1815	0.075	804363	keystroke	Key.backspace	n/a
402.3015	0.06	804603	keystroke	Key.backspace	n/a
402.437	0.0745	804874	keystroke	Key.backspace	n/a
402.4965	0.075	804993	keystroke	r	n/a
402.7065	0.06	805413	keystroke	t	n/a
402.7215	0.12	805443	keystroke	i	n/a
402.7815	0.105	805563	keystroke	n	n/a
403.1715	0.09	806343	keystroke	Key.space	n/a
403.8915	0.09	807783	keystroke	m	n/a
404.2065	0.075	808413	keystroke	Key.backspace	n/a
404.3115	0.12	808623	keystroke	c	n/a
404.4015	0.12	808803	keystroke	o	n/a
404.4765	0.12	808953	keystroke	n	n/a
404.6265	0.135	809253	keystroke	t	n/a
404.9115	0.135	809823	keystroke	r	n/a
405.0615	0.09	810123	keystroke	i	n/a
405.6165	0.0895	811233	keystroke	Key.backspace	n/a
405.8865	0.105	811773	keystroke	i	n/a
406.0965	0.105	812193	keystroke	b	n/a
406.1865	0.09	812373	keystroke	u	n/a
406.4115	0.135	812823	keystroke	i	n/a
406.8765	0.06	813753	keystroke	Key.backspace	n/a
406.9815	0.105	813963	keystroke	t	n/a
407.0715	0.165	814143	keystroke	i	n/a
407.1315	0.12	814263	keystroke	n	n/a
407.2815	0.1195	814563	keystroke	g	n/a
407.731	0.075	815462	keystroke	Key.space	n/a
408.226	0.105	816452	keystroke	v	n/a
408.301	0.09	816602	keystroke	o	n/a
408.511	0.091	817022	keystroke	t	n/a
408.6765	0.12	817353	keystroke	e	n/a
408.9015	0.105	817803	keystroke	d	n/a
409.0215	0.09	818043	keystroke	Key.space	n/a
409.1865	0.09	818373	keystroke	v	n/a
409.3365	0.09	818673	keystroke	u	n/a
409.6065	0.06	819213	keystroke	Key.backspace	n/a
409.7265	0.075	819453	keystroke	Key.backspace	n/a
409.8165	0.105	819633	keystroke	b	n/a
409.8915	0.105	819783	keystroke	u	n/a
410.0715	0.075	820143	keystroke	l	n/a
410.2065	0.1205	820413	keystroke	l	n/a
410.476	0.075	820952	keystroke	Key.enter	n/a
410.56	7.298	821120	prompt	n/a	depression representations train lows\n
411.1215	0.1055	822243	keystroke	d	n/a
411.436	0.105	822872	keystroke	e	n/a
411.631	0.091	823262	keystroke	p	n/a
411.796	0.09	823592	keystroke	r	n/a
411.872	0.105	823744	keystroke	e	n/a
412.051	0.075	824102	keystroke	s	n/a
412.216	0.075	824432	keystroke	s	n/a
412.306	0.2405	824612	keystroke	i	n/a
412.352	0.1795	824704	keystroke	o	n/a
412.4865	0.09	824973	keystroke	n	n/a
412.6815	0.09	825363	keystroke	Key.space	n/a
412.9815	0.09	825963	keystroke	r	n/a
413.0865	0.135	826173	keystroke	e	n/a
413.2665	0.105	826533	keystroke	p	n/a
413.4915	0.06	826983	keystroke	r	n/a
413.6415	0.09	827283	keystroke	e	n/a
413.8365	0.09	827673	keystroke	s	n/a
414.2415	0.105	828483	keystroke	e	n/a
414.4515	0.075	828903	keystroke	n	n/a
414.8265	0.106	829653	keystroke	t	n/a
415.0815	0.09	830163	keystroke	a	n/a
415.2315	0.105	830463	keystroke	t	n/a
415.3215	0.225	830643	keystroke	i	n/a
415.3965	0.12	830793	keystroke	o	n/a
415.4415	0.15	830883	keystroke	n	n/a
415.6065	0.09	831213	keystroke	s	n/a
415.7715	0.1195	831543	keystroke	Key.space	n/a
416.042	0.074	832084	keystroke	t	n/a
416.192	0.104	832384	keystroke	r	n/a
416.371	0.121	832742	keystroke	a	n/a
416.461	0.135	832922	keystroke	i	n/a
416.551	0.075	833102	keystroke	n	n/a
416.806	0.105	833612	keystroke	Key.space	n/a
417.152	0.089	834304	keystroke	l	n/a
417.331	0.12	834662	keystroke	o	n/a
417.436	0.076	834872	keystroke	w	n/a
417.617	0.089	835234	keystroke	s	n/a
417.751	0.105	835502	keystroke	Key.enter	n/a
417.864	9.295	835728	prompt	n/a	lord perth months characteristics\n
418.576	0.06	837152	keystroke	l	n/a
418.757	0.06	837514	keystroke	o	n/a
418.876	0.106	837752	keystroke	r	n/a
419.101	0.135	838202	keystroke	d	n/a
419.251	0.105	838502	keystroke	Key.space	n/a
419.461	0.075	838922	keystroke	p	n/a
419.551	0.105	839102	keystroke	e	n/a
419.867	0.074	839734	keystroke	t	n/a
420.286	0.075	840572	keystroke	Key.backspace	n/a
420.377	0.06	840754	keystroke	r	n/a
420.526	0.105	841052	keystroke	t	n/a
420.617	0.089	841234	keystroke	h	n/a
420.781	0.12	841562	keystroke	Key.space	n/a
420.991	0.075	841982	keystroke	m	n/a
421.171	0.06	842342	keystroke	o	n/a
421.306	0.075	842612	keystroke	u	n/a
421.5015	0.09	843003	keystroke	t	n/a
421.6665	0.12	843333	keystroke	h	n/a
421.8015	0.105	843603	keystroke	s	n/a
421.9515	0.105	843903	keystroke	Key.space	n/a
422.9715	0.135	845943	keystroke	c	n/a
423.0915	0.105	846183	keystroke	a	n/a
423.3465	0.12	846693	keystroke	r	n/a
424.0365	0.0595	848073	keystroke	Key.backspace	n/a
424.156	0.09	848312	keystroke	Key.backspace	n/a
424.367	0.089	848734	keystroke	h	n/a
424.486	0.076	848972	keystroke	a	n/a
424.666	0.09	849332	keystroke	r	n/a
424.877	0.12	849754	keystroke	a	n/a
425.101	0.105	850202	keystroke	c	n/a
425.341	0.091	850682	keystroke	t	n/a
425.492	0.15	850984	keystroke	e	n/a
425.597	0.105	851194	keystroke	r	n/a
425.777	0.0895	851554	keystroke	i	n/a
425.8815	0.09	851763	keystroke	s	n/a
426.0915	0.105	852183	keystroke	t	n/a
426.1815	0.12	852363	keystroke	i	n/a
426.3615	0.09	852723	keystroke	e	n/a
426.6915	0.075	853383	keystroke	Key.backspace	n/a
426.7515	0.12	853503	keystroke	c	n/a
426.8865	0.09	853773	keystroke	s	n/a
427.0215	0.135	854043	keystroke	Key.enter	n/a
427.167	6.816	854334	prompt	n/a	accent norm swimming biggest\n
427.8765	0.12	855753	keystroke	a	n/a
428.0265	0.075	856053	keystroke	c	n/a
428.1765	0.075	856353	keystroke	c	n/a
428.3865	0.045	856773	keystroke	e	n/a
428.4465	0.12	856893	keystroke	n	n/a
428.5515	0.09	857103	keystroke	t	n/a
428.6565	0.105	857313	keystroke	Key.space	n/a
428.7915	0.075	857583	keystroke	f	n/a
429.0615	0.045	858123	keystroke	Key.backspace	n/a
429.2115	0.09	858423	keystroke	n	n/a
429.3315	0.105	858663	keystroke	o	n/a
429.3465	0.075	858693	keystroke	r	n/a
429.5715	0.09	859143	keystroke	m	n/a
430.2315	0.06	860463	keystroke	Key.space	n/a
430.3965	0.12	860793	keystroke	w	n/a
430.9215	0.06	861843	keystroke	Key.backspace	n/a
431.0415	0.03	862083	keystroke	s	n/a
431.1765	0.09	862353	keystroke	w	n/a
431.2815	0.09	862563	keystroke	i	n/a
431.9265	0.06	863853	keystroke	m	n/a
432.0615	0.075	864123	keystroke	m	n/a
432.212	0.119	864424	keystroke	i	n/a
432.271	0.105	864542	keystroke	n	n/a
432.391	0.12	864782	keystroke	g	n/a
432.496	0.12	864992	keystroke	Key.space	n/a
432.736	0.045	865472	keystroke	b	n/a
432.991	0.075	865982	keystroke	i	n/a
433.081	0.09	866162	keystroke	g	n/a
433.231	0.09	866462	keystroke	g	n/a
433.366	0.09	866732	keystroke	e	n/a
433.546	0.075	867092	keystroke	s	n/a
433.697	0.104	867394	keystroke	t	n/a
433.876	0.105	867752	keystroke	Key.enter	n/a
433.988	7.2405	867976	prompt	n/a	mesa shock montana cycles\n
434.642	0.074	869284	keystroke	n	n/a
434.896	0.045	869792	keystroke	Key.backspace	n/a
435.092	0.059	870184	keystroke	m	n/a
435.136	0.075	870272	keystroke	e	n/a
435.332	0.074	870664	keystroke	s	n/a
435.496	0.09	870992	keystroke	a	n/a
435.616	0.09	871232	keystroke	Key.space	n/a
435.841	0.105	871682	keystroke	s	n/a
435.961	0.105	871922	keystroke	h	n/a
436.126	0.075	872252	keystroke	c	n/a
436.156	0.105	872312	keystroke	o	n/a
436.801	0.09	873602	keystroke	k	n/a
437.071	0.045	874142	keystroke	Key.backspace	n/a
437.191	0.06	874382	keystroke	Key.backspace	n/a
437.326	0.09	874652	keystroke	Key.backspace	n/a
437.776	0.075	875552	keystroke	o	n/a
437.896	0.105	875792	keystroke	c	n/a
438.002	0.089	876004	keystroke	k	n/a
438.181	0.12	876362	keystroke	Key.space	n/a
438.497	0.075	876994	keystroke	m	n/a
438.722	0.09	877444	keystroke	o	n/a
438.797	0.09	877594	keystroke	n	n/a
439.007	0.074	878014	keystroke	t	n/a
439.187	0.12	878374	keystroke	a	n/a
439.471	0.091	878942	keystroke	n	n/a
439.606	0.121	879212	keystroke	a	n/a
439.771	0.12	879542	keystroke	Key.space	n/a
440.116	0.1055	880232	keystroke	c	n/a
440.371	0.105	880742	keystroke	y	n/a
440.6415	0.0895	881283	keystroke	c	n/a
440.776	0.136	881552	keystroke	l	n/a
440.851	0.046	881702	keystroke	e	n/a
440.987	0.104	881974	keystroke	s	n/a
441.106	0.12	882212	keystroke	Key.enter	n/a
441.2345	8.244	882469	prompt	n/a	hygiene hearts bacterial update\n
441.977	0.119	883954	keystroke	h	n/a
442.112	0.089	884224	keystroke	y	n/a
442.637	0.119	885274	keystroke	g	n/a
443.162	0.075	886324	keystroke	i	n/a
443.506	0.076	887012	keystroke	e	n/a
443.626	0.091	887252	keystroke	n	n/a
443.732	0.09	887464	keystroke	e	n/a
443.971	0.106	887942	keystroke	Key.space	n/a
444.152	0.12	888304	keystroke	h	n/a
444.242	0.15	888484	keystroke	e	n/a
444.377	0.09	888754	keystroke	a	n/a
444.512	0.105	889024	keystroke	r	n/a
444.812	0.06	889624	keystroke	t	n/a
445.007	0.12	890014	keystroke	s	n/a
445.187	0.09	890374	keystroke	Key.space	n/a
445.442	0.1045	890884	keystroke	h	n/a
445.7715	0.09	891543	keystroke	Key.backspace	n/a
445.8765	0.1055	891753	keystroke	b	n/a
445.9965	0.105	891993	keystroke	a	n/a
446.4165	0.12	892833	keystroke	c	n/a
446.5815	0.105	893163	keystroke	k	n/a
446.9565	0.09	893913	keystroke	Key.backspace	n/a
447.091	0.09	894182	keystroke	t	n/a
447.301	0.12	894602	keystroke	e	n/a
447.527	0.089	895054	keystroke	r	n/a
447.631	0.105	895262	keystroke	i	n/a
447.766	0.105	895532	keystroke	a	n/a
447.856	0.105	895712	keystroke	l	n/a
448.231	0.105	896462	keystroke	Key.space	n/a
448.471	0.105	896942	keystroke	u	n/a
448.666	0.105	897332	keystroke	p	n/a
448.756	0.18	897512	keystroke	d	n/a
448.921	0.075	897842	keystroke	a	n/a
449.086	0.06	898172	keystroke	t	n/a
449.236	0.09	898472	keystroke	e	n/a
449.371	0.105	898742	keystroke	Key.enter	n/a
449.4845	9.218	898969	prompt	n/a	trek transformation fold achieving\n
450.137	0.074	900274	keystroke	t	n/a
450.316	0.06	900632	keystroke	r	n/a
450.466	0.135	900932	keystroke	e	n/a
450.647	0.104	901294	keystroke	k	n/a
450.871	0.09	901742	keystroke	Key.space	n/a
451.126	0.06	902252	keystroke	t	n/a
451.306	0.06	902612	keystroke	r	n/a
451.486	0.105	902972	keystroke	a	n/a
451.606	0.09	903212	keystroke	n	n/a
451.681	0.12	903362	keystroke	s	n/a
452.026	0.105	904052	keystroke	f	n/a
452.146	0.09	904292	keystroke	o	n/a
452.251	0.105	904502	keystroke	r	n/a
452.386	0.091	904772	keystroke	m	n/a
452.491	0.075	904982	keystroke	e	n/a
452.806	0.075	905612	keystroke	Key.backspace	n/a
452.896	0.06	905792	keystroke	a	n/a
453.061	0.075	906122	keystroke	t	n/a
453.121	0.255	906242	keystroke	i	n/a
453.211	0.12	906422	keystroke	o	n/a
453.271	0.121	906542	keystroke	n	n/a
453.8415	0.09	907683	keystroke	Key.space	n/a
454.0515	0.105	908103	keystroke	f	n/a
454.1115	0.09	908223	keystroke	o	n/a
454.2915	0.105	908583	keystroke	l	n/a
454.3665	0.12	908733	keystroke	d	n/a
454.5615	0.09	909123	keystroke	Key.space	n/a
454.8615	0.09	909723	keystroke	a	n/a
455.0415	0.12	910083	keystroke	c	n/a
455.2215	0.075	910443	keystroke	h	n/a
455.3565	0.135	910713	keystroke	i	n/a
455.6865	0.12	911373	keystroke	v	n/a
456.391	0.075	912782	keystroke	Key.backspace	n/a
456.586	0.09	913172	keystroke	v	n/a
456.856	0.09	913712	keystroke	Key.backspace	n/a
456.976	0.09	913952	keystroke	e	n/a
457.681	0.105	915362	keystroke	v	n/a
457.771	0.135	915542	keystroke	i	n/a
457.861	0.12	915722	keystroke	n	n/a
457.966	0.105	915932	keystroke	g	n/a
458.566	0.135	917132	keystroke	Key.enter	n/a
458.7085	7.3	917417	prompt	n/a	lived horrible changing coating\n
459.226	0.135	918452	keystroke	l	n/a
459.346	0.135	918692	keystroke	i	n/a
459.466	0.06	918932	keystroke	v	n/a
459.556	0.105	919112	keystroke	e	n/a
459.766	0.105	919532	keystroke	d	n/a
459.886	0.105	919772	keystroke	Key.space	n/a
460.066	0.075	920132	keystroke	l	n/a
460.366	0.06	920732	keystroke	Key.backspace	n/a
460.546	0.105	921092	keystroke	h	n/a
460.681	0.12	921362	keystroke	o	n/a
460.951	0.09	921902	keystroke	r	n/a
461.1765	0.09	922353	keystroke	r	n/a
461.2965	0.105	922593	keystroke	i	n/a
461.4465	0.105	922893	keystroke	b	n/a
461.5365	0.135	923073	keystroke	l	n/a
461.7165	0.165	923433	keystroke	e	n/a
462.1665	0.105	924333	keystroke	Key.space	n/a
462.4205	0.121	924841	keystroke	c	n/a
462.5115	0.09	925023	keystroke	h	n/a
462.6025	0.119	925205	keystroke	a	n/a
462.7665	0.075	925533	keystroke	n	n/a
462.9755	0.121	925951	keystroke	i	n/a
463.3215	0.09	926643	keystroke	Key.backspace	n/a
463.7565	0.105	927513	keystroke	g	n/a
463.9215	0.12	927843	keystroke	i	n/a
464.3865	0.075	928773	keystroke	n	n/a
464.5065	0.105	929013	keystroke	g	n/a
464.5965	0.105	929193	keystroke	Key.space	n/a
464.8515	0.105	929703	keystroke	c	n/a
464.9265	0.12	929853	keystroke	o	n/a
465.0475	0.1035	930095	keystroke	a	n/a
465.301	0.076	930602	keystroke	t	n/a
465.391	0.15	930782	keystroke	i	n/a
465.467	0.104	930934	keystroke	n	n/a
465.556	0.106	931112	keystroke	g	n/a
465.901	0.105	931802	keystroke	Key.enter	n/a
466.013	8.9645	932026	prompt	n/a	somebody travelers glad brochure\n
466.6365	0.12	933273	keystroke	s	n/a
466.7715	0.105	933543	keystroke	o	n/a
466.8615	0.12	933723	keystroke	m	n/a
466.9515	0.09	933903	keystroke	e	n/a
467.2215	0.105	934443	keystroke	b	n/a
467.2965	0.12	934593	keystroke	o	n/a
467.5215	0.105	935043	keystroke	y	n/a
468.5415	0.075	937083	keystroke	Key.backspace	n/a
468.6015	0.105	937203	keystroke	d	n/a
468.8865	0.075	937773	keystroke	y	n/a
468.9765	0.09	937953	keystroke	Key.space	n/a
469.1115	0.105	938223	keystroke	t	n/a
469.3665	0.105	938733	keystroke	r	n/a
469.7115	0.12	939423	keystroke	a	n/a
469.9355	0.09	939871	keystroke	v	n/a
470.5955	0.076	941191	keystroke	e	n/a
470.6865	0.134	941373	keystroke	l	n/a
470.8365	0.105	941673	keystroke	e	n/a
471.0305	0.061	942061	keystroke	r	n/a
471.2105	0.121	942421	keystroke	s	n/a
471.3465	0.074	942693	keystroke	Key.space	n/a
471.5115	0.09	943023	keystroke	g	n/a
471.6765	0.15	943353	keystroke	l	n/a
471.7965	0.104	943593	keystroke	a	n/a
471.9755	0.151	943951	keystroke	d	n/a
472.3065	0.12	944613	keystroke	Key.space	n/a
472.5915	0.089	945183	keystroke	b	n/a
472.8915	0.12	945783	keystroke	r	n/a
473.0415	0.12	946083	keystroke	o	n/a
473.506	0.105	947012	keystroke	c	n/a
473.626	0.1055	947252	keystroke	h	n/a
473.7615	0.06	947523	keystroke	e	n/a
474.0015	0.075	948003	keystroke	Key.backspace	n/a
474.1815	0.105	948363	keystroke	u	n/a
474.2415	0.12	948483	keystroke	r	n/a
474.5265	0.105	949053	keystroke	e	n/a
474.856	0.12	949712	keystroke	Key.enter	n/a
474.983	10.93	949966	prompt	n/a	immune differently guilty zdnet\n
475.621	0.12	951242	keystroke	i	n/a
475.771	0.075	951542	keystroke	m	n/a
475.921	0.09	951842	keystroke	m	n/a
476.161	0.045	952322	keystroke	u	n/a
476.311	0.105	952622	keystroke	n	n/a
476.461	0.105	952922	keystroke	e	n/a
476.836	0.105	953672	keystroke	Key.space	n/a
477.106	0.1055	954212	keystroke	d	n/a
477.1965	0.1045	954393	keystroke	i	n/a
477.302	0.059	954604	keystroke	f	n/a
477.451	0.09	954902	keystroke	f	n/a
477.556	0.12	955112	keystroke	e	n/a
477.721	0.0755	955442	keystroke	r	n/a
477.7815	0.105	955563	keystroke	e	n/a
477.9015	0.105	955803	keystroke	n	n/a
477.9765	0.09	955953	keystroke	e	n/a
478.3815	0.12	956763	keystroke	t	n/a
478.4565	0.15	956913	keystroke	l	n/a
478.6665	0.12	957333	keystroke	y	n/a
479.1165	0.105	958233	keystroke	Key.space	n/a
479.8065	0.06	959613	keystroke	Key.backspace	n/a
479.9565	0.059	959913	keystroke	Key.backspace	n/a
480.0755	0.091	960151	keystroke	Key.backspace	n/a
480.1965	0.09	960393	keystroke	Key.backspace	n/a
480.3615	0.075	960723	keystroke	Key.backspace	n/a
480.511	0.06	961022	keystroke	Key.backspace	n/a
481.171	0.12	962342	keystroke	n	n/a
481.381	0.12	962762	keystroke	t	n/a
481.516	0.165	963032	keystroke	l	n/a
481.696	0.105	963392	keystroke	y	n/a
481.951	0.12	963902	keystroke	Key.space	n/a
482.191	0.105	964382	keystroke	g	n/a
482.416	0.105	964832	keystroke	u	n/a
482.641	0.105	965282	keystroke	i	n/a
482.806	0.12	965612	keystroke	l	n/a
483.076	0.15	966152	keystroke	t	n/a
483.766	0.09	967532	keystroke	y	n/a
483.886	0.105	967772	keystroke	Key.space	n/a
484.201	0.09	968402	keystroke	z	n/a
484.666	0.06	969332	keystroke	d	n/a
484.981	0.105	969962	keystroke	n	n/a
485.071	0.075	970142	keystroke	e	n/a
485.251	0.105	970502	keystroke	t	n/a
485.806	0.105	971612	keystroke	Key.enter	n/a
485.918	9.8505	971836	prompt	n/a	republic lesser jefferson laden\n
486.526	0.09	973052	keystroke	r	n/a
486.601	0.105	973202	keystroke	e	n/a
486.826	0.105	973652	keystroke	p	n/a
487.081	0.105	974162	keystroke	u	n/a
487.441	0.105	974882	keystroke	b	n/a
487.621	0.12	975242	keystroke	l	n/a
487.711	0.105	975422	keystroke	i	n/a
487.861	0.105	975722	keystroke	c	n/a
488.446	0.1505	976892	keystroke	Key.space	n/a
488.656	0.12	977312	keystroke	l	n/a
488.731	0.105	977462	keystroke	e	n/a
489.0755	0.09	978151	keystroke	s	n/a
489.2405	0.09	978481	keystroke	s	n/a
489.4055	0.12	978811	keystroke	e	n/a
489.5405	0.12	979081	keystroke	r	n/a
489.7055	0.105	979411	keystroke	Key.space	n/a
489.9615	0.134	979923	keystroke	f	n/a
490.2455	0.09	980491	keystroke	e	n/a
491.1455	0.06	982291	keystroke	Key.backspace	n/a
491.281	0.075	982562	keystroke	Key.backspace	n/a
491.461	0.09	982922	keystroke	j	n/a
491.566	0.12	983132	keystroke	e	n/a
491.701	0.075	983402	keystroke	f	n/a
491.866	0.09	983732	keystroke	f	n/a
491.971	0.12	983942	keystroke	e	n/a
492.166	0.12	984332	keystroke	r	n/a
492.526	0.105	985052	keystroke	e	n/a
492.8555	0.075	985711	keystroke	Key.backspace	n/a
493.3215	0.134	986643	keystroke	s	n/a
493.3955	0.12	986791	keystroke	o	n/a
493.5005	0.075	987001	keystroke	n	n/a
493.6205	0.105	987241	keystroke	Key.space	n/a
493.7705	0.136	987541	keystroke	l	n/a
493.8905	0.135	987781	keystroke	a	n/a
494.2055	0.045	988411	keystroke	d	n/a
494.3405	0.105	988681	keystroke	e	n/a
494.4605	0.075	988921	keystroke	n	n/a
495.6605	0.105	991321	keystroke	Key.enter	n/a
495.775	5.273	991550	prompt	n/a	refund clay done sells\n
496.3355	0.031	992671	keystroke	s	n/a
496.6805	0.075	993361	keystroke	Key.backspace	n/a
496.7405	0.09	993481	keystroke	r	n/a
496.8455	0.15	993691	keystroke	e	n/a
497.0105	0.1055	994021	keystroke	f	n/a
497.131	0.06	994262	keystroke	u	n/a
497.311	0.075	994622	keystroke	n	n/a
497.791	0.135	995582	keystroke	d	n/a
497.956	0.105	995912	keystroke	Key.space	n/a
498.196	0.1355	996392	keystroke	c	n/a
498.3455	0.15	996691	keystroke	l	n/a
498.4065	0.075	996813	keystroke	a	n/a
498.6315	0.105	997263	keystroke	y	n/a
498.7655	0.09	997531	keystroke	Key.space	n/a
499.1265	0.089	998253	keystroke	o	n/a
499.4105	0.045	998821	keystroke	Key.backspace	n/a
499.4855	0.106	998971	keystroke	d	n/a
499.5915	0.119	999183	keystroke	o	n/a
499.6805	0.09	999361	keystroke	n	n/a
500.011	0.105	1000022	keystroke	e	n/a
500.131	0.105	1000262	keystroke	Key.space	n/a
500.281	0.105	1000562	keystroke	s	n/a
500.446	0.075	1000892	keystroke	e	n/a
500.581	0.075	1001162	keystroke	l	n/a
500.731	0.075	1001462	keystroke	l	n/a
500.851	0.105	1001702	keystroke	s	n/a
500.956	0.09	1001912	keystroke	Key.enter	n/a
501.0535	7.464	1002107	prompt	n/a	functioning variables optics customs\n
501.616	0.105	1003232	keystroke	f	n/a
502.021	0.075	1004042	keystroke	u	n/a
502.231	0.045	1004462	keystroke	n	n/a
502.306	0.12	1004612	keystroke	c	n/a
502.561	0.075	1005122	keystroke	t	n/a
502.621	0.24	1005242	keystroke	i	n/a
502.696	0.18	1005392	keystroke	o	n/a
502.801	0.12	1005602	keystroke	n	n/a
503.266	0.12	1006532	keystroke	i	n/a
503.371	0.09	1006742	keystroke	n	n/a
503.491	0.105	1006982	keystroke	g	n/a
503.701	0.105	1007402	keystroke	Key.space	n/a
504.001	0.075	1008002	keystroke	v	n/a
504.256	0.09	1008512	keystroke	a	n/a
504.436	0.09	1008872	keystroke	r	n/a
504.541	0.09	1009082	keystroke	i	n/a
504.781	0.1045	1009562	keystroke	a	n/a
505.3655	0.075	1010731	keystroke	b	n/a
505.4555	0.12	1010911	keystroke	l	n/a
505.5765	0.0895	1011153	keystroke	e	n/a
505.771	0.105	1011542	keystroke	s	n/a
505.9505	0.076	1011901	keystroke	Key.space	n/a
506.236	0.1205	1012472	keystroke	o	n/a
506.4015	0.12	1012803	keystroke	p	n/a
506.6415	0.09	1013283	keystroke	t	n/a
506.7165	0.12	1013433	keystroke	i	n/a
506.9415	0.105	1013883	keystroke	c	n/a
507.1215	0.12	1014243	keystroke	s	n/a
507.3315	0.075	1014663	keystroke	Key.space	n/a
507.5565	0.12	1015113	keystroke	c	n/a
507.6765	0.12	1015353	keystroke	u	n/a
507.7815	0.075	1015563	keystroke	s	n/a
507.9615	0.09	1015923	keystroke	t	n/a
508.0065	0.1195	1016013	keystroke	o	n/a
508.111	0.12	1016222	keystroke	m	n/a
508.216	0.105	1016432	keystroke	s	n/a
508.4115	0.104	1016823	keystroke	Key.enter	n/a
508.522	6.5655	1017044	prompt	n/a	enlarge composer gained roses\n
509.056	0.075	1018112	keystroke	e	n/a
509.2505	0.091	1018501	keystroke	n	n/a
509.4905	0.135	1018981	keystroke	l	n/a
509.6105	0.09	1019221	keystroke	a	n/a
509.746	0.1055	1019492	keystroke	r	n/a
509.9565	0.059	1019913	keystroke	g	n/a
510.1365	0.105	1020273	keystroke	e	n/a
510.3155	0.1195	1020631	keystroke	Key.space	n/a
510.586	0.105	1021172	keystroke	c	n/a
510.676	0.165	1021352	keystroke	o	n/a
510.796	0.135	1021592	keystroke	m	n/a
510.976	0.105	1021952	keystroke	p	n/a
511.201	0.09	1022402	keystroke	o	n/a
511.516	0.06	1023032	keystroke	s	n/a
511.651	0.135	1023302	keystroke	e	n/a
511.801	0.12	1023602	keystroke	r	n/a
511.981	0.105	1023962	keystroke	Key.space	n/a
512.461	0.075	1024922	keystroke	g	n/a
512.686	0.075	1025372	keystroke	a	n/a
512.776	0.105	1025552	keystroke	i	n/a
513.391	0.105	1026782	keystroke	n	n/a
513.451	0.09	1026902	keystroke	e	n/a
513.676	0.12	1027352	keystroke	d	n/a
513.826	0.1045	1027652	keystroke	Key.space	n/a
514.276	0.075	1028552	keystroke	r	n/a
514.381	0.105	1028762	keystroke	o	n/a
514.516	0.09	1029032	keystroke	s	n/a
514.696	0.075	1029392	keystroke	e	n/a
514.846	0.09	1029692	keystroke	s	n/a
514.966	0.12	1029932	keystroke	Key.enter	n/a
515.092	11.366	1030184	prompt	n/a	broader poetry talking julie\n
515.701	0.06	1031402	keystroke	j	n/a
515.986	0.075	1031972	keystroke	Key.backspace	n/a
516.091	0.105	1032182	keystroke	b	n/a
516.271	0.12	1032542	keystroke	o	n/a
516.706	0.045	1033412	keystroke	Key.backspace	n/a
516.841	0.135	1033682	keystroke	r	n/a
516.931	0.09	1033862	keystroke	o	n/a
517.4255	0.1355	1034851	keystroke	a	n/a
517.7105	0.06	1035421	keystroke	d	n/a
517.9205	0.105	1035841	keystroke	e	n/a
518.0405	0.135	1036081	keystroke	r	n/a
518.296	0.075	1036592	keystroke	Key.space	n/a
518.5655	0.09	1037131	keystroke	p	n/a
518.8055	0.015	1037611	keystroke	e	n/a
519.1505	0.045	1038301	keystroke	Key.backspace	n/a
519.3465	0.119	1038693	keystroke	o	n/a
519.4805	0.09	1038961	keystroke	e	n/a
519.6465	0.134	1039293	keystroke	t	n/a
519.9305	0.075	1039861	keystroke	r	n/a
520.1855	0.105	1040371	keystroke	y	n/a
520.6955	0.06	1041391	keystroke	Key.backspace	n/a
520.8605	0.06	1041721	keystroke	Key.backspace	n/a
521.5205	0.12	1043041	keystroke	t	n/a
521.8805	0.075	1043761	keystroke	y	n/a
522.0005	0.09	1044001	keystroke	Key.backspace	n/a
522.1505	0.09	1044301	keystroke	Key.backspace	n/a
522.2255	0.09	1044451	keystroke	r	n/a
522.4205	0.121	1044841	keystroke	y	n/a
522.5705	0.12	1045141	keystroke	Key.space	n/a
523.1105	0.075	1046221	keystroke	t	n/a
523.2615	0.105	1046523	keystroke	a	n/a
523.2755	0.165	1046551	keystroke	l	n/a
523.3505	0.12	1046701	keystroke	k	n/a
523.5615	0.135	1047123	keystroke	i	n/a
523.6505	0.09	1047301	keystroke	n	n/a
523.7565	0.089	1047513	keystroke	g	n/a
523.8605	0.105	1047721	keystroke	Key.space	n/a
524.1155	0.09	1048231	keystroke	j	n/a
524.3255	0.135	1048651	keystroke	u	n/a
524.5055	0.105	1049011	keystroke	i	n/a
524.6705	0.1205	1049341	keystroke	l	n/a
524.731	0.135	1049462	keystroke	i	n/a
525.151	0.06	1050302	keystroke	Key.backspace	n/a
525.301	0.06	1050602	keystroke	Key.backspace	n/a
525.796	0.06	1051592	keystroke	Key.backspace	n/a
525.991	0.135	1051982	keystroke	l	n/a
526.066	0.15	1052132	keystroke	i	n/a
526.231	0.09	1052462	keystroke	e	n/a
526.336	0.12	1052672	keystroke	Key.enter	n/a
526.4665	9.9655	1052933	prompt	n/a	cyprus indiana sponsorship clearance\n
527.1455	0.1045	1054291	keystroke	c	n/a
527.386	0.1055	1054772	keystroke	y	n/a
527.6105	0.09	1055221	keystroke	p	n/a
527.7155	0.091	1055431	keystroke	r	n/a
528	0.09	1056000	keystroke	u	n/a
528.12	0.12	1056240	keystroke	s	n/a
528.3	0.105	1056600	keystroke	Key.space	n/a
528.615	0.15	1057230	keystroke	i	n/a
528.75	0.09	1057500	keystroke	n	n/a
528.855	0.165	1057710	keystroke	d	n/a
529.051	0.104	1058102	keystroke	a	n/a
529.095	0.076	1058190	keystroke	i	n/a
529.56	0.046	1059120	keystroke	Key.backspace	n/a
529.681	0.045	1059362	keystroke	Key.backspace	n/a
529.906	0.075	1059812	keystroke	i	n/a
530.011	0.12	1060022	keystroke	a	n/a
530.116	0.075	1060232	keystroke	n	n/a
530.206	0.105	1060412	keystroke	a	n/a
530.551	0.105	1061102	keystroke	Key.space	n/a
530.806	0.09	1061612	keystroke	s	n/a
531.286	0.06	1062572	keystroke	o	n/a
531.39	0.091	1062780	keystroke	p	n/a
531.646	0.044	1063292	keystroke	Key.backspace	n/a
531.766	0.074	1063532	keystroke	Key.backspace	n/a
531.991	0.104	1063982	keystroke	p	n/a
532.156	0.1495	1064312	keystroke	o	n/a
532.261	0.1045	1064522	keystroke	n	n/a
532.4105	0.105	1064821	keystroke	s	n/a
532.5305	0.135	1065061	keystroke	o	n/a
532.7105	0.12	1065421	keystroke	e	n/a
533.04	0.06	1066080	keystroke	Key.backspace	n/a
533.161	0.1045	1066322	keystroke	r	n/a
533.3705	0.12	1066741	keystroke	s	n/a
533.4605	0.1495	1066921	keystroke	h	n/a
533.5205	0.1945	1067041	keystroke	i	n/a
533.73	0.121	1067460	keystroke	p	n/a
534.315	0.075	1068630	keystroke	Key.space	n/a
534.495	0.105	1068990	keystroke	c	n/a
534.631	0.134	1069262	keystroke	l	n/a
534.736	0.104	1069472	keystroke	e	n/a
534.856	0.105	1069712	keystroke	a	n/a
535.051	0.09	1070102	keystroke	r	n/a
535.441	0.09	1070882	keystroke	a	n/a
535.59	0.075	1071180	keystroke	n	n/a
535.636	0.09	1071272	keystroke	c	n/a
535.831	0.105	1071662	keystroke	e	n/a
536.326	0.104	1072652	keystroke	Key.enter	n/a
536.4375	6.4745	1072875	prompt	n/a	limitations star arts shares\n
537.016	0.12	1074032	keystroke	l	n/a
537.151	0.15	1074302	keystroke	i	n/a
537.286	0.134	1074572	keystroke	m	n/a
537.406	0.105	1074812	keystroke	i	n/a
537.57	0.076	1075140	keystroke	t	n/a
537.765	0.09	1075530	keystroke	a	n/a
537.931	0.105	1075862	keystroke	t	n/a
