onset	duration	sample	value	key	prompt_text
3.173	17.836	6346	prompt	n/a	the quick brown fox jumps over a lazy dog\n
5.529	0.08	11058	keystroke_t	t	n/a
5.737	0.096	11474	keystroke_h	h	n/a
5.897	0.136	11794	keystroke_e	e	n/a
6.1295	0.088	12259	keystroke_Key.space	Key.space	n/a
7.497	0.048	14994	keystroke_u	u	n/a
9.0325	0.088	18065	keystroke_Key.backspace	Key.backspace	n/a
9.9205	0.12	19841	keystroke_q	q	n/a
10.0485	0.08	20097	keystroke_u	u	n/a
10.217	0.096	20434	keystroke_i	i	n/a
10.633	0.168	21266	keystroke_c	c	n/a
10.817	0.104	21634	keystroke_k	k	n/a
11.4175	0.104	22835	keystroke_Key.space	Key.space	n/a
11.969	0.072	23938	keystroke_b	b	n/a
12.193	0.12	24386	keystroke_r	r	n/a
12.369	0.08	24738	keystroke_o	o	n/a
12.721	0.1205	25442	keystroke_w	w	n/a
12.8575	0.08	25715	keystroke_n	n	n/a
13.0405	0.112	26081	keystroke_Key.space	Key.space	n/a
13.3445	0.104	26689	keystroke_f	f	n/a
14.0805	0.088	28161	keystroke_o	o	n/a
14.2485	0.144	28497	keystroke_x	x	n/a
14.5125	0.088	29025	keystroke_Key.space	Key.space	n/a
15.2165	0.0725	30433	keystroke_j	j	n/a
15.409	0.0795	30818	keystroke_u	u	n/a
15.6245	0.1045	31249	keystroke_m	m	n/a
15.8405	0.097	31681	keystroke_p	p	n/a
16.3365	0.136	32673	keystroke_s	s	n/a
16.4885	0.096	32977	keystroke_Key.space	Key.space	n/a
17.345	0.0885	34690	keystroke_o	o	n/a
17.665	0.088	35330	keystroke_v	v	n/a
17.825	0.104	35650	keystroke_e	e	n/a
17.969	0.072	35938	keystroke_r	r	n/a
18.225	0.096	36450	keystroke_Key.space	Key.space	n/a
18.4655	0.12	36931	keystroke_a	a	n/a
18.5695	0.1195	37139	keystroke_Key.space	Key.space	n/a
18.825	0.08	37650	keystroke_l	l	n/a
18.985	0.128	37970	keystroke_a	a	n/a
19.313	0.168	38626	keystroke_z	z	n/a
19.521	0.072	39042	keystroke_y	y	n/a
19.7455	0.12	39491	keystroke_Key.space	Key.space	n/a
20.2495	0.16	40499	keystroke_d	d	n/a
20.4335	0.08	40867	keystroke_o	o	n/a
20.7695	0.12	41539	keystroke_g	g	n/a
20.9295	0.072	41859	keystroke_Key.enter	Key.enter	n/a
21.014	11.9705	42028	prompt	n/a	revolution discounted finally changes\n
23.169	0.112	46338	keystroke_r	r	n/a
23.4815	0.144	46963	keystroke_e	e	n/a
23.6335	0.0875	47267	keystroke_v	v	n/a
23.8575	0.088	47715	keystroke_o	o	n/a
24.0495	0.12	48099	keystroke_l	l	n/a
24.3615	0.088	48723	keystroke_u	u	n/a
24.601	0.0965	49202	keystroke_t	t	n/a
24.8895	0.096	49779	keystroke_i	i	n/a
25.0815	0.12	50163	keystroke_o	o	n/a
25.3615	0.128	50723	keystroke_n	n	n/a
25.937	0.112	51874	keystroke_Key.space	Key.space	n/a
26.8575	0.128	53715	keystroke_d	d	n/a
27.0415	0.072	54083	keystroke_i	i	n/a
27.2175	0.112	54435	keystroke_s	s	n/a
27.3455	0.071	54691	keystroke_c	c	n/a
27.5775	0.143	55155	keystroke_o	o	n/a
27.8005	0.08	55601	keystroke_u	u	n/a
28.0005	0.104	56001	keystroke_n	n	n/a
28.2485	0.088	56497	keystroke_t	t	n/a
28.3845	0.12	56769	keystroke_e	e	n/a
28.5525	0.112	57105	keystroke_d	d	n/a
28.9045	0.096	57809	keystroke_Key.space	Key.space	n/a
29.561	0.088	59122	keystroke_f	f	n/a
29.7855	0.112	59571	keystroke_i	i	n/a
30.0495	0.0955	60099	keystroke_n	n	n/a
30.193	0.1845	60386	keystroke_a	a	n/a
30.3935	0.064	60787	keystroke_l	l	n/a
30.5375	0.12	61075	keystroke_l	l	n/a
30.8005	0.096	61601	keystroke_y	y	n/a
31.1205	0.104	62241	keystroke_Key.space	Key.space	n/a
31.7295	0.088	63459	keystroke_c	c	n/a
31.8735	0.08	63747	keystroke_h	h	n/a
32.0815	0.16	64163	keystroke_a	a	n/a
32.1535	0.096	64307	keystroke_n	n	n/a
32.3775	0.088	64755	keystroke_g	g	n/a
32.4575	0.144	64915	keystroke_e	e	n/a
32.7285	0.176	65457	keystroke_s	s	n/a
32.8885	0.088	65777	keystroke_Key.enter	Key.enter	n/a
32.989	9.9795	65978	prompt	n/a	sponsored resist dylan deputy\n
34.3615	0.152	68723	keystroke_s	s	n/a
34.5215	0.072	69043	keystroke_p	p	n/a
34.7455	0.0955	69491	keystroke_o	o	n/a
35.161	0.08	70322	keystroke_n	n	n/a
35.4895	0.136	70979	keystroke_s	s	n/a
35.6175	0.08	71235	keystroke_o	o	n/a
35.961	0.104	71922	keystroke_r	r	n/a
36.145	0.104	72290	keystroke_e	e	n/a
36.297	0.104	72594	keystroke_d	d	n/a
36.649	0.104	73298	keystroke_Key.space	Key.space	n/a
37.193	0.072	74386	keystroke_r	r	n/a
37.337	0.1205	74674	keystroke_e	e	n/a
37.6895	0.168	75379	keystroke_s	s	n/a
37.8815	0.096	75763	keystroke_i	i	n/a
38.1055	0.16	76211	keystroke_s	s	n/a
38.3375	0.104	76675	keystroke_t	t	n/a
38.8335	0.104	77667	keystroke_Key.space	Key.space	n/a
39.4335	0.128	78867	keystroke_d	d	n/a
39.6175	0.08	79235	keystroke_y	y	n/a
40.209	0.088	80418	keystroke_l	l	n/a
40.4655	0.143	80931	keystroke_a	a	n/a
40.6485	0.096	81297	keystroke_n	n	n/a
40.8885	0.112	81777	keystroke_Key.space	Key.space	n/a
41.2725	0.12	82545	keystroke_d	d	n/a
41.5445	0.169	83089	keystroke_e	e	n/a
41.7295	0.096	83459	keystroke_p	p	n/a
42.0895	0.104	84179	keystroke_u	u	n/a
42.4015	0.096	84803	keystroke_t	t	n/a
42.5615	0.112	85123	keystroke_y	y	n/a
42.8565	0.104	85713	keystroke_Key.enter	Key.enter	n/a
42.973	13.1795	85946	prompt	n/a	founder tanks domestic start\n
44.633	0.112	89266	keystroke_f	f	n/a
44.761	0.096	89522	keystroke_o	o	n/a
44.961	0.08	89922	keystroke_u	u	n/a
45.169	0.0965	90338	keystroke_n	n	n/a
45.497	0.12	90994	keystroke_d	d	n/a
45.641	0.112	91282	keystroke_e	e	n/a
45.7605	0.12	91521	keystroke_r	r	n/a
46.1285	0.088	92257	keystroke_Key.space	Key.space	n/a
46.8655	0.064	93731	keystroke_t	t	n/a
47.3455	0.143	94691	keystroke_a	a	n/a
47.5125	0.104	95025	keystroke_n	n	n/a
47.8725	0.105	95745	keystroke_k	k	n/a
48.1125	0.112	96225	keystroke_s	s	n/a
48.3125	0.096	96625	keystroke_Key.space	Key.space	n/a
52.577	0.136	105154	keystroke_d	d	n/a
52.753	0.08	105506	keystroke_o	o	n/a
53.153	0.08	106306	keystroke_m	m	n/a
53.313	0.096	106626	keystroke_e	e	n/a
53.569	0.152	107138	keystroke_s	s	n/a
53.673	0.096	107346	keystroke_t	t	n/a
53.897	0.112	107794	keystroke_i	i	n/a
54.145	0.1525	108290	keystroke_c	c	n/a
54.4735	0.104	108947	keystroke_Key.space	Key.space	n/a
54.977	0.12	109954	keystroke_s	s	n/a
55.113	0.08	110226	keystroke_t	t	n/a
55.417	0.128	110834	keystroke_a	a	n/a
55.537	0.072	111074	keystroke_r	r	n/a
55.697	0.112	111394	keystroke_t	t	n/a
56.025	0.12	112050	keystroke_Key.enter	Key.enter	n/a
56.157	10.027	112314	prompt	n/a	that'd either sing resolution\n
57.2495	0.08	114499	keystroke_t	t	n/a
57.4495	0.112	114899	keystroke_h	h	n/a
57.6255	0.127	115251	keystroke_a	a	n/a
57.7445	0.089	115489	keystroke_t	t	n/a
58.2245	0.113	116449	keystroke_'	'	n/a
58.5125	0.129	117025	keystroke_d	d	n/a
58.7045	0.104	117409	keystroke_Key.space	Key.space	n/a
60.3855	0.151	120771	keystroke_e	e	n/a
60.5445	0.072	121089	keystroke_i	i	n/a
60.7685	0.096	121537	keystroke_t	t	n/a
60.9695	0.103	121939	keystroke_h	h	n/a
61.0815	0.111	122163	keystroke_e	e	n/a
61.2405	0.081	122481	keystroke_r	r	n/a
61.5125	0.112	123025	keystroke_Key.space	Key.space	n/a
61.737	0.128	123474	keystroke_s	s	n/a
61.817	0.12	123634	keystroke_i	i	n/a
62.041	0.112	124082	keystroke_n	n	n/a
62.521	0.112	125042	keystroke_g	g	n/a
63.385	0.12	126770	keystroke_Key.space	Key.space	n/a
63.841	0.08	127682	keystroke_r	r	n/a
63.993	0.104	127986	keystroke_e	e	n/a
64.2815	0.159	128563	keystroke_s	s	n/a
64.4165	0.08	128833	keystroke_o	o	n/a
64.6645	0.129	129329	keystroke_l	l	n/a
64.9605	0.088	129921	keystroke_u	u	n/a
65.185	0.096	130370	keystroke_t	t	n/a
65.417	0.096	130834	keystroke_i	i	n/a
65.6165	0.104	131233	keystroke_o	o	n/a
65.8165	0.104	131633	keystroke_n	n	n/a
66.0885	0.0885	132177	keystroke_Key.enter	Key.enter	n/a
66.189	10.2915	132378	prompt	n/a	barnes seen pour friendship\n
67.6085	0.08	135217	keystroke_b	b	n/a
67.7605	0.144	135521	keystroke_a	a	n/a
67.9125	0.064	135825	keystroke_r	r	n/a
68.361	0.072	136722	keystroke_n	n	n/a
68.537	0.104	137074	keystroke_e	e	n/a
68.809	0.152	137618	keystroke_s	s	n/a
69.057	0.08	138114	keystroke_Key.space	Key.space	n/a
69.561	0.144	139122	keystroke_s	s	n/a
69.977	0.096	139954	keystroke_e	e	n/a
70.2165	0.128	140433	keystroke_e	e	n/a
70.3605	0.104	140721	keystroke_n	n	n/a
70.8325	0.12	141665	keystroke_Key.space	Key.space	n/a
71.888	0.0885	143776	keystroke_p	p	n/a
72.0885	0.0955	144177	keystroke_o	o	n/a
72.344	0.088	144688	keystroke_u	u	n/a
72.6005	0.0955	145201	keystroke_r	r	n/a
72.9445	0.096	145889	keystroke_Key.space	Key.space	n/a
74.1765	0.088	148353	keystroke_f	f	n/a
74.3765	0.088	148753	keystroke_r	r	n/a
74.6965	0.112	149393	keystroke_i	i	n/a
74.9925	0.104	149985	keystroke_e	e	n/a
75.1285	0.088	150257	keystroke_n	n	n/a
75.3285	0.104	150657	keystroke_d	d	n/a
75.6245	0.16	151249	keystroke_s	s	n/a
75.7125	0.12	151425	keystroke_h	h	n/a
75.9045	0.104	151809	keystroke_i	i	n/a
76.1365	0.096	152273	keystroke_p	p	n/a
76.368	0.104	152736	keystroke_Key.enter	Key.enter	n/a
76.485	13.1865	152970	prompt	n/a	references meyer wichita troubleshooting\n
77.872	0.0645	155744	keystroke_r	r	n/a
78.0565	0.112	156113	keystroke_e	e	n/a
78.256	0.072	156512	keystroke_f	f	n/a
78.36	0.144	156720	keystroke_e	e	n/a
78.528	0.088	157056	keystroke_r	r	n/a
78.8	0.152	157600	keystroke_e	e	n/a
78.968	0.088	157936	keystroke_n	n	n/a
79.2405	0.0795	158481	keystroke_c	c	n/a
79.368	0.1445	158736	keystroke_e	e	n/a
79.7125	0.144	159425	keystroke_s	s	n/a
79.8965	0.08	159793	keystroke_Key.space	Key.space	n/a
80.4725	0.088	160945	keystroke_m	m	n/a
80.8805	0.152	161761	keystroke_e	e	n/a
81.0885	0.096	162177	keystroke_y	y	n/a
81.2485	0.144	162497	keystroke_e	e	n/a
81.3765	0.104	162753	keystroke_r	r	n/a
81.7205	0.104	163441	keystroke_Key.space	Key.space	n/a
82.5445	0.136	165089	keystroke_w	w	n/a
82.7045	0.072	165409	keystroke_i	i	n/a
83.0165	0.168	166033	keystroke_c	c	n/a
84.6565	0.096	169313	keystroke_h	h	n/a
84.8485	0.0965	169697	keystroke_i	i	n/a
85.129	0.088	170258	keystroke_t	t	n/a
85.313	0.112	170626	keystroke_a	a	n/a
85.568	0.104	171136	keystroke_Key.space	Key.space	n/a
86.193	0.095	172386	keystroke_t	t	n/a
86.408	0.128	172816	keystroke_r	r	n/a
86.561	0.1195	173122	keystroke_o	o	n/a
86.7765	0.088	173553	keystroke_u	u	n/a
87.0085	0.104	174017	keystroke_b	b	n/a
87.2725	0.104	174545	keystroke_l	l	n/a
87.4645	0.128	174929	keystroke_e	e	n/a
87.825	0.136	175650	keystroke_s	s	n/a
87.929	0.12	175858	keystroke_h	h	n/a
88.137	0.104	176274	keystroke_o	o	n/a
88.337	0.128	176674	keystroke_o	o	n/a
88.593	0.088	177186	keystroke_t	t	n/a
88.801	0.088	177602	keystroke_i	i	n/a
88.985	0.144	177970	keystroke_n	n	n/a
89.225	0.104	178450	keystroke_g	g	n/a
89.56	0.1045	179120	keystroke_Key.enter	Key.enter	n/a
89.677	9.7865	179354	prompt	n/a	combine cadillac hundred viking\n
91.0885	0.112	182177	keystroke_c	c	n/a
91.2245	0.088	182449	keystroke_o	o	n/a
91.4245	0.12	182849	keystroke_m	m	n/a
91.7685	0.112	183537	keystroke_b	b	n/a
91.9525	0.12	183905	keystroke_i	i	n/a
92.2405	0.112	184481	keystroke_n	n	n/a
92.4085	0.16	184817	keystroke_e	e	n/a
92.6965	0.088	185393	keystroke_Key.space	Key.space	n/a
93.3685	0.08	186737	keystroke_c	c	n/a
93.664	0.1445	187328	keystroke_a	a	n/a
94.0565	0.1445	188113	keystroke_d	d	n/a
94.217	0.088	188434	keystroke_i	i	n/a
94.473	0.064	188946	keystroke_l	l	n/a
94.641	0.104	189282	keystroke_l	l	n/a
94.8405	0.1445	189681	keystroke_a	a	n/a
94.9925	0.0965	189985	keystroke_c	c	n/a
95.3035	0.105	190607	keystroke_Key.space	Key.space	n/a
95.912	0.104	191824	keystroke_h	h	n/a
96.1925	0.08	192385	keystroke_u	u	n/a
96.4165	0.096	192833	keystroke_n	n	n/a
96.72	0.096	193440	keystroke_d	d	n/a
96.872	0.12	193744	keystroke_r	r	n/a
97.096	0.112	194192	keystroke_e	e	n/a
97.296	0.096	194592	keystroke_d	d	n/a
97.624	0.1125	195248	keystroke_Key.space	Key.space	n/a
98.0085	0.112	196017	keystroke_v	v	n/a
98.24	0.088	196480	keystroke_i	i	n/a
98.464	0.096	196928	keystroke_k	k	n/a
98.656	0.104	197312	keystroke_i	i	n/a
98.864	0.112	197728	keystroke_n	n	n/a
99.08	0.12	198160	keystroke_g	g	n/a
99.352	0.104	198704	keystroke_Key.enter	Key.enter	n/a
99.468	30.3235	198936	prompt	n/a	walk ciao portion contribution\n
110.8325	0.14	221665	keystroke_a	a	n/a
110.9735	0.071	221947	keystroke_b	b	n/a
111.2265	0.118	222453	keystroke_o	o	n/a
111.4465	0.093	222893	keystroke_u	u	n/a
111.6705	0.0915	223341	keystroke_t	t	n/a
111.924	0.119	223848	keystroke_Key.space	Key.space	n/a
112.474	0.144	224948	keystroke_2	2	n/a
112.592	0.096	225184	keystroke_5	5	n/a
113.219	0.1395	226438	keystroke_-	-	n/a
113.6375	0.119	227275	keystroke_3	3	n/a
113.7775	0.093	227555	keystroke_0	0	n/a
114.1135	0.095	228227	keystroke_Key.space	Key.space	n/a
114.3425	0.116	228685	keystroke_m	m	n/a
114.5075	0.141	229015	keystroke_i	i	n/a
114.7345	0.114	229469	keystroke_n	n	n/a
116.3755	0.095	232751	keystroke_Key.enter	Key.enter	n/a
120.4475	0.104	240895	keystroke_w	w	n/a
120.8075	0.144	241615	keystroke_a	a	n/a
120.9275	0.088	241855	keystroke_l	l	n/a
121.1195	0.096	242239	keystroke_k	k	n/a
121.3755	0.112	242751	keystroke_Key.space	Key.space	n/a
121.84	0.096	243680	keystroke_c	c	n/a
122.136	0.112	244272	keystroke_i	i	n/a
124.0635	0.1125	248127	keystroke_a	a	n/a
124.192	0.104	248384	keystroke_o	o	n/a
124.488	0.064	248976	keystroke_Key.space	Key.space	n/a
124.856	0.096	249712	keystroke_p	p	n/a
125.056	0.088	250112	keystroke_o	o	n/a
125.248	0.096	250496	keystroke_r	r	n/a
125.384	0.088	250768	keystroke_t	t	n/a
125.624	0.104	251248	keystroke_i	i	n/a
125.8395	0.112	251679	keystroke_o	o	n/a
126.0635	0.112	252127	keystroke_n	n	n/a
126.4315	0.112	252863	keystroke_Key.space	Key.space	n/a
126.792	0.12	253584	keystroke_c	c	n/a
126.904	0.104	253808	keystroke_o	o	n/a
127.103	0.113	254206	keystroke_n	n	n/a
127.44	0.088	254880	keystroke_t	t	n/a
127.648	0.088	255296	keystroke_r	r	n/a
127.9755	0.128	255951	keystroke_i	i	n/a
128.28	0.1195	256560	keystroke_b	b	n/a
128.4715	0.104	256943	keystroke_u	u	n/a
128.6795	0.112	257359	keystroke_t	t	n/a
128.9755	0.096	257951	keystroke_i	i	n/a
129.1755	0.12	258351	keystroke_o	o	n/a
129.3675	0.12	258735	keystroke_n	n	n/a
129.6635	0.1205	259327	keystroke_Key.enter	Key.enter	n/a
129.796	11.067	259592	prompt	n/a	passes postposted warren violation\n
130.775	0.1045	261550	keystroke_p	p	n/a
130.9915	0.1595	261983	keystroke_a	a	n/a
131.463	0.1125	262926	keystroke_s	s	n/a
131.672	0.1755	263344	keystroke_s	s	n/a
131.8795	0.08	263759	keystroke_e	e	n/a
132.0235	0.184	264047	keystroke_s	s	n/a
132.2875	0.112	264575	keystroke_Key.space	Key.space	n/a
132.5995	0.112	265199	keystroke_p	p	n/a
132.8315	0.08	265663	keystroke_o	o	n/a
133.1035	0.12	266207	keystroke_s	s	n/a
133.2155	0.072	266431	keystroke_t	t	n/a
133.4715	0.12	266943	keystroke_p	p	n/a
133.7035	0.12	267407	keystroke_o	o	n/a
133.9435	0.104	267887	keystroke_n	n	n/a
134.1595	0.152	268319	keystroke_e	e	n/a
134.3595	0.1115	268719	keystroke_d	d	n/a
134.671	0.112	269342	keystroke_Key.space	Key.space	n/a
135.095	0.12	270190	keystroke_w	w	n/a
135.384	0.135	270768	keystroke_a	a	n/a
135.535	0.08	271070	keystroke_r	r	n/a
135.695	0.08	271390	keystroke_r	r	n/a
136.2155	0.144	272431	keystroke_e	e	n/a
136.3755	0.104	272751	keystroke_n	n	n/a
136.6315	0.104	273263	keystroke_Key.space	Key.space	n/a
137.1035	0.024	274207	keystroke_b	b	n/a
137.8395	0.12	275679	keystroke_Key.backspace	Key.backspace	n/a
138.1435	0.12	276287	keystroke_v	v	n/a
138.3915	0.064	276783	keystroke_i	i	n/a
138.9035	0.096	277807	keystroke_o	o	n/a
139.0955	0.12	278191	keystroke_l	l	n/a
139.5275	0.104	279055	keystroke_a	a	n/a
139.6795	0.08	279359	keystroke_t	t	n/a
139.9115	0.096	279823	keystroke_i	i	n/a
140.1115	0.104	280223	keystroke_o	o	n/a
140.3115	0.104	280623	keystroke_n	n	n/a
140.7275	0.128	281455	keystroke_Key.enter	Key.enter	n/a
140.8675	8.1475	281735	prompt	n/a	cleared from salad marion\n
142.0155	0.1115	284031	keystroke_c	c	n/a
142.151	0.072	284302	keystroke_l	l	n/a
142.2955	0.1445	284591	keystroke_e	e	n/a
142.632	0.16	285264	keystroke_a	a	n/a
142.744	0.08	285488	keystroke_r	r	n/a
142.944	0.088	285888	keystroke_e	e	n/a
143.136	0.096	286272	keystroke_d	d	n/a
143.44	0.128	286880	keystroke_Key.space	Key.space	n/a
143.808	0.143	287616	keystroke_d	d	n/a
144.5915	0.104	289183	keystroke_Key.backspace	Key.backspace	n/a
144.895	0.089	289790	keystroke_f	f	n/a
145.151	0.12	290302	keystroke_r	r	n/a
145.328	0.079	290656	keystroke_o	o	n/a
145.543	0.088	291086	keystroke_m	m	n/a
145.719	0.12	291438	keystroke_Key.space	Key.space	n/a
145.919	0.1045	291838	keystroke_s	s	n/a
146.2235	0.128	292447	keystroke_a	a	n/a
146.3115	0.12	292623	keystroke_l	l	n/a
146.5275	0.1595	293055	keystroke_a	a	n/a
146.679	0.12	293358	keystroke_d	d	n/a
147.015	0.12	294030	keystroke_Key.space	Key.space	n/a
147.487	0.0725	294974	keystroke_m	m	n/a
147.655	0.136	295310	keystroke_a	a	n/a
147.855	0.0965	295710	keystroke_r	r	n/a
148.1835	0.096	296367	keystroke_i	i	n/a
148.3835	0.112	296767	keystroke_o	o	n/a
148.5835	0.112	297167	keystroke_n	n	n/a
148.8955	0.112	297791	keystroke_Key.enter	Key.enter	n/a
149.0195	8.395	298039	prompt	n/a	terminal seller briefing sends\n
150.0315	0.08	300063	keystroke_t	t	n/a
150.2155	0.112	300431	keystroke_e	e	n/a
150.4875	0.1275	300975	keystroke_r	r	n/a
150.631	0.1045	301262	keystroke_m	m	n/a
150.8235	0.104	301647	keystroke_i	i	n/a
150.9995	0.128	301999	keystroke_n	n	n/a
151.2875	0.112	302575	keystroke_a	a	n/a
151.4235	0.128	302847	keystroke_l	l	n/a
151.735	0.12	303470	keystroke_Key.space	Key.space	n/a
152.207	0.12	304414	keystroke_s	s	n/a
152.4795	0.168	304959	keystroke_e	e	n/a
152.6395	0.072	305279	keystroke_l	l	n/a
152.7995	0.112	305599	keystroke_l	l	n/a
153.0075	0.136	306015	keystroke_e	e	n/a
153.1675	0.112	306335	keystroke_r	r	n/a
153.5195	0.12	307039	keystroke_Key.space	Key.space	n/a
153.9755	0.104	307951	keystroke_b	b	n/a
154.2315	0.1035	308463	keystroke_r	r	n/a
154.575	0.112	309150	keystroke_i	i	n/a
154.847	0.1035	309694	keystroke_e	e	n/a
155.0315	0.088	310063	keystroke_f	f	n/a
155.2475	0.12	310495	keystroke_i	i	n/a
155.4635	0.128	310927	keystroke_n	n	n/a
155.7275	0.104	311455	keystroke_g	g	n/a
155.9995	0.104	311999	keystroke_Key.space	Key.space	n/a
156.2955	0.111	312591	keystroke_s	s	n/a
156.5825	0.153	313165	keystroke_e	e	n/a
156.7515	0.072	313503	keystroke_n	n	n/a
156.9195	0.128	313839	keystroke_d	d	n/a
157.1755	0.136	314351	keystroke_s	s	n/a
157.3195	0.088	314639	keystroke_Key.enter	Key.enter	n/a
157.419	8.4035	314838	prompt	n/a	handled keep substances bones\n
158.455	0.072	316910	keystroke_h	h	n/a
158.631	0.112	317262	keystroke_a	a	n/a
158.751	0.072	317502	keystroke_n	n	n/a
159.119	0.128	318238	keystroke_d	d	n/a
159.375	0.096	318750	keystroke_l	l	n/a
159.735	0.1285	319470	keystroke_e	e	n/a
159.9675	0.12	319935	keystroke_d	d	n/a
160.223	0.104	320446	keystroke_Key.space	Key.space	n/a
160.8955	0.111	321791	keystroke_k	k	n/a
161.3505	0.097	322701	keystroke_e	e	n/a
161.5665	0.1365	323133	keystroke_e	e	n/a
161.695	0.104	323390	keystroke_p	p	n/a
161.9675	0.128	323935	keystroke_Key.space	Key.space	n/a
162.3275	0.136	324655	keystroke_s	s	n/a
162.4635	0.112	324927	keystroke_u	u	n/a
162.7195	0.104	325439	keystroke_b	b	n/a
163.0475	0.072	326095	keystroke_s	s	n/a
163.1595	0.064	326319	keystroke_t	t	n/a
163.4315	0.088	326863	keystroke_a	a	n/a
163.4955	0.08	326991	keystroke_n	n	n/a
163.7515	0.072	327503	keystroke_c	c	n/a
163.8795	0.104	327759	keystroke_e	e	n/a
164.1515	0.152	328303	keystroke_s	s	n/a
164.3515	0.12	328703	keystroke_Key.space	Key.space	n/a
164.7515	0.104	329503	keystroke_b	b	n/a
164.9675	0.112	329935	keystroke_o	o	n/a
165.1675	0.112	330335	keystroke_n	n	n/a
165.2875	0.112	330575	keystroke_e	e	n/a
165.5435	0.16	331087	keystroke_s	s	n/a
165.7275	0.088	331455	keystroke_Key.enter	Key.enter	n/a
165.827	15.2925	331654	prompt	n/a	amendment laser stockholm cambodia\n
167.303	0.136	334606	keystroke_a	a	n/a
167.479	0.088	334958	keystroke_m	m	n/a
167.927	0.0955	335854	keystroke_e	e	n/a
168.0305	0.1045	336061	keystroke_n	n	n/a
168.3355	0.08	336671	keystroke_d	d	n/a
169.919	0.0965	339838	keystroke_m	m	n/a
170.1515	0.136	340303	keystroke_e	e	n/a
170.2235	0.104	340447	keystroke_n	n	n/a
170.4955	0.088	340991	keystroke_t	t	n/a
170.791	0.0965	341582	keystroke_Key.space	Key.space	n/a
171.271	0.088	342542	keystroke_l	l	n/a
171.423	0.112	342846	keystroke_a	a	n/a
171.655	0.12	343310	keystroke_s	s	n/a
171.935	0.1445	343870	keystroke_e	e	n/a
172.0875	0.08	344175	keystroke_r	r	n/a
172.4065	0.121	344813	keystroke_Key.space	Key.space	n/a
172.8155	0.152	345631	keystroke_s	s	n/a
172.9595	0.096	345919	keystroke_t	t	n/a
173.2235	0.048	346447	keystroke_o	o	n/a
173.6235	0.136	347247	keystroke_c	c	n/a
173.8155	0.088	347631	keystroke_k	k	n/a
174.3265	0.104	348653	keystroke_h	h	n/a
174.5105	0.112	349021	keystroke_o	o	n/a
174.7755	0.063	349551	keystroke_l	l	n/a
176.2865	0.0885	352573	keystroke_m	m	n/a
176.519	0.096	353038	keystroke_Key.space	Key.space	n/a
177.2385	0.088	354477	keystroke_c	c	n/a
179.191	0.136	358382	keystroke_a	a	n/a
179.303	0.088	358606	keystroke_m	m	n/a
179.831	0.12	359662	keystroke_b	b	n/a
180.191	0.0955	360382	keystroke_o	o	n/a
180.4785	0.104	360957	keystroke_d	d	n/a
180.6385	0.064	361277	keystroke_i	i	n/a
180.8465	0.12	361693	keystroke_a	a	n/a
181.0305	0.08	362061	keystroke_Key.enter	Key.enter	n/a
181.1235	10.6905	362247	prompt	n/a	beginner exports enclosed spelling\n
182.5505	0.08	365101	keystroke_b	b	n/a
182.9355	0.096	365871	keystroke_e	e	n/a
183.0395	0.087	366079	keystroke_g	g	n/a
183.2145	0.12	366429	keystroke_i	i	n/a
183.4625	0.104	366925	keystroke_n	n	n/a
184.1745	0.144	368349	keystroke_n	n	n/a
184.7345	0.12	369469	keystroke_e	e	n/a
184.871	0.064	369742	keystroke_r	r	n/a
185.095	0.128	370190	keystroke_Key.space	Key.space	n/a
185.319	0.08	370638	keystroke_e	e	n/a
185.679	0.056	371358	keystroke_x	x	n/a
185.767	0.096	371534	keystroke_p	p	n/a
185.991	0.088	371982	keystroke_o	o	n/a
186.279	0.088	372558	keystroke_r	r	n/a
186.463	0.104	372926	keystroke_t	t	n/a
186.6705	0.144	373341	keystroke_s	s	n/a
186.9265	0.096	373853	keystroke_Key.space	Key.space	n/a
187.5265	0.08	375053	keystroke_e	e	n/a
188.1755	0.095	376351	keystroke_n	n	n/a
188.3825	0.12	376765	keystroke_c	c	n/a
188.4785	0.096	376957	keystroke_l	l	n/a
188.6865	0.088	377373	keystroke_o	o	n/a
188.846	0.096	377692	keystroke_s	s	n/a
189.095	0.128	378190	keystroke_e	e	n/a
189.367	0.152	378734	keystroke_d	d	n/a
189.598	0.112	379196	keystroke_Key.space	Key.space	n/a
189.91	0.1525	379820	keystroke_s	s	n/a
190.0635	0.079	380127	keystroke_p	p	n/a
190.2545	0.168	380509	keystroke_e	e	n/a
190.647	0.088	381294	keystroke_l	l	n/a
190.815	0.096	381630	keystroke_l	l	n/a
191.023	0.088	382046	keystroke_i	i	n/a
191.223	0.112	382446	keystroke_n	n	n/a
191.439	0.096	382878	keystroke_g	g	n/a
191.7105	0.096	383421	keystroke_Key.enter	Key.enter	n/a
191.818	18.9235	383636	prompt	n/a	pipes toolbox combat unlock\n
198.28	0.073	396560	keystroke_y	y	n/a
198.417	0.116	396834	keystroke_e	e	n/a
198.665	0.159	397330	keystroke_s	s	n/a
198.881	0.093	397762	keystroke_Key.enter	Key.enter	n/a
202.7825	0.088	405565	keystroke_p	p	n/a
203.0145	0.088	406029	keystroke_i	i	n/a
203.2465	0.088	406493	keystroke_p	p	n/a
203.4385	0.104	406877	keystroke_e	e	n/a
203.7345	0.08	407469	keystroke_s	s	n/a
203.9495	0.0965	407899	keystroke_Key.space	Key.space	n/a
204.558	0.105	409116	keystroke_t	t	n/a
204.958	0.064	409916	keystroke_o	o	n/a
205.126	0.0885	410252	keystroke_o	o	n/a
205.318	0.112	410636	keystroke_l	l	n/a
205.71	0.072	411420	keystroke_b	b	n/a
205.926	0.096	411852	keystroke_o	o	n/a
206.3185	0.2	412637	keystroke_x	x	n/a
206.6225	0.0875	413245	keystroke_Key.space	Key.space	n/a
207.126	0.16	414252	keystroke_c	c	n/a
207.326	0.096	414652	keystroke_o	o	n/a
207.526	0.104	415052	keystroke_m	m	n/a
207.9105	0.08	415821	keystroke_b	b	n/a
208.1025	0.128	416205	keystroke_a	a	n/a
208.3015	0.112	416603	keystroke_t	t	n/a
208.6055	0.096	417211	keystroke_Key.space	Key.space	n/a
209.3015	0.08	418603	keystroke_u	u	n/a
209.4855	0.112	418971	keystroke_n	n	n/a
209.7175	0.112	419435	keystroke_l	l	n/a
209.9335	0.08	419867	keystroke_o	o	n/a
210.246	0.129	420492	keystroke_c	c	n/a
210.406	0.072	420812	keystroke_k	k	n/a
210.6385	0.096	421277	keystroke_Key.enter	Key.enter	n/a
210.7455	9.46	421491	prompt	n/a	expo courier celebrities address\n
211.838	0.112	423676	keystroke_e	e	n/a
212.19	0.136	424380	keystroke_x	x	n/a
212.318	0.072	424636	keystroke_p	p	n/a
212.55	0.096	425100	keystroke_o	o	n/a
213.11	0.104	426220	keystroke_Key.space	Key.space	n/a
213.6465	0.136	427293	keystroke_c	c	n/a
213.7825	0.096	427565	keystroke_o	o	n/a
214.0385	0.087	428077	keystroke_u	u	n/a
214.3825	0.095	428765	keystroke_r	r	n/a
214.8455	0.096	429691	keystroke_i	i	n/a
215.3335	0.128	430667	keystroke_e	e	n/a
215.4625	0.087	430925	keystroke_r	r	n/a
215.798	0.136	431596	keystroke_Key.space	Key.space	n/a
216.166	0.096	432332	keystroke_c	c	n/a
216.334	0.136	432668	keystroke_e	e	n/a
216.51	0.104	433020	keystroke_l	l	n/a
216.6785	0.136	433357	keystroke_e	e	n/a
216.854	0.104	433708	keystroke_b	b	n/a
217.126	0.088	434252	keystroke_r	r	n/a
217.398	0.1445	434796	keystroke_i	i	n/a
217.6785	0.096	435357	keystroke_t	t	n/a
217.8945	0.104	435789	keystroke_i	i	n/a
218.0545	0.152	436109	keystroke_e	e	n/a
218.3745	0.128	436749	keystroke_s	s	n/a
218.5505	0.104	437101	keystroke_Key.space	Key.space	n/a
218.8385	0.136	437677	keystroke_a	a	n/a
219.0545	0.072	438109	keystroke_d	d	n/a
219.2065	0.128	438413	keystroke_d	d	n/a
219.3505	0.104	438701	keystroke_r	r	n/a
219.5265	0.096	439053	keystroke_e	e	n/a
219.7025	0.136	439405	keystroke_s	s	n/a
219.9505	0.152	439901	keystroke_s	s	n/a
220.0945	0.1035	440189	keystroke_Key.enter	Key.enter	n/a
220.21	18.155	440420	prompt	n/a	lynn achievements tenant toddler\n
221.3655	0.112	442731	keystroke_l	l	n/a
221.7745	0.088	443549	keystroke_y	y	n/a
222.0545	0.072	444109	keystroke_n	n	n/a
222.238	0.096	444476	keystroke_n	n	n/a
222.614	0.096	445228	keystroke_Key.space	Key.space	n/a
223.006	0.1365	446012	keystroke_a	a	n/a
223.1105	0.104	446221	keystroke_c	c	n/a
223.3265	0.104	446653	keystroke_h	h	n/a
223.5985	0.112	447197	keystroke_e	e	n/a
223.8945	0.12	447789	keystroke_i	i	n/a
224.2215	0.073	448443	keystroke_v	v	n/a
224.3185	0.144	448637	keystroke_e	e	n/a
224.8785	0.112	449757	keystroke_m	m	n/a
225.1745	0.104	450349	keystroke_e	e	n/a
225.2545	0.104	450509	keystroke_n	n	n/a
225.5185	0.088	451037	keystroke_t	t	n/a
225.6785	0.136	451357	keystroke_s	s	n/a
225.95	0.104	451900	keystroke_Key.space	Key.space	n/a
232.518	0.088	465036	keystroke_i	i	n/a
232.758	0.12	465516	keystroke_e	e	n/a
232.95	0.064	465900	keystroke_v	v	n/a
233.2695	0.088	466539	keystroke_m	m	n/a
233.4375	0.136	466875	keystroke_e	e	n/a
233.5335	0.096	467067	keystroke_n	n	n/a
233.7975	0.0885	467595	keystroke_t	t	n/a
234.006	0.1275	468012	keystroke_s	s	n/a
234.2695	0.0885	468539	keystroke_Key.space	Key.space	n/a
234.902	0.072	469804	keystroke_t	t	n/a
235.1015	0.112	470203	keystroke_e	e	n/a
235.3495	0.088	470699	keystroke_n	n	n/a
235.6295	0.112	471259	keystroke_a	a	n/a
235.6935	0.104	471387	keystroke_n	n	n/a
235.9495	0.088	471899	keystroke_t	t	n/a
236.286	0.12	472572	keystroke_Key.space	Key.space	n/a
236.7495	0.104	473499	keystroke_t	t	n/a
237.038	0.104	474076	keystroke_o	o	n/a
237.3495	0.112	474699	keystroke_d	d	n/a
237.5655	0.152	475131	keystroke_d	d	n/a
237.7095	0.088	475419	keystroke_l	l	n/a
237.8775	0.1445	475755	keystroke_e	e	n/a
238.15	0.1285	476300	keystroke_r	r	n/a
238.2615	0.096	476523	keystroke_Key.enter	Key.enter	n/a
238.3715	10.9375	476743	prompt	n/a	chase resist commands cleaners\n
239.5575	0.112	479115	keystroke_c	c	n/a
239.7095	0.096	479419	keystroke_h	h	n/a
239.9255	0.1205	479851	keystroke_a	a	n/a
240.1575	0.112	480315	keystroke_s	s	n/a
240.4135	0.136	480827	keystroke_e	e	n/a
240.6535	0.104	481307	keystroke_Key.space	Key.space	n/a
242.165	0.08	484330	keystroke_r	r	n/a
242.278	0.1355	484556	keystroke_e	e	n/a
242.6295	0.152	485259	keystroke_s	s	n/a
242.7895	0.128	485579	keystroke_i	i	n/a
244.462	0.136	488924	keystroke_s	s	n/a
244.614	0.08	489228	keystroke_t	t	n/a
244.925	0.104	489850	keystroke_Key.space	Key.space	n/a
245.6455	0.128	491291	keystroke_c	c	n/a
245.7815	0.08	491563	keystroke_o	o	n/a
246.0375	0.0885	492075	keystroke_m	m	n/a
246.213	0.089	492426	keystroke_m	m	n/a
246.413	0.12	492826	keystroke_a	a	n/a
246.509	0.088	493018	keystroke_n	n	n/a
246.774	0.096	493548	keystroke_d	d	n/a
246.942	0.16	493884	keystroke_s	s	n/a
247.19	0.104	494380	keystroke_Key.space	Key.space	n/a
247.51	0.12	495020	keystroke_c	c	n/a
247.686	0.088	495372	keystroke_l	l	n/a
247.822	0.152	495644	keystroke_e	e	n/a
248.2695	0.1365	496539	keystroke_a	a	n/a
248.502	0.096	497004	keystroke_n	n	n/a
248.726	0.112	497452	keystroke_e	e	n/a
248.854	0.088	497708	keystroke_r	r	n/a
249.054	0.136	498108	keystroke_s	s	n/a
249.198	0.104	498396	keystroke_Key.enter	Key.enter	n/a
249.313	10.724	498626	prompt	n/a	celebrities beliefs prevention debut\n
250.35	0.128	500700	keystroke_c	c	n/a
250.678	0.168	501356	keystroke_e	e	n/a
250.886	0.112	501772	keystroke_l	l	n/a
251.03	0.152	502060	keystroke_e	e	n/a
251.2455	0.112	502491	keystroke_b	b	n/a
251.5175	0.104	503035	keystroke_r	r	n/a
251.798	0.151	503596	keystroke_i	i	n/a
252.062	0.104	504124	keystroke_t	t	n/a
252.293	0.089	504586	keystroke_i	i	n/a
252.477	0.12	504954	keystroke_e	e	n/a
252.813	0.1285	505626	keystroke_s	s	n/a
252.974	0.1035	505948	keystroke_Key.space	Key.space	n/a
253.5575	0.104	507115	keystroke_b	b	n/a
253.7255	0.152	507451	keystroke_e	e	n/a
253.8935	0.096	507787	keystroke_l	l	n/a
254.1255	0.088	508251	keystroke_i	i	n/a
254.478	0.136	508956	keystroke_e	e	n/a
254.734	0.104	509468	keystroke_f	f	n/a
255.006	0.152	510012	keystroke_s	s	n/a
255.213	0.096	510426	keystroke_Key.space	Key.space	n/a
255.998	0.088	511996	keystroke_p	p	n/a
256.382	0.071	512764	keystroke_r	r	n/a
256.549	0.1525	513098	keystroke_e	e	n/a
256.7255	0.08	513451	keystroke_v	v	n/a
256.8855	0.144	513771	keystroke_e	e	n/a
257.0055	0.104	514011	keystroke_n	n	n/a
257.2935	0.096	514587	keystroke_t	t	n/a
257.5495	0.096	515099	keystroke_i	i	n/a
257.7495	0.112	515499	keystroke_o	o	n/a
258.0135	0.112	516027	keystroke_n	n	n/a
258.3815	0.1125	516763	keystroke_Key.space	Key.space	n/a
258.8615	0.1205	517723	keystroke_d	d	n/a
259.125	0.144	518250	keystroke_e	e	n/a
259.245	0.121	518490	keystroke_b	b	n/a
259.437	0.088	518874	keystroke_u	u	n/a
259.629	0.104	519258	keystroke_t	t	n/a
259.925	0.104	519850	keystroke_Key.enter	Key.enter	n/a
260.041	10.0275	520082	prompt	n/a	welding spanish printed bathroom\n
261.037	0.104	522074	keystroke_w	w	n/a
261.253	0.144	522506	keystroke_e	e	n/a
261.509	0.096	523018	keystroke_l	l	n/a
261.6855	0.128	523371	keystroke_d	d	n/a
261.8535	0.072	523707	keystroke_i	i	n/a
262.1015	0.072	524203	keystroke_n	n	n/a
262.4055	0.0875	524811	keystroke_g	g	n/a
262.645	0.1275	525290	keystroke_Key.space	Key.space	n/a
262.9655	0.128	525931	keystroke_s	s	n/a
263.1085	0.0885	526217	keystroke_p	p	n/a
263.3405	0.129	526681	keystroke_a	a	n/a
264.197	0.12	528394	keystroke_n	n	n/a
264.389	0.104	528778	keystroke_i	i	n/a
264.525	0.168	529050	keystroke_s	s	n/a
264.821	0.096	529642	keystroke_h	h	n/a
265.245	0.128	530490	keystroke_Key.space	Key.space	n/a
265.845	0.064	531690	keystroke_p	p	n/a
266.061	0.112	532122	keystroke_r	r	n/a
266.245	0.104	532490	keystroke_i	i	n/a
266.445	0.12	532890	keystroke_n	n	n/a
266.717	0.08	533434	keystroke_t	t	n/a
266.845	0.104	533690	keystroke_e	e	n/a
267.021	0.104	534042	keystroke_d	d	n/a
267.301	0.12	534602	keystroke_Key.space	Key.space	n/a
268.149	0.088	536298	keystroke_b	b	n/a
268.325	0.128	536650	keystroke_a	a	n/a
268.501	0.088	537002	keystroke_t	t	n/a
268.741	0.096	537482	keystroke_h	h	n/a
269.0935	0.112	538187	keystroke_r	r	n/a
269.2615	0.072	538523	keystroke_o	o	n/a
269.4535	0.104	538907	keystroke_o	o	n/a
269.6535	0.1115	539307	keystroke_m	m	n/a
269.965	0.096	539930	keystroke_Key.enter	Key.enter	n/a
270.0725	18.3795	540145	prompt	n/a	complaints membership societies desired\n
271.269	0.168	542538	keystroke_c	c	n/a
271.445	0.072	542890	keystroke_o	o	n/a
271.613	0.1275	543226	keystroke_m	m	n/a
271.8285	0.097	543657	keystroke_p	p	n/a
272.021	0.1195	544042	keystroke_l	l	n/a
272.2775	0.096	544555	keystroke_i	i	n/a
276.5655	0.1115	553131	keystroke_Key.backspace	Key.backspace	n/a
277.1655	0.167	554331	keystroke_a	a	n/a
277.3245	0.072	554649	keystroke_i	i	n/a
277.5085	0.1125	555017	keystroke_n	n	n/a
277.765	0.08	555530	keystroke_t	t	n/a
277.885	0.168	555770	keystroke_s	s	n/a
278.1575	0.104	556315	keystroke_Key.space	Key.space	n/a
278.541	0.0965	557082	keystroke_m	m	n/a
278.7415	0.128	557483	keystroke_e	e	n/a
278.8695	0.088	557739	keystroke_m	m	n/a
279.2535	0.104	558507	keystroke_b	b	n/a
279.4855	0.088	558971	keystroke_e	e	n/a
279.6295	0.072	559259	keystroke_r	r	n/a
279.9335	0.144	559867	keystroke_s	s	n/a
280.165	0.12	560330	keystroke_h	h	n/a
280.4125	0.04	560825	keystroke_o	o	n/a
281.1565	0.144	562313	keystroke_Key.backspace	Key.backspace	n/a
282.005	0.128	564010	keystroke_i	i	n/a
282.229	0.128	564458	keystroke_p	p	n/a
283.237	0.104	566474	keystroke_Key.space	Key.space	n/a
283.925	0.12	567850	keystroke_s	s	n/a
284.069	0.0875	568138	keystroke_o	o	n/a
284.349	0.088	568698	keystroke_c	c	n/a
284.573	0.112	569146	keystroke_i	i	n/a
284.917	0.128	569834	keystroke_e	e	n/a
285.101	0.104	570202	keystroke_t	t	n/a
285.373	0.112	570746	keystroke_i	i	n/a
285.605	0.104	571210	keystroke_e	e	n/a
285.877	0.144	571754	keystroke_s	s	n/a
286.085	0.096	572170	keystroke_Key.space	Key.space	n/a
286.757	0.144	573514	keystroke_d	d	n/a
287.021	0.12	574042	keystroke_e	e	n/a
287.357	0.152	574714	keystroke_s	s	n/a
287.501	0.096	575002	keystroke_i	i	n/a
287.765	0.08	575530	keystroke_r	r	n/a
287.893	0.12	575786	keystroke_e	e	n/a
288.013	0.096	576026	keystroke_d	d	n/a
288.3405	0.1045	576681	keystroke_Key.enter	Key.enter	n/a
288.456	34.1875	576912	prompt	n/a	thin namely word remarkable\n
304.539	0.142	609078	keystroke_w	w	n/a
304.731	0.115	609462	keystroke_h	h	n/a
304.945	0.16	609890	keystroke_a	a	n/a
305.081	0.095	610162	keystroke_t	t	n/a
305.305	0.094	610610	keystroke_Key.space	Key.space	n/a
305.749	0.092	611498	keystroke_l	l	n/a
305.94	0.094	611880	keystroke_o	o	n/a
306.3555	0.07	612711	keystroke_g	g	n/a
306.5135	0.07	613027	keystroke_g	g	n/a
306.899	0.137	613798	keystroke_i	i	n/a
307.24	0.114	614480	keystroke_n	n	n/a
307.455	0.0925	614910	keystroke_g	g	n/a
307.6725	0.117	615345	keystroke_Key.space	Key.space	n/a
308.1945	0.161	616389	keystroke_p	p	n/a
308.644	0.14	617288	keystroke_a	a	n/a
308.785	0.069	617570	keystroke_r	r	n/a
308.957	0.092	617914	keystroke_t	t	n/a
309.568	0.118	619136	keystroke_Key.enter	Key.enter	n/a
314.1565	0.063	628313	keystroke_t	t	n/a
314.3245	0.104	628649	keystroke_h	h	n/a
314.4995	0.1125	628999	keystroke_i	i	n/a
315.1	0.088	630200	keystroke_n	n	n/a
315.34	0.08	630680	keystroke_Key.space	Key.space	n/a
316.0845	0.072	632169	keystroke_n	n	n/a
316.2205	0.168	632441	keystroke_a	a	n/a
316.4125	0.072	632825	keystroke_m	m	n/a
316.596	0.1445	633192	keystroke_e	e	n/a
316.7245	0.096	633449	keystroke_l	l	n/a
317.0765	0.12	634153	keystroke_y	y	n/a
317.5085	0.112	635017	keystroke_Key.space	Key.space	n/a
318.2845	0.112	636569	keystroke_w	w	n/a
318.4525	0.064	636905	keystroke_o	o	n/a
318.62	0.128	637240	keystroke_r	r	n/a
318.9	0.136	637800	keystroke_d	d	n/a
319.076	0.088	638152	keystroke_Key.space	Key.space	n/a
319.604	0.12	639208	keystroke_r	r	n/a
319.868	0.136	639736	keystroke_e	e	n/a
320.148	0.072	640296	keystroke_m	m	n/a
320.404	0.112	640808	keystroke_a	a	n/a
320.564	0.072	641128	keystroke_r	r	n/a
321.2595	0.08	642519	keystroke_k	k	n/a
321.5475	0.105	643095	keystroke_a	a	n/a
321.6525	0.088	643305	keystroke_b	b	n/a
322.1805	0.096	644361	keystroke_l	l	n/a
322.3725	0.136	644745	keystroke_e	e	n/a
322.5565	0.0795	645113	keystroke_Key.enter	Key.enter	n/a
322.6475	14.756	645295	prompt	n/a	prefer referral lincoln enquiry\n
323.668	0.088	647336	keystroke_p	p	n/a
324.044	0.08	648088	keystroke_r	r	n/a
324.18	0.144	648360	keystroke_e	e	n/a
324.372	0.112	648744	keystroke_f	f	n/a
324.516	0.136	649032	keystroke_e	e	n/a
324.652	0.088	649304	keystroke_r	r	n/a
324.988	0.128	649976	keystroke_Key.space	Key.space	n/a
325.636	0.072	651272	keystroke_r	r	n/a
325.836	0.128	651672	keystroke_e	e	n/a
326.06	0.12	652120	keystroke_f	f	n/a
326.348	0.128	652696	keystroke_e	e	n/a
326.556	0.0725	653112	keystroke_r	r	n/a
326.7165	0.096	653433	keystroke_r	r	n/a
327.1565	0.152	654313	keystroke_a	a	n/a
327.42	0.12	654840	keystroke_l	l	n/a
327.7005	0.12	655401	keystroke_Key.space	Key.space	n/a
328.1565	0.096	656313	keystroke_l	l	n/a
328.3885	0.096	656777	keystroke_i	i	n/a
328.636	0.1045	657272	keystroke_n	n	n/a
329.1085	0.128	658217	keystroke_c	c	n/a
329.2525	0.08	658505	keystroke_o	o	n/a
329.4525	0.1035	658905	keystroke_l	l	n/a
330.964	0.088	661928	keystroke_n	n	n/a
331.18	0.104	662360	keystroke_Key.space	Key.space	n/a
335.4835	0.096	670967	keystroke_e	e	n/a
335.6995	0.08	671399	keystroke_n	n	n/a
336.236	0.128	672472	keystroke_q	q	n/a
336.388	0.072	672776	keystroke_u	u	n/a
336.564	0.0955	673128	keystroke_i	i	n/a
336.9075	0.104	673815	keystroke_r	r	n/a
337.0195	0.088	674039	keystroke_y	y	n/a
337.2915	0.104	674583	keystroke_Key.enter	Key.enter	n/a
337.4075	9.0995	674815	prompt	n/a	quilt mercury affiliated wheel\n
338.8525	0.12	677705	keystroke_q	q	n/a
338.9565	0.079	677913	keystroke_u	u	n/a
339.1475	0.088	678295	keystroke_i	i	n/a
339.3405	0.111	678681	keystroke_l	l	n/a
339.8365	0.111	679673	keystroke_t	t	n/a
340.332	0.128	680664	keystroke_Key.space	Key.space	n/a
340.8995	0.104	681799	keystroke_m	m	n/a
341.196	0.08	682392	keystroke_e	e	n/a
341.316	0.064	682632	keystroke_r	r	n/a
341.492	0.1115	682984	keystroke_c	c	n/a
341.724	0.12	683448	keystroke_u	u	n/a
342.068	0.096	684136	keystroke_r	r	n/a
342.276	0.096	684552	keystroke_y	y	n/a
342.6515	0.112	685303	keystroke_Key.space	Key.space	n/a
342.9875	0.2	685975	keystroke_a	a	n/a
343.2835	0.0645	686567	keystroke_f	f	n/a
343.452	0.056	686904	keystroke_f	f	n/a
343.636	0.08	687272	keystroke_i	i	n/a
343.844	0.112	687688	keystroke_l	l	n/a
344.052	0.088	688104	keystroke_i	i	n/a
344.236	0.128	688472	keystroke_a	a	n/a
344.4035	0.088	688807	keystroke_t	t	n/a
344.5715	0.112	689143	keystroke_e	e	n/a
344.7075	0.096	689415	keystroke_d	d	n/a
345.0035	0.1125	690007	keystroke_Key.space	Key.space	n/a
345.372	0.144	690744	keystroke_w	w	n/a
345.54	0.08	691080	keystroke_h	h	n/a
345.748	0.144	691496	keystroke_e	e	n/a
346.02	0.184	692040	keystroke_e	e	n/a
346.188	0.112	692376	keystroke_l	l	n/a
346.388	0.112	692776	keystroke_Key.enter	Key.enter	n/a
346.511	8.6115	693022	prompt	n/a	webcast comment squad fatal\n
347.5235	0.12	695047	keystroke_w	w	n/a
347.7875	0.128	695575	keystroke_e	e	n/a
347.9795	0.0885	695959	keystroke_b	b	n/a
348.3235	0.112	696647	keystroke_c	c	n/a
348.4675	0.104	696935	keystroke_a	a	n/a
348.732	0.136	697464	keystroke_s	s	n/a
348.868	0.096	697736	keystroke_t	t	n/a
349.196	0.12	698392	keystroke_Key.space	Key.space	n/a
350.164	0.152	700328	keystroke_c	c	n/a
350.356	0.096	700712	keystroke_o	o	n/a
350.588	0.08	701176	keystroke_m	m	n/a
350.748	0.096	701496	keystroke_m	m	n/a
350.908	0.144	701816	keystroke_e	e	n/a
350.98	0.096	701960	keystroke_n	n	n/a
351.236	0.096	702472	keystroke_t	t	n/a
351.572	0.0955	703144	keystroke_Key.space	Key.space	n/a
352.2675	0.12	704535	keystroke_s	s	n/a
352.7	0.111	705400	keystroke_q	q	n/a
352.827	0.08	705654	keystroke_u	u	n/a
353.06	0.143	706120	keystroke_a	a	n/a
353.252	0.095	706504	keystroke_d	d	n/a
353.611	0.096	707222	keystroke_Key.space	Key.space	n/a
354.172	0.096	708344	keystroke_f	f	n/a
354.347	0.136	708694	keystroke_a	a	n/a
354.491	0.072	708982	keystroke_t	t	n/a
354.651	0.1445	709302	keystroke_a	a	n/a
354.8035	0.096	709607	keystroke_l	l	n/a
355.0195	0.096	710039	keystroke_Key.enter	Key.enter	n/a
355.127	71.5865	710254	prompt	n/a	milwaukee edge economy finds\n
375.8895	0.116	751779	keystroke_Key.down	Key.down	n/a
376.0765	0.095	752153	keystroke_Key.down	Key.down	n/a
377.46	0.069	754920	keystroke_Key.down	Key.down	n/a
393.599	0.093	787198	keystroke_g	g	n/a
394.341	0.091	788682	keystroke_l	l	n/a
394.515	0.093	789030	keystroke_a	a	n/a
394.772	0.184	789544	keystroke_d	d	n/a
395.046	0.09	790092	keystroke_Key.space	Key.space	n/a
411.0265	0.12	822053	keystroke_m	m	n/a
411.2825	0.096	822565	keystroke_i	i	n/a
412.4425	0.096	824885	keystroke_l	l	n/a
412.9145	0.104	825829	keystroke_w	w	n/a
413.2665	0.128	826533	keystroke_a	a	n/a
413.4265	0.072	826853	keystroke_u	u	n/a
413.8905	0.096	827781	keystroke_k	k	n/a
414.1065	0.096	828213	keystroke_e	e	n/a
414.3305	0.1285	828661	keystroke_e	e	n/a
414.5865	0.096	829173	keystroke_Key.space	Key.space	n/a
415.2825	0.128	830565	keystroke_e	e	n/a
415.6745	0.08	831349	keystroke_d	d	n/a
415.9625	0.056	831925	keystroke_g	g	n/a
417.059	0.072	834118	keystroke_=	=	n/a
418.099	0.072	836198	keystroke_Key.backspace	Key.backspace	n/a
418.299	0.08	836598	keystroke_Key.backspace	Key.backspace	n/a
419.042	0.264	838084	keystroke_Key.backspace	Key.backspace	n/a
420.699	0.12	841398	keystroke_d	d	n/a
420.899	0.08	841798	keystroke_g	g	n/a
421.05	0.113	842100	keystroke_e	e	n/a
421.394	0.096	842788	keystroke_Key.space	Key.space	n/a
421.882	0.12	843764	keystroke_e	e	n/a
422.267	0.127	844534	keystroke_c	c	n/a
422.418	0.088	844836	keystroke_o	o	n/a
423.6345	0.096	847269	keystroke_n	n	n/a
423.8425	0.088	847685	keystroke_o	o	n/a
424.0585	0.128	848117	keystroke_m	m	n/a
424.355	0.0875	848710	keystroke_y	y	n/a
425.01	0.136	850020	keystroke_Key.space	Key.space	n/a
425.602	0.097	851204	keystroke_f	f	n/a
425.714	0.089	851428	keystroke_i	i	n/a
425.923	0.111	851846	keystroke_n	n	n/a
426.2105	0.128	852421	keystroke_d	d	n/a
426.4825	0.128	852965	keystroke_s	s	n/a
426.6105	0.0635	853221	keystroke_Key.shift_r	Key.shift_r	n/a
426.6105	0.0955	853221	keystroke_Key.enter	Key.enter	n/a
426.718	10.4045	853436	prompt	n/a	reserves resource till determines\n
427.8025	0.072	855605	keystroke_r	r	n/a
427.8985	0.112	855797	keystroke_e	e	n/a
428.1465	0.1285	856293	keystroke_s	s	n/a
428.394	0.137	856788	keystroke_e	e	n/a
428.538	0.072	857076	keystroke_r	r	n/a
428.762	0.096	857524	keystroke_v	v	n/a
429.1865	0.088	858373	keystroke_e	e	n/a
429.4825	0.144	858965	keystroke_s	s	n/a
429.6985	0.072	859397	keystroke_Key.space	Key.space	n/a
430.4025	0.072	860805	keystroke_r	r	n/a
430.5225	0.12	861045	keystroke_e	e	n/a
431.1945	0.144	862389	keystroke_s	s	n/a
431.3225	0.104	862645	keystroke_o	o	n/a
431.7305	0.104	863461	keystroke_u	u	n/a
432.0505	0.072	864101	keystroke_r	r	n/a
432.2505	0.12	864501	keystroke_c	c	n/a
432.4425	0.12	864885	keystroke_e	e	n/a
432.7385	0.104	865477	keystroke_Key.space	Key.space	n/a
433.5785	0.072	867157	keystroke_t	t	n/a
433.8185	0.104	867637	keystroke_i	i	n/a
434.0825	0.088	868165	keystroke_l	l	n/a
434.2665	0.12	868533	keystroke_l	l	n/a
434.5705	0.104	869141	keystroke_Key.space	Key.space	n/a
434.8425	0.136	869685	keystroke_d	d	n/a
435.138	0.136	870276	keystroke_e	e	n/a
435.322	0.089	870644	keystroke_t	t	n/a
435.459	0.136	870918	keystroke_e	e	n/a
435.603	0.072	871206	keystroke_r	r	n/a
435.971	0.1355	871942	keystroke_m	m	n/a
436.1855	0.105	872371	keystroke_i	i	n/a
436.394	0.1125	872788	keystroke_n	n	n/a
436.6105	0.136	873221	keystroke_e	e	n/a
436.8825	0.152	873765	keystroke_s	s	n/a
437.0175	0.0965	874035	keystroke_Key.enter	Key.enter	n/a
437.128	11.073	874256	prompt	n/a	dreams resources drinks formula\n
438.3465	0.104	876693	keystroke_d	d	n/a
438.5065	0.096	877013	keystroke_r	r	n/a
438.6265	0.128	877253	keystroke_e	e	n/a
439.1145	0.144	878229	keystroke_a	a	n/a
439.3145	0.104	878629	keystroke_m	m	n/a
439.5225	0.152	879045	keystroke_s	s	n/a
439.7945	0.088	879589	keystroke_Key.space	Key.space	n/a
440.4745	0.08	880949	keystroke_r	r	n/a
440.6025	0.112	881205	keystroke_e	e	n/a
440.9705	0.144	881941	keystroke_s	s	n/a
441.0665	0.152	882133	keystroke_o	o	n/a
441.3145	0.104	882629	keystroke_u	u	n/a
441.5945	0.0955	883189	keystroke_r	r	n/a
441.802	0.112	883604	keystroke_c	c	n/a
441.978	0.12	883956	keystroke_e	e	n/a
442.25	0.168	884500	keystroke_s	s	n/a
442.474	0.0885	884948	keystroke_Key.space	Key.space	n/a
443.0895	0.128	886179	keystroke_d	d	n/a
443.267	0.0945	886534	keystroke_r	r	n/a
443.6905	0.12	887381	keystroke_i	i	n/a
443.9055	0.1285	887811	keystroke_n	n	n/a
444.33	0.0955	888660	keystroke_k	k	n/a
444.5215	0.168	889043	keystroke_s	s	n/a
444.826	0.0795	889652	keystroke_Key.space	Key.space	n/a
445.778	0.152	891556	keystroke_f	f	n/a
445.994	0.08	891988	keystroke_o	o	n/a
446.09	0.136	892180	keystroke_r	r	n/a
446.37	0.088	892740	keystroke_m	m	n/a
446.6425	0.072	893285	keystroke_u	u	n/a
446.874	0.1285	893748	keystroke_l	l	n/a
447.178	0.12	894356	keystroke_a	a	n/a
448.098	0.096	896196	keystroke_Key.enter	Key.enter	n/a
448.2055	13.2435	896411	prompt	n/a	breaks reduces intervention fewer\n
449.282	0.08	898564	keystroke_b	b	n/a
449.546	0.088	899092	keystroke_r	r	n/a
449.682	0.128	899364	keystroke_e	e	n/a
450.082	0.128	900164	keystroke_a	a	n/a
450.21	0.088	900420	keystroke_k	k	n/a
450.73	0.128	901460	keystroke_s	s	n/a
450.922	0.08	901844	keystroke_Key.space	Key.space	n/a
451.618	0.112	903236	keystroke_r	r	n/a
451.97	0.1205	903940	keystroke_e	e	n/a
452.8745	0.143	905749	keystroke_d	d	n/a
453.074	0.08	906148	keystroke_u	u	n/a
453.258	0.12	906516	keystroke_c	c	n/a
453.626	0.112	907252	keystroke_e	e	n/a
453.9385	0.144	907877	keystroke_s	s	n/a
454.1215	0.104	908243	keystroke_Key.space	Key.space	n/a
455.0345	0.095	910069	keystroke_i	i	n/a
455.2815	0.104	910563	keystroke_n	n	n/a
455.6575	0.088	911315	keystroke_t	t	n/a
455.8015	0.12	911603	keystroke_e	e	n/a
455.9295	0.081	911859	keystroke_r	r	n/a
456.154	0.08	912308	keystroke_v	v	n/a
456.514	0.1275	913028	keystroke_e	e	n/a
456.6495	0.08	913299	keystroke_n	n	n/a
456.8975	0.104	913795	keystroke_t	t	n/a
457.202	0.064	914404	keystroke_i	i	n/a
457.386	0.096	914772	keystroke_o	o	n/a
457.5935	0.088	915187	keystroke_n	n	n/a
459.8665	0.112	919733	keystroke_f	f	n/a
460.1145	0.0875	920229	keystroke_e	e	n/a
460.346	0.088	920692	keystroke_w	w	n/a
460.762	0.088	921524	keystroke_e	e	n/a
460.962	0.104	921924	keystroke_r	r	n/a
461.3375	0.104	922675	keystroke_Key.enter	Key.enter	n/a
461.3615	0.04	922723	keystroke_Key.shift_r	Key.shift_r	n/a
461.4535	29.243	922907	prompt	n/a	close verizon comments stereo\n
476.738	0.152	953476	keystroke_c	c	n/a
476.93	0.096	953860	keystroke_l	l	n/a
477.13	0.088	954260	keystroke_o	o	n/a
477.354	0.088	954708	keystroke_s	s	n/a
477.593	0.169	955186	keystroke_e	e	n/a
477.849	0.104	955698	keystroke_Key.space	Key.space	n/a
478.337	0.096	956674	keystroke_v	v	n/a
478.466	0.111	956932	keystroke_e	e	n/a
478.625	0.08	957250	keystroke_r	r	n/a
479.001	0.088	958002	keystroke_i	i	n/a
479.2575	0.192	958515	keystroke_z	z	n/a
479.4015	0.136	958803	keystroke_o	o	n/a
480.826	0.096	961652	keystroke_n	n	n/a
481.066	0.087	962132	keystroke_Key.space	Key.space	n/a
483.17	0.136	966340	keystroke_c	c	n/a
483.41	0.096	966820	keystroke_o	o	n/a
483.69	0.088	967380	keystroke_m	m	n/a
483.866	0.087	967732	keystroke_m	m	n/a
483.993	0.1525	967986	keystroke_e	e	n/a
484.089	0.0965	968178	keystroke_n	n	n/a
484.3455	0.096	968691	keystroke_t	t	n/a
484.5055	0.152	969011	keystroke_s	s	n/a
484.7455	0.088	969491	keystroke_Key.space	Key.space	n/a
485.5215	0.144	971043	keystroke_s	s	n/a
485.6735	0.096	971347	keystroke_t	t	n/a
485.986	0.135	971972	keystroke_e	e	n/a
486.137	0.0965	972274	keystroke_r	r	n/a
486.658	0.112	973316	keystroke_o	o	n/a
489.5535	0.12	979107	keystroke_Key.backspace	Key.backspace	n/a
490.0735	0.1365	980147	keystroke_e	e	n/a
490.274	0.112	980548	keystroke_o	o	n/a
490.562	0.127	981124	keystroke_Key.enter	Key.enter	n/a
490.7005	12.604	981401	prompt	n/a	mouse exemption combines john\n
491.93	0.111	983860	keystroke_m	m	n/a
492.113	0.112	984226	keystroke_o	o	n/a
492.313	0.096	984626	keystroke_u	u	n/a
492.5375	0.136	985075	keystroke_s	s	n/a
492.8015	0.128	985603	keystroke_e	e	n/a
492.9775	0.088	985955	keystroke_Key.space	Key.space	n/a
493.4895	0.112	986979	keystroke_e	e	n/a
493.8335	0.176	987667	keystroke_x	x	n/a
495.513	0.176	991026	keystroke_e	e	n/a
495.833	0.112	991666	keystroke_m	m	n/a
497.1295	0.128	994259	keystroke_p	p	n/a
497.6175	0.104	995235	keystroke_t	t	n/a
497.8975	0.112	995795	keystroke_i	i	n/a
498.0975	0.128	996195	keystroke_o	o	n/a
498.3535	0.128	996707	keystroke_n	n	n/a
499.1215	0.112	998243	keystroke_Key.space	Key.space	n/a
499.3135	0.136	998627	keystroke_c	c	n/a
499.4975	0.12	998995	keystroke_o	o	n/a
499.7695	0.088	999539	keystroke_m	m	n/a
500.0335	0.096	1000067	keystroke_b	b	n/a
500.2495	0.112	1000499	keystroke_i	i	n/a
500.5375	0.096	1001075	keystroke_n	n	n/a
500.7135	0.12	1001427	keystroke_e	e	n/a
501.0015	0.152	1002003	keystroke_s	s	n/a
501.4165	0.129	1002833	keystroke_Key.space	Key.space	n/a
501.961	0.128	1003922	keystroke_j	j	n/a
502.129	0.12	1004258	keystroke_o	o	n/a
502.785	0.096	1005570	keystroke_h	h	n/a
502.961	0.112	1005922	keystroke_n	n	n/a
503.185	0.1115	1006370	keystroke_Key.enter	Key.enter	n/a
503.193	0.024	1006386	keystroke_Key.shift_r	Key.shift_r	n/a
503.309	7.8115	1006618	prompt	n/a	also deviant sean tone\n
504.641	0.144	1009282	keystroke_a	a	n/a
504.825	0.096	1009650	keystroke_l	l	n/a
504.953	0.168	1009906	keystroke_s	s	n/a
505.153	0.096	1010306	keystroke_o	o	n/a
505.561	0.088	1011122	keystroke_Key.space	Key.space	n/a
506.001	0.144	1012002	keystroke_d	d	n/a
506.305	0.152	1012610	keystroke_e	e	n/a
506.425	0.096	1012850	keystroke_v	v	n/a
506.665	0.096	1013330	keystroke_i	i	n/a
506.929	0.144	1013858	keystroke_a	a	n/a
507.089	0.096	1014178	keystroke_n	n	n/a
507.3535	0.08	1014707	keystroke_t	t	n/a
508.2175	0.096	1016435	keystroke_Key.space	Key.space	n/a
508.6255	0.128	1017251	keystroke_s	s	n/a
508.8895	0.1115	1017779	keystroke_e	e	n/a
509.241	0.128	1018482	keystroke_a	a	n/a
509.377	0.088	1018754	keystroke_n	n	n/a
509.601	0.096	1019202	keystroke_Key.space	Key.space	n/a
510.1455	0.096	1020291	keystroke_t	t	n/a
510.441	0.1285	1020882	keystroke_o	o	n/a
510.6735	0.12	1021347	keystroke_n	n	n/a
510.8175	0.144	1021635	keystroke_e	e	n/a
511.0015	0.112	1022003	keystroke_Key.enter	Key.enter	n/a
511.124	13.645	1022248	prompt	n/a	count blond sanyo recorders\n
512.5055	0.1355	1025011	keystroke_c	c	n/a
512.785	0.12	1025570	keystroke_o	o	n/a
513.073	0.072	1026146	keystroke_u	u	n/a
513.2645	0.1205	1026529	keystroke_n	n	n/a
513.537	0.088	1027074	keystroke_t	t	n/a
513.857	0.104	1027714	keystroke_Key.space	Key.space	n/a
514.809	0.096	1029618	keystroke_b	b	n/a
515.105	0.104	1030210	keystroke_l	l	n/a
515.3615	0.08	1030723	keystroke_o	o	n/a
516.545	0.0955	1033090	keystroke_n	n	n/a
516.7365	0.12	1033473	keystroke_d	d	n/a
517.3605	0.096	1034721	keystroke_Key.space	Key.space	n/a
517.8165	0.112	1035633	keystroke_s	s	n/a
518.8095	0.152	1037619	keystroke_a	a	n/a
518.9855	0.104	1037971	keystroke_n	n	n/a
519.3855	0.088	1038771	keystroke_y	y	n/a
520.657	0.072	1041314	keystroke_o	o	n/a
520.921	0.112	1041842	keystroke_Key.space	Key.space	n/a
521.281	0.088	1042562	keystroke_r	r	n/a
521.425	0.12	1042850	keystroke_e	e	n/a
521.537	0.1035	1043074	keystroke_c	c	n/a
521.8005	0.113	1043601	keystroke_o	o	n/a
522.1205	0.072	1044241	keystroke_r	r	n/a
522.3045	0.112	1044609	keystroke_d	d	n/a
522.5365	0.112	1045073	keystroke_e	e	n/a
522.7205	0.096	1045441	keystroke_r	r	n/a
522.8965	0.128	1045793	keystroke_s	s	n/a
523.1045	0.08	1046209	keystroke_'	'	n/a
524.3605	0.08	1048721	keystroke_Key.backspace	Key.backspace	n/a
524.6405	0.12	1049281	keystroke_Key.enter	Key.enter	n/a
524.773	7.285	1049546	prompt	n/a	laboratories bleeding carroll hopefully\n
526.0415	0.072	1052083	keystroke_l	l	n/a
526.2415	0.136	1052483	keystroke_a	a	n/a
526.4175	0.088	1052835	keystroke_b	b	n/a
526.625	0.1035	1053250	keystroke_o	o	n/a
527.0325	0.088	1054065	keystroke_r	r	n/a
530.337	0.144	1060674	keystroke_a	a	n/a
530.505	0.104	1061010	keystroke_t	t	n/a
530.817	0.112	1061634	keystroke_o	o	n/a
531.105	0.112	1062210	keystroke_r	r	n/a
531.313	0.072	1062626	keystroke_i	i	n/a
531.505	0.104	1063010	keystroke_e	e	n/a
531.7605	0.144	1063521	keystroke_s	s	n/a
531.9285	0.128	1063857	keystroke_Key.enter	Key.enter	n/a
532.061	17.131	1064122	prompt	n/a	breeds mart falling enforcement\n
533.385	0.096	1066770	keystroke_b	b	n/a
533.673	0.08	1067346	keystroke_r	r	n/a
533.897	0.112	1067794	keystroke_e	e	n/a
534.4405	0.12	1068881	keystroke_e	e	n/a
534.7285	0.08	1069457	keystroke_d	d	n/a
534.8885	0.129	1069777	keystroke_s	s	n/a
535.1685	0.112	1070337	keystroke_Key.space	Key.space	n/a
535.489	0.08	1070978	keystroke_m	m	n/a
535.617	0.184	1071234	keystroke_a	a	n/a
535.881	0.088	1071762	keystroke_r	r	n/a
536.073	0.096	1072146	keystroke_t	t	n/a
536.473	0.12	1072946	keystroke_Key.space	Key.space	n/a
536.9205	0.088	1073841	keystroke_f	f	n/a
537.0485	0.144	1074097	keystroke_a	a	n/a
537.2645	0.08	1074529	keystroke_l	l	n/a
537.433	0.08	1074866	keystroke_l	l	n/a
537.641	0.104	1075282	keystroke_i	i	n/a
537.841	0.12	1075682	keystroke_n	n	n/a
538.081	0.096	1076162	keystroke_g	g	n/a
538.345	0.096	1076690	keystroke_Key.space	Key.space	n/a
539.073	0.104	1078146	keystroke_e	e	n/a
539.273	0.112	1078546	keystroke_n	n	n/a
540.025	0.12	1080050	keystroke_f	f	n/a
540.209	0.08	1080418	keystroke_o	o	n/a
540.337	0.128	1080674	keystroke_r	r	n/a
541.3445	0.0805	1082689	keystroke_n	n	n/a
541.617	0.0955	1083234	keystroke_c	c	n/a
541.7445	0.144	1083489	keystroke_e	e	n/a
541.9685	0.112	1083937	keystroke_m	m	n/a
542.1285	0.136	1084257	keystroke_e	e	n/a
542.2245	0.1125	1084449	keystroke_n	n	n/a
542.489	0.096	1084978	keystroke_t	t	n/a
542.832	0.112	1085664	keystroke_Key.space	Key.space	n/a
544.7125	0.08	1089425	keystroke_Key.backspace	Key.backspace	n/a
544.9125	0.0875	1089825	keystroke_Key.backspace	Key.backspace	n/a
545.112	0.0725	1090224	keystroke_Key.backspace	Key.backspace	n/a
545.289	0.088	1090578	keystroke_Key.backspace	Key.backspace	n/a
545.496	0.072	1090992	keystroke_Key.backspace	Key.backspace	n/a
545.696	0.104	1091392	keystroke_Key.backspace	Key.backspace	n/a
546.128	0.129	1092256	keystroke_Key.backspace	Key.backspace	n/a
547.1205	0.144	1094241	keystroke_Key.backspace	Key.backspace	n/a
547.9845	0.088	1095969	keystroke_c	c	n/a
548.1605	0.1275	1096321	keystroke_e	e	n/a
548.368	0.08	1096736	keystroke_m	m	n/a
548.48	0.144	1096960	keystroke_e	e	n/a
548.576	0.104	1097152	keystroke_n	n	n/a
548.792	0.1045	1097584	keystroke_t	t	n/a
549.08	0.104	1098160	keystroke_Key.enter	Key.enter	n/a
549.196	12.788	1098392	prompt	n/a	spot expiration someone coalition\n
550.353	0.176	1100706	keystroke_s	s	n/a
550.537	0.096	1101074	keystroke_p	p	n/a
550.745	0.096	1101490	keystroke_o	o	n/a
551.073	0.112	1102146	keystroke_t	t	n/a
551.8885	0.088	1103777	keystroke_Key.space	Key.space	n/a
552.1365	0.088	1104273	keystroke_e	e	n/a
552.4885	0.104	1104977	keystroke_x	x	n/a
552.6005	0.128	1105201	keystroke_p	p	n/a
552.8725	0.104	1105745	keystroke_i	i	n/a
553.784	0.113	1107568	keystroke_r	r	n/a
556.032	0.145	1112064	keystroke_a	a	n/a
556.184	0.088	1112368	keystroke_t	t	n/a
556.504	0.096	1113008	keystroke_i	i	n/a
556.6965	0.112	1113393	keystroke_o	o	n/a
556.9365	0.12	1113873	keystroke_n	n	n/a
557.304	0.105	1114608	keystroke_Key.space	Key.space	n/a
557.809	0.152	1115618	keystroke_s	s	n/a
557.953	0.104	1115906	keystroke_o	o	n/a
558.169	0.111	1116338	keystroke_m	m	n/a
558.344	0.153	1116688	keystroke_e	e	n/a
558.457	0.112	1116914	keystroke_o	o	n/a
558.689	0.104	1117378	keystroke_n	n	n/a
558.817	0.136	1117634	keystroke_e	e	n/a
559.04	0.112	1118080	keystroke_Key.space	Key.space	n/a
559.7045	0.128	1119409	keystroke_c	c	n/a
559.9365	0.08	1119873	keystroke_o	o	n/a
560.1525	0.128	1120305	keystroke_a	a	n/a
560.3125	0.104	1120625	keystroke_l	l	n/a
560.6005	0.096	1121201	keystroke_i	i	n/a
560.8965	0.104	1121793	keystroke_t	t	n/a
561.1205	0.104	1122241	keystroke_i	i	n/a
561.3285	0.112	1122657	keystroke_o	o	n/a
561.5285	0.112	1123057	keystroke_n	n	n/a
561.904	0.072	1123808	keystroke_Key.enter	Key.enter	n/a
561.9885	8.163	1123977	prompt	n/a	view shine chris cloud\n
563.3205	0.12	1126641	keystroke_v	v	n/a
563.5925	0.0955	1127185	keystroke_i	i	n/a
563.953	0.0875	1127906	keystroke_e	e	n/a
564.224	0.128	1128448	keystroke_w	w	n/a
564.448	0.096	1128896	keystroke_Key.space	Key.space	n/a
564.856	0.168	1129712	keystroke_s	s	n/a
565.032	0.112	1130064	keystroke_h	h	n/a
565.224	0.112	1130448	keystroke_i	i	n/a
565.76	0.072	1131520	keystroke_n	n	n/a
565.944	0.12	1131888	keystroke_e	e	n/a
566.176	0.088	1132352	keystroke_Key.space	Key.space	n/a
566.92	0.168	1133840	keystroke_c	c	n/a
567.144	0.096	1134288	keystroke_h	h	n/a
567.6165	0.104	1135233	keystroke_r	r	n/a
567.8405	0.072	1135681	keystroke_i	i	n/a
568.0645	0.12	1136129	keystroke_s	s	n/a
568.3365	0.08	1136673	keystroke_Key.space	Key.space	n/a
568.936	0.168	1137872	keystroke_c	c	n/a
569.12	0.096	1138240	keystroke_l	l	n/a
569.32	0.096	1138640	keystroke_o	o	n/a
569.5445	0.096	1139089	keystroke_u	u	n/a
569.8805	0.176	1139761	keystroke_d	d	n/a
570.0645	0.0795	1140129	keystroke_Key.enter	Key.enter	n/a
570.157	17.7625	1140314	prompt	n/a	alexander forum minor congressional\n
575.8965	0.152	1151793	keystroke_a	a	n/a
576.0725	0.0875	1152145	keystroke_l	l	n/a
576.32	0.104	1152640	keystroke_e	e	n/a
576.7515	0.121	1153503	keystroke_x	x	n/a
577.1275	0.129	1154255	keystroke_a	a	n/a
577.2475	0.081	1154495	keystroke_n	n	n/a
577.6165	0.112	1155233	keystroke_d	d	n/a
577.8005	0.104	1155601	keystroke_e	e	n/a
577.9365	0.12	1155873	keystroke_r	r	n/a
578.272	0.112	1156544	keystroke_Key.space	Key.space	n/a
578.992	0.112	1157984	keystroke_f	f	n/a
579.208	0.08	1158416	keystroke_o	o	n/a
579.552	0.144	1159104	keystroke_r	r	n/a
579.728	0.088	1159456	keystroke_u	u	n/a
580.008	0.096	1160016	keystroke_m	m	n/a
580.8235	0.104	1161647	keystroke_Key.space	Key.space	n/a
581.0645	0.087	1162129	keystroke_m	m	n/a
581.2725	0.08	1162545	keystroke_i	i	n/a
581.5035	0.104	1163007	keystroke_n	n	n/a
581.696	0.088	1163392	keystroke_o	o	n/a
582.08	0.152	1164160	keystroke_r	r	n/a
582.32	0.096	1164640	keystroke_Key.space	Key.space	n/a
583.032	0.12	1166064	keystroke_c	c	n/a
583.24	0.088	1166480	keystroke_o	o	n/a
583.7675	0.096	1167535	keystroke_n	n	n/a
584.1595	0.104	1168319	keystroke_g	g	n/a
584.4075	0.08	1168815	keystroke_r	r	n/a
585.824	0.12	1171648	keystroke_e	e	n/a
586.152	0.104	1172304	keystroke_s	s	n/a
586.368	0.128	1172736	keystroke_s	s	n/a
586.488	0.072	1172976	keystroke_i	i	n/a
586.6565	0.079	1173313	keystroke_o	o	n/a
586.8875	0.112	1173775	keystroke_n	n	n/a
587.1115	0.137	1174223	keystroke_a	a	n/a
587.2645	0.095	1174529	keystroke_l	l	n/a
587.8155	0.096	1175631	keystroke_Key.enter	Key.enter	n/a
587.924	9.9555	1175848	prompt	n/a	reproduced surge adequate mate\n
588.9605	0.071	1177921	keystroke_r	r	n/a
589.1355	0.136	1178271	keystroke_e	e	n/a
589.3035	0.136	1178607	keystroke_p	p	n/a
589.7035	0.104	1179407	keystroke_r	r	n/a
589.8155	0.08	1179631	keystroke_o	o	n/a
590.5115	0.128	1181023	keystroke_d	d	n/a
590.6555	0.072	1181311	keystroke_u	u	n/a
590.7995	0.128	1181599	keystroke_c	c	n/a
591.1195	0.104	1182239	keystroke_e	e	n/a
591.3355	0.072	1182671	keystroke_d	d	n/a
591.672	0.12	1183344	keystroke_Key.space	Key.space	n/a
592.04	0.136	1184080	keystroke_s	s	n/a
592.168	0.088	1184336	keystroke_u	u	n/a
592.416	0.072	1184832	keystroke_r	r	n/a
592.616	0.088	1185232	keystroke_g	g	n/a
592.8	0.112	1185600	keystroke_e	e	n/a
593.032	0.096	1186064	keystroke_Key.space	Key.space	n/a
593.9525	0.151	1187905	keystroke_a	a	n/a
594.1995	0.0805	1188399	keystroke_d	d	n/a
594.5435	0.096	1189087	keystroke_e	e	n/a
595.0075	0.1445	1190015	keystroke_q	q	n/a
595.2075	0.081	1190415	keystroke_u	u	n/a
595.4795	0.136	1190959	keystroke_a	a	n/a
595.6795	0.072	1191359	keystroke_t	t	n/a
595.8875	0.1125	1191775	keystroke_e	e	n/a
596.143	0.088	1192286	keystroke_Key.space	Key.space	n/a
597.056	0.08	1194112	keystroke_m	m	n/a
597.256	0.136	1194512	keystroke_a	a	n/a
597.44	0.072	1194880	keystroke_t	t	n/a
597.576	0.136	1195152	keystroke_e	e	n/a
597.784	0.088	1195568	keystroke_Key.enter	Key.enter	n/a
597.8835	18.923	1195767	prompt	n/a	myspace region enjoying should\n
598.96	0.104	1197920	keystroke_m	m	n/a
599.264	0.064	1198528	keystroke_y	y	n/a
599.904	0.112	1199808	keystroke_s	s	n/a
600.0715	0.0885	1200143	keystroke_p	p	n/a
600.232	0.112	1200464	keystroke_a	a	n/a
600.456	0.088	1200912	keystroke_c	c	n/a
600.592	0.136	1201184	keystroke_e	e	n/a
600.888	0.104	1201776	keystroke_Key.space	Key.space	n/a
601.496	0.064	1202992	keystroke_r	r	n/a
601.6315	0.152	1203263	keystroke_e	e	n/a
601.7995	0.136	1203599	keystroke_g	g	n/a
602.024	0.096	1204048	keystroke_i	i	n/a
602.24	0.112	1204480	keystroke_o	o	n/a
602.528	0.12	1205056	keystroke_n	n	n/a
606.5435	0.1675	1213087	keystroke_Key.space	Key.space	n/a
613.5195	0.112	1227039	keystroke_e	e	n/a
613.6475	0.08	1227295	keystroke_n	n	n/a
613.8555	0.088	1227711	keystroke_j	j	n/a
613.9995	0.12	1227999	keystroke_o	o	n/a
614.2715	0.096	1228543	keystroke_y	y	n/a
614.4475	0.128	1228895	keystroke_i	i	n/a
614.6955	0.112	1229391	keystroke_n	n	n/a
614.999	0.088	1229998	keystroke_g	g	n/a
615.303	0.104	1230606	keystroke_Key.space	Key.space	n/a
615.655	0.176	1231310	keystroke_s	s	n/a
615.799	0.096	1231598	keystroke_h	h	n/a
615.967	0.128	1231934	keystroke_o	o	n/a
616.167	0.08	1232334	keystroke_u	u	n/a
616.375	0.104	1232750	keystroke_l	l	n/a
616.495	0.169	1232990	keystroke_d	d	n/a
616.7035	0.096	1233407	keystroke_Key.enter	Key.enter	n/a
616.8115	10.443	1233623	prompt	n/a	membrane newcastle thanks adults\n
618.047	0.088	1236094	keystroke_m	m	n/a
618.295	0.128	1236590	keystroke_e	e	n/a
618.495	0.08	1236990	keystroke_m	m	n/a
619.231	0.08	1238462	keystroke_b	b	n/a
619.472	0.055	1238944	keystroke_r	r	n/a
619.711	0.1445	1239422	keystroke_a	a	n/a
619.9035	0.096	1239807	keystroke_n	n	n/a
620.6395	0.112	1241279	keystroke_e	e	n/a
620.8315	0.08	1241663	keystroke_Key.space	Key.space	n/a
621.4555	0.064	1242911	keystroke_n	n	n/a
621.6235	0.096	1243247	keystroke_e	e	n/a
621.872	0.167	1243744	keystroke_w	w	n/a
622.447	0.096	1244894	keystroke_c	c	n/a
622.567	0.184	1245134	keystroke_a	a	n/a
622.927	0.168	1245854	keystroke_s	s	n/a
623.127	0.08	1246254	keystroke_t	t	n/a
623.455	0.1125	1246910	keystroke_l	l	n/a
623.6795	0.144	1247359	keystroke_e	e	n/a
623.9745	0.104	1247949	keystroke_Key.space	Key.space	n/a
624.5275	0.08	1249055	keystroke_t	t	n/a
624.7435	0.064	1249487	keystroke_h	h	n/a
624.9355	0.16	1249871	keystroke_a	a	n/a
625.1035	0.104	1250207	keystroke_n	n	n/a
625.2715	0.104	1250543	keystroke_k	k	n/a
625.4795	0.12	1250959	keystroke_s	s	n/a
625.6225	0.1125	1251245	keystroke_Key.space	Key.space	n/a
625.815	0.1605	1251630	keystroke_a	a	n/a
626.0155	0.096	1252031	keystroke_d	d	n/a
626.2395	0.104	1252479	keystroke_u	u	n/a
626.4955	0.128	1252991	keystroke_l	l	n/a
626.847	0.08	1253694	keystroke_t	t	n/a
626.943	0.16	1253886	keystroke_s	s	n/a
627.151	0.096	1254302	keystroke_Key.enter	Key.enter	n/a
627.2585	14.036	1254517	prompt	n/a	interstate beast installations welsh\n
630.3755	0.088	1260751	keystroke_i	i	n/a
630.5595	0.112	1261119	keystroke_n	n	n/a
630.8715	0.072	1261743	keystroke_t	t	n/a
631.0395	0.1115	1262079	keystroke_e	e	n/a
631.168	0.063	1262336	keystroke_r	r	n/a
631.439	0.112	1262878	keystroke_s	s	n/a
631.615	0.0805	1263230	keystroke_t	t	n/a
631.871	0.104	1263742	keystroke_a	a	n/a
632.031	0.072	1264062	keystroke_t	t	n/a
632.183	0.144	1264366	keystroke_e	e	n/a
632.487	0.12	1264974	keystroke_Key.space	Key.space	n/a
632.959	0.08	1265918	keystroke_b	b	n/a
633.079	0.104	1266158	keystroke_e	e	n/a
633.415	0.104	1266830	keystroke_a	a	n/a
633.647	0.1435	1267294	keystroke_s	s	n/a
633.7985	0.088	1267597	keystroke_t	t	n/a
634.063	0.12	1268126	keystroke_Key.space	Key.space	n/a
634.759	0.096	1269518	keystroke_i	i	n/a
635.071	0.096	1270142	keystroke_n	n	n/a
635.303	0.128	1270606	keystroke_s	s	n/a
635.527	0.072	1271054	keystroke_t	t	n/a
635.919	0.168	1271838	keystroke_a	a	n/a
636.343	0.08	1272686	keystroke_l	l	n/a
636.527	0.096	1273054	keystroke_l	l	n/a
637.4465	0.152	1274893	keystroke_a	a	n/a
637.807	0.096	1275614	keystroke_t	t	n/a
638.071	0.096	1276142	keystroke_i	i	n/a
638.2705	0.12	1276541	keystroke_o	o	n/a
638.583	0.104	1277166	keystroke_n	n	n/a
638.767	0.144	1277534	keystroke_s	s	n/a
639.127	0.0955	1278254	keystroke_Key.space	Key.space	n/a
639.9675	0.135	1279935	keystroke_w	w	n/a
640.263	0.128	1280526	keystroke_e	e	n/a
640.487	0.0795	1280974	keystroke_l	l	n/a
640.767	0.12	1281534	keystroke_s	s	n/a
640.911	0.112	1281822	keystroke_h	h	n/a
641.183	0.104	1282366	keystroke_Key.enter	Key.enter	n/a
641.2985	7.2755	1282597	prompt	n/a	kinds bull mailing washer\n
642.407	0.0955	1284814	keystroke_k	k	n/a
642.5985	0.088	1285197	keystroke_i	i	n/a
642.9185	0.096	1285837	keystroke_n	n	n/a
643.1265	0.104	1286253	keystroke_d	d	n/a
643.4065	0.129	1286813	keystroke_s	s	n/a
643.5985	0.096	1287197	keystroke_Key.space	Key.space	n/a
644.0625	0.112	1288125	keystroke_b	b	n/a
644.2465	0.096	1288493	keystroke_u	u	n/a
644.543	0.088	1289086	keystroke_l	l	n/a
644.743	0.088	1289486	keystroke_l	l	n/a
645.191	0.12	1290382	keystroke_Key.space	Key.space	n/a
645.487	0.088	1290974	keystroke_m	m	n/a
645.655	0.136	1291310	keystroke_a	a	n/a
645.8305	0.096	1291661	keystroke_i	i	n/a
646.0465	0.104	1292093	keystroke_l	l	n/a
646.2705	0.096	1292541	keystroke_i	i	n/a
646.479	0.12	1292958	keystroke_n	n	n/a
646.7105	0.104	1293421	keystroke_g	g	n/a
646.9585	0.104	1293917	keystroke_Key.space	Key.space	n/a
647.2945	0.12	1294589	keystroke_w	w	n/a
647.5745	0.136	1295149	keystroke_a	a	n/a
647.8385	0.096	1295677	keystroke_s	s	n/a
647.9105	0.096	1295821	keystroke_h	h	n/a
648.0865	0.128	1296173	keystroke_e	e	n/a
648.1985	0.08	1296397	keystroke_r	r	n/a
648.447	0.1195	1296894	keystroke_Key.enter	Key.enter	n/a
648.5785	14.8195	1297157	prompt	n/a	ecuador ministries chorus promotion\n
652.007	0.128	1304014	keystroke_e	e	n/a
652.151	0.112	1304302	keystroke_c	c	n/a
652.519	0.088	1305038	keystroke_u	u	n/a
653.095	0.12	1306190	keystroke_d	d	n/a
653.271	0.144	1306542	keystroke_a	a	n/a
653.407	0.104	1306814	keystroke_r	r	n/a
653.7025	0.112	1307405	keystroke_Key.space	Key.space	n/a
654.0625	0.104	1308125	keystroke_m	m	n/a
654.3025	0.072	1308605	keystroke_i	i	n/a
654.5345	0.112	1309069	keystroke_n	n	n/a
654.735	0.08	1309470	keystroke_i	i	n/a
656.4065	0.136	1312813	keystroke_s	s	n/a
656.6065	0.0885	1313213	keystroke_t	t	n/a
656.783	0.104	1313566	keystroke_r	r	n/a
657.063	0.128	1314126	keystroke_i	i	n/a
657.287	0.112	1314574	keystroke_e	e	n/a
657.559	0.136	1315118	keystroke_s	s	n/a
657.799	0.088	1315598	keystroke_Key.space	Key.space	n/a
658.399	0.144	1316798	keystroke_c	c	n/a
658.575	0.1035	1317150	keystroke_h	h	n/a
659.335	0.08	1318670	keystroke_o	o	n/a
659.535	0.104	1319070	keystroke_r	r	n/a
660.055	0.08	1320110	keystroke_u	u	n/a
660.223	0.128	1320446	keystroke_s	s	n/a
660.479	0.096	1320958	keystroke_Key.space	Key.space	n/a
661.159	0.112	1322318	keystroke_p	p	n/a
661.415	0.104	1322830	keystroke_r	r	n/a
661.559	0.104	1323118	keystroke_o	o	n/a
661.822	0.112	1323644	keystroke_m	m	n/a
662.0155	0.0955	1324031	keystroke_o	o	n/a
662.2945	0.088	1324589	keystroke_t	t	n/a
662.5185	0.104	1325037	keystroke_i	i	n/a
662.7185	0.12	1325437	keystroke_o	o	n/a
662.9505	0.128	1325901	keystroke_n	n	n/a
663.2865	0.104	1326573	keystroke_Key.enter	Key.enter	n/a
663.402	9.516	1326804	prompt	n/a	jews offering daddy spanish\n
665.063	0.08	1330126	keystroke_j	j	n/a
665.215	0.08	1330430	keystroke_e	e	n/a
665.575	0.128	1331150	keystroke_w	w	n/a
665.855	0.136	1331710	keystroke_s	s	n/a
666.046	0.08	1332092	keystroke_Key.space	Key.space	n/a
666.815	0.088	1333630	keystroke_o	o	n/a
667.311	0.048	1334622	keystroke_f	f	n/a
667.471	0.0875	1334942	keystroke_f	f	n/a
667.5665	0.128	1335133	keystroke_e	e	n/a
667.6945	0.08	1335389	keystroke_r	r	n/a
667.9265	0.112	1335853	keystroke_i	i	n/a
668.1345	0.1365	1336269	keystroke_n	n	n/a
668.398	0.096	1336796	keystroke_g	g	n/a
668.7185	0.104	1337437	keystroke_Key.space	Key.space	n/a
669.6625	0.072	1339325	keystroke_d	d	n/a
669.8225	0.128	1339645	keystroke_a	a	n/a
669.998	0.08	1339996	keystroke_d	d	n/a
670.15	0.105	1340300	keystroke_d	d	n/a
670.343	0.12	1340686	keystroke_y	y	n/a
670.671	0.104	1341342	keystroke_Key.space	Key.space	n/a
671.511	0.1035	1343022	keystroke_s	s	n/a
671.638	0.088	1343276	keystroke_p	p	n/a
671.822	0.112	1343644	keystroke_a	a	n/a
671.998	0.12	1343996	keystroke_n	n	n/a
672.198	0.088	1344396	keystroke_i	i	n/a
672.358	0.144	1344716	keystroke_s	s	n/a
672.558	0.104	1345116	keystroke_h	h	n/a
672.806	0.104	1345612	keystroke_Key.enter	Key.enter	n/a
672.9225	9.7235	1345845	prompt	n/a	trout derived announcement regime\n
674.07	0.072	1348140	keystroke_t	t	n/a
674.246	0.136	1348492	keystroke_r	r	n/a
674.446	0.136	1348892	keystroke_o	o	n/a
674.694	0.096	1349388	keystroke_u	u	n/a
675.246	0.096	1350492	keystroke_t	t	n/a
675.598	0.112	1351196	keystroke_Key.space	Key.space	n/a
676.0865	0.12	1352173	keystroke_d	d	n/a
676.3425	0.128	1352685	keystroke_e	e	n/a
676.5185	0.08	1353037	keystroke_r	r	n/a
676.958	0.128	1353916	keystroke_i	i	n/a
677.31	0.096	1354620	keystroke_v	v	n/a
677.454	0.104	1354908	keystroke_e	e	n/a
677.702	0.128	1355404	keystroke_d	d	n/a
677.918	0.0965	1355836	keystroke_Key.space	Key.space	n/a
678.3185	0.144	1356637	keystroke_a	a	n/a
678.5665	0.08	1357133	keystroke_n	n	n/a
678.7265	0.104	1357453	keystroke_n	n	n/a
678.8785	0.128	1357757	keystroke_o	o	n/a
679.0705	0.08	1358141	keystroke_u	u	n/a
679.2945	0.096	1358589	keystroke_n	n	n/a
679.5585	0.088	1359117	keystroke_c	c	n/a
679.6865	0.112	1359373	keystroke_e	e	n/a
679.8785	0.104	1359757	keystroke_m	m	n/a
680.0145	0.152	1360029	keystroke_e	e	n/a
680.1345	0.12	1360269	keystroke_n	n	n/a
680.4145	0.104	1360829	keystroke_t	t	n/a
680.7825	0.12	1361565	keystroke_Key.space	Key.space	n/a
681.1745	0.072	1362349	keystroke_r	r	n/a
681.3425	0.1355	1362685	keystroke_e	e	n/a
681.598	0.0965	1363196	keystroke_g	g	n/a
681.7985	0.112	1363597	keystroke_i	i	n/a
682.127	0.104	1364254	keystroke_m	m	n/a
682.303	0.143	1364606	keystroke_e	e	n/a
682.534	0.105	1365068	keystroke_Key.enter	Key.enter	n/a
682.6495	8.7325	1365299	prompt	n/a	viewed reason writing chip\n
683.718	0.104	1367436	keystroke_v	v	n/a
683.966	0.104	1367932	keystroke_i	i	n/a
684.174	0.112	1368348	keystroke_e	e	n/a
684.494	0.128	1368988	keystroke_w	w	n/a
684.814	0.12	1369628	keystroke_e	e	n/a
685.006	0.096	1370012	keystroke_d	d	n/a
685.318	0.128	1370636	keystroke_Key.space	Key.space	n/a
685.822	0.072	1371644	keystroke_r	r	n/a
685.942	0.104	1371884	keystroke_e	e	n/a
686.27	0.104	1372540	keystroke_a	a	n/a
686.502	0.152	1373004	keystroke_s	s	n/a
686.9185	0.136	1373837	keystroke_o	o	n/a
687.2305	0.08	1374461	keystroke_n	n	n/a
687.6305	0.104	1375261	keystroke_Key.space	Key.space	n/a
688.2385	0.128	1376477	keystroke_w	w	n/a
688.6065	0.096	1377213	keystroke_r	r	n/a
688.7665	0.128	1377533	keystroke_i	i	n/a
689.0065	0.096	1378013	keystroke_y	y	n/a
689.1905	0.104	1378381	keystroke_i	i	n/a
689.4225	0.1115	1378845	keystroke_n	n	n/a
689.6545	0.096	1379309	keystroke_g	g	n/a
689.9095	0.128	1379819	keystroke_Key.space	Key.space	n/a
690.4225	0.144	1380845	keystroke_c	c	n/a
690.5745	0.112	1381149	keystroke_h	h	n/a
690.7665	0.088	1381533	keystroke_i	i	n/a
690.9985	0.0955	1381997	keystroke_p	p	n/a
691.27	0.104	1382540	keystroke_Key.enter	Key.enter	n/a
691.387	10.7545	1382774	prompt	n/a	elsewhere educated representing maria\n
692.5095	0.104	1385019	keystroke_e	e	n/a
692.6455	0.08	1385291	keystroke_l	l	n/a
692.8055	0.128	1385611	keystroke_s	s	n/a
693.0775	0.136	1386155	keystroke_e	e	n/a
693.4705	0.151	1386941	keystroke_w	w	n/a
693.7095	0.096	1387419	keystroke_h	h	n/a
693.8775	0.144	1387755	keystroke_e	e	n/a
694.0695	0.097	1388139	keystroke_r	r	n/a
694.2065	0.144	1388413	keystroke_e	e	n/a
694.5185	0.12	1389037	keystroke_Key.space	Key.space	n/a
695.0385	0.128	1390077	keystroke_e	e	n/a
695.7585	0.12	1391517	keystroke_d	d	n/a
695.9185	0.088	1391837	keystroke_u	u	n/a
696.1175	0.1045	1392235	keystroke_c	c	n/a
696.286	0.08	1392572	keystroke_t	t	n/a
696.606	0.1035	1393212	keystroke_a	a	n/a
697.0055	0.121	1394011	keystroke_e	e	n/a
697.1895	0.096	1394379	keystroke_d	d	n/a
697.4695	0.161	1394939	keystroke_Key.space	Key.space	n/a
697.9015	0.073	1395803	keystroke_r	r	n/a
698.078	0.1275	1396156	keystroke_e	e	n/a
698.2625	0.119	1396525	keystroke_p	p	n/a
698.6135	0.08	1397227	keystroke_r	r	n/a
698.7495	0.136	1397499	keystroke_e	e	n/a
699.0295	0.12	1398059	keystroke_s	s	n/a
699.3095	0.1445	1398619	keystroke_e	e	n/a
699.3665	0.103	1398733	keystroke_n	n	n/a
699.622	0.088	1399244	keystroke_t	t	n/a
699.814	0.12	1399628	keystroke_i	i	n/a
700.0385	0.1275	1400077	keystroke_n	n	n/a
700.286	0.096	1400572	keystroke_g	g	n/a
700.574	0.104	1401148	keystroke_Key.space	Key.space	n/a
701.006	0.088	1402012	keystroke_m	m	n/a
701.158	0.144	1402316	keystroke_a	a	n/a
701.326	0.104	1402652	keystroke_r	r	n/a
701.582	0.1045	1403164	keystroke_i	i	n/a
701.8785	0.136	1403757	keystroke_a	a	n/a
702.0375	0.096	1404075	keystroke_Key.enter	Key.enter	n/a
702.1455	7.9475	1404291	prompt	n/a	frames merry boss trends\n
703.23	0.08	1406460	keystroke_f	f	n/a
703.414	0.08	1406828	keystroke_r	r	n/a
703.614	0.144	1407228	keystroke_a	a	n/a
703.902	0.096	1407804	keystroke_m	m	n/a
704.15	0.104	1408300	keystroke_e	e	n/a
704.414	0.144	1408828	keystroke_s	s	n/a
704.614	0.104	1409228	keystroke_Key.space	Key.space	n/a
705.206	0.08	1410412	keystroke_m	m	n/a
705.398	0.136	1410796	keystroke_e	e	n/a
705.686	0.08	1411372	keystroke_r	r	n/a
705.846	0.088	1411692	keystroke_r	r	n/a
706.038	0.104	1412076	keystroke_y	y	n/a
706.414	0.1035	1412828	keystroke_Key.space	Key.space	n/a
706.6215	0.104	1413243	keystroke_b	b	n/a
706.8295	0.104	1413659	keystroke_o	o	n/a
707.1575	0.136	1414315	keystroke_s	s	n/a
707.3975	0.1445	1414795	keystroke_s	s	n/a
707.662	0.1035	1415324	keystroke_Key.space	Key.space	n/a
708.646	0.096	1417292	keystroke_t	t	n/a
708.838	0.088	1417676	keystroke_r	r	n/a
709.078	0.136	1418156	keystroke_e	e	n/a
709.398	0.096	1418796	keystroke_n	n	n/a
709.59	0.128	1419180	keystroke_d	d	n/a
709.854	0.152	1419708	keystroke_s	s	n/a
709.974	0.1115	1419948	keystroke_Key.enter	Key.enter	n/a
710.0975	38.4355	1420195	prompt	n/a	governor arthritis hostel mines\n
715.438	0.08	1430876	keystroke_g	g	n/a
715.63	0.112	1431260	keystroke_o	o	n/a
715.974	0.08	1431948	keystroke_v	v	n/a
716.118	0.096	1432236	keystroke_e	e	n/a
716.23	0.088	1432460	keystroke_r	r	n/a
716.71	0.104	1433420	keystroke_n	n	n/a
716.934	0.096	1433868	keystroke_o	o	n/a
717.198	0.112	1434396	keystroke_r	r	n/a
717.446	0.08	1434892	keystroke_Key.space	Key.space	n/a
740.462	0.159	1480924	keystroke_a	a	n/a
740.622	0.079	1481244	keystroke_r	r	n/a
743.221	0.08	1486442	keystroke_t	t	n/a
743.429	0.096	1486858	keystroke_h	h	n/a
743.709	0.104	1487418	keystroke_r	r	n/a
743.973	0.144	1487946	keystroke_i	i	n/a
744.2615	0.104	1488523	keystroke_t	t	n/a
744.4615	0.12	1488923	keystroke_i	i	n/a
744.7575	0.128	1489515	keystroke_s	s	n/a
744.9975	0.088	1489995	keystroke_Key.space	Key.space	n/a
745.662	0.119	1491324	keystroke_h	h	n/a
745.87	0.12	1491740	keystroke_o	o	n/a
746.077	0.128	1492154	keystroke_s	s	n/a
746.254	0.095	1492508	keystroke_t	t	n/a
746.566	0.1115	1493132	keystroke_e	e	n/a
746.7175	0.16	1493435	keystroke_l	l	n/a
747.0215	0.112	1494043	keystroke_Key.space	Key.space	n/a
747.5015	0.104	1495003	keystroke_m	m	n/a
747.6935	0.12	1495387	keystroke_i	i	n/a
747.8935	0.112	1495787	keystroke_n	n	n/a
748.0135	0.1195	1496027	keystroke_e	e	n/a
748.261	0.144	1496522	keystroke_s	s	n/a
748.421	0.104	1496842	keystroke_Key.enter	Key.enter	n/a
748.5375	14.955	1497075	prompt	n/a	resume automatically indigenous crossing\n
749.493	0.073	1498986	keystroke_r	r	n/a
749.662	0.119	1499324	keystroke_e	e	n/a
749.973	0.1685	1499946	keystroke_s	s	n/a
750.1655	0.0875	1500331	keystroke_u	u	n/a
750.421	0.096	1500842	keystroke_m	m	n/a
750.573	0.12	1501146	keystroke_e	e	n/a
750.765	0.112	1501530	keystroke_Key.space	Key.space	n/a
751.4935	0.1515	1502987	keystroke_a	a	n/a
751.661	0.072	1503322	keystroke_u	u	n/a
751.853	0.096	1503706	keystroke_t	t	n/a
752.069	0.12	1504138	keystroke_o	o	n/a
752.3255	0.112	1504651	keystroke_m	m	n/a
752.5415	0.1195	1505083	keystroke_a	a	n/a
752.685	0.096	1505370	keystroke_t	t	n/a
752.885	0.1125	1505770	keystroke_i	i	n/a
753.1335	0.104	1506267	keystroke_c	c	n/a
753.3735	0.1275	1506747	keystroke_a	a	n/a
753.525	0.088	1507050	keystroke_l	l	n/a
753.685	0.136	1507370	keystroke_l	l	n/a
753.965	0.096	1507930	keystroke_y	y	n/a
754.3405	0.1285	1508681	keystroke_Key.space	Key.space	n/a
754.8445	0.12	1509689	keystroke_i	i	n/a
755.061	0.12	1510122	keystroke_n	n	n/a
755.413	0.12	1510826	keystroke_d	d	n/a
756.6375	0.087	1513275	keystroke_i	i	n/a
757.0445	0.072	1514089	keystroke_g	g	n/a
757.3255	0.088	1514651	keystroke_e	e	n/a
758.197	0.1045	1516394	keystroke_n	n	n/a
758.4215	0.08	1516843	keystroke_p	p	n/a
759.4285	0.121	1518857	keystroke_Key.backspace	Key.backspace	n/a
760.309	0.104	1520618	keystroke_o	o	n/a
760.581	0.096	1521162	keystroke_u	u	n/a
760.821	0.136	1521642	keystroke_s	s	n/a
761.245	0.112	1522490	keystroke_Key.space	Key.space	n/a
761.7325	0.081	1523465	keystroke_c	c	n/a
761.9815	0.128	1523963	keystroke_r	r	n/a
762.2055	0.096	1524411	keystroke_o	o	n/a
762.3895	0.096	1524779	keystroke_s	s	n/a
762.597	0.144	1525194	keystroke_s	s	n/a
762.709	0.128	1525418	keystroke_i	i	n/a
762.901	0.136	1525802	keystroke_n	n	n/a
763.133	0.104	1526266	keystroke_g	g	n/a
763.389	0.096	1526778	keystroke_Key.enter	Key.enter	n/a
763.405	0.032	1526810	keystroke_'	'	n/a
763.497	9.5075	1526994	prompt	n/a	dist somehow circuits brings\n
764.6295	0.12	1529259	keystroke_d	d	n/a
764.7975	0.096	1529595	keystroke_i	i	n/a
764.9495	0.12	1529899	keystroke_s	s	n/a
765.1575	0.104	1530315	keystroke_t	t	n/a
765.4765	0.112	1530953	keystroke_Key.space	Key.space	n/a
765.9965	0.128	1531993	keystroke_s	s	n/a
766.1965	0.089	1532393	keystroke_o	o	n/a
766.4685	0.112	1532937	keystroke_m	m	n/a
766.6295	0.12	1533259	keystroke_e	e	n/a
766.9975	0.104	1533995	keystroke_h	h	n/a
767.2135	0.104	1534427	keystroke_o	o	n/a
767.6695	0.144	1535339	keystroke_w	w	n/a
767.9975	0.096	1535995	keystroke_Key.space	Key.space	n/a
768.8925	0.144	1537785	keystroke_c	c	n/a
769.2765	0.088	1538553	keystroke_i	i	n/a
769.5725	0.072	1539145	keystroke_r	r	n/a
769.7645	0.1285	1539529	keystroke_c	c	n/a
770.149	0.104	1540298	keystroke_u	u	n/a
770.3815	0.128	1540763	keystroke_i	i	n/a
770.6695	0.088	1541339	keystroke_t	t	n/a
770.8295	0.12	1541659	keystroke_s	s	n/a
771.1085	0.112	1542217	keystroke_Key.space	Key.space	n/a
771.717	0.12	1543434	keystroke_b	b	n/a
771.933	0.096	1543866	keystroke_r	r	n/a
772.1005	0.12	1544201	keystroke_i	i	n/a
772.3325	0.112	1544665	keystroke_n	n	n/a
772.5645	0.088	1545129	keystroke_g	g	n/a
772.6845	0.136	1545369	keystroke_s	s	n/a
772.8765	0.12	1545753	keystroke_Key.enter	Key.enter	n/a
773.009	8.467	1546018	prompt	n/a	thinking acer linear musician\n
773.9005	0.0805	1547801	keystroke_t	t	n/a
774.077	0.128	1548154	keystroke_h	h	n/a
774.253	0.12	1548506	keystroke_i	i	n/a
774.509	0.112	1549018	keystroke_n	n	n/a
774.725	0.104	1549450	keystroke_k	k	n/a
774.933	0.112	1549866	keystroke_i	i	n/a
775.141	0.144	1550282	keystroke_n	n	n/a
775.413	0.088	1550826	keystroke_g	g	n/a
775.661	0.128	1551322	keystroke_Key.space	Key.space	n/a
776.045	0.136	1552090	keystroke_a	a	n/a
776.197	0.104	1552394	keystroke_c	c	n/a
776.6125	0.089	1553225	keystroke_e	e	n/a
776.7415	0.104	1553483	keystroke_r	r	n/a
777.2455	0.127	1554491	keystroke_Key.space	Key.space	n/a
777.5335	0.1115	1555067	keystroke_l	l	n/a
777.765	0.096	1555530	keystroke_i	i	n/a
777.997	0.104	1555994	keystroke_n	n	n/a
778.3495	0.095	1556699	keystroke_e	e	n/a
778.5085	0.096	1557017	keystroke_r	r	n/a
778.9165	0.129	1557833	keystroke_Key.space	Key.space	n/a
779.2615	0.104	1558523	keystroke_m	m	n/a
779.5085	0.064	1559017	keystroke_u	u	n/a
779.7805	0.136	1559561	keystroke_s	s	n/a
780.133	0.112	1560266	keystroke_i	i	n/a
780.4045	0.096	1560809	keystroke_c	c	n/a
780.6525	0.096	1561305	keystroke_i	i	n/a
780.8925	0.1445	1561785	keystroke_a	a	n/a
781.109	0.096	1562218	keystroke_n	n	n/a
781.365	0.104	1562730	keystroke_Key.enter	Key.enter	n/a
781.48	6.852	1562960	prompt	n/a	care i'll babies prove\n
782.349	0.1035	1564698	keystroke_c	c	n/a
782.4605	0.184	1564921	keystroke_a	a	n/a
782.6445	0.096	1565289	keystroke_r	r	n/a
782.8605	0.136	1565721	keystroke_e	e	n/a
783.0605	0.104	1566121	keystroke_Key.space	Key.space	n/a
783.6765	0.08	1567353	keystroke_i	i	n/a
784.117	0.136	1568234	keystroke_'	'	n/a
784.493	0.072	1568986	keystroke_l	l	n/a
784.661	0.104	1569322	keystroke_l	l	n/a
784.973	0.1115	1569946	keystroke_Key.space	Key.space	n/a
785.5005	0.088	1571001	keystroke_b	b	n/a
785.6605	0.128	1571321	keystroke_a	a	n/a
785.8045	0.12	1571609	keystroke_b	b	n/a
786.0365	0.088	1572073	keystroke_i	i	n/a
786.2125	0.104	1572425	keystroke_e	e	n/a
786.4765	0.1445	1572953	keystroke_s	s	n/a
786.645	0.128	1573290	keystroke_Key.space	Key.space	n/a
787.173	0.088	1574346	keystroke_p	p	n/a
787.389	0.088	1574778	keystroke_r	r	n/a
787.517	0.112	1575034	keystroke_o	o	n/a
787.845	0.104	1575690	keystroke_v	v	n/a
787.989	0.12	1575978	keystroke_e	e	n/a
788.2125	0.112	1576425	keystroke_Key.enter	Key.enter	n/a
788.336	13.8035	1576672	prompt	n/a	hospitality you accessed essex\n
789.6365	0.128	1579273	keystroke_h	h	n/a
790.5245	0.08	1581049	keystroke_o	o	n/a
790.7485	0.128	1581497	keystroke_s	s	n/a
790.8605	0.144	1581721	keystroke_p	p	n/a
791.0925	0.088	1582185	keystroke_i	i	n/a
791.3565	0.088	1582713	keystroke_t	t	n/a
791.629	0.088	1583258	keystroke_a	a	n/a
791.725	0.08	1583450	keystroke_t	t	n/a
793.3885	0.104	1586777	keystroke_=	=	n/a
794.2605	0.112	1588521	keystroke_Key.backspace	Key.backspace	n/a
794.5485	0.064	1589097	keystroke_Key.backspace	Key.backspace	n/a
795.3565	0.104	1590713	keystroke_l	l	n/a
795.573	0.087	1591146	keystroke_i	i	n/a
796.0925	0.128	1592185	keystroke_t	t	n/a
796.3405	0.0965	1592681	keystroke_y	y	n/a
796.6685	0.144	1593337	keystroke_Key.space	Key.space	n/a
797.277	0.112	1594554	keystroke_y	y	n/a
797.493	0.152	1594986	keystroke_o	o	n/a
797.709	0.128	1595418	keystroke_u	u	n/a
798.036	0.128	1596072	keystroke_Key.space	Key.space	n/a
798.684	0.128	1597368	keystroke_a	a	n/a
798.884	0.088	1597768	keystroke_c	c	n/a
799.06	0.128	1598120	keystroke_c	c	n/a
799.364	0.112	1598728	keystroke_e	e	n/a
799.628	0.1125	1599256	keystroke_s	s	n/a
799.8445	0.144	1599689	keystroke_s	s	n/a
799.9645	0.104	1599929	keystroke_e	e	n/a
800.1725	0.104	1600345	keystroke_d	d	n/a
800.4925	0.112	1600985	keystroke_Key.space	Key.space	n/a
800.7245	0.144	1601449	keystroke_e	e	n/a
801.0365	0.128	1602073	keystroke_s	s	n/a
801.261	0.128	1602522	keystroke_s	s	n/a
801.525	0.072	1603050	keystroke_e	e	n/a
801.701	0.104	1603402	keystroke_x	x	n/a
802.021	0.111	1604042	keystroke_Key.enter	Key.enter	n/a
802.144	7.604	1604288	prompt	n/a	peer cove frontier ballet\n
803.2045	0.096	1606409	keystroke_p	p	n/a
803.4605	0.104	1606921	keystroke_e	e	n/a
803.693	0.1355	1607386	keystroke_e	e	n/a
803.8525	0.096	1607705	keystroke_r	r	n/a
804.1965	0.12	1608393	keystroke_Key.space	Key.space	n/a
804.4925	0.128	1608985	keystroke_c	c	n/a
804.6445	0.12	1609289	keystroke_o	o	n/a
805.0765	0.088	1610153	keystroke_v	v	n/a
805.2445	0.12	1610489	keystroke_e	e	n/a
805.4605	0.12	1610921	keystroke_Key.space	Key.space	n/a
805.9885	0.08	1611977	keystroke_f	f	n/a
806.2365	0.168	1612473	keystroke_r	r	n/a
806.3965	0.128	1612793	keystroke_o	o	n/a
806.6045	0.1195	1613209	keystroke_n	n	n/a
806.9	0.08	1613800	keystroke_t	t	n/a
807.124	0.136	1614248	keystroke_i	i	n/a
807.532	0.0965	1615064	keystroke_e	e	n/a
807.7005	0.088	1615401	keystroke_r	r	n/a
808.06	0.096	1616120	keystroke_Key.space	Key.space	n/a
808.444	0.0965	1616888	keystroke_b	b	n/a
808.5805	0.136	1617161	keystroke_a	a	n/a
808.7965	0.072	1617593	keystroke_l	l	n/a
808.9645	0.112	1617929	keystroke_l	l	n/a
809.1165	0.128	1618233	keystroke_e	e	n/a
809.3245	0.096	1618649	keystroke_t	t	n/a
809.6365	0.104	1619273	keystroke_Key.enter	Key.enter	n/a
809.752	7.9	1619504	prompt	n/a	who express photo insurance\n
810.788	0.168	1621576	keystroke_w	w	n/a
810.94	0.12	1621880	keystroke_h	h	n/a
811.148	0.12	1622296	keystroke_o	o	n/a
811.428	0.104	1622856	keystroke_Key.space	Key.space	n/a
811.564	0.1125	1623128	keystroke_e	e	n/a
811.8765	0.152	1623753	keystroke_x	x	n/a
812.0445	0.088	1624089	keystroke_p	p	n/a
812.3805	0.088	1624761	keystroke_r	r	n/a
812.5485	0.128	1625097	keystroke_e	e	n/a
812.8605	0.1355	1625721	keystroke_s	s	n/a
813.1165	0.144	1626233	keystroke_s	s	n/a
813.2445	0.144	1626489	keystroke_Key.space	Key.space	n/a
813.676	0.121	1627352	keystroke_p	p	n/a
814.036	0.1125	1628072	keystroke_h	h	n/a
814.2605	0.12	1628521	keystroke_o	o	n/a
814.5805	0.104	1629161	keystroke_t	t	n/a
814.8365	0.128	1629673	keystroke_o	o	n/a
815.1405	0.112	1630281	keystroke_Key.space	Key.space	n/a
815.4045	0.112	1630809	keystroke_i	i	n/a
815.6285	0.1035	1631257	keystroke_n	n	n/a
816.1	0.1605	1632200	keystroke_s	s	n/a
816.2275	0.121	1632455	keystroke_u	u	n/a
816.4925	0.08	1632985	keystroke_r	r	n/a
816.8525	0.0955	1633705	keystroke_a	a	n/a
816.94	0.104	1633880	keystroke_n	n	n/a
817.18	0.096	1634360	keystroke_c	c	n/a
817.308	0.152	1634616	keystroke_e	e	n/a
817.532	0.112	1635064	keystroke_Key.enter	Key.enter	n/a
817.6575	9.1935	1635315	prompt	n/a	clothes promote bernard double\n
818.6605	0.136	1637321	keystroke_c	c	n/a
818.8045	0.112	1637609	keystroke_l	l	n/a
819.0365	0.088	1638073	keystroke_o	o	n/a
819.4925	0.096	1638985	keystroke_t	t	n/a
819.7165	0.1115	1639433	keystroke_h	h	n/a
819.908	0.136	1639816	keystroke_s	s	n/a
820.124	0.1205	1640248	keystroke_Key.space	Key.space	n/a
820.756	0.136	1641512	keystroke_p	p	n/a
821.116	0.104	1642232	keystroke_r	r	n/a
821.2765	0.0955	1642553	keystroke_o	o	n/a
821.524	0.1365	1643048	keystroke_m	m	n/a
821.756	0.088	1643512	keystroke_o	o	n/a
822.164	0.096	1644328	keystroke_t	t	n/a
822.38	0.12	1644760	keystroke_e	e	n/a
822.6195	0.112	1645239	keystroke_Key.space	Key.space	n/a
823.2755	0.089	1646551	keystroke_b	b	n/a
823.4355	0.129	1646871	keystroke_e	e	n/a
823.612	0.0635	1647224	keystroke_r	r	n/a
824.0915	0.104	1648183	keystroke_n	n	n/a
824.2675	0.136	1648535	keystroke_a	a	n/a
824.4435	0.088	1648887	keystroke_r	r	n/a
824.66	0.112	1649320	keystroke_d	d	n/a
825.204	0.152	1650408	keystroke_Key.space	Key.space	n/a
825.572	0.12	1651144	keystroke_d	d	n/a
825.668	0.12	1651336	keystroke_o	o	n/a
825.9	0.08	1651800	keystroke_u	u	n/a
826.148	0.112	1652296	keystroke_b	b	n/a
826.404	0.096	1652808	keystroke_l	l	n/a
826.548	0.1365	1653096	keystroke_e	e	n/a
826.7405	0.103	1653481	keystroke_Key.enter	Key.enter	n/a
826.7475	0.032	1653495	keystroke_Key.shift_r	Key.shift_r	n/a
826.855	12.1405	1653710	prompt	n/a	chains committee what've spanking\n
828.1475	0.104	1656295	keystroke_c	c	n/a
828.2845	0.1035	1656569	keystroke_h	h	n/a
828.532	0.0955	1657064	keystroke_a	a	n/a
828.6035	0.12	1657207	keystroke_i	i	n/a
828.8525	0.112	1657705	keystroke_n	n	n/a
829.0435	0.168	1658087	keystroke_s	s	n/a
829.3235	0.088	1658647	keystroke_Key.space	Key.space	n/a
829.8525	0.12	1659705	keystroke_c	c	n/a
830.0275	0.104	1660055	keystroke_o	o	n/a
830.3235	0.104	1660647	keystroke_m	m	n/a
830.5315	0.136	1661063	keystroke_m	m	n/a
831.8115	0.136	1663623	keystroke_i	i	n/a
832.1235	0.128	1664247	keystroke_t	t	n/a
832.836	0.112	1665672	keystroke_e	e	n/a
833.076	0.136	1666152	keystroke_e	e	n/a
833.396	0.112	1666792	keystroke_Key.space	Key.space	n/a
833.828	0.112	1667656	keystroke_w	w	n/a
833.98	0.096	1667960	keystroke_h	h	n/a
834.196	0.096	1668392	keystroke_a	a	n/a
834.348	0.096	1668696	keystroke_t	t	n/a
835.444	0.104	1670888	keystroke_'	'	n/a
835.964	0.08	1671928	keystroke_v	v	n/a
836.14	0.136	1672280	keystroke_e	e	n/a
836.428	0.112	1672856	keystroke_Key.space	Key.space	n/a
837.2685	0.119	1674537	keystroke_s	s	n/a
837.4275	0.072	1674855	keystroke_p	p	n/a
837.6435	0.088	1675287	keystroke_a	a	n/a
837.8275	0.112	1675655	keystroke_n	n	n/a
837.9955	0.104	1675991	keystroke_k	k	n/a
838.1795	0.128	1676359	keystroke_i	i	n/a
838.3715	0.144	1676743	keystroke_n	n	n/a
838.6195	0.1045	1677239	keystroke_g	g	n/a
838.876	0.112	1677752	keystroke_Key.enter	Key.enter	n/a
838.9995	11.9955	1677999	prompt	n/a	afford hardcover ethnic jersey\n
839.9955	0.1445	1679991	keystroke_a	a	n/a
840.188	0.072	1680376	keystroke_f	f	n/a
840.34	0.088	1680680	keystroke_f	f	n/a
840.564	0.128	1681128	keystroke_o	o	n/a
840.932	0.096	1681864	keystroke_r	r	n/a
841.108	0.112	1682216	keystroke_d	d	n/a
841.348	0.12	1682696	keystroke_Key.space	Key.space	n/a
842.3155	0.08	1684631	keystroke_h	h	n/a
842.4435	0.168	1684887	keystroke_a	a	n/a
842.6515	0.0805	1685303	keystroke_r	r	n/a
842.876	0.088	1685752	keystroke_d	d	n/a
843.156	0.088	1686312	keystroke_c	c	n/a
843.412	0.144	1686824	keystroke_o	o	n/a
843.788	0.096	1687576	keystroke_v	v	n/a
843.924	0.128	1687848	keystroke_e	e	n/a
844.092	0.1035	1688184	keystroke_r	r	n/a
844.3715	0.12	1688743	keystroke_Key.space	Key.space	n/a
844.9555	0.1605	1689911	keystroke_e	e	n/a
845.268	0.08	1690536	keystroke_t	t	n/a
845.444	0.12	1690888	keystroke_h	h	n/a
847.6445	0.111	1695289	keystroke_n	n	n/a
847.8435	0.096	1695687	keystroke_i	i	n/a
848.164	0.128	1696328	keystroke_c	c	n/a
848.428	0.095	1696856	keystroke_Key.space	Key.space	n/a
849.644	0.072	1699288	keystroke_j	j	n/a
849.86	0.08	1699720	keystroke_e	e	n/a
850.004	0.088	1700008	keystroke_r	r	n/a
850.2435	0.072	1700487	keystroke_s	s	n/a
850.524	0.144	1701048	keystroke_e	e	n/a
850.612	0.088	1701224	keystroke_y	y	n/a
850.883	0.104	1701766	keystroke_Key.enter	Key.enter	n/a
850.999	7.6605	1701998	prompt	n/a	singh career nova nail\n
851.9875	0.136	1703975	keystroke_s	s	n/a
852.1395	0.12	1704279	keystroke_i	i	n/a
852.3795	0.112	1704759	keystroke_n	n	n/a
852.6835	0.0805	1705367	keystroke_g	g	n/a
852.86	0.103	1705720	keystroke_h	h	n/a
853.179	0.104	1706358	keystroke_Key.space	Key.space	n/a
853.755	0.097	1707510	keystroke_c	c	n/a
853.899	0.144	1707798	keystroke_a	a	n/a
854.035	0.129	1708070	keystroke_r	r	n/a
854.307	0.104	1708614	keystroke_e	e	n/a
854.523	0.104	1709046	keystroke_e	e	n/a
854.8035	0.096	1709607	keystroke_r	r	n/a
855.1635	0.12	1710327	keystroke_Key.space	Key.space	n/a
855.8035	0.112	1711607	keystroke_n	n	n/a
855.9955	0.128	1711991	keystroke_o	o	n/a
856.4355	0.096	1712871	keystroke_v	v	n/a
856.668	0.119	1713336	keystroke_a	a	n/a
856.835	0.12	1713670	keystroke_Key.space	Key.space	n/a
857.7475	0.096	1715495	keystroke_n	n	n/a
857.9075	0.152	1715815	keystroke_a	a	n/a
858.0675	0.08	1716135	keystroke_i	i	n/a
858.2595	0.104	1716519	keystroke_l	l	n/a
858.5395	0.112	1717079	keystroke_Key.enter	Key.enter	n/a
858.6645	10.666	1717329	prompt	n/a	differences industrial democrat foot\n
860.308	0.16	1720616	keystroke_d	d	n/a
860.4915	0.112	1720983	keystroke_i	i	n/a
860.7635	0.0725	1721527	keystroke_f	f	n/a
860.932	0.08	1721864	keystroke_f	f	n/a
861.052	0.128	1722104	keystroke_e	e	n/a
861.196	0.088	1722392	keystroke_r	r	n/a
861.412	0.128	1722824	keystroke_e	e	n/a
861.572	0.12	1723144	keystroke_n	n	n/a
861.844	0.096	1723688	keystroke_c	c	n/a
861.996	0.1435	1723992	keystroke_e	e	n/a
862.3555	0.128	1724711	keystroke_s	s	n/a
862.5315	0.1125	1725063	keystroke_Key.space	Key.space	n/a
862.9875	0.104	1725975	keystroke_i	i	n/a
863.2035	0.12	1726407	keystroke_n	n	n/a
863.6595	0.12	1727319	keystroke_d	d	n/a
863.8355	0.104	1727671	keystroke_u	u	n/a
864.1475	0.112	1728295	keystroke_s	s	n/a
864.3235	0.104	1728647	keystroke_t	t	n/a
864.547	0.112	1729094	keystroke_r	r	n/a
864.843	0.12	1729686	keystroke_i	i	n/a
865.163	0.104	1730326	keystroke_a	a	n/a
865.235	0.1445	1730470	keystroke_l	l	n/a
865.539	0.12	1731078	keystroke_Key.space	Key.space	n/a
865.987	0.12	1731974	keystroke_d	d	n/a
866.275	0.152	1732550	keystroke_e	e	n/a
866.419	0.12	1732838	keystroke_m	m	n/a
866.619	0.1045	1733238	keystroke_o	o	n/a
866.971	0.112	1733942	keystroke_c	c	n/a
867.163	0.104	1734326	keystroke_r	r	n/a
867.315	0.136	1734630	keystroke_a	a	n/a
867.467	0.128	1734934	keystroke_t	t	n/a
867.811	0.128	1735622	keystroke_Key.space	Key.space	n/a
868.3155	0.136	1736631	keystroke_f	f	n/a
868.5475	0.072	1737095	keystroke_o	o	n/a
868.6995	0.1205	1737399	keystroke_o	o	n/a
868.948	0.104	1737896	keystroke_t	t	n/a
869.227	0.096	1738454	keystroke_Key.enter	Key.enter	n/a
869.335	13.94	1738670	prompt	n/a	indonesian tales sheffield movement\n
870.683	0.08	1741366	keystroke_i	i	n/a
870.915	0.12	1741830	keystroke_n	n	n/a
871.3395	0.136	1742679	keystroke_d	d	n/a
871.5315	0.1115	1743063	keystroke_o	o	n/a
872.7475	0.08	1745495	keystroke_n	n	n/a
873.171	0.128	1746342	keystroke_e	e	n/a
873.555	0.104	1747110	keystroke_s	s	n/a
873.683	0.088	1747366	keystroke_i	i	n/a
874.027	0.056	1748054	keystroke_a	a	n/a
874.139	0.112	1748278	keystroke_n	n	n/a
874.427	0.1035	1748854	keystroke_Key.space	Key.space	n/a
875.1555	0.079	1750311	keystroke_t	t	n/a
875.7305	0.121	1751461	keystroke_a	a	n/a
875.8745	0.081	1751749	keystroke_l	l	n/a
876.0515	0.1515	1752103	keystroke_e	e	n/a
876.4755	0.12	1752951	keystroke_s	s	n/a
876.691	0.0955	1753382	keystroke_Key.space	Key.space	n/a
877.187	0.12	1754374	keystroke_s	s	n/a
877.331	0.096	1754662	keystroke_h	h	n/a
877.579	0.136	1755158	keystroke_e	e	n/a
879.5715	0.064	1759143	keystroke_f	f	n/a
879.7395	0.072	1759479	keystroke_f	f	n/a
879.9555	0.08	1759911	keystroke_i	i	n/a
880.1795	0.144	1760359	keystroke_e	e	n/a
880.3315	0.088	1760663	keystroke_l	l	n/a
880.5315	0.128	1761063	keystroke_d	d	n/a
880.7395	0.096	1761479	keystroke_Key.space	Key.space	n/a
881.235	0.128	1762470	keystroke_m	m	n/a
881.443	0.112	1762886	keystroke_o	o	n/a
882.0595	0.088	1764119	keystroke_v	v	n/a
882.2345	0.112	1764469	keystroke_e	e	n/a
882.3785	0.12	1764757	keystroke_m	m	n/a
882.5305	0.144	1765061	keystroke_e	e	n/a
882.6435	0.112	1765287	keystroke_n	n	n/a
882.883	0.1045	1765766	keystroke_t	t	n/a
883.1635	0.104	1766327	keystroke_Key.enter	Key.enter	n/a
883.279	12.596	1766558	prompt	n/a	mechanism crossword assumed finnish\n
884.4595	0.088	1768919	keystroke_m	m	n/a
884.7305	0.129	1769461	keystroke_e	e	n/a
884.9065	0.096	1769813	keystroke_c	c	n/a
885.1065	0.08	1770213	keystroke_h	h	n/a
885.3705	0.081	1770741	keystroke_a	a	n/a
885.4825	0.128	1770965	keystroke_n	n	n/a
885.6985	0.096	1771397	keystroke_i	i	n/a
886.739	0.12	1773478	keystroke_s	s	n/a
886.9155	0.08	1773831	keystroke_m	m	n/a
887.1555	0.112	1774311	keystroke_Key.space	Key.space	n/a
887.739	0.12	1775478	keystroke_c	c	n/a
888.051	0.112	1776102	keystroke_r	r	n/a
888.243	0.12	1776486	keystroke_o	o	n/a
888.731	0.128	1777462	keystroke_s	s	n/a
888.9555	0.112	1777911	keystroke_s	s	n/a
889.2115	0.136	1778423	keystroke_w	w	n/a
889.3795	0.08	1778759	keystroke_o	o	n/a
889.7875	0.112	1779575	keystroke_r	r	n/a
889.9635	0.16	1779927	keystroke_d	d	n/a
890.3635	0.088	1780727	keystroke_Key.space	Key.space	n/a
891.0115	0.176	1782023	keystroke_a	a	n/a
891.3235	0.136	1782647	keystroke_s	s	n/a
891.571	0.1445	1783142	keystroke_s	s	n/a
891.6915	0.08	1783383	keystroke_u	u	n/a
891.9315	0.112	1783863	keystroke_m	m	n/a
892.1315	0.112	1784263	keystroke_e	e	n/a
892.3315	0.104	1784663	keystroke_d	d	n/a
892.6515	0.12	1785303	keystroke_Key.space	Key.space	n/a
893.6105	0.088	1787221	keystroke_f	f	n/a
893.819	0.1285	1787638	keystroke_i	i	n/a
894.2035	0.151	1788407	keystroke_n	n	n/a
894.4505	0.144	1788901	keystroke_n	n	n/a
894.9795	0.136	1789959	keystroke_i	i	n/a
895.3875	0.1355	1790775	keystroke_s	s	n/a
895.507	0.088	1791014	keystroke_h	h	n/a
895.747	0.12	1791494	keystroke_Key.enter	Key.enter	n/a
895.879	11.036	1791758	prompt	n/a	prot administration brisbane norman\n
897.091	0.104	1794182	keystroke_p	p	n/a
897.443	0.112	1794886	keystroke_r	r	n/a
897.635	0.136	1795270	keystroke_o	o	n/a
897.931	0.104	1795862	keystroke_t	t	n/a
898.211	0.104	1796422	keystroke_Key.space	Key.space	n/a
898.819	0.144	1797638	keystroke_a	a	n/a
898.979	0.072	1797958	keystroke_d	d	n/a
899.475	0.12	1798950	keystroke_m	m	n/a
899.691	0.08	1799382	keystroke_i	i	n/a
899.875	0.128	1799750	keystroke_n	n	n/a
900.1705	0.12	1800341	keystroke_i	i	n/a
900.6825	0.144	1801365	keystroke_s	s	n/a
900.8345	0.096	1801669	keystroke_t	t	n/a
901.043	0.088	1802086	keystroke_r	r	n/a
901.243	0.16	1802486	keystroke_a	a	n/a
901.435	0.088	1802870	keystroke_t	t	n/a
901.7385	0.072	1803477	keystroke_i	i	n/a
901.9305	0.096	1803861	keystroke_o	o	n/a
902.171	0.12	1804342	keystroke_n	n	n/a
902.451	0.144	1804902	keystroke_Key.space	Key.space	n/a
902.931	0.112	1805862	keystroke_b	b	n/a
903.2595	0.104	1806519	keystroke_r	r	n/a
903.4355	0.112	1806871	keystroke_i	i	n/a
903.931	0.12	1807862	keystroke_s	s	n/a
904.1385	0.088	1808277	keystroke_b	b	n/a
904.3305	0.096	1808661	keystroke_a	a	n/a
904.4585	0.104	1808917	keystroke_n	n	n/a
904.6665	0.152	1809333	keystroke_e	e	n/a
904.9545	0.104	1809909	keystroke_Key.space	Key.space	n/a
905.5785	0.12	1811157	keystroke_n	n	n/a
905.811	0.088	1811622	keystroke_o	o	n/a
906.0985	0.104	1812197	keystroke_r	r	n/a
906.2835	0.095	1812567	keystroke_m	m	n/a
906.4995	0.12	1812999	keystroke_a	a	n/a
906.5785	0.0965	1813157	keystroke_n	n	n/a
906.8025	0.1045	1813605	keystroke_Key.enter	Key.enter	n/a
906.919	13.579	1813838	prompt	n/a	aquatic code dentists compact\n
908.4265	0.136	1816853	keystroke_a	a	n/a
910.443	0.112	1820886	keystroke_q	q	n/a
910.659	0.104	1821318	keystroke_u	u	n/a
911.923	0.191	1823846	keystroke_a	a	n/a
912.195	0.103	1824390	keystroke_t	t	n/a
912.69	0.1205	1825380	keystroke_i	i	n/a
912.8985	0.1205	1825797	keystroke_c	c	n/a
913.131	0.12	1826262	keystroke_Key.space	Key.space	n/a
913.643	0.128	1827286	keystroke_c	c	n/a
913.867	0.08	1827734	keystroke_o	o	n/a
914.035	0.112	1828070	keystroke_d	d	n/a
914.2985	0.128	1828597	keystroke_e	e	n/a
914.4745	0.096	1828949	keystroke_Key.space	Key.space	n/a
915.067	0.128	1830134	keystroke_d	d	n/a
915.3465	0.12	1830693	keystroke_e	e	n/a
915.4985	0.0885	1830997	keystroke_n	n	n/a
917.1865	0.088	1834373	keystroke_t	t	n/a
917.4825	0.128	1834965	keystroke_s	s	n/a
917.7785	0.096	1835557	keystroke_t	t	n/a
918.2345	0.08	1836469	keystroke_s	s	n/a
918.4345	0.08	1836869	keystroke_Key.space	Key.space	n/a
918.9465	0.1275	1837893	keystroke_c	c	n/a
919.13	0.104	1838260	keystroke_o	o	n/a
919.314	0.129	1838628	keystroke_m	m	n/a
919.522	0.097	1839044	keystroke_p	p	n/a
919.698	0.129	1839396	keystroke_a	a	n/a
919.906	0.104	1839812	keystroke_c	c	n/a
920.082	0.096	1840164	keystroke_t	t	n/a
920.402	0.088	1840804	keystroke_Key.enter	Key.enter	n/a
920.502	11.877	1841004	prompt	n/a	succeed extensive lauren owner\n
921.515	0.1675	1843030	keystroke_s	s	n/a
921.7465	0.096	1843493	keystroke_u	u	n/a
922.1545	0.088	1844309	keystroke_c	c	n/a
922.3465	0.104	1844693	keystroke_c	c	n/a
922.7225	0.096	1845445	keystroke_e	e	n/a
922.9385	0.112	1845877	keystroke_e	e	n/a
923.1545	0.104	1846309	keystroke_d	d	n/a
923.4825	0.096	1846965	keystroke_Key.space	Key.space	n/a
923.8185	0.112	1847637	keystroke_e	e	n/a
924.1465	0.128	1848293	keystroke_x	x	n/a
924.3225	0.072	1848645	keystroke_t	t	n/a
924.563	0.111	1849126	keystroke_e	e	n/a
925.978	0.104	1851956	keystroke_n	n	n/a
926.6665	0.1205	1853333	keystroke_s	s	n/a
926.803	0.111	1853606	keystroke_i	i	n/a
927.3065	0.128	1854613	keystroke_v	v	n/a
927.4825	0.12	1854965	keystroke_e	e	n/a
927.7065	0.136	1855413	keystroke_Key.space	Key.space	n/a
928.1945	0.088	1856389	keystroke_l	l	n/a
928.3625	0.128	1856725	keystroke_a	a	n/a
928.5385	0.104	1857077	keystroke_u	u	n/a
928.8025	0.08	1857605	keystroke_r	r	n/a
929.0665	0.1675	1858133	keystroke_e	e	n/a
929.402	0.112	1858804	keystroke_n	n	n/a
929.666	0.12	1859332	keystroke_Key.space	Key.space	n/a
930.4985	0.112	1860997	keystroke_o	o	n/a
930.794	0.12	1861588	keystroke_w	w	n/a
931.6425	0.088	1863285	keystroke_n	n	n/a
931.8425	0.112	1863685	keystroke_e	e	n/a
931.9625	0.096	1863925	keystroke_r	r	n/a
932.2585	0.112	1864517	keystroke_Key.enter	Key.enter	n/a
932.3845	8.7855	1864769	prompt	n/a	snowboard newsletter scene lights\n
933.49	0.16	1866980	keystroke_s	s	n/a
933.666	0.096	1867332	keystroke_n	n	n/a
933.874	0.096	1867748	keystroke_o	o	n/a
934.09	0.1685	1868180	keystroke_w	w	n/a
934.498	0.0965	1868996	keystroke_b	b	n/a
934.7785	0.136	1869557	keystroke_o	o	n/a
935.0505	0.144	1870101	keystroke_a	a	n/a
935.1945	0.096	1870389	keystroke_r	r	n/a
935.4185	0.08	1870837	keystroke_d	d	n/a
935.7695	0.112	1871539	keystroke_Key.space	Key.space	n/a
936.2905	0.056	1872581	keystroke_n	n	n/a
936.4825	0.112	1872965	keystroke_e	e	n/a
936.7375	0.121	1873475	keystroke_w	w	n/a
936.9935	0.1535	1873987	keystroke_s	s	n/a
937.138	0.104	1874276	keystroke_l	l	n/a
937.314	0.168	1874628	keystroke_e	e	n/a
937.539	0.079	1875078	keystroke_t	t	n/a
937.714	0.104	1875428	keystroke_t	t	n/a
937.834	0.144	1875668	keystroke_e	e	n/a
937.97	0.0885	1875940	keystroke_r	r	n/a
938.2815	0.128	1876563	keystroke_Key.space	Key.space	n/a
938.5785	0.144	1877157	keystroke_s	s	n/a
938.7385	0.072	1877477	keystroke_c	c	n/a
939.0505	0.2	1878101	keystroke_e	e	n/a
939.3385	0.08	1878677	keystroke_n	n	n/a
939.4985	0.144	1878997	keystroke_e	e	n/a
939.6585	0.12	1879317	keystroke_Key.space	Key.space	n/a
939.8665	0.104	1879733	keystroke_l	l	n/a
940.1065	0.0955	1880213	keystroke_i	i	n/a
940.362	0.096	1880724	keystroke_g	g	n/a
940.538	0.112	1881076	keystroke_h	h	n/a
940.754	0.104	1881508	keystroke_t	t	n/a
940.898	0.1525	1881796	keystroke_s	s	n/a
941.0745	0.0875	1882149	keystroke_Key.enter	Key.enter	n/a
