onset	duration	sample	value	key	prompt_text
1.8785	11.5075	3757	prompt	n/a	the quick brown fox jumps over a lazy dog\n
3.6195	0.028	7239	keystroke_t	t	n/a
3.663	0.045	7326	keystroke_h	h	n/a
3.813	0.1355	7626	keystroke_e	e	n/a
3.978	0.12	7956	keystroke_Key.space	Key.space	n/a
4.158	0.12	8316	keystroke_q	q	n/a
4.413	0.1205	8826	keystroke_u	u	n/a
4.458	0.12	8916	keystroke_i	i	n/a
4.638	0.09	9276	keystroke_c	c	n/a
4.9235	0.105	9847	keystroke_k	k	n/a
5.0435	0.1195	10087	keystroke_Key.space	Key.space	n/a
5.5085	0.09	11017	keystroke_b	b	n/a
5.6585	0.09	11317	keystroke_r	r	n/a
5.851	0.12	11702	keystroke_o	o	n/a
5.956	0.09	11912	keystroke_w	w	n/a
6.1205	0.1205	12241	keystroke_n	n	n/a
6.226	0.0915	12452	keystroke_Key.space	Key.space	n/a
6.9475	0.0745	13895	keystroke_f	f	n/a
7.0525	0.075	14105	keystroke_o	o	n/a
7.307	0.1195	14614	keystroke_Key.space	Key.space	n/a
7.892	0.105	15784	keystroke_Key.backspace	Key.backspace	n/a
8.072	0.1345	16144	keystroke_x	x	n/a
8.402	0.09	16804	keystroke_Key.space	Key.space	n/a
8.7765	0.105	17553	keystroke_j	j	n/a
8.852	0.1055	17704	keystroke_u	u	n/a
9.0625	0.09	18125	keystroke_m	m	n/a
9.452	0.0905	18904	keystroke_p	p	n/a
9.572	0.1355	19144	keystroke_s	s	n/a
9.7375	0.119	19475	keystroke_Key.space	Key.space	n/a
10.3375	0.0145	20675	keystroke_o	o	n/a
10.367	0.0905	20734	keystroke_v	v	n/a
10.5025	0.164	21005	keystroke_e	e	n/a
10.6075	0.135	21215	keystroke_r	r	n/a
10.7275	0.135	21455	keystroke_Key.space	Key.space	n/a
10.8475	0.165	21695	keystroke_a	a	n/a
10.9825	0.105	21965	keystroke_Key.space	Key.space	n/a
11.1925	0.0895	22385	keystroke_l	l	n/a
11.2975	0.105	22595	keystroke_a	a	n/a
11.5375	0.1195	23075	keystroke_z	z	n/a
11.7925	0.105	23585	keystroke_y	y	n/a
11.8985	0.134	23797	keystroke_Key.space	Key.space	n/a
12.212	0.1205	24424	keystroke_d	d	n/a
12.6025	0.12	25205	keystroke_o	o	n/a
12.7975	0.1055	25595	keystroke_g	g	n/a
13.2775	0.1045	26555	keystroke_Key.enter	Key.enter	n/a
13.392	8.213	26784	prompt	n/a	sealed evaluations cadillac handle\n
14.3875	0.12	28775	keystroke_s	s	n/a
14.4925	0.12	28985	keystroke_e	e	n/a
14.6275	0.09	29255	keystroke_a	a	n/a
14.747	0.1055	29494	keystroke_l	l	n/a
14.9425	0.12	29885	keystroke_e	e	n/a
15.1225	0.18	30245	keystroke_d	d	n/a
15.3165	0.121	30633	keystroke_Key.space	Key.space	n/a
15.7975	0.105	31595	keystroke_e	e	n/a
16.0975	0.075	32195	keystroke_v	v	n/a
16.247	0.0755	32494	keystroke_a	a	n/a
16.4125	0.105	32825	keystroke_c	c	n/a
16.6525	0.105	33305	keystroke_u	u	n/a
16.7725	0.076	33545	keystroke_a	a	n/a
17.0575	0.105	34115	keystroke_t	t	n/a
17.2225	0.135	34445	keystroke_i	i	n/a
17.2825	0.165	34565	keystroke_o	o	n/a
17.4485	0.1035	34897	keystroke_n	n	n/a
17.5375	0.12	35075	keystroke_s	s	n/a
17.7775	0.105	35555	keystroke_Key.space	Key.space	n/a
18.2575	0.075	36515	keystroke_c	c	n/a
18.4525	0.0905	36905	keystroke_a	a	n/a
18.8125	0.105	37625	keystroke_d	d	n/a
18.9325	0.105	37865	keystroke_i	i	n/a
19.143	0.059	38286	keystroke_l	l	n/a
19.2625	0.12	38525	keystroke_l	l	n/a
19.322	0.1055	38644	keystroke_a	a	n/a
19.532	0.1055	39064	keystroke_c	c	n/a
19.6975	0.105	39395	keystroke_Key.space	Key.space	n/a
20.118	0.089	40236	keystroke_h	h	n/a
20.1775	0.09	40355	keystroke_a	a	n/a
20.3275	0.105	40655	keystroke_n	n	n/a
20.4775	0.045	40955	keystroke_d	d	n/a
20.7625	0.09	41525	keystroke_l	l	n/a
20.8375	0.1195	41675	keystroke_e	e	n/a
21.4975	0.105	42995	keystroke_Key.enter	Key.enter	n/a
21.6095	9.985	43219	prompt	n/a	frequent tennis defeat narrative\n
23.0875	0.075	46175	keystroke_g	g	n/a
23.1775	0.12	46355	keystroke_r	r	n/a
23.2375	0.135	46475	keystroke_e	e	n/a
24.182	0.076	48364	keystroke_Key.backspace	Key.backspace	n/a
24.3175	0.06	48635	keystroke_Key.backspace	Key.backspace	n/a
24.422	0.0905	48844	keystroke_Key.backspace	Key.backspace	n/a
25.0525	0.0745	50105	keystroke_f	f	n/a
25.0825	0.1345	50165	keystroke_r	r	n/a
25.142	0.1505	50284	keystroke_e	e	n/a
25.3975	0.09	50795	keystroke_q	q	n/a
26.012	0.0905	52024	keystroke_u	u	n/a
26.0875	0.105	52175	keystroke_e	e	n/a
26.222	0.1205	52444	keystroke_n	n	n/a
26.402	0.1055	52804	keystroke_t	t	n/a
26.762	0.0755	53524	keystroke_Key.space	Key.space	n/a
27.077	0.0755	54154	keystroke_t	t	n/a
27.1675	0.105	54335	keystroke_e	e	n/a
27.377	0.0755	54754	keystroke_n	n	n/a
27.5275	0.0755	55055	keystroke_n	n	n/a
27.7075	0.0895	55415	keystroke_i	i	n/a
27.767	0.1355	55534	keystroke_s	s	n/a
27.9175	0.12	55835	keystroke_Key.space	Key.space	n/a
28.4575	0.06	56915	keystroke_d	d	n/a
28.592	0.1055	57184	keystroke_e	e	n/a
28.8025	0.09	57605	keystroke_f	f	n/a
28.9085	0.104	57817	keystroke_e	e	n/a
29.0425	0.135	58085	keystroke_a	a	n/a
29.2225	0.105	58445	keystroke_t	t	n/a
29.388	0.1195	58776	keystroke_Key.space	Key.space	n/a
30.0025	0.0455	60005	keystroke_n	n	n/a
30.0175	0.0755	60035	keystroke_a	a	n/a
30.1975	0.0755	60395	keystroke_r	r	n/a
30.3775	0.0755	60755	keystroke_r	r	n/a
30.4375	0.0905	60875	keystroke_a	a	n/a
30.707	0.09	61414	keystroke_t	t	n/a
30.827	0.136	61654	keystroke_i	i	n/a
30.9775	0.0595	61955	keystroke_v	v	n/a
31.007	0.12	62014	keystroke_e	e	n/a
31.4875	0.105	62975	keystroke_Key.enter	Key.enter	n/a
31.5985	6.8805	63197	prompt	n/a	brussels begin muscles tests\n
32.5375	0.09	65075	keystroke_b	b	n/a
32.8525	0.09	65705	keystroke_r	r	n/a
32.9275	0.1055	65855	keystroke_u	u	n/a
33.0625	0.09	66125	keystroke_s	s	n/a
33.258	0.1505	66516	keystroke_s	s	n/a
33.3925	0.12	66785	keystroke_e	e	n/a
33.6025	0.105	67205	keystroke_l	l	n/a
33.7225	0.12	67445	keystroke_s	s	n/a
33.918	0.1345	67836	keystroke_Key.space	Key.space	n/a
34.3825	0.1195	68765	keystroke_b	b	n/a
34.442	0.09	68884	keystroke_e	e	n/a
34.6675	0.105	69335	keystroke_g	g	n/a
34.7875	0.165	69575	keystroke_i	i	n/a
34.9075	0.12	69815	keystroke_n	n	n/a
35.1325	0.135	70265	keystroke_Key.space	Key.space	n/a
35.5975	0.1655	71195	keystroke_m	m	n/a
35.808	0.135	71616	keystroke_u	u	n/a
36.093	0.149	72186	keystroke_s	s	n/a
36.2575	0.12	72515	keystroke_c	c	n/a
36.7825	0.0755	73565	keystroke_l	l	n/a
36.8275	0.09	73655	keystroke_e	e	n/a
36.9925	0.165	73985	keystroke_s	s	n/a
37.1715	0.121	74343	keystroke_Key.space	Key.space	n/a
37.5475	0.0755	75095	keystroke_t	t	n/a
37.6525	0.1045	75305	keystroke_e	e	n/a
37.727	0.1505	75454	keystroke_s	s	n/a
37.9075	0.105	75815	keystroke_t	t	n/a
38.0575	0.12	76115	keystroke_s	s	n/a
38.3575	0.12	76715	keystroke_Key.enter	Key.enter	n/a
38.483	7.603	76966	prompt	n/a	determination correction doors seek\n
39.2125	0.075	78425	keystroke_d	d	n/a
39.363	0.0895	78726	keystroke_e	e	n/a
39.6325	0.105	79265	keystroke_t	t	n/a
39.7525	0.135	79505	keystroke_e	e	n/a
39.858	0.12	79716	keystroke_r	r	n/a
40.172	0.135	80344	keystroke_m	m	n/a
40.428	0.1195	80856	keystroke_i	i	n/a
40.533	0.1195	81066	keystroke_n	n	n/a
40.622	0.0905	81244	keystroke_a	a	n/a
40.7875	0.091	81575	keystroke_t	t	n/a
40.9075	0.165	81815	keystroke_i	i	n/a
41.0125	0.165	82025	keystroke_o	o	n/a
41.1175	0.135	82235	keystroke_n	n	n/a
41.6125	0.119	83225	keystroke_Key.space	Key.space	n/a
41.8375	0.1055	83675	keystroke_c	c	n/a
41.973	0.1045	83946	keystroke_o	o	n/a
42.1975	0.0595	84395	keystroke_r	r	n/a
42.3325	0.105	84665	keystroke_r	r	n/a
42.5275	0.1045	85055	keystroke_e	e	n/a
42.7375	0.09	85475	keystroke_c	c	n/a
42.9625	0.0755	85925	keystroke_t	t	n/a
43.337	0.1355	86674	keystroke_i	i	n/a
43.3985	0.164	86797	keystroke_o	o	n/a
43.5325	0.12	87065	keystroke_n	n	n/a
43.817	0.151	87634	keystroke_Key.space	Key.space	n/a
44.238	0.105	88476	keystroke_d	d	n/a
44.327	0.0905	88654	keystroke_o	o	n/a
44.477	0.105	88954	keystroke_o	o	n/a
44.702	0.0905	89404	keystroke_r	r	n/a
44.8525	0.12	89705	keystroke_s	s	n/a
45.033	0.1345	90066	keystroke_Key.space	Key.space	n/a
45.363	0.1345	90726	keystroke_s	s	n/a
45.4825	0.0895	90965	keystroke_e	e	n/a
45.6475	0.12	91295	keystroke_e	e	n/a
45.7685	0.0895	91537	keystroke_k	k	n/a
46.007	0.0755	92014	keystroke_Key.enter	Key.enter	n/a
46.0925	11.6475	92185	prompt	n/a	websites electrical clips parcel\n
46.818	0.18	93636	keystroke_w	w	n/a
46.953	0.1345	93906	keystroke_e	e	n/a
47.3125	0.12	94625	keystroke_b	b	n/a
47.583	0.09	95166	keystroke_s	s	n/a
47.733	0.12	95466	keystroke_i	i	n/a
47.913	0.089	95826	keystroke_t	t	n/a
48.033	0.1345	96066	keystroke_e	e	n/a
48.1525	0.12	96305	keystroke_s	s	n/a
48.3925	0.135	96785	keystroke_Key.space	Key.space	n/a
48.798	0.1045	97596	keystroke_e	e	n/a
49.008	0.09	98016	keystroke_c	c	n/a
49.187	0.091	98374	keystroke_l	l	n/a
50.2825	0.105	100565	keystroke_Key.backspace	Key.backspace	n/a
50.418	0.09	100836	keystroke_e	e	n/a
50.6575	0.06	101315	keystroke_Key.backspace	Key.backspace	n/a
50.777	0.0755	101554	keystroke_Key.backspace	Key.backspace	n/a
51.3625	0.0895	102725	keystroke_l	l	n/a
51.438	0.09	102876	keystroke_e	e	n/a
51.648	0.075	103296	keystroke_c	c	n/a
52.9225	0.106	105845	keystroke_t	t	n/a
53.1325	0.09	106265	keystroke_r	r	n/a
53.2375	0.1055	106475	keystroke_i	i	n/a
53.478	0.075	106956	keystroke_c	c	n/a
53.538	0.075	107076	keystroke_e	e	n/a
54.0025	0.06	108005	keystroke_Key.backspace	Key.backspace	n/a
54.0475	0.075	108095	keystroke_a	a	n/a
54.588	0.0745	109176	keystroke_l	l	n/a
54.6775	0.15	109355	keystroke_Key.space	Key.space	n/a
55.2625	0.09	110525	keystroke_c	c	n/a
55.3675	0.0755	110735	keystroke_l	l	n/a
55.548	0.105	111096	keystroke_i	i	n/a
55.757	0.1205	111514	keystroke_p	p	n/a
55.862	0.1055	111724	keystroke_s	s	n/a
55.952	0.1205	111904	keystroke_Key.space	Key.space	n/a
56.583	0.104	113166	keystroke_p	p	n/a
56.673	0.105	113346	keystroke_a	a	n/a
56.958	0.09	113916	keystroke_r	r	n/a
57.1825	0.075	114365	keystroke_c	c	n/a
57.2725	0.09	114545	keystroke_e	e	n/a
57.3775	0.12	114755	keystroke_l	l	n/a
57.6325	0.105	115265	keystroke_Key.enter	Key.enter	n/a
57.7515	9.573	115503	prompt	n/a	cartoon earlier journal simply\n
58.3975	0.0905	116795	keystroke_c	c	n/a
58.5025	0.105	117005	keystroke_a	a	n/a
58.773	0.075	117546	keystroke_t	t	n/a
59.0275	0.076	118055	keystroke_r	r	n/a
59.327	0.0605	118654	keystroke_Key.backspace	Key.backspace	n/a
59.4475	0.0745	118895	keystroke_Key.backspace	Key.backspace	n/a
59.6125	0.0895	119225	keystroke_r	r	n/a
60.3325	0.09	120665	keystroke_t	t	n/a
60.4075	0.105	120815	keystroke_o	o	n/a
60.813	0.1045	121626	keystroke_o	o	n/a
61.0225	0.075	122045	keystroke_n	n	n/a
61.5025	0.12	123005	keystroke_Key.space	Key.space	n/a
61.6975	0.1345	123395	keystroke_e	e	n/a
61.8475	0.09	123695	keystroke_a	a	n/a
62.0875	0.12	124175	keystroke_r	r	n/a
62.2225	0.09	124445	keystroke_l	l	n/a
62.4625	0.09	124925	keystroke_i	i	n/a
62.5375	0.15	125075	keystroke_e	e	n/a
62.7625	0.1195	125525	keystroke_r	r	n/a
63.197	0.121	126394	keystroke_Key.space	Key.space	n/a
64.3825	0.0895	128765	keystroke_j	j	n/a
64.4575	0.0895	128915	keystroke_o	o	n/a
64.7125	0.135	129425	keystroke_u	u	n/a
64.8325	0.1045	129665	keystroke_r	r	n/a
64.9525	0.105	129905	keystroke_n	n	n/a
65.0425	0.105	130085	keystroke_a	a	n/a
65.1325	0.135	130265	keystroke_l	l	n/a
65.522	0.12	131044	keystroke_Key.space	Key.space	n/a
65.852	0.1355	131704	keystroke_s	s	n/a
66.003	0.164	132006	keystroke_i	i	n/a
66.107	0.1355	132214	keystroke_m	m	n/a
66.317	0.1355	132634	keystroke_p	p	n/a
66.5125	0.12	133025	keystroke_l	l	n/a
66.9025	0.105	133805	keystroke_y	y	n/a
67.2625	0.0595	134525	keystroke_Key.enter	Key.enter	n/a
67.328	9.432	134656	prompt	n/a	smilies commodity juice perception\n
68.1775	0.1055	136355	keystroke_s	s	n/a
68.298	0.1195	136596	keystroke_m	m	n/a
68.3725	0.12	136745	keystroke_i	i	n/a
68.5675	0.12	137135	keystroke_l	l	n/a
68.7025	0.1355	137405	keystroke_e	e	n/a
68.823	0.134	137646	keystroke_s	s	n/a
69.0325	0.1345	138065	keystroke_Key.space	Key.space	n/a
69.3925	0.1205	138785	keystroke_c	c	n/a
69.498	0.09	138996	keystroke_o	o	n/a
69.693	0.075	139386	keystroke_m	m	n/a
69.8275	0.1205	139655	keystroke_m	m	n/a
69.932	0.1355	139864	keystroke_o	o	n/a
70.5175	0.105	141035	keystroke_d	d	n/a
70.6085	0.1045	141217	keystroke_i	i	n/a
70.8775	0.12	141755	keystroke_t	t	n/a
71.5375	0.075	143075	keystroke_y	y	n/a
71.9125	0.0895	143825	keystroke_Key.space	Key.space	n/a
72.8875	0.12	145775	keystroke_j	j	n/a
72.962	0.1505	145924	keystroke_u	u	n/a
73.0225	0.165	146045	keystroke_i	i	n/a
73.2025	0.135	146405	keystroke_c	c	n/a
73.3225	0.091	146645	keystroke_e	e	n/a
73.7575	0.1205	147515	keystroke_Key.space	Key.space	n/a
74.1325	0.105	148265	keystroke_p	p	n/a
74.1925	0.135	148385	keystroke_e	e	n/a
74.2675	0.12	148535	keystroke_r	r	n/a
75.183	0.089	150366	keystroke_c	c	n/a
75.288	0.1045	150576	keystroke_e	e	n/a
75.4225	0.1355	150845	keystroke_p	p	n/a
75.977	0.09	151954	keystroke_t	t	n/a
76.1725	0.21	152345	keystroke_i	i	n/a
76.2475	0.195	152495	keystroke_o	o	n/a
76.3675	0.15	152735	keystroke_n	n	n/a
76.6225	0.135	153245	keystroke_Key.enter	Key.enter	n/a
76.764	12.865	153528	prompt	n/a	interact dvds preventing estimated\n
77.6125	0.15	155225	keystroke_i	i	n/a
77.6725	0.1355	155345	keystroke_n	n	n/a
78.3925	0.1045	156785	keystroke_t	t	n/a
78.5275	0.15	157055	keystroke_e	e	n/a
78.633	0.1195	157266	keystroke_r	r	n/a
78.8725	0.06	157745	keystroke_a	a	n/a
78.9175	0.09	157835	keystroke_c	c	n/a
79.0235	0.09	158047	keystroke_a	a	n/a
79.577	0.105	159154	keystroke_Key.backspace	Key.backspace	n/a
79.683	0.104	159366	keystroke_t	t	n/a
80.4325	0.12	160865	keystroke_Key.space	Key.space	n/a
80.8225	0.12	161645	keystroke_d	d	n/a
81.1525	0.1055	162305	keystroke_v	v	n/a
81.648	0.135	163296	keystroke_d	d	n/a
81.798	0.15	163596	keystroke_s	s	n/a
82.1575	0.12	164315	keystroke_Key.space	Key.space	n/a
82.668	0.09	165336	keystroke_p	p	n/a
82.7425	0.1195	165485	keystroke_r	r	n/a
82.817	0.12	165634	keystroke_e	e	n/a
83.418	0.0745	166836	keystroke_v	v	n/a
83.5075	0.1055	167015	keystroke_e	e	n/a
83.642	0.1055	167284	keystroke_n	n	n/a
83.762	0.1055	167524	keystroke_t	t	n/a
84.5725	0.165	169145	keystroke_i	i	n/a
84.7225	0.1355	169445	keystroke_n	n	n/a
85.668	0.09	171336	keystroke_g	g	n/a
86.3725	0.12	172745	keystroke_Key.space	Key.space	n/a
86.6125	0.105	173225	keystroke_e	e	n/a
86.6275	0.03	173255	keystroke_w	w	n/a
87.4525	0.09	174905	keystroke_Key.backspace	Key.backspace	n/a
87.5275	0.105	175055	keystroke_s	s	n/a
88.3225	0.0895	176645	keystroke_t	t	n/a
88.3825	0.105	176765	keystroke_i	i	n/a
88.532	0.135	177064	keystroke_m	m	n/a
88.682	0.1205	177364	keystroke_a	a	n/a
88.9525	0.0895	177905	keystroke_t	t	n/a
89.028	0.104	178056	keystroke_e	e	n/a
89.2225	0.105	178445	keystroke_d	d	n/a
89.507	0.1205	179014	keystroke_Key.enter	Key.enter	n/a
89.6345	13.195	179269	prompt	n/a	kitty theatre warner johnson\n
90.4675	0.105	180935	keystroke_k	k	n/a
90.528	0.1645	181056	keystroke_i	i	n/a
90.738	0.0595	181476	keystroke_t	t	n/a
90.873	0.12	181746	keystroke_t	t	n/a
90.9775	0.12	181955	keystroke_y	y	n/a
91.532	0.1505	183064	keystroke_Key.space	Key.space	n/a
91.832	0.091	183664	keystroke_t	t	n/a
91.937	0.105	183874	keystroke_h	h	n/a
91.9975	0.1645	183995	keystroke_e	e	n/a
92.1475	0.1195	184295	keystroke_r	r	n/a
92.5825	0.0895	185165	keystroke_Key.backspace	Key.backspace	n/a
92.6425	0.1055	185285	keystroke_a	a	n/a
92.8675	0.1205	185735	keystroke_t	t	n/a
93.213	0.134	186426	keystroke_r	r	n/a
93.333	0.1045	186666	keystroke_e	e	n/a
93.6775	0.12	187355	keystroke_Key.space	Key.space	n/a
94.128	0.135	188256	keystroke_w	w	n/a
94.2475	0.1205	188495	keystroke_a	a	n/a
94.638	0.104	189276	keystroke_n	n	n/a
95.1325	0.09	190265	keystroke_Key.backspace	Key.backspace	n/a
95.208	0.0895	190416	keystroke_r	r	n/a
95.403	0.12	190806	keystroke_n	n	n/a
95.538	0.135	191076	keystroke_e	e	n/a
95.628	0.12	191256	keystroke_r	r	n/a
96.047	0.106	192094	keystroke_Key.space	Key.space	n/a
97.1425	0.1045	194285	keystroke_j	j	n/a
97.233	0.12	194466	keystroke_i	i	n/a
97.4875	0.12	194975	keystroke_h	h	n/a
97.6675	0.15	195335	keystroke_n	n	n/a
97.9525	0.1055	195905	keystroke_s	s	n/a
98.042	0.1355	196084	keystroke_o	o	n/a
98.2675	0.105	196535	keystroke_n	n	n/a
98.5975	0.0745	197195	keystroke_Key.backspace	Key.backspace	n/a
98.7325	0.075	197465	keystroke_Key.backspace	Key.backspace	n/a
98.8675	0.045	197735	keystroke_Key.backspace	Key.backspace	n/a
98.9875	0.06	197975	keystroke_Key.backspace	Key.backspace	n/a
99.1075	0.0605	198215	keystroke_Key.backspace	Key.backspace	n/a
99.213	0.089	198426	keystroke_Key.backspace	Key.backspace	n/a
100.0225	0.0755	200045	keystroke_o	o	n/a
100.367	0.0905	200734	keystroke_h	h	n/a
100.878	0.09	201756	keystroke_s	s	n/a
101.3275	0.075	202655	keystroke_Key.backspace	Key.backspace	n/a
101.613	0.0895	203226	keystroke_n	n	n/a
101.6875	0.105	203375	keystroke_s	s	n/a
102.2125	0.1045	204425	keystroke_o	o	n/a
102.437	0.0905	204874	keystroke_n	n	n/a
102.7375	0.09	205475	keystroke_Key.enter	Key.enter	n/a
102.834	8.9205	205668	prompt	n/a	accordingly extend ranging luis\n
103.503	0.105	207006	keystroke_a	a	n/a
103.728	0.0595	207456	keystroke_c	c	n/a
103.8925	0.076	207785	keystroke_c	c	n/a
104.808	0.09	209616	keystroke_o	o	n/a
104.912	0.1205	209824	keystroke_r	r	n/a
105.288	0.09	210576	keystroke_d	d	n/a
105.4525	0.1205	210905	keystroke_i	i	n/a
105.633	0.12	211266	keystroke_n	n	n/a
105.738	0.1195	211476	keystroke_g	g	n/a
105.9025	0.1205	211805	keystroke_l	l	n/a
106.218	0.1345	212436	keystroke_y	y	n/a
106.5775	0.12	213155	keystroke_Key.space	Key.space	n/a
106.8775	0.12	213755	keystroke_e	e	n/a
107.1775	0.09	214355	keystroke_x	x	n/a
107.4025	0.09	214805	keystroke_t	t	n/a
107.5075	0.091	215015	keystroke_e	e	n/a
107.703	0.119	215406	keystroke_n	n	n/a
107.807	0.121	215614	keystroke_d	d	n/a
108.002	0.1205	216004	keystroke_Key.space	Key.space	n/a
108.5275	0.1055	217055	keystroke_r	r	n/a
108.647	0.091	217294	keystroke_a	a	n/a
109.1425	0.1045	218285	keystroke_n	n	n/a
109.308	0.09	218616	keystroke_g	g	n/a
109.623	0.105	219246	keystroke_i	i	n/a
109.787	0.1205	219574	keystroke_n	n	n/a
109.923	0.0745	219846	keystroke_g	g	n/a
110.2975	0.105	220595	keystroke_Key.space	Key.space	n/a
110.8075	0.12	221615	keystroke_l	l	n/a
111.122	0.1655	222244	keystroke_u	u	n/a
111.212	0.1655	222424	keystroke_i	i	n/a
111.3325	0.1055	222665	keystroke_s	s	n/a
111.6325	0.1195	223265	keystroke_Key.enter	Key.enter	n/a
111.758	12.777	223516	prompt	n/a	herself intend pharmaceuticals paypal\n
112.7575	0.0755	225515	keystroke_h	h	n/a
112.8625	0.1495	225725	keystroke_e	e	n/a
112.9525	0.12	225905	keystroke_r	r	n/a
113.282	0.151	226564	keystroke_s	s	n/a
113.402	0.1055	226804	keystroke_e	e	n/a
113.522	0.0605	227044	keystroke_l	l	n/a
113.7475	0.0905	227495	keystroke_g	g	n/a
114.1675	0.09	228335	keystroke_Key.space	Key.space	n/a
114.783	0.149	229566	keystroke_i	i	n/a
114.8575	0.0895	229715	keystroke_n	n	n/a
115.1415	0.0905	230283	keystroke_t	t	n/a
115.262	0.1505	230524	keystroke_e	e	n/a
115.5325	0.1195	231065	keystroke_n	n	n/a
115.637	0.105	231274	keystroke_d	d	n/a
115.863	0.119	231726	keystroke_Key.space	Key.space	n/a
116.3425	0.105	232685	keystroke_p	p	n/a
116.4625	0.06	232925	keystroke_a	a	n/a
116.9275	0.105	233855	keystroke_Key.backspace	Key.backspace	n/a
117.002	0.076	234004	keystroke_h	h	n/a
117.2125	0.075	234425	keystroke_a	a	n/a
117.362	0.0455	234724	keystroke_r	r	n/a
118.2475	0.1205	236495	keystroke_m	m	n/a
118.352	0.106	236704	keystroke_a	a	n/a
120.2725	0.105	240545	keystroke_c	c	n/a
120.3775	0.075	240755	keystroke_e	e	n/a
121.368	0.09	242736	keystroke_u	u	n/a
121.653	0.104	243306	keystroke_t	t	n/a
121.8175	0.105	243635	keystroke_i	i	n/a
121.9525	0.105	243905	keystroke_c	c	n/a
122.0725	0.1195	244145	keystroke_a	a	n/a
122.372	0.121	244744	keystroke_l	l	n/a
122.463	0.1045	244926	keystroke_s	s	n/a
122.912	0.12	245824	keystroke_Key.space	Key.space	n/a
123.182	0.1055	246364	keystroke_p	p	n/a
123.272	0.0905	246544	keystroke_a	a	n/a
123.5575	0.09	247115	keystroke_y	y	n/a
123.8275	0.12	247655	keystroke_p	p	n/a
123.887	0.0905	247774	keystroke_a	a	n/a
123.9925	0.135	247985	keystroke_l	l	n/a
124.442	0.0905	248884	keystroke_Key.enter	Key.enter	n/a
124.541	9.6385	249082	prompt	n/a	directly authors blast seeker\n
125.2525	0.105	250505	keystroke_d	d	n/a
125.4475	0.091	250895	keystroke_i	i	n/a
125.7325	0.09	251465	keystroke_r	r	n/a
125.8075	0.105	251615	keystroke_e	e	n/a
125.9575	0.105	251915	keystroke_c	c	n/a
126.2275	0.075	252455	keystroke_t	t	n/a
126.3475	0.105	252695	keystroke_l	l	n/a
126.722	0.105	253444	keystroke_y	y	n/a
127.502	0.1205	255004	keystroke_Key.space	Key.space	n/a
127.803	0.089	255606	keystroke_a	a	n/a
128.1325	0.09	256265	keystroke_u	u	n/a
128.357	0.105	256714	keystroke_t	t	n/a
128.447	0.1055	256894	keystroke_h	h	n/a
128.853	0.089	257706	keystroke_o	o	n/a
129.4675	0.135	258935	keystroke_r	r	n/a
129.6035	0.119	259207	keystroke_s	s	n/a
129.8575	0.104	259715	keystroke_Key.space	Key.space	n/a
130.4725	0.0905	260945	keystroke_n	n	n/a
131.012	0.105	262024	keystroke_Key.backspace	Key.backspace	n/a
131.7175	0.075	263435	keystroke_b	b	n/a
131.8225	0.105	263645	keystroke_l	l	n/a
131.9125	0.15	263825	keystroke_a	a	n/a
131.9875	0.165	263975	keystroke_s	s	n/a
132.318	0.0895	264636	keystroke_t	t	n/a
132.8575	0.12	265715	keystroke_Key.space	Key.space	n/a
133.292	0.1205	266584	keystroke_s	s	n/a
133.3975	0.0755	266795	keystroke_e	e	n/a
133.5625	0.09	267125	keystroke_e	e	n/a
133.6825	0.09	267365	keystroke_k	k	n/a
133.742	0.1355	267484	keystroke_e	e	n/a
133.8475	0.105	267695	keystroke_r	r	n/a
134.042	0.1355	268084	keystroke_Key.enter	Key.enter	n/a
134.1835	7.091	268367	prompt	n/a	item printers prime formerly\n
135.047	0.076	270094	keystroke_i	i	n/a
135.137	0.091	270274	keystroke_t	t	n/a
135.258	0.119	270516	keystroke_e	e	n/a
135.422	0.0755	270844	keystroke_m	m	n/a
135.572	0.105	271144	keystroke_Key.space	Key.space	n/a
136.0075	0.09	272015	keystroke_p	p	n/a
136.0825	0.12	272165	keystroke_r	r	n/a
136.338	0.179	272676	keystroke_i	i	n/a
136.457	0.136	272914	keystroke_n	n	n/a
136.6825	0.0895	273365	keystroke_t	t	n/a
136.817	0.1355	273634	keystroke_e	e	n/a
136.9225	0.12	273845	keystroke_r	r	n/a
137.058	0.1345	274116	keystroke_s	s	n/a
137.267	0.1505	274534	keystroke_Key.space	Key.space	n/a
137.7175	0.105	275435	keystroke_p	p	n/a
137.792	0.1205	275584	keystroke_r	r	n/a
137.9875	0.195	275975	keystroke_i	i	n/a
138.1075	0.104	276215	keystroke_m	m	n/a
138.1675	0.12	276335	keystroke_e	e	n/a
138.3925	0.135	276785	keystroke_Key.space	Key.space	n/a
138.8575	0.075	277715	keystroke_f	f	n/a
138.9625	0.1045	277925	keystroke_o	o	n/a
139.053	0.134	278106	keystroke_r	r	n/a
139.292	0.1355	278584	keystroke_m	m	n/a
139.4575	0.1355	278915	keystroke_e	e	n/a
139.7425	0.09	279485	keystroke_r	r	n/a
139.9225	0.1345	279845	keystroke_l	l	n/a
140.6725	0.09	281345	keystroke_y	y	n/a
141.1525	0.1195	282305	keystroke_Key.enter	Key.enter	n/a
141.2785	4.1055	282557	prompt	n/a	capital you be wine\n
141.9175	0.0745	283835	keystroke_c	c	n/a
142.0075	0.105	284015	keystroke_a	a	n/a
142.1725	0.09	284345	keystroke_p	p	n/a
142.383	0.119	284766	keystroke_i	i	n/a
142.4575	0.075	284915	keystroke_t	t	n/a
142.592	0.106	285184	keystroke_a	a	n/a
142.712	0.1055	285424	keystroke_l	l	n/a
142.8925	0.12	285785	keystroke_Key.space	Key.space	n/a
143.462	0.09	286924	keystroke_y	y	n/a
143.522	0.0605	287044	keystroke_o	o	n/a
143.717	0.1055	287434	keystroke_u	u	n/a
143.7775	0.1195	287555	keystroke_Key.space	Key.space	n/a
144.0025	0.1045	288005	keystroke_b	b	n/a
144.092	0.1505	288184	keystroke_e	e	n/a
144.2125	0.12	288425	keystroke_Key.space	Key.space	n/a
144.4525	0.105	288905	keystroke_w	w	n/a
144.6175	0.18	289235	keystroke_i	i	n/a
144.767	0.1195	289534	keystroke_n	n	n/a
144.873	0.1195	289746	keystroke_e	e	n/a
145.2625	0.12	290525	keystroke_Key.enter	Key.enter	n/a
145.388	10.797	290776	prompt	n/a	affiliated throughout partners ferry\n
146.132	0.0905	292264	keystroke_a	a	n/a
146.7025	0.06	293405	keystroke_f	f	n/a
146.8375	0.09	293675	keystroke_f	f	n/a
146.8975	0.105	293795	keystroke_i	i	n/a
147.107	0.105	294214	keystroke_l	l	n/a
147.287	0.12	294574	keystroke_i	i	n/a
147.4975	0.09	294995	keystroke_a	a	n/a
147.768	0.1045	295536	keystroke_t	t	n/a
147.8875	0.1195	295775	keystroke_e	e	n/a
148.0825	0.1195	296165	keystroke_d	d	n/a
148.2625	0.135	296525	keystroke_Key.space	Key.space	n/a
148.7725	0.105	297545	keystroke_t	t	n/a
148.9075	0.12	297815	keystroke_h	h	n/a
149.192	0.105	298384	keystroke_r	r	n/a
149.312	0.0905	298624	keystroke_o	o	n/a
149.582	0.136	299164	keystroke_u	u	n/a
149.852	0.1055	299704	keystroke_g	g	n/a
149.942	0.12	299884	keystroke_h	h	n/a
150.5125	0.075	301025	keystroke_o	o	n/a
150.7375	0.12	301475	keystroke_u	u	n/a
150.8275	0.1345	301655	keystroke_t	t	n/a
151.157	0.12	302314	keystroke_Key.space	Key.space	n/a
151.6075	0.12	303215	keystroke_p	p	n/a
151.6825	0.1345	303365	keystroke_a	a	n/a
151.8775	0.12	303755	keystroke_r	r	n/a
152.1175	0.09	304235	keystroke_t	t	n/a
152.3125	0.1355	304625	keystroke_n	n	n/a
152.4025	0.1195	304805	keystroke_e	e	n/a
152.597	0.135	305194	keystroke_s	s	n/a
153.258	0.105	306516	keystroke_Key.backspace	Key.backspace	n/a
153.333	0.1045	306666	keystroke_r	r	n/a
153.4525	0.135	306905	keystroke_s	s	n/a
154.0075	0.1795	308015	keystroke_Key.space	Key.space	n/a
155.0275	0.0895	310055	keystroke_f	f	n/a
155.162	0.1505	310324	keystroke_e	e	n/a
155.3725	0.105	310745	keystroke_r	r	n/a
155.5375	0.12	311075	keystroke_r	r	n/a
155.8075	0.104	311615	keystroke_y	y	n/a
156.077	0.105	312154	keystroke_Key.enter	Key.enter	n/a
156.1895	10.42	312379	prompt	n/a	raising potter frozen awareness\n
157.0075	0.12	314015	keystroke_r	r	n/a
157.1725	0.135	314345	keystroke_a	a	n/a
157.278	0.1045	314556	keystroke_s	s	n/a
157.398	0.1195	314796	keystroke_i	i	n/a
157.7125	0.1205	315425	keystroke_n	n	n/a
157.8925	0.09	315785	keystroke_g	g	n/a
158.1925	0.0895	316385	keystroke_Key.backspace	Key.backspace	n/a
158.3415	0.0755	316683	keystroke_Key.backspace	Key.backspace	n/a
158.477	0.0605	316954	keystroke_Key.backspace	Key.backspace	n/a
158.597	0.0745	317194	keystroke_Key.backspace	Key.backspace	n/a
159.3775	0.015	318755	keystroke_i	i	n/a
159.4375	0.03	318875	keystroke_s	s	n/a
159.4525	0.09	318905	keystroke_i	i	n/a
159.602	0.1055	319204	keystroke_n	n	n/a
159.7085	0.1035	319417	keystroke_g	g	n/a
160.547	0.1055	321094	keystroke_Key.space	Key.space	n/a
161.177	0.0905	322354	keystroke_p	p	n/a
161.3425	0.12	322685	keystroke_o	o	n/a
161.447	0.0905	322894	keystroke_t	t	n/a
161.6415	0.06	323283	keystroke_t	t	n/a
161.7475	0.15	323495	keystroke_e	e	n/a
161.8375	0.1645	323675	keystroke_r	r	n/a
161.972	0.12	323944	keystroke_Key.space	Key.space	n/a
162.5575	0.0755	325115	keystroke_f	f	n/a
162.7375	0.0895	325475	keystroke_r	r	n/a
162.7815	0.0905	325563	keystroke_o	o	n/a
163.2325	0.1205	326465	keystroke_z	z	n/a
163.3975	0.105	326795	keystroke_e	e	n/a
163.5325	0.1205	327065	keystroke_n	n	n/a
163.817	0.12	327634	keystroke_Key.space	Key.space	n/a
164.568	0.1345	329136	keystroke_a	a	n/a
164.657	0.1355	329314	keystroke_w	w	n/a
164.777	0.15	329554	keystroke_a	a	n/a
165.3015	0.1065	330603	keystroke_r	r	n/a
165.3915	0.106	330783	keystroke_e	e	n/a
165.8575	0.12	331715	keystroke_n	n	n/a
165.9615	0.151	331923	keystroke_e	e	n/a
166.082	0.0905	332164	keystroke_s	s	n/a
166.2625	0.09	332525	keystroke_s	s	n/a
166.4725	0.135	332945	keystroke_Key.enter	Key.enter	n/a
166.618	11.3455	333236	prompt	n/a	famous vatican religions underground\n
167.537	0.075	335074	keystroke_f	f	n/a
167.642	0.106	335284	keystroke_a	a	n/a
167.7775	0.165	335555	keystroke_m	m	n/a
167.867	0.15	335734	keystroke_o	o	n/a
168.0775	0.164	336155	keystroke_u	u	n/a
168.2275	0.06	336455	keystroke_r	r	n/a
168.6625	0.12	337325	keystroke_Key.backspace	Key.backspace	n/a
168.722	0.1205	337444	keystroke_s	s	n/a
168.8865	0.151	337773	keystroke_Key.space	Key.space	n/a
169.532	0.0605	339064	keystroke_v	v	n/a
169.6515	0.1205	339303	keystroke_a	a	n/a
169.892	0.0905	339784	keystroke_t	t	n/a
170.0425	0.1195	340085	keystroke_i	i	n/a
170.2075	0.075	340415	keystroke_c	c	n/a
170.2975	0.105	340595	keystroke_a	a	n/a
170.477	0.1355	340954	keystroke_n	n	n/a
170.687	0.135	341374	keystroke_Key.space	Key.space	n/a
171.3475	0.09	342695	keystroke_r	r	n/a
171.408	0.1045	342816	keystroke_e	e	n/a
171.8275	0.09	343655	keystroke_g	g	n/a
173.3125	0.12	346625	keystroke_Key.backspace	Key.backspace	n/a
173.7325	0.09	347465	keystroke_l	l	n/a
173.9125	0.12	347825	keystroke_i	i	n/a
174.1525	0.09	348305	keystroke_g	g	n/a
174.2135	0.1635	348427	keystroke_i	i	n/a
174.3025	0.1795	348605	keystroke_o	o	n/a
174.497	0.105	348994	keystroke_n	n	n/a
175.3075	0.1055	350615	keystroke_s	s	n/a
175.532	0.1055	351064	keystroke_Key.space	Key.space	n/a
176.207	0.1355	352414	keystroke_u	u	n/a
176.2975	0.1195	352595	keystroke_n	n	n/a
176.402	0.0755	352804	keystroke_d	d	n/a
176.5825	0.1045	353165	keystroke_e	e	n/a
176.7625	0.1205	353525	keystroke_r	r	n/a
177.0325	0.105	354065	keystroke_g	g	n/a
177.1225	0.1055	354245	keystroke_o	o	n/a
177.3625	0.165	354725	keystroke_u	u	n/a
177.4525	0.12	354905	keystroke_n	n	n/a
177.5125	0.12	355025	keystroke_d	d	n/a
177.842	0.12	355684	keystroke_Key.enter	Key.enter	n/a
177.9665	16.2135	355933	prompt	n/a	dedicated trivia embedded burton\n
178.6835	0.119	357367	keystroke_d	d	n/a
178.8925	0.12	357785	keystroke_e	e	n/a
179.1025	0.075	358205	keystroke_d	d	n/a
179.237	0.106	358474	keystroke_i	i	n/a
179.522	0.06	359044	keystroke_c	c	n/a
179.897	0.105	359794	keystroke_a	a	n/a
180.2425	0.104	360485	keystroke_e	e	n/a
180.422	0.121	360844	keystroke_d	d	n/a
180.602	0.1205	361204	keystroke_Key.space	Key.space	n/a
181.157	0.091	362314	keystroke_t	t	n/a
181.337	0.105	362674	keystroke_r	r	n/a
181.457	0.121	362914	keystroke_i	i	n/a
181.593	0.09	363186	keystroke_v	v	n/a
181.697	0.121	363394	keystroke_e	e	n/a
181.892	0.12	363784	keystroke_i	i	n/a
182.297	0.0905	364594	keystroke_Key.backspace	Key.backspace	n/a
182.6425	0.12	365285	keystroke_Key.backspace	Key.backspace	n/a
183.108	0.104	366216	keystroke_i	i	n/a
183.168	0.1345	366336	keystroke_a	a	n/a
183.2875	0.165	366575	keystroke_Key.space	Key.space	n/a
183.918	0.1195	367836	keystroke_e	e	n/a
184.0525	0.0895	368105	keystroke_m	m	n/a
184.217	0.0905	368434	keystroke_d	d	n/a
184.397	0.12	368794	keystroke_e	e	n/a
185.312	0.075	370624	keystroke_b	b	n/a
185.732	0.09	371464	keystroke_Key.backspace	Key.backspace	n/a
185.9425	0.03	371885	keystroke_d	d	n/a
186.1215	0.046	372243	keystroke_d	d	n/a
186.7515	0.0755	373503	keystroke_Key.backspace	Key.backspace	n/a
186.8875	0.0745	373775	keystroke_Key.backspace	Key.backspace	n/a
187.037	0.075	374074	keystroke_Key.backspace	Key.backspace	n/a
187.127	0.1355	374254	keystroke_Key.backspace	Key.backspace	n/a
187.908	0.0895	375816	keystroke_b	b	n/a
188.0275	0.1055	376055	keystroke_e	e	n/a
188.4625	0.075	376925	keystroke_d	d	n/a
188.6275	0.105	377255	keystroke_d	d	n/a
188.987	0.1055	377974	keystroke_e	e	n/a
189.3025	0.1045	378605	keystroke_d	d	n/a
190.022	0.0905	380044	keystroke_Key.space	Key.space	n/a
190.6975	0.12	381395	keystroke_b	b	n/a
190.787	0.1055	381574	keystroke_u	u	n/a
190.877	0.1055	381754	keystroke_r	r	n/a
191.5515	0.136	383103	keystroke_t	t	n/a
191.7775	0.18	383555	keystroke_i	i	n/a
191.942	0.105	383884	keystroke_n	n	n/a
192.467	0.0755	384934	keystroke_Key.backspace	Key.backspace	n/a
192.617	0.105	385234	keystroke_Key.backspace	Key.backspace	n/a
193.5325	0.1345	387065	keystroke_n	n	n/a
193.547	0.03	387094	keystroke_o	o	n/a
194.042	0.1355	388084	keystroke_Key.enter	Key.enter	n/a
194.185	7.8695	388370	prompt	n/a	resource chad quickly scanner\n
195.0775	0.105	390155	keystroke_r	r	n/a
195.1525	0.12	390305	keystroke_e	e	n/a
195.3025	0.1505	390605	keystroke_s	s	n/a
195.467	0.1205	390934	keystroke_o	o	n/a
195.6775	0.15	391355	keystroke_u	u	n/a
195.9475	0.1345	391895	keystroke_r	r	n/a
196.053	0.089	392106	keystroke_e	e	n/a
196.2025	0.135	392405	keystroke_c	c	n/a
196.5925	0.06	393185	keystroke_Key.backspace	Key.backspace	n/a
196.7275	0.12	393455	keystroke_Key.backspace	Key.backspace	n/a
196.8175	0.1045	393635	keystroke_c	c	n/a
196.9075	0.12	393815	keystroke_e	e	n/a
197.237	0.121	394474	keystroke_Key.space	Key.space	n/a
197.627	0.1055	395254	keystroke_c	c	n/a
197.852	0.105	395704	keystroke_h	h	n/a
197.9275	0.0895	395855	keystroke_a	a	n/a
198.047	0.12	396094	keystroke_d	d	n/a
198.227	0.1205	396454	keystroke_Key.space	Key.space	n/a
198.6925	0.105	397385	keystroke_q	q	n/a
199.0075	0.1345	398015	keystroke_u	u	n/a
199.0675	0.135	398135	keystroke_i	i	n/a
199.2325	0.105	398465	keystroke_c	c	n/a
199.3525	0.105	398705	keystroke_k	k	n/a
199.5625	0.1045	399125	keystroke_l	l	n/a
200.1325	0.105	400265	keystroke_y	y	n/a
200.3275	0.12	400655	keystroke_Key.space	Key.space	n/a
200.7475	0.135	401495	keystroke_s	s	n/a
201.077	0.0905	402154	keystroke_c	c	n/a
201.227	0.105	402454	keystroke_a	a	n/a
201.362	0.09	402724	keystroke_n	n	n/a
201.512	0.1205	403024	keystroke_n	n	n/a
201.602	0.105	403204	keystroke_e	e	n/a
201.767	0.12	403534	keystroke_r	r	n/a
201.9175	0.135	403835	keystroke_Key.enter	Key.enter	n/a
202.058	9.4315	404116	prompt	n/a	hungarian milwaukee voip drops\n
203.0275	0.135	406055	keystroke_h	h	n/a
203.1175	0.12	406235	keystroke_u	u	n/a
203.268	0.12	406536	keystroke_n	n	n/a
203.4775	0.105	406955	keystroke_g	g	n/a
203.643	0.09	407286	keystroke_a	a	n/a
203.777	0.1055	407554	keystroke_r	r	n/a
203.8975	0.1505	407795	keystroke_i	i	n/a
204.078	0.0755	408156	keystroke_a	a	n/a
204.362	0.106	408724	keystroke_n	n	n/a
204.782	0.1205	409564	keystroke_Key.space	Key.space	n/a
205.6825	0.134	411365	keystroke_m	m	n/a
205.7575	0.135	411515	keystroke_i	i	n/a
205.9675	0.135	411935	keystroke_l	l	n/a
206.2075	0.15	412415	keystroke_w	w	n/a
206.3125	0.12	412625	keystroke_a	a	n/a
207.2575	0.09	414515	keystroke_u	u	n/a
207.467	0.0905	414934	keystroke_k	k	n/a
207.6025	0.105	415205	keystroke_e	e	n/a
207.767	0.181	415534	keystroke_e	e	n/a
207.9175	0.1345	415835	keystroke_Key.space	Key.space	n/a
208.547	0.075	417094	keystroke_v	v	n/a
209.2675	0.0595	418535	keystroke_o	o	n/a
209.4175	0.09	418835	keystroke_i	i	n/a
209.6125	0.1055	419225	keystroke_p	p	n/a
209.8675	0.1055	419735	keystroke_Key.space	Key.space	n/a
210.1375	0.075	420275	keystroke_d	d	n/a
210.317	0.105	420634	keystroke_r	r	n/a
210.4975	0.1645	420995	keystroke_o	o	n/a
210.5875	0.18	421175	keystroke_p	p	n/a
210.9625	0.09	421925	keystroke_s	s	n/a
211.3525	0.1345	422705	keystroke_Key.enter	Key.enter	n/a
211.493	7.5865	422986	prompt	n/a	chuck those input bacterial\n
212.2665	0.121	424533	keystroke_c	c	n/a
212.4915	0.181	424983	keystroke_h	h	n/a
212.6735	0.1045	425347	keystroke_u	u	n/a
212.8525	0.1055	425705	keystroke_c	c	n/a
212.972	0.076	425944	keystroke_k	k	n/a
213.1225	0.1345	426245	keystroke_Key.space	Key.space	n/a
213.5275	0.1195	427055	keystroke_t	t	n/a
213.662	0.09	427324	keystroke_h	h	n/a
213.902	0.075	427804	keystroke_o	o	n/a
213.9925	0.1345	427985	keystroke_s	s	n/a
214.052	0.1795	428104	keystroke_e	e	n/a
214.2175	0.1355	428435	keystroke_Key.space	Key.space	n/a
214.757	0.1195	429514	keystroke_u	u	n/a
214.8175	0.135	429635	keystroke_n	n	n/a
215.238	0.059	430476	keystroke_Key.backspace	Key.backspace	n/a
215.3725	0.06	430745	keystroke_Key.backspace	Key.backspace	n/a
215.988	0.105	431976	keystroke_i	i	n/a
216.018	0.119	432036	keystroke_n	n	n/a
216.2575	0.1195	432515	keystroke_p	p	n/a
216.542	0.106	433084	keystroke_u	u	n/a
216.632	0.12	433264	keystroke_t	t	n/a
216.797	0.15	433594	keystroke_Key.space	Key.space	n/a
217.2625	0.105	434525	keystroke_b	b	n/a
217.3225	0.12	434645	keystroke_a	a	n/a
217.6075	0.089	435215	keystroke_c	c	n/a
217.907	0.0905	435814	keystroke_t	t	n/a
218.1325	0.105	436265	keystroke_e	e	n/a
218.2075	0.1205	436415	keystroke_r	r	n/a
218.387	0.12	436774	keystroke_i	i	n/a
218.4775	0.0905	436955	keystroke_a	a	n/a
218.658	0.1195	437316	keystroke_l	l	n/a
218.9575	0.12	437915	keystroke_Key.enter	Key.enter	n/a
219.0835	9.8655	438167	prompt	n/a	conceptual which escorts sells\n
219.6925	0.105	439385	keystroke_c	c	n/a
219.8875	0.12	439775	keystroke_o	o	n/a
220.3525	0.105	440705	keystroke_n	n	n/a
220.5475	0.135	441095	keystroke_c	c	n/a
220.6675	0.1205	441335	keystroke_e	e	n/a
221.1625	0.105	442325	keystroke_p	p	n/a
221.4915	0.0905	442983	keystroke_t	t	n/a
221.703	0.1195	443406	keystroke_i	i	n/a
221.8065	0.075	443613	keystroke_a	a	n/a
222.1225	0.06	444245	keystroke_Key.backspace	Key.backspace	n/a
222.287	0.0755	444574	keystroke_Key.backspace	Key.backspace	n/a
222.782	0.09	445564	keystroke_u	u	n/a
222.8575	0.0905	445715	keystroke_a	a	n/a
223.0075	0.12	446015	keystroke_l	l	n/a
223.1875	0.135	446375	keystroke_Key.space	Key.space	n/a
223.7275	0.1045	447455	keystroke_w	w	n/a
223.937	0.105	447874	keystroke_h	h	n/a
224.1475	0.105	448295	keystroke_i	i	n/a
224.2225	0.105	448445	keystroke_c	c	n/a
224.4175	0.12	448835	keystroke_h	h	n/a
224.597	0.1505	449194	keystroke_Key.space	Key.space	n/a
224.9275	0.135	449855	keystroke_w	w	n/a
225.7075	0.104	451415	keystroke_Key.backspace	Key.backspace	n/a
225.872	0.135	451744	keystroke_e	e	n/a
225.977	0.135	451954	keystroke_s	s	n/a
226.3375	0.09	452675	keystroke_c	c	n/a
226.5775	0.105	453155	keystroke_o	o	n/a
226.8025	0.135	453605	keystroke_r	r	n/a
227.0125	0.09	454025	keystroke_t	t	n/a
227.1175	0.135	454235	keystroke_s	s	n/a
227.402	0.0905	454804	keystroke_Key.space	Key.space	n/a
227.8235	0.119	455647	keystroke_s	s	n/a
227.8385	0.134	455677	keystroke_e	e	n/a
228.0475	0.06	456095	keystroke_l	l	n/a
228.197	0.0905	456394	keystroke_l	l	n/a
228.6625	0.105	457325	keystroke_s	s	n/a
228.8425	0.105	457685	keystroke_Key.enter	Key.enter	n/a
228.953	12.2805	457906	prompt	n/a	statute plane swiss necessarily\n
230.777	0.1205	461554	keystroke_s	s	n/a
230.867	0.1055	461734	keystroke_t	t	n/a
231.0325	0.105	462065	keystroke_a	a	n/a
231.182	0.105	462364	keystroke_t	t	n/a
232.1275	0.105	464255	keystroke_u	u	n/a
232.262	0.1495	464524	keystroke_t	t	n/a
232.4265	0.1205	464853	keystroke_e	e	n/a
232.6515	0.0905	465303	keystroke_Key.space	Key.space	n/a
233.147	0.15	466294	keystroke_p	p	n/a
233.2375	0.1195	466475	keystroke_l	l	n/a
233.283	0.1195	466566	keystroke_a	a	n/a
233.567	0.1205	467134	keystroke_c	c	n/a
233.7025	0.1195	467405	keystroke_e	e	n/a
234.017	0.0605	468034	keystroke_Key.backspace	Key.backspace	n/a
234.137	0.105	468274	keystroke_Key.backspace	Key.backspace	n/a
234.6465	0.106	469293	keystroke_n	n	n/a
234.9625	0.1195	469925	keystroke_e	e	n/a
235.1575	0.1045	470315	keystroke_Key.space	Key.space	n/a
235.5475	0.0895	471095	keystroke_s	s	n/a
235.742	0.091	471484	keystroke_w	w	n/a
235.848	0.105	471696	keystroke_i	i	n/a
235.982	0.09	471964	keystroke_s	s	n/a
236.147	0.1355	472294	keystroke_s	s	n/a
236.2665	0.1205	472533	keystroke_Key.space	Key.space	n/a
236.8075	0.135	473615	keystroke_n	n	n/a
236.9275	0.135	473855	keystroke_e	e	n/a
237.2575	0.06	474515	keystroke_c	c	n/a
237.302	0.1505	474604	keystroke_e	e	n/a
238.593	0.1045	477186	keystroke_s	s	n/a
238.7725	0.135	477545	keystroke_s	s	n/a
238.8925	0.165	477785	keystroke_a	a	n/a
239.1615	0.136	478323	keystroke_r	r	n/a
239.4025	0.105	478805	keystroke_t	t	n/a
239.7625	0.15	479525	keystroke_Key.backspace	Key.backspace	n/a
240.407	0.106	480814	keystroke_i	i	n/a
240.6325	0.12	481265	keystroke_l	l	n/a
240.7225	0.12	481445	keystroke_y	y	n/a
241.082	0.15	482164	keystroke_Key.enter	Key.enter	n/a
241.237	10.947	482474	prompt	n/a	moscow distribute guatemala private\n
242.2375	0.165	484475	keystroke_m	m	n/a
242.327	0.1655	484654	keystroke_o	o	n/a
242.3865	0.1065	484773	keystroke_s	s	n/a
242.5675	0.1345	485135	keystroke_c	c	n/a
242.687	0.135	485374	keystroke_o	o	n/a
242.837	0.12	485674	keystroke_w	w	n/a
243.182	0.105	486364	keystroke_Key.space	Key.space	n/a
243.8125	0.15	487625	keystroke_d	d	n/a
243.947	0.1055	487894	keystroke_i	i	n/a
244.353	0.1645	488706	keystroke_s	s	n/a
244.4875	0.105	488975	keystroke_t	t	n/a
246.257	0.09	492514	keystroke_r	r	n/a
246.348	0.119	492696	keystroke_i	i	n/a
246.6175	0.0895	493235	keystroke_b	b	n/a
246.708	0.0895	493416	keystroke_u	u	n/a
246.8425	0.12	493685	keystroke_t	t	n/a
246.9475	0.12	493895	keystroke_e	e	n/a
247.577	0.0905	495154	keystroke_Key.space	Key.space	n/a
248.312	0.09	496624	keystroke_g	g	n/a
248.432	0.09	496864	keystroke_u	u	n/a
248.507	0.1055	497014	keystroke_a	a	n/a
248.7625	0.09	497525	keystroke_t	t	n/a
248.898	0.0895	497796	keystroke_e	e	n/a
249.1525	0.1205	498305	keystroke_m	m	n/a
249.258	0.09	498516	keystroke_a	a	n/a
249.8875	0.1195	499775	keystroke_l	l	n/a
249.977	0.165	499954	keystroke_a	a	n/a
250.1275	0.135	500255	keystroke_Key.space	Key.space	n/a
250.7275	0.105	501455	keystroke_p	p	n/a
250.8175	0.12	501635	keystroke_r	r	n/a
250.9665	0.136	501933	keystroke_i	i	n/a
251.1325	0.06	502265	keystroke_v	v	n/a
251.2525	0.105	502505	keystroke_a	a	n/a
251.447	0.061	502894	keystroke_t	t	n/a
251.492	0.121	502984	keystroke_e	e	n/a
252.0775	0.1045	504155	keystroke_Key.enter	Key.enter	n/a
252.1885	7.4805	504377	prompt	n/a	fotos seafood portions park\n
253.037	0.105	506074	keystroke_f	f	n/a
253.127	0.106	506254	keystroke_o	o	n/a
253.3225	0.1055	506645	keystroke_t	t	n/a
253.383	0.1345	506766	keystroke_o	o	n/a
253.563	0.1795	507126	keystroke_s	s	n/a
253.7575	0.119	507515	keystroke_Key.space	Key.space	n/a
254.3125	0.2395	508625	keystroke_s	s	n/a
254.5075	0.1195	509015	keystroke_e	e	n/a
254.612	0.1355	509224	keystroke_a	a	n/a
254.8225	0.12	509645	keystroke_f	f	n/a
255.0475	0.135	510095	keystroke_o	o	n/a
255.198	0.0895	510396	keystroke_d	d	n/a
255.407	0.0755	510814	keystroke_d	d	n/a
255.6925	0.09	511385	keystroke_Key.space	Key.space	n/a
255.962	0.0745	511924	keystroke_Key.backspace	Key.backspace	n/a
256.0975	0.06	512195	keystroke_Key.backspace	Key.backspace	n/a
256.217	0.0755	512434	keystroke_Key.backspace	Key.backspace	n/a
256.8175	0.12	513635	keystroke_o	o	n/a
256.8775	0.15	513755	keystroke_d	d	n/a
257.0115	0.136	514023	keystroke_Key.space	Key.space	n/a
257.672	0.09	515344	keystroke_p	p	n/a
257.8375	0.135	515675	keystroke_o	o	n/a
257.912	0.1205	515824	keystroke_r	r	n/a
258.1675	0.12	516335	keystroke_t	t	n/a
258.1825	0.1495	516365	keystroke_i	i	n/a
258.272	0.1955	516544	keystroke_o	o	n/a
258.392	0.1355	516784	keystroke_n	n	n/a
258.4825	0.1345	516965	keystroke_s	s	n/a
258.7225	0.104	517445	keystroke_Key.space	Key.space	n/a
258.9775	0.12	517955	keystroke_p	p	n/a
259.0375	0.104	518075	keystroke_a	a	n/a
259.157	0.105	518314	keystroke_r	r	n/a
259.277	0.136	518554	keystroke_k	k	n/a
259.5325	0.135	519065	keystroke_Key.enter	Key.enter	n/a
259.674	11.3345	519348	prompt	n/a	protected connectors council required\n
260.4615	0.106	520923	keystroke_p	p	n/a
260.5825	0.105	521165	keystroke_r	r	n/a
260.9125	0.105	521825	keystroke_o	o	n/a
260.9275	0.1945	521855	keystroke_t	t	n/a
261.6925	0.1355	523385	keystroke_e	e	n/a
262.0225	0.1195	524045	keystroke_c	c	n/a
262.397	0.0905	524794	keystroke_t	t	n/a
262.607	0.12	525214	keystroke_e	e	n/a
262.8025	0.1355	525605	keystroke_d	d	n/a
262.967	0.1205	525934	keystroke_Key.space	Key.space	n/a
263.3125	0.105	526625	keystroke_c	c	n/a
263.4325	0.105	526865	keystroke_o	o	n/a
263.687	0.076	527374	keystroke_n	n	n/a
263.807	0.1505	527614	keystroke_n	n	n/a
263.867	0.1205	527734	keystroke_e	e	n/a
264.017	0.1205	528034	keystroke_c	c	n/a
264.257	0.1055	528514	keystroke_t	t	n/a
264.363	0.134	528726	keystroke_i	i	n/a
264.437	0.1355	528874	keystroke_o	o	n/a
264.587	0.136	529174	keystroke_n	n	n/a
264.962	0.075	529924	keystroke_Key.backspace	Key.backspace	n/a
265.0975	0.045	530195	keystroke_Key.backspace	Key.backspace	n/a
265.202	0.1205	530404	keystroke_Key.backspace	Key.backspace	n/a
265.712	0.1205	531424	keystroke_o	o	n/a
265.787	0.135	531574	keystroke_r	r	n/a
265.997	0.0305	531994	keystroke_t	t	n/a
266.9425	0.0895	533885	keystroke_Key.backspace	Key.backspace	n/a
267.002	0.1805	534004	keystroke_s	s	n/a
267.2275	0.15	534455	keystroke_Key.space	Key.space	n/a
268.3075	0.105	536615	keystroke_c	c	n/a
268.3975	0.0905	536795	keystroke_o	o	n/a
268.653	0.1045	537306	keystroke_u	u	n/a
268.698	0.119	537396	keystroke_n	n	n/a
268.8775	0.1345	537755	keystroke_c	c	n/a
268.967	0.1355	537934	keystroke_i	i	n/a
269.192	0.1345	538384	keystroke_l	l	n/a
269.402	0.1205	538804	keystroke_Key.space	Key.space	n/a
269.8225	0.1045	539645	keystroke_r	r	n/a
269.8975	0.1055	539795	keystroke_e	e	n/a
270.0765	0.1355	540153	keystroke_q	q	n/a
270.257	0.151	540514	keystroke_u	u	n/a
270.302	0.15	540604	keystroke_i	i	n/a
270.453	0.0745	540906	keystroke_r	r	n/a
270.4975	0.12	540995	keystroke_e	e	n/a
270.692	0.1355	541384	keystroke_d	d	n/a
270.8875	0.12	541775	keystroke_Key.enter	Key.enter	n/a
271.0145	8.9195	542029	prompt	n/a	jason miracle annex travesti\n
272.3725	0.074	544745	keystroke_j	j	n/a
272.4325	0.135	544865	keystroke_a	a	n/a
272.5525	0.1195	545105	keystroke_s	s	n/a
272.688	0.1045	545376	keystroke_o	o	n/a
272.8665	0.1655	545733	keystroke_n	n	n/a
273.0625	0.1345	546125	keystroke_Key.space	Key.space	n/a
273.497	0.165	546994	keystroke_m	m	n/a
273.617	0.121	547234	keystroke_i	i	n/a
273.9625	0.09	547925	keystroke_r	r	n/a
274.0815	0.1205	548163	keystroke_a	a	n/a
274.2475	0.1045	548495	keystroke_c	c	n/a
274.382	0.1355	548764	keystroke_l	l	n/a
274.5325	0.134	549065	keystroke_e	e	n/a
274.997	0.1205	549994	keystroke_Key.space	Key.space	n/a
275.2675	0.105	550535	keystroke_a	a	n/a
275.4175	0.105	550835	keystroke_n	n	n/a
275.5675	0.1655	551135	keystroke_n	n	n/a
275.658	0.1205	551316	keystroke_e	e	n/a
275.883	0.135	551766	keystroke_x	x	n/a
276.107	0.1355	552214	keystroke_Key.space	Key.space	n/a
276.9625	0.0895	553925	keystroke_t	t	n/a
277.217	0.1655	554434	keystroke_r	r	n/a
277.4425	0.12	554885	keystroke_a	a	n/a
277.7575	0.075	555515	keystroke_v	v	n/a
277.817	0.03	555634	keystroke_c	c	n/a
277.8925	0.1355	555785	keystroke_e	e	n/a
278.297	0.09	556594	keystroke_Key.backspace	Key.backspace	n/a
278.4465	0.105	556893	keystroke_Key.backspace	Key.backspace	n/a
278.5375	0.1645	557075	keystroke_e	e	n/a
278.6875	0.165	557375	keystroke_s	s	n/a
278.9575	0.105	557915	keystroke_t	t	n/a
279.557	0.1055	559114	keystroke_i	i	n/a
279.8125	0.1195	559625	keystroke_Key.enter	Key.enter	n/a
279.9385	9.4	559877	prompt	n/a	segments look references primarily\n
280.683	0.1195	561366	keystroke_s	s	n/a
280.742	0.12	561484	keystroke_e	e	n/a
281.012	0.09	562024	keystroke_g	g	n/a
281.192	0.12	562384	keystroke_m	m	n/a
281.2525	0.165	562505	keystroke_e	e	n/a
281.4325	0.1045	562865	keystroke_n	n	n/a
281.5225	0.09	563045	keystroke_t	t	n/a
281.6275	0.1345	563255	keystroke_s	s	n/a
281.8825	0.0895	563765	keystroke_Key.space	Key.space	n/a
282.257	0.106	564514	keystroke_l	l	n/a
282.452	0.091	564904	keystroke_o	o	n/a
282.587	0.2105	565174	keystroke_o	o	n/a
282.693	0.1645	565386	keystroke_k	k	n/a
283.082	0.1055	566164	keystroke_Key.space	Key.space	n/a
283.307	0.0905	566614	keystroke_r	r	n/a
283.3675	0.135	566735	keystroke_e	e	n/a
283.5475	0.135	567095	keystroke_f	f	n/a
283.6675	0.15	567335	keystroke_e	e	n/a
283.862	0.12	567724	keystroke_r	r	n/a
283.9675	0.1045	567935	keystroke_e	e	n/a
284.462	0.135	568924	keystroke_n	n	n/a
284.717	0.105	569434	keystroke_c	c	n/a
284.807	0.135	569614	keystroke_e	e	n/a
284.9575	0.165	569915	keystroke_s	s	n/a
285.392	0.12	570784	keystroke_Key.space	Key.space	n/a
285.6775	0.105	571355	keystroke_p	p	n/a
285.7975	0.0895	571595	keystroke_r	r	n/a
285.9315	0.106	571863	keystroke_i	i	n/a
286.097	0.1345	572194	keystroke_m	m	n/a
286.172	0.165	572344	keystroke_a	a	n/a
286.3815	0.151	572763	keystroke_r	r	n/a
286.5775	0.15	573155	keystroke_i	i	n/a
286.9365	0.1055	573873	keystroke_;	;	n/a
287.7325	0.15	575465	keystroke_Key.backspace	Key.backspace	n/a
288.4525	0.074	576905	keystroke_l	l	n/a
288.8575	0.09	577715	keystroke_y	y	n/a
289.217	0.1205	578434	keystroke_Key.enter	Key.enter	n/a
289.3425	10.1065	578685	prompt	n/a	western tulsa diversity musicians\n
290.027	0.12	580054	keystroke_w	w	n/a
290.087	0.1205	580174	keystroke_e	e	n/a
290.2675	0.195	580535	keystroke_s	s	n/a
290.4325	0.12	580865	keystroke_t	t	n/a
290.5375	0.164	581075	keystroke_e	e	n/a
290.657	0.1495	581314	keystroke_r	r	n/a
290.822	0.1505	581644	keystroke_n	n	n/a
291.0925	0.0895	582185	keystroke_Key.space	Key.space	n/a
291.647	0.135	583294	keystroke_t	t	n/a
291.797	0.12	583594	keystroke_i	i	n/a
292.157	0.075	584314	keystroke_Key.backspace	Key.backspace	n/a
292.5175	0.105	585035	keystroke_u	u	n/a
292.7575	0.1495	585515	keystroke_l	l	n/a
292.877	0.09	585754	keystroke_s	s	n/a
293.087	0.12	586174	keystroke_a	a	n/a
293.2825	0.1345	586565	keystroke_Key.space	Key.space	n/a
293.7175	0.1345	587435	keystroke_d	d	n/a
293.822	0.12	587644	keystroke_i	i	n/a
294.047	0.105	588094	keystroke_v	v	n/a
294.198	0.179	588396	keystroke_e	e	n/a
294.317	0.12	588634	keystroke_r	r	n/a
294.467	0.15	588934	keystroke_s	s	n/a
294.662	0.0755	589324	keystroke_i	i	n/a
294.827	0.12	589654	keystroke_t	t	n/a
295.757	0.09	591514	keystroke_y	y	n/a
296.282	0.1205	592564	keystroke_Key.space	Key.space	n/a
296.792	0.135	593584	keystroke_m	m	n/a
296.867	0.135	593734	keystroke_u	u	n/a
297.122	0.1355	594244	keystroke_s	s	n/a
297.2725	0.12	594545	keystroke_i	i	n/a
297.5425	0.1345	595085	keystroke_c	c	n/a
297.647	0.1505	595294	keystroke_i	i	n/a
297.902	0.06	595804	keystroke_n	n	n/a
297.932	0.105	595864	keystroke_a	a	n/a
298.4115	0.045	596823	keystroke_Key.backspace	Key.backspace	n/a
298.5315	0.09	597063	keystroke_Key.backspace	Key.backspace	n/a
298.6075	0.09	597215	keystroke_a	a	n/a
298.8475	0.12	597695	keystroke_n	n	n/a
298.9815	0.105	597963	keystroke_s	s	n/a
299.3115	0.1355	598623	keystroke_Key.enter	Key.enter	n/a
299.454	9.88	598908	prompt	n/a	underground trainers harm witch\n
300.3475	0.149	600695	keystroke_u	u	n/a
300.4225	0.135	600845	keystroke_n	n	n/a
301.112	0.1055	602224	keystroke_d	d	n/a
301.292	0.195	602584	keystroke_e	e	n/a
301.427	0.1205	602854	keystroke_r	r	n/a
301.9225	0.09	603845	keystroke_g	g	n/a
302.147	0.0895	604294	keystroke_r	r	n/a
302.207	0.1055	604414	keystroke_o	o	n/a
302.4925	0.1495	604985	keystroke_u	u	n/a
302.5375	0.12	605075	keystroke_n	n	n/a
302.702	0.135	605404	keystroke_d	d	n/a
302.8225	0.135	605645	keystroke_Key.space	Key.space	n/a
303.347	0.09	606694	keystroke_t	t	n/a
303.5575	0.0895	607115	keystroke_r	r	n/a
303.677	0.09	607354	keystroke_a	a	n/a
303.857	0.1355	607714	keystroke_i	i	n/a
304.5325	0.1045	609065	keystroke_n	n	n/a
304.652	0.15	609304	keystroke_e	e	n/a
304.727	0.1505	609454	keystroke_r	r	n/a
305.0875	0.1045	610175	keystroke_s	s	n/a
305.372	0.1195	610744	keystroke_Key.space	Key.space	n/a
305.8525	0.089	611705	keystroke_h	h	n/a
305.8675	0.1645	611735	keystroke_a	a	n/a
306.0165	0.106	612033	keystroke_r	r	n/a
306.1235	0.1335	612247	keystroke_m	m	n/a
306.2715	0.136	612543	keystroke_Key.space	Key.space	n/a
306.5275	0.0895	613055	keystroke_w	w	n/a
306.887	0.12	613774	keystroke_i	i	n/a
307.022	0.121	614044	keystroke_t	t	n/a
307.172	0.105	614344	keystroke_h	h	n/a
307.307	0.075	614614	keystroke_c	c	n/a
307.952	0.091	615904	keystroke_Key.backspace	Key.backspace	n/a
308.1025	0.09	616205	keystroke_Key.backspace	Key.backspace	n/a
308.207	0.1055	616414	keystroke_c	c	n/a
308.958	0.1045	617916	keystroke_h	h	n/a
309.2725	0.06	618545	keystroke_Key.enter	Key.enter	n/a
309.3385	10.781	618677	prompt	n/a	almost scored abilities operates\n
309.992	0.106	619984	keystroke_a	a	n/a
310.1125	0.1045	620225	keystroke_l	l	n/a
310.3665	0.1505	620733	keystroke_m	m	n/a
310.442	0.15	620884	keystroke_o	o	n/a
310.5775	0.15	621155	keystroke_s	s	n/a
310.712	0.12	621424	keystroke_t	t	n/a
310.9515	0.1055	621903	keystroke_Key.space	Key.space	n/a
311.2825	0.1045	622565	keystroke_s	s	n/a
311.4165	0.105	622833	keystroke_c	c	n/a
311.5525	0.1195	623105	keystroke_o	o	n/a
311.8065	0.1065	623613	keystroke_r	r	n/a
311.9265	0.121	623853	keystroke_e	e	n/a
312.0925	0.1345	624185	keystroke_d	d	n/a
312.2875	0.1345	624575	keystroke_Key.space	Key.space	n/a
312.573	0.104	625146	keystroke_a	a	n/a
312.872	0.135	625744	keystroke_n	n	n/a
312.992	0.12	625984	keystroke_i	i	n/a
313.2175	0.09	626435	keystroke_l	l	n/a
313.382	0.135	626764	keystroke_i	i	n/a
314.0725	0.075	628145	keystroke_Key.backspace	Key.backspace	n/a
314.2075	0.0595	628415	keystroke_Key.backspace	Key.backspace	n/a
314.326	0.076	628652	keystroke_Key.backspace	Key.backspace	n/a
314.702	0.015	629404	keystroke_Key.backspace	Key.backspace	n/a
315.3775	0.09	630755	keystroke_b	b	n/a
315.6625	0.09	631325	keystroke_i	i	n/a
315.8575	0.075	631715	keystroke_l	l	n/a
316.022	0.09	632044	keystroke_i	i	n/a
316.2475	0.0895	632495	keystroke_t	t	n/a
316.442	0.075	632884	keystroke_i	i	n/a
316.622	0.121	633244	keystroke_e	e	n/a
316.967	0.12	633934	keystroke_s	s	n/a
317.402	0.0755	634804	keystroke_Key.space	Key.space	n/a
318.0925	0.0145	636185	keystroke_o	o	n/a
318.1825	0.134	636365	keystroke_p	p	n/a
318.2725	0.165	636545	keystroke_e	e	n/a
318.3625	0.135	636725	keystroke_r	r	n/a
318.5425	0.1195	637085	keystroke_a	a	n/a
318.7675	0.105	637535	keystroke_t	t	n/a
318.9475	0.12	637895	keystroke_e	e	n/a
319.187	0.1205	638374	keystroke_d	d	n/a
319.682	0.1345	639364	keystroke_Key.backspace	Key.backspace	n/a
319.7865	0.106	639573	keystroke_s	s	n/a
319.9975	0.1195	639995	keystroke_Key.enter	Key.enter	n/a
320.123	7.255	640246	prompt	n/a	newton faqs chad tier\n
320.972	0.12	641944	keystroke_n	n	n/a
321.122	0.09	642244	keystroke_e	e	n/a
321.197	0.1205	642394	keystroke_w	w	n/a
321.918	0.089	643836	keystroke_t	t	n/a
321.977	0.1055	643954	keystroke_o	o	n/a
322.172	0.135	644344	keystroke_n	n	n/a
322.3825	0.135	644765	keystroke_Key.space	Key.space	n/a
322.8625	0.0445	645725	keystroke_f	f	n/a
323.2225	0.0895	646445	keystroke_a	a	n/a
324.017	0.09	648034	keystroke_q	q	n/a
324.362	0.1045	648724	keystroke_s	s	n/a
324.5415	0.135	649083	keystroke_Key.space	Key.space	n/a
324.9025	0.09	649805	keystroke_c	c	n/a
325.0075	0.09	650015	keystroke_h	h	n/a
325.0675	0.135	650135	keystroke_a	a	n/a
325.2925	0.135	650585	keystroke_d	d	n/a
325.547	0.135	651094	keystroke_Key.space	Key.space	n/a
326.432	0.106	652864	keystroke_t	t	n/a
326.507	0.1205	653014	keystroke_i	i	n/a
326.6575	0.1795	653315	keystroke_e	e	n/a
326.7775	0.12	653555	keystroke_r	r	n/a
327.257	0.12	654514	keystroke_Key.enter	Key.enter	n/a
327.382	5.2625	654764	prompt	n/a	xbox dana harley find\n
328.172	0.1055	656344	keystroke_x	x	n/a
328.4725	0.0745	656945	keystroke_b	b	n/a
328.532	0.09	657064	keystroke_o	o	n/a
328.637	0.12	657274	keystroke_x	x	n/a
328.817	0.105	657634	keystroke_Key.space	Key.space	n/a
329.102	0.105	658204	keystroke_d	d	n/a
329.193	0.119	658386	keystroke_a	a	n/a
329.327	0.0905	658654	keystroke_n	n	n/a
329.432	0.165	658864	keystroke_a	a	n/a
329.582	0.15	659164	keystroke_Key.space	Key.space	n/a
330.197	0.0905	660394	keystroke_h	h	n/a
330.2575	0.105	660515	keystroke_a	a	n/a
330.3775	0.0905	660755	keystroke_r	r	n/a
330.618	0.089	661236	keystroke_l	l	n/a
330.692	0.12	661384	keystroke_e	e	n/a
331.007	0.1205	662014	keystroke_y	y	n/a
331.1415	0.1355	662283	keystroke_Key.space	Key.space	n/a
331.9075	0.105	663815	keystroke_f	f	n/a
332.1025	0.1795	664205	keystroke_i	i	n/a
332.2065	0.1205	664413	keystroke_n	n	n/a
332.297	0.12	664594	keystroke_d	d	n/a
332.537	0.105	665074	keystroke_Key.enter	Key.enter	n/a
332.65	11.3065	665300	prompt	n/a	problem totals figured charging\n
333.5575	0.105	667115	keystroke_p	p	n/a
333.632	0.09	667264	keystroke_r	r	n/a
333.827	0.1055	667654	keystroke_o	o	n/a
334.098	0.1045	668196	keystroke_b	b	n/a
334.2475	0.12	668495	keystroke_l	l	n/a
335.0115	0.1205	670023	keystroke_e	e	n/a
335.2975	0.104	670595	keystroke_m	m	n/a
335.4475	0.12	670895	keystroke_Key.space	Key.space	n/a
336.0625	0.0755	672125	keystroke_t	t	n/a
336.123	0.119	672246	keystroke_o	o	n/a
336.2275	0.1045	672455	keystroke_a	a	n/a
336.362	0.075	672724	keystroke_t	t	n/a
336.632	0.1055	673264	keystroke_l	l	n/a
336.7825	0.0895	673565	keystroke_s	s	n/a
337.022	0.075	674044	keystroke_Key.backspace	Key.backspace	n/a
337.1865	0.0755	674373	keystroke_Key.backspace	Key.backspace	n/a
337.3215	0.2105	674643	keystroke_Key.backspace	Key.backspace	n/a
337.517	0.105	675034	keystroke_t	t	n/a
337.757	0.06	675514	keystroke_Key.backspace	Key.backspace	n/a
337.9065	0.105	675813	keystroke_Key.backspace	Key.backspace	n/a
338.0425	0.0905	676085	keystroke_t	t	n/a
338.2525	0.12	676505	keystroke_a	a	n/a
338.8525	0.089	677705	keystroke_l	l	n/a
338.9125	0.135	677825	keystroke_s	s	n/a
339.062	0.1205	678124	keystroke_Key.space	Key.space	n/a
340.2475	0.06	680495	keystroke_f	f	n/a
340.2925	0.06	680585	keystroke_i	i	n/a
340.5025	0.09	681005	keystroke_g	g	n/a
340.6075	0.12	681215	keystroke_u	u	n/a
340.7575	0.12	681515	keystroke_r	r	n/a
340.8475	0.135	681695	keystroke_e	e	n/a
341.192	0.015	682384	keystroke_d	d	n/a
341.267	0.1205	682534	keystroke_Key.space	Key.space	n/a
341.552	0.1205	683104	keystroke_c	c	n/a
341.717	0.1055	683434	keystroke_h	h	n/a
341.8375	0.09	683675	keystroke_r	r	n/a
341.9565	0.1355	683913	keystroke_a	a	n/a
342.3015	0.076	684603	keystroke_g	g	n/a
342.902	0.1055	685804	keystroke_i	i	n/a
342.977	0.135	685954	keystroke_n	n	n/a
343.203	0.105	686406	keystroke_g	g	n/a
343.832	0.119	687664	keystroke_Key.enter	Key.enter	n/a
343.96	7.9735	687920	prompt	n/a	am shower boundary crucial\n
344.6125	0.0895	689225	keystroke_a	a	n/a
344.747	0.12	689494	keystroke_m	m	n/a
344.882	0.1205	689764	keystroke_Key.space	Key.space	n/a
345.1525	0.105	690305	keystroke_s	s	n/a
345.2875	0.09	690575	keystroke_h	h	n/a
345.512	0.105	691024	keystroke_o	o	n/a
345.543	0.194	691086	keystroke_w	w	n/a
345.662	0.225	691324	keystroke_e	e	n/a
345.888	0.1195	691776	keystroke_r	r	n/a
346.217	0.075	692434	keystroke_Key.space	Key.space	n/a
346.607	0.09	693214	keystroke_b	b	n/a
346.667	0.09	693334	keystroke_o	o	n/a
346.922	0.1355	693844	keystroke_u	u	n/a
347.297	0.105	694594	keystroke_n	n	n/a
347.672	0.09	695344	keystroke_d	d	n/a
347.927	0.1495	695854	keystroke_a	a	n/a
348.302	0.12	696604	keystroke_r	r	n/a
348.917	0.12	697834	keystroke_y	y	n/a
349.472	0.09	698944	keystroke_Key.space	Key.space	n/a
349.697	0.105	699394	keystroke_c	c	n/a
349.9375	0.104	699875	keystroke_r	r	n/a
350.027	0.1645	700054	keystroke_u	u	n/a
350.297	0.1055	700594	keystroke_c	c	n/a
351.2125	0.1195	702425	keystroke_i	i	n/a
351.3175	0.105	702635	keystroke_a	a	n/a
351.5275	0.105	703055	keystroke_l	l	n/a
351.812	0.1195	703624	keystroke_Key.enter	Key.enter	n/a
351.938	6.266	703876	prompt	n/a	tries hacker butter limiting\n
352.682	0.105	705364	keystroke_t	t	n/a
353.1325	0.105	706265	keystroke_r	r	n/a
353.1925	0.135	706385	keystroke_i	i	n/a
353.3125	0.1345	706625	keystroke_e	e	n/a
353.462	0.1355	706924	keystroke_s	s	n/a
353.6275	0.119	707255	keystroke_Key.space	Key.space	n/a
354.092	0.105	708184	keystroke_h	h	n/a
354.122	0.1355	708244	keystroke_a	a	n/a
354.3025	0.1045	708605	keystroke_c	c	n/a
354.422	0.106	708844	keystroke_k	k	n/a
354.5725	0.15	709145	keystroke_e	e	n/a
354.632	0.12	709264	keystroke_r	r	n/a
355.0065	0.0905	710013	keystroke_Key.space	Key.space	n/a
355.5325	0.135	711065	keystroke_b	b	n/a
355.6075	0.135	711215	keystroke_u	u	n/a
355.7575	0.09	711515	keystroke_t	t	n/a
355.952	0.075	711904	keystroke_t	t	n/a
356.072	0.1945	712144	keystroke_e	e	n/a
356.162	0.1505	712324	keystroke_r	r	n/a
356.582	0.12	713164	keystroke_Key.space	Key.space	n/a
356.898	0.104	713796	keystroke_l	l	n/a
357.077	0.165	714154	keystroke_i	i	n/a
357.212	0.1505	714424	keystroke_m	m	n/a
357.317	0.195	714634	keystroke_i	i	n/a
357.497	0.1205	714994	keystroke_t	t	n/a
357.6025	0.1645	715205	keystroke_i	i	n/a
357.737	0.1205	715474	keystroke_n	n	n/a
357.842	0.075	715684	keystroke_g	g	n/a
358.097	0.105	716194	keystroke_Key.enter	Key.enter	n/a
358.2105	10.7485	716421	prompt	n/a	thumbnails everything charges merge\n
359.132	0.0905	718264	keystroke_t	t	n/a
359.2375	0.105	718475	keystroke_h	h	n/a
359.417	0.195	718834	keystroke_u	u	n/a
359.6275	0.135	719255	keystroke_m	m	n/a
359.9725	0.12	719945	keystroke_b	b	n/a
360.3775	0.105	720755	keystroke_n	n	n/a
360.4675	0.09	720935	keystroke_a	a	n/a
361.007	0.105	722014	keystroke_i	i	n/a
361.187	0.12	722374	keystroke_l	l	n/a
361.277	0.135	722554	keystroke_s	s	n/a
361.622	0.135	723244	keystroke_Key.space	Key.space	n/a
361.9375	0.149	723875	keystroke_e	e	n/a
362.1465	0.1055	724293	keystroke_v	v	n/a
362.282	0.1655	724564	keystroke_e	e	n/a
362.402	0.1205	724804	keystroke_r	r	n/a
362.7625	0.0895	725525	keystroke_y	y	n/a
363.077	0.1045	726154	keystroke_t	t	n/a
363.107	0.105	726214	keystroke_h	h	n/a
363.302	0.1805	726604	keystroke_i	i	n/a
363.4665	0.15	726933	keystroke_m	m	n/a
363.572	0.0895	727144	keystroke_g	g	n/a
363.7815	0.12	727563	keystroke_Key.space	Key.space	n/a
364.5015	0.0755	729003	keystroke_Key.backspace	Key.backspace	n/a
364.652	0.0455	729304	keystroke_Key.backspace	Key.backspace	n/a
364.757	0.1205	729514	keystroke_Key.backspace	Key.backspace	n/a
365.388	0.119	730776	keystroke_n	n	n/a
365.462	0.1065	730924	keystroke_g	g	n/a
365.597	0.105	731194	keystroke_Key.space	Key.space	n/a
366.062	0.0905	732124	keystroke_c	c	n/a
366.2275	0.1345	732455	keystroke_h	h	n/a
366.347	0.12	732694	keystroke_a	a	n/a
366.512	0.135	733024	keystroke_r	r	n/a
366.782	0.06	733564	keystroke_g	g	n/a
366.887	0.135	733774	keystroke_e	e	n/a
366.978	0.119	733956	keystroke_s	s	n/a
367.427	0.1195	734854	keystroke_Key.space	Key.space	n/a
367.907	0.12	735814	keystroke_m	m	n/a
367.982	0.15	735964	keystroke_e	e	n/a
368.072	0.12	736144	keystroke_r	r	n/a
368.297	0.0905	736594	keystroke_g	g	n/a
368.417	0.1505	736834	keystroke_e	e	n/a
368.852	0.105	737704	keystroke_Key.enter	Key.enter	n/a
368.964	9.37	737928	prompt	n/a	dose transcription refund programme\n
369.6175	0.105	739235	keystroke_d	d	n/a
369.7375	0.105	739475	keystroke_o	o	n/a
369.857	0.15	739714	keystroke_s	s	n/a
369.962	0.1355	739924	keystroke_e	e	n/a
370.127	0.15	740254	keystroke_Key.space	Key.space	n/a
370.982	0.09	741964	keystroke_t	t	n/a
371.1925	0.09	742385	keystroke_r	r	n/a
371.312	0.12	742624	keystroke_a	a	n/a
371.852	0.105	743704	keystroke_n	n	n/a
371.927	0.106	743854	keystroke_s	s	n/a
372.242	0.1055	744484	keystroke_c	c	n/a
373.187	0.1205	746374	keystroke_r	r	n/a
373.232	0.1355	746464	keystroke_i	i	n/a
373.922	0.09	747844	keystroke_p	p	n/a
374.237	0.105	748474	keystroke_t	t	n/a
374.312	0.1505	748624	keystroke_i	i	n/a
374.387	0.1655	748774	keystroke_o	o	n/a
374.507	0.12	749014	keystroke_n	n	n/a
374.9865	0.045	749973	keystroke_Key.space	Key.space	n/a
375.272	0.075	750544	keystroke_r	r	n/a
375.332	0.15	750664	keystroke_e	e	n/a
375.527	0.1055	751054	keystroke_f	f	n/a
375.827	0.195	751654	keystroke_u	u	n/a
375.9475	0.135	751895	keystroke_n	n	n/a
376.0675	0.1495	752135	keystroke_d	d	n/a
376.202	0.165	752404	keystroke_Key.space	Key.space	n/a
376.772	0.1195	753544	keystroke_p	p	n/a
376.8765	0.1205	753753	keystroke_r	r	n/a
376.982	0.135	753964	keystroke_o	o	n/a
377.357	0.09	754714	keystroke_g	g	n/a
377.567	0.09	755134	keystroke_r	r	n/a
377.6725	0.134	755345	keystroke_a	a	n/a
377.792	0.1055	755584	keystroke_m	m	n/a
377.9425	0.1345	755885	keystroke_m	m	n/a
378.0625	0.135	756125	keystroke_e	e	n/a
378.211	0.121	756422	keystroke_Key.enter	Key.enter	n/a
378.3375	7.1815	756675	prompt	n/a	discretion latest fence ranks\n
379.0225	0.1045	758045	keystroke_d	d	n/a
379.5475	0.12	759095	keystroke_i	i	n/a
380.132	0.09	760264	keystroke_s	s	n/a
380.192	0.12	760384	keystroke_c	c	n/a
380.718	0.104	761436	keystroke_r	r	n/a
380.7775	0.1355	761555	keystroke_e	e	n/a
381.032	0.12	762064	keystroke_t	t	n/a
381.108	0.1495	762216	keystroke_i	i	n/a
381.182	0.1655	762364	keystroke_o	o	n/a
381.272	0.135	762544	keystroke_n	n	n/a
381.6325	0.1195	763265	keystroke_Key.space	Key.space	n/a
381.9325	0.1345	763865	keystroke_l	l	n/a
381.9925	0.0895	763985	keystroke_a	a	n/a
382.1875	0.105	764375	keystroke_t	t	n/a
382.322	0.15	764644	keystroke_e	e	n/a
382.4425	0.1795	764885	keystroke_s	s	n/a
382.607	0.1205	765214	keystroke_t	t	n/a
382.802	0.12	765604	keystroke_Key.space	Key.space	n/a
383.448	0.119	766896	keystroke_f	f	n/a
383.552	0.105	767104	keystroke_e	e	n/a
383.627	0.09	767254	keystroke_n	n	n/a
383.882	0.0905	767764	keystroke_c	c	n/a
383.958	0.1045	767916	keystroke_e	e	n/a
384.197	0.105	768394	keystroke_Key.space	Key.space	n/a
384.677	0.09	769354	keystroke_r	r	n/a
384.7825	0.0745	769565	keystroke_a	a	n/a
384.992	0.15	769984	keystroke_n	n	n/a
385.082	0.135	770164	keystroke_k	k	n/a
385.172	0.105	770344	keystroke_s	s	n/a
385.397	0.12	770794	keystroke_Key.enter	Key.enter	n/a
385.5235	11.395	771047	prompt	n/a	crystal fabrics shut slovakia\n
386.222	0.1055	772444	keystroke_c	c	n/a
386.5965	0.091	773193	keystroke_r	r	n/a
386.8675	0.09	773735	keystroke_y	y	n/a
387.152	0.075	774304	keystroke_r	r	n/a
387.167	0.03	774334	keystroke_t	t	n/a
387.617	0.105	775234	keystroke_Key.backspace	Key.backspace	n/a
387.782	0.1195	775564	keystroke_s	s	n/a
387.872	0.075	775744	keystroke_t	t	n/a
388.112	0.06	776224	keystroke_Key.backspace	Key.backspace	n/a
388.2475	0.0595	776495	keystroke_Key.backspace	Key.backspace	n/a
388.367	0.0905	776734	keystroke_Key.backspace	Key.backspace	n/a
388.472	0.105	776944	keystroke_s	s	n/a
388.5325	0.1045	777065	keystroke_t	t	n/a
388.6225	0.0305	777245	keystroke_r	r	n/a
388.682	0.12	777364	keystroke_a	a	n/a
389.417	0.0595	778834	keystroke_Key.backspace	Key.backspace	n/a
389.552	0.0595	779104	keystroke_Key.backspace	Key.backspace	n/a
389.657	0.09	779314	keystroke_Key.backspace	Key.backspace	n/a
389.7325	0.105	779465	keystroke_a	a	n/a
390.1365	0.105	780273	keystroke_Key.backspace	Key.backspace	n/a
390.482	0.09	780964	keystroke_t	t	n/a
390.632	0.105	781264	keystroke_a	a	n/a
391.1725	0.105	782345	keystroke_l	l	n/a
391.682	0.105	783364	keystroke_Key.space	Key.space	n/a
392.1025	0.075	784205	keystroke_f	f	n/a
392.2075	0.0745	784415	keystroke_a	a	n/a
392.747	0.06	785494	keystroke_b	b	n/a
392.957	0.0905	785914	keystroke_r	r	n/a
393.0495	0.1175	786099	keystroke_i	i	n/a
393.1825	0.09	786365	keystroke_c	c	n/a
393.287	0.12	786574	keystroke_s	s	n/a
393.647	0.1055	787294	keystroke_Key.space	Key.space	n/a
394.052	0.105	788104	keystroke_s	s	n/a
394.247	0.075	788494	keystroke_h	h	n/a
394.4125	0.121	788825	keystroke_u	u	n/a
394.503	0.134	789006	keystroke_t	t	n/a
394.6225	0.1045	789245	keystroke_Key.space	Key.space	n/a
394.952	0.104	789904	keystroke_s	s	n/a
395.102	0.1055	790204	keystroke_l	l	n/a
395.282	0.1195	790564	keystroke_o	o	n/a
395.567	0.1045	791134	keystroke_v	v	n/a
396.0185	0.074	792037	keystroke_a	a	n/a
396.272	0.18	792544	keystroke_k	k	n/a
396.437	0.15	792874	keystroke_i	i	n/a
396.542	0.12	793084	keystroke_a	a	n/a
396.782	0.135	793564	keystroke_Key.enter	Key.enter	n/a
396.9225	9.3115	793845	prompt	n/a	flexibility us banned premier\n
397.982	0.1055	795964	keystroke_f	f	n/a
398.192	0.105	796384	keystroke_e	e	n/a
398.327	0.0755	796654	keystroke_l	l	n/a
398.582	0.075	797164	keystroke_Key.backspace	Key.backspace	n/a
399.152	0.06	798304	keystroke_Key.backspace	Key.backspace	n/a
399.347	0.1205	798694	keystroke_l	l	n/a
399.438	0.134	798876	keystroke_e	e	n/a
399.932	0.075	799864	keystroke_x	x	n/a
400.082	0.12	800164	keystroke_i	i	n/a
400.487	0.09	800974	keystroke_b	b	n/a
400.5775	0.12	801155	keystroke_i	i	n/a
400.7875	0.12	801575	keystroke_l	l	n/a
401.0125	0.106	802025	keystroke_i	i	n/a
401.2675	0.12	802535	keystroke_t	t	n/a
401.4325	0.105	802865	keystroke_y	y	n/a
401.912	0.09	803824	keystroke_Key.space	Key.space	n/a
402.4975	0.119	804995	keystroke_u	u	n/a
402.5565	0.12	805113	keystroke_s	s	n/a
402.6615	0.1055	805323	keystroke_Key.space	Key.space	n/a
402.947	0.105	805894	keystroke_b	b	n/a
403.037	0.105	806074	keystroke_a	a	n/a
403.217	0.0905	806434	keystroke_n	n	n/a
403.382	0.1205	806764	keystroke_n	n	n/a
403.5175	0.135	807035	keystroke_e	e	n/a
403.7125	0.1795	807425	keystroke_d	d	n/a
403.877	0.12	807754	keystroke_Key.space	Key.space	n/a
404.372	0.15	808744	keystroke_p	p	n/a
404.492	0.105	808984	keystroke_r	r	n/a
404.567	0.105	809134	keystroke_e	e	n/a
405.6015	0.136	811203	keystroke_m	m	n/a
405.6915	0.1205	811383	keystroke_i	i	n/a
405.827	0.195	811654	keystroke_e	e	n/a
405.9465	0.121	811893	keystroke_r	r	n/a
406.112	0.12	812224	keystroke_Key.enter	Key.enter	n/a
406.2385	9.985	812477	prompt	n/a	actual limit conventional catholic\n
407.0115	0.1205	814023	keystroke_a	a	n/a
407.1775	0.1345	814355	keystroke_c	c	n/a
407.4775	0.1045	814955	keystroke_t	t	n/a
407.567	0.105	815134	keystroke_u	u	n/a
407.687	0.1055	815374	keystroke_a	a	n/a
407.8365	0.091	815673	keystroke_l	l	n/a
407.9875	0.119	815975	keystroke_Key.space	Key.space	n/a
408.737	0.105	817474	keystroke_l	l	n/a
408.932	0.165	817864	keystroke_i	i	n/a
409.082	0.15	818164	keystroke_m	m	n/a
409.2025	0.1345	818405	keystroke_i	i	n/a
409.307	0.075	818614	keystroke_t	t	n/a
409.502	0.09	819004	keystroke_Key.space	Key.space	n/a
409.9515	0.121	819903	keystroke_c	c	n/a
410.0735	0.119	820147	keystroke_o	o	n/a
410.312	0.1055	820624	keystroke_n	n	n/a
410.687	0.0905	821374	keystroke_v	v	n/a
410.837	0.105	821674	keystroke_e	e	n/a
410.987	0.135	821974	keystroke_n	n	n/a
411.242	0.0895	822484	keystroke_t	t	n/a
411.3775	0.105	822755	keystroke_i	i	n/a
411.4225	0.164	822845	keystroke_o	o	n/a
411.5425	0.105	823085	keystroke_n	n	n/a
411.6615	0.105	823323	keystroke_a	a	n/a
411.872	0.135	823744	keystroke_l	l	n/a
412.277	0.105	824554	keystroke_Key.space	Key.space	n/a
412.667	0.09	825334	keystroke_c	c	n/a
412.772	0.0755	825544	keystroke_a	a	n/a
412.997	0.09	825994	keystroke_t	t	n/a
413.1325	0.1045	826265	keystroke_h	h	n/a
413.432	0.06	826864	keystroke_i	i	n/a
413.972	0.0755	827944	keystroke_Key.backspace	Key.backspace	n/a
414.167	0.1205	828334	keystroke_o	o	n/a
414.8425	0.09	829685	keystroke_l	l	n/a
415.0375	0.12	830075	keystroke_i	i	n/a
415.1265	0.1205	830253	keystroke_c	c	n/a
416.1165	0.105	832233	keystroke_Key.enter	Key.enter	n/a
416.2275	10.6465	832455	prompt	n/a	contributor matched nice toilet\n
417.782	0.09	835564	keystroke_c	c	n/a
418.187	0.09	836374	keystroke_o	o	n/a
418.382	0.09	836764	keystroke_n	n	n/a
418.7575	0.0895	837515	keystroke_t	t	n/a
419.042	0.0895	838084	keystroke_r	r	n/a
419.2075	0.134	838415	keystroke_i	i	n/a
419.537	0.0745	839074	keystroke_b	b	n/a
419.6865	0.105	839373	keystroke_u	u	n/a
419.988	0.089	839976	keystroke_t	t	n/a
420.092	0.135	840184	keystroke_o	o	n/a
420.1815	0.1055	840363	keystroke_r	r	n/a
420.677	0.09	841354	keystroke_Key.space	Key.space	n/a
421.1575	0.1045	842315	keystroke_m	m	n/a
421.2325	0.12	842465	keystroke_a	a	n/a
421.488	0.1195	842976	keystroke_t	t	n/a
421.772	0.1355	843544	keystroke_c	c	n/a
421.8925	0.1045	843785	keystroke_h	h	n/a
421.982	0.12	843964	keystroke_e	e	n/a
422.1915	0.1355	844383	keystroke_d	d	n/a
422.342	0.12	844684	keystroke_Key.space	Key.space	n/a
422.8375	0.134	845675	keystroke_n	n	n/a
422.9275	0.15	845855	keystroke_i	i	n/a
422.9875	0.104	845975	keystroke_c	c	n/a
423.0785	0.119	846157	keystroke_e	e	n/a
423.1665	0.1505	846333	keystroke_Key.space	Key.space	n/a
423.8115	0.0605	847623	keystroke_y	y	n/a
423.827	0.0595	847654	keystroke_t	t	n/a
423.857	0.091	847714	keystroke_o	o	n/a
424.067	0.06	848134	keystroke_i	i	n/a
424.517	0.075	849034	keystroke_Key.backspace	Key.backspace	n/a
424.6665	0.0455	849333	keystroke_Key.backspace	Key.backspace	n/a
424.787	0.0895	849574	keystroke_Key.backspace	Key.backspace	n/a
424.997	0.12	849994	keystroke_Key.backspace	Key.backspace	n/a
425.837	0.105	851674	keystroke_t	t	n/a
425.943	0.104	851886	keystroke_o	o	n/a
426.1215	0.106	852243	keystroke_i	i	n/a
426.287	0.165	852574	keystroke_l	l	n/a
426.377	0.105	852754	keystroke_e	e	n/a
426.5865	0.0755	853173	keystroke_t	t	n/a
426.752	0.12	853504	keystroke_Key.enter	Key.enter	n/a
426.8785	11.5755	853757	prompt	n/a	barcelona guards slowly attachments\n
427.8465	0.09	855693	keystroke_b	b	n/a
427.892	0.15	855784	keystroke_a	a	n/a
428.027	0.105	856054	keystroke_r	r	n/a
428.237	0.105	856474	keystroke_c	c	n/a
428.327	0.12	856654	keystroke_e	e	n/a
428.6565	0.121	857313	keystroke_l	l	n/a
428.747	0.165	857494	keystroke_o	o	n/a
429.0315	0.1055	858063	keystroke_n	n	n/a
429.122	0.1645	858244	keystroke_a	a	n/a
429.3015	0.1355	858603	keystroke_Key.space	Key.space	n/a
429.962	0.075	859924	keystroke_g	g	n/a
430.247	0.105	860494	keystroke_i	i	n/a
430.577	0.1045	861154	keystroke_Key.backspace	Key.backspace	n/a
430.847	0.12	861694	keystroke_u	u	n/a
431.0125	0.06	862025	keystroke_r	r	n/a
431.0875	0.1945	862175	keystroke_a	a	n/a
431.8515	0.076	863703	keystroke_Key.backspace	Key.backspace	n/a
432.0015	0.105	864003	keystroke_Key.backspace	Key.backspace	n/a
432.1675	0.165	864335	keystroke_a	a	n/a
432.3925	0.105	864785	keystroke_r	r	n/a
432.587	0.105	865174	keystroke_d	d	n/a
432.707	0.105	865414	keystroke_s	s	n/a
433.202	0.09	866404	keystroke_Key.space	Key.space	n/a
433.502	0.075	867004	keystroke_s	s	n/a
433.547	0.09	867094	keystroke_l	l	n/a
433.712	0.12	867424	keystroke_o	o	n/a
433.757	0.105	867514	keystroke_w	w	n/a
433.967	0.075	867934	keystroke_s	s	n/a
434.012	0.1195	868024	keystroke_l	l	n/a
434.4165	0.06	868833	keystroke_Key.backspace	Key.backspace	n/a
434.537	0.0755	869074	keystroke_Key.backspace	Key.backspace	n/a
434.8975	0.03	869795	keystroke_l	l	n/a
435.4965	0.0905	870993	keystroke_y	y	n/a
435.677	0.105	871354	keystroke_Key.space	Key.space	n/a
436.052	0.105	872104	keystroke_a	a	n/a
436.307	0.09	872614	keystroke_t	t	n/a
436.487	0.075	872974	keystroke_t	t	n/a
436.622	0.1195	873244	keystroke_a	a	n/a
436.967	0.105	873934	keystroke_c	c	n/a
437.252	0.0755	874504	keystroke_h	h	n/a
437.4475	0.105	874895	keystroke_m	m	n/a
437.5675	0.0745	875135	keystroke_e	e	n/a
437.6575	0.104	875315	keystroke_n	n	n/a
437.8375	0.089	875675	keystroke_t	t	n/a
437.9415	0.1215	875883	keystroke_s	s	n/a
438.347	0.105	876694	keystroke_Key.enter	Key.enter	n/a
438.4585	7.99	876917	prompt	n/a	fair lived varying routine\n
439.322	0.075	878644	keystroke_f	f	n/a
439.4425	0.1345	878885	keystroke_a	a	n/a
439.6065	0.121	879213	keystroke_i	i	n/a
439.7125	0.1495	879425	keystroke_r	r	n/a
439.832	0.1345	879664	keystroke_Key.space	Key.space	n/a
440.222	0.1055	880444	keystroke_l	l	n/a
440.402	0.1505	880804	keystroke_i	i	n/a
440.4325	0.1045	880865	keystroke_v	v	n/a
440.567	0.135	881134	keystroke_e	e	n/a
440.852	0.075	881704	keystroke_d	d	n/a
441.0915	0.121	882183	keystroke_Key.space	Key.space	n/a
441.8265	0.0755	883653	keystroke_v	v	n/a
441.962	0.1055	883924	keystroke_a	a	n/a
442.172	0.105	884344	keystroke_r	r	n/a
442.8025	0.1045	885605	keystroke_y	y	n/a
442.937	0.1645	885874	keystroke_i	i	n/a
443.042	0.1495	886084	keystroke_n	n	n/a
443.1315	0.1205	886263	keystroke_g	g	n/a
443.4615	0.09	886923	keystroke_Key.space	Key.space	n/a
444.2875	0.09	888575	keystroke_r	r	n/a
444.5275	0.1195	889055	keystroke_o	o	n/a
444.947	0.12	889894	keystroke_u	u	n/a
445.052	0.135	890104	keystroke_t	t	n/a
445.2165	0.1505	890433	keystroke_i	i	n/a
445.382	0.1355	890764	keystroke_n	n	n/a
445.8015	0.106	891603	keystroke_e	e	n/a
446.312	0.1355	892624	keystroke_Key.enter	Key.enter	n/a
446.452	6.7315	892904	prompt	n/a	stomach claim inbox korean\n
447.6315	0.1055	895263	keystroke_s	s	n/a
447.8265	0.0905	895653	keystroke_t	t	n/a
447.9315	0.0755	895863	keystroke_o	o	n/a
448.1115	0.121	896223	keystroke_m	m	n/a
448.1725	0.105	896345	keystroke_a	a	n/a
448.3515	0.12	896703	keystroke_c	c	n/a
448.547	0.1205	897094	keystroke_h	h	n/a
448.817	0.12	897634	keystroke_Key.space	Key.space	n/a
449.117	0.09	898234	keystroke_c	c	n/a
449.252	0.075	898504	keystroke_a	a	n/a
449.312	0.105	898624	keystroke_l	l	n/a
449.552	0.21	899104	keystroke_i	i	n/a
449.672	0.12	899344	keystroke_m	m	n/a
449.987	0.12	899974	keystroke_Key.space	Key.space	n/a
450.632	0.165	901264	keystroke_i	i	n/a
450.707	0.1355	901414	keystroke_n	n	n/a
451.082	0.075	902164	keystroke_b	b	n/a
451.158	0.104	902316	keystroke_o	o	n/a
451.247	0.15	902494	keystroke_x	x	n/a
451.487	0.12	902974	keystroke_Key.space	Key.space	n/a
452.027	0.1205	904054	keystroke_k	k	n/a
452.2215	0.15	904443	keystroke_o	o	n/a
452.3565	0.1205	904713	keystroke_r	r	n/a
452.4315	0.1355	904863	keystroke_e	e	n/a
452.687	0.0905	905374	keystroke_a	a	n/a
452.837	0.12	905674	keystroke_n	n	n/a
453.077	0.105	906154	keystroke_Key.enter	Key.enter	n/a
453.189	9.145	906378	prompt	n/a	mechanism ordering intel roulette\n
454.202	0.1045	908404	keystroke_m	m	n/a
454.2915	0.12	908583	keystroke_e	e	n/a
454.517	0.0895	909034	keystroke_c	c	n/a
454.5915	0.105	909183	keystroke_h	h	n/a
454.652	0.0895	909304	keystroke_a	a	n/a
454.8315	0.2855	909663	keystroke_n	n	n/a
455.0715	0.121	910143	keystroke_i	i	n/a
455.0725	0.1045	910145	keystroke_o	o	n/a
455.1935	0.073	910387	keystroke_s	s	n/a
455.567	0.06	911134	keystroke_Key.backspace	Key.backspace	n/a
455.7165	0.09	911433	keystroke_Key.backspace	Key.backspace	n/a
455.8215	0.0755	911643	keystroke_s	s	n/a
456.227	0.1345	912454	keystroke_m	m	n/a
456.5265	0.105	913053	keystroke_Key.space	Key.space	n/a
456.887	0.1195	913774	keystroke_o	o	n/a
456.9465	0.1055	913893	keystroke_r	r	n/a
457.1265	0.09	914253	keystroke_d	d	n/a
457.3215	0.0755	914643	keystroke_e	e	n/a
457.442	0.15	914884	keystroke_r	r	n/a
457.6215	0.21	915243	keystroke_i	i	n/a
457.8165	0.0905	915633	keystroke_n	n	n/a
457.8915	0.091	915783	keystroke_g	g	n/a
458.3115	0.12	916623	keystroke_Key.space	Key.space	n/a
458.9265	0.136	917853	keystroke_i	i	n/a
459.002	0.1045	918004	keystroke_n	n	n/a
459.0765	0.0905	918153	keystroke_t	t	n/a
459.197	0.1495	918394	keystroke_e	e	n/a
459.287	0.105	918574	keystroke_r	r	n/a
459.752	0.09	919504	keystroke_Key.backspace	Key.backspace	n/a
459.962	0.12	919924	keystroke_l	l	n/a
460.127	0.1055	920254	keystroke_Key.space	Key.space	n/a
460.7575	0.104	921515	keystroke_r	r	n/a
460.8465	0.1055	921693	keystroke_o	o	n/a
461.102	0.075	922204	keystroke_u	u	n/a
461.297	0.15	922594	keystroke_l	l	n/a
461.387	0.15	922774	keystroke_e	e	n/a
461.582	0.09	923164	keystroke_t	t	n/a
461.762	0.075	923524	keystroke_t	t	n/a
461.838	0.179	923676	keystroke_e	e	n/a
462.212	0.1195	924424	keystroke_Key.enter	Key.enter	n/a
462.3365	8.2925	924673	prompt	n/a	stars make farmers reporting\n
463.007	0.135	926014	keystroke_s	s	n/a
463.2015	0.0905	926403	keystroke_t	t	n/a
463.337	0.135	926674	keystroke_a	a	n/a
463.487	0.105	926974	keystroke_r	r	n/a
463.6965	0.061	927393	keystroke_t	t	n/a
463.802	0.105	927604	keystroke_Key.space	Key.space	n/a
464.2965	0.075	928593	keystroke_m	m	n/a
464.3415	0.1355	928683	keystroke_a	a	n/a
464.522	0.0895	929044	keystroke_k	k	n/a
464.567	0.1495	929134	keystroke_e	e	n/a
464.7015	0.135	929403	keystroke_Key.space	Key.space	n/a
465.812	0.09	931624	keystroke_f	f	n/a
465.932	0.1195	931864	keystroke_a	a	n/a
466.0815	0.105	932163	keystroke_r	r	n/a
466.607	0.1195	933214	keystroke_m	m	n/a
466.667	0.1045	933334	keystroke_e	e	n/a
466.862	0.0895	933724	keystroke_s	s	n/a
466.937	0.0745	933874	keystroke_r	r	n/a
467.702	0.075	935404	keystroke_Key.backspace	Key.backspace	n/a
467.837	0.1045	935674	keystroke_Key.backspace	Key.backspace	n/a
467.9435	0.118	935887	keystroke_r	r	n/a
468.0915	0.165	936183	keystroke_s	s	n/a
468.3915	0.105	936783	keystroke_Key.space	Key.space	n/a
468.977	0.09	937954	keystroke_r	r	n/a
469.022	0.121	938044	keystroke_e	e	n/a
469.232	0.0895	938464	keystroke_p	p	n/a
469.427	0.1195	938854	keystroke_o	o	n/a
469.742	0.1195	939484	keystroke_t	t	n/a
469.9065	0.225	939813	keystroke_i	i	n/a
470.0575	0.104	940115	keystroke_n	n	n/a
470.147	0.0905	940294	keystroke_g	g	n/a
470.537	0.09	941074	keystroke_Key.enter	Key.enter	n/a
470.633	7.4055	941266	prompt	n/a	mariah missed careful stores\n
471.6775	0.1045	943355	keystroke_m	m	n/a
471.797	0.1495	943594	keystroke_a	a	n/a
471.9315	0.1055	943863	keystroke_r	r	n/a
472.697	0.1055	945394	keystroke_i	i	n/a
472.8315	0.09	945663	keystroke_a	a	n/a
472.9965	0.1355	945993	keystroke_h	h	n/a
473.2365	0.09	946473	keystroke_Key.space	Key.space	n/a
473.7465	0.1355	947493	keystroke_m	m	n/a
473.8515	0.1055	947703	keystroke_i	i	n/a
473.9585	0.0885	947917	keystroke_s	s	n/a
474.272	0.0445	948544	keystroke_s	s	n/a
474.287	0.1055	948574	keystroke_e	e	n/a
474.467	0.1345	948934	keystroke_d	d	n/a
474.7515	0.105	949503	keystroke_Key.space	Key.space	n/a
475.0065	0.1055	950013	keystroke_c	c	n/a
475.127	0.1045	950254	keystroke_a	a	n/a
475.2765	0.1205	950553	keystroke_r	r	n/a
475.367	0.1345	950734	keystroke_e	e	n/a
475.7415	0.12	951483	keystroke_f	f	n/a
476.027	0.09	952054	keystroke_u	u	n/a
476.2515	0.1355	952503	keystroke_l	l	n/a
476.446	0.121	952892	keystroke_Key.space	Key.space	n/a
476.8365	0.1055	953673	keystroke_s	s	n/a
477.227	0.12	954454	keystroke_t	t	n/a
477.3315	0.12	954663	keystroke_o	o	n/a
477.4665	0.12	954933	keystroke_r	r	n/a
477.557	0.1495	955114	keystroke_e	e	n/a
477.692	0.12	955384	keystroke_s	s	n/a
477.887	0.15	955774	keystroke_Key.enter	Key.enter	n/a
478.0415	7.302	956083	prompt	n/a	harris gotten listen reliance\n
479.027	0.0895	958054	keystroke_h	h	n/a
479.072	0.135	958144	keystroke_a	a	n/a
479.312	0.075	958624	keystroke_r	r	n/a
479.462	0.1045	958924	keystroke_r	r	n/a
479.5675	0.104	959135	keystroke_i	i	n/a
479.7315	0.1655	959463	keystroke_s	s	n/a
479.972	0.1195	959944	keystroke_Key.space	Key.space	n/a
480.572	0.09	961144	keystroke_g	g	n/a
480.647	0.1055	961294	keystroke_o	o	n/a
480.901	0.0605	961802	keystroke_t	t	n/a
481.0515	0.06	962103	keystroke_t	t	n/a
481.1265	0.1655	962253	keystroke_e	e	n/a
481.3215	0.1205	962643	keystroke_n	n	n/a
481.4715	0.1205	962943	keystroke_Key.space	Key.space	n/a
481.8615	0.0755	963723	keystroke_l	l	n/a
482.0265	0.121	964053	keystroke_i	i	n/a
482.0865	0.12	964173	keystroke_s	s	n/a
482.1915	0.1055	964383	keystroke_t	t	n/a
482.312	0.135	964624	keystroke_e	e	n/a
482.462	0.135	964924	keystroke_n	n	n/a
482.642	0.12	965284	keystroke_Key.space	Key.space	n/a
483.542	0.0905	967084	keystroke_r	r	n/a
483.6015	0.106	967203	keystroke_e	e	n/a
483.8115	0.075	967623	keystroke_l	l	n/a
483.9915	0.09	967983	keystroke_i	i	n/a
484.1715	0.105	968343	keystroke_a	a	n/a
484.472	0.1055	968944	keystroke_n	n	n/a
484.8015	0.12	969603	keystroke_c	c	n/a
484.9515	0.1355	969903	keystroke_e	e	n/a
485.207	0.1345	970414	keystroke_Key.enter	Key.enter	n/a
485.347	11.5015	970694	prompt	n/a	permissions atomic techrepublic kong\n
486.2865	0.09	972573	keystroke_p	p	n/a
486.3315	0.1505	972663	keystroke_e	e	n/a
486.407	0.135	972814	keystroke_r	r	n/a
486.692	0.135	973384	keystroke_m	m	n/a
486.767	0.15	973534	keystroke_i	i	n/a
486.9015	0.0905	973803	keystroke_s	s	n/a
487.081	0.15	974162	keystroke_s	s	n/a
487.172	0.105	974344	keystroke_i	i	n/a
487.217	0.225	974434	keystroke_o	o	n/a
487.322	0.135	974644	keystroke_n	n	n/a
487.4875	0.1195	974975	keystroke_s	s	n/a
487.8165	0.121	975633	keystroke_Key.space	Key.space	n/a
488.2665	0.0905	976533	keystroke_a	a	n/a
488.537	0.105	977074	keystroke_t	t	n/a
488.657	0.15	977314	keystroke_o	o	n/a
488.852	0.165	977704	keystroke_m	m	n/a
488.957	0.1495	977914	keystroke_i	i	n/a
489.287	0.0895	978574	keystroke_t	t	n/a
489.5865	0.1055	979173	keystroke_Key.space	Key.space	n/a
490.126	0.106	980252	keystroke_t	t	n/a
490.216	0.1365	980432	keystroke_e	e	n/a
490.921	0.106	981842	keystroke_c	c	n/a
491.072	0.1195	982144	keystroke_h	h	n/a
491.4165	0.091	982833	keystroke_r	r	n/a
491.4785	0.1335	982957	keystroke_e	e	n/a
492.047	0.09	984094	keystroke_p	p	n/a
493.7275	0.1195	987455	keystroke_u	u	n/a
493.802	0.1045	987604	keystroke_b	b	n/a
494.372	0.09	988744	keystroke_l	l	n/a
494.687	0.105	989374	keystroke_i	i	n/a
494.747	0.135	989494	keystroke_c	c	n/a
495.0765	0.1205	990153	keystroke_Key.space	Key.space	n/a
495.857	0.105	991714	keystroke_k	k	n/a
495.917	0.225	991834	keystroke_o	o	n/a
496.127	0.135	992254	keystroke_n	n	n/a
496.247	0.105	992494	keystroke_g	g	n/a
496.727	0.1195	993454	keystroke_Key.enter	Key.enter	n/a
496.8515	9.342	993703	prompt	n/a	southwest choosing prevent framing\n
497.747	0.0905	995494	keystroke_s	s	n/a
497.8675	0.104	995735	keystroke_o	o	n/a
498.212	0.1045	996424	keystroke_u	u	n/a
498.3325	0.104	996665	keystroke_t	t	n/a
498.497	0.1195	996994	keystroke_h	h	n/a
498.8875	0.179	997775	keystroke_w	w	n/a
498.992	0.1645	997984	keystroke_e	e	n/a
499.2015	0.18	998403	keystroke_s	s	n/a
499.352	0.0895	998704	keystroke_t	t	n/a
499.7265	0.09	999453	keystroke_Key.space	Key.space	n/a
499.9665	0.1355	999933	keystroke_c	c	n/a
500.342	0.09	1000684	keystroke_h	h	n/a
500.627	0.075	1001254	keystroke_o	o	n/a
500.7765	0.1055	1001553	keystroke_o	o	n/a
500.8365	0.18	1001673	keystroke_s	s	n/a
500.9865	0.1955	1001973	keystroke_i	i	n/a
501.107	0.12	1002214	keystroke_n	n	n/a
501.242	0.105	1002484	keystroke_g	g	n/a
501.467	0.105	1002934	keystroke_Key.space	Key.space	n/a
501.8265	0.105	1003653	keystroke_p	p	n/a
501.887	0.105	1003774	keystroke_r	r	n/a
501.9615	0.1505	1003923	keystroke_e	e	n/a
502.217	0.1045	1004434	keystroke_n	n	n/a
502.592	0.119	1005184	keystroke_Key.backspace	Key.backspace	n/a
502.682	0.0905	1005364	keystroke_v	v	n/a
502.787	0.15	1005574	keystroke_e	e	n/a
502.982	0.1045	1005964	keystroke_n	n	n/a
503.207	0.105	1006414	keystroke_t	t	n/a
503.612	0.105	1007224	keystroke_Key.space	Key.space	n/a
504.602	0.06	1009204	keystroke_f	f	n/a
504.7815	0.076	1009563	keystroke_r	r	n/a
504.8725	0.1345	1009745	keystroke_a	a	n/a
505.037	0.165	1010074	keystroke_m	m	n/a
505.157	0.18	1010314	keystroke_i	i	n/a
505.322	0.12	1010644	keystroke_n	n	n/a
505.472	0.0445	1010944	keystroke_g	g	n/a
506.147	0.045	1012294	keystroke_Key.enter	Key.enter	n/a
506.1975	11.921	1012395	prompt	n/a	puzzle joseph bingo objects\n
507.2125	0.074	1014425	keystroke_p	p	n/a
507.5415	0.105	1015083	keystroke_u	u	n/a
507.6775	0.074	1015355	keystroke_z	z	n/a
507.842	0.105	1015684	keystroke_z	z	n/a
507.962	0.09	1015924	keystroke_l	l	n/a
508.053	0.149	1016106	keystroke_e	e	n/a
508.187	0.135	1016374	keystroke_Key.space	Key.space	n/a
508.6225	0.1195	1017245	keystroke_j	j	n/a
508.6825	0.1345	1017365	keystroke_o	o	n/a
508.772	0.135	1017544	keystroke_s	s	n/a
509.012	0.105	1018024	keystroke_e	e	n/a
509.2365	0.1205	1018473	keystroke_p	p	n/a
509.5665	0.1955	1019133	keystroke_h	h	n/a
510.977	0.09	1021954	keystroke_Key.space	Key.space	n/a
511.967	0.075	1023934	keystroke_b	b	n/a
512.027	0.09	1024054	keystroke_i	i	n/a
512.147	0.09	1024294	keystroke_g	g	n/a
513.2415	0.1055	1026483	keystroke_Key.backspace	Key.backspace	n/a
513.452	0.09	1026904	keystroke_n	n	n/a
513.617	0.105	1027234	keystroke_o	o	n/a
513.857	0.106	1027714	keystroke_g	g	n/a
513.977	0.09	1027954	keystroke_o	o	n/a
514.4265	0.075	1028853	keystroke_Key.backspace	Key.backspace	n/a
514.577	0.06	1029154	keystroke_Key.backspace	Key.backspace	n/a
514.7115	0.076	1029423	keystroke_Key.backspace	Key.backspace	n/a
514.802	0.12	1029604	keystroke_g	g	n/a
514.9065	0.1355	1029813	keystroke_o	o	n/a
515.417	0.1495	1030834	keystroke_Key.space	Key.space	n/a
516.077	0.135	1032154	keystroke_o	o	n/a
516.422	0.075	1032844	keystroke_b	b	n/a
516.602	0.1345	1033204	keystroke_j	j	n/a
516.677	0.1345	1033354	keystroke_e	e	n/a
516.872	0.1045	1033744	keystroke_c	c	n/a
517.082	0.074	1034164	keystroke_t	t	n/a
517.232	0.1205	1034464	keystroke_s	s	n/a
517.997	0.1195	1035994	keystroke_Key.enter	Key.enter	n/a
518.123	9.476	1036246	prompt	n/a	bishop televisions european mixing\n
519.4825	0.1345	1038965	keystroke_b	b	n/a
519.5715	0.12	1039143	keystroke_i	i	n/a
519.7515	0.105	1039503	keystroke_s	s	n/a
519.8265	0.1055	1039653	keystroke_h	h	n/a
520.1865	0.15	1040373	keystroke_o	o	n/a
520.261	0.1505	1040522	keystroke_p	p	n/a
520.5765	0.1055	1041153	keystroke_Key.space	Key.space	n/a
520.997	0.075	1041994	keystroke_t	t	n/a
521.057	0.12	1042114	keystroke_e	e	n/a
521.252	0.12	1042504	keystroke_l	l	n/a
521.327	0.12	1042654	keystroke_e	e	n/a
521.7925	0.074	1043585	keystroke_v	v	n/a
522.0915	0.105	1044183	keystroke_i	i	n/a
522.3315	0.12	1044663	keystroke_s	s	n/a
522.3625	0.135	1044725	keystroke_i	i	n/a
522.4365	0.195	1044873	keystroke_o	o	n/a
522.6465	0.091	1045293	keystroke_n	n	n/a
522.812	0.12	1045624	keystroke_s	s	n/a
523.6665	0.09	1047333	keystroke_Key.space	Key.space	n/a
524.4625	0.104	1048925	keystroke_e	e	n/a
524.5515	0.075	1049103	keystroke_u	u	n/a
524.897	0.105	1049794	keystroke_r	r	n/a
525.062	0.09	1050124	keystroke_o	o	n/a
525.257	0.09	1050514	keystroke_p	p	n/a
525.332	0.105	1050664	keystroke_e	e	n/a
525.542	0.091	1051084	keystroke_a	a	n/a
525.692	0.105	1051384	keystroke_n	n	n/a
525.977	0.105	1051954	keystroke_Key.space	Key.space	n/a
526.532	0.135	1053064	keystroke_m	m	n/a
526.622	0.12	1053244	keystroke_i	i	n/a
526.727	0.12	1053454	keystroke_x	x	n/a
526.877	0.12	1053754	keystroke_i	i	n/a
527.072	0.12	1054144	keystroke_n	n	n/a
527.193	0.104	1054386	keystroke_g	g	n/a
527.462	0.1345	1054924	keystroke_Key.enter	Key.enter	n/a
527.603	9.611	1055206	prompt	n/a	joshua strand ultimately ceramic\n
528.917	0.075	1057834	keystroke_j	j	n/a
529.112	0.09	1058224	keystroke_o	o	n/a
529.442	0.105	1058884	keystroke_s	s	n/a
529.5165	0.0905	1059033	keystroke_h	h	n/a
529.681	0.106	1059362	keystroke_u	u	n/a
529.7125	0.1345	1059425	keystroke_a	a	n/a
530.162	0.12	1060324	keystroke_Key.space	Key.space	n/a
530.701	0.106	1061402	keystroke_s	s	n/a
530.882	0.105	1061764	keystroke_t	t	n/a
531.077	0.09	1062154	keystroke_r	r	n/a
531.1975	0.1045	1062395	keystroke_a	a	n/a
531.332	0.105	1062664	keystroke_n	n	n/a
531.467	0.15	1062934	keystroke_d	d	n/a
531.662	0.1355	1063324	keystroke_Key.space	Key.space	n/a
532.352	0.1495	1064704	keystroke_u	u	n/a
532.412	0.1045	1064824	keystroke_n	n	n/a
532.8315	0.1045	1065663	keystroke_Key.backspace	Key.backspace	n/a
533.266	0.0605	1066532	keystroke_l	l	n/a
533.747	0.105	1067494	keystroke_t	t	n/a
533.807	0.105	1067614	keystroke_i	i	n/a
533.957	0.12	1067914	keystroke_m	m	n/a
534.047	0.09	1068094	keystroke_a	a	n/a
534.737	0.03	1069474	keystroke_t	t	n/a
534.752	0.0905	1069504	keystroke_e	e	n/a
534.8725	0.0895	1069745	keystroke_l	l	n/a
535.187	0.12	1070374	keystroke_y	y	n/a
535.727	0.135	1071454	keystroke_Key.space	Key.space	n/a
536.057	0.09	1072114	keystroke_c	c	n/a
536.1315	0.1055	1072263	keystroke_e	e	n/a
536.327	0.09	1072654	keystroke_r	r	n/a
536.447	0.105	1072894	keystroke_a	a	n/a
536.612	0.1495	1073224	keystroke_m	m	n/a
536.7465	0.15	1073493	keystroke_i	i	n/a
536.837	0.1045	1073674	keystroke_c	c	n/a
537.107	0.1045	1074214	keystroke_Key.enter	Key.enter	n/a
537.2175	11.5015	1074435	prompt	n/a	reserved summary petroleum purple\n
537.842	0.0895	1075684	keystroke_r	r	n/a
537.917	0.1345	1075834	keystroke_e	e	n/a
538.263	0.1795	1076526	keystroke_s	s	n/a
538.397	0.15	1076794	keystroke_e	e	n/a
538.5015	0.121	1077003	keystroke_r	r	n/a
538.742	0.0745	1077484	keystroke_v	v	n/a
538.862	0.1355	1077724	keystroke_e	e	n/a
539.102	0.1045	1078204	keystroke_d	d	n/a
539.627	0.1045	1079254	keystroke_Key.space	Key.space	n/a
539.897	0.1055	1079794	keystroke_s	s	n/a
540.0915	0.121	1080183	keystroke_u	u	n/a
540.286	0.0615	1080572	keystroke_m	m	n/a
540.407	0.1355	1080814	keystroke_m	m	n/a
540.4675	0.134	1080935	keystroke_a	a	n/a
540.6165	0.1355	1081233	keystroke_e	e	n/a
541.442	0.12	1082884	keystroke_y	y	n/a
542.027	0.06	1084054	keystroke_Key.backspace	Key.backspace	n/a
542.162	0.105	1084324	keystroke_Key.backspace	Key.backspace	n/a
543.0615	0.0755	1086123	keystroke_r	r	n/a
543.2565	0.075	1086513	keystroke_y	y	n/a
543.437	0.0895	1086874	keystroke_Key.space	Key.space	n/a
544.158	0.0735	1088316	keystroke_p	p	n/a
544.307	0.135	1088614	keystroke_e	e	n/a
544.472	0.12	1088944	keystroke_t	t	n/a
544.697	0.1045	1089394	keystroke_r	r	n/a
544.937	0.0745	1089874	keystroke_i	i	n/a
545.2515	0.0895	1090503	keystroke_Key.backspace	Key.backspace	n/a
545.4765	0.1055	1090953	keystroke_o	o	n/a
545.852	0.075	1091704	keystroke_l	l	n/a
545.987	0.1045	1091974	keystroke_e	e	n/a
546.287	0.1795	1092574	keystroke_u	u	n/a
546.4065	0.1205	1092813	keystroke_m	m	n/a
546.917	0.0895	1093834	keystroke_Key.space	Key.space	n/a
547.366	0.075	1094732	keystroke_p	p	n/a
547.7875	0.0895	1095575	keystroke_u	u	n/a
547.892	0.0895	1095784	keystroke_r	r	n/a
548.2065	0.09	1096413	keystroke_p	p	n/a
548.342	0.105	1096684	keystroke_l	l	n/a
548.4315	0.106	1096863	keystroke_e	e	n/a
548.597	0.1195	1097194	keystroke_Key.enter	Key.enter	n/a
548.723	9.505	1097446	prompt	n/a	worth dressed motion devil\n
549.392	0.1045	1098784	keystroke_w	w	n/a
549.527	0.09	1099054	keystroke_o	o	n/a
549.752	0.0905	1099504	keystroke_t	t	n/a
550.1115	0.12	1100223	keystroke_r	r	n/a
550.5765	0.0605	1101153	keystroke_Key.backspace	Key.backspace	n/a
550.712	0.09	1101424	keystroke_Key.backspace	Key.backspace	n/a
550.7865	0.1055	1101573	keystroke_r	r	n/a
550.967	0.12	1101934	keystroke_t	t	n/a
551.0715	0.045	1102143	keystroke_h	h	n/a
551.3415	0.091	1102683	keystroke_Key.space	Key.space	n/a
551.702	0.09	1103404	keystroke_d	d	n/a
551.957	0.1045	1103914	keystroke_r	r	n/a
552.047	0.105	1104094	keystroke_e	e	n/a
552.227	0.075	1104454	keystroke_d	d	n/a
552.392	0.075	1104784	keystroke_d	d	n/a
552.872	0.075	1105744	keystroke_Key.backspace	Key.backspace	n/a
553.037	0.075	1106074	keystroke_Key.backspace	Key.backspace	n/a
553.472	0.09	1106944	keystroke_s	s	n/a
553.667	0.119	1107334	keystroke_s	s	n/a
553.8165	0.1055	1107633	keystroke_e	e	n/a
553.9965	0.1355	1107993	keystroke_d	d	n/a
554.2515	0.1205	1108503	keystroke_Key.space	Key.space	n/a
554.882	0.105	1109764	keystroke_m	m	n/a
554.9415	0.15	1109883	keystroke_o	o	n/a
555.0475	0.135	1110095	keystroke_t	t	n/a
555.1515	0.105	1110303	keystroke_i	i	n/a
555.2115	0.18	1110423	keystroke_o	o	n/a
555.3015	0.165	1110603	keystroke_n	n	n/a
555.4675	0.1345	1110935	keystroke_Key.space	Key.space	n/a
555.977	0.06	1111954	keystroke_d	d	n/a
556.3065	0.0905	1112613	keystroke_Key.backspace	Key.backspace	n/a
556.907	0.1195	1113814	keystroke_d	d	n/a
556.9815	0.1355	1113963	keystroke_e	e	n/a
557.192	0.105	1114384	keystroke_v	v	n/a
557.762	0.105	1115524	keystroke_i	i	n/a
557.927	0.105	1115854	keystroke_l	l	n/a
558.151	0.076	1116302	keystroke_Key.enter	Key.enter	n/a
558.2335	10.33	1116467	prompt	n/a	uncertainty fight contacts penny\n
559.1875	0.1495	1118375	keystroke_u	u	n/a
559.2475	0.119	1118495	keystroke_n	n	n/a
559.5015	0.075	1119003	keystroke_c	c	n/a
559.5465	0.1655	1119093	keystroke_e	e	n/a
560.2215	0.1355	1120443	keystroke_r	r	n/a
561.0915	0.06	1122183	keystroke_t	t	n/a
561.257	0.0905	1122514	keystroke_a	a	n/a
562.4565	0.135	1124913	keystroke_i	i	n/a
562.5165	0.15	1125033	keystroke_n	n	n/a
563.7315	0.136	1127463	keystroke_t	t	n/a
563.7925	0.119	1127585	keystroke_y	y	n/a
563.9265	0.105	1127853	keystroke_Key.space	Key.space	n/a
565.0215	0.09	1130043	keystroke_f	f	n/a
565.0825	0.104	1130165	keystroke_i	i	n/a
565.217	0.105	1130434	keystroke_g	g	n/a
565.3065	0.1205	1130613	keystroke_h	h	n/a
565.412	0.12	1130824	keystroke_t	t	n/a
565.577	0.105	1131154	keystroke_Key.space	Key.space	n/a
566.1015	0.09	1132203	keystroke_c	c	n/a
566.2075	0.09	1132415	keystroke_o	o	n/a
566.4615	0.106	1132923	keystroke_n	n	n/a
566.612	0.1045	1133224	keystroke_t	t	n/a
566.821	0.121	1133642	keystroke_r	r	n/a
566.972	0.105	1133944	keystroke_a	a	n/a
567.1215	0.09	1134243	keystroke_c	c	n/a
567.3465	0.076	1134693	keystroke_t	t	n/a
567.4525	0.1045	1134905	keystroke_Key.space	Key.space	n/a
567.767	0.0905	1135534	keystroke_p	p	n/a
567.842	0.105	1135684	keystroke_e	e	n/a
568.037	0.075	1136074	keystroke_n	n	n/a
568.1865	0.1055	1136373	keystroke_n	n	n/a
568.2625	0.104	1136525	keystroke_y	y	n/a
568.4415	0.1205	1136883	keystroke_Key.enter	Key.enter	n/a
568.567	14.0965	1137134	prompt	n/a	securities bomb fans along\n
569.882	0.165	1139764	keystroke_s	s	n/a
569.972	0.135	1139944	keystroke_e	e	n/a
570.1965	0.1215	1140393	keystroke_c	c	n/a
570.5425	0.1045	1141085	keystroke_u	u	n/a
570.842	0.12	1141684	keystroke_r	r	n/a
570.992	0.105	1141984	keystroke_i	i	n/a
571.217	0.12	1142434	keystroke_t	t	n/a
571.382	0.151	1142764	keystroke_u	u	n/a
572.401	0.1205	1144802	keystroke_Key.backspace	Key.backspace	n/a
573.257	0.105	1146514	keystroke_i	i	n/a
573.3015	0.1205	1146603	keystroke_e	e	n/a
573.377	0.135	1146754	keystroke_s	s	n/a
573.782	0.09	1147564	keystroke_Key.space	Key.space	n/a
574.4715	0.075	1148943	keystroke_b	b	n/a
574.562	0.0745	1149124	keystroke_o	o	n/a
574.757	0.12	1149514	keystroke_m	m	n/a
575.567	0.03	1151134	keystroke_b	b	n/a
575.777	0.12	1151554	keystroke_Key.space	Key.space	n/a
576.5425	0.075	1153085	keystroke_f	f	n/a
576.6915	0.1205	1153383	keystroke_n	n	n/a
576.722	0.1205	1153444	keystroke_a	a	n/a
576.827	0.2245	1153654	keystroke_s	s	n/a
577.0365	0.1655	1154073	keystroke_Key.space	Key.space	n/a
577.292	0.0895	1154584	keystroke_a	a	n/a
577.397	0.09	1154794	keystroke_l	l	n/a
577.5775	0.0745	1155155	keystroke_o	o	n/a
577.787	0.1195	1155574	keystroke_n	n	n/a
577.8775	0.105	1155755	keystroke_g	g	n/a
578.717	0.0745	1157434	keystroke_Key.backspace	Key.backspace	n/a
578.867	0.045	1157734	keystroke_Key.backspace	Key.backspace	n/a
578.987	0.045	1157974	keystroke_Key.backspace	Key.backspace	n/a
579.107	0.075	1158214	keystroke_Key.backspace	Key.backspace	n/a
579.242	0.0745	1158484	keystroke_Key.backspace	Key.backspace	n/a
579.3765	0.0755	1158753	keystroke_Key.backspace	Key.backspace	n/a
579.512	0.0745	1159024	keystroke_Key.backspace	Key.backspace	n/a
579.6615	0.0755	1159323	keystroke_Key.backspace	Key.backspace	n/a
579.9465	0.075	1159893	keystroke_Key.backspace	Key.backspace	n/a
580.5165	0.135	1161033	keystroke_a	a	n/a
580.6675	0.119	1161335	keystroke_n	n	n/a
580.7715	0.135	1161543	keystroke_s	s	n/a
581.0565	0.0905	1162113	keystroke_Key.space	Key.space	n/a
581.567	0.09	1163134	keystroke_a	a	n/a
581.687	0.075	1163374	keystroke_l	l	n/a
581.852	0.1055	1163704	keystroke_o	o	n/a
582.032	0.135	1164064	keystroke_n	n	n/a
582.106	0.106	1164212	keystroke_g	g	n/a
582.542	0.12	1165084	keystroke_Key.enter	Key.enter	n/a
582.668	15.295	1165336	prompt	n/a	accordingly scientist assessed amplifier\n
583.368	0.119	1166736	keystroke_a	a	n/a
583.622	0.0895	1167244	keystroke_c	c	n/a
583.8015	0.0905	1167603	keystroke_c	c	n/a
584.492	0.12	1168984	keystroke_o	o	n/a
584.5815	0.1205	1169163	keystroke_r	r	n/a
585.167	0.12	1170334	keystroke_d	d	n/a
585.512	0.12	1171024	keystroke_i	i	n/a
585.721	0.121	1171442	keystroke_n	n	n/a
585.827	0.105	1171654	keystroke_g	g	n/a
585.992	0.135	1171984	keystroke_l	l	n/a
586.141	0.105	1172282	keystroke_y	y	n/a
586.652	0.105	1173304	keystroke_Key.space	Key.space	n/a
587.312	0.1045	1174624	keystroke_s	s	n/a
587.447	0.135	1174894	keystroke_i	i	n/a
587.5965	0.1355	1175193	keystroke_e	e	n/a
587.8215	0.12	1175643	keystroke_n	n	n/a
588.317	0.0595	1176634	keystroke_Key.backspace	Key.backspace	n/a
588.4515	0.0605	1176903	keystroke_Key.backspace	Key.backspace	n/a
588.5715	0.09	1177143	keystroke_Key.backspace	Key.backspace	n/a
588.6765	0.1055	1177353	keystroke_c	c	n/a
589.277	0.0895	1178554	keystroke_i	i	n/a
589.3525	0.104	1178705	keystroke_e	e	n/a
589.4865	0.1355	1178973	keystroke_n	n	n/a
589.7415	0.105	1179483	keystroke_t	t	n/a
589.892	0.135	1179784	keystroke_i	i	n/a
589.9815	0.1355	1179963	keystroke_s	s	n/a
590.1615	0.09	1180323	keystroke_t	t	n/a
590.6865	0.0755	1181373	keystroke_Key.space	Key.space	n/a
590.942	0.1495	1181884	keystroke_a	a	n/a
591.032	0.1345	1182064	keystroke_s	s	n/a
591.677	0.12	1183354	keystroke_Key.backspace	Key.backspace	n/a
592.037	0.1045	1184074	keystroke_s	s	n/a
592.427	0.09	1184854	keystroke_s	s	n/a
592.637	0.045	1185274	keystroke_s	s	n/a
592.697	0.105	1185394	keystroke_e	e	n/a
593.552	0.0745	1187104	keystroke_Key.backspace	Key.backspace	n/a
593.701	0.091	1187402	keystroke_Key.backspace	Key.backspace	n/a
593.852	0.075	1187704	keystroke_Key.backspace	Key.backspace	n/a
594.497	0.0905	1188994	keystroke_s	s	n/a
594.7065	0.0905	1189413	keystroke_e	e	n/a
594.9015	0.0755	1189803	keystroke_s	s	n/a
595.067	0.09	1190134	keystroke_s	s	n/a
595.247	0.075	1190494	keystroke_e	e	n/a
595.4265	0.0905	1190853	keystroke_d	d	n/a
595.6365	0.1055	1191273	keystroke_Key.space	Key.space	n/a
595.952	0.0745	1191904	keystroke_a	a	n/a
596.087	0.1205	1192174	keystroke_m	m	n/a
596.267	0.105	1192534	keystroke_p	p	n/a
596.5815	0.075	1193163	keystroke_l	l	n/a
596.747	0.105	1193494	keystroke_i	i	n/a
597.0175	0.074	1194035	keystroke_f	f	n/a
597.0625	0.1345	1194125	keystroke_i	i	n/a
597.347	0.1345	1194694	keystroke_e	e	n/a
597.4515	0.0905	1194903	keystroke_r	r	n/a
597.857	0.1045	1195714	keystroke_Key.enter	Key.enter	n/a
597.9675	10.766	1195935	prompt	n/a	newcastle read advised arrangement\n
598.8465	0.105	1197693	keystroke_n	n	n/a
598.8765	0.135	1197753	keystroke_e	e	n/a
598.9965	0.0755	1197993	keystroke_w	w	n/a
599.2365	0.075	1198473	keystroke_c	c	n/a
599.3565	0.165	1198713	keystroke_a	a	n/a
599.4915	0.15	1198983	keystroke_s	s	n/a
600.0615	0.09	1200123	keystroke_t	t	n/a
600.242	0.0745	1200484	keystroke_l	l	n/a
600.287	0.1495	1200574	keystroke_e	e	n/a
601.217	0.105	1202434	keystroke_Key.space	Key.space	n/a
601.742	0.106	1203484	keystroke_r	r	n/a
601.8175	0.119	1203635	keystroke_e	e	n/a
601.9815	0.12	1203963	keystroke_a	a	n/a
602.087	0.15	1204174	keystroke_d	d	n/a
602.252	0.135	1204504	keystroke_Key.space	Key.space	n/a
602.583	0.104	1205166	keystroke_a	a	n/a
602.8965	0.105	1205793	keystroke_d	d	n/a
603.1965	0.09	1206393	keystroke_v	v	n/a
603.3015	0.1205	1206603	keystroke_i	i	n/a
603.392	0.15	1206784	keystroke_e	e	n/a
603.497	0.135	1206994	keystroke_s	s	n/a
603.962	0.075	1207924	keystroke_Key.backspace	Key.backspace	n/a
604.096	0.091	1208192	keystroke_Key.backspace	Key.backspace	n/a
604.232	0.1345	1208464	keystroke_s	s	n/a
604.3065	0.12	1208613	keystroke_e	e	n/a
604.502	0.1195	1209004	keystroke_d	d	n/a
605.222	0.12	1210444	keystroke_Key.space	Key.space	n/a
606.257	0.12	1212514	keystroke_a	a	n/a
606.4215	0.0905	1212843	keystroke_r	r	n/a
