onset	duration	sample	value	key	prompt_text
3.497	0.012	6994	keystroke_Key.cmd	Key.cmd	n/a
3.498	0.041	6996	keystroke_Key.tab	Key.tab	n/a
19.519	0.001	39038	keystroke_s	s	n/a
19.593	0.0755	39186	keystroke_m	m	n/a
19.713	0.06	39426	keystroke_c	c	n/a
19.758	0.075	39516	keystroke_a	a	n/a
19.878	0.09	39756	keystroke_n	n	n/a
20.4935	0.075	40987	keystroke_e	e	n/a
20.5535	0.15	41107	keystroke_a	a	n/a
20.6585	0.075	41317	keystroke_r	r	n/a
20.7635	0.075	41527	keystroke_n	n	n/a
20.8535	0.06	41707	keystroke_e	e	n/a
20.9285	0.09	41857	keystroke_y	y	n/a
32.06	0.405	64120	keystroke_Key.ctrl_l	Key.ctrl_l	n/a
32.2545	0.1655	64509	keystroke_		n/a
36.1095	0.165	72219	keystroke_		n/a
57.3355	6.805	114671	prompt	n/a	the quick brown fox jumps over a lazy dog\n
59.0945	0.014	118189	keystroke_t	t	n/a
59.1395	0.089	118279	keystroke_h	h	n/a
59.1835	0.075	118367	keystroke_e	e	n/a
59.3185	0.09	118637	keystroke_Key.space	Key.space	n/a
59.6335	0.09	119267	keystroke_q	q	n/a
59.7535	0.075	119507	keystroke_u	u	n/a
59.7985	0.075	119597	keystroke_i	i	n/a
59.9335	0.09	119867	keystroke_c	c	n/a
60.0085	0.135	120017	keystroke_k	k	n/a
60.0985	0.105	120197	keystroke_Key.space	Key.space	n/a
60.2935	0.0595	120587	keystroke_b	b	n/a
60.368	0.075	120736	keystroke_r	r	n/a
60.46	0.073	120920	keystroke_o	o	n/a
60.548	0.075	121096	keystroke_w	w	n/a
60.608	0.121	121216	keystroke_n	n	n/a
60.683	0.135	121366	keystroke_Key.space	Key.space	n/a
60.878	0.06	121756	keystroke_f	f	n/a
60.939	0.104	121878	keystroke_o	o	n/a
61.088	0.075	122176	keystroke_x	x	n/a
61.223	0.0905	122446	keystroke_Key.space	Key.space	n/a
61.464	0.059	122928	keystroke_j	j	n/a
61.598	0.075	123196	keystroke_u	u	n/a
61.823	0.091	123646	keystroke_m	m	n/a
61.853	0.105	123706	keystroke_p	p	n/a
61.988	0.0455	123976	keystroke_s	s	n/a
62.0625	0.076	124125	keystroke_Key.space	Key.space	n/a
62.1535	0.105	124307	keystroke_o	o	n/a
62.2435	0.06	124487	keystroke_v	v	n/a
62.3485	0.075	124697	keystroke_e	e	n/a
62.4085	0.075	124817	keystroke_r	r	n/a
62.4845	0.088	124969	keystroke_Key.space	Key.space	n/a
62.6485	0.06	125297	keystroke_a	a	n/a
62.7235	0.075	125447	keystroke_Key.space	Key.space	n/a
62.8435	0.09	125687	keystroke_l	l	n/a
62.9635	0.06	125927	keystroke_a	a	n/a
63.1735	0.074	126347	keystroke_z	z	n/a
63.3235	0.09	126647	keystroke_y	y	n/a
63.3985	0.105	126797	keystroke_Key.space	Key.space	n/a
63.5185	0.09	127037	keystroke_d	d	n/a
63.6385	0.09	127277	keystroke_o	o	n/a
63.7435	0.075	127487	keystroke_g	g	n/a
64.058	0.076	128116	keystroke_Key.enter	Key.enter	n/a
64.1475	6.498	128295	prompt	n/a	alter nose analyzes wall\n
64.868	0.075	129736	keystroke_a	a	n/a
65.003	0.03	130006	keystroke_l	l	n/a
65.078	0.06	130156	keystroke_t	t	n/a
65.153	0.105	130306	keystroke_e	e	n/a
65.213	0.105	130426	keystroke_r	r	n/a
65.3485	0.1085	130697	keystroke_Key.space	Key.space	n/a
65.738	0.06	131476	keystroke_n	n	n/a
65.753	0.105	131506	keystroke_o	o	n/a
65.9785	0.0745	131957	keystroke_s	s	n/a
66.038	0.076	132076	keystroke_e	e	n/a
66.638	0.105	133276	keystroke_Key.space	Key.space	n/a
66.758	0.09	133516	keystroke_a	a	n/a
67.043	0.06	134086	keystroke_n	n	n/a
67.118	0.075	134236	keystroke_a	a	n/a
67.268	0.076	134536	keystroke_l	l	n/a
67.478	0.075	134956	keystroke_y	y	n/a
67.598	0.045	135196	keystroke_s	s	n/a
68.5735	0.075	137147	keystroke_Key.backspace	Key.backspace	n/a
68.6335	0.091	137267	keystroke_z	z	n/a
68.8585	0.06	137717	keystroke_e	e	n/a
69.6085	0.06	139217	keystroke_s	s	n/a
69.7435	0.105	139487	keystroke_Key.space	Key.space	n/a
69.9835	0.075	139967	keystroke_w	w	n/a
70.1195	0.089	140239	keystroke_a	a	n/a
70.1935	0.075	140387	keystroke_l	l	n/a
70.3135	0.09	140627	keystroke_l	l	n/a
70.5535	0.09	141107	keystroke_Key.enter	Key.enter	n/a
70.6495	4.256	141299	prompt	n/a	pretty again booking mike\n
71.6785	0.075	143357	keystroke_p	p	n/a
71.7545	0.074	143509	keystroke_r	r	n/a
71.7835	0.075	143567	keystroke_e	e	n/a
71.9185	0.045	143837	keystroke_t	t	n/a
72.038	0.075	144076	keystroke_t	t	n/a
72.098	0.091	144196	keystroke_y	y	n/a
72.158	0.121	144316	keystroke_Key.space	Key.space	n/a
72.654	0.059	145308	keystroke_a	a	n/a
72.833	0.045	145666	keystroke_g	g	n/a
72.968	0.06	145936	keystroke_a	a	n/a
73.058	0.105	146116	keystroke_i	i	n/a
73.103	0.135	146206	keystroke_n	n	n/a
73.178	0.09	146356	keystroke_Key.space	Key.space	n/a
73.373	0.075	146746	keystroke_b	b	n/a
73.5545	0.059	147109	keystroke_o	o	n/a
73.6585	0.105	147317	keystroke_o	o	n/a
73.7035	0.1495	147407	keystroke_k	k	n/a
73.988	0.09	147976	keystroke_i	i	n/a
74.048	0.075	148096	keystroke_n	n	n/a
74.139	0.059	148278	keystroke_g	g	n/a
74.2135	0.1195	148427	keystroke_Key.space	Key.space	n/a
74.318	0.12	148636	keystroke_m	m	n/a
74.423	0.135	148846	keystroke_i	i	n/a
74.5885	0.0895	149177	keystroke_k	k	n/a
74.724	0.059	149448	keystroke_e	e	n/a
74.813	0.09	149626	keystroke_Key.enter	Key.enter	n/a
74.911	8.0945	149822	prompt	n/a	replacement hunt brisbane entrepreneur\n
75.713	0.06	151426	keystroke_r	r	n/a
75.728	0.075	151456	keystroke_e	e	n/a
75.833	0.06	151666	keystroke_l	l	n/a
75.908	0.075	151816	keystroke_a	a	n/a
76.5385	0.059	153077	keystroke_Key.backspace	Key.backspace	n/a
76.6875	0.061	153375	keystroke_Key.backspace	Key.backspace	n/a
77.0935	0.09	154187	keystroke_p	p	n/a
77.1235	0.135	154247	keystroke_l	l	n/a
77.2285	0.075	154457	keystroke_a	a	n/a
77.4235	0.075	154847	keystroke_c	c	n/a
77.4605	0.083	154921	keystroke_e	e	n/a
77.5885	0.075	155177	keystroke_m	m	n/a
77.6785	0.09	155357	keystroke_e	e	n/a
77.7385	0.075	155477	keystroke_n	n	n/a
77.8585	0.09	155717	keystroke_t	t	n/a
77.9485	0.09	155897	keystroke_Key.space	Key.space	n/a
78.7735	0.075	157547	keystroke_h	h	n/a
78.8035	0.15	157607	keystroke_u	u	n/a
78.9385	0.104	157877	keystroke_n	n	n/a
79.0575	0.061	158115	keystroke_t	t	n/a
79.133	0.1045	158266	keystroke_Key.space	Key.space	n/a
79.4625	0.076	158925	keystroke_b	b	n/a
79.5395	0.058	159079	keystroke_r	r	n/a
79.6275	0.09	159255	keystroke_i	i	n/a
79.7325	0.061	159465	keystroke_s	s	n/a
79.9125	0.076	159825	keystroke_b	b	n/a
80.0475	0.06	160095	keystroke_a	a	n/a
80.2125	0.09	160425	keystroke_n	n	n/a
80.3185	0.06	160637	keystroke_e	e	n/a
80.4375	0.09	160875	keystroke_Key.space	Key.space	n/a
80.7385	0.059	161477	keystroke_e	e	n/a
80.8435	0.09	161687	keystroke_n	n	n/a
80.9625	0.045	161925	keystroke_t	t	n/a
81.083	0.1055	162166	keystroke_r	r	n/a
81.1435	0.089	162287	keystroke_e	e	n/a
81.2475	0.076	162495	keystroke_o	o	n/a
81.383	0.1055	162766	keystroke_r	r	n/a
81.4575	0.091	162915	keystroke_e	e	n/a
81.6075	0.0905	163215	keystroke_n	n	n/a
81.893	0.075	163786	keystroke_e	e	n/a
82.148	0.045	164296	keystroke_u	u	n/a
82.1635	0.0145	164327	keystroke_y	y	n/a
82.224	0.074	164448	keystroke_r	r	n/a
82.628	0.045	165256	keystroke_Key.backspace	Key.backspace	n/a
82.718	0.075	165436	keystroke_Key.backspace	Key.backspace	n/a
82.778	0.061	165556	keystroke_r	r	n/a
82.9135	0.089	165827	keystroke_Key.enter	Key.enter	n/a
83.0105	8.449	166021	prompt	n/a	land projectors deutsch freelance\n
83.7235	0.0895	167447	keystroke_l	l	n/a
83.798	0.06	167596	keystroke_a	a	n/a
83.888	0.09	167776	keystroke_n	n	n/a
83.9625	0.075	167925	keystroke_d	d	n/a
84.053	0.0895	168106	keystroke_Key.space	Key.space	n/a
84.383	0.0595	168766	keystroke_r	r	n/a
84.7425	0.0455	169485	keystroke_Key.backspace	Key.backspace	n/a
84.9675	0.06	169935	keystroke_p	p	n/a
85.0575	0.0605	170115	keystroke_r	r	n/a
86.0185	0.075	172037	keystroke_o	o	n/a
86.3035	0.09	172607	keystroke_j	j	n/a
86.3485	0.111	172697	keystroke_e	e	n/a
86.4235	0.09	172847	keystroke_c	c	n/a
86.6185	0.06	173237	keystroke_t	t	n/a
86.7085	0.09	173417	keystroke_o	o	n/a
86.8285	0.075	173657	keystroke_r	r	n/a
86.8885	0.09	173777	keystroke_s	s	n/a
87.0535	0.105	174107	keystroke_Key.space	Key.space	n/a
87.5485	0.06	175097	keystroke_d	d	n/a
88.2535	0.0595	176507	keystroke_e	e	n/a
88.689	0.09	177378	keystroke_u	u	n/a
88.958	0.075	177916	keystroke_t	t	n/a
89.2285	0.1345	178457	keystroke_s	s	n/a
89.318	0.141	178636	keystroke_c	c	n/a
89.46	0.128	178920	keystroke_h	h	n/a
89.468	0.06	178936	keystroke_g	g	n/a
89.543	0.12	179086	keystroke_Key.space	Key.space	n/a
90.0535	0.029	180107	keystroke_Key.backspace	Key.backspace	n/a
90.1425	0.0755	180285	keystroke_Key.backspace	Key.backspace	n/a
90.3075	0.1205	180615	keystroke_Key.space	Key.space	n/a
90.4885	0.0445	180977	keystroke_f	f	n/a
90.653	0.06	181306	keystroke_r	r	n/a
90.683	0.075	181366	keystroke_e	e	n/a
90.818	0.075	181636	keystroke_e	e	n/a
90.908	0.0755	181816	keystroke_l	l	n/a
91.013	0.0755	182026	keystroke_a	a	n/a
91.103	0.075	182206	keystroke_n	n	n/a
91.193	0.0755	182386	keystroke_c	c	n/a
91.223	0.075	182446	keystroke_e	e	n/a
91.358	0.098	182716	keystroke_Key.enter	Key.enter	n/a
91.465	7.92	182930	prompt	n/a	advice presenting proposed blake\n
92.333	0.126	184666	keystroke_a	a	n/a
92.423	0.09	184846	keystroke_d	d	n/a
92.873	0.06	185746	keystroke_v	v	n/a
92.963	0.09	185926	keystroke_i	i	n/a
93.098	0.15	186196	keystroke_c	c	n/a
93.188	0.09	186376	keystroke_e	e	n/a
93.293	0.09	186586	keystroke_Key.space	Key.space	n/a
93.803	0.12	187606	keystroke_o	o	n/a
93.9385	0.045	187877	keystroke_r	r	n/a
93.953	0.06	187906	keystroke_e	e	n/a
94.0885	0.075	188177	keystroke_s	s	n/a
94.283	0.075	188566	keystroke_e	e	n/a
94.718	0.0455	189436	keystroke_Key.backspace	Key.backspace	n/a
94.8235	0.0595	189647	keystroke_Key.backspace	Key.backspace	n/a
94.943	0.06	189886	keystroke_Key.backspace	Key.backspace	n/a
95.078	0.09	190156	keystroke_Key.backspace	Key.backspace	n/a
95.378	0.06	190756	keystroke_Key.backspace	Key.backspace	n/a
95.633	0.09	191266	keystroke_p	p	n/a
95.708	0.0755	191416	keystroke_r	r	n/a
95.753	0.075	191506	keystroke_e	e	n/a
95.903	0.045	191806	keystroke_s	s	n/a
96.038	0.105	192076	keystroke_e	e	n/a
96.188	0.09	192376	keystroke_n	n	n/a
96.293	0.075	192586	keystroke_t	t	n/a
96.398	0.075	192796	keystroke_i	i	n/a
96.443	0.075	192886	keystroke_n	n	n/a
96.5335	0.0595	193067	keystroke_g	g	n/a
96.608	0.09	193216	keystroke_Key.space	Key.space	n/a
96.743	0.09	193486	keystroke_p	p	n/a
96.848	0.075	193696	keystroke_r	r	n/a
96.938	0.075	193876	keystroke_o	o	n/a
97.118	0.075	194236	keystroke_p	p	n/a
97.3285	0.0745	194657	keystroke_o	o	n/a
97.433	0.075	194866	keystroke_s	s	n/a
97.643	0.0755	195286	keystroke_e	e	n/a
97.703	0.06	195406	keystroke_f	f	n/a
97.793	0.0905	195586	keystroke_Key.space	Key.space	n/a
98.348	0.045	196696	keystroke_Key.backspace	Key.backspace	n/a
98.468	0.075	196936	keystroke_Key.backspace	Key.backspace	n/a
98.558	0.075	197116	keystroke_d	d	n/a
98.6185	0.12	197237	keystroke_Key.space	Key.space	n/a
98.768	0.06	197536	keystroke_b	b	n/a
98.8885	0.0605	197777	keystroke_l	l	n/a
98.9785	0.0595	197957	keystroke_a	a	n/a
99.083	0.0905	198166	keystroke_k	k	n/a
99.188	0.06	198376	keystroke_e	e	n/a
99.293	0.09	198586	keystroke_Key.enter	Key.enter	n/a
99.391	5.4995	198782	prompt	n/a	consultants trained arctic prostate\n
99.953	0.075	199906	keystroke_c	c	n/a
100.013	0.09	200026	keystroke_o	o	n/a
100.073	0.0605	200146	keystroke_n	n	n/a
100.118	0.075	200236	keystroke_s	s	n/a
100.238	0.075	200476	keystroke_u	u	n/a
100.418	0.105	200836	keystroke_l	l	n/a
100.703	0.0605	201406	keystroke_t	t	n/a
100.8385	0.075	201677	keystroke_a	a	n/a
100.9585	0.09	201917	keystroke_n	n	n/a
101.0635	0.06	202127	keystroke_t	t	n/a
101.1085	0.09	202217	keystroke_s	s	n/a
101.1835	0.09	202367	keystroke_Key.space	Key.space	n/a
101.3485	0.135	202697	keystroke_r	r	n/a
101.4085	0.091	202817	keystroke_e	e	n/a
101.8285	0.03	203657	keystroke_Key.backspace	Key.backspace	n/a
101.9185	0.09	203837	keystroke_Key.backspace	Key.backspace	n/a
102.0235	0.076	204047	keystroke_t	t	n/a
102.0685	0.06	204137	keystroke_r	r	n/a
102.2335	0.0595	204467	keystroke_a	a	n/a
102.308	0.09	204616	keystroke_i	i	n/a
102.353	0.106	204706	keystroke_n	n	n/a
102.443	0.075	204886	keystroke_e	e	n/a
102.488	0.105	204976	keystroke_d	d	n/a
102.578	0.1055	205156	keystroke_Key.space	Key.space	n/a
102.803	0.12	205606	keystroke_a	a	n/a
102.909	0.074	205818	keystroke_r	r	n/a
103.074	0.059	206148	keystroke_t	t	n/a
103.193	0.075	206386	keystroke_i	i	n/a
103.2535	0.0895	206507	keystroke_c	c	n/a
103.358	0.0905	206716	keystroke_Key.space	Key.space	n/a
103.5385	0.0745	207077	keystroke_p	p	n/a
103.658	0.075	207316	keystroke_r	r	n/a
104.1835	0.0895	208367	keystroke_o	o	n/a
104.288	0.045	208576	keystroke_s	s	n/a
104.393	0.0755	208786	keystroke_t	t	n/a
104.5285	0.06	209057	keystroke_a	a	n/a
104.6485	0.105	209297	keystroke_t	t	n/a
104.6935	0.12	209387	keystroke_e	e	n/a
104.7985	0.09	209597	keystroke_Key.enter	Key.enter	n/a
104.896	4.794	209792	prompt	n/a	illegal prague medium personals\n
105.8935	0.06	211787	keystroke_i	i	n/a
106.1035	0.045	212207	keystroke_l	l	n/a
106.193	0.1205	212386	keystroke_l	l	n/a
106.328	0.09	212656	keystroke_e	e	n/a
106.373	0.084	212746	keystroke_g	g	n/a
106.5385	0.0595	213077	keystroke_a	a	n/a
106.613	0.105	213226	keystroke_l	l	n/a
106.688	0.105	213376	keystroke_Key.space	Key.space	n/a
106.868	0.0905	213736	keystroke_p	p	n/a
106.943	0.0595	213886	keystroke_r	r	n/a
107.2135	0.075	214427	keystroke_a	a	n/a
107.4385	0.045	214877	keystroke_g	g	n/a
107.544	0.0745	215088	keystroke_u	u	n/a
107.6335	0.06	215267	keystroke_e	e	n/a
107.7235	0.09	215447	keystroke_Key.space	Key.space	n/a
108.1285	0.09	216257	keystroke_m	m	n/a
108.1885	0.105	216377	keystroke_e	e	n/a
108.2785	0.1195	216557	keystroke_d	d	n/a
108.368	0.12	216736	keystroke_i	i	n/a
108.413	0.105	216826	keystroke_u	u	n/a
108.668	0.09	217336	keystroke_m	m	n/a
108.713	0.12	217426	keystroke_Key.space	Key.space	n/a
108.8785	0.0745	217757	keystroke_p	p	n/a
108.938	0.09	217876	keystroke_e	e	n/a
108.968	0.075	217936	keystroke_r	r	n/a
109.073	0.06	218146	keystroke_s	s	n/a
109.148	0.075	218296	keystroke_o	o	n/a
109.194	0.074	218388	keystroke_n	n	n/a
109.283	0.06	218566	keystroke_a	a	n/a
109.358	0.09	218716	keystroke_l	l	n/a
109.508	0.06	219016	keystroke_s	s	n/a
109.598	0.09	219196	keystroke_Key.enter	Key.enter	n/a
109.694	4.4815	219388	prompt	n/a	giants mega devices drop\n
110.7985	0.06	221597	keystroke_g	g	n/a
110.9635	0.105	221927	keystroke_i	i	n/a
111.1585	0.09	222317	keystroke_a	a	n/a
111.4435	0.075	222887	keystroke_n	n	n/a
111.5485	0.09	223097	keystroke_t	t	n/a
111.6085	0.0895	223217	keystroke_s	s	n/a
111.683	0.105	223366	keystroke_Key.space	Key.space	n/a
111.878	0.12	223756	keystroke_m	m	n/a
111.984	0.059	223968	keystroke_e	e	n/a
112.088	0.075	224176	keystroke_g	g	n/a
112.254	0.0595	224508	keystroke_a	a	n/a
112.358	0.105	224716	keystroke_Key.space	Key.space	n/a
112.509	0.119	225018	keystroke_d	d	n/a
112.613	0.15	225226	keystroke_e	e	n/a
112.734	0.104	225468	keystroke_v	v	n/a
112.868	0.09	225736	keystroke_i	i	n/a
112.943	0.105	225886	keystroke_c	c	n/a
113.018	0.09	226036	keystroke_e	e	n/a
113.1385	0.0895	226277	keystroke_s	s	n/a
113.243	0.105	226486	keystroke_Key.space	Key.space	n/a
113.559	0.074	227118	keystroke_d	d	n/a
113.738	0.045	227476	keystroke_r	r	n/a
113.768	0.09	227536	keystroke_o	o	n/a
113.828	0.09	227656	keystroke_p	p	n/a
114.068	0.105	228136	keystroke_Key.enter	Key.enter	n/a
114.18	6.5655	228360	prompt	n/a	amenities starter celebs fixtures\n
114.864	0.059	229728	keystroke_a	a	n/a
114.938	0.09	229876	keystroke_m	m	n/a
115.043	0.076	230086	keystroke_e	e	n/a
115.148	0.061	230296	keystroke_n	n	n/a
115.223	0.076	230446	keystroke_t	t	n/a
115.328	0.09	230656	keystroke_i	i	n/a
115.703	0.045	231406	keystroke_Key.backspace	Key.backspace	n/a
116.2285	0.06	232457	keystroke_Key.backspace	Key.backspace	n/a
116.4685	0.075	232937	keystroke_i	i	n/a
116.6185	0.075	233237	keystroke_t	t	n/a
116.739	0.1045	233478	keystroke_i	i	n/a
116.8885	0.09	233777	keystroke_e	e	n/a
117.0385	0.075	234077	keystroke_s	s	n/a
117.1435	0.12	234287	keystroke_Key.space	Key.space	n/a
117.3085	0.075	234617	keystroke_s	s	n/a
117.5035	0.06	235007	keystroke_t	t	n/a
117.6385	0.135	235277	keystroke_a	a	n/a
117.7285	0.09	235457	keystroke_r	r	n/a
117.9095	0.074	235819	keystroke_t	t	n/a
117.9685	0.135	235937	keystroke_e	e	n/a
118.0735	0.075	236147	keystroke_r	r	n/a
118.1335	0.105	236267	keystroke_Key.space	Key.space	n/a
118.269	0.0895	236538	keystroke_c	c	n/a
118.3285	0.09	236657	keystroke_e	e	n/a
118.4485	0.09	236897	keystroke_l	l	n/a
118.568	0.06	237136	keystroke_e	e	n/a
118.718	0.09	237436	keystroke_b	b	n/a
118.838	0.061	237676	keystroke_s	s	n/a
118.973	0.1055	237946	keystroke_Key.space	Key.space	n/a
119.1535	0.09	238307	keystroke_f	f	n/a
119.3335	0.09	238667	keystroke_i	i	n/a
119.4685	0.045	238937	keystroke_z	z	n/a
119.948	0.045	239896	keystroke_Key.backspace	Key.backspace	n/a
120.038	0.075	240076	keystroke_x	x	n/a
120.233	0.06	240466	keystroke_t	t	n/a
120.3385	0.089	240677	keystroke_u	u	n/a
120.4135	0.075	240827	keystroke_r	r	n/a
120.4625	0.101	240925	keystroke_e	e	n/a
120.5935	0.06	241187	keystroke_s	s	n/a
120.6375	0.105	241275	keystroke_Key.enter	Key.enter	n/a
120.7505	4.57	241501	prompt	n/a	voting talk peaceful picked\n
121.613	0.076	243226	keystroke_v	v	n/a
121.703	0.0745	243406	keystroke_o	o	n/a
121.8235	0.0755	243647	keystroke_t	t	n/a
121.9135	0.089	243827	keystroke_i	i	n/a
121.9585	0.0745	243917	keystroke_n	n	n/a
122.048	0.061	244096	keystroke_g	g	n/a
122.123	0.105	244246	keystroke_Key.space	Key.space	n/a
122.4385	0.06	244877	keystroke_t	t	n/a
122.5885	0.075	245177	keystroke_a	a	n/a
122.6485	0.12	245297	keystroke_l	l	n/a
122.7085	0.12	245417	keystroke_k	k	n/a
122.7835	0.12	245567	keystroke_Key.space	Key.space	n/a
122.9335	0.09	245867	keystroke_p	p	n/a
123.0085	0.075	246017	keystroke_e	e	n/a
123.0535	0.105	246107	keystroke_a	a	n/a
123.2035	0.09	246407	keystroke_c	c	n/a
123.6985	0.045	247397	keystroke_e	e	n/a
123.8635	0.075	247727	keystroke_f	f	n/a
123.9685	0.06	247937	keystroke_u	u	n/a
124.1475	0.076	248295	keystroke_l	l	n/a
124.2685	0.09	248537	keystroke_Key.space	Key.space	n/a
124.4785	0.09	248957	keystroke_p	p	n/a
124.7035	0.09	249407	keystroke_i	i	n/a
124.8235	0.105	249647	keystroke_c	c	n/a
124.9585	0.09	249917	keystroke_k	k	n/a
125.0335	0.105	250067	keystroke_e	e	n/a
125.0785	0.135	250157	keystroke_d	d	n/a
125.1985	0.1195	250397	keystroke_Key.enter	Key.enter	n/a
125.326	4.6605	250652	prompt	n/a	peoples brass iraq thats\n
126.1135	0.075	252227	keystroke_p	p	n/a
126.1895	0.074	252379	keystroke_e	e	n/a
126.3375	0.136	252675	keystroke_o	o	n/a
126.3835	0.15	252767	keystroke_p	p	n/a
126.4875	0.121	252975	keystroke_l	l	n/a
126.6235	0.09	253247	keystroke_e	e	n/a
126.788	0.0905	253576	keystroke_Key.space	Key.space	n/a
127.1025	0.0605	254205	keystroke_Key.backspace	Key.backspace	n/a
127.2085	0.045	254417	keystroke_s	s	n/a
127.2375	0.09	254475	keystroke_Key.space	Key.space	n/a
127.4035	0.089	254807	keystroke_b	b	n/a
127.5235	0.06	255047	keystroke_r	r	n/a
127.554	0.1785	255108	keystroke_a	a	n/a
127.7035	0.06	255407	keystroke_s	s	n/a
127.8225	0.09	255645	keystroke_s	s	n/a
127.973	0.09	255946	keystroke_Key.space	Key.space	n/a
128.6785	0.075	257357	keystroke_i	i	n/a
128.7835	0.06	257567	keystroke_r	r	n/a
128.9485	0.106	257897	keystroke_a	a	n/a
129.0235	0.09	258047	keystroke_w	w	n/a
129.2335	0.075	258467	keystroke_Key.space	Key.space	n/a
129.4135	0.06	258827	keystroke_t	t	n/a
129.4885	0.105	258977	keystroke_h	h	n/a
129.5635	0.075	259127	keystroke_a	a	n/a
129.7135	0.105	259427	keystroke_t	t	n/a
129.8035	0.075	259607	keystroke_s	s	n/a
129.8935	0.0905	259787	keystroke_Key.enter	Key.enter	n/a
129.9895	6.8515	259979	prompt	n/a	detroit witnesses thesaurus regards\n
130.853	0.06	261706	keystroke_d	d	n/a
131.018	0.075	262036	keystroke_e	e	n/a
131.139	0.149	262278	keystroke_t	t	n/a
131.243	0.09	262486	keystroke_r	r	n/a
131.378	0.105	262756	keystroke_o	o	n/a
131.438	0.12	262876	keystroke_i	i	n/a
131.6485	0.0745	263297	keystroke_t	t	n/a
132.098	0.09	264196	keystroke_Key.space	Key.space	n/a
132.4135	0.0745	264827	keystroke_w	w	n/a
132.5035	0.0745	265007	keystroke_i	i	n/a
132.594	0.089	265188	keystroke_t	t	n/a
132.728	0.09	265456	keystroke_n	n	n/a
132.8035	0.0745	265607	keystroke_e	e	n/a
132.968	0.06	265936	keystroke_s	s	n/a
133.103	0.09	266206	keystroke_s	s	n/a
133.343	0.075	266686	keystroke_e	e	n/a
133.4785	0.09	266957	keystroke_s	s	n/a
133.6135	0.09	267227	keystroke_Key.space	Key.space	n/a
133.749	0.0745	267498	keystroke_t	t	n/a
133.8685	0.091	267737	keystroke_h	h	n/a
133.9435	0.09	267887	keystroke_e	e	n/a
134.0935	0.106	268187	keystroke_s	s	n/a
134.3035	0.09	268607	keystroke_a	a	n/a
134.499	0.09	268998	keystroke_u	u	n/a
134.6485	0.075	269297	keystroke_r	r	n/a
134.8135	0.06	269627	keystroke_a	a	n/a
135.1585	0.06	270317	keystroke_Key.backspace	Key.backspace	n/a
135.3535	0.09	270707	keystroke_u	u	n/a
135.4135	0.0605	270827	keystroke_s	s	n/a
135.6685	0.12	271337	keystroke_Key.space	Key.space	n/a
136.0735	0.06	272147	keystroke_r	r	n/a
136.1035	0.0905	272207	keystroke_e	e	n/a
136.238	0.06	272476	keystroke_g	g	n/a
136.374	0.089	272748	keystroke_a	a	n/a
136.433	0.1055	272866	keystroke_r	r	n/a
136.553	0.106	273106	keystroke_d	d	n/a
136.614	0.0895	273228	keystroke_s	s	n/a
136.7485	0.09	273497	keystroke_Key.enter	Key.enter	n/a
136.8455	7.375	273691	prompt	n/a	cleveland treaty written wichita\n
137.7085	0.076	275417	keystroke_c	c	n/a
137.8435	0.09	275687	keystroke_l	l	n/a
137.9185	0.09	275837	keystroke_e	e	n/a
138.0535	0.075	276107	keystroke_v	v	n/a
138.8185	0.06	277637	keystroke_e	e	n/a
138.923	0.09	277846	keystroke_l	l	n/a
139.0585	0.0905	278117	keystroke_a	a	n/a
139.209	0.09	278418	keystroke_n	n	n/a
139.314	0.0595	278628	keystroke_d	d	n/a
139.4185	0.0895	278837	keystroke_Key.space	Key.space	n/a
139.553	0.09	279106	keystroke_t	t	n/a
139.583	0.075	279166	keystroke_r	r	n/a
139.7485	0.06	279497	keystroke_e	e	n/a
139.9135	0.12	279827	keystroke_a	a	n/a
140.0935	0.09	280187	keystroke_t	t	n/a
140.3185	0.015	280637	keystroke_y	y	n/a
140.4385	0.12	280877	keystroke_Key.space	Key.space	n/a
141.0985	0.12	282197	keystroke_w	w	n/a
141.1735	0.09	282347	keystroke_r	r	n/a
141.653	0.091	283306	keystroke_i	i	n/a
141.818	0.045	283636	keystroke_t	t	n/a
141.923	0.091	283846	keystroke_t	t	n/a
141.9985	0.1045	283997	keystroke_e	e	n/a
142.133	0.105	284266	keystroke_n	n	n/a
142.193	0.1205	284386	keystroke_Key.space	Key.space	n/a
142.358	0.075	284716	keystroke_w	w	n/a
142.778	0.075	285556	keystroke_o	o	n/a
143.2275	0.061	286455	keystroke_Key.backspace	Key.backspace	n/a
143.4235	0.075	286847	keystroke_i	i	n/a
143.4835	0.075	286967	keystroke_c	c	n/a
143.6025	0.091	287205	keystroke_h	h	n/a
143.6485	0.135	287297	keystroke_i	i	n/a
143.8285	0.061	287657	keystroke_t	t	n/a
144.0085	0.06	288017	keystroke_a	a	n/a
144.1135	0.105	288227	keystroke_Key.enter	Key.enter	n/a
144.224	7.8415	288448	prompt	n/a	essence protect sewing panic\n
146.9655	0.013	293931	keystroke_e	e	n/a
147.0835	0.061	294167	keystroke_s	s	n/a
147.2485	0.03	294497	keystroke_s	s	n/a
147.4285	0.061	294857	keystroke_e	e	n/a
147.5485	0.076	295097	keystroke_n	n	n/a
147.8485	0.06	295697	keystroke_c	c	n/a
147.8635	0.075	295727	keystroke_e	e	n/a
147.9685	0.09	295937	keystroke_Key.space	Key.space	n/a
148.1485	0.075	296297	keystroke_p	p	n/a
148.2245	0.074	296449	keystroke_r	r	n/a
148.3435	0.09	296687	keystroke_o	o	n/a
148.8835	0.015	297767	keystroke_t	t	n/a
148.9585	0.075	297917	keystroke_e	e	n/a
149.0935	0.075	298187	keystroke_c	c	n/a
149.2885	0.075	298577	keystroke_t	t	n/a
149.378	0.105	298756	keystroke_Key.space	Key.space	n/a
149.4985	0.06	298997	keystroke_s	s	n/a
149.7085	0.03	299417	keystroke_w	w	n/a
150.1135	0.06	300227	keystroke_Key.backspace	Key.backspace	n/a
150.2035	0.0445	300407	keystroke_e	e	n/a
150.3385	0.06	300677	keystroke_w	w	n/a
150.5035	0.12	301007	keystroke_i	i	n/a
150.5785	0.105	301157	keystroke_n	n	n/a
150.6685	0.03	301337	keystroke_g	g	n/a
150.7885	0.075	301577	keystroke_Key.space	Key.space	n/a
151.4335	0.0905	302867	keystroke_p	p	n/a
151.629	0.074	303258	keystroke_a	a	n/a
151.718	0.091	303436	keystroke_n	n	n/a
151.793	0.09	303586	keystroke_i	i	n/a
151.9885	0.075	303977	keystroke_Key.enter	Key.enter	n/a
152.071	5.3945	304142	prompt	n/a	declined national horn berlin\n
153.0535	0.076	306107	keystroke_d	d	n/a
153.0985	0.21	306197	keystroke_e	e	n/a
153.2635	0.135	306527	keystroke_c	c	n/a
153.4595	0.0895	306919	keystroke_l	l	n/a
153.654	0.1195	307308	keystroke_i	i	n/a
153.7285	0.12	307457	keystroke_n	n	n/a
153.8935	0.03	307787	keystroke_d	d	n/a
153.9085	0.135	307817	keystroke_e	e	n/a
154.0285	0.105	308057	keystroke_d	d	n/a
154.404	0.029	308808	keystroke_Key.backspace	Key.backspace	n/a
154.5085	0.045	309017	keystroke_Key.backspace	Key.backspace	n/a
154.6285	0.075	309257	keystroke_Key.backspace	Key.backspace	n/a
154.7335	0.09	309467	keystroke_e	e	n/a
154.7935	0.105	309587	keystroke_d	d	n/a
154.8835	0.12	309767	keystroke_Key.space	Key.space	n/a
155.364	0.059	310728	keystroke_n	n	n/a
155.408	0.075	310816	keystroke_a	a	n/a
155.558	0.06	311116	keystroke_t	t	n/a
155.603	0.09	311206	keystroke_i	i	n/a
155.635	0.089	311270	keystroke_o	o	n/a
155.77	0.089	311540	keystroke_n	n	n/a
155.873	0.06	311746	keystroke_a	a	n/a
155.919	0.104	311838	keystroke_l	l	n/a
155.994	0.104	311988	keystroke_Key.space	Key.space	n/a
156.218	0.105	312436	keystroke_h	h	n/a
156.279	0.119	312558	keystroke_o	o	n/a
156.383	0.0605	312766	keystroke_r	r	n/a
156.4585	0.15	312917	keystroke_n	n	n/a
156.5485	0.12	313097	keystroke_Key.space	Key.space	n/a
156.8035	0.075	313607	keystroke_b	b	n/a
156.9235	0.075	313847	keystroke_e	e	n/a
156.9695	0.104	313939	keystroke_r	r	n/a
157.104	0.0445	314208	keystroke_l	l	n/a
157.209	0.1045	314418	keystroke_i	i	n/a
157.2685	0.105	314537	keystroke_n	n	n/a
157.3585	0.105	314717	keystroke_Key.enter	Key.enter	n/a
157.4695	4.842	314939	prompt	n/a	potentially weekend administrators come\n
158.393	0.12	316786	keystroke_p	p	n/a
158.468	0.0905	316936	keystroke_o	o	n/a
158.559	0.074	317118	keystroke_t	t	n/a
158.604	0.104	317208	keystroke_e	e	n/a
158.723	0.06	317446	keystroke_n	n	n/a
158.798	0.091	317596	keystroke_t	t	n/a
158.873	0.0755	317746	keystroke_i	i	n/a
158.978	0.06	317956	keystroke_a	a	n/a
159.068	0.045	318136	keystroke_l	l	n/a
159.158	0.09	318316	keystroke_l	l	n/a
159.293	0.0605	318586	keystroke_y	y	n/a
159.3685	0.105	318737	keystroke_Key.space	Key.space	n/a
159.489	0.074	318978	keystroke_w	w	n/a
159.5335	0.0445	319067	keystroke_e	e	n/a
159.653	0.075	319306	keystroke_e	e	n/a
159.788	0.105	319576	keystroke_k	k	n/a
159.863	0.0605	319726	keystroke_e	e	n/a
159.9835	0.09	319967	keystroke_n	n	n/a
160.043	0.075	320086	keystroke_d	d	n/a
160.178	0.0755	320356	keystroke_Key.space	Key.space	n/a
160.298	0.075	320596	keystroke_a	a	n/a
160.4035	0.09	320807	keystroke_d	d	n/a
160.4945	0.104	320989	keystroke_m	m	n/a
160.569	0.1345	321138	keystroke_i	i	n/a
160.6585	0.15	321317	keystroke_n	n	n/a
160.7935	0.09	321587	keystroke_i	i	n/a
160.884	0.0595	321768	keystroke_s	s	n/a
161.0485	0.0895	322097	keystroke_t	t	n/a
161.0935	0.075	322187	keystroke_r	r	n/a
161.2735	0.06	322547	keystroke_a	a	n/a
161.4085	0.075	322817	keystroke_t	t	n/a
161.499	0.075	322998	keystroke_o	o	n/a
161.6335	0.1055	323267	keystroke_r	r	n/a
161.724	0.105	323448	keystroke_s	s	n/a
161.843	0.09	323686	keystroke_Key.space	Key.space	n/a
161.963	0.06	323926	keystroke_c	c	n/a
162.039	0.0745	324078	keystroke_o	o	n/a
162.0835	0.075	324167	keystroke_m	m	n/a
162.1285	0.075	324257	keystroke_e	e	n/a
162.219	0.0895	324438	keystroke_Key.enter	Key.enter	n/a
162.315	7.601	324630	prompt	n/a	simpsons layers ford handhelds\n
162.9685	0.075	325937	keystroke_s	s	n/a
163.0735	0.12	326147	keystroke_i	i	n/a
163.2685	0.121	326537	keystroke_m	m	n/a
163.478	0.1805	326956	keystroke_o	o	n/a
163.913	0.06	327826	keystroke_Key.backspace	Key.backspace	n/a
164.1085	0.0745	328217	keystroke_p	p	n/a
164.213	0.075	328426	keystroke_s	s	n/a
164.468	0.135	328936	keystroke_o	o	n/a
164.543	0.12	329086	keystroke_n	n	n/a
164.7085	0.0755	329417	keystroke_s	s	n/a
164.9485	0.075	329897	keystroke_Key.space	Key.space	n/a
165.0835	0.09	330167	keystroke_l	l	n/a
165.1885	0.075	330377	keystroke_a	a	n/a
165.3085	0.09	330617	keystroke_y	y	n/a
165.4135	0.066	330827	keystroke_e	e	n/a
165.4665	0.082	330933	keystroke_r	r	n/a
165.5495	0.074	331099	keystroke_s	s	n/a
165.6535	0.105	331307	keystroke_Key.space	Key.space	n/a
166.1485	0.0605	332297	keystroke_f	f	n/a
166.2095	0.104	332419	keystroke_o	o	n/a
166.2985	0.046	332597	keystroke_r	r	n/a
166.3735	0.09	332747	keystroke_Key.space	Key.space	n/a
166.9735	0.06	333947	keystroke_Key.backspace	Key.backspace	n/a
167.0485	0.075	334097	keystroke_d	d	n/a
167.109	0.0745	334218	keystroke_Key.space	Key.space	n/a
167.2585	0.09	334517	keystroke_h	h	n/a
167.3185	0.12	334637	keystroke_a	a	n/a
167.4985	0.03	334997	keystroke_n	n	n/a
168.533	0.0605	337066	keystroke_d	d	n/a
168.9235	0.06	337847	keystroke_h	h	n/a
169.043	0.06	338086	keystroke_e	e	n/a
169.1185	0.1045	338237	keystroke_l	l	n/a
169.283	0.0755	338566	keystroke_d	d	n/a
169.598	0.06	339196	keystroke_s	s	n/a
169.808	0.105	339616	keystroke_Key.enter	Key.enter	n/a
169.9215	4.479	339843	prompt	n/a	loops query dream speeches\n
170.7235	0.0605	341447	keystroke_l	l	n/a
170.903	0.061	341806	keystroke_o	o	n/a
171.0235	0.06	342047	keystroke_o	o	n/a
171.1885	0.09	342377	keystroke_p	p	n/a
171.3835	0.045	342767	keystroke_s	s	n/a
171.5035	0.105	343007	keystroke_Key.space	Key.space	n/a
172.028	0.0605	344056	keystroke_q	q	n/a
172.1635	0.105	344327	keystroke_u	u	n/a
172.2835	0.1065	344567	keystroke_e	e	n/a
172.358	0.105	344716	keystroke_r	r	n/a
172.568	0.075	345136	keystroke_y	y	n/a
172.719	0.105	345438	keystroke_Key.space	Key.space	n/a
172.854	0.075	345708	keystroke_d	d	n/a
173.049	0.075	346098	keystroke_r	r	n/a
173.094	0.075	346188	keystroke_e	e	n/a
173.274	0.075	346548	keystroke_a	a	n/a
173.334	0.105	346668	keystroke_m	m	n/a
173.394	0.104	346788	keystroke_Key.space	Key.space	n/a
173.529	0.06	347058	keystroke_s	s	n/a
173.634	0.075	347268	keystroke_p	p	n/a
173.724	0.06	347448	keystroke_e	e	n/a
173.829	0.135	347658	keystroke_e	e	n/a
173.919	0.09	347838	keystroke_c	c	n/a
174.024	0.09	348048	keystroke_h	h	n/a
174.099	0.09	348198	keystroke_e	e	n/a
174.219	0.105	348438	keystroke_s	s	n/a
174.308	0.091	348616	keystroke_Key.enter	Key.enter	n/a
174.404	5.307	348808	prompt	n/a	tractor architecture chubby oven\n
175.194	0.06	350388	keystroke_t	t	n/a
175.209	0.075	350418	keystroke_r	r	n/a
175.389	0.09	350778	keystroke_a	a	n/a
175.457	0.097	350914	keystroke_c	c	n/a
175.629	0.045	351258	keystroke_t	t	n/a
175.704	0.0745	351408	keystroke_o	o	n/a
175.7935	0.031	351587	keystroke_r	r	n/a
175.8535	0.12	351707	keystroke_Key.space	Key.space	n/a
175.9435	0.09	351887	keystroke_a	a	n/a
176.0635	0.09	352127	keystroke_r	r	n/a
176.2285	0.105	352457	keystroke_c	c	n/a
176.3635	0.1045	352727	keystroke_h	h	n/a
176.4085	0.1345	352817	keystroke_i	i	n/a
176.618	0.12	353236	keystroke_t	t	n/a
176.708	0.105	353416	keystroke_e	e	n/a
176.993	0.091	353986	keystroke_c	c	n/a
177.2035	0.045	354407	keystroke_t	t	n/a
177.279	0.1345	354558	keystroke_u	u	n/a
177.3985	0.045	354797	keystroke_r	r	n/a
177.4285	0.06	354857	keystroke_e	e	n/a
177.4735	0.075	354947	keystroke_Key.space	Key.space	n/a
177.5635	0.105	355127	keystroke_c	c	n/a
177.6835	0.0905	355367	keystroke_h	h	n/a
177.7285	0.0755	355457	keystroke_i	i	n/a
178.1485	0.06	356297	keystroke_Key.backspace	Key.backspace	n/a
178.3435	0.075	356687	keystroke_u	u	n/a
178.5085	0.06	357017	keystroke_b	b	n/a
178.6135	0.075	357227	keystroke_b	b	n/a
178.704	0.0595	357408	keystroke_y	y	n/a
178.7935	0.09	357587	keystroke_Key.space	Key.space	n/a
179.364	0.075	358728	keystroke_o	o	n/a
179.46	0.068	358920	keystroke_v	v	n/a
179.484	0.09	358968	keystroke_e	e	n/a
179.6185	0.0895	359237	keystroke_Key.enter	Key.enter	n/a
179.716	4.9895	359432	prompt	n/a	insertion name june harvest\n
180.594	0.105	361188	keystroke_i	i	n/a
180.654	0.105	361308	keystroke_n	n	n/a
180.714	0.045	361428	keystroke_s	s	n/a
180.849	0.105	361698	keystroke_e	e	n/a
180.909	0.06	361818	keystroke_r	r	n/a
181.0285	0.09	362057	keystroke_t	t	n/a
181.0585	0.09	362117	keystroke_i	i	n/a
181.1035	0.091	362207	keystroke_o	o	n/a
181.2385	0.105	362477	keystroke_n	n	n/a
181.2835	0.135	362567	keystroke_Key.space	Key.space	n/a
181.4635	0.105	362927	keystroke_n	n	n/a
181.5535	0.06	363107	keystroke_a	a	n/a
181.6735	0.075	363347	keystroke_m	m	n/a
181.7335	0.06	363467	keystroke_e	e	n/a
181.8085	0.09	363617	keystroke_Key.space	Key.space	n/a
181.9885	0.06	363977	keystroke_j	j	n/a
182.0935	0.105	364187	keystroke_u	u	n/a
182.1535	0.12	364307	keystroke_n	n	n/a
182.2435	0.075	364487	keystroke_e	e	n/a
182.3335	0.075	364667	keystroke_Key.space	Key.space	n/a
182.4985	0.12	364997	keystroke_h	h	n/a
182.6045	0.074	365209	keystroke_a	a	n/a
182.6485	0.091	365297	keystroke_r	r	n/a
182.7995	0.029	365599	keystroke_d	d	n/a
182.8895	0.089	365779	keystroke_b	b	n/a
182.9935	0.12	365987	keystroke_e	e	n/a
183.159	0.0895	366318	keystroke_s	s	n/a
183.2185	0.09	366437	keystroke_t	t	n/a
183.3685	0.045	366737	keystroke_Key.backspace	Key.backspace	n/a
183.4885	0.045	366977	keystroke_Key.backspace	Key.backspace	n/a
183.593	0.0755	367186	keystroke_Key.backspace	Key.backspace	n/a
183.7285	0.06	367457	keystroke_Key.backspace	Key.backspace	n/a
183.8635	0.0745	367727	keystroke_Key.backspace	Key.backspace	n/a
184.269	0.075	368538	keystroke_v	v	n/a
184.314	0.074	368628	keystroke_e	e	n/a
184.419	0.105	368838	keystroke_s	s	n/a
184.494	0.089	368988	keystroke_t	t	n/a
184.613	0.09	369226	keystroke_Key.enter	Key.enter	n/a
184.7095	4.8715	369419	prompt	n/a	album davidson and pointed\n
185.9035	0.09	371807	keystroke_a	a	n/a
186.009	0.0745	372018	keystroke_l	l	n/a
186.1885	0.09	372377	keystroke_b	b	n/a
186.2635	0.105	372527	keystroke_u	u	n/a
186.5035	0.12	373007	keystroke_m	m	n/a
186.5785	0.136	373157	keystroke_Key.space	Key.space	n/a
186.8335	0.075	373667	keystroke_d	d	n/a
186.9395	0.074	373879	keystroke_a	a	n/a
187.524	0.06	375048	keystroke_v	v	n/a
187.614	0.09	375228	keystroke_i	i	n/a
187.734	0.059	375468	keystroke_d	d	n/a
187.929	0.0595	375858	keystroke_s	s	n/a
188.0035	0.105	376007	keystroke_o	o	n/a
188.0485	0.15	376097	keystroke_n	n	n/a
188.1385	0.12	376277	keystroke_Key.space	Key.space	n/a
188.3335	0.075	376667	keystroke_a	a	n/a
188.4385	0.075	376877	keystroke_n	n	n/a
188.4985	0.075	376997	keystroke_d	d	n/a
188.5585	0.09	377117	keystroke_Key.space	Key.space	n/a
188.6635	0.075	377327	keystroke_p	p	n/a
188.7095	0.0895	377419	keystroke_o	o	n/a
188.9185	0.075	377837	keystroke_i	i	n/a
188.9635	0.135	377927	keystroke_n	n	n/a
189.0835	0.0905	378167	keystroke_t	t	n/a
189.1585	0.15	378317	keystroke_e	e	n/a
189.2785	0.12	378557	keystroke_d	d	n/a
189.4735	0.105	378947	keystroke_Key.enter	Key.enter	n/a
189.5855	5.0955	379171	prompt	n/a	closely cdna thing taxi\n
190.6735	0.1195	381347	keystroke_c	c	n/a
190.808	0.061	381616	keystroke_l	l	n/a
190.929	0.0895	381858	keystroke_o	o	n/a
191.0335	0.045	382067	keystroke_s	s	n/a
191.1985	0.06	382397	keystroke_e	e	n/a
191.3185	0.075	382637	keystroke_l	l	n/a
191.4385	0.075	382877	keystroke_y	y	n/a
191.5745	0.119	383149	keystroke_Key.space	Key.space	n/a
192.1435	0.06	384287	keystroke_c	c	n/a
192.579	0.0595	385158	keystroke_d	d	n/a
192.8185	0.091	385637	keystroke_n	n	n/a
192.9685	0.075	385937	keystroke_a	a	n/a
193.1785	0.09	386357	keystroke_Key.space	Key.space	n/a
193.374	0.0595	386748	keystroke_t	t	n/a
193.448	0.075	386896	keystroke_h	h	n/a
193.4785	0.1195	386957	keystroke_i	i	n/a
193.568	0.09	387136	keystroke_n	n	n/a
193.643	0.06	387286	keystroke_g	g	n/a
193.7335	0.0895	387467	keystroke_Key.space	Key.space	n/a
193.868	0.046	387736	keystroke_t	t	n/a
193.974	0.075	387948	keystroke_a	a	n/a
194.229	0.06	388458	keystroke_x	x	n/a
194.364	0.075	388728	keystroke_i	i	n/a
194.604	0.075	389208	keystroke_Key.enter	Key.enter	n/a
194.685	4.6905	389370	prompt	n/a	necklace drops who'd depth\n
195.4735	0.075	390947	keystroke_c	c	n/a
195.7885	0.045	391577	keystroke_Key.backspace	Key.backspace	n/a
195.9685	0.075	391937	keystroke_n	n	n/a
196.0285	0.1355	392057	keystroke_e	e	n/a
196.119	0.075	392238	keystroke_c	c	n/a
196.179	0.075	392358	keystroke_k	k	n/a
196.359	0.09	392718	keystroke_l	l	n/a
196.464	0.06	392928	keystroke_a	a	n/a
196.629	0.075	393258	keystroke_c	c	n/a
196.673	0.075	393346	keystroke_e	e	n/a
196.763	0.105	393526	keystroke_Key.space	Key.space	n/a
196.913	0.076	393826	keystroke_d	d	n/a
197.079	0.06	394158	keystroke_r	r	n/a
197.123	0.091	394246	keystroke_o	o	n/a
197.169	0.075	394338	keystroke_p	p	n/a
197.273	0.046	394546	keystroke_s	s	n/a
197.349	0.114	394698	keystroke_Key.space	Key.space	n/a
197.514	0.0755	395028	keystroke_w	w	n/a
197.6635	0.105	395327	keystroke_h	h	n/a
197.754	0.0595	395508	keystroke_o	o	n/a
198.0245	0.104	396049	keystroke_'	'	n/a
198.1585	0.06	396317	keystroke_d	d	n/a
198.7435	0.076	397487	keystroke_Key.space	Key.space	n/a
198.8335	0.105	397667	keystroke_d	d	n/a
198.8785	0.0905	397757	keystroke_e	e	n/a
198.9985	0.091	397997	keystroke_p	p	n/a
199.1335	0.075	398267	keystroke_t	t	n/a
199.2095	0.059	398419	keystroke_h	h	n/a
199.284	0.089	398568	keystroke_Key.enter	Key.enter	n/a
199.379	5.6545	398758	prompt	n/a	intl likelihood appreciated promise\n
200.348	0.091	400696	keystroke_i	i	n/a
200.393	0.091	400786	keystroke_n	n	n/a
200.468	0.076	400936	keystroke_t	t	n/a
200.5585	0.1495	401117	keystroke_l	l	n/a
200.648	0.121	401296	keystroke_Key.space	Key.space	n/a
200.813	0.09	401626	keystroke_l	l	n/a
200.963	0.0905	401926	keystroke_i	i	n/a
201.0985	0.09	402197	keystroke_k	k	n/a
201.2035	0.06	402407	keystroke_e	e	n/a
201.4885	0.075	402977	keystroke_l	l	n/a
201.6535	0.0755	403307	keystroke_i	i	n/a
201.9235	0.06	403847	keystroke_h	h	n/a
202.1035	0.045	404207	keystroke_o	o	n/a
202.209	0.0745	404418	keystroke_o	o	n/a
202.3295	0.089	404659	keystroke_d	d	n/a
202.404	0.0895	404808	keystroke_Key.space	Key.space	n/a
202.554	0.075	405108	keystroke_a	a	n/a
202.674	0.0745	405348	keystroke_p	p	n/a
202.793	0.0905	405586	keystroke_p	p	n/a
202.913	0.091	405826	keystroke_r	r	n/a
202.973	0.075	405946	keystroke_e	e	n/a
203.108	0.106	406216	keystroke_c	c	n/a
203.273	0.091	406546	keystroke_i	i	n/a
203.393	0.09	406786	keystroke_a	a	n/a
203.574	0.074	407148	keystroke_t	t	n/a
203.603	0.15	407206	keystroke_e	e	n/a
203.708	0.121	407416	keystroke_d	d	n/a
203.798	0.075	407596	keystroke_Key.space	Key.space	n/a
203.9185	0.0745	407837	keystroke_p	p	n/a
204.009	0.074	408018	keystroke_r	r	n/a
204.128	0.105	408256	keystroke_o	o	n/a
204.3835	0.0605	408767	keystroke_m	m	n/a
204.504	0.075	409008	keystroke_i	i	n/a
204.624	0.075	409248	keystroke_s	s	n/a
204.759	0.06	409518	keystroke_e	e	n/a
204.909	0.12	409818	keystroke_Key.enter	Key.enter	n/a
205.0415	5.359	410083	prompt	n/a	supply gale shore what're\n
205.974	0.06	411948	keystroke_s	s	n/a
206.079	0.06	412158	keystroke_u	u	n/a
206.274	0.06	412548	keystroke_p	p	n/a
206.379	0.1195	412758	keystroke_p	p	n/a
206.4695	0.104	412939	keystroke_l	l	n/a
206.6035	0.075	413207	keystroke_y	y	n/a
206.6935	0.12	413387	keystroke_Key.space	Key.space	n/a
207.3235	0.06	414647	keystroke_g	g	n/a
207.4735	0.075	414947	keystroke_a	a	n/a
207.5785	0.075	415157	keystroke_l	l	n/a
207.684	0.0595	415368	keystroke_e	e	n/a
207.7585	0.075	415517	keystroke_Key.space	Key.space	n/a
207.8935	0.06	415787	keystroke_s	s	n/a
207.9845	0.089	415969	keystroke_h	h	n/a
208.0435	0.105	416087	keystroke_o	o	n/a
208.1495	0.074	416299	keystroke_r	r	n/a
208.1935	0.075	416387	keystroke_e	e	n/a
208.2695	0.119	416539	keystroke_Key.space	Key.space	n/a
208.7185	0.075	417437	keystroke_w	w	n/a
208.8245	0.074	417649	keystroke_h	h	n/a
208.8835	0.09	417767	keystroke_a	a	n/a
209.0635	0.105	418127	keystroke_r	r	n/a
209.1235	0.046	418247	keystroke_e	e	n/a
209.5135	0.045	419027	keystroke_Key.backspace	Key.backspace	n/a
209.619	0.06	419238	keystroke_Key.backspace	Key.backspace	n/a
209.7085	0.0755	419417	keystroke_t	t	n/a
209.844	0.09	419688	keystroke_'	'	n/a
209.948	0.091	419896	keystroke_r	r	n/a
209.994	0.075	419988	keystroke_e	e	n/a
210.294	0.104	420588	keystroke_Key.enter	Key.enter	n/a
210.405	4.511	420810	prompt	n/a	lexington rest claire cheers\n
211.194	0.06	422388	keystroke_l	l	n/a
211.374	0.015	422748	keystroke_i	i	n/a
211.749	0.075	423498	keystroke_Key.backspace	Key.backspace	n/a
211.839	0.06	423678	keystroke_e	e	n/a
212.0485	0.076	424097	keystroke_x	x	n/a
212.3335	0.105	424667	keystroke_i	i	n/a
212.3935	0.12	424787	keystroke_n	n	n/a
212.619	0.06	425238	keystroke_g	g	n/a
212.7845	0.0595	425569	keystroke_t	t	n/a
212.874	0.09	425748	keystroke_o	o	n/a
212.904	0.135	425808	keystroke_n	n	n/a
212.994	0.105	425988	keystroke_Key.space	Key.space	n/a
213.144	0.075	426288	keystroke_r	r	n/a
213.174	0.09	426348	keystroke_e	e	n/a
213.294	0.12	426588	keystroke_s	s	n/a
213.399	0.06	426798	keystroke_t	t	n/a
213.474	0.105	426948	keystroke_Key.space	Key.space	n/a
213.609	0.06	427218	keystroke_c	c	n/a
213.699	0.075	427398	keystroke_l	l	n/a
213.789	0.06	427578	keystroke_a	a	n/a
213.894	0.075	427788	keystroke_i	i	n/a
213.984	0.09	427968	keystroke_r	r	n/a
214.044	0.0595	428088	keystroke_e	e	n/a
214.089	0.09	428178	keystroke_Key.space	Key.space	n/a
214.224	0.0895	428448	keystroke_c	c	n/a
214.3435	0.0755	428687	keystroke_h	h	n/a
214.434	0.0755	428868	keystroke_e	e	n/a
214.5835	0.075	429167	keystroke_e	e	n/a
214.629	0.1195	429258	keystroke_r	r	n/a
214.7335	0.0755	429467	keystroke_s	s	n/a
214.8235	0.09	429647	keystroke_Key.enter	Key.enter	n/a
214.9205	7.3905	429841	prompt	n/a	timothy court analyzed recruitment\n
215.979	0.0755	431958	keystroke_t	t	n/a
216.1135	0.106	432227	keystroke_i	i	n/a
216.3235	0.0905	432647	keystroke_m	m	n/a
216.549	0.06	433098	keystroke_o	o	n/a
217.029	0.075	434058	keystroke_t	t	n/a
217.179	0.09	434358	keystroke_h	h	n/a
217.464	0.06	434928	keystroke_y	y	n/a
217.599	0.105	435198	keystroke_Key.space	Key.space	n/a
217.8545	0.0755	435709	keystroke_c	c	n/a
217.959	0.1195	435918	keystroke_o	o	n/a
218.0185	0.105	436037	keystroke_u	u	n/a
218.109	0.0745	436218	keystroke_r	r	n/a
218.289	0.0445	436578	keystroke_t	t	n/a
218.3935	0.09	436787	keystroke_Key.space	Key.space	n/a
218.5135	0.06	437027	keystroke_a	a	n/a
218.6185	0.0755	437237	keystroke_n	n	n/a
218.6785	0.076	437357	keystroke_a	a	n/a
218.8435	0.075	437687	keystroke_l	l	n/a
219.0385	0.06	438077	keystroke_u	u	n/a
219.399	0.061	438798	keystroke_Key.backspace	Key.backspace	n/a
219.594	0.075	439188	keystroke_y	y	n/a
219.684	0.09	439368	keystroke_z	z	n/a
219.879	0.135	439758	keystroke_e	e	n/a
220.029	0.0605	440058	keystroke_d	d	n/a
220.629	0.1045	441258	keystroke_Key.space	Key.space	n/a
220.7635	0.09	441527	keystroke_r	r	n/a
220.8245	0.075	441649	keystroke_e	e	n/a
220.9285	0.09	441857	keystroke_c	c	n/a
221.109	0.075	442218	keystroke_r	r	n/a
221.2445	0.0895	442489	keystroke_u	u	n/a
221.274	0.105	442548	keystroke_i	i	n/a
221.409	0.075	442818	keystroke_t	t	n/a
221.814	0.075	443628	keystroke_m	m	n/a
221.904	0.09	443808	keystroke_e	e	n/a
222.009	0.09	444018	keystroke_n	n	n/a
222.084	0.075	444168	keystroke_t	t	n/a
222.203	0.106	444406	keystroke_Key.enter	Key.enter	n/a
222.3145	5.982	444629	prompt	n/a	investigator minds contrary arbor\n
223.1635	0.12	446327	keystroke_i	i	n/a
223.2235	0.12	446447	keystroke_n	n	n/a
223.2695	0.09	446539	keystroke_v	v	n/a
223.314	0.1055	446628	keystroke_e	e	n/a
223.434	0.135	446868	keystroke_s	s	n/a
223.539	0.105	447078	keystroke_t	t	n/a
223.69	0.104	447380	keystroke_o	o	n/a
224.079	0.06	448158	keystroke_Key.backspace	Key.backspace	n/a
224.259	0.09	448518	keystroke_i	i	n/a
224.289	0.075	448578	keystroke_g	g	n/a
224.424	0.09	448848	keystroke_a	a	n/a
224.574	0.06	449148	keystroke_t	t	n/a
224.664	0.09	449328	keystroke_o	o	n/a
224.739	0.045	449478	keystroke_r	r	n/a
224.829	0.105	449658	keystroke_Key.space	Key.space	n/a
225.099	0.06	450198	keystroke_m	m	n/a
225.219	0.12	450438	keystroke_i	i	n/a
225.2945	0.1045	450589	keystroke_n	n	n/a
225.354	0.075	450708	keystroke_d	d	n/a
225.399	0.075	450798	keystroke_s	s	n/a
225.489	0.09	450978	keystroke_Key.space	Key.space	n/a
225.624	0.1055	451248	keystroke_c	c	n/a
225.714	0.0905	451428	keystroke_o	o	n/a
225.759	0.09	451518	keystroke_n	n	n/a
225.864	0.06	451728	keystroke_t	t	n/a
225.8945	0.0745	451789	keystroke_r	r	n/a
226.059	0.09	452118	keystroke_a	a	n/a
226.1945	0.0895	452389	keystroke_r	r	n/a
226.374	0.075	452748	keystroke_t	t	n/a
226.509	0.105	453018	keystroke_Key.space	Key.space	n/a
226.914	0.045	453828	keystroke_Key.backspace	Key.backspace	n/a
227.019	0.09	454038	keystroke_Key.backspace	Key.backspace	n/a
227.124	0.06	454248	keystroke_y	y	n/a
227.185	0.104	454370	keystroke_Key.space	Key.space	n/a
227.469	0.1355	454938	keystroke_a	a	n/a
227.5895	0.075	455179	keystroke_r	r	n/a
227.8445	0.075	455689	keystroke_b	b	n/a
227.9495	0.09	455899	keystroke_o	o	n/a
228.0845	0.075	456169	keystroke_r	r	n/a
228.2035	0.09	456407	keystroke_Key.enter	Key.enter	n/a
228.2995	5.8315	456599	prompt	n/a	fort stuffed iowa systematic\n
229.195	0.06	458390	keystroke_f	f	n/a
229.284	0.0905	458568	keystroke_o	o	n/a
229.3895	0.075	458779	keystroke_r	r	n/a
229.4195	0.105	458839	keystroke_t	t	n/a
229.5395	0.074	459079	keystroke_Key.space	Key.space	n/a
229.689	0.0605	459378	keystroke_s	s	n/a
229.7945	0.059	459589	keystroke_t	t	n/a
229.9445	0.089	459889	keystroke_u	u	n/a
230.0195	0.209	460039	keystroke_f	f	n/a
230.2445	0.119	460489	keystroke_e	e	n/a
230.3335	0.045	460667	keystroke_d	d	n/a
230.559	0.06	461118	keystroke_Key.backspace	Key.backspace	n/a
230.664	0.075	461328	keystroke_Key.backspace	Key.backspace	n/a
230.724	0.135	461448	keystroke_f	f	n/a
230.814	0.15	461628	keystroke_e	e	n/a
230.904	0.1645	461808	keystroke_d	d	n/a
231.009	0.0895	462018	keystroke_Key.space	Key.space	n/a
231.5335	0.091	463067	keystroke_i	i	n/a
231.7745	0.089	463549	keystroke_o	o	n/a
231.9095	0.089	463819	keystroke_w	w	n/a
232.3745	0.074	464749	keystroke_a	a	n/a
232.659	0.12	465318	keystroke_Key.space	Key.space	n/a
232.839	0.076	465678	keystroke_s	s	n/a
233.034	0.06	466068	keystroke_y	y	n/a
233.109	0.075	466218	keystroke_s	s	n/a
233.2745	0.0595	466549	keystroke_t	t	n/a
233.3195	0.0755	466639	keystroke_e	e	n/a
233.424	0.105	466848	keystroke_m	m	n/a
233.544	0.075	467088	keystroke_a	a	n/a
233.724	0.045	467448	keystroke_t	t	n/a
233.814	0.105	467628	keystroke_i	i	n/a
233.874	0.09	467748	keystroke_c	c	n/a
234.039	0.09	468078	keystroke_Key.enter	Key.enter	n/a
234.1345	3.567	468269	prompt	n/a	nation holding timely cant\n
234.8785	0.09	469757	keystroke_n	n	n/a
234.9535	0.076	469907	keystroke_a	a	n/a
235.1035	0.0905	470207	keystroke_t	t	n/a
235.1635	0.09	470327	keystroke_i	i	n/a
235.2235	0.0755	470447	keystroke_o	o	n/a
235.329	0.105	470658	keystroke_n	n	n/a
235.404	0.1055	470808	keystroke_Key.space	Key.space	n/a
235.569	0.12	471138	keystroke_h	h	n/a
235.6745	0.0745	471349	keystroke_o	o	n/a
235.779	0.09	471558	keystroke_l	l	n/a
235.899	0.0755	471798	keystroke_d	d	n/a
235.989	0.075	471978	keystroke_i	i	n/a
236.049	0.09	472098	keystroke_n	n	n/a
236.079	0.075	472158	keystroke_g	g	n/a
236.169	0.06	472338	keystroke_Key.space	Key.space	n/a
236.514	0.06	473028	keystroke_t	t	n/a
236.619	0.075	473238	keystroke_i	i	n/a
236.649	0.06	473298	keystroke_m	m	n/a
236.725	0.074	473450	keystroke_e	e	n/a
236.814	0.09	473628	keystroke_l	l	n/a
237.0085	0.061	474017	keystroke_y	y	n/a
237.099	0.1195	474198	keystroke_Key.space	Key.space	n/a
237.2335	0.0455	474467	keystroke_c	c	n/a
237.309	0.09	474618	keystroke_a	a	n/a
237.429	0.0605	474858	keystroke_n	n	n/a
237.504	0.106	475008	keystroke_t	t	n/a
237.624	0.075	475248	keystroke_Key.enter	Key.enter	n/a
237.708	6.413	475416	prompt	n/a	shoppers health drunk compounds\n
237.744	0.03	475488	keystroke_Key.space	Key.space	n/a
238.4645	0.074	476929	keystroke_s	s	n/a
238.5835	0.075	477167	keystroke_h	h	n/a
238.824	0.06	477648	keystroke_o	o	n/a
239.004	0.045	478008	keystroke_p	p	n/a
239.109	0.09	478218	keystroke_p	p	n/a
239.215	0.0745	478430	keystroke_e	e	n/a
239.2745	0.105	478549	keystroke_r	r	n/a
239.3945	0.0655	478789	keystroke_s	s	n/a
239.469	0.09	478938	keystroke_Key.space	Key.space	n/a
239.694	0.075	479388	keystroke_h	h	n/a
239.74	0.0895	479480	keystroke_e	e	n/a
239.7985	0.1205	479597	keystroke_a	a	n/a
239.9335	0.075	479867	keystroke_l	l	n/a
240.0535	0.0905	480107	keystroke_t	t	n/a
240.1285	0.105	480257	keystroke_h	h	n/a
240.2035	0.12	480407	keystroke_Key.space	Key.space	n/a
240.5935	0.046	481187	keystroke_d	d	n/a
240.7735	0.046	481547	keystroke_r	r	n/a
240.8945	0.089	481789	keystroke_u	u	n/a
241.119	0.135	482238	keystroke_n	n	n/a
241.164	0.135	482328	keystroke_k	k	n/a
241.239	0.105	482478	keystroke_Key.space	Key.space	n/a
241.914	0.135	483828	keystroke_c	c	n/a
242.034	0.12	484068	keystroke_o	o	n/a
242.094	0.105	484188	keystroke_m	m	n/a
242.244	0.15	484488	keystroke_p	p	n/a
242.349	0.09	484698	keystroke_i	i	n/a
242.364	0.094	484728	keystroke_u	u	n/a
242.844	0.03	485688	keystroke_Key.backspace	Key.backspace	n/a
242.9335	0.0755	485867	keystroke_Key.backspace	Key.backspace	n/a
243.1595	0.089	486319	keystroke_o	o	n/a
243.219	0.06	486438	keystroke_u	u	n/a
243.354	0.109	486708	keystroke_n	n	n/a
243.5185	0.09	487037	keystroke_d	d	n/a
243.5335	0.1055	487067	keystroke_s	s	n/a
243.9985	0.12	487997	keystroke_Key.enter	Key.enter	n/a
244.1245	9.4015	488249	prompt	n/a	vulnerability flashing beam namibia\n
246.2055	0.028	492411	keystroke_v	v	n/a
246.2785	0.075	492557	keystroke_u	u	n/a
246.4745	0.074	492949	keystroke_l	l	n/a
246.669	0.075	493338	keystroke_n	n	n/a
246.879	0.105	493758	keystroke_e	e	n/a
246.939	0.09	493878	keystroke_r	r	n/a
247.134	0.075	494268	keystroke_a	a	n/a
247.254	0.075	494508	keystroke_b	b	n/a
247.465	0.014	494930	keystroke_o	o	n/a
247.554	0.075	495108	keystroke_l	l	n/a
247.705	0.089	495410	keystroke_i	i	n/a
247.779	0.09	495558	keystroke_t	t	n/a
247.839	0.075	495678	keystroke_y	y	n/a
247.944	0.0895	495888	keystroke_Key.space	Key.space	n/a
248.6935	0.061	497387	keystroke_f	f	n/a
248.8145	0.09	497629	keystroke_l	l	n/a
248.9195	0.075	497839	keystroke_a	a	n/a
248.9785	0.121	497957	keystroke_s	s	n/a
249.0845	0.075	498169	keystroke_h	h	n/a
249.1285	0.136	498257	keystroke_i	i	n/a
249.2195	0.09	498439	keystroke_n	n	n/a
249.3245	0.06	498649	keystroke_g	g	n/a
249.3985	0.061	498797	keystroke_Key.space	Key.space	n/a
249.5635	0.076	499127	keystroke_b	b	n/a
249.6545	0.06	499309	keystroke_e	e	n/a
249.6845	0.105	499369	keystroke_a	a	n/a
249.8035	0.106	499607	keystroke_m	m	n/a
249.8785	0.12	499757	keystroke_Key.space	Key.space	n/a
250.464	0.0755	500928	keystroke_b	b	n/a
251.3035	0.046	502607	keystroke_Key.backspace	Key.backspace	n/a
251.4845	0.06	502969	keystroke_n	n	n/a
251.5735	0.075	503147	keystroke_a	a	n/a
252.0535	0.091	504107	keystroke_m	m	n/a
252.2935	0.075	504587	keystroke_i	i	n/a
252.5035	0.091	505007	keystroke_b	b	n/a
252.6245	0.059	505249	keystroke_o	o	n/a
252.6245	0.075	505249	keystroke_i	i	n/a
253.029	0.0445	506058	keystroke_Key.backspace	Key.backspace	n/a
253.2685	0.076	506537	keystroke_a	a	n/a
253.419	0.105	506838	keystroke_Key.enter	Key.enter	n/a
253.53	6.0115	507060	prompt	n/a	comparisons sweet calendars establish\n
254.3185	0.076	508637	keystroke_c	c	n/a
254.379	0.0895	508758	keystroke_o	o	n/a
254.4605	0.099	508921	keystroke_m	m	n/a
254.5745	0.089	509149	keystroke_p	p	n/a
254.6495	0.134	509299	keystroke_a	a	n/a
254.7535	0.075	509507	keystroke_r	r	n/a
254.8445	0.089	509689	keystroke_i	i	n/a
254.964	0.0895	509928	keystroke_s	s	n/a
255.0995	0.119	510199	keystroke_o	o	n/a
255.1735	0.105	510347	keystroke_n	n	n/a
255.2645	0.059	510529	keystroke_s	s	n/a
255.3685	0.1055	510737	keystroke_Key.space	Key.space	n/a
255.609	0.06	511218	keystroke_s	s	n/a
255.834	0.09	511668	keystroke_w	w	n/a
255.894	0.061	511788	keystroke_e	e	n/a
256.0295	0.0895	512059	keystroke_e	e	n/a
256.2385	0.075	512477	keystroke_t	t	n/a
256.329	0.1195	512658	keystroke_Key.space	Key.space	n/a
256.4495	0.075	512899	keystroke_c	c	n/a
256.5385	0.09	513077	keystroke_a	a	n/a
256.6735	0.09	513347	keystroke_l	l	n/a
256.8035	0.08	513607	keystroke_e	e	n/a
256.9435	0.09	513887	keystroke_n	n	n/a
257.2435	0.075	514487	keystroke_d	d	n/a
257.364	0.1495	514728	keystroke_a	a	n/a
257.4835	0.075	514967	keystroke_r	r	n/a
257.9035	0.076	515807	keystroke_s	s	n/a
258.144	0.0895	516288	keystroke_Key.space	Key.space	n/a
258.2485	0.075	516497	keystroke_e	e	n/a
258.3835	0.091	516767	keystroke_s	s	n/a
258.5485	0.075	517097	keystroke_t	t	n/a
258.6985	0.09	517397	keystroke_a	a	n/a
258.8185	0.076	517637	keystroke_b	b	n/a
258.9985	0.075	517997	keystroke_l	l	n/a
259.1635	0.06	518327	keystroke_i	i	n/a
259.2535	0.0755	518507	keystroke_s	s	n/a
259.344	0.0745	518688	keystroke_h	h	n/a
259.4635	0.075	518927	keystroke_Key.enter	Key.enter	n/a
259.5445	5.4415	519089	prompt	n/a	drives positive belief montgomery\n
260.364	0.06	520728	keystroke_d	d	n/a
260.529	0.06	521058	keystroke_r	r	n/a
260.604	0.12	521208	keystroke_i	i	n/a
260.679	0.0895	521358	keystroke_v	v	n/a
260.739	0.0895	521478	keystroke_e	e	n/a
260.8585	0.076	521717	keystroke_s	s	n/a
260.9345	0.104	521869	keystroke_Key.space	Key.space	n/a
261.174	0.0905	522348	keystroke_p	p	n/a
261.2035	0.122	522407	keystroke_o	o	n/a
261.3085	0.075	522617	keystroke_s	s	n/a
261.4585	0.06	522917	keystroke_i	i	n/a
261.5485	0.0605	523097	keystroke_t	t	n/a
261.6235	0.09	523247	keystroke_i	i	n/a
261.7435	0.06	523487	keystroke_v	v	n/a
261.7735	0.09	523547	keystroke_e	e	n/a
261.8785	0.075	523757	keystroke_Key.space	Key.space	n/a
262.104	0.075	524208	keystroke_b	b	n/a
262.194	0.06	524388	keystroke_e	e	n/a
262.284	0.075	524568	keystroke_l	l	n/a
262.419	0.09	524838	keystroke_i	i	n/a
262.554	0.12	525108	keystroke_e	e	n/a
262.629	0.165	525258	keystroke_f	f	n/a
263.303	0.091	526606	keystroke_Key.space	Key.space	n/a
263.469	0.135	526938	keystroke_m	m	n/a
263.559	0.165	527118	keystroke_o	o	n/a
263.679	0.135	527358	keystroke_n	n	n/a
263.829	0.045	527658	keystroke_t	t	n/a
264.039	0.06	528078	keystroke_g	g	n/a
264.114	0.12	528228	keystroke_o	o	n/a
264.204	0.12	528408	keystroke_m	m	n/a
264.369	0.1195	528738	keystroke_e	e	n/a
264.4435	0.105	528887	keystroke_r	r	n/a
264.639	0.09	529278	keystroke_y	y	n/a
264.894	0.0895	529788	keystroke_Key.enter	Key.enter	n/a
264.9905	4.4205	529981	prompt	n/a	clark selections fetish pressing\n
265.6885	0.0755	531377	keystroke_c	c	n/a
265.794	0.09	531588	keystroke_l	l	n/a
265.8685	0.106	531737	keystroke_a	a	n/a
265.9435	0.076	531887	keystroke_r	r	n/a
266.0045	0.135	532009	keystroke_k	k	n/a
266.0785	0.135	532157	keystroke_Key.space	Key.space	n/a
266.2155	0.059	532431	keystroke_s	s	n/a
266.4095	0.075	532819	keystroke_e	e	n/a
266.6195	0.075	533239	keystroke_l	l	n/a
266.6955	0.089	533391	keystroke_e	e	n/a
266.7545	0.075	533509	keystroke_c	c	n/a
266.95	0.059	533900	keystroke_t	t	n/a
266.994	0.0905	533988	keystroke_i	i	n/a
267.024	0.0755	534048	keystroke_o	o	n/a
267.159	0.0895	534318	keystroke_n	n	n/a
267.2635	0.03	534527	keystroke_s	s	n/a
267.309	0.1045	534618	keystroke_Key.space	Key.space	n/a
267.6995	0.075	535399	keystroke_f	f	n/a
267.7435	0.076	535487	keystroke_e	e	n/a
267.939	0.06	535878	keystroke_t	t	n/a
268.029	0.09	536058	keystroke_i	i	n/a
268.1495	0.075	536299	keystroke_s	s	n/a
268.254	0.1045	536508	keystroke_h	h	n/a
268.314	0.12	536628	keystroke_Key.space	Key.space	n/a
268.629	0.09	537258	keystroke_p	p	n/a
268.704	0.075	537408	keystroke_r	r	n/a
268.764	0.045	537528	keystroke_e	e	n/a
268.869	0.0605	537738	keystroke_s	s	n/a
269.004	0.0745	538008	keystroke_s	s	n/a
269.1085	0.091	538217	keystroke_i	i	n/a
269.1685	0.075	538337	keystroke_n	n	n/a
269.2135	0.075	538427	keystroke_g	g	n/a
269.3185	0.09	538637	keystroke_Key.enter	Key.enter	n/a
269.415	7.556	538830	prompt	n/a	switched harassment reflects virtually\n
270.2345	0.06	540469	keystroke_s	s	n/a
270.4145	0.0745	540829	keystroke_w	w	n/a
270.504	0.09	541008	keystroke_i	i	n/a
270.609	0.06	541218	keystroke_t	t	n/a
270.76	0.089	541520	keystroke_c	c	n/a
270.85	0.105	541700	keystroke_h	h	n/a
270.909	0.135	541818	keystroke_e	e	n/a
270.984	0.1355	541968	keystroke_d	d	n/a
271.1035	0.106	542207	keystroke_Key.space	Key.space	n/a
271.3745	0.105	542749	keystroke_h	h	n/a
271.4335	0.106	542867	keystroke_a	a	n/a
271.5245	0.06	543049	keystroke_r	r	n/a
271.704	0.075	543408	keystroke_a	a	n/a
272.394	0.067	544788	keystroke_s	s	n/a
272.499	0.075	544998	keystroke_s	s	n/a
272.649	0.09	545298	keystroke_m	m	n/a
272.724	0.09	545448	keystroke_e	e	n/a
272.829	0.06	545658	keystroke_n	n	n/a
272.919	0.045	545838	keystroke_t	t	n/a
272.979	0.105	545958	keystroke_Key.space	Key.space	n/a
273.459	0.075	546918	keystroke_f	f	n/a
273.595	0.074	547190	keystroke_e	e	n/a
274.344	0.046	548688	keystroke_Key.backspace	Key.backspace	n/a
274.449	0.075	548898	keystroke_Key.backspace	Key.backspace	n/a
274.509	0.075	549018	keystroke_r	r	n/a
274.554	0.091	549108	keystroke_e	e	n/a
274.839	0.075	549678	keystroke_f	f	n/a
274.959	0.09	549918	keystroke_l	l	n/a
275.079	0.135	550158	keystroke_e	e	n/a
275.169	0.105	550338	keystroke_c	c	n/a
275.409	0.075	550818	keystroke_t	t	n/a
275.459	0.085	550918	keystroke_s	s	n/a
275.529	0.105	551058	keystroke_Key.space	Key.space	n/a
275.949	0.06	551898	keystroke_v	v	n/a
276.054	0.075	552108	keystroke_i	i	n/a
276.144	0.076	552288	keystroke_r	r	n/a
276.189	0.09	552378	keystroke_t	t	n/a
276.325	0.074	552650	keystroke_u	u	n/a
276.429	0.076	552858	keystroke_a	a	n/a
276.534	0.075	553068	keystroke_l	l	n/a
276.639	0.105	553278	keystroke_l	l	n/a
276.729	0.061	553458	keystroke_y	y	n/a
276.879	0.09	553758	keystroke_Key.enter	Key.enter	n/a
276.9745	4.0465	553949	prompt	n/a	dublin eagle older centers\n
277.8545	0.0595	555709	keystroke_d	d	n/a
277.9885	0.075	555977	keystroke_u	u	n/a
278.1085	0.06	556217	keystroke_b	b	n/a
278.2295	0.074	556459	keystroke_l	l	n/a
278.3785	0.105	556757	keystroke_i	i	n/a
278.4585	0.115	556917	keystroke_n	n	n/a
278.5145	0.119	557029	keystroke_Key.space	Key.space	n/a
278.6935	0.075	557387	keystroke_e	e	n/a
278.8735	0.075	557747	keystroke_a	a	n/a
278.9935	0.06	557987	keystroke_h	h	n/a
279.159	0.0745	558318	keystroke_l	l	n/a
279.2185	0.06	558437	keystroke_e	e	n/a
279.294	0.09	558588	keystroke_Key.space	Key.space	n/a
279.4285	0.1655	558857	keystroke_o	o	n/a
279.5785	0.12	559157	keystroke_l	l	n/a
279.609	0.1045	559218	keystroke_d	d	n/a
279.7735	0.076	559547	keystroke_e	e	n/a
279.8185	0.091	559637	keystroke_r	r	n/a
279.9545	0.0895	559909	keystroke_Key.space	Key.space	n/a
280.314	0.09	560628	keystroke_c	c	n/a
280.359	0.12	560718	keystroke_e	e	n/a
280.5095	0.0895	561019	keystroke_n	n	n/a
280.569	0.06	561138	keystroke_t	t	n/a
280.675	0.089	561350	keystroke_e	e	n/a
280.734	0.09	561468	keystroke_r	r	n/a
280.839	0.061	561678	keystroke_s	s	n/a
280.914	0.1045	561828	keystroke_Key.enter	Key.enter	n/a
281.026	9.4755	562052	prompt	n/a	coupons norman molecular waste\n
281.7835	0.105	563567	keystroke_c	c	n/a
281.9035	0.09	563807	keystroke_o	o	n/a
281.9635	0.075	563927	keystroke_u	u	n/a
282.099	0.1495	564198	keystroke_p	p	n/a
282.2195	0.074	564439	keystroke_o	o	n/a
282.6985	0.06	565397	keystroke_Key.backspace	Key.backspace	n/a
282.9685	0.106	565937	keystroke_i	i	n/a
283.0585	0.105	566117	keystroke_n	n	n/a
283.554	0.0295	567108	keystroke_Key.backspace	Key.backspace	n/a
283.6435	0.075	567287	keystroke_Key.backspace	Key.backspace	n/a
283.854	0.09	567708	keystroke_o	o	n/a
283.9135	0.075	567827	keystroke_n	n	n/a
283.9895	0.044	567979	keystroke_s	s	n/a
284.0635	0.105	568127	keystroke_Key.space	Key.space	n/a
284.709	0.0905	569418	keystroke_n	n	n/a
284.8135	0.09	569627	keystroke_o	o	n/a
284.9335	0.0605	569867	keystroke_r	r	n/a
285.0085	0.09	570017	keystroke_m	m	n/a
285.1285	0.09	570257	keystroke_a	a	n/a
285.2335	0.1055	570467	keystroke_l	l	n/a
285.5935	0.0605	571187	keystroke_Key.backspace	Key.backspace	n/a
285.789	0.1045	571578	keystroke_n	n	n/a
285.8335	0.135	571667	keystroke_Key.space	Key.space	n/a
286.2685	0.075	572537	keystroke_m	m	n/a
286.9135	0.06	573827	keystroke_o	o	n/a
286.9285	0.03	573857	keystroke_0	0	n/a
287.094	0.0895	574188	keystroke_l	l	n/a
287.2285	0.061	574457	keystroke_e	e	n/a
287.3785	0.045	574757	keystroke_v	v	n/a
287.5295	0.0745	575059	keystroke_u	u	n/a
287.844	0.046	575688	keystroke_Key.backspace	Key.backspace	n/a
287.949	0.06	575898	keystroke_Key.backspace	Key.backspace	n/a
288.069	0.06	576138	keystroke_Key.backspace	Key.backspace	n/a
288.204	0.045	576408	keystroke_Key.backspace	Key.backspace	n/a
288.324	0.075	576648	keystroke_Key.backspace	Key.backspace	n/a
288.55	0.074	577100	keystroke_l	l	n/a
288.669	0.1205	577338	keystroke_e	e	n/a
289.0595	0.104	578119	keystroke_c	c	n/a
289.179	0.0605	578358	keystroke_u	u	n/a
289.3435	0.076	578687	keystroke_l	l	n/a
289.3885	0.136	578777	keystroke_a	a	n/a
289.509	0.0595	579018	keystroke_r	r	n/a
289.5835	0.105	579167	keystroke_Key.space	Key.space	n/a
289.854	0.06	579708	keystroke_w	w	n/a
289.9595	0.1045	579919	keystroke_a	a	n/a
290.154	0.0455	580308	keystroke_s	s	n/a
290.259	0.09	580518	keystroke_t	t	n/a
290.319	0.105	580638	keystroke_e	e	n/a
290.394	0.105	580788	keystroke_Key.enter	Key.enter	n/a
290.5055	8.2465	581011	prompt	n/a	barbie kissing amenities environment\n
291.3845	0.06	582769	keystroke_v	v	n/a
291.3995	0.015	582799	keystroke_b	b	n/a
291.5645	0.0895	583129	keystroke_a	a	n/a
291.819	0.03	583638	keystroke_=	=	n/a
291.924	0.06	583848	keystroke_Key.backspace	Key.backspace	n/a
292.104	0.045	584208	keystroke_Key.backspace	Key.backspace	n/a
292.224	0.06	584448	keystroke_Key.backspace	Key.backspace	n/a
292.359	0.06	584718	keystroke_Key.backspace	Key.backspace	n/a
292.494	0.06	584988	keystroke_Key.backspace	Key.backspace	n/a
292.5245	0.0595	585049	keystroke_v	v	n/a
293.1995	0.074	586399	keystroke_Key.backspace	Key.backspace	n/a
293.409	0.06	586818	keystroke_b	b	n/a
293.604	0.12	587208	keystroke_a	a	n/a
293.6795	0.1045	587359	keystroke_r	r	n/a
293.829	0.0895	587658	keystroke_b	b	n/a
293.8895	0.105	587779	keystroke_i	i	n/a
293.9495	0.075	587899	keystroke_e	e	n/a
294.0845	0.09	588169	keystroke_Key.space	Key.space	n/a
294.461	0.088	588922	keystroke_k	k	n/a
294.5935	0.06	589187	keystroke_i	i	n/a
294.6835	0.061	589367	keystroke_s	s	n/a
294.8185	0.061	589637	keystroke_s	s	n/a
294.9095	0.075	589819	keystroke_i	i	n/a
294.9545	0.0745	589909	keystroke_n	n	n/a
295.0135	0.0755	590027	keystroke_g	g	n/a
295.1035	0.075	590207	keystroke_Key.space	Key.space	n/a
295.2235	0.061	590447	keystroke_a	a	n/a
295.3135	0.09	590627	keystroke_m	m	n/a
295.4335	0.075	590867	keystroke_e	e	n/a
295.5685	0.0755	591137	keystroke_n	n	n/a
295.824	0.075	591648	keystroke_i	i	n/a
296.109	0.06	592218	keystroke_t	t	n/a
296.259	0.09	592518	keystroke_i	i	n/a
296.409	0.075	592818	keystroke_e	e	n/a
296.544	0.075	593088	keystroke_s	s	n/a
296.679	0.09	593358	keystroke_Key.space	Key.space	n/a
296.8295	0.0595	593659	keystroke_e	e	n/a
296.949	0.0755	593898	keystroke_n	n	n/a
297.069	0.091	594138	keystroke_v	v	n/a
297.189	0.075	594378	keystroke_i	i	n/a
297.204	0.045	594408	keystroke_u	u	n/a
297.6695	0.06	595339	keystroke_Key.backspace	Key.backspace	n/a
298.0745	0.0595	596149	keystroke_r	r	n/a
298.1495	0.0745	596299	keystroke_o	o	n/a
298.195	0.0595	596390	keystroke_n	n	n/a
298.344	0.0745	596688	keystroke_m	m	n/a
298.4335	0.06	596867	keystroke_e	e	n/a
298.4945	0.09	596989	keystroke_n	n	n/a
298.5845	0.044	597169	keystroke_t	t	n/a
298.6585	0.09	597317	keystroke_Key.enter	Key.enter	n/a
298.7565	4.0445	597513	prompt	n/a	writers into explained heath\n
299.679	0.075	599358	keystroke_w	w	n/a
299.919	0.015	599838	keystroke_r	r	n/a
299.964	0.075	599928	keystroke_i	i	n/a
300.114	0.15	600228	keystroke_t	t	n/a
300.234	0.105	600468	keystroke_e	e	n/a
300.324	0.12	600648	keystroke_r	r	n/a
300.429	0.09	600858	keystroke_s	s	n/a
300.579	0.09	601158	keystroke_Key.space	Key.space	n/a
300.714	0.09	601428	keystroke_i	i	n/a
300.774	0.09	601548	keystroke_n	n	n/a
300.834	0.06	601668	keystroke_t	t	n/a
300.909	0.12	601818	keystroke_o	o	n/a
300.984	0.12	601968	keystroke_Key.space	Key.space	n/a
301.194	0.06	602388	keystroke_e	e	n/a
301.389	0.075	602778	keystroke_x	x	n/a
301.434	0.075	602868	keystroke_p	p	n/a
301.465	0.059	602930	keystroke_l	l	n/a
301.644	0.075	603288	keystroke_a	a	n/a
301.734	0.0905	603468	keystroke_i	i	n/a
301.7645	0.12	603529	keystroke_n	n	n/a
301.8705	0.074	603741	keystroke_e	e	n/a
301.9155	0.105	603831	keystroke_d	d	n/a
302.0235	0.0705	604047	keystroke_Key.space	Key.space	n/a
302.29	0.074	604580	keystroke_h	h	n/a
302.349	0.09	604698	keystroke_e	e	n/a
302.41	0.119	604820	keystroke_a	a	n/a
302.484	0.09	604968	keystroke_l	l	n/a
302.589	0.09	605178	keystroke_t	t	n/a
302.664	0.03	605328	keystroke_h	h	n/a
302.784	0.015	605568	keystroke_Key.enter	Key.enter	n/a
302.8055	8.036	605611	prompt	n/a	crossing terrorists bless house\n
304.524	0.075	609048	keystroke_c	c	n/a
304.704	0.06	609408	keystroke_r	r	n/a
304.794	0.09	609588	keystroke_o	o	n/a
304.899	0.06	609798	keystroke_s	s	n/a
305.034	0.075	610068	keystroke_s	s	n/a
305.139	0.074	610278	keystroke_i	i	n/a
305.169	0.0745	610338	keystroke_n	n	n/a
305.2585	0.061	610517	keystroke_g	g	n/a
305.3485	0.075	610697	keystroke_Key.space	Key.space	n/a
305.6035	0.06	611207	keystroke_t	t	n/a
305.6485	0.1205	611297	keystroke_e	e	n/a
305.754	0.076	611508	keystroke_r	r	n/a
305.889	0.09	611778	keystroke_r	r	n/a
306.024	0.075	612048	keystroke_o	o	n/a
306.1595	0.075	612319	keystroke_s	s	n/a
306.2945	0.075	612589	keystroke_i	i	n/a
306.3835	0.079	612767	keystroke_s	s	n/a
306.774	0.045	613548	keystroke_Key.backspace	Key.backspace	n/a
306.879	0.075	613758	keystroke_Key.backspace	Key.backspace	n/a
308.304	0.06	616608	keystroke_Key.backspace	Key.backspace	n/a
308.469	0.0595	616938	keystroke_r	r	n/a
308.5885	0.076	617177	keystroke_i	i	n/a
308.6785	0.076	617357	keystroke_s	s	n/a
308.7685	0.091	617537	keystroke_t	t	n/a
308.8445	0.09	617689	keystroke_s	s	n/a
309.309	0.09	618618	keystroke_Key.space	Key.space	n/a
309.504	0.0605	619008	keystroke_b	b	n/a
309.6845	0.089	619369	keystroke_l	l	n/a
309.8045	0.074	619609	keystroke_e	e	n/a
309.9845	0.045	619969	keystroke_s	s	n/a
310.0895	0.09	620179	keystroke_s	s	n/a
310.1935	0.09	620387	keystroke_Key.space	Key.space	n/a
310.344	0.075	620688	keystroke_h	h	n/a
310.449	0.121	620898	keystroke_o	o	n/a
310.54	0.074	621080	keystroke_i	i	n/a
310.599	0.045	621198	keystroke_s	s	n/a
310.629	0.075	621258	keystroke_e	e	n/a
310.734	0.105	621468	keystroke_Key.enter	Key.enter	n/a
310.845	6.446	621690	prompt	n/a	medicine photo receive most\n
311.7395	0.0895	623479	keystroke_m	m	n/a
311.799	0.06	623598	keystroke_e	e	n/a
311.964	0.075	623928	keystroke_d	d	n/a
312.054	0.0595	624108	keystroke_i	i	n/a
312.129	0.0895	624258	keystroke_c	c	n/a
312.2035	0.1205	624407	keystroke_i	i	n/a
312.309	0.09	624618	keystroke_n	n	n/a
312.414	0.0745	624828	keystroke_e	e	n/a
312.474	0.09	624948	keystroke_Key.space	Key.space	n/a
312.654	0.075	625308	keystroke_p	p	n/a
312.8345	0.0895	625669	keystroke_h	h	n/a
312.9085	0.0905	625817	keystroke_o	o	n/a
313.0295	0.0595	626059	keystroke_t	t	n/a
313.1185	0.09	626237	keystroke_Key.space	Key.space	n/a
313.839	0.045	627678	keystroke_Key.backspace	Key.backspace	n/a
313.974	0.06	627948	keystroke_Key.backspace	Key.backspace	n/a
314.529	0.06	629058	keystroke_t	t	n/a
314.6045	0.1045	629209	keystroke_o	o	n/a
314.664	0.1195	629328	keystroke_Key.space	Key.space	n/a
315.4145	0.059	630829	keystroke_r	r	n/a
315.4435	0.06	630887	keystroke_e	e	n/a
315.5645	0.104	631129	keystroke_c	c	n/a
315.6535	0.076	631307	keystroke_e	e	n/a
315.7585	0.091	631517	keystroke_i	i	n/a
315.864	0.0895	631728	keystroke_v	v	n/a
315.924	0.0755	631848	keystroke_e	e	n/a
316.134	0.1055	632268	keystroke_Key.space	Key.space	n/a
316.66	0.134	633320	keystroke_m	m	n/a
316.734	0.09	633468	keystroke_o	o	n/a
316.779	0.09	633558	keystroke_s	s	n/a
316.854	0.0755	633708	keystroke_t	t	n/a
317.184	0.105	634368	keystroke_Key.enter	Key.enter	n/a
317.2955	4.961	634591	prompt	n/a	population basically pain dispatch\n
318.129	0.105	636258	keystroke_p	p	n/a
318.189	0.18	636378	keystroke_o	o	n/a
318.354	0.105	636708	keystroke_p	p	n/a
318.625	0.044	637250	keystroke_u	u	n/a
318.759	0.0905	637518	keystroke_l	l	n/a
318.834	0.0905	637668	keystroke_a	a	n/a
318.9995	0.06	637999	keystroke_t	t	n/a
319.0295	0.09	638059	keystroke_i	i	n/a
319.0745	0.105	638149	keystroke_o	o	n/a
319.2095	0.105	638419	keystroke_n	n	n/a
319.2685	0.106	638537	keystroke_Key.space	Key.space	n/a
319.3895	0.105	638779	keystroke_b	b	n/a
319.4645	0.09	638929	keystroke_a	a	n/a
319.5245	0.06	639049	keystroke_s	s	n/a
319.6145	0.075	639229	keystroke_i	i	n/a
319.6745	0.09	639349	keystroke_c	c	n/a
319.7795	0.09	639559	keystroke_a	a	n/a
319.8545	0.075	639709	keystroke_l	l	n/a
319.9595	0.075	639919	keystroke_l	l	n/a
320.0195	0.076	640039	keystroke_y	y	n/a
320.1245	0.134	640249	keystroke_Key.space	Key.space	n/a
320.5445	0.074	641089	keystroke_p	p	n/a
320.6345	0.074	641269	keystroke_a	a	n/a
320.7385	0.105	641477	keystroke_i	i	n/a
320.7695	0.12	641539	keystroke_n	n	n/a
320.859	0.1045	641718	keystroke_Key.space	Key.space	n/a
321.2035	0.06	642407	keystroke_d	d	n/a
321.3235	0.076	642647	keystroke_i	i	n/a
321.4135	0.06	642827	keystroke_s	s	n/a
321.5185	0.0905	643037	keystroke_p	p	n/a
321.759	0.076	643518	keystroke_a	a	n/a
321.924	0.06	643848	keystroke_t	t	n/a
322.014	0.075	644028	keystroke_h	h	n/a
322.149	0.1045	644298	keystroke_Key.enter	Key.enter	n/a
322.26	4.706	644520	prompt	n/a	knowing quite disease iceland\n
323.154	0.09	646308	keystroke_k	k	n/a
323.214	0.165	646428	keystroke_n	n	n/a
323.334	0.075	646668	keystroke_o	o	n/a
323.364	0.1	646728	keystroke_w	w	n/a
323.964	0.09	647928	keystroke_i	i	n/a
324.009	0.0905	648018	keystroke_n	n	n/a
324.069	0.0455	648138	keystroke_g	g	n/a
324.1445	0.09	648289	keystroke_Key.space	Key.space	n/a
324.4445	0.06	648889	keystroke_q	q	n/a
324.5345	0.105	649069	keystroke_u	u	n/a
324.5795	0.089	649159	keystroke_i	i	n/a
324.6845	0.074	649369	keystroke_t	t	n/a
324.7145	0.09	649429	keystroke_e	e	n/a
324.8185	0.12	649637	keystroke_Key.space	Key.space	n/a
325.0295	0.089	650059	keystroke_d	d	n/a
325.1495	0.089	650299	keystroke_i	i	n/a
325.2985	0.061	650597	keystroke_s	s	n/a
325.5995	0.136	651199	keystroke_e	e	n/a
325.6895	0.165	651379	keystroke_a	a	n/a
325.8095	0.09	651619	keystroke_s	s	n/a
325.9595	0.09	651919	keystroke_e	e	n/a
326.0645	0.09	652129	keystroke_Key.space	Key.space	n/a
326.1995	0.06	652399	keystroke_i	i	n/a
326.2295	0.09	652459	keystroke_c	c	n/a
326.3645	0.097	652729	keystroke_e	e	n/a
326.5145	0.075	653029	keystroke_l	l	n/a
326.6195	0.075	653239	keystroke_a	a	n/a
326.7395	0.0595	653479	keystroke_n	n	n/a
326.7835	0.0755	653567	keystroke_d	d	n/a
326.86	0.104	653720	keystroke_Key.enter	Key.enter	n/a
326.97	6.806	653940	prompt	n/a	tuning secretariat lands pretty\n
327.7745	0.075	655549	keystroke_t	t	n/a
327.8645	0.075	655729	keystroke_u	u	n/a
327.9245	0.12	655849	keystroke_n	n	n/a
328.0145	0.105	656029	keystroke_i	i	n/a
328.1045	0.06	656209	keystroke_n	n	n/a
328.1495	0.06	656299	keystroke_g	g	n/a
328.3145	0.105	656629	keystroke_Key.space	Key.space	n/a
328.7945	0.075	657589	keystroke_s	s	n/a
329.214	0.075	658428	keystroke_e	e	n/a
329.319	0.105	658638	keystroke_c	c	n/a
329.559	0.075	659118	keystroke_r	r	n/a
329.604	0.075	659208	keystroke_e	e	n/a
329.724	0.0905	659448	keystroke_t	t	n/a
329.9495	0.09	659899	keystroke_e	e	n/a
331.419	0.1055	662838	keystroke_Key.backspace	Key.backspace	n/a
331.569	0.105	663138	keystroke_a	a	n/a
331.689	0.09	663378	keystroke_r	r	n/a
332.019	0.075	664038	keystroke_i	i	n/a
332.139	0.0755	664278	keystroke_a	a	n/a
332.319	0.0755	664638	keystroke_t	t	n/a
332.424	0.0905	664848	keystroke_Key.space	Key.space	n/a
332.529	0.075	665058	keystroke_l	l	n/a
332.589	0.0755	665178	keystroke_a	a	n/a
332.709	0.075	665418	keystroke_n	n	n/a
332.739	0.09	665478	keystroke_d	d	n/a
332.799	0.105	665598	keystroke_s	s	n/a
332.8895	0.0745	665779	keystroke_Key.space	Key.space	n/a
332.994	0.0895	665988	keystroke_p	p	n/a
333.0995	0.089	666199	keystroke_r	r	n/a
333.1435	0.075	666287	keystroke_e	e	n/a
333.2635	0.0605	666527	keystroke_t	t	n/a
333.3835	0.0905	666767	keystroke_t	t	n/a
333.4615	0.0725	666923	keystroke_y	y	n/a
333.669	0.105	667338	keystroke_Key.enter	Key.enter	n/a
333.7795	4.992	667559	prompt	n/a	pipeline holocaust arrange above\n
334.674	0.06	669348	keystroke_p	p	n/a
334.764	0.12	669528	keystroke_i	i	n/a
334.869	0.105	669738	keystroke_p	p	n/a
334.9895	0.0745	669979	keystroke_e	e	n/a
335.124	0.06	670248	keystroke_l	l	n/a
335.2435	0.076	670487	keystroke_i	i	n/a
335.3045	0.09	670609	keystroke_n	n	n/a
335.3795	0.085	670759	keystroke_e	e	n/a
335.4685	0.06	670937	keystroke_Key.space	Key.space	n/a
335.6495	0.074	671299	keystroke_h	h	n/a
335.7695	0.089	671539	keystroke_o	o	n/a
335.8735	0.09	671747	keystroke_l	l	n/a
336.009	0.0895	672018	keystroke_o	o	n/a
336.4615	0.057	672923	keystroke_c	c	n/a
336.5695	0.084	673139	keystroke_a	a	n/a
336.729	0.135	673458	keystroke_u	u	n/a
336.819	0.1205	673638	keystroke_s	s	n/a
336.924	0.06	673848	keystroke_t	t	n/a
337.014	0.105	674028	keystroke_Key.space	Key.space	n/a
337.359	0.075	674718	keystroke_a	a	n/a
337.524	0.0445	675048	keystroke_r	r	n/a
337.629	0.12	675258	keystroke_r	r	n/a
337.734	0.0895	675468	keystroke_a	a	n/a
337.884	0.0895	675768	keystroke_n	n	n/a
337.959	0.0905	675918	keystroke_g	g	n/a
338.0045	0.074	676009	keystroke_e	e	n/a
338.0635	0.105	676127	keystroke_Key.space	Key.space	n/a
338.2445	0.0895	676489	keystroke_a	a	n/a
338.349	0.0755	676698	keystroke_b	b	n/a
338.462	0.1425	676924	keystroke_o	o	n/a
338.5135	0.1065	677027	keystroke_v	v	n/a
338.5585	0.076	677117	keystroke_e	e	n/a
338.6635	0.105	677327	keystroke_Key.enter	Key.enter	n/a
338.775	4.902	677550	prompt	n/a	sponsor hometown deviation forms\n
339.489	0.061	678978	keystroke_s	s	n/a
339.579	0.075	679158	keystroke_p	p	n/a
339.609	0.105	679218	keystroke_o	o	n/a
339.894	0.0905	679788	keystroke_n	n	n/a
339.9995	0.0895	679999	keystroke_s	s	n/a
340.224	0.105	680448	keystroke_o	o	n/a
340.375	0.059	680750	keystroke_r	r	n/a
340.584	0.0905	681168	keystroke_Key.space	Key.space	n/a
340.779	0.09	681558	keystroke_h	h	n/a
340.854	0.15	681708	keystroke_o	o	n/a
340.989	0.105	681978	keystroke_m	m	n/a
341.049	0.075	682098	keystroke_e	e	n/a
341.469	0.075	682938	keystroke_t	t	n/a
341.5895	0.0895	683179	keystroke_o	o	n/a
341.695	0.074	683390	keystroke_w	w	n/a
341.784	0.12	683568	keystroke_n	n	n/a
341.844	0.15	683688	keystroke_Key.space	Key.space	n/a
342.099	0.105	684198	keystroke_d	d	n/a
342.189	0.075	684378	keystroke_e	e	n/a
342.2945	0.09	684589	keystroke_v	v	n/a
342.399	0.09	684798	keystroke_i	i	n/a
342.519	0.09	685038	keystroke_a	a	n/a
342.684	0.0755	685368	keystroke_t	t	n/a
342.744	0.09	685488	keystroke_i	i	n/a
342.774	0.12	685548	keystroke_o	o	n/a
342.909	0.1055	685818	keystroke_n	n	n/a
342.984	0.12	685968	keystroke_Key.space	Key.space	n/a
343.089	0.0755	686178	keystroke_f	f	n/a
343.179	0.09	686358	keystroke_o	o	n/a
343.2995	0.0595	686599	keystroke_r	r	n/a
343.389	0.075	686778	keystroke_m	m	n/a
343.479	0.06	686958	keystroke_s	s	n/a
343.554	0.1205	687108	keystroke_Key.enter	Key.enter	n/a
343.682	6.0845	687364	prompt	n/a	data item guide american\n
345.249	0.0755	690498	keystroke_d	d	n/a
345.309	0.105	690618	keystroke_a	a	n/a
345.46	0.074	690920	keystroke_t	t	n/a
345.564	0.076	691128	keystroke_a	a	n/a
345.654	0.105	691308	keystroke_Key.space	Key.space	n/a
346.134	0.105	692268	keystroke_i	i	n/a
346.254	0.06	692508	keystroke_t	t	n/a
346.284	0.105	692568	keystroke_e	e	n/a
346.3905	0.119	692781	keystroke_m	m	n/a
346.449	0.1205	692898	keystroke_Key.space	Key.space	n/a
346.7195	0.0295	693439	keystroke_f	f	n/a
346.75	0.089	693500	keystroke_u	u	n/a
346.794	0.0905	693588	keystroke_i	i	n/a
347.214	0.045	694428	keystroke_Key.backspace	Key.backspace	n/a
347.319	0.06	694638	keystroke_Key.backspace	Key.backspace	n/a
347.859	0.076	695718	keystroke_g	g	n/a
348.129	0.045	696258	keystroke_Key.backspace	Key.backspace	n/a
348.2345	0.0595	696469	keystroke_Key.backspace	Key.backspace	n/a
348.324	0.075	696648	keystroke_g	g	n/a
348.444	0.075	696888	keystroke_u	u	n/a
348.474	0.09	696948	keystroke_i	i	n/a
348.534	0.12	697068	keystroke_d	d	n/a
348.594	0.105	697188	keystroke_e	e	n/a
348.714	0.12	697428	keystroke_Key.space	Key.space	n/a
349.045	0.074	698090	keystroke_a	a	n/a
349.134	0.09	698268	keystroke_m	m	n/a
349.239	0.075	698478	keystroke_e	e	n/a
349.284	0.075	698568	keystroke_r	r	n/a
349.389	0.075	698778	keystroke_i	i	n/a
349.479	0.06	698958	keystroke_c	c	n/a
349.524	0.075	699048	keystroke_a	a	n/a
349.554	0.075	699108	keystroke_n	n	n/a
349.659	0.105	699318	keystroke_Key.enter	Key.enter	n/a
349.77	5.7265	699540	prompt	n/a	notification howard previews fighter\n
351.3245	0.105	702649	keystroke_n	n	n/a
351.3845	0.09	702769	keystroke_o	o	n/a
351.4445	0.075	702889	keystroke_t	t	n/a
351.5795	0.0745	703159	keystroke_i	i	n/a
351.624	0.0905	703248	keystroke_f	f	n/a
351.729	0.09	703458	keystroke_i	i	n/a
351.834	0.0455	703668	keystroke_c	c	n/a
351.894	0.0755	703788	keystroke_a	a	n/a
352.014	0.09	704028	keystroke_t	t	n/a
352.059	0.06	704118	keystroke_i	i	n/a
352.089	0.09	704178	keystroke_o	o	n/a
352.224	0.075	704448	keystroke_n	n	n/a
352.2695	0.1045	704539	keystroke_Key.space	Key.space	n/a
352.404	0.135	704808	keystroke_h	h	n/a
352.494	0.105	704988	keystroke_o	o	n/a
352.554	0.12	705108	keystroke_w	w	n/a
352.824	0.09	705648	keystroke_a	a	n/a
353.034	0.076	706068	keystroke_r	r	n/a
353.14	0.119	706280	keystroke_d	d	n/a
353.229	0.121	706458	keystroke_Key.space	Key.space	n/a
353.544	0.09	707088	keystroke_p	p	n/a
353.649	0.061	707298	keystroke_r	r	n/a
353.694	0.075	707388	keystroke_e	e	n/a
353.814	0.075	707628	keystroke_v	v	n/a
353.919	0.09	707838	keystroke_i	i	n/a
354.039	0.075	708078	keystroke_e	e	n/a
354.085	0.09	708170	keystroke_w	w	n/a
354.204	0.106	708408	keystroke_s	s	n/a
354.279	0.105	708558	keystroke_Key.space	Key.space	n/a
354.804	0.076	709608	keystroke_f	f	n/a
354.895	0.0745	709790	keystroke_i	i	n/a
354.984	0.075	709968	keystroke_g	g	n/a
355.0745	0.0895	710149	keystroke_h	h	n/a
355.135	0.074	710270	keystroke_t	t	n/a
355.224	0.106	710448	keystroke_e	e	n/a
355.299	0.105	710598	keystroke_r	r	n/a
355.39	0.104	710780	keystroke_Key.enter	Key.enter	n/a
355.5	9.5065	711000	prompt	n/a	free illinois i've impression\n
356.2445	0.0595	712489	keystroke_f	f	n/a
356.424	0.0605	712848	keystroke_r	r	n/a
356.4395	0.0745	712879	keystroke_e	e	n/a
356.5745	0.09	713149	keystroke_e	e	n/a
356.6495	0.12	713299	keystroke_Key.space	Key.space	n/a
356.7845	0.0745	713569	keystroke_i	i	n/a
357.0095	0.0445	714019	keystroke_l	l	n/a
357.1145	0.06	714229	keystroke_l	l	n/a
357.2945	0.0745	714589	keystroke_i	i	n/a
357.5945	0.0595	715189	keystroke_b	b	n/a
357.609	0.0155	715218	keystroke_n	n	n/a
357.7145	0.12	715429	keystroke_o	o	n/a
357.7895	0.09	715579	keystroke_i	i	n/a
357.88	0.059	715760	keystroke_s	s	n/a
358.1495	0.045	716299	keystroke_Key.backspace	Key.backspace	n/a
358.254	0.06	716508	keystroke_Key.backspace	Key.backspace	n/a
358.3745	0.06	716749	keystroke_Key.backspace	Key.backspace	n/a
358.8545	0.105	717709	keystroke_o	o	n/a
358.8995	0.09	717799	keystroke_i	i	n/a
359.0045	0.03	718009	keystroke_s	s	n/a
360.174	0.105	720348	keystroke_Key.space	Key.space	n/a
360.354	0.1205	720708	keystroke_i	i	n/a
360.444	0.09	720888	keystroke_v	v	n/a
360.489	0.06	720978	keystroke_e	e	n/a
360.774	0.045	721548	keystroke_Key.backspace	Key.backspace	n/a
360.864	0.0605	721728	keystroke_Key.backspace	Key.backspace	n/a
361.059	0.075	722118	keystroke_'	'	n/a
361.179	0.045	722358	keystroke_v	v	n/a
361.194	0.06	722388	keystroke_e	e	n/a
361.269	0.105	722538	keystroke_Key.space	Key.space	n/a
361.644	0.09	723288	keystroke_i	i	n/a
361.869	0.135	723738	keystroke_m	m	n/a
362.0795	0.106	724159	keystroke_r	r	n/a
362.1395	0.075	724279	keystroke_e	e	n/a
362.4605	0.0535	724921	keystroke_Key.backspace	Key.backspace	n/a
362.5745	0.0745	725149	keystroke_Key.backspace	Key.backspace	n/a
362.829	0.045	725658	keystroke_o	o	n/a
362.83	0.045	725660	keystroke_p	p	n/a
362.89	0.074	725780	keystroke_r	r	n/a
362.934	0.0605	725868	keystroke_e	e	n/a
363.0995	0.0445	726199	keystroke_s	s	n/a
363.3845	0.0445	726769	keystroke_Key.backspace	Key.backspace	n/a
363.489	0.06	726978	keystroke_Key.backspace	Key.backspace	n/a
363.624	0.045	727248	keystroke_Key.backspace	Key.backspace	n/a
363.744	0.06	727488	keystroke_Key.backspace	Key.backspace	n/a
363.894	0.06	727788	keystroke_Key.backspace	Key.backspace	n/a
364.254	0.0755	728508	keystroke_p	p	n/a
364.3145	0.09	728629	keystroke_r	r	n/a
364.3595	0.06	728719	keystroke_e	e	n/a
364.5095	0.045	729019	keystroke_s	s	n/a
364.6295	0.06	729259	keystroke_s	s	n/a
364.6595	0.1045	729319	keystroke_i	i	n/a
364.734	0.06	729468	keystroke_o	o	n/a
364.854	0.06	729708	keystroke_n	n	n/a
364.929	0.075	729858	keystroke_Key.enter	Key.enter	n/a
365.0135	7.1625	730027	prompt	n/a	folders connect oriental necessarily\n
366.025	0.089	732050	keystroke_f	f	n/a
366.1445	0.09	732289	keystroke_o	o	n/a
366.2495	0.1195	732499	keystroke_l	l	n/a
366.3095	0.0895	732619	keystroke_d	d	n/a
366.384	0.105	732768	keystroke_e	e	n/a
366.474	0.09	732948	keystroke_r	r	n/a
366.565	0.075	733130	keystroke_s	s	n/a
367.0895	0.105	734179	keystroke_Key.space	Key.space	n/a
367.2095	0.06	734419	keystroke_c	c	n/a
367.2705	0.074	734541	keystroke_o	o	n/a
367.4205	0.074	734841	keystroke_n	n	n/a
367.5395	0.105	735079	keystroke_n	n	n/a
367.5845	0.105	735169	keystroke_e	e	n/a
367.6295	0.075	735259	keystroke_c	c	n/a
367.7945	0.09	735589	keystroke_t	t	n/a
367.9145	0.1045	735829	keystroke_Key.space	Key.space	n/a
368.154	0.09	736308	keystroke_o	o	n/a
368.3645	0.105	736729	keystroke_r	r	n/a
368.5145	0.075	737029	keystroke_i	i	n/a
368.6795	0.09	737359	keystroke_e	e	n/a
368.8895	0.09	737779	keystroke_n	n	n/a
369.0245	0.06	738049	keystroke_t	t	n/a
369.1895	0.06	738379	keystroke_i	i	n/a
369.3395	0.06	738679	keystroke_a	a	n/a
369.6845	0.03	739369	keystroke_Key.backspace	Key.backspace	n/a
369.775	0.059	739550	keystroke_Key.backspace	Key.backspace	n/a
369.879	0.06	739758	keystroke_a	a	n/a
369.999	0.09	739998	keystroke_l	l	n/a
370.044	0.09	740088	keystroke_Key.space	Key.space	n/a
370.4495	0.075	740899	keystroke_n	n	n/a
370.5255	0.089	741051	keystroke_e	e	n/a
370.7045	0.09	741409	keystroke_c	c	n/a
370.8095	0.06	741619	keystroke_e	e	n/a
371.0345	0.045	742069	keystroke_s	s	n/a
371.1695	0.06	742339	keystroke_s	s	n/a
371.3495	0.12	742699	keystroke_a	a	n/a
371.4395	0.09	742879	keystroke_r	r	n/a
371.5445	0.09	743089	keystroke_i	i	n/a
371.7395	0.135	743479	keystroke_l	l	n/a
371.9495	0.045	743899	keystroke_y	y	n/a
372.069	0.105	744138	keystroke_Key.enter	Key.enter	n/a
372.1795	7.317	744359	prompt	n/a	grey flooring advertising cleared\n
375.206	0.013	750412	keystroke_g	g	n/a
375.309	0.076	750618	keystroke_r	r	n/a
375.324	0.12	750648	keystroke_e	e	n/a
375.414	0.076	750828	keystroke_y	y	n/a
375.461	0.1185	750922	keystroke_Key.space	Key.space	n/a
375.864	0.09	751728	keystroke_f	f	n/a
375.969	0.061	751938	keystroke_l	l	n/a
376.104	0.06	752208	keystroke_o	o	n/a
376.224	0.075	752448	keystroke_o	o	n/a
376.459	0.066	752918	keystroke_r	r	n/a
376.555	0.075	753110	keystroke_i	i	n/a
376.6	0.075	753200	keystroke_n	n	n/a
376.6595	0.0605	753319	keystroke_g	g	n/a
376.749	0.105	753498	keystroke_Key.space	Key.space	n/a
376.856	0.103	753712	keystroke_a	a	n/a
376.9745	0.0745	753949	keystroke_d	d	n/a
377.1695	0.06	754339	keystroke_v	v	n/a
377.2445	0.1055	754489	keystroke_e	e	n/a
377.3195	0.075	754639	keystroke_r	r	n/a
377.464	0.05	754928	keystroke_t	t	n/a
377.5595	0.0895	755119	keystroke_i	i	n/a
377.664	0.046	755328	keystroke_s	s	n/a
377.739	0.12	755478	keystroke_i	i	n/a
377.83	0.089	755660	keystroke_n	n	n/a
377.904	0.061	755808	keystroke_g	g	n/a
377.994	0.105	755988	keystroke_Key.space	Key.space	n/a
378.144	0.045	756288	keystroke_c	c	n/a
378.204	0.12	756408	keystroke_l	l	n/a
378.339	0.075	756678	keystroke_e	e	n/a
378.399	0.12	756798	keystroke_a	a	n/a
378.505	0.0745	757010	keystroke_r	r	n/a
378.639	0.06	757278	keystroke_e	e	n/a
378.714	0.105	757428	keystroke_r	r	n/a
379.344	0.105	758688	keystroke_Key.backspace	Key.backspace	n/a
379.434	0.045	758868	keystroke_d	d	n/a
379.4645	0.0295	758929	keystroke_Key.enter	Key.enter	n/a
379.5	4.437	759000	prompt	n/a	cleaners sleeping trials lord\n
380.23	0.0595	760460	keystroke_c	c	n/a
380.3345	0.09	760669	keystroke_l	l	n/a
380.4395	0.09	760879	keystroke_e	e	n/a
380.5145	0.09	761029	keystroke_a	a	n/a
380.6195	0.09	761239	keystroke_n	n	n/a
380.7545	0.09	761509	keystroke_e	e	n/a
380.8145	0.105	761629	keystroke_r	r	n/a
380.9205	0.0745	761841	keystroke_s	s	n/a
381.0545	0.105	762109	keystroke_Key.space	Key.space	n/a
381.3695	0.06	762739	keystroke_s	s	n/a
381.4445	0.0905	762889	keystroke_l	l	n/a
381.5645	0.06	763129	keystroke_e	e	n/a
381.6845	0.09	763369	keystroke_e	e	n/a
381.76	0.0745	763520	keystroke_p	p	n/a
381.9545	0.0895	763909	keystroke_i	i	n/a
381.999	0.075	763998	keystroke_n	n	n/a
382.089	0.06	764178	keystroke_g	g	n/a
382.179	0.105	764358	keystroke_Key.space	Key.space	n/a
382.734	0.075	765468	keystroke_t	t	n/a
382.764	0.075	765528	keystroke_r	r	n/a
382.854	0.09	765708	keystroke_i	i	n/a
382.9745	0.0745	765949	keystroke_a	a	n/a
383.064	0.09	766128	keystroke_l	l	n/a
383.139	0.06	766278	keystroke_s	s	n/a
383.214	0.09	766428	keystroke_Key.space	Key.space	n/a
383.319	0.09	766638	keystroke_l	l	n/a
383.459	0.085	766918	keystroke_o	o	n/a
383.56	0.089	767120	keystroke_r	r	n/a
383.679	0.135	767358	keystroke_d	d	n/a
383.8295	0.1045	767659	keystroke_Key.enter	Key.enter	n/a
383.9405	5.0665	767881	prompt	n/a	facilitate friend fight toshiba\n
384.819	0.061	769638	keystroke_f	f	n/a
384.9245	0.0895	769849	keystroke_a	a	n/a
384.999	0.105	769998	keystroke_c	c	n/a
385.105	0.0895	770210	keystroke_i	i	n/a
385.2845	0.045	770569	keystroke_l	l	n/a
385.389	0.105	770778	keystroke_i	i	n/a
385.509	0.0755	771018	keystroke_t	t	n/a
385.6445	0.075	771289	keystroke_a	a	n/a
385.8245	0.075	771649	keystroke_t	t	n/a
385.8695	0.09	771739	keystroke_e	e	n/a
385.9445	0.105	771889	keystroke_Key.space	Key.space	n/a
386.11	0.0745	772220	keystroke_f	f	n/a
386.2895	0.0605	772579	keystroke_r	r	n/a
386.394	0.0675	772788	keystroke_i	i	n/a
386.4385	0.076	772877	keystroke_e	e	n/a
386.5745	0.0745	773149	keystroke_n	n	n/a
386.635	0.09	773270	keystroke_d	d	n/a
386.7395	0.075	773479	keystroke_Key.space	Key.space	n/a
386.9645	0.0605	773929	keystroke_f	f	n/a
387.04	0.09	774080	keystroke_i	i	n/a
387.13	0.045	774260	keystroke_g	g	n/a
387.205	0.0745	774410	keystroke_h	h	n/a
387.266	0.058	774532	keystroke_t	t	n/a
387.339	0.09	774678	keystroke_Key.space	Key.space	n/a
387.699	0.045	775398	keystroke_t	t	n/a
387.789	0.09	775578	keystroke_o	o	n/a
387.909	0.075	775818	keystroke_s	s	n/a
388.044	0.09	776088	keystroke_h	h	n/a
388.104	0.0905	776208	keystroke_i	i	n/a
388.3145	0.0905	776629	keystroke_b	b	n/a
388.765	0.075	777530	keystroke_a	a	n/a
388.929	0.075	777858	keystroke_Key.enter	Key.enter	n/a
389.011	5.0655	778022	prompt	n/a	workforce fold sheep maintain\n
389.8	0.09	779600	keystroke_w	w	n/a
389.935	0.075	779870	keystroke_o	o	n/a
390.025	0.105	780050	keystroke_r	r	n/a
390.235	0.105	780470	keystroke_k	k	n/a
390.835	0.09	781670	keystroke_f	f	n/a
390.969	0.106	781938	keystroke_o	o	n/a
391.104	0.091	782208	keystroke_r	r	n/a
391.3145	0.1045	782629	keystroke_c	c	n/a
391.374	0.075	782748	keystroke_e	e	n/a
391.464	0.1055	782928	keystroke_Key.space	Key.space	n/a
391.6295	0.0745	783259	keystroke_f	f	n/a
391.734	0.1205	783468	keystroke_o	o	n/a
391.869	0.0905	783738	keystroke_l	l	n/a
391.944	0.075	783888	keystroke_d	d	n/a
392.064	0.075	784128	keystroke_Key.space	Key.space	n/a
392.1845	0.0595	784369	keystroke_s	s	n/a
392.2595	0.0445	784519	keystroke_h	h	n/a
392.3645	0.0595	784729	keystroke_e	e	n/a
392.4845	0.0895	784969	keystroke_e	e	n/a
392.544	0.15	785088	keystroke_p	p	n/a
392.664	0.12	785328	keystroke_Key.space	Key.space	n/a
392.874	0.076	785748	keystroke_m	m	n/a
392.95	0.089	785900	keystroke_a	a	n/a
393.294	0.105	786588	keystroke_i	i	n/a
393.369	0.12	786738	keystroke_n	n	n/a
393.504	0.075	787008	keystroke_t	t	n/a
393.684	0.075	787368	keystroke_a	a	n/a
393.804	0.0905	787608	keystroke_i	i	n/a
393.8795	0.09	787759	keystroke_n	n	n/a
393.9845	0.09	787969	keystroke_Key.enter	Key.enter	n/a
394.0805	8.6665	788161	prompt	n/a	symphony tenant fine calculators\n
397.152	0.001	794304	keystroke_s	s	n/a
397.3	0.06	794600	keystroke_u	u	n/a
397.315	0.06	794630	keystroke_y	y	n/a
397.81	0.0595	795620	keystroke_Key.backspace	Key.backspace	n/a
397.9895	0.06	795979	keystroke_Key.backspace	Key.backspace	n/a
398.2595	0.06	796519	keystroke_y	y	n/a
398.3345	0.124	796669	keystroke_m	m	n/a
398.4695	0.105	796939	keystroke_p	p	n/a
398.7545	0.135	797509	keystroke_h	h	n/a
398.8745	0.135	797749	keystroke_o	o	n/a
398.9795	0.0755	797959	keystroke_n	n	n/a
399.22	0.0745	798440	keystroke_y	y	n/a
399.88	0.0895	799760	keystroke_Key.space	Key.space	n/a
399.9995	0.075	799999	keystroke_t	t	n/a
400.0595	0.06	800119	keystroke_e	e	n/a
400.3	0.09	800600	keystroke_n	n	n/a
400.42	0.09	800840	keystroke_a	a	n/a
400.54	0.1045	801080	keystroke_n	n	n/a
400.6595	0.0605	801319	keystroke_t	t	n/a
400.7345	0.09	801469	keystroke_Key.space	Key.space	n/a
400.9745	0.09	801949	keystroke_f	f	n/a
401.0495	0.075	802099	keystroke_i	i	n/a
401.0945	0.075	802189	keystroke_n	n	n/a
401.1545	0.075	802309	keystroke_e	e	n/a
401.2445	0.1055	802489	keystroke_Key.space	Key.space	n/a
401.335	0.0595	802670	keystroke_c	c	n/a
401.4395	0.09	802879	keystroke_a	a	n/a
401.5595	0.0755	803119	keystroke_l	l	n/a
401.68	0.09	803360	keystroke_c	c	n/a
401.785	0.075	803570	keystroke_u	u	n/a
401.98	0.074	803960	keystroke_l	l	n/a
402.084	0.076	804168	keystroke_a	a	n/a
402.28	0.0595	804560	keystroke_t	t	n/a
402.3995	0.1055	804799	keystroke_o	o	n/a
402.49	0.075	804980	keystroke_r	r	n/a
402.55	0.075	805100	keystroke_s	s	n/a
402.64	0.105	805280	keystroke_Key.enter	Key.enter	n/a
402.7505	6.6565	805501	prompt	n/a	themes pace riding galleries\n
403.4795	0.045	806959	keystroke_t	t	n/a
403.5545	0.09	807109	keystroke_h	h	n/a
403.6295	0.06	807259	keystroke_e	e	n/a
403.7495	0.105	807499	keystroke_m	m	n/a
403.8395	0.076	807679	keystroke_e	e	n/a
403.9595	0.09	807919	keystroke_s	s	n/a
404.1395	0.06	808279	keystroke_e	e	n/a
404.2295	0.09	808459	keystroke_Key.space	Key.space	n/a
404.3795	0.084	808759	keystroke_p	p	n/a
404.4395	0.075	808879	keystroke_a	a	n/a
404.5745	0.09	809149	keystroke_c	c	n/a
404.6195	0.105	809239	keystroke_e	e	n/a
404.7095	0.06	809419	keystroke_Key.space	Key.space	n/a
404.8295	0.075	809659	keystroke_r	r	n/a
404.8895	0.075	809779	keystroke_i	i	n/a
404.9795	0.09	809959	keystroke_f	f	n/a
405.0705	0.12	810141	keystroke_i	i	n/a
405.1445	0.121	810289	keystroke_n	n	n/a
405.2205	0.136	810441	keystroke_g	g	n/a
405.3245	0.09	810649	keystroke_Key.space	Key.space	n/a
406.329	0.06	812658	keystroke_Key.backspace	Key.backspace	n/a
406.449	0.075	812898	keystroke_Key.backspace	Key.backspace	n/a
406.584	0.06	813168	keystroke_Key.backspace	Key.backspace	n/a
406.704	0.075	813408	keystroke_Key.backspace	Key.backspace	n/a
406.839	0.0755	813678	keystroke_Key.backspace	Key.backspace	n/a
406.9445	0.075	813889	keystroke_d	d	n/a
407.0795	0.075	814159	keystroke_i	i	n/a
407.1245	0.105	814249	keystroke_n	n	n/a
407.1555	0.059	814311	keystroke_g	g	n/a
407.2445	0.1055	814489	keystroke_Key.space	Key.space	n/a
407.8895	0.045	815779	keystroke_g	g	n/a
408.0395	0.075	816079	keystroke_a	a	n/a
408.16	0.0595	816320	keystroke_l	l	n/a
408.2645	0.105	816529	keystroke_l	l	n/a
408.3695	0.105	816739	keystroke_e	e	n/a
408.429	0.076	816858	keystroke_r	r	n/a
409.0445	0.105	818089	keystroke_i	i	n/a
409.1345	0.075	818269	keystroke_e	e	n/a
409.24	0.0895	818480	keystroke_s	s	n/a
409.3145	0.09	818629	keystroke_Key.enter	Key.enter	n/a
409.411	7.781	818822	prompt	n/a	launches sentences measure hospitality\n
410.4845	0.045	820969	keystroke_o	o	n/a
410.5745	0.075	821149	keystroke_a	a	n/a
410.6795	0.076	821359	keystroke_u	u	n/a
410.8295	0.105	821659	keystroke_n	n	n/a
411.205	0.045	822410	keystroke_Key.backspace	Key.backspace	n/a
411.31	0.06	822620	keystroke_Key.backspace	Key.backspace	n/a
411.43	0.045	822860	keystroke_Key.backspace	Key.backspace	n/a
411.55	0.06	823100	keystroke_Key.backspace	Key.backspace	n/a
411.79	0.075	823580	keystroke_l	l	n/a
411.894	0.0755	823788	keystroke_a	a	n/a
412.03	0.06	824060	keystroke_u	u	n/a
412.1795	0.0605	824359	keystroke_n	n	n/a
412.255	0.0895	824510	keystroke_c	c	n/a
412.3895	0.075	824779	keystroke_h	h	n/a
412.4345	0.075	824869	keystroke_e	e	n/a
412.4945	0.0905	824989	keystroke_d	d	n/a
412.6145	0.105	825229	keystroke_s	s	n/a
412.9445	0.06	825889	keystroke_Key.backspace	Key.backspace	n/a
413.0345	0.09	826069	keystroke_Key.backspace	Key.backspace	n/a
413.1695	0.06	826339	keystroke_s	s	n/a
413.26	0.1045	826520	keystroke_Key.space	Key.space	n/a
413.725	0.03	827450	keystroke_s	s	n/a
413.86	0.075	827720	keystroke_e	e	n/a
413.965	0.105	827930	keystroke_n	n	n/a
414.055	0.09	828110	keystroke_t	t	n/a
414.16	0.075	828320	keystroke_e	e	n/a
414.2795	0.09	828559	keystroke_n	n	n/a
414.3845	0.105	828769	keystroke_c	c	n/a
414.4445	0.121	828889	keystroke_e	e	n/a
414.5795	0.09	829159	keystroke_s	s	n/a
414.7145	0.1055	829429	keystroke_Key.space	Key.space	n/a
414.895	0.105	829790	keystroke_m	m	n/a
414.955	0.075	829910	keystroke_e	e	n/a
415.015	0.1195	830030	keystroke_a	a	n/a
415.1195	0.075	830239	keystroke_s	s	n/a
415.2245	0.105	830449	keystroke_u	u	n/a
415.3145	0.075	830629	keystroke_r	r	n/a
415.3745	0.06	830749	keystroke_e	e	n/a
415.4195	0.105	830839	keystroke_Key.space	Key.space	n/a
416.05	0.105	832100	keystroke_h	h	n/a
416.125	0.0895	832250	keystroke_o	o	n/a
416.1995	0.06	832399	keystroke_s	s	n/a
416.3495	0.109	832699	keystroke_p	p	n/a
416.4395	0.0905	832879	keystroke_i	i	n/a
416.5145	0.061	833029	keystroke_t	t	n/a
416.6495	0.12	833299	keystroke_a	a	n/a
416.7845	0.06	833569	keystroke_l	l	n/a
416.8895	0.091	833779	keystroke_i	i	n/a
416.995	0.06	833990	keystroke_t	t	n/a
417.025	0.075	834050	keystroke_y	y	n/a
417.085	0.105	834170	keystroke_Key.enter	Key.enter	n/a
417.1955	7.0465	834391	prompt	n/a	paragraphs catalogue female thousands\n
418.03	0.105	836060	keystroke_p	p	n/a
418.15	0.075	836300	keystroke_a	a	n/a
418.21	0.105	836420	keystroke_r	r	n/a
418.3	0.09	836600	keystroke_a	a	n/a
418.45	0.075	836900	keystroke_g	g	n/a
418.66	0.075	837320	keystroke_r	r	n/a
418.75	0.076	837500	keystroke_a	a	n/a
418.84	0.09	837680	keystroke_p	p	n/a
419.0195	0.09	838039	keystroke_h	h	n/a
419.0945	0.06	838189	keystroke_s	s	n/a
419.2145	0.09	838429	keystroke_Key.space	Key.space	n/a
419.4995	0.045	838999	keystroke_c	c	n/a
419.5745	0.12	839149	keystroke_a	a	n/a
419.7695	0.046	839539	keystroke_t	t	n/a
419.845	0.0745	839690	keystroke_a	a	n/a
419.935	0.0745	839870	keystroke_l	l	n/a
420.0695	0.06	840139	keystroke_o	o	n/a
420.1595	0.06	840319	keystroke_g	g	n/a
420.2645	0.075	840529	keystroke_i	i	n/a
420.3545	0.045	840709	keystroke_e	e	n/a
420.7	0.045	841400	keystroke_Key.backspace	Key.backspace	n/a
420.79	0.075	841580	keystroke_Key.backspace	Key.backspace	n/a
421	0.075	842000	keystroke_u	u	n/a
421.06	0.0745	842120	keystroke_e	e	n/a
421.1645	0.075	842329	keystroke_Key.space	Key.space	n/a
421.57	0.1045	843140	keystroke_f	f	n/a
421.6145	0.105	843229	keystroke_e	e	n/a
421.7345	0.0755	843469	keystroke_m	m	n/a
421.855	0.075	843710	keystroke_a	a	n/a
421.975	0.075	843950	keystroke_l	l	n/a
422.065	0.075	844130	keystroke_e	e	n/a
422.1695	0.09	844339	keystroke_Key.space	Key.space	n/a
422.8	0.06	845600	keystroke_t	t	n/a
422.845	0.061	845690	keystroke_h	h	n/a
422.92	0.135	845840	keystroke_o	o	n/a
423.01	0.075	846020	keystroke_u	u	n/a
423.04	0.075	846080	keystroke_s	s	n/a
423.1	0.06	846200	keystroke_e	e	n/a
423.205	0.12	846410	keystroke_a	a	n/a
423.52	0.06	847040	keystroke_Key.backspace	Key.backspace	n/a
423.625	0.06	847250	keystroke_Key.backspace	Key.backspace	n/a
423.79	0.075	847580	keystroke_a	a	n/a
423.895	0.075	847790	keystroke_n	n	n/a
423.971	0.134	847942	keystroke_d	d	n/a
424.06	0.075	848120	keystroke_s	s	n/a
424.12	0.12	848240	keystroke_Key.enter	Key.enter	n/a
424.2465	6.491	848493	prompt	n/a	executive earthquake women apply\n
425.155	0.0745	850310	keystroke_e	e	n/a
425.7545	0.075	851509	keystroke_x	x	n/a
425.9495	0.136	851899	keystroke_e	e	n/a
426.0245	0.105	852049	keystroke_c	c	n/a
426.192	0.088	852384	keystroke_u	u	n/a
426.325	0.03	852650	keystroke_t	t	n/a
426.4	0.105	852800	keystroke_i	i	n/a
426.49	0.09	852980	keystroke_v	v	n/a
426.55	0.075	853100	keystroke_e	e	n/a
426.64	0.06	853280	keystroke_Key.space	Key.space	n/a
426.925	0.09	853850	keystroke_e	e	n/a
427.135	0.075	854270	keystroke_a	a	n/a
427.315	0.075	854630	keystroke_r	r	n/a
427.825	0.075	855650	keystroke_t	t	n/a
427.915	0.09	855830	keystroke_h	h	n/a
428.11	0.075	856220	keystroke_q	q	n/a
428.23	0.105	856460	keystroke_u	u	n/a
428.335	0.075	856670	keystroke_a	a	n/a
428.515	0.06	857030	keystroke_r	r	n/a
428.53	0.075	857060	keystroke_e	e	n/a
429.16	0.105	858320	keystroke_Key.space	Key.space	n/a
429.295	0.089	858590	keystroke_w	w	n/a
429.401	0.073	858802	keystroke_o	o	n/a
429.415	0.105	858830	keystroke_m	m	n/a
429.535	0.06	859070	keystroke_e	e	n/a
429.625	0.12	859250	keystroke_n	n	n/a
429.7	0.12	859400	keystroke_Key.space	Key.space	n/a
430.269	0.076	860538	keystroke_a	a	n/a
430.36	0.03	860720	keystroke_p	p	n/a
430.45	0.09	860900	keystroke_p	p	n/a
430.495	0.0895	860990	keystroke_l	l	n/a
430.6	0.074	861200	keystroke_y	y	n/a
430.659	0.075	861318	keystroke_Key.enter	Key.enter	n/a
430.7415	9.535	861483	prompt	n/a	routines claim knights frequent\n
431.6945	0.0755	863389	keystroke_r	r	n/a
431.725	0.105	863450	keystroke_o	o	n/a
431.785	0.075	863570	keystroke_u	u	n/a
431.875	0.06	863750	keystroke_t	t	n/a
431.965	0.09	863930	keystroke_i	i	n/a
432.01	0.09	864020	keystroke_n	n	n/a
432.04	0.105	864080	keystroke_e	e	n/a
432.19	0.075	864380	keystroke_s	s	n/a
432.295	0.09	864590	keystroke_Key.space	Key.space	n/a
432.52	0.09	865040	keystroke_l	l	n/a
432.625	0.075	865250	keystroke_c	c	n/a
433.165	0.03	866330	keystroke_Key.backspace	Key.backspace	n/a
433.255	0.06	866510	keystroke_Key.backspace	Key.backspace	n/a
433.33	0.074	866660	keystroke_c	c	n/a
433.435	0.075	866870	keystroke_l	l	n/a
433.525	0.075	867050	keystroke_a	a	n/a
433.645	0.135	867290	keystroke_i	i	n/a
433.705	0.105	867410	keystroke_m	m	n/a
433.764	0.12	867528	keystroke_Key.space	Key.space	n/a
434.02	0.09	868040	keystroke_k	k	n/a
434.08	0.135	868160	keystroke_n	n	n/a
434.185	0.075	868370	keystroke_o	o	n/a
434.32	0.075	868640	keystroke_g	g	n/a
434.41	0.075	868820	keystroke_h	h	n/a
434.47	0.12	868940	keystroke_t	t	n/a
434.56	0.09	869120	keystroke_s	s	n/a
434.665	0.09	869330	keystroke_Key.space	Key.space	n/a
435.3855	0.0895	870771	keystroke_r	r	n/a
435.685	0.06	871370	keystroke_Key.backspace	Key.backspace	n/a
435.79	0.09	871580	keystroke_Key.backspace	Key.backspace	n/a
435.835	0.06	871670	keystroke_f	f	n/a
436	0.06	872000	keystroke_r	r	n/a
436.045	0.0895	872090	keystroke_e	e	n/a
436.3595	0.0455	872719	keystroke_Key.backspace	Key.backspace	n/a
436.465	0.075	872930	keystroke_Key.backspace	Key.backspace	n/a
436.615	0.105	873230	keystroke_Key.space	Key.space	n/a
437.005	0.045	874010	keystroke_Key.backspace	Key.backspace	n/a
437.11	0.09	874220	keystroke_Key.backspace	Key.backspace	n/a
437.274	0.0905	874548	keystroke_Key.space	Key.space	n/a
437.409	0.076	874818	keystroke_f	f	n/a
437.5445	0.0895	875089	keystroke_e	e	n/a
437.559	0.09	875118	keystroke_r	r	n/a
437.8145	0.075	875629	keystroke_q	q	n/a
437.9505	0.059	875901	keystroke_u	u	n/a
438.2345	0.045	876469	keystroke_Key.backspace	Key.backspace	n/a
438.3395	0.06	876679	keystroke_Key.backspace	Key.backspace	n/a
438.4445	0.075	876889	keystroke_Key.backspace	Key.backspace	n/a
438.8655	0.059	877731	keystroke_r	r	n/a
438.8945	0.075	877789	keystroke_e	e	n/a
439.4345	0.06	878869	keystroke_q	q	n/a
439.6445	0.06	879289	keystroke_u	u	n/a
439.7495	0.06	879499	keystroke_e	e	n/a
439.8395	0.09	879679	keystroke_n	n	n/a
439.9745	0.09	879949	keystroke_t	t	n/a
440.0495	0.09	880099	keystroke_s	s	n/a
440.1695	0.105	880339	keystroke_Key.enter	Key.enter	n/a
440.2805	5.366	880561	prompt	n/a	align framing fruits independence\n
441.055	0.06	882110	keystroke_a	a	n/a
441.13	0.044	882260	keystroke_l	l	n/a
441.28	0.06	882560	keystroke_i	i	n/a
441.37	0.06	882740	keystroke_g	g	n/a
441.445	0.105	882890	keystroke_n	n	n/a
441.52	0.12	883040	keystroke_Key.space	Key.space	n/a
442.06	0.075	884120	keystroke_f	f	n/a
442.225	0.09	884450	keystroke_r	r	n/a
442.3	0.09	884600	keystroke_a	a	n/a
442.36	0.135	884720	keystroke_m	m	n/a
442.4595	0.1255	884919	keystroke_i	i	n/a
442.5395	0.0905	885079	keystroke_n	n	n/a
442.615	0.0595	885230	keystroke_g	g	n/a
442.69	0.09	885380	keystroke_Key.space	Key.space	n/a
442.84	0.09	885680	keystroke_f	f	n/a
443.1855	0.074	886371	keystroke_r	r	n/a
443.32	0.1045	886640	keystroke_u	u	n/a
443.365	0.1195	886730	keystroke_i	i	n/a
443.5895	0.105	887179	keystroke_t	t	n/a
443.6795	0.09	887359	keystroke_s	s	n/a
443.8145	0.105	887629	keystroke_Key.space	Key.space	n/a
444.206	0.0885	888412	keystroke_i	i	n/a
444.25	0.1205	888500	keystroke_n	n	n/a
444.3395	0.105	888679	keystroke_d	d	n/a
444.3995	0.105	888799	keystroke_e	e	n/a
444.5345	0.0905	889069	keystroke_p	p	n/a
