onset	duration	sample	value	key	prompt_text
37.6845	23.5115	75369	prompt	n/a	the quick brown fox jumps over a lazy dog\n
50.7385	0.09	101477	keystroke	t	n/a
50.8585	0.12	101717	keystroke	h	n/a
50.9635	0.075	101927	keystroke	e	n/a
51.683	0.1345	103366	keystroke	Key.space	n/a
51.8335	0.149	103667	keystroke	q	n/a
52.073	0.09	104146	keystroke	u	n/a
52.253	0.09	104506	keystroke	i	n/a
52.403	0.12	104806	keystroke	c	n/a
52.493	0.09	104986	keystroke	k	n/a
52.613	0.135	105226	keystroke	Key.space	n/a
52.793	0.0745	105586	keystroke	b	n/a
52.8825	0.075	105765	keystroke	r	n/a
52.9875	0.075	105975	keystroke	o	n/a
53.0475	0.1205	106095	keystroke	w	n/a
53.153	0.105	106306	keystroke	n	n/a
53.198	0.12	106396	keystroke	Key.space	n/a
53.363	0.1055	106726	keystroke	f	n/a
53.513	0.0895	107026	keystroke	o	n/a
53.678	0.1195	107356	keystroke	x	n/a
53.8575	0.12	107715	keystroke	Key.space	n/a
54.0375	0.091	108075	keystroke	j	n/a
54.1875	0.09	108375	keystroke	u	n/a
54.3835	0.089	108767	keystroke	m	n/a
54.5625	0.06	109125	keystroke	o	n/a
54.5635	0.045	109127	keystroke	p	n/a
54.6675	0.12	109335	keystroke	s	n/a
54.7725	0.105	109545	keystroke	Key.space	n/a
55.043	0.045	110086	keystroke	=	n/a
55.823	0.045	111646	keystroke	Key.backspace	n/a
55.973	0.06	111946	keystroke	Key.backspace	n/a
56.183	0.015	112366	keystroke	Key.backspace	n/a
56.288	0.075	112576	keystroke	Key.backspace	n/a
56.678	0.06	113356	keystroke	Key.backspace	n/a
57.2935	0.0595	114587	keystroke	p	n/a
57.413	0.135	114826	keystroke	s	n/a
57.503	0.135	115006	keystroke	Key.space	n/a
57.7735	0.09	115547	keystroke	o	n/a
57.8785	0.105	115757	keystroke	v	n/a
58.0585	0.135	116117	keystroke	e	n/a
58.1485	0.135	116297	keystroke	r	n/a
58.2085	0.12	116417	keystroke	Key.space	n/a
58.3135	0.135	116627	keystroke	a	n/a
58.4185	0.15	116837	keystroke	Key.space	n/a
59.078	0.105	118156	keystroke	l	n/a
59.153	0.075	118306	keystroke	a	n/a
59.3325	0.075	118665	keystroke	z	n/a
59.6025	0.075	119205	keystroke	y	n/a
59.6625	0.12	119325	keystroke	Key.space	n/a
59.9175	0.045	119835	keystroke	d	n/a
60.0075	0.06	120015	keystroke	o	n/a
60.8175	0.075	121635	keystroke	g	n/a
61.133	0.06	122266	keystroke	Key.enter	n/a
61.201	9.654	122402	prompt	n/a	commissions prisoner presentation coin\n
61.808	0.105	123616	keystroke	c	n/a
61.898	0.075	123796	keystroke	o	n/a
62.078	0.045	124156	keystroke	m	n/a
62.198	0.075	124396	keystroke	m	n/a
62.363	0.135	124726	keystroke	i	n/a
62.513	0.105	125026	keystroke	s	n/a
63.1135	0.1195	126227	keystroke	s	n/a
63.218	0.18	126436	keystroke	i	n/a
63.278	0.121	126556	keystroke	o	n/a
63.338	0.15	126676	keystroke	n	n/a
63.443	0.135	126886	keystroke	s	n/a
63.563	0.12	127126	keystroke	Key.space	n/a
63.758	0.06	127516	keystroke	o	n/a
63.833	0.09	127666	keystroke	r	n/a
63.953	0.075	127906	keystroke	i	n/a
64.298	0.045	128596	keystroke	=	n/a
64.448	0.045	128896	keystroke	=	n/a
64.583	0.075	129166	keystroke	=	n/a
65.228	0.045	130456	keystroke	Key.backspace	n/a
65.3625	0.06	130725	keystroke	Key.backspace	n/a
65.5125	0.06	131025	keystroke	Key.backspace	n/a
65.6485	0.075	131297	keystroke	Key.backspace	n/a
65.8125	0.09	131625	keystroke	Key.backspace	n/a
66.0225	0.0905	132045	keystroke	Key.backspace	n/a
66.5335	0.059	133067	keystroke	p	n/a
66.6225	0.1055	133245	keystroke	r	n/a
66.758	0.09	133516	keystroke	i	n/a
66.9225	0.106	133845	keystroke	s	n/a
67.493	0.075	134986	keystroke	o	n/a
67.658	0.105	135316	keystroke	n	n/a
67.748	0.135	135496	keystroke	e	n/a
67.823	0.1495	135646	keystroke	r	n/a
67.9425	0.15	135885	keystroke	Key.space	n/a
68.5425	0.09	137085	keystroke	p	n/a
68.7525	0.15	137505	keystroke	r	n/a
68.8425	0.1355	137685	keystroke	e	n/a
69.038	0.15	138076	keystroke	s	n/a
69.128	0.15	138256	keystroke	e	n/a
69.323	0.12	138646	keystroke	n	n/a
69.473	0.09	138946	keystroke	t	n/a
69.608	0.1355	139216	keystroke	a	n/a
69.713	0.1045	139426	keystroke	t	n/a
69.7725	0.225	139545	keystroke	i	n/a
69.8475	0.12	139695	keystroke	o	n/a
69.9085	0.134	139817	keystroke	n	n/a
70.0125	0.105	140025	keystroke	Key.space	n/a
70.1625	0.105	140325	keystroke	c	n/a
70.2525	0.09	140505	keystroke	o	n/a
70.4475	0.15	140895	keystroke	i	n/a
70.5225	0.12	141045	keystroke	n	n/a
70.793	0.06	141586	keystroke	Key.enter	n/a
70.86	4.03	141720	prompt	n/a	task wrote montreal anne\n
71.4685	0.0895	142937	keystroke	t	n/a
71.648	0.105	143296	keystroke	a	n/a
71.708	0.1345	143416	keystroke	s	n/a
71.8575	0.075	143715	keystroke	k	n/a
71.8875	0.165	143775	keystroke	Key.space	n/a
72.0675	0.1505	144135	keystroke	w	n/a
72.203	0.135	144406	keystroke	r	n/a
72.4275	0.0905	144855	keystroke	o	n/a
72.5325	0.12	145065	keystroke	t	n/a
72.6535	0.074	145307	keystroke	e	n/a
72.7125	0.1355	145425	keystroke	Key.space	n/a
72.953	0.0895	145906	keystroke	m	n/a
73.0875	0.0755	146175	keystroke	o	n/a
73.238	0.1355	146476	keystroke	n	n/a
73.3885	0.12	146777	keystroke	t	n/a
73.4635	0.09	146927	keystroke	r	n/a
73.6435	0.1195	147287	keystroke	e	n/a
73.703	0.1355	147406	keystroke	a	n/a
73.8535	0.105	147707	keystroke	l	n/a
73.9425	0.105	147885	keystroke	Key.space	n/a
74.0185	0.12	148037	keystroke	a	n/a
74.1535	0.044	148307	keystroke	n	n/a
74.2735	0.105	148547	keystroke	n	n/a
74.3635	0.105	148727	keystroke	e	n/a
74.7835	0.105	149567	keystroke	Key.enter	n/a
74.8935	5.1265	149787	prompt	n/a	instruction command paxil area\n
75.578	0.135	151156	keystroke	i	n/a
75.683	0.12	151366	keystroke	n	n/a
75.818	0.105	151636	keystroke	s	n/a
75.983	0.09	151966	keystroke	t	n/a
76.028	0.105	152056	keystroke	r	n/a
76.1485	0.075	152297	keystroke	u	n/a
76.2385	0.105	152477	keystroke	c	n/a
76.4785	0.06	152957	keystroke	t	n/a
76.5535	0.21	153107	keystroke	i	n/a
76.6285	0.105	153257	keystroke	o	n/a
76.6885	0.135	153377	keystroke	n	n/a
76.7785	0.12	153557	keystroke	Key.space	n/a
76.9435	0.119	153887	keystroke	c	n/a
77.048	0.0745	154096	keystroke	o	n/a
77.198	0.0745	154396	keystroke	m	n/a
77.3325	0.105	154665	keystroke	m	n/a
77.4675	0.105	154935	keystroke	a	n/a
77.5885	0.1045	155177	keystroke	n	n/a
77.678	0.12	155356	keystroke	d	n/a
77.753	0.105	155506	keystroke	Key.space	n/a
77.933	0.06	155866	keystroke	p	n/a
78.008	0.105	156016	keystroke	a	n/a
78.263	0.09	156526	keystroke	x	n/a
78.398	0.21	156796	keystroke	i	n/a
78.593	0.12	157186	keystroke	l	n/a
78.8175	0.135	157635	keystroke	Key.space	n/a
78.9225	0.165	157845	keystroke	a	n/a
79.1025	0.12	158205	keystroke	r	n/a
79.1925	0.135	158385	keystroke	e	n/a
79.2825	0.12	158565	keystroke	a	n/a
79.943	0.075	159886	keystroke	Key.enter	n/a
80.0235	5.682	160047	prompt	n/a	tapes wireless movies jesse\n
80.6325	0.09	161265	keystroke	t	n/a
80.7675	0.091	161535	keystroke	a	n/a
80.8725	0.06	161745	keystroke	p	n/a
80.963	0.18	161926	keystroke	e	n/a
81.038	0.165	162076	keystroke	s	n/a
81.128	0.15	162256	keystroke	Key.space	n/a
81.6235	0.12	163247	keystroke	w	n/a
81.7735	0.105	163547	keystroke	i	n/a
81.8935	0.104	163787	keystroke	r	n/a
81.9535	0.09	163907	keystroke	e	n/a
82.0735	0.1045	164147	keystroke	l	n/a
82.163	0.075	164326	keystroke	e	n/a
82.358	0.06	164716	keystroke	s	n/a
82.478	0.12	164956	keystroke	s	n/a
82.583	0.105	165166	keystroke	Key.space	n/a
82.733	0.075	165466	keystroke	m	n/a
82.868	0.075	165736	keystroke	o	n/a
82.913	0.09	165826	keystroke	v	n/a
83.063	0.105	166126	keystroke	i	n/a
83.123	0.135	166246	keystroke	e	n/a
83.198	0.15	166396	keystroke	s	n/a
83.303	0.135	166606	keystroke	Key.space	n/a
83.498	0.105	166996	keystroke	j	n/a
83.558	0.09	167116	keystroke	e	n/a
83.798	0.075	167596	keystroke	s	n/a
83.933	0.105	167866	keystroke	s	n/a
84.083	0.135	168166	keystroke	e	n/a
85.6125	0.09	171225	keystroke	Key.enter	n/a
85.7095	5.6655	171419	prompt	n/a	architect slope apart backing\n
86.3625	0.18	172725	keystroke	a	n/a
86.5125	0.135	173025	keystroke	r	n/a
86.8575	0.12	173715	keystroke	c	n/a
86.9925	0.09	173985	keystroke	h	n/a
87.1125	0.0905	174225	keystroke	i	n/a
87.218	0.105	174436	keystroke	t	n/a
87.3075	0.1055	174615	keystroke	e	n/a
87.5035	0.09	175007	keystroke	c	n/a
87.7285	0.105	175457	keystroke	t	n/a
87.8035	0.134	175607	keystroke	Key.space	n/a
88.268	0.1355	176536	keystroke	s	n/a
88.3875	0.1055	176775	keystroke	l	n/a
88.598	0.195	177196	keystroke	o	n/a
88.673	0.135	177346	keystroke	p	n/a
88.778	0.15	177556	keystroke	e	n/a
88.883	0.12	177766	keystroke	Key.space	n/a
89.033	0.135	178066	keystroke	a	n/a
89.153	0.06	178306	keystroke	p	n/a
89.303	0.1795	178606	keystroke	a	n/a
89.4525	0.105	178905	keystroke	r	n/a
89.7975	0.12	179595	keystroke	t	n/a
90.098	0.09	180196	keystroke	Key.space	n/a
90.338	0.12	180676	keystroke	b	n/a
90.473	0.165	180946	keystroke	a	n/a
90.578	0.135	181156	keystroke	c	n/a
90.728	0.075	181456	keystroke	k	n/a
90.923	0.12	181846	keystroke	i	n/a
90.983	0.12	181966	keystroke	n	n/a
91.088	0.105	182176	keystroke	g	n/a
91.313	0.06	182626	keystroke	Key.enter	n/a
91.3805	5.9055	182761	prompt	n/a	greeting suggested assembled jersey\n
92.138	0.075	184276	keystroke	g	n/a
92.303	0.1655	184606	keystroke	r	n/a
92.4085	0.104	184817	keystroke	e	n/a
92.6775	0.105	185355	keystroke	e	n/a
92.888	0.09	185776	keystroke	t	n/a
93.023	0.12	186046	keystroke	i	n/a
93.083	0.1495	186166	keystroke	n	n/a
93.173	0.0895	186346	keystroke	g	n/a
93.2335	0.1195	186467	keystroke	Key.space	n/a
93.398	0.075	186796	keystroke	s	n/a
93.488	0.105	186976	keystroke	u	n/a
93.608	0.06	187216	keystroke	g	n/a
93.713	0.09	187426	keystroke	g	n/a
93.863	0.255	187726	keystroke	e	n/a
93.953	0.195	187906	keystroke	s	n/a
94.103	0.165	188206	keystroke	t	n/a
94.238	0.105	188476	keystroke	e	n/a
94.433	0.1195	188866	keystroke	d	n/a
94.508	0.1345	189016	keystroke	Key.space	n/a
94.6275	0.105	189255	keystroke	a	n/a
94.8375	0.075	189675	keystroke	s	n/a
94.9575	0.12	189915	keystroke	s	n/a
95.0925	0.12	190185	keystroke	e	n/a
95.2275	0.1055	190455	keystroke	m	n/a
95.468	0.0445	190936	keystroke	b	n/a
95.6175	0.1355	191235	keystroke	l	n/a
95.7385	0.089	191477	keystroke	e	n/a
95.948	0.1345	191896	keystroke	d	n/a
96.023	0.1195	192046	keystroke	Key.space	n/a
96.2475	0.12	192495	keystroke	j	n/a
96.3225	0.12	192645	keystroke	e	n/a
96.4125	0.135	192825	keystroke	r	n/a
96.5625	0.135	193125	keystroke	s	n/a
96.6375	0.15	193275	keystroke	e	n/a
96.8925	0.106	193785	keystroke	y	n/a
97.2225	0.06	194445	keystroke	Key.enter	n/a
97.292	6.2625	194584	prompt	n/a	reliable systematic prisoner pages\n
98.3335	0.12	196667	keystroke	r	n/a
98.4085	0.074	196817	keystroke	e	n/a
98.4985	0.0895	196997	keystroke	l	n/a
98.648	0.105	197296	keystroke	i	n/a
98.738	0.135	197476	keystroke	a	n/a
98.888	0.06	197776	keystroke	b	n/a
99.0525	0.09	198105	keystroke	l	n/a
99.1725	0.12	198345	keystroke	e	n/a
99.278	0.1345	198556	keystroke	Key.space	n/a
99.5175	0.09	199035	keystroke	s	n/a
99.7575	0.06	199515	keystroke	y	n/a
99.9225	0.195	199845	keystroke	s	n/a
100.0875	0.105	200175	keystroke	t	n/a
100.2075	0.0905	200415	keystroke	e	n/a
100.342	0.1065	200684	keystroke	m	n/a
100.718	0.135	201436	keystroke	a	n/a
100.958	0.074	201916	keystroke	t	n/a
101.1075	0.12	202215	keystroke	i	n/a
101.2425	0.1205	202485	keystroke	c	n/a
101.333	0.12	202666	keystroke	Key.space	n/a
101.513	0.075	203026	keystroke	p	n/a
101.588	0.09	203176	keystroke	r	n/a
101.738	0.12	203476	keystroke	i	n/a
101.918	0.105	203836	keystroke	s	n/a
102.038	0.06	204076	keystroke	o	n/a
102.173	0.105	204346	keystroke	n	n/a
102.293	0.15	204586	keystroke	e	n/a
102.383	0.15	204766	keystroke	r	n/a
102.473	0.135	204946	keystroke	Key.space	n/a
102.803	0.09	205606	keystroke	p	n/a
102.908	0.12	205816	keystroke	a	n/a
103.013	0.09	206026	keystroke	g	n/a
103.163	0.15	206326	keystroke	e	n/a
103.253	0.135	206506	keystroke	s	n/a
103.433	0.12	206866	keystroke	Key.enter	n/a
103.559	5.441	207118	prompt	n/a	giants brochure seats georgia\n
104.1975	0.075	208395	keystroke	g	n/a
104.3025	0.075	208605	keystroke	i	n/a
104.3475	0.105	208695	keystroke	a	n/a
104.4975	0.12	208995	keystroke	n	n/a
104.5725	0.135	209145	keystroke	t	n/a
104.6625	0.1345	209325	keystroke	s	n/a
104.7375	0.1505	209475	keystroke	Key.space	n/a
104.888	0.075	209776	keystroke	b	n/a
104.978	0.06	209956	keystroke	r	n/a
105.068	0.12	210136	keystroke	o	n/a
105.218	0.12	210436	keystroke	c	n/a
105.353	0.09	210706	keystroke	h	n/a
105.518	0.09	211036	keystroke	u	n/a
105.638	0.135	211276	keystroke	r	n/a
105.713	0.12	211426	keystroke	e	n/a
105.788	0.15	211576	keystroke	Key.space	n/a
105.953	0.12	211906	keystroke	s	n/a
106.043	0.165	212086	keystroke	e	n/a
106.178	0.1205	212356	keystroke	a	n/a
106.3575	0.1355	212715	keystroke	t	n/a
106.613	0.15	213226	keystroke	s	n/a
106.718	0.135	213436	keystroke	Key.space	n/a
107.753	0.06	215506	keystroke	g	n/a
107.873	0.0895	215746	keystroke	e	n/a
108.0075	0.105	216015	keystroke	o	n/a
108.0975	0.09	216195	keystroke	r	n/a
108.368	0.0745	216736	keystroke	g	n/a
108.5475	0.09	217095	keystroke	i	n/a
108.713	0.09	217426	keystroke	a	n/a
108.923	0.075	217846	keystroke	Key.enter	n/a
109.0035	6.4165	218007	prompt	n/a	gore throat markets applicable\n
110.0035	0.075	220007	keystroke	g	n/a
110.1385	0.09	220277	keystroke	o	n/a
110.2435	0.15	220487	keystroke	r	n/a
110.3485	0.075	220697	keystroke	e	n/a
110.3635	0.165	220727	keystroke	Key.space	n/a
110.858	0.105	221716	keystroke	t	n/a
110.978	0.1045	221956	keystroke	h	n/a
111.053	0.1495	222106	keystroke	r	n/a
111.5185	0.12	223037	keystroke	o	n/a
111.6825	0.195	223365	keystroke	a	n/a
111.8185	0.119	223637	keystroke	t	n/a
111.9075	0.1055	223815	keystroke	Key.space	n/a
112.328	0.09	224656	keystroke	m	n/a
112.448	0.105	224896	keystroke	a	n/a
112.718	0.075	225436	keystroke	r	n/a
112.883	0.105	225766	keystroke	k	n/a
113.003	0.12	226006	keystroke	e	n/a
113.078	0.12	226156	keystroke	t	n/a
113.213	0.135	226426	keystroke	s	n/a
113.288	0.135	226576	keystroke	Key.space	n/a
113.483	0.09	226966	keystroke	a	n/a
113.603	0.045	227206	keystroke	p	n/a
113.768	0.09	227536	keystroke	p	n/a
114.0535	0.09	228107	keystroke	l	n/a
114.2785	0.075	228557	keystroke	i	n/a
114.3685	0.12	228737	keystroke	c	n/a
114.4435	0.135	228887	keystroke	a	n/a
114.6085	0.075	229217	keystroke	b	n/a
114.773	0.105	229546	keystroke	l	n/a
114.878	0.075	229756	keystroke	e	n/a
115.313	0.105	230626	keystroke	Key.enter	n/a
115.424	5.726	230848	prompt	n/a	conducted horizon asthma illinois\n
116.1085	0.104	232217	keystroke	c	n/a
116.1675	0.075	232335	keystroke	o	n/a
116.3175	0.091	232635	keystroke	n	n/a
116.4225	0.09	232845	keystroke	d	n/a
116.4975	0.105	232995	keystroke	u	n/a
116.5875	0.105	233175	keystroke	c	n/a
116.7975	0.09	233595	keystroke	t	n/a
116.9035	0.089	233807	keystroke	e	n/a
117.1125	0.165	234225	keystroke	d	n/a
117.2325	0.12	234465	keystroke	Key.space	n/a
117.4125	0.061	234825	keystroke	h	n/a
117.5625	0.091	235125	keystroke	o	n/a
117.6675	0.061	235335	keystroke	r	n/a
117.7585	0.09	235517	keystroke	i	n/a
117.8635	0.12	235727	keystroke	z	n/a
118.1485	0.074	236297	keystroke	o	n/a
118.3275	0.075	236655	keystroke	n	n/a
118.4635	0.12	236927	keystroke	Key.space	n/a
118.9135	0.149	237827	keystroke	a	n/a
119.0035	0.104	238007	keystroke	s	n/a
119.2275	0.075	238455	keystroke	t	n/a
119.2885	0.089	238577	keystroke	h	n/a
119.4685	0.104	238937	keystroke	m	n/a
119.5875	0.105	239175	keystroke	a	n/a
119.7075	0.12	239415	keystroke	Key.space	n/a
119.8725	0.09	239745	keystroke	i	n/a
120.0675	0.075	240135	keystroke	l	n/a
120.188	0.09	240376	keystroke	l	n/a
120.353	0.09	240706	keystroke	i	n/a
120.518	0.075	241036	keystroke	n	n/a
120.668	0.0745	241336	keystroke	o	n/a
120.833	0.0745	241666	keystroke	i	n/a
120.953	0.0895	241906	keystroke	s	n/a
121.088	0.06	242176	keystroke	Key.enter	n/a
121.1535	6.146	242307	prompt	n/a	synopsis yarn bent johnson\n
122.018	0.12	244036	keystroke	s	n/a
122.243	0.075	244486	keystroke	y	n/a
122.393	0.12	244786	keystroke	n	n/a
122.753	0.135	245506	keystroke	o	n/a
122.843	0.12	245686	keystroke	p	n/a
123.143	0.1045	246286	keystroke	s	n/a
123.308	0.105	246616	keystroke	i	n/a
123.428	0.12	246856	keystroke	s	n/a
123.578	0.15	247156	keystroke	Key.space	n/a
124.2525	0.0905	248505	keystroke	y	n/a
124.358	0.09	248716	keystroke	a	n/a
124.523	0.075	249046	keystroke	r	n/a
124.658	0.09	249316	keystroke	n	n/a
124.793	0.12	249586	keystroke	Key.space	n/a
125.048	0.105	250096	keystroke	b	n/a
125.1825	0.15	250365	keystroke	e	n/a
125.3775	0.09	250755	keystroke	n	n/a
125.4825	0.09	250965	keystroke	t	n/a
125.5575	0.105	251115	keystroke	Key.space	n/a
125.7825	0.121	251565	keystroke	j	n/a
126.2925	0.09	252585	keystroke	o	n/a
126.4875	0.075	252975	keystroke	h	n/a
126.6375	0.09	253275	keystroke	n	n/a
126.8175	0.06	253635	keystroke	s	n/a
126.8785	0.074	253757	keystroke	o	n/a
127.0285	0.0745	254057	keystroke	n	n/a
127.2375	0.06	254475	keystroke	Key.enter	n/a
127.304	5.7855	254608	prompt	n/a	connecticut suite nutrition aruba\n
128.093	0.12	256186	keystroke	c	n/a
128.198	0.075	256396	keystroke	o	n/a
128.378	0.045	256756	keystroke	n	n/a
128.483	0.09	256966	keystroke	n	n/a
128.588	0.135	257176	keystroke	e	n/a
128.663	0.105	257326	keystroke	c	n/a
128.888	0.06	257776	keystroke	t	n/a
128.963	0.12	257926	keystroke	i	n/a
129.113	0.105	258226	keystroke	c	n/a
129.203	0.0905	258406	keystroke	u	n/a
129.4135	0.09	258827	keystroke	t	n/a
129.5185	0.119	259037	keystroke	Key.space	n/a
129.8785	0.12	259757	keystroke	s	n/a
129.9835	0.089	259967	keystroke	u	n/a
130.1485	0.104	260297	keystroke	i	n/a
130.1925	0.136	260385	keystroke	t	n/a
130.2985	0.119	260597	keystroke	e	n/a
130.3725	0.136	260745	keystroke	Key.space	n/a
130.5675	0.106	261135	keystroke	n	n/a
130.6875	0.106	261375	keystroke	u	n/a
130.7635	0.119	261527	keystroke	t	n/a
130.8385	0.105	261677	keystroke	r	n/a
130.9875	0.106	261975	keystroke	i	n/a
131.1085	0.104	262217	keystroke	t	n/a
131.1985	0.3	262397	keystroke	i	n/a
131.2725	0.166	262545	keystroke	o	n/a
131.4535	0.135	262907	keystroke	n	n/a
132.008	0.1355	264016	keystroke	Key.space	n/a
132.4435	0.15	264887	keystroke	a	n/a
132.5785	0.075	265157	keystroke	r	n/a
132.6385	0.12	265277	keystroke	u	n/a
132.6985	0.12	265397	keystroke	b	n/a
132.8185	0.09	265637	keystroke	a	n/a
133.0285	0.06	266057	keystroke	Key.enter	n/a
133.0945	5.3355	266189	prompt	n/a	chronicles reserves volume formerly\n
133.793	0.0905	267586	keystroke	c	n/a
133.8835	0.1495	267767	keystroke	h	n/a
134.048	0.03	268096	keystroke	r	n/a
134.0625	0.06	268125	keystroke	o	n/a
134.183	0.105	268366	keystroke	n	n/a
134.303	0.106	268606	keystroke	i	n/a
134.453	0.135	268906	keystroke	c	n/a
134.604	0.12	269208	keystroke	l	n/a
134.708	0.1955	269416	keystroke	e	n/a
134.768	0.1805	269536	keystroke	s	n/a
134.8885	0.15	269777	keystroke	Key.space	n/a
135.1285	0.15	270257	keystroke	r	n/a
135.1885	0.12	270377	keystroke	e	n/a
135.2935	0.194	270587	keystroke	s	n/a
135.4585	0.134	270917	keystroke	e	n/a
135.5175	0.15	271035	keystroke	r	n/a
135.7725	0.106	271545	keystroke	v	n/a
135.9375	0.15	271875	keystroke	e	n/a
135.9985	0.195	271997	keystroke	s	n/a
136.1475	0.105	272295	keystroke	Key.space	n/a
136.4035	0.105	272807	keystroke	v	n/a
136.523	0.0755	273046	keystroke	o	n/a
136.6735	0.075	273347	keystroke	l	n/a
136.8835	0.075	273767	keystroke	u	n/a
137.0785	0.09	274157	keystroke	m	n/a
137.1835	0.1345	274367	keystroke	e	n/a
137.2885	0.1045	274577	keystroke	Key.space	n/a
137.4535	0.09	274907	keystroke	f	n/a
137.5585	0.09	275117	keystroke	o	n/a
137.6335	0.09	275267	keystroke	r	n/a
137.7385	0.105	275477	keystroke	m	n/a
137.8135	0.12	275627	keystroke	e	n/a
137.8735	0.12	275747	keystroke	r	n/a
138.098	0.09	276196	keystroke	l	n/a
138.189	0.074	276378	keystroke	y	n/a
138.353	0.0755	276706	keystroke	Key.enter	n/a
138.435	15.58	276870	prompt	n/a	waterproof herald proceed comic\n
139.0885	0.1345	278177	keystroke	w	n/a
139.164	0.119	278328	keystroke	a	n/a
139.358	0.09	278716	keystroke	t	n/a
139.508	0.135	279016	keystroke	e	n/a
139.583	0.12	279166	keystroke	r	n/a
139.763	0.06	279526	keystroke	o	n/a
139.793	0.016	279586	keystroke	p	n/a
139.868	0.0755	279736	keystroke	r	n/a
140.9635	0.045	281927	keystroke	o	n/a
141.0685	0.09	282137	keystroke	o	n/a
141.2185	0.1345	282437	keystroke	f	n/a
141.308	0.12	282616	keystroke	Key.space	n/a
141.563	0.12	283126	keystroke	h	n/a
141.608	0.105	283216	keystroke	e	n/a
141.668	0.12	283336	keystroke	r	n/a
141.803	0.075	283606	keystroke	a	n/a
141.894	0.1195	283788	keystroke	l	n/a
142.0285	0.075	284057	keystroke	d	n/a
143.6635	0.045	287327	keystroke	Key.backspace	n/a
143.7985	0.06	287597	keystroke	Key.backspace	n/a
143.9635	0.045	287927	keystroke	Key.backspace	n/a
144.0985	0.045	288197	keystroke	Key.backspace	n/a
144.2485	0.03	288497	keystroke	Key.backspace	n/a
144.3835	0.045	288767	keystroke	Key.backspace	n/a
144.5335	0.0445	289067	keystroke	Key.backspace	n/a
144.6685	0.0595	289337	keystroke	Key.backspace	n/a
144.803	0.075	289606	keystroke	Key.backspace	n/a
144.953	0.06	289906	keystroke	Key.backspace	n/a
145.118	0.06	290236	keystroke	Key.backspace	n/a
145.253	0.09	290506	keystroke	Key.backspace	n/a
145.583	0.075	291166	keystroke	Key.backspace	n/a
146.093	0.12	292186	keystroke	o	n/a
146.228	0.075	292456	keystroke	r	n/a
146.333	0.075	292666	keystroke	i	n/a
146.498	0.09	292996	keystroke	i	n/a
146.633	0.09	293266	keystroke	f	n/a
146.783	0.105	293566	keystroke	Key.space	n/a
148.283	0.045	296566	keystroke	Key.backspace	n/a
148.433	0.045	296866	keystroke	Key.backspace	n/a
148.583	0.045	297166	keystroke	Key.backspace	n/a
148.733	0.0905	297466	keystroke	Key.backspace	n/a
149.0335	0.09	298067	keystroke	Key.backspace	n/a
149.393	0.09	298786	keystroke	Key.backspace	n/a
150.0835	0.1045	300167	keystroke	p	n/a
150.308	0.075	300616	keystroke	r	n/a
150.518	0.06	301036	keystroke	o	n/a
150.653	0.09	301306	keystroke	o	n/a
150.833	0.135	301666	keystroke	f	n/a
150.938	0.135	301876	keystroke	Key.space	n/a
151.343	0.12	302686	keystroke	h	n/a
151.403	0.1055	302806	keystroke	e	n/a
151.478	0.1055	302956	keystroke	r	n/a
151.5985	0.09	303197	keystroke	a	n/a
151.6735	0.12	303347	keystroke	l	n/a
151.8085	0.12	303617	keystroke	d	n/a
151.913	0.1355	303826	keystroke	Key.space	n/a
152.2135	0.09	304427	keystroke	p	n/a
152.2885	0.09	304577	keystroke	r	n/a
152.4085	0.1045	304817	keystroke	o	n/a
152.498	0.166	304996	keystroke	c	n/a
152.603	0.136	305206	keystroke	e	n/a
152.873	0.09	305746	keystroke	e	n/a
153.083	0.135	306166	keystroke	d	n/a
153.188	0.105	306376	keystroke	Key.space	n/a
153.3535	0.105	306707	keystroke	c	n/a
153.4285	0.12	306857	keystroke	o	n/a
153.5035	0.09	307007	keystroke	m	n/a
153.6385	0.105	307277	keystroke	i	n/a
153.728	0.09	307456	keystroke	c	n/a
153.953	0.06	307906	keystroke	Key.enter	n/a
154.0195	6.4905	308039	prompt	n/a	physicians poll younger antonio\n
155.2435	0.06	310487	keystroke	p	n/a
155.438	0.06	310876	keystroke	h	n/a
155.588	0.0755	311176	keystroke	y	n/a
155.7385	0.135	311477	keystroke	s	n/a
156.264	0.075	312528	keystroke	i	n/a
156.324	0.09	312648	keystroke	c	n/a
156.429	0.089	312858	keystroke	i	n/a
156.504	0.09	313008	keystroke	a	n/a
156.609	0.1045	313218	keystroke	n	n/a
156.7285	0.135	313457	keystroke	s	n/a
156.9535	0.105	313907	keystroke	Key.space	n/a
157.2835	0.09	314567	keystroke	p	n/a
157.4485	0.09	314897	keystroke	o	n/a
157.6285	0.06	315257	keystroke	l	n/a
157.7335	0.09	315467	keystroke	l	n/a
157.8535	0.135	315707	keystroke	Key.space	n/a
158.139	0.074	316278	keystroke	y	n/a
158.199	0.15	316398	keystroke	o	n/a
158.288	0.09	316576	keystroke	u	n/a
158.453	0.091	316906	keystroke	n	n/a
158.513	0.09	317026	keystroke	g	n/a
158.7085	0.135	317417	keystroke	e	n/a
158.7835	0.1195	317567	keystroke	r	n/a
158.8135	0.1495	317627	keystroke	Key.space	n/a
158.978	0.21	317956	keystroke	a	n/a
159.173	0.075	318346	keystroke	n	n/a
159.278	0.0905	318556	keystroke	t	n/a
159.3685	0.09	318737	keystroke	o	n/a
159.5035	0.12	319007	keystroke	n	n/a
159.6385	0.1955	319277	keystroke	i	n/a
159.714	0.15	319428	keystroke	o	n/a
160.389	0.12	320778	keystroke	Key.enter	n/a
160.5135	6.6115	321027	prompt	n/a	discounted samoa blanket google\n
161.1985	0.09	322397	keystroke	d	n/a
161.2735	0.105	322547	keystroke	i	n/a
161.3485	0.15	322697	keystroke	s	n/a
161.4535	0.15	322907	keystroke	c	n/a
161.5435	0.1195	323087	keystroke	o	n/a
161.6185	0.0745	323237	keystroke	u	n/a
161.7835	0.105	323567	keystroke	n	n/a
161.8735	0.1045	323747	keystroke	t	n/a
161.993	0.045	323986	keystroke	e	n/a
162.128	0.12	324256	keystroke	d	n/a
162.278	0.09	324556	keystroke	Key.space	n/a
162.728	0.165	325456	keystroke	s	n/a
162.833	0.15	325666	keystroke	a	n/a
162.969	0.105	325938	keystroke	m	n/a
163.223	0.075	326446	keystroke	o	n/a
163.314	0.164	326628	keystroke	a	n/a
163.433	0.12	326866	keystroke	Key.space	n/a
163.628	0.075	327256	keystroke	b	n/a
163.793	0.09	327586	keystroke	l	n/a
163.884	0.119	327768	keystroke	a	n/a
164.123	0.09	328246	keystroke	n	n/a
165.5635	0.105	331127	keystroke	k	n/a
165.6535	0.15	331307	keystroke	e	n/a
165.7435	0.12	331487	keystroke	t	n/a
165.8485	0.105	331697	keystroke	Key.space	n/a
166.0585	0.09	332117	keystroke	g	n/a
166.1935	0.06	332387	keystroke	o	n/a
166.3435	0.075	332687	keystroke	o	n/a
166.6135	0.09	333227	keystroke	g	n/a
166.8235	0.09	333647	keystroke	l	n/a
166.9285	0.06	333857	keystroke	e	n/a
167.0335	0.09	334067	keystroke	Key.enter	n/a
167.1285	5.6665	334257	prompt	n/a	sunday counties clarke mainstream\n
167.933	0.12	335866	keystroke	s	n/a
168.068	0.12	336136	keystroke	u	n/a
168.143	0.15	336286	keystroke	n	n/a
168.248	0.12	336496	keystroke	d	n/a
168.323	0.12	336646	keystroke	a	n/a
168.593	0.09	337186	keystroke	y	n/a
168.668	0.105	337336	keystroke	Key.space	n/a
168.878	0.12	337756	keystroke	c	n/a
168.983	0.12	337966	keystroke	o	n/a
169.058	0.075	338116	keystroke	u	n/a
169.223	0.1055	338446	keystroke	n	n/a
169.2985	0.12	338597	keystroke	t	n/a
169.4485	0.09	338897	keystroke	i	n/a
169.5085	0.165	339017	keystroke	e	n/a
169.5835	0.195	339167	keystroke	s	n/a
170.5435	0.1055	341087	keystroke	Key.space	n/a
170.769	0.105	341538	keystroke	c	n/a
170.889	0.12	341778	keystroke	l	n/a
170.979	0.1645	341958	keystroke	a	n/a
171.099	0.1045	342198	keystroke	r	n/a
171.2335	0.1205	342467	keystroke	k	n/a
171.339	0.105	342678	keystroke	e	n/a
171.414	0.12	342828	keystroke	Key.space	n/a
171.579	0.105	343158	keystroke	m	n/a
171.669	0.105	343338	keystroke	a	n/a
171.744	0.105	343488	keystroke	i	n/a
171.804	0.135	343608	keystroke	n	n/a
171.909	0.135	343818	keystroke	s	n/a
172.059	0.15	344118	keystroke	t	n/a
172.164	0.075	344328	keystroke	r	n/a
172.329	0.135	344658	keystroke	e	n/a
172.419	0.149	344838	keystroke	a	n/a
172.553	0.0755	345106	keystroke	m	n/a
172.7335	0.0605	345467	keystroke	Key.enter	n/a
172.799	7.5265	345598	prompt	n/a	leisure sprint waters barely\n
173.4085	0.105	346817	keystroke	l	n/a
173.4985	0.135	346997	keystroke	e	n/a
173.6635	0.075	347327	keystroke	i	n/a
173.8135	0.12	347627	keystroke	s	n/a
173.994	0.1045	347988	keystroke	u	n/a
174.1135	0.135	348227	keystroke	r	n/a
174.1885	0.105	348377	keystroke	e	n/a
174.2635	0.135	348527	keystroke	Key.space	n/a
174.4285	0.12	348857	keystroke	s	n/a
174.5785	0.06	349157	keystroke	o	n/a
174.5935	0.03	349187	keystroke	p	n/a
174.6985	0.09	349397	keystroke	r	n/a
175.704	0.0295	351408	keystroke	Key.backspace	n/a
175.8235	0.0755	351647	keystroke	Key.backspace	n/a
175.9885	0.075	351977	keystroke	Key.backspace	n/a
176.3935	0.03	352787	keystroke	Key.backspace	n/a
177.2485	0.1055	354497	keystroke	s	n/a
177.369	0.09	354738	keystroke	p	n/a
177.654	0.089	355308	keystroke	r	n/a
177.893	0.12	355786	keystroke	i	n/a
177.953	0.135	355906	keystroke	n	n/a
178.118	0.135	356236	keystroke	t	n/a
178.208	0.135	356416	keystroke	Key.space	n/a
178.418	0.135	356836	keystroke	w	n/a
178.493	0.12	356986	keystroke	a	n/a
178.673	0.09	357346	keystroke	t	n/a
178.7935	0.15	357587	keystroke	e	n/a
178.8985	0.165	357797	keystroke	r	n/a
179.0035	0.135	358007	keystroke	s	n/a
179.0935	0.15	358187	keystroke	Key.space	n/a
179.3185	0.105	358637	keystroke	b	n/a
179.4085	0.165	358817	keystroke	a	n/a
179.5285	0.15	359057	keystroke	r	n/a
179.6335	0.15	359267	keystroke	e	n/a
179.9185	0.105	359837	keystroke	l	n/a
180.0085	0.09	360017	keystroke	y	n/a
180.2335	0.09	360467	keystroke	Key.enter	n/a
180.3305	8.4705	360661	prompt	n/a	taxation dogs natural carry\n
180.9835	0.105	361967	keystroke	t	n/a
181.1635	0.1795	362327	keystroke	a	n/a
181.313	0.121	362626	keystroke	x	n/a
181.448	0.12	362896	keystroke	a	n/a
181.659	0.075	363318	keystroke	t	n/a
181.719	0.21	363438	keystroke	i	n/a
181.794	0.105	363588	keystroke	o	n/a
181.853	0.151	363706	keystroke	n	n/a
181.943	0.09	363886	keystroke	Key.space	n/a
182.094	0.104	364188	keystroke	d	n/a
182.213	0.076	364426	keystroke	i	n/a
182.214	0.059	364428	keystroke	o	n/a
182.333	0.075	364666	keystroke	g	n/a
183.6685	0.045	367337	keystroke	Key.backspace	n/a
183.8185	0.045	367637	keystroke	Key.backspace	n/a
183.9535	0.06	367907	keystroke	Key.backspace	n/a
184.5385	0.09	369077	keystroke	o	n/a
184.6585	0.135	369317	keystroke	g	n/a
184.7635	0.135	369527	keystroke	s	n/a
184.9285	0.105	369857	keystroke	Key.space	n/a
185.1685	0.12	370337	keystroke	n	n/a
185.2435	0.18	370487	keystroke	a	n/a
185.3485	0.09	370697	keystroke	t	n/a
185.4835	0.075	370967	keystroke	u	n/a
185.5285	0.1055	371057	keystroke	r	n/a
185.679	0.105	371358	keystroke	a	n/a
185.814	0.12	371628	keystroke	l	n/a
185.964	0.09	371928	keystroke	Key.space	n/a
186.159	0.09	372318	keystroke	c	n/a
186.249	0.09	372498	keystroke	h	n/a
187.329	0.075	374658	keystroke	Key.backspace	n/a
187.839	0.104	375678	keystroke	a	n/a
188.079	0.0595	376158	keystroke	r	n/a
188.1835	0.12	376367	keystroke	r	n/a
188.439	0.06	376878	keystroke	y	n/a
188.724	0.075	377448	keystroke	Key.enter	n/a
188.8045	7.1665	377609	prompt	n/a	haven geometry laws willing\n
189.819	0.105	379638	keystroke	h	n/a
189.879	0.09	379758	keystroke	a	n/a
190.059	0.09	380118	keystroke	v	n/a
190.164	0.075	380328	keystroke	e	n/a
190.314	0.075	380628	keystroke	n	n/a
190.419	0.105	380838	keystroke	Key.space	n/a
192.5035	0.12	385007	keystroke	g	n/a
192.5935	0.135	385187	keystroke	e	n/a
192.7135	0.091	385427	keystroke	o	n/a
192.9235	0.09	385847	keystroke	m	n/a
193.2835	0.0755	386567	keystroke	e	n/a
193.479	0.12	386958	keystroke	t	n/a
193.569	0.12	387138	keystroke	r	n/a
193.749	0.0895	387498	keystroke	y	n/a
193.8985	0.12	387797	keystroke	Key.space	n/a
194.2735	0.12	388547	keystroke	l	n/a
194.3785	0.15	388757	keystroke	a	n/a
194.4535	0.105	388907	keystroke	w	n/a
194.6485	0.135	389297	keystroke	s	n/a
194.7685	0.105	389537	keystroke	Key.space	n/a
194.9185	0.075	389837	keystroke	w	n/a
194.9945	0.059	389989	keystroke	i	n/a
195.1735	0.06	390347	keystroke	l	n/a
195.2935	0.105	390587	keystroke	l	n/a
195.5035	0.135	391007	keystroke	i	n/a
195.5785	0.105	391157	keystroke	n	n/a
195.6685	0.09	391337	keystroke	g	n/a
195.8785	0.0905	391757	keystroke	Key.enter	n/a
195.9745	18.296	391949	prompt	n/a	telecharger vienna rules tail\n
196.839	0.09	393678	keystroke	t	n/a
196.944	0.1045	393888	keystroke	e	n/a
197.079	0.105	394158	keystroke	l	n/a
197.138	0.075	394276	keystroke	e	n/a
197.4385	0.12	394877	keystroke	c	n/a
197.6345	0.1195	395269	keystroke	h	n/a
197.8885	0.18	395777	keystroke	a	n/a
198.009	0.0905	396018	keystroke	r	n/a
198.2335	0.075	396467	keystroke	g	n/a
198.3695	0.15	396739	keystroke	e	n/a
198.4595	0.135	396919	keystroke	r	n/a
198.5335	0.105	397067	keystroke	Key.space	n/a
198.8335	0.105	397667	keystroke	v	n/a
198.9985	0.105	397997	keystroke	i	n/a
199.1185	0.09	398237	keystroke	e	n/a
199.3585	0.06	398717	keystroke	n	n/a
199.4785	0.105	398957	keystroke	n	n/a
199.5835	0.12	399167	keystroke	a	n/a
199.6885	0.105	399377	keystroke	Key.space	n/a
200.0785	0.105	400157	keystroke	r	n/a
200.1845	0.074	400369	keystroke	u	n/a
200.3785	0.09	400757	keystroke	l	n/a
200.4835	0.18	400967	keystroke	e	n/a
200.5585	0.18	401117	keystroke	s	n/a
201.0835	0.12	402167	keystroke	Key.space	n/a
201.4285	0.165	402857	keystroke	t	n/a
201.6085	0.105	403217	keystroke	a	n/a
201.6985	0.21	403397	keystroke	i	n/a
201.8035	0.15	403607	keystroke	l	n/a
204.5205	0.001	409041	keystroke	Key.backspace	n/a
204.593	0.046	409186	keystroke	Key.backspace	n/a
204.729	0.06	409458	keystroke	Key.backspace	n/a
204.849	0.074	409698	keystroke	Key.backspace	n/a
204.983	0.076	409966	keystroke	Key.backspace	n/a
205.389	0.06	410778	keystroke	Key.backspace	n/a
205.479	0.03	410958	keystroke	Key.backspace	n/a
205.749	0.06	411498	keystroke	Key.backspace	n/a
205.824	0.165	411648	keystroke	Key.backspace	n/a
206.049	0.105	412098	keystroke	Key.backspace	n/a
206.229	0.105	412458	keystroke	Key.backspace	n/a
206.394	0.045	412788	keystroke	Key.backspace	n/a
206.454	0.06	412908	keystroke	Key.backspace	n/a
206.754	0.06	413508	keystroke	Key.backspace	n/a
206.829	0.045	413658	keystroke	Key.backspace	n/a
206.979	0.075	413958	keystroke	Key.backspace	n/a
207.189	0.03	414378	keystroke	Key.backspace	n/a
207.294	0.1195	414588	keystroke	Key.backspace	n/a
207.4585	0.045	414917	keystroke	Key.backspace	n/a
207.5335	0.0455	415067	keystroke	Key.backspace	n/a
207.639	0.06	415278	keystroke	Key.backspace	n/a
207.714	0.045	415428	keystroke	Key.backspace	n/a
207.819	0.06	415638	keystroke	Key.backspace	n/a
207.894	0.045	415788	keystroke	Key.backspace	n/a
207.999	0.1045	415998	keystroke	Key.backspace	n/a
208.1635	0.06	416327	keystroke	Key.backspace	n/a
208.2385	0.045	416477	keystroke	Key.backspace	n/a
209.9035	0.09	419807	keystroke	l	n/a
210.0685	0.0905	420137	keystroke	e	n/a
210.3095	0.1045	420619	keystroke	c	n/a
210.429	0.12	420858	keystroke	h	n/a
210.564	0.225	421128	keystroke	a	n/a
210.714	0.105	421428	keystroke	r	n/a
210.924	0.06	421848	keystroke	g	n/a
211.074	0.135	422148	keystroke	e	n/a
211.149	0.075	422298	keystroke	r	n/a
211.194	0.1195	422388	keystroke	Key.space	n/a
211.6595	0.105	423319	keystroke	v	n/a
211.8385	0.121	423677	keystroke	i	n/a
211.9445	0.075	423889	keystroke	e	n/a
212.364	0.06	424728	keystroke	n	n/a
212.484	0.0895	424968	keystroke	n	n/a
212.6185	0.135	425237	keystroke	a	n/a
212.7385	0.12	425477	keystroke	Key.space	n/a
212.8885	0.09	425777	keystroke	r	n/a
212.9485	0.0755	425897	keystroke	u	n/a
213.174	0.03	426348	keystroke	l	n/a
213.189	0.21	426378	keystroke	e	n/a
213.264	0.225	426528	keystroke	s	n/a
213.459	0.15	426918	keystroke	Key.space	n/a
213.654	0.12	427308	keystroke	t	n/a
213.789	0.105	427578	keystroke	a	n/a
213.864	0.18	427728	keystroke	i	n/a
213.939	0.135	427878	keystroke	l	n/a
214.194	0.075	428388	keystroke	Key.enter	n/a
214.2735	5.308	428547	prompt	n/a	reached crew expert microwave\n
215.004	0.12	430008	keystroke	r	n/a
215.124	0.1355	430248	keystroke	e	n/a
215.2445	0.149	430489	keystroke	a	n/a
215.3635	0.1055	430727	keystroke	c	n/a
215.4845	0.1045	430969	keystroke	h	n/a
215.5285	0.1055	431057	keystroke	e	n/a
215.739	0.09	431478	keystroke	d	n/a
215.814	0.135	431628	keystroke	Key.space	n/a
216.084	0.105	432168	keystroke	c	n/a
216.324	0.075	432648	keystroke	r	n/a
216.504	0.15	433008	keystroke	e	n/a
216.609	0.165	433218	keystroke	w	n/a
216.729	0.15	433458	keystroke	Key.space	n/a
216.894	0.075	433788	keystroke	e	n/a
217.119	0.06	434238	keystroke	x	n/a
217.224	0.0895	434448	keystroke	p	n/a
217.3285	0.12	434657	keystroke	e	n/a
217.3885	0.09	434777	keystroke	r	n/a
217.5835	0.075	435167	keystroke	t	n/a
218.0185	0.09	436037	keystroke	Key.space	n/a
218.2435	0.075	436487	keystroke	m	n/a
218.3785	0.105	436757	keystroke	i	n/a
218.4685	0.0905	436937	keystroke	c	n/a
218.649	0.09	437298	keystroke	r	n/a
218.799	0.075	437598	keystroke	o	n/a
218.904	0.135	437808	keystroke	w	n/a
218.994	0.105	437988	keystroke	a	n/a
219.234	0.0745	438468	keystroke	v	n/a
219.3535	0.105	438707	keystroke	e	n/a
219.5035	0.075	439007	keystroke	Key.enter	n/a
219.585	8.5155	439170	prompt	n/a	saskatchewan oxide workshops passage\n
220.4645	0.119	440929	keystroke	s	n/a
220.5695	0.194	441139	keystroke	a	n/a
220.7785	0.135	441557	keystroke	s	n/a
221.0935	0.12	442187	keystroke	k	n/a
221.3035	0.18	442607	keystroke	a	n/a
221.5285	0.075	443057	keystroke	t	n/a
221.7685	0.105	443537	keystroke	c	n/a
221.9185	0.09	443837	keystroke	h	n/a
222.2635	0.06	444527	keystroke	e	n/a
222.4585	0.06	444917	keystroke	w	n/a
222.6985	0.06	445397	keystroke	a	n/a
222.8035	0.075	445607	keystroke	n	n/a
222.9235	0.075	445847	keystroke	Key.space	n/a
223.5385	0.076	447077	keystroke	o	n/a
223.6585	0.091	447317	keystroke	x	n/a
223.764	0.105	447528	keystroke	i	n/a
223.899	0.105	447798	keystroke	d	n/a
224.079	0.105	448158	keystroke	e	n/a
224.169	0.105	448338	keystroke	Key.space	n/a
224.349	0.09	448698	keystroke	w	n/a
224.424	0.09	448848	keystroke	o	n/a
224.514	0.06	449028	keystroke	r	n/a
224.589	0.09	449178	keystroke	k	n/a
224.739	0.1345	449478	keystroke	s	n/a
224.9035	0.045	449807	keystroke	h	n/a
225.0085	0.1655	450017	keystroke	o	n/a
225.0835	0.1205	450167	keystroke	p	n/a
225.219	0.1355	450438	keystroke	s	n/a
225.3385	0.09	450677	keystroke	Key.space	n/a
225.5645	0.044	451129	keystroke	p	n/a
225.6685	0.075	451337	keystroke	a	n/a
225.8935	0.0455	451787	keystroke	s	n/a
225.999	0.075	451998	keystroke	s	n/a
226.269	0.03	452538	keystroke	g	n/a
227.4685	0.105	454937	keystroke	Key.backspace	n/a
227.5885	0.15	455177	keystroke	a	n/a
227.724	0.09	455448	keystroke	g	n/a
227.8435	0.0905	455687	keystroke	e	n/a
228.024	0.075	456048	keystroke	Key.enter	n/a
228.1035	4.6625	456207	prompt	n/a	guests vocals lighting report\n
229.029	0.075	458058	keystroke	g	n/a
229.134	0.09	458268	keystroke	u	n/a
229.194	0.1345	458388	keystroke	e	n/a
229.269	0.1495	458538	keystroke	s	n/a
229.4035	0.12	458807	keystroke	t	n/a
229.4935	0.18	458987	keystroke	s	n/a
229.6285	0.105	459257	keystroke	Key.space	n/a
229.8235	0.105	459647	keystroke	v	n/a
229.9435	0.105	459887	keystroke	o	n/a
230.334	0.12	460668	keystroke	c	n/a
230.424	0.105	460848	keystroke	a	n/a
230.679	0.105	461358	keystroke	l	n/a
230.799	0.12	461598	keystroke	s	n/a
230.904	0.12	461808	keystroke	Key.space	n/a
231.069	0.0895	462138	keystroke	l	n/a
231.2485	0.091	462497	keystroke	i	n/a
231.369	0.09	462738	keystroke	g	n/a
231.444	0.09	462888	keystroke	h	n/a
231.549	0.06	463098	keystroke	t	n/a
231.624	0.09	463248	keystroke	i	n/a
231.669	0.12	463338	keystroke	n	n/a
231.744	0.09	463488	keystroke	g	n/a
231.789	0.135	463578	keystroke	Key.space	n/a
231.969	0.15	463938	keystroke	r	n/a
232.044	0.12	464088	keystroke	e	n/a
232.179	0.06	464358	keystroke	p	n/a
232.314	0.09	464628	keystroke	o	n/a
232.374	0.105	464748	keystroke	r	n/a
232.554	0.0745	465108	keystroke	t	n/a
232.7035	0.06	465407	keystroke	Key.enter	n/a
232.769	6.7765	465538	prompt	n/a	condition directed contribute briefly\n
233.484	0.105	466968	keystroke	c	n/a
233.574	0.06	467148	keystroke	o	n/a
233.709	0.105	467418	keystroke	n	n/a
233.814	0.09	467628	keystroke	d	n/a
233.919	0.105	467838	keystroke	i	n/a
234.039	0.06	468078	keystroke	t	n/a
234.099	0.225	468198	keystroke	i	n/a
234.144	0.12	468288	keystroke	o	n/a
234.219	0.165	468438	keystroke	n	n/a
234.354	0.105	468708	keystroke	Key.space	n/a
234.594	0.075	469188	keystroke	d	n/a
234.699	0.09	469398	keystroke	i	n/a
234.774	0.09	469548	keystroke	r	n/a
234.894	0.165	469788	keystroke	e	n/a
235.014	0.105	470028	keystroke	c	n/a
235.224	0.105	470448	keystroke	t	n/a
235.299	0.09	470598	keystroke	e	n/a
235.509	0.12	471018	keystroke	d	n/a
235.584	0.12	471168	keystroke	Key.space	n/a
235.749	0.105	471498	keystroke	c	n/a
235.869	0.045	471738	keystroke	o	n/a
235.989	0.105	471978	keystroke	n	n/a
236.064	0.105	472128	keystroke	t	n/a
236.124	0.105	472248	keystroke	r	n/a
236.214	0.075	472428	keystroke	i	n/a
236.409	0.105	472818	keystroke	b	n/a
236.499	0.12	472998	keystroke	u	n/a
236.679	0.135	473358	keystroke	t	n/a
236.784	0.09	473568	keystroke	e	n/a
236.859	0.135	473718	keystroke	Key.space	n/a
237.759	0.12	475518	keystroke	b	n/a
237.939	0.09	475878	keystroke	r	n/a
238.044	0.105	476088	keystroke	i	n/a
238.134	0.105	476268	keystroke	e	n/a
238.299	0.12	476598	keystroke	f	n/a
238.494	0.135	476988	keystroke	l	n/a
238.644	0.09	477288	keystroke	y	n/a
239.484	0.06	478968	keystroke	Key.enter	n/a
239.56	6.5555	479120	prompt	n/a	beats theft sports presently\n
240.519	0.09	481038	keystroke	b	n/a
240.579	0.15	481158	keystroke	e	n/a
240.669	0.18	481338	keystroke	a	n/a
240.789	0.135	481578	keystroke	t	n/a
240.969	0.15	481938	keystroke	s	n/a
241.059	0.12	482118	keystroke	Key.space	n/a
241.4945	0.09	482989	keystroke	t	n/a
241.5695	0.105	483139	keystroke	h	n/a
241.6445	0.15	483289	keystroke	e	n/a
241.8395	0.105	483679	keystroke	f	n/a
242.0345	0.105	484069	keystroke	t	n/a
242.1395	0.135	484279	keystroke	Key.space	n/a
242.2895	0.104	484579	keystroke	s	n/a
242.3795	0.075	484759	keystroke	p	n/a
242.5445	0.0745	485089	keystroke	o	n/a
242.5895	0.0745	485179	keystroke	r	n/a
242.754	0.1205	485508	keystroke	t	n/a
242.8595	0.12	485719	keystroke	s	n/a
242.9195	0.165	485839	keystroke	Key.space	n/a
243.1595	0.075	486319	keystroke	p	n/a
243.2195	0.09	486439	keystroke	r	n/a
243.2645	0.135	486529	keystroke	e	n/a
243.4145	0.15	486829	keystroke	s	n/a
243.5195	0.15	487039	keystroke	e	n/a
243.7145	0.105	487429	keystroke	n	n/a
243.8045	0.1195	487609	keystroke	t	n/a
244.1195	0.1195	488239	keystroke	l	n/a
244.224	0.105	488448	keystroke	y	n/a
246.039	0.075	492078	keystroke	Key.enter	n/a
246.12	8.1255	492240	prompt	n/a	conducted mandatory vitamins abilities\n
246.8635	0.105	493727	keystroke	c	n/a
246.9245	0.074	493849	keystroke	o	n/a
247.0595	0.1195	494119	keystroke	n	n/a
247.1635	0.0905	494327	keystroke	d	n/a
247.269	0.075	494538	keystroke	u	n/a
247.314	0.09	494628	keystroke	c	n/a
247.524	0.09	495048	keystroke	t	n/a
247.629	0.075	495258	keystroke	e	n/a
247.809	0.12	495618	keystroke	d	n/a
247.914	0.105	495828	keystroke	Key.space	n/a
248.124	0.105	496248	keystroke	m	n/a
248.214	0.12	496428	keystroke	a	n/a
248.349	0.12	496698	keystroke	n	n/a
248.484	0.09	496968	keystroke	d	n/a
248.634	0.105	497268	keystroke	a	n/a
248.859	0.06	497718	keystroke	t	n/a
248.949	0.105	497898	keystroke	o	n/a
249.024	0.09	498048	keystroke	r	n/a
249.249	0.045	498498	keystroke	y	n/a
249.309	0.075	498618	keystroke	Key.space	n/a
249.999	0.075	499998	keystroke	v	n/a
250.059	0.135	500118	keystroke	i	n/a
250.149	0.105	500298	keystroke	t	n/a
250.314	0.09	500628	keystroke	a	n/a
250.434	0.0745	500868	keystroke	m	n/a
250.5685	0.105	501137	keystroke	i	n/a
250.6435	0.105	501287	keystroke	n	n/a
250.7635	0.12	501527	keystroke	s	n/a
250.8235	0.135	501647	keystroke	Key.space	n/a
251.169	0.09	502338	keystroke	a	n/a
251.244	0.09	502488	keystroke	b	n/a
251.364	0.195	502728	keystroke	i	n/a
251.439	0.105	502878	keystroke	l	n/a
251.664	0.105	503328	keystroke	i	n/a
251.754	0.075	503508	keystroke	t	n/a
251.859	0.105	503718	keystroke	i	n/a
251.934	0.135	503868	keystroke	e	n/a
252.009	0.12	504018	keystroke	s	n/a
254.1385	0.106	508277	keystroke	Key.enter	n/a
254.2495	5.471	508499	prompt	n/a	sufficient clear vinyl breaking\n
255.249	0.09	510498	keystroke	s	n/a
255.339	0.105	510678	keystroke	u	n/a
255.459	0.06	510918	keystroke	f	n/a
255.579	0.075	511158	keystroke	f	n/a
255.699	0.09	511398	keystroke	i	n/a
255.774	0.12	511548	keystroke	c	n/a
255.879	0.105	511758	keystroke	i	n/a
255.999	0.075	511998	keystroke	e	n/a
256.089	0.105	512178	keystroke	n	n/a
256.209	0.075	512418	keystroke	t	n/a
256.299	0.1055	512598	keystroke	Key.space	n/a
256.644	0.105	513288	keystroke	c	n/a
256.75	0.119	513500	keystroke	l	n/a
256.854	0.135	513708	keystroke	e	n/a
256.929	0.18	513858	keystroke	a	n/a
257.049	0.135	514098	keystroke	r	n/a
257.139	0.12	514278	keystroke	Key.space	n/a
257.724	0.0895	515448	keystroke	v	n/a
257.7835	0.1655	515567	keystroke	i	n/a
257.859	0.12	515718	keystroke	n	n/a
258.174	0.0745	516348	keystroke	y	n/a
258.384	0.105	516768	keystroke	l	n/a
258.5935	0.1055	517187	keystroke	Key.space	n/a
258.774	0.12	517548	keystroke	b	n/a
258.864	0.105	517728	keystroke	r	n/a
258.939	0.15	517878	keystroke	e	n/a
259.014	0.15	518028	keystroke	a	n/a
259.104	0.075	518208	keystroke	k	n/a
259.284	0.12	518568	keystroke	i	n/a
259.344	0.09	518688	keystroke	n	n/a
259.464	0.075	518928	keystroke	g	n/a
259.614	0.105	519228	keystroke	Key.enter	n/a
259.727	6.4145	519454	prompt	n/a	cleveland formats partially gravity\n
260.559	0.105	521118	keystroke	c	n/a
260.649	0.135	521298	keystroke	l	n/a
260.739	0.135	521478	keystroke	e	n/a
260.964	0.105	521928	keystroke	v	n/a
261.129	0.075	522258	keystroke	e	n/a
261.3535	0.091	522707	keystroke	l	n/a
261.4135	0.106	522827	keystroke	a	n/a
261.5335	0.121	523067	keystroke	n	n/a
261.6395	0.12	523279	keystroke	d	n/a
261.7135	0.12	523427	keystroke	Key.space	n/a
261.8785	0.076	523757	keystroke	f	n/a
261.9545	0.09	523909	keystroke	o	n/a
262.0445	0.09	524089	keystroke	r	n/a
262.1495	0.09	524299	keystroke	m	n/a
262.2245	0.15	524449	keystroke	a	n/a
262.3145	0.0895	524629	keystroke	t	n/a
263.439	0.135	526878	keystroke	s	n/a
263.514	0.135	527028	keystroke	Key.space	n/a
263.754	0.09	527508	keystroke	p	n/a
263.829	0.165	527658	keystroke	a	n/a
263.934	0.075	527868	keystroke	r	n/a
264.099	0.09	528198	keystroke	t	n/a
264.189	0.075	528378	keystroke	i	n/a
264.279	0.105	528558	keystroke	a	n/a
264.399	0.06	528798	keystroke	l	n/a
264.519	0.12	529038	keystroke	l	n/a
264.594	0.1045	529188	keystroke	y	n/a
264.6685	0.15	529337	keystroke	Key.space	n/a
265.0735	0.075	530147	keystroke	g	n/a
265.2085	0.105	530417	keystroke	r	n/a
265.3285	0.09	530657	keystroke	a	n/a
265.4935	0.09	530987	keystroke	v	n/a
265.6285	0.09	531257	keystroke	i	n/a
265.7335	0.075	531467	keystroke	t	n/a
265.9135	0.0755	531827	keystroke	y	n/a
266.064	0.075	532128	keystroke	Key.enter	n/a
266.146	9.61	532292	prompt	n/a	agreements investigators para highlights\n
266.814	0.135	533628	keystroke	a	n/a
266.979	0.12	533958	keystroke	g	n/a
267.189	0.09	534378	keystroke	r	n/a
267.3995	0.06	534799	keystroke	e	n/a
267.5335	0.061	535067	keystroke	e	n/a
267.6545	0.074	535309	keystroke	m	n/a
267.7145	0.06	535429	keystroke	a	n/a
267.8195	0.105	535639	keystroke	n	n/a
268.5545	0.075	537109	keystroke	Key.backspace	n/a
268.7045	0.075	537409	keystroke	Key.backspace	n/a
269.4535	0.105	538907	keystroke	e	n/a
269.5745	0.0895	539149	keystroke	n	n/a
269.6335	0.1205	539267	keystroke	t	n/a
269.739	0.135	539478	keystroke	s	n/a
269.844	0.15	539688	keystroke	Key.space	n/a
270.3695	0.135	540739	keystroke	i	n/a
270.4445	0.135	540889	keystroke	n	n/a
270.5645	0.09	541129	keystroke	v	n/a
270.7145	0.165	541429	keystroke	e	n/a
270.7745	0.18	541549	keystroke	s	n/a
270.9245	0.1195	541849	keystroke	t	n/a
271.3595	0.09	542719	keystroke	i	n/a
271.509	0.105	543018	keystroke	g	n/a
271.734	0.1045	543468	keystroke	a	n/a
271.9135	0.091	543827	keystroke	t	n/a
272.0495	0.105	544099	keystroke	o	n/a
272.1245	0.15	544249	keystroke	r	n/a
272.2295	0.105	544459	keystroke	s	n/a
272.3195	0.12	544639	keystroke	Key.space	n/a
272.6495	0.09	545299	keystroke	p	n/a
272.7535	0.1355	545507	keystroke	a	n/a
272.8595	0.15	545719	keystroke	r	n/a
272.964	0.1205	545928	keystroke	a	n/a
273.0545	0.1345	546109	keystroke	Key.space	n/a
273.534	0.105	547068	keystroke	h	n/a
273.624	0.12	547248	keystroke	i	n/a
273.834	0.18	547668	keystroke	g	n/a
274.6885	0.105	549377	keystroke	h	n/a
274.9135	0.075	549827	keystroke	l	n/a
275.1095	0.059	550219	keystroke	i	n/a
275.2145	0.074	550429	keystroke	g	n/a
275.2735	0.12	550547	keystroke	h	n/a
275.3785	0.1055	550757	keystroke	t	n/a
275.469	0.12	550938	keystroke	s	n/a
275.649	0.105	551298	keystroke	Key.enter	n/a
275.761	3.925	551522	prompt	n/a	skirts chains acne memory\n
276.399	0.12	552798	keystroke	s	n/a
276.489	0.045	552978	keystroke	k	n/a
276.609	0.09	553218	keystroke	i	n/a
276.654	0.105	553308	keystroke	r	n/a
276.849	0.0905	553698	keystroke	t	n/a
276.9845	0.135	553969	keystroke	s	n/a
277.0745	0.105	554149	keystroke	Key.space	n/a
277.2095	0.089	554419	keystroke	c	n/a
277.2845	0.089	554569	keystroke	h	n/a
277.3595	0.089	554719	keystroke	a	n/a
277.4185	0.1355	554837	keystroke	i	n/a
277.509	0.1195	555018	keystroke	n	n/a
277.5985	0.135	555197	keystroke	s	n/a
277.7185	0.09	555437	keystroke	Key.space	n/a
277.8685	0.15	555737	keystroke	a	n/a
278.0785	0.09	556157	keystroke	c	n/a
278.2145	0.0895	556429	keystroke	n	n/a
278.319	0.075	556638	keystroke	e	n/a
278.4085	0.105	556817	keystroke	Key.space	n/a
278.5735	0.0915	557147	keystroke	m	n/a
278.649	0.075	557298	keystroke	e	n/a
278.739	0.075	557478	keystroke	m	n/a
278.904	0.075	557808	keystroke	o	n/a
279.024	0.105	558048	keystroke	r	n/a
279.339	0.06	558678	keystroke	y	n/a
279.594	0.0905	559188	keystroke	Key.enter	n/a
279.6895	6.641	559379	prompt	n/a	limitations html blame imagine\n
280.4045	0.06	560809	keystroke	l	n/a
280.5245	0.15	561049	keystroke	i	n/a
280.6445	0.09	561289	keystroke	m	n/a
280.7795	0.12	561559	keystroke	i	n/a
280.9295	0.09	561859	keystroke	t	n/a
281.0495	0.135	562099	keystroke	a	n/a
281.1545	0.105	562309	keystroke	t	n/a
281.2445	0.179	562489	keystroke	i	n/a
281.2895	0.104	562579	keystroke	o	n/a
281.3635	0.12	562727	keystroke	n	n/a
281.4385	0.12	562877	keystroke	Key.space	n/a
281.7385	0.105	563477	keystroke	h	n/a
282.0385	0.09	564077	keystroke	t	n/a
282.1735	0.1055	564347	keystroke	m	n/a
282.369	0.1055	564738	keystroke	l	n/a
282.5045	0.119	565009	keystroke	Key.space	n/a
282.7745	0.089	565549	keystroke	l	n/a
283.1185	0.075	566237	keystroke	Key.backspace	n/a
283.569	0.0895	567138	keystroke	b	n/a
283.674	0.12	567348	keystroke	l	n/a
283.779	0.09	567558	keystroke	a	n/a
283.884	0.075	567768	keystroke	m	n/a
283.989	0.0755	567978	keystroke	e	n/a
284.2745	0.105	568549	keystroke	Key.space	n/a
284.5895	0.18	569179	keystroke	i	n/a
284.6795	0.135	569359	keystroke	m	n/a
284.7845	0.135	569569	keystroke	a	n/a
284.9495	0.075	569899	keystroke	g	n/a
285.0245	0.1195	570049	keystroke	i	n/a
285.0695	0.1195	570139	keystroke	n	n/a
285.174	0.09	570348	keystroke	e	n/a
286.2395	0.089	572479	keystroke	Key.enter	n/a
286.334	6.3865	572668	prompt	n/a	winners biol folder boring\n
288.1145	0.12	576229	keystroke	w	n/a
288.2195	0.09	576439	keystroke	i	n/a
288.3845	0.06	576769	keystroke	n	n/a
288.5045	0.105	577009	keystroke	n	n/a
288.5645	0.21	577129	keystroke	e	n/a
288.6545	0.195	577309	keystroke	r	n/a
288.7595	0.12	577519	keystroke	s	n/a
288.8195	0.15	577639	keystroke	Key.space	n/a
289.2695	0.0745	578539	keystroke	b	n/a
289.434	0.15	578868	keystroke	i	n/a
289.494	0.105	578988	keystroke	o	n/a
289.734	0.105	579468	keystroke	l	n/a
289.914	0.105	579828	keystroke	Key.space	n/a
290.184	0.12	580368	keystroke	f	n/a
290.274	0.06	580548	keystroke	o	n/a
290.439	0.075	580878	keystroke	l	n/a
290.529	0.06	581058	keystroke	d	n/a
290.679	0.135	581358	keystroke	e	n/a
290.754	0.09	581508	keystroke	r	n/a
290.799	0.12	581598	keystroke	Key.space	n/a
291.174	0.075	582348	keystroke	b	n/a
291.339	0.075	582678	keystroke	o	n/a
291.429	0.075	582858	keystroke	r	n/a
291.5345	0.135	583069	keystroke	i	n/a
291.6095	0.12	583219	keystroke	n	n/a
291.6845	0.075	583369	keystroke	g	n/a
292.629	0.09	585258	keystroke	Key.enter	n/a
292.7235	9.2375	585447	prompt	n/a	ecology james becomes worm\n
294.911	0.013	589822	keystroke	e	n/a
295.059	0.09	590118	keystroke	c	n/a
295.224	0.105	590448	keystroke	i	n/a
295.239	0.075	590478	keystroke	o	n/a
295.434	0.105	590868	keystroke	l	n/a
296.2135	0.076	592427	keystroke	Key.backspace	n/a
296.3645	0.074	592729	keystroke	Key.backspace	n/a
296.5135	0.09	593027	keystroke	Key.backspace	n/a
298.4345	0.09	596869	keystroke	o	n/a
298.599	0.075	597198	keystroke	l	n/a
298.7645	0.09	597529	keystroke	o	n/a
298.9595	0.06	597919	keystroke	g	n/a
299.0795	0.105	598159	keystroke	y	n/a
299.484	0.105	598968	keystroke	Key.space	n/a
299.814	0.09	599628	keystroke	j	n/a
299.889	0.105	599778	keystroke	a	n/a
300.009	0.105	600018	keystroke	m	n/a
300.069	0.18	600138	keystroke	e	n/a
300.174	0.135	600348	keystroke	s	n/a
300.219	0.135	600438	keystroke	Key.space	n/a
300.414	0.09	600828	keystroke	b	n/a
300.505	0.149	601010	keystroke	e	n/a
300.639	0.105	601278	keystroke	c	n/a
300.774	0.12	601548	keystroke	o	n/a
300.819	0.15	601638	keystroke	m	n/a
300.954	0.15	601908	keystroke	e	n/a
301.029	0.165	602058	keystroke	s	n/a
301.134	0.12	602268	keystroke	Key.space	n/a
301.3585	0.1055	602717	keystroke	w	n/a
301.4795	0.09	602959	keystroke	o	n/a
301.5545	0.075	603109	keystroke	r	n/a
301.6445	0.09	603289	keystroke	m	n/a
301.8695	0.0895	603739	keystroke	Key.enter	n/a
301.966	8.92	603932	prompt	n/a	three journalism interactive mario\n
302.589	0.09	605178	keystroke	t	n/a
302.694	0.105	605388	keystroke	h	n/a
302.754	0.0905	605508	keystroke	r	n/a
302.964	0.03	605928	keystroke	e	n/a
303.069	0.12	606138	keystroke	e	n/a
303.204	0.09	606408	keystroke	Key.space	n/a
303.354	0.075	606708	keystroke	j	n/a
303.475	0.149	606950	keystroke	o	n/a
303.564	0.105	607128	keystroke	u	n/a
303.654	0.09	607308	keystroke	r	n/a
303.774	0.105	607548	keystroke	n	n/a
303.894	0.09	607788	keystroke	a	n/a
303.999	0.075	607998	keystroke	l	n/a
304.254	0.015	608508	keystroke	i	n/a
304.284	0.06	608568	keystroke	s	n/a
304.359	0.09	608718	keystroke	m	n/a
304.464	0.105	608928	keystroke	Key.space	n/a
304.599	0.105	609198	keystroke	i	n/a
304.674	0.12	609348	keystroke	n	n/a
304.749	0.09	609498	keystroke	t	n/a
304.854	0.12	609708	keystroke	e	n/a
304.929	0.105	609858	keystroke	r	n/a
305.064	0.09	610128	keystroke	a	n/a
305.2145	0.0895	610429	keystroke	c	n/a
305.4695	0.06	610939	keystroke	t	n/a
305.5745	0.09	611149	keystroke	i	n/a
305.6645	0.09	611329	keystroke	v	n/a
305.7395	0.12	611479	keystroke	e	n/a
305.8145	0.1195	611629	keystroke	Key.space	n/a
306.099	0.105	612198	keystroke	m	n/a
306.189	0.135	612378	keystroke	a	n/a
306.279	0.105	612558	keystroke	r	n/a
306.339	0.225	612678	keystroke	i	n/a
306.429	0.15	612858	keystroke	o	n/a
310.8415	0.043	621683	keystroke	Key.enter	n/a
310.8905	11.546	621781	prompt	n/a	visitors hayes katrina mins\n
311.889	0.09	623778	keystroke	v	n/a
311.994	0.075	623988	keystroke	i	n/a
312.084	0.105	624168	keystroke	s	n/a
312.174	0.12	624348	keystroke	i	n/a
312.309	0.0605	624618	keystroke	t	n/a
312.4145	0.075	624829	keystroke	o	n/a
312.5345	0.105	625069	keystroke	r	n/a
312.7145	0.1045	625429	keystroke	s	n/a
312.834	0.135	625668	keystroke	Key.space	n/a
313.5095	0.105	627019	keystroke	k	n/a
313.5695	0.135	627139	keystroke	a	n/a
313.6895	0.1195	627379	keystroke	t	n/a
313.764	0.09	627528	keystroke	r	n/a
313.839	0.12	627678	keystroke	i	n/a
313.914	0.12	627828	keystroke	n	n/a
314.019	0.12	628038	keystroke	a	n/a
314.169	0.12	628338	keystroke	Key.space	n/a
314.334	0.06	628668	keystroke	m	n/a
314.424	0.18	628848	keystroke	i	n/a
314.514	0.12	629028	keystroke	n	n/a
314.619	0.09	629238	keystroke	s	n/a
316.4045	0.06	632809	keystroke	Key.backspace	n/a
316.6145	0.015	633229	keystroke	Key.backspace	n/a
316.6895	0.0445	633379	keystroke	Key.backspace	n/a
316.824	0.0605	633648	keystroke	Key.backspace	n/a
316.9595	0.06	633919	keystroke	Key.backspace	n/a
317.1095	0.0595	634219	keystroke	Key.backspace	n/a
317.259	0.06	634518	keystroke	Key.backspace	n/a
317.394	0.0755	634788	keystroke	Key.backspace	n/a
317.5445	0.06	635089	keystroke	Key.backspace	n/a
317.6795	0.09	635359	keystroke	Key.backspace	n/a
317.8295	0.105	635659	keystroke	Key.backspace	n/a
318.2945	0.06	636589	keystroke	Key.backspace	n/a
318.6995	0.075	637399	keystroke	h	n/a
318.7895	0.105	637579	keystroke	a	n/a
318.8945	0.075	637789	keystroke	y	n/a
318.9995	0.165	637999	keystroke	e	n/a
319.0745	0.15	638149	keystroke	s	n/a
319.1645	0.12	638329	keystroke	Key.space	n/a
319.6895	0.135	639379	keystroke	k	n/a
319.7645	0.165	639529	keystroke	a	n/a
319.8845	0.135	639769	keystroke	t	n/a
319.9895	0.12	639979	keystroke	r	n/a
320.1245	0.135	640249	keystroke	i	n/a
320.1995	0.12	640399	keystroke	n	n/a
320.2895	0.09	640579	keystroke	a	n/a
320.4395	0.105	640879	keystroke	Key.space	n/a
320.6795	0.06	641359	keystroke	m	n/a
320.7995	0.105	641599	keystroke	i	n/a
320.8595	0.12	641719	keystroke	n	n/a
320.9645	0.09	641929	keystroke	s	n/a
322.3145	0.12	644629	keystroke	Key.enter	n/a
322.444	8.2275	644888	prompt	n/a	wordpress authorization quantum anything\n
323.3645	0.105	646729	keystroke	w	n/a
323.4845	0.12	646969	keystroke	o	n/a
323.6195	0.045	647239	keystroke	r	n/a
323.7545	0.09	647509	keystroke	d	n/a
323.919	0.075	647838	keystroke	p	n/a
324.024	0.135	648048	keystroke	r	n/a
324.114	0.12	648228	keystroke	e	n/a
324.354	0.075	648708	keystroke	s	n/a
324.489	0.12	648978	keystroke	s	n/a
324.624	0.105	649248	keystroke	Key.space	n/a
324.804	0.135	649608	keystroke	a	n/a
324.924	0.12	649848	keystroke	u	n/a
325.089	0.09	650178	keystroke	t	n/a
325.254	0.06	650508	keystroke	h	n/a
325.689	0.075	651378	keystroke	o	n/a
325.99	0.104	651980	keystroke	r	n/a
326.529	0.105	653058	keystroke	i	n/a
326.649	0.091	653298	keystroke	z	n/a
326.8145	0.105	653629	keystroke	a	n/a
327.0095	0.09	654019	keystroke	t	n/a
327.0545	0.225	654109	keystroke	i	n/a
327.1145	0.135	654229	keystroke	o	n/a
327.2045	0.15	654409	keystroke	n	n/a
327.2945	0.15	654589	keystroke	Key.space	n/a
327.8195	0.075	655639	keystroke	q	n/a
327.9095	0.135	655819	keystroke	u	n/a
328.0295	0.105	656059	keystroke	a	n/a
328.1195	0.105	656239	keystroke	n	n/a
328.5695	0.12	657139	keystroke	t	n/a
328.6745	0.12	657349	keystroke	u	n/a
328.9145	0.105	657829	keystroke	m	n/a
329.0945	0.135	658189	keystroke	Key.space	n/a
329.2145	0.0895	658429	keystroke	a	n/a
329.319	0.105	658638	keystroke	n	n/a
329.439	0.09	658878	keystroke	y	n/a
329.5895	0.12	659179	keystroke	t	n/a
329.6645	0.12	659329	keystroke	h	n/a
329.7695	0.165	659539	keystroke	i	n/a
329.8595	0.135	659719	keystroke	n	n/a
329.9495	0.09	659899	keystroke	g	n/a
330.579	0.09	661158	keystroke	Key.enter	n/a
330.6775	5.138	661355	prompt	n/a	enhancements snow disposal temp\n
331.3745	0.105	662749	keystroke	e	n/a
331.4945	0.09	662989	keystroke	n	n/a
331.7195	0.06	663439	keystroke	h	n/a
331.7495	0.12	663499	keystroke	a	n/a
331.8845	0.12	663769	keystroke	n	n/a
331.9745	0.105	663949	keystroke	c	n/a
332.0345	0.105	664069	keystroke	e	n/a
332.1995	0.105	664399	keystroke	m	n/a
332.3195	0.105	664639	keystroke	e	n/a
332.3945	0.105	664789	keystroke	n	n/a
332.4695	0.1195	664939	keystroke	t	n/a
332.5595	0.1345	665119	keystroke	s	n/a
332.649	0.135	665298	keystroke	Key.space	n/a
332.829	0.09	665658	keystroke	s	n/a
332.874	0.09	665748	keystroke	n	n/a
333.024	0.09	666048	keystroke	o	n/a
333.129	0.105	666258	keystroke	w	n/a
333.189	0.135	666378	keystroke	Key.space	n/a
333.399	0.09	666798	keystroke	d	n/a
333.489	0.09	666978	keystroke	i	n/a
333.564	0.105	667128	keystroke	s	n/a
333.789	0.0755	667578	keystroke	p	n/a
333.939	0.09	667878	keystroke	o	n/a
334.014	0.09	668028	keystroke	s	n/a
334.194	0.09	668388	keystroke	a	n/a
334.269	0.0905	668538	keystroke	l	n/a
334.7185	0.106	669437	keystroke	Key.space	n/a
335.0045	0.119	670009	keystroke	t	n/a
335.0795	0.12	670159	keystroke	e	n/a
335.2145	0.09	670429	keystroke	m	n/a
335.4095	0.09	670819	keystroke	p	n/a
335.724	0.09	671448	keystroke	Key.enter	n/a
335.8215	8.4095	671643	prompt	n/a	kinda customized temporarily lewis\n
336.4585	0.0905	672917	keystroke	k	n/a
336.6385	0.12	673277	keystroke	i	n/a
336.7295	0.1045	673459	keystroke	n	n/a
336.789	0.12	673578	keystroke	d	n/a
336.849	0.15	673698	keystroke	a	n/a
336.969	0.1205	673938	keystroke	Key.space	n/a
337.1795	0.105	674359	keystroke	s	n/a
337.5845	0.12	675169	keystroke	Key.backspace	n/a
338.0795	0.105	676159	keystroke	c	n/a
338.1545	0.105	676309	keystroke	u	n/a
339.444	0.1055	678888	keystroke	s	n/a
339.504	0.1355	679008	keystroke	t	n/a
339.6245	0.06	679249	keystroke	o	n/a
339.6545	0.09	679309	keystroke	m	n/a
339.8045	0.105	679609	keystroke	i	n/a
339.9245	0.135	679849	keystroke	z	n/a
340.0895	0.075	680179	keystroke	e	n/a
340.2545	0.12	680509	keystroke	d	n/a
340.3445	0.1345	680689	keystroke	Key.space	n/a
340.5245	0.09	681049	keystroke	t	n/a
340.5995	0.09	681199	keystroke	e	n/a
340.734	0.09	681468	keystroke	m	n/a
340.929	0.06	681858	keystroke	p	n/a
341.0795	0.105	682159	keystroke	o	n/a
341.1695	0.105	682339	keystroke	r	n/a
341.334	0.15	682668	keystroke	a	n/a
341.499	0.12	682998	keystroke	r	n/a
341.604	0.21	683208	keystroke	i	n/a
341.709	0.12	683418	keystroke	l	n/a
341.904	0.105	683808	keystroke	y	n/a
342.054	0.135	684108	keystroke	Key.space	n/a
342.399	0.12	684798	keystroke	l	n/a
342.504	0.1355	685008	keystroke	e	n/a
342.5785	0.105	685157	keystroke	w	n/a
342.8195	0.104	685639	keystroke	i	n/a
342.9385	0.09	685877	keystroke	s	n/a
344.169	0.06	688338	keystroke	Key.enter	n/a
344.234	8.6215	688468	prompt	n/a	ontario investment continuity really\n
345.1895	0.09	690379	keystroke	o	n/a
345.3395	0.134	690679	keystroke	n	n/a
345.4445	0.09	690889	keystroke	t	n/a
345.5945	0.164	691189	keystroke	a	n/a
345.8045	0.09	691609	keystroke	r	n/a
345.9545	0.195	691909	keystroke	i	n/a
346.0295	0.135	692059	keystroke	o	n/a
346.1795	0.15	692359	keystroke	Key.space	n/a
346.5545	0.09	693109	keystroke	i	n/a
346.6145	0.135	693229	keystroke	n	n/a
346.9295	0.09	693859	keystroke	v	n/a
347.1095	0.105	694219	keystroke	e	n/a
347.2595	0.15	694519	keystroke	s	n/a
347.3645	0.105	694729	keystroke	t	n/a
347.5295	0.12	695059	keystroke	m	n/a
347.6645	0.09	695329	keystroke	e	n/a
347.7395	0.0745	695479	keystroke	n	n/a
347.829	0.075	695658	keystroke	t	n/a
347.889	0.105	695778	keystroke	Key.space	n/a
348.324	0.12	696648	keystroke	c	n/a
348.459	0.09	696918	keystroke	o	n/a
348.624	0.105	697248	keystroke	n	n/a
349.089	0.09	698178	keystroke	t	n/a
349.254	0.135	698508	keystroke	i	n/a
349.359	0.135	698718	keystroke	n	n/a
349.554	0.075	699108	keystroke	u	n/a
349.734	0.09	699468	keystroke	i	n/a
349.929	0.135	699858	keystroke	t	n/a
350.169	0.0605	700338	keystroke	y	n/a
350.2445	0.119	700489	keystroke	Key.space	n/a
350.5145	0.135	701029	keystroke	r	n/a
350.5745	0.12	701149	keystroke	e	n/a
350.6645	0.134	701329	keystroke	a	n/a
350.8135	0.061	701627	keystroke	l	n/a
350.9345	0.119	701869	keystroke	l	n/a
351.0235	0.09	702047	keystroke	y	n/a
352.7645	0.09	705529	keystroke	Key.enter	n/a
352.86	8.456	705720	prompt	n/a	occurred brooks locator attribute\n
354.0695	0.09	708139	keystroke	o	n/a
354.2345	0.075	708469	keystroke	c	n/a
354.3845	0.09	708769	keystroke	c	n/a
354.5045	0.075	709009	keystroke	u	n/a
354.9245	0.09	709849	keystroke	r	n/a
355.0745	0.1195	710149	keystroke	r	n/a
355.225	0.0885	710450	keystroke	e	n/a
355.4495	0.075	710899	keystroke	d	n/a
355.8985	0.0905	711797	keystroke	Key.space	n/a
356.169	0.105	712338	keystroke	b	n/a
356.304	0.075	712608	keystroke	r	n/a
356.424	0.06	712848	keystroke	o	n/a
356.559	0.135	713118	keystroke	o	n/a
356.619	0.12	713238	keystroke	k	n/a
356.754	0.135	713508	keystroke	s	n/a
356.829	0.135	713658	keystroke	Key.space	n/a
357.024	0.09	714048	keystroke	l	n/a
357.249	0.0905	714498	keystroke	o	n/a
357.3535	0.09	714707	keystroke	c	n/a
357.4595	0.089	714919	keystroke	a	n/a
357.6245	0.074	715249	keystroke	t	n/a
357.7285	0.105	715457	keystroke	o	n/a
357.8485	0.0755	715697	keystroke	r	n/a
357.909	0.105	715818	keystroke	Key.space	n/a
358.134	0.075	716268	keystroke	a	n/a
358.344	0.06	716688	keystroke	t	n/a
358.479	0.105	716958	keystroke	t	n/a
358.689	0.1045	717378	keystroke	r	n/a
358.8995	0.09	717799	keystroke	i	n/a
359.1245	0.074	718249	keystroke	b	n/a
359.2585	0.091	718517	keystroke	u	n/a
359.3645	0.12	718729	keystroke	t	n/a
359.4395	0.105	718879	keystroke	e	n/a
361.239	0.0755	722478	keystroke	Key.enter	n/a
361.3195	8.7565	722639	prompt	n/a	predictions participants seasons municipal\n
362.4095	0.09	724819	keystroke	p	n/a
362.5145	0.105	725029	keystroke	r	n/a
362.5745	0.09	725149	keystroke	e	n/a
362.7695	0.1345	725539	keystroke	d	n/a
363.024	0.0905	726048	keystroke	i	n/a
363.1295	0.09	726259	keystroke	c	n/a
363.489	0.0755	726978	keystroke	t	n/a
363.5795	0.239	727159	keystroke	i	n/a
363.6545	0.135	727309	keystroke	o	n/a
363.7295	0.149	727459	keystroke	n	n/a
363.8035	0.136	727607	keystroke	s	n/a
363.9535	0.0905	727907	keystroke	Key.space	n/a
364.119	0.12	728238	keystroke	p	n/a
364.254	0.21	728508	keystroke	a	n/a
364.389	0.12	728778	keystroke	r	n/a
364.659	0.075	729318	keystroke	t	n/a
364.854	0.105	729708	keystroke	i	n/a
364.944	0.09	729888	keystroke	c	n/a
365.049	0.105	730098	keystroke	i	n/a
365.289	0.075	730578	keystroke	p	n/a
365.3945	0.105	730789	keystroke	a	n/a
365.5145	0.1195	731029	keystroke	n	n/a
365.619	0.12	731238	keystroke	t	n/a
365.709	0.1505	731418	keystroke	s	n/a
365.844	0.105	731688	keystroke	Key.space	n/a
366.009	0.165	732018	keystroke	s	n/a
366.1585	0.1205	732317	keystroke	e	n/a
366.294	0.24	732588	keystroke	a	n/a
366.549	0.1195	733098	keystroke	s	n/a
366.9845	0.09	733969	keystroke	o	n/a
367.1945	0.105	734389	keystroke	n	n/a
367.2845	0.135	734569	keystroke	s	n/a
367.3895	0.12	734779	keystroke	Key.space	n/a
367.5395	0.09	735079	keystroke	m	n/a
367.7495	0.15	735499	keystroke	u	n/a
367.8245	0.12	735649	keystroke	n	n/a
368.0345	0.135	736069	keystroke	i	n/a
368.2145	0.1045	736429	keystroke	c	n/a
368.364	0.105	736728	keystroke	i	n/a
368.619	0.0905	737238	keystroke	p	n/a
368.7695	0.09	737539	keystroke	a	n/a
368.8895	0.12	737779	keystroke	l	n/a
369.9545	0.12	739909	keystroke	Key.enter	n/a
370.0805	6.8205	740161	prompt	n/a	republican scanned casual temp\n
371.064	0.1205	742128	keystroke	r	n/a
371.1095	0.105	742219	keystroke	e	n/a
371.2295	0.09	742459	keystroke	p	n/a
371.4695	0.09	742939	keystroke	u	n/a
371.6345	0.075	743269	keystroke	b	n/a
371.7845	0.06	743569	keystroke	l	n/a
371.9495	0.09	743899	keystroke	i	n/a
372.0395	0.12	744079	keystroke	c	n/a
372.1295	0.12	744259	keystroke	a	n/a
372.2645	0.075	744529	keystroke	n	n/a
372.3545	0.12	744709	keystroke	Key.space	n/a
372.5495	0.1345	745099	keystroke	s	n/a
372.685	0.119	745370	keystroke	c	n/a
372.924	0.105	745848	keystroke	a	n/a
373.059	0.061	746118	keystroke	n	n/a
373.179	0.105	746358	keystroke	n	n/a
373.2995	0.06	746599	keystroke	e	n/a
373.4645	0.12	746929	keystroke	d	n/a
373.6145	0.12	747229	keystroke	Key.space	n/a
373.8245	0.12	747649	keystroke	c	n/a
373.9295	0.135	747859	keystroke	a	n/a
374.7095	0.1055	749419	keystroke	s	n/a
374.935	0.104	749870	keystroke	u	n/a
375.025	0.105	750050	keystroke	a	n/a
375.145	0.12	750290	keystroke	l	n/a
375.249	0.12	750498	keystroke	Key.space	n/a
375.43	0.119	750860	keystroke	t	n/a
375.52	0.1045	751040	keystroke	e	n/a
375.6095	0.09	751219	keystroke	m	n/a
375.8045	0.0895	751609	keystroke	p	n/a
376.7945	0.105	753589	keystroke	Key.enter	n/a
376.9055	6.5355	753811	prompt	n/a	edwards criticism crafts crime\n
377.8295	0.0755	755659	keystroke	e	n/a
378.04	0.09	756080	keystroke	d	n/a
378.325	0.18	756650	keystroke	w	n/a
378.43	0.179	756860	keystroke	a	n/a
378.594	0.106	757188	keystroke	r	n/a
378.775	0.134	757550	keystroke	d	n/a
378.85	0.15	757700	keystroke	s	n/a
378.955	0.105	757910	keystroke	Key.space	n/a
379.165	0.09	758330	keystroke	c	n/a
379.3595	0.09	758719	keystroke	r	n/a
379.4945	0.105	758989	keystroke	i	n/a
379.6145	0.06	759229	keystroke	t	n/a
379.7195	0.135	759439	keystroke	i	n/a
379.8095	0.105	759619	keystroke	c	n/a
380.7245	0.0895	761449	keystroke	i	n/a
380.815	0.104	761630	keystroke	s	n/a
380.934	0.075	761868	keystroke	m	n/a
381.054	0.105	762108	keystroke	Key.space	n/a
381.474	0.09	762948	keystroke	c	n/a
381.699	0.075	763398	keystroke	r	n/a
381.819	0.165	763638	keystroke	a	n/a
381.969	0.12	763938	keystroke	f	n/a
382.239	0.075	764478	keystroke	t	n/a
382.389	0.15	764778	keystroke	s	n/a
382.509	0.105	765018	keystroke	Key.space	n/a
382.734	0.075	765468	keystroke	c	n/a
382.899	0.075	765798	keystroke	r	n/a
383.004	0.1505	766008	keystroke	i	n/a
383.079	0.1205	766158	keystroke	m	n/a
383.1395	0.075	766279	keystroke	e	n/a
383.349	0.09	766698	keystroke	Key.enter	n/a
383.445	7.1515	766890	prompt	n/a	chinese remained citysearch font\n
384.144	0.105	768288	keystroke	c	n/a
384.22	0.105	768440	keystroke	h	n/a
384.295	0.1495	768590	keystroke	i	n/a
384.3995	0.15	768799	keystroke	n	n/a
384.4595	0.105	768919	keystroke	e	n/a
384.6095	0.135	769219	keystroke	s	n/a
384.6995	0.1795	769399	keystroke	e	n/a
384.8645	0.1345	769729	keystroke	Key.space	n/a
385.149	0.105	770298	keystroke	r	n/a
385.209	0.09	770418	keystroke	e	n/a
385.359	0.0905	770718	keystroke	m	n/a
385.4645	0.09	770929	keystroke	a	n/a
385.5245	0.12	771049	keystroke	i	n/a
385.5845	0.12	771169	keystroke	n	n/a
385.6595	0.075	771319	keystroke	e	n/a
385.839	0.105	771678	keystroke	d	n/a
385.915	0.134	771830	keystroke	Key.space	n/a
386.08	0.089	772160	keystroke	c	n/a
386.185	0.089	772370	keystroke	i	n/a
386.799	0.12	773598	keystroke	t	n/a
387.04	0.059	774080	keystroke	y	n/a
387.354	0.135	774708	keystroke	s	n/a
387.504	0.165	775008	keystroke	e	n/a
387.609	0.1805	775218	keystroke	a	n/a
387.729	0.0905	775458	keystroke	r	n/a
387.9545	0.105	775909	keystroke	c	n/a
388.0895	0.135	776179	keystroke	h	n/a
388.2395	0.09	776479	keystroke	Key.space	n/a
388.7045	0.135	777409	keystroke	f	n/a
388.8545	0.12	777709	keystroke	o	n/a
389.0645	0.105	778129	keystroke	n	n/a
389.2	0.0895	778400	keystroke	t	n/a
390.459	0.135	780918	keystroke	Key.enter	n/a
390.6005	6.0855	781201	prompt	n/a	anderson committees granted reynolds\n
391.24	0.1195	782480	keystroke	a	n/a
391.3445	0.135	782689	keystroke	n	n/a
391.4645	0.06	782929	keystroke	d	n/a
391.6145	0.09	783229	keystroke	e	n/a
391.6745	0.12	783349	keystroke	r	n/a
391.8095	0.105	783619	keystroke	s	n/a
391.9155	0.089	783831	keystroke	o	n/a
392.0795	0.12	784159	keystroke	n	n/a
392.1695	0.12	784339	keystroke	Key.space	n/a
392.3045	0.075	784609	keystroke	c	n/a
392.3645	0.075	784729	keystroke	o	n/a
392.5295	0.06	785059	keystroke	m	n/a
392.6495	0.09	785299	keystroke	m	n/a
392.83	0.09	785660	keystroke	i	n/a
392.979	0.06	785958	keystroke	t	n/a
393.145	0.105	786290	keystroke	t	n/a
393.475	0.074	786950	keystroke	e	n/a
393.67	0.074	787340	keystroke	e	n/a
393.894	0.091	787788	keystroke	s	n/a
394.044	0.12	788088	keystroke	Key.space	n/a
394.269	0.075	788538	keystroke	g	n/a
394.435	0.075	788870	keystroke	r	n/a
394.525	0.105	789050	keystroke	a	n/a
394.644	0.121	789288	keystroke	n	n/a
394.734	0.106	789468	keystroke	t	n/a
394.81	0.0895	789620	keystroke	e	n/a
394.9895	0.12	789979	keystroke	d	n/a
395.0795	0.1505	790159	keystroke	Key.space	n/a
395.59	0.12	791180	keystroke	r	n/a
395.65	0.135	791300	keystroke	e	n/a
395.875	0.09	791750	keystroke	y	n/a
395.995	0.075	791990	keystroke	n	n/a
396.115	0.09	792230	keystroke	o	n/a
396.265	0.105	792530	keystroke	l	n/a
396.355	0.135	792710	keystroke	d	n/a
396.43	0.12	792860	keystroke	s	n/a
396.61	0.075	793220	keystroke	Key.enter	n/a
396.6895	5.037	793379	prompt	n/a	changed thing execution obligations\n
397.36	0.09	794720	keystroke	c	n/a
397.435	0.09	794870	keystroke	h	n/a
397.495	0.09	794990	keystroke	a	n/a
397.6	0.135	795200	keystroke	n	n/a
397.675	0.105	795350	keystroke	g	n/a
397.765	0.045	795530	keystroke	e	n/a
397.9	0.1195	795800	keystroke	d	n/a
398.0345	0.135	796069	keystroke	Key.space	n/a
398.0945	0.09	796189	keystroke	t	n/a
398.1545	0.09	796309	keystroke	h	n/a
398.2295	0.15	796459	keystroke	i	n/a
398.3495	0.12	796699	keystroke	n	n/a
398.4095	0.105	796819	keystroke	g	n/a
398.4845	0.105	796969	keystroke	Key.space	n/a
398.6195	0.075	797239	keystroke	e	n/a
398.7995	0.09	797599	keystroke	x	n/a
398.9945	0.105	797989	keystroke	e	n/a
399.1745	0.12	798349	keystroke	c	n/a
399.3395	0.105	798679	keystroke	u	n/a
399.5195	0.09	799039	keystroke	t	n/a
399.5945	0.18	799189	keystroke	i	n/a
399.6545	0.105	799309	keystroke	o	n/a
399.7145	0.12	799429	keystroke	n	n/a
399.8045	0.12	799609	keystroke	Key.space	n/a
400.0895	0.12	800179	keystroke	o	n/a
400.3295	0.09	800659	keystroke	b	n/a
400.4795	0.075	800959	keystroke	l	n/a
400.6295	0.105	801259	keystroke	i	n/a
400.9295	0.105	801859	keystroke	g	n/a
401.0645	0.12	802129	keystroke	a	n/a
401.1545	0.105	802309	keystroke	t	n/a
401.2445	0.2095	802489	keystroke	i	n/a
401.304	0.135	802608	keystroke	o	n/a
401.379	0.12	802758	keystroke	n	n/a
401.514	0.075	803028	keystroke	s	n/a
401.679	0.045	803358	keystroke	Key.enter	n/a
401.73	9.6565	803460	prompt	n/a	varieties arabia incidence finds\n
402.325	0.105	804650	keystroke	c	n/a
402.4895	0.15	804979	keystroke	a	n/a
402.6095	0.105	805219	keystroke	r	n/a
402.7295	0.135	805459	keystroke	i	n/a
402.8195	0.12	805639	keystroke	e	n/a
402.9995	0.12	805999	keystroke	t	n/a
403.96	0.06	807920	keystroke	Key.backspace	n/a
404.125	0.03	808250	keystroke	Key.backspace	n/a
404.245	0.06	808490	keystroke	Key.backspace	n/a
404.395	0.045	808790	keystroke	Key.backspace	n/a
404.515	0.075	809030	keystroke	Key.backspace	n/a
404.664	0.091	809328	keystroke	Key.backspace	n/a
405.145	0.09	810290	keystroke	v	n/a
405.295	0.135	810590	keystroke	a	n/a
405.4	0.09	810800	keystroke	r	n/a
405.535	0.075	811070	keystroke	i	n/a
405.595	0.135	811190	keystroke	e	n/a
405.76	0.105	811520	keystroke	t	n/a
406.78	0.09	813560	keystroke	i	n/a
406.84	0.195	813680	keystroke	e	n/a
406.915	0.165	813830	keystroke	s	n/a
407.05	0.135	814100	keystroke	Key.space	n/a
407.59	0.12	815180	keystroke	a	n/a
407.74	0.105	815480	keystroke	r	n/a
407.875	0.12	815750	keystroke	a	n/a
408.01	0.075	816020	keystroke	b	n/a
408.1445	0.135	816289	keystroke	i	n/a
408.2645	0.1205	816529	keystroke	a	n/a
408.3995	0.135	816799	keystroke	Key.space	n/a
408.58	0.1345	817160	keystroke	i	n/a
408.6545	0.12	817309	keystroke	n	n/a
408.7595	0.09	817519	keystroke	c	n/a
408.8795	0.105	817759	keystroke	i	n/a
408.9545	0.075	817909	keystroke	d	n/a
409.1345	0.075	818269	keystroke	e	n/a
409.2545	0.105	818509	keystroke	n	n/a
409.3145	0.135	818629	keystroke	c	n/a
409.3895	0.135	818779	keystroke	e	n/a
409.5095	0.09	819019	keystroke	Key.space	n/a
409.8095	0.12	819619	keystroke	f	n/a
409.9895	0.18	819979	keystroke	i	n/a
410.0645	0.15	820129	keystroke	n	n/a
410.1695	0.15	820339	keystroke	d	n/a
410.2445	0.135	820489	keystroke	s	n/a
411.2645	0.1205	822529	keystroke	Key.enter	n/a
411.3915	7.075	822783	prompt	n/a	wire martial feels faces\n
412.195	0.09	824390	keystroke	w	n/a
412.299	0.106	824598	keystroke	i	n/a
412.39	0.12	824780	keystroke	r	n/a
412.449	0.121	824898	keystroke	e	n/a
412.51	0.165	825020	keystroke	Key.space	n/a
412.719	0.121	825438	keystroke	m	n/a
412.765	0.105	825530	keystroke	a	n/a
412.96	0.089	825920	keystroke	t	n/a
413.515	0.119	827030	keystroke	Key.backspace	n/a
413.695	0.105	827390	keystroke	r	n/a
413.875	0.09	827750	keystroke	t	n/a
413.965	0.075	827930	keystroke	i	n/a
414.07	0.105	828140	keystroke	a	n/a
414.145	0.105	828290	keystroke	l	n/a
414.264	0.12	828528	keystroke	Key.space	n/a
414.46	0.12	828920	keystroke	f	n/a
414.67	0.075	829340	keystroke	e	n/a
414.79	0.105	829580	keystroke	e	n/a
414.955	0.135	829910	keystroke	l	n/a
415.255	0.105	830510	keystroke	s	n/a
415.7195	0.12	831439	keystroke	Key.space	n/a
416.0495	0.105	832099	keystroke	f	n/a
416.1845	0.12	832369	keystroke	a	n/a
416.3055	0.179	832611	keystroke	c	n/a
416.4545	0.1655	832909	keystroke	e	n/a
416.605	0.195	833210	keystroke	s	n/a
418.39	0.0745	836780	keystroke	Key.enter	n/a
418.47	12.8065	836940	prompt	n/a	leisure fruit shape responsibility\n
419.2	0.135	838400	keystroke	l	n/a
419.29	0.12	838580	keystroke	e	n/a
419.44	0.135	838880	keystroke	i	n/a
419.59	0.105	839180	keystroke	s	n/a
419.905	0.105	839810	keystroke	u	n/a
420.025	0.135	840050	keystroke	r	n/a
420.085	0.12	840170	keystroke	e	n/a
420.175	0.105	840350	keystroke	Key.space	n/a
420.385	0.09	840770	keystroke	f	n/a
420.55	0.105	841100	keystroke	r	n/a
420.715	0.075	841430	keystroke	u	n/a
420.865	0.105	841730	keystroke	i	n/a
420.955	0.105	841910	keystroke	t	n/a
421.045	0.12	842090	keystroke	Key.space	n/a
421.195	0.105	842390	keystroke	s	n/a
421.285	0.09	842570	keystroke	h	n/a
421.405	0.1195	842810	keystroke	a	n/a
421.5395	0.075	843079	keystroke	p	n/a
421.5695	0.03	843139	keystroke	o	n/a
421.6445	0.12	843289	keystroke	e	n/a
421.8545	0.135	843709	keystroke	Key.space	n/a
422.7695	0.06	845539	keystroke	Key.backspace	n/a
422.92	0.06	845840	keystroke	Key.backspace	n/a
423.3545	0.0455	846709	keystroke	Key.backspace	n/a
423.625	0.105	847250	keystroke	e	n/a
423.82	0.15	847640	keystroke	Key.space	n/a
424.075	0.105	848150	keystroke	r	n/a
424.1045	0.1655	848209	keystroke	e	n/a
424.21	0.135	848420	keystroke	s	n/a
424.345	0.075	848690	keystroke	p	n/a
424.51	0.09	849020	keystroke	o	n/a
424.705	0.0895	849410	keystroke	n	n/a
424.9145	0.1205	849829	keystroke	s	n/a
425.02	0.195	850040	keystroke	i	n/a
425.14	0.12	850280	keystroke	b	n/a
425.275	0.18	850550	keystroke	i	n/a
425.395	0.045	850790	keystroke	l	n/a
426.6245	0.105	853249	keystroke	i	n/a
426.6845	0.09	853369	keystroke	t	n/a
426.8495	0.075	853699	keystroke	y	n/a
426.9395	0.06	853879	keystroke	Key.space	n/a
428.215	0.0745	856430	keystroke	Key.backspace	n/a
431.2615	0.013	862523	keystroke	Key.enter	n/a
431.28	11.7115	862560	prompt	n/a	comment stopped morning scientific\n
433.1045	0.075	866209	keystroke	c	n/a
433.1645	0.075	866329	keystroke	o	n/a
433.345	0.045	866690	keystroke	m	n/a
433.45	0.105	866900	keystroke	m	n/a
433.57	0.075	867140	keystroke	e	n/a
433.66	0.0895	867320	keystroke	n	n/a
433.7195	0.09	867439	keystroke	t	n/a
433.7795	0.105	867559	keystroke	Key.space	n/a
433.9745	0.12	867949	keystroke	s	n/a
434.1095	0.105	868219	keystroke	t	n/a
434.1995	0.075	868399	keystroke	o	n/a
434.3945	0.045	868789	keystroke	p	n/a
434.4995	0.09	868999	keystroke	p	n/a
434.6195	0.075	869239	keystroke	e	n/a
434.7995	0.105	869599	keystroke	d	n/a
434.8595	0.12	869719	keystroke	Key.space	n/a
435.0245	0.06	870049	keystroke	m	n/a
435.1295	0.09	870259	keystroke	o	n/a
435.2345	0.09	870469	keystroke	r	n/a
435.3395	0.06	870679	keystroke	n	n/a
435.4295	0.135	870859	keystroke	i	n/a
435.5045	0.12	871009	keystroke	n	n/a
435.5795	0.12	871159	keystroke	g	n/a
435.6695	0.12	871339	keystroke	Key.space	n/a
435.97	0.1195	871940	keystroke	s	n/a
436.1645	0.105	872329	keystroke	c	n/a
436.2995	0.1205	872599	keystroke	i	n/a
436.42	0.09	872840	keystroke	e	n/a
436.539	0.121	873078	keystroke	n	n/a
436.645	0.12	873290	keystroke	f	n/a
437.4545	0.0895	874909	keystroke	Key.backspace	n/a
437.664	0.09	875328	keystroke	t	n/a
438.19	0.09	876380	keystroke	i	n/a
438.295	0.075	876590	keystroke	f	n/a
438.355	0.15	876710	keystroke	i	n/a
438.49	0.119	876980	keystroke	c	n/a
442.977	0.012	885954	keystroke	Key.enter	n/a
442.998	4.9585	885996	prompt	n/a	wind cordless theory multi\n
443.695	0.0745	887390	keystroke	w	n/a
443.7845	0.106	887569	keystroke	i	n/a
443.8445	0.12	887689	keystroke	n	n/a
443.9345	0.121	887869	keystroke	d	n/a
444.0095	0.135	888019	keystroke	Key.space	n/a
444.265	0.104	888530	keystroke	c	n/a
444.354	0.091	888708	keystroke	o	n/a
444.474	0.075	888948	keystroke	r	n/a
444.639	0.12	889278	keystroke	d	n/a
445	0.104	890000	keystroke	l	n/a
445.059	0.09	890118	keystroke	e	n/a
445.299	0.045	890598	keystroke	s	n/a
445.404	0.15	890808	keystroke	s	n/a
445.524	0.195	891048	keystroke	Key.space	n/a
445.689	0.09	891378	keystroke	t	n/a
445.794	0.105	891588	keystroke	h	n/a
445.869	0.09	891738	keystroke	e	n/a
446.079	0.075	892158	keystroke	o	n/a
446.2	0.075	892400	keystroke	r	n/a
446.4695	0.075	892939	keystroke	y	n/a
446.5445	0.1195	893089	keystroke	Key.space	n/a
446.755	0.09	893510	keystroke	m	n/a
446.994	0.09	893988	keystroke	u	n/a
447.2945	0.12	894589	keystroke	l	n/a
447.459	0.0905	894918	keystroke	t	n/a
447.564	0.1055	895128	keystroke	i	n/a
447.849	0.105	895698	keystroke	Key.enter	n/a
447.961	12.3705	895922	prompt	n/a	download coaching photographs template\n
449.59	0.075	899180	keystroke	d	n/a
449.68	0.105	899360	keystroke	o	n/a
449.77	0.06	899540	keystroke	w	n/a
449.875	0.075	899750	keystroke	n	n/a
450.025	0.059	900050	keystroke	l	n/a
450.19	0.09	900380	keystroke	o	n/a
450.295	0.135	900590	keystroke	a	n/a
450.369	0.151	900738	keystroke	d	n/a
450.489	0.12	900978	keystroke	Key.space	n/a
450.879	0.106	901758	keystroke	c	n/a
451	0.075	902000	keystroke	o	n/a
451.6	0.135	903200	keystroke	a	n/a
451.69	0.135	903380	keystroke	c	n/a
451.839	0.061	903678	keystroke	h	n/a
451.93	0.134	903860	keystroke	i	n/a
452.02	0.134	904040	keystroke	n	n/a
452.125	0.105	904250	keystroke	g	n/a
452.199	0.135	904398	keystroke	Key.space	n/a
452.485	0.075	904970	keystroke	p	n/a
452.679	0.076	905358	keystroke	h	n/a
452.83	0.09	905660	keystroke	o	n/a
452.965	0.06	905930	keystroke	t	n/a
453.009	0.091	906018	keystroke	o	n/a
453.22	0.09	906440	keystroke	g	n/a
453.46	0.075	906920	keystroke	r	n/a
453.55	0.135	907100	keystroke	a	n/a
453.76	0.12	907520	keystroke	p	n/a
454.015	0.09	908030	keystroke	h	n/a
454.165	0.135	908330	keystroke	s	n/a
454.314	0.12	908628	keystroke	Key.space	n/a
454.585	0.075	909170	keystroke	t	n/a
454.645	0.105	909290	keystroke	e	n/a
454.764	0.091	909528	keystroke	m	n/a
454.945	0.12	909890	keystroke	p	n/a
455.005	0.119	910010	keystroke	l	n/a
455.17	0.135	910340	keystroke	a	n/a
455.32	0.105	910640	keystroke	t	n/a
455.38	0.12	910760	keystroke	e	n/a
460.317	0.013	920634	keystroke	Key.enter	n/a
460.3355	6.1615	920671	prompt	n/a	performs compliant batteries featured\n
461.0505	0.059	922101	keystroke	p	n/a
461.1255	0.135	922251	keystroke	e	n/a
461.1995	0.09	922399	keystroke	r	n/a
461.4095	0.091	922819	keystroke	f	n/a
461.5145	0.0905	923029	keystroke	o	n/a
461.59	0.075	923180	keystroke	r	n/a
461.71	0.075	923420	keystroke	m	n/a
461.8	0.12	923600	keystroke	s	n/a
461.92	0.135	923840	keystroke	Key.space	n/a
462.19	0.09	924380	keystroke	c	n/a
462.265	0.075	924530	keystroke	o	n/a
462.31	0.075	924620	keystroke	m	n/a
462.445	0.09	924890	keystroke	p	n/a
462.505	0.075	925010	keystroke	l	n/a
462.7	0.09	925400	keystroke	i	n/a
462.79	0.105	925580	keystroke	a	n/a
462.88	0.105	925760	keystroke	n	n/a
463	0.09	926000	keystroke	t	n/a
463.075	0.105	926150	keystroke	Key.space	n/a
463.315	0.075	926630	keystroke	b	n/a
463.4505	0.105	926901	keystroke	a	n/a
463.6605	0.0745	927321	keystroke	t	n/a
463.78	0.09	927560	keystroke	t	n/a
463.9605	0.1045	927921	keystroke	e	n/a
464.0205	0.1045	928041	keystroke	r	n/a
464.14	0.12	928280	keystroke	i	n/a
464.215	0.12	928430	keystroke	e	n/a
464.275	0.135	928550	keystroke	s	n/a
464.38	0.12	928760	keystroke	Key.space	n/a
464.605	0.135	929210	keystroke	f	n/a
464.725	0.135	929450	keystroke	e	n/a
464.8	0.12	929600	keystroke	a	n/a
464.95	0.105	929900	keystroke	t	n/a
465.085	0.12	930170	keystroke	u	n/a
465.16	0.105	930320	keystroke	r	n/a
465.22	0.1195	930440	keystroke	e	n/a
465.4295	0.09	930859	keystroke	d	n/a
466.375	0.1195	932750	keystroke	Key.enter	n/a
466.502	7.5545	933004	prompt	n/a	tracks found wishlist rural\n
467.29	0.135	934580	keystroke	t	n/a
467.38	0.105	934760	keystroke	r	n/a
467.6195	0.15	935239	keystroke	a	n/a
467.7545	0.1205	935509	keystroke	c	n/a
467.89	0.105	935780	keystroke	k	n/a
468.0105	0.134	936021	keystroke	s	n/a
468.1295	0.1055	936259	keystroke	Key.space	n/a
468.28	0.12	936560	keystroke	f	n/a
468.37	0.15	936740	keystroke	o	n/a
468.46	0.075	936920	keystroke	u	n/a
468.625	0.105	937250	keystroke	n	n/a
468.7	0.09	937400	keystroke	d	n/a
468.76	0.135	937520	keystroke	Key.space	n/a
468.91	0.075	937820	keystroke	w	n/a
469	0.1345	938000	keystroke	i	n/a
469.12	0.0895	938240	keystroke	s	n/a
469.1945	0.105	938389	keystroke	h	n/a
469.3745	0.075	938749	keystroke	l	n/a
469.4955	0.104	938991	keystroke	i	n/a
469.5855	0.134	939171	keystroke	s	n/a
469.6905	0.104	939381	keystroke	t	n/a
469.7955	0.134	939591	keystroke	Key.space	n/a
470.2295	0.06	940459	keystroke	r	n/a
470.3045	0.09	940609	keystroke	u	n/a
470.3645	0.09	940729	keystroke	r	n/a
472.2545	0.105	944509	keystroke	a	n/a
472.4045	0.105	944809	keystroke	l	n/a
473.9645	0.09	947929	keystroke	Key.enter	n/a
474.0615	7.285	948123	prompt	n/a	plug healthcare soonest satisfy\n
475.6145	0.09	951229	keystroke	p	n/a
475.6595	0.105	951319	keystroke	l	n/a
475.9595	0.09	951919	keystroke	u	n/a
476.1845	0.09	952369	keystroke	g	n/a
476.2895	0.15	952579	keystroke	Key.space	n/a
476.8745	0.105	953749	keystroke	h	n/a
476.9505	0.12	953901	keystroke	e	n/a
476.9945	0.106	953989	keystroke	a	n/a
477.0845	0.135	954169	keystroke	l	n/a
477.2345	0.075	954469	keystroke	t	n/a
477.3245	0.121	954649	keystroke	h	n/a
477.4595	0.12	954919	keystroke	c	n/a
477.5495	0.12	955099	keystroke	a	n/a
477.7595	0.12	955519	keystroke	r	n/a
477.8195	0.12	955639	keystroke	e	n/a
477.9545	0.09	955909	keystroke	Key.space	n/a
478.0745	0.105	956149	keystroke	s	n/a
478.2395	0.09	956479	keystroke	o	n/a
478.3745	0.075	956749	keystroke	o	n/a
478.5395	0.121	957079	keystroke	n	n/a
478.7505	0.254	957501	keystroke	e	n/a
478.8545	0.181	957709	keystroke	s	n/a
478.9745	0.135	957949	keystroke	t	n/a
479.2145	0.105	958429	keystroke	Key.space	n/a
479.3945	0.21	958789	keystroke	s	n/a
479.6195	0.151	959239	keystroke	a	n/a
479.7245	0.12	959449	keystroke	t	n/a
479.8755	0.119	959751	keystroke	i	n/a
480.0095	0.151	960019	keystroke	s	n/a
480.1445	0.135	960289	keystroke	f	n/a
480.4455	0.059	960891	keystroke	y	n/a
481.2395	0.105	962479	keystroke	Key.enter	n/a
481.3505	4.391	962701	prompt	n/a	pale icons requires shopping\n
482.0205	0.0745	964041	keystroke	p	n/a
482.11	0.105	964220	keystroke	a	n/a
482.23	0.105	964460	keystroke	l	n/a
482.35	0.075	964700	keystroke	e	n/a
482.515	0.09	965030	keystroke	Key.space	n/a
482.635	0.12	965270	keystroke	i	n/a
482.74	0.105	965480	keystroke	c	n/a
482.86	0.075	965720	keystroke	o	n/a
482.995	0.105	965990	keystroke	n	n/a
483.085	0.165	966170	keystroke	s	n/a
483.16	0.1495	966320	keystroke	Key.space	n/a
483.28	0.1195	966560	keystroke	r	n/a
483.3395	0.105	966679	keystroke	e	n/a
483.505	0.12	967010	keystroke	q	n/a
483.61	0.075	967220	keystroke	u	n/a
483.775	0.105	967550	keystroke	i	n/a
483.835	0.135	967670	keystroke	r	n/a
483.895	0.135	967790	keystroke	e	n/a
483.97	0.12	967940	keystroke	s	n/a
484.03	0.15	968060	keystroke	Key.space	n/a
484.195	0.105	968390	keystroke	s	n/a
484.255	0.09	968510	keystroke	h	n/a
484.42	0.075	968840	keystroke	o	n/a
484.615	0.0595	969230	keystroke	p	n/a
484.7345	0.075	969469	keystroke	p	n/a
484.9445	0.105	969889	keystroke	i	n/a
485.0045	0.12	970009	keystroke	n	n/a
485.1095	0.0755	970219	keystroke	g	n/a
485.665	0.075	971330	keystroke	Key.enter	n/a
485.746	4.9905	971492	prompt	n/a	dividend haiti farms obtaining\n
486.3555	0.0745	972711	keystroke	d	n/a
486.43	0.1055	972860	keystroke	i	n/a
486.5505	0.074	973101	keystroke	v	n/a
486.6555	0.104	973311	keystroke	i	n/a
486.7445	0.09	973489	keystroke	d	n/a
486.9395	0.06	973879	keystroke	e	n/a
487.0745	0.091	974149	keystroke	n	n/a
487.2995	0.091	974599	keystroke	d	n/a
487.45	0.105	974900	keystroke	Key.space	n/a
487.78	0.06	975560	keystroke	h	n/a
487.81	0.1195	975620	keystroke	a	n/a
487.9145	0.105	975829	keystroke	i	n/a
488.0655	0.059	976131	keystroke	t	n/a
488.1395	0.09	976279	keystroke	i	n/a
488.3955	0.12	976791	keystroke	Key.space	n/a
488.6805	0.06	977361	keystroke	f	n/a
488.8455	0.135	977691	keystroke	a	n/a
488.9505	0.09	977901	keystroke	r	n/a
489.0855	0.104	978171	keystroke	m	n/a
489.1755	0.12	978351	keystroke	s	n/a
489.2645	0.121	978529	keystroke	Key.space	n/a
489.4305	0.075	978861	keystroke	o	n/a
489.6105	0.09	979221	keystroke	b	n/a
489.7455	0.1045	979491	keystroke	t	n/a
489.8805	0.1195	979761	keystroke	a	n/a
490.015	0.105	980030	keystroke	i	n/a
490.075	0.09	980150	keystroke	n	n/a
490.27	0.12	980540	keystroke	i	n/a
490.33	0.135	980660	keystroke	n	n/a
490.45	0.06	980900	keystroke	g	n/a
490.6595	0.075	981319	keystroke	Key.enter	n/a
490.7415	7.615	981483	prompt	n/a	efficiency increase acrobat bless\n
491.305	0.075	982610	keystroke	e	n/a
491.485	0.0755	982970	keystroke	f	n/a
491.6205	0.09	983241	keystroke	f	n/a
491.7555	0.119	983511	keystroke	i	n/a
491.8605	0.09	983721	keystroke	c	n/a
492.1005	0.09	984201	keystroke	i	n/a
492.2055	0.09	984411	keystroke	e	n/a
492.3255	0.09	984651	keystroke	n	n/a
492.535	0.135	985070	keystroke	c	n/a
492.88	0.0755	985760	keystroke	y	n/a
493.0895	0.06	986179	keystroke	Key.space	n/a
493.5995	0.06	987199	keystroke	o	n/a
494.0045	0.06	988009	keystroke	Key.backspace	n/a
494.4705	0.09	988941	keystroke	i	n/a
494.5305	0.12	989061	keystroke	n	n/a
494.6195	0.076	989239	keystroke	c	n/a
494.8305	0.119	989661	keystroke	r	n/a
494.9205	0.134	989841	keystroke	e	n/a
495.0105	0.164	990021	keystroke	a	n/a
495.1445	0.135	990289	keystroke	s	n/a
495.2345	0.12	990469	keystroke	e	n/a
495.55	0.1195	991100	keystroke	Key.space	n/a
495.835	0.135	991670	keystroke	a	n/a
495.985	0.09	991970	keystroke	c	n/a
496.21	0.045	992420	keystroke	r	n/a
496.27	0.105	992540	keystroke	o	n/a
496.5555	0.075	993111	keystroke	b	n/a
496.6605	0.165	993321	keystroke	a	n/a
496.7795	0.106	993559	keystroke	t	n/a
496.8545	0.121	993709	keystroke	Key.space	n/a
497.0955	0.075	994191	keystroke	b	n/a
497.2455	0.09	994491	keystroke	l	n/a
497.3205	0.075	994641	keystroke	e	n/a
497.5455	0.03	995091	keystroke	s	n/a
497.6205	0.09	995241	keystroke	s	n/a
498.28	0.075	996560	keystroke	Key.enter	n/a
498.362	4.4795	996724	prompt	n/a	zambia sports savings many\n
499.1795	0.105	998359	keystroke	z	n/a
499.3745	0.075	998749	keystroke	a	n/a
499.555	0.105	999110	keystroke	m	n/a
499.795	0.0605	999590	keystroke	b	n/a
499.93	0.09	999860	keystroke	i	n/a
500.035	0.135	1000070	keystroke	a	n/a
500.155	0.1205	1000310	keystroke	Key.space	n/a
500.305	0.12	1000610	keystroke	s	n/a
500.395	0.075	1000790	keystroke	p	n/a
500.56	0.075	1001120	keystroke	o	n/a
500.65	0.09	1001300	keystroke	r	n/a
500.815	0.12	1001630	keystroke	t	n/a
500.92	0.12	1001840	keystroke	s	n/a
501.01	0.12	1002020	keystroke	Key.space	n/a
501.145	0.0905	1002290	keystroke	s	n/a
501.2955	0.09	1002591	keystroke	a	n/a
501.4755	0.09	1002951	keystroke	v	n/a
501.5955	0.105	1003191	keystroke	i	n/a
501.6705	0.105	1003341	keystroke	n	n/a
501.7155	0.105	1003431	keystroke	g	n/a
501.8055	0.1345	1003611	keystroke	s	n/a
501.895	0.12	1003790	keystroke	Key.space	n/a
502.06	0.09	1004120	keystroke	m	n/a
502.165	0.09	1004330	keystroke	a	n/a
502.27	0.09	1004540	keystroke	n	n/a
502.45	0.0905	1004900	keystroke	y	n/a
502.7655	0.074	1005531	keystroke	Key.enter	n/a
502.846	4.5555	1005692	prompt	n/a	compact advance couples boston\n
503.4105	0.1195	1006821	keystroke	c	n/a
503.485	0.09	1006970	keystroke	o	n/a
503.5455	0.0895	1007091	keystroke	m	n/a
503.68	0.0905	1007360	keystroke	p	n/a
503.7855	0.12	1007571	keystroke	a	n/a
503.9655	0.105	1007931	keystroke	c	n/a
504.2055	0.075	1008411	keystroke	t	n/a
504.2655	0.09	1008531	keystroke	Key.space	n/a
504.4455	0.165	1008891	keystroke	a	n/a
504.5655	0.1045	1009131	keystroke	d	n/a
504.835	0.015	1009670	keystroke	v	n/a
504.895	0.12	1009790	keystroke	a	n/a
505.03	0.105	1010060	keystroke	n	n/a
505.06	0.135	1010120	keystroke	c	n/a
505.15	0.09	1010300	keystroke	e	n/a
505.225	0.1055	1010450	keystroke	Key.space	n/a
505.4055	0.105	1010811	keystroke	c	n/a
505.4955	0.15	1010991	keystroke	o	n/a
505.6005	0.075	1011201	keystroke	u	n/a
505.7505	0.135	1011501	keystroke	p	n/a
505.8255	0.12	1011651	keystroke	l	n/a
505.9155	0.1345	1011831	keystroke	e	n/a
505.9905	0.1195	1011981	keystroke	s	n/a
506.08	0.105	1012160	keystroke	Key.space	n/a
506.275	0.0755	1012550	keystroke	b	n/a
506.4255	0.0895	1012851	keystroke	o	n/a
506.53	0.12	1013060	keystroke	s	n/a
506.6205	0.135	1013241	keystroke	t	n/a
506.92	0.09	1013840	keystroke	o	n/a
507.13	0.09	1014260	keystroke	n	n/a
507.34	0.06	1014680	keystroke	Key.enter	n/a
507.4055	8.3065	1014811	prompt	n/a	fighters denver complement answer\n
508.51	0.105	1017020	keystroke	g	n/a
508.6	0.105	1017200	keystroke	i	n/a
509.2605	0.075	1018521	keystroke	Key.backspace	n/a
509.4255	0.06	1018851	keystroke	Key.backspace	n/a
509.8605	0.075	1019721	keystroke	f	n/a
509.9055	0.075	1019811	keystroke	i	n/a
510.0255	0.0595	1020051	keystroke	g	n/a
510.07	0.12	1020140	keystroke	h	n/a
510.205	0.12	1020410	keystroke	t	n/a
510.9255	0.12	1021851	keystroke	e	n/a
511.0005	0.135	1022001	keystroke	r	n/a
511.1505	0.135	1022301	keystroke	s	n/a
511.2255	0.135	1022451	keystroke	Key.space	n/a
511.4505	0.09	1022901	keystroke	d	n/a
511.6305	0.06	1023261	keystroke	e	n/a
511.8255	0.1045	1023651	keystroke	n	n/a
512.095	0.09	1024190	keystroke	v	n/a
512.335	0.135	1024670	keystroke	e	n/a
512.41	0.121	1024820	keystroke	r	n/a
512.455	0.135	1024910	keystroke	Key.space	n/a
512.786	0.089	1025572	keystroke	c	n/a
512.86	0.09	1025720	keystroke	o	n/a
512.92	0.075	1025840	keystroke	m	n/a
513.055	0.105	1026110	keystroke	p	n/a
513.115	0.12	1026230	keystroke	l	n/a
513.265	0.09	1026530	keystroke	e	n/a
513.37	0.105	1026740	keystroke	m	n/a
513.49	0.09	1026980	keystroke	e	n/a
513.595	0.09	1027190	keystroke	n	n/a
513.715	0.09	1027430	keystroke	t	n/a
513.91	0.105	1027820	keystroke	Key.space	n/a
514.09	0.105	1028180	keystroke	a	n/a
514.21	0.195	1028420	keystroke	n	n/a
514.33	0.12	1028660	keystroke	s	n/a
514.6	0.075	1029200	keystroke	w	n/a
514.81	0.15	1029620	keystroke	e	n/a
514.945	0.075	1029890	keystroke	r	n/a
515.62	0.09	1031240	keystroke	Key.enter	n/a
515.7195	5.2125	1031439	prompt	n/a	chad history emerald those're\n
516.61	0.09	1033220	keystroke	c	n/a
516.701	0.134	1033402	keystroke	h	n/a
516.76	0.15	1033520	keystroke	a	n/a
516.865	0.15	1033730	keystroke	d	n/a
516.985	0.12	1033970	keystroke	Key.space	n/a
517.225	0.105	1034450	keystroke	h	n/a
517.285	0.135	1034570	keystroke	i	n/a
517.39	0.15	1034780	keystroke	s	n/a
517.495	0.09	1034990	keystroke	t	n/a
517.615	0.09	1035230	keystroke	o	n/a
517.66	0.105	1035320	keystroke	r	n/a
517.87	0.09	1035740	keystroke	y	n/a
517.945	0.075	1035890	keystroke	Key.space	n/a
518.065	0.09	1036130	keystroke	e	n/a
518.185	0.09	1036370	keystroke	m	n/a
518.26	0.1355	1036520	keystroke	e	n/a
518.335	0.12	1036670	keystroke	r	n/a
518.545	0.12	1037090	keystroke	a	n/a
518.68	0.12	1037360	keystroke	l	n/a
518.815	0.105	1037630	keystroke	d	n/a
518.935	0.09	1037870	keystroke	Key.space	n/a
519.13	0.09	1038260	keystroke	t	n/a
519.175	0.075	1038350	keystroke	h	n/a
519.325	0.12	1038650	keystroke	o	n/a
519.43	0.15	1038860	keystroke	s	n/a
519.52	0.135	1039040	keystroke	e	n/a
520.4955	0.1045	1040991	keystroke	'	n/a
520.57	0.12	1041140	keystroke	r	n/a
520.66	0.075	1041320	keystroke	e	n/a
520.825	0.105	1041650	keystroke	Key.enter	n/a
520.936	8.531	1041872	prompt	n/a	withdrawal searched enemy deborah\n
521.5605	0.105	1043121	keystroke	w	n/a
521.6505	0.09	1043301	keystroke	i	n/a
521.7705	0.0895	1043541	keystroke	t	n/a
521.845	0.12	1043690	keystroke	h	n/a
521.98	0.105	1043960	keystroke	d	n/a
522.13	0.09	1044260	keystroke	r	n/a
522.25	0.1505	1044500	keystroke	a	n/a
522.3405	0.12	1044681	keystroke	w	n/a
522.4905	0.12	1044981	keystroke	a	n/a
522.6555	0.105	1045311	keystroke	l	n/a
522.8655	0.12	1045731	keystroke	Key.space	n/a
523.0155	0.15	1046031	keystroke	s	n/a
523.1505	0.18	1046301	keystroke	e	n/a
523.2705	0.165	1046541	keystroke	a	n/a
523.3905	0.09	1046781	keystroke	r	n/a
523.5855	0.1195	1047171	keystroke	c	n/a
523.706	0.105	1047412	keystroke	h	n/a
523.78	0.09	1047560	keystroke	e	n/a
523.945	0.105	1047890	keystroke	d	n/a
524.02	0.1205	1048040	keystroke	Key.space	n/a
524.17	0.0905	1048340	keystroke	e	n/a
524.2905	0.105	1048581	keystroke	n	n/a
524.3655	0.0895	1048731	keystroke	e	n/a
524.485	0.1055	1048970	keystroke	m	n/a
524.6205	0.0745	1049241	keystroke	e	n/a
524.7105	0.0595	1049421	keystroke	n	n/a
524.9205	0.105	1049841	keystroke	y	n/a
525.2805	0.06	1050561	keystroke	Key.backspace	n/a
525.4305	0.06	1050861	keystroke	Key.backspace	n/a
525.5805	0.0745	1051161	keystroke	Key.backspace	n/a
526.3755	0.075	1052751	keystroke	y	n/a
526.57	0.12	1053140	keystroke	Key.space	n/a
526.795	0.075	1053590	keystroke	d	n/a
527.1555	0.09	1054311	keystroke	e	n/a
527.3955	0.0905	1054791	keystroke	b	n/a
527.59	0.09	1055180	keystroke	o	n/a
527.695	0.0905	1055390	keystroke	r	n/a
527.8755	0.135	1055751	keystroke	a	n/a
528.0705	0.105	1056141	keystroke	h	n/a
529.4205	0.045	1058841	keystroke	Key.enter	n/a
529.4715	6.5205	1058943	prompt	n/a	angela restored hash newly\n
530.2005	0.105	1060401	keystroke	a	n/a
530.2755	0.135	1060551	keystroke	n	n/a
530.3955	0.075	1060791	keystroke	g	n/a
530.5155	0.09	1061031	keystroke	e	n/a
530.6205	0.09	1061241	keystroke	l	n/a
530.7405	0.105	1061481	keystroke	a	n/a
530.8755	0.075	1061751	keystroke	Key.space	n/a
531.4155	0.15	1062831	keystroke	r	n/a
531.4755	0.165	1062951	keystroke	e	n/a
531.5655	0.135	1063131	keystroke	s	n/a
531.7895	0.09	1063579	keystroke	t	n/a
531.9245	0.106	1063849	keystroke	o	n/a
532.0455	0.105	1064091	keystroke	r	n/a
532.3905	0.075	1064781	keystroke	e	n/a
532.5705	0.135	1065141	keystroke	d	n/a
532.6745	0.09	1065349	keystroke	Key.space	n/a
532.9595	0.106	1065919	keystroke	h	n/a
533.0195	0.1515	1066039	keystroke	a	n/a
533.11	0.106	1066220	keystroke	s	n/a
533.245	0.12	1066490	keystroke	h	n/a
533.845	0.12	1067690	keystroke	Key.space	n/a
534.025	0.135	1068050	keystroke	n	n/a
534.265	0.136	1068530	keystroke	e	n/a
534.325	0.1205	1068650	keystroke	w	n/a
534.52	0.1205	1069040	keystroke	l	n/a
534.6855	0.075	1069371	keystroke	y	n/a
535.8855	0.105	1071771	keystroke	Key.enter	n/a
535.9965	7.0905	1071993	prompt	n/a	ending female poland bull\n
536.6955	0.105	1073391	keystroke	e	n/a
536.8605	0.105	1073721	keystroke	n	n/a
536.9505	0.09	1073901	keystroke	d	n/a
537.1005	0.12	1074201	keystroke	i	n/a
537.1455	0.12	1074291	keystroke	n	n/a
537.2505	0.09	1074501	keystroke	g	n/a
537.3105	0.12	1074621	keystroke	Key.space	n/a
537.745	0.1205	1075490	keystroke	f	n/a
537.8355	0.12	1075671	keystroke	e	n/a
537.9855	0.135	1075971	keystroke	m	n/a
538.1655	0.075	1076331	keystroke	a	n/a
538.42	0.1205	1076840	keystroke	l	n/a
538.5705	0.1195	1077141	keystroke	e	n/a
538.66	0.12	1077320	keystroke	Key.space	n/a
539.005	0.121	1078010	keystroke	p	n/a
539.216	0.09	1078432	keystroke	o	n/a
539.366	0.09	1078732	keystroke	l	n/a
539.5	0.136	1079000	keystroke	a	n/a
539.65	0.09	1079300	keystroke	n	n/a
539.756	0.12	1079512	keystroke	d	n/a
539.83	0.12	1079660	keystroke	Key.space	n/a
540.055	0.106	1080110	keystroke	b	n/a
540.22	0.1205	1080440	keystroke	u	n/a
540.5055	0.06	1081011	keystroke	l	n/a
540.6255	0.09	1081251	keystroke	l	n/a
543.057	0.028	1086114	keystroke	Key.enter	n/a
543.0905	7.0315	1086181	prompt	n/a	jamaica shouldn't threat suspected\n
544.1205	0.075	1088241	keystroke	j	n/a
544.2405	0.105	1088481	keystroke	a	n/a
544.3155	0.12	1088631	keystroke	m	n/a
544.4655	0.105	1088931	keystroke	a	n/a
544.5855	0.09	1089171	keystroke	i	n/a
544.7655	0.135	1089531	keystroke	c	n/a
544.9155	0.15	1089831	keystroke	a	n/a
545.0655	0.1045	1090131	keystroke	Key.space	n/a
545.215	0.1205	1090430	keystroke	s	n/a
545.29	0.0905	1090580	keystroke	h	n/a
545.4555	0.165	1090911	keystroke	o	n/a
545.5755	0.075	1091151	keystroke	u	n/a
545.7255	0.12	1091451	keystroke	l	n/a
545.8755	0.09	1091751	keystroke	d	n/a
545.9805	0.075	1091961	keystroke	n	n/a
546.1005	0.105	1092201	keystroke	'	n/a
546.2655	0.09	1092531	keystroke	t	n/a
546.3255	0.12	1092651	keystroke	Key.space	n/a
546.7005	0.06	1093401	keystroke	t	n/a
546.7455	0.135	1093491	keystroke	h	n/a
546.8505	0.12	1093701	keystroke	r	n/a
546.9405	0.135	1093881	keystroke	e	n/a
547.0155	0.09	1094031	keystroke	a	n/a
547.1805	0.105	1094361	keystroke	t	n/a
547.2705	0.1195	1094541	keystroke	Key.space	n/a
547.435	0.105	1094870	keystroke	s	n/a
547.525	0.12	1095050	keystroke	u	n/a
547.63	0.075	1095260	keystroke	s	n/a
547.81	0.075	1095620	keystroke	p	n/a
547.9155	0.1655	1095831	keystroke	e	n/a
548.036	0.12	1096072	keystroke	c	n/a
548.306	0.105	1096612	keystroke	t	n/a
548.381	0.105	1096762	keystroke	e	n/a
548.591	0.105	1097182	keystroke	d	n/a
550.03	0.0905	1100060	keystroke	Key.enter	n/a
550.126	7.601	1100252	prompt	n/a	programmer dynamic gasoline dynamic\n
551.2305	0.09	1102461	keystroke	p	n/a
551.35	0.075	1102700	keystroke	r	n/a
551.44	0.105	1102880	keystroke	o	n/a
551.56	0.06	1103120	keystroke	g	n/a
551.68	0.105	1103360	keystroke	r	n/a
551.8	0.09	1103600	keystroke	a	n/a
551.935	0.075	1103870	keystroke	m	n/a
552.055	0.12	1104110	keystroke	m	n/a
552.176	0.119	1104352	keystroke	e	n/a
552.235	0.105	1104470	keystroke	r	n/a
552.28	0.105	1104560	keystroke	Key.space	n/a
552.625	0.12	1105250	keystroke	d	n/a
552.85	0.09	1105700	keystroke	y	n/a
553.015	0.135	1106030	keystroke	n	n/a
553.255	0.105	1106510	keystroke	a	n/a
553.405	0.06	1106810	keystroke	m	n/a
553.51	0.105	1107020	keystroke	i	n/a
553.63	0.1055	1107260	keystroke	c	n/a
553.7505	0.09	1107501	keystroke	Key.space	n/a
554.1255	0.09	1108251	keystroke	g	n/a
554.3205	0.15	1108641	keystroke	a	n/a
554.4405	0.135	1108881	keystroke	s	n/a
554.5905	0.09	1109181	keystroke	o	n/a
554.7405	0.09	1109481	keystroke	l	n/a
554.9205	0.135	1109841	keystroke	i	n/a
554.9955	0.135	1109991	keystroke	n	n/a
555.1005	0.105	1110201	keystroke	e	n/a
555.2055	0.12	1110411	keystroke	Key.space	n/a
555.4905	0.105	1110981	keystroke	d	n/a
555.7005	0.075	1111401	keystroke	y	n/a
555.865	0.106	1111730	keystroke	n	n/a
556.016	0.09	1112032	keystroke	a	n/a
556.15	0.106	1112300	keystroke	m	n/a
556.376	0.09	1112752	keystroke	i	n/a
556.48	0.09	1112960	keystroke	c	n/a
557.6655	0.06	1115331	keystroke	Key.enter	n/a
557.731	9.236	1115462	prompt	n/a	smilies relationships markets disaster\n
560.367	0.043	1120734	keystroke	s	n/a
560.455	0.09	1120910	keystroke	m	n/a
560.68	0.12	1121360	keystroke	i	n/a
560.92	0.09	1121840	keystroke	l	n/a
561.145	0.135	1122290	keystroke	i	n/a
561.3405	0.1805	1122681	keystroke	e	n/a
561.431	0.165	1122862	keystroke	s	n/a
561.535	0.1355	1123070	keystroke	Key.space	n/a
561.8355	0.15	1123671	keystroke	r	n/a
561.9255	0.105	1123851	keystroke	e	n/a
563.2605	0.105	1126521	keystroke	l	n/a
563.3805	0.15	1126761	keystroke	a	n/a
563.5005	0.075	1127001	keystroke	t	n/a
563.5305	0.21	1127061	keystroke	i	n/a
563.6055	0.12	1127211	keystroke	o	n/a
563.6505	0.15	1127301	keystroke	n	n/a
563.9205	0.105	1127841	keystroke	s	n/a
