onset	duration	sample	value	key	prompt_text
8.3065	16.604	16613	prompt	n/a	the quick brown fox jumps over a lazy dog\n
11.1675	0.045	22335	keystroke_b	b	n/a
11.377	0.045	22754	keystroke_r	r	n/a
11.812	0.075	23624	keystroke_o	o	n/a
12.382	0.09	24764	keystroke_Key.backspace	Key.backspace	n/a
12.562	0.045	25124	keystroke_Key.backspace	Key.backspace	n/a
12.712	0.06	25424	keystroke_Key.backspace	Key.backspace	n/a
12.862	0.075	25724	keystroke_Key.backspace	Key.backspace	n/a
13.027	0.06	26054	keystroke_Key.backspace	Key.backspace	n/a
13.2525	0.06	26505	keystroke_t	t	n/a
13.3725	0.06	26745	keystroke_h	h	n/a
13.4625	0.06	26925	keystroke_e	e	n/a
13.5825	0.075	27165	keystroke_Key.space	Key.space	n/a
14.0625	0.06	28125	keystroke_q	q	n/a
14.1525	0.045	28305	keystroke_u	u	n/a
14.3025	0.075	28605	keystroke_i	i	n/a
14.3925	0.06	28785	keystroke_c	c	n/a
14.5275	0.075	29055	keystroke_k	k	n/a
14.7525	0.06	29505	keystroke_Key.space	Key.space	n/a
15.7875	0.045	31575	keystroke_b	b	n/a
15.9225	0.0455	31845	keystroke_r	r	n/a
16.0725	0.075	32145	keystroke_o	o	n/a
16.2225	0.09	32445	keystroke_w	w	n/a
16.3575	0.045	32715	keystroke_n	n	n/a
16.5375	0.0605	33075	keystroke_Key.space	Key.space	n/a
16.688	0.045	33376	keystroke_f	f	n/a
16.778	0.075	33556	keystroke_o	o	n/a
17.093	0.06	34186	keystroke_x	x	n/a
17.302	0.06	34604	keystroke_Key.space	Key.space	n/a
17.932	0.045	35864	keystroke_j	j	n/a
18.082	0.06	36164	keystroke_u	u	n/a
18.292	0.046	36584	keystroke_m	m	n/a
18.457	0.075	36914	keystroke_p	p	n/a
18.682	0.045	37364	keystroke_s	s	n/a
18.757	0.06	37514	keystroke_Key.space	Key.space	n/a
18.938	0.075	37876	keystroke_o	o	n/a
19.028	0.045	38056	keystroke_v	v	n/a
19.178	0.12	38356	keystroke_e	e	n/a
19.238	0.09	38476	keystroke_r	r	n/a
19.343	0.075	38686	keystroke_Key.space	Key.space	n/a
19.478	0.075	38956	keystroke_a	a	n/a
19.568	0.09	39136	keystroke_Key.space	Key.space	n/a
20.288	0.075	40576	keystroke_l	l	n/a
20.408	0.105	40816	keystroke_a	a	n/a
20.783	0.06	41566	keystroke_z	z	n/a
21.083	0.06	42166	keystroke_y	y	n/a
21.2025	0.045	42405	keystroke_Key.space	Key.space	n/a
23.935	0.001	47870	keystroke_d	d	n/a
24.008	0.09	48016	keystroke_o	o	n/a
24.233	0.06	48466	keystroke_g	g	n/a
24.817	0.091	49634	keystroke_Key.enter	Key.enter	n/a
24.924	7.771	49848	prompt	n/a	tells accessible topics resume\n
25.733	0.06	51466	keystroke_t	t	n/a
25.8975	0.06	51795	keystroke_e	e	n/a
26.0625	0.03	52125	keystroke_l	l	n/a
26.2125	0.09	52425	keystroke_l	l	n/a
26.4675	0.06	52935	keystroke_s	s	n/a
26.6175	0.06	53235	keystroke_Key.space	Key.space	n/a
27.0225	0.09	54045	keystroke_a	a	n/a
27.3825	0.06	54765	keystroke_c	c	n/a
27.517	0.0905	55034	keystroke_c	c	n/a
27.6525	0.0755	55305	keystroke_e	e	n/a
27.8775	0.03	55755	keystroke_s	s	n/a
27.9825	0.06	55965	keystroke_s	s	n/a
28.103	0.0895	56206	keystroke_i	i	n/a
28.2825	0.06	56565	keystroke_b	b	n/a
28.4775	0.09	56955	keystroke_l	l	n/a
28.6125	0.0605	57225	keystroke_e	e	n/a
28.718	0.059	57436	keystroke_Key.space	Key.space	n/a
29.723	0.06	59446	keystroke_t	t	n/a
29.903	0.044	59806	keystroke_o	o	n/a
30.067	0.075	60134	keystroke_p	p	n/a
30.277	0.06	60554	keystroke_i	i	n/a
30.577	0.075	61154	keystroke_c	c	n/a
30.7425	0.0755	61485	keystroke_s	s	n/a
30.8925	0.075	61785	keystroke_Key.space	Key.space	n/a
31.417	0.105	62834	keystroke_r	r	n/a
31.492	0.06	62984	keystroke_e	e	n/a
31.687	0.046	63374	keystroke_s	s	n/a
31.792	0.075	63584	keystroke_u	u	n/a
32.018	0.059	64036	keystroke_m	m	n/a
32.108	0.075	64216	keystroke_e	e	n/a
32.632	0.0605	65264	keystroke_Key.enter	Key.enter	n/a
32.6985	13.151	65397	prompt	n/a	source oclc bishop palestinian\n
33.6075	0.075	67215	keystroke_s	s	n/a
33.8325	0.15	67665	keystroke_o	o	n/a
33.9375	0.09	67875	keystroke_u	u	n/a
34.1475	0.06	68295	keystroke_r	r	n/a
34.4175	0.135	68835	keystroke_c	c	n/a
34.5375	0.06	69075	keystroke_e	e	n/a
34.7025	0.06	69405	keystroke_Key.space	Key.space	n/a
36.0375	0.06	72075	keystroke_o	o	n/a
36.2625	0.06	72525	keystroke_c	c	n/a
36.5475	0.09	73095	keystroke_l	l	n/a
36.938	0.075	73876	keystroke_c	c	n/a
37.1475	0.075	74295	keystroke_Key.space	Key.space	n/a
37.643	0.06	75286	keystroke_b	b	n/a
37.883	0.075	75766	keystroke_i	i	n/a
38.138	0.03	76276	keystroke_s	s	n/a
38.273	0.06	76546	keystroke_h	h	n/a
38.618	0.075	77236	keystroke_o	o	n/a
38.8425	0.105	77685	keystroke_p	p	n/a
39.518	0.0595	79036	keystroke_Key.space	Key.space	n/a
40.1625	0.075	80325	keystroke_p	p	n/a
40.3725	0.09	80745	keystroke_a	a	n/a
41.1675	0.06	82335	keystroke_l	l	n/a
41.4525	0.09	82905	keystroke_e	e	n/a
43.283	0.045	86566	keystroke_n	n	n/a
43.8975	0.06	87795	keystroke_s	s	n/a
44.498	0.06	88996	keystroke_t	t	n/a
44.753	0.0595	89506	keystroke_i	i	n/a
44.9775	0.03	89955	keystroke_n	n	n/a
45.1425	0.06	90285	keystroke_i	i	n/a
45.2775	0.075	90555	keystroke_a	a	n/a
45.3975	0.06	90795	keystroke_n	n	n/a
45.7575	0.09	91515	keystroke_Key.enter	Key.enter	n/a
45.853	7.917	91706	prompt	n/a	sheets worldcat loop tier\n
46.703	0.06	93406	keystroke_s	s	n/a
46.868	0.06	93736	keystroke_h	h	n/a
46.973	0.045	93946	keystroke_e	e	n/a
47.063	0.09	94126	keystroke_e	e	n/a
47.273	0.074	94546	keystroke_t	t	n/a
47.482	0.061	94964	keystroke_s	s	n/a
47.603	0.104	95206	keystroke_Key.space	Key.space	n/a
47.933	0.075	95866	keystroke_w	w	n/a
48.038	0.089	96076	keystroke_o	o	n/a
48.232	0.061	96464	keystroke_r	r	n/a
48.412	0.091	96824	keystroke_l	l	n/a
48.713	0.09	97426	keystroke_d	d	n/a
48.983	0.09	97966	keystroke_c	c	n/a
49.177	0.09	98354	keystroke_a	a	n/a
49.312	0.135	98624	keystroke_t	t	n/a
49.987	0.075	99974	keystroke_Key.space	Key.space	n/a
50.467	0.105	100934	keystroke_l	l	n/a
50.692	0.045	101384	keystroke_o	o	n/a
50.813	0.134	101626	keystroke_o	o	n/a
50.917	0.075	101834	keystroke_k	k	n/a
51.397	0.075	102794	keystroke_Key.backspace	Key.backspace	n/a
51.787	0.091	103574	keystroke_p	p	n/a
51.997	0.075	103994	keystroke_Key.space	Key.space	n/a
52.928	0.059	105856	keystroke_t	t	n/a
53.033	0.09	106066	keystroke_i	i	n/a
53.228	0.135	106456	keystroke_e	e	n/a
53.318	0.09	106636	keystroke_r	r	n/a
53.693	0.075	107386	keystroke_Key.enter	Key.enter	n/a
53.7745	9.475	107549	prompt	n/a	opponents quantitative stamps incl\n
54.6375	0.06	109275	keystroke_o	o	n/a
54.8325	0.06	109665	keystroke_p	p	n/a
54.9985	0.0895	109997	keystroke_p	p	n/a
55.058	0.075	110116	keystroke_o	o	n/a
55.313	0.06	110626	keystroke_n	n	n/a
55.448	0.075	110896	keystroke_e	e	n/a
55.553	0.09	111106	keystroke_n	n	n/a
55.688	0.075	111376	keystroke_t	t	n/a
55.868	0.06	111736	keystroke_s	s	n/a
55.988	0.075	111976	keystroke_Key.space	Key.space	n/a
56.798	0.09	113596	keystroke_q	q	n/a
57.1125	0.06	114225	keystroke_u	u	n/a
57.2625	0.075	114525	keystroke_a	a	n/a
57.3975	0.075	114795	keystroke_n	n	n/a
57.5325	0.105	115065	keystroke_t	t	n/a
57.6675	0.12	115335	keystroke_i	i	n/a
58.0125	0.075	116025	keystroke_t	t	n/a
58.9425	0.09	117885	keystroke_a	a	n/a
59.1975	0.06	118395	keystroke_t	t	n/a
59.3025	0.09	118605	keystroke_i	i	n/a
59.4825	0.09	118965	keystroke_v	v	n/a
59.5875	0.045	119175	keystroke_e	e	n/a
59.6625	0.075	119325	keystroke_Key.space	Key.space	n/a
60.6525	0.075	121305	keystroke_s	s	n/a
60.8325	0.06	121665	keystroke_t	t	n/a
60.9975	0.0605	121995	keystroke_a	a	n/a
61.103	0.06	122206	keystroke_m	m	n/a
61.313	0.09	122626	keystroke_p	p	n/a
61.463	0.075	122926	keystroke_s	s	n/a
61.582	0.0755	123164	keystroke_Key.space	Key.space	n/a
62.378	0.15	124756	keystroke_i	i	n/a
62.468	0.09	124936	keystroke_n	n	n/a
62.648	0.075	125296	keystroke_c	c	n/a
62.737	0.075	125474	keystroke_l	l	n/a
63.157	0.09	126314	keystroke_Key.enter	Key.enter	n/a
63.253	8.8165	126506	prompt	n/a	smoke platinum postcard floppy\n
64.042	0.045	128084	keystroke_s	s	n/a
64.102	0.075	128204	keystroke_m	m	n/a
64.268	0.089	128536	keystroke_o	o	n/a
64.717	0.09	129434	keystroke_k	k	n/a
64.838	0.074	129676	keystroke_e	e	n/a
64.957	0.075	129914	keystroke_Key.space	Key.space	n/a
65.422	0.061	130844	keystroke_p	p	n/a
65.753	0.09	131506	keystroke_l	l	n/a
65.917	0.106	131834	keystroke_a	a	n/a
66.188	0.059	132376	keystroke_t	t	n/a
66.338	0.15	132676	keystroke_i	i	n/a
66.457	0.06	132914	keystroke_n	n	n/a
66.683	0.03	133366	keystroke_m	m	n/a
67.057	0.045	134114	keystroke_Key.backspace	Key.backspace	n/a
67.222	0.046	134444	keystroke_u	u	n/a
67.418	0.06	134836	keystroke_m	m	n/a
67.582	0.09	135164	keystroke_Key.space	Key.space	n/a
68.228	0.135	136456	keystroke_p	p	n/a
68.303	0.12	136606	keystroke_o	o	n/a
68.528	0.06	137056	keystroke_s	s	n/a
68.723	0.045	137446	keystroke_t	t	n/a
68.963	0.06	137926	keystroke_c	c	n/a
69.068	0.105	138136	keystroke_a	a	n/a
69.248	0.06	138496	keystroke_r	r	n/a
69.428	0.09	138856	keystroke_d	d	n/a
69.743	0.045	139486	keystroke_Key.space	Key.space	n/a
70.283	0.045	140566	keystroke_f	f	n/a
70.418	0.105	140836	keystroke_l	l	n/a
70.733	0.075	141466	keystroke_o	o	n/a
70.973	0.03	141946	keystroke_p	p	n/a
71.078	0.06	142156	keystroke_p	p	n/a
71.603	0.075	143206	keystroke_y	y	n/a
71.978	0.09	143956	keystroke_Key.enter	Key.enter	n/a
72.0735	8.2165	144147	prompt	n/a	resident brochures but ultimately\n
72.9075	0.075	145815	keystroke_r	r	n/a
72.9525	0.075	145905	keystroke_e	e	n/a
73.1475	0.045	146295	keystroke_s	s	n/a
73.2975	0.09	146595	keystroke_i	i	n/a
73.4475	0.045	146895	keystroke_d	d	n/a
73.6125	0.06	147225	keystroke_e	e	n/a
73.7175	0.075	147435	keystroke_n	n	n/a
73.8675	0.06	147735	keystroke_t	t	n/a
73.9575	0.09	147915	keystroke_Key.space	Key.space	n/a
74.5425	0.06	149085	keystroke_b	b	n/a
74.6925	0.045	149385	keystroke_r	r	n/a
74.8575	0.075	149715	keystroke_o	o	n/a
75.1575	0.03	150315	keystroke_c	c	n/a
75.3525	0.075	150705	keystroke_h	h	n/a
75.5475	0.075	151095	keystroke_u	u	n/a
75.8025	0.135	151605	keystroke_r	r	n/a
75.8925	0.075	151785	keystroke_e	e	n/a
76.0875	0.09	152175	keystroke_s	s	n/a
76.3425	0.06	152685	keystroke_Key.space	Key.space	n/a
77.0325	0.12	154065	keystroke_b	b	n/a
77.0925	0.135	154185	keystroke_u	u	n/a
77.3025	0.06	154605	keystroke_t	t	n/a
77.4225	0.06	154845	keystroke_Key.space	Key.space	n/a
78.2325	0.06	156465	keystroke_u	u	n/a
78.4275	0.075	156855	keystroke_l	l	n/a
78.5625	0.075	157125	keystroke_t	t	n/a
78.6975	0.135	157395	keystroke_i	i	n/a
79.148	0.03	158296	keystroke_m	m	n/a
79.208	0.09	158416	keystroke_a	a	n/a
79.418	0.135	158836	keystroke_t	t	n/a
79.478	0.135	158956	keystroke_e	e	n/a
79.628	0.1045	159256	keystroke_l	l	n/a
79.7175	0.09	159435	keystroke_y	y	n/a
80.2125	0.075	160425	keystroke_Key.enter	Key.enter	n/a
80.2955	9.2485	160591	prompt	n/a	rear equivalent apple unwrap\n
81.083	0.135	162166	keystroke_r	r	n/a
81.158	0.105	162316	keystroke_e	e	n/a
81.428	0.105	162856	keystroke_a	a	n/a
81.563	0.105	163126	keystroke_r	r	n/a
81.728	0.105	163456	keystroke_Key.space	Key.space	n/a
83.168	0.06	166336	keystroke_e	e	n/a
83.542	0.061	167084	keystroke_q	q	n/a
83.738	0.09	167476	keystroke_u	u	n/a
83.813	0.104	167626	keystroke_i	i	n/a
84.128	0.06	168256	keystroke_v	v	n/a
84.457	0.1055	168914	keystroke_a	a	n/a
85.2375	0.075	170475	keystroke_l	l	n/a
85.3725	0.09	170745	keystroke_e	e	n/a
85.6125	0.09	171225	keystroke_n	n	n/a
85.7475	0.075	171495	keystroke_t	t	n/a
85.8675	0.09	171735	keystroke_Key.space	Key.space	n/a
86.2125	0.045	172425	keystroke_a	a	n/a
86.3025	0.075	172605	keystroke_p	p	n/a
86.4675	0.06	172935	keystroke_p	p	n/a
86.6475	0.09	173295	keystroke_l	l	n/a
86.7825	0.075	173565	keystroke_e	e	n/a
86.9175	0.075	173835	keystroke_Key.space	Key.space	n/a
87.4725	0.09	174945	keystroke_u	u	n/a
87.7725	0.075	175545	keystroke_n	n	n/a
88.2525	0.105	176505	keystroke_w	w	n/a
88.4475	0.06	176895	keystroke_r	r	n/a
88.643	0.075	177286	keystroke_a	a	n/a
89.018	0.06	178036	keystroke_p	p	n/a
89.468	0.075	178936	keystroke_Key.enter	Key.enter	n/a
89.548	9.071	179096	prompt	n/a	laugh decent auditor behind\n
90.353	0.075	180706	keystroke_l	l	n/a
90.5025	0.06	181005	keystroke_a	a	n/a
90.637	0.09	181274	keystroke_u	u	n/a
91.1175	0.015	182235	keystroke_h	h	n/a
92.048	0.12	184096	keystroke_Key.backspace	Key.backspace	n/a
92.273	0.075	184546	keystroke_g	g	n/a
92.363	0.06	184726	keystroke_h	h	n/a
92.573	0.075	185146	keystroke_Key.space	Key.space	n/a
93.3825	0.06	186765	keystroke_d	d	n/a
93.5625	0.0755	187125	keystroke_e	e	n/a
93.788	0.045	187576	keystroke_c	c	n/a
93.953	0.06	187906	keystroke_e	e	n/a
94.043	0.105	188086	keystroke_n	n	n/a
94.193	0.09	188386	keystroke_t	t	n/a
94.313	0.09	188626	keystroke_Key.space	Key.space	n/a
94.9425	0.09	189885	keystroke_a	a	n/a
95.093	0.075	190186	keystroke_u	u	n/a
95.317	0.075	190634	keystroke_d	d	n/a
95.723	0.075	191446	keystroke_i	i	n/a
95.858	0.06	191716	keystroke_t	t	n/a
95.963	0.105	191926	keystroke_o	o	n/a
96.308	0.06	192616	keystroke_r	r	n/a
96.443	0.06	192886	keystroke_Key.space	Key.space	n/a
97.0575	0.075	194115	keystroke_b	b	n/a
97.1775	0.06	194355	keystroke_e	e	n/a
97.3125	0.075	194625	keystroke_h	h	n/a
97.5975	0.135	195195	keystroke_i	i	n/a
97.6725	0.105	195345	keystroke_n	n	n/a
97.8525	0.075	195705	keystroke_d	d	n/a
98.543	0.075	197086	keystroke_Key.enter	Key.enter	n/a
98.6225	13.167	197245	prompt	n/a	searching dating press manager\n
99.3825	0.045	198765	keystroke_s	s	n/a
99.5625	0.0605	199125	keystroke_e	e	n/a
99.743	0.105	199486	keystroke_a	a	n/a
99.863	0.045	199726	keystroke_r	r	n/a
100.118	0.06	200236	keystroke_c	c	n/a
100.238	0.06	200476	keystroke_h	h	n/a
100.538	0.12	201076	keystroke_i	i	n/a
100.598	0.09	201196	keystroke_n	n	n/a
100.718	0.06	201436	keystroke_g	g	n/a
100.823	0.09	201646	keystroke_Key.space	Key.space	n/a
101.708	0.06	203416	keystroke_p	p	n/a
101.918	0.135	203836	keystroke_r	r	n/a
102.008	0.09	204016	keystroke_e	e	n/a
102.248	0.045	204496	keystroke_s	s	n/a
102.353	0.09	204706	keystroke_s	s	n/a
102.548	0.09	205096	keystroke_Key.space	Key.space	n/a
102.788	0.075	205576	keystroke_m	m	n/a
102.938	0.06	205876	keystroke_a	a	n/a
103.043	0.075	206086	keystroke_n	n	n/a
103.133	0.06	206266	keystroke_a	a	n/a
103.418	0.045	206836	keystroke_g	g	n/a
103.598	0.105	207196	keystroke_e	e	n/a
103.658	0.105	207316	keystroke_r	r	n/a
105.8495	0.013	211699	keystroke_Key.backspace	Key.backspace	n/a
105.9375	0.075	211875	keystroke_Key.backspace	Key.backspace	n/a
106.1025	0.06	212205	keystroke_Key.backspace	Key.backspace	n/a
106.2375	0.06	212475	keystroke_Key.backspace	Key.backspace	n/a
106.3875	0.06	212775	keystroke_Key.backspace	Key.backspace	n/a
106.5375	0.06	213075	keystroke_Key.backspace	Key.backspace	n/a
106.6875	0.045	213375	keystroke_Key.backspace	Key.backspace	n/a
106.8375	0.045	213675	keystroke_Key.backspace	Key.backspace	n/a
106.9875	0.03	213975	keystroke_Key.backspace	Key.backspace	n/a
107.1225	0.045	214245	keystroke_Key.backspace	Key.backspace	n/a
107.2575	0.06	214515	keystroke_Key.backspace	Key.backspace	n/a
107.4075	0.045	214815	keystroke_Key.backspace	Key.backspace	n/a
107.5575	0.06	215115	keystroke_Key.backspace	Key.backspace	n/a
108.1725	0.045	216345	keystroke_d	d	n/a
108.3375	0.105	216675	keystroke_a	a	n/a
108.5625	0.075	217125	keystroke_t	t	n/a
108.6525	0.12	217305	keystroke_i	i	n/a
108.7275	0.06	217455	keystroke_n	n	n/a
108.8475	0.045	217695	keystroke_g	g	n/a
108.9075	0.075	217815	keystroke_Key.space	Key.space	n/a
109.1175	0.075	218235	keystroke_p	p	n/a
109.2075	0.105	218415	keystroke_r	r	n/a
109.2675	0.075	218535	keystroke_e	e	n/a
109.4775	0.045	218955	keystroke_s	s	n/a
109.5675	0.09	219135	keystroke_s	s	n/a
109.6875	0.075	219375	keystroke_Key.space	Key.space	n/a
109.9125	0.045	219825	keystroke_m	m	n/a
109.9875	0.06	219975	keystroke_a	a	n/a
110.1075	0.075	220215	keystroke_n	n	n/a
110.1675	0.165	220335	keystroke_a	a	n/a
110.798	0.044	221596	keystroke_g	g	n/a
111.473	0.119	222946	keystroke_e	e	n/a
111.547	0.075	223094	keystroke_r	r	n/a
111.712	0.075	223424	keystroke_Key.enter	Key.enter	n/a
111.793	8.3365	223586	prompt	n/a	lazy we'd've class space\n
112.462	0.09	224924	keystroke_l	l	n/a
112.583	0.09	225166	keystroke_a	a	n/a
112.9575	0.075	225915	keystroke_z	z	n/a
113.2575	0.075	226515	keystroke_y	y	n/a
113.3775	0.075	226755	keystroke_Key.space	Key.space	n/a
113.9925	0.12	227985	keystroke_w	w	n/a
114.2475	0.06	228495	keystroke_e	e	n/a
115.148	0.105	230296	keystroke_'	'	n/a
116.2275	0.075	232455	keystroke_d	d	n/a
116.5425	0.06	233085	keystroke_'	'	n/a
116.8575	0.06	233715	keystroke_v	v	n/a
117.2775	0.06	234555	keystroke_e	e	n/a
117.3975	0.075	234795	keystroke_Key.space	Key.space	n/a
117.9225	0.075	235845	keystroke_c	c	n/a
118.1925	0.06	236385	keystroke_l	l	n/a
118.2825	0.105	236565	keystroke_a	a	n/a
118.5225	0.045	237045	keystroke_s	s	n/a
118.628	0.1045	237256	keystroke_s	s	n/a
118.7475	0.06	237495	keystroke_Key.space	Key.space	n/a
119.107	0.06	238214	keystroke_s	s	n/a
119.197	0.105	238394	keystroke_p	p	n/a
119.317	0.09	238634	keystroke_a	a	n/a
119.587	0.135	239174	keystroke_c	c	n/a
119.677	0.1055	239354	keystroke_e	e	n/a
120.0375	0.09	240075	keystroke_Key.enter	Key.enter	n/a
120.133	10.153	240266	prompt	n/a	wisconsin financing specialty protecting\n
120.9975	0.105	241995	keystroke_w	w	n/a
121.1475	0.075	242295	keystroke_i	i	n/a
121.3125	0.06	242625	keystroke_s	s	n/a
121.5525	0.075	243105	keystroke_c	c	n/a
121.7025	0.135	243405	keystroke_o	o	n/a
121.8225	0.075	243645	keystroke_n	n	n/a
122.0325	0.075	244065	keystroke_s	s	n/a
122.1375	0.1055	244275	keystroke_i	i	n/a
122.393	0.06	244786	keystroke_n	n	n/a
122.5875	0.075	245175	keystroke_Key.space	Key.space	n/a
123.248	0.06	246496	keystroke_f	f	n/a
123.323	0.105	246646	keystroke_i	i	n/a
123.398	0.075	246796	keystroke_n	n	n/a
123.533	0.075	247066	keystroke_a	a	n/a
124.808	0.06	249616	keystroke_n	n	n/a
125.153	0.06	250306	keystroke_c	c	n/a
125.348	0.12	250696	keystroke_i	i	n/a
125.423	0.09	250846	keystroke_n	n	n/a
125.783	0.06	251566	keystroke_g	g	n/a
125.873	0.09	251746	keystroke_Key.space	Key.space	n/a
126.398	0.015	252796	keystroke_s	s	n/a
126.578	0.075	253156	keystroke_p	p	n/a
126.773	0.0595	253546	keystroke_e	e	n/a
126.9525	0.075	253905	keystroke_c	c	n/a
127.0425	0.0755	254085	keystroke_i	i	n/a
127.148	0.075	254296	keystroke_a	a	n/a
127.298	0.075	254596	keystroke_l	l	n/a
127.403	0.075	254806	keystroke_t	t	n/a
127.583	0.09	255166	keystroke_y	y	n/a
127.733	0.06	255466	keystroke_Key.space	Key.space	n/a
128.333	0.09	256666	keystroke_p	p	n/a
128.603	0.06	257206	keystroke_r	r	n/a
128.678	0.09	257356	keystroke_o	o	n/a
128.873	0.045	257746	keystroke_t	t	n/a
128.993	0.075	257986	keystroke_e	e	n/a
129.203	0.045	258406	keystroke_c	c	n/a
129.368	0.075	258736	keystroke_t	t	n/a
129.488	0.1195	258976	keystroke_i	i	n/a
129.5625	0.075	259125	keystroke_n	n	n/a
129.6525	0.045	259305	keystroke_g	g	n/a
130.193	0.09	260386	keystroke_Key.enter	Key.enter	n/a
130.2895	9.2195	260579	prompt	n/a	elsewhere parade adoption member\n
131.0475	0.045	262095	keystroke_e	e	n/a
131.2425	0.075	262485	keystroke_l	l	n/a
131.4675	0.06	262935	keystroke_s	s	n/a
131.6475	0.045	263295	keystroke_e	e	n/a
131.9175	0.03	263835	keystroke_w	w	n/a
132.0225	0.06	264045	keystroke_h	h	n/a
132.0975	0.09	264195	keystroke_e	e	n/a
132.2325	0.0745	264465	keystroke_r	r	n/a
132.412	0.09	264824	keystroke_e	e	n/a
132.517	0.06	265034	keystroke_Key.space	Key.space	n/a
132.892	0.0755	265784	keystroke_p	p	n/a
133.012	0.106	266024	keystroke_a	a	n/a
133.193	0.075	266386	keystroke_r	r	n/a
133.358	0.105	266716	keystroke_a	a	n/a
133.613	0.06	267226	keystroke_d	d	n/a
133.928	0.06	267856	keystroke_e	e	n/a
134.573	0.06	269146	keystroke_Key.space	Key.space	n/a
134.933	0.075	269866	keystroke_a	a	n/a
135.2625	0.075	270525	keystroke_d	d	n/a
135.5175	0.045	271035	keystroke_o	o	n/a
135.6825	0.06	271365	keystroke_p	p	n/a
135.8475	0.06	271695	keystroke_t	t	n/a
136.0275	0.09	272055	keystroke_i	i	n/a
136.0725	0.09	272145	keystroke_o	o	n/a
136.2675	0.075	272535	keystroke_n	n	n/a
136.8975	0.015	273795	keystroke_Key.space	Key.space	n/a
137.2575	0.06	274515	keystroke_m	m	n/a
137.4675	0.045	274935	keystroke_e	e	n/a
137.5275	0.09	275055	keystroke_m	m	n/a
137.8125	0.075	275625	keystroke_b	b	n/a
137.9625	0.135	275925	keystroke_e	e	n/a
138.0525	0.09	276105	keystroke_r	r	n/a
139.402	0.105	278804	keystroke_Key.enter	Key.enter	n/a
139.513	9.551	279026	prompt	n/a	mart frost threats thinkpad\n
140.378	0.044	280756	keystroke_m	m	n/a
140.512	0.166	281024	keystroke_a	a	n/a
140.662	0.075	281324	keystroke_r	r	n/a
140.872	0.075	281744	keystroke_t	t	n/a
141.248	0.0895	282496	keystroke_Key.space	Key.space	n/a
141.9975	0.045	283995	keystroke_f	f	n/a
142.1325	0.06	284265	keystroke_r	r	n/a
142.3875	0.06	284775	keystroke_o	o	n/a
142.5375	0.075	285075	keystroke_s	s	n/a
142.7175	0.075	285435	keystroke_t	t	n/a
143.092	0.0755	286184	keystroke_Key.space	Key.space	n/a
143.5275	0.06	287055	keystroke_t	t	n/a
143.6175	0.075	287235	keystroke_h	h	n/a
143.7825	0.12	287565	keystroke_r	r	n/a
143.8575	0.105	287715	keystroke_e	e	n/a
144.0675	0.09	288135	keystroke_a	a	n/a
144.3075	0.09	288615	keystroke_t	t	n/a
144.5175	0.0745	289035	keystroke_s	s	n/a
144.6525	0.0745	289305	keystroke_Key.space	Key.space	n/a
144.9675	0.075	289935	keystroke_t	t	n/a
145.1025	0.06	290205	keystroke_h	h	n/a
145.5075	0.09	291015	keystroke_i	i	n/a
145.733	0.045	291466	keystroke_n	n	n/a
145.912	0.061	291824	keystroke_k	k	n/a
146.197	0.046	292394	keystroke_p	p	n/a
146.347	0.1355	292694	keystroke_a	a	n/a
146.4675	0.09	292935	keystroke_d	d	n/a
149.0345	0.028	298069	keystroke_Key.enter	Key.enter	n/a
149.0675	11.3515	298135	prompt	n/a	activated simpsons ceiling specialist\n
149.7825	0.09	299565	keystroke_a	a	n/a
149.9925	0.06	299985	keystroke_c	c	n/a
150.1875	0.06	300375	keystroke_t	t	n/a
150.2775	0.075	300555	keystroke_i	i	n/a
150.4875	0.045	300975	keystroke_v	v	n/a
150.6225	0.075	301245	keystroke_a	a	n/a
150.8025	0.12	301605	keystroke_t	t	n/a
150.8775	0.075	301755	keystroke_e	e	n/a
151.177	0.0755	302354	keystroke_d	d	n/a
151.357	0.075	302714	keystroke_Key.space	Key.space	n/a
151.732	0.045	303464	keystroke_s	s	n/a
151.837	0.12	303674	keystroke_i	i	n/a
151.927	0.09	303854	keystroke_m	m	n/a
152.137	0.12	304274	keystroke_p	p	n/a
152.437	0.045	304874	keystroke_s	s	n/a
152.527	0.09	305054	keystroke_o	o	n/a
152.7675	0.06	305535	keystroke_n	n	n/a
152.8875	0.075	305775	keystroke_s	s	n/a
153.187	0.06	306374	keystroke_Key.space	Key.space	n/a
154.358	0.06	308716	keystroke_c	c	n/a
154.568	0.0745	309136	keystroke_e	e	n/a
154.823	0.0895	309646	keystroke_i	i	n/a
155.1825	0.075	310365	keystroke_l	l	n/a
156.2775	0.12	312555	keystroke_i	i	n/a
156.3825	0.03	312765	keystroke_n	n	n/a
156.4275	0.045	312855	keystroke_g	g	n/a
156.5325	0.075	313065	keystroke_Key.space	Key.space	n/a
157.3725	0.06	314745	keystroke_s	s	n/a
157.4775	0.09	314955	keystroke_p	p	n/a
157.6425	0.09	315285	keystroke_e	e	n/a
157.9725	0.09	315945	keystroke_c	c	n/a
158.5875	0.06	317175	keystroke_i	i	n/a
158.827	0.076	317654	keystroke_a	a	n/a
158.963	0.074	317926	keystroke_l	l	n/a
159.233	0.06	318466	keystroke_i	i	n/a
159.307	0.046	318614	keystroke_s	s	n/a
159.5625	0.075	319125	keystroke_t	t	n/a
160.342	0.075	320684	keystroke_Key.enter	Key.enter	n/a
160.4225	9.4465	320845	prompt	n/a	jerusalem polar excessive combined\n
161.3025	0.06	322605	keystroke_j	j	n/a
161.4225	0.075	322845	keystroke_e	e	n/a
161.6775	0.06	323355	keystroke_r	r	n/a
161.8275	0.06	323655	keystroke_u	u	n/a
162.0975	0.03	324195	keystroke_s	s	n/a
162.2325	0.075	324465	keystroke_a	a	n/a
162.3225	0.09	324645	keystroke_l	l	n/a
162.5775	0.075	325155	keystroke_e	e	n/a
162.6975	0.075	325395	keystroke_m	m	n/a
162.9075	0.045	325815	keystroke_Key.space	Key.space	n/a
163.973	0.105	327946	keystroke_p	p	n/a
164.033	0.075	328066	keystroke_o	o	n/a
164.2275	0.06	328455	keystroke_l	l	n/a
164.4825	0.15	328965	keystroke_a	a	n/a
164.6175	0.09	329235	keystroke_r	r	n/a
164.7975	0.075	329595	keystroke_Key.space	Key.space	n/a
165.232	0.0455	330464	keystroke_e	e	n/a
165.458	0.075	330916	keystroke_x	x	n/a
165.653	0.06	331306	keystroke_c	c	n/a
165.803	0.06	331606	keystroke_e	e	n/a
166.013	0.045	332026	keystroke_s	s	n/a
166.118	0.075	332236	keystroke_s	s	n/a
166.552	0.09	333104	keystroke_i	i	n/a
166.837	0.105	333674	keystroke_v	v	n/a
167.062	0.0905	334124	keystroke_e	e	n/a
167.1825	0.09	334365	keystroke_Key.space	Key.space	n/a
168.0825	0.075	336165	keystroke_c	c	n/a
168.4575	0.12	336915	keystroke_o	o	n/a
168.5475	0.075	337095	keystroke_m	m	n/a
168.8175	0.06	337635	keystroke_b	b	n/a
168.9675	0.1195	337935	keystroke_i	i	n/a
169.072	0.105	338144	keystroke_n	n	n/a
169.2075	0.06	338415	keystroke_e	e	n/a
169.3875	0.06	338775	keystroke_d	d	n/a
169.8075	0.06	339615	keystroke_Key.enter	Key.enter	n/a
169.873	8.3365	339746	prompt	n/a	stories settings wearing convenience\n
170.4975	0.075	340995	keystroke_s	s	n/a
170.6925	0.06	341385	keystroke_t	t	n/a
170.8575	0.09	341715	keystroke_o	o	n/a
171.053	0.074	342106	keystroke_r	r	n/a
171.173	0.09	342346	keystroke_i	i	n/a
171.293	0.06	342586	keystroke_e	e	n/a
171.503	0.06	343006	keystroke_s	s	n/a
171.608	0.074	343216	keystroke_Key.space	Key.space	n/a
172.253	0.075	344506	keystroke_s	s	n/a
172.433	0.075	344866	keystroke_e	e	n/a
172.613	0.029	345226	keystroke_t	t	n/a
172.733	0.0895	345466	keystroke_t	t	n/a
173.0325	0.1495	346065	keystroke_i	i	n/a
173.1225	0.0895	346245	keystroke_n	n	n/a
173.197	0.09	346394	keystroke_g	g	n/a
173.362	0.06	346724	keystroke_Key.space	Key.space	n/a
173.917	0.09	347834	keystroke_Key.backspace	Key.backspace	n/a
174.067	0.06	348134	keystroke_s	s	n/a
174.202	0.06	348404	keystroke_Key.space	Key.space	n/a
174.382	0.075	348764	keystroke_w	w	n/a
174.5475	0.06	349095	keystroke_e	e	n/a
174.7275	0.06	349455	keystroke_a	a	n/a
174.8475	0.09	349695	keystroke_r	r	n/a
175.2375	0.12	350475	keystroke_i	i	n/a
175.3125	0.075	350625	keystroke_n	n	n/a
175.4025	0.09	350805	keystroke_g	g	n/a
175.5225	0.075	351045	keystroke_Key.space	Key.space	n/a
176.1375	0.075	352275	keystroke_c	c	n/a
176.3775	0.075	352755	keystroke_o	o	n/a
176.5725	0.06	353145	keystroke_n	n	n/a
176.7075	0.06	353415	keystroke_v	v	n/a
176.8875	0.045	353775	keystroke_e	e	n/a
176.9775	0.06	353955	keystroke_n	n	n/a
177.1575	0.075	354315	keystroke_i	i	n/a
177.3825	0.03	354765	keystroke_e	e	n/a
177.4425	0.075	354885	keystroke_n	n	n/a
177.6075	0.12	355215	keystroke_c	c	n/a
177.7125	0.09	355425	keystroke_e	e	n/a
178.117	0.0905	356234	keystroke_Key.enter	Key.enter	n/a
178.2125	7.4665	356425	prompt	n/a	candle kelly necessity users\n
178.9575	0.075	357915	keystroke_c	c	n/a
179.0325	0.075	358065	keystroke_a	a	n/a
179.1525	0.06	358305	keystroke_n	n	n/a
179.8575	0.0745	359715	keystroke_d	d	n/a
179.962	0.105	359924	keystroke_l	l	n/a
180.098	0.075	360196	keystroke_e	e	n/a
180.232	0.075	360464	keystroke_Key.space	Key.space	n/a
180.7875	0.075	361575	keystroke_k	k	n/a
180.8925	0.06	361785	keystroke_e	e	n/a
181.1025	0.06	362205	keystroke_l	l	n/a
181.2375	0.0745	362475	keystroke_l	l	n/a
181.3275	0.075	362655	keystroke_y	y	n/a
181.492	0.06	362984	keystroke_Key.space	Key.space	n/a
182.1975	0.0445	364395	keystroke_n	n	n/a
182.437	0.075	364874	keystroke_e	e	n/a
182.6775	0.0745	365355	keystroke_c	c	n/a
182.843	0.044	365686	keystroke_e	e	n/a
183.022	0.0305	366044	keystroke_s	s	n/a
183.0975	0.09	366195	keystroke_s	s	n/a
183.4425	0.06	366885	keystroke_i	i	n/a
183.5175	0.06	367035	keystroke_t	t	n/a
183.6975	0.09	367395	keystroke_y	y	n/a
183.9525	0.06	367905	keystroke_Key.space	Key.space	n/a
184.4925	0.105	368985	keystroke_u	u	n/a
184.6575	0.06	369315	keystroke_s	s	n/a
184.8375	0.045	369675	keystroke_e	e	n/a
185.0025	0.075	370005	keystroke_r	r	n/a
185.1675	0.075	370335	keystroke_s	s	n/a
185.602	0.075	371204	keystroke_Key.enter	Key.enter	n/a
185.6845	6.7895	371369	prompt	n/a	careful their keno guys\n
186.3975	0.075	372795	keystroke_c	c	n/a
186.6975	0.0895	373395	keystroke_a	a	n/a
186.937	0.1205	373874	keystroke_r	r	n/a
187.027	0.0755	374054	keystroke_e	e	n/a
187.2075	0.075	374415	keystroke_f	f	n/a
187.3275	0.075	374655	keystroke_u	u	n/a
187.4775	0.09	374955	keystroke_l	l	n/a
187.9425	0.06	375885	keystroke_Key.space	Key.space	n/a
188.212	0.06	376424	keystroke_t	t	n/a
188.287	0.06	376574	keystroke_h	h	n/a
188.407	0.075	376814	keystroke_e	e	n/a
188.572	0.075	377144	keystroke_i	i	n/a
188.677	0.075	377354	keystroke_r	r	n/a
188.812	0.075	377624	keystroke_Key.space	Key.space	n/a
189.6825	0.075	379365	keystroke_k	k	n/a
189.9525	0.06	379905	keystroke_e	e	n/a
190.1325	0.045	380265	keystroke_n	n	n/a
190.4925	0.06	380985	keystroke_o	o	n/a
190.7625	0.045	381525	keystroke_Key.space	Key.space	n/a
191.452	0.045	382904	keystroke_g	g	n/a
191.662	0.075	383324	keystroke_u	u	n/a
191.932	0.09	383864	keystroke_y	y	n/a
192.127	0.075	384254	keystroke_s	s	n/a
192.397	0.075	384794	keystroke_Key.enter	Key.enter	n/a
192.477	9.552	384954	prompt	n/a	citysearch soundtrack trial park\n
193.522	0.06	387044	keystroke_c	c	n/a
193.717	0.06	387434	keystroke_i	i	n/a
194.347	0.075	388694	keystroke_t	t	n/a
194.527	0.09	389054	keystroke_y	y	n/a
195.097	0.06	390194	keystroke_s	s	n/a
195.292	0.075	390584	keystroke_e	e	n/a
195.4875	0.09	390975	keystroke_a	a	n/a
195.6825	0.06	391365	keystroke_r	r	n/a
195.9215	0.046	391843	keystroke_c	c	n/a
196.0125	0.06	392025	keystroke_h	h	n/a
196.2365	0.06	392473	keystroke_Key.space	Key.space	n/a
196.687	0.06	393374	keystroke_s	s	n/a
196.807	0.12	393614	keystroke_o	o	n/a
196.882	0.075	393764	keystroke_u	u	n/a
197.092	0.0595	394184	keystroke_n	n	n/a
197.2415	0.06	394483	keystroke_d	d	n/a
197.4965	0.045	394993	keystroke_t	t	n/a
197.6465	0.06	395293	keystroke_r	r	n/a
197.8575	0.119	395715	keystroke_a	a	n/a
197.9325	0.104	395865	keystroke_c	c	n/a
198.0965	0.09	396193	keystroke_k	k	n/a
198.3065	0.06	396613	keystroke_Key.space	Key.space	n/a
199.2215	0.045	398443	keystroke_t	t	n/a
199.3865	0.06	398773	keystroke_r	r	n/a
199.5065	0.075	399013	keystroke_i	i	n/a
199.7615	0.06	399523	keystroke_a	a	n/a
199.8815	0.075	399763	keystroke_l	l	n/a
200.0765	0.06	400153	keystroke_Key.space	Key.space	n/a
200.5415	0.076	401083	keystroke_p	p	n/a
200.9915	0.091	401983	keystroke_a	a	n/a
201.307	0.06	402614	keystroke_r	r	n/a
201.517	0.06	403034	keystroke_k	k	n/a
201.9525	0.075	403905	keystroke_Key.enter	Key.enter	n/a
202.033	7.4205	404066	prompt	n/a	mirror often brick cycles\n
203.047	0.1055	406094	keystroke_m	m	n/a
203.1375	0.105	406275	keystroke_i	i	n/a
203.5275	0.045	407055	keystroke_r	r	n/a
203.6325	0.075	407265	keystroke_r	r	n/a
203.7375	0.1195	407475	keystroke_o	o	n/a
203.872	0.075	407744	keystroke_r	r	n/a
204.022	0.075	408044	keystroke_Key.space	Key.space	n/a
204.262	0.075	408524	keystroke_o	o	n/a
204.532	0.06	409064	keystroke_f	f	n/a
204.7275	0.045	409455	keystroke_t	t	n/a
204.9675	0.0895	409935	keystroke_e	e	n/a
205.072	0.06	410144	keystroke_n	n	n/a
205.282	0.06	410564	keystroke_Key.space	Key.space	n/a
206.032	0.045	412064	keystroke_b	b	n/a
206.212	0.06	412424	keystroke_r	r	n/a
206.332	0.09	412664	keystroke_i	i	n/a
207.367	0.075	414734	keystroke_c	c	n/a
207.487	0.075	414974	keystroke_k	k	n/a
207.727	0.06	415454	keystroke_Key.space	Key.space	n/a
208.147	0.06	416294	keystroke_c	c	n/a
208.327	0.0895	416654	keystroke_y	y	n/a
208.462	0.075	416924	keystroke_c	c	n/a
208.672	0.09	417344	keystroke_l	l	n/a
208.822	0.075	417644	keystroke_e	e	n/a
209.017	0.06	418034	keystroke_s	s	n/a
209.377	0.075	418754	keystroke_Key.enter	Key.enter	n/a
209.4565	11.8775	418913	prompt	n/a	philadelphia reggae settlement fashion\n
210.997	0.075	421994	keystroke_p	p	n/a
211.3125	0.045	422625	keystroke_h	h	n/a
211.4625	0.075	422925	keystroke_i	i	n/a
211.7025	0.06	423405	keystroke_l	l	n/a
211.9275	0.09	423855	keystroke_a	a	n/a
212.1675	0.075	424335	keystroke_d	d	n/a
212.4075	0.06	424815	keystroke_e	e	n/a
212.5275	0.075	425055	keystroke_l	l	n/a
212.752	0.09	425504	keystroke_p	p	n/a
213.052	0.09	426104	keystroke_h	h	n/a
213.262	0.03	426524	keystroke_i	i	n/a
214.492	0.03	428984	keystroke_a	a	n/a
214.612	0.09	429224	keystroke_Key.space	Key.space	n/a
215.647	0.135	431294	keystroke_r	r	n/a
215.737	0.09	431474	keystroke_e	e	n/a
215.977	0.045	431954	keystroke_g	g	n/a
216.067	0.09	432134	keystroke_g	g	n/a
216.307	0.09	432614	keystroke_a	a	n/a
216.787	0.075	433574	keystroke_e	e	n/a
216.907	0.105	433814	keystroke_Key.space	Key.space	n/a
217.267	0.075	434534	keystroke_s	s	n/a
217.462	0.075	434924	keystroke_e	e	n/a
217.687	0.03	435374	keystroke_t	t	n/a
217.762	0.075	435524	keystroke_t	t	n/a
217.867	0.105	435734	keystroke_l	l	n/a
218.002	0.075	436004	keystroke_e	e	n/a
218.182	0.075	436364	keystroke_m	m	n/a
218.317	0.09	436634	keystroke_e	e	n/a
218.437	0.075	436874	keystroke_n	n	n/a
218.527	0.09	437054	keystroke_t	t	n/a
218.647	0.09	437294	keystroke_Key.space	Key.space	n/a
219.352	0.06	438704	keystroke_f	f	n/a
219.502	0.075	439004	keystroke_a	a	n/a
219.712	0.075	439424	keystroke_s	s	n/a
219.907	0.09	439814	keystroke_h	h	n/a
219.982	0.105	439964	keystroke_i	i	n/a
220.222	0.09	440444	keystroke_o	o	n/a
220.417	0.075	440834	keystroke_n	n	n/a
221.2725	0.06	442545	keystroke_Key.enter	Key.enter	n/a
221.3375	6.9265	442675	prompt	n/a	applicable monday mega onto\n
221.9475	0.06	443895	keystroke_a	a	n/a
222.2165	0.076	444433	keystroke_p	p	n/a
222.757	0.09	445514	keystroke_p	p	n/a
222.952	0.06	445904	keystroke_l	l	n/a
223.1775	0.06	446355	keystroke_i	i	n/a
223.3725	0.06	446745	keystroke_c	c	n/a
223.4475	0.09	446895	keystroke_a	a	n/a
223.6875	0.06	447375	keystroke_b	b	n/a
223.8975	0.09	447795	keystroke_l	l	n/a
224.0025	0.045	448005	keystroke_e	e	n/a
224.1225	0.075	448245	keystroke_Key.space	Key.space	n/a
224.7075	0.045	449415	keystroke_m	m	n/a
224.8725	0.105	449745	keystroke_o	o	n/a
224.9625	0.105	449925	keystroke_n	n	n/a
225.1275	0.075	450255	keystroke_d	d	n/a
225.3225	0.075	450645	keystroke_a	a	n/a
225.4875	0.075	450975	keystroke_y	y	n/a
225.5775	0.1045	451155	keystroke_Key.space	Key.space	n/a
226.342	0.0155	452684	keystroke_m	m	n/a
226.3875	0.06	452775	keystroke_e	e	n/a
226.6125	0.045	453225	keystroke_g	g	n/a
226.7775	0.075	453555	keystroke_a	a	n/a
226.8975	0.075	453795	keystroke_Key.space	Key.space	n/a
227.407	0.106	454814	keystroke_o	o	n/a
227.482	0.075	454964	keystroke_n	n	n/a
227.6925	0.105	455385	keystroke_t	t	n/a
227.7825	0.09	455565	keystroke_o	o	n/a
228.202	0.06	456404	keystroke_Key.enter	Key.enter	n/a
228.268	11.486	456536	prompt	n/a	malaysia passage curriculum acceptable\n
229.2375	0.045	458475	keystroke_m	m	n/a
229.4475	0.075	458895	keystroke_a	a	n/a
230.557	0.075	461114	keystroke_l	l	n/a
230.722	0.075	461444	keystroke_a	a	n/a
231.022	0.09	462044	keystroke_y	y	n/a
231.367	0.06	462734	keystroke_s	s	n/a
231.517	0.105	463034	keystroke_i	i	n/a
231.8925	0.075	463785	keystroke_a	a	n/a
232.0575	0.074	464115	keystroke_Key.space	Key.space	n/a
232.642	0.075	465284	keystroke_p	p	n/a
232.732	0.015	465464	keystroke_a	a	n/a
232.867	0.03	465734	keystroke_s	s	n/a
232.972	0.075	465944	keystroke_s	s	n/a
233.107	0.15	466214	keystroke_a	a	n/a
233.437	0.12	466874	keystroke_g	g	n/a
233.632	0.09	467264	keystroke_Key.space	Key.space	n/a
234.097	0.09	468194	keystroke_Key.backspace	Key.backspace	n/a
234.172	0.075	468344	keystroke_e	e	n/a
234.397	0.045	468794	keystroke_Key.space	Key.space	n/a
234.8465	0.09	469693	keystroke_c	c	n/a
235.1025	0.074	470205	keystroke_u	u	n/a
235.2965	0.046	470593	keystroke_r	r	n/a
235.3875	0.074	470775	keystroke_r	r	n/a
235.5075	0.0895	471015	keystroke_i	i	n/a
235.672	0.06	471344	keystroke_c	c	n/a
235.792	0.0745	471584	keystroke_u	u	n/a
236.0165	0.09	472033	keystroke_l	l	n/a
236.2415	0.075	472483	keystroke_u	u	n/a
236.467	0.0605	472934	keystroke_m	m	n/a
236.677	0.075	473354	keystroke_Key.space	Key.space	n/a
237.802	0.075	475604	keystroke_a	a	n/a
238.057	0.03	476114	keystroke_c	c	n/a
238.162	0.075	476324	keystroke_c	c	n/a
238.312	0.06	476624	keystroke_e	e	n/a
238.387	0.105	476774	keystroke_p	p	n/a
238.552	0.0455	477104	keystroke_t	t	n/a
238.7175	0.075	477435	keystroke_a	a	n/a
238.837	0.06	477674	keystroke_b	b	n/a
239.0475	0.075	478095	keystroke_l	l	n/a
239.1675	0.03	478335	keystroke_e	e	n/a
239.6175	0.135	479235	keystroke_Key.enter	Key.enter	n/a
239.7575	6.821	479515	prompt	n/a	seem seriously fonts suites\n
240.5025	0.06	481005	keystroke_s	s	n/a
240.697	0.045	481394	keystroke_e	e	n/a
240.802	0.06	481604	keystroke_e	e	n/a
240.937	0.075	481874	keystroke_m	m	n/a
241.162	0.075	482324	keystroke_Key.space	Key.space	n/a
241.552	0.045	483104	keystroke_s	s	n/a
241.807	0.045	483614	keystroke_e	e	n/a
241.987	0.06	483974	keystroke_r	r	n/a
242.122	0.06	484244	keystroke_i	i	n/a
242.287	0.12	484574	keystroke_o	o	n/a
242.377	0.06	484754	keystroke_u	u	n/a
242.542	0.045	485084	keystroke_s	s	n/a
242.632	0.12	485264	keystroke_l	l	n/a
242.827	0.09	485654	keystroke_y	y	n/a
242.932	0.075	485864	keystroke_Key.space	Key.space	n/a
243.9665	0.0755	487933	keystroke_f	f	n/a
244.087	0.06	488174	keystroke_o	o	n/a
244.282	0.075	488564	keystroke_n	n	n/a
244.372	0.045	488744	keystroke_t	t	n/a
244.537	0.075	489074	keystroke_s	s	n/a
244.642	0.09	489284	keystroke_Key.space	Key.space	n/a
245.362	0.075	490724	keystroke_s	s	n/a
245.572	0.06	491144	keystroke_u	u	n/a
245.722	0.075	491444	keystroke_i	i	n/a
245.902	0.105	491804	keystroke_t	t	n/a
245.962	0.12	491924	keystroke_e	e	n/a
246.202	0.075	492404	keystroke_s	s	n/a
246.502	0.075	493004	keystroke_Key.enter	Key.enter	n/a
246.5815	11.232	493163	prompt	n/a	confirmed petroleum she'd decide\n
247.432	0.075	494864	keystroke_c	c	n/a
247.537	0.1055	495074	keystroke_o	o	n/a
247.6725	0.09	495345	keystroke_n	n	n/a
248.0775	0.06	496155	keystroke_f	f	n/a
248.1975	0.09	496395	keystroke_i	i	n/a
248.5575	0.03	497115	keystroke_r	r	n/a
248.6625	0.075	497325	keystroke_m	m	n/a
248.8425	0.06	497685	keystroke_e	e	n/a
249.067	0.045	498134	keystroke_d	d	n/a
249.172	0.06	498344	keystroke_Key.space	Key.space	n/a
249.667	0.075	499334	keystroke_p	p	n/a
249.802	0.15	499604	keystroke_e	e	n/a
249.907	0.075	499814	keystroke_r	r	n/a
250.357	0.105	500714	keystroke_Key.backspace	Key.backspace	n/a
250.417	0.075	500834	keystroke_t	t	n/a
251.362	0.045	502724	keystroke_r	r	n/a
252.052	0.06	504104	keystroke_o	o	n/a
252.292	0.06	504584	keystroke_l	l	n/a
252.487	0.06	504974	keystroke_e	e	n/a
252.697	0.06	505394	keystroke_u	u	n/a
252.937	0.06	505874	keystroke_m	m	n/a
253.1625	0.075	506325	keystroke_Key.space	Key.space	n/a
254.4975	0.075	508995	keystroke_s	s	n/a
254.6025	0.075	509205	keystroke_h	h	n/a
254.7225	0.075	509445	keystroke_e	e	n/a
255.247	0.09	510494	keystroke_'	'	n/a
255.352	0.075	510704	keystroke_d	d	n/a
255.532	0.075	511064	keystroke_Key.space	Key.space	n/a
256.417	0.045	512834	keystroke_d	d	n/a
256.567	0.06	513134	keystroke_e	e	n/a
256.747	0.06	513494	keystroke_c	c	n/a
256.852	0.075	513704	keystroke_i	i	n/a
256.972	0.06	513944	keystroke_d	d	n/a
257.152	0.045	514304	keystroke_e	e	n/a
257.7225	0.09	515445	keystroke_Key.enter	Key.enter	n/a
257.8165	7.857	515633	prompt	n/a	continue autos blond rats\n
258.6665	0.061	517333	keystroke_c	c	n/a
258.8025	0.12	517605	keystroke_o	o	n/a
259.0575	0.045	518115	keystroke_n	n	n/a
259.3275	0.045	518655	keystroke_t	t	n/a
259.4915	0.09	518983	keystroke_i	i	n/a
259.5965	0.076	519193	keystroke_n	n	n/a
259.8365	0.091	519673	keystroke_u	u	n/a
260.0175	0.09	520035	keystroke_e	e	n/a
260.1515	0.105	520303	keystroke_Key.space	Key.space	n/a
260.6625	0.089	521325	keystroke_a	a	n/a
260.8875	0.09	521775	keystroke_u	u	n/a
261.352	0.0445	522704	keystroke_t	t	n/a
261.4415	0.105	522883	keystroke_o	o	n/a
261.6665	0.061	523333	keystroke_s	s	n/a
261.7715	0.09	523543	keystroke_Key.space	Key.space	n/a
262.522	0.045	525044	keystroke_b	b	n/a
262.732	0.09	525464	keystroke_l	l	n/a
262.927	0.075	525854	keystroke_o	o	n/a
263.3465	0.076	526693	keystroke_n	n	n/a
263.5115	0.06	527023	keystroke_d	d	n/a
263.6015	0.075	527203	keystroke_Key.space	Key.space	n/a
264.5175	0.0745	529035	keystroke_r	r	n/a
264.652	0.12	529304	keystroke_a	a	n/a
264.907	0.06	529814	keystroke_t	t	n/a
265.0865	0.09	530173	keystroke_s	s	n/a
265.627	0.045	531254	keystroke_Key.enter	Key.enter	n/a
265.677	9.4165	531354	prompt	n/a	leaf manor recognize properly\n
266.467	0.06	532934	keystroke_l	l	n/a
266.587	0.075	533174	keystroke_e	e	n/a
266.812	0.105	533624	keystroke_a	a	n/a
267.022	0.0895	534044	keystroke_f	f	n/a
267.1415	0.105	534283	keystroke_Key.space	Key.space	n/a
267.6815	0.06	535363	keystroke_m	m	n/a
267.7865	0.075	535573	keystroke_a	a	n/a
267.8765	0.06	535753	keystroke_n	n	n/a
268.1015	0.09	536203	keystroke_o	o	n/a
268.2065	0.075	536413	keystroke_r	r	n/a
268.3415	0.075	536683	keystroke_Key.space	Key.space	n/a
269.9025	0.09	539805	keystroke_r	r	n/a
269.9625	0.105	539925	keystroke_e	e	n/a
270.1875	0.075	540375	keystroke_c	c	n/a
270.2775	0.09	540555	keystroke_o	o	n/a
270.5025	0.09	541005	keystroke_g	g	n/a
271.537	0.045	543074	keystroke_n	n	n/a
271.687	0.09	543374	keystroke_i	i	n/a
272.032	0.06	544064	keystroke_z	z	n/a
272.392	0.075	544784	keystroke_e	e	n/a
272.572	0.06	545144	keystroke_Key.space	Key.space	n/a
272.9765	0.0755	545953	keystroke_p	p	n/a
273.487	0.045	546974	keystroke_r	r	n/a
273.697	0.06	547394	keystroke_o	o	n/a
273.877	0.075	547754	keystroke_p	p	n/a
273.997	0.1195	547994	keystroke_e	e	n/a
274.0865	0.09	548173	keystroke_r	r	n/a
274.2365	0.09	548473	keystroke_l	l	n/a
274.3415	0.105	548683	keystroke_y	y	n/a
275.0015	0.0905	550003	keystroke_Key.enter	Key.enter	n/a
275.0965	7.767	550193	prompt	n/a	beverage cream predicted elements\n
276.0065	0.0605	552013	keystroke_b	b	n/a
276.097	0.075	552194	keystroke_e	e	n/a
276.307	0.045	552614	keystroke_v	v	n/a
276.427	0.135	552854	keystroke_e	e	n/a
276.5025	0.0745	553005	keystroke_r	r	n/a
276.6825	0.059	553365	keystroke_a	a	n/a
276.9215	0.075	553843	keystroke_g	g	n/a
277.0115	0.075	554023	keystroke_e	e	n/a
277.1165	0.06	554233	keystroke_Key.space	Key.space	n/a
277.2815	0.045	554563	keystroke_c	c	n/a
277.7315	0.135	555463	keystroke_r	r	n/a
277.8215	0.09	555643	keystroke_e	e	n/a
278.1215	0.09	556243	keystroke_a	a	n/a
278.9465	0.06	557893	keystroke_m	m	n/a
279.1565	0.075	558313	keystroke_Key.space	Key.space	n/a
279.517	0.075	559034	keystroke_p	p	n/a
279.7115	0.105	559423	keystroke_r	r	n/a
279.7865	0.06	559573	keystroke_e	e	n/a
280.0415	0.045	560083	keystroke_d	d	n/a
280.1625	0.074	560325	keystroke_i	i	n/a
280.2815	0.06	560563	keystroke_c	c	n/a
280.4915	0.06	560983	keystroke_t	t	n/a
280.642	0.06	561284	keystroke_e	e	n/a
280.837	0.075	561674	keystroke_d	d	n/a
280.957	0.075	561914	keystroke_Key.space	Key.space	n/a
281.602	0.045	563204	keystroke_e	e	n/a
281.692	0.09	563384	keystroke_l	l	n/a
281.812	0.045	563624	keystroke_e	e	n/a
281.932	0.06	563864	keystroke_m	m	n/a
282.067	0.075	564134	keystroke_e	e	n/a
282.157	0.075	564314	keystroke_n	n	n/a
282.277	0.06	564554	keystroke_t	t	n/a
282.412	0.12	564824	keystroke_s	s	n/a
282.787	0.075	565574	keystroke_Key.enter	Key.enter	n/a
282.868	7.3155	565736	prompt	n/a	assurance quantum movers abortion\n
283.5065	0.06	567013	keystroke_a	a	n/a
283.7165	0.03	567433	keystroke_s	s	n/a
283.8065	0.075	567613	keystroke_s	s	n/a
283.9565	0.075	567913	keystroke_u	u	n/a
284.0765	0.06	568153	keystroke_r	r	n/a
284.2565	0.06	568513	keystroke_a	a	n/a
284.4215	0.075	568843	keystroke_n	n	n/a
284.5865	0.105	569173	keystroke_c	c	n/a
284.6615	0.09	569323	keystroke_e	e	n/a
284.7965	0.09	569593	keystroke_Key.space	Key.space	n/a
285.6065	0.076	571213	keystroke_q	q	n/a
285.8475	0.06	571695	keystroke_u	u	n/a
285.9525	0.0745	571905	keystroke_a	a	n/a
286.132	0.03	572264	keystroke_n	n	n/a
286.387	0.06	572774	keystroke_t	t	n/a
286.537	0.09	573074	keystroke_u	u	n/a
286.777	0.06	573554	keystroke_m	m	n/a
286.972	0.075	573944	keystroke_Key.space	Key.space	n/a
287.362	0.045	574724	keystroke_m	m	n/a
287.512	0.09	575024	keystroke_o	o	n/a
287.632	0.0455	575264	keystroke_v	v	n/a
287.7825	0.074	575565	keystroke_e	e	n/a
287.8415	0.075	575683	keystroke_r	r	n/a
288.0365	0.06	576073	keystroke_s	s	n/a
288.1265	0.075	576253	keystroke_Key.space	Key.space	n/a
288.5015	0.09	577003	keystroke_a	a	n/a
288.7565	0.06	577513	keystroke_b	b	n/a
288.9665	0.09	577933	keystroke_o	o	n/a
289.2815	0.045	578563	keystroke_r	r	n/a
289.4615	0.06	578923	keystroke_t	t	n/a
289.5515	0.09	579103	keystroke_i	i	n/a
289.5965	0.09	579193	keystroke_o	o	n/a
289.7615	0.075	579523	keystroke_n	n	n/a
290.107	0.075	580214	keystroke_Key.enter	Key.enter	n/a
290.1895	10.929	580379	prompt	n/a	difficult dedicated utils must've\n
291.2165	0.075	582433	keystroke_d	d	n/a
291.4715	0.016	582943	keystroke_i	i	n/a
291.8165	0.015	583633	keystroke_f	f	n/a
291.8465	0.03	583693	keystroke_f	f	n/a
291.8915	0.105	583783	keystroke_i	i	n/a
292.0265	0.06	584053	keystroke_c	c	n/a
292.1165	0.075	584233	keystroke_u	u	n/a
292.3115	0.09	584623	keystroke_l	l	n/a
292.4165	0.061	584833	keystroke_t	t	n/a
292.5665	0.075	585133	keystroke_Key.space	Key.space	n/a
293.212	0.045	586424	keystroke_d	d	n/a
293.377	0.045	586754	keystroke_e	e	n/a
293.542	0.06	587084	keystroke_d	d	n/a
293.647	0.075	587294	keystroke_i	i	n/a
293.872	0.075	587744	keystroke_c	c	n/a
293.992	0.09	587984	keystroke_a	a	n/a
294.202	0.105	588404	keystroke_t	t	n/a
294.247	0.09	588494	keystroke_e	e	n/a
294.4725	0.089	588945	keystroke_d	d	n/a
294.5765	0.09	589153	keystroke_Key.space	Key.space	n/a
295.4625	0.059	590925	keystroke_u	u	n/a
295.5965	0.045	591193	keystroke_t	t	n/a
295.687	0.09	591374	keystroke_i	i	n/a
296.377	0.075	592754	keystroke_l	l	n/a
296.482	0.06	592964	keystroke_s	s	n/a
296.632	0.045	593264	keystroke_Key.space	Key.space	n/a
297.082	0.06	594164	keystroke_m	m	n/a
297.307	0.06	594614	keystroke_u	u	n/a
297.547	0.075	595094	keystroke_s	s	n/a
297.787	0.09	595574	keystroke_t	t	n/a
298.8065	0.075	597613	keystroke_'	'	n/a
299.137	0.06	598274	keystroke_v	v	n/a
299.317	0.105	598634	keystroke_e	e	n/a
301.042	0.075	602084	keystroke_Key.enter	Key.enter	n/a
301.122	10.4365	602244	prompt	n/a	norm flooring criticism evaluations\n
302.077	0.06	604154	keystroke_n	n	n/a
302.257	0.105	604514	keystroke_o	o	n/a
302.422	0.075	604844	keystroke_r	r	n/a
302.512	0.075	605024	keystroke_m	m	n/a
302.707	0.075	605414	keystroke_Key.space	Key.space	n/a
303.292	0.045	606584	keystroke_f	f	n/a
303.397	0.075	606794	keystroke_l	l	n/a
303.607	0.045	607214	keystroke_o	o	n/a
303.742	0.06	607484	keystroke_o	o	n/a
303.847	0.075	607694	keystroke_r	r	n/a
303.967	0.135	607934	keystroke_i	i	n/a
304.072	0.09	608144	keystroke_n	n	n/a
304.132	0.075	608264	keystroke_g	g	n/a
304.327	0.075	608654	keystroke_Key.space	Key.space	n/a
305.7665	0.06	611533	keystroke_c	c	n/a
305.9465	0.075	611893	keystroke_r	r	n/a
306.0825	0.104	612165	keystroke_i	i	n/a
306.2165	0.075	612433	keystroke_t	t	n/a
306.3215	0.12	612643	keystroke_i	i	n/a
306.5925	0.059	613185	keystroke_c	c	n/a
306.6975	0.09	613395	keystroke_i	i	n/a
307.0865	0.091	614173	keystroke_s	s	n/a
307.1625	0.09	614325	keystroke_m	m	n/a
307.8215	0.075	615643	keystroke_Key.space	Key.space	n/a
308.242	0.105	616484	keystroke_e	e	n/a
308.557	0.045	617114	keystroke_v	v	n/a
308.707	0.06	617414	keystroke_a	a	n/a
308.812	0.09	617624	keystroke_l	l	n/a
309.022	0.06	618044	keystroke_u	u	n/a
309.217	0.06	618434	keystroke_a	a	n/a
309.337	0.09	618674	keystroke_t	t	n/a
309.442	0.0745	618884	keystroke_i	i	n/a
309.4715	0.09	618943	keystroke_o	o	n/a
310.3275	0.09	620655	keystroke_n	n	n/a
310.4625	0.06	620925	keystroke_s	s	n/a
310.5665	0.076	621133	keystroke_Key.space	Key.space	n/a
311.467	0.09	622934	keystroke_Key.enter	Key.enter	n/a
311.5625	9.656	623125	prompt	n/a	shouldn't've disco faced mirror\n
312.5015	0.075	625003	keystroke_s	s	n/a
312.6965	0.06	625393	keystroke_h	h	n/a
312.8765	0.105	625753	keystroke_o	o	n/a
312.9515	0.075	625903	keystroke_u	u	n/a
313.1165	0.0755	626233	keystroke_l	l	n/a
313.222	0.09	626444	keystroke_d	d	n/a
313.342	0.09	626684	keystroke_n	n	n/a
313.927	0.075	627854	keystroke_t	t	n/a
314.497	0.105	628994	keystroke_Key.backspace	Key.backspace	n/a
315.1565	0.105	630313	keystroke_'	'	n/a
315.3965	0.06	630793	keystroke_t	t	n/a
316.0415	0.045	632083	keystroke_'	'	n/a
316.132	0.06	632264	keystroke_v	v	n/a
316.3425	0.119	632685	keystroke_e	e	n/a
316.7025	0.09	633405	keystroke_Key.space	Key.space	n/a
317.1815	0.061	634363	keystroke_d	d	n/a
317.2565	0.091	634513	keystroke_i	i	n/a
317.3625	0.06	634725	keystroke_s	s	n/a
317.5575	0.075	635115	keystroke_c	c	n/a
317.6475	0.075	635295	keystroke_o	o	n/a
317.8715	0.076	635743	keystroke_Key.space	Key.space	n/a
318.5165	0.09	637033	keystroke_f	f	n/a
318.6515	0.09	637303	keystroke_a	a	n/a
318.9065	0.105	637813	keystroke_c	c	n/a
318.9965	0.075	637993	keystroke_e	e	n/a
319.1915	0.075	638383	keystroke_d	d	n/a
319.3115	0.075	638623	keystroke_Key.space	Key.space	n/a
319.7465	0.105	639493	keystroke_m	m	n/a
319.8365	0.09	639673	keystroke_i	i	n/a
320.3315	0.0455	640663	keystroke_r	r	n/a
320.4375	0.0745	640875	keystroke_r	r	n/a
320.542	0.105	641084	keystroke_o	o	n/a
320.662	0.09	641324	keystroke_r	r	n/a
321.1125	0.105	642225	keystroke_Key.enter	Key.enter	n/a
321.222	9.1165	642444	prompt	n/a	rwanda prot enabled components\n
322.132	0.0455	644264	keystroke_r	r	n/a
322.5375	0.045	645075	keystroke_w	w	n/a
322.8075	0.075	645615	keystroke_a	a	n/a
322.9575	0.09	645915	keystroke_n	n	n/a
323.167	0.075	646334	keystroke_d	d	n/a
323.362	0.075	646724	keystroke_a	a	n/a
323.467	0.09	646934	keystroke_Key.space	Key.space	n/a
324.037	0.075	648074	keystroke_p	p	n/a
324.187	0.06	648374	keystroke_r	r	n/a
324.652	0.09	649304	keystroke_o	o	n/a
324.772	0.06	649544	keystroke_t	t	n/a
325.2825	0.059	650565	keystroke_Key.space	Key.space	n/a
325.6125	0.059	651225	keystroke_e	e	n/a
326.3615	0.045	652723	keystroke_n	n	n/a
326.4365	0.09	652873	keystroke_a	a	n/a
326.7365	0.045	653473	keystroke_b	b	n/a
326.9315	0.09	653863	keystroke_l	l	n/a
327.037	0.015	654074	keystroke_e	e	n/a
327.1865	0.075	654373	keystroke_d	d	n/a
327.2765	0.075	654553	keystroke_Key.space	Key.space	n/a
327.9215	0.061	655843	keystroke_c	c	n/a
328.1315	0.121	656263	keystroke_o	o	n/a
328.2075	0.09	656415	keystroke_m	m	n/a
328.4475	0.1045	656895	keystroke_p	p	n/a
328.597	0.105	657194	keystroke_o	o	n/a
328.882	0.0595	657764	keystroke_n	n	n/a
329.1065	0.06	658213	keystroke_e	e	n/a
329.1965	0.12	658393	keystroke_n	n	n/a
329.4815	0.075	658963	keystroke_t	t	n/a
329.6625	0.074	659325	keystroke_s	s	n/a
329.7515	0.105	659503	keystroke_Key.space	Key.space	n/a
330.2615	0.075	660523	keystroke_Key.enter	Key.enter	n/a
330.3415	9.732	660683	prompt	n/a	received chances siemens uploaded\n
331.147	0.105	662294	keystroke_r	r	n/a
331.222	0.075	662444	keystroke_e	e	n/a
331.402	0.075	662804	keystroke_c	c	n/a
331.537	0.0745	663074	keystroke_e	e	n/a
331.6565	0.105	663313	keystroke_i	i	n/a
331.8065	0.15	663613	keystroke_v	v	n/a
331.9115	0.105	663823	keystroke_e	e	n/a
332.1365	0.075	664273	keystroke_d	d	n/a
332.2715	0.075	664543	keystroke_Key.space	Key.space	n/a
332.5715	0.06	665143	keystroke_c	c	n/a
332.6915	0.075	665383	keystroke_h	h	n/a
332.7815	0.075	665563	keystroke_a	a	n/a
332.9015	0.075	665803	keystroke_n	n	n/a
333.0815	0.105	666163	keystroke_c	c	n/a
333.1715	0.06	666343	keystroke_e	e	n/a
333.3515	0.06	666703	keystroke_s	s	n/a
333.4415	0.09	666883	keystroke_Key.space	Key.space	n/a
334.1765	0.075	668353	keystroke_s	s	n/a
334.3425	0.105	668685	keystroke_i	i	n/a
334.5665	0.075	669133	keystroke_e	e	n/a
334.7925	0.06	669585	keystroke_m	m	n/a
335.0625	0.089	670125	keystroke_e	e	n/a
335.3475	0.1045	670695	keystroke_n	n	n/a
335.587	0.075	671174	keystroke_s	s	n/a
335.677	0.09	671354	keystroke_Key.space	Key.space	n/a
338.094	0.013	676188	keystroke_u	u	n/a
338.2725	0.09	676545	keystroke_p	p	n/a
338.4825	0.06	676965	keystroke_l	l	n/a
338.6475	0.075	677295	keystroke_o	o	n/a
338.8575	0.09	677715	keystroke_a	a	n/a
339.082	0.06	678164	keystroke_d	d	n/a
339.277	0.06	678554	keystroke_e	e	n/a
339.4565	0.075	678913	keystroke_d	d	n/a
339.9815	0.09	679963	keystroke_Key.enter	Key.enter	n/a
340.076	10.8725	680152	prompt	n/a	ecuador foreign brings february\n
341.0015	0.075	682003	keystroke_e	e	n/a
341.497	0.075	682994	keystroke_c	c	n/a
341.7365	0.06	683473	keystroke_u	u	n/a
341.8715	0.06	683743	keystroke_a	a	n/a
342.2165	0.045	684433	keystroke_d	d	n/a
342.3065	0.12	684613	keystroke_o	o	n/a
342.7565	0.075	685513	keystroke_r	r	n/a
342.9515	0.075	685903	keystroke_Key.space	Key.space	n/a
344.062	0.06	688124	keystroke_f	f	n/a
344.197	0.075	688394	keystroke_o	o	n/a
344.302	0.06	688604	keystroke_r	r	n/a
344.782	0.06	689564	keystroke_e	e	n/a
344.9025	0.09	689805	keystroke_i	i	n/a
345.097	0.075	690194	keystroke_g	g	n/a
345.187	0.0745	690374	keystroke_n	n	n/a
345.3815	0.09	690763	keystroke_Key.space	Key.space	n/a
346.1015	0.06	692203	keystroke_b	b	n/a
346.2215	0.075	692443	keystroke_r	r	n/a
346.3415	0.075	692683	keystroke_i	i	n/a
346.7615	0.045	693523	keystroke_n	n	n/a
346.8665	0.045	693733	keystroke_g	g	n/a
347.0775	0.075	694155	keystroke_s	s	n/a
347.1825	0.09	694365	keystroke_Key.space	Key.space	n/a
347.8115	0.045	695623	keystroke_d	d	n/a
348.1115	0.075	696223	keystroke_Key.backspace	Key.backspace	n/a
348.2315	0.06	696463	keystroke_f	f	n/a
348.4115	0.075	696823	keystroke_e	e	n/a
348.5915	0.06	697183	keystroke_b	b	n/a
349.0265	0.061	698053	keystroke_r	r	n/a
349.1175	0.074	698235	keystroke_u	u	n/a
349.3275	0.119	698655	keystroke_a	a	n/a
349.4325	0.075	698865	keystroke_r	r	n/a
349.6575	0.09	699315	keystroke_y	y	n/a
350.842	0.105	701684	keystroke_Key.enter	Key.enter	n/a
350.952	11.9065	701904	prompt	n/a	deferred solutions recovery whole\n
351.832	0.045	703664	keystroke_f	f	n/a
352.132	0.09	704264	keystroke_Key.backspace	Key.backspace	n/a
352.237	0.045	704474	keystroke_d	d	n/a
352.417	0.075	704834	keystroke_e	e	n/a
352.702	0.03	705404	keystroke_f	f	n/a
352.837	0.075	705674	keystroke_e	e	n/a
353.032	0.03	706064	keystroke_r	r	n/a
353.1375	0.104	706275	keystroke_r	r	n/a
353.2865	0.046	706573	keystroke_e	e	n/a
353.4815	0.061	706963	keystroke_d	d	n/a
353.5865	0.075	707173	keystroke_Key.space	Key.space	n/a
353.8715	0.061	707743	keystroke_s	s	n/a
353.9775	0.09	707955	keystroke_o	o	n/a
354.2315	0.091	708463	keystroke_l	l	n/a
354.457	0.06	708914	keystroke_u	u	n/a
354.592	0.075	709184	keystroke_t	t	n/a
354.697	0.135	709394	keystroke_i	i	n/a
354.772	0.105	709544	keystroke_o	o	n/a
354.967	0.09	709934	keystroke_n	n	n/a
355.147	0.06	710294	keystroke_s	s	n/a
355.237	0.075	710474	keystroke_Key.space	Key.space	n/a
356.362	0.0755	712724	keystroke_r	r	n/a
356.4215	0.06	712843	keystroke_e	e	n/a
356.6015	0.06	713203	keystroke_c	c	n/a
356.7065	0.106	713413	keystroke_o	o	n/a
356.8415	0.091	713683	keystroke_e	e	n/a
357.3525	0.059	714705	keystroke_v	v	n/a
357.5615	0.105	715123	keystroke_e	e	n/a
357.6215	0.09	715243	keystroke_r	r	n/a
357.8175	0.074	715635	keystroke_y	y	n/a
357.9065	0.075	715813	keystroke_Key.space	Key.space	n/a
358.5365	0.075	717073	keystroke_Key.backspace	Key.backspace	n/a
358.7165	0.06	717433	keystroke_Key.backspace	Key.backspace	n/a
358.8815	0.06	717763	keystroke_Key.backspace	Key.backspace	n/a
359.0315	0.075	718063	keystroke_Key.backspace	Key.backspace	n/a
359.1965	0.06	718393	keystroke_Key.backspace	Key.backspace	n/a
359.3465	0.045	718693	keystroke_Key.backspace	Key.backspace	n/a
360.0965	0.06	720193	keystroke_v	v	n/a
360.2465	0.12	720493	keystroke_e	e	n/a
360.3065	0.09	720613	keystroke_r	r	n/a
360.5165	0.09	721033	keystroke_y	y	n/a
360.6215	0.075	721243	keystroke_Key.space	Key.space	n/a
361.8515	0.061	723703	keystroke_w	w	n/a
361.9715	0.075	723943	keystroke_h	h	n/a
362.1515	0.075	724303	keystroke_o	o	n/a
362.3765	0.075	724753	keystroke_l	l	n/a
362.4825	0.059	724965	keystroke_e	e	n/a
362.737	0.12	725474	keystroke_Key.enter	Key.enter	n/a
362.8615	8.292	725723	prompt	n/a	diary microphone apple vista\n
363.6825	0.06	727365	keystroke_d	d	n/a
363.7715	0.091	727543	keystroke_i	i	n/a
363.8765	0.076	727753	keystroke_a	a	n/a
364.0725	0.075	728145	keystroke_r	r	n/a
364.2965	0.091	728593	keystroke_y	y	n/a
364.5965	0.075	729193	keystroke_Key.space	Key.space	n/a
365.527	0.075	731054	keystroke_m	m	n/a
365.692	0.075	731384	keystroke_i	i	n/a
365.977	0.06	731954	keystroke_c	c	n/a
366.157	0.06	732314	keystroke_r	r	n/a
366.262	0.075	732524	keystroke_o	o	n/a
366.487	0.09	732974	keystroke_p	p	n/a
366.787	0.045	733574	keystroke_h	h	n/a
366.922	0.09	733844	keystroke_o	o	n/a
367.1475	0.074	734295	keystroke_n	n	n/a
367.312	0.0295	734624	keystroke_e	e	n/a
367.5665	0.045	735133	keystroke_s	s	n/a
368.0465	0.09	736093	keystroke_Key.backspace	Key.backspace	n/a
368.3615	0.06	736723	keystroke_Key.space	Key.space	n/a
368.6775	0.089	737355	keystroke_a	a	n/a
368.8115	0.045	737623	keystroke_p	p	n/a
368.9615	0.06	737923	keystroke_p	p	n/a
369.1565	0.075	738313	keystroke_l	l	n/a
369.2765	0.075	738553	keystroke_e	e	n/a
369.3815	0.0605	738763	keystroke_Key.space	Key.space	n/a
370.072	0.015	740144	keystroke_v	v	n/a
370.102	0.075	740204	keystroke_i	i	n/a
370.357	0.075	740714	keystroke_s	s	n/a
370.567	0.045	741134	keystroke_t	t	n/a
370.717	0.12	741434	keystroke_a	a	n/a
371.0615	0.09	742123	keystroke_Key.enter	Key.enter	n/a
371.157	10.3915	742314	prompt	n/a	attorneys integrate curves rescue\n
371.8265	0.09	743653	keystroke_a	a	n/a
372.862	0.06	745724	keystroke_t	t	n/a
372.967	0.09	745934	keystroke_t	t	n/a
373.387	0.06	746774	keystroke_o	o	n/a
373.6265	0.06	747253	keystroke_r	r	n/a
374.2265	0.045	748453	keystroke_n	n	n/a
374.4215	0.09	748843	keystroke_e	e	n/a
374.677	0.0745	749354	keystroke_y	y	n/a
374.9015	0.09	749803	keystroke_s	s	n/a
375.0215	0.075	750043	keystroke_Key.space	Key.space	n/a
375.5315	0.136	751063	keystroke_i	i	n/a
375.6075	0.104	751215	keystroke_n	n	n/a
375.8775	0.104	751755	keystroke_e	e	n/a
376.372	0.0745	752744	keystroke_Key.backspace	Key.backspace	n/a
376.4915	0.045	752983	keystroke_t	t	n/a
376.6865	0.09	753373	keystroke_e	e	n/a
376.8815	0.075	753763	keystroke_g	g	n/a
377.182	0.06	754364	keystroke_r	r	n/a
377.362	0.105	754724	keystroke_a	a	n/a
377.587	0.105	755174	keystroke_t	t	n/a
377.632	0.105	755264	keystroke_e	e	n/a
377.8865	0.09	755773	keystroke_Key.space	Key.space	n/a
378.5765	0.075	757153	keystroke_c	c	n/a
378.7715	0.075	757543	keystroke_u	u	n/a
378.9665	0.06	757933	keystroke_r	r	n/a
379.3115	0.045	758623	keystroke_v	v	n/a
379.5065	0.045	759013	keystroke_e	e	n/a
379.7015	0.09	759403	keystroke_s	s	n/a
379.8215	0.075	759643	keystroke_Key.space	Key.space	n/a
380.3315	0.075	760663	keystroke_r	r	n/a
380.3625	0.074	760725	keystroke_e	e	n/a
380.5565	0.075	761113	keystroke_s	s	n/a
380.7815	0.075	761563	keystroke_c	c	n/a
380.8865	0.09	761773	keystroke_u	u	n/a
381.067	0.075	762134	keystroke_e	e	n/a
381.487	0.0595	762974	keystroke_Key.enter	Key.enter	n/a
381.553	8.4705	763106	prompt	n/a	bargains surveys contrary grants\n
382.522	0.06	765044	keystroke_b	b	n/a
382.597	0.09	765194	keystroke_a	a	n/a
382.777	0.06	765554	keystroke_r	r	n/a
383.062	0.015	766124	keystroke_g	g	n/a
383.227	0.075	766454	keystroke_a	a	n/a
383.377	0.105	766754	keystroke_i	i	n/a
383.452	0.09	766904	keystroke_n	n	n/a
383.707	0.06	767414	keystroke_s	s	n/a
383.827	0.09	767654	keystroke_Key.space	Key.space	n/a
384.697	0.075	769394	keystroke_s	s	n/a
384.847	0.075	769694	keystroke_u	u	n/a
385.0715	0.06	770143	keystroke_r	r	n/a
385.3265	0.03	770653	keystroke_v	v	n/a
385.477	0.075	770954	keystroke_e	e	n/a
385.657	0.06	771314	keystroke_y	y	n/a
385.8665	0.075	771733	keystroke_s	s	n/a
386.272	0.06	772544	keystroke_Key.space	Key.space	n/a
386.7515	0.06	773503	keystroke_c	c	n/a
386.8565	0.12	773713	keystroke_o	o	n/a
386.9465	0.075	773893	keystroke_n	n	n/a
387.0815	0.045	774163	keystroke_t	t	n/a
387.232	0.06	774464	keystroke_r	r	n/a
387.412	0.165	774824	keystroke_a	a	n/a
387.532	0.075	775064	keystroke_r	r	n/a
387.742	0.09	775484	keystroke_y	y	n/a
387.847	0.09	775694	keystroke_Key.space	Key.space	n/a
388.6265	0.046	777253	keystroke_g	g	n/a
388.8065	0.045	777613	keystroke_r	r	n/a
388.9865	0.075	777973	keystroke_a	a	n/a
389.0915	0.075	778183	keystroke_n	n	n/a
389.4065	0.03	778813	keystroke_t	t	n/a
389.572	0.06	779144	keystroke_s	s	n/a
389.932	0.09	779864	keystroke_Key.enter	Key.enter	n/a
390.0285	14.785	780057	prompt	n/a	scholarships launch performer unnecessary\n
391.072	0.045	782144	keystroke_c	c	n/a
391.3865	0.0905	782773	keystroke_Key.backspace	Key.backspace	n/a
391.462	0.09	782924	keystroke_s	s	n/a
391.597	0.075	783194	keystroke_c	c	n/a
392.4815	0.045	784963	keystroke_h	h	n/a
392.677	0.075	785354	keystroke_o	o	n/a
392.887	0.045	785774	keystroke_l	l	n/a
394.447	0.105	788894	keystroke_a	a	n/a
394.672	0.045	789344	keystroke_r	r	n/a
395.062	0.075	790124	keystroke_s	s	n/a
395.257	0.09	790514	keystroke_h	h	n/a
395.392	0.09	790784	keystroke_i	i	n/a
395.677	0.105	791354	keystroke_p	p	n/a
395.827	0.06	791654	keystroke_s	s	n/a
395.992	0.06	791984	keystroke_Key.space	Key.space	n/a
396.8465	0.075	793693	keystroke_l	l	n/a
396.9965	0.12	793993	keystroke_a	a	n/a
397.1615	0.075	794323	keystroke_u	u	n/a
397.4165	0.06	794833	keystroke_n	n	n/a
397.5965	0.09	795193	keystroke_c	c	n/a
397.7015	0.06	795403	keystroke_h	h	n/a
397.9415	0.06	795883	keystroke_Key.space	Key.space	n/a
398.782	0.075	797564	keystroke_p	p	n/a
398.9025	0.1345	797805	keystroke_e	e	n/a
398.977	0.09	797954	keystroke_r	r	n/a
399.262	0.0755	798524	keystroke_f	f	n/a
399.3525	0.105	798705	keystroke_o	o	n/a
399.6215	0.076	799243	keystroke_r	r	n/a
400.2075	0.059	800415	keystroke_m	m	n/a
400.3115	0.136	800623	keystroke_e	e	n/a
400.4175	0.074	800835	keystroke_r	r	n/a
400.5365	0.09	801073	keystroke_Key.space	Key.space	n/a
401.1665	0.075	802333	keystroke_u	u	n/a
401.4065	0.045	802813	keystroke_n	n	n/a
401.5115	0.075	803023	keystroke_n	n	n/a
401.6165	0.075	803233	keystroke_e	e	n/a
403.1015	0.075	806203	keystroke_c	c	n/a
403.2965	0.045	806593	keystroke_e	e	n/a
403.4765	0.0455	806953	keystroke_s	s	n/a
403.582	0.075	807164	keystroke_s	s	n/a
403.747	0.12	807494	keystroke_a	a	n/a
403.837	0.06	807674	keystroke_r	r	n/a
404.047	0.09	808094	keystroke_y	y	n/a
404.152	0.075	808304	keystroke_Key.space	Key.space	n/a
404.737	0.075	809474	keystroke_Key.enter	Key.enter	n/a
404.8165	11.217	809633	prompt	n/a	italian intro glasses ryan\n
405.727	0.06	811454	keystroke_i	i	n/a
405.997	0.0595	811994	keystroke_t	t	n/a
406.1915	0.06	812383	keystroke_a	a	n/a
406.2815	0.18	812563	keystroke_l	l	n/a
406.4165	0.12	812833	keystroke_i	i	n/a
407.0315	0.075	814063	keystroke_n	n	n/a
407.2265	0.075	814453	keystroke_Key.space	Key.space	n/a
408.2015	0.075	816403	keystroke_Key.backspace	Key.backspace	n/a
408.3815	0.03	816763	keystroke_Key.backspace	Key.backspace	n/a
408.5465	0.045	817093	keystroke_Key.backspace	Key.backspace	n/a
408.6965	0.075	817393	keystroke_Key.backspace	Key.backspace	n/a
409.417	0.075	818834	keystroke_l	l	n/a
409.612	0.045	819224	keystroke_i	i	n/a
409.792	0.075	819584	keystroke_a	a	n/a
409.897	0.06	819794	keystroke_n	n	n/a
410.077	0.075	820154	keystroke_Key.space	Key.space	n/a
411.817	0.09	823634	keystroke_i	i	n/a
411.847	0.09	823694	keystroke_n	n	n/a
412.042	0.045	824084	keystroke_t	t	n/a
412.297	0.09	824594	keystroke_r	r	n/a
412.402	0.09	824804	keystroke_o	o	n/a
412.642	0.075	825284	keystroke_Key.space	Key.space	n/a
413.197	0.044	826394	keystroke_g	g	n/a
413.271	0.076	826542	keystroke_l	l	n/a
413.376	0.076	826752	keystroke_a	a	n/a
413.586	0.045	827172	keystroke_s	s	n/a
413.676	0.075	827352	keystroke_s	s	n/a
413.871	0.046	827742	keystroke_e	e	n/a
414.082	0.044	828164	keystroke_s	s	n/a
414.171	0.09	828342	keystroke_Key.space	Key.space	n/a
415.056	0.06	830112	keystroke_r	r	n/a
415.327	0.089	830654	keystroke_y	y	n/a
415.506	0.075	831012	keystroke_a	a	n/a
415.611	0.09	831222	keystroke_n	n	n/a
415.927	0.105	831854	keystroke_Key.enter	Key.enter	n/a
416.0365	11.532	832073	prompt	n/a	quick artificial character ordinance\n
417.4265	0.075	834853	keystroke_q	q	n/a
417.532	0.0895	835064	keystroke_u	u	n/a
417.9365	0.105	835873	keystroke_i	i	n/a
418.192	0.09	836384	keystroke_c	c	n/a
418.297	0.1045	836594	keystroke_k	k	n/a
418.507	0.075	837014	keystroke_Key.space	Key.space	n/a
418.747	0.105	837494	keystroke_a	a	n/a
419.1065	0.09	838213	keystroke_r	r	n/a
419.7665	0.06	839533	keystroke_t	t	n/a
419.9915	0.09	839983	keystroke_i	i	n/a
420.3065	0.06	840613	keystroke_f	f	n/a
420.3815	0.105	840763	keystroke_i	i	n/a
420.4875	0.074	840975	keystroke_c	c	n/a
420.8015	0.105	841603	keystroke_i	i	n/a
420.9515	0.09	841903	keystroke_a	a	n/a
421.0715	0.09	842143	keystroke_l	l	n/a
421.3415	0.06	842683	keystroke_Key.space	Key.space	n/a
421.8965	0.12	843793	keystroke_c	c	n/a
422.0315	0.075	844063	keystroke_h	h	n/a
422.3015	0.09	844603	keystroke_a	a	n/a
422.4665	0.045	844933	keystroke_r	r	n/a
422.6165	0.135	845233	keystroke_a	a	n/a
422.7215	0.045	845443	keystroke_c	c	n/a
422.931	0.076	845862	keystroke_t	t	n/a
423.096	0.12	846192	keystroke_e	e	n/a
423.172	0.105	846344	keystroke_r	r	n/a
423.291	0.075	846582	keystroke_Key.space	Key.space	n/a
424.626	0.105	849252	keystroke_o	o	n/a
424.926	0.075	849852	keystroke_r	r	n/a
425.256	0.0755	850512	keystroke_d	d	n/a
425.4815	0.075	850963	keystroke_i	i	n/a
425.6915	0.06	851383	keystroke_n	n	n/a
425.9465	0.075	851893	keystroke_a	a	n/a
426.0815	0.075	852163	keystroke_n	n	n/a
426.1865	0.135	852373	keystroke_c	c	n/a
426.3065	0.09	852613	keystroke_e	e	n/a
427.491	0.075	854982	keystroke_Key.enter	Key.enter	n/a
427.5715	9.7165	855143	prompt	n/a	specifically ne'er cool barry\n
428.4215	0.0905	856843	keystroke_s	s	n/a
428.5415	0.0905	857083	keystroke_p	p	n/a
428.677	0.06	857354	keystroke_e	e	n/a
428.842	0.0745	857684	keystroke_c	c	n/a
428.902	0.09	857804	keystroke_i	i	n/a
429.0365	0.03	858073	keystroke_i	i	n/a
430.2665	0.06	860533	keystroke_Key.backspace	Key.backspace	n/a
430.4765	0.075	860953	keystroke_f	f	n/a
430.7015	0.1045	861403	keystroke_i	i	n/a
430.821	0.106	861642	keystroke_c	c	n/a
430.942	0.149	861884	keystroke_a	a	n/a
431.092	0.044	862184	keystroke_l	l	n/a
431.226	0.06	862452	keystroke_l	l	n/a
431.316	0.105	862632	keystroke_y	y	n/a
431.511	0.075	863022	keystroke_Key.space	Key.space	n/a
432.321	0.045	864642	keystroke_n	n	n/a
432.441	0.045	864882	keystroke_e	e	n/a
432.546	0.06	865092	keystroke_e	e	n/a
433.057	0.09	866114	keystroke_Key.backspace	Key.backspace	n/a
433.342	0.075	866684	keystroke_'	'	n/a
433.627	0.12	867254	keystroke_e	e	n/a
433.717	0.105	867434	keystroke_r	r	n/a
433.972	0.075	867944	keystroke_Key.space	Key.space	n/a
434.542	0.075	869084	keystroke_c	c	n/a
434.752	0.045	869504	keystroke_o	o	n/a
434.887	0.0595	869774	keystroke_o	o	n/a
435.1265	0.06	870253	keystroke_l	l	n/a
435.3815	0.045	870763	keystroke_Key.space	Key.space	n/a
436.072	0.059	872144	keystroke_b	b	n/a
436.192	0.12	872384	keystroke_a	a	n/a
436.402	0.045	872804	keystroke_r	r	n/a
436.492	0.105	872984	keystroke_r	r	n/a
436.732	0.075	873464	keystroke_y	y	n/a
437.2115	0.075	874423	keystroke_Key.enter	Key.enter	n/a
437.2915	6.672	874583	prompt	n/a	josh writing legendary barbie\n
438.171	0.0605	876342	keystroke_j	j	n/a
438.3515	0.105	876703	keystroke_o	o	n/a
438.6815	0.06	877363	keystroke_s	s	n/a
438.7715	0.06	877543	keystroke_h	h	n/a
438.9815	0.0745	877963	keystroke_Key.space	Key.space	n/a
439.6715	0.045	879343	keystroke_w	w	n/a
439.8215	0.06	879643	keystroke_r	r	n/a
439.9115	0.075	879823	keystroke_i	i	n/a
440.0315	0.075	880063	keystroke_t	t	n/a
440.1215	0.135	880243	keystroke_i	i	n/a
440.2115	0.09	880423	keystroke_n	n	n/a
440.2865	0.06	880573	keystroke_g	g	n/a
440.4065	0.09	880813	keystroke_Key.space	Key.space	n/a
440.7365	0.075	881473	keystroke_l	l	n/a
440.8565	0.075	881713	keystroke_e	e	n/a
441.0665	0.045	882133	keystroke_g	g	n/a
441.2165	0.075	882433	keystroke_e	e	n/a
441.2615	0.075	882523	keystroke_n	n	n/a
441.4865	0.075	882973	keystroke_d	d	n/a
441.6665	0.12	883333	keystroke_a	a	n/a
441.7715	0.0755	883543	keystroke_r	r	n/a
441.967	0.075	883934	keystroke_y	y	n/a
442.102	0.105	884204	keystroke_Key.space	Key.space	n/a
442.8365	0.045	885673	keystroke_b	b	n/a
442.8965	0.12	885793	keystroke_a	a	n/a
443.0015	0.09	886003	keystroke_r	r	n/a
443.1665	0.045	886333	keystroke_b	b	n/a
443.3615	0.12	886723	keystroke_i	i	n/a
443.5265	0.075	887053	keystroke_e	e	n/a
443.8865	0.075	887773	keystroke_Key.enter	Key.enter	n/a
443.9665	6.7315	887933	prompt	n/a	approved alive silence mods\n
444.6215	0.075	889243	keystroke_a	a	n/a
444.7115	0.06	889423	keystroke_p	p	n/a
444.8765	0.06	889753	keystroke_p	p	n/a
444.9365	0.075	889873	keystroke_r	r	n/a
445.0415	0.075	890083	keystroke_o	o	n/a
445.1765	0.075	890353	keystroke_v	v	n/a
445.2965	0.075	890593	keystroke_e	e	n/a
445.4915	0.09	890983	keystroke_d	d	n/a
445.5665	0.075	891133	keystroke_Key.space	Key.space	n/a
446.662	0.09	893324	keystroke_a	a	n/a
446.752	0.075	893504	keystroke_l	l	n/a
447.067	0.0745	894134	keystroke_i	i	n/a
447.4265	0.105	894853	keystroke_v	v	n/a
447.5465	0.09	895093	keystroke_e	e	n/a
447.6965	0.09	895393	keystroke_Key.space	Key.space	n/a
448.147	0.06	896294	keystroke_s	s	n/a
448.2515	0.075	896503	keystroke_i	i	n/a
448.4615	0.075	896923	keystroke_l	l	n/a
448.5665	0.075	897133	keystroke_e	e	n/a
448.7315	0.06	897463	keystroke_n	n	n/a
448.8665	0.12	897733	keystroke_c	c	n/a
448.9415	0.09	897883	keystroke_e	e	n/a
449.0765	0.075	898153	keystroke_Key.space	Key.space	n/a
449.7965	0.06	899593	keystroke_m	m	n/a
449.9615	0.075	899923	keystroke_o	o	n/a
450.1865	0.06	900373	keystroke_d	d	n/a
450.3665	0.06	900733	keystroke_s	s	n/a
450.6215	0.075	901243	keystroke_Key.enter	Key.enter	n/a
450.7015	10.0615	901403	prompt	n/a	ontario divided remix latitude\n
451.2065	0.06	902413	keystroke_a	a	n/a
451.5065	0.09	903013	keystroke_Key.backspace	Key.backspace	n/a
451.7915	0.135	903583	keystroke_o	o	n/a
451.9115	0.09	903823	keystroke_n	n	n/a
452.1215	0.075	904243	keystroke_t	t	n/a
452.3015	0.075	904603	keystroke_a	a	n/a
452.5415	0.06	905083	keystroke_r	r	n/a
452.6615	0.075	905323	keystroke_i	i	n/a
452.8865	0.09	905773	keystroke_o	o	n/a
453.142	0.06	906284	keystroke_Key.space	Key.space	n/a
454.326	0.075	908652	keystroke_d	d	n/a
454.717	0.075	909434	keystroke_i	i	n/a
454.912	0.074	909824	keystroke_v	v	n/a
455.1665	0.09	910333	keystroke_i	i	n/a
455.3315	0.0745	910663	keystroke_d	d	n/a
455.526	0.045	911052	keystroke_e	e	n/a
455.676	0.105	911352	keystroke_d	d	n/a
455.796	0.06	911592	keystroke_Key.space	Key.space	n/a
456.396	0.09	912792	keystroke_r	r	n/a
456.456	0.075	912912	keystroke_e	e	n/a
456.591	0.091	913182	keystroke_m	m	n/a
457.147	0.105	914294	keystroke_i	i	n/a
457.252	0.09	914504	keystroke_x	x	n/a
457.432	0.075	914864	keystroke_Key.space	Key.space	n/a
458.302	0.045	916604	keystroke_l	l	n/a
458.392	0.0895	916784	keystroke_a	a	n/a
458.587	0.075	917174	keystroke_t	t	n/a
458.707	0.09	917414	keystroke_i	i	n/a
458.887	0.075	917774	keystroke_t	t	n/a
459.142	0.09	918284	keystroke_u	u	n/a
459.352	0.044	918704	keystroke_s	s	n/a
459.621	0.09	919242	keystroke_Key.backspace	Key.backspace	n/a
459.696	0.075	919392	keystroke_d	d	n/a
459.876	0.06	919752	keystroke_e	e	n/a
460.251	0.06	920502	keystroke_Key.space	Key.space	n/a
460.701	0.06	921402	keystroke_Key.enter	Key.enter	n/a
460.766	10.0025	921532	prompt	n/a	naval developments organic cancel\n
461.826	0.06	923652	keystroke_n	n	n/a
461.931	0.09	923862	keystroke_a	a	n/a
462.171	0.03	924342	keystroke_v	v	n/a
462.336	0.075	924672	keystroke_a	a	n/a
462.396	0.09	924792	keystroke_l	l	n/a
462.651	0.06	925302	keystroke_Key.space	Key.space	n/a
463.161	0.045	926322	keystroke_d	d	n/a
463.341	0.045	926682	keystroke_e	e	n/a
463.506	0.046	927012	keystroke_v	v	n/a
463.656	0.045	927312	keystroke_e	e	n/a
463.851	0.075	927702	keystroke_l	l	n/a
464.031	0.045	928062	keystroke_o	o	n/a
464.196	0.06	928392	keystroke_p	p	n/a
464.406	0.06	928812	keystroke_m	m	n/a
464.526	0.075	929052	keystroke_e	e	n/a
464.616	0.075	929232	keystroke_n	n	n/a
464.721	0.075	929442	keystroke_t	t	n/a
464.916	0.09	929832	keystroke_s	s	n/a
465.021	0.06	930042	keystroke_Key.space	Key.space	n/a
465.831	0.075	931662	keystroke_o	o	n/a
465.966	0.06	931932	keystroke_r	r	n/a
466.146	0.045	932292	keystroke_g	g	n/a
466.296	0.09	932592	keystroke_a	a	n/a
466.401	0.06	932802	keystroke_n	n	n/a
466.626	0.105	933252	keystroke_i	i	n/a
466.822	0.059	933644	keystroke_c	c	n/a
466.926	0.075	933852	keystroke_Key.space	Key.space	n/a
467.496	0.091	934992	keystroke_c	c	n/a
467.9765	0.09	935953	keystroke_a	a	n/a
468.2765	0.09	936553	keystroke_n	n	n/a
468.6065	0.09	937213	keystroke_c	c	n/a
468.6815	0.105	937363	keystroke_e	e	n/a
469.7015	0.075	939403	keystroke_l	l	n/a
469.911	0.06	939822	keystroke_Key.space	Key.space	n/a
470.6915	0.0745	941383	keystroke_Key.enter	Key.enter	n/a
470.7725	8.0955	941545	prompt	n/a	witch sailing fresh technician\n
471.6365	0.06	943273	keystroke_w	w	n/a
471.7265	0.09	943453	keystroke_i	i	n/a
471.8915	0.03	943783	keystroke_t	t	n/a
472.2515	0.06	944503	keystroke_c	c	n/a
472.3415	0.06	944683	keystroke_h	h	n/a
472.5515	0.075	945103	keystroke_Key.space	Key.space	n/a
473.332	0.045	946664	keystroke_s	s	n/a
473.452	0.09	946904	keystroke_a	a	n/a
473.587	0.03	947174	keystroke_i	i	n/a
473.767	0.045	947534	keystroke_l	l	n/a
473.9615	0.135	947923	keystroke_i	i	n/a
474.0515	0.075	948103	keystroke_n	n	n/a
474.1715	0.06	948343	keystroke_g	g	n/a
474.2765	0.06	948553	keystroke_Key.space	Key.space	n/a
474.922	0.045	949844	keystroke_f	f	n/a
475.072	0.12	950144	keystroke_r	r	n/a
475.162	0.06	950324	keystroke_e	e	n/a
475.417	0.045	950834	keystroke_s	s	n/a
475.492	0.075	950984	keystroke_h	h	n/a
475.702	0.0595	951404	keystroke_Key.space	Key.space	n/a
476.4215	0.09	952843	keystroke_t	t	n/a
476.4665	0.09	952933	keystroke_e	e	n/a
476.6915	0.045	953383	keystroke_c	c	n/a
476.7965	0.06	953593	keystroke_h	h	n/a
476.9915	0.045	953983	keystroke_n	n	n/a
477.0965	0.0905	954193	keystroke_i	i	n/a
477.2915	0.045	954583	keystroke_c	c	n/a
477.3965	0.12	954793	keystroke_i	i	n/a
477.4865	0.075	954973	keystroke_o	o	n/a
477.831	0.06	955662	keystroke_Key.backspace	Key.backspace	n/a
477.936	0.09	955872	keystroke_a	a	n/a
478.086	0.09	956172	keystroke_n	n	n/a
478.446	0.0605	956892	keystroke_Key.space	Key.space	n/a
478.7765	0.09	957553	keystroke_Key.enter	Key.enter	n/a
478.8715	7.3165	957743	prompt	n/a	sixth placement branch chinese\n
479.7065	0.06	959413	keystroke_s	s	n/a
479.7965	0.09	959593	keystroke_i	i	n/a
480.291	0.09	960582	keystroke_x	x	n/a
480.561	0.09	961122	keystroke_t	t	n/a
480.666	0.06	961332	keystroke_h	h	n/a
480.861	0.075	961722	keystroke_Key.space	Key.space	n/a
481.146	0.135	962292	keystroke_p	p	n/a
481.266	0.075	962532	keystroke_l	l	n/a
481.356	0.075	962712	keystroke_a	a	n/a
481.566	0.075	963132	keystroke_c	c	n/a
481.626	0.09	963252	keystroke_e	e	n/a
481.821	0.06	963642	keystroke_m	m	n/a
481.926	0.09	963852	keystroke_e	e	n/a
482.046	0.075	964092	keystroke_n	n	n/a
482.151	0.075	964302	keystroke_t	t	n/a
482.256	0.075	964512	keystroke_Key.space	Key.space	n/a
482.7965	0.06	965593	keystroke_b	b	n/a
482.9315	0.06	965863	keystroke_r	r	n/a
483.067	0.09	966134	keystroke_a	a	n/a
483.6365	0.075	967273	keystroke_n	n	n/a
484.0565	0.075	968113	keystroke_c	c	n/a
484.1465	0.06	968293	keystroke_h	h	n/a
484.3565	0.075	968713	keystroke_Key.space	Key.space	n/a
484.987	0.075	969974	keystroke_c	c	n/a
485.092	0.06	970184	keystroke_h	h	n/a
485.272	0.0595	970544	keystroke_i	i	n/a
485.4365	0.06	970873	keystroke_n	n	n/a
485.5415	0.075	971083	keystroke_e	e	n/a
485.7365	0.03	971473	keystroke_s	s	n/a
485.8865	0.045	971773	keystroke_e	e	n/a
486.0965	0.09	972193	keystroke_Key.enter	Key.enter	n/a
486.1915	7.6915	972383	prompt	n/a	multi craig international inch\n
486.907	0.059	973814	keystroke_m	m	n/a
487.117	0.044	974234	keystroke_u	u	n/a
487.296	0.06	974592	keystroke_l	l	n/a
487.416	0.076	974832	keystroke_t	t	n/a
487.536	0.09	975072	keystroke_i	i	n/a
488.421	0.045	976842	keystroke_Key.space	Key.space	n/a
488.661	0.03	977322	keystroke_c	c	n/a
488.811	0.06	977622	keystroke_r	r	n/a
488.991	0.06	977982	keystroke_a	a	n/a
489.111	0.105	978222	keystroke_i	i	n/a
489.306	0.075	978612	keystroke_g	g	n/a
489.411	0.075	978822	keystroke_Key.space	Key.space	n/a
490.446	0.105	980892	keystroke_i	i	n/a
490.521	0.075	981042	keystroke_n	n	n/a
490.8965	0.06	981793	keystroke_t	t	n/a
491.0165	0.12	982033	keystroke_e	e	n/a
491.1215	0.06	982243	keystroke_r	r	n/a
491.3465	0.06	982693	keystroke_n	n	n/a
491.4065	0.075	982813	keystroke_a	a	n/a
491.5715	0.075	983143	keystroke_t	t	n/a
491.6765	0.09	983353	keystroke_i	i	n/a
491.7365	0.09	983473	keystroke_o	o	n/a
491.8865	0.075	983773	keystroke_n	n	n/a
491.9915	0.075	983983	keystroke_a	a	n/a
492.0965	0.0745	984193	keystroke_l	l	n/a
492.306	0.075	984612	keystroke_Key.space	Key.space	n/a
492.951	0.1055	985902	keystroke_i	i	n/a
493.026	0.0905	986052	keystroke_n	n	n/a
493.2965	0.075	986593	keystroke_c	c	n/a
493.4015	0.09	986803	keystroke_h	h	n/a
493.7765	0.105	987553	keystroke_Key.enter	Key.enter	n/a
493.8885	6.8195	987777	prompt	n/a	caution spas clinical networking\n
494.691	0.075	989382	keystroke_c	c	n/a
494.841	0.0905	989682	keystroke_a	a	n/a
494.976	0.0755	989952	keystroke_u	u	n/a
495.1565	0.075	990313	keystroke_t	t	n/a
495.2615	0.12	990523	keystroke_i	i	n/a
495.3215	0.09	990643	keystroke_o	o	n/a
495.5165	0.06	991033	keystroke_n	n	n/a
495.6965	0.075	991393	keystroke_Key.space	Key.space	n/a
496.221	0.0455	992442	keystroke_s	s	n/a
496.2965	0.075	992593	keystroke_p	p	n/a
496.4465	0.09	992893	keystroke_a	a	n/a
496.671	0.06	993342	keystroke_s	s	n/a
496.7915	0.075	993583	keystroke_Key.space	Key.space	n/a
497.1665	0.075	994333	keystroke_c	c	n/a
497.2715	0.15	994543	keystroke_l	l	n/a
497.3915	0.075	994783	keystroke_i	i	n/a
497.6315	0.06	995263	keystroke_n	n	n/a
497.7815	0.0745	995563	keystroke_i	i	n/a
497.931	0.091	995862	keystroke_c	c	n/a
498.067	0.104	996134	keystroke_a	a	n/a
498.187	0.089	996374	keystroke_l	l	n/a
498.426	0.075	996852	keystroke_Key.space	Key.space	n/a
499.1015	0.015	998203	keystroke_n	n	n/a
499.1465	0.075	998293	keystroke_e	e	n/a
499.3265	0.06	998653	keystroke_t	t	n/a
499.5515	0.03	999103	keystroke_w	w	n/a
499.6415	0.0905	999283	keystroke_o	o	n/a
499.761	0.076	999522	keystroke_r	r	n/a
499.881	0.06	999762	keystroke_k	k	n/a
500.091	0.075	1000182	keystroke_i	i	n/a
500.152	0.074	1000304	keystroke_n	n	n/a
500.242	0.075	1000484	keystroke_g	g	n/a
500.646	0.06	1001292	keystroke_Key.enter	Key.enter	n/a
500.711	8.232	1001422	prompt	n/a	deeper shuttle calculate identity\n
501.607	0.044	1003214	keystroke_d	d	n/a
501.787	0.044	1003574	keystroke_e	e	n/a
501.892	0.059	1003784	keystroke_e	e	n/a
502.521	0.061	1005042	keystroke_p	p	n/a
502.701	0.1055	1005402	keystroke_e	e	n/a
502.7915	0.075	1005583	keystroke_r	r	n/a
502.9265	0.09	1005853	keystroke_Key.space	Key.space	n/a
503.586	0.045	1007172	keystroke_s	s	n/a
503.676	0.06	1007352	keystroke_h	h	n/a
503.871	0.045	1007742	keystroke_u	u	n/a
504.006	0.03	1008012	keystroke_t	t	n/a
504.096	0.075	1008192	keystroke_t	t	n/a
504.216	0.09	1008432	keystroke_l	l	n/a
504.321	0.09	1008642	keystroke_e	e	n/a
504.471	0.06	1008942	keystroke_Key.space	Key.space	n/a
504.876	0.06	1009752	keystroke_c	c	n/a
504.996	0.0905	1009992	keystroke_a	a	n/a
505.1165	0.075	1010233	keystroke_l	l	n/a
505.296	0.06	1010592	keystroke_c	c	n/a
505.401	0.06	1010802	keystroke_u	u	n/a
505.596	0.075	1011192	keystroke_l	l	n/a
505.701	0.06	1011402	keystroke_a	a	n/a
505.926	0.09	1011852	keystroke_t	t	n/a
505.971	0.09	1011942	keystroke_e	e	n/a
506.091	0.105	1012182	keystroke_Key.space	Key.space	n/a
506.9465	0.09	1013893	keystroke_i	i	n/a
507.292	0.045	1014584	keystroke_d	d	n/a
507.457	0.06	1014914	keystroke_e	e	n/a
507.562	0.075	1015124	keystroke_n	n	n/a
507.757	0.075	1015514	keystroke_t	t	n/a
507.877	0.105	1015754	keystroke_i	i	n/a
507.997	0.09	1015994	keystroke_t	t	n/a
508.207	0.075	1016414	keystroke_y	y	n/a
508.8365	0.105	1017673	keystroke_Key.enter	Key.enter	n/a
508.9465	8.172	1017893	prompt	n/a	mambo slideshow edited police\n
509.6765	0.06	1019353	keystroke_m	m	n/a
509.7965	0.0595	1019593	keystroke_a	a	n/a
509.871	0.06	1019742	keystroke_m	m	n/a
510.261	0.06	1020522	keystroke_b	b	n/a
510.876	0.06	1021752	keystroke_o	o	n/a
511.1315	0.045	1022263	keystroke_Key.space	Key.space	n/a
511.371	0.06	1022742	keystroke_s	s	n/a
511.461	0.151	1022922	keystroke_l	l	n/a
511.551	0.1055	1023102	keystroke_i	i	n/a
511.8665	0.045	1023733	keystroke_d	d	n/a
512.0165	0.045	1024033	keystroke_e	e	n/a
512.2715	0.045	1024543	keystroke_s	s	n/a
512.3765	0.06	1024753	keystroke_h	h	n/a
512.6015	0.09	1025203	keystroke_o	o	n/a
512.7815	0.06	1025563	keystroke_w	w	n/a
513.0215	0.06	1026043	keystroke_Key.space	Key.space	n/a
513.6065	0.03	1027213	keystroke_e	e	n/a
513.7715	0.06	1027543	keystroke_d	d	n/a
513.8465	0.075	1027693	keystroke_i	i	n/a
514.041	0.091	1028082	keystroke_t	t	n/a
514.161	0.091	1028322	keystroke_e	e	n/a
514.401	0.075	1028802	keystroke_d	d	n/a
514.806	0.045	1029612	keystroke_Key.space	Key.space	n/a
515.511	0.09	1031022	keystroke_p	p	n/a
515.766	0.075	1031532	keystroke_o	o	n/a
515.946	0.075	1031892	keystroke_l	l	n/a
516.156	0.03	1032312	keystroke_i	i	n/a
516.276	0.1655	1032552	keystroke_c	c	n/a
516.411	0.1055	1032822	keystroke_e	e	n/a
517.057	0.06	1034114	keystroke_Key.enter	Key.enter	n/a
517.122	8.3965	1034244	prompt	n/a	failing challenged install consistent\n
518.0015	0.075	1036003	keystroke_f	f	n/a
518.1065	0.09	1036213	keystroke_a	a	n/a
518.2115	0.075	1036423	keystroke_i	i	n/a
518.4215	0.06	1036843	keystroke_l	l	n/a
518.6615	0.105	1037323	keystroke_i	i	n/a
518.7365	0.075	1037473	keystroke_n	n	n/a
518.8415	0.06	1037683	keystroke_g	g	n/a
518.9315	0.075	1037863	keystroke_Key.space	Key.space	n/a
519.261	0.06	1038522	keystroke_c	c	n/a
519.381	0.06	1038762	keystroke_h	h	n/a
519.471	0.075	1038942	keystroke_a	a	n/a
519.651	0.045	1039302	keystroke_l	l	n/a
519.7865	0.0745	1039573	keystroke_l	l	n/a
519.9065	0.0445	1039813	keystroke_e	e	n/a
520.011	0.06	1040022	keystroke_n	n	n/a
520.266	0.045	1040532	keystroke_f	f	n/a
520.596	0.06	1041192	keystroke_Key.backspace	Key.backspace	n/a
520.6715	0.0445	1041343	keystroke_g	g	n/a
520.821	0.075	1041642	keystroke_e	e	n/a
521.001	0.0755	1042002	keystroke_d	d	n/a
521.0915	0.075	1042183	keystroke_Key.space	Key.space	n/a
521.932	0.09	1043864	keystroke_i	i	n/a
522.1415	0.06	1044283	keystroke_n	n	n/a
522.2315	0.06	1044463	keystroke_s	s	n/a
522.3815	0.06	1044763	keystroke_t	t	n/a
522.5315	0.075	1045063	keystroke_a	a	n/a
522.6215	0.075	1045243	keystroke_l	l	n/a
522.7565	0.075	1045513	keystroke_l	l	n/a
522.9665	0.0755	1045933	keystroke_Key.space	Key.space	n/a
523.282	0.06	1046564	keystroke_c	c	n/a
523.387	0.1195	1046774	keystroke_o	o	n/a
523.462	0.0895	1046924	keystroke_n	n	n/a
523.6415	0.045	1047283	keystroke_s	s	n/a
523.7465	0.075	1047493	keystroke_i	i	n/a
523.8665	0.075	1047733	keystroke_s	s	n/a
524.4965	0.075	1048993	keystroke_t	t	n/a
524.5865	0.09	1049173	keystroke_e	e	n/a
524.6775	0.089	1049355	keystroke_n	n	n/a
524.857	0.045	1049714	keystroke_t	t	n/a
524.932	0.089	1049864	keystroke_Key.space	Key.space	n/a
525.442	0.0745	1050884	keystroke_Key.enter	Key.enter	n/a
525.5215	10.287	1051043	prompt	n/a	israeli buried negotiations matter\n
526.552	0.06	1053104	keystroke_i	i	n/a
526.852	0.044	1053704	keystroke_s	s	n/a
527.7515	0.075	1055503	keystroke_r	r	n/a
527.9015	0.075	1055803	keystroke_a	a	n/a
528.1415	0.06	1056283	keystroke_e	e	n/a
528.3515	0.09	1056703	keystroke_l	l	n/a
528.7115	0.075	1057423	keystroke_i	i	n/a
529.4915	0.075	1058983	keystroke_Key.space	Key.space	n/a
529.8965	0.12	1059793	keystroke_b	b	n/a
530.0315	0.09	1060063	keystroke_u	u	n/a
530.392	0.045	1060784	keystroke_r	r	n/a
530.496	0.106	1060992	keystroke_i	i	n/a
530.661	0.061	1061322	keystroke_e	e	n/a
530.8415	0.075	1061683	keystroke_d	d	n/a
530.9315	0.06	1061863	keystroke_Key.space	Key.space	n/a
531.456	0.06	1062912	keystroke_n	n	n/a
531.576	0.075	1063152	keystroke_e	e	n/a
531.786	0.06	1063572	keystroke_g	g	n/a
531.906	0.075	1063812	keystroke_o	o	n/a
532.311	0.075	1064622	keystroke_t	t	n/a
533.001	0.0755	1066002	keystroke_i	i	n/a
533.2115	0.075	1066423	keystroke_a	a	n/a
533.4065	0.045	1066813	keystroke_t	t	n/a
533.4965	0.105	1066993	keystroke_i	i	n/a
533.5565	0.105	1067113	keystroke_o	o	n/a
533.7215	0.105	1067443	keystroke_n	n	n/a
533.8565	0.075	1067713	keystroke_s	s	n/a
533.9615	0.09	1067923	keystroke_Key.space	Key.space	n/a
534.8015	0.06	1069603	keystroke_m	m	n/a
534.8915	0.09	1069783	keystroke_a	a	n/a
535.132	0.03	1070264	keystroke_t	t	n/a
535.222	0.075	1070444	keystroke_t	t	n/a
535.372	0.135	1070744	keystroke_e	e	n/a
535.447	0.105	1070894	keystroke_r	r	n/a
535.702	0.1045	1071404	keystroke_Key.enter	Key.enter	n/a
535.812	9.371	1071624	prompt	n/a	underground literary fifteen reference\n
536.647	0.059	1073294	keystroke_u	u	n/a
536.842	0.059	1073684	keystroke_n	n	n/a
536.916	0.06	1073832	keystroke_d	d	n/a
537.0965	0.09	1074193	keystroke_e	e	n/a
537.1565	0.06	1074313	keystroke_r	r	n/a
537.3215	0.06	1074643	keystroke_g	g	n/a
537.4715	0.06	1074943	keystroke_r	r	n/a
537.9215	0.12	1075843	keystroke_o	o	n/a
537.9815	0.09	1075963	keystroke_u	u	n/a
538.1915	0.075	1076383	keystroke_n	n	n/a
538.2815	0.075	1076563	keystroke_d	d	n/a
538.3865	0.075	1076773	keystroke_Key.space	Key.space	n/a
539.6915	0.06	1079383	keystroke_l	l	n/a
539.8865	0.06	1079773	keystroke_i	i	n/a
540.0665	0.045	1080133	keystroke_t	t	n/a
540.1865	0.12	1080373	keystroke_e	e	n/a
540.2765	0.075	1080553	keystroke_r	r	n/a
540.4565	0.105	1080913	keystroke_a	a	n/a
540.6065	0.075	1081213	keystroke_r	r	n/a
540.8165	0.06	1081633	keystroke_y	y	n/a
540.9365	0.09	1081873	keystroke_Key.space	Key.space	n/a
541.731	0.045	1083462	keystroke_f	f	n/a
541.791	0.105	1083582	keystroke_i	i	n/a
541.881	0.06	1083762	keystroke_f	f	n/a
542.061	0.045	1084122	keystroke_t	t	n/a
542.196	0.075	1084392	keystroke_e	e	n/a
542.631	0.045	1085262	keystroke_e	e	n/a
542.781	0.0605	1085562	keystroke_n	n	n/a
542.9765	0.075	1085953	keystroke_Key.space	Key.space	n/a
543.8165	0.1355	1087633	keystroke_r	r	n/a
543.9065	0.0755	1087813	keystroke_e	e	n/a
544.071	0.075	1088142	keystroke_f	f	n/a
544.191	0.09	1088382	keystroke_e	e	n/a
544.266	0.075	1088532	keystroke_r	r	n/a
544.416	0.075	1088832	keystroke_e	e	n/a
544.551	0.09	1089102	keystroke_n	n	n/a
544.686	0.105	1089372	keystroke_c	c	n/a
544.746	0.105	1089492	keystroke_e	e	n/a
545.091	0.09	1090182	keystroke_Key.enter	Key.enter	n/a
545.1865	7.7815	1090373	prompt	n/a	acceptable infrared arrive her\n
545.826	0.075	1091652	keystroke_a	a	n/a
546.096	0.045	1092192	keystroke_c	c	n/a
546.531	0.075	1093062	keystroke_c	c	n/a
546.741	0.045	1093482	keystroke_e	e	n/a
546.906	0.09	1093812	keystroke_p	p	n/a
547.7465	0.045	1095493	keystroke_t	t	n/a
547.8965	0.075	1095793	keystroke_a	a	n/a
547.9865	0.075	1095973	keystroke_b	b	n/a
548.1815	0.075	1096363	keystroke_l	l	n/a
548.2715	0.075	1096543	keystroke_e	e	n/a
548.4215	0.075	1096843	keystroke_Key.space	Key.space	n/a
548.8865	0.12	1097773	keystroke_i	i	n/a
548.9615	0.09	1097923	keystroke_n	n	n/a
549.3515	0.045	1098703	keystroke_f	f	n/a
549.516	0.06	1099032	keystroke_r	r	n/a
549.711	0.09	1099422	keystroke_a	a	n/a
550.086	0.06	1100172	keystroke_r	r	n/a
550.266	0.075	1100532	keystroke_e	e	n/a
550.446	0.075	1100892	keystroke_d	d	n/a
550.566	0.105	1101132	keystroke_Key.space	Key.space	n/a
550.881	0.075	1101762	keystroke_a	a	n/a
551.1815	0.045	1102363	keystroke_r	r	n/a
551.2715	0.09	1102543	keystroke_r	r	n/a
551.3915	0.09	1102783	keystroke_i	i	n/a
551.5415	0.09	1103083	keystroke_v	v	n/a
551.6465	0.105	1103293	keystroke_e	e	n/a
551.7815	0.09	1103563	keystroke_Key.space	Key.space	n/a
552.411	0.06	1104822	keystroke_h	h	n/a
552.501	0.12	1105002	keystroke_e	e	n/a
552.591	0.105	1105182	keystroke_r	r	n/a
552.891	0.075	1105782	keystroke_Key.enter	Key.enter	n/a
552.971	14.727	1105942	prompt	n/a	waiver independence individuals compatibility\n
553.822	0.0445	1107644	keystroke_w	w	n/a
553.9715	0.075	1107943	keystroke_a	a	n/a
554.0765	0.075	1108153	keystroke_i	i	n/a
554.2565	0.075	1108513	keystroke_v	v	n/a
554.4515	0.105	1108903	keystroke_e	e	n/a
554.5115	0.0755	1109023	keystroke_r	r	n/a
554.602	0.0895	1109204	keystroke_Key.space	Key.space	n/a
555.0365	0.12	1110073	keystroke_i	i	n/a
555.1115	0.09	1110223	keystroke_n	n	n/a
555.396	0.06	1110792	keystroke_d	d	n/a
555.5615	0.06	1111123	keystroke_e	e	n/a
555.8015	0.06	1111603	keystroke_p	p	n/a
555.9365	0.045	1111873	keystroke_e	e	n/a
556.0415	0.06	1112083	keystroke_n	n	n/a
556.1315	0.06	1112263	keystroke_d	d	n/a
556.2965	0.09	1112593	keystroke_a	a	n/a
556.4315	0.075	1112863	keystroke_n	n	n/a
556.5515	0.12	1113103	keystroke_c	c	n/a
556.6565	0.075	1113313	keystroke_e	e	n/a
556.7465	0.09	1113493	keystroke_Key.space	Key.space	n/a
557.5265	0.075	1115053	keystroke_Key.backspace	Key.backspace	n/a
557.7365	0.06	1115473	keystroke_Key.backspace	Key.backspace	n/a
557.9165	0.075	1115833	keystroke_Key.backspace	Key.backspace	n/a
558.1565	0.105	1116313	keystroke_Key.backspace	Key.backspace	n/a
558.8915	0.0745	1117783	keystroke_Key.backspace	Key.backspace	n/a
559.251	0.045	1118502	keystroke_e	e	n/a
559.356	0.09	1118712	keystroke_n	n	n/a
559.5515	0.1045	1119103	keystroke_c	c	n/a
559.626	0.0905	1119252	keystroke_e	e	n/a
559.7315	0.06	1119463	keystroke_Key.space	Key.space	n/a
560.841	0.091	1121682	keystroke_i	i	n/a
561.0665	0.06	1122133	keystroke_n	n	n/a
561.3665	0.045	1122733	keystroke_d	d	n/a
561.4715	0.105	1122943	keystroke_i	i	n/a
561.8165	0.045	1123633	keystroke_v	v	n/a
561.9215	0.09	1123843	keystroke_i	i	n/a
562.3865	0.06	1124773	keystroke_d	d	n/a
562.4615	0.0745	1124923	keystroke_u	u	n/a
562.611	0.075	1125222	keystroke_a	a	n/a
562.7315	0.105	1125463	keystroke_l	l	n/a
562.881	0.076	1125762	keystroke_s	s	n/a
563.016	0.06	1126032	keystroke_Key.space	Key.space	n/a
563.691	0.075	1127382	keystroke_c	c	n/a
563.752	0.104	1127504	keystroke_o	o	n/a
563.962	0.045	1127924	keystroke_m	m	n/a
564.112	0.059	1128224	keystroke_p	p	n/a
564.261	0.12	1128522	keystroke_a	a	n/a
564.6065	0.105	1129213	keystroke_t	t	n/a
565.446	0.075	1130892	keystroke_i	i	n/a
565.6565	0.06	1131313	keystroke_b	b	n/a
565.8215	0.105	1131643	keystroke_i	i	n/a
566.0615	0.06	1132123	keystroke_l	l	n/a
566.4215	0.105	1132843	keystroke_i	i	n/a
566.7665	0.075	1133533	keystroke_t	t	n/a
566.9465	0.075	1133893	keystroke_y	y	n/a
567.0365	0.0895	1134073	keystroke_Key.space	Key.space	n/a
567.606	0.09	1135212	keystroke_Key.enter	Key.enter	n/a
567.701	7.0025	1135402	prompt	n/a	faculty still cream exists\n
568.626	0.045	1137252	keystroke_f	f	n/a
568.776	0.09	1137552	keystroke_a	a	n/a
568.851	0.06	1137702	keystroke_c	c	n/a
569.016	0.075	1138032	keystroke_u	u	n/a
569.196	0.09	1138392	keystroke_l	l	n/a
569.301	0.045	1138602	keystroke_t	t	n/a
569.451	0.105	1138902	keystroke_y	y	n/a
569.571	0.09	1139142	keystroke_Key.space	Key.space	n/a
570.0815	0.074	1140163	keystroke_s	s	n/a
570.2615	0.074	1140523	keystroke_t	t	n/a
570.3515	0.105	1140703	keystroke_i	i	n/a
570.6205	0.046	1141241	keystroke_l	l	n/a
570.7415	0.075	1141483	keystroke_l	l	n/a
570.9355	0.076	1141871	keystroke_Key.space	Key.space	n/a
571.1165	0.074	1142233	keystroke_c	c	n/a
571.3555	0.121	1142711	keystroke_r	r	n/a
571.4155	0.09	1142831	keystroke_e	e	n/a
571.5815	0.089	1143163	keystroke_a	a	n/a
571.8955	0.075	1143791	keystroke_m	m	n/a
572.1055	0.06	1144211	keystroke_Key.space	Key.space	n/a
572.6315	0.045	1145263	keystroke_e	e	n/a
572.8265	0.045	1145653	keystroke_s	s	n/a
573.186	0.075	1146372	keystroke_Key.backspace	Key.backspace	n/a
573.291	0.075	1146582	keystroke_x	x	n/a
573.471	0.09	1146942	keystroke_i	i	n/a
573.681	0.06	1147362	keystroke_s	s	n/a
573.906	0.03	1147812	keystroke_t	t	n/a
574.026	0.09	1148052	keystroke_s	s	n/a
574.611	0.09	1149222	keystroke_Key.enter	Key.enter	n/a
574.7065	9.221	1149413	prompt	n/a	handled district between learned\n
575.572	0.059	1151144	keystroke_h	h	n/a
575.647	0.074	1151294	keystroke_a	a	n/a
575.766	0.061	1151532	keystroke_n	n	n/a
575.842	0.075	1151684	keystroke_d	d	n/a
576.0215	0.075	1152043	keystroke_l	l	n/a
576.1115	0.06	1152223	keystroke_e	e	n/a
576.2765	0.075	1152553	keystroke_d	d	n/a
576.3665	0.06	1152733	keystroke_Key.space	Key.space	n/a
576.801	0.045	1153602	keystroke_d	d	n/a
576.862	0.074	1153724	keystroke_i	i	n/a
576.966	0.06	1153932	keystroke_s	s	n/a
577.1315	0.06	1154263	keystroke_t	t	n/a
577.4015	0.045	1154803	keystroke_r	r	n/a
577.5665	0.075	1155133	keystroke_i	i	n/a
577.7165	0.06	1155433	keystroke_c	c	n/a
577.7315	0.06	1155463	keystroke_v	v	n/a
578.091	0.09	1156182	keystroke_Key.backspace	Key.backspace	n/a
578.166	0.06	1156332	keystroke_c	c	n/a
578.361	0.075	1156722	keystroke_t	t	n/a
578.526	0.06	1157052	keystroke_Key.space	Key.space	n/a
579.006	0.06	1158012	keystroke_Key.backspace	Key.backspace	n/a
579.156	0.0605	1158312	keystroke_Key.backspace	Key.backspace	n/a
579.3215	0.0895	1158643	keystroke_Key.backspace	Key.backspace	n/a
579.456	0.075	1158912	keystroke_t	t	n/a
579.591	0.06	1159182	keystroke_Key.space	Key.space	n/a
580.581	0.045	1161162	keystroke_b	b	n/a
580.656	0.0755	1161312	keystroke_e	e	n/a
580.8215	0.06	1161643	keystroke_t	t	n/a
581.2405	0.076	1162481	keystroke_w	w	n/a
581.4365	0.06	1162873	keystroke_e	e	n/a
581.5415	0.09	1163083	keystroke_e	e	n/a
581.6465	0.09	1163293	keystroke_n	n	n/a
581.8555	0.075	1163711	keystroke_Key.space	Key.space	n/a
582.5005	0.061	1165001	keystroke_l	l	n/a
582.6205	0.06	1165241	keystroke_e	e	n/a
582.7705	0.091	1165541	keystroke_a	a	n/a
582.9505	0.045	1165901	keystroke_r	r	n/a
583.131	0.09	1166262	keystroke_n	n	n/a
583.236	0.06	1166472	keystroke_e	e	n/a
583.416	0.0605	1166832	keystroke_d	d	n/a
583.8365	0.09	1167673	keystroke_Key.enter	Key.enter	n/a
583.931	9.6415	1167862	prompt	n/a	send variables biotechnology attached\n
584.8115	0.06	1169623	keystroke_s	s	n/a
584.9915	0.06	1169983	keystroke_e	e	n/a
585.0815	0.09	1170163	keystroke_n	n	n/a
585.1865	0.09	1170373	keystroke_d	d	n/a
585.291	0.09	1170582	keystroke_Key.space	Key.space	n/a
585.741	0.045	1171482	keystroke_v	v	n/a
585.861	0.09	1171722	keystroke_a	a	n/a
585.996	0.06	1171992	keystroke_r	r	n/a
586.086	0.105	1172172	keystroke_i	i	n/a
586.221	0.06	1172442	keystroke_a	a	n/a
586.341	0.075	1172682	keystroke_b	b	n/a
586.536	0.09	1173072	keystroke_l	l	n/a
586.627	0.044	1173254	keystroke_e	e	n/a
586.806	0.06	1173612	keystroke_s	s	n/a
587.3765	0.06	1174753	keystroke_Key.space	Key.space	n/a
587.8265	0.06	1175653	keystroke_b	b	n/a
588.0365	0.075	1176073	keystroke_i	i	n/a
588.2315	0.075	1176463	keystroke_o	o	n/a
588.576	0.06	1177152	keystroke_t	t	n/a
588.666	0.105	1177332	keystroke_e	e	n/a
588.9065	0.06	1177813	keystroke_c	c	n/a
589.0265	0.0595	1178053	keystroke_h	h	n/a
589.221	0.045	1178442	keystroke_n	n	n/a
589.371	0.06	1178742	keystroke_o	o	n/a
589.581	0.03	1179162	keystroke_l	l	n/a
589.746	0.06	1179492	keystroke_o	o	n/a
589.926	0.06	1179852	keystroke_g	g	n/a
590.106	0.075	1180212	keystroke_y	y	n/a
590.241	0.075	1180482	keystroke_Key.space	Key.space	n/a
590.571	0.075	1181142	keystroke_a	a	n/a
590.961	0.06	1181922	keystroke_t	t	n/a
591.681	0.09	1183362	keystroke_t	t	n/a
591.921	0.105	1183842	keystroke_a	a	n/a
592.056	0.0905	1184112	keystroke_c	c	n/a
592.2965	0.075	1184593	keystroke_h	h	n/a
592.3865	0.06	1184773	keystroke_e	e	n/a
592.5665	0.15	1185133	keystroke_d	d	n/a
593.5115	0.06	1187023	keystroke_Key.enter	Key.enter	n/a
593.578	8.68	1187156	prompt	n/a	displayed reducing specialist accordance\n
594.4865	0.075	1188973	keystroke_d	d	n/a
594.5765	0.0745	1189153	keystroke_i	i	n/a
594.696	0.075	1189392	keystroke_s	s	n/a
594.831	0.12	1189662	keystroke_p	p	n/a
594.981	0.0905	1189962	keystroke_l	l	n/a
595.1465	0.12	1190293	keystroke_a	a	n/a
595.4315	0.06	1190863	keystroke_y	y	n/a
595.7465	0.06	1191493	keystroke_e	e	n/a
595.9415	0.09	1191883	keystroke_d	d	n/a
596.0915	0.075	1192183	keystroke_Key.space	Key.space	n/a
596.6615	0.09	1193323	keystroke_r	r	n/a
596.7215	0.045	1193443	keystroke_e	e	n/a
596.8865	0.075	1193773	keystroke_d	d	n/a
596.9915	0.075	1193983	keystroke_u	u	n/a
597.396	0.06	1194792	keystroke_c	c	n/a
597.486	0.135	1194972	keystroke_i	i	n/a
597.561	0.0905	1195122	keystroke_n	n	n/a
597.6965	0.06	1195393	keystroke_g	g	n/a
597.7865	0.075	1195573	keystroke_Key.space	Key.space	n/a
598.3115	0.06	1196623	keystroke_s	s	n/a
598.4165	0.0895	1196833	keystroke_p	p	n/a
598.536	0.075	1197072	keystroke_e	e	n/a
598.686	0.105	1197372	keystroke_c	c	n/a
598.776	0.075	1197552	keystroke_i	i	n/a
598.866	0.0905	1197732	keystroke_a	a	n/a
599.0165	0.0895	1198033	keystroke_l	l	n/a
599.256	0.075	1198512	keystroke_i	i	n/a
599.436	0.045	1198872	keystroke_s	s	n/a
599.586	0.06	1199172	keystroke_t	t	n/a
599.691	0.06	1199382	keystroke_Key.space	Key.space	n/a
600.5465	0.075	1201093	keystroke_a	a	n/a
600.7865	0.045	1201573	keystroke_c	c	n/a
600.8915	0.045	1201783	keystroke_c	c	n/a
600.9815	0.105	1201963	keystroke_o	o	n/a
601.1465	0.06	1202293	keystroke_r	r	n/a
601.3415	0.045	1202683	keystroke_d	d	n/a
601.4765	0.06	1202953	keystroke_a	a	n/a
601.5965	0.06	1203193	keystroke_n	n	n/a
601.7615	0.135	1203523	keystroke_c	c	n/a
601.8665	0.105	1203733	keystroke_e	e	n/a
602.1815	0.075	1204363	keystroke_Key.enter	Key.enter	n/a
602.2615	7.6015	1204523	prompt	n/a	lite deluxe vinyl dean\n
603.351	0.135	1206702	keystroke_l	l	n/a
603.411	0.105	1206822	keystroke_i	i	n/a
603.726	0.12	1207452	keystroke_t	t	n/a
603.801	0.09	1207602	keystroke_e	e	n/a
603.9515	0.075	1207903	keystroke_Key.space	Key.space	n/a
604.4915	0.045	1208983	keystroke_d	d	n/a
604.6415	0.045	1209283	keystroke_e	e	n/a
604.7315	0.12	1209463	keystroke_l	l	n/a
604.8215	0.075	1209643	keystroke_i	i	n/a
605.1205	0.091	1210241	keystroke_Key.backspace	Key.backspace	n/a
605.316	0.075	1210632	keystroke_u	u	n/a
606.066	0.0605	1212132	keystroke_x	x	n/a
606.3055	0.06	1212611	keystroke_e	e	n/a
606.4105	0.075	1212821	keystroke_Key.space	Key.space	n/a
607.386	0.045	1214772	keystroke_v	v	n/a
607.536	0.15	1215072	keystroke_i	i	n/a
607.641	0.09	1215282	keystroke_n	n	n/a
607.881	0.09	1215762	keystroke_y	y	n/a
607.986	0.105	1215972	keystroke_l	l	n/a
608.2415	0.075	1216483	keystroke_Key.space	Key.space	n/a
609.036	0.06	1218072	keystroke_d	d	n/a
609.201	0.045	1218402	keystroke_e	e	n/a
609.3515	0.09	1218703	keystroke_a	a	n/a
609.4865	0.075	1218973	keystroke_n	n	n/a
609.7565	0.105	1219513	keystroke_Key.enter	Key.enter	n/a
609.866	9.6715	1219732	prompt	n/a	rankings pickup noticed electric\n
611.1365	0.06	1222273	keystroke_r	r	n/a
611.2865	0.09	1222573	keystroke_a	a	n/a
611.4665	0.075	1222933	keystroke_n	n	n/a
611.6765	0.06	1223353	keystroke_k	k	n/a
611.8715	0.09	1223743	keystroke_i	i	n/a
611.9465	0.075	1223893	keystroke_n	n	n/a
612.0665	0.045	1224133	keystroke_g	g	n/a
612.2615	0.075	1224523	keystroke_s	s	n/a
612.3515	0.075	1224703	keystroke_Key.space	Key.space	n/a
613.221	0.09	1226442	keystroke_p	p	n/a
613.416	0.075	1226832	keystroke_i	i	n/a
613.716	0.075	1227432	keystroke_c	c	n/a
613.836	0.075	1227672	keystroke_k	k	n/a
614.121	0.105	1228242	keystroke_u	u	n/a
614.211	0.105	1228422	keystroke_p	p	n/a
614.556	0.09	1229112	keystroke_Key.space	Key.space	n/a
615.1265	0.015	1230253	keystroke_n	n	n/a
615.2915	0.12	1230583	keystroke_o	o	n/a
615.5465	0.075	1231093	keystroke_t	t	n/a
615.6815	0.075	1231363	keystroke_i	i	n/a
615.8915	0.12	1231783	keystroke_c	c	n/a
615.9965	0.075	1231993	keystroke_e	e	n/a
616.2065	0.075	1232413	keystroke_d	d	n/a
616.2965	0.075	1232593	keystroke_Key.space	Key.space	n/a
617.1965	0.06	1234393	keystroke_e	e	n/a
617.3315	0.09	1234663	keystroke_l	l	n/a
617.4515	0.074	1234903	keystroke_e	e	n/a
617.6615	0.06	1235323	keystroke_c	c	n/a
617.8415	0.075	1235683	keystroke_t	t	n/a
618.4865	0.06	1236973	keystroke_r	r	n/a
618.6665	0.09	1237333	keystroke_i	i	n/a
618.891	0.075	1237782	keystroke_c	c	n/a
619.011	0.0755	1238022	keystroke_Key.space	Key.space	n/a
619.4615	0.075	1238923	keystroke_Key.enter	Key.enter	n/a
619.5415	8.457	1239083	prompt	n/a	happening form sophisticated methods\n
620.3315	0.06	1240663	keystroke_h	h	n/a
620.4365	0.075	1240873	keystroke_a	a	n/a
620.5415	0.075	1241083	keystroke_p	p	n/a
620.6915	0.06	1241383	keystroke_p	p	n/a
620.8265	0.044	1241653	keystroke_e	e	n/a
620.9015	0.09	1241803	keystroke_n	n	n/a
621.1105	0.105	1242221	keystroke_i	i	n/a
621.1865	0.074	1242373	keystroke_n	n	n/a
621.2905	0.075	1242581	keystroke_g	g	n/a
621.396	0.0745	1242792	keystroke_Key.space	Key.space	n/a
622.056	0.06	1244112	keystroke_f	f	n/a
622.146	0.0905	1244292	keystroke_o	o	n/a
622.281	0.075	1244562	keystroke_r	r	n/a
622.401	0.06	1244802	keystroke_m	m	n/a
622.5965	0.0745	1245193	keystroke_Key.space	Key.space	n/a
623.346	0.06	1246692	keystroke_s	s	n/a
623.481	0.06	1246962	keystroke_o	o	n/a
623.6765	0.06	1247353	keystroke_p	p	n/a
623.991	0.045	1247982	keystroke_h	h	n/a
624.141	0.075	1248282	keystroke_i	i	n/a
624.336	0.075	1248672	keystroke_s	s	n/a
624.546	0.075	1249092	keystroke_t	t	n/a
624.666	0.105	1249332	keystroke_i	i	n/a
624.846	0.06	1249692	keystroke_c	c	n/a
624.936	0.1055	1249872	keystroke_a	a	n/a
625.2365	0.09	1250473	keystroke_t	t	n/a
625.3715	0.06	1250743	keystroke_e	e	n/a
625.5515	0.09	1251103	keystroke_d	d	n/a
625.6565	0.089	1251313	keystroke_Key.space	Key.space	n/a
626.2255	0.06	1252451	keystroke_m	m	n/a
626.3455	0.076	1252691	keystroke_e	e	n/a
626.5855	0.075	1253171	keystroke_t	t	n/a
626.7055	0.091	1253411	keystroke_h	h	n/a
627.0205	0.091	1254041	keystroke_o	o	n/a
627.2905	0.165	1254581	keystroke_d	d	n/a
627.3955	0.12	1254791	keystroke_s	s	n/a
627.5605	0.076	1255121	keystroke_Key.space	Key.space	n/a
627.9055	0.09	1255811	keystroke_Key.enter	Key.enter	n/a
628.0015	12.476	1256003	prompt	n/a	berkeley seeker levels nano\n
628.9405	0.045	1257881	keystroke_b	b	n/a
