onset	duration	sample	value	key	prompt_text
20.0535	15.146	40107	prompt	n/a	the quick brown fox jumps over a lazy dog\n
23.111	0.0115	46222	keystroke_t	t	n/a
23.212	0.06	46424	keystroke_h	h	n/a
23.3325	0.0895	46665	keystroke_e	e	n/a
23.527	0.075	47054	keystroke_Key.space	Key.space	n/a
23.962	0.045	47924	keystroke_q	q	n/a
24.112	0.075	48224	keystroke_u	u	n/a
24.292	0.0605	48584	keystroke_i	i	n/a
24.442	0.0895	48884	keystroke_c	c	n/a
24.4875	0.0895	48975	keystroke_k	k	n/a
24.6975	0.09	49395	keystroke_Key.space	Key.space	n/a
24.892	0.105	49784	keystroke_b	b	n/a
25.0125	0.09	50025	keystroke_r	r	n/a
25.162	0.105	50324	keystroke_o	o	n/a
25.327	0.1205	50654	keystroke_w	w	n/a
25.462	0.0905	50924	keystroke_n	n	n/a
25.627	0.105	51254	keystroke_Key.space	Key.space	n/a
25.747	0.06	51494	keystroke_f	f	n/a
25.912	0.0905	51824	keystroke_o	o	n/a
26.182	0.075	52364	keystroke_x	x	n/a
26.317	0.09	52634	keystroke_Key.space	Key.space	n/a
26.5415	0.106	53083	keystroke_j	j	n/a
26.767	0.06	53534	keystroke_u	u	n/a
26.947	0.12	53894	keystroke_m	m	n/a
27.112	0.105	54224	keystroke_p	p	n/a
27.2475	0.0895	54495	keystroke_s	s	n/a
27.427	0.105	54854	keystroke_Key.space	Key.space	n/a
28.0275	0.0745	56055	keystroke_o	o	n/a
28.177	0.06	56354	keystroke_v	v	n/a
28.357	0.165	56714	keystroke_e	e	n/a
28.462	0.09	56924	keystroke_r	r	n/a
28.597	0.0895	57194	keystroke_Key.space	Key.space	n/a
28.702	0.0905	57404	keystroke_a	a	n/a
28.912	0.075	57824	keystroke_Key.space	Key.space	n/a
29.1675	0.089	58335	keystroke_l	l	n/a
29.2875	0.0895	58575	keystroke_a	a	n/a
29.5865	0.1355	59173	keystroke_x	x	n/a
29.872	0.06	59744	keystroke_y	y	n/a
30.1275	0.0895	60255	keystroke_Key.space	Key.space	n/a
30.2925	0.104	60585	keystroke_d	d	n/a
30.4415	0.0755	60883	keystroke_o	o	n/a
30.6515	0.0455	61303	keystroke_g	g	n/a
31.567	0.09	63134	keystroke_Key.backspace	Key.backspace	n/a
31.777	0.075	63554	keystroke_Key.backspace	Key.backspace	n/a
31.987	0.045	63974	keystroke_Key.backspace	Key.backspace	n/a
32.182	0.06	64364	keystroke_Key.backspace	Key.backspace	n/a
32.3765	0.0755	64753	keystroke_Key.backspace	Key.backspace	n/a
32.767	0.0745	65534	keystroke_Key.backspace	Key.backspace	n/a
33.472	0.12	66944	keystroke_z	z	n/a
33.682	0.06	67364	keystroke_y	y	n/a
33.907	0.06	67814	keystroke_Key.space	Key.space	n/a
34.4315	0.0905	68863	keystroke_d	d	n/a
34.6115	0.075	69223	keystroke_o	o	n/a
34.9115	0.045	69823	keystroke_g	g	n/a
35.1065	0.09	70213	keystroke_Key.enter	Key.enter	n/a
35.204	7.5095	70408	prompt	n/a	hunter susan microwave mouse\n
36.397	0.09	72794	keystroke_h	h	n/a
36.562	0.06	73124	keystroke_u	u	n/a
36.742	0.09	73484	keystroke_n	n	n/a
36.833	0.074	73666	keystroke_t	t	n/a
37.042	0.15	74084	keystroke_e	e	n/a
37.1615	0.075	74323	keystroke_r	r	n/a
37.2815	0.1205	74563	keystroke_Key.space	Key.space	n/a
37.522	0.0895	75044	keystroke_s	s	n/a
37.6265	0.09	75253	keystroke_u	u	n/a
37.822	0.1045	75644	keystroke_s	s	n/a
38.3165	0.075	76633	keystroke_a	a	n/a
38.467	0.1195	76934	keystroke_n	n	n/a
38.692	0.0745	77384	keystroke_Key.space	Key.space	n/a
38.886	0.0905	77772	keystroke_m	m	n/a
39.0815	0.0755	78163	keystroke_i	i	n/a
39.216	0.1355	78432	keystroke_c	c	n/a
39.8165	0.075	79633	keystroke_r	r	n/a
40.012	0.1195	80024	keystroke_o	o	n/a
40.477	0.0755	80954	keystroke_w	w	n/a
40.657	0.089	81314	keystroke_a	a	n/a
40.9415	0.1055	81883	keystroke_v	v	n/a
41.2115	0.105	82423	keystroke_e	e	n/a
41.437	0.105	82874	keystroke_Key.space	Key.space	n/a
41.7815	0.105	83563	keystroke_m	m	n/a
41.977	0.225	83954	keystroke_o	o	n/a
42.097	0.1345	84194	keystroke_u	u	n/a
42.247	0.1055	84494	keystroke_s	s	n/a
42.4565	0.09	84913	keystroke_e	e	n/a
42.6365	0.075	85273	keystroke_Key.enter	Key.enter	n/a
42.717	11.2315	85434	prompt	n/a	pharmacies unsigned swap oklahoma\n
43.686	0.105	87372	keystroke_p	p	n/a
43.8965	0.075	87793	keystroke_h	h	n/a
44.0325	0.1645	88065	keystroke_a	a	n/a
44.1815	0.09	88363	keystroke_r	r	n/a
44.3475	0.105	88695	keystroke_m	m	n/a
44.5115	0.0905	89023	keystroke_a	a	n/a
44.7365	0.1055	89473	keystroke_c	c	n/a
44.8865	0.105	89773	keystroke_i	i	n/a
45.022	0.0895	90044	keystroke_e	e	n/a
45.2315	0.105	90463	keystroke_s	s	n/a
45.742	0.105	91484	keystroke_Key.space	Key.space	n/a
46.072	0.09	92144	keystroke_u	u	n/a
46.297	0.09	92594	keystroke_n	n	n/a
46.417	0.12	92834	keystroke_s	s	n/a
46.612	0.09	93224	keystroke_i	i	n/a
47.5425	0.089	95085	keystroke_g	g	n/a
47.6765	0.1205	95353	keystroke_n	n	n/a
47.752	0.1045	95504	keystroke_e	e	n/a
47.977	0.09	95954	keystroke_d	d	n/a
48.172	0.1045	96344	keystroke_Key.space	Key.space	n/a
49.0265	0.105	98053	keystroke_s	s	n/a
49.2515	0.0905	98503	keystroke_w	w	n/a
49.447	0.12	98894	keystroke_a	a	n/a
50.467	0.075	100934	keystroke_p	p	n/a
50.737	0.075	101474	keystroke_Key.space	Key.space	n/a
51.262	0.075	102524	keystroke_o	o	n/a
51.472	0.09	102944	keystroke_k	k	n/a
51.682	0.09	103364	keystroke_l	l	n/a
51.847	0.1195	103694	keystroke_a	a	n/a
52.042	0.0895	104084	keystroke_h	h	n/a
52.252	0.075	104504	keystroke_o	o	n/a
52.432	0.105	104864	keystroke_m	m	n/a
52.657	0.12	105314	keystroke_a	a	n/a
53.8715	0.075	107743	keystroke_Key.enter	Key.enter	n/a
53.952	6.072	107904	prompt	n/a	agent laid means astronomy\n
55.012	0.105	110024	keystroke_a	a	n/a
55.252	0.075	110504	keystroke_g	g	n/a
55.402	0.105	110804	keystroke_e	e	n/a
55.522	0.12	111044	keystroke_n	n	n/a
55.657	0.075	111314	keystroke_t	t	n/a
55.837	0.105	111674	keystroke_Key.space	Key.space	n/a
56.137	0.135	112274	keystroke_l	l	n/a
56.272	0.09	112544	keystroke_a	a	n/a
56.422	0.075	112844	keystroke_i	i	n/a
56.542	0.105	113084	keystroke_d	d	n/a
56.662	0.075	113324	keystroke_Key.space	Key.space	n/a
56.872	0.09	113744	keystroke_m	m	n/a
57.007	0.075	114014	keystroke_e	e	n/a
57.172	0.09	114344	keystroke_a	a	n/a
57.292	0.105	114584	keystroke_n	n	n/a
57.622	0.105	115244	keystroke_s	s	n/a
57.817	0.09	115634	keystroke_Key.space	Key.space	n/a
58.012	0.075	116024	keystroke_a	a	n/a
58.177	0.12	116354	keystroke_s	s	n/a
58.447	0.075	116894	keystroke_t	t	n/a
58.642	0.09	117284	keystroke_r	r	n/a
58.732	0.09	117464	keystroke_o	o	n/a
58.957	0.075	117914	keystroke_n	n	n/a
59.107	0.075	118214	keystroke_o	o	n/a
59.302	0.105	118604	keystroke_m	m	n/a
59.422	0.0755	118844	keystroke_y	y	n/a
59.932	0.09	119864	keystroke_Key.enter	Key.enter	n/a
60.0285	7.0305	120057	prompt	n/a	expo anywhere revision aircraft\n
60.697	0.12	121394	keystroke_e	e	n/a
61.027	0.135	122054	keystroke_x	x	n/a
61.357	0.06	122714	keystroke_p	p	n/a
61.492	0.075	122984	keystroke_o	o	n/a
62.152	0.105	124304	keystroke_Key.space	Key.space	n/a
62.317	0.135	124634	keystroke_a	a	n/a
62.4365	0.12	124873	keystroke_n	n	n/a
62.7065	0.09	125413	keystroke_y	y	n/a
62.8565	0.0905	125713	keystroke_w	w	n/a
62.992	0.0895	125984	keystroke_h	h	n/a
63.097	0.1645	126194	keystroke_e	e	n/a
63.2465	0.1495	126493	keystroke_r	r	n/a
63.352	0.105	126704	keystroke_e	e	n/a
63.517	0.119	127034	keystroke_Key.space	Key.space	n/a
63.772	0.12	127544	keystroke_r	r	n/a
63.9065	0.0905	127813	keystroke_e	e	n/a
64.147	0.105	128294	keystroke_v	v	n/a
64.2815	0.1055	128563	keystroke_i	i	n/a
64.4315	0.105	128863	keystroke_s	s	n/a
64.552	0.1645	129104	keystroke_i	i	n/a
64.6715	0.15	129343	keystroke_o	o	n/a
64.762	0.1195	129524	keystroke_n	n	n/a
65.002	0.075	130004	keystroke_Key.space	Key.space	n/a
65.091	0.12	130182	keystroke_a	a	n/a
65.241	0.091	130482	keystroke_i	i	n/a
65.347	0.105	130694	keystroke_r	r	n/a
65.662	0.135	131324	keystroke_c	c	n/a
65.947	0.119	131894	keystroke_r	r	n/a
66.052	0.209	132104	keystroke_a	a	n/a
66.2765	0.1345	132553	keystroke_f	f	n/a
66.5915	0.0905	133183	keystroke_t	t	n/a
66.981	0.075	133962	keystroke_Key.enter	Key.enter	n/a
67.063	8.2165	134126	prompt	n/a	calvin winds vector built\n
67.7475	0.1795	135495	keystroke_a	a	n/a
67.957	0.12	135914	keystroke_l	l	n/a
68.152	0.135	136304	keystroke_v	v	n/a
68.602	0.0745	137204	keystroke_Key.backspace	Key.backspace	n/a
68.7815	0.075	137563	keystroke_Key.backspace	Key.backspace	n/a
68.947	0.075	137894	keystroke_Key.backspace	Key.backspace	n/a
69.532	0.09	139064	keystroke_c	c	n/a
69.757	0.135	139514	keystroke_a	a	n/a
69.907	0.075	139814	keystroke_l	l	n/a
70.207	0.075	140414	keystroke_v	v	n/a
70.327	0.105	140654	keystroke_i	i	n/a
70.477	0.09	140954	keystroke_n	n	n/a
70.671	0.106	141342	keystroke_Key.space	Key.space	n/a
70.882	0.1195	141764	keystroke_w	w	n/a
71.047	0.089	142094	keystroke_i	i	n/a
71.227	0.135	142454	keystroke_n	n	n/a
71.317	0.09	142634	keystroke_d	d	n/a
71.527	0.075	143054	keystroke_s	s	n/a
71.766	0.106	143532	keystroke_Key.space	Key.space	n/a
72.577	0.0745	145154	keystroke_v	v	n/a
72.802	0.09	145604	keystroke_e	e	n/a
73.012	0.105	146024	keystroke_c	c	n/a
73.3115	0.09	146623	keystroke_t	t	n/a
73.477	0.09	146954	keystroke_o	o	n/a
73.582	0.09	147164	keystroke_r	r	n/a
73.762	0.105	147524	keystroke_Key.space	Key.space	n/a
74.227	0.12	148454	keystroke_b	b	n/a
74.452	0.09	148904	keystroke_u	u	n/a
74.617	0.09	149234	keystroke_i	i	n/a
74.812	0.105	149624	keystroke_l	l	n/a
74.962	0.12	149924	keystroke_t	t	n/a
75.172	0.105	150344	keystroke_Key.enter	Key.enter	n/a
75.2865	9.053	150573	prompt	n/a	unless modules advanced capability\n
76.522	0.075	153044	keystroke_u	u	n/a
76.732	0.0905	153464	keystroke_n	n	n/a
76.8975	0.1495	153795	keystroke_l	l	n/a
76.971	0.09	153942	keystroke_e	e	n/a
77.197	0.089	154394	keystroke_s	s	n/a
77.392	0.0745	154784	keystroke_s	s	n/a
77.497	0.089	154994	keystroke_Key.space	Key.space	n/a
77.722	0.06	155444	keystroke_m	m	n/a
77.887	0.09	155774	keystroke_o	o	n/a
77.992	0.12	155984	keystroke_d	d	n/a
78.157	0.09	156314	keystroke_u	u	n/a
78.352	0.119	156704	keystroke_l	l	n/a
78.487	0.074	156974	keystroke_e	e	n/a
78.712	0.119	157424	keystroke_s	s	n/a
78.997	0.075	157994	keystroke_Key.space	Key.space	n/a
79.3725	0.1195	158745	keystroke_a	a	n/a
79.567	0.1055	159134	keystroke_d	d	n/a
79.777	0.12	159554	keystroke_v	v	n/a
79.987	0.12	159974	keystroke_a	a	n/a
80.108	0.134	160216	keystroke_n	n	n/a
80.2115	0.0905	160423	keystroke_c	c	n/a
80.4365	0.1205	160873	keystroke_e	e	n/a
80.632	0.104	161264	keystroke_d	d	n/a
80.826	0.09	161652	keystroke_Key.space	Key.space	n/a
81.412	0.12	162824	keystroke_c	c	n/a
81.637	0.105	163274	keystroke_a	a	n/a
81.8325	0.074	163665	keystroke_p	p	n/a
82.4465	0.0755	164893	keystroke_a	a	n/a
83.1815	0.075	166363	keystroke_b	b	n/a
83.3765	0.075	166753	keystroke_i	i	n/a
83.5265	0.105	167053	keystroke_l	l	n/a
83.6915	0.1205	167383	keystroke_i	i	n/a
83.842	0.075	167684	keystroke_t	t	n/a
84.037	0.075	168074	keystroke_y	y	n/a
84.247	0.0895	168494	keystroke_Key.enter	Key.enter	n/a
84.3435	8.5005	168687	prompt	n/a	debut john focus vary\n
85.597	0.105	171194	keystroke_d	d	n/a
85.837	0.0895	171674	keystroke_e	e	n/a
86.1075	0.089	172215	keystroke_b	b	n/a
86.3165	0.0755	172633	keystroke_u	u	n/a
86.497	0.0745	172994	keystroke_t	t	n/a
86.7065	0.0905	173413	keystroke_Key.space	Key.space	n/a
87.517	0.0895	175034	keystroke_j	j	n/a
87.697	0.09	175394	keystroke_o	o	n/a
88.911	0.0615	177822	keystroke_h	h	n/a
89.092	0.0895	178184	keystroke_n	n	n/a
89.317	0.105	178634	keystroke_Key.space	Key.space	n/a
90.1265	0.0605	180253	keystroke_f	f	n/a
90.607	0.0905	181214	keystroke_o	o	n/a
90.757	0.0905	181514	keystroke_c	c	n/a
90.922	0.089	181844	keystroke_u	u	n/a
91.072	0.12	182144	keystroke_s	s	n/a
91.282	0.105	182564	keystroke_Key.space	Key.space	n/a
91.821	0.091	183642	keystroke_v	v	n/a
92.047	0.18	184094	keystroke_a	a	n/a
92.242	0.075	184484	keystroke_r	r	n/a
92.3765	0.075	184753	keystroke_y	y	n/a
92.7515	0.0905	185503	keystroke_Key.enter	Key.enter	n/a
92.848	8.936	185696	prompt	n/a	cartoons nasa practices acrylic\n
93.772	0.1045	187544	keystroke_c	c	n/a
93.9665	0.135	187933	keystroke_a	a	n/a
94.162	0.1345	188324	keystroke_r	r	n/a
94.4615	0.0305	188923	keystroke_t	t	n/a
94.567	0.0755	189134	keystroke_o	o	n/a
94.7315	0.06	189463	keystroke_o	o	n/a
94.8975	0.0895	189795	keystroke_n	n	n/a
95.0165	0.1055	190033	keystroke_s	s	n/a
95.1665	0.105	190333	keystroke_Key.space	Key.space	n/a
95.5725	0.104	191145	keystroke_n	n	n/a
95.9165	0.15	191833	keystroke_a	a	n/a
96.112	0.1355	192224	keystroke_s	s	n/a
96.5765	0.12	193153	keystroke_a	a	n/a
96.817	0.1045	193634	keystroke_Key.space	Key.space	n/a
97.1615	0.105	194323	keystroke_p	p	n/a
97.5515	0.105	195103	keystroke_r	r	n/a
97.7625	0.089	195525	keystroke_a	a	n/a
98.0015	0.105	196003	keystroke_c	c	n/a
98.3315	0.075	196663	keystroke_t	t	n/a
98.4515	0.1355	196903	keystroke_i	i	n/a
98.812	0.075	197624	keystroke_c	c	n/a
99.022	0.09	198044	keystroke_e	e	n/a
99.232	0.105	198464	keystroke_s	s	n/a
99.412	0.105	198824	keystroke_Key.space	Key.space	n/a
99.7575	0.1045	199515	keystroke_a	a	n/a
99.967	0.0755	199934	keystroke_c	c	n/a
100.237	0.1055	200474	keystroke_r	r	n/a
100.372	0.12	200744	keystroke_y	y	n/a
100.8975	0.075	201795	keystroke_l	l	n/a
101.0765	0.12	202153	keystroke_i	i	n/a
101.2865	0.09	202573	keystroke_c	c	n/a
101.707	0.075	203414	keystroke_Key.enter	Key.enter	n/a
101.7885	6.37	203577	prompt	n/a	prizes boots audit members\n
102.892	0.105	205784	keystroke_p	p	n/a
103.042	0.09	206084	keystroke_r	r	n/a
103.192	0.165	206384	keystroke_i	i	n/a
103.567	0.165	207134	keystroke_z	z	n/a
103.912	0.0895	207824	keystroke_e	e	n/a
104.1065	0.1055	208213	keystroke_s	s	n/a
104.422	0.1045	208844	keystroke_Key.space	Key.space	n/a
104.8875	0.089	209775	keystroke_b	b	n/a
105.1565	0.03	210313	keystroke_o	o	n/a
105.2765	0.105	210553	keystroke_o	o	n/a
105.337	0.06	210674	keystroke_t	t	n/a
105.577	0.09	211154	keystroke_s	s	n/a
105.7265	0.0905	211453	keystroke_Key.space	Key.space	n/a
105.892	0.075	211784	keystroke_a	a	n/a
106.027	0.12	212054	keystroke_u	u	n/a
106.1915	0.0905	212383	keystroke_d	d	n/a
106.327	0.089	212654	keystroke_i	i	n/a
106.4915	0.1205	212983	keystroke_t	t	n/a
106.807	0.074	213614	keystroke_Key.space	Key.space	n/a
107.032	0.075	214064	keystroke_m	m	n/a
107.152	0.119	214304	keystroke_e	e	n/a
107.256	0.091	214512	keystroke_m	m	n/a
107.4825	0.104	214965	keystroke_b	b	n/a
107.4975	0.1945	214995	keystroke_e	e	n/a
107.647	0.12	215294	keystroke_r	r	n/a
107.9165	0.09	215833	keystroke_s	s	n/a
108.067	0.0895	216134	keystroke_Key.enter	Key.enter	n/a
108.1625	8.982	216325	prompt	n/a	throughout forests occupied varying\n
108.9365	0.1355	217873	keystroke_t	t	n/a
109.1015	0.1205	218203	keystroke_h	h	n/a
109.5225	0.0895	219045	keystroke_r	r	n/a
109.6565	0.165	219313	keystroke_o	o	n/a
109.7615	0.1355	219523	keystroke_u	u	n/a
109.942	0.105	219884	keystroke_g	g	n/a
110.1515	0.105	220303	keystroke_h	h	n/a
110.5415	0.165	221083	keystroke_o	o	n/a
110.6475	0.1195	221295	keystroke_u	u	n/a
110.737	0.0905	221474	keystroke_t	t	n/a
110.947	0.1045	221894	keystroke_Key.space	Key.space	n/a
111.261	0.106	222522	keystroke_f	f	n/a
111.427	0.135	222854	keystroke_o	o	n/a
111.547	0.09	223094	keystroke_r	r	n/a
111.667	0.089	223334	keystroke_e	e	n/a
111.8765	0.135	223753	keystroke_s	s	n/a
112.1615	0.091	224323	keystroke_t	t	n/a
112.3715	0.166	224743	keystroke_s	s	n/a
112.5515	0.09	225103	keystroke_Key.space	Key.space	n/a
113.3315	0.12	226663	keystroke_o	o	n/a
113.4815	0.06	226963	keystroke_c	c	n/a
113.647	0.1355	227294	keystroke_c	c	n/a
113.737	0.075	227474	keystroke_u	u	n/a
113.992	0.12	227984	keystroke_p	p	n/a
114.232	0.12	228464	keystroke_i	i	n/a
114.382	0.09	228764	keystroke_e	e	n/a
114.577	0.12	229154	keystroke_d	d	n/a
114.862	0.105	229724	keystroke_Key.space	Key.space	n/a
115.522	0.0895	231044	keystroke_v	v	n/a
115.7465	0.196	231493	keystroke_a	a	n/a
115.912	0.0905	231824	keystroke_r	r	n/a
116.0615	0.091	232123	keystroke_y	y	n/a
116.3625	0.09	232725	keystroke_i	i	n/a
116.5425	0.105	233085	keystroke_n	n	n/a
116.6625	0.089	233325	keystroke_g	g	n/a
117.0525	0.09	234105	keystroke_Key.enter	Key.enter	n/a
117.1485	10.5405	234297	prompt	n/a	mold gear nutten sprint\n
117.8025	0.0905	235605	keystroke_m	m	n/a
117.9975	0.089	235995	keystroke_o	o	n/a
118.2375	0.075	236475	keystroke_l	l	n/a
118.3425	0.12	236685	keystroke_d	d	n/a
118.537	0.0745	237074	keystroke_Key.space	Key.space	n/a
119.467	0.12	238934	keystroke_g	g	n/a
119.6015	0.105	239203	keystroke_e	e	n/a
119.767	0.195	239534	keystroke_a	a	n/a
119.8875	0.1345	239775	keystroke_r	r	n/a
120.277	0.09	240554	keystroke_Key.space	Key.space	n/a
120.6375	0.06	241275	keystroke_n	n	n/a
121.8675	0.0895	243735	keystroke_u	u	n/a
121.987	0.0745	243974	keystroke_t	t	n/a
122.1665	0.06	244333	keystroke_t	t	n/a
122.332	0.075	244664	keystroke_e	e	n/a
122.4225	0.12	244845	keystroke_n	n	n/a
122.6315	0.075	245263	keystroke_Key.space	Key.space	n/a
123.2925	0.165	246585	keystroke_s	s	n/a
123.5175	0.06	247035	keystroke_p	p	n/a
123.6525	0.12	247305	keystroke_r	r	n/a
124.7625	0.06	249525	keystroke_t	t	n/a
124.8825	0.12	249765	keystroke_i	i	n/a
125.0175	0.12	250035	keystroke_n	n	n/a
125.1675	0.06	250335	keystroke_g	g	n/a
125.6915	0.1055	251383	keystroke_Key.backspace	Key.backspace	n/a
125.962	0.015	251924	keystroke_Key.backspace	Key.backspace	n/a
126.067	0.06	252134	keystroke_Key.backspace	Key.backspace	n/a
126.217	0.1205	252434	keystroke_Key.backspace	Key.backspace	n/a
126.802	0.09	253604	keystroke_i	i	n/a
126.9515	0.105	253903	keystroke_n	n	n/a
127.342	0.075	254684	keystroke_t	t	n/a
127.5825	0.1045	255165	keystroke_Key.enter	Key.enter	n/a
127.693	11.1265	255386	prompt	n/a	suburban citizens vault concrete\n
128.797	0.105	257594	keystroke_s	s	n/a
129.0365	0.1055	258073	keystroke_u	u	n/a
129.712	0.1205	259424	keystroke_b	b	n/a
130.027	0.09	260054	keystroke_u	u	n/a
130.177	0.09	260354	keystroke_r	r	n/a
130.402	0.06	260804	keystroke_b	b	n/a
130.657	0.12	261314	keystroke_a	a	n/a
130.8075	0.1195	261615	keystroke_n	n	n/a
131.152	0.1495	262304	keystroke_Key.space	Key.space	n/a
132.082	0.045	264164	keystroke_c	c	n/a
132.2475	0.1345	264495	keystroke_i	i	n/a
132.427	0.075	264854	keystroke_t	t	n/a
132.637	0.09	265274	keystroke_i	i	n/a
132.937	0.165	265874	keystroke_z	z	n/a
133.342	0.075	266684	keystroke_e	e	n/a
133.492	0.12	266984	keystroke_n	n	n/a
133.642	0.135	267284	keystroke_s	s	n/a
133.822	0.135	267644	keystroke_Key.space	Key.space	n/a
134.467	0.09	268934	keystroke_v	v	n/a
134.707	0.121	269414	keystroke_a	a	n/a
134.872	0.075	269744	keystroke_u	u	n/a
135.082	0.06	270164	keystroke_l	l	n/a
135.187	0.075	270374	keystroke_t	t	n/a
135.562	0.105	271124	keystroke_Key.space	Key.space	n/a
135.907	0.12	271814	keystroke_c	c	n/a
136.402	0.09	272804	keystroke_i	i	n/a
136.6575	0.1045	273315	keystroke_n	n	n/a
137.017	0.09	274034	keystroke_Key.backspace	Key.backspace	n/a
137.1825	0.0745	274365	keystroke_Key.backspace	Key.backspace	n/a
137.3925	0.1045	274785	keystroke_o	o	n/a
137.617	0.09	275234	keystroke_n	n	n/a
137.722	0.1055	275444	keystroke_c	c	n/a
137.9925	0.135	275985	keystroke_r	r	n/a
138.1875	0.12	276375	keystroke_e	e	n/a
138.3675	0.105	276735	keystroke_t	t	n/a
138.5325	0.09	277065	keystroke_e	e	n/a
138.7125	0.105	277425	keystroke_Key.enter	Key.enter	n/a
138.8235	15.3105	277647	prompt	n/a	bernard therapeutic popularity beaver\n
140.0175	0.12	280035	keystroke_b	b	n/a
140.1525	0.135	280305	keystroke_e	e	n/a
140.2275	0.12	280455	keystroke_r	r	n/a
140.3775	0.1195	280755	keystroke_n	n	n/a
140.5115	0.105	281023	keystroke_a	a	n/a
140.7365	0.106	281473	keystroke_r	r	n/a
140.9625	0.12	281925	keystroke_d	d	n/a
141.0975	0.1345	282195	keystroke_Key.space	Key.space	n/a
141.307	0.09	282614	keystroke_t	t	n/a
141.442	0.12	282884	keystroke_h	h	n/a
141.577	0.12	283154	keystroke_e	e	n/a
141.652	0.1355	283304	keystroke_r	r	n/a
141.9375	0.1345	283875	keystroke_a	a	n/a
142.3725	0.0445	284745	keystroke_p	p	n/a
142.627	0.135	285254	keystroke_u	u	n/a
142.837	0.075	285674	keystroke_t	t	n/a
142.987	0.105	285974	keystroke_i	i	n/a
146.1385	0.013	292277	keystroke_Key.backspace	Key.backspace	n/a
146.3175	0.044	292635	keystroke_Key.backspace	Key.backspace	n/a
146.647	0.1055	293294	keystroke_Key.backspace	Key.backspace	n/a
147.9975	0.0895	295995	keystroke_e	e	n/a
148.192	0.0905	296384	keystroke_u	u	n/a
148.3275	0.09	296655	keystroke_t	t	n/a
148.5075	0.0895	297015	keystroke_i	i	n/a
148.7015	0.1055	297403	keystroke_c	c	n/a
148.8825	0.104	297765	keystroke_Key.space	Key.space	n/a
150.1725	0.06	300345	keystroke_p	p	n/a
150.3075	0.12	300615	keystroke_o	o	n/a
150.4575	0.105	300915	keystroke_p	p	n/a
150.6975	0.075	301395	keystroke_u	u	n/a
150.8925	0.09	301785	keystroke_l	l	n/a
150.9975	0.15	301995	keystroke_a	a	n/a
151.1765	0.136	302353	keystroke_r	r	n/a
151.3125	0.1195	302625	keystroke_i	i	n/a
151.447	0.1205	302894	keystroke_t	t	n/a
151.6875	0.09	303375	keystroke_y	y	n/a
152.182	0.12	304364	keystroke_Key.space	Key.space	n/a
152.8875	0.1345	305775	keystroke_b	b	n/a
153.0075	0.0745	306015	keystroke_e	e	n/a
153.1425	0.1195	306285	keystroke_a	a	n/a
153.397	0.075	306794	keystroke_v	v	n/a
153.622	0.105	307244	keystroke_e	e	n/a
153.712	0.12	307424	keystroke_r	r	n/a
154.0125	0.1195	308025	keystroke_Key.enter	Key.enter	n/a
154.1385	10.3605	308277	prompt	n/a	bookstore orbit instructors head\n
155.4375	0.149	310875	keystroke_b	b	n/a
155.6625	0.075	311325	keystroke_o	o	n/a
155.8115	0.106	311623	keystroke_o	o	n/a
156.0225	0.104	312045	keystroke_k	k	n/a
156.187	0.1195	312374	keystroke_s	s	n/a
156.397	0.105	312794	keystroke_t	t	n/a
156.5175	0.1045	313035	keystroke_o	o	n/a
156.6515	0.136	313303	keystroke_r	r	n/a
156.7575	0.1045	313515	keystroke_e	e	n/a
156.8765	0.1055	313753	keystroke_Key.space	Key.space	n/a
157.252	0.1055	314504	keystroke_r	r	n/a
157.747	0.1055	315494	keystroke_Key.backspace	Key.backspace	n/a
158.377	0.045	316754	keystroke_o	o	n/a
158.437	0.09	316874	keystroke_r	r	n/a
158.6915	0.09	317383	keystroke_b	b	n/a
159.1115	0.09	318223	keystroke_i	i	n/a
159.307	0.09	318614	keystroke_t	t	n/a
159.9815	0.105	319963	keystroke_Key.space	Key.space	n/a
160.6425	0.075	321285	keystroke_i	i	n/a
160.8675	0.059	321735	keystroke_n	n	n/a
160.9425	0.12	321885	keystroke_s	s	n/a
161.242	0.09	322484	keystroke_t	t	n/a
161.467	0.06	322934	keystroke_r	r	n/a
162.292	0.0755	324584	keystroke_u	u	n/a
162.5465	0.076	325093	keystroke_c	c	n/a
162.832	0.1045	325664	keystroke_t	t	n/a
163.0575	0.119	326115	keystroke_o	o	n/a
163.282	0.06	326564	keystroke_r	r	n/a
163.4915	0.106	326983	keystroke_s	s	n/a
163.612	0.1055	327224	keystroke_Key.space	Key.space	n/a
163.8525	0.104	327705	keystroke_h	h	n/a
163.8975	0.089	327795	keystroke_e	e	n/a
164.0475	0.104	328095	keystroke_a	a	n/a
164.2425	0.105	328485	keystroke_d	d	n/a
164.3915	0.105	328783	keystroke_Key.enter	Key.enter	n/a
164.503	10.466	329006	prompt	n/a	civilian exceptional examples vegetation\n
165.9375	0.1495	331875	keystroke_c	c	n/a
166.132	0.135	332264	keystroke_i	i	n/a
166.3275	0.1045	332655	keystroke_v	v	n/a
166.477	0.06	332954	keystroke_i	i	n/a
166.672	0.075	333344	keystroke_l	l	n/a
166.852	0.075	333704	keystroke_i	i	n/a
167.002	0.1655	334004	keystroke_a	a	n/a
167.122	0.1055	334244	keystroke_n	n	n/a
167.362	0.09	334724	keystroke_Key.space	Key.space	n/a
167.572	0.075	335144	keystroke_e	e	n/a
167.9175	0.1345	335835	keystroke_x	x	n/a
168.1725	0.134	336345	keystroke_c	c	n/a
168.3975	0.12	336795	keystroke_e	e	n/a
168.6225	0.104	337245	keystroke_p	p	n/a
168.9515	0.06	337903	keystroke_t	t	n/a
169.057	0.15	338114	keystroke_i	i	n/a
169.1765	0.226	338353	keystroke_o	o	n/a
169.3275	0.195	338655	keystroke_n	n	n/a
169.612	0.1355	339224	keystroke_a	a	n/a
169.7325	0.09	339465	keystroke_l	l	n/a
169.957	0.1195	339914	keystroke_Key.space	Key.space	n/a
170.1525	0.0895	340305	keystroke_e	e	n/a
170.437	0.1055	340874	keystroke_x	x	n/a
170.6625	0.135	341325	keystroke_a	a	n/a
170.7515	0.1505	341503	keystroke_m	m	n/a
171.3815	0.106	342763	keystroke_p	p	n/a
171.5925	0.149	343185	keystroke_l	l	n/a
171.6515	0.076	343303	keystroke_e	e	n/a
171.8765	0.061	343753	keystroke_s	s	n/a
172.0115	0.136	344023	keystroke_Key.space	Key.space	n/a
172.672	0.09	345344	keystroke_v	v	n/a
172.897	0.12	345794	keystroke_e	e	n/a
173.152	0.12	346304	keystroke_g	g	n/a
173.662	0.105	347324	keystroke_e	e	n/a
173.887	0.105	347774	keystroke_t	t	n/a
174.082	0.15	348164	keystroke_a	a	n/a
174.202	0.12	348404	keystroke_t	t	n/a
174.352	0.225	348704	keystroke_i	i	n/a
174.442	0.18	348884	keystroke_o	o	n/a
174.562	0.12	349124	keystroke_n	n	n/a
174.862	0.105	349724	keystroke_Key.enter	Key.enter	n/a
174.974	12.91	349948	prompt	n/a	stanford monetary terrorists bristol\n
176.8575	0.105	353715	keystroke_s	s	n/a
177.1125	0.06	354225	keystroke_t	t	n/a
177.2915	0.1505	354583	keystroke_a	a	n/a
177.4275	0.104	354855	keystroke_n	n	n/a
177.592	0.1045	355184	keystroke_f	f	n/a
177.7565	0.1055	355513	keystroke_o	o	n/a
177.9515	0.105	355903	keystroke_d	d	n/a
178.4465	0.105	356893	keystroke_Key.backspace	Key.backspace	n/a
178.567	0.075	357134	keystroke_r	r	n/a
178.7915	0.105	357583	keystroke_d	d	n/a
178.9715	0.1355	357943	keystroke_Key.space	Key.space	n/a
180.907	0.105	361814	keystroke_m	m	n/a
181.117	0.06	362234	keystroke_o	o	n/a
181.297	0.104	362594	keystroke_n	n	n/a
181.387	0.09	362774	keystroke_e	e	n/a
181.582	0.09	363164	keystroke_t	t	n/a
181.792	0.1805	363584	keystroke_a	a	n/a
181.8975	0.135	363795	keystroke_r	r	n/a
182.1825	0.104	364365	keystroke_y	y	n/a
182.572	0.105	365144	keystroke_Key.space	Key.space	n/a
183.6515	0.0905	367303	keystroke_t	t	n/a
183.877	0.15	367754	keystroke_e	e	n/a
184.102	0.075	368204	keystroke_r	r	n/a
184.267	0.09	368534	keystroke_r	r	n/a
184.417	0.12	368834	keystroke_o	o	n/a
184.567	0.09	369134	keystroke_r	r	n/a
184.792	0.09	369584	keystroke_i	i	n/a
184.9875	0.1495	369975	keystroke_s	s	n/a
185.257	0.12	370514	keystroke_t	t	n/a
185.542	0.09	371084	keystroke_s	s	n/a
185.7815	0.135	371563	keystroke_Key.space	Key.space	n/a
186.1875	0.12	372375	keystroke_b	b	n/a
186.3365	0.09	372673	keystroke_r	r	n/a
186.4875	0.0895	372975	keystroke_i	i	n/a
186.6215	0.1205	373243	keystroke_s	s	n/a
186.9075	0.134	373815	keystroke_t	t	n/a
187.0575	0.089	374115	keystroke_o	o	n/a
187.2965	0.075	374593	keystroke_l	l	n/a
187.792	0.0895	375584	keystroke_Key.enter	Key.enter	n/a
187.8875	10.571	375775	prompt	n/a	christianity pics cleaner greensboro\n
189.172	0.1355	378344	keystroke_c	c	n/a
189.367	0.09	378734	keystroke_h	h	n/a
189.517	0.105	379034	keystroke_r	r	n/a
189.652	0.075	379304	keystroke_i	i	n/a
189.787	0.1195	379574	keystroke_s	s	n/a
190.012	0.09	380024	keystroke_t	t	n/a
190.1465	0.09	380293	keystroke_i	i	n/a
190.2815	0.121	380563	keystroke_a	a	n/a
190.4175	0.119	380835	keystroke_n	n	n/a
190.6115	0.106	381223	keystroke_i	i	n/a
190.8075	0.105	381615	keystroke_t	t	n/a
191.0475	0.075	382095	keystroke_y	y	n/a
191.1965	0.0905	382393	keystroke_Key.space	Key.space	n/a
191.4225	0.104	382845	keystroke_p	p	n/a
191.8715	0.0905	383743	keystroke_i	i	n/a
192.0965	0.075	384193	keystroke_c	c	n/a
192.4115	0.1055	384823	keystroke_s	s	n/a
192.637	0.12	385274	keystroke_Key.space	Key.space	n/a
193.462	0.0155	386924	keystroke_c	c	n/a
193.537	0.075	387074	keystroke_l	l	n/a
193.627	0.12	387254	keystroke_e	e	n/a
193.792	0.165	387584	keystroke_a	a	n/a
194.002	0.09	388004	keystroke_n	n	n/a
194.407	0.15	388814	keystroke_e	e	n/a
194.542	0.105	389084	keystroke_r	r	n/a
194.722	0.12	389444	keystroke_Key.space	Key.space	n/a
195.5165	0.2255	391033	keystroke_g	g	n/a
195.7875	0.09	391575	keystroke_r	r	n/a
195.9375	0.075	391875	keystroke_e	e	n/a
196.0875	0.105	392175	keystroke_e	e	n/a
196.2075	0.1495	392415	keystroke_n	n	n/a
196.777	0.09	393554	keystroke_s	s	n/a
197.4375	0.09	394875	keystroke_b	b	n/a
197.647	0.09	395294	keystroke_o	o	n/a
197.827	0.075	395654	keystroke_r	r	n/a
197.932	0.135	395864	keystroke_o	o	n/a
198.4275	0.0295	396855	keystroke_Key.enter	Key.enter	n/a
198.4615	10.798	396923	prompt	n/a	occupied scottish mechanics contracting\n
199.7175	0.12	399435	keystroke_o	o	n/a
200.0015	0.076	400003	keystroke_c	c	n/a
200.1675	0.135	400335	keystroke_c	c	n/a
200.2425	0.075	400485	keystroke_u	u	n/a
200.6175	0.105	401235	keystroke_p	p	n/a
200.7975	0.105	401595	keystroke_i	i	n/a
200.9025	0.075	401805	keystroke_e	e	n/a
201.097	0.09	402194	keystroke_d	d	n/a
201.247	0.1055	402494	keystroke_Key.space	Key.space	n/a
201.4125	0.1045	402825	keystroke_s	s	n/a
201.6525	0.105	403305	keystroke_c	c	n/a
201.772	0.105	403544	keystroke_o	o	n/a
201.997	0.0605	403994	keystroke_t	t	n/a
202.1625	0.0595	404325	keystroke_t	t	n/a
202.2375	0.0895	404475	keystroke_i	i	n/a
202.4325	0.0445	404865	keystroke_s	s	n/a
202.5525	0.0745	405105	keystroke_h	h	n/a
203.317	0.105	406634	keystroke_Key.space	Key.space	n/a
203.572	0.12	407144	keystroke_m	m	n/a
203.707	0.1055	407414	keystroke_e	e	n/a
203.9615	0.135	407923	keystroke_c	c	n/a
204.1115	0.076	408223	keystroke_h	h	n/a
204.9515	0.12	409903	keystroke_a	a	n/a
205.2065	0.135	410413	keystroke_n	n	n/a
205.6725	0.104	411345	keystroke_i	i	n/a
205.7615	0.091	411523	keystroke_c	c	n/a
206.0325	0.105	412065	keystroke_s	s	n/a
206.1815	0.121	412363	keystroke_Key.space	Key.space	n/a
206.6025	0.0745	413205	keystroke_c	c	n/a
206.677	0.1055	413354	keystroke_o	o	n/a
206.872	0.15	413744	keystroke_n	n	n/a
207.0375	0.075	414075	keystroke_t	t	n/a
207.232	0.105	414464	keystroke_r	r	n/a
207.442	0.135	414884	keystroke_a	a	n/a
207.6825	0.15	415365	keystroke_c	c	n/a
208.0415	0.1205	416083	keystroke_t	t	n/a
208.1915	0.09	416383	keystroke_i	i	n/a
208.312	0.1055	416624	keystroke_n	n	n/a
208.477	0.06	416954	keystroke_g	g	n/a
209.1525	0.105	418305	keystroke_Key.enter	Key.enter	n/a
209.2635	10.5705	418527	prompt	n/a	pays senator improvement bristol\n
210.397	0.0905	420794	keystroke_p	p	n/a
210.562	0.135	421124	keystroke_a	a	n/a
210.742	0.09	421484	keystroke_y	y	n/a
210.922	0.075	421844	keystroke_s	s	n/a
211.342	0.105	422684	keystroke_Key.space	Key.space	n/a
211.5525	0.1045	423105	keystroke_s	s	n/a
211.777	0.09	423554	keystroke_e	e	n/a
211.852	0.1355	423704	keystroke_n	n	n/a
212.017	0.105	424034	keystroke_a	a	n/a
212.662	0.09	425324	keystroke_t	t	n/a
212.812	0.105	425624	keystroke_o	o	n/a
212.917	0.105	425834	keystroke_r	r	n/a
213.6515	0.09	427303	keystroke_Key.space	Key.space	n/a
214.3725	0.104	428745	keystroke_i	i	n/a
214.5975	0.135	429195	keystroke_m	m	n/a
214.8525	0.045	429705	keystroke_p	p	n/a
215.9325	0.0895	431865	keystroke_r	r	n/a
216.082	0.12	432164	keystroke_o	o	n/a
216.337	0.105	432674	keystroke_v	v	n/a
216.577	0.1205	433154	keystroke_e	e	n/a
216.712	0.12	433424	keystroke_m	m	n/a
216.817	0.12	433634	keystroke_e	e	n/a
217.0275	0.15	434055	keystroke_n	n	n/a
217.222	0.1055	434444	keystroke_t	t	n/a
217.657	0.165	435314	keystroke_Key.space	Key.space	n/a
217.9875	0.12	435975	keystroke_b	b	n/a
218.1225	0.09	436245	keystroke_r	r	n/a
218.3325	0.09	436665	keystroke_i	i	n/a
218.4075	0.15	436815	keystroke_s	s	n/a
218.7375	0.12	437475	keystroke_t	t	n/a
218.872	0.105	437744	keystroke_o	o	n/a
219.097	0.1055	438194	keystroke_l	l	n/a
219.727	0.105	439454	keystroke_Key.enter	Key.enter	n/a
219.8375	9.1315	439675	prompt	n/a	jenny how's moscow renewal\n
220.9425	0.105	441885	keystroke_j	j	n/a
221.0625	0.075	442125	keystroke_e	e	n/a
221.1815	0.075	442363	keystroke_n	n	n/a
221.3315	0.106	442663	keystroke_n	n	n/a
221.5715	0.106	443143	keystroke_y	y	n/a
221.842	0.1045	443684	keystroke_Key.space	Key.space	n/a
222.1115	0.0905	444223	keystroke_h	h	n/a
222.3065	0.105	444613	keystroke_o	o	n/a
222.4425	0.089	444885	keystroke_w	w	n/a
224.197	0.015	448394	keystroke_'	'	n/a
224.272	0.09	448544	keystroke_s	s	n/a
224.437	0.105	448874	keystroke_Key.space	Key.space	n/a
224.8575	0.12	449715	keystroke_m	m	n/a
225.0825	0.135	450165	keystroke_o	o	n/a
225.202	0.06	450404	keystroke_s	s	n/a
225.442	0.09	450884	keystroke_c	c	n/a
225.712	0.12	451424	keystroke_o	o	n/a
225.862	0.12	451724	keystroke_w	w	n/a
226.567	0.1055	453134	keystroke_Key.space	Key.space	n/a
226.8525	0.1045	453705	keystroke_r	r	n/a
227.092	0.12	454184	keystroke_e	e	n/a
227.317	0.105	454634	keystroke_n	n	n/a
227.497	0.09	454994	keystroke_e	e	n/a
227.7825	0.0895	455565	keystroke_w	w	n/a
228.0525	0.0895	456105	keystroke_a	a	n/a
228.2325	0.105	456465	keystroke_l	l	n/a
228.8625	0.105	457725	keystroke_Key.enter	Key.enter	n/a
228.973	18.4305	457946	prompt	n/a	revenues service voyuer guards\n
230.422	0.09	460844	keystroke_r	r	n/a
230.6025	0.1195	461205	keystroke_e	e	n/a
231.3375	0.0895	462675	keystroke_v	v	n/a
231.532	0.09	463064	keystroke_e	e	n/a
231.697	0.1055	463394	keystroke_n	n	n/a
232.867	0.135	465734	keystroke_u	u	n/a
232.942	0.105	465884	keystroke_e	e	n/a
233.182	0.12	466364	keystroke_s	s	n/a
233.362	0.09	466724	keystroke_Key.space	Key.space	n/a
233.752	0.1495	467504	keystroke_s	s	n/a
234.007	0.195	468014	keystroke_e	e	n/a
234.1265	0.165	468253	keystroke_r	r	n/a
234.607	0.09	469214	keystroke_v	v	n/a
234.8165	0.105	469633	keystroke_i	i	n/a
234.8915	0.136	469783	keystroke_c	c	n/a
235.0575	0.135	470115	keystroke_e	e	n/a
235.2965	0.0905	470593	keystroke_Key.space	Key.space	n/a
236.962	0.075	473924	keystroke_v	v	n/a
238.402	0.12	476804	keystroke_o	o	n/a
239.287	0.075	478574	keystroke_y	y	n/a
240.5915	0.076	481183	keystroke_u	u	n/a
240.7115	0.135	481423	keystroke_e	e	n/a
240.9825	0.059	481965	keystroke_r	r	n/a
241.4925	0.119	482985	keystroke_Key.space	Key.space	n/a
243.0215	0.0905	486043	keystroke_g	g	n/a
246.489	0.001	492978	keystroke_u	u	n/a
246.502	0.2255	493004	keystroke_a	a	n/a
246.667	0.12	493334	keystroke_r	r	n/a
246.937	0.09	493874	keystroke_d	d	n/a
247.1325	0.09	494265	keystroke_s	s	n/a
247.282	0.12	494564	keystroke_Key.enter	Key.enter	n/a
247.4065	10.1375	494813	prompt	n/a	coordinates interface bent attributes\n
248.3325	0.1045	496665	keystroke_c	c	n/a
248.692	0.06	497384	keystroke_o	o	n/a
248.842	0.105	497684	keystroke_o	o	n/a
248.962	0.09	497924	keystroke_r	r	n/a
249.232	0.0755	498464	keystroke_d	d	n/a
249.337	0.165	498674	keystroke_i	i	n/a
249.517	0.105	499034	keystroke_n	n	n/a
249.682	0.1495	499364	keystroke_a	a	n/a
249.9065	0.135	499813	keystroke_t	t	n/a
250.1175	0.0745	500235	keystroke_e	e	n/a
250.3425	0.09	500685	keystroke_s	s	n/a
250.5075	0.105	501015	keystroke_Key.space	Key.space	n/a
250.9425	0.075	501885	keystroke_i	i	n/a
251.5265	0.1205	503053	keystroke_n	n	n/a
251.6165	0.106	503233	keystroke_t	t	n/a
251.8125	0.119	503625	keystroke_e	e	n/a
251.9015	0.105	503803	keystroke_r	r	n/a
252.2015	0.09	504403	keystroke_f	f	n/a
252.3965	0.136	504793	keystroke_a	a	n/a
252.6065	0.1055	505213	keystroke_c	c	n/a
252.8015	0.091	505603	keystroke_e	e	n/a
252.9515	0.121	505903	keystroke_Key.space	Key.space	n/a
253.6415	0.091	507283	keystroke_b	b	n/a
253.747	0.09	507494	keystroke_e	e	n/a
253.882	0.105	507764	keystroke_n	n	n/a
254.017	0.12	508034	keystroke_t	t	n/a
254.272	0.12	508544	keystroke_Key.space	Key.space	n/a
254.677	0.09	509354	keystroke_a	a	n/a
254.887	0.075	509774	keystroke_t	t	n/a
255.067	0.075	510134	keystroke_t	t	n/a
255.2775	0.0595	510555	keystroke_r	r	n/a
255.487	0.0755	510974	keystroke_i	i	n/a
256.3725	0.135	512745	keystroke_b	b	n/a
256.6565	0.1055	513313	keystroke_u	u	n/a
256.792	0.09	513584	keystroke_t	t	n/a
257.017	0.0605	514034	keystroke_e	e	n/a
257.242	0.0755	514484	keystroke_s	s	n/a
257.422	0.12	514844	keystroke_Key.enter	Key.enter	n/a
257.5475	8.4415	515095	prompt	n/a	transferred schools shield donald\n
258.322	0.1045	516644	keystroke_t	t	n/a
258.5615	0.0605	517123	keystroke_r	r	n/a
258.7265	0.1205	517453	keystroke_a	a	n/a
258.9065	0.105	517813	keystroke_n	n	n/a
259.0565	0.0905	518113	keystroke_s	s	n/a
259.4475	0.104	518895	keystroke_f	f	n/a
259.6725	0.12	519345	keystroke_e	e	n/a
259.8515	0.06	519703	keystroke_r	r	n/a
260.0315	0.09	520063	keystroke_r	r	n/a
260.1065	0.135	520213	keystroke_e	e	n/a
260.3475	0.105	520695	keystroke_d	d	n/a
260.5275	0.1045	521055	keystroke_Key.space	Key.space	n/a
260.647	0.09	521294	keystroke_s	s	n/a
260.872	0.105	521744	keystroke_c	c	n/a
260.9325	0.1195	521865	keystroke_h	h	n/a
261.1575	0.075	522315	keystroke_o	o	n/a
261.367	0.075	522734	keystroke_o	o	n/a
261.577	0.075	523154	keystroke_l	l	n/a
261.727	0.12	523454	keystroke_s	s	n/a
262.072	0.09	524144	keystroke_Key.space	Key.space	n/a
262.357	0.15	524714	keystroke_s	s	n/a
262.627	0.135	525254	keystroke_h	h	n/a
262.972	0.105	525944	keystroke_i	i	n/a
263.587	0.135	527174	keystroke_e	e	n/a
263.7365	0.0905	527473	keystroke_l	l	n/a
263.8415	0.0905	527683	keystroke_d	d	n/a
264.3365	0.105	528673	keystroke_Key.space	Key.space	n/a
264.6075	0.104	529215	keystroke_d	d	n/a
264.727	0.0745	529454	keystroke_o	o	n/a
264.9215	0.1205	529843	keystroke_n	n	n/a
265.3575	0.075	530715	keystroke_a	a	n/a
265.522	0.1355	531044	keystroke_l	l	n/a
265.6275	0.1195	531255	keystroke_d	d	n/a
265.867	0.12	531734	keystroke_Key.enter	Key.enter	n/a
265.992	7.362	531984	prompt	n/a	detailed folding attending fleece\n
266.7675	0.135	533535	keystroke_d	d	n/a
267.0225	0.105	534045	keystroke_e	e	n/a
267.2015	0.106	534403	keystroke_t	t	n/a
267.4275	0.165	534855	keystroke_a	a	n/a
267.6225	0.149	535245	keystroke_i	i	n/a
267.8015	0.121	535603	keystroke_l	l	n/a
267.9075	0.089	535815	keystroke_e	e	n/a
268.0715	0.136	536143	keystroke_d	d	n/a
268.2665	0.1055	536533	keystroke_Key.space	Key.space	n/a
268.8515	0.015	537703	keystroke_f	f	n/a
268.9715	0.076	537943	keystroke_o	o	n/a
269.167	0.0605	538334	keystroke_l	l	n/a
269.272	0.12	538544	keystroke_d	d	n/a
269.4225	0.21	538845	keystroke_i	i	n/a
269.5575	0.1345	539115	keystroke_n	n	n/a
269.7075	0.075	539415	keystroke_g	g	n/a
269.842	0.15	539684	keystroke_Key.space	Key.space	n/a
270.008	0.149	540016	keystroke_a	a	n/a
270.262	0.0905	540524	keystroke_t	t	n/a
270.397	0.1055	540794	keystroke_t	t	n/a
270.5775	0.1495	541155	keystroke_e	e	n/a
270.712	0.1205	541424	keystroke_n	n	n/a
270.862	0.15	541724	keystroke_d	d	n/a
270.967	0.165	541934	keystroke_i	i	n/a
271.0725	0.18	542145	keystroke_n	n	n/a
271.267	0.105	542534	keystroke_g	g	n/a
271.477	0.09	542954	keystroke_Key.space	Key.space	n/a
271.987	0.075	543974	keystroke_f	f	n/a
272.1075	0.1495	544215	keystroke_l	l	n/a
272.227	0.06	544454	keystroke_e	e	n/a
272.362	0.09	544724	keystroke_e	e	n/a
272.572	0.1355	545144	keystroke_c	c	n/a
272.737	0.06	545474	keystroke_e	e	n/a
273.247	0.1055	546494	keystroke_Key.enter	Key.enter	n/a
273.3575	6.8965	546715	prompt	n/a	years matching edited evident\n
274.5075	0.105	549015	keystroke_y	y	n/a
274.6275	0.075	549255	keystroke_e	e	n/a
274.7625	0.1945	549525	keystroke_a	a	n/a
274.9125	0.075	549825	keystroke_r	r	n/a
275.1065	0.12	550213	keystroke_s	s	n/a
275.2275	0.105	550455	keystroke_Key.space	Key.space	n/a
275.4675	0.105	550935	keystroke_m	m	n/a
275.5575	0.09	551115	keystroke_a	a	n/a
275.7075	0.119	551415	keystroke_t	t	n/a
276.067	0.135	552134	keystroke_c	c	n/a
276.187	0.105	552374	keystroke_h	h	n/a
276.322	0.2105	552644	keystroke_i	i	n/a
276.472	0.12	552944	keystroke_n	n	n/a
276.6075	0.0895	553215	keystroke_g	g	n/a
276.7725	0.1345	553545	keystroke_Key.space	Key.space	n/a
277.087	0.1055	554174	keystroke_e	e	n/a
277.3265	0.121	554653	keystroke_d	d	n/a
277.4325	0.165	554865	keystroke_i	i	n/a
277.6275	0.09	555255	keystroke_t	t	n/a
277.7925	0.105	555585	keystroke_e	e	n/a
278.0325	0.075	556065	keystroke_d	d	n/a
278.137	0.135	556274	keystroke_Key.space	Key.space	n/a
278.602	0.0455	557204	keystroke_e	e	n/a
278.8725	0.075	557745	keystroke_v	v	n/a
279.0675	0.09	558135	keystroke_i	i	n/a
279.277	0.09	558554	keystroke_d	d	n/a
279.472	0.09	558944	keystroke_e	e	n/a
279.5775	0.1345	559155	keystroke_n	n	n/a
279.7425	0.135	559485	keystroke_t	t	n/a
280.1165	0.1355	560233	keystroke_Key.enter	Key.enter	n/a
280.261	7.568	560522	prompt	n/a	wires caution previously things\n
281.377	0.165	562754	keystroke_w	w	n/a
281.767	0.0905	563534	keystroke_i	i	n/a
281.8725	0.135	563745	keystroke_r	r	n/a
281.962	0.1205	563924	keystroke_e	e	n/a
282.2025	0.0595	564405	keystroke_s	s	n/a
282.3965	0.151	564793	keystroke_Key.space	Key.space	n/a
282.6515	0.091	565303	keystroke_c	c	n/a
282.8765	0.121	565753	keystroke_a	a	n/a
283.0415	0.106	566083	keystroke_u	u	n/a
283.1925	0.089	566385	keystroke_t	t	n/a
283.3125	0.2695	566625	keystroke_i	i	n/a
283.4475	0.2095	566895	keystroke_o	o	n/a
283.5375	0.15	567075	keystroke_n	n	n/a
283.8365	0.09	567673	keystroke_Key.space	Key.space	n/a
284.0775	0.105	568155	keystroke_p	p	n/a
284.2275	0.15	568455	keystroke_r	r	n/a
284.3475	0.12	568695	keystroke_e	e	n/a
284.6925	0.09	569385	keystroke_v	v	n/a
284.8425	0.12	569685	keystroke_i	i	n/a
284.9925	0.135	569985	keystroke_o	o	n/a
285.0675	0.12	570135	keystroke_u	u	n/a
285.2025	0.135	570405	keystroke_s	s	n/a
285.3375	0.105	570675	keystroke_l	l	n/a
285.5165	0.106	571033	keystroke_y	y	n/a
286.2375	0.15	572475	keystroke_Key.space	Key.space	n/a
286.7625	0.075	573525	keystroke_t	t	n/a
286.8515	0.0905	573703	keystroke_h	h	n/a
286.9125	0.1945	573825	keystroke_i	i	n/a
287.0775	0.15	574155	keystroke_n	n	n/a
287.1825	0.1045	574365	keystroke_g	g	n/a
287.4525	0.105	574905	keystroke_s	s	n/a
287.677	0.15	575354	keystroke_Key.enter	Key.enter	n/a
287.832	6.9125	575664	prompt	n/a	packages books resume extreme\n
288.832	0.12	577664	keystroke_p	p	n/a
288.937	0.1055	577874	keystroke_a	a	n/a
289.117	0.12	578234	keystroke_c	c	n/a
289.267	0.105	578534	keystroke_k	k	n/a
289.4175	0.1195	578835	keystroke_a	a	n/a
289.597	0.105	579194	keystroke_g	g	n/a
289.7475	0.0895	579495	keystroke_e	e	n/a
289.9725	0.1205	579945	keystroke_s	s	n/a
290.137	0.09	580274	keystroke_Key.space	Key.space	n/a
290.407	0.09	580814	keystroke_b	b	n/a
290.6775	0.075	581355	keystroke_o	o	n/a
290.842	0.0905	581684	keystroke_o	o	n/a
291.0525	0.09	582105	keystroke_k	k	n/a
291.1575	0.075	582315	keystroke_s	s	n/a
291.3075	0.09	582615	keystroke_Key.space	Key.space	n/a
291.7125	0.12	583425	keystroke_r	r	n/a
291.8025	0.105	583605	keystroke_e	e	n/a
292.0275	0.15	584055	keystroke_s	s	n/a
292.1325	0.12	584265	keystroke_u	u	n/a
292.3875	0.09	584775	keystroke_m	m	n/a
292.4925	0.12	584985	keystroke_e	e	n/a
292.6425	0.135	585285	keystroke_Key.space	Key.space	n/a
292.7625	0.105	585525	keystroke_e	e	n/a
293.0325	0.15	586065	keystroke_x	x	n/a
293.3775	0.105	586755	keystroke_t	t	n/a
293.6325	0.12	587265	keystroke_r	r	n/a
293.7375	0.09	587475	keystroke_e	e	n/a
293.8725	0.12	587745	keystroke_m	m	n/a
293.9775	0.12	587955	keystroke_e	e	n/a
294.6225	0.12	589245	keystroke_Key.enter	Key.enter	n/a
294.748	10.8715	589496	prompt	n/a	trees ethical telescope employed\n
295.927	0.09	591854	keystroke_t	t	n/a
296.1675	0.075	592335	keystroke_r	r	n/a
296.2575	0.09	592515	keystroke_e	e	n/a
296.5425	0.105	593085	keystroke_e	e	n/a
297.187	0.0905	594374	keystroke_s	s	n/a
297.427	0.12	594854	keystroke_Key.space	Key.space	n/a
297.712	0.136	595424	keystroke_e	e	n/a
297.9525	0.089	595905	keystroke_t	t	n/a
298.0275	0.105	596055	keystroke_h	h	n/a
298.1925	0.105	596385	keystroke_i	i	n/a
298.3265	0.1055	596653	keystroke_c	c	n/a
298.5375	0.134	597075	keystroke_a	a	n/a
298.6275	0.105	597255	keystroke_l	l	n/a
298.8515	0.1055	597703	keystroke_Key.space	Key.space	n/a
299.1975	0.09	598395	keystroke_t	t	n/a
299.3925	0.135	598785	keystroke_e	e	n/a
299.5425	0.075	599085	keystroke_l	l	n/a
299.6475	0.045	599295	keystroke_e	e	n/a
300.067	0.09	600134	keystroke_s	s	n/a
300.9075	0.0145	601815	keystroke_c	c	n/a
301.7775	0.165	603555	keystroke_o	o	n/a
301.8975	0.119	603795	keystroke_p	p	n/a
301.9875	0.12	603975	keystroke_e	e	n/a
302.3025	0.105	604605	keystroke_Key.space	Key.space	n/a
302.6175	0.105	605235	keystroke_e	e	n/a
302.9325	0.105	605865	keystroke_m	m	n/a
303.2025	0.075	606405	keystroke_p	p	n/a
303.953	0.1195	607906	keystroke_l	l	n/a
304.207	0.105	608414	keystroke_o	o	n/a
304.267	0.105	608534	keystroke_y	y	n/a
304.507	0.12	609014	keystroke_e	e	n/a
304.778	0.119	609556	keystroke_d	d	n/a
305.527	0.09	611054	keystroke_Key.enter	Key.enter	n/a
305.624	9.04	611248	prompt	n/a	soon cinema webpage builds\n
306.517	0.121	613034	keystroke_s	s	n/a
306.652	0.105	613304	keystroke_o	o	n/a
306.817	0.0755	613634	keystroke_o	o	n/a
306.9975	0.0895	613995	keystroke_n	n	n/a
307.192	0.105	614384	keystroke_Key.space	Key.space	n/a
307.403	0.134	614806	keystroke_c	c	n/a
307.5525	0.1345	615105	keystroke_i	i	n/a
307.7025	0.1345	615405	keystroke_n	n	n/a
307.837	0.105	615674	keystroke_e	e	n/a
307.988	0.119	615976	keystroke_m	m	n/a
308.152	0.121	616304	keystroke_a	a	n/a
308.512	0.12	617024	keystroke_Key.space	Key.space	n/a
309.202	0.12	618404	keystroke_w	w	n/a
309.412	0.075	618824	keystroke_e	e	n/a
309.592	0.09	619184	keystroke_b	b	n/a
309.878	0.0735	619756	keystroke_p	p	n/a
310.0115	0.1215	620023	keystroke_a	a	n/a
310.268	0.0745	620536	keystroke_g	g	n/a
310.403	0.12	620806	keystroke_e	e	n/a
310.5825	0.105	621165	keystroke_Key.space	Key.space	n/a
311.3175	0.0895	622635	keystroke_b	b	n/a
311.5425	0.075	623085	keystroke_u	u	n/a
311.6925	0.0895	623385	keystroke_i	i	n/a
311.9325	0.12	623865	keystroke_l	l	n/a
312.0225	0.09	624045	keystroke_d	d	n/a
313.7175	0.074	627435	keystroke_s	s	n/a
314.5575	0.105	629115	keystroke_Key.enter	Key.enter	n/a
314.6675	9.267	629335	prompt	n/a	alter bizarre moscow russian\n
315.8775	0.12	631755	keystroke_a	a	n/a
316.058	0.089	632116	keystroke_l	l	n/a
316.237	0.075	632474	keystroke_t	t	n/a
317.062	0.12	634124	keystroke_e	e	n/a
317.1975	0.105	634395	keystroke_r	r	n/a
317.347	0.1055	634694	keystroke_Key.space	Key.space	n/a
318.097	0.1055	636194	keystroke_b	b	n/a
318.2925	0.15	636585	keystroke_i	i	n/a
318.457	0.0905	636914	keystroke_z	z	n/a
318.6825	0.105	637365	keystroke_a	a	n/a
318.8765	0.0605	637753	keystroke_r	r	n/a
319.028	0.1195	638056	keystroke_r	r	n/a
319.118	0.119	638236	keystroke_e	e	n/a
319.282	0.09	638564	keystroke_Key.space	Key.space	n/a
319.552	0.09	639104	keystroke_m	m	n/a
319.718	0.1045	639436	keystroke_o	o	n/a
319.8075	0.075	639615	keystroke_s	s	n/a
320.0325	0.09	640065	keystroke_c	c	n/a
320.1525	0.12	640305	keystroke_o	o	n/a
320.3025	0.12	640605	keystroke_w	w	n/a
320.8875	0.135	641775	keystroke_Key.space	Key.space	n/a
321.128	0.1045	642256	keystroke_r	r	n/a
321.2475	0.12	642495	keystroke_u	u	n/a
321.4875	0.075	642975	keystroke_s	s	n/a
321.6675	0.105	643335	keystroke_s	s	n/a
322.267	0.09	644534	keystroke_i	i	n/a
322.372	0.105	644744	keystroke_a	a	n/a
322.612	0.0905	645224	keystroke_n	n	n/a
323.7975	0.135	647595	keystroke_Key.enter	Key.enter	n/a
323.9385	9.446	647877	prompt	n/a	adjusted hollywood thru successful\n
324.9075	0.12	649815	keystroke_a	a	n/a
325.1175	0.12	650235	keystroke_d	d	n/a
325.2675	0.09	650535	keystroke_j	j	n/a
325.4925	0.135	650985	keystroke_u	u	n/a
325.6125	0.135	651225	keystroke_s	s	n/a
325.8675	0.105	651735	keystroke_t	t	n/a
326.0175	0.12	652035	keystroke_e	e	n/a
326.2125	0.105	652425	keystroke_d	d	n/a
326.3475	0.12	652695	keystroke_Key.space	Key.space	n/a
326.8425	0.09	653685	keystroke_h	h	n/a
327.0375	0.105	654075	keystroke_o	o	n/a
327.2775	0.0145	654555	keystroke_l	l	n/a
327.3975	0.044	654795	keystroke_l	l	n/a
327.4725	0.06	654945	keystroke_y	y	n/a
327.7125	0.119	655425	keystroke_w	w	n/a
327.847	0.0905	655694	keystroke_o	o	n/a
328.0275	0.075	656055	keystroke_o	o	n/a
328.118	0.0895	656236	keystroke_d	d	n/a
328.6575	0.12	657315	keystroke_Key.space	Key.space	n/a
329.1525	0.105	658305	keystroke_t	t	n/a
329.2725	0.135	658545	keystroke_h	h	n/a
329.4225	0.1055	658845	keystroke_r	r	n/a
329.5125	0.135	659025	keystroke_u	u	n/a
329.9775	0.105	659955	keystroke_Key.space	Key.space	n/a
330.4425	0.1045	660885	keystroke_s	s	n/a
330.637	0.12	661274	keystroke_u	u	n/a
331.012	0.1655	662024	keystroke_c	c	n/a
331.342	0.09	662684	keystroke_c	c	n/a
331.5525	0.12	663105	keystroke_e	e	n/a
331.8075	0.06	663615	keystroke_s	s	n/a
331.9425	0.105	663885	keystroke_s	s	n/a
332.1975	0.06	664395	keystroke_f	f	n/a
332.2725	0.1205	664545	keystroke_u	u	n/a
332.7975	0.135	665595	keystroke_l	l	n/a
333.2775	0.1045	666555	keystroke_Key.enter	Key.enter	n/a
333.389	6.625	666778	prompt	n/a	departmental emotional note wanted\n
334.4325	0.135	668865	keystroke_d	d	n/a
334.6725	0.12	669345	keystroke_e	e	n/a
334.8075	0.12	669615	keystroke_p	p	n/a
334.9115	0.226	669823	keystroke_a	a	n/a
335.0325	0.135	670065	keystroke_r	r	n/a
335.2865	0.076	670573	keystroke_t	t	n/a
335.4365	0.121	670873	keystroke_m	m	n/a
335.5115	0.121	671023	keystroke_e	e	n/a
335.6775	0.1195	671355	keystroke_n	n	n/a
335.7375	0.09	671475	keystroke_t	t	n/a
335.9325	0.1655	671865	keystroke_a	a	n/a
336.0525	0.075	672105	keystroke_l	l	n/a
336.2615	0.121	672523	keystroke_Key.space	Key.space	n/a
336.397	0.0895	672794	keystroke_e	e	n/a
336.5175	0.12	673035	keystroke_m	m	n/a
336.7575	0.09	673515	keystroke_o	o	n/a
336.8775	0.09	673755	keystroke_t	t	n/a
337.013	0.194	674026	keystroke_i	i	n/a
337.1325	0.1795	674265	keystroke_o	o	n/a
337.222	0.12	674444	keystroke_n	n	n/a
337.4025	0.0895	674805	keystroke_a	a	n/a
337.507	0.1205	675014	keystroke_l	l	n/a
337.7025	0.1195	675405	keystroke_Key.space	Key.space	n/a
337.942	0.0755	675884	keystroke_n	n	n/a
338.107	0.105	676214	keystroke_o	o	n/a
338.1975	0.105	676395	keystroke_t	t	n/a
338.362	0.0905	676724	keystroke_e	e	n/a
338.483	0.134	676966	keystroke_Key.space	Key.space	n/a
339.007	0.075	678014	keystroke_w	w	n/a
339.173	0.119	678346	keystroke_a	a	n/a
339.262	0.1505	678524	keystroke_n	n	n/a
339.397	0.09	678794	keystroke_t	t	n/a
339.547	0.1055	679094	keystroke_e	e	n/a
339.742	0.1355	679484	keystroke_d	d	n/a
339.8925	0.12	679785	keystroke_Key.enter	Key.enter	n/a
340.018	7.182	680036	prompt	n/a	reflection crack doors shanghai\n
341.1675	0.18	682335	keystroke_r	r	n/a
341.2725	0.09	682545	keystroke_e	e	n/a
341.4525	0.105	682905	keystroke_f	f	n/a
341.6025	0.15	683205	keystroke_l	l	n/a
341.7075	0.09	683415	keystroke_e	e	n/a
341.8275	0.105	683655	keystroke_c	c	n/a
342.0975	0.075	684195	keystroke_t	t	n/a
342.1875	0.255	684375	keystroke_i	i	n/a
342.3225	0.1495	684645	keystroke_o	o	n/a
342.3825	0.12	684765	keystroke_n	n	n/a
342.6365	0.135	685273	keystroke_Key.space	Key.space	n/a
342.8625	0.09	685725	keystroke_c	c	n/a
343.1325	0.075	686265	keystroke_r	r	n/a
343.3115	0.15	686623	keystroke_a	a	n/a
343.5675	0.1505	687135	keystroke_c	c	n/a
343.763	0.15	687526	keystroke_k	k	n/a
344.5115	0.105	689023	keystroke_Key.space	Key.space	n/a
344.7525	0.12	689505	keystroke_d	d	n/a
344.8875	0.1045	689775	keystroke_o	o	n/a
345.0825	0.1045	690165	keystroke_o	o	n/a
345.142	0.0755	690284	keystroke_r	r	n/a
345.338	0.074	690676	keystroke_s	s	n/a
345.4565	0.1055	690913	keystroke_Key.space	Key.space	n/a
345.6215	0.106	691243	keystroke_s	s	n/a
345.7425	0.1355	691485	keystroke_h	h	n/a
345.862	0.12	691724	keystroke_a	a	n/a
345.968	0.1195	691936	keystroke_n	n	n/a
346.133	0.104	692266	keystroke_g	g	n/a
346.3275	0.1055	692655	keystroke_h	h	n/a
346.477	0.09	692954	keystroke_a	a	n/a
346.5525	0.135	693105	keystroke_i	i	n/a
347.0925	0.105	694185	keystroke_Key.enter	Key.enter	n/a
347.204	10.872	694408	prompt	n/a	harmful detector bigger windsor\n
349.1775	0.075	698355	keystroke_h	h	n/a
349.268	0.179	698536	keystroke_a	a	n/a
349.3725	0.0905	698745	keystroke_r	r	n/a
349.5365	0.1805	699073	keystroke_m	m	n/a
349.733	0.074	699466	keystroke_f	f	n/a
349.897	0.075	699794	keystroke_u	u	n/a
350.0775	0.075	700155	keystroke_l	l	n/a
350.272	0.15	700544	keystroke_Key.space	Key.space	n/a
350.452	0.105	700904	keystroke_d	d	n/a
350.6925	0.1195	701385	keystroke_e	e	n/a
350.902	0.0605	701804	keystroke_t	t	n/a
351.0225	0.105	702045	keystroke_e	e	n/a
352.1325	0.09	704265	keystroke_c	c	n/a
352.4475	0.075	704895	keystroke_t	t	n/a
352.5525	0.12	705105	keystroke_o	o	n/a
352.6875	0.1355	705375	keystroke_r	r	n/a
352.8975	0.135	705795	keystroke_Key.space	Key.space	n/a
353.1975	0.105	706395	keystroke_b	b	n/a
353.3775	0.09	706755	keystroke_i	i	n/a
353.4225	0.03	706845	keystroke_u	u	n/a
353.4975	0.075	706995	keystroke_g	g	n/a
354.0825	0.105	708165	keystroke_Key.backspace	Key.backspace	n/a
354.2475	0.075	708495	keystroke_Key.backspace	Key.backspace	n/a
355.0275	0.06	710055	keystroke_g	g	n/a
355.268	0.0145	710536	keystroke_g	g	n/a
355.388	0.1495	710776	keystroke_e	e	n/a
355.5225	0.105	711045	keystroke_r	r	n/a
355.7025	0.1195	711405	keystroke_Key.space	Key.space	n/a
356.408	0.0895	712816	keystroke_w	w	n/a
356.6175	0.09	713235	keystroke_i	i	n/a
356.843	0.075	713686	keystroke_n	n	n/a
356.948	0.0745	713896	keystroke_d	d	n/a
357.142	0.1355	714284	keystroke_s	s	n/a
357.3075	0.135	714615	keystroke_o	o	n/a
357.4725	0.12	714945	keystroke_r	r	n/a
357.967	0.1055	715934	keystroke_Key.enter	Key.enter	n/a
358.078	7.3465	716156	prompt	n/a	master shark portraits wanna\n
358.9575	0.105	717915	keystroke_m	m	n/a
359.4975	0.105	718995	keystroke_a	a	n/a
359.5875	0.165	719175	keystroke_s	s	n/a
359.8425	0.105	719685	keystroke_t	t	n/a
360.0225	0.164	720045	keystroke_e	e	n/a
360.173	0.1045	720346	keystroke_r	r	n/a
360.322	0.12	720644	keystroke_Key.space	Key.space	n/a
360.502	0.105	721004	keystroke_s	s	n/a
360.6375	0.105	721275	keystroke_h	h	n/a
360.727	0.18	721454	keystroke_a	a	n/a
360.877	0.1205	721754	keystroke_r	r	n/a
361.672	0.1205	723344	keystroke_k	k	n/a
362.122	0.1205	724244	keystroke_Key.space	Key.space	n/a
362.542	0.1055	725084	keystroke_p	p	n/a
362.7375	0.12	725475	keystroke_o	o	n/a
362.8725	0.075	725745	keystroke_r	r	n/a
363.1125	0.0895	726225	keystroke_t	t	n/a
363.397	0.075	726794	keystroke_r	r	n/a
363.562	0.105	727124	keystroke_a	a	n/a
363.682	0.1205	727364	keystroke_i	i	n/a
363.923	0.0595	727846	keystroke_t	t	n/a
364.162	0.09	728324	keystroke_s	s	n/a
364.297	0.1205	728594	keystroke_Key.space	Key.space	n/a
364.4925	0.09	728985	keystroke_w	w	n/a
364.6725	0.09	729345	keystroke_a	a	n/a
364.7325	0.075	729465	keystroke_n	n	n/a
364.9115	0.076	729823	keystroke_n	n	n/a
365.0025	0.09	730005	keystroke_a	a	n/a
365.3175	0.105	730635	keystroke_Key.enter	Key.enter	n/a
365.428	10.152	730856	prompt	n/a	evaluate carlo commented occasion\n
366.4425	0.0745	732885	keystroke_e	e	n/a
366.712	0.076	733424	keystroke_v	v	n/a
366.8925	0.1045	733785	keystroke_a	a	n/a
367.177	0.105	734354	keystroke_l	l	n/a
367.387	0.075	734774	keystroke_u	u	n/a
367.492	0.1205	734984	keystroke_a	a	n/a
367.657	0.135	735314	keystroke_t	t	n/a
367.807	0.12	735614	keystroke_e	e	n/a
367.987	0.1055	735974	keystroke_Key.space	Key.space	n/a
368.4375	0.0445	736875	keystroke_c	c	n/a
368.587	0.165	737174	keystroke_a	a	n/a
368.797	0.106	737594	keystroke_r	r	n/a
369.082	0.121	738164	keystroke_l	l	n/a
369.323	0.119	738646	keystroke_o	o	n/a
369.607	0.12	739214	keystroke_Key.space	Key.space	n/a
369.952	0.106	739904	keystroke_c	c	n/a
370.043	0.075	740086	keystroke_o	o	n/a
370.2075	0.2545	740415	keystroke_m	m	n/a
371.183	0.1035	742366	keystroke_m	m	n/a
371.3775	0.105	742755	keystroke_e	e	n/a
371.5125	0.15	743025	keystroke_n	n	n/a
371.648	0.0895	743296	keystroke_t	t	n/a
371.7975	0.09	743595	keystroke_e	e	n/a
371.9925	0.1055	743985	keystroke_d	d	n/a
372.112	0.135	744224	keystroke_Key.space	Key.space	n/a
372.757	0.1355	745514	keystroke_o	o	n/a
374.137	0.061	748274	keystroke_c	c	n/a
374.3175	0.0605	748635	keystroke_c	c	n/a
374.497	0.076	748994	keystroke_a	a	n/a
374.678	0.0745	749356	keystroke_s	s	n/a
374.813	0.2245	749626	keystroke_i	i	n/a
374.9475	0.18	749895	keystroke_o	o	n/a
375.0675	0.1505	750135	keystroke_n	n	n/a
375.4575	0.12	750915	keystroke_Key.enter	Key.enter	n/a
375.5855	11.424	751171	prompt	n/a	soccer vocabulary constitutes acrylic\n
376.673	0.09	753346	keystroke_s	s	n/a
376.823	0.105	753646	keystroke_o	o	n/a
376.973	0.075	753946	keystroke_c	c	n/a
377.1665	0.061	754333	keystroke_c	c	n/a
377.3325	0.1655	754665	keystroke_e	e	n/a
377.4825	0.135	754965	keystroke_r	r	n/a
377.7675	0.105	755535	keystroke_Key.space	Key.space	n/a
378.6375	0.09	757275	keystroke_v	v	n/a
378.8025	0.15	757605	keystroke_o	o	n/a
378.9375	0.09	757875	keystroke_c	c	n/a
379.2375	0.12	758475	keystroke_a	a	n/a
380.348	0.0895	760696	keystroke_b	b	n/a
380.633	0.1345	761266	keystroke_u	u	n/a
380.903	0.12	761806	keystroke_l	l	n/a
381.023	0.18	762046	keystroke_a	a	n/a
381.172	0.151	762344	keystroke_r	r	n/a
381.398	0.105	762796	keystroke_y	y	n/a
381.787	0.1055	763574	keystroke_Key.space	Key.space	n/a
382.0875	0.1045	764175	keystroke_c	c	n/a
382.237	0.0755	764474	keystroke_o	o	n/a
382.4325	0.12	764865	keystroke_n	n	n/a
382.5825	0.06	765165	keystroke_s	s	n/a
382.808	0.105	765616	keystroke_t	t	n/a
383.0475	0.105	766095	keystroke_i	i	n/a
383.3025	0.075	766605	keystroke_t	t	n/a
383.498	0.105	766996	keystroke_u	u	n/a
383.7675	0.075	767535	keystroke_t	t	n/a
383.9325	0.09	767865	keystroke_e	e	n/a
384.1575	0.06	768315	keystroke_s	s	n/a
384.2625	0.105	768525	keystroke_Key.space	Key.space	n/a
384.4575	0.09	768915	keystroke_a	a	n/a
385.3125	0.09	770625	keystroke_c	c	n/a
385.6275	0.1205	771255	keystroke_r	r	n/a
385.7775	0.06	771555	keystroke_y	y	n/a
386.0025	0.12	772005	keystroke_l	l	n/a
386.273	0.1195	772546	keystroke_i	i	n/a
386.4675	0.09	772935	keystroke_c	c	n/a
386.9025	0.1045	773805	keystroke_Key.enter	Key.enter	n/a
387.0135	7.241	774027	prompt	n/a	ascii colin hostel depot\n
387.8775	0.09	775755	keystroke_a	a	n/a
388.1325	0.06	776265	keystroke_s	s	n/a
388.8075	0.105	777615	keystroke_c	c	n/a
389.018	0.0745	778036	keystroke_i	i	n/a
389.1825	0.06	778365	keystroke_i	i	n/a
389.498	0.0895	778996	keystroke_Key.space	Key.space	n/a
389.9475	0.12	779895	keystroke_c	c	n/a
390.4875	0.1205	780975	keystroke_o	o	n/a
390.8625	0.06	781725	keystroke_l	l	n/a
391.0425	0.105	782085	keystroke_i	i	n/a
391.2525	0.09	782505	keystroke_n	n	n/a
391.4615	0.106	782923	keystroke_Key.space	Key.space	n/a
391.8825	0.09	783765	keystroke_h	h	n/a
392.093	0.1345	784186	keystroke_o	o	n/a
392.1525	0.1355	784305	keystroke_s	s	n/a
392.407	0.1055	784814	keystroke_t	t	n/a
392.5725	0.105	785145	keystroke_e	e	n/a
392.7375	0.15	785475	keystroke_l	l	n/a
393.007	0.121	786014	keystroke_Key.space	Key.space	n/a
393.278	0.014	786556	keystroke_d	d	n/a
393.398	0.12	786796	keystroke_e	e	n/a
393.5625	0.0905	787125	keystroke_p	p	n/a
393.698	0.1495	787396	keystroke_o	o	n/a
393.8325	0.09	787665	keystroke_t	t	n/a
394.1325	0.12	788265	keystroke_Key.enter	Key.enter	n/a
394.2585	9.131	788517	prompt	n/a	principles glad zinc expression\n
395.3025	0.0305	790605	keystroke_p	p	n/a
395.708	0.0745	791416	keystroke_r	r	n/a
395.8275	0.104	791655	keystroke_i	i	n/a
396.023	0.1345	792046	keystroke_n	n	n/a
396.2175	0.12	792435	keystroke_c	c	n/a
396.3825	0.1505	792765	keystroke_i	i	n/a
396.6225	0.0905	793245	keystroke_p	p	n/a
396.8475	0.12	793695	keystroke_l	l	n/a
396.9375	0.0755	793875	keystroke_e	e	n/a
397.1625	0.1055	794325	keystroke_s	s	n/a
397.282	0.12	794564	keystroke_Key.space	Key.space	n/a
397.463	0.119	794926	keystroke_g	g	n/a
397.703	0.165	795406	keystroke_l	l	n/a
397.823	0.0895	795646	keystroke_a	a	n/a
397.9875	0.15	795975	keystroke_d	d	n/a
398.2125	0.105	796425	keystroke_Key.space	Key.space	n/a
399.2925	0.15	798585	keystroke_z	z	n/a
399.4275	0.105	798855	keystroke_i	i	n/a
399.8325	0.09	799665	keystroke_n	n	n/a
399.9825	0.09	799965	keystroke_c	c	n/a
400.387	0.1055	800774	keystroke_Key.space	Key.space	n/a
400.8075	0.1055	801615	keystroke_e	e	n/a
401.167	0.1055	802334	keystroke_x	x	n/a
401.753	0.119	803506	keystroke_p	p	n/a
401.978	0.059	803956	keystroke_r	r	n/a
402.142	0.061	804284	keystroke_e	e	n/a
402.337	0.0755	804674	keystroke_s	s	n/a
402.503	0.1195	805006	keystroke_s	s	n/a
402.578	0.2245	805156	keystroke_i	i	n/a
402.7425	0.165	805485	keystroke_o	o	n/a
402.8025	0.1805	805605	keystroke_n	n	n/a
403.2675	0.12	806535	keystroke_Key.enter	Key.enter	n/a
403.393	6.641	806786	prompt	n/a	rule watershed similar vice\n
404.588	0.0895	809176	keystroke_r	r	n/a
404.7375	0.09	809475	keystroke_u	u	n/a
404.933	0.1195	809866	keystroke_l	l	n/a
405.0375	0.06	810075	keystroke_e	e	n/a
405.2475	0.1045	810495	keystroke_Key.space	Key.space	n/a
405.622	0.136	811244	keystroke_w	w	n/a
406.012	0.015	812024	keystroke_a	a	n/a
406.0425	0.0895	812085	keystroke_t	t	n/a
406.192	0.135	812384	keystroke_e	e	n/a
406.2975	0.1045	812595	keystroke_r	r	n/a
406.582	0.106	813164	keystroke_s	s	n/a
406.7175	0.165	813435	keystroke_h	h	n/a
406.883	0.1045	813766	keystroke_e	e	n/a
407.1075	0.09	814215	keystroke_d	d	n/a
407.2275	0.105	814455	keystroke_Key.space	Key.space	n/a
407.4525	0.1655	814905	keystroke_s	s	n/a
407.5875	0.1055	815175	keystroke_i	i	n/a
407.767	0.1055	815534	keystroke_m	m	n/a
407.948	0.0895	815896	keystroke_i	i	n/a
408.113	0.1345	816226	keystroke_l	l	n/a
408.1875	0.1805	816375	keystroke_a	a	n/a
408.3825	0.105	816765	keystroke_r	r	n/a
408.5325	0.09	817065	keystroke_Key.space	Key.space	n/a
409.1925	0.18	818385	keystroke_v	v	n/a
409.3875	0.015	818775	keystroke_i	i	n/a
409.4475	0.0905	818895	keystroke_c	c	n/a
409.7175	0.1355	819435	keystroke_e	e	n/a
409.928	0.1045	819856	keystroke_Key.enter	Key.enter	n/a
410.0375	10.287	820075	prompt	n/a	representatives spyware tool roll\n
411.0825	0.09	822165	keystroke_r	r	n/a
411.157	0.135	822314	keystroke_e	e	n/a
411.3225	0.135	822645	keystroke_p	p	n/a
411.502	0.1655	823004	keystroke_r	r	n/a
411.5925	0.12	823185	keystroke_e	e	n/a
411.8475	0.1355	823695	keystroke_s	s	n/a
413.812	0.046	827624	keystroke_e	e	n/a
413.963	0.105	827926	keystroke_n	n	n/a
414.113	0.09	828226	keystroke_t	t	n/a
414.353	0.1195	828706	keystroke_a	a	n/a
414.533	0.09	829066	keystroke_t	t	n/a
414.683	0.1355	829366	keystroke_i	i	n/a
414.892	0.091	829784	keystroke_v	v	n/a
415.087	0.091	830174	keystroke_e	e	n/a
415.312	0.091	830624	keystroke_s	s	n/a
415.447	0.0755	830894	keystroke_Key.space	Key.space	n/a
415.672	0.106	831344	keystroke_s	s	n/a
415.823	0.105	831646	keystroke_p	p	n/a
416.1825	0.135	832365	keystroke_y	y	n/a
416.4975	0.075	832995	keystroke_w	w	n/a
416.6775	0.12	833355	keystroke_a	a	n/a
416.8275	0.165	833655	keystroke_r	r	n/a
416.9175	0.135	833835	keystroke_e	e	n/a
417.1125	0.105	834225	keystroke_Key.space	Key.space	n/a
417.397	0.06	834794	keystroke_t	t	n/a
417.563	0.0895	835126	keystroke_o	o	n/a
417.7275	0.0745	835455	keystroke_o	o	n/a
417.937	0.09	835874	keystroke_l	l	n/a
418.372	0.105	836744	keystroke_Key.space	Key.space	n/a
418.5825	0.0605	837165	keystroke_r	r	n/a
418.7325	0.12	837465	keystroke_o	o	n/a
418.9575	0.09	837915	keystroke_l	l	n/a
419.7525	0.015	839505	keystroke_l	l	n/a
420.1875	0.134	840375	keystroke_Key.enter	Key.enter	n/a
420.3285	7.9615	840657	prompt	n/a	tumor regulatory hurt candle\n
421.988	0.015	843976	keystroke_t	t	n/a
422.078	0.075	844156	keystroke_u	u	n/a
422.287	0.12	844574	keystroke_m	m	n/a
422.528	0.104	845056	keystroke_o	o	n/a
422.6625	0.0895	845325	keystroke_r	r	n/a
423.127	0.12	846254	keystroke_Key.space	Key.space	n/a
423.472	0.151	846944	keystroke_r	r	n/a
423.6375	0.105	847275	keystroke_e	e	n/a
423.878	0.1045	847756	keystroke_g	g	n/a
424.027	0.076	848054	keystroke_u	u	n/a
424.2075	0.15	848415	keystroke_l	l	n/a
424.3125	0.15	848625	keystroke_a	a	n/a
424.5225	0.105	849045	keystroke_t	t	n/a
424.643	0.1045	849286	keystroke_o	o	n/a
424.793	0.0895	849586	keystroke_r	r	n/a
425.0475	0.1055	850095	keystroke_y	y	n/a
425.4825	0.09	850965	keystroke_Key.space	Key.space	n/a
425.7525	0.09	851505	keystroke_h	h	n/a
425.8875	0.12	851775	keystroke_u	u	n/a
426.0225	0.105	852045	keystroke_r	r	n/a
426.233	0.0895	852466	keystroke_t	t	n/a
426.4575	0.105	852915	keystroke_Key.space	Key.space	n/a
427.1625	0.09	854325	keystroke_c	c	n/a
427.3575	0.105	854715	keystroke_a	a	n/a
427.4775	0.135	854955	keystroke_n	n	n/a
427.6425	0.105	855285	keystroke_d	d	n/a
427.7775	0.15	855555	keystroke_l	l	n/a
427.943	0.1345	855886	keystroke_e	e	n/a
428.1675	0.12	856335	keystroke_Key.enter	Key.enter	n/a
428.2945	11.4095	856589	prompt	n/a	believed possibility beam courtesy\n
429.2625	0.1045	858525	keystroke_b	b	n/a
429.4125	0.0595	858825	keystroke_e	e	n/a
429.5325	0.1045	859065	keystroke_l	l	n/a
429.9525	0.1505	859905	keystroke_i	i	n/a
430.028	0.1195	860056	keystroke_e	e	n/a
430.2825	0.015	860565	keystroke_v	v	n/a
430.3425	0.06	860685	keystroke_v	v	n/a
430.4775	0.105	860955	keystroke_e	e	n/a
430.718	0.0895	861436	keystroke_d	d	n/a
430.8365	0.121	861673	keystroke_Key.space	Key.space	n/a
431.093	0.1195	862186	keystroke_p	p	n/a
431.677	0.09	863354	keystroke_Key.backspace	Key.backspace	n/a
431.872	0.09	863744	keystroke_Key.backspace	Key.backspace	n/a
432.0375	0.1045	864075	keystroke_Key.backspace	Key.backspace	n/a
432.217	0.0755	864434	keystroke_Key.backspace	Key.backspace	n/a
432.352	0.105	864704	keystroke_Key.backspace	Key.backspace	n/a
432.458	0.089	864916	keystroke_e	e	n/a
432.6525	0.1045	865305	keystroke_d	d	n/a
432.772	0.075	865544	keystroke_Key.space	Key.space	n/a
433.0875	0.1055	866175	keystroke_p	p	n/a
433.252	0.12	866504	keystroke_o	o	n/a
433.3875	0.0905	866775	keystroke_s	s	n/a
433.552	0.15	867104	keystroke_s	s	n/a
433.6125	0.1045	867225	keystroke_i	i	n/a
433.8225	0.075	867645	keystroke_b	b	n/a
434.0175	0.105	868035	keystroke_i	i	n/a
434.213	0.0895	868426	keystroke_l	l	n/a
434.332	0.1655	868664	keystroke_i	i	n/a
434.8425	0.0755	869685	keystroke_t	t	n/a
435.0525	0.06	870105	keystroke_y	y	n/a
435.2325	0.135	870465	keystroke_Key.space	Key.space	n/a
436.163	0.0895	872326	keystroke_b	b	n/a
436.268	0.0895	872536	keystroke_e	e	n/a
436.4625	0.1055	872925	keystroke_a	a	n/a
436.583	0.0895	873166	keystroke_m	m	n/a
436.7775	0.0745	873555	keystroke_Key.space	Key.space	n/a
437.107	0.1055	874214	keystroke_c	c	n/a
437.197	0.0455	874394	keystroke_o	o	n/a
438.293	0.075	876586	keystroke_u	u	n/a
438.398	0.1045	876796	keystroke_r	r	n/a
438.6065	0.075	877213	keystroke_t	t	n/a
438.788	0.09	877576	keystroke_e	e	n/a
438.998	0.104	877996	keystroke_s	s	n/a
439.208	0.1345	878416	keystroke_y	y	n/a
439.6125	0.0895	879225	keystroke_Key.enter	Key.enter	n/a
439.708	8.8165	879416	prompt	n/a	but dame marco programmers\n
440.903	0.12	881806	keystroke_b	b	n/a
441.1125	0.0895	882225	keystroke_u	u	n/a
441.2325	0.075	882465	keystroke_t	t	n/a
441.4425	0.09	882885	keystroke_Key.space	Key.space	n/a
441.6825	0.0905	883365	keystroke_d	d	n/a
441.877	0.135	883754	keystroke_a	a	n/a
441.983	0.1045	883966	keystroke_m	m	n/a
442.1325	0.105	884265	keystroke_e	e	n/a
442.2975	0.105	884595	keystroke_Key.space	Key.space	n/a
442.958	0.1195	885916	keystroke_m	m	n/a
443.0625	0.12	886125	keystroke_a	a	n/a
443.2275	0.075	886455	keystroke_r	r	n/a
443.5575	0.1205	887115	keystroke_c	c	n/a
443.6625	0.09	887325	keystroke_o	o	n/a
443.8875	0.12	887775	keystroke_Key.space	Key.space	n/a
444.9825	0.1195	889965	keystroke_p	p	n/a
445.1625	0.0895	890325	keystroke_r	r	n/a
445.3125	0.105	890625	keystroke_o	o	n/a
445.477	0.0605	890954	keystroke_g	g	n/a
446.9325	0.075	893865	keystroke_r	r	n/a
447.383	0.1345	894766	keystroke_a	a	n/a
447.5775	0.06	895155	keystroke_m	m	n/a
447.772	0.1205	895544	keystroke_m	m	n/a
447.847	0.165	895694	keystroke_e	e	n/a
447.982	0.09	895964	keystroke_r	r	n/a
448.222	0.105	896444	keystroke_s	s	n/a
448.402	0.12	896804	keystroke_Key.enter	Key.enter	n/a
448.5275	13.9465	897055	prompt	n/a	contributors agencies beast helmet\n
449.4375	0.1355	898875	keystroke_c	c	n/a
449.588	0.0895	899176	keystroke_o	o	n/a
449.782	0.136	899564	keystroke_n	n	n/a
449.887	0.106	899774	keystroke_t	t	n/a
450.083	0.105	900166	keystroke_r	r	n/a
451.193	0.09	902386	keystroke_i	i	n/a
451.4475	0.12	902895	keystroke_b	b	n/a
451.6725	0.12	903345	keystroke_u	u	n/a
451.8075	0.075	903615	keystroke_t	t	n/a
452.3625	0.105	904725	keystroke_o	o	n/a
452.4225	0.09	904845	keystroke_r	r	n/a
452.6475	0.12	905295	keystroke_s	s	n/a
452.8125	0.105	905625	keystroke_Key.space	Key.space	n/a
452.9325	0.09	905865	keystroke_a	a	n/a
453.1125	0.0755	906225	keystroke_g	g	n/a
453.2475	0.09	906495	keystroke_e	e	n/a
453.3675	0.12	906735	keystroke_n	n	n/a
453.5925	0.12	907185	keystroke_c	c	n/a
454.4925	0.105	908985	keystroke_Key.backspace	Key.backspace	n/a
454.8975	0.0895	909795	keystroke_g	g	n/a
455.6625	0.105	911325	keystroke_Key.backspace	Key.backspace	n/a
456.0975	0.0905	912195	keystroke_c	c	n/a
456.2325	0.12	912465	keystroke_i	i	n/a
456.3815	0.091	912763	keystroke_e	e	n/a
456.5925	0.105	913185	keystroke_s	s	n/a
459.3695	0.013	918739	keystroke_Key.space	Key.space	n/a
459.5175	0.15	919035	keystroke_b	b	n/a
459.6525	0.09	919305	keystroke_e	e	n/a
459.8475	0.105	919695	keystroke_a	a	n/a
459.9225	0.1345	919845	keystroke_s	s	n/a
460.1925	0.09	920385	keystroke_t	t	n/a
460.3425	0.1045	920685	keystroke_Key.space	Key.space	n/a
460.957	0.12	921914	keystroke_h	h	n/a
461.122	0.105	922244	keystroke_e	e	n/a
461.5125	0.06	923025	keystroke_l	l	n/a
461.6925	0.106	923385	keystroke_m	m	n/a
461.7525	0.105	923505	keystroke_e	e	n/a
461.9325	0.1055	923865	keystroke_t	t	n/a
462.3675	0.1045	924735	keystroke_Key.enter	Key.enter	n/a
462.478	9.343	924956	prompt	n/a	troubleshooting many toxic biodiversity\n
463.2675	0.1055	926535	keystroke_t	t	n/a
463.507	0.075	927014	keystroke_r	r	n/a
463.6425	0.1805	927285	keystroke_o	o	n/a
463.7175	0.12	927435	keystroke_u	u	n/a
463.9575	0.0905	927915	keystroke_b	b	n/a
464.153	0.105	928306	keystroke_l	l	n/a
464.258	0.074	928516	keystroke_e	e	n/a
464.453	0.15	928906	keystroke_s	s	n/a
464.573	0.0895	929146	keystroke_h	h	n/a
464.7675	0.0755	929535	keystroke_o	o	n/a
464.903	0.1045	929806	keystroke_o	o	n/a
464.9925	0.12	929985	keystroke_t	t	n/a
465.157	0.18	930314	keystroke_i	i	n/a
465.277	0.0905	930554	keystroke_n	n	n/a
465.3535	0.0745	930707	keystroke_g	g	n/a
465.488	0.104	930976	keystroke_Key.space	Key.space	n/a
465.713	0.0745	931426	keystroke_m	m	n/a
465.877	0.106	931754	keystroke_a	a	n/a
465.953	0.134	931906	keystroke_n	n	n/a
466.148	0.09	932296	keystroke_y	y	n/a
466.3425	0.09	932685	keystroke_Key.space	Key.space	n/a
466.5675	0.0145	933135	keystroke_y	y	n/a
467.182	0.121	934364	keystroke_Key.backspace	Key.backspace	n/a
467.333	0.0595	934666	keystroke_t	t	n/a
467.723	0.09	935446	keystroke_o	o	n/a
468.0825	0.105	936165	keystroke_x	x	n/a
468.2325	0.105	936465	keystroke_i	i	n/a
468.458	0.1045	936916	keystroke_c	c	n/a
468.6675	0.09	937335	keystroke_Key.space	Key.space	n/a
469.837	0.0755	939674	keystroke_b	b	n/a
470.0175	0.2255	940035	keystroke_i	i	n/a
470.1675	0.1355	940335	keystroke_o	o	n/a
470.377	0.091	940754	keystroke_d	d	n/a
470.512	0.135	941024	keystroke_i	i	n/a
470.588	0.1045	941176	keystroke_v	v	n/a
470.813	0.15	941626	keystroke_e	e	n/a
470.902	0.1055	941804	keystroke_r	r	n/a
471.113	0.075	942226	keystroke_s	s	n/a
471.232	0.1365	942464	keystroke_i	i	n/a
471.3525	0.09	942705	keystroke_t	t	n/a
471.578	0.0445	943156	keystroke_y	y	n/a
471.6975	0.12	943395	keystroke_Key.enter	Key.enter	n/a
471.824	6.911	943648	prompt	n/a	lands thirty code screensaver\n
472.778	0.0595	945556	keystroke_l	l	n/a
472.9125	0.105	945825	keystroke_a	a	n/a
473.0325	0.12	946065	keystroke_n	n	n/a
473.1975	0.105	946395	keystroke_d	d	n/a
473.4225	0.1055	946845	keystroke_s	s	n/a
473.618	0.0895	947236	keystroke_Key.space	Key.space	n/a
473.7825	0.09	947565	keystroke_t	t	n/a
473.8725	0.1055	947745	keystroke_h	h	n/a
474.0225	0.1655	948045	keystroke_i	i	n/a
474.143	0.1045	948286	keystroke_r	r	n/a
474.3675	0.075	948735	keystroke_t	t	n/a
474.5635	0.074	949127	keystroke_y	y	n/a
474.7425	0.09	949485	keystroke_Key.space	Key.space	n/a
474.9975	0.105	949995	keystroke_c	c	n/a
475.133	0.1195	950266	keystroke_o	o	n/a
475.2525	0.075	950505	keystroke_d	d	n/a
475.448	0.135	950896	keystroke_e	e	n/a
475.5975	0.0905	951195	keystroke_Key.space	Key.space	n/a
476.063	0.075	952126	keystroke_s	s	n/a
476.2425	0.12	952485	keystroke_c	c	n/a
476.513	0.105	953026	keystroke_r	r	n/a
476.678	0.06	953356	keystroke_e	e	n/a
476.827	0.09	953654	keystroke_e	e	n/a
476.947	0.0915	953894	keystroke_n	n	n/a
477.5175	0.0745	955035	keystroke_s	s	n/a
477.7135	0.0745	955427	keystroke_a	a	n/a
477.9075	0.09	955815	keystroke_v	v	n/a
478.2975	0.15	956595	keystroke_e	e	n/a
478.4025	0.12	956805	keystroke_r	r	n/a
478.6425	0.09	957285	keystroke_Key.enter	Key.enter	n/a
478.7405	7.3895	957481	prompt	n/a	reflect crew span celebration\n
479.948	0.135	959896	keystroke_r	r	n/a
480.053	0.06	960106	keystroke_e	e	n/a
480.248	0.076	960496	keystroke_f	f	n/a
480.398	0.09	960796	keystroke_l	l	n/a
480.4275	0.075	960855	keystroke_e	e	n/a
480.578	0.105	961156	keystroke_c	c	n/a
480.863	0.1345	961726	keystroke_t	t	n/a
481.088	0.09	962176	keystroke_Key.space	Key.space	n/a
481.4475	0.12	962895	keystroke_c	c	n/a
481.7475	0.165	963495	keystroke_r	r	n/a
481.8525	0.2705	963705	keystroke_e	e	n/a
482.033	0.179	964066	keystroke_w	w	n/a
482.348	0.1045	964696	keystroke_Key.space	Key.space	n/a
482.7535	0.1045	965507	keystroke_s	s	n/a
482.9025	0.1055	965805	keystroke_p	p	n/a
482.978	0.1345	965956	keystroke_a	a	n/a
483.1725	0.12	966345	keystroke_n	n	n/a
483.4125	0.12	966825	keystroke_Key.space	Key.space	n/a
483.893	0.105	967786	keystroke_c	c	n/a
484.073	0.12	968146	keystroke_e	e	n/a
484.194	0.149	968388	keystroke_l	l	n/a
484.328	0.075	968656	keystroke_e	e	n/a
484.793	0.12	969586	keystroke_b	b	n/a
484.898	0.09	969796	keystroke_r	r	n/a
485.078	0.195	970156	keystroke_a	a	n/a
485.258	0.15	970516	keystroke_t	t	n/a
485.333	0.255	970666	keystroke_i	i	n/a
485.438	0.195	970876	keystroke_o	o	n/a
485.528	0.18	971056	keystroke_n	n	n/a
486.0075	0.12	972015	keystroke_Key.enter	Key.enter	n/a
486.1335	16.091	972267	prompt	n/a	production mega chubby prediction\n
487.0425	0.105	974085	keystroke_p	p	n/a
487.1925	0.06	974385	keystroke_r	r	n/a
487.358	0.105	974716	keystroke_o	o	n/a
487.4925	0.105	974985	keystroke_d	d	n/a
487.688	0.12	975376	keystroke_c	c	n/a
487.8675	0.075	975735	keystroke_u	u	n/a
488.003	0.1045	976006	keystroke_t	t	n/a
488.1075	0.21	976215	keystroke_i	i	n/a
488.1975	0.1805	976395	keystroke_o	o	n/a
488.288	0.1045	976576	keystroke_n	n	n/a
488.5135	0.1045	977027	keystroke_Key.space	Key.space	n/a
489.278	0.105	978556	keystroke_Key.backspace	Key.backspace	n/a
489.5175	0.045	979035	keystroke_Key.backspace	Key.backspace	n/a
489.6675	0.09	979335	keystroke_Key.backspace	Key.backspace	n/a
489.9075	0.015	979815	keystroke_Key.backspace	Key.backspace	n/a
490.012	0.091	980024	keystroke_Key.backspace	Key.backspace	n/a
490.178	0.104	980356	keystroke_Key.backspace	Key.backspace	n/a
490.747	0.076	981494	keystroke_Key.backspace	Key.backspace	n/a
491.258	0.0895	982516	keystroke_u	u	n/a
491.378	0.0895	982756	keystroke_c	c	n/a
491.6475	0.105	983295	keystroke_t	t	n/a
491.7825	0.1955	983565	keystroke_i	i	n/a
491.888	0.165	983776	keystroke_o	o	n/a
491.9925	0.12	983985	keystroke_n	n	n/a
492.2925	0.105	984585	keystroke_Key.space	Key.space	n/a
492.488	0.1045	984976	keystroke_m	m	n/a
492.578	0.0895	985156	keystroke_e	e	n/a
492.7425	0.09	985485	keystroke_g	g	n/a
492.9675	0.1205	985935	keystroke_a	a	n/a
493.1625	0.105	986325	keystroke_Key.space	Key.space	n/a
493.763	0.1045	987526	keystroke_c	c	n/a
493.928	0.1195	987856	keystroke_h	h	n/a
494.1075	0.09	988215	keystroke_i	i	n/a
494.303	0.0745	988606	keystroke_b	b	n/a
494.4675	0.1205	988935	keystroke_b	b	n/a
494.663	0.0895	989326	keystroke_y	y	n/a
494.9925	0.09	989985	keystroke_Key.backspace	Key.backspace	n/a
495.1725	0.09	990345	keystroke_Key.backspace	Key.backspace	n/a
495.338	0.09	990676	keystroke_Key.backspace	Key.backspace	n/a
495.503	0.105	991006	keystroke_Key.backspace	Key.backspace	n/a
496.328	0.075	992656	keystroke_u	u	n/a
496.583	0.045	993166	keystroke_b	b	n/a
496.718	0.105	993436	keystroke_b	b	n/a
496.883	0.105	993766	keystroke_y	y	n/a
497.093	0.105	994186	keystroke_Key.space	Key.space	n/a
497.783	0.0745	995566	keystroke_p	p	n/a
497.903	0.1495	995806	keystroke_r	r	n/a
498.0225	0.1055	996045	keystroke_e	e	n/a
498.2325	0.1205	996465	keystroke_d	d	n/a
498.368	0.0595	996736	keystroke_i	i	n/a
498.383	0.03	996766	keystroke_u	u	n/a
498.518	0.1045	997036	keystroke_c	c	n/a
498.923	0.075	997846	keystroke_Key.backspace	Key.backspace	n/a
499.088	0.075	998176	keystroke_Key.backspace	Key.backspace	n/a
499.2675	0.06	998535	keystroke_Key.backspace	Key.backspace	n/a
499.403	0.0895	998806	keystroke_c	c	n/a
500.0175	0.12	1000035	keystroke_Key.backspace	Key.backspace	n/a
500.7075	0.0755	1001415	keystroke_i	i	n/a
500.8425	0.135	1001685	keystroke_c	c	n/a
501.1425	0.075	1002285	keystroke_t	t	n/a
501.233	0.2095	1002466	keystroke_i	i	n/a
501.3675	0.165	1002735	keystroke_o	o	n/a
501.4725	0.1655	1002945	keystroke_n	n	n/a
502.1025	0.1205	1004205	keystroke_Key.enter	Key.enter	n/a
502.2275	7.1375	1004455	prompt	n/a	the naval senegal chief\n
503.1375	0.106	1006275	keystroke_t	t	n/a
503.288	0.1195	1006576	keystroke_h	h	n/a
503.3925	0.075	1006785	keystroke_e	e	n/a
503.528	0.105	1007056	keystroke_Key.space	Key.space	n/a
503.768	0.075	1007536	keystroke_n	n	n/a
503.948	0.105	1007896	keystroke_a	a	n/a
504.1575	0.1055	1008315	keystroke_v	v	n/a
504.3675	0.105	1008735	keystroke_a	a	n/a
504.488	0.09	1008976	keystroke_l	l	n/a
504.713	0.12	1009426	keystroke_Key.space	Key.space	n/a
505.0725	0.0905	1010145	keystroke_s	s	n/a
505.283	0.104	1010566	keystroke_e	e	n/a
505.418	0.12	1010836	keystroke_n	n	n/a
505.5525	0.075	1011105	keystroke_e	e	n/a
505.688	0.105	1011376	keystroke_g	g	n/a
505.9135	0.119	1011827	keystroke_a	a	n/a
506.0475	0.0755	1012095	keystroke_l	l	n/a
506.2725	0.1055	1012545	keystroke_Key.space	Key.space	n/a
507.8175	0.135	1015635	keystroke_c	c	n/a
507.9675	0.075	1015935	keystroke_h	h	n/a
508.643	0.105	1017286	keystroke_i	i	n/a
508.733	0.105	1017466	keystroke_e	e	n/a
509.018	0.12	1018036	keystroke_f	f	n/a
509.258	0.105	1018516	keystroke_Key.enter	Key.enter	n/a
509.369	9.205	1018738	prompt	n/a	morrison depot tripadvisor painting\n
510.263	0.12	1020526	keystroke_m	m	n/a
510.458	0.0895	1020916	keystroke_o	o	n/a
510.563	0.21	1021126	keystroke_r	r	n/a
511.0725	0.0755	1022145	keystroke_r	r	n/a
511.373	0.09	1022746	keystroke_i	i	n/a
511.508	0.1355	1023016	keystroke_s	s	n/a
511.8225	0.1355	1023645	keystroke_o	o	n/a
512.078	0.12	1024156	keystroke_n	n	n/a
512.378	0.12	1024756	keystroke_Key.space	Key.space	n/a
512.963	0.105	1025926	keystroke_d	d	n/a
513.188	0.135	1026376	keystroke_e	e	n/a
513.293	0.09	1026586	keystroke_p	p	n/a
513.4585	0.0745	1026917	keystroke_t	t	n/a
513.638	0.12	1027276	keystroke_Key.space	Key.space	n/a
514.6725	0.0605	1029345	keystroke_t	t	n/a
514.853	0.0605	1029706	keystroke_r	r	n/a
515.0475	0.105	1030095	keystroke_i	i	n/a
515.228	0.1055	1030456	keystroke_p	p	n/a
515.363	0.0905	1030726	keystroke_a	a	n/a
515.558	0.105	1031116	keystroke_d	d	n/a
515.798	0.075	1031596	keystroke_v	v	n/a
515.9335	0.119	1031867	keystroke_i	i	n/a
516.0675	0.105	1032135	keystroke_s	s	n/a
516.2175	0.12	1032435	keystroke_o	o	n/a
516.3825	0.09	1032765	keystroke_r	r	n/a
516.608	0.0745	1033216	keystroke_Key.space	Key.space	n/a
516.8775	0.0755	1033755	keystroke_p	p	n/a
516.9835	0.134	1033967	keystroke_a	a	n/a
517.1625	0.0905	1034325	keystroke_i	i	n/a
517.3875	0.135	1034775	keystroke_n	n	n/a
517.5375	0.1205	1035075	keystroke_t	t	n/a
517.793	0.0905	1035586	keystroke_i	i	n/a
517.868	0.15	1035736	keystroke_n	n	n/a
518.168	0.09	1036336	keystroke_g	g	n/a
518.453	0.119	1036906	keystroke_Key.enter	Key.enter	n/a
518.5775	7.3765	1037155	prompt	n/a	hazards rings astronomy roman\n
519.668	0.1345	1039336	keystroke_h	h	n/a
519.772	0.091	1039544	keystroke_a	a	n/a
520.0125	0.1055	1040025	keystroke_z	z	n/a
520.252	0.151	1040504	keystroke_a	a	n/a
520.4185	0.0595	1040837	keystroke_r	r	n/a
520.627	0.091	1041254	keystroke_d	d	n/a
520.853	0.104	1041706	keystroke_s	s	n/a
520.972	0.136	1041944	keystroke_Key.space	Key.space	n/a
521.213	0.075	1042426	keystroke_r	r	n/a
521.303	0.111	1042606	keystroke_i	i	n/a
521.483	0.165	1042966	keystroke_n	n	n/a
521.558	0.075	1043116	keystroke_g	g	n/a
521.783	0.105	1043566	keystroke_s	s	n/a
521.933	0.105	1043866	keystroke_Key.space	Key.space	n/a
522.203	0.105	1044406	keystroke_a	a	n/a
522.428	0.075	1044856	keystroke_s	s	n/a
522.7275	0.0455	1045455	keystroke_t	t	n/a
522.893	0.09	1045786	keystroke_r	r	n/a
523.043	0.059	1046086	keystroke_o	o	n/a
523.223	0.105	1046446	keystroke_n	n	n/a
523.433	0.089	1046866	keystroke_o	o	n/a
523.597	0.136	1047194	keystroke_m	m	n/a
523.7625	0.1055	1047525	keystroke_y	y	n/a
524.393	0.1195	1048786	keystroke_Key.space	Key.space	n/a
524.738	0.1045	1049476	keystroke_r	r	n/a
524.8575	0.165	1049715	keystroke_o	o	n/a
524.9925	0.15	1049985	keystroke_m	m	n/a
525.1575	0.105	1050315	keystroke_a	a	n/a
525.2925	0.105	1050585	keystroke_n	n	n/a
525.8475	0.105	1051695	keystroke_Key.enter	Key.enter	n/a
525.957	6.763	1051914	prompt	n/a	climbing leading enough check\n
527.1225	0.09	1054245	keystroke_c	c	n/a
527.2425	0.075	1054485	keystroke_l	l	n/a
527.4675	0.105	1054935	keystroke_i	i	n/a
527.663	0.1045	1055326	keystroke_m	m	n/a
527.8875	0.0605	1055775	keystroke_b	b	n/a
528.0375	0.1955	1056075	keystroke_i	i	n/a
528.233	0.1345	1056466	keystroke_n	n	n/a
528.398	0.075	1056796	keystroke_g	g	n/a
528.6225	0.105	1057245	keystroke_Key.space	Key.space	n/a
528.923	0.0895	1057846	keystroke_l	l	n/a
528.998	0.1045	1057996	keystroke_e	e	n/a
529.1625	0.135	1058325	keystroke_a	a	n/a
529.3425	0.135	1058685	keystroke_d	d	n/a
529.4625	0.165	1058925	keystroke_i	i	n/a
529.5525	0.135	1059105	keystroke_n	n	n/a
529.6875	0.105	1059375	keystroke_g	g	n/a
529.8825	0.135	1059765	keystroke_Key.space	Key.space	n/a
530.2125	0.135	1060425	keystroke_e	e	n/a
530.3925	0.12	1060785	keystroke_n	n	n/a
530.5875	0.1655	1061175	keystroke_o	o	n/a
530.6925	0.12	1061385	keystroke_u	u	n/a
530.8425	0.0905	1061685	keystroke_g	g	n/a
531.098	0.015	1062196	keystroke_h	h	n/a
531.323	0.15	1062646	keystroke_Key.space	Key.space	n/a
531.683	0.089	1063366	keystroke_c	c	n/a
531.8475	0.1195	1063695	keystroke_h	h	n/a
531.9375	0.121	1063875	keystroke_e	e	n/a
532.0725	0.1505	1064145	keystroke_c	c	n/a
532.223	0.12	1064446	keystroke_k	k	n/a
532.6125	0.1055	1065225	keystroke_Key.enter	Key.enter	n/a
532.724	8.6365	1065448	prompt	n/a	potential here framework computational\n
533.7375	0.0605	1067475	keystroke_p	p	n/a
534.0975	0.091	1068195	keystroke_o	o	n/a
534.2625	0.075	1068525	keystroke_t	t	n/a
534.4425	0.12	1068885	keystroke_e	e	n/a
534.5925	0.1055	1069185	keystroke_n	n	n/a
534.773	0.0745	1069546	keystroke_t	t	n/a
534.9075	0.105	1069815	keystroke_i	i	n/a
535.0575	0.12	1070115	keystroke_a	a	n/a
535.1785	0.1195	1070357	keystroke_l	l	n/a
535.4925	0.1055	1070985	keystroke_Key.space	Key.space	n/a
535.7625	0.1055	1071525	keystroke_h	h	n/a
535.898	0.135	1071796	keystroke_e	e	n/a
536.018	0.165	1072036	keystroke_r	r	n/a
536.123	0.105	1072246	keystroke_e	e	n/a
536.288	0.104	1072576	keystroke_Key.space	Key.space	n/a
536.858	0.075	1073716	keystroke_f	f	n/a
537.0675	0.075	1074135	keystroke_r	r	n/a
537.2175	0.166	1074435	keystroke_a	a	n/a
537.4725	0.12	1074945	keystroke_m	m	n/a
537.6835	0.059	1075367	keystroke_e	e	n/a
538.0425	0.091	1076085	keystroke_w	w	n/a
538.1625	0.1355	1076325	keystroke_o	o	n/a
538.3125	0.075	1076625	keystroke_r	r	n/a
538.5075	0.06	1077015	keystroke_k	k	n/a
538.7625	0.105	1077525	keystroke_Key.space	Key.space	n/a
539.2435	0.104	1078487	keystroke_c	c	n/a
539.3335	0.074	1078667	keystroke_o	o	n/a
539.5135	0.119	1079027	keystroke_m	m	n/a
539.6925	0.1055	1079385	keystroke_p	p	n/a
539.9025	0.105	1079805	keystroke_u	u	n/a
540.0525	0.06	1080105	keystroke_t	t	n/a
540.2175	0.135	1080435	keystroke_a	a	n/a
540.3975	0.106	1080795	keystroke_t	t	n/a
540.4875	0.2255	1080975	keystroke_i	i	n/a
540.6235	0.1495	1081247	keystroke_o	o	n/a
540.698	0.135	1081396	keystroke_n	n	n/a
540.848	0.1355	1081696	keystroke_a	a	n/a
540.9535	0.134	1081907	keystroke_l	l	n/a
541.2375	0.1205	1082475	keystroke_Key.enter	Key.enter	n/a
541.3645	8.2	1082729	prompt	n/a	liberia agrees exceed ferrari\n
542.0775	0.091	1084155	keystroke_l	l	n/a
542.243	0.12	1084486	keystroke_i	i	n/a
542.453	0.119	1084906	keystroke_b	b	n/a
542.543	0.1505	1085086	keystroke_e	e	n/a
542.6625	0.106	1085325	keystroke_r	r	n/a
542.903	0.1205	1085806	keystroke_i	i	n/a
543.0675	0.105	1086135	keystroke_a	a	n/a
543.2475	0.06	1086495	keystroke_Key.space	Key.space	n/a
543.4585	0.075	1086917	keystroke_a	a	n/a
543.6225	0.09	1087245	keystroke_g	g	n/a
544.073	0.0605	1088146	keystroke_r	r	n/a
544.2225	0.0755	1088445	keystroke_e	e	n/a
544.403	0.075	1088806	keystroke_e	e	n/a
544.613	0.105	1089226	keystroke_s	s	n/a
544.778	0.105	1089556	keystroke_Key.space	Key.space	n/a
545.288	0.09	1090576	keystroke_e	e	n/a
545.603	0.075	1091206	keystroke_x	x	n/a
545.768	0.0905	1091536	keystroke_c	c	n/a
545.993	0.075	1091986	keystroke_e	e	n/a
546.128	0.09	1092256	keystroke_e	e	n/a
546.323	0.12	1092646	keystroke_d	d	n/a
546.473	0.12	1092946	keystroke_Key.space	Key.space	n/a
547.373	0.0605	1094746	keystroke_f	f	n/a
547.522	0.136	1095044	keystroke_e	e	n/a
547.703	0.09	1095406	keystroke_r	r	n/a
547.9135	0.1495	1095827	keystroke_a	a	n/a
548.123	0.06	1096246	keystroke_r	r	n/a
548.272	0.105	1096544	keystroke_r	r	n/a
548.363	0.1195	1096726	keystroke_i	i	n/a
549.473	0.09	1098946	keystroke_Key.enter	Key.enter	n/a
549.569	10.8855	1099138	prompt	n/a	hadn't practices earlier concentrate\n
550.673	0.105	1101346	keystroke_h	h	n/a
550.733	0.12	1101466	keystroke_a	a	n/a
550.913	0.1345	1101826	keystroke_d	d	n/a
551.258	0.119	1102516	keystroke_n	n	n/a
551.558	0.1345	1103116	keystroke_'	'	n/a
551.9625	0.075	1103925	keystroke_y	y	n/a
552.4875	0.12	1104975	keystroke_Key.backspace	Key.backspace	n/a
552.6085	0.0895	1105217	keystroke_t	t	n/a
552.878	0.075	1105756	keystroke_Key.space	Key.space	n/a
553.478	0.1055	1106956	keystroke_p	p	n/a
553.658	0.06	1107316	keystroke_r	r	n/a
553.853	0.1055	1107706	keystroke_a	a	n/a
554.0475	0.1055	1108095	keystroke_c	c	n/a
554.3775	0.06	1108755	keystroke_t	t	n/a
554.5275	0.135	1109055	keystroke_i	i	n/a
554.7835	0.0745	1109567	keystroke_c	c	n/a
554.903	0.0895	1109806	keystroke_e	e	n/a
555.893	0.105	1111786	keystroke_s	s	n/a
556.073	0.105	1112146	keystroke_Key.space	Key.space	n/a
556.613	0.0745	1113226	keystroke_e	e	n/a
556.7925	0.165	1113585	keystroke_a	a	n/a
556.9125	0.0895	1113825	keystroke_r	r	n/a
557.033	0.1045	1114066	keystroke_l	l	n/a
557.228	0.1055	1114456	keystroke_i	i	n/a
557.258	0.135	1114516	keystroke_e	e	n/a
557.4075	0.135	1114815	keystroke_r	r	n/a
557.6025	0.135	1115205	keystroke_Key.space	Key.space	n/a
558.038	0.105	1116076	keystroke_c	c	n/a
558.173	0.105	1116346	keystroke_o	o	n/a
558.398	0.12	1116796	keystroke_n	n	n/a
558.503	0.06	1117006	keystroke_c	c	n/a
558.6375	0.1355	1117275	keystroke_e	e	n/a
558.803	0.1345	1117606	keystroke_n	n	n/a
558.9825	0.0605	1117965	keystroke_t	t	n/a
559.1625	0.0905	1118325	keystroke_r	r	n/a
559.3125	0.1205	1118625	keystroke_a	a	n/a
559.9725	0.106	1119945	keystroke_t	t	n/a
560.123	0.12	1120246	keystroke_e	e	n/a
560.318	0.1345	1120636	keystroke_Key.enter	Key.enter	n/a
560.459	7.481	1120918	prompt	n/a	jazz campbell bacon returned\n
561.623	0.135	1123246	keystroke_j	j	n/a
561.698	0.1195	1123396	keystroke_a	a	n/a
561.923	0.12	1123846	keystroke_z	z	n/a
562.1625	0.1055	1124325	keystroke_z	z	n/a
562.3125	0.09	1124625	keystroke_Key.space	Key.space	n/a
562.7625	0.121	1125525	keystroke_c	c	n/a
563.033	0.1055	1126066	keystroke_a	a	n/a
563.243	0.1345	1126486	keystroke_m	m	n/a
563.4525	0.1205	1126905	keystroke_p	p	n/a
563.8575	0.12	1127715	keystroke_b	b	n/a
564.0075	0.0755	1128015	keystroke_e	e	n/a
564.1425	0.1055	1128285	keystroke_l	l	n/a
564.3525	0.06	1128705	keystroke_l	l	n/a
564.5475	0.1055	1129095	keystroke_Key.space	Key.space	n/a
564.788	0.09	1129576	keystroke_b	b	n/a
564.8185	0.1795	1129637	keystroke_a	a	n/a
565.103	0.1045	1130206	keystroke_c	c	n/a
565.283	0.09	1130566	keystroke_o	o	n/a
565.493	0.075	1130986	keystroke_n	n	n/a
565.688	0.1345	1131376	keystroke_Key.space	Key.space	n/a
566.2125	0.135	1132425	keystroke_r	r	n/a
566.3325	0.0755	1132665	keystroke_e	e	n/a
566.5125	0.1205	1133025	keystroke_t	t	n/a
566.6175	0.1055	1133235	keystroke_u	u	n/a
566.8125	0.1055	1133625	keystroke_r	r	n/a
566.9475	0.105	1133895	keystroke_n	n	n/a
567.068	0.075	1134136	keystroke_e	e	n/a
567.2325	0.1355	1134465	keystroke_d	d	n/a
567.7875	0.15	1135575	keystroke_Key.enter	Key.enter	n/a
567.9435	8.4715	1135887	prompt	n/a	reduction racks modified strength\n
568.733	0.12	1137466	keystroke_r	r	n/a
568.883	0.105	1137766	keystroke_e	e	n/a
569.122	0.076	1138244	keystroke_d	d	n/a
569.318	0.12	1138636	keystroke_u	u	n/a
569.423	0.074	1138846	keystroke_c	c	n/a
569.6785	0.1045	1139357	keystroke_t	t	n/a
569.768	0.21	1139536	keystroke_i	i	n/a
569.888	0.165	1139776	keystroke_o	o	n/a
570.008	0.135	1140016	keystroke_n	n	n/a
570.2775	0.1205	1140555	keystroke_Key.space	Key.space	n/a
570.458	0.09	1140916	keystroke_r	r	n/a
570.623	0.12	1141246	keystroke_a	a	n/a
571.058	0.1195	1142116	keystroke_c	c	n/a
571.283	0.0745	1142566	keystroke_k	k	n/a
571.8975	0.12	1143795	keystroke_s	s	n/a
572.0625	0.105	1144125	keystroke_Key.space	Key.space	n/a
572.348	0.09	1144696	keystroke_m	m	n/a
572.543	0.105	1145086	keystroke_o	o	n/a
572.633	0.09	1145266	keystroke_d	d	n/a
572.783	0.1045	1145566	keystroke_i	i	n/a
572.933	0.12	1145866	keystroke_f	f	n/a
573.0975	0.12	1146195	keystroke_i	i	n/a
573.203	0.0895	1146406	keystroke_e	e	n/a
573.383	0.0905	1146766	keystroke_d	d	n/a
573.533	0.09	1147066	keystroke_Key.space	Key.space	n/a
573.803	0.1205	1147606	keystroke_s	s	n/a
574.0425	0.075	1148085	keystroke_t	t	n/a
574.2385	0.12	1148477	keystroke_r	r	n/a
574.3725	0.091	1148745	keystroke_e	e	n/a
574.538	0.105	1149076	keystroke_n	n	n/a
575.123	0.06	1150246	keystroke_g	g	n/a
575.423	0.09	1150846	keystroke_t	t	n/a
575.573	0.105	1151146	keystroke_h	h	n/a
575.858	0.09	1151716	keystroke_Key.space	Key.space	n/a
576.323	0.0895	1152646	keystroke_Key.enter	Key.enter	n/a
576.421	7.419	1152842	prompt	n/a	awareness close proc don't\n
577.418	0.105	1154836	keystroke_a	a	n/a
577.6125	0.075	1155225	keystroke_w	w	n/a
577.7625	0.1655	1155525	keystroke_a	a	n/a
577.9285	0.089	1155857	keystroke_r	r	n/a
577.9875	0.12	1155975	keystroke_e	e	n/a
578.153	0.1195	1156306	keystroke_n	n	n/a
578.258	0.0895	1156516	keystroke_e	e	n/a
578.4675	0.0755	1156935	keystroke_s	s	n/a
578.633	0.075	1157266	keystroke_s	s	n/a
578.7225	0.09	1157445	keystroke_Key.space	Key.space	n/a
578.903	0.1195	1157806	keystroke_c	c	n/a
578.993	0.09	1157986	keystroke_l	l	n/a
579.173	0.135	1158346	keystroke_o	o	n/a
579.293	0.09	1158586	keystroke_s	s	n/a
579.473	0.135	1158946	keystroke_e	e	n/a
579.668	0.105	1159336	keystroke_Key.space	Key.space	n/a
579.9975	0.0755	1159995	keystroke_p	p	n/a
580.0875	0.09	1160175	keystroke_r	r	n/a
580.223	0.105	1160446	keystroke_o	o	n/a
580.4325	0.0905	1160865	keystroke_c	c	n/a
580.5525	0.105	1161105	keystroke_Key.space	Key.space	n/a
580.7025	0.105	1161405	keystroke_d	d	n/a
580.7925	0.105	1161585	keystroke_o	o	n/a
580.9875	0.075	1161975	keystroke_n	n	n/a
581.3475	0.12	1162695	keystroke_'	'	n/a
581.4975	0.09	1162995	keystroke_y	y	n/a
581.753	0.0745	1163506	keystroke_Key.space	Key.space	n/a
582.473	0.089	1164946	keystroke_Key.backspace	Key.backspace	n/a
582.638	0.089	1165276	keystroke_Key.backspace	Key.backspace	n/a
582.788	0.09	1165576	keystroke_r	r	n/a
583.373	0.1495	1166746	keystroke_Key.backspace	Key.backspace	n/a
583.493	0.09	1166986	keystroke_t	t	n/a
583.763	0.075	1167526	keystroke_Key.enter	Key.enter	n/a
583.8435	12.491	1167687	prompt	n/a	shops robinson internship cookbook\n
584.768	0.1195	1169536	keystroke_s	s	n/a
584.858	0.075	1169716	keystroke_h	h	n/a
585.0525	0.105	1170105	keystroke_o	o	n/a
585.2325	0.105	1170465	keystroke_p	p	n/a
585.368	0.0895	1170736	keystroke_s	s	n/a
585.548	0.0895	1171096	keystroke_Key.space	Key.space	n/a
585.9685	0.104	1171937	keystroke_r	r	n/a
586.343	0.0895	1172686	keystroke_o	o	n/a
586.7175	0.0905	1173435	keystroke_b	b	n/a
586.9285	0.179	1173857	keystroke_i	i	n/a
587.093	0.12	1174186	keystroke_n	n	n/a
587.2275	0.1495	1174455	keystroke_s	s	n/a
587.3485	0.0895	1174697	keystroke_o	o	n/a
587.542	0.076	1175084	keystroke_n	n	n/a
587.737	0.0605	1175474	keystroke_Key.space	Key.space	n/a
587.9475	0.09	1175895	keystroke_i	i	n/a
588.128	0.15	1176256	keystroke_n	n	n/a
588.263	0.105	1176526	keystroke_t	t	n/a
588.518	0.1945	1177036	keystroke_e	e	n/a
588.6375	0.091	1177275	keystroke_r	r	n/a
588.8775	0.15	1177755	keystroke_s	s	n/a
589.0285	0.104	1178057	keystroke_o	o	n/a
589.2525	0.0905	1178505	keystroke_n	n	n/a
590.7075	0.0905	1181415	keystroke_Key.backspace	Key.backspace	n/a
591.338	0.09	1182676	keystroke_Key.backspace	Key.backspace	n/a
591.6375	0.105	1183275	keystroke_Key.backspace	Key.backspace	n/a
591.9975	0.12	1183995	keystroke_n	n	n/a
592.2825	0.1205	1184565	keystroke_s	s	n/a
592.7475	0.12	1185495	keystroke_h	h	n/a
592.943	0.1205	1185886	keystroke_i	i	n/a
593.1825	0.105	1186365	keystroke_p	p	n/a
593.7225	0.105	1187445	keystroke_Key.space	Key.space	n/a
594.2175	0.075	1188435	keystroke_c	c	n/a
594.2935	0.134	1188587	keystroke_o	o	n/a
594.473	0.0745	1188946	keystroke_o	o	n/a
594.7125	0.12	1189425	keystroke_k	k	n/a
595.403	0.1045	1190806	keystroke_b	b	n/a
595.673	0.0595	1191346	keystroke_o	o	n/a
595.8075	0.1655	1191615	keystroke_o	o	n/a
595.943	0.105	1191886	keystroke_k	k	n/a
596.228	0.104	1192456	keystroke_Key.enter	Key.enter	n/a
596.338	7.1965	1192676	prompt	n/a	silver bills advert part\n
597.203	0.105	1194406	keystroke_s	s	n/a
597.398	0.075	1194796	keystroke_i	i	n/a
597.413	0.045	1194826	keystroke_o	o	n/a
597.593	0.09	1195186	keystroke_l	l	n/a
598.118	0.06	1196236	keystroke_Key.backspace	Key.backspace	n/a
598.253	0.075	1196506	keystroke_Key.backspace	Key.backspace	n/a
598.538	0.12	1197076	keystroke_l	l	n/a
598.823	0.075	1197646	keystroke_v	v	n/a
599.063	0.195	1198126	keystroke_e	e	n/a
599.273	0.09	1198546	keystroke_r	r	n/a
599.768	0.0895	1199536	keystroke_Key.space	Key.space	n/a
600.0075	0.12	1200015	keystroke_b	b	n/a
600.263	0.12	1200526	keystroke_i	i	n/a
600.503	0.089	1201006	keystroke_l	l	n/a
600.668	0.059	1201336	keystroke_l	l	n/a
600.772	0.091	1201544	keystroke_s	s	n/a
600.9075	0.1195	1201815	keystroke_Key.space	Key.space	n/a
601.162	0.075	1202324	keystroke_a	a	n/a
601.328	0.089	1202656	keystroke_d	d	n/a
601.658	0.1045	1203316	keystroke_v	v	n/a
601.8825	0.195	1203765	keystroke_e	e	n/a
602.0175	0.136	1204035	keystroke_r	r	n/a
602.2735	0.1195	1204547	keystroke_t	t	n/a
602.468	0.105	1204936	keystroke_Key.space	Key.space	n/a
602.693	0.1355	1205386	keystroke_p	p	n/a
602.7825	0.105	1205565	keystroke_a	a	n/a
602.873	0.149	1205746	keystroke_r	r	n/a
603.188	0.134	1206376	keystroke_t	t	n/a
603.4425	0.09	1206885	keystroke_Key.enter	Key.enter	n/a
603.539	9.161	1207078	prompt	n/a	stages arctic unlimited routines\n
604.2825	0.1805	1208565	keystroke_a	a	n/a
605.4375	0.12	1210875	keystroke_Key.backspace	Key.backspace	n/a
605.5425	0.106	1211085	keystroke_s	s	n/a
605.767	0.061	1211534	keystroke_t	t	n/a
605.9175	0.1205	1211835	keystroke_a	a	n/a
606.097	0.1065	1212194	keystroke_g	g	n/a
606.278	0.0895	1212556	keystroke_e	e	n/a
606.503	0.09	1213006	keystroke_s	s	n/a
606.728	0.075	1213456	keystroke_Key.space	Key.space	n/a
607.042	0.091	1214084	keystroke_a	a	n/a
607.4325	0.09	1214865	keystroke_r	r	n/a
607.7775	0.106	1215555	keystroke_c	c	n/a
608.1085	0.075	1216217	keystroke_t	t	n/a
608.2585	0.104	1216517	keystroke_i	i	n/a
608.6335	0.074	1217267	keystroke_c	c	n/a
609.263	0.12	1218526	keystroke_Key.space	Key.space	n/a
609.713	0.105	1219426	keystroke_u	u	n/a
609.908	0.105	1219816	keystroke_n	n	n/a
610.103	0.075	1220206	keystroke_l	l	n/a
610.283	0.09	1220566	keystroke_i	i	n/a
610.418	0.105	1220836	keystroke_m	m	n/a
610.628	0.1195	1221256	keystroke_i	i	n/a
610.763	0.0745	1221526	keystroke_t	t	n/a
610.913	0.09	1221826	keystroke_e	e	n/a
611.108	0.09	1222216	keystroke_d	d	n/a
611.243	0.0895	1222486	keystroke_Key.space	Key.space	n/a
611.4535	0.119	1222907	keystroke_r	r	n/a
611.6325	0.135	1223265	keystroke_o	o	n/a
611.6785	0.119	1223357	keystroke_u	u	n/a
611.7835	0.1045	1223567	keystroke_t	t	n/a
611.9185	0.135	1223837	keystroke_i	i	n/a
612.008	0.15	1224016	keystroke_n	n	n/a
612.173	0.09	1224346	keystroke_e	e	n/a
612.398	0.09	1224796	keystroke_s	s	n/a
612.563	0.135	1225126	keystroke_Key.enter	Key.enter	n/a
612.7035	8.501	1225407	prompt	n/a	capital mathematics confirm circuit\n
613.9285	0.0745	1227857	keystroke_c	c	n/a
614.1375	0.12	1228275	keystroke_a	a	n/a
614.3025	0.105	1228605	keystroke_p	p	n/a
614.9175	0.1055	1229835	keystroke_i	i	n/a
615.0235	0.0895	1230047	keystroke_t	t	n/a
615.2185	0.1345	1230437	keystroke_a	a	n/a
615.338	0.09	1230676	keystroke_l	l	n/a
615.5475	0.1205	1231095	keystroke_Key.space	Key.space	n/a
615.9525	0.105	1231905	keystroke_m	m	n/a
616.028	0.1495	1232056	keystroke_a	a	n/a
616.2075	0.1205	1232415	keystroke_t	t	n/a
616.3875	0.09	1232775	keystroke_h	h	n/a
616.4785	0.0745	1232957	keystroke_e	e	n/a
616.6875	0.0605	1233375	keystroke_m	m	n/a
616.718	0.135	1233436	keystroke_a	a	n/a
616.913	0.0745	1233826	keystroke_t	t	n/a
617.0325	0.12	1234065	keystroke_i	i	n/a
617.243	0.06	1234486	keystroke_c	c	n/a
617.4375	0.09	1234875	keystroke_s	s	n/a
617.5575	0.09	1235115	keystroke_Key.space	Key.space	n/a
618.053	0.12	1236106	keystroke_c	c	n/a
618.113	0.09	1236226	keystroke_o	o	n/a
618.293	0.09	1236586	keystroke_n	n	n/a
618.384	0.104	1236768	keystroke_f	f	n/a
618.518	0.09	1237036	keystroke_i	i	n/a
618.638	0.105	1237276	keystroke_r	r	n/a
618.758	0.075	1237516	keystroke_m	m	n/a
618.937	0.1055	1237874	keystroke_Key.space	Key.space	n/a
619.2675	0.105	1238535	keystroke_c	c	n/a
619.4475	0.0905	1238895	keystroke_i	i	n/a
619.613	0.075	1239226	keystroke_r	r	n/a
619.9425	0.121	1239885	keystroke_c	c	n/a
620.0185	0.0595	1240037	keystroke_u	u	n/a
620.213	0.0445	1240426	keystroke_i	i	n/a
620.543	0.0745	1241086	keystroke_t	t	n/a
621.0975	0.1055	1242195	keystroke_Key.enter	Key.enter	n/a
621.2075	14.0075	1242415	prompt	n/a	simplified migration complaints emissions\n
622.043	0.135	1244086	keystroke_s	s	n/a
622.1325	0.105	1244265	keystroke_i	i	n/a
622.3585	0.119	1244717	keystroke_m	m	n/a
622.5525	0.106	1245105	keystroke_p	p	n/a
622.8225	0.136	1245645	keystroke_l	l	n/a
623.0025	0.0905	1246005	keystroke_i	i	n/a
623.318	0.09	1246636	keystroke_f	f	n/a
623.453	0.105	1246906	keystroke_i	i	n/a
623.543	0.09	1247086	keystroke_e	e	n/a
623.723	0.09	1247446	keystroke_d	d	n/a
623.873	0.12	1247746	keystroke_Key.space	Key.space	n/a
624.217	0.106	1248434	keystroke_m	m	n/a
624.308	0.119	1248616	keystroke_a	a	n/a
624.728	0.0895	1249456	keystroke_Key.backspace	Key.backspace	n/a
625.253	0.075	1250506	keystroke_i	i	n/a
625.5535	0.0885	1251107	keystroke_g	g	n/a
625.8375	0.0155	1251675	keystroke_r	r	n/a
626.5875	0.045	1253175	keystroke_r	r	n/a
626.7075	0.1205	1253415	keystroke_a	a	n/a
626.873	0.105	1253746	keystroke_t	t	n/a
626.963	0.2105	1253926	keystroke_i	i	n/a
627.0375	0.1805	1254075	keystroke_o	o	n/a
627.1575	0.1355	1254315	keystroke_n	n	n/a
627.6535	0.09	1255307	keystroke_Key.space	Key.space	n/a
627.968	0.12	1255936	keystroke_c	c	n/a
628.7325	0.105	1257465	keystroke_Key.backspace	Key.backspace	n/a
628.9575	0.045	1257915	keystroke_Key.backspace	Key.backspace	n/a
629.1225	0.075	1258245	keystroke_Key.backspace	Key.backspace	n/a
629.3025	0.0905	1258605	keystroke_Key.backspace	Key.backspace	n/a
629.498	0.0595	1258996	keystroke_Key.backspace	Key.backspace	n/a
629.6625	0.075	1259325	keystroke_Key.backspace	Key.backspace	n/a
629.8275	0.0905	1259655	keystroke_Key.backspace	Key.backspace	n/a
629.993	0.1195	1259986	keystroke_Key.backspace	Key.backspace	n/a
630.293	0.1505	1260586	keystroke_a	a	n/a
630.5325	0.1205	1261065	keystroke_t	t	n/a
630.7735	0.224	1261547	keystroke_i	i	n/a
630.8475	0.21	1261695	keystroke_o	o	n/a
631.043	0.1195	1262086	keystroke_n	n	n/a
631.2825	0.0905	1262565	keystroke_Key.space	Key.space	n/a
631.943	0.1195	1263886	keystroke_c	c	n/a
632.0775	0.12	1264155	keystroke_o	o	n/a
632.3025	0.09	1264605	keystroke_m	m	n/a
632.4375	0.1055	1264875	keystroke_p	p	n/a
632.6485	0.1045	1265297	keystroke_l	l	n/a
632.7375	0.0905	1265475	keystroke_a	a	n/a
632.858	0.135	1265716	keystroke_i	i	n/a
632.978	0.1645	1265956	keystroke_n	n	n/a
633.0975	0.06	1266195	keystroke_t	t	n/a
633.3075	0.09	1266615	keystroke_s	s	n/a
633.473	0.0745	1266946	keystroke_Key.space	Key.space	n/a
633.923	0.1195	1267846	keystroke_e	e	n/a
634.0585	0.075	1268117	keystroke_m	m	n/a
634.2375	0.076	1268475	keystroke_i	i	n/a
634.2975	0.09	1268595	keystroke_s	s	n/a
634.4775	0.09	1268955	keystroke_s	s	n/a
634.5375	0.18	1269075	keystroke_i	i	n/a
634.6435	0.165	1269287	keystroke_o	o	n/a
634.7335	0.134	1269467	keystroke_n	n	n/a
634.973	0.0895	1269946	keystroke_s	s	n/a
635.153	0.0595	1270306	keystroke_Key.enter	Key.enter	n/a
635.219	9.5065	1270438	prompt	n/a	stored memorabilia warrior integrating\n
636.098	0.06	1272196	keystroke_s	s	n/a
636.518	0.09	1273036	keystroke_t	t	n/a
636.668	0.12	1273336	keystroke_o	o	n/a
636.773	0.105	1273546	keystroke_r	r	n/a
636.833	0.12	1273666	keystroke_e	e	n/a
637.058	0.105	1274116	keystroke_d	d	n/a
637.178	0.09	1274356	keystroke_Key.space	Key.space	n/a
637.448	0.105	1274896	keystroke_m	m	n/a
637.538	0.12	1275076	keystroke_e	e	n/a
637.673	0.105	1275346	keystroke_m	m	n/a
637.853	0.15	1275706	keystroke_o	o	n/a
637.9735	0.074	1275947	keystroke_r	r	n/a
638.2585	0.0895	1276517	keystroke_a	a	n/a
638.723	0.09	1277446	keystroke_b	b	n/a
638.934	0.089	1277868	keystroke_i	i	n/a
639.098	0.12	1278196	keystroke_l	l	n/a
639.2485	0.1195	1278497	keystroke_i	i	n/a
639.3825	0.1205	1278765	keystroke_a	a	n/a
639.578	0.075	1279156	keystroke_Key.space	Key.space	n/a
640.103	0.0895	1280206	keystroke_w	w	n/a
640.253	0.1345	1280506	keystroke_a	a	n/a
640.418	0.075	1280836	keystroke_r	r	n/a
640.5825	0.1055	1281165	keystroke_r	r	n/a
640.7925	0.091	1281585	keystroke_i	i	n/a
640.973	0.075	1281946	keystroke_o	o	n/a
641.063	0.105	1282126	keystroke_r	r	n/a
641.273	0.09	1282546	keystroke_Key.space	Key.space	n/a
641.8275	0.0755	1283655	keystroke_i	i	n/a
