onset	duration	sample	value	key	prompt_text
28.429	10.7855	56858	prompt	n/a	the quick brown fox jumps over a lazy dog\n
31.157	0.001	62314	keystroke_t	t	n/a
31.158	0.073	62316	keystroke_h	h	n/a
31.276	0.045	62552	keystroke_e	e	n/a
31.321	0.0895	62642	keystroke_Key.space	Key.space	n/a
31.471	0.15	62942	keystroke_q	q	n/a
31.606	0.12	63212	keystroke_u	u	n/a
31.681	0.105	63362	keystroke_i	i	n/a
31.861	0.045	63722	keystroke_c	c	n/a
31.921	0.1045	63842	keystroke_k	k	n/a
32.281	0.0895	64562	keystroke_Key.space	Key.space	n/a
32.4155	0.0905	64831	keystroke_b	b	n/a
32.626	0.0295	65252	keystroke_t	t	n/a
32.776	0.09	65552	keystroke_o	o	n/a
32.911	0.1045	65822	keystroke_e	e	n/a
33.0305	0.135	66061	keystroke_n	n	n/a
33.391	0.045	66782	keystroke_Key.backspace	Key.backspace	n/a
33.511	0.0745	67022	keystroke_Key.backspace	Key.backspace	n/a
33.6455	0.0755	67291	keystroke_Key.backspace	Key.backspace	n/a
33.781	0.089	67562	keystroke_Key.backspace	Key.backspace	n/a
34.2015	0.0445	68403	keystroke_r	r	n/a
34.291	0.045	68582	keystroke_o	o	n/a
34.351	0.06	68702	keystroke_w	w	n/a
34.456	0.09	68912	keystroke_n	n	n/a
34.561	0.09	69122	keystroke_Key.space	Key.space	n/a
34.681	0.075	69362	keystroke_f	f	n/a
34.7865	0.0745	69573	keystroke_o	o	n/a
34.9055	0.0905	69811	keystroke_x	x	n/a
35.041	0.09	70082	keystroke_Key.space	Key.space	n/a
35.221	0.09	70442	keystroke_j	j	n/a
35.386	0.075	70772	keystroke_u	u	n/a
35.596	0.09	71192	keystroke_m	m	n/a
35.611	0.015	71222	keystroke_p	p	n/a
35.731	0.075	71462	keystroke_p	p	n/a
36.166	0.0595	72332	keystroke_Key.backspace	Key.backspace	n/a
36.2865	0.075	72573	keystroke_s	s	n/a
36.421	0.06	72842	keystroke_Key.space	Key.space	n/a
36.496	0.12	72992	keystroke_o	o	n/a
36.6165	0.0895	73233	keystroke_v	v	n/a
36.736	0.15	73472	keystroke_e	e	n/a
36.857	0.074	73714	keystroke_r	r	n/a
36.8715	0.1045	73743	keystroke_Key.space	Key.space	n/a
37.051	0.105	74102	keystroke_a	a	n/a
37.066	0.075	74132	keystroke_Key.space	Key.space	n/a
37.351	0.105	74702	keystroke_l	l	n/a
37.501	0.0755	75002	keystroke_a	a	n/a
37.697	0.0595	75394	keystroke_z	z	n/a
37.816	0.0605	75632	keystroke_y	y	n/a
37.906	0.06	75812	keystroke_Key.space	Key.space	n/a
38.056	0.06	76112	keystroke_d	d	n/a
38.3705	0.0755	76741	keystroke_o	o	n/a
38.536	0.045	77072	keystroke_g	g	n/a
39.1205	0.09	78241	keystroke_Key.enter	Key.enter	n/a
39.2215	5.9615	78443	prompt	n/a	installed saves linear who've\n
39.901	0.1055	79802	keystroke_i	i	n/a
39.9605	0.106	79921	keystroke_n	n	n/a
40.0505	0.105	80101	keystroke_s	s	n/a
40.1855	0.0595	80371	keystroke_t	t	n/a
40.2305	0.0905	80461	keystroke_a	a	n/a
40.3065	0.0595	80613	keystroke_l	l	n/a
40.441	0.09	80882	keystroke_l	l	n/a
40.486	0.09	80972	keystroke_e	e	n/a
40.681	0.09	81362	keystroke_d	d	n/a
40.906	0.075	81812	keystroke_Key.space	Key.space	n/a
41.011	0.0755	82022	keystroke_s	s	n/a
41.401	0.045	82802	keystroke_a	a	n/a
41.46	0.091	82920	keystroke_v	v	n/a
41.5965	0.1045	83193	keystroke_e	e	n/a
41.6715	0.1195	83343	keystroke_s	s	n/a
41.8055	0.09	83611	keystroke_Key.space	Key.space	n/a
42.0605	0.135	84121	keystroke_l	l	n/a
42.2715	0.12	84543	keystroke_i	i	n/a
42.3165	0.119	84633	keystroke_n	n	n/a
42.4055	0.105	84811	keystroke_e	e	n/a
42.4815	0.149	84963	keystroke_a	a	n/a
42.6155	0.061	85231	keystroke_r	r	n/a
42.7055	0.075	85411	keystroke_Key.space	Key.space	n/a
43.2015	0.0745	86403	keystroke_w	w	n/a
43.2605	0.076	86521	keystroke_h	h	n/a
43.3805	0.091	86761	keystroke_o	o	n/a
44.041	0.0745	88082	keystroke_'	'	n/a
44.1165	0.1195	88233	keystroke_v	v	n/a
44.221	0.105	88442	keystroke_e	e	n/a
45.106	0.075	90212	keystroke_Key.enter	Key.enter	n/a
45.188	10.151	90376	prompt	n/a	pays settled documentation certification\n
45.976	0.0895	91952	keystroke_p	p	n/a
46.096	0.0745	92192	keystroke_a	a	n/a
46.1855	0.075	92371	keystroke_y	y	n/a
46.3055	0.076	92611	keystroke_s	s	n/a
46.4105	0.075	92821	keystroke_Key.space	Key.space	n/a
46.5755	0.091	93151	keystroke_s	s	n/a
46.726	0.0745	93452	keystroke_e	e	n/a
46.9205	0.045	93841	keystroke_t	t	n/a
47.0405	0.091	94081	keystroke_t	t	n/a
47.191	0.0905	94382	keystroke_l	l	n/a
47.266	0.1495	94532	keystroke_e	e	n/a
47.3865	0.074	94773	keystroke_s	s	n/a
47.821	0.0595	95642	keystroke_Key.backspace	Key.backspace	n/a
47.911	0.1055	95822	keystroke_d	d	n/a
48.0455	0.075	96091	keystroke_Key.space	Key.space	n/a
48.661	0.09	97322	keystroke_d	d	n/a
48.871	0.09	97742	keystroke_o	o	n/a
49.021	0.105	98042	keystroke_c	c	n/a
49.111	0.09	98222	keystroke_u	u	n/a
49.3365	0.0595	98673	keystroke_m	m	n/a
49.381	0.105	98762	keystroke_e	e	n/a
49.516	0.12	99032	keystroke_n	n	n/a
49.681	0.06	99362	keystroke_t	t	n/a
49.786	0.1055	99572	keystroke_a	a	n/a
49.846	0.075	99692	keystroke_t	t	n/a
49.966	0.27	99932	keystroke_i	i	n/a
50.0405	0.2405	100081	keystroke_n	n	n/a
50.056	0.1495	100112	keystroke_o	o	n/a
50.2655	0.06	100531	keystroke_Key.space	Key.space	n/a
50.701	0.045	101402	keystroke_Key.backspace	Key.backspace	n/a
50.8505	0.075	101701	keystroke_Key.backspace	Key.backspace	n/a
51.0155	0.075	102031	keystroke_Key.backspace	Key.backspace	n/a
51.2265	0.119	102453	keystroke_o	o	n/a
51.2865	0.1045	102573	keystroke_n	n	n/a
51.421	0.075	102842	keystroke_Key.space	Key.space	n/a
52.186	0.075	104372	keystroke_c	c	n/a
52.291	0.1355	104582	keystroke_e	e	n/a
52.4115	0.059	104823	keystroke_r	r	n/a
52.6065	0.0745	105213	keystroke_t	t	n/a
52.7265	0.075	105453	keystroke_i	i	n/a
52.8165	0.0895	105633	keystroke_f	f	n/a
53.3715	0.059	106743	keystroke_i	i	n/a
53.446	0.105	106892	keystroke_c	c	n/a
53.552	0.104	107104	keystroke_a	a	n/a
53.6855	0.0605	107371	keystroke_t	t	n/a
53.806	0.255	107612	keystroke_i	i	n/a
53.8955	0.151	107791	keystroke_o	o	n/a
53.9565	0.134	107913	keystroke_n	n	n/a
55.2605	0.0755	110521	keystroke_Key.enter	Key.enter	n/a
55.354	9.1045	110708	prompt	n/a	workout theorem syndicate dictionary\n
56.0715	0.06	112143	keystroke_w	w	n/a
56.146	0.1055	112292	keystroke_o	o	n/a
56.281	0.0595	112562	keystroke_r	r	n/a
56.3715	0.1195	112743	keystroke_k	k	n/a
56.6555	0.106	113311	keystroke_o	o	n/a
56.731	0.09	113462	keystroke_u	u	n/a
56.8355	0.046	113671	keystroke_t	t	n/a
56.9405	0.0605	113881	keystroke_Key.space	Key.space	n/a
57.181	0.06	114362	keystroke_t	t	n/a
57.271	0.09	114542	keystroke_h	h	n/a
57.376	0.06	114752	keystroke_e	e	n/a
58.0965	0.0445	116193	keystroke_r	r	n/a
58.4855	0.0905	116971	keystroke_Key.backspace	Key.backspace	n/a
58.6965	0.059	117393	keystroke_o	o	n/a
58.7705	0.046	117541	keystroke_r	r	n/a
59.162	0.0445	118324	keystroke_e	e	n/a
59.2215	0.015	118443	keystroke_m	m	n/a
59.3105	0.0605	118621	keystroke_Key.space	Key.space	n/a
60.091	0.0905	120182	keystroke_s	s	n/a
60.271	0.06	120542	keystroke_y	y	n/a
60.4505	0.076	120901	keystroke_b	b	n/a
60.541	0.075	121082	keystroke_d	d	n/a
60.976	0.0605	121952	keystroke_Key.backspace	Key.backspace	n/a
61.111	0.06	122222	keystroke_Key.backspace	Key.backspace	n/a
61.276	0.0905	122552	keystroke_n	n	n/a
61.351	0.075	122702	keystroke_d	d	n/a
61.472	0.0745	122944	keystroke_i	i	n/a
61.5615	0.0895	123123	keystroke_c	c	n/a
61.6815	0.1195	123363	keystroke_a	a	n/a
61.816	0.15	123632	keystroke_t	t	n/a
61.921	0.135	123842	keystroke_e	e	n/a
62.131	0.075	124262	keystroke_Key.space	Key.space	n/a
62.881	0.075	125762	keystroke_d	d	n/a
63.001	0.09	126002	keystroke_i	i	n/a
63.091	0.075	126182	keystroke_c	c	n/a
63.286	0.045	126572	keystroke_t	t	n/a
63.3465	0.2245	126693	keystroke_i	i	n/a
63.406	0.15	126812	keystroke_o	o	n/a
63.421	0.18	126842	keystroke_n	n	n/a
63.571	0.135	127142	keystroke_a	a	n/a
63.646	0.09	127292	keystroke_r	r	n/a
63.84	0.061	127680	keystroke_y	y	n/a
64.396	0.06	128792	keystroke_Key.enter	Key.enter	n/a
64.4635	8.905	128927	prompt	n/a	better manitoba smoking kits\n
65.2215	0.0745	130443	keystroke_b	b	n/a
65.326	0.18	130652	keystroke_e	e	n/a
65.476	0.075	130952	keystroke_t	t	n/a
65.626	0.135	131252	keystroke_t	t	n/a
65.761	0.1355	131522	keystroke_e	e	n/a
65.866	0.1205	131732	keystroke_r	r	n/a
65.971	0.06	131942	keystroke_Key.space	Key.space	n/a
66.436	0.09	132872	keystroke_m	m	n/a
66.556	0.075	133112	keystroke_a	a	n/a
66.6465	0.0745	133293	keystroke_n	n	n/a
66.736	0.1055	133472	keystroke_i	i	n/a
66.8715	0.0745	133743	keystroke_t	t	n/a
67.156	0.09	134312	keystroke_o	o	n/a
67.306	0.0905	134612	keystroke_b	b	n/a
67.486	0.06	134972	keystroke_a	a	n/a
67.621	0.0605	135242	keystroke_Key.space	Key.space	n/a
69.001	0.075	138002	keystroke_s	s	n/a
69.196	0.15	138392	keystroke_m	m	n/a
69.421	0.12	138842	keystroke_o	o	n/a
69.646	0.075	139292	keystroke_k	k	n/a
69.871	0.105	139742	keystroke_i	i	n/a
69.9465	0.09	139893	keystroke_n	n	n/a
70.051	0.0605	140102	keystroke_g	g	n/a
70.726	0.12	141452	keystroke_Key.space	Key.space	n/a
70.981	0.075	141962	keystroke_k	k	n/a
71.191	0.045	142382	keystroke_i	i	n/a
71.221	0.105	142442	keystroke_t	t	n/a
71.3865	0.105	142773	keystroke_s	s	n/a
73.2915	0.0745	146583	keystroke_Key.enter	Key.enter	n/a
73.3735	8.9085	146747	prompt	n/a	reprint unified told simpson\n
74.1015	0.12	148203	keystroke_r	r	n/a
74.1915	0.12	148383	keystroke_e	e	n/a
74.2965	0.09	148593	keystroke_p	p	n/a
74.4165	0.09	148833	keystroke_r	r	n/a
74.5355	0.091	149071	keystroke_i	i	n/a
74.6115	0.105	149223	keystroke_n	n	n/a
74.6715	0.09	149343	keystroke_t	t	n/a
74.8815	0.074	149763	keystroke_Key.space	Key.space	n/a
75.6465	0.075	151293	keystroke_u	u	n/a
75.8405	0.0905	151681	keystroke_n	n	n/a
75.946	0.09	151892	keystroke_i	i	n/a
76.051	0.06	152102	keystroke_f	f	n/a
76.411	0.0745	152822	keystroke_i	i	n/a
76.5015	0.074	153003	keystroke_e	e	n/a
76.6955	0.0605	153391	keystroke_d	d	n/a
76.786	0.0745	153572	keystroke_Key.space	Key.space	n/a
77.581	0.0595	155162	keystroke_t	t	n/a
77.7165	0.1045	155433	keystroke_o	o	n/a
77.926	0.165	155852	keystroke_l	l	n/a
78.076	0.075	156152	keystroke_d	d	n/a
78.196	0.075	156392	keystroke_Key.space	Key.space	n/a
78.781	0.075	157562	keystroke_s	s	n/a
78.916	0.135	157832	keystroke_i	i	n/a
79.006	0.105	158012	keystroke_m	m	n/a
79.1715	0.0895	158343	keystroke_p	p	n/a
79.291	0.075	158582	keystroke_s	s	n/a
79.411	0.1355	158822	keystroke_o	o	n/a
79.486	0.075	158972	keystroke_n	n	n/a
82.278	0.001	164556	keystroke_Key.enter	Key.enter	n/a
82.2875	8.391	164575	prompt	n/a	hack allocated babes spatial\n
82.982	0.074	165964	keystroke_h	h	n/a
83.071	0.12	166142	keystroke_a	a	n/a
83.1315	0.1045	166263	keystroke_c	c	n/a
83.2215	0.0745	166443	keystroke_k	k	n/a
83.326	0.09	166652	keystroke_Key.space	Key.space	n/a
83.5365	0.09	167073	keystroke_a	a	n/a
83.6415	0.0755	167283	keystroke_l	l	n/a
83.8065	0.09	167613	keystroke_l	l	n/a
84.0465	0.09	168093	keystroke_o	o	n/a
84.1215	0.105	168243	keystroke_c	c	n/a
84.241	0.09	168482	keystroke_a	a	n/a
84.361	0.12	168722	keystroke_t	t	n/a
84.451	0.105	168902	keystroke_e	e	n/a
84.631	0.09	169262	keystroke_d	d	n/a
84.751	0.075	169502	keystroke_Key.space	Key.space	n/a
85.501	0.0905	171002	keystroke_b	b	n/a
85.621	0.0755	171242	keystroke_a	a	n/a
85.7105	0.091	171421	keystroke_b	b	n/a
85.9355	0.0755	171871	keystroke_e	e	n/a
85.981	0.1355	171962	keystroke_s	s	n/a
86.1455	0.0905	172291	keystroke_Key.space	Key.space	n/a
86.8065	0.09	173613	keystroke_s	s	n/a
86.9865	0.09	173973	keystroke_p	p	n/a
87.4065	0.06	174813	keystroke_t	t	n/a
87.9765	0.075	175953	keystroke_Key.backspace	Key.backspace	n/a
88.0365	0.09	176073	keystroke_a	a	n/a
88.2465	0.0895	176493	keystroke_i	i	n/a
88.726	0.075	177452	keystroke_Key.backspace	Key.backspace	n/a
88.816	0.075	177632	keystroke_t	t	n/a
88.951	0.075	177902	keystroke_i	i	n/a
89.161	0.0905	178322	keystroke_a	a	n/a
89.371	0.0745	178742	keystroke_l	l	n/a
90.6155	0.0605	181231	keystroke_Key.enter	Key.enter	n/a
90.683	11.246	181366	prompt	n/a	reverse formula affects close\n
91.4855	0.151	182971	keystroke_e	e	n/a
91.5755	0.09	183151	keystroke_r	r	n/a
91.7855	0.076	183571	keystroke_v	v	n/a
91.8905	0.12	183781	keystroke_e	e	n/a
91.9955	0.0905	183991	keystroke_r	r	n/a
92.311	0.045	184622	keystroke_Key.backspace	Key.backspace	n/a
92.446	0.06	184892	keystroke_Key.backspace	Key.backspace	n/a
92.581	0.061	185162	keystroke_Key.backspace	Key.backspace	n/a
92.716	0.09	185432	keystroke_Key.backspace	Key.backspace	n/a
92.881	0.09	185762	keystroke_Key.backspace	Key.backspace	n/a
93.061	0.165	186122	keystroke_r	r	n/a
93.1515	0.1645	186303	keystroke_e	e	n/a
93.6015	0.0605	187203	keystroke_v	v	n/a
93.721	0.1355	187442	keystroke_e	e	n/a
93.8265	0.105	187653	keystroke_r	r	n/a
93.961	0.105	187922	keystroke_s	s	n/a
94.036	0.0905	188072	keystroke_e	e	n/a
94.231	0.0745	188462	keystroke_Key.space	Key.space	n/a
94.9065	0.0745	189813	keystroke_f	f	n/a
95.1455	0.09	190291	keystroke_o	o	n/a
95.2815	0.06	190563	keystroke_r	r	n/a
95.3715	0.09	190743	keystroke_u	u	n/a
95.5965	0.119	191193	keystroke_m	m	n/a
96.1665	0.0445	192333	keystroke_Key.backspace	Key.backspace	n/a
96.3015	0.0745	192603	keystroke_Key.backspace	Key.backspace	n/a
96.467	0.074	192934	keystroke_m	m	n/a
96.692	0.074	193384	keystroke_u	u	n/a
96.841	0.105	193682	keystroke_l	l	n/a
97.0065	0.06	194013	keystroke_a	a	n/a
97.426	0.09	194852	keystroke_Key.space	Key.space	n/a
97.831	0.09	195662	keystroke_a	a	n/a
97.9815	0.0745	195963	keystroke_f	f	n/a
98.131	0.105	196262	keystroke_f	f	n/a
98.281	0.15	196562	keystroke_e	e	n/a
98.3865	0.0895	196773	keystroke_c	c	n/a
98.611	0.0455	197222	keystroke_t	t	n/a
98.7615	0.075	197523	keystroke_s	s	n/a
99.2705	0.076	198541	keystroke_Key.space	Key.space	n/a
99.4215	0.105	198843	keystroke_c	c	n/a
99.5115	0.09	199023	keystroke_l	l	n/a
99.7205	0.075	199441	keystroke_o	o	n/a
99.7815	0.12	199563	keystroke_s	s	n/a
99.871	0.0895	199742	keystroke_e	e	n/a
101.8665	0.0595	203733	keystroke_Key.enter	Key.enter	n/a
101.9345	7.103	203869	prompt	n/a	syndicate inbox paperbacks gear\n
102.511	0.151	205022	keystroke_s	s	n/a
102.6915	0.075	205383	keystroke_y	y	n/a
102.901	0.0905	205802	keystroke_n	n	n/a
102.976	0.105	205952	keystroke_d	d	n/a
103.126	0.0755	206252	keystroke_i	i	n/a
103.216	0.0905	206432	keystroke_c	c	n/a
103.3365	0.135	206673	keystroke_a	a	n/a
103.486	0.0905	206972	keystroke_t	t	n/a
103.546	0.15	207092	keystroke_e	e	n/a
103.711	0.09	207422	keystroke_Key.space	Key.space	n/a
104.3265	0.135	208653	keystroke_i	i	n/a
104.4315	0.06	208863	keystroke_n	n	n/a
104.5965	0.075	209193	keystroke_b	b	n/a
104.7315	0.104	209463	keystroke_o	o	n/a
104.8505	0.106	209701	keystroke_x	x	n/a
104.986	0.0755	209972	keystroke_Key.space	Key.space	n/a
105.7965	0.0895	211593	keystroke_p	p	n/a
105.901	0.0745	211802	keystroke_a	a	n/a
106.0215	0.09	212043	keystroke_p	p	n/a
106.156	0.12	212312	keystroke_e	e	n/a
106.246	0.09	212492	keystroke_r	r	n/a
106.5465	0.0895	213093	keystroke_b	b	n/a
106.681	0.12	213362	keystroke_a	a	n/a
106.756	0.105	213512	keystroke_c	c	n/a
106.876	0.105	213752	keystroke_k	k	n/a
107.026	0.09	214052	keystroke_s	s	n/a
107.131	0.1045	214262	keystroke_Key.space	Key.space	n/a
107.311	0.075	214622	keystroke_g	g	n/a
107.432	0.1635	214864	keystroke_e	e	n/a
107.5505	0.1505	215101	keystroke_a	a	n/a
107.6555	0.09	215311	keystroke_r	r	n/a
108.976	0.06	217952	keystroke_Key.enter	Key.enter	n/a
109.0405	7.5425	218081	prompt	n/a	forced railroad guides balanced\n
109.8465	0.03	219693	keystroke_f	f	n/a
109.996	0.075	219992	keystroke_o	o	n/a
110.086	0.075	220172	keystroke_r	r	n/a
110.2955	0.0905	220591	keystroke_c	c	n/a
110.356	0.0895	220712	keystroke_e	e	n/a
110.536	0.1045	221072	keystroke_d	d	n/a
110.6705	0.0905	221341	keystroke_Key.space	Key.space	n/a
111.196	0.1205	222392	keystroke_r	r	n/a
111.3005	0.105	222601	keystroke_a	a	n/a
111.3915	0.1045	222783	keystroke_i	i	n/a
111.5415	0.1195	223083	keystroke_l	l	n/a
111.7055	0.0755	223411	keystroke_r	r	n/a
111.8415	0.075	223683	keystroke_o	o	n/a
111.9305	0.105	223861	keystroke_a	a	n/a
112.0215	0.104	224043	keystroke_d	d	n/a
112.3355	0.0755	224671	keystroke_Key.space	Key.space	n/a
112.7565	0.059	225513	keystroke_g	g	n/a
112.8315	0.1345	225663	keystroke_u	u	n/a
112.9055	0.1205	225811	keystroke_i	i	n/a
112.9805	0.0905	225961	keystroke_d	d	n/a
113.1605	0.045	226321	keystroke_e	e	n/a
113.2955	0.0755	226591	keystroke_s	s	n/a
113.821	0.09	227642	keystroke_Key.space	Key.space	n/a
114.331	0.0745	228662	keystroke_b	b	n/a
114.4355	0.0755	228871	keystroke_a	a	n/a
114.7505	0.106	229501	keystroke_l	l	n/a
114.8405	0.075	229681	keystroke_a	a	n/a
114.991	0.075	229982	keystroke_n	n	n/a
115.111	0.1195	230222	keystroke_c	c	n/a
115.216	0.0895	230432	keystroke_e	e	n/a
115.4405	0.061	230881	keystroke_d	d	n/a
116.5055	0.0755	233011	keystroke_Key.enter	Key.enter	n/a
116.587	5.8155	233174	prompt	n/a	discover wild fear ieee\n
117.2265	0.075	234453	keystroke_d	d	n/a
117.3605	0.091	234721	keystroke_i	i	n/a
117.4515	0.105	234903	keystroke_s	s	n/a
117.8115	0.09	235623	keystroke_o	o	n/a
118.216	0.0895	236432	keystroke_Key.backspace	Key.backspace	n/a
118.291	0.0755	236582	keystroke_c	c	n/a
118.532	0.0895	237064	keystroke_o	o	n/a
118.6515	0.06	237303	keystroke_v	v	n/a
118.7555	0.1805	237511	keystroke_e	e	n/a
118.906	0.06	237812	keystroke_r	r	n/a
119.326	0.06	238652	keystroke_Key.space	Key.space	n/a
119.686	0.075	239372	keystroke_w	w	n/a
119.776	0.075	239552	keystroke_i	i	n/a
119.957	0.0745	239914	keystroke_l	l	n/a
120.047	0.074	240094	keystroke_d	d	n/a
120.166	0.075	240332	keystroke_Key.space	Key.space	n/a
120.6465	0.075	241293	keystroke_f	f	n/a
120.796	0.1505	241592	keystroke_e	e	n/a
120.901	0.1355	241802	keystroke_a	a	n/a
120.9905	0.091	241981	keystroke_r	r	n/a
121.1105	0.1205	242221	keystroke_Key.space	Key.space	n/a
121.3365	0.09	242673	keystroke_i	i	n/a
121.4555	0.06	242911	keystroke_e	e	n/a
121.5915	0.075	243183	keystroke_e	e	n/a
121.756	0.0755	243512	keystroke_e	e	n/a
122.3105	0.09	244621	keystroke_Key.enter	Key.enter	n/a
122.4055	6.672	244811	prompt	n/a	useful friday cultural bags\n
123.1965	0.075	246393	keystroke_u	u	n/a
123.2855	0.1205	246571	keystroke_s	s	n/a
123.3915	0.089	246783	keystroke_e	e	n/a
123.5565	0.0895	247113	keystroke_f	f	n/a
123.661	0.135	247322	keystroke_u	u	n/a
123.811	0.09	247622	keystroke_l	l	n/a
123.946	0.075	247892	keystroke_Key.space	Key.space	n/a
124.231	0.0595	248462	keystroke_f	f	n/a
124.4255	0.06	248851	keystroke_r	r	n/a
124.5455	0.09	249091	keystroke_i	i	n/a
124.7565	0.1495	249513	keystroke_d	d	n/a
124.8915	0.105	249783	keystroke_a	a	n/a
125.251	0.09	250502	keystroke_y	y	n/a
125.401	0.06	250802	keystroke_Key.space	Key.space	n/a
126.136	0.1055	252272	keystroke_c	c	n/a
126.2865	0.105	252573	keystroke_u	u	n/a
126.421	0.105	252842	keystroke_l	l	n/a
126.541	0.075	253082	keystroke_t	t	n/a
126.721	0.0745	253442	keystroke_u	u	n/a
126.8105	0.09	253621	keystroke_r	r	n/a
126.946	0.1045	253892	keystroke_a	a	n/a
127.081	0.105	254162	keystroke_l	l	n/a
127.561	0.0595	255122	keystroke_Key.space	Key.space	n/a
128.071	0.0745	256142	keystroke_b	b	n/a
128.1765	0.0745	256353	keystroke_a	a	n/a
128.296	0.06	256592	keystroke_g	g	n/a
128.476	0.09	256952	keystroke_s	s	n/a
129.0015	0.0745	258003	keystroke_Key.enter	Key.enter	n/a
129.0835	7.33	258167	prompt	n/a	dana remarks builders robbie\n
129.616	0.0605	259232	keystroke_d	d	n/a
130.0065	0.09	260013	keystroke_a	a	n/a
130.1115	0.105	260223	keystroke_n	n	n/a
130.2315	0.059	260463	keystroke_a	a	n/a
130.3655	0.075	260731	keystroke_Key.space	Key.space	n/a
130.696	0.0895	261392	keystroke_r	r	n/a
130.7565	0.1045	261513	keystroke_e	e	n/a
130.8765	0.15	261753	keystroke_m	m	n/a
131.0115	0.119	262023	keystroke_a	a	n/a
131.1315	0.104	262263	keystroke_r	r	n/a
131.2665	0.09	262533	keystroke_k	k	n/a
131.3415	0.089	262683	keystroke_s	s	n/a
131.521	0.0595	263042	keystroke_Key.space	Key.space	n/a
132.7065	0.074	265413	keystroke_b	b	n/a
133.0665	0.1345	266133	keystroke_u	u	n/a
133.1705	0.1355	266341	keystroke_i	i	n/a
133.321	0.15	266642	keystroke_l	l	n/a
133.441	0.06	266882	keystroke_d	d	n/a
133.636	0.075	267272	keystroke_e	e	n/a
133.6815	0.1195	267363	keystroke_r	r	n/a
133.9215	0.0745	267843	keystroke_s	s	n/a
134.0565	0.0445	268113	keystroke_Key.space	Key.space	n/a
134.8665	0.075	269733	keystroke_r	r	n/a
134.9855	0.09	269971	keystroke_o	o	n/a
135.2115	0.09	270423	keystroke_b	b	n/a
135.3615	0.075	270723	keystroke_b	b	n/a
135.5255	0.09	271051	keystroke_i	i	n/a
135.6315	0.075	271263	keystroke_e	e	n/a
136.3355	0.076	272671	keystroke_Key.enter	Key.enter	n/a
136.4175	8.2155	272835	prompt	n/a	logical reliance minimal fitting\n
137.1615	0.09	274323	keystroke_l	l	n/a
137.4015	0.09	274803	keystroke_o	o	n/a
137.7315	0.1195	275463	keystroke_i	i	n/a
138.2405	0.075	276481	keystroke_Key.backspace	Key.backspace	n/a
138.5415	0.06	277083	keystroke_g	g	n/a
138.661	0.091	277322	keystroke_i	i	n/a
138.752	0.119	277504	keystroke_c	c	n/a
138.856	0.09	277712	keystroke_a	a	n/a
138.916	0.105	277832	keystroke_l	l	n/a
139.051	0.075	278102	keystroke_Key.space	Key.space	n/a
139.7865	0.12	279573	keystroke_r	r	n/a
139.861	0.12	279722	keystroke_e	e	n/a
139.9965	0.09	279993	keystroke_l	l	n/a
140.146	0.1055	280292	keystroke_i	i	n/a
140.2665	0.089	280533	keystroke_a	a	n/a
140.3865	0.09	280773	keystroke_n	n	n/a
140.5515	0.15	281103	keystroke_c	c	n/a
140.6865	0.1195	281373	keystroke_e	e	n/a
140.821	0.075	281642	keystroke_Key.space	Key.space	n/a
141.526	0.135	283052	keystroke_m	m	n/a
141.766	0.1355	283532	keystroke_i	i	n/a
141.871	0.1205	283742	keystroke_n	n	n/a
142.006	0.12	284012	keystroke_i	i	n/a
142.231	0.12	284462	keystroke_m	m	n/a
142.3665	0.1045	284733	keystroke_a	a	n/a
142.501	0.105	285002	keystroke_l	l	n/a
142.681	0.0745	285362	keystroke_Key.space	Key.space	n/a
143.311	0.0605	286622	keystroke_f	f	n/a
143.401	0.09	286802	keystroke_i	i	n/a
143.5515	0.0445	287103	keystroke_t	t	n/a
143.656	0.075	287312	keystroke_t	t	n/a
143.7465	0.1195	287493	keystroke_i	i	n/a
143.806	0.1205	287612	keystroke_n	n	n/a
143.911	0.075	287822	keystroke_g	g	n/a
144.5265	0.1045	289053	keystroke_Key.enter	Key.enter	n/a
144.6375	7.165	289275	prompt	n/a	stadium warnings alpha always\n
145.231	0.0905	290462	keystroke_s	s	n/a
145.3955	0.061	290791	keystroke_t	t	n/a
145.471	0.06	290942	keystroke_a	a	n/a
145.786	0.06	291572	keystroke_d	d	n/a
146.056	0.09	292112	keystroke_i	i	n/a
146.2065	0.075	292413	keystroke_u	u	n/a
146.4165	0.075	292833	keystroke_m	m	n/a
146.521	0.0745	293042	keystroke_Key.space	Key.space	n/a
147.1805	0.1205	294361	keystroke_w	w	n/a
147.286	0.135	294572	keystroke_a	a	n/a
147.3755	0.105	294751	keystroke_r	r	n/a
147.4655	0.09	294931	keystroke_n	n	n/a
147.6165	0.105	295233	keystroke_i	i	n/a
147.691	0.0745	295382	keystroke_n	n	n/a
147.736	0.0895	295472	keystroke_g	g	n/a
147.871	0.1045	295742	keystroke_s	s	n/a
147.991	0.06	295982	keystroke_Key.space	Key.space	n/a
148.651	0.09	297302	keystroke_a	a	n/a
148.7715	0.089	297543	keystroke_l	l	n/a
148.996	0.105	297992	keystroke_p	p	n/a
149.131	0.12	298262	keystroke_h	h	n/a
149.296	0.06	298592	keystroke_a	a	n/a
149.386	0.06	298772	keystroke_Key.space	Key.space	n/a
150.121	0.0895	300242	keystroke_a	a	n/a
150.2405	0.106	300481	keystroke_l	l	n/a
150.3465	0.06	300693	keystroke_w	w	n/a
150.421	0.1345	300842	keystroke_a	a	n/a
150.6155	0.0755	301231	keystroke_y	y	n/a
150.7205	0.09	301441	keystroke_s	s	n/a
151.756	0.045	303512	keystroke_Key.enter	Key.enter	n/a
151.807	7.9905	303614	prompt	n/a	oakland optical hours loose\n
152.7615	0.12	305523	keystroke_o	o	n/a
153.121	0.1055	306242	keystroke_k	k	n/a
153.2565	0.09	306513	keystroke_a	a	n/a
153.661	0.0605	307322	keystroke_Key.backspace	Key.backspace	n/a
153.811	0.0605	307622	keystroke_Key.backspace	Key.backspace	n/a
153.946	0.06	307892	keystroke_a	a	n/a
154.096	0.12	308192	keystroke_k	k	n/a
154.636	0.09	309272	keystroke_l	l	n/a
154.771	0.075	309542	keystroke_a	a	n/a
154.891	0.09	309782	keystroke_n	n	n/a
154.9965	0.044	309993	keystroke_d	d	n/a
155.1305	0.075	310261	keystroke_Key.space	Key.space	n/a
156.3755	0.075	312751	keystroke_o	o	n/a
156.5405	0.09	313081	keystroke_p	p	n/a
156.6915	0.075	313383	keystroke_t	t	n/a
156.8255	0.106	313651	keystroke_i	i	n/a
156.9465	0.089	313893	keystroke_c	c	n/a
157.021	0.12	314042	keystroke_a	a	n/a
157.1255	0.091	314251	keystroke_l	l	n/a
157.261	0.06	314522	keystroke_Key.space	Key.space	n/a
158.1015	0.075	316203	keystroke_h	h	n/a
158.251	0.105	316502	keystroke_o	o	n/a
158.326	0.0905	316652	keystroke_u	u	n/a
158.386	0.12	316772	keystroke_r	r	n/a
158.491	0.09	316982	keystroke_s	s	n/a
158.596	0.0895	317192	keystroke_Key.space	Key.space	n/a
158.7455	0.0905	317491	keystroke_l	l	n/a
158.971	0.0455	317942	keystroke_o	o	n/a
159.106	0.0755	318212	keystroke_o	o	n/a
159.151	0.1045	318302	keystroke_s	s	n/a
159.2265	0.09	318453	keystroke_e	e	n/a
159.736	0.0595	319472	keystroke_Key.enter	Key.enter	n/a
159.804	8.499	319608	prompt	n/a	wishes electron carpet variation\n
160.411	0.075	320822	keystroke_w	w	n/a
160.561	0.09	321122	keystroke_i	i	n/a
160.666	0.0755	321332	keystroke_s	s	n/a
160.8455	0.031	321691	keystroke_e	e	n/a
161.296	0.0605	322592	keystroke_Key.backspace	Key.backspace	n/a
161.4465	0.0895	322893	keystroke_h	h	n/a
161.476	0.1505	322952	keystroke_e	e	n/a
161.567	0.134	323134	keystroke_s	s	n/a
161.656	0.0755	323312	keystroke_Key.space	Key.space	n/a
162.2265	0.06	324453	keystroke_e	e	n/a
162.3165	0.105	324633	keystroke_l	l	n/a
162.4065	0.135	324813	keystroke_e	e	n/a
162.5115	0.105	325023	keystroke_c	c	n/a
162.7065	0.0595	325413	keystroke_t	t	n/a
162.916	0.15	325832	keystroke_o	o	n/a
163.021	0.0605	326042	keystroke_n	n	n/a
163.3215	0.044	326643	keystroke_Key.backspace	Key.backspace	n/a
163.4405	0.076	326881	keystroke_Key.backspace	Key.backspace	n/a
163.5315	0.074	327063	keystroke_r	r	n/a
163.6965	0.119	327393	keystroke_o	o	n/a
163.7865	0.119	327573	keystroke_n	n	n/a
163.9355	0.0755	327871	keystroke_Key.space	Key.space	n/a
164.7765	0.1195	329553	keystroke_c	c	n/a
164.911	0.105	329822	keystroke_a	a	n/a
165.0015	0.0745	330003	keystroke_r	r	n/a
165.091	0.075	330182	keystroke_p	p	n/a
165.211	0.12	330422	keystroke_e	e	n/a
165.286	0.1055	330572	keystroke_t	t	n/a
165.406	0.075	330812	keystroke_Key.space	Key.space	n/a
166.2915	0.089	332583	keystroke_v	v	n/a
166.3965	0.12	332793	keystroke_a	a	n/a
166.5015	0.09	333003	keystroke_r	r	n/a
166.6215	0.089	333243	keystroke_i	i	n/a
166.771	0.0895	333542	keystroke_a	a	n/a
166.9205	0.0615	333841	keystroke_t	t	n/a
167.0715	0.3445	334143	keystroke_i	i	n/a
167.1755	0.1955	334351	keystroke_o	o	n/a
167.2665	0.165	334533	keystroke_n	n	n/a
168.226	0.075	336452	keystroke_Key.enter	Key.enter	n/a
168.307	10.991	336614	prompt	n/a	variations footage beverly recommend\n
169.276	0.0755	338552	keystroke_v	v	n/a
169.336	0.165	338672	keystroke_a	a	n/a
169.471	0.089	338942	keystroke_r	r	n/a
169.6215	0.1045	339243	keystroke_i	i	n/a
169.756	0.1055	339512	keystroke_a	a	n/a
169.8455	0.061	339691	keystroke_t	t	n/a
170.0415	0.2545	340083	keystroke_i	i	n/a
170.131	0.18	340262	keystroke_o	o	n/a
170.176	0.15	340352	keystroke_n	n	n/a
170.341	0.105	340682	keystroke_s	s	n/a
170.536	0.06	341072	keystroke_Key.space	Key.space	n/a
171.2565	0.0745	342513	keystroke_f	f	n/a
171.361	0.06	342722	keystroke_o	o	n/a
171.5115	0.0745	343023	keystroke_o	o	n/a
171.6015	0.0745	343203	keystroke_t	t	n/a
171.751	0.09	343502	keystroke_a	a	n/a
171.826	0.0755	343652	keystroke_g	g	n/a
171.9165	0.1045	343833	keystroke_e	e	n/a
172.036	0.06	344072	keystroke_Key.space	Key.space	n/a
172.876	0.0895	345752	keystroke_b	b	n/a
172.9665	0.1045	345933	keystroke_e	e	n/a
173.191	0.09	346382	keystroke_v	v	n/a
173.296	0.15	346592	keystroke_e	e	n/a
173.416	0.0755	346832	keystroke_r	r	n/a
173.5205	0.105	347041	keystroke_y	y	n/a
173.641	0.105	347282	keystroke_l	l	n/a
173.836	0.06	347672	keystroke_y	y	n/a
173.956	0.03	347912	keystroke_Key.space	Key.space	n/a
174.241	0.0445	348482	keystroke_Key.backspace	Key.backspace	n/a
174.3605	0.06	348721	keystroke_Key.backspace	Key.backspace	n/a
174.5105	0.046	349021	keystroke_Key.backspace	Key.backspace	n/a
174.6465	0.075	349293	keystroke_Key.backspace	Key.backspace	n/a
175.1865	0.075	350373	keystroke_l	l	n/a
175.4115	0.045	350823	keystroke_y	y	n/a
175.5755	0.06	351151	keystroke_Key.space	Key.space	n/a
176.5815	0.12	353163	keystroke_r	r	n/a
176.6715	0.105	353343	keystroke_e	e	n/a
176.8205	0.105	353641	keystroke_c	c	n/a
176.9265	0.09	353853	keystroke_o	o	n/a
177.1055	0.075	354211	keystroke_m	m	n/a
177.2705	0.091	354541	keystroke_m	m	n/a
177.5115	0.0595	355023	keystroke_e	e	n/a
177.691	0.1195	355382	keystroke_n	n	n/a
177.8265	0.06	355653	keystroke_d	d	n/a
179.221	0.0755	358442	keystroke_Key.enter	Key.enter	n/a
179.3025	10.5105	358605	prompt	n/a	mountain comparable troops hopkins\n
181.0665	0.15	362133	keystroke_m	m	n/a
181.3215	0.135	362643	keystroke_o	o	n/a
181.4115	0.09	362823	keystroke_u	u	n/a
181.6065	0.09	363213	keystroke_n	n	n/a
181.6815	0.09	363363	keystroke_t	t	n/a
181.7865	0.075	363573	keystroke_a	a	n/a
181.8465	0.15	363693	keystroke_i	i	n/a
181.9365	0.12	363873	keystroke_n	n	n/a
182.0405	0.061	364081	keystroke_Key.space	Key.space	n/a
182.701	0.076	365402	keystroke_c	c	n/a
182.791	0.105	365582	keystroke_o	o	n/a
182.851	0.09	365702	keystroke_m	m	n/a
183.001	0.075	366002	keystroke_p	p	n/a
183.091	0.09	366182	keystroke_a	a	n/a
183.166	0.075	366332	keystroke_r	r	n/a
183.3015	0.0595	366603	keystroke_a	a	n/a
183.392	0.074	366784	keystroke_b	b	n/a
183.526	0.09	367052	keystroke_l	l	n/a
183.6465	0.059	367293	keystroke_e	e	n/a
183.781	0.045	367562	keystroke_Key.space	Key.space	n/a
184.5315	0.045	369063	keystroke_t	t	n/a
184.696	0.075	369392	keystroke_r	r	n/a
184.831	0.0905	369662	keystroke_o	o	n/a
184.951	0.0895	369902	keystroke_o	o	n/a
185.1455	0.075	370291	keystroke_p	p	n/a
185.2665	0.089	370533	keystroke_s	s	n/a
185.416	0.0455	370832	keystroke_Key.space	Key.space	n/a
186.2415	0.09	372483	keystroke_b	b	n/a
186.5565	0.06	373113	keystroke_Key.backspace	Key.backspace	n/a
186.737	0.1195	373474	keystroke_h	h	n/a
186.9165	0.105	373833	keystroke_o	o	n/a
187.2015	0.09	374403	keystroke_p	p	n/a
187.921	0.09	375842	keystroke_k	k	n/a
188.491	0.0605	376982	keystroke_i	i	n/a
188.611	0.0755	377222	keystroke_n	n	n/a
188.806	0.075	377612	keystroke_s	s	n/a
189.7365	0.0745	379473	keystroke_Key.enter	Key.enter	n/a
189.818	7.18	379636	prompt	n/a	panel movement neural hardwood\n
190.486	0.105	380972	keystroke_p	p	n/a
190.636	0.075	381272	keystroke_a	a	n/a
190.726	0.09	381452	keystroke_n	n	n/a
190.831	0.075	381662	keystroke_e	e	n/a
190.936	0.0905	381872	keystroke_l	l	n/a
191.071	0.09	382142	keystroke_Key.space	Key.space	n/a
191.281	0.09	382562	keystroke_m	m	n/a
191.386	0.09	382772	keystroke_o	o	n/a
191.431	0.105	382862	keystroke_v	v	n/a
191.5515	0.09	383103	keystroke_e	e	n/a
191.6565	0.075	383313	keystroke_m	m	n/a
191.746	0.0745	383492	keystroke_e	e	n/a
191.8365	0.09	383673	keystroke_n	n	n/a
191.9415	0.075	383883	keystroke_t	t	n/a
192.0455	0.076	384091	keystroke_Key.space	Key.space	n/a
192.811	0.105	385622	keystroke_n	n	n/a
192.901	0.1345	385802	keystroke_e	e	n/a
193.021	0.0755	386042	keystroke_r	r	n/a
193.141	0.105	386282	keystroke_u	u	n/a
193.261	0.075	386522	keystroke_a	a	n/a
193.366	0.105	386732	keystroke_l	l	n/a
193.561	0.03	387122	keystroke_Key.space	Key.space	n/a
193.816	0.045	387632	keystroke_Key.backspace	Key.backspace	n/a
193.936	0.0745	387872	keystroke_Key.backspace	Key.backspace	n/a
194.0865	0.075	388173	keystroke_Key.backspace	Key.backspace	n/a
194.251	0.09	388502	keystroke_Key.backspace	Key.backspace	n/a
194.401	0.105	388802	keystroke_Key.backspace	Key.backspace	n/a
194.5805	0.0905	389161	keystroke_u	u	n/a
194.701	0.1055	389402	keystroke_r	r	n/a
194.821	0.0905	389642	keystroke_a	a	n/a
194.9255	0.121	389851	keystroke_l	l	n/a
195.076	0.0745	390152	keystroke_Key.space	Key.space	n/a
195.751	0.0905	391502	keystroke_h	h	n/a
195.8415	0.1055	391683	keystroke_a	a	n/a
195.9475	0.119	391895	keystroke_r	r	n/a
196.0215	0.09	392043	keystroke_d	d	n/a
196.2015	0.089	392403	keystroke_w	w	n/a
196.3515	0.044	392703	keystroke_o	o	n/a
196.4865	0.09	392973	keystroke_o	o	n/a
196.5915	0.06	393183	keystroke_d	d	n/a
196.9515	0.0445	393903	keystroke_Key.enter	Key.enter	n/a
197.0015	8.0065	394003	prompt	n/a	leslie lying coverage lift\n
197.701	0.105	395402	keystroke_l	l	n/a
198.031	0.0755	396062	keystroke_e	e	n/a
198.1655	0.121	396331	keystroke_l	l	n/a
198.3465	0.089	396693	keystroke_s	s	n/a
198.7065	0.029	397413	keystroke_Key.backspace	Key.backspace	n/a
198.8115	0.09	397623	keystroke_Key.backspace	Key.backspace	n/a
198.9165	0.059	397833	keystroke_s	s	n/a
199.0655	0.105	398131	keystroke_l	l	n/a
199.351	0.106	398702	keystroke_i	i	n/a
199.5015	0.089	399003	keystroke_e	e	n/a
199.6055	0.0755	399211	keystroke_Key.space	Key.space	n/a
200.3865	0.09	400773	keystroke_l	l	n/a
200.5815	0.075	401163	keystroke_y	y	n/a
200.7615	0.105	401523	keystroke_i	i	n/a
200.792	0.1045	401584	keystroke_n	n	n/a
200.8815	0.075	401763	keystroke_g	g	n/a
201.241	0.0595	402482	keystroke_Key.space	Key.space	n/a
201.6915	0.0895	403383	keystroke_c	c	n/a
201.796	0.0905	403592	keystroke_o	o	n/a
201.9165	0.075	403833	keystroke_v	v	n/a
202.0215	0.1345	404043	keystroke_e	e	n/a
202.126	0.0755	404252	keystroke_r	r	n/a
202.2465	0.135	404493	keystroke_a	a	n/a
202.3665	0.074	404733	keystroke_g	g	n/a
202.4265	0.105	404853	keystroke_e	e	n/a
203.026	0.075	406052	keystroke_Key.space	Key.space	n/a
203.176	0.12	406352	keystroke_l	l	n/a
203.356	0.105	406712	keystroke_i	i	n/a
203.431	0.09	406862	keystroke_f	f	n/a
203.641	0.0605	407282	keystroke_t	t	n/a
204.9465	0.0595	409893	keystroke_Key.enter	Key.enter	n/a
205.0125	6.2805	410025	prompt	n/a	neon assumes oval reason\n
205.6065	0.105	411213	keystroke_n	n	n/a
205.7255	0.06	411451	keystroke_e	e	n/a
205.861	0.1495	411722	keystroke_o	o	n/a
205.9505	0.106	411901	keystroke_n	n	n/a
206.0705	0.0755	412141	keystroke_Key.space	Key.space	n/a
206.8065	0.09	413613	keystroke_a	a	n/a
206.9565	0.09	413913	keystroke_s	s	n/a
207.1215	0.09	414243	keystroke_s	s	n/a
207.1965	0.12	414393	keystroke_u	u	n/a
207.4365	0.089	414873	keystroke_m	m	n/a
207.5105	0.136	415021	keystroke_e	e	n/a
207.6015	0.135	415203	keystroke_s	s	n/a
207.8105	0.076	415621	keystroke_Key.space	Key.space	n/a
208.6365	0.09	417273	keystroke_o	o	n/a
208.7415	0.12	417483	keystroke_v	v	n/a
208.8305	0.091	417661	keystroke_a	a	n/a
208.9505	0.09	417901	keystroke_l	l	n/a
209.446	0.09	418892	keystroke_Key.space	Key.space	n/a
209.7315	0.134	419463	keystroke_r	r	n/a
209.8055	0.121	419611	keystroke_e	e	n/a
209.911	0.12	419822	keystroke_a	a	n/a
209.986	0.15	419972	keystroke_s	s	n/a
210.181	0.15	420362	keystroke_o	o	n/a
210.271	0.105	420542	keystroke_n	n	n/a
211.2015	0.09	422403	keystroke_Key.enter	Key.enter	n/a
211.2965	11.2175	422593	prompt	n/a	but reductions presentations risk\n
211.9215	0.104	423843	keystroke_b	b	n/a
212.0705	0.105	424141	keystroke_u	u	n/a
212.1905	0.061	424381	keystroke_t	t	n/a
212.281	0.09	424562	keystroke_Key.space	Key.space	n/a
212.371	0.1045	424742	keystroke_r	r	n/a
212.446	0.1045	424892	keystroke_e	e	n/a
212.6255	0.09	425251	keystroke_d	d	n/a
212.7615	0.089	425523	keystroke_u	u	n/a
212.8665	0.06	425733	keystroke_c	c	n/a
213.0465	0.045	426093	keystroke_t	t	n/a
213.1215	0.3	426243	keystroke_i	i	n/a
213.2265	0.21	426453	keystroke_n	n	n/a
213.241	0.1355	426482	keystroke_o	o	n/a
213.4515	0.06	426903	keystroke_s	s	n/a
213.901	0.03	427802	keystroke_Key.backspace	Key.backspace	n/a
214.186	0.0755	428372	keystroke_Key.backspace	Key.backspace	n/a
214.3365	0.09	428673	keystroke_Key.backspace	Key.backspace	n/a
214.5915	0.15	429183	keystroke_o	o	n/a
214.7265	0.135	429453	keystroke_n	n	n/a
214.9065	0.09	429813	keystroke_s	s	n/a
215.041	0.075	430082	keystroke_Key.space	Key.space	n/a
215.986	0.105	431972	keystroke_p	p	n/a
216.076	0.151	432152	keystroke_r	r	n/a
216.1665	0.15	432333	keystroke_e	e	n/a
216.3015	0.135	432603	keystroke_s	s	n/a
216.4665	0.105	432933	keystroke_n	n	n/a
216.6315	0.075	433263	keystroke_t	t	n/a
216.7505	0.106	433501	keystroke_a	a	n/a
216.812	0.0895	433624	keystroke_t	t	n/a
216.9615	0.195	433923	keystroke_i	i	n/a
217.067	0.0595	434134	keystroke_o	o	n/a
217.3065	0.06	434613	keystroke_Key.backspace	Key.backspace	n/a
217.4415	0.06	434883	keystroke_Key.backspace	Key.backspace	n/a
217.5755	0.076	435151	keystroke_Key.backspace	Key.backspace	n/a
217.726	0.075	435452	keystroke_Key.backspace	Key.backspace	n/a
217.906	0.075	435812	keystroke_Key.backspace	Key.backspace	n/a
218.1765	0.075	436353	keystroke_Key.backspace	Key.backspace	n/a
218.3715	0.09	436743	keystroke_e	e	n/a
218.4915	0.105	436983	keystroke_n	n	n/a
218.6715	0.06	437343	keystroke_t	t	n/a
218.8515	0.0445	437703	keystroke_a	a	n/a
218.866	0.075	437732	keystroke_t	t	n/a
219.061	0.2255	438122	keystroke_i	i	n/a
219.121	0.15	438242	keystroke_o	o	n/a
219.2265	0.105	438453	keystroke_n	n	n/a
219.4965	0.0905	438993	keystroke_s	s	n/a
219.9315	0.075	439863	keystroke_Key.space	Key.space	n/a
220.2465	0.0595	440493	keystroke_r	r	n/a
220.336	0.09	440672	keystroke_i	i	n/a
220.486	0.09	440972	keystroke_s	s	n/a
220.561	0.0755	441122	keystroke_k	k	n/a
222.451	0.06	444902	keystroke_Key.enter	Key.enter	n/a
222.5165	6.206	445033	prompt	n/a	vanilla exam reaching equal\n
223.201	0.09	446402	keystroke_v	v	n/a
223.4265	0.0905	446853	keystroke_a	a	n/a
223.531	0.12	447062	keystroke_n	n	n/a
223.711	0.091	447422	keystroke_i	i	n/a
223.8915	0.075	447783	keystroke_l	l	n/a
224.026	0.105	448052	keystroke_l	l	n/a
224.1465	0.09	448293	keystroke_a	a	n/a
224.266	0.0905	448532	keystroke_Key.space	Key.space	n/a
224.3855	0.0615	448771	keystroke_e	e	n/a
224.5815	0.09	449163	keystroke_x	x	n/a
224.7165	0.06	449433	keystroke_a	a	n/a
224.8365	0.105	449673	keystroke_m	m	n/a
225.1365	0.06	450273	keystroke_Key.space	Key.space	n/a
225.6605	0.121	451321	keystroke_r	r	n/a
225.7365	0.119	451473	keystroke_e	e	n/a
225.8415	0.1345	451683	keystroke_a	a	n/a
225.9465	0.12	451893	keystroke_c	c	n/a
226.0515	0.06	452103	keystroke_h	h	n/a
226.2015	0.1345	452403	keystroke_i	i	n/a
226.2605	0.1055	452521	keystroke_n	n	n/a
226.3055	0.0755	452611	keystroke_g	g	n/a
226.9065	0.09	453813	keystroke_Key.space	Key.space	n/a
227.341	0.1055	454682	keystroke_e	e	n/a
227.626	0.1055	455252	keystroke_q	q	n/a
227.761	0.135	455522	keystroke_u	u	n/a
227.956	0.09	455912	keystroke_a	a	n/a
228.106	0.12	456212	keystroke_l	l	n/a
228.676	0.045	457352	keystroke_Key.enter	Key.enter	n/a
228.7275	9.011	457455	prompt	n/a	cradle ended derived authentic\n
229.321	0.1055	458642	keystroke_c	c	n/a
229.5315	0.119	459063	keystroke_a	a	n/a
229.6215	0.1345	459243	keystroke_r	r	n/a
229.771	0.09	459542	keystroke_d	d	n/a
229.9365	0.074	459873	keystroke_l	l	n/a
230.236	0.0305	460472	keystroke_Key.backspace	Key.backspace	n/a
230.3705	0.06	460741	keystroke_Key.backspace	Key.backspace	n/a
230.4905	0.0905	460981	keystroke_Key.backspace	Key.backspace	n/a
230.671	0.09	461342	keystroke_Key.backspace	Key.backspace	n/a
230.7765	0.075	461553	keystroke_r	r	n/a
230.866	0.1205	461732	keystroke_a	a	n/a
231.031	0.045	462062	keystroke_d	d	n/a
231.106	0.1055	462212	keystroke_l	l	n/a
231.2265	0.045	462453	keystroke_e	e	n/a
231.6315	0.06	463263	keystroke_Key.space	Key.space	n/a
232.051	0.045	464102	keystroke_e	e	n/a
232.126	0.106	464252	keystroke_n	n	n/a
232.246	0.045	464492	keystroke_d	d	n/a
232.4105	0.03	464821	keystroke_e	e	n/a
232.5455	0.061	465091	keystroke_d	d	n/a
232.651	0.09	465302	keystroke_Key.space	Key.space	n/a
233.401	0.105	466802	keystroke_d	d	n/a
233.6115	0.1205	467223	keystroke_e	e	n/a
233.6865	0.104	467373	keystroke_r	r	n/a
234.1815	0.1045	468363	keystroke_i	i	n/a
234.302	0.074	468604	keystroke_v	v	n/a
234.436	0.06	468872	keystroke_e	e	n/a
234.616	0.075	469232	keystroke_d	d	n/a
234.736	0.09	469472	keystroke_Key.space	Key.space	n/a
235.291	0.075	470582	keystroke_a	a	n/a
235.4865	0.075	470973	keystroke_u	u	n/a
235.5765	0.0895	471153	keystroke_t	t	n/a
235.711	0.0905	471422	keystroke_h	h	n/a
235.9065	0.09	471813	keystroke_e	e	n/a
236.0865	0.12	472173	keystroke_n	n	n/a
236.2505	0.106	472501	keystroke_t	t	n/a
236.491	0.0755	472982	keystroke_i	i	n/a
236.5805	0.075	473161	keystroke_c	c	n/a
237.6615	0.074	475323	keystroke_Key.enter	Key.enter	n/a
237.742	9.236	475484	prompt	n/a	modeling hospitals efficiency upgrading\n
238.6065	0.105	477213	keystroke_m	m	n/a
238.7255	0.091	477451	keystroke_o	o	n/a
238.771	0.075	477542	keystroke_d	d	n/a
238.9515	0.0745	477903	keystroke_e	e	n/a
239.0565	0.104	478113	keystroke_l	l	n/a
239.2805	0.09	478561	keystroke_i	i	n/a
239.342	0.0895	478684	keystroke_n	n	n/a
239.4155	0.0605	478831	keystroke_g	g	n/a
239.536	0.06	479072	keystroke_Key.space	Key.space	n/a
240.272	0.074	480544	keystroke_h	h	n/a
240.4205	0.091	480841	keystroke_o	o	n/a
240.5255	0.0905	481051	keystroke_s	s	n/a
240.661	0.0755	481322	keystroke_p	p	n/a
241.0655	0.091	482131	keystroke_i	i	n/a
241.1865	0.105	482373	keystroke_t	t	n/a
241.307	0.0895	482614	keystroke_a	a	n/a
241.4105	0.091	482821	keystroke_l	l	n/a
241.5765	0.09	483153	keystroke_s	s	n/a
241.6815	0.059	483363	keystroke_Key.space	Key.space	n/a
242.4615	0.06	484923	keystroke_e	e	n/a
242.6415	0.06	485283	keystroke_f	f	n/a
242.7915	0.0755	485583	keystroke_f	f	n/a
243.0465	0.0895	486093	keystroke_i	i	n/a
243.1515	0.0745	486303	keystroke_c	c	n/a
243.2565	0.0895	486513	keystroke_i	i	n/a
243.362	0.059	486724	keystroke_e	e	n/a
243.782	0.104	487564	keystroke_n	n	n/a
243.917	0.1345	487834	keystroke_c	c	n/a
244.2305	0.061	488461	keystroke_y	y	n/a
244.3965	0.06	488793	keystroke_Key.space	Key.space	n/a
245.1165	0.059	490233	keystroke_u	u	n/a
245.2365	0.104	490473	keystroke_p	p	n/a
245.3705	0.06	490741	keystroke_g	g	n/a
245.5355	0.091	491071	keystroke_r	r	n/a
245.6415	0.12	491283	keystroke_a	a	n/a
245.7915	0.0905	491583	keystroke_d	d	n/a
245.9715	0.09	491943	keystroke_i	i	n/a
246.017	0.1045	492034	keystroke_n	n	n/a
246.1665	0.045	492333	keystroke_g	g	n/a
246.9015	0.075	493803	keystroke_Key.enter	Key.enter	n/a
246.9825	10.8405	493965	prompt	n/a	accident similarly hierarchy convertible\n
247.6215	0.119	495243	keystroke_a	a	n/a
247.757	0.0735	495514	keystroke_c	c	n/a
247.8905	0.1055	495781	keystroke_c	c	n/a
248.026	0.1055	496052	keystroke_i	i	n/a
248.1165	0.044	496233	keystroke_d	d	n/a
248.2665	0.0895	496533	keystroke_n	n	n/a
248.341	0.09	496682	keystroke_e	e	n/a
248.5665	0.06	497133	keystroke_t	t	n/a
248.6715	0.075	497343	keystroke_Key.space	Key.space	n/a
248.9715	0.045	497943	keystroke_Key.backspace	Key.backspace	n/a
249.091	0.0755	498182	keystroke_Key.backspace	Key.backspace	n/a
249.241	0.09	498482	keystroke_Key.backspace	Key.backspace	n/a
249.421	0.075	498842	keystroke_Key.backspace	Key.backspace	n/a
249.4965	0.09	498993	keystroke_e	e	n/a
249.6615	0.0745	499323	keystroke_n	n	n/a
249.751	0.061	499502	keystroke_t	t	n/a
249.8705	0.06	499741	keystroke_Key.space	Key.space	n/a
250.501	0.1055	501002	keystroke_s	s	n/a
250.666	0.135	501332	keystroke_i	i	n/a
250.742	0.119	501484	keystroke_m	m	n/a
250.951	0.0905	501902	keystroke_i	i	n/a
251.086	0.1055	502172	keystroke_l	l	n/a
251.176	0.12	502352	keystroke_a	a	n/a
251.281	0.0755	502562	keystroke_r	r	n/a
251.491	0.0755	502982	keystroke_l	l	n/a
251.7015	0.0595	503403	keystroke_y	y	n/a
251.8215	0.06	503643	keystroke_Key.space	Key.space	n/a
252.6315	0.12	505263	keystroke_h	h	n/a
252.7965	0.105	505593	keystroke_i	i	n/a
252.9315	0.075	505863	keystroke_e	e	n/a
253.246	0.105	506492	keystroke_a	a	n/a
253.321	0.09	506642	keystroke_r	r	n/a
253.7565	0.06	507513	keystroke_Key.backspace	Key.backspace	n/a
253.8905	0.09	507781	keystroke_Key.backspace	Key.backspace	n/a
253.996	0.061	507992	keystroke_r	r	n/a
254.0865	0.1195	508173	keystroke_a	a	n/a
254.1615	0.075	508323	keystroke_r	r	n/a
254.341	0.0755	508682	keystroke_c	c	n/a
254.417	0.075	508834	keystroke_h	h	n/a
254.626	0.06	509252	keystroke_y	y	n/a
254.731	0.06	509462	keystroke_Key.space	Key.space	n/a
255.466	0.105	510932	keystroke_c	c	n/a
255.631	0.12	511262	keystroke_o	o	n/a
255.736	0.09	511472	keystroke_n	n	n/a
255.8115	0.0745	511623	keystroke_v	v	n/a
255.946	0.12	511892	keystroke_e	e	n/a
256.036	0.075	512072	keystroke_r	r	n/a
256.2465	0.06	512493	keystroke_t	t	n/a
256.4105	0.1205	512821	keystroke_i	i	n/a
256.577	0.1045	513154	keystroke_b	b	n/a
256.726	0.091	513452	keystroke_l	l	n/a
256.8015	0.09	513603	keystroke_e	e	n/a
257.776	0.045	515552	keystroke_Key.enter	Key.enter	n/a
257.8305	6.907	515661	prompt	n/a	lamb aluminum onion sony\n
258.512	0.0895	517024	keystroke_l	l	n/a
258.6315	0.09	517263	keystroke_a	a	n/a
258.8565	0.12	517713	keystroke_m	m	n/a
259.1265	0.06	518253	keystroke_b	b	n/a
259.3515	0.06	518703	keystroke_Key.space	Key.space	n/a
259.9365	0.075	519873	keystroke_a	a	n/a
259.9665	0.105	519933	keystroke_l	l	n/a
260.146	0.09	520292	keystroke_u	u	n/a
260.356	0.091	520712	keystroke_m	m	n/a
260.551	0.135	521102	keystroke_i	i	n/a
260.657	0.089	521314	keystroke_n	n	n/a
260.8805	0.046	521761	keystroke_u	u	n/a
261.0605	0.076	522121	keystroke_m	m	n/a
261.2105	0.06	522421	keystroke_Key.space	Key.space	n/a
262.081	0.1205	524162	keystroke_o	o	n/a
262.276	0.105	524552	keystroke_n	n	n/a
262.501	0.2855	525002	keystroke_i	i	n/a
262.622	0.194	525244	keystroke_o	o	n/a
262.696	0.1505	525392	keystroke_n	n	n/a
263.3715	0.06	526743	keystroke_Key.space	Key.space	n/a
263.5065	0.075	527013	keystroke_s	s	n/a
263.611	0.06	527222	keystroke_o	o	n/a
263.716	0.0905	527432	keystroke_n	n	n/a
263.941	0.046	527882	keystroke_y	y	n/a
264.6765	0.0595	529353	keystroke_Key.enter	Key.enter	n/a
264.741	9.312	529482	prompt	n/a	discipline processes rebound tribe\n
265.4865	0.09	530973	keystroke_d	d	n/a
265.5915	0.12	531183	keystroke_s	s	n/a
266.1615	0.045	532323	keystroke_Key.backspace	Key.backspace	n/a
266.3565	0.06	532713	keystroke_i	i	n/a
266.4315	0.075	532863	keystroke_s	s	n/a
266.8065	0.0745	533613	keystroke_c	c	n/a
266.9265	0.09	533853	keystroke_i	i	n/a
267.151	0.105	534302	keystroke_p	p	n/a
267.421	0.09	534842	keystroke_l	l	n/a
267.616	0.075	535232	keystroke_i	i	n/a
267.676	0.09	535352	keystroke_n	n	n/a
267.736	0.09	535472	keystroke_e	e	n/a
267.871	0.0605	535742	keystroke_Key.space	Key.space	n/a
268.7115	0.09	537423	keystroke_p	p	n/a
268.8315	0.105	537663	keystroke_r	r	n/a
269.2815	0.09	538563	keystroke_o	o	n/a
269.4765	0.105	538953	keystroke_c	c	n/a
269.5365	0.1045	539073	keystroke_e	e	n/a
269.7455	0.06	539491	keystroke_s	s	n/a
269.9115	0.1195	539823	keystroke_s	s	n/a
270.046	0.121	540092	keystroke_e	e	n/a
270.1515	0.1195	540303	keystroke_s	s	n/a
270.301	0.075	540602	keystroke_Key.space	Key.space	n/a
271.2765	0.09	542553	keystroke_r	r	n/a
271.3365	0.12	542673	keystroke_e	e	n/a
271.547	0.0895	543094	keystroke_b	b	n/a
271.7865	0.135	543573	keystroke_o	o	n/a
271.8615	0.12	543723	keystroke_u	u	n/a
272.1015	0.09	544203	keystroke_n	n	n/a
272.1755	0.0905	544351	keystroke_d	d	n/a
272.3265	0.0595	544653	keystroke_Key.space	Key.space	n/a
273.1065	0.06	546213	keystroke_t	t	n/a
273.2415	0.0595	546483	keystroke_r	r	n/a
273.286	0.105	546572	keystroke_i	i	n/a
273.4215	0.075	546843	keystroke_b	b	n/a
273.5265	0.0595	547053	keystroke_e	e	n/a
273.976	0.075	547952	keystroke_Key.enter	Key.enter	n/a
274.056	5.142	548112	prompt	n/a	steel michael but firm\n
274.7415	0.105	549483	keystroke_s	s	n/a
274.9665	0.09	549933	keystroke_t	t	n/a
275.1315	0.0605	550263	keystroke_e	e	n/a
275.297	0.074	550594	keystroke_e	e	n/a
275.4615	0.1505	550923	keystroke_l	l	n/a
275.5655	0.091	551131	keystroke_Key.space	Key.space	n/a
275.7165	0.105	551433	keystroke_m	m	n/a
275.8815	0.09	551763	keystroke_i	i	n/a
275.987	0.0895	551974	keystroke_c	c	n/a
276.0775	0.088	552155	keystroke_h	h	n/a
276.1815	0.09	552363	keystroke_a	a	n/a
276.362	0.059	552724	keystroke_e	e	n/a
276.451	0.09	552902	keystroke_l	l	n/a
276.5865	0.0595	553173	keystroke_Key.space	Key.space	n/a
277.276	0.09	554552	keystroke_b	b	n/a
277.4265	0.0595	554853	keystroke_u	u	n/a
277.5165	0.075	555033	keystroke_t	t	n/a
277.6365	0.089	555273	keystroke_Key.space	Key.space	n/a
277.7565	0.074	555513	keystroke_f	f	n/a
278.101	0.1055	556202	keystroke_i	i	n/a
278.2515	0.06	556503	keystroke_r	r	n/a
278.3265	0.135	556653	keystroke_m	m	n/a
279.106	0.09	558212	keystroke_Key.enter	Key.enter	n/a
279.2025	6.401	558405	prompt	n/a	beside ascii kingston recipes\n
279.961	0.06	559922	keystroke_b	b	n/a
280.0365	0.06	560073	keystroke_e	e	n/a
280.2315	0.0905	560463	keystroke_s	s	n/a
280.412	0.0745	560824	keystroke_i	i	n/a
280.546	0.0605	561092	keystroke_d	d	n/a
280.6965	0.0595	561393	keystroke_e	e	n/a
280.771	0.0905	561542	keystroke_Key.space	Key.space	n/a
280.936	0.09	561872	keystroke_a	a	n/a
281.1015	0.1045	562203	keystroke_s	s	n/a
281.3265	0.0595	562653	keystroke_c	c	n/a
281.461	0.06	562922	keystroke_i	i	n/a
281.596	0.075	563192	keystroke_i	i	n/a
281.731	0.06	563462	keystroke_Key.space	Key.space	n/a
282.3315	0.09	564663	keystroke_k	k	n/a
282.542	0.074	565084	keystroke_i	i	n/a
282.586	0.09	565172	keystroke_n	n	n/a
282.646	0.0905	565292	keystroke_g	g	n/a
282.7665	0.1495	565533	keystroke_s	s	n/a
282.8865	0.075	565773	keystroke_t	t	n/a
283.021	0.166	566042	keystroke_o	o	n/a
283.111	0.165	566222	keystroke_n	n	n/a
283.2915	0.0745	566583	keystroke_Key.space	Key.space	n/a
284.1015	0.1345	568203	keystroke_r	r	n/a
284.206	0.106	568412	keystroke_e	e	n/a
284.342	0.119	568684	keystroke_c	c	n/a
284.4315	0.0895	568863	keystroke_i	i	n/a
284.611	0.1055	569222	keystroke_p	p	n/a
284.701	0.1505	569402	keystroke_e	e	n/a
284.791	0.151	569582	keystroke_s	s	n/a
285.5415	0.06	571083	keystroke_Key.enter	Key.enter	n/a
285.6075	16.4805	571215	prompt	n/a	philippines sorted realize moms\n
286.4115	0.075	572823	keystroke_p	p	n/a
286.6065	0.12	573213	keystroke_h	h	n/a
286.7115	0.1205	573423	keystroke_i	i	n/a
286.951	0.075	573902	keystroke_l	l	n/a
287.087	0.09	574174	keystroke_l	l	n/a
287.2215	0.1195	574443	keystroke_i	i	n/a
287.491	0.09	574982	keystroke_p	p	n/a
287.7465	0.135	575493	keystroke_i	i	n/a
287.8365	0.135	575673	keystroke_n	n	n/a
288.601	0.03	577202	keystroke_Key.backspace	Key.backspace	n/a
288.751	0.0755	577502	keystroke_Key.backspace	Key.backspace	n/a
288.931	0.06	577862	keystroke_Key.backspace	Key.backspace	n/a
289.6815	0.075	579363	keystroke_Key.backspace	Key.backspace	n/a
290.1765	0.0445	580353	keystroke_Key.backspace	Key.backspace	n/a
291.9315	0.149	583863	keystroke_i	i	n/a
292.6665	0.06	585333	keystroke_p	p	n/a
292.8165	0.075	585633	keystroke_p	p	n/a
293.0415	0.105	586083	keystroke_i	i	n/a
293.0865	0.105	586173	keystroke_n	n	n/a
293.1615	0.135	586323	keystroke_e	e	n/a
293.282	0.1195	586564	keystroke_s	s	n/a
293.4165	0.045	586833	keystroke_Key.space	Key.space	n/a
297.078	0.058	594156	keystroke_s	s	n/a
297.1665	0.0895	594333	keystroke_o	o	n/a
297.2415	0.0745	594483	keystroke_r	r	n/a
297.391	0.135	594782	keystroke_t	t	n/a
297.511	0.0905	595022	keystroke_e	e	n/a
297.676	0.105	595352	keystroke_d	d	n/a
297.796	0.075	595592	keystroke_Key.space	Key.space	n/a
298.3365	0.12	596673	keystroke_r	r	n/a
298.4115	0.12	596823	keystroke_e	e	n/a
298.4865	0.12	596973	keystroke_a	a	n/a
298.5915	0.105	597183	keystroke_l	l	n/a
298.712	0.1195	597424	keystroke_i	i	n/a
299.1465	0.135	598293	keystroke_z	z	n/a
299.4315	0.045	598863	keystroke_e	e	n/a
299.671	0.045	599342	keystroke_Key.space	Key.space	n/a
300.3615	0.105	600723	keystroke_m	m	n/a
300.4815	0.135	600963	keystroke_o	o	n/a
300.5565	0.12	601113	keystroke_m	m	n/a
300.6915	0.045	601383	keystroke_s	s	n/a
302.0115	0.0745	604023	keystroke_Key.enter	Key.enter	n/a
302.0935	8.365	604187	prompt	n/a	defensive licensing flush yards\n
302.792	0.0895	605584	keystroke_f	f	n/a
303.2265	0.06	606453	keystroke_Key.backspace	Key.backspace	n/a
303.3165	0.0905	606633	keystroke_d	d	n/a
303.4965	0.1205	606993	keystroke_e	e	n/a
303.631	0.091	607262	keystroke_f	f	n/a
303.811	0.12	607622	keystroke_n	n	n/a
304.3665	0.0755	608733	keystroke_Key.backspace	Key.backspace	n/a
304.4565	0.105	608913	keystroke_e	e	n/a
304.5765	0.0905	609153	keystroke_n	n	n/a
304.6815	0.09	609363	keystroke_s	s	n/a
304.8015	0.0895	609603	keystroke_i	i	n/a
304.967	0.0885	609934	keystroke_v	v	n/a
305.0715	0.105	610143	keystroke_e	e	n/a
305.1905	0.0755	610381	keystroke_Key.space	Key.space	n/a
305.9715	0.1045	611943	keystroke_l	l	n/a
306.1515	0.075	612303	keystroke_i	i	n/a
306.2715	0.105	612543	keystroke_c	c	n/a
306.407	0.0745	612814	keystroke_e	e	n/a
306.5265	0.0905	613053	keystroke_n	n	n/a
306.722	0.0745	613444	keystroke_s	s	n/a
306.8565	0.15	613713	keystroke_i	i	n/a
306.9315	0.105	613863	keystroke_n	n	n/a
307.0515	0.06	614103	keystroke_g	g	n/a
307.1565	0.09	614313	keystroke_Key.space	Key.space	n/a
307.891	0.06	615782	keystroke_f	f	n/a
307.966	0.1055	615932	keystroke_l	l	n/a
308.1165	0.09	616233	keystroke_u	u	n/a
308.2215	0.06	616443	keystroke_s	s	n/a
308.312	0.1045	616624	keystroke_h	h	n/a
308.4315	0.09	616863	keystroke_Key.space	Key.space	n/a
308.7915	0.075	617583	keystroke_y	y	n/a
308.8815	0.09	617763	keystroke_a	a	n/a
308.9565	0.105	617913	keystroke_r	r	n/a
309.016	0.1655	618032	keystroke_d	d	n/a
309.1365	0.1195	618273	keystroke_s	s	n/a
310.3365	0.119	620673	keystroke_Key.enter	Key.enter	n/a
310.462	9.971	620924	prompt	n/a	implementing citysearch contributing dash\n
311.1315	0.195	622263	keystroke_i	i	n/a
311.2205	0.135	622441	keystroke_m	m	n/a
311.4755	0.1055	622951	keystroke_o	o	n/a
312.0305	0.091	624061	keystroke_Key.backspace	Key.backspace	n/a
312.602	0.0585	625204	keystroke_p	p	n/a
312.7965	0.09	625593	keystroke_l	l	n/a
313.2155	0.091	626431	keystroke_e	e	n/a
313.4265	0.1495	626853	keystroke_m	m	n/a
313.9065	0.0905	627813	keystroke_e	e	n/a
314.011	0.076	628022	keystroke_n	n	n/a
314.1015	0.06	628203	keystroke_t	t	n/a
314.2815	0.105	628563	keystroke_i	i	n/a
314.3265	0.1345	628653	keystroke_n	n	n/a
314.431	0.075	628862	keystroke_g	g	n/a
314.521	0.09	629042	keystroke_Key.space	Key.space	n/a
314.701	0.09	629402	keystroke_c	c	n/a
314.792	0.0745	629584	keystroke_i	i	n/a
314.926	0.045	629852	keystroke_t	t	n/a
315.017	0.0745	630034	keystroke_y	y	n/a
315.1665	0.12	630333	keystroke_s	s	n/a
315.2715	0.1055	630543	keystroke_e	e	n/a
315.391	0.15	630782	keystroke_a	a	n/a
315.5115	0.0595	631023	keystroke_r	r	n/a
315.6615	0.09	631323	keystroke_c	c	n/a
315.766	0.0605	631532	keystroke_h	h	n/a
315.871	0.075	631742	keystroke_Key.space	Key.space	n/a
316.742	0.104	633484	keystroke_c	c	n/a
316.831	0.12	633662	keystroke_o	o	n/a
316.936	0.105	633872	keystroke_n	n	n/a
317.027	0.059	634054	keystroke_t	t	n/a
317.162	0.059	634324	keystroke_r	r	n/a
317.2365	0.1045	634473	keystroke_i	i	n/a
317.492	0.1045	634984	keystroke_b	b	n/a
317.612	0.1035	635224	keystroke_u	u	n/a
317.8965	0.074	635793	keystroke_t	t	n/a
318.031	0.1055	636062	keystroke_i	i	n/a
318.091	0.1055	636182	keystroke_n	n	n/a
318.211	0.0455	636422	keystroke_g	g	n/a
318.301	0.0755	636602	keystroke_Key.space	Key.space	n/a
318.932	0.104	637864	keystroke_d	d	n/a
319.112	0.149	638224	keystroke_a	a	n/a
319.2165	0.1195	638433	keystroke_s	s	n/a
319.306	0.075	638612	keystroke_h	h	n/a
320.3565	0.075	640713	keystroke_Key.enter	Key.enter	n/a
320.438	7.015	640876	prompt	n/a	could organisation loop mardi\n
321.092	0.0895	642184	keystroke_c	c	n/a
321.2715	0.1505	642543	keystroke_o	o	n/a
321.407	0.135	642814	keystroke_u	u	n/a
321.587	0.1345	643174	keystroke_l	l	n/a
321.691	0.0905	643382	keystroke_d	d	n/a
321.796	0.105	643592	keystroke_Key.space	Key.space	n/a
322.2005	0.0755	644401	keystroke_o	o	n/a
322.307	0.074	644614	keystroke_r	r	n/a
322.501	0.1055	645002	keystroke_g	g	n/a
322.577	0.09	645154	keystroke_a	a	n/a
322.726	0.105	645452	keystroke_n	n	n/a
322.8465	0.0895	645693	keystroke_i	i	n/a
323.161	0.0755	646322	keystroke_s	s	n/a
323.371	0.12	646742	keystroke_a	a	n/a
323.476	0.0605	646952	keystroke_t	t	n/a
323.566	0.2555	647132	keystroke_i	i	n/a
323.6415	0.15	647283	keystroke_o	o	n/a
323.7315	0.1345	647463	keystroke_n	n	n/a
323.8815	0.075	647763	keystroke_Key.space	Key.space	n/a
324.616	0.045	649232	keystroke_l	l	n/a
324.7815	0.045	649563	keystroke_o	o	n/a
324.9165	0.075	649833	keystroke_o	o	n/a
325.1715	0.015	650343	keystroke_p	p	n/a
325.2315	0.0595	650463	keystroke_Key.space	Key.space	n/a
325.4115	0.1045	650823	keystroke_m	m	n/a
325.502	0.1045	651004	keystroke_a	a	n/a
325.592	0.0895	651184	keystroke_r	r	n/a
325.726	0.09	651452	keystroke_d	d	n/a
325.831	0.076	651662	keystroke_i	i	n/a
327.3915	0.06	654783	keystroke_Key.enter	Key.enter	n/a
327.458	8.14	654916	prompt	n/a	primarily brief securities night\n
328.457	0.1045	656914	keystroke_p	p	n/a
328.6815	0.0595	657363	keystroke_i	i	n/a
328.981	0.0755	657962	keystroke_Key.backspace	Key.backspace	n/a
329.071	0.075	658142	keystroke_r	r	n/a
329.191	0.1505	658382	keystroke_i	i	n/a
329.3115	0.1045	658623	keystroke_m	m	n/a
329.462	0.1345	658924	keystroke_a	a	n/a
329.5365	0.09	659073	keystroke_r	r	n/a
329.941	0.09	659882	keystroke_i	i	n/a
330.106	0.0905	660212	keystroke_l	l	n/a
330.2715	0.0755	660543	keystroke_y	y	n/a
330.4205	0.061	660841	keystroke_Key.space	Key.space	n/a
331.367	0.0745	662734	keystroke_b	b	n/a
331.4715	0.075	662943	keystroke_r	r	n/a
331.6065	0.075	663213	keystroke_i	i	n/a
331.6665	0.105	663333	keystroke_e	e	n/a
331.8015	0.09	663603	keystroke_f	f	n/a
331.9055	0.076	663811	keystroke_Key.space	Key.space	n/a
332.5515	0.06	665103	keystroke_s	s	n/a
332.7315	0.06	665463	keystroke_e	e	n/a
332.882	0.0735	665764	keystroke_c	c	n/a
332.9715	0.09	665943	keystroke_u	u	n/a
333.077	0.0595	666154	keystroke_r	r	n/a
333.1815	0.0745	666363	keystroke_i	i	n/a
333.2715	0.06	666543	keystroke_t	t	n/a
333.6915	0.075	667383	keystroke_i	i	n/a
333.751	0.1345	667502	keystroke_e	e	n/a
333.841	0.1045	667682	keystroke_s	s	n/a
333.991	0.0155	667982	keystroke_Key.space	Key.space	n/a
334.697	0.0445	669394	keystroke_n	n	n/a
334.756	0.0605	669512	keystroke_i	i	n/a
334.8165	0.075	669633	keystroke_g	g	n/a
334.9055	0.091	669811	keystroke_h	h	n/a
335.0105	0.061	670021	keystroke_t	t	n/a
335.5815	0.015	671163	keystroke_Key.enter	Key.enter	n/a
335.6015	7.422	671203	prompt	n/a	zone ontario structured adjustment\n
336.512	0.0745	673024	keystroke_z	z	n/a
336.6315	0.135	673263	keystroke_o	o	n/a
336.7215	0.105	673443	keystroke_n	n	n/a
336.8265	0.0905	673653	keystroke_e	e	n/a
336.9315	0.075	673863	keystroke_Key.space	Key.space	n/a
337.0365	0.1505	674073	keystroke_o	o	n/a
337.1415	0.09	674283	keystroke_n	n	n/a
337.3215	0.09	674643	keystroke_t	t	n/a
337.5465	0.1205	675093	keystroke_a	a	n/a
337.6965	0.09	675393	keystroke_r	r	n/a
337.8465	0.0755	675693	keystroke_i	i	n/a
337.9955	0.0905	675991	keystroke_o	o	n/a
338.296	0.0595	676592	keystroke_Key.space	Key.space	n/a
339.0915	0.075	678183	keystroke_s	s	n/a
339.2265	0.061	678453	keystroke_t	t	n/a
339.3615	0.0605	678723	keystroke_r	r	n/a
339.4665	0.075	678933	keystroke_u	u	n/a
339.5715	0.075	679143	keystroke_c	c	n/a
339.7665	0.0305	679533	keystroke_t	t	n/a
339.8565	0.06	679713	keystroke_u	u	n/a
339.8865	0.12	679773	keystroke_r	r	n/a
339.9765	0.09	679953	keystroke_e	e	n/a
340.1715	0.0595	680343	keystroke_d	d	n/a
340.291	0.0755	680582	keystroke_Key.space	Key.space	n/a
340.9965	0.1205	681993	keystroke_a	a	n/a
341.1315	0.0595	682263	keystroke_d	d	n/a
341.222	0.0745	682444	keystroke_j	j	n/a
341.401	0.0605	682802	keystroke_u	u	n/a
341.446	0.195	682892	keystroke_s	s	n/a
341.5965	0.12	683193	keystroke_t	t	n/a
341.7615	0.105	683523	keystroke_m	m	n/a
341.8815	0.06	683763	keystroke_e	e	n/a
341.9715	0.075	683943	keystroke_n	n	n/a
342.0765	0.06	684153	keystroke_t	t	n/a
342.9465	0.0745	685893	keystroke_Key.enter	Key.enter	n/a
343.027	7.031	686054	prompt	n/a	photos motivation vice names\n
343.742	0.0735	687484	keystroke_p	p	n/a
343.9365	0.059	687873	keystroke_h	h	n/a
344.086	0.045	688172	keystroke_o	o	n/a
344.1765	0.075	688353	keystroke_t	t	n/a
344.2665	0.045	688533	keystroke_o	o	n/a
344.3415	0.09	688683	keystroke_s	s	n/a
344.461	0.045	688922	keystroke_Key.space	Key.space	n/a
345.242	0.104	690484	keystroke_m	m	n/a
345.361	0.105	690722	keystroke_o	o	n/a
345.451	0.0755	690902	keystroke_t	t	n/a
345.5865	0.104	691173	keystroke_i	i	n/a
345.6755	0.0605	691351	keystroke_f	f	n/a
346.0665	0.03	692133	keystroke_v	v	n/a
346.2765	0.0445	692553	keystroke_Key.backspace	Key.backspace	n/a
346.411	0.09	692822	keystroke_Key.backspace	Key.backspace	n/a
346.4865	0.0895	692973	keystroke_v	v	n/a
346.576	0.1355	693152	keystroke_a	a	n/a
346.7415	0.0445	693483	keystroke_t	t	n/a
346.802	0.209	693604	keystroke_i	i	n/a
346.861	0.135	693722	keystroke_o	o	n/a
346.9215	0.15	693843	keystroke_n	n	n/a
347.056	0.0605	694112	keystroke_Key.space	Key.space	n/a
347.687	0.104	695374	keystroke_a	a	n/a
348.031	0.075	696062	keystroke_Key.backspace	Key.backspace	n/a
348.122	0.059	696244	keystroke_v	v	n/a
348.241	0.075	696482	keystroke_i	i	n/a
348.302	0.105	696604	keystroke_c	c	n/a
348.3915	0.075	696783	keystroke_e	e	n/a
348.496	0.06	696992	keystroke_Key.space	Key.space	n/a
349.127	0.1045	698254	keystroke_n	n	n/a
349.2315	0.089	698463	keystroke_a	a	n/a
349.3365	0.09	698673	keystroke_m	m	n/a
349.4105	0.121	698821	keystroke_e	e	n/a
349.4865	0.105	698973	keystroke_s	s	n/a
350.0115	0.0445	700023	keystroke_Key.enter	Key.enter	n/a
350.065	5.768	700130	prompt	n/a	establishing relation mate sega\n
350.8065	0.045	701613	keystroke_e	e	n/a
350.866	0.06	701732	keystroke_s	s	n/a
350.9115	0.0745	701823	keystroke_t	t	n/a
351.001	0.09	702002	keystroke_a	a	n/a
351.1515	0.1045	702303	keystroke_b	b	n/a
351.2855	0.136	702571	keystroke_l	l	n/a
351.4805	0.076	702961	keystroke_i	i	n/a
351.5715	0.09	703143	keystroke_s	s	n/a
351.677	0.09	703354	keystroke_h	h	n/a
351.9765	0.09	703953	keystroke_i	i	n/a
352.006	0.1055	704012	keystroke_n	n	n/a
352.0965	0.045	704193	keystroke_g	g	n/a
352.2165	0.0595	704433	keystroke_Key.space	Key.space	n/a
352.8015	0.0895	705603	keystroke_r	r	n/a
352.861	0.0905	705722	keystroke_e	e	n/a
352.9815	0.0895	705963	keystroke_l	l	n/a
353.0565	0.12	706113	keystroke_a	a	n/a
353.1465	0.0605	706293	keystroke_t	t	n/a
353.2515	0.27	706503	keystroke_i	i	n/a
353.3265	0.1495	706653	keystroke_o	o	n/a
353.356	0.21	706712	keystroke_n	n	n/a
353.5515	0.06	707103	keystroke_Key.space	Key.space	n/a
354.3015	0.1205	708603	keystroke_m	m	n/a
354.3915	0.105	708783	keystroke_a	a	n/a
354.4815	0.075	708963	keystroke_t	t	n/a
354.5405	0.136	709081	keystroke_e	e	n/a
354.6605	0.09	709321	keystroke_Key.space	Key.space	n/a
354.8255	0.061	709651	keystroke_s	s	n/a
354.8405	0.121	709681	keystroke_e	e	n/a
355.1565	0.045	710313	keystroke_g	g	n/a
355.2755	0.091	710551	keystroke_a	a	n/a
355.7715	0.06	711543	keystroke_Key.enter	Key.enter	n/a
355.8475	7.5905	711695	prompt	n/a	estate shopper circuit ethics\n
356.4005	0.121	712801	keystroke_s	s	n/a
356.8365	0.0745	713673	keystroke_Key.backspace	Key.backspace	n/a
356.897	0.164	713794	keystroke_e	e	n/a
357.032	0.119	714064	keystroke_s	s	n/a
357.137	0.09	714274	keystroke_t	t	n/a
357.2565	0.09	714513	keystroke_a	a	n/a
357.317	0.089	714634	keystroke_t	t	n/a
357.361	0.1205	714722	keystroke_e	e	n/a
357.541	0.06	715082	keystroke_Key.space	Key.space	n/a
358.2465	0.074	716493	keystroke_s	s	n/a
358.3365	0.075	716673	keystroke_h	h	n/a
358.502	0.03	717004	keystroke_o	o	n/a
359.0115	0.0745	718023	keystroke_p	p	n/a
359.176	0.061	718352	keystroke_p	p	n/a
359.2665	0.1195	718533	keystroke_e	e	n/a
359.3565	0.0745	718713	keystroke_r	r	n/a
359.4915	0.06	718983	keystroke_Key.space	Key.space	n/a
360.2115	0.06	720423	keystroke_c	c	n/a
360.2865	0.075	720573	keystroke_i	i	n/a
360.4065	0.045	720813	keystroke_r	r	n/a
360.557	0.0745	721114	keystroke_c	c	n/a
360.6465	0.1055	721293	keystroke_u	u	n/a
360.7215	0.105	721443	keystroke_i	i	n/a
360.8115	0.045	721623	keystroke_t	t	n/a
360.9765	0.045	721953	keystroke_Key.space	Key.space	n/a
361.892	0.074	723784	keystroke_e	e	n/a
362.0715	0.0595	724143	keystroke_t	t	n/a
362.5215	0.0595	725043	keystroke_h	h	n/a
362.6565	0.09	725313	keystroke_i	i	n/a
362.762	0.0445	725524	keystroke_c	c	n/a
362.8815	0.09	725763	keystroke_s	s	n/a
363.3915	0.045	726783	keystroke_Key.enter	Key.enter	n/a
363.443	9.07	726886	prompt	n/a	stan nuclear offers triangle\n
364.142	0.09	728284	keystroke_s	s	n/a
364.2915	0.0745	728583	keystroke_t	t	n/a
364.381	0.0605	728762	keystroke_a	a	n/a
364.456	0.105	728912	keystroke_n	n	n/a
364.5915	0.03	729183	keystroke_d	d	n/a
364.9215	0.0745	729843	keystroke_Key.backspace	Key.backspace	n/a
365.056	0.0605	730112	keystroke_Key.space	Key.space	n/a
365.732	0.0745	731464	keystroke_n	n	n/a
365.926	0.0605	731852	keystroke_u	u	n/a
366.031	0.0605	732062	keystroke_c	c	n/a
366.152	0.089	732304	keystroke_l	l	n/a
366.256	0.1205	732512	keystroke_e	e	n/a
366.347	0.149	732694	keystroke_a	a	n/a
366.4665	0.09	732933	keystroke_r	r	n/a
366.571	0.075	733142	keystroke_Key.space	Key.space	n/a
367.291	0.12	734582	keystroke_o	o	n/a
367.4265	0.045	734853	keystroke_f	f	n/a
367.5615	0.105	735123	keystroke_f	f	n/a
367.6815	0.1195	735363	keystroke_e	e	n/a
367.7715	0.1655	735543	keystroke_r	r	n/a
367.921	0.105	735842	keystroke_s	s	n/a
368.056	0.0905	736112	keystroke_Key.space	Key.space	n/a
368.506	0.03	737012	keystroke_t	t	n/a
368.596	0.09	737192	keystroke_r	r	n/a
368.701	0.0755	737402	keystroke_a	a	n/a
368.761	0.151	737522	keystroke_i	i	n/a
369.3465	0.06	738693	keystroke_Key.backspace	Key.backspace	n/a
369.4815	0.09	738963	keystroke_Key.backspace	Key.backspace	n/a
369.7065	0.075	739413	keystroke_i	i	n/a
369.8565	0.06	739713	keystroke_a	a	n/a
370.217	0.1195	740434	keystroke_n	n	n/a
370.562	0.0445	741124	keystroke_g	g	n/a
370.9815	0.105	741963	keystroke_l	l	n/a
371.071	0.0755	742142	keystroke_e	e	n/a
371.2215	0.06	742443	keystroke_Key.space	Key.space	n/a
371.6565	0.06	743313	keystroke_Key.backspace	Key.backspace	n/a
372.436	0.0755	744872	keystroke_Key.enter	Key.enter	n/a
372.5175	9.7755	745035	prompt	n/a	buys tanzania sims adapted\n
373.1265	0.015	746253	keystroke_;	;	n/a
373.2015	0.09	746403	keystroke_b	b	n/a
373.5615	0.03	747123	keystroke_=	=	n/a
373.6815	0.06	747363	keystroke_Key.backspace	Key.backspace	n/a
373.8315	0.075	747663	keystroke_Key.backspace	Key.backspace	n/a
373.9815	0.105	747963	keystroke_Key.backspace	Key.backspace	n/a
374.5215	0.09	749043	keystroke_b	b	n/a
374.6715	0.135	749343	keystroke_u	u	n/a
374.8815	0.075	749763	keystroke_s	s	n/a
375.3165	0.06	750633	keystroke_=	=	n/a
375.4215	0.105	750843	keystroke_y	y	n/a
375.6915	0.075	751383	keystroke_Key.backspace	Key.backspace	n/a
375.856	0.0455	751712	keystroke_Key.backspace	Key.backspace	n/a
375.976	0.0905	751952	keystroke_Key.backspace	Key.backspace	n/a
376.157	0.045	752314	keystroke_y	y	n/a
376.2315	0.0895	752463	keystroke_s	s	n/a
376.3515	0.0595	752703	keystroke_Key.space	Key.space	n/a
377.1615	0.09	754323	keystroke_t	t	n/a
377.6565	0.06	755313	keystroke_a	a	n/a
377.7615	0.1055	755523	keystroke_n	n	n/a
378.0475	0.074	756095	keystroke_z	z	n/a
378.3165	0.09	756633	keystroke_a	a	n/a
378.4515	0.1055	756903	keystroke_n	n	n/a
378.558	0.074	757116	keystroke_i	i	n/a
378.736	0.075	757472	keystroke_a	a	n/a
378.841	0.0605	757682	keystroke_Key.space	Key.space	n/a
379.5015	0.09	759003	keystroke_s	s	n/a
379.6065	0.15	759213	keystroke_i	i	n/a
379.6965	0.105	759393	keystroke_m	m	n/a
379.8165	0.075	759633	keystroke_s	s	n/a
379.936	0.0455	759872	keystroke_Key.space	Key.space	n/a
380.762	0.1195	761524	keystroke_a	a	n/a
380.8965	0.09	761793	keystroke_d	d	n/a
381.0315	0.075	762063	keystroke_a	a	n/a
381.197	0.0745	762394	keystroke_p	p	n/a
381.3315	0.1195	762663	keystroke_t	t	n/a
381.437	0.09	762874	keystroke_e	e	n/a
381.6165	0.0755	763233	keystroke_d	d	n/a
382.216	0.075	764432	keystroke_Key.enter	Key.enter	n/a
382.297	9.191	764594	prompt	n/a	routers proceeding improvement playback\n
383.1315	0.105	766263	keystroke_r	r	n/a
383.2665	0.135	766533	keystroke_o	o	n/a
383.371	0.0605	766742	keystroke_u	u	n/a
383.4155	0.1065	766831	keystroke_t	t	n/a
383.5065	0.135	767013	keystroke_e	e	n/a
383.5965	0.15	767193	keystroke_r	r	n/a
383.7315	0.105	767463	keystroke_s	s	n/a
383.822	0.0745	767644	keystroke_Key.space	Key.space	n/a
384.571	0.105	769142	keystroke_p	p	n/a
384.706	0.075	769412	keystroke_r	r	n/a
384.842	0.09	769684	keystroke_o	o	n/a
384.962	0.1045	769924	keystroke_c	c	n/a
385.0815	0.045	770163	keystroke_e	e	n/a
385.2465	0.075	770493	keystroke_e	e	n/a
385.441	0.075	770882	keystroke_d	d	n/a
385.576	0.135	771152	keystroke_i	i	n/a
385.651	0.121	771302	keystroke_n	n	n/a
385.756	0.06	771512	keystroke_g	g	n/a
385.951	0.06	771902	keystroke_Key.space	Key.space	n/a
386.626	0.121	773252	keystroke_i	i	n/a
386.762	0.119	773524	keystroke_m	m	n/a
386.926	0.075	773852	keystroke_p	p	n/a
387.0765	0.075	774153	keystroke_r	r	n/a
387.196	0.091	774392	keystroke_o	o	n/a
387.301	0.09	774602	keystroke_v	v	n/a
387.406	0.06	774812	keystroke_e	e	n/a
387.4965	0.0905	774993	keystroke_m	m	n/a
387.602	0.09	775204	keystroke_e	e	n/a
387.707	0.074	775414	keystroke_n	n	n/a
387.797	0.075	775594	keystroke_t	t	n/a
387.901	0.09	775802	keystroke_Key.space	Key.space	n/a
388.712	0.0895	777424	keystroke_p	p	n/a
388.9065	0.1045	777813	keystroke_l	l	n/a
389.042	0.074	778084	keystroke_a	a	n/a
389.177	0.06	778354	keystroke_y	y	n/a
389.416	0.0605	778832	keystroke_b	b	n/a
389.5665	0.09	779133	keystroke_a	a	n/a
389.5955	0.09	779191	keystroke_c	c	n/a
389.7305	0.061	779461	keystroke_k	k	n/a
391.411	0.0755	782822	keystroke_Key.enter	Key.enter	n/a
391.4925	7.6175	782985	prompt	n/a	pharmacies rising poster function\n
392.3865	0.0745	784773	keystroke_p	p	n/a
392.566	0.061	785132	keystroke_h	h	n/a
392.656	0.121	785312	keystroke_a	a	n/a
392.746	0.075	785492	keystroke_r	r	n/a
392.866	0.12	785732	keystroke_m	m	n/a
393.106	0.105	786212	keystroke_a	a	n/a
393.3615	0.06	786723	keystroke_i	i	n/a
393.706	0.06	787412	keystroke_Key.backspace	Key.backspace	n/a
393.767	0.105	787534	keystroke_c	c	n/a
393.9165	0.0595	787833	keystroke_i	i	n/a
393.9465	0.1645	787893	keystroke_e	e	n/a
394.0365	0.1345	788073	keystroke_s	s	n/a
394.156	0.0905	788312	keystroke_Key.space	Key.space	n/a
394.997	0.075	789994	keystroke_r	r	n/a
395.087	0.075	790174	keystroke_i	i	n/a
395.2065	0.0895	790413	keystroke_s	s	n/a
395.297	0.12	790594	keystroke_i	i	n/a
395.386	0.09	790772	keystroke_n	n	n/a
395.462	0.075	790924	keystroke_g	g	n/a
395.581	0.075	791162	keystroke_Key.space	Key.space	n/a
396.2565	0.0895	792513	keystroke_p	p	n/a
396.4665	0.105	792933	keystroke_o	o	n/a
396.527	0.1045	793054	keystroke_s	s	n/a
396.6165	0.1045	793233	keystroke_t	t	n/a
396.7365	0.1195	793473	keystroke_e	e	n/a
396.7965	0.12	793593	keystroke_r	r	n/a
396.931	0.0605	793862	keystroke_Key.space	Key.space	n/a
397.591	0.075	795182	keystroke_f	f	n/a
397.741	0.06	795482	keystroke_u	u	n/a
397.906	0.0905	795812	keystroke_n	n	n/a
397.967	0.09	795934	keystroke_c	c	n/a
398.176	0.0455	796352	keystroke_t	t	n/a
398.2065	0.24	796413	keystroke_i	i	n/a
398.282	0.1495	796564	keystroke_o	o	n/a
398.3565	0.12	796713	keystroke_n	n	n/a
399.0315	0.0745	798063	keystroke_Key.enter	Key.enter	n/a
399.123	8.8205	798246	prompt	n/a	they'll currency promising cost\n
399.887	0.0445	799774	keystroke_t	t	n/a
399.947	0.074	799894	keystroke_h	h	n/a
400.051	0.0905	800102	keystroke_e	e	n/a
400.1565	0.06	800313	keystroke_y	y	n/a
400.8465	0.045	801693	keystroke_'	'	n/a
401.147	0.029	802294	keystroke_l	l	n/a
401.2815	0.03	802563	keystroke_l	l	n/a
401.4615	0.06	802923	keystroke_Key.space	Key.space	n/a
402.1965	0.105	804393	keystroke_c	c	n/a
402.3765	0.0755	804753	keystroke_u	u	n/a
402.4665	0.06	804933	keystroke_r	r	n/a
402.6015	0.09	805203	keystroke_r	r	n/a
402.6765	0.09	805353	keystroke_e	e	n/a
402.7515	0.09	805503	keystroke_n	n	n/a
403.0065	0.09	806013	keystroke_c	c	n/a
403.157	0.0295	806314	keystroke_y	y	n/a
403.2915	0.03	806583	keystroke_Key.space	Key.space	n/a
404.1315	0.075	808263	keystroke_o	o	n/a
404.4915	0.0895	808983	keystroke_Key.backspace	Key.backspace	n/a
404.747	0.0895	809494	keystroke_p	p	n/a
404.851	0.06	809702	keystroke_r	r	n/a
405.0315	0.1195	810063	keystroke_o	o	n/a
405.1215	0.105	810243	keystroke_m	m	n/a
405.301	0.075	810602	keystroke_i	i	n/a
405.377	0.0745	810754	keystroke_s	s	n/a
405.496	0.09	810992	keystroke_i	i	n/a
405.541	0.106	811082	keystroke_n	n	n/a
405.632	0.0595	811264	keystroke_g	g	n/a
405.7215	0.0745	811443	keystroke_Key.space	Key.space	n/a
406.397	0.075	812794	keystroke_c	c	n/a
406.622	0.074	813244	keystroke_o	o	n/a
406.711	0.165	813422	keystroke_s	s	n/a
406.8165	0.0745	813633	keystroke_t	t	n/a
407.8515	0.09	815703	keystroke_Key.enter	Key.enter	n/a
407.9485	6.265	815897	prompt	n/a	roland vector lined betty\n
408.617	0.0595	817234	keystroke_r	r	n/a
408.946	0.0605	817892	keystroke_o	o	n/a
409.142	0.074	818284	keystroke_l	l	n/a
409.231	0.121	818462	keystroke_a	a	n/a
409.367	0.075	818734	keystroke_n	n	n/a
409.607	0.105	819214	keystroke_d	d	n/a
409.8465	0.06	819693	keystroke_Key.space	Key.space	n/a
410.477	0.0445	820954	keystroke_c	c	n/a
410.7315	0.075	821463	keystroke_Key.backspace	Key.backspace	n/a
410.7765	0.12	821553	keystroke_v	v	n/a
410.9115	0.105	821823	keystroke_e	e	n/a
411.0465	0.1205	822093	keystroke_c	c	n/a
411.286	0.0455	822572	keystroke_t	t	n/a
411.3765	0.0895	822753	keystroke_o	o	n/a
411.452	0.045	822904	keystroke_r	r	n/a
411.556	0.075	823112	keystroke_Key.space	Key.space	n/a
412.292	0.104	824584	keystroke_l	l	n/a
412.4565	0.1045	824913	keystroke_i	i	n/a
412.5165	0.1045	825033	keystroke_n	n	n/a
412.576	0.061	825152	keystroke_e	e	n/a
412.742	0.075	825484	keystroke_d	d	n/a
412.831	0.09	825662	keystroke_Key.space	Key.space	n/a
413.207	0.075	826414	keystroke_b	b	n/a
413.297	0.074	826594	keystroke_e	e	n/a
413.447	0.06	826894	keystroke_t	t	n/a
413.567	0.06	827134	keystroke_t	t	n/a
413.672	0.059	827344	keystroke_y	y	n/a
414.136	0.0755	828272	keystroke_Key.enter	Key.enter	n/a
414.2185	9.67	828437	prompt	n/a	behavioral nonprofit agreement italia\n
415.127	0.0595	830254	keystroke_b	b	n/a
415.201	0.076	830402	keystroke_e	e	n/a
415.322	0.075	830644	keystroke_h	h	n/a
415.4565	0.1345	830913	keystroke_a	a	n/a
415.562	0.09	831124	keystroke_v	v	n/a
415.667	0.089	831334	keystroke_i	i	n/a
415.877	0.074	831754	keystroke_o	o	n/a
415.9965	0.0595	831993	keystroke_r	r	n/a
416.161	0.0755	832322	keystroke_a	a	n/a
416.281	0.0755	832562	keystroke_l	l	n/a
416.5815	0.0445	833163	keystroke_Key.space	Key.space	n/a
417.7505	0.076	835501	keystroke_n	n	n/a
417.9015	0.075	835803	keystroke_o	o	n/a
418.0815	0.06	836163	keystroke_n	n	n/a
418.292	0.075	836584	keystroke_p	p	n/a
418.411	0.076	836822	keystroke_r	r	n/a
418.532	0.0745	837064	keystroke_o	o	n/a
418.682	0.06	837364	keystroke_f	f	n/a
418.802	0.09	837604	keystroke_i	i	n/a
418.967	0.0295	837934	keystroke_t	t	n/a
419.1015	0.045	838203	keystroke_Key.space	Key.space	n/a
419.792	0.075	839584	keystroke_a	a	n/a
419.912	0.059	839824	keystroke_g	g	n/a
420.076	0.076	840152	keystroke_r	r	n/a
420.2115	0.06	840423	keystroke_e	e	n/a
420.3615	0.075	840723	keystroke_e	e	n/a
420.4515	0.0905	840903	keystroke_m	m	n/a
420.5865	0.06	841173	keystroke_e	e	n/a
420.6765	0.0755	841353	keystroke_n	n	n/a
420.7965	0.045	841593	keystroke_t	t	n/a
420.9015	0.045	841803	keystroke_Key.space	Key.space	n/a
421.6815	0.09	843363	keystroke_i	i	n/a
421.8915	0.075	843783	keystroke_t	t	n/a
422.522	0.0595	845044	keystroke_a	a	n/a
422.5965	0.09	845193	keystroke_l	l	n/a
422.806	0.06	845612	keystroke_i	i	n/a
422.911	0.061	845822	keystroke_a	a	n/a
423.8115	0.075	847623	keystroke_Key.enter	Key.enter	n/a
423.893	9.19	847786	prompt	n/a	quantitative affiliated represent boxes\n
424.7715	0.0155	849543	keystroke_q	q	n/a
424.8165	0.0605	849633	keystroke_u	u	n/a
424.9515	0.09	849903	keystroke_a	a	n/a
425.162	0.105	850324	keystroke_n	n	n/a
425.3715	0.06	850743	keystroke_t	t	n/a
425.5665	0.0605	851133	keystroke_i	i	n/a
426.3165	0.0605	852633	keystroke_t	t	n/a
426.7065	0.12	853413	keystroke_a	a	n/a
427.1265	0.06	854253	keystroke_t	t	n/a
427.2465	0.0755	854493	keystroke_i	i	n/a
427.3365	0.12	854673	keystroke_v	v	n/a
427.4415	0.105	854883	keystroke_e	e	n/a
427.5615	0.06	855123	keystroke_Key.space	Key.space	n/a
428.252	0.1045	856504	keystroke_a	a	n/a
428.371	0.0455	856742	keystroke_f	f	n/a
428.4915	0.0755	856983	keystroke_f	f	n/a
428.5965	0.105	857193	keystroke_i	i	n/a
428.807	0.105	857614	keystroke_l	l	n/a
429.017	0.059	858034	keystroke_i	i	n/a
429.091	0.0905	858182	keystroke_a	a	n/a
429.197	0.09	858394	keystroke_t	t	n/a
429.2565	0.1055	858513	keystroke_e	e	n/a
429.4065	0.12	858813	keystroke_d	d	n/a
429.527	0.0595	859054	keystroke_Key.space	Key.space	n/a
430.276	0.136	860552	keystroke_r	r	n/a
430.3515	0.0895	860703	keystroke_e	e	n/a
430.457	0.075	860914	keystroke_p	p	n/a
430.577	0.105	861154	keystroke_r	r	n/a
430.592	0.15	861184	keystroke_e	e	n/a
430.727	0.165	861454	keystroke_s	s	n/a
430.861	0.0905	861722	keystroke_e	e	n/a
430.921	0.0905	861842	keystroke_n	n	n/a
431.0715	0.06	862143	keystroke_t	t	n/a
431.2215	0.03	862443	keystroke_Key.space	Key.space	n/a
432.0165	0.06	864033	keystroke_b	b	n/a
432.137	0.105	864274	keystroke_o	o	n/a
432.226	0.076	864452	keystroke_x	x	n/a
432.347	0.1495	864694	keystroke_e	e	n/a
432.467	0.105	864934	keystroke_s	s	n/a
433.007	0.0745	866014	keystroke_Key.enter	Key.enter	n/a
433.0865	10.408	866173	prompt	n/a	fountain wireless suffer livestock\n
433.772	0.09	867544	keystroke_f	f	n/a
433.907	0.135	867814	keystroke_o	o	n/a
433.997	0.075	867994	keystroke_u	u	n/a
434.1615	0.075	868323	keystroke_n	n	n/a
434.2665	0.0905	868533	keystroke_t	t	n/a
434.4015	0.03	868803	keystroke_a	a	n/a
434.4165	0.1055	868833	keystroke_i	i	n/a
434.461	0.091	868922	keystroke_n	n	n/a
434.642	0.0745	869284	keystroke_Key.space	Key.space	n/a
435.197	0.09	870394	keystroke_w	w	n/a
435.362	0.105	870724	keystroke_i	i	n/a
435.512	0.074	871024	keystroke_r	r	n/a
435.572	0.074	871144	keystroke_e	e	n/a
435.6765	0.0605	871353	keystroke_l	l	n/a
435.752	0.075	871504	keystroke_e	e	n/a
435.9315	0.12	871863	keystroke_s	s	n/a
436.1115	0.105	872223	keystroke_s	s	n/a
436.472	0.044	872944	keystroke_Key.space	Key.space	n/a
437.162	0.059	874324	keystroke_w	w	n/a
437.297	0.089	874594	keystroke_u	u	n/a
437.372	0.0595	874744	keystroke_f	f	n/a
437.507	0.1045	875014	keystroke_f	f	n/a
437.6265	0.1205	875253	keystroke_e	e	n/a
437.717	0.105	875434	keystroke_r	r	n/a
437.8515	0.12	875703	keystroke_Key.space	Key.space	n/a
438.0615	0.0905	876123	keystroke_l	l	n/a
438.1815	0.1055	876363	keystroke_i	i	n/a
438.5265	0.03	877053	keystroke_Key.backspace	Key.backspace	n/a
438.6315	0.045	877263	keystroke_Key.backspace	Key.backspace	n/a
438.7665	0.0455	877533	keystroke_Key.backspace	Key.backspace	n/a
438.887	0.074	877774	keystroke_Key.backspace	Key.backspace	n/a
439.021	0.06	878042	keystroke_Key.backspace	Key.backspace	n/a
439.141	0.0755	878282	keystroke_Key.backspace	Key.backspace	n/a
439.2915	0.09	878583	keystroke_Key.backspace	Key.backspace	n/a
439.4565	0.105	878913	keystroke_Key.backspace	Key.backspace	n/a
439.7565	0.015	879513	keystroke_Key.backspace	Key.backspace	n/a
440.3115	0.06	880623	keystroke_s	s	n/a
440.417	0.0595	880834	keystroke_u	u	n/a
440.491	0.0605	880982	keystroke_f	f	n/a
440.626	0.09	881252	keystroke_f	f	n/a
440.762	0.135	881524	keystroke_e	e	n/a
440.852	0.089	881704	keystroke_r	r	n/a
441.121	0.076	882242	keystroke_Key.space	Key.space	n/a
441.602	0.029	883204	keystroke_l	l	n/a
441.706	0.09	883412	keystroke_i	i	n/a
441.841	0.1655	883682	keystroke_v	v	n/a
441.977	0.075	883954	keystroke_e	e	n/a
442.171	0.151	884342	keystroke_s	s	n/a
442.277	0.074	884554	keystroke_t	t	n/a
442.396	0.106	884792	keystroke_o	o	n/a
442.532	0.0745	885064	keystroke_c	c	n/a
442.651	0.09	885302	keystroke_k	k	n/a
443.4165	0.075	886833	keystroke_Key.enter	Key.enter	n/a
443.5015	6.0365	887003	prompt	n/a	http commodity streaming sole\n
444.331	0.0905	888662	keystroke_h	h	n/a
444.451	0.046	888902	keystroke_t	t	n/a
444.571	0.075	889142	keystroke_t	t	n/a
444.676	0.105	889352	keystroke_p	p	n/a
444.841	0.0605	889682	keystroke_Key.space	Key.space	n/a
445.217	0.075	890434	keystroke_c	c	n/a
445.2765	0.0905	890553	keystroke_o	o	n/a
445.4265	0.09	890853	keystroke_m	m	n/a
445.5915	0.09	891183	keystroke_m	m	n/a
445.7565	0.09	891513	keystroke_o	o	n/a
445.922	0.0745	891844	keystroke_d	d	n/a
446.102	0.0605	892204	keystroke_i	i	n/a
446.207	0.0595	892414	keystroke_t	t	n/a
446.372	0.045	892744	keystroke_y	y	n/a
446.5065	0.0455	893013	keystroke_Key.space	Key.space	n/a
447.1825	0.089	894365	keystroke_s	s	n/a
447.3015	0.09	894603	keystroke_t	t	n/a
447.467	0.1645	894934	keystroke_r	r	n/a
447.5565	0.12	895113	keystroke_e	e	n/a
447.6465	0.09	895293	keystroke_a	a	n/a
447.6915	0.09	895383	keystroke_m	m	n/a
447.8425	0.0895	895685	keystroke_i	i	n/a
447.9015	0.09	895803	keystroke_n	n	n/a
447.9765	0.06	895953	keystroke_g	g	n/a
448.0815	0.06	896163	keystroke_Key.space	Key.space	n/a
448.7415	0.0755	897483	keystroke_s	s	n/a
448.877	0.0895	897754	keystroke_o	o	n/a
449.0565	0.105	898113	keystroke_l	l	n/a
449.1465	0.0605	898293	keystroke_e	e	n/a
449.4765	0.0605	898953	keystroke_Key.enter	Key.enter	n/a
449.5425	6.881	899085	prompt	n/a	artwork hazard blackjack lecture\n
450.2865	0.105	900573	keystroke_a	a	n/a
450.5265	0.105	901053	keystroke_r	r	n/a
450.7365	0.06	901473	keystroke_t	t	n/a
450.8415	0.09	901683	keystroke_w	w	n/a
450.9615	0.09	901923	keystroke_o	o	n/a
451.067	0.0595	902134	keystroke_r	r	n/a
451.141	0.0905	902282	keystroke_k	k	n/a
451.3065	0.06	902613	keystroke_Key.space	Key.space	n/a
451.9365	0.105	903873	keystroke_h	h	n/a
452.0565	0.06	904113	keystroke_a	a	n/a
452.252	0.0595	904504	keystroke_z	z	n/a
452.4465	0.1055	904893	keystroke_a	a	n/a
452.567	0.1045	905134	keystroke_r	r	n/a
452.6265	0.12	905253	keystroke_d	d	n/a
452.822	0.0595	905644	keystroke_Key.space	Key.space	n/a
453.692	0.0745	907384	keystroke_b	b	n/a
453.8265	0.1205	907653	keystroke_l	l	n/a
453.932	0.134	907864	keystroke_a	a	n/a
454.006	0.1355	908012	keystroke_c	c	n/a
454.1265	0.0905	908253	keystroke_k	k	n/a
454.307	0.075	908614	keystroke_j	j	n/a
454.4275	0.1195	908855	keystroke_a	a	n/a
454.502	0.09	909004	keystroke_c	c	n/a
454.562	0.089	909124	keystroke_k	k	n/a
454.727	0.0445	909454	keystroke_Key.space	Key.space	n/a
455.2965	0.09	910593	keystroke_l	l	n/a
455.432	0.0745	910864	keystroke_e	e	n/a
455.5665	0.09	911133	keystroke_c	c	n/a
455.7615	0.0455	911523	keystroke_t	t	n/a
455.8215	0.09	911643	keystroke_u	u	n/a
455.897	0.0895	911794	keystroke_r	r	n/a
455.972	0.0745	911944	keystroke_e	e	n/a
456.346	0.075	912692	keystroke_Key.enter	Key.enter	n/a
456.4265	5.953	912853	prompt	n/a	base focused prices guarantee\n
457.202	0.0745	914404	keystroke_b	b	n/a
457.291	0.0755	914582	keystroke_a	a	n/a
457.3215	0.1055	914643	keystroke_s	s	n/a
457.382	0.105	914764	keystroke_e	e	n/a
457.487	0.0595	914974	keystroke_Key.space	Key.space	n/a
457.7265	0.0605	915453	keystroke_f	f	n/a
457.8165	0.09	915633	keystroke_o	o	n/a
457.9215	0.105	915843	keystroke_c	c	n/a
458.057	0.0745	916114	keystroke_u	u	n/a
458.177	0.09	916354	keystroke_s	s	n/a
458.251	0.061	916502	keystroke_e	e	n/a
458.401	0.076	916802	keystroke_d	d	n/a
458.521	0.06	917042	keystroke_Key.space	Key.space	n/a
459.167	0.06	918334	keystroke_p	p	n/a
459.2715	0.06	918543	keystroke_r	r	n/a
459.377	0.0595	918754	keystroke_i	i	n/a
459.4515	0.1055	918903	keystroke_c	c	n/a
459.542	0.1345	919084	keystroke_e	e	n/a
459.6315	0.105	919263	keystroke_s	s	n/a
459.7515	0.045	919503	keystroke_Key.space	Key.space	n/a
460.4565	0.045	920913	keystroke_g	g	n/a
460.607	0.0595	921214	keystroke_u	u	n/a
460.697	0.1195	921394	keystroke_a	a	n/a
460.877	0.075	921754	keystroke_r	r	n/a
461.192	0.075	922384	keystroke_a	a	n/a
461.312	0.075	922624	keystroke_n	n	n/a
461.462	0.045	922924	keystroke_t	t	n/a
461.641	0.045	923282	keystroke_e	e	n/a
461.791	0.075	923582	keystroke_e	e	n/a
462.2865	0.09	924573	keystroke_Key.enter	Key.enter	n/a
462.383	10.3905	924766	prompt	n/a	passed bracket murray anderson\n
463.217	0.06	926434	keystroke_a	a	n/a
463.6215	0.09	927243	keystroke_Key.backspace	Key.backspace	n/a
463.9215	0.0905	927843	keystroke_p	p	n/a
464.0265	0.0605	928053	keystroke_a	a	n/a
464.177	0.06	928354	keystroke_s	s	n/a
464.312	0.105	928624	keystroke_s	s	n/a
464.4465	0.045	928893	keystroke_e	e	n/a
464.567	0.1045	929134	keystroke_d	d	n/a
464.6865	0.075	929373	keystroke_Key.space	Key.space	n/a
465.1065	0.0755	930213	keystroke_b	b	n/a
465.1825	0.074	930365	keystroke_r	r	n/a
465.3015	0.15	930603	keystroke_a	a	n/a
465.4065	0.105	930813	keystroke_c	c	n/a
465.5115	0.075	931023	keystroke_k	k	n/a
465.6015	0.135	931203	keystroke_e	e	n/a
465.6915	0.0895	931383	keystroke_t	t	n/a
465.796	0.06	931592	keystroke_Key.space	Key.space	n/a
466.517	0.06	933034	keystroke_n	n	n/a
466.8615	0.06	933723	keystroke_Key.backspace	Key.backspace	n/a
467.177	0.045	934354	keystroke_,	,	n/a
467.371	0.061	934742	keystroke_u	u	n/a
467.4615	0.0605	934923	keystroke_r	r	n/a
467.732	0.06	935464	keystroke_Key.backspace	Key.backspace	n/a
467.882	0.06	935764	keystroke_Key.backspace	Key.backspace	n/a
468.032	0.074	936064	keystroke_Key.backspace	Key.backspace	n/a
468.617	0.0745	937234	keystroke_m	m	n/a
468.782	0.0595	937564	keystroke_r	r	n/a
469.111	0.0755	938222	keystroke_Key.backspace	Key.backspace	n/a
469.292	0.06	938584	keystroke_u	u	n/a
469.382	0.21	938764	keystroke_r	r	n/a
469.576	0.091	939152	keystroke_a	a	n/a
469.952	0.074	939904	keystroke_Key.backspace	Key.backspace	n/a
470.0115	0.1045	940023	keystroke_r	r	n/a
470.1015	0.0605	940203	keystroke_a	a	n/a
470.207	0.0295	940414	keystroke_y	y	n/a
470.4915	0.0745	940983	keystroke_Key.space	Key.space	n/a
471.3615	0.075	942723	keystroke_a	a	n/a
471.451	0.09	942902	keystroke_n	n	n/a
471.556	0.045	943112	keystroke_d	d	n/a
471.7065	0.09	943413	keystroke_e	e	n/a
471.766	0.0905	943532	keystroke_r	r	n/a
471.901	0.091	943802	keystroke_s	s	n/a
471.9765	0.12	943953	keystroke_o	o	n/a
472.051	0.076	944102	keystroke_n	n	n/a
472.6965	0.075	945393	keystroke_Key.enter	Key.enter	n/a
472.7775	10.529	945555	prompt	n/a	richardson mystery declined humanities\n
473.567	0.0595	947134	keystroke_r	r	n/a
473.642	0.0595	947284	keystroke_i	i	n/a
473.7455	0.1065	947491	keystroke_c	c	n/a
473.867	0.06	947734	keystroke_h	h	n/a
473.9105	0.061	947821	keystroke_a	a	n/a
474.0015	0.1055	948003	keystroke_r	r	n/a
474.0615	0.0905	948123	keystroke_d	d	n/a
474.2865	0.105	948573	keystroke_s	s	n/a
474.3615	0.105	948723	keystroke_o	o	n/a
474.4365	0.0905	948873	keystroke_n	n	n/a
474.5415	0.075	949083	keystroke_Key.space	Key.space	n/a
475.8765	0.105	951753	keystroke_m	m	n/a
476.1315	0.045	952263	keystroke_y	y	n/a
476.2225	0.12	952445	keystroke_s	s	n/a
476.3265	0.0755	952653	keystroke_t	t	n/a
476.4315	0.1205	952863	keystroke_e	e	n/a
476.5065	0.106	953013	keystroke_r	r	n/a
476.6415	0.075	953283	keystroke_y	y	n/a
476.821	0.06	953642	keystroke_Key.space	Key.space	n/a
477.5565	0.06	955113	keystroke_d	d	n/a
477.721	0.06	955442	keystroke_e	e	n/a
477.872	0.0895	955744	keystroke_c	c	n/a
477.9465	0.075	955893	keystroke_l	l	n/a
478.112	0.06	956224	keystroke_i	i	n/a
478.1405	0.0915	956281	keystroke_n	n	n/a
478.262	0.075	956524	keystroke_e	e	n/a
478.442	0.045	956884	keystroke_d	d	n/a
478.637	0.059	957274	keystroke_Key.space	Key.space	n/a
479.4015	0.0755	958803	keystroke_h	h	n/a
479.5515	0.105	959103	keystroke_u	u	n/a
479.7465	0.075	959493	keystroke_m	m	n/a
479.8365	0.075	959673	keystroke_a	a	n/a
479.9865	0.0905	959973	keystroke_n	n	n/a
480.1215	0.09	960243	keystroke_i	i	n/a
480.2715	0.075	960543	keystroke_t	t	n/a
480.632	0.075	961264	keystroke_i	i	n/a
480.7215	0.1355	961443	keystroke_e	e	n/a
480.827	0.105	961654	keystroke_s	s	n/a
483.3035	0.001	966607	keystroke_Key.enter	Key.enter	n/a
483.31	7.8685	966620	prompt	n/a	voltage practitioner serbia fact\n
484.0365	0.0745	968073	keystroke_v	v	n/a
484.187	0.09	968374	keystroke_o	o	n/a
484.367	0.1045	968734	keystroke_l	l	n/a
484.4865	0.06	968973	keystroke_t	t	n/a
484.6215	0.09	969243	keystroke_a	a	n/a
484.697	0.1195	969394	keystroke_g	g	n/a
484.8015	0.0755	969603	keystroke_e	e	n/a
484.9065	0.075	969813	keystroke_Key.space	Key.space	n/a
485.7015	0.1055	971403	keystroke_p	p	n/a
486.016	0.105	972032	keystroke_r	r	n/a
486.152	0.1645	972304	keystroke_a	a	n/a
486.2565	0.1055	972513	keystroke_c	c	n/a
486.4815	0.045	972963	keystroke_t	t	n/a
486.5865	0.06	973173	keystroke_i	i	n/a
486.7065	0.0455	973413	keystroke_t	t	n/a
486.7965	0.2855	973593	keystroke_i	i	n/a
486.9165	0.15	973833	keystroke_o	o	n/a
486.9915	0.1345	973983	keystroke_n	n	n/a
487.291	0.1055	974582	keystroke_e	e	n/a
487.352	0.105	974704	keystroke_r	r	n/a
487.4715	0.0605	974943	keystroke_Key.space	Key.space	n/a
488.3405	0.106	976681	keystroke_s	s	n/a
488.4615	0.105	976923	keystroke_e	e	n/a
488.5515	0.0895	977103	keystroke_r	r	n/a
488.6265	0.075	977253	keystroke_b	b	n/a
488.7915	0.0905	977583	keystroke_i	i	n/a
488.927	0.06	977854	keystroke_e	e	n/a
489.302	0.09	978604	keystroke_Key.backspace	Key.backspace	n/a
489.377	0.09	978754	keystroke_a	a	n/a
489.512	0.0745	979024	keystroke_Key.space	Key.space	n/a
490.1865	0.0745	980373	keystroke_f	f	n/a
490.276	0.121	980552	keystroke_a	a	n/a
490.3515	0.09	980703	keystroke_c	c	n/a
490.5615	0.045	981123	keystroke_t	t	n/a
491.1165	0.06	982233	keystroke_Key.enter	Key.enter	n/a
491.1835	8.62	982367	prompt	n/a	political lessons florida adaptive\n
492.032	0.044	984064	keystroke_p	p	n/a
492.2265	0.0605	984453	keystroke_o	o	n/a
492.4065	0.075	984813	keystroke_l	l	n/a
492.9165	0.09	985833	keystroke_i	i	n/a
493.0215	0.0605	986043	keystroke_t	t	n/a
493.5015	0.1055	987003	keystroke_i	i	n/a
493.6215	0.12	987243	keystroke_c	c	n/a
493.7265	0.12	987453	keystroke_a	a	n/a
493.862	0.0895	987724	keystroke_l	l	n/a
494.0115	0.075	988023	keystroke_Key.space	Key.space	n/a
494.7025	0.134	989405	keystroke_l	l	n/a
494.8375	0.0745	989675	keystroke_e	e	n/a
495.1815	0.075	990363	keystroke_s	s	n/a
495.3315	0.09	990663	keystroke_s	s	n/a
495.4515	0.15	990903	keystroke_o	o	n/a
495.542	0.135	991084	keystroke_n	n	n/a
495.7065	0.0745	991413	keystroke_s	s	n/a
495.8115	0.0595	991623	keystroke_Key.space	Key.space	n/a
496.607	0.06	993214	keystroke_f	f	n/a
496.712	0.09	993424	keystroke_l	l	n/a
496.907	0.09	993814	keystroke_o	o	n/a
496.982	0.075	993964	keystroke_r	r	n/a
497.147	0.09	994294	keystroke_i	i	n/a
497.252	0.12	994504	keystroke_d	d	n/a
497.357	0.105	994714	keystroke_a	a	n/a
497.4465	0.0445	994893	keystroke_Key.space	Key.space	n/a
498.302	0.12	996604	keystroke_a	a	n/a
498.4365	0.09	996873	keystroke_d	d	n/a
498.557	0.075	997114	keystroke_a	a	n/a
498.6915	0.0905	997383	keystroke_p	p	n/a
498.8715	0.061	997743	keystroke_t	t	n/a
499.0065	0.0905	998013	keystroke_i	i	n/a
499.1115	0.09	998223	keystroke_v	v	n/a
499.1865	0.1055	998373	keystroke_e	e	n/a
499.742	0.0595	999484	keystroke_Key.enter	Key.enter	n/a
499.808	8.1105	999616	prompt	n/a	imports lodge second knife\n
500.6415	0.1055	1001283	keystroke_i	i	n/a
500.8365	0.075	1001673	keystroke_m	m	n/a
500.9565	0.105	1001913	keystroke_p	p	n/a
501.122	0.06	1002244	keystroke_r	r	n/a
501.272	0.135	1002544	keystroke_t	t	n/a
501.392	0.105	1002784	keystroke_s	s	n/a
501.512	0.06	1003024	keystroke_Key.space	Key.space	n/a
501.812	0.045	1003624	keystroke_Key.backspace	Key.backspace	n/a
501.947	0.059	1003894	keystroke_Key.backspace	Key.backspace	n/a
502.082	0.074	1004164	keystroke_Key.backspace	Key.backspace	n/a
502.2465	0.075	1004493	keystroke_Key.backspace	Key.backspace	n/a
502.4275	0.0745	1004855	keystroke_o	o	n/a
502.4875	0.0595	1004975	keystroke_r	r	n/a
502.637	0.1045	1005274	keystroke_t	t	n/a
502.7425	0.0745	1005485	keystroke_s	s	n/a
502.8345	0.042	1005669	keystroke_Key.space	Key.space	n/a
503.5815	0.091	1007163	keystroke_l	l	n/a
503.7765	0.075	1007553	keystroke_o	o	n/a
503.8665	0.076	1007733	keystroke_d	d	n/a
504.1215	0.015	1008243	keystroke_g	g	n/a
504.1515	0.0905	1008303	keystroke_e	e	n/a
504.257	0.075	1008514	keystroke_Key.space	Key.space	n/a
504.632	0.075	1009264	keystroke_s	s	n/a
504.767	0.09	1009534	keystroke_e	e	n/a
505.142	0.075	1010284	keystroke_c	c	n/a
505.5165	0.12	1011033	keystroke_o	o	n/a
505.6075	0.074	1011215	keystroke_n	n	n/a
505.6965	0.06	1011393	keystroke_d	d	n/a
505.8165	0.06	1011633	keystroke_Key.space	Key.space	n/a
506.387	0.06	1012774	keystroke_k	k	n/a
506.477	0.12	1012954	keystroke_n	n	n/a
506.627	0.09	1013254	keystroke_i	i	n/a
506.671	0.121	1013342	keystroke_f	f	n/a
506.8215	0.09	1013643	keystroke_e	e	n/a
507.856	0.06	1015712	keystroke_Key.enter	Key.enter	n/a
507.9225	8.111	1015845	prompt	n/a	kilometers cameroon portion refuse\n
508.622	0.074	1017244	keystroke_k	k	n/a
508.832	0.06	1017664	keystroke_i	i	n/a
508.997	0.06	1017994	keystroke_l	l	n/a
509.207	0.06	1018414	keystroke_o	o	n/a
509.3715	0.0745	1018743	keystroke_m	m	n/a
509.476	0.0905	1018952	keystroke_e	e	n/a
509.5965	0.0605	1019193	keystroke_t	t	n/a
509.7165	0.1055	1019433	keystroke_e	e	n/a
509.806	0.106	1019612	keystroke_r	r	n/a
509.9565	0.09	1019913	keystroke_s	s	n/a
510.0765	0.045	1020153	keystroke_Key.space	Key.space	n/a
510.7215	0.12	1021443	keystroke_c	c	n/a
510.827	0.1045	1021654	keystroke_a	a	n/a
511.2765	0.105	1022553	keystroke_m	m	n/a
511.427	0.12	1022854	keystroke_e	e	n/a
511.652	0.075	1023304	keystroke_r	r	n/a
511.9965	0.046	1023993	keystroke_o	o	n/a
512.102	0.12	1024204	keystroke_o	o	n/a
512.237	0.09	1024474	keystroke_n	n	n/a
512.3865	0.09	1024773	keystroke_Key.space	Key.space	n/a
513.242	0.06	1026484	keystroke_p	p	n/a
513.421	0.061	1026842	keystroke_o	o	n/a
513.497	0.06	1026994	keystroke_r	r	n/a
513.677	0.06	1027354	keystroke_t	t	n/a
513.752	0.255	1027504	keystroke_i	i	n/a
513.827	0.135	1027654	keystroke_o	o	n/a
513.872	0.165	1027744	keystroke_n	n	n/a
514.022	0.045	1028044	keystroke_Key.space	Key.space	n/a
514.877	0.105	1029754	keystroke_r	r	n/a
514.967	0.075	1029934	keystroke_e	e	n/a
515.117	0.0745	1030234	keystroke_f	f	n/a
515.2215	0.075	1030443	keystroke_u	u	n/a
515.3415	0.0905	1030683	keystroke_s	s	n/a
515.4025	0.074	1030805	keystroke_e	e	n/a
515.987	0.0445	1031974	keystroke_Key.enter	Key.enter	n/a
516.038	6.7605	1032076	prompt	n/a	refresh holders almost referring\n
516.812	0.105	1033624	keystroke_r	r	n/a
516.902	0.075	1033804	keystroke_e	e	n/a
517.037	0.075	1034074	keystroke_f	f	n/a
517.187	0.09	1034374	keystroke_r	r	n/a
517.247	0.12	1034494	keystroke_e	e	n/a
517.3225	0.1045	1034645	keystroke_s	s	n/a
517.412	0.0745	1034824	keystroke_h	h	n/a
517.5615	0.045	1035123	keystroke_Key.space	Key.space	n/a
518.2665	0.075	1036533	keystroke_h	h	n/a
518.3715	0.105	1036743	keystroke_o	o	n/a
518.5965	0.0905	1037193	keystroke_l	l	n/a
518.7315	0.0755	1037463	keystroke_d	d	n/a
518.927	0.0745	1037854	keystroke_e	e	n/a
518.9715	0.105	1037943	keystroke_r	r	n/a
519.1515	0.075	1038303	keystroke_s	s	n/a
519.2865	0.045	1038573	keystroke_Key.space	Key.space	n/a
519.886	0.06	1039772	keystroke_a	a	n/a
519.9315	0.0605	1039863	keystroke_l	l	n/a
520.0665	0.1205	1040133	keystroke_m	m	n/a
520.172	0.0895	1040344	keystroke_o	o	n/a
520.2615	0.12	1040523	keystroke_s	s	n/a
520.337	0.0745	1040674	keystroke_t	t	n/a
520.5015	0.06	1041003	keystroke_Key.space	Key.space	n/a
521.147	0.255	1042294	keystroke_r	r	n/a
521.357	0.12	1042714	keystroke_e	e	n/a
521.552	0.09	1043104	keystroke_f	f	n/a
521.762	0.105	1043524	keystroke_e	e	n/a
521.852	0.09	1043704	keystroke_r	r	n/a
522.002	0.075	1044004	keystroke_r	r	n/a
522.107	0.1195	1044214	keystroke_i	i	n/a
522.182	0.105	1044364	keystroke_n	n	n/a
522.2565	0.06	1044513	keystroke_g	g	n/a
522.7215	0.075	1045443	keystroke_Key.enter	Key.enter	n/a
522.803	10.4205	1045606	prompt	n/a	jersey evolution munich bind\n
523.472	0.09	1046944	keystroke_j	j	n/a
523.682	0.0595	1047364	keystroke_u	u	n/a
523.697	0.165	1047394	keystroke_e	e	n/a
523.8175	0.134	1047635	keystroke_r	r	n/a
524.2065	0.0605	1048413	keystroke_Key.backspace	Key.backspace	n/a
524.431	0.0155	1048862	keystroke_Key.backspace	Key.backspace	n/a
524.5065	0.1055	1049013	keystroke_Key.backspace	Key.backspace	n/a
524.5965	0.0895	1049193	keystroke_e	e	n/a
524.672	0.1205	1049344	keystroke_r	r	n/a
524.777	0.105	1049554	keystroke_s	s	n/a
524.897	0.06	1049794	keystroke_y	y	n/a
525.242	0.0895	1050484	keystroke_Key.backspace	Key.backspace	n/a
525.3175	0.059	1050635	keystroke_e	e	n/a
525.422	0.0595	1050844	keystroke_y	y	n/a
525.542	0.0895	1051084	keystroke_Key.space	Key.space	n/a
526.112	0.03	1052224	keystroke_e	e	n/a
526.172	0.12	1052344	keystroke_l	l	n/a
526.7415	0.075	1053483	keystroke_Key.backspace	Key.backspace	n/a
526.8315	0.06	1053663	keystroke_v	v	n/a
527.0265	0.12	1054053	keystroke_o	o	n/a
527.2815	0.1205	1054563	keystroke_l	l	n/a
527.492	0.09	1054984	keystroke_i	i	n/a
527.6865	0.0455	1055373	keystroke_t	t	n/a
527.9115	0.0605	1055823	keystroke_Key.backspace	Key.backspace	n/a
528.0615	0.0905	1056123	keystroke_Key.backspace	Key.backspace	n/a
528.362	0.089	1056724	keystroke_u	u	n/a
528.5115	0.06	1057023	keystroke_t	t	n/a
528.6765	0.24	1057353	keystroke_i	i	n/a
528.7365	0.166	1057473	keystroke_o	o	n/a
528.7975	0.1495	1057595	keystroke_n	n	n/a
528.9915	0.075	1057983	keystroke_Key.space	Key.space	n/a
529.8025	0.1045	1059605	keystroke_m	m	n/a
530.297	0.06	1060594	keystroke_u	u	n/a
530.462	0.09	1060924	keystroke_n	n	n/a
530.537	0.105	1061074	keystroke_i	i	n/a
530.657	0.06	1061314	keystroke_c	c	n/a
530.897	0.06	1061794	keystroke_h	h	n/a
531.077	0.06	1062154	keystroke_Key.space	Key.space	n/a
531.842	0.059	1063684	keystroke_b	b	n/a
531.947	0.105	1063894	keystroke_i	i	n/a
532.0365	0.0905	1064073	keystroke_n	n	n/a
532.111	0.0605	1064222	keystroke_d	d	n/a
533.1315	0.09	1066263	keystroke_Key.enter	Key.enter	n/a
533.231	6.517	1066462	prompt	n/a	referred goto joint bottles\n
533.972	0.104	1067944	keystroke_r	r	n/a
534.047	0.105	1068094	keystroke_e	e	n/a
534.242	0.09	1068484	keystroke_f	f	n/a
534.557	0.09	1069114	keystroke_e	e	n/a
534.752	0.06	1069504	keystroke_r	r	n/a
534.902	0.1055	1069804	keystroke_r	r	n/a
534.9925	0.074	1069985	keystroke_e	e	n/a
535.1715	0.0595	1070343	keystroke_d	d	n/a
535.291	0.0605	1070582	keystroke_Key.space	Key.space	n/a
536.026	0.076	1072052	keystroke_g	g	n/a
536.162	0.09	1072324	keystroke_o	o	n/a
536.281	0.061	1072562	keystroke_t	t	n/a
536.386	0.075	1072772	keystroke_o	o	n/a
536.6415	0.06	1073283	keystroke_Key.space	Key.space	n/a
537.2565	0.075	1074513	keystroke_j	j	n/a
537.4065	0.0905	1074813	keystroke_o	o	n/a
537.5865	0.075	1075173	keystroke_i	i	n/a
537.6165	0.105	1075233	keystroke_n	n	n/a
537.7365	0.0455	1075473	keystroke_t	t	n/a
537.8565	0.0595	1075713	keystroke_Key.space	Key.space	n/a
538.4865	0.1045	1076973	keystroke_b	b	n/a
538.667	0.0895	1077334	keystroke_o	o	n/a
538.7865	0.0455	1077573	keystroke_t	t	n/a
538.9365	0.06	1077873	keystroke_t	t	n/a
539.012	0.0895	1078024	keystroke_l	l	n/a
539.117	0.0745	1078234	keystroke_e	e	n/a
539.267	0.09	1078534	keystroke_s	s	n/a
539.687	0.06	1079374	keystroke_Key.enter	Key.enter	n/a
539.753	9.4155	1079506	prompt	n/a	passport regression composed eval\n
540.4515	0.1055	1080903	keystroke_p	p	n/a
540.5715	0.0755	1081143	keystroke_a	a	n/a
540.707	0.059	1081414	keystroke_p	p	n/a
541.112	0.074	1082224	keystroke_Key.backspace	Key.backspace	n/a
541.246	0.076	1082492	keystroke_s	s	n/a
541.397	0.06	1082794	keystroke_s	s	n/a
541.532	0.09	1083064	keystroke_o	o	n/a
541.907	0.075	1083814	keystroke_o	o	n/a
542.1915	0.06	1084383	keystroke_Key.backspace	Key.backspace	n/a
542.3415	0.075	1084683	keystroke_Key.backspace	Key.backspace	n/a
543.5715	0.075	1087143	keystroke_p	p	n/a
543.872	0.0895	1087744	keystroke_o	o	n/a
544.0215	0.075	1088043	keystroke_r	r	n/a
544.1715	0.0755	1088343	keystroke_t	t	n/a
544.292	0.09	1088584	keystroke_Key.space	Key.space	n/a
545.041	0.12	1090082	keystroke_r	r	n/a
545.132	0.104	1090264	keystroke_e	e	n/a
545.3715	0.0145	1090743	keystroke_g	g	n/a
545.492	0.119	1090984	keystroke_r	r	n/a
545.597	0.0745	1091194	keystroke_e	e	n/a
545.7615	0.075	1091523	keystroke_s	s	n/a
545.9265	0.0895	1091853	keystroke_s	s	n/a
546.031	0.226	1092062	keystroke_i	i	n/a
546.136	0.1055	1092272	keystroke_o	o	n/a
546.1815	0.1195	1092363	keystroke_n	n	n/a
546.391	0.0755	1092782	keystroke_Key.space	Key.space	n/a
547.0965	0.0755	1094193	keystroke_c	c	n/a
547.1875	0.089	1094375	keystroke_o	o	n/a
547.2315	0.105	1094463	keystroke_m	m	n/a
547.3965	0.06	1094793	keystroke_p	p	n/a
547.547	0.075	1095094	keystroke_o	o	n/a
547.5915	0.12	1095183	keystroke_s	s	n/a
547.6815	0.06	1095363	keystroke_e	e	n/a
547.8615	0.075	1095723	keystroke_d	d	n/a
547.9815	0.06	1095963	keystroke_Key.space	Key.space	n/a
548.432	0.06	1096864	keystroke_e	e	n/a
548.597	0.09	1097194	keystroke_v	v	n/a
548.671	0.091	1097342	keystroke_a	a	n/a
548.777	0.075	1097554	keystroke_l	l	n/a
549.091	0.075	1098182	keystroke_Key.enter	Key.enter	n/a
549.173	4.6	1098346	prompt	n/a	find eric schema misc\n
549.7965	0.09	1099593	keystroke_f	f	n/a
549.9315	0.135	1099863	keystroke_i	i	n/a
550.0215	0.1205	1100043	keystroke_n	n	n/a
550.1265	0.061	1100253	keystroke_d	d	n/a
550.2165	0.09	1100433	keystroke_Key.space	Key.space	n/a
550.322	0.119	1100644	keystroke_e	e	n/a
550.411	0.06	1100822	keystroke_r	r	n/a
550.486	0.105	1100972	keystroke_i	i	n/a
550.606	0.075	1101212	keystroke_c	c	n/a
550.682	0.059	1101364	keystroke_Key.space	Key.space	n/a
551.146	0.075	1102292	keystroke_s	s	n/a
551.297	0.0895	1102594	keystroke_c	c	n/a
551.432	0.1045	1102864	keystroke_h	h	n/a
551.521	0.046	1103042	keystroke_e	e	n/a
551.642	0.105	1103284	keystroke_m	m	n/a
551.7475	0.029	1103495	keystroke_e	e	n/a
552.1815	0.09	1104363	keystroke_Key.backspace	Key.backspace	n/a
552.2865	0.045	1104573	keystroke_a	a	n/a
552.3465	0.0605	1104693	keystroke_Key.space	Key.space	n/a
552.9915	0.1195	1105983	keystroke_m	m	n/a
553.142	0.0745	1106284	keystroke_i	i	n/a
