onset	duration	sample	value	key	prompt_text
0.942	15.705	1884	prompt	n/a	the quick brown fox jumps over a lazy dog\n
4.797	0.105	9594	keystroke	Key.space	n/a
5.037	0.09	10074	keystroke	Key.space	n/a
5.247	0.075	10494	keystroke	Key.space	n/a
5.902	0.1495	11804	keystroke	Key.cmd	n/a
5.9615	0.105	11923	keystroke	a	n/a
6.5935	0.135	13187	keystroke	Key.cmd	n/a
7.299	0.134	14598	keystroke	Key.esc	n/a
9.428	0.12	18856	keystroke	Key.backspace	n/a
10.193	0.0895	20386	keystroke	Key.backspace	n/a
10.914	0.09	21828	keystroke	t	n/a
11.019	0.12	22038	keystroke	h	n/a
11.154	0.09	22308	keystroke	e	n/a
11.318	0.12	22636	keystroke	Key.space	n/a
11.619	0.089	23238	keystroke	q	n/a
11.844	0.164	23688	keystroke	u	n/a
11.933	0.09	23866	keystroke	i	n/a
12.024	0.105	24048	keystroke	c	n/a
12.144	0.119	24288	keystroke	k	n/a
12.248	0.15	24496	keystroke	Key.space	n/a
12.383	0.09	24766	keystroke	b	n/a
12.488	0.106	24976	keystroke	r	n/a
12.578	0.105	25156	keystroke	o	n/a
12.668	0.105	25336	keystroke	w	n/a
12.758	0.105	25516	keystroke	n	n/a
12.923	0.12	25846	keystroke	Key.space	n/a
13.058	0.09	26116	keystroke	f	n/a
13.133	0.09	26266	keystroke	o	n/a
13.254	0.105	26508	keystroke	x	n/a
13.373	0.165	26746	keystroke	Key.space	n/a
13.5245	0.0735	27049	keystroke	j	n/a
13.8685	0.135	27737	keystroke	u	n/a
13.9885	0.12	27977	keystroke	m	n/a
14.0335	0.105	28067	keystroke	p	n/a
14.1235	0.09	28247	keystroke	s	n/a
14.4685	0.105	28937	keystroke	Key.space	n/a
14.5285	0.15	29057	keystroke	o	n/a
14.6335	0.09	29267	keystroke	v	n/a
14.814	0.12	29628	keystroke	e	n/a
14.904	0.09	29808	keystroke	r	n/a
15.054	0.09	30108	keystroke	Key.space	n/a
15.159	0.135	30318	keystroke	a	n/a
15.279	0.09	30558	keystroke	Key.space	n/a
15.399	0.12	30798	keystroke	l	n/a
15.474	0.15	30948	keystroke	a	n/a
15.564	0.105	31128	keystroke	z	n/a
15.684	0.06	31368	keystroke	y	n/a
15.714	0.09	31428	keystroke	Key.space	n/a
15.819	0.105	31638	keystroke	d	n/a
15.939	0.09	31878	keystroke	o	n/a
16.044	0.0745	32088	keystroke	g	n/a
16.5385	0.105	33077	keystroke	Key.enter	n/a
16.6525	5.2435	33305	prompt	n/a	involves pirates destruction blast\n
17.2885	0.15	34577	keystroke	i	n/a
17.3635	0.12	34727	keystroke	n	n/a
17.4985	0.105	34997	keystroke	v	n/a
17.5885	0.0895	35177	keystroke	o	n/a
17.784	0.105	35568	keystroke	l	n/a
17.859	0.12	35718	keystroke	v	n/a
17.964	0.105	35928	keystroke	e	n/a
18.159	0.105	36318	keystroke	s	n/a
18.249	0.135	36498	keystroke	Key.space	n/a
18.399	0.1045	36798	keystroke	p	n/a
18.4585	0.12	36917	keystroke	i	n/a
18.5185	0.105	37037	keystroke	r	n/a
18.6385	0.12	37277	keystroke	a	n/a
18.6995	0.12	37399	keystroke	t	n/a
18.7885	0.106	37577	keystroke	e	n/a
18.9685	0.12	37937	keystroke	s	n/a
19.1035	0.09	38207	keystroke	Key.space	n/a
19.1785	0.12	38357	keystroke	d	n/a
19.2695	0.105	38539	keystroke	e	n/a
19.4785	0.105	38957	keystroke	s	n/a
19.8085	0.091	39617	keystroke	t	n/a
19.9885	0.09	39977	keystroke	r	n/a
20.0495	0.089	40099	keystroke	u	n/a
20.3035	0.06	40607	keystroke	c	n/a
20.5285	0.0755	41057	keystroke	t	n/a
20.5735	0.1955	41147	keystroke	i	n/a
20.649	0.135	41298	keystroke	o	n/a
20.724	0.09	41448	keystroke	n	n/a
20.888	0.135	41776	keystroke	Key.space	n/a
20.994	0.09	41988	keystroke	b	n/a
21.188	0.136	42376	keystroke	l	n/a
21.294	0.105	42588	keystroke	a	n/a
21.309	0.15	42618	keystroke	s	n/a
21.444	0.12	42888	keystroke	t	n/a
21.788	0.106	43576	keystroke	Key.enter	n/a
21.9	5.0805	43800	prompt	n/a	concern fashion experiments shade\n
23.304	0.09	46608	keystroke	c	n/a
23.424	0.105	46848	keystroke	o	n/a
23.469	0.09	46938	keystroke	n	n/a
23.604	0.06	47208	keystroke	c	n/a
23.754	0.12	47508	keystroke	e	n/a
23.829	0.105	47658	keystroke	r	n/a
23.889	0.06	47778	keystroke	n	n/a
24.054	0.12	48108	keystroke	Key.space	n/a
24.159	0.09	48318	keystroke	f	n/a
24.2635	0.15	48527	keystroke	a	n/a
24.3535	0.1205	48707	keystroke	s	n/a
24.459	0.075	48918	keystroke	h	n/a
24.714	0.12	49428	keystroke	i	n/a
24.744	0.105	49488	keystroke	o	n/a
24.804	0.09	49608	keystroke	n	n/a
24.984	0.12	49968	keystroke	Key.space	n/a
25.089	0.12	50178	keystroke	e	n/a
25.299	0.12	50598	keystroke	x	n/a
25.374	0.105	50748	keystroke	p	n/a
25.509	0.135	51018	keystroke	e	n/a
25.584	0.15	51168	keystroke	r	n/a
25.629	0.12	51258	keystroke	i	n/a
25.704	0.105	51408	keystroke	m	n/a
25.779	0.15	51558	keystroke	e	n/a
25.899	0.1195	51798	keystroke	n	n/a
25.959	0.0745	51918	keystroke	t	n/a
26.1385	0.0895	52277	keystroke	s	n/a
26.198	0.106	52396	keystroke	Key.space	n/a
26.349	0.1195	52698	keystroke	s	n/a
26.424	0.089	52848	keystroke	h	n/a
26.528	0.105	53056	keystroke	a	n/a
26.619	0.119	53238	keystroke	d	n/a
26.708	0.091	53416	keystroke	e	n/a
26.873	0.1055	53746	keystroke	Key.enter	n/a
26.985	5.576	53970	prompt	n/a	deutsche awesome cornwall leonard\n
27.6385	0.1355	55277	keystroke	d	n/a
27.9085	0.091	55817	keystroke	e	n/a
28.0435	0.12	56087	keystroke	u	n/a
28.1785	0.075	56357	keystroke	t	n/a
28.3885	0.12	56777	keystroke	s	n/a
28.5535	0.136	57107	keystroke	c	n/a
28.6735	0.105	57347	keystroke	h	n/a
28.8245	0.09	57649	keystroke	e	n/a
28.8985	0.105	57797	keystroke	Key.space	n/a
29.0785	0.135	58157	keystroke	a	n/a
29.1685	0.12	58337	keystroke	w	n/a
29.3785	0.105	58757	keystroke	e	n/a
29.5885	0.105	59177	keystroke	s	n/a
29.6635	0.12	59327	keystroke	o	n/a
29.7385	0.09	59477	keystroke	m	n/a
29.8585	0.09	59717	keystroke	e	n/a
29.9635	0.105	59927	keystroke	Key.space	n/a
30.1135	0.105	60227	keystroke	c	n/a
30.2195	0.089	60439	keystroke	o	n/a
30.3385	0.105	60677	keystroke	r	n/a
30.4285	0.09	60857	keystroke	n	n/a
30.5635	0.12	61127	keystroke	w	n/a
30.6535	0.105	61307	keystroke	a	n/a
30.7135	0.046	61427	keystroke	l	n/a
30.8335	0.136	61667	keystroke	l	n/a
30.9535	0.165	61907	keystroke	Key.space	n/a
31.4785	0.03	62957	keystroke	l	n/a
31.6735	0.106	63347	keystroke	e	n/a
31.8395	0.119	63679	keystroke	o	n/a
31.9145	0.15	63829	keystroke	n	n/a
32.0345	0.104	64069	keystroke	a	n/a
32.1085	0.09	64217	keystroke	r	n/a
32.3045	0.09	64609	keystroke	d	n/a
32.4235	0.135	64847	keystroke	Key.enter	n/a
32.5655	3.986	65131	prompt	n/a	types medium told grows\n
33.2035	0.105	66407	keystroke	t	n/a
33.3385	0.076	66677	keystroke	y	n/a
33.5335	0.12	67067	keystroke	p	n/a
33.6085	0.09	67217	keystroke	e	n/a
33.8035	0.106	67607	keystroke	s	n/a
33.9095	0.089	67819	keystroke	Key.space	n/a
34.1195	0.12	68239	keystroke	m	n/a
34.2545	0.105	68509	keystroke	e	n/a
34.3135	0.12	68627	keystroke	d	n/a
34.3745	0.149	68749	keystroke	i	n/a
34.4035	0.15	68807	keystroke	u	n/a
34.5245	0.045	69049	keystroke	m	n/a
34.6585	0.12	69317	keystroke	Key.space	n/a
34.7645	0.105	69529	keystroke	t	n/a
34.8385	0.09	69677	keystroke	o	n/a
35.0195	0.105	70039	keystroke	l	n/a
35.0795	0.105	70159	keystroke	d	n/a
35.1845	0.12	70369	keystroke	Key.space	n/a
35.3635	0.031	70727	keystroke	g	n/a
35.9045	0.09	71809	keystroke	r	n/a
36.0235	0.105	72047	keystroke	o	n/a
36.1445	0.105	72289	keystroke	w	n/a
36.3535	0.091	72707	keystroke	s	n/a
36.4585	0.09	72917	keystroke	Key.enter	n/a
36.557	4.03	73114	prompt	n/a	foundations norton mood favorite\n
37.2535	0.121	74507	keystroke	f	n/a
37.3285	0.151	74657	keystroke	o	n/a
37.3885	0.151	74777	keystroke	u	n/a
37.4495	0.12	74899	keystroke	n	n/a
37.5545	0.075	75109	keystroke	d	n/a
37.6595	0.104	75319	keystroke	a	n/a
37.7785	0.121	75557	keystroke	t	n/a
37.8085	0.166	75617	keystroke	i	n/a
37.8695	0.135	75739	keystroke	o	n/a
37.9145	0.119	75829	keystroke	n	n/a
38.0195	0.12	76039	keystroke	s	n/a
38.1235	0.09	76247	keystroke	Key.space	n/a
38.1995	0.12	76399	keystroke	n	n/a
38.3035	0.135	76607	keystroke	o	n/a
38.3945	0.09	76789	keystroke	r	n/a
38.5595	0.119	77119	keystroke	t	n/a
38.6335	0.091	77267	keystroke	o	n/a
38.6945	0.089	77389	keystroke	n	n/a
38.8585	0.075	77717	keystroke	Key.space	n/a
39.0695	0.09	78139	keystroke	m	n/a
39.0995	0.075	78199	keystroke	o	n/a
39.2495	0.12	78499	keystroke	o	n/a
39.3545	0.075	78709	keystroke	d	n/a
39.4445	0.119	78889	keystroke	Key.space	n/a
39.5345	0.105	79069	keystroke	f	n/a
39.6845	0.149	79369	keystroke	a	n/a
39.8345	0.105	79669	keystroke	v	n/a
39.9545	0.09	79909	keystroke	o	n/a
40.0585	0.091	80117	keystroke	r	n/a
40.1635	0.075	80327	keystroke	i	n/a
40.2535	0.076	80507	keystroke	t	n/a
40.3135	0.106	80627	keystroke	e	n/a
40.4495	0.134	80899	keystroke	Key.enter	n/a
40.5915	5.1695	81183	prompt	n/a	reproductive essays ministers belize\n
41.2285	0.105	82457	keystroke	r	n/a
41.2895	0.135	82579	keystroke	e	n/a
41.4085	0.1505	82817	keystroke	p	n/a
41.574	0.105	83148	keystroke	r	n/a
41.664	0.09	83328	keystroke	o	n/a
41.799	0.105	83598	keystroke	d	n/a
41.874	0.105	83748	keystroke	u	n/a
42.039	0.075	84078	keystroke	c	n/a
42.234	0.075	84468	keystroke	t	n/a
42.324	0.105	84648	keystroke	i	n/a
42.444	0.12	84888	keystroke	v	n/a
42.519	0.12	85038	keystroke	e	n/a
42.609	0.09	85218	keystroke	Key.space	n/a
42.729	0.09	85458	keystroke	e	n/a
42.909	0.09	85818	keystroke	s	n/a
43.089	0.12	86178	keystroke	s	n/a
43.134	0.135	86268	keystroke	a	n/a
43.224	0.09	86448	keystroke	y	n/a
43.359	0.105	86718	keystroke	s	n/a
43.449	0.09	86898	keystroke	Key.space	n/a
43.659	0.105	87318	keystroke	m	n/a
43.734	0.135	87468	keystroke	i	n/a
43.87	0.104	87740	keystroke	n	n/a
43.929	0.105	87858	keystroke	i	n/a
43.989	0.135	87978	keystroke	s	n/a
44.109	0.135	88218	keystroke	t	n/a
44.229	0.135	88458	keystroke	e	n/a
44.319	0.09	88638	keystroke	r	n/a
44.529	0.12	89058	keystroke	s	n/a
44.664	0.12	89328	keystroke	Key.space	n/a
44.754	0.075	89508	keystroke	b	n/a
44.964	0.12	89928	keystroke	e	n/a
45.069	0.135	90138	keystroke	l	n/a
45.129	0.12	90258	keystroke	i	n/a
45.219	0.135	90438	keystroke	z	n/a
45.489	0.105	90978	keystroke	e	n/a
45.654	0.105	91308	keystroke	Key.enter	n/a
45.768	5.978	91536	prompt	n/a	festival enables calculations idea\n
46.494	0.12	92988	keystroke	f	n/a
46.615	0.104	93230	keystroke	e	n/a
46.809	0.165	93618	keystroke	s	n/a
46.959	0.12	93918	keystroke	t	n/a
47.109	0.075	94218	keystroke	i	n/a
47.259	0.105	94518	keystroke	v	n/a
47.394	0.12	94788	keystroke	a	n/a
47.484	0.105	94968	keystroke	l	n/a
47.589	0.135	95178	keystroke	Key.space	n/a
47.754	0.12	95508	keystroke	e	n/a
47.889	0.075	95778	keystroke	n	n/a
47.979	0.15	95958	keystroke	a	n/a
48.054	0.06	96108	keystroke	b	n/a
48.204	0.165	96408	keystroke	l	n/a
48.309	0.075	96618	keystroke	e	n/a
48.474	0.09	96948	keystroke	s	n/a
48.654	0.06	97308	keystroke	Key.space	n/a
48.804	0.105	97608	keystroke	c	n/a
48.864	0.136	97728	keystroke	a	n/a
49	0.149	98000	keystroke	l	n/a
49.179	0.12	98358	keystroke	c	n/a
49.284	0.09	98568	keystroke	u	n/a
49.614	0.105	99228	keystroke	l	n/a
49.704	0.105	99408	keystroke	a	n/a
49.794	0.105	99588	keystroke	t	n/a
49.869	0.18	99738	keystroke	i	n/a
49.944	0.12	99888	keystroke	o	n/a
50.004	0.105	100008	keystroke	n	n/a
50.079	0.135	100158	keystroke	s	n/a
50.199	0.105	100398	keystroke	Key.space	n/a
50.274	0.09	100548	keystroke	a	n/a
50.814	0.06	101628	keystroke	Key.backspace	n/a
51.099	0.12	102198	keystroke	i	n/a
51.264	0.165	102528	keystroke	d	n/a
51.339	0.135	102678	keystroke	e	n/a
51.43	0.119	102860	keystroke	a	n/a
51.639	0.105	103278	keystroke	Key.enter	n/a
51.751	5.0955	103502	prompt	n/a	minus simpson generation horses\n
52.374	0.105	104748	keystroke	m	n/a
52.524	0.12	105048	keystroke	i	n/a
52.614	0.12	105228	keystroke	n	n/a
52.719	0.105	105438	keystroke	u	n/a
52.764	0.12	105528	keystroke	s	n/a
52.899	0.105	105798	keystroke	Key.space	n/a
53.005	0.104	106010	keystroke	s	n/a
53.139	0.105	106278	keystroke	i	n/a
53.199	0.15	106398	keystroke	m	n/a
53.304	0.09	106608	keystroke	p	n/a
53.409	0.12	106818	keystroke	s	n/a
53.484	0.12	106968	keystroke	o	n/a
53.545	0.089	107090	keystroke	n	n/a
53.724	0.075	107448	keystroke	Key.space	n/a
53.814	0.105	107628	keystroke	g	n/a
53.934	0.15	107868	keystroke	e	n/a
54.054	0.15	108108	keystroke	n	n/a
54.264	0.195	108528	keystroke	e	n/a
54.474	0.12	108948	keystroke	r	n/a
54.624	0.1345	109248	keystroke	a	n/a
54.744	0.105	109488	keystroke	t	n/a
54.834	0.165	109668	keystroke	i	n/a
54.909	0.12	109818	keystroke	o	n/a
54.954	0.09	109908	keystroke	n	n/a
55.119	0.15	110238	keystroke	Key.space	n/a
55.254	0.12	110508	keystroke	h	n/a
55.329	0.12	110658	keystroke	o	n/a
55.404	0.105	110808	keystroke	r	n/a
55.569	0.075	111138	keystroke	s	n/a
55.644	0.12	111288	keystroke	o	n/a
55.765	0.03	111530	keystroke	s	n/a
56.229	0.0745	112458	keystroke	Key.backspace	n/a
56.3935	0.0605	112787	keystroke	Key.backspace	n/a
56.4545	0.09	112909	keystroke	e	n/a
56.6485	0.105	113297	keystroke	s	n/a
56.7385	0.105	113477	keystroke	Key.enter	n/a
56.8515	4.224	113703	prompt	n/a	proprietary panel listed wizard\n
57.3835	0.106	114767	keystroke	p	n/a
57.5195	0.119	115039	keystroke	r	n/a
57.6085	0.15	115217	keystroke	o	n/a
57.6985	0.105	115397	keystroke	p	n/a
57.8485	0.12	115697	keystroke	r	n/a
57.9835	0.12	115967	keystroke	i	n/a
58.0885	0.165	116177	keystroke	e	n/a
58.1945	0.104	116389	keystroke	t	n/a
58.3585	0.12	116717	keystroke	a	n/a
58.4185	0.106	116837	keystroke	r	n/a
58.4945	0.105	116989	keystroke	y	n/a
58.5685	0.135	117137	keystroke	Key.space	n/a
58.7635	0.106	117527	keystroke	p	n/a
58.8535	0.105	117707	keystroke	a	n/a
58.9135	0.09	117827	keystroke	n	n/a
59.0335	0.106	118067	keystroke	e	n/a
59.1085	0.106	118217	keystroke	l	n/a
59.2435	0.12	118487	keystroke	Key.space	n/a
59.3185	0.165	118637	keystroke	l	n/a
59.4085	0.136	118817	keystroke	i	n/a
59.4395	0.149	118879	keystroke	s	n/a
59.5585	0.12	119117	keystroke	t	n/a
59.6935	0.165	119387	keystroke	e	n/a
59.7835	0.136	119567	keystroke	d	n/a
59.9035	0.09	119807	keystroke	Key.space	n/a
60.0085	0.09	120017	keystroke	w	n/a
60.1285	0.045	120257	keystroke	i	n/a
60.2935	0.165	120587	keystroke	z	n/a
60.5785	0.09	121157	keystroke	a	n/a
60.6535	0.105	121307	keystroke	r	n/a
60.8485	0.12	121697	keystroke	d	n/a
60.9835	0.09	121967	keystroke	Key.enter	n/a
61.08	4.046	122160	prompt	n/a	proven finite bosnia downloads\n
61.7645	0.104	123529	keystroke	p	n/a
61.8385	0.12	123677	keystroke	r	n/a
61.9735	0.09	123947	keystroke	o	n/a
62.1085	0.12	124217	keystroke	v	n/a
62.1835	0.105	124367	keystroke	e	n/a
62.2435	0.105	124487	keystroke	n	n/a
62.4385	0.09	124877	keystroke	Key.space	n/a
62.5435	0.105	125087	keystroke	f	n/a
62.6495	0.104	125299	keystroke	i	n/a
62.7385	0.135	125477	keystroke	n	n/a
62.8585	0.12	125717	keystroke	i	n/a
62.9795	0.149	125959	keystroke	t	n/a
63.1295	0.12	126259	keystroke	e	n/a
63.2785	0.09	126557	keystroke	Key.space	n/a
63.4135	0.075	126827	keystroke	b	n/a
63.6095	0.104	127219	keystroke	o	n/a
63.6695	0.105	127339	keystroke	s	n/a
63.7755	0.103	127551	keystroke	n	n/a
63.8335	0.136	127667	keystroke	i	n/a
63.8935	0.105	127787	keystroke	a	n/a
64.0285	0.12	128057	keystroke	Key.space	n/a
64.1335	0.09	128267	keystroke	d	n/a
64.2385	0.105	128477	keystroke	o	n/a
64.2835	0.105	128567	keystroke	w	n/a
64.3735	0.105	128747	keystroke	n	n/a
64.4935	0.09	128987	keystroke	l	n/a
64.6745	0.089	129349	keystroke	o	n/a
64.7185	0.12	129437	keystroke	a	n/a
64.8235	0.105	129647	keystroke	d	n/a
64.8685	0.12	129737	keystroke	s	n/a
65.0035	0.12	130007	keystroke	Key.enter	n/a
65.132	5.3635	130264	prompt	n/a	continue resistance available leadership\n
65.7535	0.12	131507	keystroke	c	n/a
65.829	0.1495	131658	keystroke	o	n/a
65.8885	0.135	131777	keystroke	n	n/a
66.0395	0.089	132079	keystroke	t	n/a
66.0835	0.12	132167	keystroke	i	n/a
66.1585	0.12	132317	keystroke	n	n/a
66.2495	0.12	132499	keystroke	u	n/a
66.3245	0.12	132649	keystroke	e	n/a
66.4285	0.12	132857	keystroke	Key.space	n/a
66.5195	0.12	133039	keystroke	r	n/a
66.5785	0.105	133157	keystroke	e	n/a
66.7735	0.075	133547	keystroke	s	n/a
66.8635	0.09	133727	keystroke	i	n/a
66.9385	0.135	133877	keystroke	s	n/a
67.0885	0.12	134177	keystroke	t	n/a
67.1945	0.12	134389	keystroke	a	n/a
67.2985	0.105	134597	keystroke	n	n/a
67.4485	0.105	134897	keystroke	c	n/a
67.5085	0.136	135017	keystroke	e	n/a
67.6285	0.09	135257	keystroke	Key.space	n/a
67.7795	0.119	135559	keystroke	a	n/a
67.9295	0.134	135859	keystroke	v	n/a
68.3635	0.076	136727	keystroke	a	n/a
68.4535	0.165	136907	keystroke	i	n/a
68.5735	0.135	137147	keystroke	l	n/a
68.7385	0.135	137477	keystroke	a	n/a
68.8435	0.18	137687	keystroke	b	n/a
68.9335	0.165	137867	keystroke	l	n/a
69.0695	0.089	138139	keystroke	e	n/a
69.1435	0.105	138287	keystroke	Key.space	n/a
69.2045	0.135	138409	keystroke	l	n/a
69.2785	0.18	138557	keystroke	e	n/a
69.3235	0.15	138647	keystroke	a	n/a
69.4595	0.06	138919	keystroke	d	n/a
69.5635	0.105	139127	keystroke	e	n/a
69.6235	0.105	139247	keystroke	r	n/a
69.7895	0.105	139579	keystroke	s	n/a
69.8335	0.075	139667	keystroke	h	n/a
70.0585	0.091	140117	keystroke	i	n/a
70.1035	0.12	140207	keystroke	p	n/a
70.3885	0.105	140777	keystroke	Key.enter	n/a
70.4995	6.221	140999	prompt	n/a	traditions personnel logos entered\n
71.0945	0.075	142189	keystroke	t	n/a
71.2585	0.12	142517	keystroke	r	n/a
71.3935	0.09	142787	keystroke	a	n/a
71.4985	0.12	142997	keystroke	d	n/a
71.7245	0.09	143449	keystroke	i	n/a
71.8285	0.091	143657	keystroke	t	n/a
71.9045	0.149	143809	keystroke	i	n/a
71.9485	0.121	143897	keystroke	o	n/a
72.0085	0.12	144017	keystroke	n	n/a
72.0995	0.105	144199	keystroke	s	n/a
72.2185	0.105	144437	keystroke	Key.space	n/a
72.3085	0.15	144617	keystroke	p	n/a
72.6985	0.105	145397	keystroke	o	n/a
73.149	0.105	146298	keystroke	Key.backspace	n/a
73.329	0.165	146658	keystroke	e	n/a
73.449	0.075	146898	keystroke	r	n/a
73.644	0.105	147288	keystroke	s	n/a
73.704	0.105	147408	keystroke	o	n/a
73.764	0.105	147528	keystroke	n	n/a
73.899	0.075	147798	keystroke	e	n/a
74.334	0.075	148668	keystroke	Key.backspace	n/a
74.484	0.105	148968	keystroke	n	n/a
74.724	0.105	149448	keystroke	e	n/a
74.844	0.135	149688	keystroke	l	n/a
75.039	0.135	150078	keystroke	Key.space	n/a
75.204	0.105	150408	keystroke	l	n/a
75.384	0.09	150768	keystroke	o	n/a
75.459	0.09	150918	keystroke	g	n/a
75.579	0.075	151158	keystroke	o	n/a
75.669	0.105	151338	keystroke	s	n/a
75.789	0.09	151578	keystroke	Key.space	n/a
75.909	0.135	151818	keystroke	e	n/a
76.014	0.105	152028	keystroke	n	n/a
76.089	0.09	152178	keystroke	t	n/a
76.164	0.12	152328	keystroke	e	n/a
76.254	0.135	152508	keystroke	r	n/a
76.374	0.12	152748	keystroke	e	n/a
76.479	0.12	152958	keystroke	d	n/a
76.644	0.075	153288	keystroke	Key.enter	n/a
76.726	5.77	153452	prompt	n/a	portfolio participate recipient meyer\n
77.379	0.09	154758	keystroke	p	n/a
77.544	0.105	155088	keystroke	o	n/a
77.709	0.135	155418	keystroke	r	n/a
77.964	0.12	155928	keystroke	t	n/a
78.369	0.105	156738	keystroke	f	n/a
78.519	0.18	157038	keystroke	o	n/a
78.789	0.12	157578	keystroke	l	n/a
78.939	0.15	157878	keystroke	i	n/a
79.029	0.12	158058	keystroke	o	n/a
79.164	0.135	158328	keystroke	Key.space	n/a
79.284	0.15	158568	keystroke	p	n/a
79.389	0.12	158778	keystroke	a	n/a
79.494	0.105	158988	keystroke	r	n/a
79.689	0.09	159378	keystroke	t	n/a
79.854	0.09	159708	keystroke	i	n/a
79.959	0.15	159918	keystroke	c	n/a
80.079	0.12	160158	keystroke	i	n/a
80.154	0.135	160308	keystroke	p	n/a
80.244	0.12	160488	keystroke	a	n/a
80.349	0.12	160698	keystroke	t	n/a
80.424	0.135	160848	keystroke	e	n/a
80.514	0.12	161028	keystroke	Key.space	n/a
80.754	0.09	161508	keystroke	r	n/a
80.814	0.135	161628	keystroke	e	n/a
81.009	0.105	162018	keystroke	c	n/a
81.115	0.119	162230	keystroke	i	n/a
81.219	0.135	162438	keystroke	p	n/a
81.309	0.12	162618	keystroke	i	n/a
81.429	0.09	162858	keystroke	e	n/a
81.52	0.119	163040	keystroke	n	n/a
81.64	0.089	163280	keystroke	t	n/a
81.699	0.09	163398	keystroke	Key.space	n/a
81.909	0.06	163818	keystroke	m	n/a
81.984	0.135	163968	keystroke	e	n/a
82.089	0.075	164178	keystroke	y	n/a
82.194	0.12	164388	keystroke	e	n/a
82.269	0.105	164538	keystroke	r	n/a
82.389	0.105	164778	keystroke	Key.enter	n/a
82.5015	3.759	165003	prompt	n/a	phones tape international tumor\n
83.064	0.09	166128	keystroke	p	n/a
83.259	0.12	166518	keystroke	h	n/a
83.349	0.15	166698	keystroke	o	n/a
83.424	0.12	166848	keystroke	n	n/a
83.484	0.09	166968	keystroke	e	n/a
83.679	0.105	167358	keystroke	s	n/a
83.769	0.075	167538	keystroke	Key.space	n/a
83.874	0.105	167748	keystroke	t	n/a
83.964	0.135	167928	keystroke	a	n/a
84.024	0.12	168048	keystroke	p	n/a
84.145	0.089	168290	keystroke	e	n/a
84.219	0.105	168438	keystroke	Key.space	n/a
84.354	0.15	168708	keystroke	i	n/a
84.474	0.15	168948	keystroke	n	n/a
84.594	0.105	169188	keystroke	t	n/a
84.714	0.15	169428	keystroke	e	n/a
84.789	0.135	169578	keystroke	r	n/a
84.909	0.075	169818	keystroke	n	n/a
84.999	0.105	169998	keystroke	a	n/a
85.089	0.105	170178	keystroke	t	n/a
85.134	0.12	170268	keystroke	i	n/a
85.179	0.105	170358	keystroke	o	n/a
85.224	0.105	170448	keystroke	n	n/a
85.299	0.12	170598	keystroke	a	n/a
85.404	0.135	170808	keystroke	l	n/a
85.494	0.105	170988	keystroke	Key.space	n/a
85.614	0.105	171228	keystroke	t	n/a
85.704	0.12	171408	keystroke	u	n/a
85.794	0.12	171588	keystroke	m	n/a
85.869	0.12	171738	keystroke	o	n/a
85.959	0.09	171918	keystroke	r	n/a
86.169	0.09	172338	keystroke	Key.enter	n/a
86.266	5.8905	172532	prompt	n/a	investigators dance strengthen casting\n
86.919	0.09	173838	keystroke	i	n/a
86.979	0.135	173958	keystroke	n	n/a
87.069	0.135	174138	keystroke	v	n/a
87.219	0.105	174438	keystroke	e	n/a
87.414	0.12	174828	keystroke	s	n/a
87.519	0.165	175038	keystroke	t	n/a
87.774	0.12	175548	keystroke	i	n/a
87.939	0.105	175878	keystroke	g	n/a
88.314	0.12	176628	keystroke	a	n/a
88.434	0.12	176868	keystroke	t	n/a
88.539	0.135	177078	keystroke	o	n/a
88.659	0.12	177318	keystroke	r	n/a
88.824	0.15	177648	keystroke	s	n/a
89.019	0.045	178038	keystroke	Key.space	n/a
89.079	0.12	178158	keystroke	d	n/a
89.184	0.12	178368	keystroke	a	n/a
89.259	0.135	178518	keystroke	n	n/a
89.379	0.135	178758	keystroke	c	n/a
89.454	0.105	178908	keystroke	e	n/a
89.574	0.09	179148	keystroke	Key.space	n/a
89.679	0.12	179358	keystroke	s	n/a
89.814	0.105	179628	keystroke	t	n/a
90.009	0.12	180018	keystroke	r	n/a
90.069	0.12	180138	keystroke	e	n/a
90.159	0.12	180318	keystroke	n	n/a
90.294	0.075	180588	keystroke	g	n/a
90.564	0.015	181128	keystroke	t	n/a
90.594	0.09	181188	keystroke	h	n/a
90.699	0.135	181398	keystroke	e	n/a
90.804	0.09	181608	keystroke	n	n/a
91.044	0.09	182088	keystroke	Key.space	n/a
91.164	0.075	182328	keystroke	c	n/a
91.299	0.105	182598	keystroke	a	n/a
91.359	0.165	182718	keystroke	s	n/a
91.479	0.12	182958	keystroke	t	n/a
91.525	0.119	183050	keystroke	i	n/a
91.6	0.089	183200	keystroke	n	n/a
91.704	0.105	183408	keystroke	g	n/a
92.064	0.09	184128	keystroke	Key.enter	n/a
92.1605	4.33	184321	prompt	n/a	heroes personally battery moderator\n
92.725	0.119	185450	keystroke	h	n/a
92.829	0.12	185658	keystroke	e	n/a
92.904	0.09	185808	keystroke	r	n/a
93.009	0.135	186018	keystroke	o	n/a
93.114	0.09	186228	keystroke	e	n/a
93.309	0.09	186618	keystroke	s	n/a
93.384	0.135	186768	keystroke	Key.space	n/a
93.504	0.105	187008	keystroke	p	n/a
93.594	0.135	187188	keystroke	e	n/a
93.669	0.09	187338	keystroke	r	n/a
93.834	0.12	187668	keystroke	s	n/a
93.924	0.105	187848	keystroke	o	n/a
93.984	0.075	187968	keystroke	n	n/a
94.074	0.075	188148	keystroke	a	n/a
94.179	0.091	188358	keystroke	l	n/a
94.419	0.06	188838	keystroke	l	n/a
94.434	0.09	188868	keystroke	y	n/a
94.494	0.09	188988	keystroke	Key.space	n/a
94.674	0.075	189348	keystroke	b	n/a
94.719	0.09	189438	keystroke	a	n/a
94.794	0.075	189588	keystroke	t	n/a
94.989	0.075	189978	keystroke	t	n/a
95.049	0.135	190098	keystroke	e	n/a
95.139	0.12	190278	keystroke	r	n/a
95.214	0.09	190428	keystroke	y	n/a
95.274	0.09	190548	keystroke	Key.space	n/a
95.484	0.135	190968	keystroke	m	n/a
95.559	0.165	191118	keystroke	o	n/a
95.634	0.105	191268	keystroke	d	n/a
95.724	0.135	191448	keystroke	e	n/a
95.799	0.12	191598	keystroke	r	n/a
95.949	0.09	191898	keystroke	a	n/a
96.009	0.09	192018	keystroke	t	n/a
96.069	0.1055	192138	keystroke	o	n/a
96.189	0.12	192378	keystroke	r	n/a
96.384	0.105	192768	keystroke	Key.enter	n/a
96.495	6.281	192990	prompt	n/a	shoulder prompt alpha certification\n
97.149	0.105	194298	keystroke	s	n/a
97.239	0.165	194478	keystroke	h	n/a
97.299	0.165	194598	keystroke	o	n/a
97.389	0.105	194778	keystroke	u	n/a
97.584	0.12	195168	keystroke	l	n/a
97.689	0.12	195378	keystroke	d	n/a
97.839	0.135	195678	keystroke	e	n/a
97.929	0.12	195858	keystroke	r	n/a
98.034	0.15	196068	keystroke	Key.space	n/a
98.574	0.105	197148	keystroke	p	n/a
98.799	0.06	197598	keystroke	o	n/a
99.219	0.105	198438	keystroke	Key.backspace	n/a
99.444	0.12	198888	keystroke	r	n/a
99.639	0.18	199278	keystroke	o	n/a
99.774	0.18	199548	keystroke	m	n/a
99.894	0.135	199788	keystroke	p	n/a
100.014	0.09	200028	keystroke	t	n/a
100.149	0.12	200298	keystroke	Key.space	n/a
100.284	0.105	200568	keystroke	a	n/a
100.374	0.09	200748	keystroke	l	n/a
100.554	0.09	201108	keystroke	p	n/a
100.764	0.09	201528	keystroke	h	n/a
100.839	0.105	201678	keystroke	a	n/a
100.974	0.135	201948	keystroke	Key.space	n/a
101.079	0.12	202158	keystroke	c	n/a
101.274	0.135	202548	keystroke	e	n/a
101.349	0.105	202698	keystroke	r	n/a
101.544	0.09	203088	keystroke	t	n/a
101.635	0.089	203270	keystroke	i	n/a
101.769	0.105	203538	keystroke	f	n/a
101.889	0.12	203778	keystroke	i	n/a
101.994	0.075	203988	keystroke	c	n/a
102.144	0.06	204288	keystroke	a	n/a
102.234	0.09	204468	keystroke	t	n/a
102.309	0.135	204618	keystroke	i	n/a
102.354	0.135	204708	keystroke	o	n/a
102.429	0.135	204858	keystroke	n	n/a
102.639	0.135	205278	keystroke	Key.enter	n/a
102.7845	5.527	205569	prompt	n/a	screening ours writing fundraising\n
103.3895	0.12	206779	keystroke	s	n/a
103.5695	0.09	207139	keystroke	c	n/a
103.7795	0.09	207559	keystroke	r	n/a
103.8395	0.105	207679	keystroke	e	n/a
104.0195	0.104	208039	keystroke	e	n/a
104.0945	0.12	208189	keystroke	n	n/a
104.2295	0.135	208459	keystroke	i	n/a
104.3045	0.12	208609	keystroke	n	n/a
104.4095	0.075	208819	keystroke	g	n/a
104.5145	0.12	209029	keystroke	Key.space	n/a
104.5895	0.18	209179	keystroke	o	n/a
104.6645	0.15	209329	keystroke	u	n/a
104.7695	0.075	209539	keystroke	r	n/a
104.9795	0.12	209959	keystroke	s	n/a
105.1585	0.121	210317	keystroke	Key.space	n/a
105.2345	0.12	210469	keystroke	w	n/a
105.3545	0.12	210709	keystroke	r	n/a
105.4445	0.105	210889	keystroke	i	n/a
105.5795	0.12	211159	keystroke	t	n/a
105.6545	0.12	211309	keystroke	i	n/a
105.7145	0.105	211429	keystroke	n	n/a
105.8345	0.105	211669	keystroke	g	n/a
105.9245	0.105	211849	keystroke	Key.space	n/a
106.0745	0.105	212149	keystroke	d	n/a
106.1645	0.105	212329	keystroke	u	n/a
106.2245	0.09	212449	keystroke	n	n/a
106.7045	0.09	213409	keystroke	Key.backspace	n/a
106.8695	0.059	213739	keystroke	Key.backspace	n/a
107.0195	0.059	214039	keystroke	Key.backspace	n/a
107.1995	0.105	214399	keystroke	f	n/a
107.3195	0.12	214639	keystroke	u	n/a
107.3945	0.105	214789	keystroke	n	n/a
107.4545	0.09	214909	keystroke	d	n/a
107.6345	0.12	215269	keystroke	r	n/a
107.7095	0.105	215419	keystroke	a	n/a
107.7845	0.09	215569	keystroke	i	n/a
107.8895	0.12	215779	keystroke	s	n/a
107.9645	0.09	215929	keystroke	i	n/a
108.0245	0.09	216049	keystroke	n	n/a
108.0995	0.105	216199	keystroke	g	n/a
108.2195	0.09	216439	keystroke	Key.enter	n/a
108.3155	4.69	216631	prompt	n/a	publicly conspiracy auction trained\n
108.8195	0.105	217639	keystroke	p	n/a
109.0145	0.195	218029	keystroke	u	n/a
109.1345	0.165	218269	keystroke	b	n/a
109.3745	0.135	218749	keystroke	l	n/a
109.6745	0.1045	219349	keystroke	i	n/a
109.779	0.12	219558	keystroke	c	n/a
109.899	0.18	219798	keystroke	l	n/a
109.989	0.135	219978	keystroke	y	n/a
110.109	0.12	220218	keystroke	Key.space	n/a
110.259	0.12	220518	keystroke	c	n/a
110.334	0.12	220668	keystroke	o	n/a
110.409	0.12	220818	keystroke	n	n/a
110.514	0.12	221028	keystroke	s	n/a
110.604	0.135	221208	keystroke	p	n/a
110.679	0.12	221358	keystroke	i	n/a
110.769	0.12	221538	keystroke	r	n/a
110.874	0.12	221748	keystroke	a	n/a
111.039	0.105	222078	keystroke	c	n/a
111.099	0.105	222198	keystroke	y	n/a
111.159	0.12	222318	keystroke	Key.space	n/a
111.309	0.12	222618	keystroke	a	n/a
111.444	0.075	222888	keystroke	u	n/a
111.504	0.12	223008	keystroke	c	n/a
111.759	0.09	223518	keystroke	t	n/a
111.864	0.15	223728	keystroke	i	n/a
111.924	0.12	223848	keystroke	o	n/a
111.969	0.09	223938	keystroke	n	n/a
112.149	0.12	224298	keystroke	Key.space	n/a
112.239	0.06	224478	keystroke	t	n/a
112.404	0.09	224808	keystroke	r	n/a
112.464	0.105	224928	keystroke	a	n/a
112.509	0.12	225018	keystroke	i	n/a
112.584	0.12	225168	keystroke	n	n/a
112.689	0.135	225378	keystroke	e	n/a
112.779	0.105	225558	keystroke	d	n/a
112.869	0.135	225738	keystroke	Key.enter	n/a
113.0105	4.5405	226021	prompt	n/a	started wages collector columnists\n
113.529	0.15	227058	keystroke	s	n/a
113.649	0.075	227298	keystroke	t	n/a
113.739	0.1045	227478	keystroke	a	n/a
113.829	0.0895	227658	keystroke	r	n/a
113.9935	0.105	227987	keystroke	t	n/a
114.0685	0.18	228137	keystroke	e	n/a
114.2335	0.09	228467	keystroke	d	n/a
114.2935	0.135	228587	keystroke	Key.space	n/a
114.3985	0.135	228797	keystroke	w	n/a
114.4885	0.09	228977	keystroke	a	n/a
114.6535	0.105	229307	keystroke	g	n/a
114.7135	0.105	229427	keystroke	e	n/a
114.8935	0.12	229787	keystroke	s	n/a
114.9985	0.12	229997	keystroke	Key.space	n/a
115.1035	0.105	230207	keystroke	c	n/a
115.1785	0.09	230357	keystroke	o	n/a
115.3885	0.03	230777	keystroke	l	n/a
115.4935	0.12	230987	keystroke	l	n/a
115.5385	0.12	231077	keystroke	e	n/a
115.6145	0.089	231229	keystroke	c	n/a
115.8235	0.075	231647	keystroke	t	n/a
115.8995	0.119	231799	keystroke	o	n/a
116.0035	0.105	232007	keystroke	r	n/a
116.1235	0.135	232247	keystroke	Key.space	n/a
116.2735	0.105	232547	keystroke	c	n/a
116.3635	0.075	232727	keystroke	o	n/a
116.5435	0.12	233087	keystroke	l	n/a
116.6335	0.12	233267	keystroke	u	n/a
116.7085	0.09	233417	keystroke	m	n/a
116.9035	0.105	233807	keystroke	n	n/a
116.9485	0.135	233897	keystroke	i	n/a
117.0235	0.135	234047	keystroke	s	n/a
117.1295	0.104	234259	keystroke	t	n/a
117.2485	0.105	234497	keystroke	s	n/a
117.4885	0.06	234977	keystroke	Key.enter	n/a
117.556	4.9745	235112	prompt	n/a	fixed palestine incidents cancelled\n
118.4945	0.089	236989	keystroke	f	n/a
118.5685	0.105	237137	keystroke	i	n/a
118.7035	0.105	237407	keystroke	x	n/a
118.9135	0.165	237827	keystroke	e	n/a
118.9895	0.119	237979	keystroke	d	n/a
119.0635	0.105	238127	keystroke	Key.space	n/a
119.1385	0.09	238277	keystroke	p	n/a
119.2735	0.12	238547	keystroke	a	n/a
119.3945	0.104	238789	keystroke	l	n/a
119.4685	0.091	238937	keystroke	e	n/a
119.6335	0.135	239267	keystroke	s	n/a
119.7535	0.136	239507	keystroke	t	n/a
119.8435	0.09	239687	keystroke	i	n/a
119.8735	0.121	239747	keystroke	n	n/a
119.9635	0.12	239927	keystroke	e	n/a
120.0985	0.09	240197	keystroke	Key.space	n/a
120.2485	0.121	240497	keystroke	i	n/a
120.3385	0.12	240677	keystroke	n	n/a
120.4595	0.1045	240919	keystroke	c	n/a
120.579	0.105	241158	keystroke	i	n/a
120.669	0.12	241338	keystroke	d	n/a
120.729	0.15	241458	keystroke	e	n/a
120.834	0.105	241668	keystroke	n	n/a
120.894	0.09	241788	keystroke	t	n/a
121.029	0.12	242058	keystroke	s	n/a
121.119	0.09	242238	keystroke	Key.space	n/a
121.239	0.12	242478	keystroke	c	n/a
121.329	0.09	242658	keystroke	a	n/a
121.389	0.105	242778	keystroke	n	n/a
121.524	0.105	243048	keystroke	c	n/a
121.794	0.075	243588	keystroke	e	n/a
121.809	0.075	243618	keystroke	l	n/a
122.079	0.09	244158	keystroke	l	n/a
122.244	0.12	244488	keystroke	e	n/a
122.304	0.105	244608	keystroke	d	n/a
122.424	0.105	244848	keystroke	Key.enter	n/a
122.535	6.071	245070	prompt	n/a	rows broke voyeurweb lightbox\n
123.189	0.09	246378	keystroke	r	n/a
123.294	0.075	246588	keystroke	o	n/a
123.354	0.12	246708	keystroke	w	n/a
123.564	0.105	247128	keystroke	s	n/a
123.654	0.12	247308	keystroke	Key.space	n/a
123.909	0.075	247818	keystroke	b	n/a
124.029	0.09	248058	keystroke	r	n/a
124.149	0.135	248298	keystroke	o	n/a
124.254	0.105	248508	keystroke	k	n/a
124.374	0.105	248748	keystroke	e	n/a
124.464	0.135	248928	keystroke	Key.space	n/a
124.629	0.105	249258	keystroke	v	n/a
124.929	0.15	249858	keystroke	o	n/a
125.379	0.09	250758	keystroke	y	n/a
125.904	0.105	251808	keystroke	e	n/a
126.024	0.12	252048	keystroke	u	n/a
126.474	0.135	252948	keystroke	r	n/a
126.714	0.09	253428	keystroke	w	n/a
126.909	0.12	253818	keystroke	e	n/a
127.014	0.09	254028	keystroke	b	n/a
127.209	0.105	254418	keystroke	Key.space	n/a
127.329	0.1945	254658	keystroke	l	n/a
127.4935	0.105	254987	keystroke	i	n/a
127.7335	0.09	255467	keystroke	g	n/a
127.7635	0.121	255527	keystroke	h	n/a
127.8535	0.105	255707	keystroke	t	n/a
127.9735	0.06	255947	keystroke	b	n/a
128.1695	0.09	256339	keystroke	o	n/a
128.2135	0.09	256427	keystroke	x	n/a
128.4985	0.105	256997	keystroke	Key.enter	n/a
128.6115	3.024	257223	prompt	n/a	fisher swing give paint\n
129.1745	0.12	258349	keystroke	f	n/a
129.2785	0.09	258557	keystroke	i	n/a
129.3545	0.105	258709	keystroke	s	n/a
129.4435	0.12	258887	keystroke	h	n/a
129.5495	0.164	259099	keystroke	e	n/a
129.6235	0.135	259247	keystroke	r	n/a
129.7435	0.135	259487	keystroke	Key.space	n/a
129.8495	0.089	259699	keystroke	s	n/a
130.0135	0.105	260027	keystroke	w	n/a
130.0735	0.12	260147	keystroke	i	n/a
130.1635	0.105	260327	keystroke	n	n/a
130.2535	0.09	260507	keystroke	g	n/a
130.3735	0.105	260747	keystroke	Key.space	n/a
130.4635	0.105	260927	keystroke	g	n/a
130.5535	0.105	261107	keystroke	i	n/a
130.6735	0.12	261347	keystroke	v	n/a
130.7645	0.119	261529	keystroke	e	n/a
130.8685	0.105	261737	keystroke	Key.space	n/a
131.0185	0.091	262037	keystroke	p	n/a
131.0935	0.09	262187	keystroke	a	n/a
131.1985	0.105	262397	keystroke	i	n/a
131.2435	0.105	262487	keystroke	n	n/a
131.3195	0.12	262639	keystroke	t	n/a
131.5435	0.09	263087	keystroke	Key.enter	n/a
131.6395	4.8425	263279	prompt	n/a	began lauderdale relevance tire\n
132.2945	0.059	264589	keystroke	p	n/a
132.7135	0.09	265427	keystroke	Key.backspace	n/a
133.0445	0.09	266089	keystroke	b	n/a
133.1345	0.15	266269	keystroke	e	n/a
133.2685	0.091	266537	keystroke	g	n/a
133.3745	0.135	266749	keystroke	a	n/a
133.4335	0.09	266867	keystroke	n	n/a
133.5985	0.135	267197	keystroke	Key.space	n/a
133.7785	0.135	267557	keystroke	l	n/a
133.8985	0.105	267797	keystroke	a	n/a
133.9885	0.105	267977	keystroke	u	n/a
134.0785	0.105	268157	keystroke	d	n/a
134.1545	0.164	268309	keystroke	e	n/a
134.2735	0.091	268547	keystroke	r	n/a
134.4385	0.12	268877	keystroke	d	n/a
134.5285	0.106	269057	keystroke	a	n/a
134.6185	0.12	269237	keystroke	l	n/a
134.6945	0.104	269389	keystroke	e	n/a
134.8135	0.15	269627	keystroke	Key.space	n/a
134.9495	0.104	269899	keystroke	r	n/a
135.0085	0.136	270017	keystroke	e	n/a
135.1285	0.091	270257	keystroke	l	n/a
135.2035	0.15	270407	keystroke	e	n/a
135.3095	0.134	270619	keystroke	v	n/a
135.4285	0.106	270857	keystroke	a	n/a
135.5485	0.105	271097	keystroke	n	n/a
135.6245	0.105	271249	keystroke	c	n/a
135.6845	0.119	271369	keystroke	e	n/a
135.8185	0.09	271637	keystroke	Key.space	n/a
135.9545	0.12	271909	keystroke	t	n/a
136.0595	0.104	272119	keystroke	i	n/a
136.1785	0.105	272357	keystroke	r	n/a
136.2535	0.12	272507	keystroke	e	n/a
136.3895	0.089	272779	keystroke	Key.enter	n/a
136.486	3.9695	272972	prompt	n/a	offense robbie bother sheet\n
137.0935	0.12	274187	keystroke	o	n/a
137.1685	0.09	274337	keystroke	f	n/a
137.3195	0.119	274639	keystroke	f	n/a
137.4095	0.119	274819	keystroke	e	n/a
137.5295	0.119	275059	keystroke	n	n/a
137.6345	0.089	275269	keystroke	s	n/a
137.7995	0.105	275599	keystroke	e	n/a
138.0685	0.09	276137	keystroke	Key.space	n/a
138.3095	0.089	276619	keystroke	r	n/a
138.3835	0.135	276767	keystroke	o	n/a
138.4595	0.089	276919	keystroke	b	n/a
138.6395	0.12	277279	keystroke	b	n/a
138.6995	0.135	277399	keystroke	i	n/a
138.7735	0.12	277547	keystroke	e	n/a
138.8635	0.15	277727	keystroke	Key.space	n/a
139.0145	0.075	278029	keystroke	b	n/a
139.1635	0.106	278327	keystroke	o	n/a
139.2385	0.121	278477	keystroke	t	n/a
139.3445	0.105	278689	keystroke	h	n/a
139.3745	0.224	278749	keystroke	e	n/a
139.5235	0.151	279047	keystroke	r	n/a
139.7335	0.06	279467	keystroke	Key.space	n/a
139.7945	0.119	279589	keystroke	s	n/a
139.8985	0.075	279797	keystroke	h	n/a
140.0035	0.091	280007	keystroke	e	n/a
140.1545	0.135	280309	keystroke	e	n/a
140.2735	0.075	280547	keystroke	t	n/a
140.3185	0.135	280637	keystroke	Key.enter	n/a
140.4595	4.4975	280919	prompt	n/a	scared enzyme liberia kill\n
141.0545	0.119	282109	keystroke	s	n/a
141.2045	0.1195	282409	keystroke	c	n/a
141.354	0.135	282708	keystroke	a	n/a
141.474	0.105	282948	keystroke	r	n/a
141.549	0.18	283098	keystroke	e	n/a
141.669	0.15	283338	keystroke	d	n/a
141.759	0.105	283518	keystroke	Key.space	n/a
141.894	0.105	283788	keystroke	e	n/a
141.984	0.12	283968	keystroke	n	n/a
142.119	0.12	284238	keystroke	z	n/a
142.254	0.135	284508	keystroke	y	n/a
142.404	0.12	284808	keystroke	m	n/a
142.539	0.12	285078	keystroke	e	n/a
142.66	0.104	285320	keystroke	Key.space	n/a
143.094	0.135	286188	keystroke	l	n/a
143.214	0.135	286428	keystroke	i	n/a
143.304	0.135	286608	keystroke	b	n/a
143.394	0.15	286788	keystroke	e	n/a
143.484	0.135	286968	keystroke	r	n/a
143.62	0.089	287240	keystroke	i	n/a
143.724	0.105	287448	keystroke	a	n/a
143.799	0.12	287598	keystroke	Key.space	n/a
143.964	0.06	287928	keystroke	k	n/a
144.324	0.12	288648	keystroke	i	n/a
144.429	0.06	288858	keystroke	l	n/a
144.624	0.06	289248	keystroke	l	n/a
144.819	0.135	289638	keystroke	Key.enter	n/a
144.962	4.2535	289924	prompt	n/a	calvin heart vessel brick\n
145.689	0.12	291378	keystroke	c	n/a
146.064	0.075	292128	keystroke	a	n/a
146.184	0.105	292368	keystroke	l	n/a
146.304	0.105	292608	keystroke	v	n/a
146.379	0.12	292758	keystroke	i	n/a
146.439	0.09	292878	keystroke	n	n/a
146.619	0.12	293238	keystroke	Key.space	n/a
146.709	0.12	293418	keystroke	h	n/a
146.814	0.15	293628	keystroke	e	n/a
146.844	0.105	293688	keystroke	a	n/a
146.874	0.105	293748	keystroke	r	n/a
147.069	0.09	294138	keystroke	t	n/a
147.264	0.135	294528	keystroke	Key.space	n/a
147.384	0.12	294768	keystroke	v	n/a
147.474	0.135	294948	keystroke	e	n/a
147.684	0.105	295368	keystroke	s	n/a
147.849	0.075	295698	keystroke	s	n/a
148.014	0.105	296028	keystroke	e	n/a
148.104	0.136	296208	keystroke	l	n/a
148.194	0.105	296388	keystroke	Key.space	n/a
148.374	0.075	296748	keystroke	b	n/a
148.509	0.09	297018	keystroke	r	n/a
148.584	0.09	297168	keystroke	i	n/a
148.734	0.105	297468	keystroke	c	n/a
148.794	0.105	297588	keystroke	k	n/a
149.109	0.105	298218	keystroke	Key.enter	n/a
149.222	4.2685	298444	prompt	n/a	professor beyond partly nvidia\n
149.784	0.135	299568	keystroke	p	n/a
149.904	0.12	299808	keystroke	r	n/a
150.04	0.104	300080	keystroke	o	n/a
150.324	0.12	300648	keystroke	f	n/a
150.445	0.134	300890	keystroke	e	n/a
150.639	0.12	301278	keystroke	s	n/a
150.819	0.135	301638	keystroke	s	n/a
150.894	0.135	301788	keystroke	o	n/a
151.014	0.12	302028	keystroke	r	n/a
151.089	0.12	302178	keystroke	Key.space	n/a
151.224	0.105	302448	keystroke	b	n/a
151.359	0.12	302718	keystroke	e	n/a
151.449	0.15	302898	keystroke	y	n/a
151.539	0.15	303078	keystroke	o	n/a
151.614	0.12	303228	keystroke	n	n/a
151.674	0.12	303348	keystroke	d	n/a
151.809	0.135	303618	keystroke	Key.space	n/a
151.884	0.12	303768	keystroke	p	n/a
151.974	0.09	303948	keystroke	a	n/a
152.034	0.09	304068	keystroke	r	n/a
152.214	0.105	304428	keystroke	t	n/a
152.334	0.165	304668	keystroke	l	n/a
152.424	0.12	304848	keystroke	y	n/a
152.484	0.09	304968	keystroke	Key.space	n/a
152.724	0.09	305448	keystroke	n	n/a
152.799	0.09	305598	keystroke	v	n/a
152.904	0.075	305808	keystroke	i	n/a
153.009	0.09	306018	keystroke	d	n/a
153.114	0.06	306228	keystroke	i	n/a
153.234	0.135	306468	keystroke	a	n/a
153.414	0.075	306828	keystroke	Key.enter	n/a
153.495	4.406	306990	prompt	n/a	enormous gloves reader recommend\n
154.059	0.135	308118	keystroke	e	n/a
154.179	0.135	308358	keystroke	n	n/a
154.464	0.12	308928	keystroke	o	n/a
154.569	0.105	309138	keystroke	r	n/a
154.704	0.12	309408	keystroke	m	n/a
154.764	0.18	309528	keystroke	o	n/a
154.839	0.12	309678	keystroke	u	n/a
154.929	0.136	309858	keystroke	s	n/a
155.034	0.135	310068	keystroke	Key.space	n/a
155.259	0.105	310518	keystroke	g	n/a
155.334	0.105	310668	keystroke	l	n/a
155.529	0.09	311058	keystroke	o	n/a
155.589	0.105	311178	keystroke	v	n/a
155.634	0.12	311268	keystroke	e	n/a
155.844	0.12	311688	keystroke	s	n/a
155.949	0.12	311898	keystroke	Key.space	n/a
156.054	0.12	312108	keystroke	r	n/a
156.144	0.225	312288	keystroke	e	n/a
156.219	0.165	312438	keystroke	a	n/a
156.354	0.105	312708	keystroke	d	n/a
156.429	0.18	312858	keystroke	e	n/a
156.549	0.12	313098	keystroke	r	n/a
156.639	0.105	313278	keystroke	Key.space	n/a
156.774	0.12	313548	keystroke	r	n/a
156.849	0.195	313698	keystroke	e	n/a
157.014	0.15	314028	keystroke	c	n/a
157.089	0.06	314178	keystroke	o	n/a
157.165	0.089	314330	keystroke	m	n/a
157.345	0.104	314690	keystroke	m	n/a
157.464	0.09	314928	keystroke	e	n/a
157.539	0.105	315078	keystroke	n	n/a
157.645	0.104	315290	keystroke	d	n/a
157.809	0.09	315618	keystroke	Key.enter	n/a
157.909	5.3165	315818	prompt	n/a	ease tennessee cooperation radios\n
158.44	0.119	316880	keystroke	e	n/a
158.589	0.195	317178	keystroke	a	n/a
158.694	0.12	317388	keystroke	s	n/a
158.89	0.119	317780	keystroke	e	n/a
158.994	0.12	317988	keystroke	Key.space	n/a
159.129	0.135	318258	keystroke	t	n/a
159.234	0.135	318468	keystroke	e	n/a
159.324	0.09	318648	keystroke	n	n/a
159.519	0.075	319038	keystroke	n	n/a
159.579	0.09	319158	keystroke	e	n/a
159.76	0.104	319520	keystroke	s	n/a
160.21	0.149	320420	keystroke	s	n/a
160.479	0.135	320958	keystroke	e	n/a
160.704	0.12	321408	keystroke	e	n/a
160.869	0.15	321738	keystroke	Key.space	n/a
161.1235	0.075	322247	keystroke	c	n/a
161.379	0.1055	322758	keystroke	o	n/a
161.5745	0.135	323149	keystroke	o	n/a
161.6495	0.135	323299	keystroke	p	n/a
161.7545	0.165	323509	keystroke	e	n/a
161.8445	0.105	323689	keystroke	r	n/a
161.9945	0.105	323989	keystroke	a	n/a
162.0695	0.12	324139	keystroke	t	n/a
162.1295	0.12	324259	keystroke	i	n/a
162.1745	0.12	324349	keystroke	o	n/a
162.2345	0.075	324469	keystroke	n	n/a
162.4145	0.12	324829	keystroke	Key.space	n/a
162.5045	0.105	325009	keystroke	r	n/a
162.6245	0.105	325249	keystroke	a	n/a
162.7295	0.12	325459	keystroke	d	n/a
162.8195	0.09	325639	keystroke	i	n/a
162.8345	0.135	325669	keystroke	o	n/a
162.9395	0.09	325879	keystroke	s	n/a
163.0745	0.15	326149	keystroke	Key.enter	n/a
163.231	3.895	326462	prompt	n/a	oval pioneer therapy vessel\n
163.8245	0.1495	327649	keystroke	o	n/a
163.9595	0.0745	327919	keystroke	v	n/a
164.064	0.1505	328128	keystroke	a	n/a
164.139	0.1205	328278	keystroke	l	n/a
164.2445	0.09	328489	keystroke	Key.space	n/a
164.3945	0.12	328789	keystroke	p	n/a
164.5295	0.195	329059	keystroke	i	n/a
164.6195	0.135	329239	keystroke	o	n/a
164.6945	0.12	329389	keystroke	n	n/a
164.7995	0.105	329599	keystroke	e	n/a
164.9795	0.135	329959	keystroke	e	n/a
165.0545	0.135	330109	keystroke	r	n/a
165.1445	0.105	330289	keystroke	Key.space	n/a
165.3095	0.09	330619	keystroke	t	n/a
165.3845	0.09	330769	keystroke	h	n/a
165.4595	0.135	330919	keystroke	e	n/a
165.5495	0.105	331099	keystroke	r	n/a
165.6695	0.135	331339	keystroke	a	n/a
165.7295	0.09	331459	keystroke	p	n/a
165.8945	0.105	331789	keystroke	y	n/a
165.9545	0.135	331909	keystroke	Key.space	n/a
166.074	0.0905	332148	keystroke	v	n/a
166.1795	0.15	332359	keystroke	e	n/a
166.404	0.0755	332808	keystroke	s	n/a
166.554	0.075	333108	keystroke	s	n/a
166.704	0.12	333408	keystroke	e	n/a
166.749	0.105	333498	keystroke	l	n/a
167.0045	0.1195	334009	keystroke	Key.enter	n/a
167.131	4.42	334262	prompt	n/a	interview ugly smilies totals\n
167.7695	0.1195	335539	keystroke	i	n/a
167.844	0.1205	335688	keystroke	n	n/a
167.904	0.12	335808	keystroke	t	n/a
168.039	0.105	336078	keystroke	e	n/a
168.084	0.1355	336168	keystroke	r	n/a
168.339	0.09	336678	keystroke	v	n/a
168.4745	0.1195	336949	keystroke	i	n/a
168.579	0.15	337158	keystroke	e	n/a
168.669	0.135	337338	keystroke	w	n/a
168.789	0.135	337578	keystroke	Key.space	n/a
168.909	0.1205	337818	keystroke	u	n/a
169.389	0.105	338778	keystroke	g	n/a
169.704	0.12	339408	keystroke	l	n/a
169.809	0.105	339618	keystroke	y	n/a
169.869	0.12	339738	keystroke	Key.space	n/a
170.035	0.119	340070	keystroke	s	n/a
170.169	0.105	340338	keystroke	m	n/a
170.229	0.135	340458	keystroke	i	n/a
170.319	0.195	340638	keystroke	l	n/a
170.424	0.135	340848	keystroke	i	n/a
170.499	0.09	340998	keystroke	e	n/a
170.664	0.12	341328	keystroke	s	n/a
170.754	0.1205	341508	keystroke	Key.space	n/a
170.889	0.09	341778	keystroke	t	n/a
170.964	0.105	341928	keystroke	o	n/a
171.039	0.105	342078	keystroke	t	n/a
171.114	0.12	342228	keystroke	a	n/a
171.1895	0.1495	342379	keystroke	l	n/a
171.294	0.09	342588	keystroke	s	n/a
171.414	0.135	342828	keystroke	Key.enter	n/a
171.5545	3.7465	343109	prompt	n/a	promote goods builders argued\n
172.089	0.09	344178	keystroke	p	n/a
172.194	0.121	344388	keystroke	r	n/a
172.284	0.105	344568	keystroke	o	n/a
172.374	0.135	344748	keystroke	m	n/a
172.464	0.135	344928	keystroke	o	n/a
172.524	0.12	345048	keystroke	t	n/a
172.614	0.12	345228	keystroke	e	n/a
172.689	0.12	345378	keystroke	Key.space	n/a
172.824	0.105	345648	keystroke	g	n/a
172.899	0.045	345798	keystroke	o	n/a
173.019	0.12	346038	keystroke	o	n/a
173.109	0.135	346218	keystroke	d	n/a
173.1695	0.1345	346339	keystroke	s	n/a
173.364	0.165	346728	keystroke	Key.space	n/a
173.559	0.06	347118	keystroke	b	n/a
173.784	0.135	347568	keystroke	u	n/a
173.829	0.15	347658	keystroke	i	n/a
173.859	0.18	347718	keystroke	l	n/a
173.949	0.135	347898	keystroke	d	n/a
174.054	0.18	348108	keystroke	e	n/a
174.174	0.105	348348	keystroke	r	n/a
174.324	0.12	348648	keystroke	s	n/a
174.444	0.12	348888	keystroke	Key.space	n/a
174.519	0.12	349038	keystroke	a	n/a
174.609	0.12	349218	keystroke	r	n/a
174.804	0.105	349608	keystroke	g	n/a
174.879	0.105	349758	keystroke	u	n/a
174.969	0.12	349938	keystroke	e	n/a
175.044	0.1205	350088	keystroke	d	n/a
175.149	0.15	350298	keystroke	Key.enter	n/a
175.306	4.21	350612	prompt	n/a	math emergency tigers directly\n
175.929	0.135	351858	keystroke	m	n/a
176.019	0.135	352038	keystroke	a	n/a
176.109	0.12	352218	keystroke	t	n/a
176.199	0.105	352398	keystroke	h	n/a
176.259	0.09	352518	keystroke	Key.space	n/a
176.364	0.09	352728	keystroke	e	n/a
176.469	0.105	352938	keystroke	m	n/a
176.529	0.105	353058	keystroke	e	n/a
176.604	0.105	353208	keystroke	r	n/a
176.814	0.105	353628	keystroke	g	n/a
176.874	0.135	353748	keystroke	e	n/a
176.964	0.12	353928	keystroke	n	n/a
177.099	0.105	354198	keystroke	c	n/a
177.174	0.105	354348	keystroke	y	n/a
177.249	0.135	354498	keystroke	Key.space	n/a
177.399	0.105	354798	keystroke	t	n/a
177.519	0.12	355038	keystroke	i	n/a
177.624	0.09	355248	keystroke	g	n/a
177.699	0.15	355398	keystroke	e	n/a
177.804	0.09	355608	keystroke	r	n/a
177.954	0.135	355908	keystroke	s	n/a
178.074	0.105	356148	keystroke	Key.space	n/a
178.359	0.09	356718	keystroke	d	n/a
178.479	0.12	356958	keystroke	i	n/a
178.569	0.105	357138	keystroke	r	n/a
178.644	0.15	357288	keystroke	e	n/a
178.809	0.105	357618	keystroke	c	n/a
179.034	0.075	358068	keystroke	t	n/a
179.079	0.135	358158	keystroke	l	n/a
179.139	0.09	358278	keystroke	y	n/a
179.394	0.12	358788	keystroke	Key.enter	n/a
179.521	3.595	359042	prompt	n/a	owners tell tariff printing\n
180.099	0.135	360198	keystroke	o	n/a
180.204	0.12	360408	keystroke	w	n/a
180.309	0.135	360618	keystroke	n	n/a
180.549	0.18	361098	keystroke	e	n/a
180.684	0.105	361368	keystroke	r	n/a
180.834	0.165	361668	keystroke	s	n/a
181.014	0.12	362028	keystroke	Key.space	n/a
181.119	0.105	362238	keystroke	t	n/a
181.194	0.12	362388	keystroke	e	n/a
181.269	0.075	362538	keystroke	l	n/a
181.404	0.105	362808	keystroke	l	n/a
181.479	0.15	362958	keystroke	Key.space	n/a
181.584	0.09	363168	keystroke	t	n/a
181.689	0.12	363378	keystroke	a	n/a
181.764	0.12	363528	keystroke	r	n/a
181.899	0.09	363798	keystroke	i	n/a
182.004	0.075	364008	keystroke	f	n/a
182.169	0.06	364338	keystroke	f	n/a
182.214	0.12	364428	keystroke	Key.space	n/a
182.289	0.12	364578	keystroke	p	n/a
182.379	0.135	364758	keystroke	r	n/a
182.499	0.12	364998	keystroke	i	n/a
182.574	0.12	365148	keystroke	n	n/a
182.649	0.105	365298	keystroke	t	n/a
182.769	0.09	365538	keystroke	i	n/a
182.829	0.105	365658	keystroke	n	n/a
182.919	0.075	365838	keystroke	g	n/a
183.009	0.105	366018	keystroke	Key.enter	n/a
183.1205	4.885	366241	prompt	n/a	addressing target lite subscribers\n
183.699	0.105	367398	keystroke	a	n/a
183.834	0.105	367668	keystroke	d	n/a
183.969	0.12	367938	keystroke	d	n/a
184.404	0.135	368808	keystroke	r	n/a
184.509	0.105	369018	keystroke	e	n/a
184.704	0.075	369408	keystroke	s	n/a
184.869	0.09	369738	keystroke	s	n/a
184.914	0.135	369828	keystroke	i	n/a
185.004	0.09	370008	keystroke	n	n/a
185.079	0.09	370158	keystroke	g	n/a
185.214	0.135	370428	keystroke	Key.space	n/a
185.544	0.12	371088	keystroke	t	n/a
185.679	0.105	371358	keystroke	a	n/a
185.769	0.105	371538	keystroke	r	n/a
185.994	0.15	371988	keystroke	g	n/a
186.099	0.165	372198	keystroke	e	n/a
186.219	0.12	372438	keystroke	t	n/a
186.309	0.15	372618	keystroke	Key.space	n/a
186.444	0.195	372888	keystroke	l	n/a
186.519	0.165	373038	keystroke	i	n/a
186.609	0.12	373218	keystroke	t	n/a
186.654	0.12	373308	keystroke	e	n/a
186.789	0.09	373578	keystroke	Key.space	n/a
186.894	0.105	373788	keystroke	s	n/a
186.969	0.12	373938	keystroke	u	n/a
187.029	0.12	374058	keystroke	b	n/a
187.104	0.135	374208	keystroke	s	n/a
187.224	0.105	374448	keystroke	c	n/a
187.479	0.06	374958	keystroke	r	n/a
187.494	0.12	374988	keystroke	i	n/a
187.524	0.135	375048	keystroke	b	n/a
187.599	0.12	375198	keystroke	e	n/a
187.674	0.09	375348	keystroke	r	n/a
187.809	0.105	375618	keystroke	s	n/a
187.884	0.12	375768	keystroke	Key.enter	n/a
188.011	3.9245	376022	prompt	n/a	increased theater transport suite\n
188.619	0.135	377238	keystroke	i	n/a
188.709	0.09	377418	keystroke	n	n/a
188.739	0.105	377478	keystroke	c	n/a
188.934	0.135	377868	keystroke	r	n/a
189.009	0.12	378018	keystroke	e	n/a
189.054	0.165	378108	keystroke	a	n/a
189.189	0.12	378378	keystroke	s	n/a
189.384	0.12	378768	keystroke	e	n/a
189.459	0.105	378918	keystroke	d	n/a
189.579	0.075	379158	keystroke	Key.space	n/a
189.684	0.12	379368	keystroke	t	n/a
189.774	0.105	379548	keystroke	h	n/a
189.834	0.195	379668	keystroke	e	n/a
189.939	0.121	379878	keystroke	a	n/a
190.014	0.12	380028	keystroke	t	n/a
190.119	0.12	380238	keystroke	e	n/a
190.194	0.12	380388	keystroke	r	n/a
190.315	0.119	380630	keystroke	Key.space	n/a
190.449	0.105	380898	keystroke	t	n/a
190.614	0.12	381228	keystroke	r	n/a
190.704	0.12	381408	keystroke	a	n/a
190.779	0.105	381558	keystroke	n	n/a
190.869	0.105	381738	keystroke	s	n/a
190.944	0.15	381888	keystroke	p	n/a
191.004	0.135	382008	keystroke	o	n/a
191.079	0.075	382158	keystroke	r	n/a
191.229	0.06	382458	keystroke	t	n/a
191.304	0.075	382608	keystroke	Key.space	n/a
191.409	0.12	382818	keystroke	s	n/a
191.484	0.105	382968	keystroke	u	n/a
191.544	0.12	383088	keystroke	i	n/a
191.59	0.119	383180	keystroke	t	n/a
191.679	0.09	383358	keystroke	e	n/a
191.814	0.12	383628	keystroke	Key.enter	n/a
191.9405	3.761	383881	prompt	n/a	weight cleaner thoughts shell\n
192.474	0.105	384948	keystroke	w	n/a
192.669	0.105	385338	keystroke	e	n/a
192.729	0.105	385458	keystroke	i	n/a
192.924	0.105	385848	keystroke	g	n/a
192.984	0.12	385968	keystroke	h	n/a
193.044	0.09	386088	keystroke	t	n/a
193.135	0.119	386270	keystroke	Key.space	n/a
193.329	0.105	386658	keystroke	c	n/a
193.419	0.15	386838	keystroke	l	n/a
193.554	0.135	387108	keystroke	e	n/a
193.584	0.135	387168	keystroke	a	n/a
193.674	0.105	387348	keystroke	n	n/a
193.764	0.165	387528	keystroke	e	n/a
193.839	0.135	387678	keystroke	r	n/a
193.944	0.09	387888	keystroke	Key.space	n/a
194.064	0.105	388128	keystroke	t	n/a
194.124	0.195	388248	keystroke	h	n/a
194.184	0.15	388368	keystroke	o	n/a
194.259	0.105	388518	keystroke	u	n/a
194.454	0.105	388908	keystroke	g	n/a
194.514	0.105	389028	keystroke	h	n/a
194.574	0.075	389148	keystroke	t	n/a
194.709	0.135	389418	keystroke	s	n/a
194.814	0.12	389628	keystroke	Key.space	n/a
195.024	0.06	390048	keystroke	s	n/a
195.069	0.045	390138	keystroke	h	n/a
195.234	0.09	390468	keystroke	e	n/a
195.309	0.075	390618	keystroke	l	n/a
195.43	0.089	390860	keystroke	l	n/a
195.684	0.015	391368	keystroke	Key.enter	n/a
195.7155	6.4805	391431	prompt	n/a	medication risk oughtn't i've\n
196.329	0.12	392658	keystroke	m	n/a
196.419	0.105	392838	keystroke	e	n/a
196.494	0.15	392988	keystroke	d	n/a
196.629	0.075	393258	keystroke	i	n/a
196.749	0.075	393498	keystroke	c	n/a
196.809	0.105	393618	keystroke	a	n/a
196.959	0.09	393918	keystroke	t	n/a
197.004	0.135	394008	keystroke	i	n/a
197.034	0.12	394068	keystroke	o	n/a
197.094	0.075	394188	keystroke	n	n/a
197.259	0.105	394518	keystroke	Key.space	n/a
197.349	0.12	394698	keystroke	r	n/a
197.424	0.105	394848	keystroke	i	n/a
197.559	0.105	395118	keystroke	s	n/a
197.604	0.12	395208	keystroke	k	n/a
197.709	0.09	395418	keystroke	Key.space	n/a
197.829	0.195	395658	keystroke	o	n/a
197.904	0.105	395808	keystroke	i	n/a
197.949	0.09	395898	keystroke	u	n/a
198.549	0.06	397098	keystroke	Key.backspace	n/a
198.714	0.075	397428	keystroke	Key.backspace	n/a
198.984	0.105	397968	keystroke	u	n/a
199.209	0.12	398418	keystroke	g	n/a
199.269	0.12	398538	keystroke	h	n/a
199.404	0.12	398808	keystroke	t	n/a
199.569	0.105	399138	keystroke	n	n/a
200.604	0.075	401208	keystroke	'	n/a
200.664	0.12	401328	keystroke	t	n/a
200.814	0.15	401628	keystroke	Key.space	n/a
201.099	0.105	402198	keystroke	i	n/a
201.5635	0.09	403127	keystroke	'	n/a
201.91	0.0585	403820	keystroke	v	n/a
201.9385	0.1205	403877	keystroke	e	n/a
202.0735	0.12	404147	keystroke	Key.enter	n/a
202.2	5.0205	404400	prompt	n/a	tight skin transexual seat\n
202.8985	0.09	405797	keystroke	t	n/a
203.0035	0.105	406007	keystroke	i	n/a
203.2135	0.135	406427	keystroke	g	n/a
203.2885	0.135	406577	keystroke	h	n/a
203.3635	0.075	406727	keystroke	t	n/a
203.4835	0.09	406967	keystroke	Key.space	n/a
203.6345	0.104	407269	keystroke	s	n/a
203.7085	0.09	407417	keystroke	k	n/a
203.889	0.09	407778	keystroke	i	n/a
203.9335	0.09	407867	keystroke	n	n/a
204.1135	0.105	408227	keystroke	Key.space	n/a
204.4585	0.09	408917	keystroke	t	n/a
204.7285	0.03	409457	keystroke	r	n/a
204.7435	0.09	409487	keystroke	a	n/a
204.8185	0.105	409637	keystroke	n	n/a
204.9545	0.119	409909	keystroke	s	n/a
205.1635	0.105	410327	keystroke	e	n/a
205.3885	0.09	410777	keystroke	x	n/a
205.4485	0.12	410897	keystroke	u	n/a
205.5835	0.105	411167	keystroke	a	n/a
205.6585	0.135	411317	keystroke	l	n/a
205.7485	0.135	411497	keystroke	Key.space	n/a
205.8685	0.105	411737	keystroke	s	n/a
206.1085	0.18	412217	keystroke	e	n/a
206.1535	0.15	412307	keystroke	a	n/a
206.2435	0.105	412487	keystroke	t	n/a
207.069	0.15	414138	keystroke	Key.enter	n/a
207.228	4.7775	414456	prompt	n/a	quizzes streaming dentists hostel\n
207.849	0.105	415698	keystroke	q	n/a
207.924	0.135	415848	keystroke	u	n/a
207.969	0.15	415938	keystroke	i	n/a
208.104	0.09	416208	keystroke	z	n/a
208.299	0.12	416598	keystroke	z	n/a
208.599	0.09	417198	keystroke	e	n/a
208.779	0.135	417558	keystroke	s	n/a
208.929	0.09	417858	keystroke	Key.space	n/a
209.004	0.135	418008	keystroke	s	n/a
209.169	0.075	418338	keystroke	t	n/a
209.334	0.12	418668	keystroke	r	n/a
209.394	0.15	418788	keystroke	e	n/a
209.439	0.135	418878	keystroke	a	n/a
209.499	0.09	418998	keystroke	m	n/a
209.574	0.135	419148	keystroke	i	n/a
209.664	0.105	419328	keystroke	n	n/a
209.724	0.105	419448	keystroke	g	n/a
209.859	0.105	419718	keystroke	Key.space	n/a
209.979	0.105	419958	keystroke	d	n/a
210.039	0.15	420078	keystroke	e	n/a
210.234	0.135	420468	keystroke	n	n/a
210.399	0.09	420798	keystroke	t	n/a
210.504	0.135	421008	keystroke	i	n/a
210.579	0.135	421158	keystroke	s	n/a
210.699	0.075	421398	keystroke	t	n/a
210.774	0.12	421548	keystroke	s	n/a
210.954	0.12	421908	keystroke	Key.space	n/a
211.194	0.045	422388	keystroke	h	n/a
211.269	0.135	422538	keystroke	o	n/a
211.329	0.135	422658	keystroke	s	n/a
211.434	0.15	422868	keystroke	t	n/a
211.569	0.105	423138	keystroke	e	n/a
211.614	0.105	423228	keystroke	l	n/a
211.854	0.15	423708	keystroke	Key.enter	n/a
212.0095	3.761	424019	prompt	n/a	calcium problem master acute\n
212.574	0.12	425148	keystroke	c	n/a
212.649	0.15	425298	keystroke	a	n/a
212.784	0.12	425568	keystroke	l	n/a
212.905	0.089	425810	keystroke	c	n/a
213.024	0.15	426048	keystroke	i	n/a
213.069	0.15	426138	keystroke	u	n/a
213.174	0.09	426348	keystroke	m	n/a
213.384	0.105	426768	keystroke	Key.space	n/a
213.579	0.06	427158	keystroke	p	n/a
213.669	0.12	427338	keystroke	r	n/a
213.744	0.105	427488	keystroke	o	n/a
213.819	0.15	427638	keystroke	b	n/a
213.939	0.135	427878	keystroke	l	n/a
214.029	0.105	428058	keystroke	e	n/a
214.149	0.105	428298	keystroke	m	n/a
214.329	0.075	428658	keystroke	Key.space	n/a
214.524	0.12	429048	keystroke	m	n/a
214.599	0.165	429198	keystroke	a	n/a
214.659	0.12	429318	keystroke	s	n/a
214.794	0.105	429588	keystroke	t	n/a
214.884	0.135	429768	keystroke	e	n/a
214.974	0.105	429948	keystroke	r	n/a
215.064	0.135	430128	keystroke	Key.space	n/a
215.169	0.15	430338	keystroke	a	n/a
215.289	0.09	430578	keystroke	c	n/a
215.364	0.09	430728	keystroke	u	n/a
215.514	0.09	431028	keystroke	t	n/a
215.589	0.12	431178	keystroke	e	n/a
215.664	0.105	431328	keystroke	Key.enter	n/a
215.775	3.446	431550	prompt	n/a	hands sand gardens metallica\n
216.339	0.09	432678	keystroke	h	n/a
216.444	0.105	432888	keystroke	a	n/a
216.504	0.09	433008	keystroke	n	n/a
216.579	0.105	433158	keystroke	d	n/a
216.669	0.105	433338	keystroke	s	n/a
216.744	0.135	433488	keystroke	Key.space	n/a
216.894	0.135	433788	keystroke	s	n/a
216.984	0.15	433968	keystroke	a	n/a
217.074	0.12	434148	keystroke	n	n/a
217.194	0.105	434388	keystroke	d	n/a
217.284	0.09	434568	keystroke	Key.space	n/a
217.404	0.075	434808	keystroke	g	n/a
217.539	0.105	435078	keystroke	a	n/a
217.614	0.09	435228	keystroke	r	n/a
217.794	0.105	435588	keystroke	d	n/a
217.854	0.105	435708	keystroke	e	n/a
217.914	0.105	435828	keystroke	n	n/a
218.049	0.12	436098	keystroke	s	n/a
218.124	0.075	436248	keystroke	Key.space	n/a
218.304	0.105	436608	keystroke	m	n/a
218.364	0.12	436728	keystroke	e	n/a
218.439	0.09	436878	keystroke	t	n/a
218.559	0.09	437118	keystroke	a	n/a
218.619	0.06	437238	keystroke	l	n/a
218.739	0.165	437478	keystroke	l	n/a
218.844	0.12	437688	keystroke	i	n/a
218.919	0.105	437838	keystroke	c	n/a
218.979	0.105	437958	keystroke	a	n/a
219.099	0.12	438198	keystroke	Key.enter	n/a
219.2255	7.705	438451	prompt	n/a	mathematical manufacturers spider appropriations\n
219.819	0.12	439638	keystroke	m	n/a
219.954	0.075	439908	keystroke	a	n/a
220.119	0.075	440238	keystroke	t	n/a
220.179	0.075	440358	keystroke	h	n/a
220.284	0.12	440568	keystroke	e	n/a
220.389	0.105	440778	keystroke	m	n/a
220.509	0.105	441018	keystroke	a	n/a
220.584	0.135	441168	keystroke	t	n/a
220.839	0.12	441678	keystroke	i	n/a
221.004	0.105	442008	keystroke	c	n/a
221.064	0.135	442128	keystroke	a	n/a
221.154	0.12	442308	keystroke	l	n/a
221.244	0.105	442488	keystroke	Key.space	n/a
221.454	0.105	442908	keystroke	m	n/a
221.499	0.12	442998	keystroke	a	n/a
221.634	0.12	443268	keystroke	n	n/a
221.724	0.105	443448	keystroke	u	n/a
221.859	0.105	443718	keystroke	f	n/a
221.949	0.165	443898	keystroke	a	n/a
222.069	0.09	444138	keystroke	c	n/a
222.279	0.09	444558	keystroke	t	n/a
222.474	0.105	444948	keystroke	u	n/a
222.699	0.12	445398	keystroke	r	n/a
222.819	0.165	445638	keystroke	e	n/a
222.954	0.135	445908	keystroke	r	n/a
223.299	0.105	446598	keystroke	s	n/a
223.584	0.135	447168	keystroke	Key.space	n/a
223.764	0.105	447528	keystroke	s	n/a
223.824	0.12	447648	keystroke	p	n/a
223.884	0.105	447768	keystroke	i	n/a
223.959	0.09	447918	keystroke	d	n/a
224.064	0.15	448128	keystroke	e	n/a
224.139	0.135	448278	keystroke	r	n/a
224.214	0.12	448428	keystroke	Key.space	n/a
224.349	0.12	448698	keystroke	a	n/a
224.424	0.06	448848	keystroke	p	n/a
224.559	0.105	449118	keystroke	p	n/a
224.694	0.105	449388	keystroke	r	n/a
224.949	0.06	449898	keystroke	o	n/a
225.294	0.09	450588	keystroke	p	n/a
225.385	0.119	450770	keystroke	r	n/a
225.519	0.105	451038	keystroke	i	n/a
225.609	0.135	451218	keystroke	a	n/a
225.729	0.12	451458	keystroke	t	n/a
226.209	0.165	452418	keystroke	i	n/a
226.284	0.15	452568	keystroke	o	n/a
226.359	0.12	452718	keystroke	n	n/a
226.509	0.105	453018	keystroke	s	n/a
226.779	0.15	453558	keystroke	Key.enter	n/a
226.935	4.5415	453870	prompt	n/a	encounter copyright favors unto\n
227.619	0.12	455238	keystroke	e	n/a
227.724	0.12	455448	keystroke	n	n/a
227.829	0.12	455658	keystroke	c	n/a
227.919	0.135	455838	keystroke	o	n/a
227.964	0.135	455928	keystroke	u	n/a
228.009	0.105	456018	keystroke	n	n/a
228.069	0.12	456138	keystroke	t	n/a
228.174	0.12	456348	keystroke	e	n/a
228.249	0.09	456498	keystroke	r	n/a
228.309	0.09	456618	keystroke	Key.space	n/a
228.474	0.09	456948	keystroke	c	n/a
228.549	0.135	457098	keystroke	o	n/a
228.565	0.134	457130	keystroke	p	n/a
228.789	0.105	457578	keystroke	y	n/a
229.014	0.09	458028	keystroke	r	n/a
229.089	0.09	458178	keystroke	i	n/a
229.269	0.09	458538	keystroke	g	n/a
229.314	0.12	458628	keystroke	h	n/a
229.389	0.09	458778	keystroke	t	n/a
229.464	0.12	458928	keystroke	Key.space	n/a
229.599	0.105	459198	keystroke	f	n/a
229.689	0.105	459378	keystroke	a	n/a
229.839	0.135	459678	keystroke	v	n/a
229.929	0.075	459858	keystroke	o	n/a
230.109	0.09	460218	keystroke	r	n/a
230.559	0.09	461118	keystroke	s	n/a
230.679	0.12	461358	keystroke	Key.space	n/a
230.784	0.135	461568	keystroke	u	n/a
230.889	0.105	461778	keystroke	n	n/a
230.979	0.09	461958	keystroke	t	n/a
231.084	0.075	462168	keystroke	o	n/a
231.354	0.12	462708	keystroke	Key.enter	n/a
231.481	4.84	462962	prompt	n/a	army wednesday informal paragraph\n
232.044	0.105	464088	keystroke	a	n/a
232.179	0.09	464358	keystroke	r	n/a
232.374	0.15	464748	keystroke	m	n/a
232.494	0.12	464988	keystroke	y	n/a
232.629	0.135	465258	keystroke	Key.space	n/a
232.734	0.075	465468	keystroke	w	n/a
232.914	0.15	465828	keystroke	e	n/a
233.034	0.12	466068	keystroke	d	n/a
233.124	0.09	466248	keystroke	n	n/a
233.229	0.06	466458	keystroke	e	n/a
233.409	0.135	466818	keystroke	s	n/a
233.559	0.105	467118	keystroke	d	n/a
233.649	0.09	467298	keystroke	a	n/a
233.679	0.12	467358	keystroke	y	n/a
233.784	0.105	467568	keystroke	Key.space	n/a
233.979	0.12	467958	keystroke	i	n/a
234.039	0.135	468078	keystroke	n	n/a
234.189	0.105	468378	keystroke	f	n/a
234.265	0.119	468530	keystroke	o	n/a
234.399	0.09	468798	keystroke	r	n/a
234.459	0.121	468918	keystroke	m	n/a
234.594	0.12	469188	keystroke	a	n/a
234.669	0.12	469338	keystroke	l	n/a
234.804	0.105	469608	keystroke	Key.space	n/a
235.074	0.106	470148	keystroke	p	n/a
235.149	0.105	470298	keystroke	a	n/a
235.239	0.12	470478	keystroke	r	n/a
235.329	0.12	470658	keystroke	a	n/a
235.479	0.105	470958	keystroke	g	n/a
235.689	0.075	471378	keystroke	r	n/a
235.749	0.12	471498	keystroke	a	n/a
235.809	0.075	471618	keystroke	p	n/a
235.974	0.075	471948	keystroke	h	n/a
236.199	0.12	472398	keystroke	Key.enter	n/a
236.3265	8.9345	472653	prompt	n/a	awareness automobile pediatric punishment\n
236.889	0.09	473778	keystroke	a	n/a
237.219	0.12	474438	keystroke	w	n/a
237.384	0.09	474768	keystroke	a	n/a
237.414	0.165	474828	keystroke	r	n/a
237.519	0.12	475038	keystroke	e	n/a
237.654	0.105	475308	keystroke	n	n/a
237.744	0.09	475488	keystroke	e	n/a
237.924	0.06	475848	keystroke	s	n/a
238.059	0.105	476118	keystroke	s	n/a
238.134	0.135	476268	keystroke	Key.space	n/a
238.239	0.12	476478	keystroke	a	n/a
238.344	0.105	476688	keystroke	u	n/a
238.434	0.105	476868	keystroke	t	n/a
238.63	0.179	477260	keystroke	o	n/a
238.824	0.105	477648	keystroke	m	n/a
238.959	0.075	477918	keystroke	o	n/a
239.079	0.15	478158	keystroke	b	n/a
239.199	0.135	478398	keystroke	i	n/a
239.289	0.15	478578	keystroke	l	n/a
239.409	0.105	478818	keystroke	e	n/a
239.529	0.12	479058	keystroke	Key.space	n/a
239.664	0.09	479328	keystroke	p	n/a
239.814	0.12	479628	keystroke	e	n/a
240.354	0.105	480708	keystroke	d	n/a
240.5635	0.09	481127	keystroke	i	n/a
240.714	0.1345	481428	keystroke	a	n/a
240.9685	0.075	481937	keystroke	t	n/a
241.134	0.105	482268	keystroke	r	n/a
241.224	0.1045	482448	keystroke	i	n/a
241.3735	0.105	482747	keystroke	c	n/a
241.4485	0.135	482897	keystroke	Key.space	n/a
241.7335	0.135	483467	keystroke	p	n/a
241.8085	0.135	483617	keystroke	u	n/a
241.8985	0.105	483797	keystroke	n	n/a
242.0485	0.105	484097	keystroke	h	n/a
242.1385	0.105	484277	keystroke	s	n/a
242.2585	0.09	484517	keystroke	m	n/a
242.3935	0.1055	484787	keystroke	e	n/a
242.469	0.1345	484938	keystroke	n	n/a
242.5885	0.06	485177	keystroke	t	n/a
243.0385	0.075	486077	keystroke	Key.backspace	n/a
243.2035	0.06	486407	keystroke	Key.backspace	n/a
243.3535	0.075	486707	keystroke	Key.backspace	n/a
243.4885	0.09	486977	keystroke	Key.backspace	n/a
243.6385	0.075	487277	keystroke	Key.backspace	n/a
243.8935	0.015	487787	keystroke	Key.backspace	n/a
244.2985	0.105	488597	keystroke	i	n/a
244.419	0.1045	488838	keystroke	s	n/a
244.5385	0.06	489077	keystroke	h	n/a
244.719	0.1045	489438	keystroke	m	n/a
244.8385	0.09	489677	keystroke	e	n/a
244.9135	0.075	489827	keystroke	n	n/a
245.0185	0.09	490037	keystroke	t	n/a
245.1535	0.105	490307	keystroke	Key.enter	n/a
245.2655	4.181	490531	prompt	n/a	mental idle cartoons diversity\n
245.8885	0.1205	491777	keystroke	m	n/a
246.024	0.12	492048	keystroke	e	n/a
246.129	0.09	492258	keystroke	n	n/a
246.234	0.09	492468	keystroke	t	n/a
246.354	0.135	492708	keystroke	a	n/a
246.384	0.15	492768	keystroke	l	n/a
246.519	0.165	493038	keystroke	Key.space	n/a
246.744	0.12	493488	keystroke	i	n/a
246.879	0.12	493758	keystroke	d	n/a
246.984	0.12	493968	keystroke	l	n/a
247.074	0.09	494148	keystroke	e	n/a
247.194	0.09	494388	keystroke	Key.space	n/a
247.299	0.09	494598	keystroke	c	n/a
247.4045	0.1495	494809	keystroke	a	n/a
247.524	0.075	495048	keystroke	r	n/a
247.689	0.09	495378	keystroke	t	n/a
247.719	0.075	495438	keystroke	o	n/a
247.869	0.105	495738	keystroke	o	n/a
247.929	0.105	495858	keystroke	n	n/a
248.004	0.135	496008	keystroke	s	n/a
248.124	0.105	496248	keystroke	Key.space	n/a
248.244	0.09	496488	keystroke	d	n/a
248.364	0.09	496728	keystroke	i	n/a
248.469	0.045	496938	keystroke	v	n/a
248.589	0.12	497178	keystroke	e	n/a
248.679	0.075	497358	keystroke	r	n/a
248.814	0.1205	497628	keystroke	s	n/a
248.904	0.09	497808	keystroke	i	n/a
249.024	0.09	498048	keystroke	t	n/a
249.069	0.045	498138	keystroke	y	n/a
249.354	0.09	498708	keystroke	Key.enter	n/a
249.4505	4.2855	498901	prompt	n/a	logo newly johnston dosage\n
250.164	0.105	500328	keystroke	l	n/a
250.389	0.135	500778	keystroke	o	n/a
250.584	0.075	501168	keystroke	g	n/a
250.674	0.09	501348	keystroke	o	n/a
251.034	0.105	502068	keystroke	Key.space	n/a
251.274	0.105	502548	keystroke	n	n/a
251.349	0.105	502698	keystroke	e	n/a
251.424	0.105	502848	keystroke	w	n/a
251.544	0.15	503088	keystroke	l	n/a
251.619	0.12	503238	keystroke	y	n/a
251.694	0.12	503388	keystroke	Key.space	n/a
251.904	0.135	503808	keystroke	j	n/a
252.024	0.09	504048	keystroke	o	n/a
252.129	0.15	504258	keystroke	h	n/a
252.234	0.105	504468	keystroke	n	n/a
252.384	0.135	504768	keystroke	s	n/a
252.489	0.105	504978	keystroke	t	n/a
252.564	0.12	505128	keystroke	o	n/a
252.609	0.105	505218	keystroke	n	n/a
252.819	0.074	505638	keystroke	Key.space	n/a
252.939	0.105	505878	keystroke	d	n/a
252.969	0.09	505938	keystroke	o	n/a
253.119	0.1205	506238	keystroke	s	n/a
253.2695	0.075	506539	keystroke	a	n/a
253.4645	0.06	506929	keystroke	g	n/a
253.5095	0.09	507019	keystroke	e	n/a
253.6145	0.12	507229	keystroke	Key.enter	n/a
253.741	4.0905	507482	prompt	n/a	readily exemption excluded trust\n
254.3645	0.105	508729	keystroke	r	n/a
254.4245	0.195	508849	keystroke	e	n/a
254.4995	0.135	508999	keystroke	a	n/a
254.6205	0.074	509241	keystroke	d	n/a
254.6495	0.225	509299	keystroke	i	n/a
254.7245	0.135	509449	keystroke	l	n/a
254.8445	0.105	509689	keystroke	y	n/a
254.8895	0.135	509779	keystroke	Key.space	n/a
255.0095	0.09	510019	keystroke	e	n/a
255.2195	0.105	510439	keystroke	x	n/a
255.4295	0.105	510859	keystroke	e	n/a
255.5195	0.12	511039	keystroke	m	n/a
255.5645	0.12	511129	keystroke	p	n/a
255.6695	0.09	511339	keystroke	t	n/a
255.7445	0.15	511489	keystroke	i	n/a
255.8195	0.105	511639	keystroke	o	n/a
255.8795	0.075	511759	keystroke	n	n/a
256.0445	0.12	512089	keystroke	Key.space	n/a
256.1345	0.09	512269	keystroke	e	n/a
256.3295	0.12	512659	keystroke	x	n/a
256.5245	0.105	513049	keystroke	c	n/a
256.6145	0.105	513229	keystroke	l	n/a
256.6745	0.12	513349	keystroke	u	n/a
256.7645	0.105	513529	keystroke	d	n/a
256.8845	0.135	513769	keystroke	e	n/a
256.9595	0.12	513919	keystroke	d	n/a
257.0645	0.12	514129	keystroke	Key.space	n/a
257.2145	0.09	514429	keystroke	t	n/a
257.3945	0.09	514789	keystroke	r	n/a
257.4395	0.075	514879	keystroke	u	n/a
257.5445	0.135	515089	keystroke	s	n/a
257.6645	0.06	515329	keystroke	t	n/a
257.7395	0.09	515479	keystroke	Key.enter	n/a
257.8365	4.2245	515673	prompt	n/a	samples cottage performing demo\n
258.4445	0.135	516889	keystroke	s	n/a
258.5495	0.105	517099	keystroke	a	n/a
258.6245	0.12	517249	keystroke	m	n/a
258.7145	0.195	517429	keystroke	p	n/a
258.8195	0.12	517639	keystroke	l	n/a
258.8795	0.09	517759	keystroke	e	n/a
259.0595	0.105	518119	keystroke	s	n/a
259.1345	0.09	518269	keystroke	Key.space	n/a
259.2395	0.105	518479	keystroke	c	n/a
259.3595	0.105	518719	keystroke	o	n/a
259.4495	0.06	518899	keystroke	t	n/a
259.5845	0.075	519169	keystroke	t	n/a
259.6895	0.105	519379	keystroke	a	n/a
259.8395	0.105	519679	keystroke	g	n/a
259.9145	0.135	519829	keystroke	e	n/a
259.9595	0.105	519919	keystroke	Key.space	n/a
260.1395	0.12	520279	keystroke	p	n/a
260.2445	0.12	520489	keystroke	e	n/a
260.3345	0.105	520669	keystroke	r	n/a
260.5295	0.09	521059	keystroke	f	n/a
260.6055	0.074	521211	keystroke	o	n/a
260.7095	0.075	521419	keystroke	r	n/a
260.8145	0.12	521629	keystroke	m	n/a
260.9195	0.12	521839	keystroke	i	n/a
261.0095	0.105	522019	keystroke	n	n/a
261.0695	0.105	522139	keystroke	g	n/a
261.1895	0.09	522379	keystroke	Key.space	n/a
261.2945	0.09	522589	keystroke	d	n/a
261.3395	0.105	522679	keystroke	e	n/a
261.4295	0.075	522859	keystroke	m	n/a
261.4595	0.105	522919	keystroke	o	n/a
261.9545	0.105	523909	keystroke	Key.enter	n/a
262.0675	3.2485	524135	prompt	n/a	seeing boss indeed julia\n
262.5845	0.09	525169	keystroke	s	n/a
262.7795	0.06	525559	keystroke	e	n/a
262.8995	0.12	525799	keystroke	e	n/a
262.9895	0.105	525979	keystroke	i	n/a
263.0345	0.105	526069	keystroke	n	n/a
263.1095	0.09	526219	keystroke	g	n/a
263.1995	0.105	526399	keystroke	Key.space	n/a
263.2595	0.09	526519	keystroke	b	n/a
263.4095	0.12	526819	keystroke	o	n/a
263.4695	0.075	526939	keystroke	s	n/a
263.6195	0.12	527239	keystroke	s	n/a
263.8295	0.135	527659	keystroke	Key.space	n/a
263.9495	0.12	527899	keystroke	i	n/a
264.0395	0.105	528079	keystroke	n	n/a
264.1295	0.105	528259	keystroke	d	n/a
264.2195	0.09	528439	keystroke	e	n/a
264.4145	0.09	528829	keystroke	e	n/a
264.4595	0.105	528919	keystroke	d	n/a
264.5345	0.09	529069	keystroke	Key.space	n/a
264.6095	0.09	529219	keystroke	j	n/a
264.8045	0.105	529609	keystroke	u	n/a
264.9245	0.15	529849	keystroke	l	n/a
264.9845	0.12	529969	keystroke	i	n/a
265.0895	0.09	530179	keystroke	a	n/a
265.2245	0.09	530449	keystroke	Key.enter	n/a
265.321	4.435	530642	prompt	n/a	telecharger shipped controller vanilla\n
265.9445	0.09	531889	keystroke	t	n/a
266.0945	0.105	532189	keystroke	e	n/a
266.1845	0.105	532369	keystroke	l	n/a
266.2745	0.09	532549	keystroke	e	n/a
266.4545	0.105	532909	keystroke	c	n/a
266.5745	0.09	533149	keystroke	h	n/a
266.6345	0.135	533269	keystroke	a	n/a
266.7245	0.105	533449	keystroke	r	n/a
266.7995	0.105	533599	keystroke	g	n/a
266.8895	0.12	533779	keystroke	e	n/a
266.9495	0.12	533899	keystroke	r	n/a
267.0245	0.12	534049	keystroke	Key.space	n/a
267.1895	0.105	534379	keystroke	s	n/a
267.2495	0.06	534499	keystroke	h	n/a
267.4445	0.075	534889	keystroke	i	n/a
267.4745	0.09	534949	keystroke	p	n/a
267.6395	0.12	535279	keystroke	p	n/a
267.7295	0.12	535459	keystroke	e	n/a
267.7445	0.12	535489	keystroke	d	n/a
267.8795	0.12	535759	keystroke	Key.space	n/a
268.0145	0.105	536029	keystroke	c	n/a
268.0745	0.15	536149	keystroke	o	n/a
268.1495	0.12	536299	keystroke	n	n/a
268.2545	0.09	536509	keystroke	t	n/a
268.4045	0.105	536809	keystroke	r	n/a
268.4345	0.12	536869	keystroke	o	n/a
268.5245	0.075	537049	keystroke	l	n/a
268.6595	0.105	537319	keystroke	l	n/a
268.7195	0.12	537439	keystroke	e	n/a
268.7795	0.105	537559	keystroke	r	n/a
268.8845	0.12	537769	keystroke	Key.space	n/a
269.0195	0.105	538039	keystroke	v	n/a
269.1395	0.12	538279	keystroke	a	n/a
269.1995	0.105	538399	keystroke	n	n/a
269.2445	0.12	538489	keystroke	i	n/a
269.3195	0.075	538639	keystroke	l	n/a
269.4545	0.09	538909	keystroke	l	n/a
269.5595	0.075	539119	keystroke	a	n/a
269.6645	0.09	539329	keystroke	Key.enter	n/a
269.7605	5.216	539521	prompt	n/a	bits sensors yearly organized\n
270.3105	0.044	540621	keystroke	b	n/a
270.4745	0.105	540949	keystroke	i	n/a
270.519	0.075	541038	keystroke	t	n/a
270.6995	0.12	541399	keystroke	s	n/a
270.8345	0.09	541669	keystroke	Key.space	n/a
270.9395	0.09	541879	keystroke	s	n/a
271.1045	0.105	542209	keystroke	e	n/a
271.1795	0.105	542359	keystroke	n	n/a
271.2995	0.12	542599	keystroke	s	n/a
271.4045	0.12	542809	keystroke	o	n/a
271.4945	0.09	542989	keystroke	r	n/a
271.5995	0.105	543199	keystroke	s	n/a
271.734	0.06	543468	keystroke	Key.space	n/a
271.8845	0.09	543769	keystroke	y	n/a
271.959	0.15	543918	keystroke	e	n/a
271.989	0.1355	543978	keystroke	a	n/a
272.049	0.1055	544098	keystroke	r	n/a
272.0795	0.15	544159	keystroke	l	n/a
272.1695	0.105	544339	keystroke	y	n/a
272.2445	0.105	544489	keystroke	Key.space	n/a
272.3645	0.12	544729	keystroke	o	n/a
272.4395	0.075	544879	keystroke	r	n/a
272.6195	0.06	545239	keystroke	g	n/a
272.68	0.104	545360	keystroke	a	n/a
272.754	0.135	545508	keystroke	i	n/a
272.769	0.075	545538	keystroke	n	n/a
272.874	0.105	545748	keystroke	z	n/a
273.114	0.105	546228	keystroke	e	n/a
273.459	0.06	546918	keystroke	Key.backspace	n/a
273.594	0.06	547188	keystroke	Key.backspace	n/a
273.729	0.045	547458	keystroke	Key.backspace	n/a
273.909	0.075	547818	keystroke	Key.backspace	n/a
274.1495	0.12	548299	keystroke	n	n/a
274.209	0.15	548418	keystroke	i	n/a
274.3145	0.1195	548629	keystroke	z	n/a
274.674	0.12	549348	keystroke	e	n/a
274.764	0.1055	549528	keystroke	d	n/a
274.854	0.12	549708	keystroke	Key.enter	n/a
274.9855	4.6705	549971	prompt	n/a	leslie aspect secrets respiratory\n
275.589	0.15	551178	keystroke	l	n/a
275.934	0.09	551868	keystroke	e	n/a
276.1295	0.1195	552259	keystroke	s	n/a
276.219	0.135	552438	keystroke	l	n/a
276.279	0.135	552558	keystroke	i	n/a
276.384	0.12	552768	keystroke	e	n/a
276.489	0.12	552978	keystroke	Key.space	n/a
276.579	0.15	553158	keystroke	a	n/a
276.6995	0.0895	553399	keystroke	s	n/a
276.774	0.105	553548	keystroke	p	n/a
276.894	0.12	553788	keystroke	e	n/a
276.984	0.09	553968	keystroke	c	n/a
277.1795	0.0895	554359	keystroke	t	n/a
277.284	0.105	554568	keystroke	Key.space	n/a
277.3745	0.1195	554749	keystroke	s	n/a
277.599	0.12	555198	keystroke	e	n/a
277.749	0.03	555498	keystroke	c	n/a
277.944	0.135	555888	keystroke	r	n/a
278.034	0.165	556068	keystroke	e	n/a
278.1545	0.0895	556309	keystroke	t	n/a
278.304	0.121	556608	keystroke	s	n/a
278.394	0.12	556788	keystroke	Key.space	n/a
278.529	0.075	557058	keystroke	r	n/a
278.574	0.0605	557148	keystroke	e	n/a
278.7245	0.1195	557449	keystroke	s	n/a
278.769	0.135	557538	keystroke	p	n/a
278.829	0.12	557658	keystroke	i	n/a
278.9195	0.0745	557839	keystroke	r	n/a
279.0095	0.0895	558019	keystroke	a	n/a
279.084	0.075	558168	keystroke	t	n/a
279.1745	0.1045	558349	keystroke	o	n/a
279.249	0.1205	558498	keystroke	r	n/a
279.354	0.075	558708	keystroke	y	n/a
279.564	0.09	559128	keystroke	Key.enter	n/a
279.661	6.325	559322	prompt	n/a	wiring align agree widespread\n
282.463	0.026	564926	keystroke	w	n/a
282.819	0.105	565638	keystroke	i	n/a
282.954	0.06	565908	keystroke	r	n/a
283.015	0.119	566030	keystroke	i	n/a
283.074	0.12	566148	keystroke	n	n/a
283.149	0.06	566298	keystroke	g	n/a
283.269	0.12	566538	keystroke	Key.space	n/a
283.39	0.089	566780	keystroke	a	n/a
283.464	0.165	566928	keystroke	l	n/a
283.614	0.12	567228	keystroke	i	n/a
283.794	0.09	567588	keystroke	g	n/a
283.869	0.075	567738	keystroke	n	n/a
284.019	0.105	568038	keystroke	Key.space	n/a
284.064	0.105	568128	keystroke	a	n/a
284.184	0.105	568368	keystroke	g	n/a
284.394	0.075	568788	keystroke	r	n/a
284.454	0.12	568908	keystroke	e	n/a
284.634	0.06	569268	keystroke	e	n/a
284.829	0.105	569658	keystroke	Key.space	n/a
284.904	0.105	569808	keystroke	w	n/a
285.054	0.105	570108	keystroke	i	n/a
285.174	0.135	570348	keystroke	d	n/a
285.264	0.09	570528	keystroke	e	n/a
285.444	0.105	570888	keystroke	s	n/a
285.534	0.105	571068	keystroke	p	n/a
285.609	0.09	571218	keystroke	r	n/a
285.654	0.18	571308	keystroke	e	n/a
285.714	0.135	571428	keystroke	a	n/a
285.835	0.059	571670	keystroke	d	n/a
285.864	0.12	571728	keystroke	Key.enter	n/a
285.993	4.073	571986	prompt	n/a	cooling fairy certification tile\n
286.689	0.03	573378	keystroke	c	n/a
286.704	0.06	573408	keystroke	o	n/a
286.839	0.075	573678	keystroke	o	n/a
287.019	0.12	574038	keystroke	l	n/a
287.094	0.135	574188	keystroke	i	n/a
287.154	0.09	574308	keystroke	n	n/a
287.214	0.09	574428	keystroke	g	n/a
287.319	0.135	574638	keystroke	Key.space	n/a
287.424	0.135	574848	keystroke	f	n/a
287.544	0.075	575088	keystroke	a	n/a
287.634	0.09	575268	keystroke	i	n/a
287.769	0.105	575538	keystroke	r	n/a
287.889	0.105	575778	keystroke	y	n/a
288.024	0.105	576048	keystroke	Key.space	n/a
288.144	0.075	576288	keystroke	c	n/a
288.37	0.104	576740	keystroke	e	n/a
288.444	0.09	576888	keystroke	r	n/a
288.609	0.105	577218	keystroke	t	n/a
288.729	0.075	577458	keystroke	i	n/a
288.834	0.09	577668	keystroke	f	n/a
288.909	0.105	577818	keystroke	i	n/a
289.029	0.105	578058	keystroke	c	n/a
289.104	0.135	578208	keystroke	a	n/a
289.269	0.09	578538	keystroke	t	n/a
289.299	0.135	578598	keystroke	i	n/a
289.344	0.105	578688	keystroke	o	n/a
289.389	0.105	578778	keystroke	n	n/a
289.584	0.075	579168	keystroke	Key.space	n/a
289.644	0.09	579288	keystroke	t	n/a
289.719	0.09	579438	keystroke	i	n/a
289.764	0.075	579528	keystroke	l	n/a
289.855	0.089	579710	keystroke	e	n/a
289.989	0.075	579978	keystroke	Key.enter	n/a
290.0705	6.9405	580141	prompt	n/a	constitution museums motion recommends\n
290.724	0.105	581448	keystroke	c	n/a
290.784	0.105	581568	keystroke	o	n/a
290.844	0.136	581688	keystroke	n	n/a
290.949	0.09	581898	keystroke	t	n/a
291.099	0.135	582198	keystroke	s	n/a
291.534	0.075	583068	keystroke	Key.backspace	n/a
291.699	0.06	583398	keystroke	Key.backspace	n/a
291.775	0.104	583550	keystroke	n	n/a
292.254	0.075	584508	keystroke	Key.backspace	n/a
292.375	0.164	584750	keystroke	s	n/a
292.495	0.119	584990	keystroke	t	n/a
292.689	0.105	585378	keystroke	i	n/a
292.809	0.12	585618	keystroke	t	n/a
292.9445	0.0595	585889	keystroke	u	n/a
293.139	0.105	586278	keystroke	t	n/a
293.184	0.15	586368	keystroke	i	n/a
293.259	0.091	586518	keystroke	o	n/a
293.274	0.09	586548	keystroke	n	n/a
293.35	0.104	586700	keystroke	s	n/a
293.455	0.059	586910	keystroke	Key.space	n/a
293.634	0.1205	587268	keystroke	m	n/a
293.709	0.105	587418	keystroke	u	n/a
293.844	0.06	587688	keystroke	e	n/a
294.249	0.06	588498	keystroke	Key.backspace	n/a
294.369	0.105	588738	keystroke	s	n/a
294.579	0.09	589158	keystroke	e	n/a
294.654	0.12	589308	keystroke	u	n/a
294.714	0.12	589428	keystroke	m	n/a
294.909	0.105	589818	keystroke	s	n/a
295.074	0.105	590148	keystroke	Key.space	n/a
295.314	0.12	590628	keystroke	m	n/a
295.389	0.12	590778	keystroke	o	n/a
295.494	0.105	590988	keystroke	t	n/a
295.614	0.165	591228	keystroke	i	n/a
295.674	0.12	591348	keystroke	o	n/a
295.749	0.075	591498	keystroke	n	n/a
295.899	0.105	591798	keystroke	Key.space	n/a
295.974	0.105	591948	keystroke	r	n/a
296.064	0.136	592128	keystroke	e	n/a
296.214	0.09	592428	keystroke	c	n/a
296.274	0.09	592548	keystroke	o	n/a
296.319	0.06	592638	keystroke	m	n/a
296.469	0.075	592938	keystroke	m	n/a
296.574	0.105	593148	keystroke	e	n/a
296.649	0.09	593298	keystroke	n	n/a
296.754	0.105	593508	keystroke	d	n/a
296.814	0.106	593628	keystroke	s	n/a
296.889	0.12	593778	keystroke	Key.enter	n/a
297.016	8.9345	594032	prompt	n/a	humidity adverse lighting sheffield\n
297.625	0.119	595250	keystroke	h	n/a
297.939	0.135	595878	keystroke	u	n/a
298.149	0.135	596298	keystroke	m	n/a
298.344	0.135	596688	keystroke	i	n/a
298.779	0.105	597558	keystroke	d	n/a
298.914	0.136	597828	keystroke	i	n/a
299.034	0.105	598068	keystroke	t	n/a
299.155	0.104	598310	keystroke	y	n/a
299.229	0.135	598458	keystroke	Key.space	n/a
299.349	0.12	598698	keystroke	a	n/a
299.424	0.12	598848	keystroke	d	n/a
299.559	0.075	599118	keystroke	v	n/a
299.649	0.135	599298	keystroke	e	n/a
299.724	0.106	599448	keystroke	r	n/a
299.874	0.105	599748	keystroke	s	n/a
300.054	0.12	600108	keystroke	e	n/a
300.114	0.12	600228	keystroke	Key.space	n/a
300.204	0.195	600408	keystroke	l	n/a
300.339	0.106	600678	keystroke	i	n/a
300.534	0.105	601068	keystroke	g	n/a
300.594	0.105	601188	keystroke	h	n/a
300.684	0.105	601368	keystroke	t	n/a
300.819	0.09	601638	keystroke	i	n/a
300.864	0.105	601728	keystroke	n	n/a
300.94	0.074	601880	keystroke	g	n/a
301.044	0.135	602088	keystroke	Key.space	n/a
301.149	0.135	602298	keystroke	s	n/a
301.239	0.105	602478	keystroke	h	n/a
301.389	0.15	602778	keystroke	e	n/a
301.524	0.075	603048	keystroke	f	n/a
301.675	0.089	603350	keystroke	f	n/a
301.839	0.09	603678	keystroke	i	n/a
302.409	0.135	604818	keystroke	e	n/a
302.529	0.03	605058	keystroke	d	n/a
302.545	0.075	605090	keystroke	l	n/a
303.099	0.06	606198	keystroke	Key.backspace	n/a
303.249	0.0745	606498	keystroke	Key.backspace	n/a
303.4735	0.045	606947	keystroke	k	n/a
303.4885	0.06	606977	keystroke	l	n/a
303.5195	0.09	607039	keystroke	d	n/a
304.0435	0.075	608087	keystroke	Key.backspace	n/a
304.2085	0.09	608417	keystroke	Key.backspace	n/a
304.4795	0.059	608959	keystroke	l	n/a
304.9135	0.045	609827	keystroke	Key.backspace	n/a
305.0185	0.09	610037	keystroke	Key.backspace	n/a
305.3645	0.104	610729	keystroke	l	n/a
305.4985	0.09	610997	keystroke	d	n/a
305.8735	0.075	611747	keystroke	Key.enter	n/a
305.9545	4.766	611909	prompt	n/a	cultural representing files committed\n
306.6245	0.119	613249	keystroke	c	n/a
306.7285	0.165	613457	keystroke	u	n/a
306.8485	0.12	613697	keystroke	l	n/a
306.9385	0.105	613877	keystroke	t	n/a
307.0585	0.106	614117	keystroke	u	n/a
307.1485	0.12	614297	keystroke	r	n/a
307.2385	0.15	614477	keystroke	a	n/a
307.2835	0.135	614567	keystroke	l	n/a
307.3745	0.149	614749	keystroke	Key.space	n/a
307.4935	0.09	614987	keystroke	r	n/a
307.5535	0.15	615107	keystroke	e	n/a
307.6885	0.121	615377	keystroke	p	n/a
307.8835	0.12	615767	keystroke	r	n/a
307.9735	0.12	615947	keystroke	e	n/a
308.1685	0.12	616337	keystroke	s	n/a
308.3635	0.09	616727	keystroke	e	n/a
308.4685	0.12	616937	keystroke	n	n/a
308.5735	0.12	617147	keystroke	t	n/a
308.6635	0.12	617327	keystroke	i	n/a
308.6945	0.119	617389	keystroke	n	n/a
308.8285	0.12	617657	keystroke	g	n/a
308.9335	0.12	617867	keystroke	Key.space	n/a
309.0685	0.105	618137	keystroke	f	n/a
309.1445	0.135	618289	keystroke	i	n/a
309.2045	0.149	618409	keystroke	l	n/a
309.2635	0.106	618527	keystroke	e	n/a
309.4435	0.106	618887	keystroke	s	n/a
309.5185	0.12	619037	keystroke	Key.space	n/a
309.6535	0.12	619307	keystroke	c	n/a
309.7435	0.12	619487	keystroke	o	n/a
309.8495	0.104	619699	keystroke	m	n/a
310.0445	0.104	620089	keystroke	m	n/a
310.1195	0.119	620239	keystroke	i	n/a
310.1785	0.091	620357	keystroke	t	n/a
310.3285	0.105	620657	keystroke	t	n/a
310.4185	0.15	620837	keystroke	e	n/a
310.5245	0.105	621049	keystroke	d	n/a
310.5985	0.12	621197	keystroke	Key.enter	n/a
310.725	3.5505	621450	prompt	n/a	treating largely ambien debt\n
311.2885	0.091	622577	keystroke	t	n/a
311.4835	0.12	622967	keystroke	r	n/a
311.5435	0.181	623087	keystroke	e	n/a
311.6195	0.105	623239	keystroke	a	n/a
311.7085	0.106	623417	keystroke	t	n/a
311.7835	0.12	623567	keystroke	i	n/a
311.8585	0.075	623717	keystroke	n	n/a
311.9495	0.105	623899	keystroke	g	n/a
312.0385	0.105	624077	keystroke	Key.space	n/a
312.1145	0.15	624229	keystroke	l	n/a
312.1585	0.136	624317	keystroke	a	n/a
312.2335	0.106	624467	keystroke	r	n/a
312.4295	0.09	624859	keystroke	g	n/a
312.4885	0.121	624977	keystroke	e	n/a
312.5785	0.151	625157	keystroke	l	n/a
312.6545	0.09	625309	keystroke	y	n/a
312.7135	0.12	625427	keystroke	Key.space	n/a
312.9245	0.12	625849	keystroke	a	n/a
313.0135	0.075	626027	keystroke	m	n/a
313.1785	0.046	626357	keystroke	b	n/a
313.3585	0.091	626717	keystroke	i	n/a
313.4335	0.12	626867	keystroke	e	n/a
313.5085	0.09	627017	keystroke	n	n/a
313.6885	0.12	627377	keystroke	Key.space	n/a
313.8235	0.135	627647	keystroke	d	n/a
313.8835	0.12	627767	keystroke	e	n/a
313.9445	0.075	627889	keystroke	b	n/a
314.0945	0.089	628189	keystroke	t	n/a
314.1985	0.075	628397	keystroke	Key.enter	n/a
314.28	4.496	628560	prompt	n/a	wife bare fioricet region\n
314.8445	0.104	629689	keystroke	w	n/a
314.9335	0.135	629867	keystroke	i	n/a
315.0395	0.105	630079	keystroke	f	n/a
315.1145	0.164	630229	keystroke	e	n/a
315.3535	0.15	630707	keystroke	Key.space	n/a
315.5795	0.12	631159	keystroke	b	n/a
315.6395	0.149	631279	keystroke	a	n/a
315.7285	0.105	631457	keystroke	r	n/a
315.7745	0.134	631549	keystroke	e	n/a
315.8635	0.12	631727	keystroke	Key.space	n/a
316.0585	0.12	632117	keystroke	f	n/a
316.1945	0.164	632389	keystroke	i	n/a
316.2835	0.15	632567	keystroke	o	n/a
316.4495	0.12	632899	keystroke	r	n/a
316.7045	0.104	633409	keystroke	i	n/a
316.8245	0.12	633649	keystroke	c	n/a
316.9735	0.151	633947	keystroke	e	n/a
317.1085	0.121	634217	keystroke	t	n/a
317.2435	0.15	634487	keystroke	Key.space	n/a
317.4545	0.059	634909	keystroke	e	n/a
317.8285	0.09	635657	keystroke	Key.backspace	n/a
318.0695	0.105	636139	keystroke	r	n/a
318.1585	0.091	636317	keystroke	e	n/a
318.3245	0.089	636649	keystroke	g	n/a
318.3995	0.104	636799	keystroke	i	n/a
318.4445	0.135	636889	keystroke	o	n/a
318.5635	0.09	637127	keystroke	n	n/a
318.6985	0.076	637397	keystroke	Key.enter	n/a
318.7815	9.7895	637563	prompt	n/a	'twas shopper mill unwrap\n
320.0495	0.09	640099	keystroke	'	n/a
320.3195	0.075	640639	keystroke	t	n/a
320.5595	0.119	641119	keystroke	w	n/a
320.6495	0.15	641299	keystroke	a	n/a
320.7835	0.105	641567	keystroke	s	n/a
320.9185	0.12	641837	keystroke	Key.space	n/a
321.0545	0.105	642109	keystroke	s	n/a
321.1445	0.06	642289	keystroke	g	n/a
321.4595	0.135	642919	keystroke	i	n/a
321.5195	0.089	643039	keystroke	o	n/a
321.6845	0.12	643369	keystroke	o	n/a
321.7595	0.149	643519	keystroke	e	n/a
321.8195	0.105	643639	keystroke	r	n/a
321.8945	0.075	643789	keystroke	Key.space	n/a
322.1335	0.076	644267	keystroke	m	n/a
322.1635	0.09	644327	keystroke	u	n/a
322.2245	0.075	644449	keystroke	l	n/a
322.2695	0.03	644539	keystroke	k	n/a
322.9135	0.105	645827	keystroke	Key.backspace	n/a
323.1235	0.075	646247	keystroke	Key.backspace	n/a
323.6485	0.06	647297	keystroke	Key.backspace	n/a
323.8135	0.06	647627	keystroke	Key.backspace	n/a
323.9635	0.061	647927	keystroke	Key.backspace	n/a
324.0985	0.076	648197	keystroke	Key.backspace	n/a
324.2785	0.075	648557	keystroke	Key.backspace	n/a
324.4285	0.105	648857	keystroke	Key.backspace	n/a
324.6085	0.105	649217	keystroke	Key.backspace	n/a
324.9535	0.105	649907	keystroke	Key.backspace	n/a
325.3445	0.105	650689	keystroke	Key.backspace	n/a
326.0345	0.045	652069	keystroke	h	n/a
326.3345	0.105	652669	keystroke	o	n/a
326.3645	0.105	652729	keystroke	p	n/a
326.5285	0.105	653057	keystroke	p	n/a
326.5745	0.164	653149	keystroke	e	n/a
326.6495	0.12	653299	keystroke	r	n/a
326.7535	0.075	653507	keystroke	Key.space	n/a
326.9795	0.105	653959	keystroke	m	n/a
327.0545	0.105	654109	keystroke	i	n/a
327.1145	0.105	654229	keystroke	l	n/a
327.3395	0.119	654679	keystroke	l	n/a
327.4745	0.105	654949	keystroke	Key.space	n/a
327.7745	0.105	655549	keystroke	u	n/a
327.8195	0.135	655639	keystroke	n	n/a
327.9995	0.12	655999	keystroke	w	n/a
328.1195	0.105	656239	keystroke	r	n/a
328.2095	0.12	656419	keystroke	a	n/a
328.2695	0.105	656539	keystroke	p	n/a
328.4645	0.105	656929	keystroke	Key.enter	n/a
328.585	3.271	657170	prompt	n/a	dish emily startup souls\n
329.3495	0.12	658699	keystroke	d	n/a
329.4395	0.105	658879	keystroke	i	n/a
329.5595	0.12	659119	keystroke	s	n/a
329.6195	0.105	659239	keystroke	h	n/a
329.6945	0.104	659389	keystroke	Key.space	n/a
329.9645	0.12	659929	keystroke	e	n/a
330.0545	0.12	660109	keystroke	m	n/a
330.1295	0.225	660259	keystroke	i	n/a
330.2345	0.135	660469	keystroke	l	n/a
330.3545	0.075	660709	keystroke	y	n/a
330.4145	0.075	660829	keystroke	Key.space	n/a
330.4595	0.15	660919	keystroke	s	n/a
330.5795	0.075	661159	keystroke	t	n/a
330.6845	0.135	661369	keystroke	a	n/a
330.7595	0.09	661519	keystroke	r	n/a
330.9245	0.09	661849	keystroke	t	n/a
330.9995	0.105	661999	keystroke	u	n/a
331.0595	0.135	662119	keystroke	p	n/a
331.1645	0.135	662329	keystroke	Key.space	n/a
331.2545	0.105	662509	keystroke	s	n/a
331.3295	0.09	662659	keystroke	o	n/a
331.4045	0.135	662809	keystroke	u	n/a
331.5245	0.09	663049	keystroke	l	n/a
331.5845	0.09	663169	keystroke	s	n/a
331.7495	0.105	663499	keystroke	Key.enter	n/a
331.862	4.614	663724	prompt	n/a	headline methods demanding expense\n
332.5145	0.09	665029	keystroke	h	n/a
332.6345	0.24	665269	keystroke	e	n/a
332.7245	0.195	665449	keystroke	a	n/a
332.8745	0.09	665749	keystroke	d	n/a
332.9345	0.12	665869	keystroke	l	n/a
332.9645	0.18	665929	keystroke	i	n/a
333.0395	0.12	666079	keystroke	n	n/a
333.1295	0.09	666259	keystroke	e	n/a
333.2045	0.105	666409	keystroke	Key.space	n/a
333.4145	0.09	666829	keystroke	m	n/a
333.4895	0.135	666979	keystroke	e	n/a
333.5795	0.105	667159	keystroke	t	n/a
333.6245	0.105	667249	keystroke	h	n/a
333.6995	0.12	667399	keystroke	o	n/a
333.8045	0.105	667609	keystroke	d	n/a
333.8795	0.12	667759	keystroke	s	n/a
333.9385	0.12	667877	keystroke	Key.space	n/a
334.1345	0.12	668269	keystroke	e	n/a
334.5095	0.075	669019	keystroke	Key.backspace	n/a
334.6445	0.12	669289	keystroke	d	n/a
334.7045	0.12	669409	keystroke	e	n/a
334.7945	0.105	669589	keystroke	m	n/a
334.9145	0.105	669829	keystroke	a	n/a
334.9895	0.09	669979	keystroke	n	n/a
335.0645	0.105	670129	keystroke	d	n/a
335.1245	0.105	670249	keystroke	i	n/a
335.1845	0.12	670369	keystroke	n	n/a
335.2745	0.075	670549	keystroke	g	n/a
335.3345	0.12	670669	keystroke	Key.space	n/a
335.4395	0.12	670879	keystroke	e	n/a
335.6645	0.09	671329	keystroke	x	n/a
335.7395	0.105	671479	keystroke	p	n/a
335.9645	0.12	671929	keystroke	e	n/a
336.0695	0.105	672139	keystroke	n	n/a
336.1595	0.045	672319	keystroke	s	n/a
336.3095	0.06	672619	keystroke	e	n/a
336.3995	0.075	672799	keystroke	Key.enter	n/a
336.48	5.2905	672960	prompt	n/a	continually keen yields subsequently\n
337.0295	0.09	674059	keystroke	c	n/a
337.0745	0.135	674149	keystroke	o	n/a
337.1345	0.12	674269	keystroke	n	n/a
337.2395	0.075	674479	keystroke	t	n/a
337.3295	0.12	674659	keystroke	i	n/a
337.4045	0.12	674809	keystroke	n	n/a
337.4795	0.09	674959	keystroke	u	n/a
337.5995	0.075	675199	keystroke	a	n/a
337.6145	0.075	675229	keystroke	l	n/a
337.8095	0.105	675619	keystroke	l	n/a
337.8845	0.12	675769	keystroke	y	n/a
338.0795	0.105	676159	keystroke	Key.space	n/a
338.2745	0.12	676549	keystroke	k	n/a
338.3495	0.06	676699	keystroke	e	n/a
338.4845	0.105	676969	keystroke	e	n/a
338.5445	0.075	677089	keystroke	n	n/a
338.6945	0.12	677389	keystroke	Key.space	n/a
338.7695	0.09	677539	keystroke	y	n/a
338.9795	0.105	677959	keystroke	i	n/a
339.1895	0.06	678379	keystroke	l	n/a
339.1895	0.105	678379	keystroke	e	n/a
339.5045	0.105	679009	keystroke	d	n/a
339.5645	0.12	679129	keystroke	s	n/a
339.7595	0.075	679519	keystroke	Key.space	n/a
339.8645	0.105	679729	keystroke	s	n/a
339.9395	0.135	679879	keystroke	u	n/a
340.0145	0.105	680029	keystroke	b	n/a
340.0595	0.09	680119	keystroke	s	n/a
340.3595	0.09	680719	keystroke	e	n/a
340.6895	0.09	681379	keystroke	q	n/a
340.8995	0.12	681799	keystroke	u	n/a
341.0495	0.105	682099	keystroke	e	n/a
341.1245	0.075	682249	keystroke	n	n/a
341.2295	0.09	682459	keystroke	t	n/a
341.2895	0.15	682579	keystroke	l	n/a
341.3645	0.09	682729	keystroke	y	n/a
341.6645	0.105	683329	keystroke	Key.enter	n/a
341.7755	6.1305	683551	prompt	n/a	indexed measurements assure unauthorized\n
342.354	0.15	684708	keystroke	i	n/a
342.429	0.12	684858	keystroke	n	n/a
342.534	0.136	685068	keystroke	d	n/a
342.639	0.12	685278	keystroke	e	n/a
342.8945	0.135	685789	keystroke	x	n/a
343.1045	0.12	686209	keystroke	e	n/a
343.1795	0.12	686359	keystroke	d	n/a
343.2545	0.105	686509	keystroke	Key.space	n/a
343.4645	0.105	686929	keystroke	m	n/a
343.5095	0.135	687019	keystroke	e	n/a
343.5845	0.18	687169	keystroke	a	n/a
343.7045	0.135	687409	keystroke	s	n/a
343.8095	0.12	687619	keystroke	u	n/a
343.9145	0.105	687829	keystroke	r	n/a
343.9745	0.09	687949	keystroke	e	n/a
344.0495	0.09	688099	keystroke	m	n/a
344.1545	0.12	688309	keystroke	e	n/a
344.2145	0.12	688429	keystroke	n	n/a
344.2895	0.06	688579	keystroke	t	n/a
344.4095	0.12	688819	keystroke	s	n/a
344.5445	0.135	689089	keystroke	Key.space	n/a
344.6495	0.15	689299	keystroke	a	n/a
344.7545	0.06	689509	keystroke	s	n/a
344.8745	0.105	689749	keystroke	s	n/a
344.9945	0.105	689989	keystroke	u	n/a
345.1145	0.195	690229	keystroke	r	n/a
345.4145	0.12	690829	keystroke	e	n/a
345.6095	0.135	691219	keystroke	Key.space	n/a
345.8195	0.135	691639	keystroke	u	n/a
345.8945	0.12	691789	keystroke	n	n/a
346.1645	0.12	692329	keystroke	a	n/a
346.6745	0.12	693349	keystroke	u	n/a
346.8245	0.09	693649	keystroke	t	n/a
346.9145	0.105	693829	keystroke	h	n/a
347.0045	0.12	694009	keystroke	o	n/a
347.0795	0.09	694159	keystroke	r	n/a
347.1995	0.09	694399	keystroke	i	n/a
347.3495	0.135	694699	keystroke	z	n/a
347.6495	0.09	695299	keystroke	e	n/a
347.6945	0.12	695389	keystroke	d	n/a
347.7845	0.12	695569	keystroke	Key.enter	n/a
347.915	3.9215	695830	prompt	n/a	teach verde microwave even\n
348.5645	0.105	697129	keystroke	t	n/a
348.6395	0.225	697279	keystroke	e	n/a
348.6995	0.15	697399	keystroke	a	n/a
348.8505	0.134	697701	keystroke	c	n/a
348.9245	0.105	697849	keystroke	h	n/a
349.0145	0.12	698029	keystroke	Key.space	n/a
349.1195	0.09	698239	keystroke	v	n/a
349.3145	0.15	698629	keystroke	e	n/a
349.4045	0.12	698809	keystroke	r	n/a
349.6445	0.105	699289	keystroke	d	n/a
349.7045	0.12	699409	keystroke	e	n/a
349.8095	0.12	699619	keystroke	Key.space	n/a
350.0495	0.12	700099	keystroke	m	n/a
350.1395	0.15	700279	keystroke	i	n/a
350.2295	0.09	700459	keystroke	c	n/a
350.4245	0.09	700849	keystroke	r	n/a
350.4695	0.09	700939	keystroke	o	n/a
350.5895	0.135	701179	keystroke	w	n/a
350.6645	0.105	701329	keystroke	a	n/a
350.8745	0.105	701749	keystroke	v	n/a
350.9645	0.135	701929	keystroke	e	n/a
351.0695	0.12	702139	keystroke	Key.space	n/a
351.2195	0.165	702439	keystroke	e	n/a
351.3695	0.105	702739	keystroke	v	n/a
351.4445	0.12	702889	keystroke	e	n/a
351.5495	0.12	703099	keystroke	n	n/a
351.7145	0.12	703429	keystroke	Key.enter	n/a
351.842	4.0445	703684	prompt	n/a	gather swedish sporting what's\n
352.6895	0.075	705379	keystroke	g	n/a
352.8095	0.135	705619	keystroke	a	n/a
352.9145	0.12	705829	keystroke	t	n/a
353.0195	0.105	706039	keystroke	h	n/a
353.0645	0.135	706129	keystroke	e	n/a
353.1395	0.105	706279	keystroke	r	n/a
353.2595	0.12	706519	keystroke	Key.space	n/a
353.3645	0.12	706729	keystroke	s	n/a
353.6045	0.09	707209	keystroke	w	n/a
353.7995	0.12	707599	keystroke	e	n/a
353.8745	0.135	707749	keystroke	d	n/a
353.9795	0.105	707959	keystroke	i	n/a
354.0995	0.09	708199	keystroke	s	n/a
354.1595	0.12	708319	keystroke	h	n/a
354.2495	0.105	708499	keystroke	Key.space	n/a
354.3245	0.12	708649	keystroke	s	n/a
354.4145	0.135	708829	keystroke	p	n/a
354.4895	0.135	708979	keystroke	o	n/a
354.5645	0.075	709129	keystroke	r	n/a
354.7295	0.09	709459	keystroke	t	n/a
354.7595	0.105	709519	keystroke	i	n/a
354.8045	0.105	709609	keystroke	n	n/a
354.9545	0.06	709909	keystroke	g	n/a
355.0295	0.09	710059	keystroke	Key.space	n/a
355.1495	0.105	710299	keystroke	w	n/a
355.2245	0.06	710449	keystroke	h	n/a
355.2995	0.12	710599	keystroke	a	n/a
355.3745	0.09	710749	keystroke	t	n/a
355.4795	0.105	710959	keystroke	'	n/a
355.6145	0.105	711229	keystroke	s	n/a
355.7645	0.12	711529	keystroke	Key.enter	n/a
355.892	5.634	711784	prompt	n/a	conventions thoughts clothing firewall\n
356.5145	0.135	713029	keystroke	c	n/a
356.5895	0.135	713179	keystroke	o	n/a
356.6795	0.105	713359	keystroke	n	n/a
356.7695	0.105	713539	keystroke	v	n/a
356.9345	0.105	713869	keystroke	n	n/a
357.0245	0.12	714049	keystroke	e	n/a
357.3695	0.075	714739	keystroke	Key.backspace	n/a
357.5345	0.06	715069	keystroke	Key.backspace	n/a
357.6395	0.105	715279	keystroke	e	n/a
357.7145	0.105	715429	keystroke	n	n/a
357.8195	0.09	715639	keystroke	t	n/a
357.9245	0.15	715849	keystroke	i	n/a
357.9845	0.105	715969	keystroke	o	n/a
358.0295	0.12	716059	keystroke	n	n/a
358.1045	0.105	716209	keystroke	s	n/a
358.2245	0.105	716449	keystroke	Key.space	n/a
358.3445	0.105	716689	keystroke	t	n/a
358.4345	0.18	716869	keystroke	h	n/a
358.4645	0.151	716929	keystroke	o	n/a
358.5395	0.12	717079	keystroke	u	n/a
358.7495	0.105	717499	keystroke	g	n/a
358.7945	0.12	717589	keystroke	h	n/a
358.8545	0.075	717709	keystroke	t	n/a
359.0045	0.105	718009	keystroke	s	n/a
359.0795	0.12	718159	keystroke	Key.space	n/a
359.2295	0.12	718459	keystroke	c	n/a
359.3345	0.03	718669	keystroke	l	n/a
359.5445	0.06	719089	keystroke	o	n/a
359.8295	0.105	719659	keystroke	t	n/a
359.9045	0.18	719809	keystroke	h	n/a
360.0395	0.135	720079	keystroke	i	n/a
360.0995	0.105	720199	keystroke	n	n/a
360.1595	0.105	720319	keystroke	g	n/a
360.2945	0.12	720589	keystroke	Key.space	n/a
360.3995	0.12	720799	keystroke	f	n/a
360.5205	0.119	721041	keystroke	i	n/a
360.6095	0.105	721219	keystroke	r	n/a
360.6695	0.12	721339	keystroke	e	n/a
360.8795	0.135	721759	keystroke	w	n/a
360.9245	0.135	721849	keystroke	a	n/a
360.9995	0.09	721999	keystroke	l	n/a
361.1495	0.075	722299	keystroke	l	n/a
361.4045	0.12	722809	keystroke	Key.enter	n/a
361.5305	6.131	723061	prompt	n/a	arrives trials advertisements advances\n
362.0495	0.135	724099	keystroke	a	n/a
362.1995	0.06	724399	keystroke	r	n/a
362.349	0.105	724698	keystroke	r	n/a
362.439	0.121	724878	keystroke	i	n/a
362.589	0.105	725178	keystroke	v	n/a
362.665	0.119	725330	keystroke	e	n/a
362.904	0.105	725808	keystroke	s	n/a
363.01	0.164	726020	keystroke	Key.space	n/a
363.144	0.106	726288	keystroke	t	n/a
363.339	0.105	726678	keystroke	r	n/a
363.474	0.105	726948	keystroke	i	n/a
363.564	0.105	727128	keystroke	a	n/a
363.67	0.134	727340	keystroke	l	n/a
363.834	0.105	727668	keystroke	s	n/a
363.984	0.165	727968	keystroke	Key.space	n/a
364.074	0.135	728148	keystroke	a	n/a
364.195	0.12	728390	keystroke	d	n/a
364.419	0.09	728838	keystroke	v	n/a
364.6	0.134	729200	keystroke	e	n/a
364.674	0.105	729348	keystroke	r	n/a
364.854	0.076	729708	keystroke	t	n/a
364.944	0.12	729888	keystroke	i	n/a
365.049	0.091	730098	keystroke	s	n/a
365.23	0.09	730460	keystroke	e	n/a
365.289	0.09	730578	keystroke	m	n/a
365.395	0.194	730790	keystroke	e	n/a
365.484	0.121	730968	keystroke	n	n/a
366.174	0.06	732348	keystroke	t	n/a
366.384	0.106	732768	keystroke	s	n/a
366.504	0.105	733008	keystroke	Key.space	n/a
366.594	0.135	733188	keystroke	a	n/a
366.715	0.105	733430	keystroke	d	n/a
366.91	0.09	733820	keystroke	v	n/a
367	0.134	734000	keystroke	a	n/a
367.104	0.09	734208	keystroke	n	n/a
367.164	0.106	734328	keystroke	c	n/a
367.254	0.09	734508	keystroke	e	n/a
367.435	0.119	734870	keystroke	s	n/a
367.539	0.12	735078	keystroke	Key.enter	n/a
367.6655	3.8055	735331	prompt	n/a	doctrine name laugh airport\n
368.305	0.12	736610	keystroke	d	n/a
368.41	0.134	736820	keystroke	o	n/a
368.53	0.09	737060	keystroke	c	n/a
368.739	0.0905	737478	keystroke	t	n/a
368.905	0.1195	737810	keystroke	r	n/a
368.9635	0.1065	737927	keystroke	i	n/a
369.0245	0.075	738049	keystroke	n	n/a
369.0835	0.1215	738167	keystroke	e	n/a
369.1585	0.105	738317	keystroke	Key.space	n/a
369.354	0.1055	738708	keystroke	n	n/a
369.445	0.12	738890	keystroke	a	n/a
369.55	0.075	739100	keystroke	m	n/a
369.609	0.106	739218	keystroke	e	n/a
369.6985	0.121	739397	keystroke	Key.space	n/a
369.7745	0.149	739549	keystroke	l	n/a
369.9395	0.1205	739879	keystroke	a	n/a
369.9995	0.12	739999	keystroke	u	n/a
370.1785	0.136	740357	keystroke	g	n/a
370.225	0.1335	740450	keystroke	h	n/a
370.329	0.1045	740658	keystroke	Key.space	n/a
370.4495	0.119	740899	keystroke	a	n/a
370.5535	0.075	741107	keystroke	i	n/a
370.6895	0.134	741379	keystroke	r	n/a
370.8695	0.1645	741739	keystroke	p	n/a
370.9445	0.134	741889	keystroke	o	n/a
371.0195	0.105	742039	keystroke	r	n/a
371.2285	0.075	742457	keystroke	t	n/a
371.3635	0.105	742727	keystroke	Key.enter	n/a
371.476	5.216	742952	prompt	n/a	pages meetings corporations prospects\n
372.1595	0.119	744319	keystroke	p	n/a
372.3085	0.121	744617	keystroke	a	n/a
372.4445	0.09	744889	keystroke	g	n/a
372.5045	0.105	745009	keystroke	e	n/a
372.6995	0.12	745399	keystroke	s	n/a
372.7735	0.09	745547	keystroke	Key.space	n/a
372.9695	0.12	745939	keystroke	m	n/a
373.0145	0.059	746029	keystroke	e	n/a
373.1645	0.12	746329	keystroke	e	n/a
