onset	duration	sample	value	key	prompt_text
0.761	7.151	1522	prompt	n/a	the quick brown fox jumps over a lazy dog\n
1.952	0.088	3904	keystroke_t	t	n/a
2.0245	0.12	4049	keystroke_h	h	n/a
2.13	0.1505	4260	keystroke_e	e	n/a
2.205	0.165	4410	keystroke_Key.space	Key.space	n/a
2.3245	0.1205	4649	keystroke_q	q	n/a
2.3855	0.074	4771	keystroke_u	u	n/a
2.5655	0.089	5131	keystroke_i	i	n/a
2.67	0.1355	5340	keystroke_c	c	n/a
2.7595	0.075	5519	keystroke_k	k	n/a
2.8645	0.12	5729	keystroke_Key.space	Key.space	n/a
2.9705	0.09	5941	keystroke_b	b	n/a
3.0745	0.105	6149	keystroke_r	r	n/a
3.15	0.105	6300	keystroke_o	o	n/a
3.285	0.12	6570	keystroke_w	w	n/a
3.3755	0.12	6751	keystroke_n	n	n/a
3.45	0.1345	6900	keystroke_Key.space	Key.space	n/a
3.525	0.105	7050	keystroke_f	f	n/a
3.6155	0.1205	7231	keystroke_o	o	n/a
3.72	0.1345	7440	keystroke_x	x	n/a
3.7945	0.12	7589	keystroke_Key.space	Key.space	n/a
3.8405	0.105	7681	keystroke_j	j	n/a
3.8855	0.105	7771	keystroke_u	u	n/a
4.0955	0.165	8191	keystroke_m	m	n/a
4.1545	0.1355	8309	keystroke_p	p	n/a
4.23	0.1645	8460	keystroke_s	s	n/a
4.44	0.1645	8880	keystroke_Key.space	Key.space	n/a
4.59	0.241	9180	keystroke_v	v	n/a
4.6195	0.121	9239	keystroke_o	o	n/a
4.755	0.2095	9510	keystroke_e	e	n/a
4.876	0.1795	9752	keystroke_r	r	n/a
5.01	0.0455	10020	keystroke_Key.space	Key.space	n/a
5.1595	0.0905	10319	keystroke_Key.backspace	Key.backspace	n/a
5.3245	0.076	10649	keystroke_Key.backspace	Key.backspace	n/a
5.445	0.0755	10890	keystroke_Key.backspace	Key.backspace	n/a
5.596	0.0745	11192	keystroke_Key.backspace	Key.backspace	n/a
5.6865	0.0895	11373	keystroke_Key.backspace	Key.backspace	n/a
5.956	0.136	11912	keystroke_o	o	n/a
6.0315	0.1805	12063	keystroke_v	v	n/a
6.122	0.195	12244	keystroke_e	e	n/a
6.2275	0.1645	12455	keystroke_r	r	n/a
6.301	0.166	12602	keystroke_Key.space	Key.space	n/a
6.6325	0.09	13265	keystroke_a	a	n/a
6.7365	0.091	13473	keystroke_Key.space	Key.space	n/a
6.8575	0.1355	13715	keystroke_l	l	n/a
7.008	0.074	14016	keystroke_a	a	n/a
7.188	0.1345	14376	keystroke_z	z	n/a
7.2625	0.1205	14525	keystroke_y	y	n/a
7.368	0.1195	14736	keystroke_Key.space	Key.space	n/a
7.4425	0.135	14885	keystroke_d	d	n/a
7.518	0.12	15036	keystroke_o	o	n/a
7.682	0.09	15364	keystroke_g	g	n/a
7.817	0.09	15634	keystroke_Key.enter	Key.enter	n/a
7.918	3.622	15836	prompt	n/a	shopping begun translation herbs\n
8.432	0.1195	16864	keystroke_s	s	n/a
8.4915	0.166	16983	keystroke_h	h	n/a
8.6275	0.1645	17255	keystroke_o	o	n/a
8.7315	0.09	17463	keystroke_p	p	n/a
8.8825	0.1045	17765	keystroke_p	p	n/a
9.002	0.18	18004	keystroke_i	i	n/a
9.1075	0.1195	18215	keystroke_n	n	n/a
9.197	0.12	18394	keystroke_g	g	n/a
9.242	0.135	18484	keystroke_Key.space	Key.space	n/a
9.332	0.12	18664	keystroke_b	b	n/a
9.422	0.12	18844	keystroke_e	e	n/a
9.498	0.134	18996	keystroke_g	g	n/a
9.5575	0.15	19115	keystroke_u	u	n/a
9.647	0.1205	19294	keystroke_n	n	n/a
9.7515	0.106	19503	keystroke_Key.space	Key.space	n/a
9.9165	0.1515	19833	keystroke_t	t	n/a
9.9925	0.195	19985	keystroke_r	r	n/a
10.0825	0.15	20165	keystroke_a	a	n/a
10.1725	0.1355	20345	keystroke_n	n	n/a
10.292	0.12	20584	keystroke_s	s	n/a
10.3975	0.09	20795	keystroke_l	l	n/a
10.4725	0.09	20945	keystroke_a	a	n/a
10.518	0.12	21036	keystroke_t	t	n/a
10.608	0.209	21216	keystroke_i	i	n/a
10.6825	0.105	21365	keystroke_o	o	n/a
10.757	0.1055	21514	keystroke_n	n	n/a
10.833	0.119	21666	keystroke_Key.space	Key.space	n/a
10.968	0.104	21936	keystroke_h	h	n/a
11.0425	0.12	22085	keystroke_e	e	n/a
11.103	0.105	22206	keystroke_r	r	n/a
11.193	0.1045	22386	keystroke_b	b	n/a
11.328	0.09	22656	keystroke_s	s	n/a
11.448	0.089	22896	keystroke_Key.enter	Key.enter	n/a
11.5445	3.235	23089	prompt	n/a	depth between reset easier\n
12.063	0.1345	24126	keystroke_d	d	n/a
12.153	0.1345	24306	keystroke_e	e	n/a
12.198	0.12	24396	keystroke_p	p	n/a
12.378	0.09	24756	keystroke_t	t	n/a
12.4525	0.105	24905	keystroke_h	h	n/a
12.5585	0.1195	25117	keystroke_Key.space	Key.space	n/a
12.663	0.1195	25326	keystroke_b	b	n/a
12.7225	0.1055	25445	keystroke_e	e	n/a
12.8425	0.1355	25685	keystroke_t	t	n/a
12.932	0.166	25864	keystroke_w	w	n/a
13.0225	0.09	26045	keystroke_e	e	n/a
13.2025	0.135	26405	keystroke_e	e	n/a
13.263	0.12	26526	keystroke_n	n	n/a
13.353	0.135	26706	keystroke_Key.space	Key.space	n/a
13.442	0.1655	26884	keystroke_r	r	n/a
13.518	0.135	27036	keystroke_e	e	n/a
13.622	0.2105	27244	keystroke_s	s	n/a
13.773	0.1355	27546	keystroke_e	e	n/a
13.8335	0.1185	27667	keystroke_t	t	n/a
13.9225	0.15	27845	keystroke_Key.space	Key.space	n/a
14.043	0.165	28086	keystroke_e	e	n/a
14.178	0.134	28356	keystroke_a	a	n/a
14.252	0.136	28504	keystroke_s	s	n/a
14.358	0.12	28716	keystroke_i	i	n/a
14.463	0.12	28926	keystroke_e	e	n/a
14.538	0.12	29076	keystroke_r	r	n/a
14.6725	0.1055	29345	keystroke_Key.enter	Key.enter	n/a
14.7835	6.418	29567	prompt	n/a	frankfurt milwaukee you've michel\n
15.378	0.1355	30756	keystroke_f	f	n/a
15.4375	0.135	30875	keystroke_r	r	n/a
15.902	0.106	31804	keystroke_a	a	n/a
16.0235	0.1195	32047	keystroke_n	n	n/a
16.1285	0.1195	32257	keystroke_k	k	n/a
16.293	0.1195	32586	keystroke_f	f	n/a
16.6085	0.03	33217	keystroke_r	r	n/a
16.8935	0.0895	33787	keystroke_Key.backspace	Key.backspace	n/a
17.1175	0.12	34235	keystroke_u	u	n/a
17.1925	0.12	34385	keystroke_r	r	n/a
17.253	0.12	34506	keystroke_t	t	n/a
17.327	0.121	34654	keystroke_Key.space	Key.space	n/a
17.388	0.2095	34776	keystroke_m	m	n/a
17.523	0.2395	35046	keystroke_i	i	n/a
17.658	0.195	35316	keystroke_l	l	n/a
18.1375	0.195	36275	keystroke_w	w	n/a
18.243	0.1645	36486	keystroke_a	a	n/a
18.3185	0.074	36637	keystroke_u	u	n/a
18.5275	0.1205	37055	keystroke_k	k	n/a
18.617	0.076	37234	keystroke_e	e	n/a
18.783	0.105	37566	keystroke_e	e	n/a
19.142	0.121	38284	keystroke_Key.space	Key.space	n/a
19.593	0.135	39186	keystroke_y	y	n/a
19.713	0.15	39426	keystroke_o	o	n/a
19.8185	0.15	39637	keystroke_u	u	n/a
20.0575	0.1505	40115	keystroke_'	'	n/a
20.223	0.1205	40446	keystroke_v	v	n/a
20.2825	0.121	40565	keystroke_e	e	n/a
20.3575	0.1055	40715	keystroke_Key.space	Key.space	n/a
20.388	0.1345	40776	keystroke_m	m	n/a
20.447	0.1205	40894	keystroke_i	i	n/a
20.5375	0.151	41075	keystroke_c	c	n/a
20.6735	0.0895	41347	keystroke_h	h	n/a
20.778	0.1045	41556	keystroke_e	e	n/a
20.9275	0.106	41855	keystroke_l	l	n/a
21.1225	0.075	42245	keystroke_Key.enter	Key.enter	n/a
21.206	6.294	42412	prompt	n/a	bingo sheep attractive obesity\n
22.0085	0.1195	44017	keystroke_b	b	n/a
22.143	0.1495	44286	keystroke_i	i	n/a
22.2485	0.1345	44497	keystroke_n	n	n/a
22.338	0.1195	44676	keystroke_g	g	n/a
22.488	0.09	44976	keystroke_s	s	n/a
22.922	0.076	45844	keystroke_Key.backspace	Key.backspace	n/a
23.1185	0.135	46237	keystroke_o	o	n/a
23.237	0.15	46474	keystroke_Key.space	Key.space	n/a
23.373	0.1045	46746	keystroke_s	s	n/a
23.4635	0.1045	46927	keystroke_h	h	n/a
23.568	0.1045	47136	keystroke_e	e	n/a
23.748	0.135	47496	keystroke_e	e	n/a
23.853	0.1205	47706	keystroke_p	p	n/a
23.9875	0.1205	47975	keystroke_Key.space	Key.space	n/a
24.1985	0.1345	48397	keystroke_a	a	n/a
24.3785	0.0895	48757	keystroke_t	t	n/a
24.543	0.0905	49086	keystroke_t	t	n/a
24.588	0.1205	49176	keystroke_r	r	n/a
24.6485	0.179	49297	keystroke_a	a	n/a
24.768	0.09	49536	keystroke_c	c	n/a
24.9775	0.075	49955	keystroke_t	t	n/a
25.0985	0.135	50197	keystroke_i	i	n/a
25.218	0.165	50436	keystroke_v	v	n/a
25.3085	0.1495	50617	keystroke_e	e	n/a
25.458	0.105	50916	keystroke_Key.space	Key.space	n/a
25.578	0.15	51156	keystroke_o	o	n/a
25.698	0.1205	51396	keystroke_b	b	n/a
25.803	0.18	51606	keystroke_s	s	n/a
25.908	0.0455	51816	keystroke_e	e	n/a
26.478	0.045	52956	keystroke_Key.backspace	Key.backspace	n/a
26.613	0.0745	53226	keystroke_Key.backspace	Key.backspace	n/a
26.6725	0.151	53345	keystroke_e	e	n/a
26.7485	0.15	53497	keystroke_s	s	n/a
26.838	0.15	53676	keystroke_i	i	n/a
27.003	0.1945	54006	keystroke_t	t	n/a
27.108	0.1195	54216	keystroke_y	y	n/a
27.378	0.12	54756	keystroke_Key.enter	Key.enter	n/a
27.506	4.029	55012	prompt	n/a	coming ordered researcher beat\n
28.0685	0.1345	56137	keystroke_c	c	n/a
28.1285	0.1045	56257	keystroke_o	o	n/a
28.218	0.1055	56436	keystroke_m	m	n/a
28.3375	0.151	56675	keystroke_i	i	n/a
28.4135	0.135	56827	keystroke_n	n	n/a
28.4735	0.105	56947	keystroke_g	g	n/a
28.5325	0.1355	57065	keystroke_Key.space	Key.space	n/a
28.593	0.12	57186	keystroke_o	o	n/a
28.698	0.105	57396	keystroke_r	r	n/a
28.893	0.1045	57786	keystroke_d	d	n/a
28.968	0.1355	57936	keystroke_e	e	n/a
29.1035	0.1045	58207	keystroke_r	r	n/a
29.193	0.18	58386	keystroke_e	e	n/a
29.298	0.105	58596	keystroke_d	d	n/a
29.373	0.135	58746	keystroke_Key.space	Key.space	n/a
29.493	0.1345	58986	keystroke_r	r	n/a
29.553	0.165	59106	keystroke_e	e	n/a
29.6575	0.196	59315	keystroke_s	s	n/a
29.8375	0.18	59675	keystroke_e	e	n/a
29.9425	0.121	59885	keystroke_a	a	n/a
30.0035	0.089	60007	keystroke_r	r	n/a
30.2285	0.12	60457	keystroke_c	c	n/a
30.3785	0.105	60757	keystroke_h	h	n/a
30.4985	0.179	60997	keystroke_e	e	n/a
30.6175	0.181	61235	keystroke_r	r	n/a
30.7835	0.134	61567	keystroke_Key.space	Key.space	n/a
31.0835	0.105	62167	keystroke_b	b	n/a
31.1135	0.195	62227	keystroke_e	e	n/a
31.218	0.1055	62436	keystroke_a	a	n/a
31.264	0.1335	62528	keystroke_t	t	n/a
31.4285	0.104	62857	keystroke_Key.enter	Key.enter	n/a
31.5425	5.408	63085	prompt	n/a	wake commitments greatest margin\n
32.0735	0.194	64147	keystroke_w	w	n/a
32.1935	0.15	64387	keystroke_a	a	n/a
32.2985	0.105	64597	keystroke_k	k	n/a
32.388	0.12	64776	keystroke_e	e	n/a
32.4625	0.12	64925	keystroke_Key.space	Key.space	n/a
32.6425	0.105	65285	keystroke_c	c	n/a
32.658	0.15	65316	keystroke_o	o	n/a
32.928	0.165	65856	keystroke_m	m	n/a
33.183	0.165	66366	keystroke_m	m	n/a
33.258	0.1205	66516	keystroke_i	i	n/a
33.4235	0.09	66847	keystroke_t	t	n/a
33.648	0.075	67296	keystroke_t	t	n/a
33.963	0.0745	67926	keystroke_Key.backspace	Key.backspace	n/a
34.1425	0.121	68285	keystroke_m	m	n/a
34.2475	0.121	68495	keystroke_e	e	n/a
34.3535	0.12	68707	keystroke_n	n	n/a
34.4585	0.165	68917	keystroke_t	t	n/a
34.5625	0.136	69125	keystroke_s	s	n/a
34.983	0.15	69966	keystroke_Key.space	Key.space	n/a
35.058	0.15	70116	keystroke_g	g	n/a
35.118	0.1805	70236	keystroke_r	r	n/a
35.388	0.165	70776	keystroke_e	e	n/a
35.4785	0.209	70957	keystroke_a	a	n/a
35.6285	0.165	71257	keystroke_t	t	n/a
35.7635	0.254	71527	keystroke_e	e	n/a
35.8835	0.18	71767	keystroke_s	s	n/a
35.9885	0.15	71977	keystroke_t	t	n/a
36.0785	0.135	72157	keystroke_Key.space	Key.space	n/a
36.1685	0.135	72337	keystroke_m	m	n/a
36.2585	0.135	72517	keystroke_a	a	n/a
36.3035	0.075	72607	keystroke_r	r	n/a
36.4835	0.089	72967	keystroke_g	g	n/a
36.5435	0.135	73087	keystroke_i	i	n/a
36.6185	0.105	73237	keystroke_n	n	n/a
36.8285	0.119	73657	keystroke_Key.enter	Key.enter	n/a
36.955	5.0055	73910	prompt	n/a	assessments bedding located champagne\n
37.473	0.12	74946	keystroke_a	a	n/a
37.563	0.0905	75126	keystroke_s	s	n/a
37.743	0.12	75486	keystroke_s	s	n/a
37.833	0.15	75666	keystroke_e	e	n/a
37.938	0.105	75876	keystroke_s	s	n/a
38.1035	0.105	76207	keystroke_s	s	n/a
38.2235	0.1195	76447	keystroke_m	m	n/a
38.3285	0.09	76657	keystroke_e	e	n/a
38.4485	0.1045	76897	keystroke_n	n	n/a
38.5375	0.136	77075	keystroke_t	t	n/a
38.613	0.12	77226	keystroke_s	s	n/a
38.688	0.12	77376	keystroke_Key.space	Key.space	n/a
38.763	0.09	77526	keystroke_b	b	n/a
38.823	0.1355	77646	keystroke_e	e	n/a
39.123	0.0755	78246	keystroke_d	d	n/a
39.2885	0.09	78577	keystroke_d	d	n/a
39.3485	0.15	78697	keystroke_i	i	n/a
39.4385	0.12	78877	keystroke_n	n	n/a
39.5135	0.105	79027	keystroke_g	g	n/a
39.5885	0.09	79177	keystroke_Key.space	Key.space	n/a
39.6635	0.12	79327	keystroke_l	l	n/a
39.8735	0.1195	79747	keystroke_o	o	n/a
39.963	0.1205	79926	keystroke_c	c	n/a
40.0685	0.15	80137	keystroke_a	a	n/a
40.203	0.1205	80406	keystroke_t	t	n/a
40.3085	0.1795	80617	keystroke_e	e	n/a
40.4135	0.1495	80827	keystroke_d	d	n/a
40.5335	0.12	81067	keystroke_Key.space	Key.space	n/a
40.638	0.15	81276	keystroke_c	c	n/a
40.728	0.09	81456	keystroke_h	h	n/a
40.863	0.1205	81726	keystroke_a	a	n/a
40.968	0.1655	81936	keystroke_m	m	n/a
41.088	0.1205	82176	keystroke_p	p	n/a
41.2235	0.165	82447	keystroke_a	a	n/a
41.3735	0.135	82747	keystroke_g	g	n/a
41.5385	0.135	83077	keystroke_n	n	n/a
41.6885	0.105	83377	keystroke_e	e	n/a
41.8685	0.09	83737	keystroke_Key.enter	Key.enter	n/a
41.9635	5.2325	83927	prompt	n/a	dramatic bend princess committees\n
42.708	0.091	85416	keystroke_d	d	n/a
42.903	0.135	85806	keystroke_r	r	n/a
42.993	0.09	85986	keystroke_a	a	n/a
43.053	0.106	86106	keystroke_m	m	n/a
43.174	0.104	86348	keystroke_a	a	n/a
43.218	0.0905	86436	keystroke_t	t	n/a
43.338	0.105	86676	keystroke_i	i	n/a
43.458	0.165	86916	keystroke_c	c	n/a
43.683	0.12	87366	keystroke_Key.space	Key.space	n/a
43.758	0.105	87516	keystroke_b	b	n/a
43.878	0.09	87756	keystroke_e	e	n/a
43.983	0.1355	87966	keystroke_n	n	n/a
44.1635	0.12	88327	keystroke_d	d	n/a
44.343	0.1195	88686	keystroke_Key.space	Key.space	n/a
44.4335	0.119	88867	keystroke_p	p	n/a
44.568	0.1355	89136	keystroke_r	r	n/a
44.7185	0.119	89437	keystroke_i	i	n/a
44.7785	0.1345	89557	keystroke_n	n	n/a
44.8525	0.166	89705	keystroke_c	c	n/a
44.9575	0.136	89915	keystroke_e	e	n/a
45.0335	0.0895	90067	keystroke_s	s	n/a
45.198	0.12	90396	keystroke_s	s	n/a
45.273	0.0905	90546	keystroke_Key.space	Key.space	n/a
45.3785	0.12	90757	keystroke_c	c	n/a
45.4085	0.105	90817	keystroke_o	o	n/a
45.4685	0.1195	90937	keystroke_m	m	n/a
45.648	0.165	91296	keystroke_m	m	n/a
45.738	0.1205	91476	keystroke_i	i	n/a
45.8435	0.0895	91687	keystroke_t	t	n/a
46.203	0.1505	92406	keystroke_t	t	n/a
46.323	0.1505	92646	keystroke_e	e	n/a
46.548	0.1505	93096	keystroke_e	e	n/a
46.6685	0.1345	93337	keystroke_s	s	n/a
47.0885	0.1045	94177	keystroke_Key.enter	Key.enter	n/a
47.1985	3.703	94397	prompt	n/a	outlet actions retro seas\n
47.7935	0.18	95587	keystroke_o	o	n/a
47.9885	0.09	95977	keystroke_u	u	n/a
48.0785	0.09	96157	keystroke_t	t	n/a
48.198	0.09	96396	keystroke_l	l	n/a
48.244	0.179	96488	keystroke_e	e	n/a
48.348	0.135	96696	keystroke_t	t	n/a
48.438	0.165	96876	keystroke_Key.space	Key.space	n/a
48.573	0.1505	97146	keystroke_a	a	n/a
48.678	0.1055	97356	keystroke_c	c	n/a
48.903	0.09	97806	keystroke_t	t	n/a
48.978	0.1955	97956	keystroke_i	i	n/a
49.008	0.1355	98016	keystroke_o	o	n/a
49.1135	0.135	98227	keystroke_n	n	n/a
49.129	0.1495	98258	keystroke_s	s	n/a
49.2035	0.1345	98407	keystroke_Key.space	Key.space	n/a
49.3085	0.135	98617	keystroke_r	r	n/a
49.3975	0.121	98795	keystroke_e	e	n/a
49.5635	0.15	99127	keystroke_t	t	n/a
49.6535	0.15	99307	keystroke_r	r	n/a
49.7585	0.135	99517	keystroke_o	o	n/a
49.8785	0.12	99757	keystroke_Key.space	Key.space	n/a
50.1635	0.15	100327	keystroke_s	s	n/a
50.2385	0.2245	100477	keystroke_e	e	n/a
50.4175	0.151	100835	keystroke_a	a	n/a
50.523	0.1355	101046	keystroke_s	s	n/a
50.778	0.12	101556	keystroke_Key.enter	Key.enter	n/a
50.906	7.629	101812	prompt	n/a	establishment romantic horizontal competent\n
51.4985	0.12	102997	keystroke_e	e	n/a
51.6775	0.151	103355	keystroke_s	s	n/a
51.8435	0.165	103687	keystroke_t	t	n/a
52.413	0.1055	104826	keystroke_a	a	n/a
52.6085	0.1345	105217	keystroke_b	b	n/a
52.728	0.1805	105456	keystroke_l	l	n/a
52.8185	0.15	105637	keystroke_i	i	n/a
52.9535	0.105	105907	keystroke_s	s	n/a
53.0285	0.09	106057	keystroke_h	h	n/a
53.2235	0.104	106447	keystroke_m	m	n/a
53.3135	0.105	106627	keystroke_e	e	n/a
53.4185	0.12	106837	keystroke_n	n	n/a
53.4485	0.12	106897	keystroke_t	t	n/a
53.5525	0.1505	107105	keystroke_Key.space	Key.space	n/a
53.6435	0.1495	107287	keystroke_r	r	n/a
53.7335	0.1495	107467	keystroke_o	o	n/a
53.808	0.1205	107616	keystroke_m	m	n/a
53.988	0.105	107976	keystroke_a	a	n/a
54.0475	0.151	108095	keystroke_n	n	n/a
54.2285	0.09	108457	keystroke_t	t	n/a
54.3625	0.136	108725	keystroke_i	i	n/a
54.5435	0.15	109087	keystroke_c	c	n/a
54.6775	0.105	109355	keystroke_Key.space	Key.space	n/a
54.798	0.135	109596	keystroke_h	h	n/a
54.8735	0.1045	109747	keystroke_o	o	n/a
54.9485	0.0895	109897	keystroke_r	r	n/a
55.0385	0.0895	110077	keystroke_i	i	n/a
55.143	0.1355	110286	keystroke_z	z	n/a
55.2335	0.12	110467	keystroke_o	o	n/a
55.2935	0.15	110587	keystroke_n	n	n/a
55.5485	0.1195	111097	keystroke_a	a	n/a
55.7285	0.12	111457	keystroke_l	l	n/a
55.893	0.12	111786	keystroke_Key.space	Key.space	n/a
56.7185	0.1495	113437	keystroke_c	c	n/a
56.763	0.135	113526	keystroke_o	o	n/a
56.853	0.195	113706	keystroke_m	m	n/a
57.033	0.135	114066	keystroke_p	p	n/a
57.2285	0.255	114457	keystroke_e	e	n/a
57.4985	0.134	114997	keystroke_t	t	n/a
57.7385	0.15	115477	keystroke_e	e	n/a
58.0835	0.15	116167	keystroke_n	n	n/a
58.2485	0.075	116497	keystroke_t	t	n/a
58.428	0.105	116856	keystroke_Key.enter	Key.enter	n/a
58.5395	3.4755	117079	prompt	n/a	reader grown adapters will\n
59.073	0.15	118146	keystroke_r	r	n/a
59.1485	0.165	118297	keystroke_e	e	n/a
59.2385	0.15	118477	keystroke_a	a	n/a
59.3285	0.1195	118657	keystroke_d	d	n/a
59.4185	0.1945	118837	keystroke_e	e	n/a
59.5685	0.1495	119137	keystroke_r	r	n/a
59.673	0.15	119346	keystroke_Key.space	Key.space	n/a
59.7935	0.1195	119587	keystroke_g	g	n/a
59.853	0.135	119706	keystroke_r	r	n/a
59.9585	0.1045	119917	keystroke_o	o	n/a
60.0785	0.1195	120157	keystroke_w	w	n/a
60.183	0.1205	120366	keystroke_n	n	n/a
60.2435	0.15	120487	keystroke_Key.space	Key.space	n/a
60.3175	0.106	120635	keystroke_a	a	n/a
60.3935	0.1795	120787	keystroke_d	d	n/a
60.543	0.15	121086	keystroke_a	a	n/a
60.6335	0.12	121267	keystroke_p	p	n/a
60.768	0.136	121536	keystroke_t	t	n/a
60.888	0.15	121776	keystroke_e	e	n/a
60.9935	0.195	121987	keystroke_r	r	n/a
61.1285	0.1045	122257	keystroke_s	s	n/a
61.203	0.1505	122406	keystroke_Key.space	Key.space	n/a
61.3385	0.1195	122677	keystroke_w	w	n/a
61.413	0.135	122826	keystroke_i	i	n/a
61.473	0.1055	122946	keystroke_l	l	n/a
61.653	0.0905	123306	keystroke_l	l	n/a
61.9075	0.105	123815	keystroke_Key.enter	Key.enter	n/a
62.019	4.811	124038	prompt	n/a	shock successfully disney madison\n
62.5235	0.119	125047	keystroke_s	s	n/a
62.628	0.1505	125256	keystroke_h	h	n/a
62.9435	0.12	125887	keystroke_o	o	n/a
63.2435	0.135	126487	keystroke_c	c	n/a
63.3335	0.1205	126667	keystroke_k	k	n/a
63.4985	0.075	126997	keystroke_Key.space	Key.space	n/a
63.5585	0.105	127117	keystroke_s	s	n/a
63.6785	0.09	127357	keystroke_u	u	n/a
63.6935	0.105	127387	keystroke_c	c	n/a
63.9035	0.12	127807	keystroke_c	c	n/a
63.9635	0.12	127927	keystroke_e	e	n/a
64.0385	0.12	128077	keystroke_s	s	n/a
64.2635	0.09	128527	keystroke_s	s	n/a
64.3235	0.12	128647	keystroke_f	f	n/a
64.5035	0.135	129007	keystroke_u	u	n/a
64.5785	0.075	129157	keystroke_l	l	n/a
64.7285	0.12	129457	keystroke_l	l	n/a
64.9085	0.09	129817	keystroke_y	y	n/a
65.0575	0.1655	130115	keystroke_Key.space	Key.space	n/a
65.313	0.09	130626	keystroke_d	d	n/a
65.343	0.1355	130686	keystroke_i	i	n/a
65.463	0.09	130926	keystroke_s	s	n/a
65.568	0.1205	131136	keystroke_n	n	n/a
65.6285	0.149	131257	keystroke_e	e	n/a
65.748	0.1645	131496	keystroke_y	y	n/a
65.914	0.149	131828	keystroke_Key.space	Key.space	n/a
66.0035	0.12	132007	keystroke_m	m	n/a
66.094	0.164	132188	keystroke_a	a	n/a
66.2135	0.1345	132427	keystroke_d	d	n/a
66.288	0.091	132576	keystroke_i	i	n/a
66.3925	0.121	132785	keystroke_s	s	n/a
66.4535	0.105	132907	keystroke_o	o	n/a
66.514	0.119	133028	keystroke_n	n	n/a
66.708	0.1205	133416	keystroke_Key.enter	Key.enter	n/a
66.833	6.417	133666	prompt	n/a	photographs ambassador guild excitement\n
67.384	0.104	134768	keystroke_p	p	n/a
67.5185	0.15	135037	keystroke_h	h	n/a
67.6085	0.135	135217	keystroke_o	o	n/a
67.7735	0.135	135547	keystroke_t	t	n/a
68.1635	0.1045	136327	keystroke_o	o	n/a
68.3135	0.135	136627	keystroke_g	g	n/a
68.358	0.1955	136716	keystroke_r	r	n/a
68.463	0.1655	136926	keystroke_a	a	n/a
68.524	0.1795	137048	keystroke_p	p	n/a
68.6435	0.165	137287	keystroke_h	h	n/a
68.8535	0.1205	137707	keystroke_s	s	n/a
68.9435	0.1505	137887	keystroke_Key.space	Key.space	n/a
69.108	0.06	138216	keystroke_a	a	n/a
69.183	0.1345	138366	keystroke_m	m	n/a
69.3185	0.15	138637	keystroke_b	b	n/a
69.4525	0.165	138905	keystroke_a	a	n/a
70.0085	0.075	140017	keystroke_s	s	n/a
70.1585	0.1645	140317	keystroke_s	s	n/a
70.2485	0.18	140497	keystroke_a	a	n/a
70.489	0.1335	140978	keystroke_d	d	n/a
70.5935	0.15	141187	keystroke_o	o	n/a
70.7285	0.105	141457	keystroke_r	r	n/a
70.8185	0.1195	141637	keystroke_Key.space	Key.space	n/a
70.9685	0.12	141937	keystroke_g	g	n/a
71.0285	0.1945	142057	keystroke_u	u	n/a
71.149	0.059	142298	keystroke_i	i	n/a
71.373	0.1055	142746	keystroke_l	l	n/a
71.448	0.075	142896	keystroke_d	d	n/a
71.538	0.09	143076	keystroke_Key.space	Key.space	n/a
71.6435	0.1045	143287	keystroke_e	e	n/a
71.7785	0.1205	143557	keystroke_x	x	n/a
72.0185	0.1055	144037	keystroke_c	c	n/a
72.259	0.1045	144518	keystroke_i	i	n/a
72.438	0.165	144876	keystroke_t	t	n/a
72.573	0.1055	145146	keystroke_e	e	n/a
72.6635	0.09	145327	keystroke_m	m	n/a
72.7685	0.09	145537	keystroke_e	e	n/a
72.8725	0.106	145745	keystroke_n	n	n/a
72.9485	0.105	145897	keystroke_t	t	n/a
73.1425	0.106	146285	keystroke_Key.enter	Key.enter	n/a
73.2545	4.6305	146509	prompt	n/a	miss students wellington importance\n
73.7885	0.1955	147577	keystroke_m	m	n/a
73.8785	0.12	147757	keystroke_i	i	n/a
73.924	0.0895	147848	keystroke_s	s	n/a
74.1185	0.09	148237	keystroke_s	s	n/a
74.1785	0.15	148357	keystroke_Key.space	Key.space	n/a
74.2985	0.12	148597	keystroke_s	s	n/a
74.3735	0.135	148747	keystroke_t	t	n/a
74.4775	0.121	148955	keystroke_u	u	n/a
74.8975	0.166	149795	keystroke_d	d	n/a
74.9885	0.15	149977	keystroke_e	e	n/a
75.1085	0.135	150217	keystroke_n	n	n/a
75.1975	0.1655	150395	keystroke_t	t	n/a
75.3035	0.09	150607	keystroke_s	s	n/a
75.3485	0.1495	150697	keystroke_Key.space	Key.space	n/a
75.514	0.1495	151028	keystroke_w	w	n/a
75.5885	0.15	151177	keystroke_e	e	n/a
75.7235	0.06	151447	keystroke_l	l	n/a
75.8735	0.1495	151747	keystroke_l	l	n/a
75.9335	0.165	151867	keystroke_i	i	n/a
76.0375	0.151	152075	keystroke_n	n	n/a
76.0835	0.15	152167	keystroke_g	g	n/a
76.2485	0.135	152497	keystroke_t	t	n/a
76.3685	0.1505	152737	keystroke_o	o	n/a
76.4435	0.165	152887	keystroke_n	n	n/a
76.5785	0.104	153157	keystroke_Key.space	Key.space	n/a
76.743	0.135	153486	keystroke_i	i	n/a
76.818	0.15	153636	keystroke_m	m	n/a
76.953	0.15	153906	keystroke_p	p	n/a
77.073	0.121	154146	keystroke_o	o	n/a
77.118	0.1355	154236	keystroke_r	r	n/a
77.1785	0.1495	154357	keystroke_t	t	n/a
77.2985	0.1795	154597	keystroke_a	a	n/a
77.3585	0.1645	154717	keystroke_n	n	n/a
77.568	0.135	155136	keystroke_c	c	n/a
77.643	0.12	155286	keystroke_e	e	n/a
77.778	0.105	155556	keystroke_Key.enter	Key.enter	n/a
77.89	5.14	155780	prompt	n/a	chain office discretion aquarium\n
78.618	0.165	157236	keystroke_c	c	n/a
78.708	0.12	157416	keystroke_h	h	n/a
78.8585	0.12	157717	keystroke_a	a	n/a
78.9185	0.1345	157837	keystroke_i	i	n/a
78.993	0.12	157986	keystroke_n	n	n/a
79.0385	0.1045	158077	keystroke_Key.space	Key.space	n/a
79.144	0.1045	158288	keystroke_o	o	n/a
79.233	0.0745	158466	keystroke_f	f	n/a
79.384	0.09	158768	keystroke_f	f	n/a
79.488	0.121	158976	keystroke_i	i	n/a
79.579	0.1195	159158	keystroke_c	c	n/a
79.668	0.1205	159336	keystroke_e	e	n/a
79.743	0.15	159486	keystroke_Key.space	Key.space	n/a
79.8785	0.1195	159757	keystroke_d	d	n/a
79.9835	0.12	159967	keystroke_i	i	n/a
80.0885	0.105	160177	keystroke_s	s	n/a
80.1635	0.2095	160327	keystroke_c	c	n/a
80.298	0.1345	160596	keystroke_r	r	n/a
80.553	0.135	161106	keystroke_e	e	n/a
80.8085	0.105	161617	keystroke_t	t	n/a
80.883	0.2705	161766	keystroke_i	i	n/a
80.9435	0.165	161887	keystroke_o	o	n/a
81.0625	0.151	162125	keystroke_n	n	n/a
81.1675	0.166	162335	keystroke_Key.space	Key.space	n/a
81.3485	0.104	162697	keystroke_a	a	n/a
81.589	0.1195	163178	keystroke_q	q	n/a
81.6925	0.135	163385	keystroke_u	u	n/a
81.9325	0.1655	163865	keystroke_a	a	n/a
82.0535	0.149	164107	keystroke_r	r	n/a
82.1875	0.105	164375	keystroke_i	i	n/a
82.3825	0.136	164765	keystroke_u	u	n/a
82.6685	0.1345	165337	keystroke_m	m	n/a
82.9375	0.09	165875	keystroke_Key.enter	Key.enter	n/a
83.034	7.4665	166068	prompt	n/a	academy acts transformation individuals\n
83.583	0.18	167166	keystroke_a	a	n/a
83.7485	0.1495	167497	keystroke_c	c	n/a
83.928	0.21	167856	keystroke_a	a	n/a
84.1235	0.1795	168247	keystroke_d	d	n/a
84.2135	0.1645	168427	keystroke_e	e	n/a
84.3335	0.135	168667	keystroke_m	m	n/a
84.4835	0.1495	168967	keystroke_y	y	n/a
84.588	0.195	169176	keystroke_Key.space	Key.space	n/a
84.6635	0.2095	169327	keystroke_a	a	n/a
84.858	0.1205	169716	keystroke_c	c	n/a
85.1135	0.1655	170227	keystroke_t	t	n/a
85.2185	0.1345	170437	keystroke_s	s	n/a
85.263	0.15	170526	keystroke_Key.space	Key.space	n/a
85.3835	0.18	170767	keystroke_t	t	n/a
85.458	0.195	170916	keystroke_r	r	n/a
85.533	0.1955	171066	keystroke_a	a	n/a
85.7435	0.12	171487	keystroke_n	n	n/a
85.8335	0.12	171667	keystroke_s	s	n/a
85.9535	0.12	171907	keystroke_f	f	n/a
86.0585	0.09	172117	keystroke_o	o	n/a
86.1335	0.12	172267	keystroke_r	r	n/a
86.2685	0.105	172537	keystroke_m	m	n/a
86.3285	0.15	172657	keystroke_a	a	n/a
86.4035	0.135	172807	keystroke_t	t	n/a
86.4935	0.255	172987	keystroke_i	i	n/a
86.5235	0.165	173047	keystroke_o	o	n/a
86.628	0.2105	173256	keystroke_n	n	n/a
86.868	0.1655	173736	keystroke_Key.space	Key.space	n/a
87.123	0.195	174246	keystroke_i	i	n/a
87.2435	0.1345	174487	keystroke_n	n	n/a
87.6325	0.121	175265	keystroke_d	d	n/a
87.7225	0.091	175445	keystroke_i	i	n/a
87.9175	0.075	175835	keystroke_v	v	n/a
87.9335	0.075	175867	keystroke_i	i	n/a
88.6375	0.1205	177275	keystroke_i	i	n/a
88.7735	0.1345	177547	keystroke_d	d	n/a
88.9535	0.0895	177907	keystroke_u	u	n/a
89.3735	0.06	178747	keystroke_Key.backspace	Key.backspace	n/a
89.5385	0.044	179077	keystroke_Key.backspace	Key.backspace	n/a
89.6585	0.075	179317	keystroke_Key.backspace	Key.backspace	n/a
89.7635	0.135	179527	keystroke_d	d	n/a
89.8825	0.121	179765	keystroke_u	u	n/a
90.0185	0.09	180037	keystroke_a	a	n/a
90.0775	0.121	180155	keystroke_l	l	n/a
90.2135	0.1195	180427	keystroke_s	s	n/a
90.393	0.1055	180786	keystroke_Key.enter	Key.enter	n/a
90.5075	4.5375	181015	prompt	n/a	interracial hook bottle aircraft\n
91.083	0.1205	182166	keystroke_i	i	n/a
91.158	0.1355	182316	keystroke_n	n	n/a
91.2185	0.12	182437	keystroke_t	t	n/a
91.3085	0.165	182617	keystroke_e	e	n/a
91.4435	0.045	182887	keystroke_r	r	n/a
91.5635	0.09	183127	keystroke_r	r	n/a
91.6385	0.18	183277	keystroke_a	a	n/a
91.8035	0.135	183607	keystroke_c	c	n/a
91.9985	0.135	183997	keystroke_i	i	n/a
92.1935	0.105	184387	keystroke_a	a	n/a
92.2835	0.105	184567	keystroke_l	l	n/a
92.3585	0.135	184717	keystroke_Key.space	Key.space	n/a
92.5085	0.135	185017	keystroke_h	h	n/a
92.6135	0.09	185227	keystroke_o	o	n/a
92.8085	0.15	185617	keystroke_o	o	n/a
92.9135	0.15	185827	keystroke_k	k	n/a
93.0485	0.0895	186097	keystroke_Key.space	Key.space	n/a
93.168	0.15	186336	keystroke_b	b	n/a
93.2435	0.1195	186487	keystroke_o	o	n/a
93.333	0.06	186666	keystroke_t	t	n/a
93.4685	0.1045	186937	keystroke_t	t	n/a
93.588	0.1205	187176	keystroke_l	l	n/a
93.6635	0.165	187327	keystroke_e	e	n/a
93.7235	0.15	187447	keystroke_Key.space	Key.space	n/a
93.8435	0.165	187687	keystroke_a	a	n/a
93.9785	0.135	187957	keystroke_i	i	n/a
94.0385	0.105	188077	keystroke_r	r	n/a
94.2635	0.15	188527	keystroke_c	c	n/a
94.3535	0.21	188707	keystroke_r	r	n/a
94.443	0.15	188886	keystroke_a	a	n/a
94.5635	0.0895	189127	keystroke_f	f	n/a
94.7585	0.1045	189517	keystroke_t	t	n/a
94.923	0.12	189846	keystroke_Key.enter	Key.enter	n/a
95.0495	5.5005	190099	prompt	n/a	rhode sunshine nigeria representing\n
95.6885	0.1195	191377	keystroke_r	r	n/a
95.793	0.1655	191586	keystroke_h	h	n/a
95.8685	0.1195	191737	keystroke_o	o	n/a
96.003	0.165	192006	keystroke_d	d	n/a
96.078	0.1355	192156	keystroke_e	e	n/a
96.1535	0.1645	192307	keystroke_Key.space	Key.space	n/a
96.2285	0.1355	192457	keystroke_s	s	n/a
96.3335	0.1345	192667	keystroke_u	u	n/a
96.408	0.1205	192816	keystroke_n	n	n/a
96.513	0.105	193026	keystroke_s	s	n/a
96.603	0.135	193206	keystroke_h	h	n/a
96.693	0.21	193386	keystroke_i	i	n/a
96.8435	0.1645	193687	keystroke_n	n	n/a
96.978	0.1655	193956	keystroke_e	e	n/a
97.0825	0.136	194165	keystroke_Key.space	Key.space	n/a
97.2785	0.225	194557	keystroke_n	n	n/a
97.3985	0.12	194797	keystroke_i	i	n/a
97.5335	0.135	195067	keystroke_g	g	n/a
97.6835	0.165	195367	keystroke_e	e	n/a
97.7735	0.15	195547	keystroke_r	r	n/a
97.8935	0.12	195787	keystroke_i	i	n/a
98.148	0.181	196296	keystroke_a	a	n/a
98.283	0.1345	196566	keystroke_Key.space	Key.space	n/a
98.4325	0.1665	196865	keystroke_r	r	n/a
98.5235	0.15	197047	keystroke_e	e	n/a
98.643	0.1355	197286	keystroke_p	p	n/a
98.8085	0.18	197617	keystroke_r	r	n/a
98.883	0.135	197766	keystroke_e	e	n/a
99.003	0.2105	198006	keystroke_s	s	n/a
99.1535	0.105	198307	keystroke_e	e	n/a
99.2285	0.12	198457	keystroke_n	n	n/a
99.3635	0.09	198727	keystroke_t	t	n/a
99.469	0.1195	198938	keystroke_i	i	n/a
99.5435	0.1195	199087	keystroke_n	n	n/a
99.6485	0.1045	199297	keystroke_g	g	n/a
100.4585	0.09	200917	keystroke_Key.enter	Key.enter	n/a
100.5545	6.1315	201109	prompt	n/a	concrete phentermine televisions lazy\n
101.178	0.135	202356	keystroke_c	c	n/a
101.2535	0.135	202507	keystroke_o	o	n/a
101.343	0.12	202686	keystroke_n	n	n/a
101.4785	0.075	202957	keystroke_c	c	n/a
101.8235	0.1345	203647	keystroke_r	r	n/a
102.2285	0.1495	204457	keystroke_e	e	n/a
102.364	0.1645	204728	keystroke_t	t	n/a
102.4835	0.195	204967	keystroke_e	e	n/a
102.603	0.15	205206	keystroke_Key.space	Key.space	n/a
102.798	0.1805	205596	keystroke_p	p	n/a
102.963	0.151	205926	keystroke_h	h	n/a
103.128	0.1505	206256	keystroke_e	e	n/a
103.263	0.135	206526	keystroke_n	n	n/a
103.4585	0.1045	206917	keystroke_t	t	n/a
103.578	0.18	207156	keystroke_e	e	n/a
103.668	0.15	207336	keystroke_r	r	n/a
103.758	0.12	207516	keystroke_m	m	n/a
103.8485	0.18	207697	keystroke_i	i	n/a
103.968	0.1805	207936	keystroke_n	n	n/a
104.1185	0.18	208237	keystroke_e	e	n/a
104.2535	0.12	208507	keystroke_Key.space	Key.space	n/a
104.6885	0.134	209377	keystroke_t	t	n/a
104.7485	0.1345	209497	keystroke_e	e	n/a
104.8835	0.105	209767	keystroke_l	l	n/a
104.9735	0.105	209947	keystroke_e	e	n/a
105.1685	0.1045	210337	keystroke_v	v	n/a
105.258	0.105	210516	keystroke_i	i	n/a
105.4075	0.091	210815	keystroke_s	s	n/a
105.4675	0.2555	210935	keystroke_i	i	n/a
105.543	0.1345	211086	keystroke_o	o	n/a
105.633	0.1505	211266	keystroke_n	n	n/a
105.7535	0.12	211507	keystroke_s	s	n/a
105.8585	0.135	211717	keystroke_Key.space	Key.space	n/a
105.9185	0.12	211837	keystroke_l	l	n/a
106.0235	0.075	212047	keystroke_a	a	n/a
106.218	0.1055	212436	keystroke_z	z	n/a
106.293	0.105	212586	keystroke_y	y	n/a
106.5635	0.1195	213127	keystroke_Key.enter	Key.enter	n/a
106.69	5.4545	213380	prompt	n/a	turtle starts independence specified\n
107.3285	0.09	214657	keystroke_t	t	n/a
107.403	0.1205	214806	keystroke_u	u	n/a
107.6135	0.09	215227	keystroke_r	r	n/a
107.8985	0.03	215797	keystroke_t	t	n/a
107.9135	0.089	215827	keystroke_l	l	n/a
107.9735	0.135	215947	keystroke_e	e	n/a
108.0475	0.121	216095	keystroke_Key.space	Key.space	n/a
108.1375	0.151	216275	keystroke_s	s	n/a
108.2725	0.1655	216545	keystroke_t	t	n/a
108.423	0.165	216846	keystroke_a	a	n/a
108.483	0.3155	216966	keystroke_r	r	n/a
108.618	0.195	217236	keystroke_t	t	n/a
108.723	0.165	217446	keystroke_s	s	n/a
108.783	0.15	217566	keystroke_Key.space	Key.space	n/a
108.9785	0.1645	217957	keystroke_i	i	n/a
109.053	0.1505	218106	keystroke_n	n	n/a
109.1885	0.164	218377	keystroke_d	d	n/a
109.3235	0.12	218647	keystroke_e	e	n/a
109.4585	0.105	218917	keystroke_p	p	n/a
109.5635	0.075	219127	keystroke_e	e	n/a
109.6675	0.106	219335	keystroke_n	n	n/a
109.7435	0.165	219487	keystroke_d	d	n/a
109.8485	0.135	219697	keystroke_e	e	n/a
109.9525	0.106	219905	keystroke_n	n	n/a
110.0585	0.195	220117	keystroke_c	c	n/a
110.178	0.1355	220356	keystroke_e	e	n/a
110.2685	0.135	220537	keystroke_Key.space	Key.space	n/a
110.3735	0.12	220747	keystroke_s	s	n/a
110.5385	0.12	221077	keystroke_p	p	n/a
110.6425	0.1665	221285	keystroke_e	e	n/a
110.734	0.1195	221468	keystroke_c	c	n/a
110.868	0.09	221736	keystroke_i	i	n/a
110.973	0.105	221946	keystroke_f	f	n/a
111.0935	0.1195	222187	keystroke_i	i	n/a
111.2285	0.1645	222457	keystroke_e	e	n/a
111.333	0.15	222666	keystroke_d	d	n/a
112.038	0.105	224076	keystroke_Key.enter	Key.enter	n/a
112.149	9.176	224298	prompt	n/a	documents product shed possibly\n
112.7435	0.135	225487	keystroke_d	d	n/a
112.8935	0.0295	225787	keystroke_u	u	n/a
113.223	0.06	226446	keystroke_Key.backspace	Key.backspace	n/a
113.388	0.0905	226776	keystroke_o	o	n/a
113.523	0.1795	227046	keystroke_c	c	n/a
113.6135	0.075	227227	keystroke_u	u	n/a
113.7935	0.105	227587	keystroke_m	m	n/a
113.8835	0.105	227767	keystroke_e	e	n/a
114.0035	0.135	228007	keystroke_n	n	n/a
114.0935	0.165	228187	keystroke_t	t	n/a
114.1985	0.15	228397	keystroke_s	s	n/a
114.2735	0.135	228547	keystroke_Key.space	Key.space	n/a
114.3935	0.12	228787	keystroke_p	p	n/a
114.4985	0.09	228997	keystroke_r	r	n/a
114.5885	0.09	229177	keystroke_o	o	n/a
114.6935	0.105	229387	keystroke_d	d	n/a
114.8435	0.1345	229687	keystroke_u	u	n/a
114.963	0.0755	229926	keystroke_c	c	n/a
115.173	0.1355	230346	keystroke_t	t	n/a
115.2335	0.15	230467	keystroke_Key.space	Key.space	n/a
115.2935	0.135	230587	keystroke_s	s	n/a
115.4135	0.105	230827	keystroke_h	h	n/a
115.5035	0.149	231007	keystroke_e	e	n/a
115.5935	0.135	231187	keystroke_d	d	n/a
115.714	0.149	231428	keystroke_p	p	n/a
115.833	0.1205	231666	keystroke_o	o	n/a
115.908	0.0755	231816	keystroke_s	s	n/a
116.043	0.09	232086	keystroke_s	s	n/a
116.3435	0.12	232687	keystroke_i	i	n/a
116.5385	0.135	233077	keystroke_b	b	n/a
117.1675	0.121	234335	keystroke_Key.backspace	Key.backspace	n/a
117.3625	0.0905	234725	keystroke_Key.backspace	Key.backspace	n/a
117.528	0.0595	235056	keystroke_Key.backspace	Key.backspace	n/a
117.6485	0.089	235297	keystroke_Key.backspace	Key.backspace	n/a
117.7985	0.089	235597	keystroke_Key.backspace	Key.backspace	n/a
117.9325	0.105	235865	keystroke_Key.backspace	Key.backspace	n/a
118.3235	0.1345	236647	keystroke_Key.space	Key.space	n/a
118.563	0.255	237126	keystroke_p	p	n/a
118.773	0.196	237546	keystroke_o	o	n/a
119.194	0.03	238388	keystroke_s	s	n/a
119.373	0.06	238746	keystroke_s	s	n/a
119.553	0.09	239106	keystroke_i	i	n/a
119.7035	0.135	239407	keystroke_b	b	n/a
119.763	0.1355	239526	keystroke_i	i	n/a
119.853	0.1655	239706	keystroke_l	l	n/a
120.003	0.1655	240006	keystroke_i	i	n/a
120.1385	0.1795	240277	keystroke_t	t	n/a
120.243	0.1355	240486	keystroke_y	y	n/a
121.233	0.09	242466	keystroke_Key.enter	Key.enter	n/a
121.3305	6.3845	242661	prompt	n/a	merchandise geneva that'll algeria\n
121.8935	0.18	243787	keystroke_m	m	n/a
122.028	0.15	244056	keystroke_e	e	n/a
122.253	0.0905	244506	keystroke_r	r	n/a
122.4485	0.1345	244897	keystroke_c	c	n/a
122.5235	0.105	245047	keystroke_h	h	n/a
122.658	0.1205	245316	keystroke_a	a	n/a
122.763	0.12	245526	keystroke_n	n	n/a
122.898	0.105	245796	keystroke_d	d	n/a
123.003	0.12	246006	keystroke_i	i	n/a
123.093	0.1805	246186	keystroke_s	s	n/a
123.198	0.135	246396	keystroke_e	e	n/a
123.258	0.135	246516	keystroke_Key.space	Key.space	n/a
123.423	0.135	246846	keystroke_g	g	n/a
123.513	0.09	247026	keystroke_e	e	n/a
123.589	0.119	247178	keystroke_n	n	n/a
123.693	0.075	247386	keystroke_e	e	n/a
123.9035	0.1495	247807	keystroke_v	v	n/a
124.038	0.135	248076	keystroke_a	a	n/a
124.098	0.135	248196	keystroke_Key.space	Key.space	n/a
124.203	0.135	248406	keystroke_t	t	n/a
124.263	0.135	248526	keystroke_h	h	n/a
124.368	0.1205	248736	keystroke_a	a	n/a
124.428	0.12	248856	keystroke_t	t	n/a
124.533	0.09	249066	keystroke_'	'	n/a
124.878	0.015	249756	keystroke_;	;	n/a
125.553	0.105	251106	keystroke_Key.backspace	Key.backspace	n/a
125.943	0.09	251886	keystroke_l	l	n/a
126.108	0.1055	252216	keystroke_l	l	n/a
126.3325	0.135	252665	keystroke_Key.space	Key.space	n/a
126.5125	0.1355	253025	keystroke_a	a	n/a
126.603	0.12	253206	keystroke_l	l	n/a
126.708	0.1505	253416	keystroke_g	g	n/a
126.8735	0.1795	253747	keystroke_e	e	n/a
126.9775	0.1655	253955	keystroke_r	r	n/a
127.0985	0.12	254197	keystroke_i	i	n/a
127.2485	0.12	254497	keystroke_a	a	n/a
127.6085	0.105	255217	keystroke_Key.enter	Key.enter	n/a
127.721	3.504	255442	prompt	n/a	tent capable cheers disc\n
128.3435	0.1195	256687	keystroke_t	t	n/a
128.4185	0.1645	256837	keystroke_e	e	n/a
128.493	0.1205	256986	keystroke_n	n	n/a
128.5685	0.135	257137	keystroke_t	t	n/a
128.6735	0.1495	257347	keystroke_Key.space	Key.space	n/a
128.8685	0.1645	257737	keystroke_c	c	n/a
129.018	0.0905	258036	keystroke_a	a	n/a
129.1225	0.1205	258245	keystroke_p	p	n/a
129.228	0.15	258456	keystroke_a	a	n/a
129.394	0.1345	258788	keystroke_b	b	n/a
129.513	0.1355	259026	keystroke_l	l	n/a
129.618	0.135	259236	keystroke_e	e	n/a
129.678	0.12	259356	keystroke_Key.space	Key.space	n/a
129.828	0.135	259656	keystroke_c	c	n/a
129.948	0.105	259896	keystroke_h	h	n/a
130.023	0.105	260046	keystroke_e	e	n/a
130.203	0.135	260406	keystroke_e	e	n/a
130.293	0.18	260586	keystroke_r	r	n/a
130.3985	0.1645	260797	keystroke_s	s	n/a
130.488	0.12	260976	keystroke_Key.space	Key.space	n/a
130.5785	0.1345	261157	keystroke_d	d	n/a
130.683	0.12	261366	keystroke_i	i	n/a
130.8185	0.12	261637	keystroke_s	s	n/a
130.908	0.135	261816	keystroke_c	c	n/a
131.103	0.12	262206	keystroke_Key.enter	Key.enter	n/a
131.229	6.056	262458	prompt	n/a	preferred ordered recommendation apparently\n
131.838	0.1205	263676	keystroke_p	p	n/a
131.8985	0.105	263797	keystroke_r	r	n/a
131.9725	0.1055	263945	keystroke_e	e	n/a
132.1085	0.1195	264217	keystroke_f	f	n/a
132.2125	0.136	264425	keystroke_e	e	n/a
132.3335	0.09	264667	keystroke_r	r	n/a
132.483	0.12	264966	keystroke_r	r	n/a
132.558	0.225	265116	keystroke_e	e	n/a
132.708	0.135	265416	keystroke_d	d	n/a
132.828	0.105	265656	keystroke_Key.space	Key.space	n/a
132.888	0.12	265776	keystroke_o	o	n/a
132.963	0.105	265926	keystroke_r	r	n/a
133.158	0.105	266316	keystroke_d	d	n/a
133.248	0.15	266496	keystroke_e	e	n/a
133.383	0.135	266766	keystroke_r	r	n/a
133.488	0.225	266976	keystroke_e	e	n/a
133.668	0.12	267336	keystroke_d	d	n/a
133.773	0.12	267546	keystroke_Key.space	Key.space	n/a
133.9385	0.09	267877	keystroke_r	r	n/a
133.9975	0.136	267995	keystroke_e	e	n/a
134.148	0.105	268296	keystroke_c	c	n/a
134.238	0.195	268476	keystroke_o	o	n/a
134.418	0.0605	268836	keystroke_m	m	n/a
134.553	0.1055	269106	keystroke_m	m	n/a
134.659	0.119	269318	keystroke_e	e	n/a
134.7635	0.1045	269527	keystroke_n	n	n/a
134.793	0.135	269586	keystroke_d	d	n/a
134.913	0.165	269826	keystroke_a	a	n/a
135.048	0.1205	270096	keystroke_t	t	n/a
135.1535	0.24	270307	keystroke_i	i	n/a
135.228	0.12	270456	keystroke_o	o	n/a
135.333	0.135	270666	keystroke_n	n	n/a
135.378	0.135	270756	keystroke_Key.space	Key.space	n/a
135.498	0.1355	270996	keystroke_a	a	n/a
135.618	0.03	271236	keystroke_p	p	n/a
135.708	0.105	271416	keystroke_p	p	n/a
135.858	0.18	271716	keystroke_a	a	n/a
135.993	0.15	271986	keystroke_r	r	n/a
136.563	0.1205	273126	keystroke_e	e	n/a
136.668	0.1195	273336	keystroke_n	n	n/a
136.758	0.1195	273516	keystroke_t	t	n/a
136.893	0.105	273786	keystroke_l	l	n/a
136.9825	0.1205	273965	keystroke_y	y	n/a
137.193	0.0895	274386	keystroke_Key.enter	Key.enter	n/a
137.2905	4.1195	274581	prompt	n/a	fails plates garbage assuming\n
137.9885	0.165	275977	keystroke_f	f	n/a
138.0635	0.134	276127	keystroke_a	a	n/a
138.1075	0.18	276215	keystroke_i	i	n/a
138.1985	0.1195	276397	keystroke_l	l	n/a
138.3325	0.136	276665	keystroke_s	s	n/a
138.393	0.1195	276786	keystroke_Key.space	Key.space	n/a
138.4685	0.21	276937	keystroke_p	p	n/a
138.6175	0.136	277235	keystroke_l	l	n/a
138.708	0.18	277416	keystroke_a	a	n/a
138.843	0.24	277686	keystroke_t	t	n/a
138.933	0.2245	277866	keystroke_e	e	n/a
139.0535	0.15	278107	keystroke_s	s	n/a
139.127	0.151	278254	keystroke_Key.space	Key.space	n/a
139.2635	0.105	278527	keystroke_g	g	n/a
139.3535	0.135	278707	keystroke_a	a	n/a
139.473	0.15	278946	keystroke_r	r	n/a
139.6085	0.105	279217	keystroke_b	b	n/a
139.893	0.1195	279786	keystroke_a	a	n/a
139.9835	0.1945	279967	keystroke_g	g	n/a
140.103	0.15	280206	keystroke_e	e	n/a
140.2225	0.135	280445	keystroke_Key.space	Key.space	n/a
140.3575	0.1205	280715	keystroke_a	a	n/a
140.4325	0.1055	280865	keystroke_s	s	n/a
140.628	0.105	281256	keystroke_s	s	n/a
140.658	0.12	281316	keystroke_u	u	n/a
140.868	0.105	281736	keystroke_m	m	n/a
140.943	0.18	281886	keystroke_i	i	n/a
141.078	0.12	282156	keystroke_n	n	n/a
141.153	0.0905	282306	keystroke_g	g	n/a
141.303	0.1045	282606	keystroke_Key.enter	Key.enter	n/a
141.415	4.135	282830	prompt	n/a	at samples deserve wheel\n
141.948	0.1355	283896	keystroke_a	a	n/a
142.084	0.1495	284168	keystroke_t	t	n/a
142.2475	0.165	284495	keystroke_Key.space	Key.space	n/a
142.4285	0.1195	284857	keystroke_s	s	n/a
142.503	0.1355	285006	keystroke_a	a	n/a
142.5635	0.1345	285127	keystroke_m	m	n/a
142.6825	0.21	285365	keystroke_p	p	n/a
142.8485	0.134	285697	keystroke_l	l	n/a
142.9835	0.2395	285967	keystroke_e	e	n/a
143.133	0.165	286266	keystroke_s	s	n/a
143.283	0.135	286566	keystroke_Key.space	Key.space	n/a
143.3885	0.18	286777	keystroke_d	d	n/a
143.478	0.21	286956	keystroke_e	e	n/a
143.5685	0.1345	287137	keystroke_s	s	n/a
143.973	0.21	287946	keystroke_e	e	n/a
144.108	0.12	288216	keystroke_r	r	n/a
144.363	0.135	288726	keystroke_v	v	n/a
144.453	0.12	288906	keystroke_e	e	n/a
144.588	0.1195	289176	keystroke_Key.space	Key.space	n/a
144.6935	0.0895	289387	keystroke_w	w	n/a
144.7535	0.119	289507	keystroke_h	h	n/a
144.858	0.075	289716	keystroke_e	e	n/a
145.008	0.135	290016	keystroke_e	e	n/a
145.1435	0.1345	290287	keystroke_l	l	n/a
145.428	0.12	290856	keystroke_Key.enter	Key.enter	n/a
145.553	4.6015	291106	prompt	n/a	calculators handed seller loud\n
146.163	0.135	292326	keystroke_c	c	n/a
146.433	0.15	292866	keystroke_a	a	n/a
146.538	0.12	293076	keystroke_l	l	n/a
146.6435	0.18	293287	keystroke_c	c	n/a
147.018	0.1955	294036	keystroke_u	u	n/a
147.123	0.1355	294246	keystroke_l	l	n/a
147.2435	0.164	294487	keystroke_a	a	n/a
147.3185	0.1345	294637	keystroke_t	t	n/a
147.4225	0.151	294845	keystroke_o	o	n/a
147.543	0.2545	295086	keystroke_r	r	n/a
147.6935	0.12	295387	keystroke_s	s	n/a
147.7825	0.1355	295565	keystroke_Key.space	Key.space	n/a
147.888	0.1055	295776	keystroke_h	h	n/a
147.963	0.105	295926	keystroke_a	a	n/a
148.0975	0.15	296195	keystroke_n	n	n/a
148.203	0.1345	296406	keystroke_d	d	n/a
148.323	0.15	296646	keystroke_e	e	n/a
148.4275	0.135	296855	keystroke_d	d	n/a
148.5025	0.15	297005	keystroke_Key.space	Key.space	n/a
148.593	0.1505	297186	keystroke_s	s	n/a
148.668	0.135	297336	keystroke_e	e	n/a
148.758	0.06	297516	keystroke_l	l	n/a
148.8775	0.1205	297755	keystroke_l	l	n/a
148.9825	0.1205	297965	keystroke_e	e	n/a
149.043	0.135	298086	keystroke_r	r	n/a
149.1325	0.165	298265	keystroke_Key.space	Key.space	n/a
149.4025	0.105	298805	keystroke_l	l	n/a
149.5975	0.18	299195	keystroke_o	o	n/a
149.6875	0.166	299375	keystroke_u	u	n/a
149.8385	0.12	299677	keystroke_d	d	n/a
150.033	0.1195	300066	keystroke_Key.enter	Key.enter	n/a
150.1615	4.7485	300323	prompt	n/a	firewall bracelets fitness carrier\n
150.7235	0.1195	301447	keystroke_f	f	n/a
150.8275	0.15	301655	keystroke_i	i	n/a
150.9635	0.1495	301927	keystroke_r	r	n/a
151.038	0.135	302076	keystroke_e	e	n/a
151.218	0.255	302436	keystroke_w	w	n/a
151.413	0.1655	302826	keystroke_a	a	n/a
151.5625	0.0755	303125	keystroke_l	l	n/a
151.713	0.1345	303426	keystroke_l	l	n/a
151.8485	0.134	303697	keystroke_Key.space	Key.space	n/a
152.043	0.1355	304086	keystroke_b	b	n/a
152.1175	0.105	304235	keystroke_r	r	n/a
152.2075	0.1655	304415	keystroke_a	a	n/a
152.3435	0.1645	304687	keystroke_c	c	n/a
152.463	0.1045	304926	keystroke_e	e	n/a
152.5375	0.1055	305075	keystroke_l	l	n/a
152.6875	0.1505	305375	keystroke_e	e	n/a
152.8075	0.1805	305615	keystroke_t	t	n/a
152.928	0.135	305856	keystroke_s	s	n/a
153.0025	0.1495	306005	keystroke_Key.space	Key.space	n/a
153.138	0.105	306276	keystroke_f	f	n/a
153.2135	0.0895	306427	keystroke_i	i	n/a
153.333	0.1055	306666	keystroke_t	t	n/a
153.423	0.1355	306846	keystroke_n	n	n/a
153.513	0.12	307026	keystroke_e	e	n/a
153.5885	0.1045	307177	keystroke_s	s	n/a
153.768	0.12	307536	keystroke_s	s	n/a
153.828	0.15	307656	keystroke_Key.space	Key.space	n/a
153.917	0.151	307834	keystroke_c	c	n/a
154.053	0.105	308106	keystroke_a	a	n/a
154.188	0.09	308376	keystroke_r	r	n/a
154.3675	0.135	308735	keystroke_r	r	n/a
154.488	0.1205	308976	keystroke_i	i	n/a
154.563	0.1195	309126	keystroke_e	e	n/a
154.6375	0.105	309275	keystroke_r	r	n/a
154.7875	0.12	309575	keystroke_Key.enter	Key.enter	n/a
154.914	4.196	309828	prompt	n/a	movers marc corresponding bind\n
155.4485	0.2095	310897	keystroke_m	m	n/a
155.583	0.135	311166	keystroke_o	o	n/a
155.8525	0.121	311705	keystroke_v	v	n/a
156.018	0.1345	312036	keystroke_e	e	n/a
156.1225	0.21	312245	keystroke_r	r	n/a
156.2275	0.15	312455	keystroke_s	s	n/a
156.3175	0.15	312635	keystroke_Key.space	Key.space	n/a
156.393	0.12	312786	keystroke_m	m	n/a
156.5275	0.105	313055	keystroke_a	a	n/a
156.5725	0.09	313145	keystroke_r	r	n/a
156.8275	0.105	313655	keystroke_c	c	n/a
156.9625	0.0755	313925	keystroke_Key.space	Key.space	n/a
157.053	0.105	314106	keystroke_c	c	n/a
157.113	0.1195	314226	keystroke_o	o	n/a
157.2625	0.076	314525	keystroke_r	r	n/a
157.4285	0.164	314857	keystroke_r	r	n/a
157.4725	0.2105	314945	keystroke_e	e	n/a
157.5775	0.1505	315155	keystroke_s	s	n/a
157.6375	0.1795	315275	keystroke_p	p	n/a
157.743	0.1355	315486	keystroke_o	o	n/a
157.8335	0.12	315667	keystroke_n	n	n/a
157.9535	0.0895	315907	keystroke_d	d	n/a
158.028	0.15	316056	keystroke_i	i	n/a
158.1335	0.1345	316267	keystroke_n	n	n/a
158.193	0.1345	316386	keystroke_g	g	n/a
158.283	0.1345	316566	keystroke_Key.space	Key.space	n/a
158.4335	0.12	316867	keystroke_b	b	n/a
158.538	0.1945	317076	keystroke_i	i	n/a
158.688	0.1495	317376	keystroke_n	n	n/a
158.8525	0.09	317705	keystroke_d	d	n/a
158.9875	0.12	317975	keystroke_Key.enter	Key.enter	n/a
159.114	7.376	318228	prompt	n/a	correspondence functionality outstanding northeast\n
159.8125	0.1055	319625	keystroke_c	c	n/a
159.918	0.135	319836	keystroke_o	o	n/a
160.0685	0.0595	320137	keystroke_r	r	n/a
160.203	0.18	320406	keystroke_r	r	n/a
160.263	0.195	320526	keystroke_e	e	n/a
160.398	0.15	320796	keystroke_s	s	n/a
160.4735	0.1795	320947	keystroke_p	p	n/a
160.608	0.105	321216	keystroke_o	o	n/a
160.668	0.12	321336	keystroke_n	n	n/a
160.773	0.1345	321546	keystroke_d	d	n/a
160.8775	0.15	321755	keystroke_e	e	n/a
161.013	0.1205	322026	keystroke_n	n	n/a
161.118	0.18	322236	keystroke_c	c	n/a
161.253	0.12	322506	keystroke_e	e	n/a
161.3575	0.135	322715	keystroke_Key.space	Key.space	n/a
161.4775	0.1055	322955	keystroke_f	f	n/a
161.5375	0.1355	323075	keystroke_u	u	n/a
161.6135	0.134	323227	keystroke_n	n	n/a
161.7035	0.089	323407	keystroke_c	c	n/a
161.9125	0.105	323825	keystroke_t	t	n/a
161.958	0.255	323916	keystroke_i	i	n/a
162.033	0.135	324066	keystroke_o	o	n/a
162.123	0.15	324246	keystroke_n	n	n/a
162.258	0.135	324516	keystroke_a	a	n/a
162.363	0.135	324726	keystroke_l	l	n/a
162.453	0.1355	324906	keystroke_i	i	n/a
162.5885	0.1795	325177	keystroke_t	t	n/a
162.693	0.15	325386	keystroke_y	y	n/a
162.798	0.135	325596	keystroke_Key.space	Key.space	n/a
162.9635	0.1345	325927	keystroke_o	o	n/a
163.053	0.1345	326106	keystroke_u	u	n/a
163.128	0.1495	326256	keystroke_t	t	n/a
163.2325	0.151	326465	keystroke_s	s	n/a
163.4125	0.105	326825	keystroke_t	t	n/a
163.9835	0.135	327967	keystroke_a	a	n/a
164.103	0.12	328206	keystroke_n	n	n/a
164.2385	0.1195	328477	keystroke_d	d	n/a
164.328	0.1355	328656	keystroke_i	i	n/a
164.4035	0.1345	328807	keystroke_n	n	n/a
164.478	0.1355	328956	keystroke_g	g	n/a
164.583	0.12	329166	keystroke_Key.space	Key.space	n/a
164.7635	0.1645	329527	keystroke_n	n	n/a
164.8535	0.1195	329707	keystroke_o	o	n/a
164.9125	0.1655	329825	keystroke_r	r	n/a
164.9875	0.105	329975	keystroke_e	e	n/a
165.4375	0.09	330875	keystroke_Key.backspace	Key.backspace	n/a
165.6325	0.12	331265	keystroke_t	t	n/a
165.7075	0.1355	331415	keystroke_h	h	n/a
165.8285	0.1795	331657	keystroke_e	e	n/a
165.933	0.21	331866	keystroke_a	a	n/a
166.083	0.165	332166	keystroke_s	s	n/a
166.218	0.105	332436	keystroke_t	t	n/a
166.353	0.135	332706	keystroke_Key.enter	Key.enter	n/a
166.4935	5.816	332987	prompt	n/a	stations famous calculation ranger\n
167.118	0.12	334236	keystroke_s	s	n/a
167.208	0.12	334416	keystroke_t	t	n/a
167.343	0.12	334686	keystroke_a	a	n/a
167.4185	0.1345	334837	keystroke_t	t	n/a
167.4635	0.24	334927	keystroke_i	i	n/a
167.5385	0.104	335077	keystroke_o	o	n/a
167.613	0.1345	335226	keystroke_n	n	n/a
167.6885	0.12	335377	keystroke_s	s	n/a
167.7325	0.15	335465	keystroke_Key.space	Key.space	n/a
167.823	0.165	335646	keystroke_f	f	n/a
167.943	0.1055	335886	keystroke_a	a	n/a
167.9585	0.1195	335917	keystroke_m	m	n/a
168.063	0.1795	336126	keystroke_o	o	n/a
168.1685	0.1345	336337	keystroke_u	u	n/a
168.2725	0.1205	336545	keystroke_s	s	n/a
168.3175	0.1355	336635	keystroke_Key.space	Key.space	n/a
168.423	0.1495	336846	keystroke_c	c	n/a
168.543	0.1045	337086	keystroke_l	l	n/a
168.5575	0.1205	337115	keystroke_a	a	n/a
168.663	0.1645	337326	keystroke_c	c	n/a
168.7975	0.1655	337595	keystroke_u	u	n/a
168.873	0.135	337746	keystroke_l	l	n/a
169.0225	0.0305	338045	keystroke_a	a	n/a
169.2025	0.106	338405	keystroke_Key.backspace	Key.backspace	n/a
169.383	0.075	338766	keystroke_Key.backspace	Key.backspace	n/a
169.533	0.03	339066	keystroke_Key.backspace	Key.backspace	n/a
169.653	0.06	339306	keystroke_Key.backspace	Key.backspace	n/a
169.773	0.06	339546	keystroke_Key.backspace	Key.backspace	n/a
169.893	0.09	339786	keystroke_Key.backspace	Key.backspace	n/a
169.998	0.12	339996	keystroke_a	a	n/a
170.088	0.1355	340176	keystroke_l	l	n/a
170.283	0.135	340566	keystroke_c	c	n/a
170.433	0.15	340866	keystroke_u	u	n/a
170.553	0.165	341106	keystroke_l	l	n/a
170.7335	0.1195	341467	keystroke_a	a	n/a
170.778	0.15	341556	keystroke_t	t	n/a
170.883	0.225	341766	keystroke_i	i	n/a
170.943	0.135	341886	keystroke_o	o	n/a
171.048	0.1345	342096	keystroke_n	n	n/a
171.168	0.1195	342336	keystroke_Key.space	Key.space	n/a
171.3175	0.121	342635	keystroke_n	n	n/a
171.588	0.0745	343176	keystroke_Key.backspace	Key.backspace	n/a
171.6775	0.105	343355	keystroke_r	r	n/a
171.7525	0.1205	343505	keystroke_a	a	n/a
171.7975	0.12	343595	keystroke_n	n	n/a
171.9185	0.1795	343837	keystroke_g	g	n/a
172.0075	0.1505	344015	keystroke_e	e	n/a
172.1125	0.1055	344225	keystroke_r	r	n/a
172.203	0.105	344406	keystroke_Key.enter	Key.enter	n/a
172.3145	7.585	344629	prompt	n/a	party trackbacks governments desperate\n
172.9685	0.135	345937	keystroke_p	p	n/a
173.343	0.1355	346686	keystroke_a	a	n/a
173.403	0.0895	346806	keystroke_r	r	n/a
173.598	0.12	347196	keystroke_t	t	n/a
173.7025	0.09	347405	keystroke_y	y	n/a
173.8525	0.12	347705	keystroke_Key.space	Key.space	n/a
173.9875	0.1655	347975	keystroke_t	t	n/a
174.048	0.3305	348096	keystroke_r	r	n/a
174.288	0.18	348576	keystroke_a	a	n/a
174.5885	0.149	349177	keystroke_c	c	n/a
174.7225	0.075	349445	keystroke_k	k	n/a
174.903	0.1045	349806	keystroke_b	b	n/a
175.023	0.12	350046	keystroke_a	a	n/a
175.068	0.15	350136	keystroke_c	c	n/a
175.233	0.105	350466	keystroke_k	k	n/a
175.323	0.1355	350646	keystroke_s	s	n/a
175.368	0.135	350736	keystroke_Key.space	Key.space	n/a
175.473	0.075	350946	keystroke_g	g	n/a
175.563	0.1505	351126	keystroke_o	o	n/a
175.698	0.165	351396	keystroke_v	v	n/a
175.758	0.1655	351516	keystroke_e	e	n/a
175.863	0.105	351726	keystroke_r	r	n/a
175.953	0.09	351906	keystroke_n	n	n/a
176.178	0.1195	352356	keystroke_m	m	n/a
176.3275	0.12	352655	keystroke_e	e	n/a
176.4175	0.1355	352835	keystroke_n	n	n/a
176.5375	0.15	353075	keystroke_t	t	n/a
177.423	0.1045	354846	keystroke_s	s	n/a
177.8425	0.1055	355685	keystroke_Key.space	Key.space	n/a
178.413	0.18	356826	keystroke_d	d	n/a
178.4875	0.166	356975	keystroke_e	e	n/a
178.608	0.1205	357216	keystroke_s	s	n/a
178.7125	0.12	357425	keystroke_p	p	n/a
178.8025	0.15	357605	keystroke_e	e	n/a
178.908	0.1805	357816	keystroke_r	r	n/a
179.388	0.15	358776	keystroke_a	a	n/a
179.493	0.165	358986	keystroke_t	t	n/a
179.598	0.135	359196	keystroke_e	e	n/a
179.778	0.1195	359556	keystroke_Key.enter	Key.enter	n/a
179.904	3.386	359808	prompt	n/a	burton sending invest our\n
180.5885	0.1645	361177	keystroke_b	b	n/a
180.678	0.12	361356	keystroke_u	u	n/a
180.813	0.09	361626	keystroke_r	r	n/a
181.0235	0.089	362047	keystroke_t	t	n/a
181.0825	0.166	362165	keystroke_o	o	n/a
181.1725	0.1355	362345	keystroke_n	n	n/a
181.233	0.15	362466	keystroke_Key.space	Key.space	n/a
181.323	0.165	362646	keystroke_s	s	n/a
181.4285	0.1045	362857	keystroke_e	e	n/a
181.503	0.105	363006	keystroke_n	n	n/a
181.653	0.1045	363306	keystroke_d	d	n/a
181.7435	0.134	363487	keystroke_i	i	n/a
181.8335	0.1045	363667	keystroke_n	n	n/a
181.8785	0.12	363757	keystroke_g	g	n/a
181.968	0.1795	363936	keystroke_Key.space	Key.space	n/a
182.0425	0.09	364085	keystroke_i	i	n/a
182.1025	0.12	364205	keystroke_n	n	n/a
182.1775	0.165	364355	keystroke_v	v	n/a
182.3575	0.315	364715	keystroke_e	e	n/a
182.5235	0.164	365047	keystroke_s	s	n/a
182.643	0.15	365286	keystroke_t	t	n/a
182.748	0.1195	365496	keystroke_Key.space	Key.space	n/a
182.8085	0.1645	365617	keystroke_o	o	n/a
182.9125	0.106	365825	keystroke_u	u	n/a
182.9875	0.1055	365975	keystroke_r	r	n/a
183.1525	0.135	366305	keystroke_Key.enter	Key.enter	n/a
183.294	4.061	366588	prompt	n/a	seven communist dated costumes\n
183.8585	0.1345	367717	keystroke_s	s	n/a
183.932	0.1065	367864	keystroke_e	e	n/a
184.1125	0.151	368225	keystroke_v	v	n/a
184.2025	0.151	368405	keystroke_e	e	n/a
184.3385	0.1195	368677	keystroke_n	n	n/a
184.3675	0.1355	368735	keystroke_Key.space	Key.space	n/a
184.488	0.135	368976	keystroke_c	c	n/a
184.578	0.1355	369156	keystroke_o	o	n/a
184.698	0.09	369396	keystroke_m	m	n/a
184.863	0.075	369726	keystroke_m	m	n/a
184.9835	0.1495	369967	keystroke_u	u	n/a
185.088	0.225	370176	keystroke_n	n	n/a
185.2685	0.12	370537	keystroke_i	i	n/a
185.3725	0.181	370745	keystroke_s	s	n/a
185.4635	0.105	370927	keystroke_t	t	n/a
185.538	0.1495	371076	keystroke_Key.space	Key.space	n/a
185.7025	0.12	371405	keystroke_d	d	n/a
185.7775	0.1955	371555	keystroke_a	a	n/a
185.943	0.135	371886	keystroke_t	t	n/a
186.048	0.195	372096	keystroke_e	e	n/a
186.168	0.1355	372336	keystroke_d	d	n/a
186.273	0.12	372546	keystroke_Key.space	Key.space	n/a
186.378	0.1355	372756	keystroke_c	c	n/a
186.453	0.105	372906	keystroke_o	o	n/a
186.573	0.12	373146	keystroke_s	s	n/a
186.6635	0.1045	373327	keystroke_t	t	n/a
186.723	0.105	373446	keystroke_u	u	n/a
186.918	0.105	373836	keystroke_m	m	n/a
187.008	0.135	374016	keystroke_e	e	n/a
187.083	0.12	374166	keystroke_s	s	n/a
187.248	0.105	374496	keystroke_Key.enter	Key.enter	n/a
187.358	7.167	374716	prompt	n/a	heads cambodia mainstream thomson\n
189.123	0.12	378246	keystroke_h	h	n/a
189.1985	0.2095	378397	keystroke_e	e	n/a
189.303	0.1655	378606	keystroke_a	a	n/a
189.409	0.1345	378818	keystroke_d	d	n/a
189.513	0.12	379026	keystroke_s	s	n/a
189.558	0.1495	379116	keystroke_Key.space	Key.space	n/a
189.6775	0.15	379355	keystroke_c	c	n/a
189.813	0.12	379626	keystroke_a	a	n/a
189.888	0.12	379776	keystroke_m	m	n/a
190.0235	0.1195	380047	keystroke_b	b	n/a
190.143	0.135	380286	keystroke_o	o	n/a
190.353	0.12	380706	keystroke_d	d	n/a
190.458	0.12	380916	keystroke_i	i	n/a
190.638	0.135	381276	keystroke_a	a	n/a
190.803	0.165	381606	keystroke_Key.space	Key.space	n/a
191.118	0.135	382236	keystroke_m	m	n/a
191.223	0.1645	382446	keystroke_a	a	n/a
191.3425	0.15	382685	keystroke_i	i	n/a
191.433	0.1345	382866	keystroke_n	n	n/a
191.5235	0.134	383047	keystroke_s	s	n/a
191.6425	0.1805	383285	keystroke_t	t	n/a
191.7325	0.195	383465	keystroke_r	r	n/a
191.8525	0.136	383705	keystroke_a	a	n/a
192.4225	0.1055	384845	keystroke_Key.backspace	Key.backspace	n/a
192.648	0.18	385296	keystroke_e	e	n/a
192.768	0.135	385536	keystroke_a	a	n/a
192.858	0.135	385716	keystroke_m	m	n/a
193.008	0.12	386016	keystroke_Key.space	Key.space	n/a
193.323	0.09	386646	keystroke_t	t	n/a
193.443	0.135	386886	keystroke_h	h	n/a
193.563	0.1955	387126	keystroke_o	o	n/a
193.728	0.1055	387456	keystroke_m	m	n/a
193.878	0.15	387756	keystroke_s	s	n/a
193.953	0.15	387906	keystroke_o	o	n/a
194.043	0.135	388086	keystroke_n	n	n/a
194.403	0.12	388806	keystroke_Key.enter	Key.enter	n/a
194.529	5.1255	389058	prompt	n/a	effectively saudi he've assume\n
195.093	0.12	390186	keystroke_e	e	n/a
195.273	0.09	390546	keystroke_f	f	n/a
195.423	0.09	390846	keystroke_f	f	n/a
195.468	0.18	390936	keystroke_e	e	n/a
195.693	0.0295	391386	keystroke_c	c	n/a
195.9025	0.1205	391805	keystroke_t	t	n/a
196.0375	0.12	392075	keystroke_i	i	n/a
196.1585	0.12	392317	keystroke_v	v	n/a
196.2335	0.15	392467	keystroke_e	e	n/a
196.3685	0.135	392737	keystroke_l	l	n/a
196.5195	0.1485	393039	keystroke_y	y	n/a
196.743	0.18	393486	keystroke_Key.space	Key.space	n/a
197.028	0.1645	394056	keystroke_s	s	n/a
197.133	0.165	394266	keystroke_a	a	n/a
197.2525	0.106	394505	keystroke_u	u	n/a
197.433	0.1045	394866	keystroke_d	d	n/a
197.5825	0.15	395165	keystroke_i	i	n/a
197.8075	0.105	395615	keystroke_Key.space	Key.space	n/a
197.8995	0.1635	395799	keystroke_h	h	n/a
198.003	0.105	396006	keystroke_e	e	n/a
198.168	0.15	396336	keystroke_'	'	n/a
198.348	0.105	396696	keystroke_v	v	n/a
198.408	0.105	396816	keystroke_e	e	n/a
198.528	0.12	397056	keystroke_Key.space	Key.space	n/a
198.663	0.15	397326	keystroke_a	a	n/a
198.738	0.1205	397476	keystroke_s	s	n/a
198.9335	0.1195	397867	keystroke_s	s	n/a
199.0085	0.09	398017	keystroke_u	u	n/a
199.203	0.1345	398406	keystroke_m	m	n/a
199.353	0.105	398706	keystroke_e	e	n/a
199.548	0.105	399096	keystroke_Key.enter	Key.enter	n/a
199.6595	3.6555	399319	prompt	n/a	thomas foto funded powerful\n
200.433	0.12	400866	keystroke_t	t	n/a
200.493	0.165	400986	keystroke_h	h	n/a
200.628	0.1945	401256	keystroke_o	o	n/a
200.7935	0.1345	401587	keystroke_m	m	n/a
200.9125	0.1655	401825	keystroke_a	a	n/a
200.9875	0.1655	401975	keystroke_s	s	n/a
201.1075	0.135	402215	keystroke_Key.space	Key.space	n/a
201.1825	0.1205	402365	keystroke_f	f	n/a
201.2875	0.075	402575	keystroke_o	o	n/a
201.4075	0.1355	402815	keystroke_t	t	n/a
201.483	0.1055	402966	keystroke_o	o	n/a
201.5725	0.18	403145	keystroke_Key.space	Key.space	n/a
201.7235	0.12	403447	keystroke_f	f	n/a
201.8285	0.119	403657	keystroke_u	u	n/a
201.8875	0.15	403775	keystroke_n	n	n/a
201.9625	0.136	403925	keystroke_d	d	n/a
202.0825	0.1805	404165	keystroke_e	e	n/a
202.203	0.1495	404406	keystroke_d	d	n/a
202.278	0.15	404556	keystroke_Key.space	Key.space	n/a
202.368	0.15	404736	keystroke_p	p	n/a
202.458	0.1055	404916	keystroke_o	o	n/a
202.4735	0.1645	404947	keystroke_w	w	n/a
202.578	0.105	405156	keystroke_e	e	n/a
202.623	0.075	405246	keystroke_r	r	n/a
202.803	0.105	405606	keystroke_f	f	n/a
202.863	0.1655	405726	keystroke_u	u	n/a
202.938	0.1205	405876	keystroke_l	l	n/a
203.2075	0.105	406415	keystroke_Key.enter	Key.enter	n/a
203.3195	3.9105	406639	prompt	n/a	produced crossing happy triple\n
203.8985	0.12	407797	keystroke_p	p	n/a
204.0335	0.105	408067	keystroke_r	r	n/a
204.0935	0.12	408187	keystroke_o	o	n/a
204.2585	0.03	408517	keystroke_d	d	n/a
204.3335	0.134	408667	keystroke_u	u	n/a
204.4385	0.105	408877	keystroke_c	c	n/a
204.5735	0.18	409147	keystroke_e	e	n/a
204.6635	0.12	409327	keystroke_d	d	n/a
204.7385	0.1495	409477	keystroke_Key.space	Key.space	n/a
204.8735	0.1495	409747	keystroke_c	c	n/a
204.978	0.12	409956	keystroke_r	r	n/a
205.038	0.105	410076	keystroke_o	o	n/a
205.158	0.075	410316	keystroke_s	s	n/a
205.323	0.12	410646	keystroke_s	s	n/a
205.413	0.165	410826	keystroke_i	i	n/a
205.518	0.1055	411036	keystroke_n	n	n/a
205.533	0.1655	411066	keystroke_g	g	n/a
205.638	0.105	411276	keystroke_Key.space	Key.space	n/a
205.728	0.165	411456	keystroke_h	h	n/a
205.863	0.12	411726	keystroke_a	a	n/a
205.953	0.0755	411906	keystroke_p	p	n/a
206.1185	0.1045	412237	keystroke_p	p	n/a
206.1625	0.136	412325	keystroke_y	y	n/a
206.268	0.1655	412536	keystroke_Key.space	Key.space	n/a
206.388	0.151	412776	keystroke_t	t	n/a
206.4635	0.1345	412927	keystroke_r	r	n/a
206.5085	0.12	413017	keystroke_i	i	n/a
206.658	0.27	413316	keystroke_p	p	n/a
206.852	0.166	413704	keystroke_l	l	n/a
206.973	0.15	413946	keystroke_e	e	n/a
207.182	0.046	414364	keystroke_Key.enter	Key.enter	n/a
207.234	5.3055	414468	prompt	n/a	cambridge chem helpful lewis\n
207.8275	0.1655	415655	keystroke_c	c	n/a
207.963	0.1355	415926	keystroke_a	a	n/a
208.038	0.0455	416076	keystroke_m	m	n/a
208.2185	0.134	416437	keystroke_b	b	n/a
208.323	0.1195	416646	keystroke_r	r	n/a
208.4735	0.12	416947	keystroke_i	i	n/a
208.578	0.1195	417156	keystroke_d	d	n/a
208.8325	0.151	417665	keystroke_g	g	n/a
208.9225	0.165	417845	keystroke_e	e	n/a
209.0725	0.1355	418145	keystroke_Key.space	Key.space	n/a
209.3585	0.149	418717	keystroke_c	c	n/a
209.5385	0.1045	419077	keystroke_h	h	n/a
209.6725	0.1205	419345	keystroke_e	e	n/a
209.823	0.1495	419646	keystroke_m	m	n/a
209.958	0.1345	419916	keystroke_Key.space	Key.space	n/a
210.1675	0.105	420335	keystroke_h	h	n/a
210.2575	0.12	420515	keystroke_e	e	n/a
210.4235	0.134	420847	keystroke_l	l	n/a
210.4835	0.135	420967	keystroke_p	p	n/a
210.7235	0.1495	421447	keystroke_f	f	n/a
210.8435	0.1795	421687	keystroke_u	u	n/a
210.963	0.1205	421926	keystroke_l	l	n/a
211.0675	0.1205	422135	keystroke_Key.space	Key.space	n/a
211.2485	0.075	422497	keystroke_f	f	n/a
211.713	0.135	423426	keystroke_Key.backspace	Key.backspace	n/a
211.908	0.1205	423816	keystroke_l	l	n/a
211.938	0.1505	423876	keystroke_e	e	n/a
212.0285	0.0895	424057	keystroke_w	w	n/a
212.133	0.12	424266	keystroke_i	i	n/a
212.268	0.075	424536	keystroke_s	s	n/a
212.418	0.12	424836	keystroke_Key.enter	Key.enter	n/a
212.546	5.3645	425092	prompt	n/a	shares courses provided terror\n
213.2135	0.104	426427	keystroke_s	s	n/a
213.2885	0.12	426577	keystroke_h	h	n/a
213.4085	0.134	426817	keystroke_a	a	n/a
213.498	0.2105	426996	keystroke_r	r	n/a
213.588	0.1955	427176	keystroke_e	e	n/a
213.6935	0.1495	427387	keystroke_s	s	n/a
213.7225	0.1505	427445	keystroke_Key.space	Key.space	n/a
213.888	0.1055	427776	keystroke_c	c	n/a
213.9625	0.151	427925	keystroke_o	o	n/a
214.0675	0.12	428135	keystroke_u	u	n/a
214.1425	0.1505	428285	keystroke_r	r	n/a
214.263	0.165	428526	keystroke_s	s	n/a
214.398	0.2105	428796	keystroke_e	e	n/a
214.5325	0.1355	429065	keystroke_s	s	n/a
214.6085	0.1195	429217	keystroke_Key.space	Key.space	n/a
214.6825	0.09	429365	keystroke_p	p	n/a
214.818	0.0905	429636	keystroke_r	r	n/a
214.9535	0.1045	429907	keystroke_o	o	n/a
215.058	0.1045	430116	keystroke_v	v	n/a
215.1785	0.135	430357	keystroke_i	i	n/a
215.2835	0.105	430567	keystroke_e	e	n/a
215.3725	0.211	430745	keystroke_d	d	n/a
215.8085	0.1495	431617	keystroke_e	e	n/a
215.897	0.151	431794	keystroke_d	d	n/a
216.182	0.075	432364	keystroke_Key.backspace	Key.backspace	n/a
216.347	0.061	432694	keystroke_Key.backspace	Key.backspace	n/a
216.4825	0.06	432965	keystroke_Key.backspace	Key.backspace	n/a
216.617	0.121	433234	keystroke_Key.backspace	Key.backspace	n/a
216.693	0.1205	433386	keystroke_d	d	n/a
216.798	0.165	433596	keystroke_e	e	n/a
216.903	0.1205	433806	keystroke_d	d	n/a
217.007	0.121	434014	keystroke_Key.space	Key.space	n/a
217.158	0.0895	434316	keystroke_t	t	n/a
217.2175	0.151	434435	keystroke_e	e	n/a
217.3385	0.075	434677	keystroke_r	r	n/a
217.488	0.1055	434976	keystroke_r	r	n/a
217.5625	0.12	435125	keystroke_o	o	n/a
217.6835	0.09	435367	keystroke_r	r	n/a
217.818	0.09	435636	keystroke_Key.enter	Key.enter	n/a
217.915	5.0195	435830	prompt	n/a	thumbs tramadol arguments shipments\n
218.5835	0.15	437167	keystroke_t	t	n/a
218.643	0.135	437286	keystroke_h	h	n/a
218.8085	0.135	437617	keystroke_u	u	n/a
219.0185	0.1195	438037	keystroke_m	m	n/a
219.108	0.1645	438216	keystroke_b	b	n/a
219.2285	0.15	438457	keystroke_s	s	n/a
219.2875	0.1505	438575	keystroke_Key.space	Key.space	n/a
219.4685	0.15	438937	keystroke_t	t	n/a
219.5135	0.284	439027	keystroke_r	r	n/a
219.6775	0.165	439355	keystroke_a	a	n/a
219.8285	0.1345	439657	keystroke_m	m	n/a
219.933	0.1355	439866	keystroke_a	a	n/a
220.0825	0.151	440165	keystroke_d	d	n/a
220.1875	0.166	440375	keystroke_o	o	n/a
220.323	0.18	440646	keystroke_l	l	n/a
220.4875	0.105	440975	keystroke_Key.space	Key.space	n/a
220.563	0.135	441126	keystroke_a	a	n/a
220.668	0.045	441336	keystroke_r	r	n/a
220.8325	0.12	441665	keystroke_g	g	n/a
220.8935	0.074	441787	keystroke_u	u	n/a
221.1025	0.075	442205	keystroke_m	m	n/a
221.1935	0.1195	442387	keystroke_e	e	n/a
221.3285	0.1495	442657	keystroke_n	n	n/a
221.463	0.165	442926	keystroke_t	t	n/a
221.583	0.12	443166	keystroke_s	s	n/a
221.673	0.165	443346	keystroke_Key.space	Key.space	n/a
221.793	0.135	443586	keystroke_s	s	n/a
221.868	0.195	443736	keystroke_h	h	n/a
221.9735	0.1795	443947	keystroke_i	i	n/a
222.048	0.135	444096	keystroke_p	p	n/a
222.258	0.12	444516	keystroke_m	m	n/a
222.393	0.1205	444786	keystroke_e	e	n/a
222.4985	0.135	444997	keystroke_n	n	n/a
222.6185	0.1345	445237	keystroke_t	t	n/a
222.7235	0.1045	445447	keystroke_s	s	n/a
222.813	0.12	445626	keystroke_Key.enter	Key.enter	n/a
222.94	5.6495	445880	prompt	n/a	accounting represents failing yarn\n
223.458	0.135	446916	keystroke_a	a	n/a
223.562	0.121	447124	keystroke_c	c	n/a
223.773	0.0905	447546	keystroke_c	c	n/a
223.818	0.18	447636	keystroke_o	o	n/a
223.908	0.135	447816	keystroke_u	u	n/a
223.9685	0.12	447937	keystroke_n	n	n/a
224.0585	0.09	448117	keystroke_t	t	n/a
224.1785	0.1345	448357	keystroke_i	i	n/a
224.253	0.1195	448506	keystroke_n	n	n/a
224.298	0.1045	448596	keystroke_g	g	n/a
224.388	0.1505	448776	keystroke_Key.space	Key.space	n/a
224.5075	0.165	449015	keystroke_r	r	n/a
224.5685	0.18	449137	keystroke_e	e	n/a
224.6885	0.164	449377	keystroke_s	s	n/a
224.7625	0.1355	449525	keystroke_p	p	n/a
225.513	0.06	451026	keystroke_Key.backspace	Key.backspace	n/a
225.663	0.045	451326	keystroke_Key.backspace	Key.backspace	n/a
225.8435	0.1345	451687	keystroke_p	p	n/a
225.933	0.1655	451866	keystroke_r	r	n/a
225.9935	0.1345	451987	keystroke_e	e	n/a
226.0835	0.255	452167	keystroke_s	s	n/a
226.233	0.15	452466	keystroke_e	e	n/a
226.353	0.12	452706	keystroke_n	n	n/a
226.488	0.195	452976	keystroke_t	t	n/a
226.608	0.1495	453216	keystroke_s	s	n/a
226.6975	0.15	453395	keystroke_Key.space	Key.space	n/a
226.8035	0.1645	453607	keystroke_f	f	n/a
226.9075	0.135	453815	keystroke_a	a	n/a
226.9825	0.1055	453965	keystroke_i	i	n/a
227.0575	0.2105	454115	keystroke_l	l	n/a
227.223	0.225	454446	keystroke_i	i	n/a
227.358	0.195	454716	keystroke_n	n	n/a
227.718	0.1505	455436	keystroke_g	g	n/a
227.808	0.15	455616	keystroke_Key.space	Key.space	n/a
227.9735	0.0895	455947	keystroke_y	y	n/a
228.093	0.135	456186	keystroke_a	a	n/a
228.153	0.1655	456306	keystroke_r	r	n/a
228.243	0.135	456486	keystroke_n	n	n/a
228.468	0.12	456936	keystroke_Key.enter	Key.enter	n/a
228.595	4.826	457190	prompt	n/a	grade novelty monitors who'll\n
229.158	0.1505	458316	keystroke_g	g	n/a
229.2335	0.135	458467	keystroke_r	r	n/a
229.353	0.1805	458706	keystroke_a	a	n/a
229.4885	0.1795	458977	keystroke_d	d	n/a
229.548	0.15	459096	keystroke_e	e	n/a
229.653	0.1195	459306	keystroke_Key.space	Key.space	n/a
229.683	0.1495	459366	keystroke_n	n	n/a
229.788	0.075	459576	keystroke_o	o	n/a
229.848	0.1355	459696	keystroke_v	v	n/a
229.9235	0.1495	459847	keystroke_e	e	n/a
230.028	0.075	460056	keystroke_l	l	n/a
230.1635	0.105	460327	keystroke_t	t	n/a
230.328	0.12	460656	keystroke_y	y	n/a
230.568	0.12	461136	keystroke_Key.space	Key.space	n/a
230.6885	0.12	461377	keystroke_m	m	n/a
230.748	0.1655	461496	keystroke_o	o	n/a
230.9435	0.2095	461887	keystroke_n	n	n/a
231.0475	0.1355	462095	keystroke_i	i	n/a
231.1835	0.105	462367	keystroke_t	t	n/a
231.303	0.1195	462606	keystroke_o	o	n/a
231.4075	0.18	462815	keystroke_r	r	n/a
231.4975	0.121	462995	keystroke_s	s	n/a
231.6025	0.165	463205	keystroke_Key.space	Key.space	n/a
231.7235	0.12	463447	keystroke_w	w	n/a
231.7535	0.15	463507	keystroke_h	h	n/a
231.8125	0.136	463625	keystroke_o	o	n/a
232.3235	0.194	464647	keystroke_'	'	n/a
232.848	0.075	465696	keystroke_l	l	n/a
232.9535	0.1345	465907	keystroke_l	l	n/a
233.313	0.1055	466626	keystroke_Key.enter	Key.enter	n/a
233.425	4.7195	466850	prompt	n/a	wanted seriously university vinyl\n
234.0625	0.166	468125	keystroke_w	w	n/a
234.1685	0.119	468337	keystroke_a	a	n/a
234.2425	0.1205	468485	keystroke_n	n	n/a
234.3775	0.1355	468755	keystroke_t	t	n/a
234.5275	0.1505	469055	keystroke_e	e	n/a
234.6485	0.134	469297	keystroke_d	d	n/a
234.7075	0.1505	469415	keystroke_Key.space	Key.space	n/a
234.8135	0.1495	469627	keystroke_s	s	n/a
234.8885	0.1195	469777	keystroke_e	e	n/a
234.978	0.135	469956	keystroke_r	r	n/a
235.023	0.105	470046	keystroke_i	i	n/a
235.113	0.1655	470226	keystroke_o	o	n/a
235.233	0.12	470466	keystroke_u	u	n/a
235.338	0.135	470676	keystroke_s	s	n/a
235.458	0.135	470916	keystroke_l	l	n/a
235.653	0.045	471306	keystroke_y	y	n/a
235.683	0.165	471366	keystroke_Key.space	Key.space	n/a
235.878	0.1345	471756	keystroke_u	u	n/a
235.938	0.2395	471876	keystroke_n	n	n/a
236.1485	0.1195	472297	keystroke_i	i	n/a
236.2535	0.2695	472507	keystroke_v	v	n/a
236.433	0.2405	472866	keystroke_e	e	n/a
236.613	0.21	473226	keystroke_r	r	n/a
236.778	0.1655	473556	keystroke_s	s	n/a
236.898	0.1655	473796	keystroke_i	i	n/a
237.0335	0.1945	474067	keystroke_t	t	n/a
237.123	0.135	474246	keystroke_y	y	n/a
237.243	0.135	474486	keystroke_Key.space	Key.space	n/a
237.4385	0.1195	474877	keystroke_v	v	n/a
237.483	0.1655	474966	keystroke_i	i	n/a
237.573	0.1345	475146	keystroke_n	n	n/a
237.723	0.135	475446	keystroke_y	y	n/a
237.873	0.12	475746	keystroke_l	l	n/a
238.023	0.12	476046	keystroke_Key.enter	Key.enter	n/a
238.1485	4.332	476297	prompt	n/a	adaptation kits children updating\n
238.6985	0.12	477397	keystroke_a	a	n/a
238.788	0.1655	477576	keystroke_d	d	n/a
238.938	0.1195	477876	keystroke_a	a	n/a
239.013	0.1055	478026	keystroke_p	p	n/a
239.148	0.12	478296	keystroke_t	t	n/a
239.298	0.1505	478596	keystroke_a	a	n/a
239.388	0.15	478776	keystroke_t	t	n/a
239.493	0.2555	478986	keystroke_i	i	n/a
239.523	0.165	479046	keystroke_o	o	n/a
239.6585	0.1645	479317	keystroke_n	n	n/a
239.838	0.12	479676	keystroke_Key.space	Key.space	n/a
240.153	0.18	480306	keystroke_k	k	n/a
240.243	0.1505	480486	keystroke_i	i	n/a
240.333	0.15	480666	keystroke_t	t	n/a
240.4085	0.165	480817	keystroke_s	s	n/a
240.468	0.15	480936	keystroke_Key.space	Key.space	n/a
240.6635	0.12	481327	keystroke_c	c	n/a
240.708	0.18	481416	keystroke_h	h	n/a
240.768	0.195	481536	keystroke_i	i	n/a
240.858	0.1205	481716	keystroke_l	l	n/a
240.9335	0.0895	481867	keystroke_d	d	n/a
241.113	0.165	482226	keystroke_r	r	n/a
241.188	0.1655	482376	keystroke_e	e	n/a
241.308	0.105	482616	keystroke_n	n	n/a
241.323	0.135	482646	keystroke_Key.space	Key.space	n/a
241.473	0.1955	482946	keystroke_u	u	n/a
241.578	0.1655	483156	keystroke_p	p	n/a
241.6825	0.151	483365	keystroke_d	d	n/a
241.788	0.165	483576	keystroke_a	a	n/a
241.938	0.105	483876	keystroke_t	t	n/a
242.028	0.135	484056	keystroke_i	i	n/a
242.0885	0.135	484177	keystroke_n	n	n/a
242.2085	0.119	484417	keystroke_g	g	n/a
242.3585	0.119	484717	keystroke_Key.enter	Key.enter	n/a
242.485	4.42	484970	prompt	n/a	wide formatting phrases msie\n
243.243	0.1045	486486	keystroke_w	w	n/a
243.333	0.1205	486666	keystroke_i	i	n/a
243.423	0.1795	486846	keystroke_d	d	n/a
243.5275	0.135	487055	keystroke_e	e	n/a
243.588	0.165	487176	keystroke_Key.space	Key.space	n/a
243.783	0.0745	487566	keystroke_f	f	n/a
243.8125	0.105	487625	keystroke_o	o	n/a
243.9025	0.105	487805	keystroke_r	r	n/a
244.023	0.12	488046	keystroke_m	m	n/a
244.129	0.104	488258	keystroke_a	a	n/a
244.1875	0.091	488375	keystroke_t	t	n/a
244.3525	0.1055	488705	keystroke_t	t	n/a
244.473	0.1355	488946	keystroke_i	i	n/a
244.548	0.15	489096	keystroke_n	n	n/a
244.653	0.1655	489306	keystroke_g	g	n/a
244.7585	0.1345	489517	keystroke_Key.space	Key.space	n/a
244.9085	0.1345	489817	keystroke_p	p	n/a
245.043	0.1345	490086	keystroke_h	h	n/a
245.1025	0.1355	490205	keystroke_r	r	n/a
245.223	0.1355	490446	keystroke_a	a	n/a
245.3125	0.1805	490625	keystroke_s	s	n/a
245.478	0.3295	490956	keystroke_e	e	n/a
245.6285	0.194	491257	keystroke_s	s	n/a
245.8675	0.1205	491735	keystroke_Key.space	Key.space	n/a
246.2725	0.1505	492545	keystroke_m	m	n/a
246.4085	0.12	492817	keystroke_s	s	n/a
246.5285	0.105	493057	keystroke_i	i	n/a
246.6185	0.105	493237	keystroke_e	e	n/a
246.783	0.12	493566	keystroke_Key.enter	Key.enter	n/a
246.9085	3.9715	493817	prompt	n/a	twisted witness options tamil\n
247.503	0.12	495006	keystroke_t	t	n/a
247.578	0.1655	495156	keystroke_w	w	n/a
247.803	0.135	495606	keystroke_i	i	n/a
247.968	0.12	495936	keystroke_s	s	n/a
248.058	0.135	496116	keystroke_t	t	n/a
248.253	0.195	496506	keystroke_e	e	n/a
248.343	0.165	496686	keystroke_d	d	n/a
248.493	0.12	496986	keystroke_Key.space	Key.space	n/a
248.598	0.105	497196	keystroke_w	w	n/a
248.688	0.105	497376	keystroke_i	i	n/a
248.808	0.09	497616	keystroke_t	t	n/a
248.8985	0.1195	497797	keystroke_n	n	n/a
248.988	0.1205	497976	keystroke_e	e	n/a
249.063	0.105	498126	keystroke_s	s	n/a
249.243	0.1355	498486	keystroke_s	s	n/a
249.333	0.104	498666	keystroke_Key.space	Key.space	n/a
249.393	0.135	498786	keystroke_o	o	n/a
249.4685	0.0745	498937	keystroke_p	p	n/a
249.558	0.12	499116	keystroke_t	t	n/a
249.6485	0.2695	499297	keystroke_i	i	n/a
249.738	0.1205	499476	keystroke_o	o	n/a
249.828	0.135	499656	keystroke_n	n	n/a
249.933	0.0905	499866	keystroke_s	s	n/a
249.993	0.09	499986	keystroke_Key.space	Key.space	n/a
250.188	0.15	500376	keystroke_t	t	n/a
250.293	0.12	500586	keystroke_a	a	n/a
250.323	0.12	500646	keystroke_m	m	n/a
250.383	0.165	500766	keystroke_i	i	n/a
250.458	0.12	500916	keystroke_l	l	n/a
250.758	0.12	501516	keystroke_Key.enter	Key.enter	n/a
250.8845	5.305	501769	prompt	n/a	zone weapon inappropriate lesbians\n
251.553	0.105	503106	keystroke_z	z	n/a
251.613	0.15	503226	keystroke_o	o	n/a
251.703	0.1355	503406	keystroke_n	n	n/a
251.778	0.105	503556	keystroke_e	e	n/a
251.853	0.15	503706	keystroke_Key.space	Key.space	n/a
251.928	0.1355	503856	keystroke_w	w	n/a
252.033	0.195	504066	keystroke_e	e	n/a
252.1525	0.1355	504305	keystroke_a	a	n/a
252.2435	0.1645	504487	keystroke_p	p	n/a
252.318	0.165	504636	keystroke_o	o	n/a
252.423	0.105	504846	keystroke_n	n	n/a
252.498	0.105	504996	keystroke_Key.space	Key.space	n/a
252.6485	0.1495	505297	keystroke_i	i	n/a
252.738	0.165	505476	keystroke_n	n	n/a
252.933	0.1205	505866	keystroke_a	a	n/a
253.068	0.06	506136	keystroke_p	p	n/a
253.218	0.12	506436	keystroke_p	p	n/a
253.443	0.12	506886	keystroke_r	r	n/a
253.578	0.105	507156	keystroke_o	o	n/a
253.8185	0.104	507637	keystroke_p	p	n/a
253.983	0.164	507966	keystroke_r	r	n/a
254.133	0.165	508266	keystroke_i	i	n/a
254.538	0.15	509076	keystroke_a	a	n/a
254.6435	0.21	509287	keystroke_t	t	n/a
254.778	0.1795	509556	keystroke_e	e	n/a
254.8675	0.1505	509735	keystroke_Key.space	Key.space	n/a
255.078	0.1495	510156	keystroke_l	l	n/a
255.138	0.1805	510276	keystroke_e	e	n/a
255.2575	0.1355	510515	keystroke_s	s	n/a
255.3775	0.135	510755	keystroke_b	b	n/a
255.573	0.12	511146	keystroke_i	i	n/a
255.768	0.0745	511536	keystroke_a	a	n/a
255.8435	0.104	511687	keystroke_n	n	n/a
255.9635	0.1345	511927	keystroke_s	s	n/a
256.0825	0.105	512165	keystroke_Key.enter	Key.enter	n/a
256.199	4.9705	512398	prompt	n/a	fetish swingers evidence locator\n
257.073	0.135	514146	keystroke_f	f	n/a
257.313	0.09	514626	keystroke_t	t	n/a
257.583	0.105	515166	keystroke_Key.backspace	Key.backspace	n/a
257.703	0.12	515406	keystroke_e	e	n/a
257.763	0.12	515526	keystroke_t	t	n/a
257.8385	0.1195	515677	keystroke_i	i	n/a
257.973	0.12	515946	keystroke_s	s	n/a
258.063	0.1195	516126	keystroke_h	h	n/a
258.183	0.15	516366	keystroke_Key.space	Key.space	n/a
258.378	0.09	516756	keystroke_s	s	n/a
258.5725	0.1195	517145	keystroke_w	w	n/a
258.6325	0.1795	517265	keystroke_i	i	n/a
258.7525	0.1345	517505	keystroke_n	n	n/a
258.843	0.149	517686	keystroke_g	g	n/a
258.963	0.194	517926	keystroke_e	e	n/a
259.128	0.18	518256	keystroke_r	r	n/a
259.218	0.1345	518436	keystroke_s	s	n/a
259.2925	0.135	518585	keystroke_Key.space	Key.space	n/a
259.413	0.1645	518826	keystroke_e	e	n/a
259.5625	0.135	519125	keystroke_v	v	n/a
259.6675	0.1205	519335	keystroke_i	i	n/a
259.8025	0.135	519605	keystroke_d	d	n/a
259.8925	0.165	519785	keystroke_e	e	n/a
260.0275	0.12	520055	keystroke_n	n	n/a
260.0725	0.1955	520145	keystroke_c	c	n/a
260.2075	0.1205	520415	keystroke_e	e	n/a
260.282	0.105	520564	keystroke_Key.space	Key.space	n/a
260.3725	0.1195	520745	keystroke_l	l	n/a
260.433	0.134	520866	keystroke_o	o	n/a
260.508	0.104	521016	keystroke_c	c	n/a
260.598	0.1645	521196	keystroke_a	a	n/a
260.7475	0.09	521495	keystroke_t	t	n/a
260.7925	0.135	521585	keystroke_o	o	n/a
260.9125	0.12	521825	keystroke_r	r	n/a
261.077	0.09	522154	keystroke_Key.enter	Key.enter	n/a
261.1735	3.9415	522347	prompt	n/a	foreign loop gently alien\n
261.933	0.135	523866	keystroke_f	f	n/a
262.0225	0.15	524045	keystroke_o	o	n/a
262.2175	0.195	524435	keystroke_r	r	n/a
262.3375	0.135	524675	keystroke_e	e	n/a
262.4575	0.12	524915	keystroke_i	i	n/a
262.5925	0.12	525185	keystroke_g	g	n/a
262.698	0.104	525396	keystroke_n	n	n/a
262.803	0.104	525606	keystroke_Key.space	Key.space	n/a
262.877	0.0905	525754	keystroke_l	l	n/a
263.102	0.075	526204	keystroke_o	o	n/a
263.238	0.165	526476	keystroke_o	o	n/a
263.3125	0.105	526625	keystroke_p	p	n/a
263.3875	0.105	526775	keystroke_Key.space	Key.space	n/a
263.5075	0.135	527015	keystroke_g	g	n/a
263.5525	0.15	527105	keystroke_e	e	n/a
263.6275	0.135	527255	keystroke_n	n	n/a
263.8075	0.075	527615	keystroke_t	t	n/a
263.9275	0.135	527855	keystroke_l	l	n/a
264.0325	0.15	528065	keystroke_y	y	n/a
264.1525	0.1195	528305	keystroke_Key.space	Key.space	n/a
264.242	0.135	528484	keystroke_a	a	n/a
264.332	0.15	528664	keystroke_l	l	n/a
264.422	0.1205	528844	keystroke_i	i	n/a
264.527	0.105	529054	keystroke_e	e	n/a
264.677	0.1205	529354	keystroke_n	n	n/a
264.992	0.1205	529984	keystroke_Key.enter	Key.enter	n/a
265.1185	6.31	530237	prompt	n/a	decorative payment mathematics nicholas\n
265.772	0.1055	531544	keystroke_d	d	n/a
265.8325	0.165	531665	keystroke_e	e	n/a
266.0125	0.1345	532025	keystroke_c	c	n/a
266.1325	0.1195	532265	keystroke_o	o	n/a
266.2375	0.2095	532475	keystroke_r	r	n/a
266.432	0.1805	532864	keystroke_a	a	n/a
266.567	0.09	533134	keystroke_t	t	n/a
266.687	0.135	533374	keystroke_i	i	n/a
266.8525	0.1195	533705	keystroke_v	v	n/a
266.9275	0.1045	533855	keystroke_e	e	n/a
266.972	0.165	533944	keystroke_Key.space	Key.space	n/a
267.062	0.165	534124	keystroke_p	p	n/a
267.152	0.165	534304	keystroke_a	a	n/a
267.3025	0.0895	534605	keystroke_y	y	n/a
267.482	0.075	534964	keystroke_m	m	n/a
267.5275	0.135	535055	keystroke_e	e	n/a
267.692	0.135	535384	keystroke_n	n	n/a
267.812	0.105	535624	keystroke_t	t	n/a
267.872	0.12	535744	keystroke_Key.space	Key.space	n/a
268.0365	0.105	536073	keystroke_m	m	n/a
268.1275	0.1045	536255	keystroke_a	a	n/a
268.1725	0.135	536345	keystroke_t	t	n/a
268.5175	0.165	537035	keystroke_h	h	n/a
268.8025	0.12	537605	keystroke_e	e	n/a
268.952	0.1355	537904	keystroke_m	m	n/a
269.0425	0.134	538085	keystroke_a	a	n/a
269.0875	0.105	538175	keystroke_t	t	n/a
269.222	0.135	538444	keystroke_i	i	n/a
269.342	0.165	538684	keystroke_c	c	n/a
269.447	0.1355	538894	keystroke_s	s	n/a
269.567	0.075	539134	keystroke_Key.space	Key.space	n/a
269.5975	0.1345	539195	keystroke_n	n	n/a
269.762	0.045	539524	keystroke_c	c	n/a
270.137	0.075	540274	keystroke_Key.backspace	Key.backspace	n/a
270.407	0.12	540814	keystroke_i	i	n/a
270.497	0.165	540994	keystroke_c	c	n/a
270.602	0.15	541204	keystroke_h	h	n/a
270.707	0.12	541414	keystroke_o	o	n/a
270.917	0.135	541834	keystroke_l	l	n/a
271.022	0.1655	542044	keystroke_a	a	n/a
271.0975	0.134	542195	keystroke_s	s	n/a
271.3065	0.1205	542613	keystroke_Key.enter	Key.enter	n/a
271.433	3.7605	542866	prompt	n/a	legacy karma canvas handle\n
272.0125	0.135	544025	keystroke_l	l	n/a
272.1175	0.134	544235	keystroke_e	e	n/a
272.2975	0.12	544595	keystroke_g	g	n/a
272.3875	0.1645	544775	keystroke_a	a	n/a
272.522	0.15	545044	keystroke_c	c	n/a
272.6575	0.0595	545315	keystroke_y	y	n/a
272.7325	0.105	545465	keystroke_Key.space	Key.space	n/a
272.897	0.0905	545794	keystroke_k	k	n/a
272.957	0.12	545914	keystroke_a	a	n/a
273.032	0.135	546064	keystroke_r	r	n/a
273.137	0.1495	546274	keystroke_m	m	n/a
273.3015	0.12	546603	keystroke_a	a	n/a
273.3765	0.135	546753	keystroke_Key.space	Key.space	n/a
273.6615	0.136	547323	keystroke_c	c	n/a
273.7815	0.12	547563	keystroke_a	a	n/a
273.887	0.1055	547774	keystroke_n	n	n/a
273.9775	0.134	547955	keystroke_v	v	n/a
274.0815	0.1955	548163	keystroke_a	a	n/a
274.1875	0.165	548375	keystroke_s	s	n/a
274.336	0.091	548672	keystroke_Key.space	Key.space	n/a
274.397	0.1055	548794	keystroke_h	h	n/a
274.532	0.12	549064	keystroke_a	a	n/a
274.667	0.105	549334	keystroke_n	n	n/a
274.742	0.09	549484	keystroke_d	d	n/a
274.847	0.105	549694	keystroke_l	l	n/a
274.937	0.075	549874	keystroke_e	e	n/a
275.0715	0.12	550143	keystroke_Key.enter	Key.enter	n/a
275.198	4.031	550396	prompt	n/a	char exact through diff\n
275.7765	0.12	551553	keystroke_c	c	n/a
275.8215	0.151	551643	keystroke_h	h	n/a
275.9575	0.105	551915	keystroke_a	a	n/a
276.0175	0.134	552035	keystroke_r	r	n/a
276.1065	0.18	552213	keystroke_Key.space	Key.space	n/a
276.2265	0.045	552453	keystroke_a	a	n/a
276.3015	0.0755	552603	keystroke_e	e	n/a
276.4965	0.06	552993	keystroke_Key.backspace	Key.backspace	n/a
276.6315	0.09	553263	keystroke_Key.backspace	Key.backspace	n/a
276.707	0.12	553414	keystroke_e	e	n/a
276.8865	0.091	553773	keystroke_x	x	n/a
276.992	0.12	553984	keystroke_a	a	n/a
277.067	0.105	554134	keystroke_x	x	n/a
277.397	0.1055	554794	keystroke_Key.backspace	Key.backspace	n/a
277.457	0.12	554914	keystroke_c	c	n/a
277.727	0.1645	555454	keystroke_t	t	n/a
277.8465	0.1355	555693	keystroke_Key.space	Key.space	n/a
278.0275	0.1195	556055	keystroke_t	t	n/a
278.1015	0.135	556203	keystroke_h	h	n/a
278.2065	0.12	556413	keystroke_r	r	n/a
278.2825	0.1345	556565	keystroke_o	o	n/a
278.357	0.09	556714	keystroke_u	u	n/a
278.4315	0.1055	556863	keystroke_g	g	n/a
278.522	0.135	557044	keystroke_h	h	n/a
278.567	0.15	557134	keystroke_Key.space	Key.space	n/a
278.687	0.09	557374	keystroke_d	d	n/a
278.762	0.12	557524	keystroke_i	i	n/a
278.867	0.075	557734	keystroke_f	f	n/a
279.016	0.121	558032	keystroke_f	f	n/a
279.1065	0.12	558213	keystroke_Key.enter	Key.enter	n/a
279.2325	5.1425	558465	prompt	n/a	testament mistake minnesota relax\n
279.7965	0.1345	559593	keystroke_t	t	n/a
279.872	0.225	559744	keystroke_e	e	n/a
279.977	0.134	559954	keystroke_s	s	n/a
280.082	0.15	560164	keystroke_t	t	n/a
280.247	0.135	560494	keystroke_a	a	n/a
280.442	0.105	560884	keystroke_m	m	n/a
280.591	0.121	561182	keystroke_e	e	n/a
280.712	0.12	561424	keystroke_n	n	n/a
280.817	0.135	561634	keystroke_t	t	n/a
280.892	0.135	561784	keystroke_Key.space	Key.space	n/a
281.012	0.15	562024	keystroke_m	m	n/a
281.087	0.135	562174	keystroke_i	i	n/a
281.177	0.09	562354	keystroke_s	s	n/a
281.237	0.1495	562474	keystroke_t	t	n/a
281.3415	0.135	562683	keystroke_a	a	n/a
281.431	0.09	562862	keystroke_k	k	n/a
281.5515	0.1045	563103	keystroke_e	e	n/a
281.6115	0.105	563223	keystroke_Key.space	Key.space	n/a
281.672	0.1195	563344	keystroke_m	m	n/a
281.777	0.15	563554	keystroke_i	i	n/a
281.8965	0.0905	563793	keystroke_n	n	n/a
282.0465	0.135	564093	keystroke_n	n	n/a
282.1665	0.06	564333	keystroke_e	e	n/a
282.2865	0.15	564573	keystroke_s	s	n/a
282.887	0.135	565774	keystroke_o	o	n/a
283.142	0.18	566284	keystroke_t	t	n/a
283.307	0.15	566614	keystroke_a	a	n/a
283.4265	0.135	566853	keystroke_Key.space	Key.space	n/a
283.591	0.1505	567182	keystroke_r	r	n/a
283.666	0.1505	567332	keystroke_e	e	n/a
283.8315	0.135	567663	keystroke_l	l	n/a
283.9365	0.165	567873	keystroke_a	a	n/a
284.0565	0.15	568113	keystroke_x	x	n/a
284.252	0.1195	568504	keystroke_Key.enter	Key.enter	n/a
284.378	10.3005	568756	prompt	n/a	portion restoration durham correlation\n
284.987	0.18	569974	keystroke_p	p	n/a
285.106	0.091	570212	keystroke_o	o	n/a
285.181	0.1505	570362	keystroke_r	r	n/a
285.3165	0.12	570633	keystroke_t	t	n/a
285.4065	0.27	570813	keystroke_i	i	n/a
285.4665	0.165	570933	keystroke_o	o	n/a
285.587	0.1645	571174	keystroke_n	n	n/a
285.7365	0.105	571473	keystroke_Key.space	Key.space	n/a
285.8265	0.12	571653	keystroke_r	r	n/a
285.8865	0.165	571773	keystroke_e	e	n/a
286.2165	0.12	572433	keystroke_s	s	n/a
286.2915	0.135	572583	keystroke_t	t	n/a
286.4115	0.15	572823	keystroke_o	o	n/a
286.563	0.1035	573126	keystroke_r	r	n/a
286.6815	0.135	573363	keystroke_a	a	n/a
286.772	0.1345	573544	keystroke_t	t	n/a
286.862	0.24	573724	keystroke_i	i	n/a
286.8915	0.15	573783	keystroke_o	o	n/a
287.012	0.135	574024	keystroke_n	n	n/a
287.102	0.149	574204	keystroke_Key.space	Key.space	n/a
287.2815	0.1505	574563	keystroke_d	d	n/a
287.4165	0.1055	574833	keystroke_u	u	n/a
287.522	0.134	575044	keystroke_r	r	n/a
287.611	0.1205	575222	keystroke_h	h	n/a
287.7465	0.135	575493	keystroke_a	a	n/a
287.8965	0.1205	575793	keystroke_m	m	n/a
288.0765	0.1045	576153	keystroke_Key.space	Key.space	n/a
288.317	0.09	576634	keystroke_o	o	n/a
288.332	0.03	576664	keystroke_c	c	n/a
288.466	0.0755	576932	keystroke_r	r	n/a
288.631	0.106	577262	keystroke_r	r	n/a
288.677	0.135	577354	keystroke_e	e	n/a
288.737	0.105	577474	keystroke_l	l	n/a
288.872	0.119	577744	keystroke_a	a	n/a
288.932	0.105	577864	keystroke_t	t	n/a
289.186	0.075	578372	keystroke_Key.backspace	Key.backspace	n/a
289.3365	0.075	578673	keystroke_Key.backspace	Key.backspace	n/a
289.4865	0.045	578973	keystroke_Key.backspace	Key.backspace	n/a
289.6065	0.075	579213	keystroke_Key.backspace	Key.backspace	n/a
289.7415	0.075	579483	keystroke_Key.backspace	Key.backspace	n/a
289.9815	0.0745	579963	keystroke_Key.backspace	Key.backspace	n/a
290.146	0.105	580292	keystroke_Key.backspace	Key.backspace	n/a
290.446	0.09	580892	keystroke_Key.backspace	Key.backspace	n/a
290.7165	0.1345	581433	keystroke_c	c	n/a
290.837	0.06	581674	keystroke_o	o	n/a
290.971	0.1055	581942	keystroke_o	o	n/a
291.046	0.1805	582092	keystroke_r	r	n/a
291.1815	0.135	582363	keystroke_e	e	n/a
291.287	0.1195	582574	keystroke_l	l	n/a
291.4215	0.1205	582843	keystroke_a	a	n/a
291.4815	0.135	582963	keystroke_t	t	n/a
291.5565	0.225	583113	keystroke_i	i	n/a
291.617	0.1345	583234	keystroke_o	o	n/a
291.7065	0.165	583413	keystroke_n	n	n/a
292.0215	0.075	584043	keystroke_Key.backspace	Key.backspace	n/a
292.1865	0.06	584373	keystroke_Key.backspace	Key.backspace	n/a
292.3365	0.06	584673	keystroke_Key.backspace	Key.backspace	n/a
292.4865	0.045	584973	keystroke_Key.backspace	Key.backspace	n/a
292.6215	0.06	585243	keystroke_Key.backspace	Key.backspace	n/a
292.7565	0.06	585513	keystroke_Key.backspace	Key.backspace	n/a
292.891	0.075	585782	keystroke_Key.backspace	Key.backspace	n/a
293.026	0.0905	586052	keystroke_Key.backspace	Key.backspace	n/a
293.2065	0.135	586413	keystroke_Key.backspace	Key.backspace	n/a
293.416	0.0905	586832	keystroke_r	r	n/a
293.6115	0.15	587223	keystroke_r	r	n/a
293.6715	0.15	587343	keystroke_e	e	n/a
293.7915	0.165	587583	keystroke_l	l	n/a
293.9265	0.1205	587853	keystroke_a	a	n/a
293.987	0.1195	587974	keystroke_t	t	n/a
294.077	0.225	588154	keystroke_i	i	n/a
294.1215	0.1505	588243	keystroke_o	o	n/a
294.2265	0.15	588453	keystroke_n	n	n/a
294.5715	0.105	589143	keystroke_Key.enter	Key.enter	n/a
294.6825	4.781	589365	prompt	n/a	controlled listings varying tours\n
295.351	0.1205	590702	keystroke_c	c	n/a
295.441	0.12	590882	keystroke_o	o	n/a
295.8015	0.135	591603	keystroke_n	n	n/a
295.937	0.1345	591874	keystroke_t	t	n/a
295.9965	0.1505	591993	keystroke_r	r	n/a
296.057	0.075	592114	keystroke_o	o	n/a
296.2365	0.075	592473	keystroke_l	l	n/a
296.3715	0.1205	592743	keystroke_l	l	n/a
296.462	0.1495	592924	keystroke_e	e	n/a
296.5215	0.165	593043	keystroke_d	d	n/a
296.6565	0.135	593313	keystroke_Key.space	Key.space	n/a
296.7465	0.165	593493	keystroke_l	l	n/a
296.8365	0.105	593673	keystroke_i	i	n/a
296.9265	0.12	593853	keystroke_s	s	n/a
296.972	0.1195	593944	keystroke_t	t	n/a
297.0765	0.135	594153	keystroke_i	i	n/a
297.1515	0.1355	594303	keystroke_n	n	n/a
297.256	0.12	594512	keystroke_g	g	n/a
297.6165	0.1205	595233	keystroke_s	s	n/a
297.7515	0.1045	595503	keystroke_Key.space	Key.space	n/a
297.917	0.179	595834	keystroke_v	v	n/a
298.021	0.18	596042	keystroke_a	a	n/a
298.1715	0.1495	596343	keystroke_r	r	n/a
298.2915	0.105	596583	keystroke_y	y	n/a
298.441	0.1355	596882	keystroke_i	i	n/a
298.561	0.135	597122	keystroke_n	n	n/a
298.591	0.1355	597182	keystroke_g	g	n/a
298.711	0.1505	597422	keystroke_Key.space	Key.space	n/a
298.8315	0.12	597663	keystroke_t	t	n/a
298.937	0.1495	597874	keystroke_o	o	n/a
299.012	0.15	598024	keystroke_u	u	n/a
299.117	0.12	598234	keystroke_r	r	n/a
299.176	0.121	598352	keystroke_s	s	n/a
299.342	0.119	598684	keystroke_Key.enter	Key.enter	n/a
299.468	6.655	598936	prompt	n/a	mauritius beginners villages neck\n
300.092	0.1795	600184	keystroke_m	m	n/a
300.5865	0.135	601173	keystroke_a	a	n/a
300.7365	0.12	601473	keystroke_u	u	n/a
301.0215	0.15	602043	keystroke_r	r	n/a
301.3965	0.1355	602793	keystroke_i	i	n/a
301.6215	0.12	603243	keystroke_t	t	n/a
301.757	0.0745	603514	keystroke_i	i	n/a
301.9065	0.165	603813	keystroke_u	u	n/a
302.2815	0.1505	604563	keystroke_s	s	n/a
302.491	0.12	604982	keystroke_Key.space	Key.space	n/a
302.6415	0.1355	605283	keystroke_b	b	n/a
302.747	0.135	605494	keystroke_e	e	n/a
302.866	0.121	605732	keystroke_g	g	n/a
302.927	0.1195	605854	keystroke_i	i	n/a
303.0015	0.075	606003	keystroke_n	n	n/a
303.1365	0.1205	606273	keystroke_n	n	n/a
303.2115	0.165	606423	keystroke_e	e	n/a
303.3015	0.21	606603	keystroke_r	r	n/a
303.437	0.1495	606874	keystroke_s	s	n/a
303.5265	0.135	607053	keystroke_Key.space	Key.space	n/a
303.6915	0.1205	607383	keystroke_v	v	n/a
303.7515	0.135	607503	keystroke_i	i	n/a
303.8265	0.09	607653	keystroke_l	l	n/a
303.9915	0.12	607983	keystroke_l	l	n/a
304.1115	0.165	608223	keystroke_a	a	n/a
304.1865	0.2105	608373	keystroke_g	g	n/a
304.307	0.18	608614	keystroke_e	e	n/a
304.412	0.195	608824	keystroke_Key.space	Key.space	n/a
304.427	0.135	608854	keystroke_s	s	n/a
304.727	0.105	609454	keystroke_n	n	n/a
305.057	0.045	610114	keystroke_Key.backspace	Key.backspace	n/a
305.1915	0.075	610383	keystroke_Key.backspace	Key.backspace	n/a
305.3265	0.105	610653	keystroke_Key.backspace	Key.backspace	n/a
305.4165	0.12	610833	keystroke_s	s	n/a
305.5065	0.12	611013	keystroke_Key.space	Key.space	n/a
305.582	0.105	611164	keystroke_n	n	n/a
305.6715	0.1655	611343	keystroke_e	e	n/a
305.7465	0.12	611493	keystroke_c	c	n/a
305.837	0.105	611674	keystroke_k	k	n/a
306.0165	0.1055	612033	keystroke_Key.enter	Key.enter	n/a
306.1275	5.036	612255	prompt	n/a	helmet plates twenty proof\n
306.782	0.1195	613564	keystroke_g	g	n/a
307.1265	0.0905	614253	keystroke_Key.backspace	Key.backspace	n/a
307.2615	0.135	614523	keystroke_h	h	n/a
307.3365	0.105	614673	keystroke_e	e	n/a
307.4115	0.18	614823	keystroke_l	l	n/a
307.5315	0.15	615063	keystroke_m	m	n/a
307.6365	0.18	615273	keystroke_e	e	n/a
307.7565	0.2105	615513	keystroke_t	t	n/a
307.951	0.135	615902	keystroke_Key.space	Key.space	n/a
308.132	0.21	616264	keystroke_p	p	n/a
308.2675	0.1495	616535	keystroke_l	l	n/a
308.3565	0.15	616713	keystroke_a	a	n/a
308.4615	0.24	616923	keystroke_t	t	n/a
308.552	0.2095	617104	keystroke_e	e	n/a
308.6415	0.135	617283	keystroke_s	s	n/a
308.672	0.1645	617344	keystroke_Key.space	Key.space	n/a
308.822	0.135	617644	keystroke_t	t	n/a
308.9265	0.105	617853	keystroke_w	w	n/a
309.6765	0.1205	619353	keystroke_e	e	n/a
309.782	0.12	619564	keystroke_n	n	n/a
309.931	0.12	619862	keystroke_t	t	n/a
310.082	0.119	620164	keystroke_y	y	n/a
310.202	0.135	620404	keystroke_Key.space	Key.space	n/a
310.351	0.135	620702	keystroke_p	p	n/a
310.516	0.136	621032	keystroke_r	r	n/a
310.637	0.044	621274	keystroke_o	o	n/a
310.771	0.106	621542	keystroke_o	o	n/a
310.907	0.09	621814	keystroke_f	f	n/a
311.086	0.075	622172	keystroke_Key.enter	Key.enter	n/a
311.168	5.2155	622336	prompt	n/a	introduced audio locale moore\n
311.7775	0.134	623555	keystroke_i	i	n/a
311.8515	0.135	623703	keystroke_n	n	n/a
311.9565	0.1655	623913	keystroke_t	t	n/a
312.077	0.1055	624154	keystroke_r	r	n/a
312.1065	0.091	624213	keystroke_o	o	n/a
312.602	0.12	625204	keystroke_d	d	n/a
312.707	0.09	625414	keystroke_u	u	n/a
312.797	0.105	625594	keystroke_c	c	n/a
313.037	0.074	626074	keystroke_t	t	n/a
313.5465	0.105	627093	keystroke_Key.backspace	Key.backspace	n/a
313.7415	0.1495	627483	keystroke_e	e	n/a
313.846	0.135	627692	keystroke_d	d	n/a
314.177	0.1195	628354	keystroke_Key.space	Key.space	n/a
314.462	0.1195	628924	keystroke_a	a	n/a
314.5365	0.105	629073	keystroke_u	u	n/a
314.6865	0.135	629373	keystroke_d	d	n/a
314.7615	0.15	629523	keystroke_i	i	n/a
314.837	0.1045	629674	keystroke_o	o	n/a
314.9265	0.09	629853	keystroke_Key.space	Key.space	n/a
315.092	0.0745	630184	keystroke_l	l	n/a
315.272	0.1045	630544	keystroke_o	o	n/a
315.317	0.1655	630634	keystroke_c	c	n/a
315.4215	0.1355	630843	keystroke_a	a	n/a
315.5265	0.075	631053	keystroke_l	l	n/a
315.6165	0.135	631233	keystroke_e	e	n/a
315.692	0.1045	631384	keystroke_Key.space	Key.space	n/a
315.7665	0.0755	631533	keystroke_m	m	n/a
315.8115	0.075	631623	keystroke_o	o	n/a
315.9765	0.09	631953	keystroke_o	o	n/a
316.0515	0.12	632103	keystroke_r	r	n/a
316.1265	0.1055	632253	keystroke_e	e	n/a
316.2765	0.105	632553	keystroke_Key.enter	Key.enter	n/a
316.388	4.75	632776	prompt	n/a	secret protection dayton entry\n
317.012	0.1495	634024	keystroke_s	s	n/a
317.1165	0.15	634233	keystroke_e	e	n/a
317.1765	0.106	634353	keystroke_c	c	n/a
317.3865	0.105	634773	keystroke_r	r	n/a
317.462	0.1805	634924	keystroke_e	e	n/a
317.6125	0.119	635225	keystroke_t	t	n/a
317.7015	0.135	635403	keystroke_Key.space	Key.space	n/a
317.747	0.1195	635494	keystroke_p	p	n/a
317.882	0.075	635764	keystroke_r	r	n/a
317.972	0.119	635944	keystroke_o	o	n/a
318.077	0.089	636154	keystroke_t	t	n/a
318.151	0.106	636302	keystroke_e	e	n/a
318.302	0.075	636604	keystroke_c	c	n/a
318.512	0.119	637024	keystroke_t	t	n/a
318.616	0.271	637232	keystroke_i	i	n/a
318.692	0.1495	637384	keystroke_o	o	n/a
318.797	0.1645	637594	keystroke_n	n	n/a
318.962	0.149	637924	keystroke_Key.space	Key.space	n/a
319.081	0.1805	638162	keystroke_d	d	n/a
319.2465	0.15	638493	keystroke_a	a	n/a
319.3215	0.1055	638643	keystroke_y	y	n/a
319.4565	0.12	638913	keystroke_t	t	n/a
319.5915	0.12	639183	keystroke_o	o	n/a
319.6665	0.1355	639333	keystroke_n	n	n/a
319.7865	0.12	639573	keystroke_Key.space	Key.space	n/a
320.2815	0.1355	640563	keystroke_e	e	n/a
320.522	0.09	641044	keystroke_n	n	n/a
320.6415	0.1205	641283	keystroke_t	t	n/a
320.732	0.105	641464	keystroke_r	r	n/a
320.777	0.105	641554	keystroke_y	y	n/a
321.046	0.0905	642092	keystroke_Key.enter	Key.enter	n/a
321.1445	5.244	642289	prompt	n/a	corner council quarters thomson\n
321.856	0.0455	643712	keystroke_c	c	n/a
321.886	0.15	643772	keystroke_o	o	n/a
322.081	0.1205	644162	keystroke_r	r	n/a
322.2015	0.135	644403	keystroke_n	n	n/a
322.322	0.1795	644644	keystroke_e	e	n/a
322.3815	0.135	644763	keystroke_r	r	n/a
322.487	0.1645	644974	keystroke_Key.space	Key.space	n/a
322.6655	0.1215	645331	keystroke_c	c	n/a
322.7115	0.15	645423	keystroke_o	o	n/a
322.8165	0.1205	645633	keystroke_u	u	n/a
322.877	0.135	645754	keystroke_n	n	n/a
323.372	0.135	646744	keystroke_c	c	n/a
323.462	0.1645	646924	keystroke_i	i	n/a
323.567	0.104	647134	keystroke_l	l	n/a
323.761	0.1205	647522	keystroke_Key.space	Key.space	n/a
324.167	0.12	648334	keystroke_q	q	n/a
324.242	0.134	648484	keystroke_u	u	n/a
324.407	0.2095	648814	keystroke_a	a	n/a
324.692	0.105	649384	keystroke_r	r	n/a
324.902	0.1195	649804	keystroke_t	t	n/a
325.007	0.1495	650014	keystroke_e	e	n/a
325.112	0.164	650224	keystroke_r	r	n/a
325.217	0.15	650434	keystroke_s	s	n/a
325.2915	0.1495	650583	keystroke_Key.space	Key.space	n/a
325.412	0.119	650824	keystroke_t	t	n/a
325.501	0.151	651002	keystroke_h	h	n/a
325.607	0.209	651214	keystroke_o	o	n/a
325.771	0.135	651542	keystroke_m	m	n/a
325.877	0.12	651754	keystroke_s	s	n/a
325.966	0.135	651932	keystroke_o	o	n/a
326.026	0.1355	652052	keystroke_n	n	n/a
326.2815	0.105	652563	keystroke_Key.enter	Key.enter	n/a
326.392	5.591	652784	prompt	n/a	overnight certificates especially lexmark\n
327.062	0.1345	654124	keystroke_o	o	n/a
327.1515	0.195	654303	keystroke_v	v	n/a
327.2565	0.1805	654513	keystroke_e	e	n/a
327.3475	0.1345	654695	keystroke_r	r	n/a
327.467	0.135	654934	keystroke_n	n	n/a
327.542	0.104	655084	keystroke_i	i	n/a
327.572	0.12	655144	keystroke_g	g	n/a
327.722	0.105	655444	keystroke_h	h	n/a
327.752	0.12	655504	keystroke_t	t	n/a
327.841	0.1345	655682	keystroke_Key.space	Key.space	n/a
327.9915	0.1205	655983	keystroke_c	c	n/a
328.127	0.15	656254	keystroke_e	e	n/a
328.262	0.06	656524	keystroke_r	r	n/a
328.427	0.09	656854	keystroke_t	t	n/a
328.562	0.075	657124	keystroke_i	i	n/a
328.9665	0.105	657933	keystroke_f	f	n/a
329.0865	0.1205	658173	keystroke_i	i	n/a
329.1915	0.135	658383	keystroke_c	c	n/a
329.312	0.165	658624	keystroke_a	a	n/a
329.4615	0.21	658923	keystroke_t	t	n/a
329.5365	0.225	659073	keystroke_e	e	n/a
329.6565	0.1505	659313	keystroke_s	s	n/a
329.7465	0.165	659493	keystroke_Key.space	Key.space	n/a
329.8815	0.165	659763	keystroke_e	e	n/a
329.972	0.1195	659944	keystroke_s	s	n/a
330.0765	0.091	660153	keystroke_p	p	n/a
330.182	0.1195	660364	keystroke_e	e	n/a
330.257	0.15	660514	keystroke_c	c	n/a
330.3615	0.105	660723	keystroke_i	i	n/a
330.4515	0.135	660903	keystroke_a	a	n/a
330.5715	0.045	661143	keystroke_l	l	n/a
330.6615	0.1205	661323	keystroke_l	l	n/a
330.827	0.105	661654	keystroke_y	y	n/a
330.886	0.135	661772	keystroke_Key.space	Key.space	n/a
330.977	0.12	661954	keystroke_l	l	n/a
331.142	0.12	662284	keystroke_e	e	n/a
331.322	0.165	662644	keystroke_x	x	n/a
331.4715	0.1055	662943	keystroke_m	m	n/a
331.547	0.1345	663094	keystroke_a	a	n/a
331.6515	0.135	663303	keystroke_r	r	n/a
331.727	0.1195	663454	keystroke_k	k	n/a
331.8765	0.105	663753	keystroke_Key.enter	Key.enter	n/a
331.9855	5.353	663971	prompt	n/a	pole penguin asus sony\n
332.597	0.1195	665194	keystroke_p	p	n/a
332.6865	0.1055	665373	keystroke_o	o	n/a
332.8965	0.1195	665793	keystroke_l	l	n/a
332.987	0.119	665974	keystroke_e	e	n/a
333.0465	0.1195	666093	keystroke_Key.space	Key.space	n/a
333.1215	0.12	666243	keystroke_p	p	n/a
333.2565	0.105	666513	keystroke_e	e	n/a
333.3615	0.12	666723	keystroke_n	n	n/a
333.7815	0.1195	667563	keystroke_g	g	n/a
333.902	0.105	667804	keystroke_u	u	n/a
334.0815	0.18	668163	keystroke_i	i	n/a
334.2615	0.1655	668523	keystroke_n	n	n/a
334.5165	0.12	669033	keystroke_Key.space	Key.space	n/a
334.772	0.105	669544	keystroke_a	a	n/a
334.801	0.166	669602	keystroke_s	s	n/a
334.9515	0.1055	669903	keystroke_u	u	n/a
335.071	0.1205	670142	keystroke_s	s	n/a
335.146	0.1205	670292	keystroke_Key.space	Key.space	n/a
335.2815	0.1355	670563	keystroke_o	o	n/a
335.3265	0.105	670653	keystroke_s	s	n/a
335.657	0.0595	671314	keystroke_Key.backspace	Key.backspace	n/a
335.867	0.0745	671734	keystroke_s	s	n/a
336.1815	0.075	672363	keystroke_Key.backspace	Key.backspace	n/a
336.3165	0.075	672633	keystroke_Key.backspace	Key.backspace	n/a
336.4515	0.12	672903	keystroke_s	s	n/a
336.5565	0.135	673113	keystroke_o	o	n/a
336.6315	0.12	673263	keystroke_n	n	n/a
336.7665	0.045	673533	keystroke_y	y	n/a
337.231	0.1055	674462	keystroke_Key.enter	Key.enter	n/a
337.343	3.9855	674686	prompt	n/a	model favorite conventions erik\n
337.9965	0.135	675993	keystroke_m	m	n/a
338.0415	0.12	676083	keystroke_o	o	n/a
338.1465	0.1505	676293	keystroke_d	d	n/a
338.2365	0.1505	676473	keystroke_e	e	n/a
338.3415	0.06	676683	keystroke_l	l	n/a
338.3565	0.1505	676713	keystroke_Key.space	Key.space	n/a
338.477	0.09	676954	keystroke_f	f	n/a
338.582	0.12	677164	keystroke_a	a	n/a
338.672	0.15	677344	keystroke_v	v	n/a
338.807	0.105	677614	keystroke_o	o	n/a
338.927	0.135	677854	keystroke_r	r	n/a
339.0925	0.1045	678185	keystroke_i	i	n/a
339.1525	0.1645	678305	keystroke_t	t	n/a
339.362	0.18	678724	keystroke_e	e	n/a
339.482	0.15	678964	keystroke_Key.space	Key.space	n/a
339.662	0.1045	679324	keystroke_c	c	n/a
339.7065	0.1355	679413	keystroke_o	o	n/a
339.796	0.106	679592	keystroke_n	n	n/a
339.887	0.165	679774	keystroke_v	v	n/a
339.962	0.12	679924	keystroke_e	e	n/a
340.037	0.09	680074	keystroke_n	n	n/a
340.1415	0.105	680283	keystroke_t	t	n/a
340.217	0.2245	680434	keystroke_i	i	n/a
340.262	0.1195	680524	keystroke_o	o	n/a
340.337	0.1645	680674	keystroke_n	n	n/a
340.4565	0.0905	680913	keystroke_s	s	n/a
340.5165	0.1055	681033	keystroke_Key.space	Key.space	n/a
340.667	0.135	681334	keystroke_e	e	n/a
340.742	0.135	681484	keystroke_r	r	n/a
340.862	0.135	681724	keystroke_i	i	n/a
340.982	0.1495	681964	keystroke_k	k	n/a
341.207	0.1195	682414	keystroke_Key.enter	Key.enter	n/a
341.332	5.366	682664	prompt	n/a	cost bottom appraisal succeed\n
342.0915	0.15	684183	keystroke_c	c	n/a
342.182	0.1195	684364	keystroke_o	o	n/a
342.3165	0.18	684633	keystroke_s	s	n/a
342.4365	0.135	684873	keystroke_t	t	n/a
