onset	duration	sample	value	key	prompt_text
7.7375	24.548	15475	prompt	n/a	the quick brown fox jumps over a lazy dog\n
19.1735	0.135	38347	keystroke_t	t	n/a
19.2935	0.075	38587	keystroke_h	h	n/a
19.4275	0.121	38855	keystroke_e	e	n/a
19.9985	0.059	39997	keystroke_Key.space	Key.space	n/a
20.4625	0.031	40925	keystroke_q	q	n/a
20.778	0.135	41556	keystroke_u	u	n/a
20.8535	0.1195	41707	keystroke_i	i	n/a
21.078	0.1205	42156	keystroke_c	c	n/a
21.2135	0.09	42427	keystroke_k	k	n/a
21.7085	0.09	43417	keystroke_Key.space	Key.space	n/a
22.2185	0.105	44437	keystroke_b	b	n/a
22.3385	0.075	44677	keystroke_r	r	n/a
22.4585	0.1045	44917	keystroke_i	i	n/a
23.1175	0.12	46235	keystroke_Key.backspace	Key.backspace	n/a
23.898	0.09	47796	keystroke_o	o	n/a
24.033	0.075	48066	keystroke_w	w	n/a
24.348	0.06	48696	keystroke_n	n	n/a
24.573	0.09	49146	keystroke_Key.space	Key.space	n/a
25.3825	0.06	50765	keystroke_f	f	n/a
25.6975	0.075	51395	keystroke_o	o	n/a
26.1025	0.06	52205	keystroke_x	x	n/a
26.1925	0.075	52385	keystroke_Key.space	Key.space	n/a
26.4625	0.075	52925	keystroke_j	j	n/a
26.6275	0.075	53255	keystroke_u	u	n/a
27.1235	0.09	54247	keystroke_p	p	n/a
27.3485	0.075	54697	keystroke_s	s	n/a
27.8435	0.075	55687	keystroke_Key.space	Key.space	n/a
28.5625	0.09	57125	keystroke_o	o	n/a
28.8025	0.12	57605	keystroke_v	v	n/a
28.9525	0.165	57905	keystroke_e	e	n/a
29.0575	0.12	58115	keystroke_r	r	n/a
29.2525	0.09	58505	keystroke_Key.space	Key.space	n/a
29.6135	0.105	59227	keystroke_a	a	n/a
29.7635	0.09	59527	keystroke_Key.space	Key.space	n/a
30.0335	0.105	60067	keystroke_l	l	n/a
30.1835	0.09	60367	keystroke_a	a	n/a
30.5735	0.09	61147	keystroke_z	z	n/a
30.768	0.06	61536	keystroke_y	y	n/a
30.993	0.09	61986	keystroke_Key.space	Key.space	n/a
31.143	0.09	62286	keystroke_d	d	n/a
31.443	0.075	62886	keystroke_o	o	n/a
31.743	0.09	63486	keystroke_g	g	n/a
32.193	0.09	64386	keystroke_Key.enter	Key.enter	n/a
32.289	9.206	64578	prompt	n/a	influence gather butts releases\n
33.543	0.075	67086	keystroke_i	i	n/a
33.738	0.09	67476	keystroke_n	n	n/a
33.948	0.135	67896	keystroke_f	f	n/a
34.038	0.12	68076	keystroke_l	l	n/a
34.173	0.09	68346	keystroke_u	u	n/a
34.323	0.075	68646	keystroke_e	e	n/a
34.503	0.06	69006	keystroke_n	n	n/a
34.623	0.15	69246	keystroke_c	c	n/a
34.713	0.105	69426	keystroke_e	e	n/a
35.523	0.09	71046	keystroke_Key.space	Key.space	n/a
36.078	0.1505	72156	keystroke_g	g	n/a
36.2135	0.0595	72427	keystroke_a	a	n/a
36.393	0.12	72786	keystroke_t	t	n/a
36.528	0.075	73056	keystroke_h	h	n/a
36.648	0.105	73296	keystroke_e	e	n/a
36.693	0.12	73386	keystroke_r	r	n/a
37.158	0.075	74316	keystroke_Key.space	Key.space	n/a
37.6085	0.12	75217	keystroke_b	b	n/a
37.6685	0.09	75337	keystroke_u	u	n/a
37.7885	0.089	75577	keystroke_t	t	n/a
37.9385	0.135	75877	keystroke_t	t	n/a
38.2075	0.0905	76415	keystroke_s	s	n/a
38.7185	0.075	77437	keystroke_Key.space	Key.space	n/a
39.1685	0.15	78337	keystroke_r	r	n/a
39.2435	0.165	78487	keystroke_e	e	n/a
39.4235	0.075	78847	keystroke_l	l	n/a
39.4985	0.105	78997	keystroke_e	e	n/a
39.7385	0.15	79477	keystroke_a	a	n/a
39.8285	0.255	79657	keystroke_s	s	n/a
39.9935	0.135	79987	keystroke_e	e	n/a
40.3085	0.105	80617	keystroke_d	d	n/a
41.418	0.075	82836	keystroke_Key.enter	Key.enter	n/a
41.498	9.312	82996	prompt	n/a	mixture mechanisms hammer medieval\n
42.5125	0.196	85025	keystroke_m	m	n/a
42.6185	0.135	85237	keystroke_i	i	n/a
42.8135	0.1495	85627	keystroke_x	x	n/a
43.113	0.105	86226	keystroke_t	t	n/a
43.308	0.09	86616	keystroke_u	u	n/a
43.443	0.12	86886	keystroke_r	r	n/a
43.503	0.12	87006	keystroke_e	e	n/a
44.088	0.075	88176	keystroke_Key.space	Key.space	n/a
44.4475	0.09	88895	keystroke_m	m	n/a
44.4925	0.12	88985	keystroke_e	e	n/a
44.7185	0.1345	89437	keystroke_c	c	n/a
44.868	0.03	89736	keystroke_h	h	n/a
44.883	0.165	89766	keystroke_a	a	n/a
45.153	0.12	90306	keystroke_n	n	n/a
45.213	0.135	90426	keystroke_i	i	n/a
45.603	0.0745	91206	keystroke_s	s	n/a
45.7825	0.075	91565	keystroke_m	m	n/a
45.9925	0.09	91985	keystroke_s	s	n/a
46.6835	0.1195	93367	keystroke_Key.space	Key.space	n/a
47.2085	0.0595	94417	keystroke_h	h	n/a
47.283	0.105	94566	keystroke_a	a	n/a
47.4485	0.0595	94897	keystroke_m	m	n/a
47.6285	0.03	95257	keystroke_m	m	n/a
47.688	0.1505	95376	keystroke_e	e	n/a
47.7935	0.075	95587	keystroke_r	r	n/a
48.3935	0.06	96787	keystroke_Key.space	Key.space	n/a
48.7685	0.075	97537	keystroke_m	m	n/a
48.8435	0.09	97687	keystroke_e	e	n/a
49.0535	0.12	98107	keystroke_d	d	n/a
49.2185	0.075	98437	keystroke_i	i	n/a
49.488	0.105	98976	keystroke_e	e	n/a
49.938	0.1345	99876	keystroke_a	a	n/a
50.2375	0.105	100475	keystroke_v	v	n/a
50.403	0.09	100806	keystroke_l	l	n/a
50.748	0.06	101496	keystroke_Key.enter	Key.enter	n/a
50.813	11.3965	101626	prompt	n/a	chief pathology candles increases\n
52.2185	0.105	104437	keystroke_c	c	n/a
52.3685	0.105	104737	keystroke_h	h	n/a
52.983	0.105	105966	keystroke_e	e	n/a
54.063	0.12	108126	keystroke_Key.backspace	Key.backspace	n/a
54.4685	0.09	108937	keystroke_i	i	n/a
54.6035	0.075	109207	keystroke_e	e	n/a
54.9185	0.045	109837	keystroke_f	f	n/a
55.3235	0.075	110647	keystroke_Key.space	Key.space	n/a
55.9235	0.075	111847	keystroke_p	p	n/a
56.1785	0.09	112357	keystroke_a	a	n/a
56.4485	0.105	112897	keystroke_t	t	n/a
56.5385	0.075	113077	keystroke_h	h	n/a
56.7185	0.075	113437	keystroke_o	o	n/a
56.9135	0.09	113827	keystroke_l	l	n/a
57.0635	0.12	114127	keystroke_o	o	n/a
57.3335	0.075	114667	keystroke_g	g	n/a
57.6485	0.06	115297	keystroke_y	y	n/a
58.1135	0.075	116227	keystroke_Key.space	Key.space	n/a
58.5935	0.09	117187	keystroke_c	c	n/a
58.6385	0.12	117277	keystroke_a	a	n/a
58.7435	0.075	117487	keystroke_n	n	n/a
58.8635	0.12	117727	keystroke_d	d	n/a
59.0885	0.075	118177	keystroke_e	e	n/a
59.2085	0.104	118417	keystroke_l	l	n/a
59.4035	0.089	118807	keystroke_s	s	n/a
59.7935	0.09	119587	keystroke_Key.space	Key.space	n/a
60.288	0.12	120576	keystroke_i	i	n/a
60.333	0.105	120666	keystroke_n	n	n/a
60.528	0.09	121056	keystroke_c	c	n/a
60.738	0.1495	121476	keystroke_r	r	n/a
60.7975	0.105	121595	keystroke_e	e	n/a
60.9925	0.151	121985	keystroke_a	a	n/a
61.1585	0.104	122317	keystroke_s	s	n/a
61.2785	0.104	122557	keystroke_e	e	n/a
61.3685	0.089	122737	keystroke_s	s	n/a
62.1175	0.09	124235	keystroke_Key.enter	Key.enter	n/a
62.213	7.3315	124426	prompt	n/a	webmasters collins idle swing\n
63.423	0.105	126846	keystroke_w	w	n/a
63.468	0.1195	126936	keystroke_e	e	n/a
63.603	0.0895	127206	keystroke_b	b	n/a
63.8725	0.09	127745	keystroke_m	m	n/a
63.978	0.15	127956	keystroke_a	a	n/a
64.0525	0.105	128105	keystroke_s	s	n/a
64.2025	0.1205	128405	keystroke_t	t	n/a
64.2775	0.15	128555	keystroke_e	e	n/a
64.383	0.105	128766	keystroke_r	r	n/a
64.593	0.105	129186	keystroke_s	s	n/a
64.9535	0.12	129907	keystroke_Key.space	Key.space	n/a
65.3435	0.15	130687	keystroke_c	c	n/a
65.4485	0.075	130897	keystroke_o	o	n/a
65.6135	0.09	131227	keystroke_l	l	n/a
65.7485	0.15	131497	keystroke_l	l	n/a
66.0935	0.149	132187	keystroke_i	i	n/a
66.1835	0.104	132367	keystroke_n	n	n/a
66.3935	0.074	132787	keystroke_s	s	n/a
66.8275	0.106	133655	keystroke_Key.space	Key.space	n/a
67.3825	0.075	134765	keystroke_i	i	n/a
67.5175	0.105	135035	keystroke_d	d	n/a
67.6675	0.06	135335	keystroke_l	l	n/a
67.9375	0.075	135875	keystroke_e	e	n/a
68.2075	0.09	136415	keystroke_Key.space	Key.space	n/a
68.5825	0.091	137165	keystroke_s	s	n/a
68.8675	0.045	137735	keystroke_w	w	n/a
68.9575	0.09	137915	keystroke_i	i	n/a
69.1675	0.09	138335	keystroke_n	n	n/a
69.2875	0.09	138575	keystroke_g	g	n/a
69.4825	0.06	138965	keystroke_Key.enter	Key.enter	n/a
69.5475	8.5325	139095	prompt	n/a	comparable tribes lamb jaguar\n
70.8925	0.121	141785	keystroke_c	c	n/a
71.0285	0.06	142057	keystroke_o	o	n/a
71.2835	0.03	142567	keystroke_m	m	n/a
71.4485	0.075	142897	keystroke_p	p	n/a
71.5385	0.104	143077	keystroke_a	a	n/a
71.6725	0.15	143345	keystroke_r	r	n/a
71.8075	0.075	143615	keystroke_a	a	n/a
71.9575	0.076	143915	keystroke_b	b	n/a
72.1525	0.09	144305	keystroke_l	l	n/a
72.288	0.06	144576	keystroke_e	e	n/a
72.858	0.105	145716	keystroke_Key.space	Key.space	n/a
73.293	0.06	146586	keystroke_t	t	n/a
73.458	0.09	146916	keystroke_r	r	n/a
73.578	0.075	147156	keystroke_i	i	n/a
73.803	0.06	147606	keystroke_b	b	n/a
73.893	0.105	147786	keystroke_e	e	n/a
74.1025	0.09	148205	keystroke_s	s	n/a
74.628	0.075	149256	keystroke_Key.space	Key.space	n/a
75.138	0.075	150276	keystroke_l	l	n/a
75.363	0.075	150726	keystroke_a	a	n/a
75.543	0.075	151086	keystroke_m	m	n/a
75.873	0.075	151746	keystroke_b	b	n/a
76.3975	0.09	152795	keystroke_Key.space	Key.space	n/a
76.7875	0.09	153575	keystroke_j	j	n/a
76.9075	0.09	153815	keystroke_a	a	n/a
77.223	0.09	154446	keystroke_g	g	n/a
77.328	0.105	154656	keystroke_u	u	n/a
77.568	0.15	155136	keystroke_a	a	n/a
77.703	0.105	155406	keystroke_r	r	n/a
77.973	0.105	155946	keystroke_Key.enter	Key.enter	n/a
78.0835	8.831	156167	prompt	n/a	valium contribution virgin cite\n
79.4285	0.09	158857	keystroke_v	v	n/a
79.5035	0.15	159007	keystroke_a	a	n/a
79.7285	0.09	159457	keystroke_l	l	n/a
79.9535	0.09	159907	keystroke_i	i	n/a
80.2085	0.075	160417	keystroke_u	u	n/a
80.5085	0.06	161017	keystroke_m	m	n/a
81.0485	0.075	162097	keystroke_Key.space	Key.space	n/a
81.4985	0.0745	162997	keystroke_c	c	n/a
81.633	0.105	163266	keystroke_o	o	n/a
81.843	0.0745	163686	keystroke_n	n	n/a
82.0375	0.135	164075	keystroke_t	t	n/a
82.1125	0.105	164225	keystroke_r	r	n/a
82.2475	0.09	164495	keystroke_i	i	n/a
82.6675	0.1055	165335	keystroke_b	b	n/a
82.7275	0.0905	165455	keystroke_u	u	n/a
82.953	0.09	165906	keystroke_t	t	n/a
83.058	0.09	166116	keystroke_i	i	n/a
83.088	0.075	166176	keystroke_o	o	n/a
83.298	0.075	166596	keystroke_n	n	n/a
83.898	0.0745	167796	keystroke_Key.space	Key.space	n/a
84.5425	0.105	169085	keystroke_v	v	n/a
84.663	0.0895	169326	keystroke_i	i	n/a
84.8275	0.09	169655	keystroke_r	r	n/a
85.0525	0.135	170105	keystroke_g	g	n/a
85.2025	0.105	170405	keystroke_i	i	n/a
85.2475	0.075	170495	keystroke_n	n	n/a
85.7725	0.075	171545	keystroke_Key.space	Key.space	n/a
86.2525	0.105	172505	keystroke_c	c	n/a
86.3725	0.075	172745	keystroke_i	i	n/a
86.5075	0.165	173015	keystroke_t	t	n/a
86.6125	0.105	173225	keystroke_e	e	n/a
86.8225	0.09	173645	keystroke_Key.enter	Key.enter	n/a
86.919	10.676	173838	prompt	n/a	deviation pointed hunt stupid\n
87.7825	0.165	175565	keystroke_d	d	n/a
87.9175	0.135	175835	keystroke_e	e	n/a
88.2025	0.105	176405	keystroke_v	v	n/a
88.3225	0.075	176645	keystroke_i	i	n/a
88.4125	0.12	176825	keystroke_a	a	n/a
88.5025	0.12	177005	keystroke_t	t	n/a
88.6375	0.135	177275	keystroke_i	i	n/a
88.7275	0.091	177455	keystroke_o	o	n/a
88.9375	0.076	177875	keystroke_n	n	n/a
89.2825	0.09	178565	keystroke_Key.space	Key.space	n/a
89.8075	0.106	179615	keystroke_p	p	n/a
89.8825	0.075	179765	keystroke_o	o	n/a
90.0475	0.09	180095	keystroke_i	i	n/a
91.5925	0.091	183185	keystroke_n	n	n/a
91.7135	0.179	183427	keystroke_t	t	n/a
92.0725	0.12	184145	keystroke_e	e	n/a
92.3575	0.075	184715	keystroke_d	d	n/a
92.7175	0.09	185435	keystroke_Key.space	Key.space	n/a
93.2135	0.044	186427	keystroke_h	h	n/a
93.3625	0.06	186725	keystroke_u	u	n/a
93.5425	0.075	187085	keystroke_n	n	n/a
93.6785	0.09	187357	keystroke_t	t	n/a
93.7825	0.09	187565	keystroke_Key.space	Key.space	n/a
93.9775	0.15	187955	keystroke_s	s	n/a
94.0675	0.0905	188135	keystroke_t	t	n/a
94.173	0.06	188346	keystroke_u	u	n/a
94.533	0.09	189066	keystroke_o	o	n/a
94.563	0.105	189126	keystroke_i	i	n/a
94.788	0.0905	189576	keystroke_d	d	n/a
95.5235	0.09	191047	keystroke_Key.backspace	Key.backspace	n/a
95.7185	0.09	191437	keystroke_Key.backspace	Key.backspace	n/a
95.9435	0.075	191887	keystroke_Key.backspace	Key.backspace	n/a
96.588	0.09	193176	keystroke_p	p	n/a
96.8725	0.075	193745	keystroke_i	i	n/a
97.0225	0.105	194045	keystroke_d	d	n/a
97.5335	0.06	195067	keystroke_Key.enter	Key.enter	n/a
97.598	9.5965	195196	prompt	n/a	advertisers selective consoles peas\n
98.583	0.135	197166	keystroke_a	a	n/a
98.688	0.135	197376	keystroke_d	d	n/a
100.3085	0.09	200617	keystroke_v	v	n/a
100.5035	0.15	201007	keystroke_e	e	n/a
100.5935	0.12	201187	keystroke_r	r	n/a
100.8035	0.09	201607	keystroke_t	t	n/a
100.9235	0.075	201847	keystroke_i	i	n/a
101.0885	0.1345	202177	keystroke_s	s	n/a
101.208	0.075	202416	keystroke_e	e	n/a
101.358	0.135	202716	keystroke_r	r	n/a
101.6275	0.075	203255	keystroke_s	s	n/a
102.1075	0.075	204215	keystroke_Key.space	Key.space	n/a
102.378	0.12	204756	keystroke_s	s	n/a
102.453	0.1055	204906	keystroke_e	e	n/a
102.6185	0.09	205237	keystroke_l	l	n/a
102.6935	0.165	205387	keystroke_e	e	n/a
102.7985	0.105	205597	keystroke_c	c	n/a
103.0085	0.09	206017	keystroke_t	t	n/a
103.1585	0.075	206317	keystroke_i	i	n/a
103.2785	0.18	206557	keystroke_v	v	n/a
103.4285	0.12	206857	keystroke_e	e	n/a
104.3435	0.06	208687	keystroke_Key.space	Key.space	n/a
104.628	0.1205	209256	keystroke_c	c	n/a
104.7335	0.1945	209467	keystroke_o	o	n/a
104.913	0.12	209826	keystroke_s	s	n/a
105.048	0.06	210096	keystroke_o	o	n/a
105.198	0.06	210396	keystroke_l	l	n/a
105.333	0.12	210666	keystroke_e	e	n/a
105.618	0.1205	211236	keystroke_s	s	n/a
105.8285	0.105	211657	keystroke_Key.space	Key.space	n/a
106.1585	0.075	212317	keystroke_p	p	n/a
106.2485	0.12	212497	keystroke_e	e	n/a
106.4735	0.09	212947	keystroke_a	a	n/a
106.773	0.105	213546	keystroke_s	s	n/a
107.118	0.075	214236	keystroke_Key.enter	Key.enter	n/a
107.1975	10.872	214395	prompt	n/a	current glory pantyhose conservation\n
108.3775	0.12	216755	keystroke_c	c	n/a
108.4985	0.045	216997	keystroke_u	u	n/a
108.6335	0.044	217267	keystroke_r	r	n/a
108.8125	0.136	217625	keystroke_r	r	n/a
108.9625	0.135	217925	keystroke_e	e	n/a
109.2475	0.09	218495	keystroke_n	n	n/a
109.4125	0.076	218825	keystroke_t	t	n/a
109.953	0.105	219906	keystroke_Key.space	Key.space	n/a
110.373	0.09	220746	keystroke_g	g	n/a
110.478	0.045	220956	keystroke_l	l	n/a
110.613	0.105	221226	keystroke_o	o	n/a
110.8235	0.059	221647	keystroke_r	r	n/a
110.9585	0.075	221917	keystroke_y	y	n/a
111.6485	0.09	223297	keystroke_Key.space	Key.space	n/a
112.3535	0.06	224707	keystroke_p	p	n/a
112.4735	0.105	224947	keystroke_a	a	n/a
112.7885	0.075	225577	keystroke_n	n	n/a
112.9985	0.09	225997	keystroke_t	t	n/a
113.283	0.075	226566	keystroke_y	y	n/a
113.493	0.075	226986	keystroke_h	h	n/a
113.6585	0.075	227317	keystroke_o	o	n/a
114.0035	0.18	228007	keystroke_s	s	n/a
114.1235	0.135	228247	keystroke_e	e	n/a
114.8735	0.074	229747	keystroke_Key.space	Key.space	n/a
115.2185	0.105	230437	keystroke_c	c	n/a
115.3685	0.149	230737	keystroke_o	o	n/a
115.4585	0.089	230917	keystroke_n	n	n/a
115.6075	0.12	231215	keystroke_v	v	n/a
116.0435	0.089	232087	keystroke_Key.backspace	Key.backspace	n/a
116.4035	0.1795	232807	keystroke_s	s	n/a
116.553	0.075	233106	keystroke_e	e	n/a
116.703	0.12	233406	keystroke_r	r	n/a
116.973	0.09	233946	keystroke_v	v	n/a
117.048	0.165	234096	keystroke_a	a	n/a
117.198	0.12	234396	keystroke_t	t	n/a
117.483	0.12	234966	keystroke_i	i	n/a
117.513	0.12	235026	keystroke_o	o	n/a
117.7385	0.105	235477	keystroke_n	n	n/a
117.9935	0.075	235987	keystroke_Key.enter	Key.enter	n/a
118.073	7.7665	236146	prompt	n/a	bedford repairs varies limit\n
119.1185	0.09	238237	keystroke_b	b	n/a
119.2235	0.105	238447	keystroke_e	e	n/a
119.4035	0.15	238807	keystroke_d	d	n/a
119.7485	0.165	239497	keystroke_f	f	n/a
119.8835	0.105	239767	keystroke_o	o	n/a
120.0185	0.105	240037	keystroke_r	r	n/a
120.2735	0.105	240547	keystroke_d	d	n/a
120.7085	0.0895	241417	keystroke_Key.space	Key.space	n/a
120.978	0.135	241956	keystroke_r	r	n/a
121.053	0.105	242106	keystroke_e	e	n/a
121.218	0.075	242436	keystroke_p	p	n/a
121.323	0.15	242646	keystroke_a	a	n/a
121.488	0.075	242976	keystroke_i	i	n/a
121.578	0.09	243156	keystroke_r	r	n/a
121.803	0.105	243606	keystroke_s	s	n/a
122.973	0.105	245946	keystroke_Key.space	Key.space	n/a
123.3925	0.1055	246785	keystroke_v	v	n/a
123.4675	0.121	246935	keystroke_a	a	n/a
123.663	0.135	247326	keystroke_r	r	n/a
123.813	0.0745	247626	keystroke_i	i	n/a
123.9025	0.12	247805	keystroke_e	e	n/a
124.1275	0.075	248255	keystroke_s	s	n/a
124.503	0.09	249006	keystroke_Key.space	Key.space	n/a
124.878	0.15	249756	keystroke_l	l	n/a
124.983	0.06	249966	keystroke_i	i	n/a
125.163	0.1355	250326	keystroke_m	m	n/a
125.2685	0.09	250537	keystroke_i	i	n/a
125.3885	0.075	250777	keystroke_t	t	n/a
125.7485	0.09	251497	keystroke_Key.enter	Key.enter	n/a
125.8425	6.987	251685	prompt	n/a	writes annex toxic moves\n
126.7975	0.1355	253595	keystroke_w	w	n/a
126.873	0.09	253746	keystroke_r	r	n/a
127.023	0.0755	254046	keystroke_i	i	n/a
127.143	0.1495	254286	keystroke_t	t	n/a
127.218	0.1195	254436	keystroke_e	e	n/a
127.4575	0.12	254915	keystroke_s	s	n/a
128.1175	0.09	256235	keystroke_Key.space	Key.space	n/a
128.4175	0.0905	256835	keystroke_a	a	n/a
128.553	0.045	257106	keystroke_n	n	n/a
128.673	0.0895	257346	keystroke_n	n	n/a
128.7775	0.09	257555	keystroke_e	e	n/a
129.0625	0.0755	258125	keystroke_x	x	n/a
129.618	0.075	259236	keystroke_Key.space	Key.space	n/a
130.128	0.0905	260256	keystroke_t	t	n/a
130.2485	0.09	260497	keystroke_o	o	n/a
130.608	0.06	261216	keystroke_x	x	n/a
130.743	0.09	261486	keystroke_i	i	n/a
130.923	0.075	261846	keystroke_c	c	n/a
131.508	0.075	263016	keystroke_Key.space	Key.space	n/a
131.928	0.135	263856	keystroke_m	m	n/a
132.003	0.09	264006	keystroke_o	o	n/a
132.168	0.135	264336	keystroke_v	v	n/a
132.273	0.12	264546	keystroke_e	e	n/a
132.528	0.105	265056	keystroke_s	s	n/a
132.738	0.09	265476	keystroke_Key.enter	Key.enter	n/a
132.8325	10.0925	265665	prompt	n/a	focal private constitute gear\n
134.043	0.075	268086	keystroke_f	f	n/a
134.178	0.06	268356	keystroke_o	o	n/a
134.283	0.1205	268566	keystroke_c	c	n/a
134.3435	0.12	268687	keystroke_a	a	n/a
134.5385	0.09	269077	keystroke_l	l	n/a
135.1085	0.09	270217	keystroke_Key.space	Key.space	n/a
135.7985	0.06	271597	keystroke_r	r	n/a
135.9035	0.075	271807	keystroke_p	p	n/a
136.8175	0.06	273635	keystroke_Key.backspace	Key.backspace	n/a
137.2075	0.06	274415	keystroke_Key.backspace	Key.backspace	n/a
137.7625	0.076	275525	keystroke_p	p	n/a
137.9135	0.059	275827	keystroke_r	r	n/a
138.0635	0.089	276127	keystroke_i	i	n/a
138.4685	0.074	276937	keystroke_v	v	n/a
138.6025	0.09	277205	keystroke_a	a	n/a
139.0685	0.165	278137	keystroke_t	t	n/a
139.1735	0.105	278347	keystroke_e	e	n/a
139.6685	0.0895	279337	keystroke_Key.space	Key.space	n/a
140.013	0.12	280026	keystroke_c	c	n/a
140.118	0.1355	280236	keystroke_o	o	n/a
140.1925	0.075	280385	keystroke_n	n	n/a
140.3125	0.135	280625	keystroke_s	s	n/a
140.4025	0.135	280805	keystroke_t	t	n/a
140.5385	0.104	281077	keystroke_i	i	n/a
140.6875	0.106	281375	keystroke_t	t	n/a
140.8235	0.09	281647	keystroke_u	u	n/a
140.9585	0.09	281917	keystroke_e	e	n/a
141.5435	0.105	283087	keystroke_Key.space	Key.space	n/a
142.2335	0.075	284467	keystroke_g	g	n/a
142.3535	0.135	284707	keystroke_e	e	n/a
142.4735	0.105	284947	keystroke_a	a	n/a
142.5475	0.121	285095	keystroke_r	r	n/a
142.833	0.09	285666	keystroke_Key.enter	Key.enter	n/a
142.9295	9.52	285859	prompt	n/a	criminal phillips allowed important\n
144.168	0.075	288336	keystroke_c	c	n/a
144.348	0.105	288696	keystroke_r	r	n/a
144.513	0.09	289026	keystroke_i	i	n/a
144.738	0.1945	289476	keystroke_m	m	n/a
144.8425	0.121	289685	keystroke_i	i	n/a
145.308	0.09	290616	keystroke_n	n	n/a
145.473	0.105	290946	keystroke_a	a	n/a
145.623	0.075	291246	keystroke_l	l	n/a
146.268	0.105	292536	keystroke_Key.space	Key.space	n/a
147.123	0.045	294246	keystroke_p	p	n/a
147.393	0.12	294786	keystroke_h	h	n/a
147.528	0.105	295056	keystroke_i	i	n/a
147.783	0.06	295566	keystroke_l	l	n/a
147.918	0.09	295836	keystroke_l	l	n/a
148.098	0.09	296196	keystroke_i	i	n/a
148.308	0.06	296616	keystroke_p	p	n/a
148.503	0.075	297006	keystroke_s	s	n/a
148.923	0.105	297846	keystroke_Key.space	Key.space	n/a
149.193	0.105	298386	keystroke_a	a	n/a
149.313	0.06	298626	keystroke_l	l	n/a
149.463	0.075	298926	keystroke_l	l	n/a
149.598	0.12	299196	keystroke_o	o	n/a
149.673	0.165	299346	keystroke_w	w	n/a
149.778	0.12	299556	keystroke_e	e	n/a
149.988	0.165	299976	keystroke_d	d	n/a
150.438	0.09	300876	keystroke_Key.space	Key.space	n/a
150.8875	0.075	301775	keystroke_i	i	n/a
151.0825	0.075	302165	keystroke_m	m	n/a
151.2325	0.135	302465	keystroke_p	p	n/a
151.3075	0.15	302615	keystroke_o	o	n/a
151.4425	0.03	302885	keystroke_r	r	n/a
151.5625	0.1205	303125	keystroke_t	t	n/a
151.698	0.075	303396	keystroke_a	a	n/a
151.788	0.075	303576	keystroke_n	n	n/a
151.878	0.09	303756	keystroke_t	t	n/a
152.373	0.075	304746	keystroke_Key.enter	Key.enter	n/a
152.453	12.7615	304906	prompt	n/a	workstation macintosh composer selected\n
153.693	0.12	307386	keystroke_w	w	n/a
153.798	0.075	307596	keystroke_o	o	n/a
153.933	0.1045	307866	keystroke_r	r	n/a
154.0225	0.09	308045	keystroke_k	k	n/a
154.1425	0.1655	308285	keystroke_s	s	n/a
154.263	0.105	308526	keystroke_t	t	n/a
154.413	0.06	308826	keystroke_q	q	n/a
154.458	0.105	308916	keystroke_t	t	n/a
154.9825	0.075	309965	keystroke_Key.backspace	Key.backspace	n/a
155.0875	0.1055	310175	keystroke_Key.backspace	Key.backspace	n/a
155.1625	0.1355	310325	keystroke_a	a	n/a
155.283	0.1205	310566	keystroke_t	t	n/a
155.388	0.105	310776	keystroke_i	i	n/a
155.448	0.075	310896	keystroke_o	o	n/a
155.643	0.06	311286	keystroke_n	n	n/a
156.108	0.075	312216	keystroke_Key.space	Key.space	n/a
156.9775	0.075	313955	keystroke_m	m	n/a
157.578	0.09	315156	keystroke_a	a	n/a
157.8925	0.165	315785	keystroke_c	c	n/a
158.0425	0.09	316085	keystroke_i	i	n/a
158.0725	0.105	316145	keystroke_n	n	n/a
158.2375	0.09	316475	keystroke_t	t	n/a
158.3125	0.09	316625	keystroke_o	o	n/a
158.4925	0.1055	316985	keystroke_s	s	n/a
158.6125	0.0905	317225	keystroke_h	h	n/a
159.2425	0.09	318485	keystroke_Key.space	Key.space	n/a
159.6035	0.135	319207	keystroke_c	c	n/a
159.8735	0.045	319747	keystroke_o	o	n/a
160.0235	0.105	320047	keystroke_m	m	n/a
160.233	0.0745	320466	keystroke_p	p	n/a
162.2125	0.0755	324425	keystroke_o	o	n/a
162.528	0.135	325056	keystroke_s	s	n/a
162.633	0.09	325266	keystroke_e	e	n/a
162.828	0.075	325656	keystroke_r	r	n/a
163.323	0.075	326646	keystroke_Key.space	Key.space	n/a
163.623	0.18	327246	keystroke_s	s	n/a
163.743	0.075	327486	keystroke_l	l	n/a
163.758	0.105	327516	keystroke_e	e	n/a
163.983	0.15	327966	keystroke_e	e	n/a
164.073	0.09	328146	keystroke_c	c	n/a
164.268	0.1495	328536	keystroke_t	t	n/a
164.3435	0.12	328687	keystroke_e	e	n/a
164.5385	0.12	329077	keystroke_d	d	n/a
165.1385	0.075	330277	keystroke_Key.enter	Key.enter	n/a
165.218	8.8765	330436	prompt	n/a	mozilla cabinet statewide brave\n
166.2025	0.075	332405	keystroke_m	m	n/a
166.3835	0.0595	332767	keystroke_o	o	n/a
166.7285	0.0895	333457	keystroke_z	z	n/a
166.8185	0.075	333637	keystroke_i	i	n/a
167.0135	0.06	334027	keystroke_l	l	n/a
167.1625	0.045	334325	keystroke_l	l	n/a
167.268	0.105	334536	keystroke_a	a	n/a
167.613	0.0755	335226	keystroke_Key.space	Key.space	n/a
168.318	0.12	336636	keystroke_c	c	n/a
168.423	0.105	336846	keystroke_a	a	n/a
168.588	0.09	337176	keystroke_b	b	n/a
168.753	0.09	337506	keystroke_i	i	n/a
168.948	0.06	337896	keystroke_n	n	n/a
169.023	0.15	338046	keystroke_e	e	n/a
169.128	0.105	338256	keystroke_t	t	n/a
169.608	0.075	339216	keystroke_Key.space	Key.space	n/a
169.9825	0.165	339965	keystroke_s	s	n/a
170.1025	0.09	340205	keystroke_t	t	n/a
170.2835	0.18	340567	keystroke_t	t	n/a
170.9885	0.225	341977	keystroke_Key.backspace	Key.backspace	n/a
171.2285	0.03	342457	keystroke_a	a	n/a
171.2435	0.105	342487	keystroke_t	t	n/a
171.2735	0.12	342547	keystroke_e	e	n/a
171.5435	0.09	343087	keystroke_w	w	n/a
171.7085	0.12	343417	keystroke_i	i	n/a
171.9185	0.135	343837	keystroke_d	d	n/a
172.0085	0.135	344017	keystroke_e	e	n/a
172.4575	0.091	344915	keystroke_Key.space	Key.space	n/a
172.818	0.09	345636	keystroke_b	b	n/a
172.909	0.119	345818	keystroke_r	r	n/a
172.998	0.135	345996	keystroke_a	a	n/a
173.268	0.03	346536	keystroke_v	v	n/a
173.283	0.1355	346566	keystroke_e	e	n/a
174.0035	0.089	348007	keystroke_Key.enter	Key.enter	n/a
174.097	8.758	348194	prompt	n/a	nice privileges survivor invest\n
174.978	0.135	349956	keystroke_n	n	n/a
175.053	0.12	350106	keystroke_i	i	n/a
175.188	0.1495	350376	keystroke_c	c	n/a
175.2635	0.105	350527	keystroke_e	e	n/a
175.8025	0.09	351605	keystroke_Key.space	Key.space	n/a
176.3135	0.075	352627	keystroke_p	p	n/a
176.4325	0.1055	352865	keystroke_r	r	n/a
176.553	0.09	353106	keystroke_i	i	n/a
176.7925	0.12	353585	keystroke_v	v	n/a
176.8975	0.06	353795	keystroke_i	i	n/a
177.0935	0.105	354187	keystroke_l	l	n/a
177.2435	0.105	354487	keystroke_e	e	n/a
177.5135	0.195	355027	keystroke_g	g	n/a
177.6485	0.12	355297	keystroke_e	e	n/a
177.9035	0.09	355807	keystroke_s	s	n/a
178.3685	0.09	356737	keystroke_Key.space	Key.space	n/a
178.788	0.12	357576	keystroke_s	s	n/a
178.923	0.075	357846	keystroke_u	u	n/a
179.028	0.105	358056	keystroke_r	r	n/a
179.2835	0.12	358567	keystroke_v	v	n/a
179.3885	0.075	358777	keystroke_i	i	n/a
179.7335	0.09	359467	keystroke_v	v	n/a
179.9285	0.06	359857	keystroke_o	o	n/a
180.0635	0.074	360127	keystroke_r	r	n/a
180.4385	0.09	360877	keystroke_Key.space	Key.space	n/a
180.8135	0.105	361627	keystroke_i	i	n/a
180.8735	0.105	361747	keystroke_n	n	n/a
181.3085	0.015	362617	keystroke_b	b	n/a
181.6235	0.075	363247	keystroke_Key.backspace	Key.backspace	n/a
181.7735	0.225	363547	keystroke_v	v	n/a
181.9835	0.09	363967	keystroke_e	e	n/a
182.2085	0.135	364417	keystroke_s	s	n/a
182.3135	0.09	364627	keystroke_t	t	n/a
182.7485	0.1045	365497	keystroke_Key.enter	Key.enter	n/a
182.8575	9.147	365715	prompt	n/a	mongolia businesses midnight budapest\n
183.843	0.09	367686	keystroke_m	m	n/a
183.978	0.09	367956	keystroke_o	o	n/a
184.248	0.06	368496	keystroke_n	n	n/a
184.413	0.105	368826	keystroke_g	g	n/a
184.488	0.06	368976	keystroke_o	o	n/a
184.668	0.0895	369336	keystroke_l	l	n/a
184.743	0.0745	369486	keystroke_i	i	n/a
184.8925	0.106	369785	keystroke_a	a	n/a
185.448	0.06	370896	keystroke_Key.space	Key.space	n/a
186.018	0.1505	372036	keystroke_b	b	n/a
186.1385	0.0895	372277	keystroke_u	u	n/a
186.348	0.105	372696	keystroke_s	s	n/a
186.438	0.06	372876	keystroke_i	i	n/a
186.648	0.075	373296	keystroke_n	n	n/a
186.768	0.09	373536	keystroke_e	e	n/a
187.008	0.075	374016	keystroke_s	s	n/a
187.158	0.1045	374316	keystroke_s	s	n/a
187.3675	0.136	374735	keystroke_e	e	n/a
187.4575	0.121	374915	keystroke_s	s	n/a
187.6985	0.06	375397	keystroke_Key.space	Key.space	n/a
187.8785	0.135	375757	keystroke_m	m	n/a
187.9385	0.12	375877	keystroke_i	i	n/a
188.0885	0.105	376177	keystroke_d	d	n/a
188.253	0.15	376506	keystroke_n	n	n/a
188.358	0.075	376716	keystroke_i	i	n/a
188.493	0.1055	376986	keystroke_g	g	n/a
188.6285	0.075	377257	keystroke_h	h	n/a
188.7335	0.06	377467	keystroke_t	t	n/a
189.123	0.09	378246	keystroke_Key.space	Key.space	n/a
189.588	0.135	379176	keystroke_b	b	n/a
189.663	0.105	379326	keystroke_u	u	n/a
189.948	0.165	379896	keystroke_a	a	n/a
190.608	0.075	381216	keystroke_Key.backspace	Key.backspace	n/a
190.698	0.18	381396	keystroke_d	d	n/a
190.788	0.1345	381576	keystroke_a	a	n/a
191.0125	0.105	382025	keystroke_p	p	n/a
191.2835	0.09	382567	keystroke_e	e	n/a
191.5225	0.15	383045	keystroke_s	s	n/a
191.5975	0.105	383195	keystroke_t	t	n/a
191.9275	0.075	383855	keystroke_Key.enter	Key.enter	n/a
192.0095	7.615	384019	prompt	n/a	actions while treasurer jobs\n
192.813	0.15	385626	keystroke_a	a	n/a
192.933	0.075	385866	keystroke_c	c	n/a
193.128	0.135	386256	keystroke_t	t	n/a
193.308	0.045	386616	keystroke_i	i	n/a
193.338	0.03	386676	keystroke_o	o	n/a
193.443	0.105	386886	keystroke_n	n	n/a
193.593	0.09	387186	keystroke_s	s	n/a
194.088	0.105	388176	keystroke_Key.space	Key.space	n/a
194.313	0.105	388626	keystroke_w	w	n/a
194.388	0.135	388776	keystroke_h	h	n/a
194.463	0.105	388926	keystroke_i	i	n/a
194.733	0.06	389466	keystroke_l	l	n/a
194.913	0.075	389826	keystroke_e	e	n/a
195.333	0.09	390666	keystroke_Key.space	Key.space	n/a
195.978	0.105	391956	keystroke_t	t	n/a
196.098	0.12	392196	keystroke_r	r	n/a
196.173	0.105	392346	keystroke_e	e	n/a
196.413	0.1355	392826	keystroke_s	s	n/a
196.968	0.1045	393936	keystroke_Key.backspace	Key.backspace	n/a
197.0875	0.12	394175	keystroke_a	a	n/a
197.2375	0.15	394475	keystroke_s	s	n/a
197.4025	0.09	394805	keystroke_u	u	n/a
197.5685	0.134	395137	keystroke_r	r	n/a
197.6575	0.105	395315	keystroke_e	e	n/a
197.8375	0.0905	395675	keystroke_r	r	n/a
198.468	0.0905	396936	keystroke_Key.space	Key.space	n/a
198.9035	0.105	397807	keystroke_j	j	n/a
198.9485	0.105	397897	keystroke_o	o	n/a
199.0835	0.12	398167	keystroke_b	b	n/a
199.3535	0.09	398707	keystroke_s	s	n/a
199.5485	0.075	399097	keystroke_Key.enter	Key.enter	n/a
199.627	7.5425	399254	prompt	n/a	warrant finnish function storm\n
200.5985	0.075	401197	keystroke_w	w	n/a
200.763	0.21	401526	keystroke_a	a	n/a
200.928	0.075	401856	keystroke_r	r	n/a
201.1235	0.15	402247	keystroke_r	r	n/a
201.3785	0.105	402757	keystroke_a	a	n/a
201.6035	0.03	403207	keystroke_n	n	n/a
201.7385	0.06	403477	keystroke_t	t	n/a
202.1135	0.075	404227	keystroke_Key.space	Key.space	n/a
202.473	0.105	404946	keystroke_f	f	n/a
202.668	0.0595	405336	keystroke_i	i	n/a
202.8185	0.105	405637	keystroke_n	n	n/a
202.8935	0.075	405787	keystroke_i	i	n/a
202.9985	0.105	405997	keystroke_s	s	n/a
203.1335	0.06	406267	keystroke_h	h	n/a
203.718	0.075	407436	keystroke_Key.space	Key.space	n/a
204.7225	0.1055	409445	keystroke_f	f	n/a
204.813	0.075	409626	keystroke_u	u	n/a
204.978	0.105	409956	keystroke_n	n	n/a
205.068	0.105	410136	keystroke_c	c	n/a
205.278	0.09	410556	keystroke_t	t	n/a
205.293	0.12	410586	keystroke_i	i	n/a
205.353	0.105	410706	keystroke_o	o	n/a
205.638	0.06	411276	keystroke_n	n	n/a
206.133	0.105	412266	keystroke_Key.space	Key.space	n/a
206.358	0.18	412716	keystroke_s	s	n/a
206.478	0.12	412956	keystroke_t	t	n/a
206.628	0.075	413256	keystroke_o	o	n/a
206.7935	0.075	413587	keystroke_r	r	n/a
206.9285	0.06	413857	keystroke_m	m	n/a
207.0785	0.09	414157	keystroke_Key.enter	Key.enter	n/a
207.172	17.0525	414344	prompt	n/a	seem projected commonwealth moment\n
208.503	0.1645	417006	keystroke_s	s	n/a
208.7125	0.105	417425	keystroke_e	e	n/a
208.8925	0.09	417785	keystroke_e	e	n/a
209.0725	0.075	418145	keystroke_m	m	n/a
210.138	0.105	420276	keystroke_p	p	n/a
210.288	0.1205	420576	keystroke_r	r	n/a
210.4235	0.06	420847	keystroke_o	o	n/a
210.7535	0.0895	421507	keystroke_j	j	n/a
210.978	0.2245	421956	keystroke_e	e	n/a
211.128	0.12	422256	keystroke_c	c	n/a
211.368	0.225	422736	keystroke_t	t	n/a
211.488	0.165	422976	keystroke_e	e	n/a
211.728	0.09	423456	keystroke_d	d	n/a
213.123	0.045	426246	keystroke_Key.backspace	Key.backspace	n/a
213.4375	0.045	426875	keystroke_Key.backspace	Key.backspace	n/a
213.5875	0.06	427175	keystroke_Key.backspace	Key.backspace	n/a
213.7525	0.06	427505	keystroke_Key.backspace	Key.backspace	n/a
213.9025	0.09	427805	keystroke_Key.backspace	Key.backspace	n/a
214.0675	0.06	428135	keystroke_Key.backspace	Key.backspace	n/a
214.2325	0.06	428465	keystroke_Key.backspace	Key.backspace	n/a
214.4125	0.06	428825	keystroke_Key.backspace	Key.backspace	n/a
214.6375	0.075	429275	keystroke_Key.backspace	Key.backspace	n/a
215.268	0.09	430536	keystroke_Key.space	Key.space	n/a
215.688	0.075	431376	keystroke_p	p	n/a
215.808	0.105	431616	keystroke_r	r	n/a
215.898	0.075	431796	keystroke_o	o	n/a
216.3175	0.016	432635	keystroke_h	h	n/a
216.678	0.075	433356	keystroke_Key.backspace	Key.backspace	n/a
217.6385	0.09	435277	keystroke_j	j	n/a
217.7435	0.1795	435487	keystroke_e	e	n/a
217.863	0.1355	435726	keystroke_c	c	n/a
218.1175	0.1955	436235	keystroke_t	t	n/a
218.1935	0.1495	436387	keystroke_e	e	n/a
218.4635	0.075	436927	keystroke_d	d	n/a
219.0035	0.075	438007	keystroke_Key.space	Key.space	n/a
219.3935	0.15	438787	keystroke_c	c	n/a
219.528	0.075	439056	keystroke_o	o	n/a
219.738	0.045	439476	keystroke_m	m	n/a
219.888	0.075	439776	keystroke_m	m	n/a
220.458	0.165	440916	keystroke_o	o	n/a
220.578	0.09	441156	keystroke_n	n	n/a
220.863	0.165	441726	keystroke_w	w	n/a
220.968	0.12	441936	keystroke_e	e	n/a
221.193	0.21	442386	keystroke_a	a	n/a
221.433	0.09	442866	keystroke_l	l	n/a
221.628	0.09	443256	keystroke_t	t	n/a
221.793	0.075	443586	keystroke_h	h	n/a
222.243	0.075	444486	keystroke_Key.space	Key.space	n/a
222.483	0.09	444966	keystroke_m	m	n/a
222.603	0.09	445206	keystroke_o	o	n/a
222.813	0.0895	445626	keystroke_m	m	n/a
223.0685	0.089	446137	keystroke_e	e	n/a
223.5325	0.06	447065	keystroke_n	n	n/a
223.6675	0.075	447335	keystroke_t	t	n/a
224.1475	0.075	448295	keystroke_Key.enter	Key.enter	n/a
224.227	9.0425	448454	prompt	n/a	earthquake patients doom reform\n
225.228	0.15	450456	keystroke_e	e	n/a
225.4075	0.1805	450815	keystroke_a	a	n/a
225.528	0.1195	451056	keystroke_r	r	n/a
225.7375	0.09	451475	keystroke_t	t	n/a
225.8575	0.06	451715	keystroke_h	h	n/a
226.2025	0.06	452405	keystroke_w	w	n/a
226.3235	0.075	452647	keystroke_u	u	n/a
227.028	0.075	454056	keystroke_Key.backspace	Key.backspace	n/a
227.178	0.09	454356	keystroke_Key.backspace	Key.backspace	n/a
227.418	0.1195	454836	keystroke_q	q	n/a
228.0025	0.1055	456005	keystroke_u	u	n/a
228.123	0.135	456246	keystroke_a	a	n/a
228.393	0.09	456786	keystroke_k	k	n/a
228.573	0.105	457146	keystroke_e	e	n/a
229.023	0.075	458046	keystroke_Key.space	Key.space	n/a
229.308	0.075	458616	keystroke_p	p	n/a
229.398	0.135	458796	keystroke_a	a	n/a
229.623	0.1045	459246	keystroke_t	t	n/a
229.6975	0.09	459395	keystroke_i	i	n/a
229.8175	0.105	459635	keystroke_e	e	n/a
230.0125	0.015	460025	keystroke_n	n	n/a
230.0275	0.09	460055	keystroke_t	t	n/a
230.6425	0.09	461285	keystroke_s	s	n/a
231.018	0.075	462036	keystroke_Key.space	Key.space	n/a
231.303	0.12	462606	keystroke_d	d	n/a
231.408	0.06	462816	keystroke_o	o	n/a
231.543	0.075	463086	keystroke_o	o	n/a
231.723	0.09	463446	keystroke_m	m	n/a
232.038	0.09	464076	keystroke_Key.space	Key.space	n/a
232.278	0.135	464556	keystroke_r	r	n/a
232.353	0.105	464706	keystroke_e	e	n/a
232.638	0.075	465276	keystroke_f	f	n/a
232.728	0.075	465456	keystroke_o	o	n/a
232.848	0.105	465696	keystroke_r	r	n/a
232.968	0.075	465936	keystroke_m	m	n/a
233.178	0.09	466356	keystroke_Key.enter	Key.enter	n/a
233.272	10.4515	466544	prompt	n/a	seating packets excel bass\n
234.243	0.2095	468486	keystroke_s	s	n/a
234.3775	0.135	468755	keystroke_e	e	n/a
234.5275	0.15	469055	keystroke_a	a	n/a
234.6325	0.105	469265	keystroke_t	t	n/a
234.7525	0.135	469505	keystroke_i	i	n/a
234.8275	0.09	469655	keystroke_n	n	n/a
234.9775	0.075	469955	keystroke_g	g	n/a
236.027	0.091	472054	keystroke_Key.space	Key.space	n/a
236.388	0.03	472776	keystroke_o	o	n/a
236.478	0.12	472956	keystroke_a	a	n/a
236.568	0.09	473136	keystroke_c	c	n/a
236.642	0.091	473284	keystroke_k	k	n/a
236.793	0.134	473586	keystroke_e	e	n/a
236.883	0.09	473766	keystroke_t	t	n/a
237.287	0.091	474574	keystroke_s	s	n/a
237.527	0.12	475054	keystroke_Key.space	Key.space	n/a
237.708	0.06	475416	keystroke_e	e	n/a
237.933	0.12	475866	keystroke_x	x	n/a
238.0825	0.18	476165	keystroke_c	c	n/a
239.657	0.106	479314	keystroke_e	e	n/a
239.852	0.031	479704	keystroke_l	l	n/a
239.987	0.06	479974	keystroke_l	l	n/a
241.112	0.105	482224	keystroke_Key.space	Key.space	n/a
241.517	0.075	483034	keystroke_Key.backspace	Key.backspace	n/a
241.652	0.06	483304	keystroke_Key.backspace	Key.backspace	n/a
242.072	0.12	484144	keystroke_Key.space	Key.space	n/a
242.327	0.09	484654	keystroke_b	b	n/a
242.447	0.165	484894	keystroke_a	a	n/a
242.9715	0.12	485943	keystroke_s	s	n/a
243.3465	0.1355	486693	keystroke_s	s	n/a
243.6165	0.105	487233	keystroke_Key.enter	Key.enter	n/a
243.7265	12.957	487453	prompt	n/a	cadillac requiring rangers pregnant\n
244.9375	0.09	489875	keystroke_c	c	n/a
244.9975	0.12	489995	keystroke_a	a	n/a
245.1615	0.12	490323	keystroke_d	d	n/a
245.2965	0.075	490593	keystroke_i	i	n/a
245.5215	0.061	491043	keystroke_l	l	n/a
245.6575	0.074	491315	keystroke_l	l	n/a
245.7615	0.165	491523	keystroke_a	a	n/a
246.0465	0.135	492093	keystroke_c	c	n/a
246.6315	0.09	493263	keystroke_Key.space	Key.space	n/a
247.142	0.15	494284	keystroke_r	r	n/a
247.217	0.135	494434	keystroke_e	e	n/a
248.9115	0.15	497823	keystroke_q	q	n/a
249.0315	0.135	498063	keystroke_u	u	n/a
249.1215	0.09	498243	keystroke_i	i	n/a
249.407	0.0145	498814	keystroke_r	r	n/a
249.4365	0.18	498873	keystroke_i	i	n/a
249.5415	0.0905	499083	keystroke_n	n	n/a
249.677	0.06	499354	keystroke_g	g	n/a
249.977	0.09	499954	keystroke_Key.space	Key.space	n/a
250.3365	0.12	500673	keystroke_r	r	n/a
250.4265	0.09	500853	keystroke_a	a	n/a
250.6365	0.045	501273	keystroke_g	g	n/a
250.9815	0.075	501963	keystroke_Key.backspace	Key.backspace	n/a
251.2515	0.06	502503	keystroke_n	n	n/a
251.3265	0.12	502653	keystroke_g	g	n/a
251.4615	0.15	502923	keystroke_e	e	n/a
251.5665	0.12	503133	keystroke_r	r	n/a
251.8065	0.09	503613	keystroke_s	s	n/a
252.1515	0.09	504303	keystroke_Key.space	Key.space	n/a
252.422	0.09	504844	keystroke_p	p	n/a
252.542	0.135	505084	keystroke_r	r	n/a
252.647	0.045	505294	keystroke_e	e	n/a
252.797	0.1195	505594	keystroke_g	g	n/a
253.0665	0.045	506133	keystroke_a	a	n/a
253.2615	0.091	506523	keystroke_n	n	n/a
253.5015	0.09	507003	keystroke_t	t	n/a
253.9215	0.06	507843	keystroke_Key.backspace	Key.backspace	n/a
254.0415	0.06	508083	keystroke_Key.backspace	Key.backspace	n/a
254.5215	0.0755	509043	keystroke_Key.backspace	Key.backspace	n/a
254.807	0.06	509614	keystroke_n	n	n/a
254.9115	0.15	509823	keystroke_a	a	n/a
255.2115	0.075	510423	keystroke_t	t	n/a
256.0815	0.06	512163	keystroke_Key.backspace	Key.backspace	n/a
256.307	0.075	512614	keystroke_n	n	n/a
256.412	0.09	512824	keystroke_t	t	n/a
256.6065	0.075	513213	keystroke_Key.enter	Key.enter	n/a
256.6865	8.0815	513373	prompt	n/a	character decorative thought athens\n
257.6115	0.105	515223	keystroke_c	c	n/a
257.7325	0.074	515465	keystroke_h	h	n/a
257.8215	0.15	515643	keystroke_a	a	n/a
257.9415	0.12	515883	keystroke_r	r	n/a
258.1065	0.166	516213	keystroke_a	a	n/a
258.3015	0.09	516603	keystroke_c	c	n/a
258.5115	0.135	517023	keystroke_t	t	n/a
258.7365	0.2105	517473	keystroke_e	e	n/a
258.8715	0.1205	517743	keystroke_r	r	n/a
259.142	0.09	518284	keystroke_Key.space	Key.space	n/a
259.577	0.15	519154	keystroke_d	d	n/a
259.682	0.105	519364	keystroke_e	e	n/a
259.892	0.12	519784	keystroke_c	c	n/a
260.027	0.075	520054	keystroke_o	o	n/a
260.222	0.12	520444	keystroke_r	r	n/a
260.327	0.12	520654	keystroke_a	a	n/a
260.477	0.12	520954	keystroke_t	t	n/a
260.612	0.09	521224	keystroke_i	i	n/a
260.732	0.1345	521464	keystroke_v	v	n/a
260.8215	0.12	521643	keystroke_e	e	n/a
261.482	0.075	522964	keystroke_Key.space	Key.space	n/a
261.857	0.105	523714	keystroke_t	t	n/a
261.947	0.075	523894	keystroke_h	h	n/a
262.052	0.15	524104	keystroke_o	o	n/a
262.127	0.105	524254	keystroke_u	u	n/a
262.217	0.045	524434	keystroke_g	g	n/a
262.322	0.09	524644	keystroke_h	h	n/a
262.427	0.0745	524854	keystroke_t	t	n/a
263.117	0.075	526234	keystroke_Key.space	Key.space	n/a
263.537	0.09	527074	keystroke_a	a	n/a
263.732	0.1195	527464	keystroke_t	t	n/a
263.8365	0.06	527673	keystroke_h	h	n/a
264.0015	0.075	528003	keystroke_e	e	n/a
264.1065	0.06	528213	keystroke_n	n	n/a
264.2265	0.105	528453	keystroke_s	s	n/a
264.7215	0.0455	529443	keystroke_Key.enter	Key.enter	n/a
264.771	14.817	529542	prompt	n/a	wrestling oliver add edition\n
266.3265	0.105	532653	keystroke_w	w	n/a
266.582	0.135	533164	keystroke_r	r	n/a
266.822	0.135	533644	keystroke_e	e	n/a
267.677	0.105	535354	keystroke_s	s	n/a
267.932	0.0745	535864	keystroke_t	t	n/a
268.2465	0.15	536493	keystroke_i	i	n/a
268.6215	0.09	537243	keystroke_Key.backspace	Key.backspace	n/a
269.4315	0.075	538863	keystroke_l	l	n/a
269.7465	0.135	539493	keystroke_i	i	n/a
269.8515	0.075	539703	keystroke_n	n	n/a
270.0165	0.09	540033	keystroke_g	g	n/a
270.5265	0.045	541053	keystroke_n	n	n/a
271.292	0.06	542584	keystroke_o	o	n/a
271.862	0.059	543724	keystroke_Key.backspace	Key.backspace	n/a
272.0125	0.074	544025	keystroke_Key.backspace	Key.backspace	n/a
272.5215	0.12	545043	keystroke_Key.space	Key.space	n/a
273.0015	0.075	546003	keystroke_o	o	n/a
273.197	0.09	546394	keystroke_l	l	n/a
273.332	0.105	546664	keystroke_i	i	n/a
273.917	0.105	547834	keystroke_v	v	n/a
274.097	0.135	548194	keystroke_e	e	n/a
274.172	0.15	548344	keystroke_r	r	n/a
274.847	0.09	549694	keystroke_Key.space	Key.space	n/a
275.252	0.09	550504	keystroke_e	e	n/a
276.167	0.089	552334	keystroke_Key.backspace	Key.backspace	n/a
276.361	0.226	552722	keystroke_a	a	n/a
276.572	0.0895	553144	keystroke_d	d	n/a
276.7665	0.075	553533	keystroke_d	d	n/a
277.0065	0.1055	554013	keystroke_Key.space	Key.space	n/a
277.337	0.0895	554674	keystroke_a	a	n/a
277.892	0.09	555784	keystroke_Key.backspace	Key.backspace	n/a
278.027	0.09	556054	keystroke_e	e	n/a
278.222	0.0895	556444	keystroke_d	d	n/a
278.2965	0.075	556593	keystroke_i	i	n/a
278.4465	0.12	556893	keystroke_t	t	n/a
278.5215	0.135	557043	keystroke_i	i	n/a
278.6115	0.075	557223	keystroke_o	o	n/a
278.9715	0.105	557943	keystroke_n	n	n/a
279.5115	0.075	559023	keystroke_Key.enter	Key.enter	n/a
279.5915	10.287	559183	prompt	n/a	profits maternity legendary beneficial\n
280.622	0.09	561244	keystroke_p	p	n/a
280.727	0.0895	561454	keystroke_r	r	n/a
280.8315	0.075	561663	keystroke_o	o	n/a
281.2515	0.09	562503	keystroke_f	f	n/a
281.3865	0.09	562773	keystroke_i	i	n/a
281.4775	0.089	562955	keystroke_t	t	n/a
281.7465	0.12	563493	keystroke_s	s	n/a
282.1365	0.09	564273	keystroke_Key.space	Key.space	n/a
282.407	0.075	564814	keystroke_m	m	n/a
282.542	0.1645	565084	keystroke_a	a	n/a
283.022	0.15	566044	keystroke_t	t	n/a
283.157	0.165	566314	keystroke_e	e	n/a
283.232	0.135	566464	keystroke_r	r	n/a
283.487	0.12	566974	keystroke_n	n	n/a
283.547	0.12	567094	keystroke_i	i	n/a
283.697	0.105	567394	keystroke_t	t	n/a
283.832	0.1045	567664	keystroke_y	y	n/a
284.5515	0.075	569103	keystroke_Key.space	Key.space	n/a
284.8515	0.075	569703	keystroke_l	l	n/a
285.0015	0.12	570003	keystroke_e	e	n/a
285.1815	0.12	570363	keystroke_g	g	n/a
285.2725	0.104	570545	keystroke_e	e	n/a
285.3615	0.075	570723	keystroke_n	n	n/a
285.5715	0.135	571143	keystroke_d	d	n/a
285.6765	0.135	571353	keystroke_a	a	n/a
285.7965	0.135	571593	keystroke_r	r	n/a
286.2615	0.0605	572523	keystroke_y	y	n/a
287.1465	0.09	574293	keystroke_Key.space	Key.space	n/a
287.5815	0.09	575163	keystroke_b	b	n/a
287.7165	0.075	575433	keystroke_e	e	n/a
287.8365	0.06	575673	keystroke_n	n	n/a
287.9415	0.06	575883	keystroke_e	e	n/a
288.7065	0.105	577413	keystroke_f	f	n/a
288.8125	0.074	577625	keystroke_i	i	n/a
289.0215	0.15	578043	keystroke_c	c	n/a
289.2315	0.075	578463	keystroke_i	i	n/a
289.3815	0.075	578763	keystroke_a	a	n/a
289.5165	0.075	579033	keystroke_l	l	n/a
289.8015	0.0755	579603	keystroke_Key.enter	Key.enter	n/a
289.8815	7.242	579763	prompt	n/a	annie slideshow changes swim\n
290.672	0.09	581344	keystroke_a	a	n/a
290.822	0.015	581644	keystroke_n	n	n/a
290.972	0.12	581944	keystroke_n	n	n/a
291.137	0.06	582274	keystroke_i	i	n/a
291.287	0.09	582574	keystroke_e	e	n/a
292.157	0.075	584314	keystroke_Key.space	Key.space	n/a
292.652	0.15	585304	keystroke_s	s	n/a
292.832	0.15	585664	keystroke_l	l	n/a
292.922	0.09	585844	keystroke_i	i	n/a
293.027	0.135	586054	keystroke_d	d	n/a
293.117	0.09	586234	keystroke_e	e	n/a
293.312	0.105	586624	keystroke_s	s	n/a
293.402	0.18	586804	keystroke_h	h	n/a
293.537	0.09	587074	keystroke_o	o	n/a
293.687	0.06	587374	keystroke_w	w	n/a
294.212	0.075	588424	keystroke_Key.space	Key.space	n/a
294.482	0.135	588964	keystroke_c	c	n/a
294.602	0.06	589204	keystroke_h	h	n/a
294.677	0.12	589354	keystroke_a	a	n/a
294.752	0.1495	589504	keystroke_n	n	n/a
294.9615	0.18	589923	keystroke_g	g	n/a
295.0515	0.1355	590103	keystroke_e	e	n/a
295.307	0.12	590614	keystroke_s	s	n/a
296.057	0.045	592114	keystroke_Key.space	Key.space	n/a
296.297	0.105	592594	keystroke_s	s	n/a
296.4915	0.12	592983	keystroke_w	w	n/a
296.6415	0.165	593283	keystroke_i	i	n/a
296.7475	0.1195	593495	keystroke_m	m	n/a
297.032	0.0895	594064	keystroke_Key.enter	Key.enter	n/a
297.128	4.0605	594256	prompt	n/a	view payday remains internet\n
298.3065	0.105	596613	keystroke_v	v	n/a
298.4415	0.09	596883	keystroke_i	i	n/a
298.6515	0.15	597303	keystroke_e	e	n/a
298.7265	0.12	597453	keystroke_w	w	n/a
299.342	0.075	598684	keystroke_Key.space	Key.space	n/a
299.792	0.09	599584	keystroke_p	p	n/a
299.987	0.09	599974	keystroke_a	a	n/a
300.167	0.09	600334	keystroke_y	y	n/a
300.302	0.15	600604	keystroke_d	d	n/a
300.407	0.105	600814	keystroke_a	a	n/a
300.542	0.09	601084	keystroke_y	y	n/a
301.1415	0.045	602283	keystroke_Key.enter	Key.enter	n/a
301.1915	11.067	602383	prompt	n/a	metric imaging demanding friendship\n
301.4715	0.165	602943	keystroke_r	r	n/a
301.5615	0.135	603123	keystroke_e	e	n/a
301.7265	0.09	603453	keystroke_m	m	n/a
301.8765	0.0905	603753	keystroke_a	a	n/a
301.997	0.135	603994	keystroke_i	i	n/a
302.072	0.09	604144	keystroke_n	n	n/a
302.747	0.12	605494	keystroke_s	s	n/a
303.167	0.06	606334	keystroke_Key.backspace	Key.backspace	n/a
303.3165	0.15	606633	keystroke_Key.backspace	Key.backspace	n/a
303.5115	0.06	607023	keystroke_Key.backspace	Key.backspace	n/a
303.6315	0.06	607263	keystroke_Key.backspace	Key.backspace	n/a
303.7515	0.06	607503	keystroke_Key.backspace	Key.backspace	n/a
303.8565	0.06	607713	keystroke_Key.backspace	Key.backspace	n/a
303.9765	0.06	607953	keystroke_Key.backspace	Key.backspace	n/a
304.0965	0.045	608193	keystroke_Key.backspace	Key.backspace	n/a
304.9365	0.075	609873	keystroke_m	m	n/a
305.0415	0.105	610083	keystroke_e	e	n/a
305.2815	0.12	610563	keystroke_t	t	n/a
305.3265	0.135	610653	keystroke_r	r	n/a
305.4765	0.0605	610953	keystroke_i	i	n/a
305.672	0.105	611344	keystroke_c	c	n/a
306.2565	0.1055	612513	keystroke_Key.space	Key.space	n/a
306.692	0.1055	613384	keystroke_i	i	n/a
306.8265	0.105	613653	keystroke_m	m	n/a
307.0215	0.1055	614043	keystroke_a	a	n/a
307.262	0.105	614524	keystroke_g	g	n/a
307.352	0.1045	614704	keystroke_i	i	n/a
307.3965	0.105	614793	keystroke_n	n	n/a
307.5475	0.074	615095	keystroke_g	g	n/a
308.0725	0.09	616145	keystroke_Key.space	Key.space	n/a
308.3575	0.15	616715	keystroke_d	d	n/a
308.4625	0.12	616925	keystroke_e	e	n/a
308.5515	0.076	617103	keystroke_m	m	n/a
308.7315	0.12	617463	keystroke_a	a	n/a
308.7765	0.09	617553	keystroke_n	n	n/a
308.9115	0.12	617823	keystroke_d	d	n/a
309.0765	0.12	618153	keystroke_i	i	n/a
309.1365	0.105	618273	keystroke_n	n	n/a
309.2865	0.0745	618573	keystroke_g	g	n/a
309.7515	0.105	619503	keystroke_Key.space	Key.space	n/a
310.0965	0.09	620193	keystroke_f	f	n/a
310.2915	0.091	620583	keystroke_r	r	n/a
310.4565	0.06	620913	keystroke_i	i	n/a
310.5015	0.1055	621003	keystroke_e	e	n/a
310.7125	0.0595	621425	keystroke_n	n	n/a
310.802	0.105	621604	keystroke_d	d	n/a
311.042	0.06	622084	keystroke_h	h	n/a
311.222	0.105	622444	keystroke_s	s	n/a
311.297	0.075	622594	keystroke_i	i	n/a
311.507	0.105	623014	keystroke_p	p	n/a
312.1825	0.075	624365	keystroke_Key.enter	Key.enter	n/a
312.261	12.418	624522	prompt	n/a	span creativity castle conjunction\n
313.0525	0.105	626105	keystroke_s	s	n/a
313.1425	0.06	626285	keystroke_p	p	n/a
313.2925	0.105	626585	keystroke_a	a	n/a
313.4275	0.075	626855	keystroke_n	n	n/a
313.9075	0.089	627815	keystroke_Key.space	Key.space	n/a
314.2965	0.105	628593	keystroke_c	c	n/a
314.522	0.1645	629044	keystroke_r	r	n/a
314.5965	0.105	629193	keystroke_e	e	n/a
314.6715	0.151	629343	keystroke_a	a	n/a
314.8525	0.12	629705	keystroke_t	t	n/a
315.0025	0.075	630005	keystroke_i	i	n/a
315.1075	0.09	630215	keystroke_v	v	n/a
315.2125	0.09	630425	keystroke_i	i	n/a
315.3925	0.09	630785	keystroke_t	t	n/a
315.5875	0.06	631175	keystroke_y	y	n/a
315.6025	0.015	631205	keystroke_u	u	n/a
316.5325	0.09	633065	keystroke_Key.backspace	Key.backspace	n/a
317.0275	0.09	634055	keystroke_Key.space	Key.space	n/a
317.4625	0.165	634925	keystroke_c	c	n/a
317.6425	0.135	635285	keystroke_a	a	n/a
317.7325	0.15	635465	keystroke_s	s	n/a
317.9875	0.09	635975	keystroke_t	t	n/a
318.1375	0.06	636275	keystroke_l	l	n/a
318.7525	0.09	637505	keystroke_e	e	n/a
319.3825	0.06	638765	keystroke_Key.space	Key.space	n/a
319.847	0.105	639694	keystroke_c	c	n/a
319.967	0.135	639934	keystroke_o	o	n/a
320.042	0.075	640084	keystroke_n	n	n/a
320.3875	0.06	640775	keystroke_j	j	n/a
320.5075	0.075	641015	keystroke_u	u	n/a
320.7025	0.0745	641405	keystroke_n	n	n/a
320.822	0.121	641644	keystroke_c	c	n/a
321.017	0.15	642034	keystroke_i	i	n/a
321.062	0.09	642124	keystroke_t	t	n/a
321.107	0.075	642214	keystroke_o	o	n/a
321.257	0.091	642514	keystroke_n	n	n/a
321.468	0.12	642936	keystroke_s	s	n/a
322.413	0.06	644826	keystroke_Key.backspace	Key.backspace	n/a
322.563	0.029	645126	keystroke_Key.backspace	Key.backspace	n/a
322.668	0.059	645336	keystroke_Key.backspace	Key.backspace	n/a
322.772	0.045	645544	keystroke_Key.backspace	Key.backspace	n/a
322.907	0.045	645814	keystroke_Key.backspace	Key.backspace	n/a
323.6125	0.09	647225	keystroke_t	t	n/a
323.6725	0.1195	647345	keystroke_i	i	n/a
323.7325	0.0745	647465	keystroke_o	o	n/a
323.9125	0.075	647825	keystroke_n	n	n/a
324.0175	0.105	648035	keystroke_s	s	n/a
324.603	0.075	649206	keystroke_Key.enter	Key.enter	n/a
324.6815	10.3775	649363	prompt	n/a	lips blow efficient midi\n
327.785	0.013	655570	keystroke_l	l	n/a
327.9025	0.06	655805	keystroke_i	i	n/a
329.1925	0.03	658385	keystroke_p	p	n/a
329.3125	0.075	658625	keystroke_s	s	n/a
329.9275	0.09	659855	keystroke_Key.space	Key.space	n/a
330.8425	0.03	661685	keystroke_b	b	n/a
330.8575	0.06	661715	keystroke_l	l	n/a
331.0225	0.06	662045	keystroke_o	o	n/a
331.1575	0.075	662315	keystroke_w	w	n/a
331.7425	0.06	663485	keystroke_Key.space	Key.space	n/a
332.028	0.1045	664056	keystroke_e	e	n/a
332.3125	0.031	664625	keystroke_f	f	n/a
332.433	0.0745	664866	keystroke_f	f	n/a
332.5385	0.059	665077	keystroke_i	i	n/a
332.6875	0.075	665375	keystroke_c	c	n/a
332.7925	0.06	665585	keystroke_i	i	n/a
333.0485	0.104	666097	keystroke_e	e	n/a
333.2275	0.046	666455	keystroke_n	n	n/a
333.3625	0.06	666725	keystroke_t	t	n/a
333.7825	0.06	667565	keystroke_Key.space	Key.space	n/a
334.353	0.12	668706	keystroke_m	m	n/a
334.428	0.105	668856	keystroke_i	i	n/a
334.668	0.06	669336	keystroke_d	d	n/a
334.758	0.09	669516	keystroke_i	i	n/a
335.013	0.045	670026	keystroke_Key.enter	Key.enter	n/a
335.062	8.3225	670124	prompt	n/a	anaheim within assumed alien\n
336.198	0.0295	672396	keystroke_a	a	n/a
336.3775	0.06	672755	keystroke_n	n	n/a
336.4825	0.09	672965	keystroke_a	a	n/a
336.6625	0.045	673325	keystroke_h	h	n/a
336.7825	0.075	673565	keystroke_e	e	n/a
336.8885	0.059	673777	keystroke_i	i	n/a
337.1285	0.075	674257	keystroke_m	m	n/a
337.563	0.075	675126	keystroke_Key.space	Key.space	n/a
337.938	0.06	675876	keystroke_w	w	n/a
338.028	0.075	676056	keystroke_i	i	n/a
338.208	0.0595	676416	keystroke_t	t	n/a
338.2375	0.15	676475	keystroke_h	h	n/a
338.3125	0.135	676625	keystroke_i	i	n/a
338.883	0.045	677766	keystroke_n	n	n/a
339.6475	0.06	679295	keystroke_Key.space	Key.space	n/a
340.0225	0.0755	680045	keystroke_s	s	n/a
340.6525	0.09	681305	keystroke_Key.backspace	Key.backspace	n/a
340.818	0.15	681636	keystroke_a	a	n/a
340.953	0.105	681906	keystroke_s	s	n/a
341.133	0.12	682266	keystroke_s	s	n/a
341.238	0.06	682476	keystroke_u	u	n/a
341.418	0.105	682836	keystroke_m	m	n/a
341.5835	0.06	683167	keystroke_e	e	n/a
341.793	0.0755	683586	keystroke_d	d	n/a
342.0185	0.0895	684037	keystroke_Key.space	Key.space	n/a
342.213	0.105	684426	keystroke_a	a	n/a
342.423	0.075	684846	keystroke_l	l	n/a
342.6925	0.06	685385	keystroke_i	i	n/a
342.8425	0.075	685685	keystroke_e	e	n/a
343.0085	0.09	686017	keystroke_n	n	n/a
343.2925	0.09	686585	keystroke_Key.enter	Key.enter	n/a
343.3875	10.887	686775	prompt	n/a	assigned treatment mentor liable\n
344.8975	0.1955	689795	keystroke_a	a	n/a
345.108	0.075	690216	keystroke_s	s	n/a
345.258	0.1055	690516	keystroke_s	s	n/a
345.3935	0.075	690787	keystroke_i	i	n/a
345.5735	0.0895	691147	keystroke_g	g	n/a
345.678	0.09	691356	keystroke_n	n	n/a
345.783	0.075	691566	keystroke_e	e	n/a
345.978	0.075	691956	keystroke_d	d	n/a
346.233	0.105	692466	keystroke_Key.space	Key.space	n/a
346.683	0.21	693366	keystroke_t	t	n/a
346.833	0.135	693666	keystroke_e	e	n/a
347.163	0.075	694326	keystroke_a	a	n/a
348.183	0.06	696366	keystroke_Key.backspace	Key.backspace	n/a
348.7225	0.0605	697445	keystroke_Key.backspace	Key.backspace	n/a
349.098	0.06	698196	keystroke_Key.backspace	Key.backspace	n/a
349.713	0.105	699426	keystroke_t	t	n/a
349.998	0.195	699996	keystroke_r	r	n/a
350.148	0.135	700296	keystroke_e	e	n/a
350.343	0.15	700686	keystroke_a	a	n/a
350.448	0.09	700896	keystroke_t	t	n/a
350.688	0.06	701376	keystroke_m	m	n/a
350.763	0.075	701526	keystroke_e	e	n/a
350.898	0.06	701796	keystroke_n	n	n/a
350.973	0.09	701946	keystroke_t	t	n/a
351.378	0.075	702756	keystroke_Key.space	Key.space	n/a
351.573	0.075	703146	keystroke_m	m	n/a
351.663	0.075	703326	keystroke_e	e	n/a
351.783	0.06	703566	keystroke_n	n	n/a
351.918	0.09	703836	keystroke_t	t	n/a
352.068	0.06	704136	keystroke_o	o	n/a
352.248	0.06	704496	keystroke_r	r	n/a
352.833	0.075	705666	keystroke_Key.space	Key.space	n/a
353.223	0.075	706446	keystroke_l	l	n/a
353.403	0.075	706806	keystroke_i	i	n/a
353.523	0.075	707046	keystroke_a	a	n/a
353.673	0.0755	707346	keystroke_b	b	n/a
353.8685	0.075	707737	keystroke_l	l	n/a
354.0035	0.075	708007	keystroke_e	e	n/a
354.1985	0.075	708397	keystroke_Key.enter	Key.enter	n/a
354.278	11.8015	708556	prompt	n/a	hugh consultant scott printable\n
355.338	0.045	710676	keystroke_h	h	n/a
355.473	0.06	710946	keystroke_u	u	n/a
355.638	0.0605	711276	keystroke_g	g	n/a
355.7435	0.075	711487	keystroke_h	h	n/a
356.2085	0.045	712417	keystroke_Key.space	Key.space	n/a
356.628	0.105	713256	keystroke_c	c	n/a
356.853	0.12	713706	keystroke_o	o	n/a
356.928	0.105	713856	keystroke_n	n	n/a
357.153	0.09	714306	keystroke_s	s	n/a
357.243	0.06	714486	keystroke_u	u	n/a
357.438	0.09	714876	keystroke_l	l	n/a
357.543	0.1355	715086	keystroke_t	t	n/a
357.6935	0.075	715387	keystroke_a	a	n/a
357.8585	0.044	715717	keystroke_n	n	n/a
358.0085	0.074	716017	keystroke_t	t	n/a
359.358	0.075	718716	keystroke_Key.space	Key.space	n/a
359.703	0.12	719406	keystroke_s	s	n/a
359.988	0.045	719976	keystroke_o	o	n/a
360.333	0.09	720666	keystroke_Key.backspace	Key.backspace	n/a
360.543	0.075	721086	keystroke_c	c	n/a
360.7835	0.06	721567	keystroke_o	o	n/a
360.9485	0.06	721897	keystroke_o	o	n/a
361.2035	0.045	722407	keystroke_t	t	n/a
361.4435	0.06	722887	keystroke_Key.backspace	Key.backspace	n/a
361.5635	0.06	723127	keystroke_Key.backspace	Key.backspace	n/a
361.8035	0.045	723607	keystroke_t	t	n/a
362.0585	0.075	724117	keystroke_t	t	n/a
362.6585	0.09	725317	keystroke_Key.space	Key.space	n/a
363.0485	0.015	726097	keystroke_p	p	n/a
363.273	0.12	726546	keystroke_i	i	n/a
363.348	0.09	726696	keystroke_n	n	n/a
364.338	0.06	728676	keystroke_Key.backspace	Key.backspace	n/a
364.458	0.06	728916	keystroke_Key.backspace	Key.backspace	n/a
364.698	0.0755	729396	keystroke_r	r	n/a
364.8185	0.12	729637	keystroke_i	i	n/a
364.8785	0.09	729757	keystroke_n	n	n/a
364.9985	0.12	729997	keystroke_t	t	n/a
365.1335	0.105	730267	keystroke_a	a	n/a
365.3435	0.075	730687	keystroke_b	b	n/a
365.5535	0.075	731107	keystroke_l	l	n/a
365.703	0.09	731406	keystroke_e	e	n/a
365.988	0.09	731976	keystroke_Key.enter	Key.enter	n/a
366.084	6.041	732168	prompt	n/a	changed agent born timely\n
366.963	0.09	733926	keystroke_c	c	n/a
367.023	0.075	734046	keystroke_h	h	n/a
367.068	0.105	734136	keystroke_a	a	n/a
367.188	0.105	734376	keystroke_n	n	n/a
367.278	0.12	734556	keystroke_g	g	n/a
367.353	0.12	734706	keystroke_e	e	n/a
367.563	0.09	735126	keystroke_d	d	n/a
368.013	0.09	736026	keystroke_Key.space	Key.space	n/a
368.238	0.09	736476	keystroke_a	a	n/a
368.433	0.135	736866	keystroke_g	g	n/a
368.538	0.105	737076	keystroke_e	e	n/a
368.673	0.076	737346	keystroke_n	n	n/a
368.7785	0.075	737557	keystroke_t	t	n/a
369.2425	0.105	738485	keystroke_Key.space	Key.space	n/a
370.0675	0.076	740135	keystroke_b	b	n/a
370.2485	0.075	740497	keystroke_o	o	n/a
370.3835	0.06	740767	keystroke_r	r	n/a
370.5185	0.075	741037	keystroke_n	n	n/a
370.8485	0.075	741697	keystroke_Key.space	Key.space	n/a
371.1635	0.12	742327	keystroke_t	t	n/a
371.2385	0.12	742477	keystroke_i	i	n/a
371.3135	0.105	742627	keystroke_m	m	n/a
371.4035	0.09	742807	keystroke_e	e	n/a
371.5085	0.105	743017	keystroke_l	l	n/a
371.7185	0.0745	743437	keystroke_y	y	n/a
372.033	0.09	744066	keystroke_Key.enter	Key.enter	n/a
372.1275	6.597	744255	prompt	n/a	riders department when system\n
372.9485	0.105	745897	keystroke_r	r	n/a
373.0385	0.075	746077	keystroke_i	i	n/a
373.2035	0.135	746407	keystroke_d	d	n/a
373.3235	0.15	746647	keystroke_e	e	n/a
373.4285	0.09	746857	keystroke_r	r	n/a
373.6085	0.105	747217	keystroke_s	s	n/a
374.0285	0.06	748057	keystroke_Key.space	Key.space	n/a
374.178	0.15	748356	keystroke_d	d	n/a
374.283	0.12	748566	keystroke_e	e	n/a
374.433	0.09	748866	keystroke_p	p	n/a
374.538	0.135	749076	keystroke_a	a	n/a
374.613	0.075	749226	keystroke_r	r	n/a
374.7935	0.045	749587	keystroke_t	t	n/a
375.378	0.075	750756	keystroke_m	m	n/a
375.513	0.09	751026	keystroke_e	e	n/a
375.648	0.0605	751296	keystroke_n	n	n/a
375.7685	0.075	751537	keystroke_t	t	n/a
376.1435	0.09	752287	keystroke_Key.space	Key.space	n/a
376.413	0.105	752826	keystroke_w	w	n/a
376.533	0.0605	753066	keystroke_h	h	n/a
376.6385	0.09	753277	keystroke_e	e	n/a
376.6985	0.09	753397	keystroke_n	n	n/a
377.1785	0.075	754357	keystroke_Key.space	Key.space	n/a
377.7185	0.06	755437	keystroke_s	s	n/a
377.8385	0.045	755677	keystroke_y	y	n/a
377.8685	0.105	755737	keystroke_s	s	n/a
378.1535	0.18	756307	keystroke_t	t	n/a
378.2585	0.135	756517	keystroke_e	e	n/a
378.4085	0.03	756817	keystroke_m	m	n/a
378.6635	0.059	757327	keystroke_Key.enter	Key.enter	n/a
378.727	8.5325	757454	prompt	n/a	optimize webpage although encouraged\n
379.983	0.06	759966	keystroke_o	o	n/a
380.133	0.045	760266	keystroke_p	p	n/a
380.298	0.03	760596	keystroke_t	t	n/a
380.343	0.06	760686	keystroke_i	i	n/a
380.523	0.105	761046	keystroke_m	m	n/a
380.598	0.105	761196	keystroke_i	i	n/a
380.868	0.135	761736	keystroke_z	z	n/a
380.973	0.12	761946	keystroke_e	e	n/a
381.9475	0.075	763895	keystroke_Key.space	Key.space	n/a
382.3085	0.0895	764617	keystroke_w	w	n/a
382.3385	0.1055	764677	keystroke_e	e	n/a
382.563	0.076	765126	keystroke_b	b	n/a
382.7885	0.075	765577	keystroke_p	p	n/a
382.8785	0.135	765757	keystroke_a	a	n/a
383.0285	0.135	766057	keystroke_g	g	n/a
383.1335	0.075	766267	keystroke_e	e	n/a
383.6735	0.075	767347	keystroke_Key.space	Key.space	n/a
384.078	0.075	768156	keystroke_a	a	n/a
384.168	0.0905	768336	keystroke_l	l	n/a
384.3635	0.09	768727	keystroke_t	t	n/a
384.4685	0.045	768937	keystroke_h	h	n/a
384.5585	0.09	769117	keystroke_o	o	n/a
384.6335	0.075	769267	keystroke_u	u	n/a
384.7385	0.075	769477	keystroke_g	g	n/a
384.8435	0.09	769687	keystroke_h	h	n/a
385.503	0.075	771006	keystroke_Key.space	Key.space	n/a
385.848	0.09	771696	keystroke_e	e	n/a
385.953	0.075	771906	keystroke_n	n	n/a
386.163	0.091	772326	keystroke_c	c	n/a
386.239	0.105	772478	keystroke_o	o	n/a
386.269	0.105	772538	keystroke_u	u	n/a
386.389	0.105	772778	keystroke_r	r	n/a
386.509	0.105	773018	keystroke_a	a	n/a
386.733	0.136	773466	keystroke_g	g	n/a
386.824	0.134	773648	keystroke_e	e	n/a
387.049	0.105	774098	keystroke_d	d	n/a
387.184	0.074	774368	keystroke_Key.enter	Key.enter	n/a
387.2625	7.8275	774525	prompt	n/a	spies patents cables bargains\n
388.4135	0.105	776827	keystroke_s	s	n/a
388.5335	0.09	777067	keystroke_p	p	n/a
388.758	0.075	777516	keystroke_i	i	n/a
388.863	0.075	777726	keystroke_e	e	n/a
389.058	0.105	778116	keystroke_s	s	n/a
389.3585	0.105	778717	keystroke_Key.space	Key.space	n/a
389.8385	0.075	779677	keystroke_p	p	n/a
390.0335	0.09	780067	keystroke_a	a	n/a
390.2285	0.15	780457	keystroke_t	t	n/a
390.3335	0.105	780667	keystroke_e	e	n/a
390.4685	0.06	780937	keystroke_n	n	n/a
390.6035	0.09	781207	keystroke_t	t	n/a
391.009	0.075	782018	keystroke_s	s	n/a
391.4435	0.09	782887	keystroke_Key.space	Key.space	n/a
391.7885	0.1195	783577	keystroke_c	c	n/a
391.8635	0.0895	783727	keystroke_a	a	n/a
392.043	0.06	784086	keystroke_b	b	n/a
392.1785	0.09	784357	keystroke_l	l	n/a
392.3135	0.075	784627	keystroke_e	e	n/a
392.5235	0.06	785047	keystroke_s	s	n/a
392.6885	0.09	785377	keystroke_Key.space	Key.space	n/a
393.739	0.09	787478	keystroke_b	b	n/a
393.813	0.136	787626	keystroke_a	a	n/a
393.903	0.09	787806	keystroke_r	r	n/a
394.129	0.105	788258	keystroke_g	g	n/a
394.249	0.135	788498	keystroke_a	a	n/a
394.399	0.075	788798	keystroke_i	i	n/a
394.444	0.075	788888	keystroke_n	n	n/a
394.594	0.09	789188	keystroke_s	s	n/a
395.0285	0.06	790057	keystroke_Key.enter	Key.enter	n/a
395.094	7.766	790188	prompt	n/a	disorder for revelation sublime\n
396.2285	0.0745	792457	keystroke_d	d	n/a
396.318	0.015	792636	keystroke_i	i	n/a
396.364	0.075	792728	keystroke_s	s	n/a
396.6035	0.075	793207	keystroke_o	o	n/a
396.7535	0.06	793507	keystroke_r	r	n/a
396.9335	0.15	793867	keystroke_d	d	n/a
397.0385	0.165	794077	keystroke_e	e	n/a
397.1435	0.105	794287	keystroke_r	r	n/a
397.638	0.075	795276	keystroke_Key.space	Key.space	n/a
397.938	0.075	795876	keystroke_f	f	n/a
398.058	0.015	796116	keystroke_o	o	n/a
398.103	0.09	796206	keystroke_r	r	n/a
398.253	0.105	796506	keystroke_Key.space	Key.space	n/a
399.0185	0.12	798037	keystroke_r	r	n/a
399.0935	0.09	798187	keystroke_e	e	n/a
399.2885	0.195	798577	keystroke_v	v	n/a
399.6485	0.075	799297	keystroke_e	e	n/a
399.8585	0.075	799717	keystroke_l	l	n/a
400.0535	0.12	800107	keystroke_a	a	n/a
400.1285	0.105	800257	keystroke_t	t	n/a
400.1885	0.1205	800377	keystroke_i	i	n/a
400.249	0.09	800498	keystroke_o	o	n/a
400.429	0.09	800858	keystroke_n	n	n/a
400.8035	0.09	801607	keystroke_Key.space	Key.space	n/a
401.193	0.075	802386	keystroke_s	s	n/a
401.313	0.045	802626	keystroke_u	u	n/a
401.553	0.075	803106	keystroke_b	b	n/a
401.658	0.135	803316	keystroke_l	l	n/a
401.748	0.075	803496	keystroke_i	i	n/a
402.004	0.059	804008	keystroke_m	m	n/a
402.183	0.091	804366	keystroke_e	e	n/a
402.784	0.074	805568	keystroke_Key.enter	Key.enter	n/a
402.8635	8.187	805727	prompt	n/a	nasa flight tragedy cited\n
403.878	0.075	807756	keystroke_n	n	n/a
403.998	0.15	807996	keystroke_a	a	n/a
404.164	0.135	808328	keystroke_s	s	n/a
404.434	0.059	808868	keystroke_a	a	n/a
404.6585	0.12	809317	keystroke_Key.space	Key.space	n/a
405.0485	0.075	810097	keystroke_f	f	n/a
405.0785	0.105	810157	keystroke_l	l	n/a
405.1535	0.06	810307	keystroke_i	i	n/a
406.083	0.075	812166	keystroke_g	g	n/a
406.203	0.03	812406	keystroke_h	h	n/a
406.293	0.06	812586	keystroke_t	t	n/a
406.743	0.09	813486	keystroke_Key.space	Key.space	n/a
407.0885	0.2095	814177	keystroke_t	t	n/a
407.254	0.134	814508	keystroke_r	r	n/a
407.463	0.136	814926	keystroke_a	a	n/a
407.658	0.105	815316	keystroke_g	g	n/a
407.779	0.149	815558	keystroke_e	e	n/a
408.3035	0.105	816607	keystroke_d	d	n/a
408.5285	0.075	817057	keystroke_y	y	n/a
409.038	0.075	818076	keystroke_Key.space	Key.space	n/a
409.533	0.06	819066	keystroke_i	i	n/a
409.8785	0.09	819757	keystroke_Key.backspace	Key.backspace	n/a
410.0285	0.09	820057	keystroke_c	c	n/a
410.1485	0.09	820297	keystroke_i	i	n/a
410.2835	0.225	820567	keystroke_t	t	n/a
410.4785	0.12	820957	keystroke_e	e	n/a
410.7185	0.09	821437	keystroke_d	d	n/a
410.9585	0.09	821917	keystroke_Key.enter	Key.enter	n/a
411.0535	13.257	822107	prompt	n/a	sociology constantly republican nigeria\n
412.1585	0.09	824317	keystroke_s	s	n/a
412.2785	0.045	824557	keystroke_o	o	n/a
412.6835	0.1055	825367	keystroke_c	c	n/a
412.774	0.075	825548	keystroke_i	i	n/a
412.984	0.09	825968	keystroke_l	l	n/a
413.134	0.075	826268	keystroke_o	o	n/a
414.303	0.06	828606	keystroke_Key.backspace	Key.backspace	n/a
414.439	0.06	828878	keystroke_Key.backspace	Key.backspace	n/a
414.544	0.045	829088	keystroke_Key.backspace	Key.backspace	n/a
415.3985	0.075	830797	keystroke_i	i	n/a
415.5785	0.075	831157	keystroke_o	o	n/a
415.7435	0.075	831487	keystroke_l	l	n/a
415.8935	0.09	831787	keystroke_o	o	n/a
416.1185	0.0755	832237	keystroke_g	g	n/a
416.299	0.09	832598	keystroke_y	y	n/a
416.838	0.075	833676	keystroke_Key.space	Key.space	n/a
417.198	0.091	834396	keystroke_c	c	n/a
417.304	0.135	834608	keystroke_o	o	n/a
417.378	0.106	834756	keystroke_n	n	n/a
417.754	0.164	835508	keystroke_s	s	n/a
417.859	0.134	835718	keystroke_t	t	n/a
418.008	0.075	836016	keystroke_a	a	n/a
418.128	0.0755	836256	keystroke_n	n	n/a
418.3085	0.06	836617	keystroke_t	t	n/a
418.4285	0.105	836857	keystroke_l	l	n/a
418.668	0.091	837336	keystroke_y	y	n/a
419.164	0.0895	838328	keystroke_Key.space	Key.space	n/a
419.4185	0.12	838837	keystroke_r	r	n/a
419.5235	0.09	839047	keystroke_e	e	n/a
419.7335	0.075	839467	keystroke_p	p	n/a
420.1085	0.075	840217	keystroke_u	u	n/a
420.6485	0.06	841297	keystroke_b	b	n/a
420.7235	0.12	841447	keystroke_l	l	n/a
420.7835	0.09	841567	keystroke_i	i	n/a
421.0235	0.12	842047	keystroke_c	c	n/a
421.2185	0.09	842437	keystroke_a	a	n/a
421.4285	0.06	842857	keystroke_n	n	n/a
421.8185	0.105	843637	keystroke_Key.space	Key.space	n/a
422.2235	0.105	844447	keystroke_n	n	n/a
422.2835	0.09	844567	keystroke_i	i	n/a
422.734	0.18	845468	keystroke_g	g	n/a
422.899	0.12	845798	keystroke_e	e	n/a
423.124	0.09	846248	keystroke_r	r	n/a
423.244	0.075	846488	keystroke_i	i	n/a
423.364	0.09	846728	keystroke_a	a	n/a
424.218	0.091	848436	keystroke_Key.enter	Key.enter	n/a
424.3145	6.6855	848629	prompt	n/a	dual violation filed neil\n
425.329	0.104	850658	keystroke_d	d	n/a
425.449	0.045	850898	keystroke_u	u	n/a
425.598	0.09	851196	keystroke_a	a	n/a
425.718	0.075	851436	keystroke_l	l	n/a
426.1235	0.045	852247	keystroke_Key.space	Key.space	n/a
426.6335	0.0595	853267	keystroke_v	v	n/a
426.6785	0.0595	853357	keystroke_i	i	n/a
426.8435	0.06	853687	keystroke_o	o	n/a
427.009	0.075	854018	keystroke_l	l	n/a
427.099	0.165	854198	keystroke_a	a	n/a
427.2185	0.0905	854437	keystroke_t	t	n/a
427.294	0.1045	854588	keystroke_i	i	n/a
427.3535	0.09	854707	keystroke_o	o	n/a
427.5485	0.075	855097	keystroke_n	n	n/a
428.494	0.06	856988	keystroke_Key.space	Key.space	n/a
429.0035	0.09	858007	keystroke_f	f	n/a
429.1085	0.06	858217	keystroke_i	i	n/a
429.2735	0.09	858547	keystroke_l	l	n/a
429.3935	0.075	858787	keystroke_e	e	n/a
429.6035	0.09	859207	keystroke_d	d	n/a
429.8135	0.09	859627	keystroke_Key.space	Key.space	n/a
430.1735	0.06	860347	keystroke_n	n	n/a
430.429	0.075	860858	keystroke_e	e	n/a
430.5635	0.06	861127	keystroke_i	i	n/a
430.7435	0.075	861487	keystroke_l	l	n/a
430.9235	0.075	861847	keystroke_Key.enter	Key.enter	n/a
431.003	7.257	862006	prompt	n/a	lisa paperbacks river breaks\n
431.7785	0.075	863557	keystroke_l	l	n/a
431.9435	0.075	863887	keystroke_i	i	n/a
432.0935	0.1505	864187	keystroke_s	s	n/a
432.259	0.12	864518	keystroke_a	a	n/a
432.589	0.09	865178	keystroke_Key.space	Key.space	n/a
432.8885	0.075	865777	keystroke_p	p	n/a
433.0685	0.09	866137	keystroke_a	a	n/a
433.1885	0.075	866377	keystroke_p	p	n/a
433.534	0.1345	867068	keystroke_e	e	n/a
433.6085	0.105	867217	keystroke_r	r	n/a
434.224	0.06	868448	keystroke_b	b	n/a
434.299	0.165	868598	keystroke_a	a	n/a
434.419	0.105	868838	keystroke_c	c	n/a
434.494	0.06	868988	keystroke_k	k	n/a
434.689	0.105	869378	keystroke_s	s	n/a
434.914	0.105	869828	keystroke_Key.space	Key.space	n/a
435.214	0.0895	870428	keystroke_r	r	n/a
435.3185	0.06	870637	keystroke_i	i	n/a
435.529	0.135	871058	keystroke_v	v	n/a
435.679	0.134	871358	keystroke_e	e	n/a
435.769	0.104	871538	keystroke_r	r	n/a
436.714	0.075	873428	keystroke_Key.space	Key.space	n/a
436.9535	0.09	873907	keystroke_b	b	n/a
437.0585	0.165	874117	keystroke_r	r	n/a
437.1185	0.15	874237	keystroke_e	e	n/a
437.2245	0.149	874449	keystroke_a	a	n/a
437.7185	0.075	875437	keystroke_k	k	n/a
437.9735	0.075	875947	keystroke_s	s	n/a
438.1835	0.0755	876367	keystroke_Key.enter	Key.enter	n/a
438.263	13.317	876526	prompt	n/a	jewellery negotiations toolkit timing\n
439.3235	0.075	878647	keystroke_j	j	n/a
439.5035	0.09	879007	keystroke_e	e	n/a
440.659	0.074	881318	keystroke_w	w	n/a
441.3185	0.09	882637	keystroke_e	e	n/a
441.5735	0.075	883147	keystroke_l	l	n/a
441.7085	0.075	883417	keystroke_l	l	n/a
441.7985	0.135	883597	keystroke_e	e	n/a
441.9935	0.105	883987	keystroke_r	r	n/a
442.2635	0.045	884527	keystroke_y	y	n/a
442.744	0.075	885488	keystroke_Key.space	Key.space	n/a
443.359	0.06	886718	keystroke_n	n	n/a
443.584	0.105	887168	keystroke_e	e	n/a
443.854	0.09	887708	keystroke_g	g	n/a
443.959	0.075	887918	keystroke_o	o	n/a
444.079	0.105	888158	keystroke_t	t	n/a
444.169	0.15	888338	keystroke_i	i	n/a
444.259	0.09	888518	keystroke_o	o	n/a
444.424	0.12	888848	keystroke_a	a	n/a
444.574	0.075	889148	keystroke_n	n	n/a
445.4285	0.045	890857	keystroke_Key.backspace	Key.backspace	n/a
445.5785	0.045	891157	keystroke_Key.backspace	Key.backspace	n/a
445.9385	0.12	891877	keystroke_o	o	n/a
446.0145	0.074	892029	keystroke_n	n	n/a
446.1485	0.09	892297	keystroke_s	s	n/a
446.539	0.075	893078	keystroke_Key.space	Key.space	n/a
446.824	0.075	893648	keystroke_t	t	n/a
447.049	0.06	894098	keystroke_o	o	n/a
447.919	0.075	895838	keystroke_o	o	n/a
448.174	0.075	896348	keystroke_l	l	n/a
448.519	0.0745	897038	keystroke_k	k	n/a
448.6685	0.1055	897337	keystroke_i	i	n/a
450.198	0.075	900396	keystroke_t	t	n/a
450.303	0.0755	900606	keystroke_Key.space	Key.space	n/a
450.4385	0.0745	900877	keystroke_t	t	n/a
450.514	0.1195	901028	keystroke_i	i	n/a
450.5885	0.075	901177	keystroke_m	m	n/a
450.7085	0.135	901417	keystroke_i	i	n/a
450.7835	0.09	901567	keystroke_n	n	n/a
450.9335	0.06	901867	keystroke_g	g	n/a
451.5035	0.075	903007	keystroke_Key.enter	Key.enter	n/a
451.5835	11.7865	903167	prompt	n/a	goes programmers gregory engineer\n
452.5095	0.119	905019	keystroke_g	g	n/a
452.6135	0.075	905227	keystroke_o	o	n/a
452.779	0.12	905558	keystroke_e	e	n/a
453.019	0.09	906038	keystroke_s	s	n/a
453.2735	0.105	906547	keystroke_Key.space	Key.space	n/a
453.5585	0.06	907117	keystroke_o	o	n/a
453.6635	0.075	907327	keystroke_r	r	n/a
453.7685	0.03	907537	keystroke_o	o	n/a
454.0835	0.09	908167	keystroke_g	g	n/a
454.2935	0.165	908587	keystroke_r	r	n/a
454.4585	0.12	908917	keystroke_a	a	n/a
454.804	0.06	909608	keystroke_m	m	n/a
455.134	0.285	910268	keystroke_=	=	n/a
455.554	0.06	911108	keystroke_Key.backspace	Key.backspace	n/a
455.689	0.06	911378	keystroke_Key.backspace	Key.backspace	n/a
455.809	0.045	911618	keystroke_Key.backspace	Key.backspace	n/a
455.914	0.045	911828	keystroke_Key.backspace	Key.backspace	n/a
456.034	0.06	912068	keystroke_Key.backspace	Key.backspace	n/a
456.139	0.06	912278	keystroke_Key.backspace	Key.backspace	n/a
456.259	0.06	912518	keystroke_Key.backspace	Key.backspace	n/a
456.6185	0.075	913237	keystroke_Key.backspace	Key.backspace	n/a
457.234	0.075	914468	keystroke_p	p	n/a
457.354	0.075	914708	keystroke_r	r	n/a
457.443	0.091	914886	keystroke_o	o	n/a
457.699	0.09	915398	keystroke_g	g	n/a
457.923	0.136	915846	keystroke_r	r	n/a
458.043	0.09	916086	keystroke_a	a	n/a
458.193	0.0755	916386	keystroke_m	m	n/a
458.3435	0.075	916687	keystroke_m	m	n/a
458.4485	0.105	916897	keystroke_e	e	n/a
458.5085	0.09	917017	keystroke_r	r	n/a
458.7185	0.09	917437	keystroke_s	s	n/a
459.2435	0.09	918487	keystroke_Key.space	Key.space	n/a
459.7835	0.09	919567	keystroke_g	g	n/a
459.9935	0.1205	919987	keystroke_r	r	n/a
460.083	0.091	920166	keystroke_e	e	n/a
460.4585	0.09	920917	keystroke_g	g	n/a
460.5635	0.03	921127	keystroke_o	o	n/a
460.6835	0.075	921367	keystroke_r	r	n/a
460.8035	0.09	921607	keystroke_y	y	n/a
461.434	0.075	922868	keystroke_Key.space	Key.space	n/a
461.7935	0.105	923587	keystroke_e	e	n/a
461.9285	0.06	923857	keystroke_n	n	n/a
462.169	0.09	924338	keystroke_g	g	n/a
462.273	0.0605	924546	keystroke_i	i	n/a
462.483	0.076	924966	keystroke_n	n	n/a
462.649	0.075	925298	keystroke_e	e	n/a
462.814	0.135	925628	keystroke_e	e	n/a
462.964	0.105	925928	keystroke_r	r	n/a
463.279	0.09	926558	keystroke_Key.enter	Key.enter	n/a
463.3735	9.057	926747	prompt	n/a	acquire almost words psychological\n
464.313	0.165	928626	keystroke_a	a	n/a
464.493	0.106	928986	keystroke_c	c	n/a
464.8535	0.09	929707	keystroke_q	q	n/a
465.0485	0.06	930097	keystroke_u	u	n/a
465.0785	0.09	930157	keystroke_i	i	n/a
465.2435	0.1355	930487	keystroke_r	r	n/a
465.334	0.105	930668	keystroke_e	e	n/a
465.8435	0.09	931687	keystroke_Key.space	Key.space	n/a
466.0535	0.075	932107	keystroke_a	a	n/a
466.1295	0.044	932259	keystroke_l	l	n/a
466.2935	0.135	932587	keystroke_m	m	n/a
466.3835	0.06	932767	keystroke_o	o	n/a
466.4735	0.12	932947	keystroke_s	s	n/a
466.5485	0.105	933097	keystroke_t	t	n/a
467.2535	0.09	934507	keystroke_Key.space	Key.space	n/a
467.5985	0.12	935197	keystroke_w	w	n/a
467.7035	0.06	935407	keystroke_o	o	n/a
467.7785	0.12	935557	keystroke_r	r	n/a
468.0335	0.135	936067	keystroke_d	d	n/a
468.1235	0.105	936247	keystroke_s	s	n/a
468.844	0.075	937688	keystroke_Key.space	Key.space	n/a
469.354	0.075	938708	keystroke_p	p	n/a
470.0585	0.0895	940117	keystroke_s	s	n/a
470.298	0.06	940596	keystroke_y	y	n/a
470.673	0.09	941346	keystroke_c	c	n/a
470.749	0.074	941498	keystroke_h	h	n/a
470.913	0.076	941826	keystroke_o	o	n/a
471.123	0.076	942246	keystroke_l	l	n/a
471.273	0.076	942546	keystroke_o	o	n/a
471.529	0.074	943058	keystroke_g	g	n/a
471.619	0.089	943238	keystroke_i	i	n/a
471.919	0.15	943838	keystroke_c	c	n/a
472.023	0.106	944046	keystroke_a	a	n/a
472.143	0.061	944286	keystroke_l	l	n/a
472.354	0.075	944708	keystroke_Key.enter	Key.enter	n/a
472.433	11.563	944866	prompt	n/a	establishment fits burner languages\n
473.209	0.075	946418	keystroke_e	e	n/a
473.404	0.105	946808	keystroke_s	s	n/a
473.584	0.12	947168	keystroke_t	t	n/a
473.689	0.105	947378	keystroke_a	a	n/a
473.914	0.06	947828	keystroke_b	b	n/a
474.124	0.105	948248	keystroke_l	l	n/a
474.214	0.06	948428	keystroke_i	i	n/a
474.229	0.06	948458	keystroke_u	u	n/a
475.2635	0.09	950527	keystroke_Key.backspace	Key.backspace	n/a
475.6085	0.09	951217	keystroke_s	s	n/a
475.7585	0.015	951517	keystroke_h	h	n/a
476.014	0.06	952028	keystroke_m	m	n/a
476.134	0.075	952268	keystroke_e	e	n/a
476.239	0.075	952478	keystroke_n	n	n/a
476.5985	0.09	953197	keystroke_t	t	n/a
476.9285	0.06	953857	keystroke_Key.space	Key.space	n/a
477.2285	0.06	954457	keystroke_f	f	n/a
477.3335	0.075	954667	keystroke_i	i	n/a
477.4235	0.105	954847	keystroke_t	t	n/a
477.7685	0.075	955537	keystroke_s	s	n/a
477.9785	0.09	955957	keystroke_Key.space	Key.space	n/a
478.3235	0.045	956647	keystroke_b	b	n/a
478.5785	0.09	957157	keystroke_r	r	n/a
478.6835	0.06	957367	keystroke_u	u	n/a
478.894	0.0595	957788	keystroke_n	n	n/a
478.9985	0.12	957997	keystroke_e	e	n/a
479.0585	0.1055	958117	keystroke_r	r	n/a
479.719	0.045	959438	keystroke_=	=	n/a
479.959	0.03	959918	keystroke_Key.backspace	Key.backspace	n/a
480.049	0.045	960098	keystroke_Key.backspace	Key.backspace	n/a
480.169	0.045	960338	keystroke_Key.backspace	Key.backspace	n/a
480.304	0.015	960608	keystroke_Key.backspace	Key.backspace	n/a
480.409	0.045	960818	keystroke_Key.backspace	Key.backspace	n/a
480.6485	0.075	961297	keystroke_Key.backspace	Key.backspace	n/a
481.0685	0.075	962137	keystroke_u	u	n/a
481.2035	0.075	962407	keystroke_r	r	n/a
481.3535	0.075	962707	keystroke_n	n	n/a
481.5485	0.12	963097	keystroke_e	e	n/a
481.6085	0.105	963217	keystroke_r	r	n/a
482.2385	0.075	964477	keystroke_Key.space	Key.space	n/a
482.5085	0.075	965017	keystroke_l	l	n/a
482.6285	0.075	965257	keystroke_a	a	n/a
483.019	0.12	966038	keystroke_g	g	n/a
483.154	0.075	966308	keystroke_u	u	n/a
483.258	0.09	966516	keystroke_a	a	n/a
483.439	0.149	966878	keystroke_g	g	n/a
483.528	0.12	967056	keystroke_e	e	n/a
483.768	0.09	967536	keystroke_s	s	n/a
483.903	0.09	967806	keystroke_Key.enter	Key.enter	n/a
483.9985	10.422	967997	prompt	n/a	sent surface estimates norton\n
485.614	0.15	971228	keystroke_s	s	n/a
485.704	0.09	971408	keystroke_e	e	n/a
485.794	0.045	971588	keystroke_n	n	n/a
485.9585	0.0755	971917	keystroke_t	t	n/a
486.4835	0.015	972967	keystroke_Key.space	Key.space	n/a
486.5885	0.1205	973177	keystroke_s	s	n/a
486.724	0.075	973448	keystroke_u	u	n/a
486.829	0.09	973658	keystroke_r	r	n/a
487.2785	0.1055	974557	keystroke_f	f	n/a
487.399	0.105	974798	keystroke_a	a	n/a
487.579	0.165	975158	keystroke_c	c	n/a
487.654	0.105	975308	keystroke_e	e	n/a
488.359	0.09	976718	keystroke_Key.space	Key.space	n/a
488.839	0.074	977678	keystroke_e	e	n/a
489.019	0.104	978038	keystroke_s	s	n/a
489.169	0.104	978338	keystroke_t	t	n/a
489.258	0.046	978516	keystroke_i	i	n/a
489.453	0.075	978906	keystroke_m	m	n/a
489.558	0.18	979116	keystroke_a	a	n/a
489.694	0.149	979388	keystroke_t	t	n/a
490.669	0.105	981338	keystroke_e	e	n/a
490.924	0.075	981848	keystroke_s	s	n/a
491.179	0.075	982358	keystroke_Key.space	Key.space	n/a
491.5685	0.045	983137	keystroke_o	o	n/a
492.334	0.09	984668	keystroke_Key.backspace	Key.backspace	n/a
492.6035	0.06	985207	keystroke_n	n	n/a
492.7235	0.105	985447	keystroke_o	o	n/a
492.9635	0.0755	985927	keystroke_r	r	n/a
493.668	0.045	987336	keystroke_t	t	n/a
493.818	0.061	987636	keystroke_o	o	n/a
494.0585	0.075	988117	keystroke_n	n	n/a
494.3285	0.09	988657	keystroke_Key.enter	Key.enter	n/a
494.423	8.3375	988846	prompt	n/a	muslim archive diameter dolls\n
495.5585	0.06	991117	keystroke_m	m	n/a
495.7235	0.075	991447	keystroke_u	u	n/a
495.8135	0.09	991627	keystroke_s	s	n/a
495.9335	0.075	991867	keystroke_l	l	n/a
496.173	0.1505	992346	keystroke_i	i	n/a
496.279	0.1045	992558	keystroke_m	m	n/a
496.5785	0.09	993157	keystroke_Key.space	Key.space	n/a
496.7435	0.1805	993487	keystroke_a	a	n/a
496.909	0.105	993818	keystroke_c	c	n/a
497.733	0.105	995466	keystroke_Key.backspace	Key.backspace	n/a
497.853	0.061	995706	keystroke_r	r	n/a
498.3485	0.09	996697	keystroke_c	c	n/a
498.829	0.089	997658	keystroke_h	h	n/a
499.0985	0.09	998197	keystroke_i	i	n/a
499.3835	0.18	998767	keystroke_v	v	n/a
499.5335	0.1055	999067	keystroke_e	e	n/a
499.939	0.1045	999878	keystroke_Key.space	Key.space	n/a
500.3885	0.075	1000777	keystroke_d	d	n/a
500.5235	0.09	1001047	keystroke_i	i	n/a
500.6735	0.12	1001347	keystroke_a	a	n/a
500.8235	0.075	1001647	keystroke_m	m	n/a
500.974	0.135	1001948	keystroke_e	e	n/a
501.139	0.12	1002278	keystroke_t	t	n/a
501.289	0.12	1002578	keystroke_e	e	n/a
501.349	0.12	1002698	keystroke_r	r	n/a
501.739	0.105	1003478	keystroke_Key.space	Key.space	n/a
501.994	0.1045	1003988	keystroke_d	d	n/a
502.1135	0.045	1004227	keystroke_o	o	n/a
502.2635	0.06	1004527	keystroke_l	l	n/a
502.3985	0.06	1004797	keystroke_l	l	n/a
502.5185	0.06	1005037	keystroke_s	s	n/a
502.6985	0.0605	1005397	keystroke_Key.enter	Key.enter	n/a
502.765	12.265	1005530	prompt	n/a	bookstore archive oclc supervision\n
503.658	0.075	1007316	keystroke_b	b	n/a
503.838	0.061	1007676	keystroke_o	o	n/a
503.958	0.09	1007916	keystroke_o	o	n/a
504.183	0.076	1008366	keystroke_k	k	n/a
504.574	0.195	1009148	keystroke_s	s	n/a
504.904	0.09	1009808	keystroke_t	t	n/a
505.024	0.075	1010048	keystroke_o	o	n/a
505.384	0.12	1010768	keystroke_r	r	n/a
505.459	0.09	1010918	keystroke_e	e	n/a
505.7435	0.105	1011487	keystroke_Key.space	Key.space	n/a
506.2085	0.165	1012417	keystroke_a	a	n/a
506.3885	0.0905	1012777	keystroke_r	r	n/a
506.644	0.09	1013288	keystroke_c	c	n/a
506.779	0.09	1013558	keystroke_h	h	n/a
506.839	0.1345	1013678	keystroke_i	i	n/a
507.1535	0.15	1014307	keystroke_v	v	n/a
507.2445	0.134	1014489	keystroke_e	e	n/a
507.8885	0.09	1015777	keystroke_Key.space	Key.space	n/a
508.3835	0.045	1016767	keystroke_o	o	n/a
510.229	0.09	1020458	keystroke_c	c	n/a
510.454	0.06	1020908	keystroke_l	l	n/a
510.799	0.06	1021598	keystroke_c	c	n/a
511.0385	0.09	1022077	keystroke_Key.space	Key.space	n/a
511.2785	0.105	1022557	keystroke_s	s	n/a
511.3845	0.074	1022769	keystroke_u	u	n/a
511.6685	0.09	1023337	keystroke_e	e	n/a
511.7135	0.075	1023427	keystroke_r	r	n/a
512.2085	0.0755	1024417	keystroke_Key.backspace	Key.backspace	n/a
512.3435	0.09	1024687	keystroke_Key.backspace	Key.backspace	n/a
512.7785	0.105	1025557	keystroke_p	p	n/a
513.0185	0.105	1026037	keystroke_e	e	n/a
513.0635	0.09	1026127	keystroke_r	r	n/a
513.7235	0.075	1027447	keystroke_v	v	n/a
513.7995	0.074	1027599	keystroke_i	i	n/a
513.9485	0.075	1027897	keystroke_s	s	n/a
514.0385	0.135	1028077	keystroke_i	i	n/a
514.1135	0.105	1028227	keystroke_o	o	n/a
514.3085	0.09	1028617	keystroke_n	n	n/a
514.939	0.089	1029878	keystroke_Key.enter	Key.enter	n/a
515.0335	8.0365	1030067	prompt	n/a	undefined passed reggae fetish\n
515.869	0.0895	1031738	keystroke_u	u	n/a
516.0485	0.12	1032097	keystroke_n	n	n/a
516.1835	0.1195	1032367	keystroke_d	d	n/a
516.288	0.06	1032576	keystroke_e	e	n/a
516.364	0.15	1032728	keystroke_f	f	n/a
516.499	0.105	1032998	keystroke_i	i	n/a
516.559	0.104	1033118	keystroke_n	n	n/a
516.678	0.076	1033356	keystroke_e	e	n/a
516.859	0.105	1033718	keystroke_d	d	n/a
517.084	0.075	1034168	keystroke_Key.space	Key.space	n/a
517.294	0.0745	1034588	keystroke_p	p	n/a
517.4285	0.12	1034857	keystroke_a	a	n/a
517.5185	0.105	1035037	keystroke_s	s	n/a
517.6835	0.135	1035367	keystroke_s	s	n/a
517.9085	0.06	1035817	keystroke_e	e	n/a
518.1035	0.075	1036207	keystroke_d	d	n/a
518.2085	0.1055	1036417	keystroke_Key.space	Key.space	n/a
518.509	0.09	1037018	keystroke_r	r	n/a
518.554	0.075	1037108	keystroke_e	e	n/a
518.839	0.105	1037678	keystroke_g	g	n/a
519.274	0.105	1038548	keystroke_a	a	n/a
519.6485	0.075	1039297	keystroke_Key.backspace	Key.backspace	n/a
519.7535	0.12	1039507	keystroke_g	g	n/a
519.8585	0.09	1039717	keystroke_a	a	n/a
520.0985	0.09	1040197	keystroke_e	e	n/a
520.4435	0.105	1040887	keystroke_Key.space	Key.space	n/a
520.909	0.1345	1041818	keystroke_f	f	n/a
521.0285	0.135	1042057	keystroke_e	e	n/a
521.2085	0.105	1042417	keystroke_t	t	n/a
521.554	0.075	1043108	keystroke_s	s	n/a
521.659	0.09	1043318	keystroke_h	h	n/a
522.064	0.075	1044128	keystroke_Key.backspace	Key.backspace	n/a
522.244	0.09	1044488	keystroke_Key.backspace	Key.backspace	n/a
522.5435	0.06	1045087	keystroke_i	i	n/a
522.6485	0.09	1045297	keystroke_s	s	n/a
522.7685	0.09	1045537	keystroke_h	h	n/a
522.9785	0.09	1045957	keystroke_Key.enter	Key.enter	n/a
523.0725	7.633	1046145	prompt	n/a	chose question opponents evident\n
523.864	0.105	1047728	keystroke_c	c	n/a
523.954	0.06	1047908	keystroke_h	h	n/a
524.0885	0.0905	1048177	keystroke_o	o	n/a
524.239	0.105	1048478	keystroke_s	s	n/a
524.299	0.12	1048598	keystroke_e	e	n/a
524.629	0.075	1049258	keystroke_Key.space	Key.space	n/a
525.079	0.12	1050158	keystroke_q	q	n/a
525.244	0.09	1050488	keystroke_u	u	n/a
525.4985	0.09	1050997	keystroke_e	e	n/a
525.6635	0.15	1051327	keystroke_s	s	n/a
525.7535	0.12	1051507	keystroke_t	t	n/a
525.8885	0.105	1051777	keystroke_i	i	n/a
525.9335	0.09	1051867	keystroke_o	o	n/a
526.1285	0.075	1052257	keystroke_n	n	n/a
526.7585	0.06	1053517	keystroke_Key.space	Key.space	n/a
527.239	0.045	1054478	keystroke_o	o	n/a
527.434	0.045	1054868	keystroke_p	p	n/a
527.539	0.06	1055078	keystroke_p	p	n/a
527.734	0.09	1055468	keystroke_o	o	n/a
527.989	0.135	1055978	keystroke_n	n	n/a
528.289	0.075	1056578	keystroke_e	e	n/a
528.454	0.06	1056908	keystroke_n	n	n/a
528.529	0.09	1057058	keystroke_t	t	n/a
528.7985	0.06	1057597	keystroke_s	s	n/a
529.0835	0.09	1058167	keystroke_Key.space	Key.space	n/a
529.5485	0.105	1059097	keystroke_e	e	n/a
529.8035	0.0905	1059607	keystroke_v	v	n/a
529.939	0.075	1059878	keystroke_i	i	n/a
530.059	0.15	1060118	keystroke_d	d	n/a
530.179	0.105	1060358	keystroke_e	e	n/a
530.329	0.075	1060658	keystroke_n	n	n/a
530.449	0.075	1060898	keystroke_t	t	n/a
530.629	0.075	1061258	keystroke_Key.enter	Key.enter	n/a
530.7085	12.147	1061417	prompt	n/a	northern dentists treatments realtors\n
531.5435	0.045	1063087	keystroke_n	n	n/a
531.6935	0.06	1063387	keystroke_o	o	n/a
531.7835	0.075	1063567	keystroke_r	r	n/a
531.9935	0.09	1063987	keystroke_h	h	n/a
532.0385	0.12	1064077	keystroke_t	t	n/a
532.1735	0.15	1064347	keystroke_e	e	n/a
532.2635	0.12	1064527	keystroke_r	r	n/a
532.8785	0.09	1065757	keystroke_Key.space	Key.space	n/a
533.1935	0.165	1066387	keystroke_d	d	n/a
533.3285	0.12	1066657	keystroke_e	e	n/a
533.3595	0.074	1066719	keystroke_n	n	n/a
533.6285	0.135	1067257	keystroke_t	t	n/a
533.7785	0.06	1067557	keystroke_i	i	n/a
534.4835	0.105	1068967	keystroke_s	s	n/a
534.9935	0.0905	1069987	keystroke_t	t	n/a
535.444	0.09	1070888	keystroke_s	s	n/a
535.924	0.0895	1071848	keystroke_Key.space	Key.space	n/a
536.2235	0.195	1072447	keystroke_t	t	n/a
536.3135	0.165	1072627	keystroke_e	e	n/a
537.2585	0.09	1074517	keystroke_Key.backspace	Key.backspace	n/a
537.3785	0.15	1074757	keystroke_r	r	n/a
537.5135	0.0455	1075027	keystroke_e	e	n/a
537.604	0.165	1075208	keystroke_a	a	n/a
537.754	0.1045	1075508	keystroke_t	t	n/a
537.964	0.075	1075928	keystroke_m	m	n/a
538.0535	0.09	1076107	keystroke_e	e	n/a
538.159	0.0895	1076318	keystroke_n	n	n/a
538.2635	0.0755	1076527	keystroke_t	t	n/a
538.4885	0.0755	1076977	keystroke_s	s	n/a
538.624	0.09	1077248	keystroke_Key.space	Key.space	n/a
539.194	0.045	1078388	keystroke_e	e	n/a
539.974	0.12	1079948	keystroke_r	r	n/a
540.184	0.075	1080368	keystroke_Key.backspace	Key.backspace	n/a
540.334	0.075	1080668	keystroke_Key.backspace	Key.backspace	n/a
540.514	0.18	1081028	keystroke_r	r	n/a
540.634	0.09	1081268	keystroke_e	e	n/a
540.8135	0.1055	1081627	keystroke_a	a	n/a
540.934	0.105	1081868	keystroke_l	l	n/a
541.264	0.075	1082528	keystroke_o	o	n/a
541.624	0.09	1083248	keystroke_Key.backspace	Key.backspace	n/a
541.729	0.0895	1083458	keystroke_t	t	n/a
541.8485	0.075	1083697	keystroke_o	o	n/a
541.9535	0.075	1083907	keystroke_r	r	n/a
542.5085	0.0605	1085017	keystroke_s	s	n/a
542.779	0.075	1085558	keystroke_Key.enter	Key.enter	n/a
542.8585	11.1415	1085717	prompt	n/a	won't papua areas protective\n
543.619	0.0895	1087238	keystroke_w	w	n/a
543.8885	0.1205	1087777	keystroke_o	o	n/a
543.9785	0.0605	1087957	keystroke_n	n	n/a
544.6085	0.09	1089217	keystroke_'	'	n/a
544.8185	0.075	1089637	keystroke_t	t	n/a
545.1935	0.075	1090387	keystroke_Key.space	Key.space	n/a
545.689	0.075	1091378	keystroke_p	p	n/a
545.824	0.03	1091648	keystroke_a	a	n/a
547.0985	0.105	1094197	keystroke_q	q	n/a
547.2185	0.075	1094437	keystroke_u	u	n/a
547.4735	0.045	1094947	keystroke_a	a	n/a
547.9685	0.09	1095937	keystroke_Key.space	Key.space	n/a
548.2835	0.135	1096567	keystroke_a	a	n/a
548.4785	0.135	1096957	keystroke_r	r	n/a
548.5685	0.09	1097137	keystroke_e	e	n/a
548.6735	0.15	1097347	keystroke_a	a	n/a
549.0335	0.015	1098067	keystroke_s	s	n/a
549.769	0.09	1099538	keystroke_Key.space	Key.space	n/a
550.1285	0.075	1100257	keystroke_p	p	n/a
550.264	0.075	1100528	keystroke_r	r	n/a
550.339	0.06	1100678	keystroke_o	o	n/a
550.9385	0.09	1101877	keystroke_t	t	n/a
550.9985	0.12	1101997	keystroke_e	e	n/a
551.2235	0.09	1102447	keystroke_c	c	n/a
551.403	0.061	1102806	keystroke_t	t	n/a
551.404	0.075	1102808	keystroke_g	g	n/a
551.509	0.075	1103018	keystroke_i	i	n/a
551.599	0.135	1103198	keystroke_v	v	n/a
551.688	0.12	1103376	keystroke_e	e	n/a
552.3635	0.06	1104727	keystroke_Key.backspace	Key.backspace	n/a
552.4835	0.06	1104967	keystroke_Key.backspace	Key.backspace	n/a
552.5885	0.06	1105177	keystroke_Key.backspace	Key.backspace	n/a
553.0985	0.09	1106197	keystroke_Key.backspace	Key.backspace	n/a
553.4735	0.0605	1106947	keystroke_i	i	n/a
553.654	0.12	1107308	keystroke_v	v	n/a
553.729	0.105	1107458	keystroke_e	e	n/a
553.909	0.09	1107818	keystroke_Key.enter	Key.enter	n/a
554.003	7.272	1108006	prompt	n/a	romance stocks claim italy\n
554.914	0.075	1109828	keystroke_r	r	n/a
555.004	0.045	1110008	keystroke_o	o	n/a
555.184	0.075	1110368	keystroke_m	m	n/a
555.379	0.105	1110758	keystroke_a	a	n/a
555.469	0.089	1110938	keystroke_n	n	n/a
555.648	0.121	1111296	keystroke_c	c	n/a
555.723	0.106	1111446	keystroke_e	e	n/a
556.1435	0.09	1112287	keystroke_Key.space	Key.space	n/a
556.5185	0.15	1113037	keystroke_s	s	n/a
556.6235	0.105	1113247	keystroke_t	t	n/a
556.7585	0.06	1113517	keystroke_o	o	n/a
556.9235	0.105	1113847	keystroke_c	c	n/a
557.0435	0.06	1114087	keystroke_k	k	n/a
557.2085	0.075	1114417	keystroke_s	s	n/a
557.6135	0.09	1115227	keystroke_Key.space	Key.space	n/a
557.8835	0.105	1115767	keystroke_c	c	n/a
558.0035	0.075	1116007	keystroke_l	l	n/a
558.0935	0.105	1116187	keystroke_a	a	n/a
558.2735	0.135	1116547	keystroke_i	i	n/a
558.8885	0.075	1117777	keystroke_Key.space	Key.space	n/a
559.3235	0.075	1118647	keystroke_i	i	n/a
559.4735	0.15	1118947	keystroke_t	t	n/a
559.6085	0.075	1119217	keystroke_a	a	n/a
559.7885	0.045	1119577	keystroke_l	l	n/a
559.9385	0.06	1119877	keystroke_y	y	n/a
561.229	0.045	1122458	keystroke_Key.enter	Key.enter	n/a
561.28	7.495	1122560	prompt	n/a	drink mart herein answers\n
562.234	0.06	1124468	keystroke_d	d	n/a
562.384	0.105	1124768	keystroke_r	r	n/a
562.504	0.105	1125008	keystroke_i	i	n/a
562.579	0.15	1125158	keystroke_n	n	n/a
563.014	0.06	1126028	keystroke_k	k	n/a
563.329	0.075	1126658	keystroke_Key.space	Key.space	n/a
563.554	0.075	1127108	keystroke_m	m	n/a
563.644	0.135	1127288	keystroke_a	a	n/a
563.719	0.09	1127438	keystroke_r	r	n/a
563.914	0.075	1127828	keystroke_t	t	n/a
564.394	0.09	1128788	keystroke_Key.space	Key.space	n/a
564.919	0.075	1129838	keystroke_h	h	n/a
565.0385	0.105	1130077	keystroke_e	e	n/a
565.2485	0.09	1130497	keystroke_r	r	n/a
565.4735	0.105	1130947	keystroke_e	e	n/a
565.8485	0.075	1131697	keystroke_i	i	n/a
566.163	0.076	1132326	keystroke_n	n	n/a
566.5835	0.015	1133167	keystroke_Key.space	Key.space	n/a
566.7485	0.12	1133497	keystroke_a	a	n/a
566.8985	0.075	1133797	keystroke_n	n	n/a
567.0185	0.105	1134037	keystroke_s	s	n/a
567.2435	0.165	1134487	keystroke_w	w	n/a
568.0985	0.135	1136197	keystroke_e	e	n/a
568.2935	0.09	1136587	keystroke_r	r	n/a
568.5335	0.09	1137067	keystroke_s	s	n/a
568.7285	0.0445	1137457	keystroke_Key.enter	Key.enter	n/a
568.778	7.1675	1137556	prompt	n/a	fires drugs bios adaptive\n
569.8245	0.089	1139649	keystroke_f	f	n/a
569.8985	0.09	1139797	keystroke_i	i	n/a
570.0485	0.135	1140097	keystroke_r	r	n/a
570.1235	0.105	1140247	keystroke_e	e	n/a
570.3485	0.075	1140697	keystroke_s	s	n/a
570.708	0.0755	1141416	keystroke_Key.space	Key.space	n/a
571.1735	0.09	1142347	keystroke_d	d	n/a
571.3685	0.09	1142737	keystroke_r	r	n/a
571.5185	0.045	1143037	keystroke_u	u	n/a
571.6235	0.105	1143247	keystroke_g	g	n/a
571.8785	0.075	1143757	keystroke_s	s	n/a
572.2835	0.105	1144567	keystroke_Key.space	Key.space	n/a
572.989	0.06	1145978	keystroke_b	b	n/a
573.034	0.045	1146068	keystroke_i	i	n/a
573.184	0.06	1146368	keystroke_o	o	n/a
573.364	0.075	1146728	keystroke_s	s	n/a
573.769	0.105	1147538	keystroke_Key.space	Key.space	n/a
574.009	0.09	1148018	keystroke_a	a	n/a
574.129	0.2395	1148258	keystroke_d	d	n/a
574.3535	0.135	1148707	keystroke_a	a	n/a
574.5035	0.075	1149007	keystroke_p	p	n/a
575.193	0.075	1150386	keystroke_t	t	n/a
575.283	0.106	1150566	keystroke_i	i	n/a
575.433	0.135	1150866	keystroke_v	v	n/a
575.523	0.12	1151046	keystroke_e	e	n/a
575.868	0.075	1151736	keystroke_Key.enter	Key.enter	n/a
575.949	9.281	1151898	prompt	n/a	trembl buying steel lighter\n
576.9185	0.09	1153837	keystroke_t	t	n/a
577.1585	0.135	1154317	keystroke_r	r	n/a
577.2185	0.105	1154437	keystroke_e	e	n/a
577.3985	0.06	1154797	keystroke_m	m	n/a
578.2535	0.09	1156507	keystroke_b	b	n/a
578.6135	0.075	1157227	keystroke_l	l	n/a
579.0185	0.075	1158037	keystroke_Key.space	Key.space	n/a
579.3485	0.06	1158697	keystroke_b	b	n/a
579.768	0.1355	1159536	keystroke_u	u	n/a
579.8735	0.075	1159747	keystroke_y	y	n/a
580.1285	0.075	1160257	keystroke_i	i	n/a
580.1735	0.075	1160347	keystroke_n	n	n/a
580.3385	0.06	1160677	keystroke_g	g	n/a
580.6535	0.075	1161307	keystroke_Key.space	Key.space	n/a
580.8485	0.09	1161697	keystroke_s	s	n/a
580.9535	0.18	1161907	keystroke_t	t	n/a
581.0885	0.105	1162177	keystroke_e	e	n/a
581.2695	0.059	1162539	keystroke_l	l	n/a
581.4035	0.045	1162807	keystroke_l	l	n/a
581.5535	0.06	1163107	keystroke_e	e	n/a
582.2135	0.06	1164427	keystroke_Key.backspace	Key.backspace	n/a
582.3485	0.06	1164697	keystroke_Key.backspace	Key.backspace	n/a
582.4385	0.06	1164877	keystroke_Key.backspace	Key.backspace	n/a
582.6485	0.09	1165297	keystroke_e	e	n/a
582.829	0.06	1165658	keystroke_l	l	n/a
583.279	0.075	1166558	keystroke_Key.space	Key.space	n/a
583.789	0.135	1167578	keystroke_l	l	n/a
583.879	0.09	1167758	keystroke_i	i	n/a
584.089	0.089	1168178	keystroke_g	g	n/a
584.164	0.074	1168328	keystroke_h	h	n/a
584.373	0.12	1168746	keystroke_t	t	n/a
584.508	0.1505	1169016	keystroke_e	e	n/a
584.6135	0.09	1169227	keystroke_r	r	n/a
585.1535	0.075	1170307	keystroke_Key.enter	Key.enter	n/a
585.2325	9.1325	1170465	prompt	n/a	previous smtp professor verbal\n
586.144	0.0895	1172288	keystroke_p	p	n/a
586.2935	0.105	1172587	keystroke_r	r	n/a
586.3535	0.105	1172707	keystroke_e	e	n/a
586.6985	0.045	1173397	keystroke_i	i	n/a
587.659	0.09	1175318	keystroke_Key.backspace	Key.backspace	n/a
587.914	0.09	1175828	keystroke_v	v	n/a
588.019	0.06	1176038	keystroke_i	i	n/a
588.2135	0.15	1176427	keystroke_o	o	n/a
588.3035	0.075	1176607	keystroke_u	u	n/a
588.784	0.075	1177568	keystroke_s	s	n/a
589.294	0.045	1178588	keystroke_Key.space	Key.space	n/a
589.669	0.105	1179338	keystroke_s	s	n/a
589.834	0.075	1179668	keystroke_m	m	n/a
590.014	0.06	1180028	keystroke_t	t	n/a
590.104	0.075	1180208	keystroke_p	p	n/a
590.614	0.06	1181228	keystroke_Key.space	Key.space	n/a
590.884	0.06	1181768	keystroke_p	p	n/a
590.989	0.075	1181978	keystroke_r	r	n/a
591.093	0.076	1182186	keystroke_o	o	n/a
591.484	0.119	1182968	keystroke_f	f	n/a
591.7685	0.105	1183537	keystroke_e	e	n/a
592.1885	0.045	1184377	keystroke_s	s	n/a
592.3235	0.075	1184647	keystroke_s	s	n/a
592.5035	0.045	1185007	keystroke_o	o	n/a
592.6535	0.06	1185307	keystroke_r	r	n/a
593.104	0.105	1186208	keystroke_Key.space	Key.space	n/a
593.419	0.135	1186838	keystroke_v	v	n/a
593.584	0.1195	1187168	keystroke_e	e	n/a
593.644	0.1045	1187288	keystroke_r	r	n/a
593.8685	0.075	1187737	keystroke_b	b	n/a
594.0035	0.105	1188007	keystroke_a	a	n/a
594.1235	0.075	1188247	keystroke_l	l	n/a
594.2885	0.075	1188577	keystroke_Key.enter	Key.enter	n/a
594.3695	10.5405	1188739	prompt	n/a	wishlist archived signals volunteer\n
596.014	0.104	1192028	keystroke_w	w	n/a
596.149	0.06	1192298	keystroke_i	i	n/a
596.268	0.1205	1192536	keystroke_s	s	n/a
596.373	0.0755	1192746	keystroke_h	h	n/a
596.5985	0.075	1193197	keystroke_l	l	n/a
596.6435	0.09	1193287	keystroke_i	i	n/a
596.7485	0.12	1193497	keystroke_s	s	n/a
596.823	0.09	1193646	keystroke_t	t	n/a
597.588	0.0605	1195176	keystroke_Key.space	Key.space	n/a
598.1435	0.21	1196287	keystroke_a	a	n/a
598.3235	0.075	1196647	keystroke_r	r	n/a
598.5035	0.12	1197007	keystroke_c	c	n/a
598.5935	0.075	1197187	keystroke_h	h	n/a
598.7285	0.09	1197457	keystroke_i	i	n/a
599.1335	0.15	1198267	keystroke_v	v	n/a
599.2535	0.135	1198507	keystroke_e	e	n/a
599.4785	0.09	1198957	keystroke_d	d	n/a
599.7635	0.1045	1199527	keystroke_Key.space	Key.space	n/a
600.048	0.06	1200096	keystroke_s	s	n/a
600.123	0.06	1200246	keystroke_i	i	n/a
600.258	0.075	1200516	keystroke_g	g	n/a
600.363	0.075	1200726	keystroke_n	n	n/a
600.483	0.105	1200966	keystroke_a	a	n/a
600.618	0.06	1201236	keystroke_l	l	n/a
600.814	0.09	1201628	keystroke_s	s	n/a
601.4285	0.015	1202857	keystroke_Key.space	Key.space	n/a
601.8035	0.06	1203607	keystroke_v	v	n/a
602.2235	0.06	1204447	keystroke_o	o	n/a
602.404	0.075	1204808	keystroke_l	l	n/a
602.569	0.059	1205138	keystroke_u	u	n/a
602.779	0.119	1205558	keystroke_n	n	n/a
602.988	0.06	1205976	keystroke_e	e	n/a
603.453	0.045	1206906	keystroke_Key.backspace	Key.backspace	n/a
603.589	0.089	1207178	keystroke_t	t	n/a
603.858	0.075	1207716	keystroke_e	e	n/a
604.0235	0.135	1208047	keystroke_e	e	n/a
604.1585	0.09	1208317	keystroke_r	r	n/a
604.8035	0.105	1209607	keystroke_Key.enter	Key.enter	n/a
604.913	9.597	1209826	prompt	n/a	appendix christine ignore maximize\n
605.6885	0.09	1211377	keystroke_a	a	n/a
605.8235	0.06	1211647	keystroke_p	p	n/a
605.9585	0.06	1211917	keystroke_p	p	n/a
606.0635	0.09	1212127	keystroke_e	e	n/a
606.1985	0.0755	1212397	keystroke_n	n	n/a
606.304	0.105	1212608	keystroke_d	d	n/a
606.469	0.06	1212938	keystroke_i	i	n/a
606.589	0.135	1213178	keystroke_c	c	n/a
607.204	0.09	1214408	keystroke_Key.backspace	Key.backspace	n/a
607.444	0.09	1214888	keystroke_x	x	n/a
607.894	0.06	1215788	keystroke_s	s	n/a
608.298	0.075	1216596	keystroke_Key.backspace	Key.backspace	n/a
608.8385	0.075	1217677	keystroke_Key.space	Key.space	n/a
609.2435	0.105	1218487	keystroke_c	c	n/a
609.3785	0.075	1218757	keystroke_h	h	n/a
609.4985	0.075	1218997	keystroke_r	r	n/a
609.5885	0.075	1219177	keystroke_i	i	n/a
609.7085	0.15	1219417	keystroke_s	s	n/a
609.8435	0.075	1219687	keystroke_t	t	n/a
609.9785	0.075	1219957	keystroke_i	i	n/a
610.0985	0.075	1220197	keystroke_n	n	n/a
610.264	0.06	1220528	keystroke_e	e	n/a
610.624	0.074	1221248	keystroke_Key.space	Key.space	n/a
610.998	0.061	1221996	keystroke_i	i	n/a
611.1485	0.09	1222297	keystroke_g	g	n/a
611.2535	0.06	1222507	keystroke_n	n	n/a
611.3885	0.075	1222777	keystroke_o	o	n/a
611.5985	0.12	1223197	keystroke_r	r	n/a
611.6885	0.075	1223377	keystroke_e	e	n/a
612.229	0.06	1224458	keystroke_Key.space	Key.space	n/a
612.499	0.0745	1224998	keystroke_m	m	n/a
612.6035	0.105	1225207	keystroke_a	a	n/a
613.009	0.044	1226018	keystroke_x	x	n/a
613.098	0.06	1226196	keystroke_i	i	n/a
613.293	0.105	1226586	keystroke_m	m	n/a
613.368	0.09	1226736	keystroke_i	i	n/a
613.563	0.18	1227126	keystroke_z	z	n/a
613.698	0.12	1227396	keystroke_e	e	n/a
614.403	0.105	1228806	keystroke_Key.enter	Key.enter	n/a
614.5125	7.798	1229025	prompt	n/a	baseball newton gradually tied\n
616.039	0.075	1232078	keystroke_b	b	n/a
616.099	0.15	1232198	keystroke_a	a	n/a
616.159	0.105	1232318	keystroke_s	s	n/a
616.234	0.0895	1232468	keystroke_e	e	n/a
616.7735	0.0745	1233547	keystroke_b	b	n/a
616.893	0.09	1233786	keystroke_a	a	n/a
617.013	0.075	1234026	keystroke_l	l	n/a
617.403	0.075	1234806	keystroke_Key.space	Key.space	n/a
617.854	0.075	1235708	keystroke_n	n	n/a
618.214	0.105	1236428	keystroke_e	e	n/a
618.289	0.075	1236578	keystroke_w	w	n/a
618.514	0.09	1237028	keystroke_t	t	n/a
618.7535	0.12	1237507	keystroke_o	o	n/a
619.0835	0.06	1238167	keystroke_n	n	n/a
619.3235	0.1045	1238647	keystroke_Key.space	Key.space	n/a
619.534	0.0895	1239068	keystroke_g	g	n/a
619.7285	0.135	1239457	keystroke_r	r	n/a
619.8785	0.1045	1239757	keystroke_a	a	n/a
620.073	0.12	1240146	keystroke_d	d	n/a
620.163	0.06	1240326	keystroke_u	u	n/a
620.298	0.09	1240596	keystroke_a	a	n/a
620.403	0.045	1240806	keystroke_l	l	n/a
620.508	0.09	1241016	keystroke_l	l	n/a
620.643	0.06	1241286	keystroke_y	y	n/a
621.1385	0.0905	1242277	keystroke_Key.space	Key.space	n/a
621.604	0.09	1243208	keystroke_t	t	n/a
621.709	0.06	1243418	keystroke_i	i	n/a
621.874	0.09	1243748	keystroke_e	e	n/a
622.083	0.09	1244166	keystroke_d	d	n/a
622.218	0.09	1244436	keystroke_Key.enter	Key.enter	n/a
622.3145	12.326	1244629	prompt	n/a	advertisers advertiser maiden medal\n
623.103	0.15	1246206	keystroke_a	a	n/a
623.238	0.106	1246476	keystroke_d	d	n/a
623.479	0.105	1246958	keystroke_v	v	n/a
623.569	0.0595	1247138	keystroke_i	i	n/a
625.0535	0.075	1250107	keystroke_t	t	n/a
625.1885	0.075	1250377	keystroke_i	i	n/a
625.5185	0.135	1251037	keystroke_s	s	n/a
625.6085	0.075	1251217	keystroke_e	e	n/a
625.7885	0.09	1251577	keystroke_r	r	n/a
625.9835	0.105	1251967	keystroke_s	s	n/a
626.2835	0.075	1252567	keystroke_Key.space	Key.space	n/a
627.0335	0.15	1254067	keystroke_a	a	n/a
627.1235	0.09	1254247	keystroke_d	d	n/a
628.3685	0.135	1256737	keystroke_v	v	n/a
628.6235	0.105	1257247	keystroke_e	e	n/a
628.6835	0.06	1257367	keystroke_r	r	n/a
628.8185	0.105	1257637	keystroke_t	t	n/a
628.9535	0.09	1257907	keystroke_i	i	n/a
629.1185	0.12	1258237	keystroke_s	s	n/a
629.2085	0.075	1258417	keystroke_e	e	n/a
629.4635	0.015	1258927	keystroke_r	r	n/a
629.9585	0.06	1259917	keystroke_Key.space	Key.space	n/a
630.2135	0.075	1260427	keystroke_m	m	n/a
630.3185	0.105	1260637	keystroke_a	a	n/a
630.4685	0.075	1260937	keystroke_i	i	n/a
630.5735	0.18	1261147	keystroke_d	d	n/a
630.7385	0.09	1261477	keystroke_e	e	n/a
630.9635	0.06	1261927	keystroke_n	n	n/a
631.504	0.075	1263008	keystroke_Key.space	Key.space	n/a
632.1935	0.075	1264387	keystroke_m	m	n/a
632.3435	0.165	1264687	keystroke_d	d	n/a
632.4485	0.12	1264897	keystroke_e	e	n/a
632.6585	0.1205	1265317	keystroke_a	a	n/a
632.824	0.06	1265648	keystroke_l	l	n/a
633.169	0.075	1266338	keystroke_Key.backspace	Key.backspace	n/a
633.304	0.045	1266608	keystroke_Key.backspace	Key.backspace	n/a
633.409	0.045	1266818	keystroke_Key.backspace	Key.backspace	n/a
633.514	0.06	1267028	keystroke_Key.backspace	Key.backspace	n/a
633.889	0.075	1267778	keystroke_e	e	n/a
634.114	0.12	1268228	keystroke_d	d	n/a
634.174	0.105	1268348	keystroke_a	a	n/a
634.384	0.06	1268768	keystroke_l	l	n/a
634.5485	0.09	1269097	keystroke_Key.enter	Key.enter	n/a
634.643	7.767	1269286	prompt	n/a	let's comply across brooklyn\n
635.374	0.074	1270748	keystroke_l	l	n/a
635.463	0.195	1270926	keystroke_e	e	n/a
635.628	0.045	1271256	keystroke_t	t	n/a
636.1385	0.075	1272277	keystroke_'	'	n/a
636.3185	0.09	1272637	keystroke_s	s	n/a
636.7085	0.0905	1273417	keystroke_Key.space	Key.space	n/a
637.099	0.105	1274198	keystroke_c	c	n/a
637.234	0.0895	1274468	keystroke_o	o	n/a
