onset	duration	sample	value	key	prompt_text
4.1595	11.131	8319	prompt	n/a	the quick brown fox jumps over a lazy dog\n
6.184	0.001	12368	keystroke	t	n/a
6.184	0.013	12368	keystroke	h	n/a
6.587	0.1205	13174	keystroke	e	n/a
6.6925	0.12	13385	keystroke	Key.space	n/a
6.8725	0.12	13745	keystroke	q	n/a
6.9775	0.1045	13955	keystroke	u	n/a
7.412	0.09	14824	keystroke	i	n/a
7.517	0.12	15034	keystroke	c	n/a
7.622	0.15	15244	keystroke	k	n/a
7.817	0.105	15634	keystroke	Key.space	n/a
8.012	0.105	16024	keystroke	b	n/a
8.1775	0.1195	16355	keystroke	r	n/a
8.2675	0.1195	16535	keystroke	o	n/a
8.432	0.1205	16864	keystroke	w	n/a
8.5225	0.1355	17045	keystroke	n	n/a
8.703	0.0745	17406	keystroke	Key.space	n/a
9.0775	0.0745	18155	keystroke	o	n/a
9.4075	0.075	18815	keystroke	Key.backspace	n/a
9.497	0.06	18994	keystroke	f	n/a
9.632	0.076	19264	keystroke	o	n/a
9.932	0.12	19864	keystroke	x	n/a
10.022	0.1205	20044	keystroke	Key.space	n/a
10.5475	0.105	21095	keystroke	j	n/a
10.7125	0.09	21425	keystroke	u	n/a
10.908	0.089	21816	keystroke	m	n/a
11.0875	0.06	22175	keystroke	p	n/a
11.193	0.1055	22386	keystroke	s	n/a
11.402	0.1055	22804	keystroke	Key.space	n/a
11.5675	0.12	23135	keystroke	o	n/a
11.6575	0.105	23315	keystroke	v	n/a
11.7935	0.2085	23587	keystroke	e	n/a
11.9275	0.1355	23855	keystroke	r	n/a
11.987	0.1505	23974	keystroke	Key.space	n/a
12.287	0.165	24574	keystroke	a	n/a
12.467	0.106	24934	keystroke	Key.space	n/a
12.707	0.121	25414	keystroke	l	n/a
12.917	0.105	25834	keystroke	a	n/a
13.3075	0.165	26615	keystroke	z	n/a
13.443	0.1195	26886	keystroke	y	n/a
13.577	0.135	27154	keystroke	Key.space	n/a
14.117	0.1055	28234	keystroke	d	n/a
14.237	0.1055	28474	keystroke	o	n/a
14.462	0.135	28924	keystroke	g	n/a
15.1975	0.09	30395	keystroke	Key.enter	n/a
15.303	15.1665	30606	prompt	n/a	scotland portuguese mauritius theology\n
16.307	0.1355	32614	keystroke	s	n/a
16.458	0.09	32916	keystroke	c	n/a
16.533	0.104	33066	keystroke	o	n/a
16.7425	0.1345	33485	keystroke	t	n/a
16.937	0.12	33874	keystroke	l	n/a
17.1025	0.1055	34205	keystroke	a	n/a
17.2225	0.1355	34445	keystroke	n	n/a
17.342	0.135	34684	keystroke	d	n/a
17.4475	0.09	34895	keystroke	Key.space	n/a
17.6575	0.12	35315	keystroke	p	n/a
18.063	0.1045	36126	keystroke	o	n/a
18.1825	0.1045	36365	keystroke	r	n/a
18.452	0.105	36904	keystroke	t	n/a
18.617	0.106	37234	keystroke	u	n/a
19.203	0.105	38406	keystroke	g	n/a
19.6675	0.1045	39335	keystroke	u	n/a
20.013	0.119	40026	keystroke	e	n/a
20.372	0.1655	40744	keystroke	s	n/a
20.493	0.15	40986	keystroke	e	n/a
21.257	0.1205	42514	keystroke	Key.space	n/a
21.9475	0.1205	43895	keystroke	m	n/a
22.6375	0.09	45275	keystroke	a	n/a
23.147	0.105	46294	keystroke	u	n/a
23.312	0.0905	46624	keystroke	r	n/a
23.492	0.1205	46984	keystroke	i	n/a
23.687	0.1205	47374	keystroke	t	n/a
23.8525	0.0905	47705	keystroke	i	n/a
25.577	0.091	51154	keystroke	u	n/a
25.6975	0.1355	51395	keystroke	s	n/a
25.8025	0.1345	51605	keystroke	Key.space	n/a
26.178	0.134	52356	keystroke	t	n/a
26.328	0.104	52656	keystroke	h	n/a
26.4925	0.135	52985	keystroke	e	n/a
26.642	0.1505	53284	keystroke	o	n/a
27.227	0.0755	54454	keystroke	l	n/a
27.4225	0.076	54845	keystroke	o	n/a
27.7225	0.1045	55445	keystroke	g	n/a
27.842	0.106	55684	keystroke	y	n/a
30.454	0.013	60908	keystroke	Key.enter	n/a
30.4745	11.981	60949	prompt	n/a	invitations photographers hydrocodone queens\n
31.398	0.0595	62796	keystroke	i	n/a
31.5625	0.1055	63125	keystroke	n	n/a
31.7275	0.105	63455	keystroke	v	n/a
31.8625	0.09	63725	keystroke	i	n/a
32.073	0.1045	64146	keystroke	a	n/a
32.5675	0.0895	65135	keystroke	Key.backspace	n/a
32.643	0.075	65286	keystroke	t	n/a
32.867	0.105	65734	keystroke	a	n/a
33.0925	0.0905	66185	keystroke	t	n/a
33.1975	0.0595	66395	keystroke	i	n/a
33.378	0.0745	66756	keystroke	o	n/a
33.5875	0.09	67175	keystroke	n	n/a
33.6925	0.12	67385	keystroke	s	n/a
33.8135	0.089	67627	keystroke	Key.space	n/a
34.0375	0.0905	68075	keystroke	p	n/a
34.2925	0.06	68585	keystroke	h	n/a
34.4425	0.105	68885	keystroke	o	n/a
34.592	0.15	69184	keystroke	t	n/a
34.758	0.089	69516	keystroke	o	n/a
34.997	0.1205	69994	keystroke	g	n/a
35.2075	0.12	70415	keystroke	r	n/a
35.8225	0.12	71645	keystroke	a	n/a
35.9575	0.06	71915	keystroke	p	n/a
36.1825	0.0905	72365	keystroke	h	n/a
36.2875	0.18	72575	keystroke	e	n/a
36.4075	0.12	72815	keystroke	r	n/a
36.632	0.1205	73264	keystroke	s	n/a
36.7075	0.12	73415	keystroke	Key.space	n/a
36.993	0.074	73986	keystroke	h	n/a
37.2625	0.1045	74525	keystroke	y	n/a
37.787	0.106	75574	keystroke	d	n/a
37.9825	0.1355	75965	keystroke	r	n/a
38.0875	0.12	76175	keystroke	o	n/a
39.1075	0.0895	78215	keystroke	c	n/a
39.3325	0.09	78665	keystroke	o	n/a
39.5425	0.1055	79085	keystroke	d	n/a
39.6625	0.075	79325	keystroke	o	n/a
39.8425	0.105	79685	keystroke	n	n/a
39.9325	0.135	79865	keystroke	e	n/a
40.0975	0.135	80195	keystroke	Key.space	n/a
40.4725	0.1195	80945	keystroke	q	n/a
40.6375	0.09	81275	keystroke	u	n/a
40.7575	0.1045	81515	keystroke	e	n/a
40.922	0.12	81844	keystroke	e	n/a
41.028	0.074	82056	keystroke	n	n/a
41.147	0.136	82294	keystroke	s	n/a
42.3475	0.105	84695	keystroke	Key.enter	n/a
42.461	11.2735	84922	prompt	n/a	building rock theories shakira\n
43.742	0.076	87484	keystroke	b	n/a
43.922	0.09	87844	keystroke	u	n/a
44.237	0.091	88474	keystroke	d	n/a
44.343	0.0745	88686	keystroke	i	n/a
44.627	0.045	89254	keystroke	Key.backspace	n/a
44.7325	0.0745	89465	keystroke	Key.backspace	n/a
44.988	0.09	89976	keystroke	i	n/a
45.153	0.09	90306	keystroke	d	n/a
45.467	0.076	90934	keystroke	i	n/a
45.618	0.135	91236	keystroke	n	n/a
45.738	0.105	91476	keystroke	g	n/a
45.827	0.151	91654	keystroke	Key.space	n/a
46.3075	0.045	92615	keystroke	Key.backspace	n/a
46.4575	0.03	92915	keystroke	Key.backspace	n/a
46.5775	0.06	93155	keystroke	Key.backspace	n/a
46.7275	0.045	93455	keystroke	Key.backspace	n/a
46.8475	0.075	93695	keystroke	Key.backspace	n/a
47.1025	0.105	94205	keystroke	l	n/a
47.3125	0.1055	94625	keystroke	d	n/a
47.6875	0.075	95375	keystroke	i	n/a
47.8525	0.105	95705	keystroke	n	n/a
48.0025	0.1055	96005	keystroke	g	n/a
48.062	0.075	96124	keystroke	Key.space	n/a
48.228	0.1045	96456	keystroke	r	n/a
48.318	0.075	96636	keystroke	o	n/a
48.5135	0.1335	97027	keystroke	c	n/a
48.632	0.09	97264	keystroke	k	n/a
48.782	0.106	97564	keystroke	Key.space	n/a
49.0075	0.12	98015	keystroke	t	n/a
49.143	0.0895	98286	keystroke	h	n/a
49.3075	0.1205	98615	keystroke	e	n/a
49.4725	0.12	98945	keystroke	o	n/a
49.6375	0.09	99275	keystroke	r	n/a
50.2675	0.105	100535	keystroke	i	n/a
50.3875	0.105	100775	keystroke	e	n/a
50.5975	0.12	101195	keystroke	s	n/a
50.6725	0.105	101345	keystroke	Key.space	n/a
51.3775	0.12	102755	keystroke	s	n/a
51.513	0.0745	103026	keystroke	h	n/a
51.6625	0.0745	103325	keystroke	a	n/a
52.083	0.09	104166	keystroke	k	n/a
52.412	0.106	104824	keystroke	i	n/a
52.562	0.09	105124	keystroke	r	n/a
52.817	0.106	105634	keystroke	a	n/a
53.6575	0.075	107315	keystroke	Key.enter	n/a
53.7475	12.5735	107495	prompt	n/a	problems cuisine chain indianapolis\n
54.6925	0.075	109385	keystroke	p	n/a
54.7975	0.105	109595	keystroke	r	n/a
54.933	0.0895	109866	keystroke	o	n/a
55.2325	0.12	110465	keystroke	b	n/a
55.4275	0.09	110855	keystroke	l	n/a
55.9975	0.09	111995	keystroke	e	n/a
56.1175	0.105	112235	keystroke	m	n/a
56.2375	0.12	112475	keystroke	s	n/a
56.4025	0.15	112805	keystroke	Key.space	n/a
56.9875	0.0905	113975	keystroke	c	n/a
57.108	0.075	114216	keystroke	u	n/a
57.3025	0.09	114605	keystroke	i	n/a
57.4825	0.105	114965	keystroke	s	n/a
58.4875	0.09	116975	keystroke	i	n/a
58.6975	0.09	117395	keystroke	n	n/a
58.7725	0.1205	117545	keystroke	e	n/a
58.8775	0.105	117755	keystroke	Key.space	n/a
59.057	0.076	118114	keystroke	c	n/a
59.1475	0.0745	118295	keystroke	h	n/a
59.282	0.121	118564	keystroke	a	n/a
59.357	0.0905	118714	keystroke	i	n/a
59.538	0.134	119076	keystroke	n	n/a
59.6575	0.1345	119315	keystroke	Key.space	n/a
59.8515	0.106	119703	keystroke	i	n/a
60.0325	0.1205	120065	keystroke	n	n/a
60.392	0.12	120784	keystroke	d	n/a
60.5275	0.0745	121055	keystroke	i	n/a
60.647	0.1055	121294	keystroke	a	n/a
60.782	0.1355	121564	keystroke	n	n/a
61.127	0.091	122254	keystroke	o	n/a
61.5025	0.0595	123005	keystroke	Key.backspace	n/a
61.578	0.09	123156	keystroke	a	n/a
63.047	0.0605	126094	keystroke	o	n/a
63.2575	0.045	126515	keystroke	i	n/a
63.6175	0.075	127235	keystroke	Key.backspace	n/a
64.0975	0.09	128195	keystroke	Key.backspace	n/a
64.833	0.075	129666	keystroke	p	n/a
65.087	0.061	130174	keystroke	o	n/a
65.2675	0.075	130535	keystroke	l	n/a
65.4775	0.06	130955	keystroke	i	n/a
65.5525	0.1205	131105	keystroke	s	n/a
66.2425	0.075	132485	keystroke	Key.enter	n/a
66.3285	8.271	132657	prompt	n/a	marvel article counties analyst\n
67.3525	0.075	134705	keystroke	m	n/a
67.4425	0.12	134885	keystroke	a	n/a
67.6675	0.105	135335	keystroke	r	n/a
68.013	0.134	136026	keystroke	v	n/a
68.177	0.135	136354	keystroke	e	n/a
68.282	0.1205	136564	keystroke	l	n/a
68.4475	0.12	136895	keystroke	Key.space	n/a
68.898	0.0295	137796	keystroke	i	n/a
69.197	0.0745	138394	keystroke	Key.backspace	n/a
69.258	0.105	138516	keystroke	a	n/a
69.4525	0.1055	138905	keystroke	r	n/a
69.633	0.0745	139266	keystroke	t	n/a
69.738	0.09	139476	keystroke	i	n/a
69.947	0.135	139894	keystroke	c	n/a
70.113	0.1045	140226	keystroke	l	n/a
70.262	0.105	140524	keystroke	e	n/a
70.4425	0.105	140885	keystroke	Key.space	n/a
70.622	0.12	141244	keystroke	c	n/a
70.727	0.0605	141454	keystroke	o	n/a
70.9525	0.0605	141905	keystroke	u	n/a
71.088	0.105	142176	keystroke	n	n/a
71.223	0.09	142446	keystroke	t	n/a
71.9275	0.09	143855	keystroke	i	n/a
72.0325	0.09	144065	keystroke	e	n/a
72.257	0.12	144514	keystroke	s	n/a
72.422	0.09	144844	keystroke	Key.space	n/a
73.3075	0.1055	146615	keystroke	a	n/a
73.383	0.089	146766	keystroke	n	n/a
73.5175	0.09	147035	keystroke	a	n/a
73.6225	0.1045	147245	keystroke	l	n/a
73.893	0.074	147786	keystroke	y	n/a
73.982	0.0905	147964	keystroke	s	n/a
74.1325	0.1355	148265	keystroke	t	n/a
74.507	0.09	149014	keystroke	Key.enter	n/a
74.603	7.541	149206	prompt	n/a	floppy finland think crops\n
75.213	0.119	150426	keystroke	f	n/a
75.347	0.0755	150694	keystroke	l	n/a
75.557	0.105	151114	keystroke	o	n/a
75.782	0.076	151564	keystroke	p	n/a
75.917	0.075	151834	keystroke	p	n/a
76.2025	0.03	152405	keystroke	u	n/a
76.937	0.075	153874	keystroke	Key.backspace	n/a
77.2225	0.105	154445	keystroke	y	n/a
77.3725	0.1205	154745	keystroke	Key.space	n/a
77.958	0.0895	155916	keystroke	f	n/a
78.1225	0.0895	156245	keystroke	i	n/a
78.302	0.09	156604	keystroke	n	n/a
78.512	0.105	157024	keystroke	l	n/a
78.633	0.104	157266	keystroke	a	n/a
78.782	0.0905	157564	keystroke	n	n/a
78.887	0.106	157774	keystroke	d	n/a
79.022	0.105	158044	keystroke	Key.space	n/a
79.188	0.134	158376	keystroke	t	n/a
79.307	0.09	158614	keystroke	h	n/a
79.443	0.074	158886	keystroke	i	n/a
79.577	0.105	159154	keystroke	n	n/a
79.712	0.106	159424	keystroke	k	n/a
79.833	0.089	159666	keystroke	Key.space	n/a
80.042	0.12	160084	keystroke	c	n/a
80.2225	0.1355	160445	keystroke	r	n/a
80.3735	0.089	160747	keystroke	o	n/a
80.5825	0.12	161165	keystroke	p	n/a
80.8515	0.106	161703	keystroke	s	n/a
82.0675	0.075	164135	keystroke	Key.enter	n/a
82.151	7.598	164302	prompt	n/a	liverpool salad circular transport\n
82.983	0.0745	165966	keystroke	l	n/a
83.192	0.0755	166384	keystroke	i	n/a
83.357	0.09	166714	keystroke	v	n/a
83.462	0.181	166924	keystroke	e	n/a
83.583	0.1345	167166	keystroke	r	n/a
83.7775	0.06	167555	keystroke	p	n/a
84.4225	0.075	168845	keystroke	o	n/a
84.5725	0.0755	169145	keystroke	o	n/a
84.7525	0.105	169505	keystroke	l	n/a
84.8875	0.12	169775	keystroke	Key.space	n/a
85.0975	0.105	170195	keystroke	s	n/a
85.323	0.0745	170646	keystroke	a	n/a
85.4275	0.1055	170855	keystroke	l	n/a
86.1025	0.135	172205	keystroke	a	n/a
86.2675	0.15	172535	keystroke	d	n/a
86.4025	0.09	172805	keystroke	Key.space	n/a
86.7025	0.09	173405	keystroke	c	n/a
86.8075	0.105	173615	keystroke	i	n/a
86.9275	0.0905	173855	keystroke	r	n/a
87.1675	0.09	174335	keystroke	c	n/a
87.2125	0.09	174425	keystroke	u	n/a
87.467	0.1055	174934	keystroke	l	n/a
87.5575	0.0745	175115	keystroke	a	n/a
87.707	0.1355	175414	keystroke	r	n/a
87.827	0.1205	175654	keystroke	Key.space	n/a
88.127	0.0905	176254	keystroke	t	n/a
88.307	0.106	176614	keystroke	r	n/a
88.4875	0.1645	176975	keystroke	a	n/a
88.608	0.1045	177216	keystroke	n	n/a
88.787	0.105	177574	keystroke	s	n/a
88.937	0.0755	177874	keystroke	p	n/a
89.1025	0.09	178205	keystroke	o	n/a
89.2075	0.09	178415	keystroke	r	n/a
89.3875	0.1355	178775	keystroke	t	n/a
89.6275	0.12	179255	keystroke	Key.enter	n/a
89.7525	10.2715	179505	prompt	n/a	doing magazine creek smithsonian\n
90.887	0.09	181774	keystroke	d	n/a
90.992	0.09	181984	keystroke	i	n/a
91.9075	0.09	183815	keystroke	Key.backspace	n/a
92.1185	0.0895	184237	keystroke	o	n/a
92.313	0.0745	184626	keystroke	i	n/a
92.447	0.1355	184894	keystroke	n	n/a
92.5675	0.105	185135	keystroke	g	n/a
92.6275	0.12	185255	keystroke	Key.space	n/a
93.1825	0.12	186365	keystroke	m	n/a
93.303	0.1195	186606	keystroke	a	n/a
93.6025	0.091	187205	keystroke	g	n/a
93.7375	0.105	187475	keystroke	a	n/a
94.398	0.1195	188796	keystroke	z	n/a
94.4875	0.0755	188975	keystroke	i	n/a
94.6375	0.105	189275	keystroke	n	n/a
94.7725	0.12	189545	keystroke	g	n/a
94.8775	0.12	189755	keystroke	Key.space	n/a
95.2375	0.1345	190475	keystroke	c	n/a
95.447	0.135	190894	keystroke	r	n/a
95.6425	0.0895	191285	keystroke	e	n/a
95.793	0.105	191586	keystroke	e	n/a
95.912	0.1055	191824	keystroke	j	n/a
96.093	0.1045	192186	keystroke	Key.space	n/a
96.3925	0.045	192785	keystroke	Key.backspace	n/a
96.5275	0.075	193055	keystroke	Key.backspace	n/a
96.708	0.134	193416	keystroke	k	n/a
96.843	0.1645	193686	keystroke	Key.space	n/a
97.4275	0.1045	194855	keystroke	s	n/a
97.7875	0.0755	195575	keystroke	m	n/a
97.983	0.104	195966	keystroke	i	n/a
98.1625	0.09	196325	keystroke	t	n/a
98.2825	0.1045	196565	keystroke	h	n/a
98.552	0.12	197104	keystroke	s	n/a
98.5975	0.0905	197195	keystroke	o	n/a
98.8675	0.075	197735	keystroke	n	n/a
99.048	0.09	198096	keystroke	i	n/a
99.183	0.105	198366	keystroke	a	n/a
99.3775	0.09	198755	keystroke	n	n/a
99.9325	0.09	199865	keystroke	Key.enter	n/a
100.0295	10.4945	200059	prompt	n/a	what'll chairs coleman neutral\n
100.668	0.1045	201336	keystroke	w	n/a
100.788	0.0745	201576	keystroke	h	n/a
100.8925	0.135	201785	keystroke	a	n/a
101.4175	0.1495	202835	keystroke	t	n/a
101.672	0.09	203344	keystroke	'	n/a
101.838	0.074	203676	keystroke	s	n/a
102.258	0.059	204516	keystroke	Key.backspace	n/a
102.467	0.076	204934	keystroke	k	n/a
102.618	0.09	205236	keystroke	k	n/a
102.782	0.136	205564	keystroke	Key.space	n/a
103.262	0.06	206524	keystroke	Key.backspace	n/a
103.412	0.0455	206824	keystroke	Key.backspace	n/a
103.5175	0.075	207035	keystroke	Key.backspace	n/a
103.7425	0.09	207485	keystroke	l	n/a
103.9225	0.06	207845	keystroke	l	n/a
104.1175	0.135	208235	keystroke	Key.space	n/a
104.4175	0.09	208835	keystroke	c	n/a
104.568	0.0745	209136	keystroke	h	n/a
104.6575	0.1055	209315	keystroke	a	n/a
104.8075	0.1045	209615	keystroke	i	n/a
104.897	0.12	209794	keystroke	r	n/a
105.122	0.165	210244	keystroke	s	n/a
105.1825	0.1795	210365	keystroke	Key.space	n/a
105.933	0.119	211866	keystroke	c	n/a
106.023	0.105	212046	keystroke	o	n/a
106.262	0.12	212524	keystroke	l	n/a
106.712	0.1055	213424	keystroke	e	n/a
106.832	0.09	213664	keystroke	m	n/a
107.162	0.1205	214324	keystroke	a	n/a
107.267	0.12	214534	keystroke	n	n/a
107.4325	0.1195	214865	keystroke	Key.space	n/a
107.7325	0.105	215465	keystroke	n	n/a
107.8525	0.09	215705	keystroke	e	n/a
108.4375	0.106	216875	keystroke	u	n/a
108.8125	0.0895	217625	keystroke	t	n/a
108.993	0.0895	217986	keystroke	r	n/a
109.2325	0.135	218465	keystroke	a	n/a
109.2625	0.09	218525	keystroke	l	n/a
110.432	0.09	220864	keystroke	Key.enter	n/a
110.5295	10.885	221059	prompt	n/a	appearing anchor messenger increasingly\n
111.257	0.105	222514	keystroke	a	n/a
111.377	0.076	222754	keystroke	p	n/a
111.5425	0.0745	223085	keystroke	p	n/a
111.7675	0.0905	223535	keystroke	e	n/a
111.9325	0.09	223865	keystroke	a	n/a
112.0825	0.1045	224165	keystroke	r	n/a
112.217	0.09	224434	keystroke	i	n/a
112.383	0.135	224766	keystroke	n	n/a
112.503	0.12	225006	keystroke	g	n/a
112.637	0.1205	225274	keystroke	Key.space	n/a
113.178	0.1045	226356	keystroke	a	n/a
113.3275	0.0895	226655	keystroke	n	n/a
113.552	0.091	227104	keystroke	c	n/a
113.627	0.075	227254	keystroke	h	n/a
113.822	0.1055	227644	keystroke	o	n/a
113.9125	0.09	227825	keystroke	r	n/a
114.1225	0.135	228245	keystroke	Key.space	n/a
114.9625	0.075	229925	keystroke	m	n/a
115.083	0.09	230166	keystroke	e	n/a
115.292	0.0755	230584	keystroke	s	n/a
115.4425	0.075	230885	keystroke	s	n/a
115.653	0.1345	231306	keystroke	e	n/a
115.7725	0.1055	231545	keystroke	n	n/a
116.5675	0.09	233135	keystroke	e	n/a
116.6735	0.089	233347	keystroke	g	n/a
117.107	0.0905	234214	keystroke	Key.backspace	n/a
117.467	0.075	234934	keystroke	Key.backspace	n/a
117.618	0.15	235236	keystroke	g	n/a
117.753	0.195	235506	keystroke	e	n/a
117.873	0.1795	235746	keystroke	r	n/a
118.022	0.1205	236044	keystroke	Key.space	n/a
118.8625	0.1055	237725	keystroke	i	n/a
119.042	0.106	238084	keystroke	n	n/a
119.133	0.135	238266	keystroke	c	n/a
119.327	0.166	238654	keystroke	r	n/a
119.522	0.105	239044	keystroke	e	n/a
119.777	0.106	239554	keystroke	a	n/a
119.987	0.076	239974	keystroke	s	n/a
120.078	0.09	240156	keystroke	i	n/a
120.242	0.12	240484	keystroke	n	n/a
120.347	0.105	240694	keystroke	g	n/a
120.482	0.121	240964	keystroke	l	n/a
120.617	0.15	241234	keystroke	y	n/a
121.3075	0.105	242615	keystroke	Key.enter	n/a
121.421	6.683	242842	prompt	n/a	bottles bytes task opinion\n
122.1625	0.06	244325	keystroke	b	n/a
122.3725	0.09	244745	keystroke	o	n/a
122.508	0.074	245016	keystroke	t	n/a
122.657	0.0905	245314	keystroke	t	n/a
122.762	0.091	245524	keystroke	l	n/a
122.912	0.076	245824	keystroke	e	n/a
123.137	0.166	246274	keystroke	s	n/a
123.287	0.1205	246574	keystroke	Key.space	n/a
123.588	0.09	247176	keystroke	b	n/a
123.783	0.105	247566	keystroke	y	n/a
124.068	0.1345	248136	keystroke	t	n/a
124.263	0.194	248526	keystroke	e	n/a
124.6975	0.1205	249395	keystroke	s	n/a
124.8185	0.104	249637	keystroke	Key.space	n/a
125.0275	0.105	250055	keystroke	t	n/a
125.2675	0.1055	250535	keystroke	a	n/a
125.463	0.104	250926	keystroke	s	n/a
125.552	0.1505	251104	keystroke	k	n/a
125.6875	0.1345	251375	keystroke	Key.space	n/a
126.003	0.0445	252006	keystroke	o	n/a
126.2725	0.135	252545	keystroke	p	n/a
126.8125	0.105	253625	keystroke	i	n/a
127.0075	0.09	254015	keystroke	n	n/a
127.1425	0.1055	254285	keystroke	i	n/a
127.383	0.0895	254766	keystroke	o	n/a
127.593	0.1045	255186	keystroke	n	n/a
127.9825	0.1195	255965	keystroke	Key.enter	n/a
128.108	9.101	256216	prompt	n/a	bigger cancer compatibility freebsd\n
128.793	0.074	257586	keystroke	b	n/a
128.958	0.1045	257916	keystroke	i	n/a
129.0775	0.0895	258155	keystroke	g	n/a
129.242	0.121	258484	keystroke	g	n/a
129.347	0.2105	258694	keystroke	e	n/a
129.4825	0.1505	258965	keystroke	r	n/a
129.6475	0.09	259295	keystroke	Key.space	n/a
129.8125	0.105	259625	keystroke	c	n/a
129.9775	0.135	259955	keystroke	a	n/a
130.0675	0.1055	260135	keystroke	n	n/a
130.248	0.135	260496	keystroke	c	n/a
130.413	0.18	260826	keystroke	e	n/a
130.548	0.1645	261096	keystroke	r	n/a
130.6975	0.105	261395	keystroke	Key.space	n/a
130.8625	0.106	261725	keystroke	c	n/a
130.9535	0.074	261907	keystroke	o	n/a
131.118	0.0745	262236	keystroke	m	n/a
131.328	0.0745	262656	keystroke	p	n/a
131.4325	0.06	262865	keystroke	a	n/a
131.5975	0.0905	263195	keystroke	t	n/a
131.7175	0.09	263435	keystroke	i	n/a
131.9725	0.06	263945	keystroke	v	n/a
132.287	0.076	264574	keystroke	Key.backspace	n/a
132.348	0.09	264696	keystroke	b	n/a
132.5275	0.09	265055	keystroke	i	n/a
132.7525	0.09	265505	keystroke	l	n/a
132.9775	0.09	265955	keystroke	i	n/a
133.0825	0.09	266165	keystroke	t	n/a
133.2775	0.12	266555	keystroke	y	n/a
133.4425	0.1045	266885	keystroke	Key.space	n/a
133.637	0.12	267274	keystroke	f	n/a
133.818	0.15	267636	keystroke	r	n/a
134.013	0.12	268026	keystroke	e	n/a
134.193	0.135	268386	keystroke	e	n/a
135.048	0.105	270096	keystroke	b	n/a
135.3475	0.1205	270695	keystroke	s	n/a
136.0225	0.1055	272045	keystroke	b	n/a
136.3525	0.075	272705	keystroke	Key.backspace	n/a
136.443	0.1345	272886	keystroke	d	n/a
137.0875	0.12	274175	keystroke	Key.enter	n/a
137.2135	5.802	274427	prompt	n/a	toronto pushing seeking latin\n
137.9275	0.105	275855	keystroke	t	n/a
138.1075	0.105	276215	keystroke	o	n/a
138.2575	0.09	276515	keystroke	r	n/a
138.3775	0.09	276755	keystroke	o	n/a
138.5725	0.1045	277145	keystroke	n	n/a
138.8575	0.1055	277715	keystroke	t	n/a
138.9935	0.1035	277987	keystroke	o	n/a
139.1565	0.136	278313	keystroke	Key.space	n/a
139.398	0.075	278796	keystroke	p	n/a
139.623	0.0895	279246	keystroke	u	n/a
139.7575	0.106	279515	keystroke	s	n/a
139.8635	0.0895	279727	keystroke	i	n/a
140.0265	0.121	280053	keystroke	n	n/a
140.117	0.1355	280234	keystroke	g	n/a
140.2375	0.1195	280475	keystroke	Key.space	n/a
140.687	0.091	281374	keystroke	s	n/a
140.838	0.089	281676	keystroke	e	n/a
141.0475	0.0445	282095	keystroke	e	n/a
141.2725	0.0595	282545	keystroke	k	n/a
141.438	0.074	282876	keystroke	i	n/a
141.587	0.1205	283174	keystroke	n	n/a
141.6625	0.0755	283325	keystroke	g	n/a
141.8425	0.09	283685	keystroke	Key.space	n/a
142.0225	0.09	284045	keystroke	l	n/a
142.1275	0.0755	284255	keystroke	a	n/a
142.473	0.15	284946	keystroke	t	n/a
142.578	0.09	285156	keystroke	i	n/a
142.728	0.105	285456	keystroke	n	n/a
142.8925	0.1205	285785	keystroke	Key.enter	n/a
143.03	10.739	286060	prompt	n/a	marketing washing association jimmy\n
143.628	0.075	287256	keystroke	m	n/a
143.747	0.091	287494	keystroke	a	n/a
143.9425	0.1205	287885	keystroke	r	n/a
144.047	0.09	288094	keystroke	k	n/a
144.198	0.12	288396	keystroke	e	n/a
144.6025	0.0455	289205	keystroke	i	n/a
145.0075	0.06	290015	keystroke	Key.backspace	n/a
145.0825	0.12	290165	keystroke	t	n/a
145.232	0.09	290464	keystroke	i	n/a
145.397	0.106	290794	keystroke	n	n/a
145.487	0.1355	290974	keystroke	g	n/a
145.8025	0.105	291605	keystroke	Key.space	n/a
146.163	0.075	292326	keystroke	w	n/a
146.358	0.074	292716	keystroke	a	n/a
146.522	0.105	293044	keystroke	s	n/a
146.583	0.09	293166	keystroke	h	n/a
146.748	0.104	293496	keystroke	i	n/a
146.913	0.12	293826	keystroke	n	n/a
147.048	0.0745	294096	keystroke	g	n/a
147.152	0.09	294304	keystroke	Key.space	n/a
147.4225	0.09	294845	keystroke	a	n/a
147.618	0.1795	295236	keystroke	s	n/a
148.2325	0.06	296465	keystroke	s	n/a
148.368	0.075	296736	keystroke	o	n/a
148.668	0.0605	297336	keystroke	c	n/a
148.878	0.1045	297756	keystroke	i	n/a
148.9975	0.12	297995	keystroke	a	n/a
149.237	0.0755	298474	keystroke	t	n/a
149.673	0.09	299346	keystroke	i	n/a
149.853	0.105	299706	keystroke	o	n/a
150.033	0.1345	300066	keystroke	n	n/a
150.1525	0.105	300305	keystroke	Key.space	n/a
150.3775	0.09	300755	keystroke	j	n/a
150.6025	0.045	301205	keystroke	u	n/a
150.8275	0.06	301655	keystroke	m	n/a
150.9475	0.09	301895	keystroke	m	n/a
151.2475	0.03	302495	keystroke	Key.backspace	n/a
151.3675	0.06	302735	keystroke	Key.backspace	n/a
151.4875	0.09	302975	keystroke	Key.backspace	n/a
152.1925	0.075	304385	keystroke	i	n/a
152.3875	0.09	304775	keystroke	m	n/a
152.5375	0.09	305075	keystroke	m	n/a
152.7775	0.09	305555	keystroke	y	n/a
153.7075	0.06	307415	keystroke	Key.enter	n/a
153.7755	6.7885	307551	prompt	n/a	mystery spec health this's\n
154.5475	0.09	309095	keystroke	m	n/a
154.8325	0.06	309665	keystroke	y	n/a
154.9225	0.12	309845	keystroke	s	n/a
155.103	0.1345	310206	keystroke	t	n/a
155.298	0.165	310596	keystroke	e	n/a
155.4175	0.135	310835	keystroke	r	n/a
155.5825	0.135	311165	keystroke	y	n/a
155.7325	0.089	311465	keystroke	Key.space	n/a
155.853	0.1195	311706	keystroke	s	n/a
156.0025	0.12	312005	keystroke	p	n/a
156.0615	0.1205	312123	keystroke	e	n/a
156.288	0.1045	312576	keystroke	c	n/a
156.407	0.121	312814	keystroke	Key.space	n/a
156.7825	0.075	313565	keystroke	h	n/a
156.8875	0.09	313775	keystroke	e	n/a
157.0975	0.105	314195	keystroke	a	n/a
157.1875	0.105	314375	keystroke	l	n/a
157.3525	0.1205	314705	keystroke	t	n/a
157.4875	0.12	314975	keystroke	h	n/a
157.6525	0.09	315305	keystroke	Key.space	n/a
157.908	0.1195	315816	keystroke	t	n/a
157.9975	0.105	315995	keystroke	h	n/a
158.1475	0.0905	316295	keystroke	i	n/a
158.223	0.1045	316446	keystroke	s	n/a
158.703	0.0895	317406	keystroke	;	n/a
159.4975	0.0455	318995	keystroke	Key.backspace	n/a
159.6625	0.089	319325	keystroke	'	n/a
159.7665	0.121	319533	keystroke	s	n/a
160.472	0.09	320944	keystroke	Key.enter	n/a
160.572	6.697	321144	prompt	n/a	hosts fibre interesting empire\n
161.2525	0.09	322505	keystroke	h	n/a
161.4475	0.1055	322895	keystroke	o	n/a
161.538	0.0895	323076	keystroke	s	n/a
161.6875	0.105	323375	keystroke	t	n/a
161.9275	0.105	323855	keystroke	s	n/a
162.0025	0.12	324005	keystroke	Key.space	n/a
162.213	0.119	324426	keystroke	f	n/a
162.3625	0.1045	324725	keystroke	i	n/a
162.678	0.0895	325356	keystroke	b	n/a
162.782	0.21	325564	keystroke	r	n/a
162.9025	0.1795	325805	keystroke	e	n/a
163.1275	0.1645	326255	keystroke	Key.space	n/a
163.578	0.0745	327156	keystroke	i	n/a
163.7275	0.09	327455	keystroke	n	n/a
163.743	0.135	327486	keystroke	t	n/a
163.9375	0.165	327875	keystroke	e	n/a
164.0735	0.149	328147	keystroke	r	n/a
164.192	0.105	328384	keystroke	e	n/a
164.432	0.1205	328864	keystroke	s	n/a
164.5825	0.1195	329165	keystroke	t	n/a
164.6875	0.09	329375	keystroke	i	n/a
164.852	0.1365	329704	keystroke	n	n/a
164.928	0.105	329856	keystroke	g	n/a
165.018	0.194	330036	keystroke	Key.space	n/a
165.572	0.12	331144	keystroke	e	n/a
165.647	0.0755	331294	keystroke	m	n/a
165.8575	0.1055	331715	keystroke	p	n/a
166.427	0.0905	332854	keystroke	i	n/a
166.502	0.1805	333004	keystroke	r	n/a
166.622	0.1655	333244	keystroke	e	n/a
167.1625	0.105	334325	keystroke	Key.enter	n/a
167.2735	8.14	334547	prompt	n/a	postings college indians praise\n
167.988	0.09	335976	keystroke	p	n/a
168.227	0.046	336454	keystroke	s	n/a
168.602	0.075	337204	keystroke	Key.backspace	n/a
168.783	0.105	337566	keystroke	o	n/a
168.902	0.075	337804	keystroke	s	n/a
169.052	0.106	338104	keystroke	t	n/a
169.143	0.09	338286	keystroke	i	n/a
169.292	0.121	338584	keystroke	n	n/a
169.5625	0.0905	339125	keystroke	g	n/a
169.743	0.135	339486	keystroke	s	n/a
169.832	0.105	339664	keystroke	Key.space	n/a
170.1935	0.119	340387	keystroke	c	n/a
170.253	0.075	340506	keystroke	o	n/a
170.4325	0.0745	340865	keystroke	l	n/a
170.658	0.0445	341316	keystroke	l	n/a
171.0325	0.105	342065	keystroke	e	n/a
171.1675	0.12	342335	keystroke	g	n/a
171.3025	0.12	342605	keystroke	e	n/a
171.4375	0.15	342875	keystroke	Key.space	n/a
172.098	0.0595	344196	keystroke	i	n/a
172.247	0.1205	344494	keystroke	n	n/a
172.593	0.1195	345186	keystroke	d	n/a
172.6975	0.09	345395	keystroke	i	n/a
172.848	0.1045	345696	keystroke	a	n/a
172.982	0.12	345964	keystroke	n	n/a
173.132	0.105	346264	keystroke	s	n/a
173.267	0.1205	346534	keystroke	Key.space	n/a
173.642	0.0755	347284	keystroke	p	n/a
173.7625	0.1045	347525	keystroke	r	n/a
174.017	0.0905	348034	keystroke	a	n/a
174.1225	0.135	348245	keystroke	i	n/a
174.2725	0.1945	348545	keystroke	s	n/a
174.4225	0.165	348845	keystroke	e	n/a
175.337	0.0755	350674	keystroke	Key.enter	n/a
175.4185	9.6855	350837	prompt	n/a	installation qualification guards rentals\n
176.328	0.06	352656	keystroke	i	n/a
176.493	0.105	352986	keystroke	n	n/a
176.673	0.105	353346	keystroke	s	n/a
176.8525	0.0445	353705	keystroke	t	n/a
177.0775	0.1195	354155	keystroke	a	n/a
177.2125	0.0605	354425	keystroke	l	n/a
177.347	0.075	354694	keystroke	l	n/a
177.557	0.135	355114	keystroke	a	n/a
177.797	0.105	355594	keystroke	t	n/a
177.8725	0.0755	355745	keystroke	i	n/a
178.067	0.06	356134	keystroke	o	n/a
178.2475	0.105	356495	keystroke	n	n/a
178.353	0.1195	356706	keystroke	Key.space	n/a
178.5175	0.15	357035	keystroke	q	n/a
178.6825	0.09	357365	keystroke	u	n/a
178.8175	0.0905	357635	keystroke	a	n/a
178.9525	0.0755	357905	keystroke	l	n/a
179.2825	0.105	358565	keystroke	i	n/a
179.4475	0.135	358895	keystroke	f	n/a
179.8225	0.0895	359645	keystroke	i	n/a
180.0775	0.12	360155	keystroke	c	n/a
180.227	0.135	360454	keystroke	a	n/a
180.467	0.09	360934	keystroke	t	n/a
180.633	0.06	361266	keystroke	i	n/a
180.797	0.076	361594	keystroke	o	n/a
181.0075	0.1045	362015	keystroke	n	n/a
181.127	0.12	362254	keystroke	Key.space	n/a
181.877	0.076	363754	keystroke	g	n/a
182.042	0.1055	364084	keystroke	u	n/a
182.1925	0.09	364385	keystroke	a	n/a
182.4475	0.0895	364895	keystroke	r	n/a
182.702	0.121	365404	keystroke	d	n/a
183.0175	0.105	366035	keystroke	s	n/a
183.1075	0.12	366215	keystroke	Key.space	n/a
183.452	0.18	366904	keystroke	r	n/a
183.6175	0.1195	367235	keystroke	e	n/a
183.6925	0.105	367385	keystroke	n	n/a
183.827	0.09	367654	keystroke	t	n/a
184.053	0.105	368106	keystroke	a	n/a
184.112	0.09	368224	keystroke	l	n/a
184.397	0.091	368794	keystroke	s	n/a
185.0425	0.06	370085	keystroke	Key.enter	n/a
185.1095	9.0245	370219	prompt	n/a	simulations forecasts similar sound\n
185.732	0.1355	371464	keystroke	s	n/a
185.882	0.0605	371764	keystroke	i	n/a
186.032	0.106	372064	keystroke	m	n/a
186.2275	0.075	372455	keystroke	u	n/a
186.4525	0.105	372905	keystroke	l	n/a
186.9175	0.09	373835	keystroke	a	n/a
187.1575	0.0605	374315	keystroke	t	n/a
187.2625	0.09	374525	keystroke	i	n/a
187.6525	0.105	375305	keystroke	o	n/a
187.8625	0.105	375725	keystroke	n	n/a
187.9525	0.135	375905	keystroke	s	n/a
188.1025	0.089	376205	keystroke	Key.space	n/a
188.417	0.15	376834	keystroke	f	n/a
188.5825	0.1055	377165	keystroke	o	n/a
188.6725	0.1655	377345	keystroke	r	n/a
188.8075	0.1205	377615	keystroke	e	n/a
189.0465	0.1365	378093	keystroke	c	n/a
189.228	0.1495	378456	keystroke	a	n/a
189.4515	0.106	378903	keystroke	r	n/a
189.842	0.0905	379684	keystroke	Key.backspace	n/a
189.918	0.105	379836	keystroke	s	n/a
190.0675	0.1045	380135	keystroke	t	n/a
190.3535	0.119	380707	keystroke	s	n/a
190.4125	0.135	380825	keystroke	Key.space	n/a
190.7575	0.089	381515	keystroke	f	n/a
190.8775	0.06	381755	keystroke	i	n/a
191.1165	0.061	382233	keystroke	Key.backspace	n/a
191.2525	0.074	382505	keystroke	Key.backspace	n/a
191.3575	0.12	382715	keystroke	s	n/a
191.5075	0.075	383015	keystroke	i	n/a
191.6875	0.0605	383375	keystroke	m	n/a
191.8525	0.06	383705	keystroke	i	n/a
192.0475	0.12	384095	keystroke	l	n/a
192.183	0.0745	384366	keystroke	a	n/a
192.3625	0.12	384725	keystroke	r	n/a
192.6325	0.0895	385265	keystroke	Key.space	n/a
192.873	0.0745	385746	keystroke	s	n/a
192.962	0.0905	385924	keystroke	o	n/a
193.172	0.09	386344	keystroke	u	n/a
193.323	0.104	386646	keystroke	n	n/a
193.3825	0.135	386765	keystroke	d	n/a
194.0425	0.09	388085	keystroke	Key.enter	n/a
194.1445	9.0045	388289	prompt	n/a	wild publishers complement purchases\n
194.8675	0.12	389735	keystroke	w	n/a
195.0175	0.09	390035	keystroke	i	n/a
195.2425	0.105	390485	keystroke	l	n/a
195.3775	0.135	390755	keystroke	d	n/a
195.5275	0.09	391055	keystroke	Key.space	n/a
195.7825	0.1195	391565	keystroke	p	n/a
196.0525	0.0595	392105	keystroke	u	n/a
196.2465	0.12	392493	keystroke	l	n/a
196.637	0.09	393274	keystroke	Key.backspace	n/a
196.7125	0.1045	393425	keystroke	b	n/a
196.907	0.075	393814	keystroke	l	n/a
197.1625	0.075	394325	keystroke	i	n/a
197.297	0.1355	394594	keystroke	s	n/a
197.4475	0.0745	394895	keystroke	h	n/a
197.5825	0.1195	395165	keystroke	e	n/a
197.807	0.06	395614	keystroke	r	n/a
197.987	0.121	395974	keystroke	s	n/a
198.077	0.1205	396154	keystroke	Key.space	n/a
198.3325	0.09	396665	keystroke	c	n/a
198.3925	0.075	396785	keystroke	o	n/a
198.5875	0.0905	397175	keystroke	m	n/a
198.7825	0.075	397565	keystroke	p	n/a
198.918	0.1035	397836	keystroke	l	n/a
199.037	0.105	398074	keystroke	e	n/a
199.382	0.105	398764	keystroke	m	n/a
199.5025	0.1045	399005	keystroke	e	n/a
199.638	0.0895	399276	keystroke	n	n/a
199.7275	0.149	399455	keystroke	t	n/a
199.8615	0.121	399723	keystroke	Key.space	n/a
200.1925	0.0755	400385	keystroke	p	n/a
200.417	0.0755	400834	keystroke	u	n/a
200.5075	0.09	401015	keystroke	r	n/a
200.7925	0.09	401585	keystroke	c	n/a
201.003	0.09	402006	keystroke	h	n/a
201.242	0.075	402484	keystroke	a	n/a
201.4825	0.09	402965	keystroke	s	n/a
202.2325	0.21	404465	keystroke	e	n/a
202.4125	0.165	404825	keystroke	s	n/a
203.0725	0.075	406145	keystroke	Key.enter	n/a
203.1535	8.4105	406307	prompt	n/a	samsung quit suggest cardiovascular\n
203.703	0.0895	407406	keystroke	s	n/a
203.8975	0.105	407795	keystroke	a	n/a
203.9875	0.0895	407975	keystroke	m	n/a
204.302	0.1055	408604	keystroke	s	n/a
204.4375	0.0905	408875	keystroke	u	n/a
204.648	0.1045	409296	keystroke	n	n/a
204.7375	0.105	409475	keystroke	g	n/a
204.8575	0.105	409715	keystroke	Key.space	n/a
205.488	0.1195	410976	keystroke	q	n/a
205.577	0.0605	411154	keystroke	u	n/a
205.7425	0.0895	411485	keystroke	i	n/a
205.8175	0.135	411635	keystroke	t	n/a
205.967	0.1055	411934	keystroke	Key.space	n/a
206.7475	0.105	413495	keystroke	s	n/a
206.7925	0.1055	413585	keystroke	u	n/a
207.0475	0.015	414095	keystroke	g	n/a
207.1525	0.09	414305	keystroke	g	n/a
207.2725	0.075	414545	keystroke	e	n/a
207.4525	0.12	414905	keystroke	s	n/a
207.6025	0.12	415205	keystroke	t	n/a
207.7075	0.12	415415	keystroke	Key.space	n/a
208.067	0.1205	416134	keystroke	c	n/a
208.2475	0.1205	416495	keystroke	a	n/a
208.4725	0.0895	416945	keystroke	r	n/a
208.683	0.12	417366	keystroke	d	n/a
208.7725	0.0755	417545	keystroke	i	n/a
208.9225	0.1195	417845	keystroke	o	n/a
209.6875	0.075	419375	keystroke	v	n/a
209.8825	0.119	419765	keystroke	a	n/a
210.107	0.0895	420214	keystroke	s	n/a
210.3175	0.1055	420635	keystroke	c	n/a
210.3925	0.0745	420785	keystroke	u	n/a
210.647	0.0455	421294	keystroke	l	n/a
210.662	0.105	421324	keystroke	a	n/a
211.172	0.105	422344	keystroke	r	n/a
211.382	0.18	422764	keystroke	Key.enter	n/a
211.569	5.41	423138	prompt	n/a	thee assumes blank cars\n
212.2225	0.105	424445	keystroke	t	n/a
212.613	0.06	425226	keystroke	h	n/a
212.762	0.076	425524	keystroke	e	n/a
212.912	0.075	425824	keystroke	e	n/a
213.002	0.12	426004	keystroke	Key.space	n/a
213.1675	0.0445	426335	keystroke	a	n/a
213.4075	0.0605	426815	keystroke	s	n/a
213.572	0.075	427144	keystroke	s	n/a
213.6325	0.0905	427265	keystroke	u	n/a
213.887	0.0755	427774	keystroke	m	n/a
213.977	0.09	427954	keystroke	e	n/a
214.1875	0.105	428375	keystroke	s	n/a
214.2625	0.12	428525	keystroke	Key.space	n/a
214.6525	0.1045	429305	keystroke	b	n/a
214.8475	0.135	429695	keystroke	l	n/a
215.0275	0.1195	430055	keystroke	a	n/a
215.1025	0.12	430205	keystroke	n	n/a
215.283	0.12	430566	keystroke	k	n/a
215.418	0.194	430836	keystroke	Key.space	n/a
215.942	0.09	431884	keystroke	c	n/a
216.077	0.1205	432154	keystroke	a	n/a
216.3025	0.09	432605	keystroke	r	n/a
216.4815	0.135	432963	keystroke	s	n/a
216.8725	0.105	433745	keystroke	Key.enter	n/a
216.985	11.439	433970	prompt	n/a	changes guys infrastructure affordable\n
217.6675	0.135	435335	keystroke	c	n/a
217.7425	0.105	435485	keystroke	h	n/a
217.8925	0.1345	435785	keystroke	a	n/a
217.9675	0.1055	435935	keystroke	n	n/a
218.177	0.1055	436354	keystroke	g	n/a
218.2365	0.121	436473	keystroke	e	n/a
218.4175	0.15	436835	keystroke	s	n/a
218.5215	0.181	437043	keystroke	Key.space	n/a
219.107	0.1205	438214	keystroke	g	n/a
219.3175	0.0745	438635	keystroke	y	n/a
219.752	0.075	439504	keystroke	Key.backspace	n/a
219.9625	0.09	439925	keystroke	u	n/a
220.1575	0.09	440315	keystroke	y	n/a
220.2775	0.135	440555	keystroke	s	n/a
220.592	0.1355	441184	keystroke	Key.space	n/a
220.9675	0.1045	441935	keystroke	i	n/a
221.1475	0.105	442295	keystroke	n	n/a
221.4475	0.135	442895	keystroke	f	n/a
221.6425	0.12	443285	keystroke	r	n/a
221.9125	0.135	443825	keystroke	a	n/a
222.3625	0.105	444725	keystroke	s	n/a
222.527	0.106	445054	keystroke	t	n/a
222.752	0.106	445504	keystroke	r	n/a
222.8425	0.1195	445685	keystroke	u	n/a
223.158	0.12	446316	keystroke	c	n/a
223.4125	0.09	446825	keystroke	t	n/a
223.772	0.09	447544	keystroke	u	n/a
223.8775	0.195	447755	keystroke	r	n/a
224.012	0.165	448024	keystroke	e	n/a
224.1025	0.1045	448205	keystroke	Key.space	n/a
224.3425	0.1055	448685	keystroke	a	n/a
224.5675	0.0745	449135	keystroke	f	n/a
224.717	0.105	449434	keystroke	f	n/a
225.017	0.135	450034	keystroke	r	n/a
225.4365	0.0905	450873	keystroke	Key.backspace	n/a
225.602	0.12	451204	keystroke	o	n/a
225.678	0.089	451356	keystroke	r	n/a
226.3525	0.15	452705	keystroke	a	n/a
226.5775	0.09	453155	keystroke	b	n/a
226.8475	0.075	453695	keystroke	l	n/a
227.4625	0.1045	454925	keystroke	e	n/a
228.347	0.0755	456694	keystroke	Key.enter	n/a
228.4285	8.8	456857	prompt	n/a	captured posts testimonials perspectives\n
229.0375	0.1195	458075	keystroke	c	n/a
229.2025	0.1645	458405	keystroke	a	n/a
229.3075	0.12	458615	keystroke	p	n/a
229.487	0.105	458974	keystroke	t	n/a
229.652	0.12	459304	keystroke	u	n/a
229.7575	0.149	459515	keystroke	r	n/a
229.8625	0.12	459725	keystroke	e	n/a
230.0875	0.1505	460175	keystroke	d	n/a
230.177	0.135	460354	keystroke	Key.space	n/a
230.6725	0.075	461345	keystroke	p	n/a
230.8375	0.06	461675	keystroke	o	n/a
230.8525	0.12	461705	keystroke	s	n/a
231.0475	0.1055	462095	keystroke	t	n/a
231.3765	0.136	462753	keystroke	Key.space	n/a
231.722	0.0905	463444	keystroke	Key.backspace	n/a
231.8275	0.1205	463655	keystroke	s	n/a
231.887	0.1355	463774	keystroke	Key.space	n/a
232.232	0.135	464464	keystroke	t	n/a
232.4275	0.1045	464855	keystroke	e	n/a
232.637	0.1055	465274	keystroke	s	n/a
232.7865	0.105	465573	keystroke	t	n/a
232.9065	0.0905	465813	keystroke	i	n/a
233.432	0.075	466864	keystroke	m	n/a
233.628	0.09	467256	keystroke	o	n/a
233.8825	0.0595	467765	keystroke	n	n/a
234.0175	0.09	468035	keystroke	i	n/a
234.153	0.135	468306	keystroke	a	n/a
234.273	0.1045	468546	keystroke	l	n/a
234.4225	0.135	468845	keystroke	s	n/a
234.9175	0.09	469835	keystroke	Key.space	n/a
235.127	0.09	470254	keystroke	p	n/a
235.247	0.18	470494	keystroke	e	n/a
235.382	0.1205	470764	keystroke	r	n/a
235.6225	0.1355	471245	keystroke	s	n/a
235.727	0.1055	471454	keystroke	p	n/a
236.043	0.0745	472086	keystroke	e	n/a
236.2525	0.09	472505	keystroke	c	n/a
236.462	0.0755	472924	keystroke	t	n/a
236.5525	0.1195	473105	keystroke	i	n/a
236.673	0.1195	473346	keystroke	v	n/a
236.807	0.135	473614	keystroke	e	n/a
237.0475	0.1195	474095	keystroke	s	n/a
237.107	0.1195	474214	keystroke	Key.enter	n/a
237.233	10.6305	474466	prompt	n/a	thereby satellite save unsubscribe\n
238.0225	0.1345	476045	keystroke	t	n/a
238.1415	0.0905	476283	keystroke	h	n/a
238.247	0.1495	476494	keystroke	e	n/a
238.3675	0.1795	476735	keystroke	r	n/a
238.5165	0.091	477033	keystroke	e	n/a
238.8165	0.106	477633	keystroke	b	n/a
238.9675	0.135	477935	keystroke	y	n/a
239.117	0.09	478234	keystroke	Key.space	n/a
239.7625	0.1195	479525	keystroke	s	n/a
240.182	0.105	480364	keystroke	a	n/a
240.407	0.1195	480814	keystroke	t	n/a
240.5715	0.136	481143	keystroke	e	n/a
240.738	0.075	481476	keystroke	k	n/a
240.917	0.0605	481834	keystroke	k	n/a
241.2465	0.06	482493	keystroke	Key.backspace	n/a
241.3665	0.091	482733	keystroke	Key.backspace	n/a
241.5625	0.075	483125	keystroke	l	n/a
241.6975	0.089	483395	keystroke	l	n/a
241.9525	0.09	483905	keystroke	i	n/a
242.133	0.119	484266	keystroke	t	n/a
242.372	0.105	484744	keystroke	e	n/a
242.4625	0.1045	484925	keystroke	Key.space	n/a
242.7475	0.0895	485495	keystroke	s	n/a
242.988	0.0745	485976	keystroke	a	n/a
243.1525	0.1195	486305	keystroke	v	n/a
243.3015	0.106	486603	keystroke	e	n/a
243.4225	0.075	486845	keystroke	Key.space	n/a
243.7525	0.0895	487505	keystroke	u	n/a
243.9475	0.105	487895	keystroke	n	n/a
244.802	0.106	489604	keystroke	s	n/a
245.1465	0.106	490293	keystroke	u	n/a
245.3425	0.1045	490685	keystroke	b	n/a
245.837	0.135	491674	keystroke	s	n/a
246.197	0.105	492394	keystroke	c	n/a
246.7075	0.105	493415	keystroke	r	n/a
246.7675	0.075	493535	keystroke	i	n/a
246.9475	0.09	493895	keystroke	b	n/a
247.0225	0.12	494045	keystroke	e	n/a
247.802	0.06	495604	keystroke	Key.enter	n/a
247.868	8.6505	495736	prompt	n/a	logan introduce conflicts dramatically\n
248.7325	0.074	497465	keystroke	l	n/a
248.9265	0.076	497853	keystroke	o	n/a
248.9865	0.106	497973	keystroke	g	n/a
249.1975	0.1195	498395	keystroke	a	n/a
249.318	0.104	498636	keystroke	n	n/a
249.407	0.12	498814	keystroke	Key.space	n/a
249.6025	0.09	499205	keystroke	i	n/a
249.782	0.09	499564	keystroke	n	n/a
249.947	0.105	499894	keystroke	t	n/a
250.127	0.1205	500254	keystroke	r	n/a
250.1875	0.104	500375	keystroke	o	n/a
250.623	0.104	501246	keystroke	d	n/a
250.712	0.09	501424	keystroke	u	n/a
250.847	0.09	501694	keystroke	c	n/a
251.057	0.1355	502114	keystroke	e	n/a
251.162	0.105	502324	keystroke	Key.space	n/a
251.897	0.1345	503794	keystroke	c	n/a
252.1215	0.076	504243	keystroke	o	n/a
252.3165	0.0905	504633	keystroke	n	n/a
252.4515	0.06	504903	keystroke	t	n/a
252.737	0.0595	505474	keystroke	Key.backspace	n/a
252.8125	0.105	505625	keystroke	f	n/a
252.9475	0.0895	505895	keystroke	l	n/a
253.157	0.105	506314	keystroke	i	n/a
253.247	0.09	506494	keystroke	c	n/a
253.4715	0.15	506943	keystroke	t	n/a
253.8165	0.1355	507633	keystroke	s	n/a
253.907	0.1045	507814	keystroke	Key.space	n/a
254.2075	0.1195	508415	keystroke	d	n/a
254.4615	0.106	508923	keystroke	r	n/a
254.7025	0.12	509405	keystroke	a	n/a
254.8665	0.031	509733	keystroke	m	n/a
255.0765	0.09	510153	keystroke	a	n/a
255.3315	0.076	510663	keystroke	t	n/a
255.4375	0.075	510875	keystroke	i	n/a
255.6025	0.089	511205	keystroke	c	n/a
255.7375	0.119	511475	keystroke	a	n/a
255.827	0.0605	511654	keystroke	l	n/a
255.9615	0.091	511923	keystroke	l	n/a
256.0675	0.075	512135	keystroke	y	n/a
256.442	0.075	512884	keystroke	Key.enter	n/a
256.524	8.695	513048	prompt	n/a	match with district messenger\n
258.594	0.0085	517188	keystroke	m	n/a
258.6775	0.1345	517355	keystroke	a	n/a
258.887	0.0905	517774	keystroke	t	n/a
258.9915	0.136	517983	keystroke	c	n/a
259.1275	0.104	518255	keystroke	h	n/a
259.262	0.1045	518524	keystroke	Key.space	n/a
259.5325	0.134	519065	keystroke	w	n/a
259.6515	0.09	519303	keystroke	i	n/a
259.8025	0.104	519605	keystroke	t	n/a
259.8915	0.105	519783	keystroke	h	n/a
260.0265	0.075	520053	keystroke	Key.space	n/a
260.1475	0.12	520295	keystroke	d	n/a
260.3125	0.089	520625	keystroke	i	n/a
260.447	0.12	520894	keystroke	s	n/a
260.6575	0.164	521315	keystroke	t	n/a
260.9125	0.09	521825	keystroke	r	n/a
261.1825	0.105	522365	keystroke	u	n/a
261.3025	0.119	522605	keystroke	c	n/a
261.677	0.045	523354	keystroke	Key.backspace	n/a
261.9015	0.016	523803	keystroke	Key.backspace	n/a
262.0375	0.075	524075	keystroke	i	n/a
262.1425	0.1195	524285	keystroke	c	n/a
262.322	0.15	524644	keystroke	t	n/a
262.442	0.135	524884	keystroke	Key.space	n/a
263.132	0.09	526264	keystroke	m	n/a
263.2375	0.0895	526475	keystroke	e	n/a
263.447	0.09	526894	keystroke	s	n/a
263.612	0.09	527224	keystroke	s	n/a
263.762	0.12	527524	keystroke	e	n/a
263.867	0.105	527734	keystroke	n	n/a
264.2575	0.12	528515	keystroke	g	n/a
264.4515	0.18	528903	keystroke	e	n/a
264.5715	0.15	529143	keystroke	r	n/a
265.1115	0.105	530223	keystroke	Key.enter	n/a
265.227	12.532	530454	prompt	n/a	estate champions aqua anthony\n
265.787	0.0905	531574	keystroke	e	n/a
266.0725	0.06	532145	keystroke	x	n/a
266.5225	0.12	533045	keystroke	t	n/a
266.8975	0.0745	533795	keystroke	Key.backspace	n/a
267.032	0.0895	534064	keystroke	Key.backspace	n/a
267.0925	0.105	534185	keystroke	s	n/a
267.3775	0.06	534755	keystroke	t	n/a
267.4975	0.09	534995	keystroke	a	n/a
267.6175	0.105	535235	keystroke	t	n/a
267.7675	0.135	535535	keystroke	e	n/a
267.9175	0.119	535835	keystroke	Key.space	n/a
268.547	0.12	537094	keystroke	c	n/a
269.4475	0.075	538895	keystroke	h	n/a
269.5665	0.1205	539133	keystroke	a	n/a
269.6715	0.0915	539343	keystroke	m	n/a
269.8675	0.0745	539735	keystroke	p	n/a
270.107	0.0605	540214	keystroke	i	n/a
270.2725	0.09	540545	keystroke	o	n/a
270.4825	0.12	540965	keystroke	n	n/a
270.782	0.135	541564	keystroke	s	n/a
270.962	0.1055	541924	keystroke	Key.space	n/a
271.5475	0.105	543095	keystroke	a	n/a
271.6965	0.135	543393	keystroke	w	n/a
271.9815	0.0605	543963	keystroke	a	n/a
272.2375	0.0445	544475	keystroke	Key.backspace	n/a
272.372	0.075	544744	keystroke	Key.backspace	n/a
273.197	0.1205	546394	keystroke	q	n/a
273.3325	0.0745	546665	keystroke	u	n/a
273.4675	0.1045	546935	keystroke	a	n/a
274.817	0.12	549634	keystroke	Key.space	n/a
275.3425	0.119	550685	keystroke	a	n/a
275.4775	0.06	550955	keystroke	n	n/a
275.7615	0.09	551523	keystroke	t	n/a
275.8365	0.076	551673	keystroke	h	n/a
276.0325	0.105	552065	keystroke	o	n/a
276.3025	0.089	552605	keystroke	n	n/a
276.528	0.0745	553056	keystroke	y	n/a
277.6825	0.075	555365	keystroke	Key.enter	n/a
277.765	8.199	555530	prompt	n/a	presence logistics foreign strange\n
278.673	0.074	557346	keystroke	p	n/a
278.777	0.181	557554	keystroke	r	n/a
278.912	0.135	557824	keystroke	e	n/a
279.153	0.134	558306	keystroke	s	n/a
279.242	0.1355	558484	keystroke	e	n/a
279.3475	0.12	558695	keystroke	n	n/a
279.797	0.1505	559594	keystroke	c	n/a
279.9315	0.1355	559863	keystroke	e	n/a
280.0525	0.1795	560105	keystroke	Key.space	n/a
280.338	0.09	560676	keystroke	l	n/a
280.5175	0.0895	561035	keystroke	o	n/a
280.6225	0.12	561245	keystroke	g	n/a
280.7725	0.09	561545	keystroke	i	n/a
280.8925	0.12	561785	keystroke	s	n/a
281.0875	0.12	562175	keystroke	t	n/a
281.2675	0.105	562535	keystroke	i	n/a
281.4325	0.135	562865	keystroke	c	n/a
281.5525	0.18	563105	keystroke	s	n/a
281.7025	0.105	563405	keystroke	Key.space	n/a
281.9125	0.12	563825	keystroke	f	n/a
282.003	0.1195	564006	keystroke	o	n/a
282.1075	0.1345	564215	keystroke	r	n/a
282.647	0.1205	565294	keystroke	e	n/a
282.707	0.09	565414	keystroke	i	n/a
283.022	0.105	566044	keystroke	g	n/a
283.112	0.121	566224	keystroke	n	n/a
283.2625	0.105	566525	keystroke	Key.space	n/a
283.607	0.09	567214	keystroke	s	n/a
283.772	0.1205	567544	keystroke	t	n/a
283.9825	0.0895	567965	keystroke	r	n/a
284.343	0.074	568686	keystroke	n	n/a
284.4025	0.1045	568805	keystroke	a	n/a
284.807	0.06	569614	keystroke	Key.backspace	n/a
284.927	0.09	569854	keystroke	Key.backspace	n/a
285.047	0.09	570094	keystroke	a	n/a
285.2125	0.0595	570425	keystroke	n	n/a
285.407	0.091	570814	keystroke	g	n/a
285.4825	0.1355	570965	keystroke	e	n/a
285.842	0.12	571684	keystroke	Key.enter	n/a
285.9685	11.98	571937	prompt	n/a	generate hazard empty concert\n
287.057	0.09	574114	keystroke	g	n/a
287.222	0.1205	574444	keystroke	e	n/a
287.5825	0.09	575165	keystroke	n	n/a
287.8975	0.21	575795	keystroke	e	n/a
288.0775	0.1195	576155	keystroke	r	n/a
288.5725	0.0905	577145	keystroke	a	n/a
288.827	0.2405	577654	keystroke	t	n/a
288.992	0.166	577984	keystroke	e	n/a
289.127	0.12	578254	keystroke	Key.space	n/a
289.292	0.1205	578584	keystroke	h	n/a
289.367	0.105	578734	keystroke	a	n/a
289.532	0.105	579064	keystroke	r	n/a
290.0125	0.0895	580025	keystroke	Key.backspace	n/a
290.117	0.105	580234	keystroke	z	n/a
290.342	0.105	580684	keystroke	a	n/a
291.437	0.1045	582874	keystroke	r	n/a
291.6475	0.1655	583295	keystroke	d	n/a
291.813	0.089	583626	keystroke	Key.space	n/a
292.097	0.15	584194	keystroke	e	n/a
292.202	0.0905	584404	keystroke	m	n/a
292.427	0.0755	584854	keystroke	p	n/a
293.297	0.1055	586594	keystroke	t	n/a
293.418	0.104	586836	keystroke	y	n/a
293.5515	0.09	587103	keystroke	Key.space	n/a
293.7475	0.09	587495	keystroke	c	n/a
293.8225	0.075	587645	keystroke	o	n/a
294.0165	0.091	588033	keystroke	n	n/a
294.1225	0.15	588245	keystroke	v	n/a
294.3025	0.1495	588605	keystroke	e	n/a
294.617	0.0455	589234	keystroke	Key.backspace	n/a
294.737	0.075	589474	keystroke	Key.backspace	n/a
294.8725	0.1045	589745	keystroke	c	n/a
295.0375	0.105	590075	keystroke	e	n/a
295.1275	0.105	590255	keystroke	p	n/a
295.2925	0.12	590585	keystroke	t	n/a
295.6525	0.0445	591305	keystroke	Key.backspace	n/a
295.787	0.0905	591574	keystroke	Key.backspace	n/a
296.4325	0.0895	592865	keystroke	r	n/a
296.597	0.105	593194	keystroke	t	n/a
296.702	0.09	593404	keystroke	Key.space	n/a
297.3475	0.0595	594695	keystroke	Key.backspace	n/a
297.887	0.0595	595774	keystroke	Key.enter	n/a
297.952	7.8265	595904	prompt	n/a	unions peer periodically accomplished\n
298.757	0.075	597514	keystroke	u	n/a
298.922	0.09	597844	keystroke	n	n/a
299.057	0.0895	598114	keystroke	i	n/a
299.4165	0.0755	598833	keystroke	o	n/a
299.642	0.03	599284	keystroke	n	n/a
299.717	0.12	599434	keystroke	s	n/a
299.897	0.0895	599794	keystroke	Key.space	n/a
300.1365	0.0755	600273	keystroke	p	n/a
300.287	0.09	600574	keystroke	e	n/a
300.482	0.09	600964	keystroke	e	n/a
300.6165	0.105	601233	keystroke	r	n/a
300.7665	0.12	601533	keystroke	Key.space	n/a
301.2175	0.105	602435	keystroke	p	n/a
301.4425	0.15	602885	keystroke	e	n/a
301.6075	0.075	603215	keystroke	r	n/a
301.7125	0.075	603425	keystroke	i	n/a
301.8925	0.09	603785	keystroke	o	n/a
301.9965	0.076	603993	keystroke	d	n/a
302.883	0.074	605766	keystroke	i	n/a
303.0025	0.0905	606005	keystroke	c	n/a
303.1525	0.135	606305	keystroke	a	n/a
303.242	0.0905	606484	keystroke	l	n/a
303.392	0.105	606784	keystroke	l	n/a
303.512	0.105	607024	keystroke	y	n/a
303.6625	0.075	607325	keystroke	Key.space	n/a
303.872	0.106	607744	keystroke	a	n/a
304.0225	0.09	608045	keystroke	c	n/a
304.2015	0.105	608403	keystroke	c	n/a
304.2915	0.06	608583	keystroke	o	n/a
304.4725	0.0895	608945	keystroke	m	n/a
304.6825	0.074	609365	keystroke	p	n/a
304.832	0.0905	609664	keystroke	l	n/a
305.0575	0.0745	610115	keystroke	i	n/a
305.1765	0.105	610353	keystroke	s	n/a
305.2975	0.075	610595	keystroke	h	n/a
305.3875	0.135	610775	keystroke	e	n/a
305.5065	0.1505	611013	keystroke	d	n/a
305.658	0.119	611316	keystroke	Key.enter	n/a
305.783	10.6155	611566	prompt	n/a	omissions kijiji soft vulnerability\n
306.3015	0.091	612603	keystroke	o	n/a
306.5125	0.075	613025	keystroke	m	n/a
306.6925	0.06	613385	keystroke	i	n/a
306.7975	0.09	613595	keystroke	s	n/a
306.9925	0.075	613985	keystroke	s	n/a
307.0225	0.075	614045	keystroke	i	n/a
307.2025	0.06	614405	keystroke	o	n/a
307.3825	0.105	614765	keystroke	n	n/a
307.6075	0.12	615215	keystroke	s	n/a
307.9965	0.106	615993	keystroke	Key.space	n/a
309.1825	0.09	618365	keystroke	k	n/a
309.467	0.0605	618934	keystroke	i	n/a
310.637	0.09	621274	keystroke	j	n/a
310.757	0.1055	621514	keystroke	i	n/a
310.892	0.09	621784	keystroke	j	n/a
311.012	0.105	622024	keystroke	i	n/a
311.432	0.075	622864	keystroke	Key.space	n/a
311.567	0.1055	623134	keystroke	s	n/a
311.597	0.12	623194	keystroke	o	n/a
312.0325	0.105	624065	keystroke	f	n/a
312.2575	0.12	624515	keystroke	t	n/a
312.3625	0.165	624725	keystroke	Key.space	n/a
312.887	0.12	625774	keystroke	v	n/a
313.3975	0.06	626795	keystroke	u	n/a
313.9975	0.0755	627995	keystroke	l	n/a
314.192	0.0905	628384	keystroke	n	n/a
314.312	0.21	628624	keystroke	e	n/a
314.477	0.1205	628954	keystroke	r	n/a
314.702	0.12	629404	keystroke	a	n/a
314.8375	0.0755	629675	keystroke	b	n/a
315.017	0.0755	630034	keystroke	i	n/a
315.212	0.06	630424	keystroke	l	n/a
315.4075	0.0895	630815	keystroke	i	n/a
315.5275	0.1045	631055	keystroke	t	n/a
315.6625	0.075	631325	keystroke	y	n/a
316.3065	0.09	632613	keystroke	Key.enter	n/a
316.4025	6.794	632805	prompt	n/a	accomplished compare assign cherry\n
317.2825	0.105	634565	keystroke	a	n/a
317.537	0.076	635074	keystroke	c	n/a
317.7025	0.105	635405	keystroke	c	n/a
317.7775	0.0745	635555	keystroke	o	n/a
317.9565	0.0755	635913	keystroke	m	n/a
318.138	0.074	636276	keystroke	p	n/a
318.3025	0.075	636605	keystroke	l	n/a
318.482	0.0905	636964	keystroke	i	n/a
318.5875	0.135	637175	keystroke	s	n/a
318.768	0.0895	637536	keystroke	h	n/a
318.8725	0.1345	637745	keystroke	e	n/a
318.993	0.134	637986	keystroke	d	n/a
319.082	0.105	638164	keystroke	Key.space	n/a
319.3215	0.091	638643	keystroke	c	n/a
319.3965	0.091	638793	keystroke	o	n/a
319.5765	0.061	639153	keystroke	m	n/a
319.7275	0.105	639455	keystroke	p	n/a
319.8465	0.105	639693	keystroke	a	n/a
320.0115	0.181	640023	keystroke	r	n/a
320.1775	0.1645	640355	keystroke	e	n/a
320.537	0.1355	641074	keystroke	Key.space	n/a
320.717	0.06	641434	keystroke	a	n/a
320.882	0.09	641764	keystroke	s	n/a
321.0475	0.1045	642095	keystroke	s	n/a
321.167	0.09	642334	keystroke	i	n/a
321.3175	0.1195	642635	keystroke	g	n/a
321.452	0.09	642904	keystroke	n	n/a
321.752	0.0595	643504	keystroke	Key.space	n/a
321.8425	0.105	643685	keystroke	c	n/a
322.0075	0.075	644015	keystroke	h	n/a
322.1275	0.12	644255	keystroke	e	n/a
322.3075	0.105	644615	keystroke	r	n/a
322.4725	0.1505	644945	keystroke	r	n/a
322.607	0.15	645214	keystroke	y	n/a
323.0265	0.166	646053	keystroke	Key.enter	n/a
323.2105	9.5685	646421	prompt	n/a	musicians freedom institutional indicating\n
323.8075	0.104	647615	keystroke	m	n/a
324.0475	0.075	648095	keystroke	u	n/a
324.212	0.0905	648424	keystroke	s	n/a
324.3175	0.0745	648635	keystroke	i	n/a
324.437	0.105	648874	keystroke	c	n/a
324.707	0.075	649414	keystroke	i	n/a
324.827	0.105	649654	keystroke	a	n/a
325.1875	0.0745	650375	keystroke	n	n/a
325.397	0.105	650794	keystroke	s	n/a
325.517	0.075	651034	keystroke	Key.space	n/a
325.7565	0.121	651513	keystroke	f	n/a
325.9075	0.195	651815	keystroke	r	n/a
326.0875	0.0895	652175	keystroke	e	n/a
326.237	0.105	652474	keystroke	e	n/a
326.477	0.105	652954	keystroke	d	n/a
326.627	0.075	653254	keystroke	o	n/a
326.792	0.105	653584	keystroke	m	n/a
326.957	0.0905	653914	keystroke	Key.space	n/a
327.1825	0.075	654365	keystroke	i	n/a
327.347	0.1055	654694	keystroke	n	n/a
327.437	0.091	654874	keystroke	s	n/a
327.5875	0.0895	655175	keystroke	t	n/a
327.8125	0.1345	655625	keystroke	i	n/a
328.262	0.12	656524	keystroke	t	n/a
328.487	0.105	656974	keystroke	u	n/a
329.0265	0.12	658053	keystroke	t	n/a
329.1475	0.075	658295	keystroke	i	n/a
329.312	0.0745	658624	keystroke	o	n/a
329.4765	0.075	658953	keystroke	n	n/a
329.5815	0.106	659163	keystroke	a	n/a
329.912	0.151	659824	keystroke	l	n/a
330.2125	0.1195	660425	keystroke	Key.space	n/a
330.887	0.09	661774	keystroke	i	n/a
331.0675	0.0895	662135	keystroke	n	n/a
331.262	0.09	662524	keystroke	d	n/a
331.532	0.075	663064	keystroke	i	n/a
331.742	0.09	663484	keystroke	c	n/a
331.907	0.1205	663814	keystroke	a	n/a
332.1325	0.12	664265	keystroke	t	n/a
332.2375	0.0745	664475	keystroke	i	n/a
332.372	0.09	664744	keystroke	n	n/a
332.4175	0.1055	664835	keystroke	g	n/a
332.6425	0.135	665285	keystroke	Key.enter	n/a
332.7835	10.3155	665567	prompt	n/a	commerce supplied namespace broken\n
333.3775	0.075	666755	keystroke	m	n/a
333.662	0.06	667324	keystroke	Key.backspace	n/a
333.782	0.0905	667564	keystroke	c	n/a
333.9325	0.045	667865	keystroke	m	n/a
334.532	0.06	669064	keystroke	Key.backspace	n/a
334.772	0.0755	669544	keystroke	o	n/a
334.998	0.06	669996	keystroke	m	n/a
335.147	0.0755	670294	keystroke	m	n/a
335.3275	0.18	670655	keystroke	e	n/a
335.4615	0.105	670923	keystroke	r	n/a
335.762	0.0605	671524	keystroke	c	n/a
335.882	0.165	671764	keystroke	e	n/a
335.9575	0.1195	671915	keystroke	Key.space	n/a
336.6475	0.12	673295	keystroke	s	n/a
336.7525	0.075	673505	keystroke	u	n/a
337.0075	0.075	674015	keystroke	p	n/a
337.1725	0.075	674345	keystroke	p	n/a
337.3075	0.12	674615	keystroke	l	n/a
337.5315	0.076	675063	keystroke	i	n/a
337.7425	0.179	675485	keystroke	e	n/a
337.9075	0.15	675815	keystroke	d	n/a
338.072	0.1505	676144	keystroke	Key.space	n/a
338.5515	0.061	677103	keystroke	n	n/a
338.7625	0.09	677525	keystroke	a	n/a
338.8535	0.089	677707	keystroke	m	n/a
338.9875	0.105	677975	keystroke	e	n/a
339.4525	0.105	678905	keystroke	s	n/a
339.5425	0.09	679085	keystroke	p	n/a
339.737	0.0755	679474	keystroke	a	n/a
339.8875	0.1045	679775	keystroke	c	n/a
340.0225	0.1795	680045	keystroke	e	n/a
340.172	0.1205	680344	keystroke	Key.space	n/a
340.982	0.0755	681964	keystroke	b	n/a
341.177	0.105	682354	keystroke	r	n/a
341.2375	0.09	682475	keystroke	o	n/a
341.432	0.0905	682864	keystroke	k	n/a
341.4925	0.195	682985	keystroke	e	n/a
341.6275	0.1505	683255	keystroke	r	n/a
341.7475	0.0745	683495	keystroke	n	n/a
342.107	0.0455	684214	keystroke	Key.backspace	n/a
342.2275	0.075	684455	keystroke	Key.backspace	n/a
342.4975	0.06	684995	keystroke	n	n/a
343.0365	0.06	686073	keystroke	Key.enter	n/a
343.103	16.0915	686206	prompt	n/a	interactive verzeichnis mandate flip\n
343.7875	0.089	687575	keystroke	i	n/a
344.1175	0.105	688235	keystroke	n	n/a
344.2825	0.135	688565	keystroke	t	n/a
344.4765	0.1505	688953	keystroke	e	n/a
344.5815	0.1205	689163	keystroke	r	n/a
344.8825	0.105	689765	keystroke	a	n/a
345.0625	0.075	690125	keystroke	c	n/a
345.2875	0.12	690575	keystroke	t	n/a
345.4675	0.1345	690935	keystroke	i	n/a
345.5725	0.12	691145	keystroke	v	n/a
345.677	0.1805	691354	keystroke	e	n/a
345.7975	0.135	691595	keystroke	Key.space	n/a
346.503	0.179	693006	keystroke	v	n/a
346.6975	0.1795	693395	keystroke	e	n/a
346.832	0.135	693664	keystroke	r	n/a
347.2075	0.1195	694415	keystroke	z	n/a
347.447	0.0905	694894	keystroke	e	n/a
347.6125	0.09	695225	keystroke	i	n/a
348.0925	0.1045	696185	keystroke	c	n/a
348.182	0.1055	696364	keystroke	h	n/a
348.452	0.075	696904	keystroke	n	n/a
348.5875	0.12	697175	keystroke	i	n/a
348.693	0.119	697386	keystroke	s	n/a
348.842	0.12	697684	keystroke	Key.space	n/a
349.397	0.061	698794	keystroke	m	n/a
349.488	0.134	698976	keystroke	a	n/a
349.637	0.075	699274	keystroke	n	n/a
350.733	0.0745	701466	keystroke	f	n/a
350.8225	0.12	701645	keystroke	a	n/a
350.9565	0.106	701913	keystroke	t	n/a
351.153	0.0895	702306	keystroke	e	n/a
351.4825	0.045	702965	keystroke	Key.backspace	n/a
351.6175	0.06	703235	keystroke	Key.backspace	n/a
351.7375	0.09	703475	keystroke	Key.backspace	n/a
351.8425	0.15	703685	keystroke	d	n/a
352.0525	0.12	704105	keystroke	a	n/a
352.2775	0.135	704555	keystroke	t	n/a
352.442	0.075	704884	keystroke	t	n/a
352.8925	0.0745	705785	keystroke	Key.backspace	n/a
353.0575	0.0445	706115	keystroke	Key.backspace	n/a
353.1915	0.061	706383	keystroke	Key.backspace	n/a
353.327	0.075	706654	keystroke	Key.backspace	n/a
353.462	0.09	706924	keystroke	Key.backspace	n/a
354.1675	0.15	708335	keystroke	d	n/a
354.3025	0.135	708605	keystroke	a	n/a
354.4075	0.105	708815	keystroke	t	n/a
354.5275	0.09	709055	keystroke	e	n/a
356.8695	0.013	713739	keystroke	Key.space	n/a
357.377	0.121	714754	keystroke	f	n/a
357.5725	0.0755	715145	keystroke	l	n/a
357.797	0.0605	715594	keystroke	i	n/a
358.277	0.061	716554	keystroke	p	n/a
359.1025	0.09	718205	keystroke	Key.enter	n/a
359.201	9.0075	718402	prompt	n/a	collapse combine keeping structured\n
359.8675	0.1195	719735	keystroke	c	n/a
360.092	0.0605	720184	keystroke	o	n/a
360.287	0.0605	720574	keystroke	l	n/a
360.422	0.09	720844	keystroke	l	n/a
360.5575	0.105	721115	keystroke	a	n/a
360.7675	0.1195	721535	keystroke	s	n/a
360.8725	0.0895	721745	keystroke	p	n/a
361.532	0.045	723064	keystroke	Key.backspace	n/a
361.652	0.075	723304	keystroke	Key.backspace	n/a
362.252	0.0755	724504	keystroke	p	n/a
362.522	0.1805	725044	keystroke	s	n/a
362.7175	0.1495	725435	keystroke	e	n/a
362.822	0.12	725644	keystroke	Key.space	n/a
363.3475	0.0895	726695	keystroke	c	n/a
363.422	0.075	726844	keystroke	o	n/a
363.617	0.075	727234	keystroke	m	n/a
363.8575	0.09	727715	keystroke	b	n/a
364.0975	0.089	728195	keystroke	i	n/a
364.2615	0.106	728523	keystroke	n	n/a
364.4115	0.105	728823	keystroke	e	n/a
364.5315	0.105	729063	keystroke	Key.space	n/a
364.7565	0.091	729513	keystroke	k	n/a
364.8925	0.089	729785	keystroke	e	n/a
365.0575	0.0895	730115	keystroke	e	n/a
365.1175	0.0895	730235	keystroke	p	n/a
365.342	0.075	730684	keystroke	i	n/a
365.478	0.1195	730956	keystroke	n	n/a
365.627	0.105	731254	keystroke	g	n/a
365.747	0.12	731494	keystroke	Key.space	n/a
366.0025	0.0745	732005	keystroke	s	n/a
366.167	0.1055	732334	keystroke	t	n/a
366.3475	0.135	732695	keystroke	r	n/a
366.4515	0.105	732903	keystroke	u	n/a
366.6015	0.09	733203	keystroke	c	n/a
366.7975	0.119	733595	keystroke	t	n/a
366.8715	0.0905	733743	keystroke	u	n/a
367.037	0.12	734074	keystroke	r	n/a
367.1415	0.181	734283	keystroke	e	n/a
367.5925	0.12	735185	keystroke	d	n/a
368.117	0.0895	736234	keystroke	Key.enter	n/a
368.215	8.3485	736430	prompt	n/a	bookmarks tanzania believes bang\n
368.912	0.0755	737824	keystroke	b	n/a
369.122	0.0755	738244	keystroke	o	n/a
369.2575	0.105	738515	keystroke	o	n/a
369.377	0.105	738754	keystroke	k	n/a
369.707	0.075	739414	keystroke	m	n/a
369.827	0.0905	739654	keystroke	a	n/a
369.992	0.105	739984	keystroke	r	n/a
370.112	0.09	740224	keystroke	k	n/a
370.247	0.105	740494	keystroke	s	n/a
370.367	0.12	740734	keystroke	Key.space	n/a
370.862	0.09	741724	keystroke	t	n/a
371.0865	0.105	742173	keystroke	a	n/a
371.1765	0.0905	742353	keystroke	n	n/a
371.357	0.06	742714	keystroke	z	n/a
371.522	0.09	743044	keystroke	a	n/a
371.672	0.0755	743344	keystroke	n	n/a
371.8375	0.09	743675	keystroke	i	n/a
371.957	0.0905	743914	keystroke	a	n/a
372.062	0.0895	744124	keystroke	Key.space	n/a
372.5415	0.0905	745083	keystroke	b	n/a
372.6765	0.09	745353	keystroke	e	n/a
373.1865	0.045	746373	keystroke	l	n/a
373.667	0.09	747334	keystroke	i	n/a
373.952	0.075	747904	keystroke	e	n/a
374.162	0.12	748324	keystroke	v	n/a
374.312	0.105	748624	keystroke	e	n/a
374.957	0.1055	749914	keystroke	s	n/a
375.032	0.105	750064	keystroke	Key.space	n/a
375.332	0.075	750664	keystroke	b	n/a
375.422	0.1055	750844	keystroke	a	n/a
375.542	0.075	751084	keystroke	n	n/a
375.602	0.1355	751204	keystroke	d	n/a
376.082	0.075	752164	keystroke	Key.backspace	n/a
376.172	0.0905	752344	keystroke	g	n/a
376.427	0.135	752854	keystroke	Key.enter	n/a
376.568	7.9605	753136	prompt	n/a	answering neon bumper blackberry\n
377.132	0.12	754264	keystroke	a	n/a
377.267	0.09	754534	keystroke	n	n/a
377.387	0.105	754774	keystroke	s	n/a
377.6125	0.1635	755225	keystroke	w	n/a
377.762	0.119	755524	keystroke	e	n/a
377.942	0.12	755884	keystroke	r	n/a
378.0925	0.0895	756185	keystroke	i	n/a
378.332	0.12	756664	keystroke	n	n/a
378.4665	0.0905	756933	keystroke	g	n/a
378.5715	0.105	757143	keystroke	Key.space	n/a
378.7815	0.1065	757563	keystroke	n	n/a
378.873	0.104	757746	keystroke	e	n/a
379.037	0.09	758074	keystroke	o	n/a
379.2325	0.1055	758465	keystroke	n	n/a
379.352	0.12	758704	keystroke	Key.space	n/a
379.8325	0.0745	759665	keystroke	b	n/a
380.0125	0.0895	760025	keystroke	u	n/a
380.537	0.075	761074	keystroke	m	n/a
380.7925	0.075	761585	keystroke	p	n/a
381.077	0.165	762154	keystroke	e	n/a
381.167	0.1655	762334	keystroke	r	n/a
381.347	0.075	762694	keystroke	Key.space	n/a
381.857	0.074	763714	keystroke	b	n/a
382.0975	0.09	764195	keystroke	l	n/a
382.2015	0.105	764403	keystroke	a	n/a
382.3665	0.12	764733	keystroke	c	n/a
382.427	0.0745	764854	keystroke	k	n/a
382.7425	0.075	765485	keystroke	b	n/a
382.8475	0.09	765695	keystroke	e	n/a
383.0425	0.075	766085	keystroke	r	n/a
383.1775	0.105	766355	keystroke	r	n/a
383.3265	0.121	766653	keystroke	y	n/a
384.437	0.09	768874	keystroke	Key.enter	n/a
384.5335	9.82	769067	prompt	n/a	combo textile mortality employment\n
385.187	0.12	770374	keystroke	c	n/a
385.292	0.0755	770584	keystroke	o	n/a
385.4865	0.0755	770973	keystroke	m	n/a
385.712	0.0595	771424	keystroke	b	n/a
385.892	0.0595	771784	keystroke	i	n/a
386.282	0.06	772564	keystroke	Key.backspace	n/a
386.4625	0.0745	772925	keystroke	o	n/a
386.5825	0.1335	773165	keystroke	Key.space	n/a
387.1825	0.1045	774365	keystroke	t	n/a
387.617	0.0755	775234	keystroke	e	n/a
387.827	0.12	775654	keystroke	x	n/a
388.0675	0.1195	776135	keystroke	t	n/a
388.562	0.0755	777124	keystroke	i	n/a
388.771	0.0755	777542	keystroke	l	n/a
388.907	0.12	777814	keystroke	e	n/a
389.012	0.075	778024	keystroke	Key.space	n/a
389.1915	0.0905	778383	keystroke	m	n/a
389.3415	0.105	778683	keystroke	o	n/a
389.4475	0.1195	778895	keystroke	r	n/a
389.7765	0.091	779553	keystroke	t	n/a
390.0325	0.09	780065	keystroke	a	n/a
390.0775	0.104	780155	keystroke	l	n/a
390.3025	0.089	780605	keystroke	i	n/a
390.4515	0.105	780903	keystroke	t	n/a
390.6165	0.1355	781233	keystroke	y	n/a
390.782	0.09	781564	keystroke	Key.space	n/a
391.3365	0.0905	782673	keystroke	e	n/a
391.4425	0.089	782885	keystroke	m	n/a
391.6375	0.074	783275	keystroke	p	n/a
391.8025	0.1045	783605	keystroke	l	n/a
392.0265	0.09	784053	keystroke	o	n/a
392.326	0.076	784652	keystroke	y	n/a
392.507	0.09	785014	keystroke	e	n/a
392.612	0.0905	785224	keystroke	m	n/a
393.077	0.075	786154	keystroke	Key.backspace	n/a
393.212	0.09	786424	keystroke	Key.backspace	n/a
393.4525	0.0895	786905	keystroke	m	n/a
393.587	0.12	787174	keystroke	e	n/a
393.722	0.075	787444	keystroke	n	n/a
393.812	0.1205	787624	keystroke	t	n/a
394.247	0.105	788494	keystroke	Key.enter	n/a
394.3585	9.94	788717	prompt	n/a	want resorts cosmetics newer\n
395.222	0.0745	790444	keystroke	w	n/a
395.4165	0.06	790833	keystroke	n	n/a
395.432	0.0745	790864	keystroke	a	n/a
395.912	0.03	791824	keystroke	Key.backspace	n/a
396.017	0.09	792034	keystroke	Key.backspace	n/a
396.122	0.105	792244	keystroke	a	n/a
396.3025	0.0595	792605	keystroke	m	n/a
396.407	0.105	792814	keystroke	t	n/a
396.8865	0.0455	793773	keystroke	Key.backspace	n/a
397.007	0.09	794014	keystroke	Key.backspace	n/a
397.262	0.0895	794524	keystroke	n	n/a
397.3965	0.105	794793	keystroke	t	n/a
397.532	0.09	795064	keystroke	Key.space	n/a
397.997	0.1645	795994	keystroke	r	n/a
398.117	0.1055	796234	keystroke	e	n/a
398.3565	0.0905	796713	keystroke	s	n/a
398.5065	0.121	797013	keystroke	o	n/a
398.6565	0.106	797313	keystroke	r	n/a
399.0925	0.1045	798185	keystroke	t	n/a
399.3025	0.135	798605	keystroke	s	n/a
399.4065	0.105	798813	keystroke	Key.space	n/a
399.7365	0.075	799473	keystroke	s	n/a
400.0365	0.0755	800073	keystroke	Key.backspace	n/a
400.157	0.12	800314	keystroke	c	n/a
400.427	0.0755	800854	keystroke	s	n/a
400.6815	0.09	801363	keystroke	Key.backspace	n/a
400.8925	0.09	801785	keystroke	o	n/a
401.0125	0.1345	802025	keystroke	s	n/a
401.5215	0.091	803043	keystroke	m	n/a
401.6565	0.105	803313	keystroke	e	n/a
401.8515	0.076	803703	keystroke	t	n/a
401.9425	0.09	803885	keystroke	i	n/a
402.1365	0.1055	804273	keystroke	c	n/a
402.317	0.165	804634	keystroke	s	n/a
402.467	0.105	804934	keystroke	Key.space	n/a
403.052	0.09	806104	keystroke	n	n/a
403.172	0.1955	806344	keystroke	e	n/a
403.352	0.226	806704	keystroke	w	n/a
403.547	0.12	807094	keystroke	e	n/a
403.7425	0.1195	807485	keystroke	r	n/a
404.1915	0.105	808383	keystroke	Key.enter	n/a
404.304	8.83	808608	prompt	n/a	berlin blackjack ingredients using\n
405.092	0.105	810184	keystroke	b	n/a
405.3325	0.1645	810665	keystroke	e	n/a
405.527	0.06	811054	keystroke	l	n/a
405.872	0.06	811744	keystroke	Key.backspace	n/a
405.962	0.105	811924	keystroke	r	n/a
406.082	0.0905	812164	keystroke	l	n/a
406.322	0.0895	812644	keystroke	i	n/a
406.6065	0.0455	813213	keystroke	n	n/a
406.666	0.1205	813332	keystroke	Key.space	n/a
407.387	0.0605	814774	keystroke	b	n/a
407.5665	0.12	815133	keystroke	l	n/a
407.6725	0.1195	815345	keystroke	a	n/a
407.852	0.1045	815704	keystroke	c	n/a
407.8665	0.1355	815733	keystroke	k	n/a
408.392	0.1045	816784	keystroke	j	n/a
408.5715	0.12	817143	keystroke	a	n/a
408.7365	0.1355	817473	keystroke	c	n/a
408.8275	0.0745	817655	keystroke	k	n/a
409.3065	0.105	818613	keystroke	Key.space	n/a
409.5165	0.075	819033	keystroke	i	n/a
409.6675	0.105	819335	keystroke	n	n/a
409.9665	0.1505	819933	keystroke	g	n/a
410.1925	0.21	820385	keystroke	r	n/a
410.372	0.1505	820744	keystroke	e	n/a
410.6425	0.1045	821285	keystroke	d	n/a
410.7315	0.09	821463	keystroke	i	n/a
411.137	0.09	822274	keystroke	e	n/a
411.242	0.105	822484	keystroke	n	n/a
411.362	0.105	822724	keystroke	t	n/a
411.632	0.135	823264	keystroke	s	n/a
412.0815	0.105	824163	keystroke	Key.space	n/a
412.322	0.0745	824644	keystroke	u	n/a
412.4575	0.135	824915	keystroke	s	n/a
412.5775	0.074	825155	keystroke	i	n/a
412.7265	0.105	825453	keystroke	n	n/a
412.8325	0.104	825665	keystroke	g	n/a
413.0115	0.12	826023	keystroke	Key.enter	n/a
413.1385	13.87	826277	prompt	n/a	tile simplified elizabeth guyana\n
413.9265	0.1055	827853	keystroke	t	n/a
414.0165	0.0755	828033	keystroke	i	n/a
414.197	0.105	828394	keystroke	l	n/a
414.287	0.135	828574	keystroke	e	n/a
414.407	0.0895	828814	keystroke	Key.space	n/a
414.647	0.105	829294	keystroke	s	n/a
414.692	0.09	829384	keystroke	i	n/a
414.9025	0.0745	829805	keystroke	m	n/a
415.082	0.0905	830164	keystroke	p	n/a
415.232	0.09	830464	keystroke	l	n/a
415.427	0.105	830854	keystroke	i	n/a
415.547	0.24	831094	keystroke	e	n/a
416.1465	0.0745	832293	keystroke	Key.backspace	n/a
416.282	0.105	832564	keystroke	t	n/a
416.762	0.075	833524	keystroke	Key.backspace	n/a
416.882	0.09	833764	keystroke	f	n/a
417.002	0.105	834004	keystroke	i	n/a
417.587	0.1205	835174	keystroke	e	n/a
417.722	0.149	835444	keystroke	d	n/a
418.366	0.09	836732	keystroke	Key.space	n/a
418.802	0.1045	837604	keystroke	e	n/a
418.9665	0.105	837933	keystroke	l	n/a
419.2075	0.0595	838415	keystroke	i	n/a
419.3565	0.136	838713	keystroke	z	n/a
419.822	0.09	839644	keystroke	a	n/a
419.942	0.09	839884	keystroke	b	n/a
420.3325	0.074	840665	keystroke	e	n/a
420.5565	0.1055	841113	keystroke	t	n/a
420.707	0.0905	841414	keystroke	h	n/a
420.842	0.1645	841684	keystroke	e	n/a
421.3365	0.06	842673	keystroke	Key.backspace	n/a
421.5315	0.1205	843063	keystroke	Key.space	n/a
424.9985	0.029	849997	keystroke	g	n/a
425.327	0.09	850654	keystroke	u	n/a
425.567	0.0905	851134	keystroke	y	n/a
425.702	0.12	851404	keystroke	a	n/a
425.867	0.1055	851734	keystroke	n	n/a
425.9875	0.105	851975	keystroke	a	n/a
426.9625	0.044	853925	keystroke	Key.enter	n/a
427.014	11.9945	854028	prompt	n/a	counseling requirements prospects garage\n
427.907	0.1045	855814	keystroke	c	n/a
428.0265	0.0755	856053	keystroke	o	n/a
428.2515	0.06	856503	keystroke	u	n/a
428.3865	0.105	856773	keystroke	n	n/a
429.4215	0.121	858843	keystroke	s	n/a
429.5575	0.134	859115	keystroke	e	n/a
429.662	0.09	859324	keystroke	l	n/a
429.8575	0.075	859715	keystroke	i	n/a
430.0365	0.106	860073	keystroke	n	n/a
430.1125	0.1045	860225	keystroke	g	n/a
430.232	0.09	860464	keystroke	Key.space	n/a
430.9215	0.195	861843	keystroke	r	n/a
431.0575	0.134	862115	keystroke	e	n/a
431.342	0.1345	862684	keystroke	q	n/a
431.4025	0.089	862805	keystroke	u	n/a
431.5815	0.105	863163	keystroke	i	n/a
431.642	0.18	863284	keystroke	r	n/a
431.8065	0.135	863613	keystroke	e	n/a
431.897	0.105	863794	keystroke	m	n/a
432.107	0.12	864214	keystroke	e	n/a
432.242	0.09	864484	keystroke	n	n/a
432.317	0.09	864634	keystroke	t	n/a
432.692	0.12	865384	keystroke	s	n/a
432.797	0.12	865594	keystroke	Key.space	n/a
433.4415	0.105	866883	keystroke	p	n/a
433.8165	0.09	867633	keystroke	r	n/a
434.0415	0.1055	868083	keystroke	o	n/a
434.192	0.09	868384	keystroke	s	n/a
434.522	0.1045	869044	keystroke	p	n/a
434.6875	0.0745	869375	keystroke	e	n/a
434.9125	0.0895	869825	keystroke	c	n/a
435.152	0.09	870304	keystroke	t	n/a
435.407	0.105	870814	keystroke	s	n/a
435.527	0.105	871054	keystroke	Key.space	n/a
436.7125	0.1045	873425	keystroke	g	n/a
437.567	0.09	875134	keystroke	a	n/a
437.747	0.105	875494	keystroke	r	n/a
437.957	0.1355	875914	keystroke	a	n/a
438.047	0.1195	876094	keystroke	g	n/a
438.182	0.119	876364	keystroke	e	n/a
438.917	0.09	877834	keystroke	Key.enter	n/a
439.019	7.7895	878038	prompt	n/a	elite danger causes bedding\n
439.637	0.105	879274	keystroke	e	n/a
439.8915	0.09	879783	keystroke	l	n/a
440.1015	0.0755	880203	keystroke	i	n/a
440.312	0.135	880624	keystroke	e	n/a
440.462	0.165	880924	keystroke	t	n/a
440.597	0.12	881194	keystroke	Key.space	n/a
441.002	0.06	882004	keystroke	Key.backspace	n/a
441.137	0.0595	882274	keystroke	Key.backspace	n/a
441.257	0.09	882514	keystroke	Key.backspace	n/a
441.332	0.12	882664	keystroke	t	n/a
441.4965	0.1505	882993	keystroke	e	n/a
441.6015	0.09	883203	keystroke	Key.space	n/a
442.292	0.12	884584	keystroke	d	n/a
442.442	0.135	884884	keystroke	a	n/a
442.562	0.105	885124	keystroke	n	n/a
442.952	0.105	885904	keystroke	g	n/a
443.102	0.18	886204	keystroke	e	n/a
443.2375	0.1795	886475	keystroke	r	n/a
443.387	0.105	886774	keystroke	Key.space	n/a
443.988	0.089	887976	keystroke	c	n/a
444.182	0.1055	888364	keystroke	a	n/a
444.3025	0.09	888605	keystroke	u	n/a
444.4515	0.165	888903	keystroke	s	n/a
444.6015	0.15	889203	keystroke	e	n/a
444.737	0.1795	889474	keystroke	s	n/a
444.8265	0.18	889653	keystroke	Key.space	n/a
445.2465	0.075	890493	keystroke	b	n/a
445.427	0.1345	890854	keystroke	e	n/a
445.5315	0.165	891063	keystroke	d	n/a
445.8165	0.0905	891633	keystroke	d	n/a
445.9225	0.075	891845	keystroke	i	n/a
446.086	0.106	892172	keystroke	n	n/a
446.162	0.09	892324	keystroke	g	n/a
446.702	0.1045	893404	keystroke	Key.enter	n/a
446.8215	11.162	893643	prompt	n/a	earnings just behalf love\n
447.3765	0.075	894753	keystroke	e	n/a
447.5875	0.089	895175	keystroke	a	n/a
447.7375	0.1345	895475	keystroke	r	n/a
447.8565	0.075	895713	keystroke	i	n/a
447.9915	0.15	895983	keystroke	n	n/a
448.157	0.06	896314	keystroke	g	n/a
448.3825	0.12	896765	keystroke	s	n/a
448.4115	0.15	896823	keystroke	Key.space	n/a
449.312	0.0905	898624	keystroke	h	n/a
449.822	0.105	899644	keystroke	Key.backspace	n/a
450.587	0.0445	901174	keystroke	Key.backspace	n/a
450.7065	0.0755	901413	keystroke	Key.backspace	n/a
450.8565	0.03	901713	keystroke	Key.backspace	n/a
450.977	0.045	901954	keystroke	Key.backspace	n/a
451.112	0.06	902224	keystroke	Key.backspace	n/a
451.532	0.075	903064	keystroke	j	n/a
452.2975	0.0745	904595	keystroke	Key.backspace	n/a
452.5675	0.075	905135	keystroke	n	n/a
452.7165	0.076	905433	keystroke	i	n/a
452.8515	0.135	905703	keystroke	n	n/a
452.9565	0.0905	905913	keystroke	g	n/a
453.242	0.1355	906484	keystroke	s	n/a
453.407	0.105	906814	keystroke	Key.space	n/a
453.857	0.09	907714	keystroke	j	n/a
454.052	0.105	908104	keystroke	u	n/a
454.127	0.09	908254	keystroke	s	n/a
454.277	0.12	908554	keystroke	t	n/a
454.367	0.09	908734	keystroke	Key.space	n/a
454.577	0.09	909154	keystroke	b	n/a
454.697	0.0895	909394	keystroke	e	n/a
454.9525	0.075	909905	keystroke	h	n/a
455.2965	0.12	910593	keystroke	a	n/a
455.402	0.1045	910804	keystroke	l	n/a
455.537	0.12	911074	keystroke	f	n/a
455.6575	0.119	911315	keystroke	Key.space	n/a
457.142	0.15	914284	keystroke	l	n/a
457.397	0.075	914794	keystroke	o	n/a
457.457	0.135	914914	keystroke	v	n/a
457.607	0.15	915214	keystroke	e	n/a
457.8765	0.105	915753	keystroke	Key.enter	n/a
457.99	10.8535	915980	prompt	n/a	chelsea survival curriculum surprise\n
458.7475	0.12	917495	keystroke	c	n/a
458.8525	0.104	917705	keystroke	h	n/a
458.9865	0.135	917973	keystroke	e	n/a
459.782	0.105	919564	keystroke	l	n/a
460.022	0.1205	920044	keystroke	s	n/a
460.157	0.135	920314	keystroke	e	n/a
460.337	0.15	920674	keystroke	a	n/a
460.471	0.091	920942	keystroke	Key.space	n/a
461.0875	0.105	922175	keystroke	s	n/a
461.162	0.075	922324	keystroke	u	n/a
461.4465	0.076	922893	keystroke	r	n/a
462.197	0.0895	924394	keystroke	v	n/a
462.3315	0.09	924663	keystroke	i	n/a
463.4575	0.105	926915	keystroke	v	n/a
463.6815	0.121	927363	keystroke	a	n/a
463.7715	0.076	927543	keystroke	l	n/a
463.8915	0.12	927783	keystroke	Key.space	n/a
464.5225	0.044	929045	keystroke	u	n/a
464.837	0.09	929674	keystroke	Key.backspace	n/a
464.972	0.12	929944	keystroke	c	n/a
465.1365	0.09	930273	keystroke	u	n/a
465.302	0.0755	930604	keystroke	r	n/a
465.4665	0.0755	930933	keystroke	r	n/a
465.6015	0.1055	931203	keystroke	i	n/a
466.0375	0.119	932075	keystroke	c	n/a
466.1115	0.0905	932223	keystroke	u	n/a
466.3375	0.104	932675	keystroke	l	n/a
466.652	0.0745	933304	keystroke	u	n/a
466.8475	0.1195	933695	keystroke	m	n/a
466.9815	0.1055	933963	keystroke	Key.space	n/a
467.267	0.1045	934534	keystroke	s	n/a
467.3865	0.0905	934773	keystroke	u	n/a
467.4925	0.1195	934985	keystroke	r	n/a
467.687	0.075	935374	keystroke	p	n/a
468.1075	0.119	936215	keystroke	r	n/a
468.302	0.1045	936604	keystroke	i	n/a
468.437	0.1345	936874	keystroke	s	n/a
468.557	0.1345	937114	keystroke	e	n/a
468.7065	0.135	937413	keystroke	Key.enter	n/a
468.85	9.594	937700	prompt	n/a	exclusively ever representative leone\n
469.4725	0.0895	938945	keystroke	e	n/a
469.712	0.12	939424	keystroke	x	n/a
470.117	0.1195	940234	keystroke	c	n/a
470.2225	0.074	940445	keystroke	l	n/a
470.4615	0.076	940923	keystroke	u	n/a
470.5965	0.121	941193	keystroke	s	n/a
470.792	0.1055	941584	keystroke	i	n/a
470.9425	0.1045	941885	keystroke	v	n/a
471.091	0.12	942182	keystroke	e	n/a
471.4065	0.12	942813	keystroke	l	n/a
471.5425	0.1195	943085	keystroke	y	n/a
471.6165	0.1355	943233	keystroke	Key.space	n/a
471.8865	0.09	943773	keystroke	e	n/a
472.2925	0.165	944585	keystroke	v	n/a
472.5015	0.225	945003	keystroke	e	n/a
472.6375	0.164	945275	keystroke	r	n/a
472.982	0.075	945964	keystroke	Key.space	n/a
473.162	0.1955	946324	keystroke	r	n/a
473.297	0.135	946594	keystroke	e	n/a
473.371	0.0755	946742	keystroke	p	n/a
473.792	0.225	947584	keystroke	r	n/a
473.957	0.1345	947914	keystroke	e	n/a
474.257	0.1345	948514	keystroke	s	n/a
474.377	0.1045	948754	keystroke	e	n/a
474.4965	0.09	948993	keystroke	n	n/a
474.6165	0.1205	949233	keystroke	t	n/a
474.9325	0.1195	949865	keystroke	a	n/a
475.187	0.1205	950374	keystroke	t	n/a
475.4725	0.1345	950945	keystroke	v	n/a
475.877	0.045	951754	keystroke	Key.backspace	n/a
476.042	0.0905	952084	keystroke	i	n/a
476.117	0.135	952234	keystroke	v	n/a
476.238	0.134	952476	keystroke	e	n/a
476.342	0.09	952684	keystroke	Key.space	n/a
476.8825	0.089	953765	keystroke	l	n/a
477.0015	0.105	954003	keystroke	e	n/a
477.4225	0.059	954845	keystroke	o	n/a
477.8715	0.061	955743	keystroke	n	n/a
477.9615	0.121	955923	keystroke	e	n/a
478.322	0.1195	956644	keystroke	Key.enter	n/a
478.451	14.993	956902	prompt	n/a	mysterious thick ethiopia contacts\n
479.087	0.074	958174	keystroke	m	n/a
479.3715	0.09	958743	keystroke	y	n/a
479.477	0.089	958954	keystroke	s	n/a
479.6415	0.135	959283	keystroke	t	n/a
479.852	0.1195	959704	keystroke	e	n/a
479.9115	0.15	959823	keystroke	r	n/a
480.0775	0.0745	960155	keystroke	i	n/a
480.2575	0.0895	960515	keystroke	o	n/a
480.4525	0.1045	960905	keystroke	u	n/a
480.572	0.135	961144	keystroke	s	n/a
480.6915	0.1055	961383	keystroke	Key.space	n/a
480.916	0.121	961832	keystroke	t	n/a
481.0525	0.0735	962105	keystroke	h	n/a
481.352	0.0755	962704	keystroke	i	n/a
481.502	0.075	963004	keystroke	c	n/a
481.592	0.09	963184	keystroke	j	n/a
482.1015	0.0605	964203	keystroke	Key.backspace	n/a
482.447	0.075	964894	keystroke	Key.space	n/a
482.762	0.0595	965524	keystroke	Key.backspace	n/a
482.9565	0.106	965913	keystroke	k	n/a
483.122	0.09	966244	keystroke	Key.space	n/a
483.452	0.09	966904	keystroke	t	n/a
484.052	0.075	968104	keystroke	e	n/a
484.1425	0.0895	968285	keystroke	Key.backspace	n/a
484.307	0.09	968614	keystroke	Key.backspace	n/a
484.517	0.075	969034	keystroke	e	n/a
484.652	0.09	969304	keystroke	h	n/a
484.832	0.09	969664	keystroke	t	n/a
484.997	0.075	969994	keystroke	i	n/a
485.5665	0.0455	971133	keystroke	Key.backspace	n/a
485.7015	0.075	971403	keystroke	Key.backspace	n/a
485.8515	0.075	971703	keystroke	Key.backspace	n/a
486.0765	0.105	972153	keystroke	t	n/a
486.2565	0.09	972513	keystroke	h	n/a
486.692	0.09	973384	keystroke	i	n/a
486.9465	0.0905	973893	keystroke	o	n/a
488.4025	0.105	976805	keystroke	p	n/a
488.6565	0.0755	977313	keystroke	i	n/a
488.7915	0.106	977583	keystroke	a	n/a
488.8665	0.12	977733	keystroke	Key.space	n/a
489.0475	0.1045	978095	keystroke	c	n/a
489.166	0.0755	978332	keystroke	o	n/a
489.377	0.075	978754	keystroke	n	n/a
489.467	0.09	978934	keystroke	t	n/a
489.677	0.1205	979354	keystroke	a	n/a
489.842	0.12	979684	keystroke	c	n/a
490.052	0.0905	980104	keystroke	t	n/a
492.8595	0.0425	985719	keystroke	s	n/a
493.382	0.06	986764	keystroke	Key.enter	n/a
493.465	7.239	986930	prompt	n/a	yacht bargains item mario\n
495.0025	0.0745	990005	keystroke	y	n/a
495.0925	0.0895	990185	keystroke	a	n/a
495.257	0.105	990514	keystroke	c	n/a
495.962	0.0905	991924	keystroke	h	n/a
496.2165	0.1205	992433	keystroke	t	n/a
496.3215	0.1205	992643	keystroke	Key.space	n/a
496.6375	0.104	993275	keystroke	b	n/a
496.757	0.1045	993514	keystroke	a	n/a
497.0875	0.1045	994175	keystroke	r	n/a
497.3415	0.106	994683	keystroke	g	n/a
497.6115	0.105	995223	keystroke	a	n/a
497.7015	0.06	995403	keystroke	i	n/a
497.8515	0.105	995703	keystroke	n	n/a
498.362	0.0895	996724	keystroke	s	n/a
498.4665	0.105	996933	keystroke	Key.space	n/a
498.647	0.0895	997294	keystroke	i	n/a
498.812	0.105	997624	keystroke	t	n/a
499.022	0.1205	998044	keystroke	e	n/a
499.0975	0.09	998195	keystroke	m	n/a
499.2165	0.105	998433	keystroke	Key.space	n/a
499.4275	0.089	998855	keystroke	m	n/a
499.5315	0.105	999063	keystroke	a	n/a
499.7125	0.104	999425	keystroke	r	n/a
499.8015	0.09	999603	keystroke	i	n/a
499.9825	0.089	999965	keystroke	o	n/a
500.5965	0.105	1001193	keystroke	Key.enter	n/a
500.7175	7.9655	1001435	prompt	n/a	mechanics mustang anyway pete\n
501.617	0.074	1003234	keystroke	m	n/a
501.7675	0.06	1003535	keystroke	e	n/a
501.991	0.0915	1003982	keystroke	c	n/a
502.1865	0.09	1004373	keystroke	h	n/a
502.3365	0.075	1004673	keystroke	a	n/a
502.4575	0.104	1004915	keystroke	n	n/a
502.6365	0.09	1005273	keystroke	i	n/a
502.7565	0.12	1005513	keystroke	c	n/a
502.8915	0.151	1005783	keystroke	s	n/a
502.982	0.1345	1005964	keystroke	Key.space	n/a
503.6265	0.09	1007253	keystroke	m	n/a
504.002	0.09	1008004	keystroke	u	n/a
504.1075	0.1345	1008215	keystroke	s	n/a
504.3165	0.091	1008633	keystroke	t	n/a
504.5725	0.104	1009145	keystroke	a	n/a
504.6325	0.104	1009265	keystroke	n	n/a
504.8575	0.105	1009715	keystroke	g	n/a
504.9765	0.12	1009953	keystroke	Key.space	n/a
505.2765	0.136	1010553	keystroke	a	n/a
505.3375	0.089	1010675	keystroke	n	n/a
505.5315	0.0905	1011063	keystroke	y	n/a
506.0425	0.0895	1012085	keystroke	w	n/a
506.207	0.1355	1012414	keystroke	a	n/a
506.297	0.1205	1012594	keystroke	y	n/a
506.447	0.0895	1012894	keystroke	Key.space	n/a
506.7315	0.091	1013463	keystroke	p	n/a
506.8365	0.09	1013673	keystroke	e	n/a
507.7365	0.135	1015473	keystroke	t	n/a
507.9915	0.105	1015983	keystroke	e	n/a
508.5915	0.0905	1017183	keystroke	Key.enter	n/a
508.687	6.4465	1017374	prompt	n/a	tight highlights cost bradley\n
509.492	0.12	1018984	keystroke	t	n/a
509.627	0.09	1019254	keystroke	i	n/a
509.882	0.105	1019764	keystroke	g	n/a
510.092	0.105	1020184	keystroke	h	n/a
510.182	0.135	1020364	keystroke	t	n/a
510.257	0.135	1020514	keystroke	Key.space	n/a
510.7825	0.0745	1021565	keystroke	h	n/a
510.902	0.12	1021804	keystroke	i	n/a
511.037	0.135	1022074	keystroke	g	n/a
511.142	0.1055	1022284	keystroke	h	n/a
511.5165	0.0755	1023033	keystroke	l	n/a
511.7565	0.091	1023513	keystroke	i	n/a
511.9965	0.075	1023993	keystroke	g	n/a
512.1615	0.12	1024323	keystroke	h	n/a
512.2675	0.089	1024535	keystroke	t	n/a
512.477	0.1355	1024954	keystroke	s	n/a
512.582	0.104	1025164	keystroke	Key.space	n/a
512.777	0.09	1025554	keystroke	c	n/a
512.822	0.1045	1025644	keystroke	o	n/a
513.046	0.091	1026092	keystroke	s	n/a
513.227	0.105	1026454	keystroke	t	n/a
513.347	0.09	1026694	keystroke	Key.space	n/a
513.572	0.105	1027144	keystroke	b	n/a
513.752	0.1045	1027504	keystroke	r	n/a
513.9915	0.135	1027983	keystroke	a	n/a
514.112	0.135	1028224	keystroke	d	n/a
514.382	0.09	1028764	keystroke	l	n/a
514.487	0.105	1028974	keystroke	e	n/a
514.652	0.045	1029304	keystroke	y	n/a
515.027	0.105	1030054	keystroke	Key.enter	n/a
515.139	15.654	1030278	prompt	n/a	successfully berry village floppy\n
515.7325	0.1045	1031465	keystroke	c	n/a
516.092	0.089	1032184	keystroke	Key.backspace	n/a
516.2415	0.106	1032483	keystroke	s	n/a
516.376	0.091	1032752	keystroke	u	n/a
516.512	0.075	1033024	keystroke	c	n/a
516.662	0.1205	1033324	keystroke	c	n/a
516.9015	0.0755	1033803	keystroke	e	n/a
517.097	0.075	1034194	keystroke	s	n/a
517.382	0.1045	1034764	keystroke	s	n/a
517.652	0.0895	1035304	keystroke	f	n/a
517.7865	0.075	1035573	keystroke	u	n/a
518.1925	0.059	1036385	keystroke	l	n/a
518.3415	0.09	1036683	keystroke	l	n/a
518.4475	0.119	1036895	keystroke	y	n/a
518.5815	0.106	1037163	keystroke	Key.space	n/a
519.1675	0.074	1038335	keystroke	b	n/a
519.2565	0.076	1038513	keystroke	e	n/a
519.4825	0.089	1038965	keystroke	t	n/a
519.6315	0.12	1039263	keystroke	t	n/a
520.0365	0.075	1040073	keystroke	Key.backspace	n/a
520.172	0.1045	1040344	keystroke	Key.backspace	n/a
520.261	0.0905	1040522	keystroke	r	n/a
520.426	0.1215	1040852	keystroke	r	n/a
520.802	0.12	1041604	keystroke	y	n/a
520.937	0.104	1041874	keystroke	Key.space	n/a
521.267	0.12	1042534	keystroke	v	n/a
521.462	0.075	1042924	keystroke	i	n/a
521.7465	0.0905	1043493	keystroke	l	n/a
521.912	0.075	1043824	keystroke	l	n/a
522.031	0.09	1044062	keystroke	a	n/a
522.347	0.105	1044694	keystroke	g	n/a
522.467	0.09	1044934	keystroke	e	n/a
522.542	0.06	1045084	keystroke	Key.space	n/a
522.752	0.075	1045504	keystroke	f	n/a
522.872	0.0895	1045744	keystroke	l	n/a
523.1125	0.1045	1046225	keystroke	i	n/a
523.3525	0.074	1046705	keystroke	o	n/a
523.5025	0.104	1047005	keystroke	o	n/a
523.7865	0.046	1047573	keystroke	y	n/a
524.1165	0.06	1048233	keystroke	Key.backspace	n/a
524.3265	0.015	1048653	keystroke	Key.backspace	n/a
524.4015	0.076	1048803	keystroke	Key.backspace	n/a
524.5365	0.091	1049073	keystroke	Key.backspace	n/a
524.882	0.075	1049764	keystroke	Key.backspace	n/a
525.5875	0.0895	1051175	keystroke	l	n/a
525.977	0.0605	1051954	keystroke	o	n/a
526.112	0.075	1052224	keystroke	o	n/a
526.411	0.06	1052822	keystroke	Key.backspace	n/a
526.5925	0.0735	1053185	keystroke	p	n/a
526.727	0.06	1053454	keystroke	p	n/a
526.982	0.075	1053964	keystroke	y	n/a
530.779	0.013	1061558	keystroke	Key.enter	n/a
530.7965	9.8675	1061593	prompt	n/a	collectables extent sudden infected\n
531.587	0.12	1063174	keystroke	c	n/a
531.722	0.0605	1063444	keystroke	o	n/a
531.902	0.09	1063804	keystroke	l	n/a
532.0375	0.0595	1064075	keystroke	l	n/a
532.112	0.135	1064224	keystroke	e	n/a
532.2925	0.089	1064585	keystroke	c	n/a
532.502	0.0895	1065004	keystroke	t	n/a
532.7415	0.1205	1065483	keystroke	a	n/a
533.2225	0.074	1066445	keystroke	v	n/a
533.7165	0.075	1067433	keystroke	Key.backspace	n/a
534.0625	0.074	1068125	keystroke	b	n/a
534.272	0.105	1068544	keystroke	l	n/a
534.497	0.105	1068994	keystroke	e	n/a
534.722	0.1045	1069444	keystroke	s	n/a
534.797	0.12	1069594	keystroke	Key.space	n/a
535.052	0.105	1070104	keystroke	e	n/a
535.292	0.1045	1070584	keystroke	x	n/a
535.5925	0.119	1071185	keystroke	t	n/a
536.117	0.0745	1072234	keystroke	e	n/a
536.2365	0.076	1072473	keystroke	n	n/a
536.3265	0.121	1072653	keystroke	t	n/a
536.5065	0.106	1073013	keystroke	Key.space	n/a
537.137	0.12	1074274	keystroke	s	n/a
537.2415	0.06	1074483	keystroke	u	n/a
537.7365	0.076	1075473	keystroke	d	n/a
537.9015	0.12	1075803	keystroke	d	n/a
538.0375	0.089	1076075	keystroke	e	n/a
538.1275	0.1205	1076255	keystroke	n	n/a
538.292	0.075	1076584	keystroke	Key.space	n/a
538.442	0.075	1076884	keystroke	i	n/a
538.592	0.105	1077184	keystroke	n	n/a
539.222	0.12	1078444	keystroke	f	n/a
539.402	0.12	1078804	keystroke	e	n/a
539.5975	0.1495	1079195	keystroke	c	n/a
539.822	0.12	1079644	keystroke	t	n/a
540.047	0.1195	1080094	keystroke	e	n/a
540.137	0.165	1080274	keystroke	d	n/a
540.572	0.09	1081144	keystroke	Key.enter	n/a
540.671	9.5175	1081342	prompt	n/a	submit foot charms developing\n
541.382	0.1205	1082764	keystroke	s	n/a
541.457	0.06	1082914	keystroke	u	n/a
541.667	0.09	1083334	keystroke	b	n/a
542.687	0.1205	1085374	keystroke	m	n/a
542.8825	0.0895	1085765	keystroke	i	n/a
542.987	0.105	1085974	keystroke	t	n/a
543.092	0.135	1086184	keystroke	Key.space	n/a
543.482	0.09	1086964	keystroke	f	n/a
543.587	0.0605	1087174	keystroke	o	n/a
543.7215	0.091	1087443	keystroke	o	n/a
543.842	0.1045	1087684	keystroke	t	n/a
543.962	0.105	1087924	keystroke	Key.space	n/a
544.142	0.0895	1088284	keystroke	c	n/a
544.2475	0.089	1088495	keystroke	h	n/a
544.3815	0.0905	1088763	keystroke	a	n/a
544.5475	0.104	1089095	keystroke	r	n/a
544.6525	0.0895	1089305	keystroke	m	n/a
544.7725	0.134	1089545	keystroke	s	n/a
544.8915	0.1355	1089783	keystroke	Key.space	n/a
545.477	0.165	1090954	keystroke	d	n/a
545.657	0.09	1091314	keystroke	e	n/a
545.837	0.135	1091674	keystroke	v	n/a
545.9875	0.119	1091975	keystroke	e	n/a
546.0775	0.0895	1092155	keystroke	l	n/a
546.4525	0.089	1092905	keystroke	o	n/a
546.647	0.1045	1093294	keystroke	p	n/a
546.902	0.106	1093804	keystroke	e	n/a
546.977	0.105	1093954	keystroke	m	n/a
547.2025	0.074	1094405	keystroke	t	n/a
547.637	0.0595	1095274	keystroke	Key.backspace	n/a
547.7715	0.0905	1095543	keystroke	Key.backspace	n/a
548.0725	0.1045	1096145	keystroke	i	n/a
548.402	0.06	1096804	keystroke	Key.backspace	n/a
548.522	0.075	1097044	keystroke	Key.backspace	n/a
548.762	0.09	1097524	keystroke	i	n/a
549.017	0.09	1098034	keystroke	g	n/a
549.4215	0.075	1098843	keystroke	Key.backspace	n/a
549.677	0.0745	1099354	keystroke	n	n/a
549.7665	0.12	1099533	keystroke	g	n/a
550.082	0.1045	1100164	keystroke	Key.enter	n/a
550.1935	8.395	1100387	prompt	n/a	farmers funk specifications airports\n
550.9675	0.089	1101935	keystroke	f	n/a
551.1615	0.0905	1102323	keystroke	a	n/a
551.3115	0.1055	1102623	keystroke	r	n/a
551.387	0.09	1102774	keystroke	m	n/a
551.537	0.165	1103074	keystroke	e	n/a
551.657	0.1345	1103314	keystroke	r	n/a
551.882	0.1195	1103764	keystroke	s	n/a
551.972	0.1195	1103944	keystroke	Key.space	n/a
552.212	0.12	1104424	keystroke	f	n/a
552.317	0.075	1104634	keystroke	u	n/a
552.527	0.09	1105054	keystroke	n	n/a
552.738	0.014	1105476	keystroke	n	n/a
553.097	0.0595	1106194	keystroke	Key.backspace	n/a
553.292	0.1045	1106584	keystroke	k	n/a
553.472	0.0745	1106944	keystroke	Key.space	n/a
553.637	0.1205	1107274	keystroke	s	n/a
553.727	0.0905	1107454	keystroke	p	n/a
553.8765	0.09	1107753	keystroke	e	n/a
554.147	0.075	1108294	keystroke	c	n/a
554.207	0.105	1108414	keystroke	i	n/a
554.6575	0.089	1109315	keystroke	f	n/a
554.807	0.0895	1109614	keystroke	i	n/a
554.9715	0.0905	1109943	keystroke	c	n/a
555.1365	0.12	1110273	keystroke	a	n/a
555.3615	0.0755	1110723	keystroke	t	n/a
555.482	0.0895	1110964	keystroke	i	n/a
555.632	0.09	1111264	keystroke	o	n/a
555.827	0.09	1111654	keystroke	n	n/a
555.9465	0.1205	1111893	keystroke	s	n/a
556.111	0.0755	1112222	keystroke	Key.space	n/a
556.4565	0.075	1112913	keystroke	a	n/a
556.5615	0.076	1113123	keystroke	i	n/a
556.6675	0.1045	1113335	keystroke	r	n/a
556.891	0.061	1113782	keystroke	p	n/a
557.087	0.06	1114174	keystroke	o	n/a
557.222	0.09	1114444	keystroke	r	n/a
557.432	0.0755	1114864	keystroke	t	n/a
558.032	0.1195	1116064	keystroke	s	n/a
558.512	0.0745	1117024	keystroke	Key.enter	n/a
558.594	7.1945	1117188	prompt	n/a	silly confusion peers ronald\n
559.2325	0.0895	1118465	keystroke	s	n/a
559.291	0.0755	1118582	keystroke	i	n/a
559.502	0.059	1119004	keystroke	l	n/a
559.6665	0.06	1119333	keystroke	l	n/a
559.862	0.074	1119724	keystroke	i	n/a
560.311	0.0905	1120622	keystroke	Key.backspace	n/a
560.581	0.0905	1121162	keystroke	y	n/a
560.7015	0.12	1121403	keystroke	Key.space	n/a
560.926	0.12	1121852	keystroke	c	n/a
561.0015	0.075	1122003	keystroke	o	n/a
561.182	0.0905	1122364	keystroke	n	n/a
561.287	0.12	1122574	keystroke	f	n/a
561.467	0.075	1122934	keystroke	u	n/a
561.662	0.105	1123324	keystroke	s	n/a
561.992	0.075	1123984	keystroke	i	n/a
562.172	0.074	1124344	keystroke	o	n/a
562.352	0.105	1124704	keystroke	n	n/a
562.472	0.105	1124944	keystroke	Key.space	n/a
562.667	0.1205	1125334	keystroke	p	n/a
562.817	0.134	1125634	keystroke	e	n/a
563.041	0.1805	1126082	keystroke	e	n/a
563.206	0.09	1126412	keystroke	r	n/a
563.432	0.134	1126864	keystroke	s	n/a
563.551	0.105	1127102	keystroke	Key.space	n/a
563.927	0.105	1127854	keystroke	r	n/a
564.017	0.074	1128034	keystroke	o	n/a
564.452	0.075	1128904	keystroke	n	n/a
564.572	0.12	1129144	keystroke	a	n/a
564.677	0.09	1129354	keystroke	l	n/a
564.902	0.044	1129804	keystroke	d	n/a
565.682	0.1045	1131364	keystroke	Key.enter	n/a
565.793	10.2105	1131586	prompt	n/a	service turtle sharp retention\n
566.492	0.12	1132984	keystroke	s	n/a
566.687	0.1055	1133374	keystroke	e	n/a
566.8815	0.075	1133763	keystroke	r	n/a
567.1365	0.1045	1134273	keystroke	v	n/a
567.302	0.09	1134604	keystroke	i	n/a
567.452	0.09	1134904	keystroke	c	n/a
567.557	0.105	1135114	keystroke	e	n/a
567.677	0.12	1135354	keystroke	Key.space	n/a
567.917	0.09	1135834	keystroke	t	n/a
568.067	0.089	1136134	keystroke	u	n/a
568.186	0.105	1136372	keystroke	r	n/a
568.7715	0.105	1137543	keystroke	t	n/a
569.087	0.0145	1138174	keystroke	l	n/a
569.2065	0.0745	1138413	keystroke	a	n/a
569.672	0.075	1139344	keystroke	Key.backspace	n/a
569.762	0.09	1139524	keystroke	e	n/a
569.911	0.061	1139822	keystroke	Key.space	n/a
570.212	0.105	1140424	keystroke	s	n/a
570.317	0.075	1140634	keystroke	h	n/a
570.467	0.09	1140934	keystroke	a	n/a
570.647	0.105	1141294	keystroke	r	n/a
570.767	0.12	1141534	keystroke	Key.space	n/a
570.992	0.075	1141984	keystroke	t	n/a
571.306	0.076	1142612	keystroke	Key.backspace	n/a
571.397	0.165	1142794	keystroke	r	n/a
571.517	0.134	1143034	keystroke	e	n/a
571.7865	0.06	1143573	keystroke	Key.backspace	n/a
571.9365	0.06	1143873	keystroke	Key.backspace	n/a
572.0865	0.06	1144173	keystroke	Key.backspace	n/a
572.267	0.075	1144534	keystroke	p	n/a
572.506	0.136	1145012	keystroke	Key.space	n/a
572.942	0.165	1145884	keystroke	r	n/a
573.077	0.1355	1146154	keystroke	e	n/a
573.317	0.09	1146634	keystroke	t	n/a
573.467	0.105	1146934	keystroke	n	n/a
573.601	0.135	1147202	keystroke	e	n/a
574.0515	0.06	1148103	keystroke	Key.backspace	n/a
574.187	0.075	1148374	keystroke	Key.backspace	n/a
574.352	0.09	1148704	keystroke	e	n/a
574.487	0.09	1148974	keystroke	n	n/a
574.622	0.09	1149244	keystroke	t	n/a
574.757	0.06	1149514	keystroke	i	n/a
574.922	0.075	1149844	keystroke	o	n/a
575.102	0.0755	1150204	keystroke	n	n/a
575.941	0.061	1151882	keystroke	Key.enter	n/a
576.0105	8.438	1152021	prompt	n/a	premium prep garcia flower\n
576.6325	0.1045	1153265	keystroke	p	n/a
576.812	0.21	1153624	keystroke	r	n/a
576.9765	0.135	1153953	keystroke	e	n/a
577.4275	0.059	1154855	keystroke	m	n/a
577.6965	0.0605	1155393	keystroke	u	n/a
578.4015	0.06	1156803	keystroke	Key.backspace	n/a
578.777	0.075	1157554	keystroke	i	n/a
579.0465	0.06	1158093	keystroke	u	n/a
579.242	0.09	1158484	keystroke	m	n/a
579.377	0.135	1158754	keystroke	Key.space	n/a
579.662	0.09	1159324	keystroke	p	n/a
579.857	0.195	1159714	keystroke	r	n/a
580.037	0.12	1160074	keystroke	e	n/a
580.142	0.104	1160284	keystroke	p	n/a
580.3665	0.1205	1160733	keystroke	Key.space	n/a
581.417	0.09	1162834	keystroke	g	n/a
581.537	0.09	1163074	keystroke	a	n/a
581.747	0.0895	1163494	keystroke	r	n/a
582.256	0.091	1164512	keystroke	c	n/a
582.4065	0.091	1164813	keystroke	i	n/a
582.6325	0.104	1165265	keystroke	a	n/a
582.692	0.1345	1165384	keystroke	Key.space	n/a
582.977	0.1045	1165954	keystroke	f	n/a
583.0965	0.06	1166193	keystroke	l	n/a
583.277	0.0745	1166554	keystroke	o	n/a
583.6815	0.165	1167363	keystroke	w	n/a
583.8315	0.12	1167663	keystroke	e	n/a
584.0415	0.106	1168083	keystroke	r	n/a
584.327	0.12	1168654	keystroke	Key.enter	n/a
584.453	8.9955	1168906	prompt	n/a	fame specialist neighbors percent\n
585.1665	0.105	1170333	keystroke	f	n/a
585.3775	0.1195	1170755	keystroke	a	n/a
585.482	0.0905	1170964	keystroke	m	n/a
585.6475	0.09	1171295	keystroke	e	n/a
585.7665	0.12	1171533	keystroke	Key.space	n/a
586.337	0.134	1172674	keystroke	s	n/a
586.441	0.106	1172882	keystroke	p	n/a
586.6225	0.09	1173245	keystroke	e	n/a
586.907	0.075	1173814	keystroke	c	n/a
587.027	0.0905	1174054	keystroke	i	n/a
587.147	0.119	1174294	keystroke	a	n/a
587.297	0.105	1174594	keystroke	l	n/a
587.552	0.09	1175104	keystroke	i	n/a
587.7315	0.12	1175463	keystroke	s	n/a
587.9715	0.105	1175943	keystroke	t	n/a
588.0915	0.105	1176183	keystroke	Key.space	n/a
588.3765	0.0905	1176753	keystroke	n	n/a
588.5715	0.15	1177143	keystroke	e	n/a
588.7365	0.075	1177473	keystroke	i	n/a
588.947	0.0755	1177894	keystroke	g	n/a
589.112	0.0895	1178224	keystroke	h	n/a
589.742	0.0745	1179484	keystroke	b	n/a
589.9965	0.031	1179993	keystroke	i	n/a
590.4315	0.075	1180863	keystroke	Key.backspace	n/a
590.6265	0.075	1181253	keystroke	o	n/a
590.7765	0.0905	1181553	keystroke	r	n/a
591.0765	0.09	1182153	keystroke	s	n/a
591.1965	0.12	1182393	keystroke	Key.space	n/a
591.707	0.105	1183414	keystroke	p	n/a
591.8865	0.181	1183773	keystroke	e	n/a
592.0225	0.1335	1184045	keystroke	r	n/a
592.487	0.15	1184974	keystroke	c	n/a
592.711	0.1355	1185422	keystroke	e	n/a
592.8615	0.09	1185723	keystroke	n	n/a
593.0415	0.12	1186083	keystroke	t	n/a
593.3265	0.12	1186653	keystroke	Key.enter	n/a
593.453	8.1405	1186906	prompt	n/a	promotional underwear table widely\n
594.091	0.091	1188182	keystroke	p	n/a
594.2415	0.12	1188483	keystroke	r	n/a
594.3315	0.076	1188663	keystroke	o	n/a
594.5265	0.075	1189053	keystroke	m	n/a
595.0365	0.105	1190073	keystroke	o	n/a
595.1865	0.1055	1190373	keystroke	t	n/a
595.3365	0.0755	1190673	keystroke	i	n/a
595.5015	0.075	1191003	keystroke	o	n/a
595.6965	0.075	1191393	keystroke	n	n/a
595.862	0.0895	1191724	keystroke	a	n/a
595.9365	0.105	1191873	keystroke	l	n/a
596.0865	0.1505	1192173	keystroke	Key.space	n/a
596.837	0.074	1193674	keystroke	u	n/a
597.0165	0.0905	1194033	keystroke	n	n/a
597.137	0.12	1194274	keystroke	d	n/a
597.271	0.0905	1194542	keystroke	e	n/a
597.4365	0.09	1194873	keystroke	r	n/a
598.022	0.075	1196044	keystroke	w	n/a
598.2915	0.045	1196583	keystroke	e	n/a
598.502	0.1345	1197004	keystroke	a	n/a
598.7715	0.1055	1197543	keystroke	r	n/a
598.936	0.12	1197872	keystroke	Key.space	n/a
599.2815	0.1045	1198563	keystroke	t	n/a
599.612	0.014	1199224	keystroke	a	n/a
599.642	0.075	1199284	keystroke	b	n/a
599.957	0.105	1199914	keystroke	l	n/a
600.092	0.12	1200184	keystroke	e	n/a
600.242	0.12	1200484	keystroke	Key.space	n/a
600.482	0.105	1200964	keystroke	w	n/a
600.617	0.105	1201234	keystroke	i	n/a
600.737	0.165	1201474	keystroke	d	n/a
600.887	0.105	1201774	keystroke	e	n/a
601.037	0.12	1202074	keystroke	l	n/a
601.187	0.15	1202374	keystroke	y	n/a
601.472	0.1195	1202944	keystroke	Key.enter	n/a
601.598	12.985	1203196	prompt	n/a	midnight slow polyphonic nerve\n
602.267	0.0605	1204534	keystroke	n	n/a
602.627	0.105	1205254	keystroke	i	n/a
602.942	0.06	1205884	keystroke	Key.backspace	n/a
603.077	0.075	1206154	keystroke	Key.backspace	n/a
604.172	0.0745	1208344	keystroke	m	n/a
604.3665	0.09	1208733	keystroke	i	n/a
604.4865	0.075	1208973	keystroke	d	n/a
604.6365	0.0905	1209273	keystroke	n	n/a
604.8015	0.09	1209603	keystroke	i	n/a
605.0265	0.0755	1210053	keystroke	g	n/a
605.191	0.09	1210382	keystroke	h	n/a
605.297	0.105	1210594	keystroke	t	n/a
605.4025	0.0895	1210805	keystroke	Key.space	n/a
606.0015	0.06	1212003	keystroke	s	n/a
606.077	0.0755	1212154	keystroke	l	n/a
606.2715	0.0905	1212543	keystroke	o	n/a
606.3765	0.091	1212753	keystroke	w	n/a
606.437	0.1045	1212874	keystroke	Key.space	n/a
607.082	0.09	1214164	keystroke	o	n/a
607.322	0.075	1214644	keystroke	l	n/a
607.727	0.045	1215454	keystroke	Key.backspace	n/a
607.877	0.075	1215754	keystroke	Key.backspace	n/a
608.1925	0.074	1216385	keystroke	p	n/a
608.492	0.0595	1216984	keystroke	o	n/a
608.6865	0.091	1217373	keystroke	l	n/a
609.016	0.105	1218032	keystroke	y	n/a
609.317	0.06	1218634	keystroke	o	n/a
609.572	0.075	1219144	keystroke	h	n/a
609.7515	0.105	1219503	keystroke	o	n/a
610.0515	0.06	1220103	keystroke	Key.backspace	n/a
610.2165	0.0445	1220433	keystroke	Key.backspace	n/a
610.336	0.106	1220672	keystroke	Key.backspace	n/a
611.0575	0.074	1222115	keystroke	p	n/a
611.371	0.06	1222742	keystroke	h	n/a
611.522	0.09	1223044	keystroke	o	n/a
611.717	0.09	1223434	keystroke	n	n/a
611.852	0.075	1223704	keystroke	i	n/a
612.137	0.075	1224274	keystroke	c	n/a
612.722	0.104	1225444	keystroke	Key.space	n/a
613.1115	0.091	1226223	keystroke	n	n/a
613.307	0.225	1226614	keystroke	e	n/a
613.502	0.15	1227004	keystroke	r	n/a
613.787	0.195	1227574	keystroke	v	n/a
614.057	0.1495	1228114	keystroke	e	n/a
614.552	0.0295	1229104	keystroke	Key.enter	n/a
614.588	7.2255	1229176	prompt	n/a	contract happened urls dude\n
615.227	0.12	1230454	keystroke	c	n/a
615.3315	0.075	1230663	keystroke	o	n/a
615.5565	0.09	1231113	keystroke	n	n/a
615.6765	0.1055	1231353	keystroke	s	n/a
616.082	0.06	1232164	keystroke	Key.backspace	n/a
616.2165	0.105	1232433	keystroke	t	n/a
616.5015	0.06	1233003	keystroke	r	n/a
616.742	0.0745	1233484	keystroke	a	n/a
616.9515	0.135	1233903	keystroke	c	n/a
617.1615	0.09	1234323	keystroke	t	n/a
617.327	0.1045	1234654	keystroke	Key.space	n/a
617.927	0.0745	1235854	keystroke	h	n/a
618.1975	0.074	1236395	keystroke	a	n/a
618.3015	0.06	1236603	keystroke	p	n/a
618.4515	0.075	1236903	keystroke	p	n/a
618.572	0.135	1237144	keystroke	e	n/a
618.7675	0.074	1237535	keystroke	n	n/a
618.9315	0.135	1237863	keystroke	e	n/a
619.052	0.135	1238104	keystroke	d	n/a
619.1565	0.1205	1238313	keystroke	Key.space	n/a
619.8465	0.0905	1239693	keystroke	u	n/a
619.9975	0.105	1239995	keystroke	r	n/a
620.1765	0.091	1240353	keystroke	l	n/a
620.3265	0.12	1240653	keystroke	s	n/a
620.7915	0.09	1241583	keystroke	Key.space	n/a
621.1075	0.089	1242215	keystroke	d	n/a
621.2415	0.0755	1242483	keystroke	u	n/a
621.377	0.104	1242754	keystroke	d	n/a
621.497	0.1355	1242994	keystroke	e	n/a
621.692	0.1195	1243384	keystroke	Key.enter	n/a
621.8165	11.1265	1243633	prompt	n/a	moment days studio idaho\n
622.3675	0.0745	1244735	keystroke	m	n/a
622.5475	0.0895	1245095	keystroke	o	n/a
622.727	0.075	1245454	keystroke	e	n/a
622.817	0.09	1245634	keystroke	m	n/a
623.072	0.09	1246144	keystroke	n	n/a
623.402	0.045	1246804	keystroke	Key.backspace	n/a
