onset	duration	sample	value	key	prompt_text
11.878	9.803	23756	prompt	n/a	the quick brown fox jumps over a lazy dog\n
13.7905	0.012	27581	keystroke_t	t	n/a
13.8175	0.09	27635	keystroke_h	h	n/a
13.9675	0.135	27935	keystroke_e	e	n/a
14.0875	0.075	28175	keystroke_Key.space	Key.space	n/a
14.3425	0.12	28685	keystroke_q	q	n/a
14.4925	0.135	28985	keystroke_u	u	n/a
14.5825	0.165	29165	keystroke_i	i	n/a
14.7325	0.135	29465	keystroke_c	c	n/a
14.8825	0.09	29765	keystroke_k	k	n/a
15.0775	0.135	30155	keystroke_Key.space	Key.space	n/a
15.3325	0.105	30665	keystroke_b	b	n/a
15.4975	0.165	30995	keystroke_r	r	n/a
15.8125	0.105	31625	keystroke_o	o	n/a
16.007	0.15	32014	keystroke_w	w	n/a
16.1725	0.075	32345	keystroke_n	n	n/a
16.352	0.09	32704	keystroke_Key.space	Key.space	n/a
16.5925	0.1045	33185	keystroke_f	f	n/a
16.682	0.15	33364	keystroke_o	o	n/a
16.907	0.09	33814	keystroke_x	x	n/a
17.057	0.12	34114	keystroke_Key.space	Key.space	n/a
17.312	0.181	34624	keystroke_j	j	n/a
17.477	0.121	34954	keystroke_u	u	n/a
17.7775	0.105	35555	keystroke_m	m	n/a
18.0025	0.135	36005	keystroke_p	p	n/a
18.1975	0.18	36395	keystroke_s	s	n/a
18.3925	0.135	36785	keystroke_Key.space	Key.space	n/a
18.5575	0.06	37115	keystroke_o	o	n/a
18.738	0.12	37476	keystroke_v	v	n/a
18.888	0.074	37776	keystroke_e	e	n/a
18.977	0.135	37954	keystroke_r	r	n/a
19.082	0.12	38164	keystroke_Key.space	Key.space	n/a
19.232	0.195	38464	keystroke_a	a	n/a
19.397	0.135	38794	keystroke_Key.space	Key.space	n/a
19.652	0.1205	39304	keystroke_l	l	n/a
19.757	0.12	39514	keystroke_a	a	n/a
20.012	0.12	40024	keystroke_z	z	n/a
20.222	0.105	40444	keystroke_y	y	n/a
20.372	0.136	40744	keystroke_Key.space	Key.space	n/a
20.538	0.12	41076	keystroke_d	d	n/a
20.628	0.1195	41256	keystroke_o	o	n/a
20.7625	0.105	41525	keystroke_g	g	n/a
21.573	0.104	43146	keystroke_Key.enter	Key.enter	n/a
21.7	22.7955	43400	prompt	n/a	knowledgestorm spirituality iran powered\n
22.428	0.12	44856	keystroke_k	k	n/a
22.623	0.195	45246	keystroke_n	n	n/a
22.758	0.135	45516	keystroke_o	o	n/a
22.938	0.12	45876	keystroke_w	w	n/a
23.433	0.12	46866	keystroke_e	e	n/a
25.1125	0.075	50225	keystroke_Key.backspace	Key.backspace	n/a
25.412	0.135	50824	keystroke_l	l	n/a
25.577	0.0905	51154	keystroke_e	e	n/a
25.8475	0.105	51695	keystroke_d	d	n/a
26.0875	0.135	52175	keystroke_g	g	n/a
26.2075	0.21	52415	keystroke_e	e	n/a
27.347	0.151	54694	keystroke_s	s	n/a
27.603	0.09	55206	keystroke_t	t	n/a
27.722	0.1055	55444	keystroke_o	o	n/a
27.8425	0.105	55685	keystroke_r	r	n/a
27.9625	0.1055	55925	keystroke_m	m	n/a
28.368	0.149	56736	keystroke_Key.space	Key.space	n/a
28.848	0.09	57696	keystroke_s	s	n/a
30.303	0.09	60606	keystroke_p	p	n/a
30.558	0.105	61116	keystroke_i	i	n/a
31.098	0.135	62196	keystroke_r	r	n/a
31.248	0.105	62496	keystroke_i	i	n/a
34.191	0.057	68382	keystroke_t	t	n/a
34.218	0.09	68436	keystroke_u	u	n/a
34.443	0.12	68886	keystroke_a	a	n/a
35.028	0.12	70056	keystroke_l	l	n/a
35.178	0.105	70356	keystroke_i	i	n/a
38.1955	0.012	76391	keystroke_t	t	n/a
38.2825	0.105	76565	keystroke_y	y	n/a
39.0175	0.119	78035	keystroke_Key.space	Key.space	n/a
39.3775	0.12	78755	keystroke_i	i	n/a
39.6025	0.12	79205	keystroke_r	r	n/a
39.9775	0.09	79955	keystroke_a	a	n/a
40.1425	0.105	80285	keystroke_n	n	n/a
40.3075	0.135	80615	keystroke_Key.space	Key.space	n/a
40.6075	0.15	81215	keystroke_p	p	n/a
40.6825	0.15	81365	keystroke_o	o	n/a
40.8775	0.15	81755	keystroke_w	w	n/a
42.2425	0.06	84485	keystroke_e	e	n/a
42.4675	0.09	84935	keystroke_r	r	n/a
42.6775	0.06	85355	keystroke_e	e	n/a
42.9175	0.06	85835	keystroke_d	d	n/a
44.3875	0.105	88775	keystroke_Key.enter	Key.enter	n/a
44.5005	17.4555	89001	prompt	n/a	requiring amenities engaged provided\n
46.8355	0.117	93671	keystroke_r	r	n/a
46.8925	0.15	93785	keystroke_e	e	n/a
48.783	0.1195	97566	keystroke_q	q	n/a
48.9925	0.1195	97985	keystroke_u	u	n/a
49.218	0.165	98436	keystroke_i	i	n/a
49.952	0.12	99904	keystroke_r	r	n/a
50.207	0.21	100414	keystroke_i	i	n/a
50.328	0.135	100656	keystroke_n	n	n/a
50.508	0.104	101016	keystroke_g	g	n/a
51.182	0.06	102364	keystroke_Key.space	Key.space	n/a
51.407	0.15	102814	keystroke_a	a	n/a
51.617	0.09	103234	keystroke_m	m	n/a
51.737	0.15	103474	keystroke_e	e	n/a
51.902	0.106	103804	keystroke_n	n	n/a
53.628	0.164	107256	keystroke_t	t	n/a
54.633	0.105	109266	keystroke_Key.backspace	Key.backspace	n/a
54.933	0.105	109866	keystroke_i	i	n/a
55.2175	0.075	110435	keystroke_t	t	n/a
55.3375	0.12	110675	keystroke_i	i	n/a
55.4425	0.15	110885	keystroke_e	e	n/a
55.5325	0.21	111065	keystroke_s	s	n/a
56.4025	0.12	112805	keystroke_Key.space	Key.space	n/a
56.8375	0.09	113675	keystroke_s	s	n/a
57.242	0.09	114484	keystroke_Key.backspace	Key.backspace	n/a
57.392	0.15	114784	keystroke_e	e	n/a
57.558	0.134	115116	keystroke_n	n	n/a
57.797	0.15	115594	keystroke_g	g	n/a
58.592	0.075	117184	keystroke_a	a	n/a
58.787	0.135	117574	keystroke_g	g	n/a
58.878	0.104	117756	keystroke_e	e	n/a
59.102	0.135	118204	keystroke_d	d	n/a
59.297	0.135	118594	keystroke_Key.space	Key.space	n/a
59.523	0.089	119046	keystroke_p	p	n/a
59.642	0.12	119284	keystroke_r	r	n/a
59.747	0.135	119494	keystroke_o	o	n/a
60.287	0.12	120574	keystroke_v	v	n/a
60.543	0.12	121086	keystroke_i	i	n/a
60.722	0.075	121444	keystroke_d	d	n/a
60.917	0.091	121834	keystroke_e	e	n/a
61.143	0.06	122286	keystroke_d	d	n/a
61.893	0.059	123786	keystroke_Key.enter	Key.enter	n/a
61.962	12.0385	123924	prompt	n/a	asset hudson bringing elliott\n
62.793	0.09	125586	keystroke_a	a	n/a
63.077	0.091	126154	keystroke_s	s	n/a
63.257	0.121	126514	keystroke_s	s	n/a
63.438	0.149	126876	keystroke_e	e	n/a
63.632	0.121	127264	keystroke_t	t	n/a
63.977	0.09	127954	keystroke_Key.space	Key.space	n/a
64.367	0.075	128734	keystroke_h	h	n/a
65.462	0.075	130924	keystroke_u	u	n/a
65.748	0.119	131496	keystroke_d	d	n/a
66.032	0.075	132064	keystroke_s	s	n/a
66.273	0.18	132546	keystroke_o	o	n/a
66.392	0.105	132784	keystroke_n	n	n/a
66.647	0.12	133294	keystroke_Key.space	Key.space	n/a
66.843	0.105	133686	keystroke_b	b	n/a
66.992	0.121	133984	keystroke_r	r	n/a
69.2015	0.102	138403	keystroke_i	i	n/a
69.2435	0.12	138487	keystroke_n	n	n/a
70.0235	0.0745	140047	keystroke_g	g	n/a
70.863	0.195	141726	keystroke_i	i	n/a
70.953	0.15	141906	keystroke_n	n	n/a
71.118	0.09	142236	keystroke_g	g	n/a
71.298	0.105	142596	keystroke_Key.space	Key.space	n/a
71.553	0.09	143106	keystroke_e	e	n/a
71.898	0.09	143796	keystroke_l	l	n/a
72.063	0.165	144126	keystroke_l	l	n/a
72.363	0.21	144726	keystroke_i	i	n/a
72.483	0.135	144966	keystroke_o	o	n/a
72.783	0.06	145566	keystroke_t	t	n/a
73.023	0.015	146046	keystroke_t	t	n/a
73.923	0.075	147846	keystroke_Key.enter	Key.enter	n/a
74.0065	10.8395	148013	prompt	n/a	earl loved remain atmosphere\n
74.808	0.165	149616	keystroke_e	e	n/a
74.988	0.105	149976	keystroke_r	r	n/a
75.438	0.105	150876	keystroke_Key.backspace	Key.backspace	n/a
75.618	0.15	151236	keystroke_a	a	n/a
75.723	0.12	151446	keystroke_r	r	n/a
76.413	0.075	152826	keystroke_l	l	n/a
76.773	0.135	153546	keystroke_Key.space	Key.space	n/a
76.923	0.0745	153846	keystroke_l	l	n/a
77.1035	0.059	154207	keystroke_o	o	n/a
77.3285	0.104	154657	keystroke_v	v	n/a
77.4475	0.09	154895	keystroke_e	e	n/a
77.6575	0.105	155315	keystroke_d	d	n/a
78.1225	0.135	156245	keystroke_Key.space	Key.space	n/a
78.4675	0.15	156935	keystroke_r	r	n/a
78.5735	0.119	157147	keystroke_e	e	n/a
78.7375	0.12	157475	keystroke_m	m	n/a
78.9025	0.1205	157805	keystroke_a	a	n/a
79.323	0.165	158646	keystroke_i	i	n/a
79.443	0.105	158886	keystroke_n	n	n/a
80.733	0.18	161466	keystroke_Key.space	Key.space	n/a
81.708	0.105	163416	keystroke_a	a	n/a
81.933	0.105	163866	keystroke_t	t	n/a
82.308	0.195	164616	keystroke_m	m	n/a
82.443	0.135	164886	keystroke_o	o	n/a
82.728	0.135	165456	keystroke_s	s	n/a
83.613	0.09	167226	keystroke_p	p	n/a
83.808	0.105	167616	keystroke_h	h	n/a
84.018	0.045	168036	keystroke_e	e	n/a
84.048	0.195	168096	keystroke_r	r	n/a
84.183	0.135	168366	keystroke_e	e	n/a
84.7685	0.075	169537	keystroke_Key.enter	Key.enter	n/a
84.851	11.729	169702	prompt	n/a	divide ultra glory editorials\n
86.7335	0.105	173467	keystroke_d	d	n/a
87.153	0.135	174306	keystroke_i	i	n/a
87.753	0.105	175506	keystroke_v	v	n/a
87.918	0.12	175836	keystroke_i	i	n/a
88.158	0.09	176316	keystroke_d	d	n/a
88.368	0.075	176736	keystroke_e	e	n/a
88.968	0.105	177936	keystroke_Key.space	Key.space	n/a
89.418	0.075	178836	keystroke_u	u	n/a
89.598	0.15	179196	keystroke_l	l	n/a
89.763	0.075	179526	keystroke_t	t	n/a
89.928	0.105	179856	keystroke_r	r	n/a
90.093	0.165	180186	keystroke_a	a	n/a
90.288	0.135	180576	keystroke_Key.space	Key.space	n/a
90.663	0.09	181326	keystroke_g	g	n/a
90.828	0.105	181656	keystroke_l	l	n/a
91.038	0.105	182076	keystroke_o	o	n/a
91.218	0.105	182436	keystroke_r	r	n/a
91.338	0.106	182676	keystroke_y	y	n/a
92.073	0.105	184146	keystroke_Key.space	Key.space	n/a
92.343	0.075	184686	keystroke_e	e	n/a
92.913	0.12	185826	keystroke_d	d	n/a
93.078	0.105	186156	keystroke_i	i	n/a
93.378	0.105	186756	keystroke_t	t	n/a
93.498	0.105	186996	keystroke_o	o	n/a
93.663	0.09	187326	keystroke_r	r	n/a
93.768	0.135	187536	keystroke_i	i	n/a
94.098	0.075	188196	keystroke_a	a	n/a
94.203	0.105	188406	keystroke_l	l	n/a
94.323	0.09	188646	keystroke_s	s	n/a
96.576	0	193152	keystroke_Key.enter	Key.enter	n/a
96.587	7.9085	193174	prompt	n/a	wondering ratio hunter premiere\n
97.593	0.15	195186	keystroke_w	w	n/a
97.893	0.18	195786	keystroke_o	o	n/a
98.043	0.105	196086	keystroke_n	n	n/a
98.268	0.09	196536	keystroke_d	d	n/a
98.478	0.105	196956	keystroke_e	e	n/a
98.568	0.135	197136	keystroke_r	r	n/a
98.748	0.165	197496	keystroke_i	i	n/a
98.838	0.15	197676	keystroke_n	n	n/a
98.974	0.119	197948	keystroke_g	g	n/a
99.153	0.12	198306	keystroke_Key.space	Key.space	n/a
99.378	0.12	198756	keystroke_r	r	n/a
99.558	0.12	199116	keystroke_a	a	n/a
99.903	0.075	199806	keystroke_t	t	n/a
100.023	0.135	200046	keystroke_i	i	n/a
100.098	0.12	200196	keystroke_o	o	n/a
100.623	0.105	201246	keystroke_Key.space	Key.space	n/a
100.863	0.105	201726	keystroke_h	h	n/a
100.893	0.15	201786	keystroke_u	u	n/a
101.178	0.105	202356	keystroke_n	n	n/a
101.343	0.12	202686	keystroke_t	t	n/a
101.598	0.151	203196	keystroke_e	e	n/a
101.703	0.135	203406	keystroke_r	r	n/a
102.063	0.12	204126	keystroke_Key.space	Key.space	n/a
102.364	0.134	204728	keystroke_p	p	n/a
102.513	0.15	205026	keystroke_r	r	n/a
102.603	0.12	205206	keystroke_e	e	n/a
102.813	0.075	205626	keystroke_m	m	n/a
103.008	0.12	206016	keystroke_i	i	n/a
103.383	0.12	206766	keystroke_e	e	n/a
103.623	0.135	207246	keystroke_r	r	n/a
103.713	0.12	207426	keystroke_e	e	n/a
104.418	0.075	208836	keystroke_Key.enter	Key.enter	n/a
104.5	8.3345	209000	prompt	n/a	tracks chapter distance cuba\n
105.289	0.09	210578	keystroke_t	t	n/a
105.498	0.09	210996	keystroke_r	r	n/a
105.603	0.105	211206	keystroke_a	a	n/a
105.904	0.06	211808	keystroke_c	c	n/a
106.008	0.105	212016	keystroke_k	k	n/a
106.098	0.105	212196	keystroke_s	s	n/a
106.443	0.06	212886	keystroke_Key.space	Key.space	n/a
107.164	0.105	214328	keystroke_c	c	n/a
107.434	0.075	214868	keystroke_h	h	n/a
107.524	0.135	215048	keystroke_a	a	n/a
107.824	0.09	215648	keystroke_p	p	n/a
108.304	0.105	216608	keystroke_t	t	n/a
108.544	0.089	217088	keystroke_e	e	n/a
108.619	0.105	217238	keystroke_r	r	n/a
109.0385	0.12	218077	keystroke_Key.space	Key.space	n/a
109.323	0.075	218646	keystroke_d	d	n/a
109.473	0.105	218946	keystroke_i	i	n/a
109.608	0.09	219216	keystroke_s	s	n/a
109.848	0.075	219696	keystroke_t	t	n/a
110.058	0.075	220116	keystroke_a	a	n/a
110.148	0.09	220296	keystroke_n	n	n/a
110.343	0.12	220686	keystroke_c	c	n/a
110.568	0.105	221136	keystroke_e	e	n/a
111.063	0.105	222126	keystroke_Key.space	Key.space	n/a
111.393	0.09	222786	keystroke_c	c	n/a
111.528	0.105	223056	keystroke_u	u	n/a
111.783	0.12	223566	keystroke_b	b	n/a
111.918	0.06	223836	keystroke_a	a	n/a
112.743	0.09	225486	keystroke_Key.enter	Key.enter	n/a
112.84	11.215	225680	prompt	n/a	comparative jimmy trial encoding\n
113.793	0.12	227586	keystroke_c	c	n/a
114.153	0.09	228306	keystroke_o	o	n/a
114.378	0.105	228756	keystroke_m	m	n/a
114.618	0.09	229236	keystroke_p	p	n/a
114.888	0.135	229776	keystroke_a	a	n/a
115.143	0.12	230286	keystroke_r	r	n/a
115.293	0.12	230586	keystroke_a	a	n/a
115.578	0.105	231156	keystroke_t	t	n/a
115.668	0.075	231336	keystroke_i	i	n/a
115.923	0.075	231846	keystroke_v	v	n/a
116.013	0.075	232026	keystroke_e	e	n/a
116.478	0.09	232956	keystroke_Key.space	Key.space	n/a
117.288	0.165	234576	keystroke_j	j	n/a
117.408	0.135	234816	keystroke_i	i	n/a
117.738	0.06	235476	keystroke_m	m	n/a
117.9175	0.075	235835	keystroke_m	m	n/a
118.3075	0.075	236615	keystroke_y	y	n/a
118.7575	0.105	237515	keystroke_Key.space	Key.space	n/a
119.0425	0.06	238085	keystroke_t	t	n/a
119.2235	0.089	238447	keystroke_r	r	n/a
119.3285	0.12	238657	keystroke_i	i	n/a
119.4625	0.12	238925	keystroke_a	a	n/a
119.6275	0.075	239255	keystroke_l	l	n/a
120.8135	0.12	241627	keystroke_Key.space	Key.space	n/a
121.5485	0.075	243097	keystroke_e	e	n/a
121.9535	0.075	243907	keystroke_c	c	n/a
122.1935	0.135	244387	keystroke_n	n	n/a
122.2835	0.135	244567	keystroke_o	o	n/a
122.4335	0.075	244867	keystroke_d	d	n/a
122.6135	0.18	245227	keystroke_i	i	n/a
122.7185	0.12	245437	keystroke_n	n	n/a
122.8235	0.075	245647	keystroke_g	g	n/a
123.9935	0.06	247987	keystroke_Key.enter	Key.enter	n/a
124.0595	7.421	248119	prompt	n/a	semi trades collar scenic\n
124.8635	0.105	249727	keystroke_s	s	n/a
125.0435	0.105	250087	keystroke_e	e	n/a
125.1635	0.09	250327	keystroke_m	m	n/a
125.3585	0.105	250717	keystroke_i	i	n/a
125.6285	0.15	251257	keystroke_Key.space	Key.space	n/a
125.9135	0.075	251827	keystroke_t	t	n/a
126.1085	0.105	252217	keystroke_r	r	n/a
126.3335	0.105	252667	keystroke_a	a	n/a
126.7235	0.09	253447	keystroke_d	d	n/a
126.9935	0.105	253987	keystroke_e	e	n/a
127.0685	0.105	254137	keystroke_s	s	n/a
127.3835	0.09	254767	keystroke_Key.space	Key.space	n/a
127.6535	0.09	255307	keystroke_c	c	n/a
127.8035	0.105	255607	keystroke_o	o	n/a
128.1035	0.09	256207	keystroke_l	l	n/a
128.2835	0.105	256567	keystroke_l	l	n/a
128.5385	0.12	257077	keystroke_a	a	n/a
128.6435	0.09	257287	keystroke_r	r	n/a
129.3185	0.105	258637	keystroke_Key.space	Key.space	n/a
129.5285	0.12	259057	keystroke_s	s	n/a
129.9335	0.09	259867	keystroke_c	c	n/a
130.1735	0.09	260347	keystroke_e	e	n/a
130.5935	0.105	261187	keystroke_n	n	n/a
130.6085	0.195	261217	keystroke_i	i	n/a
130.8335	0.09	261667	keystroke_c	c	n/a
131.4035	0.075	262807	keystroke_Key.enter	Key.enter	n/a
131.4855	7.4195	262971	prompt	n/a	killer franklin candy guest\n
132.1235	0.075	264247	keystroke_k	k	n/a
132.2885	0.09	264577	keystroke_i	i	n/a
132.5135	0.06	265027	keystroke_l	l	n/a
132.6635	0.12	265327	keystroke_l	l	n/a
132.7985	0.105	265597	keystroke_e	e	n/a
132.8585	0.165	265717	keystroke_r	r	n/a
133.1285	0.12	266257	keystroke_Key.space	Key.space	n/a
133.6085	0.105	267217	keystroke_f	f	n/a
133.8335	0.135	267667	keystroke_r	r	n/a
134.1035	0.105	268207	keystroke_a	a	n/a
134.2535	0.09	268507	keystroke_n	n	n/a
134.4635	0.135	268927	keystroke_k	k	n/a
134.9135	0.105	269827	keystroke_l	l	n/a
135.0785	0.105	270157	keystroke_i	i	n/a
135.3035	0.09	270607	keystroke_n	n	n/a
135.6935	0.12	271387	keystroke_Key.space	Key.space	n/a
136.0685	0.075	272137	keystroke_c	c	n/a
136.3085	0.075	272617	keystroke_a	a	n/a
136.3985	0.105	272797	keystroke_n	n	n/a
136.6085	0.075	273217	keystroke_d	d	n/a
136.8785	0.09	273757	keystroke_y	y	n/a
137.2535	0.09	274507	keystroke_Key.space	Key.space	n/a
137.4935	0.09	274987	keystroke_g	g	n/a
137.6285	0.12	275257	keystroke_u	u	n/a
137.7185	0.15	275437	keystroke_e	e	n/a
137.8535	0.195	275707	keystroke_s	s	n/a
138.0035	0.09	276007	keystroke_t	t	n/a
138.828	0.075	277656	keystroke_Key.enter	Key.enter	n/a
138.909	16.377	277818	prompt	n/a	signs wagon substance checking\n
139.6235	0.1055	279247	keystroke_s	s	n/a
139.8635	0.12	279727	keystroke_i	i	n/a
140.074	0.0895	280148	keystroke_g	g	n/a
140.179	0.135	280358	keystroke_n	n	n/a
140.4635	0.1055	280927	keystroke_s	s	n/a
141.0035	0.1045	282007	keystroke_Key.space	Key.space	n/a
141.199	0.059	282398	keystroke_w	w	n/a
141.378	0.091	282756	keystroke_a	a	n/a
141.634	0.06	283268	keystroke_g	g	n/a
141.754	0.165	283508	keystroke_o	o	n/a
141.858	0.121	283716	keystroke_n	n	n/a
142.263	0.136	284526	keystroke_Key.space	Key.space	n/a
142.534	0.105	285068	keystroke_s	s	n/a
142.699	0.09	285398	keystroke_u	u	n/a
142.938	0.1205	285876	keystroke_b	b	n/a
143.1335	0.12	286267	keystroke_s	s	n/a
143.3435	0.075	286687	keystroke_t	t	n/a
143.4785	0.135	286957	keystroke_a	a	n/a
143.6285	0.105	287257	keystroke_n	n	n/a
143.7785	0.09	287557	keystroke_c	c	n/a
143.9885	0.075	287977	keystroke_e	e	n/a
144.8585	0.135	289717	keystroke_Key.space	Key.space	n/a
145.159	0.105	290318	keystroke_c	c	n/a
145.279	0.12	290558	keystroke_h	h	n/a
145.429	0.09	290858	keystroke_a	a	n/a
145.804	0.105	291608	keystroke_c	c	n/a
145.954	0.075	291908	keystroke_k	k	n/a
146.149	0.21	292298	keystroke_i	i	n/a
146.299	0.15	292598	keystroke_n	n	n/a
146.434	0.075	292868	keystroke_g	g	n/a
151.1015	0.012	302203	keystroke_Key.backspace	Key.backspace	n/a
151.2485	0.06	302497	keystroke_Key.backspace	Key.backspace	n/a
151.4435	0.06	302887	keystroke_Key.backspace	Key.backspace	n/a
151.6235	0.075	303247	keystroke_Key.backspace	Key.backspace	n/a
151.8335	0.075	303667	keystroke_Key.backspace	Key.backspace	n/a
152.0435	0.075	304087	keystroke_Key.backspace	Key.backspace	n/a
152.4945	0.104	304989	keystroke_e	e	n/a
152.8385	0.075	305677	keystroke_c	c	n/a
152.9745	0.074	305949	keystroke_k	k	n/a
153.1695	0.104	306339	keystroke_i	i	n/a
153.3335	0.12	306667	keystroke_n	n	n/a
153.4685	0.09	306937	keystroke_g	g	n/a
155.1635	0.12	310327	keystroke_Key.enter	Key.enter	n/a
155.293	10.853	310586	prompt	n/a	cookbook normally candidate romania\n
156.9485	0.075	313897	keystroke_c	c	n/a
157.1135	0.075	314227	keystroke_o	o	n/a
157.2635	0.12	314527	keystroke_o	o	n/a
157.4435	0.135	314887	keystroke_k	k	n/a
157.7435	0.18	315487	keystroke_b	b	n/a
157.8485	0.121	315697	keystroke_o	o	n/a
158.0435	0.135	316087	keystroke_o	o	n/a
158.2695	0.134	316539	keystroke_k	k	n/a
158.5985	0.135	317197	keystroke_Key.space	Key.space	n/a
158.7945	0.119	317589	keystroke_n	n	n/a
158.9445	0.134	317889	keystroke_o	o	n/a
159.0485	0.105	318097	keystroke_r	r	n/a
159.2295	0.104	318459	keystroke_m	m	n/a
159.2885	0.15	318577	keystroke_a	a	n/a
159.4835	0.09	318967	keystroke_l	l	n/a
159.6635	0.106	319327	keystroke_l	l	n/a
159.9185	0.12	319837	keystroke_y	y	n/a
160.1285	0.105	320257	keystroke_Key.space	Key.space	n/a
160.7735	0.075	321547	keystroke_c	c	n/a
161.1045	0.134	322209	keystroke_a	a	n/a
161.2535	0.12	322507	keystroke_n	n	n/a
161.4635	0.075	322927	keystroke_d	d	n/a
161.6135	0.09	323227	keystroke_i	i	n/a
162.0785	0.046	324157	keystroke_d	d	n/a
162.2445	0.075	324489	keystroke_a	a	n/a
162.4545	0.119	324909	keystroke_t	t	n/a
162.5285	0.135	325057	keystroke_e	e	n/a
162.9635	0.106	325927	keystroke_Key.space	Key.space	n/a
163.3085	0.09	326617	keystroke_r	r	n/a
163.4445	0.074	326889	keystroke_o	o	n/a
163.6535	0.09	327307	keystroke_m	m	n/a
163.7735	0.121	327547	keystroke_a	a	n/a
163.9995	0.209	327999	keystroke_n	n	n/a
164.1045	0.134	328209	keystroke_i	i	n/a
164.5535	0.09	329107	keystroke_a	a	n/a
166.0535	0.09	332107	keystroke_Key.enter	Key.enter	n/a
166.1505	11.6655	332301	prompt	n/a	rarely played apparent hospital\n
166.8335	0.106	333667	keystroke_r	r	n/a
167.164	0.03	334328	keystroke_a	a	n/a
167.179	0.135	334358	keystroke_r	r	n/a
167.239	0.135	334478	keystroke_e	e	n/a
167.389	0.105	334778	keystroke_l	l	n/a
167.629	0.09	335258	keystroke_y	y	n/a
167.839	0.15	335678	keystroke_Key.space	Key.space	n/a
168.559	0.09	337118	keystroke_p	p	n/a
168.754	0.12	337508	keystroke_l	l	n/a
168.889	0.12	337778	keystroke_a	a	n/a
169.039	0.135	338078	keystroke_y	y	n/a
169.189	0.105	338378	keystroke_e	e	n/a
169.429	0.075	338858	keystroke_d	d	n/a
169.699	0.12	339398	keystroke_Key.space	Key.space	n/a
170.149	0.105	340298	keystroke_a	a	n/a
170.284	0.075	340568	keystroke_p	p	n/a
170.464	0.12	340928	keystroke_p	p	n/a
170.689	0.165	341378	keystroke_r	r	n/a
171.514	0.105	343028	keystroke_Key.backspace	Key.backspace	n/a
171.664	0.12	343328	keystroke_a	a	n/a
171.949	0.165	343898	keystroke_r	r	n/a
172.894	0.135	345788	keystroke_e	e	n/a
173.044	0.1195	346088	keystroke_n	n	n/a
173.1785	0.105	346357	keystroke_t	t	n/a
174.1385	0.12	348277	keystroke_Key.space	Key.space	n/a
174.4085	0.136	348817	keystroke_h	h	n/a
174.4985	0.135	348997	keystroke_o	o	n/a
174.5745	0.164	349149	keystroke_s	s	n/a
176.0285	0.075	352057	keystroke_p	p	n/a
176.1935	0.105	352387	keystroke_i	i	n/a
176.3135	0.12	352627	keystroke_t	t	n/a
176.5385	0.12	353077	keystroke_a	a	n/a
176.6435	0.075	353287	keystroke_l	l	n/a
177.7245	0.089	355449	keystroke_Key.enter	Key.enter	n/a
177.821	9.3405	355642	prompt	n/a	wages superb interesting we\n
178.6395	0.09	357279	keystroke_w	w	n/a
178.8645	0.09	357729	keystroke_a	a	n/a
179.1345	0.105	358269	keystroke_g	g	n/a
179.2845	0.165	358569	keystroke_e	e	n/a
179.4045	0.12	358809	keystroke_s	s	n/a
179.8695	0.105	359739	keystroke_Key.space	Key.space	n/a
180.2445	0.105	360489	keystroke_s	s	n/a
180.3945	0.12	360789	keystroke_u	u	n/a
180.6345	0.105	361269	keystroke_p	p	n/a
181.0095	0.105	362019	keystroke_e	e	n/a
181.0995	0.12	362199	keystroke_r	r	n/a
181.2945	0.09	362589	keystroke_b	b	n/a
182.1645	0.135	364329	keystroke_Key.space	Key.space	n/a
182.4195	0.225	364839	keystroke_i	i	n/a
182.6295	0.075	365259	keystroke_n	n	n/a
182.7345	0.12	365469	keystroke_s	s	n/a
183.4695	0.105	366939	keystroke_Key.backspace	Key.backspace	n/a
183.9045	0.105	367809	keystroke_t	t	n/a
184.0245	0.135	368049	keystroke_e	e	n/a
184.1445	0.18	368289	keystroke_r	r	n/a
184.2795	0.165	368559	keystroke_e	e	n/a
184.3695	0.195	368739	keystroke_s	s	n/a
184.8195	0.105	369639	keystroke_t	t	n/a
184.9845	0.21	369969	keystroke_i	i	n/a
185.1195	0.12	370239	keystroke_n	n	n/a
185.3595	0.105	370719	keystroke_g	g	n/a
186.0195	0.12	372039	keystroke_Key.space	Key.space	n/a
186.2445	0.12	372489	keystroke_w	w	n/a
186.3195	0.12	372639	keystroke_e	e	n/a
187.0545	0.105	374109	keystroke_Key.enter	Key.enter	n/a
187.1655	14.681	374331	prompt	n/a	spending she prescription qualifications\n
188.1645	0.15	376329	keystroke_s	s	n/a
188.3445	0.12	376689	keystroke_p	p	n/a
188.4945	0.12	376989	keystroke_e	e	n/a
188.6145	0.12	377229	keystroke_n	n	n/a
188.7945	0.09	377589	keystroke_d	d	n/a
188.8995	0.165	377799	keystroke_i	i	n/a
188.9895	0.135	377979	keystroke_n	n	n/a
189.1995	0.075	378399	keystroke_g	g	n/a
189.5295	0.12	379059	keystroke_Key.space	Key.space	n/a
190.0245	0.105	380049	keystroke_s	s	n/a
190.1445	0.09	380289	keystroke_h	h	n/a
190.2945	0.09	380589	keystroke_e	e	n/a
190.4895	0.12	380979	keystroke_Key.space	Key.space	n/a
191.0295	0.105	382059	keystroke_p	p	n/a
191.2245	0.165	382449	keystroke_r	r	n/a
191.3145	0.135	382629	keystroke_e	e	n/a
191.7195	0.09	383439	keystroke_c	c	n/a
192.8745	0.135	385749	keystroke_Key.backspace	Key.backspace	n/a
193.3245	0.15	386649	keystroke_s	s	n/a
193.9995	0.105	387999	keystroke_c	c	n/a
194.2845	0.105	388569	keystroke_r	r	n/a
194.4345	0.18	388869	keystroke_i	i	n/a
194.5545	0.12	389109	keystroke_p	p	n/a
194.9145	0.105	389829	keystroke_t	t	n/a
195.0345	0.195	390069	keystroke_i	i	n/a
195.1395	0.195	390279	keystroke_o	o	n/a
195.3195	0.105	390639	keystroke_n	n	n/a
195.7095	0.075	391419	keystroke_Key.space	Key.space	n/a
196.3995	0.165	392799	keystroke_q	q	n/a
196.5795	0.03	393159	keystroke_u	u	n/a
196.6255	0.134	393251	keystroke_a	a	n/a
196.8495	0.1645	393699	keystroke_l	l	n/a
196.9395	0.105	393879	keystroke_i	i	n/a
197.2245	0.09	394449	keystroke_f	f	n/a
197.3595	0.105	394719	keystroke_i	i	n/a
199.3095	0.12	398619	keystroke_c	c	n/a
199.4895	0.105	398979	keystroke_a	a	n/a
199.7745	0.075	399549	keystroke_t	t	n/a
199.8345	0.225	399669	keystroke_i	i	n/a
199.9395	0.21	399879	keystroke_o	o	n/a
200.0895	0.15	400179	keystroke_n	n	n/a
200.2245	0.105	400449	keystroke_s	s	n/a
201.754	0.09	403508	keystroke_Key.enter	Key.enter	n/a
201.8515	9.1305	403703	prompt	n/a	screw informed obtain translation\n
202.52	0.104	405040	keystroke_s	s	n/a
202.774	0.09	405548	keystroke_c	c	n/a
203.045	0.164	406090	keystroke_r	r	n/a
203.134	0.165	406268	keystroke_e	e	n/a
203.224	0.135	406448	keystroke_w	w	n/a
203.659	0.09	407318	keystroke_Key.space	Key.space	n/a
203.974	0.165	407948	keystroke_i	i	n/a
204.064	0.15	408128	keystroke_n	n	n/a
204.215	0.104	408430	keystroke_f	f	n/a
204.379	0.12	408758	keystroke_o	o	n/a
204.484	0.12	408968	keystroke_r	r	n/a
204.814	0.12	409628	keystroke_m	m	n/a
205.069	0.0755	410138	keystroke_e	e	n/a
205.2495	0.075	410499	keystroke_d	d	n/a
205.9395	0.105	411879	keystroke_Key.space	Key.space	n/a
206.2545	0.12	412509	keystroke_o	o	n/a
206.4045	0.12	412809	keystroke_b	b	n/a
206.7045	0.105	413409	keystroke_t	t	n/a
206.8845	0.135	413769	keystroke_a	a	n/a
207.304	0.165	414608	keystroke_i	i	n/a
207.394	0.121	414788	keystroke_n	n	n/a
207.739	0.15	415478	keystroke_Key.space	Key.space	n/a
208.099	0.075	416198	keystroke_t	t	n/a
208.295	0.104	416590	keystroke_r	r	n/a
208.444	0.135	416888	keystroke_a	a	n/a
208.565	0.104	417130	keystroke_n	n	n/a
208.699	0.105	417398	keystroke_s	s	n/a
208.865	0.15	417730	keystroke_l	l	n/a
208.984	0.105	417968	keystroke_a	a	n/a
209.329	0.075	418658	keystroke_t	t	n/a
209.464	0.18	418928	keystroke_i	i	n/a
209.57	0.194	419140	keystroke_o	o	n/a
209.734	0.105	419468	keystroke_n	n	n/a
210.889	0.09	421778	keystroke_Key.enter	Key.enter	n/a
210.989	8.4375	421978	prompt	n/a	event telling waves see\n
211.864	0.165	423728	keystroke_e	e	n/a
212.345	0.104	424690	keystroke_v	v	n/a
212.569	0.135	425138	keystroke_e	e	n/a
212.659	0.12	425318	keystroke_n	n	n/a
212.809	0.075	425618	keystroke_t	t	n/a
213.124	0.105	426248	keystroke_Key.space	Key.space	n/a
213.724	0.135	427448	keystroke_t	t	n/a
213.814	0.15	427628	keystroke_e	e	n/a
214.009	0.106	428018	keystroke_l	l	n/a
214.19	0.134	428380	keystroke_l	l	n/a
214.354	0.225	428708	keystroke_i	i	n/a
214.519	0.15	429038	keystroke_n	n	n/a
214.684	0.075	429368	keystroke_g	g	n/a
215.014	0.075	430028	keystroke_Key.space	Key.space	n/a
215.599	0.105	431198	keystroke_w	w	n/a
216.844	0.09	433688	keystroke_a	a	n/a
217.145	0.104	434290	keystroke_v	v	n/a
217.445	0.134	434890	keystroke_e	e	n/a
217.505	0.119	435010	keystroke_s	s	n/a
218.089	0.105	436178	keystroke_Key.space	Key.space	n/a
218.254	0.196	436508	keystroke_s	s	n/a
218.39	0.119	436780	keystroke_e	e	n/a
218.6	0.074	437200	keystroke_e	e	n/a
219.335	0.089	438670	keystroke_Key.enter	Key.enter	n/a
219.432	14.7845	438864	prompt	n/a	petersburg appearance citations comfort\n
220.37	0.104	440740	keystroke_p	p	n/a
220.835	0.09	441670	keystroke_e	e	n/a
221.074	0.076	442148	keystroke_t	t	n/a
221.209	0.151	442418	keystroke_e	e	n/a
221.329	0.12	442658	keystroke_r	r	n/a
221.705	0.119	443410	keystroke_s	s	n/a
222.38	0.164	444760	keystroke_b	b	n/a
222.47	0.165	444940	keystroke_u	u	n/a
222.83	0.09	445660	keystroke_r	r	n/a
223.115	0.09	446230	keystroke_g	g	n/a
223.7	0.089	447400	keystroke_Key.space	Key.space	n/a
223.91	0.12	447820	keystroke_a	a	n/a
224.045	0.075	448090	keystroke_p	p	n/a
224.195	0.12	448390	keystroke_p	p	n/a
226.7625	0.001	453525	keystroke_e	e	n/a
226.8495	0.12	453699	keystroke_a	a	n/a
227.0745	0.134	454149	keystroke_r	r	n/a
227.2835	0.045	454567	keystroke_e	e	n/a
227.7335	0.12	455467	keystroke_Key.backspace	Key.backspace	n/a
228.0195	0.12	456039	keystroke_a	a	n/a
228.1995	0.09	456399	keystroke_n	n	n/a
228.3485	0.136	456697	keystroke_c	c	n/a
228.5445	0.104	457089	keystroke_e	e	n/a
229.354	0.12	458708	keystroke_Key.space	Key.space	n/a
229.819	0.135	459638	keystroke_c	c	n/a
230.209	0.09	460418	keystroke_i	i	n/a
230.434	0.075	460868	keystroke_t	t	n/a
230.569	0.136	461138	keystroke_a	a	n/a
230.854	0.075	461708	keystroke_t	t	n/a
230.974	0.18	461948	keystroke_i	i	n/a
231.109	0.18	462218	keystroke_o	o	n/a
231.244	0.12	462488	keystroke_n	n	n/a
231.379	0.09	462758	keystroke_s	s	n/a
232.264	0.105	464528	keystroke_Key.space	Key.space	n/a
232.669	0.075	465338	keystroke_c	c	n/a
232.759	0.15	465518	keystroke_o	o	n/a
232.864	0.135	465728	keystroke_n	n	n/a
233.044	0.075	466088	keystroke_f	f	n/a
233.179	0.12	466358	keystroke_o	o	n/a
233.269	0.105	466538	keystroke_r	r	n/a
233.509	0.06	467018	keystroke_t	t	n/a
234.124	0.09	468248	keystroke_Key.enter	Key.enter	n/a
234.222	11.32	468444	prompt	n/a	accept currently ordered starter\n
234.965	0.089	469930	keystroke_a	a	n/a
235.234	0.06	470468	keystroke_c	c	n/a
235.414	0.0905	470828	keystroke_c	c	n/a
235.699	0.1205	471398	keystroke_e	e	n/a
235.9695	0.09	471939	keystroke_p	p	n/a
236.1195	0.075	472239	keystroke_t	t	n/a
236.5545	0.105	473109	keystroke_Key.space	Key.space	n/a
237.47	0.089	474940	keystroke_c	c	n/a
237.679	0.106	475358	keystroke_u	u	n/a
238.204	0.09	476408	keystroke_r	r	n/a
238.535	0.105	477070	keystroke_r	r	n/a
238.954	0.12	477908	keystroke_e	e	n/a
239.105	0.104	478210	keystroke_n	n	n/a
239.254	0.061	478508	keystroke_t	t	n/a
239.36	0.104	478720	keystroke_l	l	n/a
239.599	0.091	479198	keystroke_y	y	n/a
239.869	0.105	479738	keystroke_Key.space	Key.space	n/a
240.455	0.105	480910	keystroke_o	o	n/a
240.695	0.089	481390	keystroke_r	r	n/a
240.904	0.09	481808	keystroke_d	d	n/a
241.13	0.134	482260	keystroke_e	e	n/a
241.235	0.15	482470	keystroke_r	r	n/a
241.414	0.105	482828	keystroke_e	e	n/a
241.654	0.091	483308	keystroke_d	d	n/a
242.254	0.12	484508	keystroke_Key.space	Key.space	n/a
242.675	0.105	485350	keystroke_s	s	n/a
242.944	0.091	485888	keystroke_t	t	n/a
243.155	0.18	486310	keystroke_a	a	n/a
243.274	0.136	486548	keystroke_r	r	n/a
243.544	0.106	487088	keystroke_t	t	n/a
243.77	0.135	487540	keystroke_e	e	n/a
243.845	0.134	487690	keystroke_r	r	n/a
245.465	0.075	490930	keystroke_Key.enter	Key.enter	n/a
245.548	10.538	491096	prompt	n/a	wilson accredited detect saints\n
246.365	0.135	492730	keystroke_w	w	n/a
246.454	0.106	492908	keystroke_i	i	n/a
246.65	0.12	493300	keystroke_l	l	n/a
246.785	0.105	493570	keystroke_s	s	n/a
246.92	0.18	493840	keystroke_o	o	n/a
247.04	0.135	494080	keystroke_n	n	n/a
247.519	0.12	495038	keystroke_Key.space	Key.space	n/a
247.88	0.075	495760	keystroke_a	a	n/a
248.194	0.076	496388	keystroke_c	c	n/a
248.405	0.075	496810	keystroke_c	c	n/a
248.75	0.1345	497500	keystroke_r	r	n/a
248.825	0.1495	497650	keystroke_e	e	n/a
249.1395	0.075	498279	keystroke_d	d	n/a
249.5295	0.105	499059	keystroke_i	i	n/a
249.8145	0.135	499629	keystroke_t	t	n/a
249.9045	0.12	499809	keystroke_e	e	n/a
250.1445	0.12	500289	keystroke_d	d	n/a
250.3245	0.135	500649	keystroke_Key.space	Key.space	n/a
251.8395	0.075	503679	keystroke_d	d	n/a
252.0645	0.09	504129	keystroke_e	e	n/a
252.3645	0.075	504729	keystroke_t	t	n/a
252.7695	0.075	505539	keystroke_e	e	n/a
253.0095	0.075	506019	keystroke_c	c	n/a
253.2195	0.105	506439	keystroke_t	t	n/a
253.4745	0.105	506949	keystroke_Key.space	Key.space	n/a
253.6695	0.135	507339	keystroke_s	s	n/a
254.5095	0.12	509019	keystroke_a	a	n/a
254.8845	0.18	509769	keystroke_i	i	n/a
254.9895	0.15	509979	keystroke_n	n	n/a
255.1545	0.075	510309	keystroke_t	t	n/a
255.6195	0.09	511239	keystroke_s	s	n/a
256.0095	0.075	512019	keystroke_Key.enter	Key.enter	n/a
256.0915	9.3555	512183	prompt	n/a	wrestling sunrise pledge honest\n
257.014	0.135	514028	keystroke_w	w	n/a
257.569	0.18	515138	keystroke_r	r	n/a
257.659	0.165	515318	keystroke_e	e	n/a
257.854	0.135	515708	keystroke_s	s	n/a
258.094	0.105	516188	keystroke_t	t	n/a
258.5595	0.1045	517119	keystroke_l	l	n/a
258.754	0.18	517508	keystroke_i	i	n/a
258.874	0.1655	517748	keystroke_n	n	n/a
259.0245	0.09	518049	keystroke_g	g	n/a
259.4445	0.09	518889	keystroke_Key.space	Key.space	n/a
259.9695	0.105	519939	keystroke_s	s	n/a
260.1495	0.075	520299	keystroke_u	u	n/a
260.3745	0.12	520749	keystroke_n	n	n/a
260.5995	0.09	521199	keystroke_r	r	n/a
260.7195	0.12	521439	keystroke_i	i	n/a
261.05	0.165	522100	keystroke_s	s	n/a
261.185	0.12	522370	keystroke_e	e	n/a
261.515	0.135	523030	keystroke_Key.space	Key.space	n/a
261.83	0.09	523660	keystroke_p	p	n/a
262.055	0.15	524110	keystroke_l	l	n/a
262.25	0.09	524500	keystroke_e	e	n/a
262.565	0.165	525130	keystroke_d	d	n/a
262.925	0.165	525850	keystroke_g	g	n/a
263.045	0.134	526090	keystroke_e	e	n/a
263.494	0.135	526988	keystroke_Key.space	Key.space	n/a
263.765	0.134	527530	keystroke_h	h	n/a
263.854	0.12	527708	keystroke_o	o	n/a
264.065	0.12	528130	keystroke_n	n	n/a
264.155	0.179	528310	keystroke_e	e	n/a
264.304	0.195	528608	keystroke_s	s	n/a
264.454	0.09	528908	keystroke_t	t	n/a
265.3695	0.075	530739	keystroke_Key.enter	Key.enter	n/a
265.4535	11.918	530907	prompt	n/a	keeping category trend democrats\n
266.1945	0.135	532389	keystroke_k	k	n/a
266.3445	0.075	532689	keystroke_e	e	n/a
266.5245	0.105	533049	keystroke_e	e	n/a
266.6745	0.105	533349	keystroke_p	p	n/a
266.8845	0.2105	533769	keystroke_i	i	n/a
267.0045	0.1645	534009	keystroke_n	n	n/a
267.139	0.136	534278	keystroke_g	g	n/a
267.319	0.136	534638	keystroke_Key.space	Key.space	n/a
267.815	0.12	535630	keystroke_c	c	n/a
268.01	0.135	536020	keystroke_a	a	n/a
268.385	0.105	536770	keystroke_t	t	n/a
268.58	0.135	537160	keystroke_e	e	n/a
268.805	0.119	537610	keystroke_g	g	n/a
268.999	0.106	537998	keystroke_o	o	n/a
269.135	0.09	538270	keystroke_r	r	n/a
269.255	0.105	538510	keystroke_y	y	n/a
269.705	0.134	539410	keystroke_Key.space	Key.space	n/a
269.99	0.09	539980	keystroke_t	t	n/a
270.185	0.104	540370	keystroke_r	r	n/a
270.334	0.121	540668	keystroke_e	e	n/a
270.485	0.12	540970	keystroke_n	n	n/a
270.62	0.075	541240	keystroke_d	d	n/a
270.98	0.104	541960	keystroke_Key.space	Key.space	n/a
271.22	0.075	542440	keystroke_d	d	n/a
271.43	0.09	542860	keystroke_e	e	n/a
271.58	0.105	543160	keystroke_m	m	n/a
271.79	0.15	543580	keystroke_o	o	n/a
271.895	0.15	543790	keystroke_n	n	n/a
272.089	0.135	544178	keystroke_s	s	n/a
272.3	0.074	544600	keystroke_t	t	n/a
272.48	0.105	544960	keystroke_r	r	n/a
273.244	0.091	546488	keystroke_Key.backspace	Key.backspace	n/a
273.769	0.091	547538	keystroke_Key.backspace	Key.backspace	n/a
274.19	0.074	548380	keystroke_Key.backspace	Key.backspace	n/a
275.405	0.105	550810	keystroke_c	c	n/a
275.735	0.09	551470	keystroke_r	r	n/a
275.885	0.1505	551770	keystroke_a	a	n/a
276.1405	0.074	552281	keystroke_t	t	n/a
276.3055	0.105	552611	keystroke_s	s	n/a
277.2805	0.089	554561	keystroke_Key.enter	Key.enter	n/a
277.377	11.425	554754	prompt	n/a	disabilities live lawsuit inspections\n
278.2855	0.09	556571	keystroke_d	d	n/a
278.6905	0.105	557381	keystroke_i	i	n/a
278.8705	0.135	557741	keystroke_s	s	n/a
279.4105	0.12	558821	keystroke_a	a	n/a
279.7105	0.12	559421	keystroke_b	b	n/a
279.9355	0.12	559871	keystroke_i	i	n/a
280.1905	0.18	560381	keystroke_l	l	n/a
280.3405	0.12	560681	keystroke_i	i	n/a
280.5805	0.09	561161	keystroke_t	t	n/a
280.7305	0.15	561461	keystroke_i	i	n/a
280.8205	0.15	561641	keystroke_e	e	n/a
280.8955	0.165	561791	keystroke_s	s	n/a
281.2105	0.105	562421	keystroke_Key.space	Key.space	n/a
281.5855	0.105	563171	keystroke_l	l	n/a
281.7355	0.12	563471	keystroke_i	i	n/a
282.0055	0.105	564011	keystroke_v	v	n/a
282.2005	0.135	564401	keystroke_e	e	n/a
282.3805	0.09	564761	keystroke_Key.space	Key.space	n/a
282.6355	0.15	565271	keystroke_l	l	n/a
282.9205	0.105	565841	keystroke_a	a	n/a
283.0855	0.135	566171	keystroke_w	w	n/a
283.4155	0.135	566831	keystroke_s	s	n/a
283.9855	0.135	567971	keystroke_u	u	n/a
284.0755	0.15	568151	keystroke_i	i	n/a
284.2405	0.075	568481	keystroke_t	t	n/a
284.5855	0.105	569171	keystroke_Key.space	Key.space	n/a
285.7105	0.165	571421	keystroke_i	i	n/a
285.8005	0.105	571601	keystroke_n	n	n/a
285.9655	0.15	571931	keystroke_s	s	n/a
286.4905	0.105	572981	keystroke_p	p	n/a
286.6255	0.075	573251	keystroke_e	e	n/a
286.8655	0.09	573731	keystroke_c	c	n/a
287.1205	0.134	574241	keystroke_t	t	n/a
287.2395	0.195	574479	keystroke_i	i	n/a
287.3445	0.166	574689	keystroke_o	o	n/a
287.4645	0.151	574929	keystroke_n	n	n/a
287.6305	0.089	575261	keystroke_s	s	n/a
288.7105	0.089	577421	keystroke_Key.enter	Key.enter	n/a
288.8065	20.291	577613	prompt	n/a	geographic french brazil republicans\n
289.76	0.09	579520	keystroke_g	g	n/a
290.06	0.076	580120	keystroke_e	e	n/a
290.24	0.18	580480	keystroke_o	o	n/a
290.345	0.136	580690	keystroke_p	p	n/a
290.96	0.06	581920	keystroke_g	g	n/a
291.185	0.105	582370	keystroke_r	r	n/a
291.335	0.12	582670	keystroke_a	a	n/a
291.53	0.181	583060	keystroke_p	p	n/a
291.65	0.21	583300	keystroke_h	h	n/a
291.8	0.135	583600	keystroke_i	i	n/a
291.995	0.105	583990	keystroke_c	c	n/a
292.685	0.12	585370	keystroke_Key.space	Key.space	n/a
293.8555	0.075	587711	keystroke_f	f	n/a
294.0655	0.12	588131	keystroke_r	r	n/a
294.2605	0.09	588521	keystroke_e	e	n/a
294.3955	0.105	588791	keystroke_n	n	n/a
294.5305	0.075	589061	keystroke_c	c	n/a
294.6805	0.09	589361	keystroke_h	h	n/a
296.4195	0.12	592839	keystroke_Key.space	Key.space	n/a
303.878	0.057	607756	keystroke_b	b	n/a
304.055	0.105	608110	keystroke_r	r	n/a
304.265	0.106	608530	keystroke_a	a	n/a
304.52	0.136	609040	keystroke_z	z	n/a
304.67	0.165	609340	keystroke_i	i	n/a
304.761	0.134	609522	keystroke_l	l	n/a
305.54	0.105	611080	keystroke_Key.space	Key.space	n/a
305.81	0.18	611620	keystroke_r	r	n/a
305.96	0.105	611920	keystroke_e	e	n/a
306.501	0.149	613002	keystroke_p	p	n/a
306.606	0.105	613212	keystroke_u	u	n/a
306.92	0.12	613840	keystroke_b	b	n/a
307.251	0.194	614502	keystroke_l	l	n/a
307.371	0.134	614742	keystroke_i	i	n/a
307.655	0.105	615310	keystroke_c	c	n/a
308	0.09	616000	keystroke_a	a	n/a
308.12	0.135	616240	keystroke_n	n	n/a
308.24	0.091	616480	keystroke_s	s	n/a
309.035	0.06	618070	keystroke_Key.enter	Key.enter	n/a
309.1035	34.139	618207	prompt	n/a	cargo drops simulation trinidad\n
310.131	0.135	620262	keystroke_c	c	n/a
310.52	0.165	621040	keystroke_a	a	n/a
310.64	0.091	621280	keystroke_r	r	n/a
310.895	0.09	621790	keystroke_g	g	n/a
311.046	0.104	622092	keystroke_o	o	n/a
311.69	0.12	623380	keystroke_Key.space	Key.space	n/a
311.84	0.091	623680	keystroke_d	d	n/a
312.081	0.104	624162	keystroke_r	r	n/a
312.365	0.181	624730	keystroke_o	o	n/a
312.47	0.136	624940	keystroke_p	p	n/a
312.65	0.091	625300	keystroke_s	s	n/a
312.965	0.09	625930	keystroke_Key.space	Key.space	n/a
313.265	0.105	626530	keystroke_s	s	n/a
313.415	0.076	626830	keystroke_i	i	n/a
313.671	0.119	627342	keystroke_m	m	n/a
314.196	0.105	628392	keystroke_u	u	n/a
314.481	0.12	628962	keystroke_l	l	n/a
314.841	0.15	629682	keystroke_t	t	n/a
315.156	0.12	630312	keystroke_a	a	n/a
315.471	0.075	630942	keystroke_t	t	n/a
315.561	0.179	631122	keystroke_i	i	n/a
315.681	0.195	631362	keystroke_o	o	n/a
315.83	0.09	631660	keystroke_n	n	n/a
323.798	0.0725	647596	keystroke_Key.left	Key.left	n/a
324.05	0.12	648100	keystroke_Key.left	Key.left	n/a
324.335	0.09	648670	keystroke_Key.left	Key.left	n/a
324.7105	0.0595	649421	keystroke_Key.left	Key.left	n/a
324.875	0.105	649750	keystroke_Key.left	Key.left	n/a
325.0705	0.105	650141	keystroke_Key.left	Key.left	n/a
326.4655	0.135	652931	keystroke_Key.left	Key.left	n/a
327.47	0.12	654940	keystroke_Key.right	Key.right	n/a
328.401	0.135	656802	keystroke_a	a	n/a
328.746	0.135	657492	keystroke_Key.right	Key.right	n/a
329.076	0.119	658152	keystroke_Key.right	Key.right	n/a
329.466	0.135	658932	keystroke_Key.right	Key.right	n/a
330.336	0.12	660672	keystroke_Key.backspace	Key.backspace	n/a
331.836	0.09	663672	keystroke_Key.backspace	Key.backspace	n/a
332.09	0.106	664180	keystroke_Key.backspace	Key.backspace	n/a
333.006	0.09	666012	keystroke_t	t	n/a
334.446	0.09	668892	keystroke_Key.right	Key.right	n/a
334.67	0.091	669340	keystroke_Key.right	Key.right	n/a
334.926	0.104	669852	keystroke_Key.right	Key.right	n/a
335.42	0.09	670840	keystroke_Key.space	Key.space	n/a
336.306	0.104	672612	keystroke_t	t	n/a
336.516	0.119	673032	keystroke_r	r	n/a
337.536	0.21	675072	keystroke_i	i	n/a
337.67	0.15	675340	keystroke_n	n	n/a
338.36	0.121	676720	keystroke_i	i	n/a
338.645	0.105	677290	keystroke_d	d	n/a
338.825	0.106	677650	keystroke_a	a	n/a
339.006	0.089	678012	keystroke_d	d	n/a
343.239	0.001	686478	keystroke_Key.enter	Key.enter	n/a
343.2465	10.641	686493	prompt	n/a	reminder cindy builders webpage\n
344.136	0.254	688272	keystroke_r	r	n/a
344.511	0.104	689022	keystroke_e	e	n/a
344.751	0.105	689502	keystroke_m	m	n/a
345.006	0.21	690012	keystroke_i	i	n/a
345.156	0.15	690312	keystroke_n	n	n/a
345.321	0.074	690642	keystroke_d	d	n/a
345.516	0.18	691032	keystroke_e	e	n/a
345.651	0.134	691302	keystroke_r	r	n/a
345.966	0.135	691932	keystroke_Key.space	Key.space	n/a
346.701	0.089	693402	keystroke_c	c	n/a
346.881	0.2095	693762	keystroke_i	i	n/a
346.986	0.1195	693972	keystroke_n	n	n/a
347.2105	0.105	694421	keystroke_d	d	n/a
347.3605	0.105	694721	keystroke_y	y	n/a
347.6155	0.135	695231	keystroke_Key.space	Key.space	n/a
348.3805	0.075	696761	keystroke_b	b	n/a
348.7555	0.12	697511	keystroke_u	u	n/a
348.8305	0.195	697661	keystroke_i	i	n/a
349.056	0.164	698112	keystroke_l	l	n/a
349.491	0.09	698982	keystroke_d	d	n/a
349.716	0.18	699432	keystroke_e	e	n/a
349.85	0.12	699700	keystroke_r	r	n/a
350.045	0.15	700090	keystroke_s	s	n/a
351.815	0.135	703630	keystroke_Key.space	Key.space	n/a
352.025	0.15	704050	keystroke_w	w	n/a
352.145	0.15	704290	keystroke_e	e	n/a
352.49	0.135	704980	keystroke_b	b	n/a
352.97	0.1355	705940	keystroke_p	p	n/a
353.0905	0.091	706181	keystroke_a	a	n/a
353.3305	0.105	706661	keystroke_g	g	n/a
353.4055	0.12	706811	keystroke_e	e	n/a
353.8105	0.075	707621	keystroke_Key.enter	Key.enter	n/a
353.895	13.3575	707790	prompt	n/a	tubes sigma ordinance agencies\n
354.8455	0.105	709691	keystroke_t	t	n/a
354.9805	0.12	709961	keystroke_u	u	n/a
355.2355	0.15	710471	keystroke_b	b	n/a
355.3105	0.15	710621	keystroke_e	e	n/a
355.4305	0.135	710861	keystroke_s	s	n/a
355.6855	0.09	711371	keystroke_Key.space	Key.space	n/a
356.0305	0.12	712061	keystroke_s	s	n/a
356.1805	0.105	712361	keystroke_i	i	n/a
356.3455	0.105	712691	keystroke_g	g	n/a
356.5255	0.12	713051	keystroke_m	m	n/a
356.6605	0.105	713321	keystroke_a	a	n/a
357.35	0.135	714700	keystroke_Key.space	Key.space	n/a
357.6055	0.12	715211	keystroke_o	o	n/a
357.7105	0.105	715421	keystroke_r	r	n/a
357.9815	0.179	715963	keystroke_f	f	n/a
358.355	0.121	716710	keystroke_i	i	n/a
358.5805	0.12	717161	keystroke_n	n	n/a
358.745	0.1365	717490	keystroke_a	a	n/a
359.39	0.1365	718780	keystroke_n	n	n/a
359.676	0.105	719352	keystroke_c	c	n/a
360.2155	0.09	720431	keystroke_Key.backspace	Key.backspace	n/a
360.4405	0.06	720881	keystroke_Key.backspace	Key.backspace	n/a
360.6355	0.09	721271	keystroke_Key.backspace	Key.backspace	n/a
360.8455	0.09	721691	keystroke_Key.backspace	Key.backspace	n/a
361.0405	0.075	722081	keystroke_Key.backspace	Key.backspace	n/a
361.2205	0.09	722441	keystroke_Key.backspace	Key.backspace	n/a
362.5855	0.075	725171	keystroke_d	d	n/a
362.7505	0.105	725501	keystroke_i	i	n/a
362.9765	0.119	725953	keystroke_n	n	n/a
363.1105	0.135	726221	keystroke_a	a	n/a
363.2755	0.15	726551	keystroke_n	n	n/a
363.4705	0.135	726941	keystroke_c	c	n/a
363.7255	0.09	727451	keystroke_e	e	n/a
364.3555	0.135	728711	keystroke_Key.space	Key.space	n/a
364.6105	0.12	729221	keystroke_a	a	n/a
364.7605	0.12	729521	keystroke_n	n	n/a
365.1205	0.12	730241	keystroke_g	g	n/a
365.3605	0.12	730721	keystroke_e	e	n/a
365.4655	0.12	730931	keystroke_n	n	n/a
366.0655	0.075	732131	keystroke_c	c	n/a
366.3055	0.105	732611	keystroke_i	i	n/a
366.3955	0.12	732791	keystroke_e	e	n/a
366.4555	0.12	732911	keystroke_s	s	n/a
367.161	0.09	734322	keystroke_Key.enter	Key.enter	n/a
367.2585	10.0595	734517	prompt	n/a	sealed midlands newsletter worm\n
369.729	0.102	739458	keystroke_s	s	n/a
369.966	0.135	739932	keystroke_e	e	n/a
370.191	0.12	740382	keystroke_a	a	n/a
370.326	0.135	740652	keystroke_l	l	n/a
370.536	0.105	741072	keystroke_e	e	n/a
370.746	0.105	741492	keystroke_d	d	n/a
371.016	0.12	742032	keystroke_Key.space	Key.space	n/a
371.316	0.09	742632	keystroke_m	m	n/a
371.571	0.09	743142	keystroke_i	i	n/a
371.781	0.105	743562	keystroke_d	d	n/a
371.946	0.12	743892	keystroke_l	l	n/a
372.081	0.12	744162	keystroke_a	a	n/a
372.261	0.135	744522	keystroke_n	n	n/a
372.426	0.135	744852	keystroke_d	d	n/a
372.531	0.12	745062	keystroke_s	s	n/a
373.521	0.105	747042	keystroke_Key.space	Key.space	n/a
373.731	0.12	747462	keystroke_n	n	n/a
373.821	0.165	747642	keystroke_e	e	n/a
373.911	0.165	747822	keystroke_w	w	n/a
374.181	0.135	748362	keystroke_s	s	n/a
374.436	0.135	748872	keystroke_l	l	n/a
374.736	0.09	749472	keystroke_e	e	n/a
374.931	0.06	749862	keystroke_t	t	n/a
375.096	0.075	750192	keystroke_t	t	n/a
375.216	0.135	750432	keystroke_e	e	n/a
375.306	0.135	750612	keystroke_r	r	n/a
375.711	0.075	751422	keystroke_Key.space	Key.space	n/a
376.011	0.105	752022	keystroke_w	w	n/a
376.131	0.15	752262	keystroke_o	o	n/a
376.281	0.105	752562	keystroke_r	r	n/a
376.446	0.09	752892	keystroke_m	m	n/a
377.2105	0.105	754421	keystroke_Key.enter	Key.enter	n/a
377.3235	11.02	754647	prompt	n/a	treasurer varying applies speeds\n
378.1405	0.075	756281	keystroke_t	t	n/a
378.3505	0.135	756701	keystroke_r	r	n/a
378.5455	0.105	757091	keystroke_e	e	n/a
378.7405	0.09	757481	keystroke_a	a	n/a
378.9505	0.135	757901	keystroke_s	s	n/a
379.1005	0.12	758201	keystroke_u	u	n/a
379.8505	0.12	759701	keystroke_r	r	n/a
380.0905	0.15	760181	keystroke_e	e	n/a
380.1955	0.165	760391	keystroke_r	r	n/a
380.6755	0.105	761351	keystroke_Key.space	Key.space	n/a
381.606	0.105	763212	keystroke_v	v	n/a
381.891	0.12	763782	keystroke_a	a	n/a
382.491	0.105	764982	keystroke_r	r	n/a
382.626	0.135	765252	keystroke_y	y	n/a
383.661	0.21	767322	keystroke_i	i	n/a
383.811	0.135	767622	keystroke_n	n	n/a
383.961	0.105	767922	keystroke_g	g	n/a
384.516	0.135	769032	keystroke_Key.space	Key.space	n/a
384.801	0.1195	769602	keystroke_a	a	n/a
384.9355	0.1055	769871	keystroke_p	p	n/a
385.116	0.12	770232	keystroke_p	p	n/a
385.371	0.12	770742	keystroke_l	l	n/a
385.566	0.15	771132	keystroke_i	i	n/a
385.686	0.18	771372	keystroke_e	e	n/a
385.821	0.12	771642	keystroke_s	s	n/a
386.226	0.09	772452	keystroke_Key.space	Key.space	n/a
386.436	0.135	772872	keystroke_s	s	n/a
386.646	0.12	773292	keystroke_p	p	n/a
386.916	0.06	773832	keystroke_e	e	n/a
387.096	0.105	774192	keystroke_e	e	n/a
387.366	0.09	774732	keystroke_d	d	n/a
387.5155	0.1205	775031	keystroke_s	s	n/a
388.266	0.0745	776532	keystroke_Key.enter	Key.enter	n/a
388.348	6.985	776696	prompt	n/a	return angel tune gang\n
389.331	0.1645	778662	keystroke_r	r	n/a
389.4055	0.15	778811	keystroke_e	e	n/a
389.691	0.0445	779382	keystroke_t	t	n/a
389.7655	0.135	779531	keystroke_u	u	n/a
389.9155	0.135	779831	keystroke_r	r	n/a
390.066	0.0895	780132	keystroke_n	n	n/a
390.591	0.1195	781182	keystroke_Key.space	Key.space	n/a
390.9805	0.135	781961	keystroke_a	a	n/a
391.1005	0.105	782201	keystroke_n	n	n/a
391.311	0.1345	782622	keystroke_g	g	n/a
391.4455	0.1205	782891	keystroke_e	e	n/a
391.5955	0.0755	783191	keystroke_l	l	n/a
392.196	0.1045	784392	keystroke_Key.space	Key.space	n/a
392.5855	0.09	785171	keystroke_t	t	n/a
392.7205	0.1205	785441	keystroke_u	u	n/a
392.9605	0.15	785921	keystroke_n	n	n/a
393.1555	0.0605	786311	keystroke_e	e	n/a
393.7855	0.135	787571	keystroke_Key.space	Key.space	n/a
393.9955	0.105	787991	keystroke_g	g	n/a
394.2205	0.105	788441	keystroke_a	a	n/a
394.3405	0.135	788681	keystroke_n	n	n/a
394.461	0.0895	788922	keystroke_g	g	n/a
395.241	0.0895	790482	keystroke_Key.enter	Key.enter	n/a
395.338	13.585	790676	prompt	n/a	benz bleeding learners elliott\n
396.4555	0.09	792911	keystroke_b	b	n/a
396.6355	0.12	793271	keystroke_e	e	n/a
396.7865	0.134	793573	keystroke_n	n	n/a
397.3105	0.15	794621	keystroke_z	z	n/a
398.4505	0.12	796901	keystroke_Key.space	Key.space	n/a
398.7655	0.03	797531	keystroke_b	b	n/a
398.9455	0.06	797891	keystroke_l	l	n/a
399.5605	0.075	799121	keystroke_e	e	n/a
399.7705	0.06	799541	keystroke_e	e	n/a
399.9655	0.09	799931	keystroke_d	d	n/a
400.0705	0.21	800141	keystroke_i	i	n/a
400.1765	0.179	800353	keystroke_n	n	n/a
400.3405	0.09	800681	keystroke_g	g	n/a
400.6255	0.105	801251	keystroke_Key.space	Key.space	n/a
400.8955	0.105	801791	keystroke_l	l	n/a
401.0305	0.075	802061	keystroke_e	e	n/a
401.2415	0.134	802483	keystroke_a	a	n/a
401.4215	0.119	802843	keystroke_r	r	n/a
401.6155	0.12	803231	keystroke_n	n	n/a
401.7815	0.179	803563	keystroke_e	e	n/a
401.8865	0.134	803773	keystroke_r	r	n/a
402.0355	0.165	804071	keystroke_s	s	n/a
402.9055	0.105	805811	keystroke_Key.space	Key.space	n/a
403.3555	0.06	806711	keystroke_e	e	n/a
405.0965	0.12	810193	keystroke_l	l	n/a
405.3655	0.12	810731	keystroke_l	l	n/a
405.9955	0.195	811991	keystroke_i	i	n/a
406.1155	0.165	812231	keystroke_o	o	n/a
406.7605	0.091	813521	keystroke_t	t	n/a
406.9105	0.091	813821	keystroke_t	t	n/a
408.8305	0.09	817661	keystroke_Key.enter	Key.enter	n/a
408.9295	16.5845	817859	prompt	n/a	quizzes catherine alter defendant\n
409.8805	0.21	819761	keystroke_q	q	n/a
410.0465	0.134	820093	keystroke_u	u	n/a
410.1355	0.181	820271	keystroke_i	i	n/a
410.3765	0.12	820753	keystroke_z	z	n/a
410.5855	0.106	821171	keystroke_z	z	n/a
410.8555	0.151	821711	keystroke_e	e	n/a
410.9455	0.1355	821891	keystroke_s	s	n/a
411.726	0.135	823452	keystroke_Key.space	Key.space	n/a
412.116	0.135	824232	keystroke_c	c	n/a
412.476	0.105	824952	keystroke_a	a	n/a
412.731	0.105	825462	keystroke_t	t	n/a
412.941	0.0895	825882	keystroke_h	h	n/a
413.2105	0.135	826421	keystroke_e	e	n/a
413.4515	0.104	826903	keystroke_r	r	n/a
413.5565	0.179	827113	keystroke_i	i	n/a
413.7505	0.15	827501	keystroke_n	n	n/a
413.9465	0.119	827893	keystroke_e	e	n/a
414.0805	0.105	828161	keystroke_Key.space	Key.space	n/a
415.806	0.12	831612	keystroke_a	a	n/a
415.941	0.12	831882	keystroke_l	l	n/a
416.136	0.135	832272	keystroke_t	t	n/a
416.361	0.135	832722	keystroke_e	e	n/a
416.466	0.15	832932	keystroke_r	r	n/a
416.976	0.06	833952	keystroke_Key.space	Key.space	n/a
417.2165	0.075	834433	keystroke_d	d	n/a
418.596	0.105	837192	keystroke_e	e	n/a
418.866	0.12	837732	keystroke_f	f	n/a
419.451	0.12	838902	keystroke_e	e	n/a
419.931	0.15	839862	keystroke_n	n	n/a
420.276	0.09	840552	keystroke_d	d	n/a
420.516	0.105	841032	keystroke_a	a	n/a
420.606	0.12	841212	keystroke_n	n	n/a
420.786	0.075	841572	keystroke_t	t	n/a
425.484	0.027	850968	keystroke_Key.enter	Key.enter	n/a
425.519	9.625	851038	prompt	n/a	coastal living seminar dans\n
426.741	0.135	853482	keystroke_c	c	n/a
426.936	0.15	853872	keystroke_o	o	n/a
427.116	0.12	854232	keystroke_a	a	n/a
427.341	0.15	854682	keystroke_s	s	n/a
427.686	0.105	855372	keystroke_t	t	n/a
427.896	0.15	855792	keystroke_a	a	n/a
428.061	0.075	856122	keystroke_l	l	n/a
428.376	0.12	856752	keystroke_Key.space	Key.space	n/a
428.646	0.15	857292	keystroke_l	l	n/a
428.751	0.15	857502	keystroke_i	i	n/a
429.441	0.105	858882	keystroke_v	v	n/a
429.651	0.18	859302	keystroke_i	i	n/a
429.771	0.135	859542	keystroke_n	n	n/a
429.936	0.105	859872	keystroke_g	g	n/a
430.296	0.09	860592	keystroke_Key.space	Key.space	n/a
430.596	0.135	861192	keystroke_s	s	n/a
430.9265	0.135	861853	keystroke_e	e	n/a
431.1965	0.09	862393	keystroke_m	m	n/a
431.421	0.105	862842	keystroke_i	i	n/a
431.6915	0.0895	863383	keystroke_n	n	n/a
431.782	0.1645	863564	keystroke_a	a	n/a
431.9165	0.105	863833	keystroke_r	r	n/a
432.6215	0.09	865243	keystroke_Key.space	Key.space	n/a
433.0725	0.104	866145	keystroke_d	d	n/a
433.2965	0.105	866593	keystroke_a	a	n/a
433.4315	0.15	866863	keystroke_n	n	n/a
433.5665	0.091	867133	keystroke_s	s	n/a
435.0815	0.06	870163	keystroke_Key.enter	Key.enter	n/a
435.149	9.954	870298	prompt	n/a	arabic helping nelson suddenly\n
436.0715	0.105	872143	keystroke_a	a	n/a
436.5215	0.135	873043	keystroke_r	r	n/a
436.7615	0.195	873523	keystroke_a	a	n/a
437.661	0.15	875322	keystroke_b	b	n/a
437.752	0.135	875504	keystroke_i	i	n/a
437.872	0.105	875744	keystroke_c	c	n/a
438.487	0.105	876974	keystroke_Key.space	Key.space	n/a
438.726	0.121	877452	keystroke_h	h	n/a
438.832	0.119	877664	keystroke_e	e	n/a
438.981	0.105	877962	keystroke_l	l	n/a
439.221	0.121	878442	keystroke_p	p	n/a
439.717	0.21	879434	keystroke_i	i	n/a
439.852	0.134	879704	keystroke_n	n	n/a
440.812	0.074	881624	keystroke_g	g	n/a
441.1265	0.09	882253	keystroke_Key.space	Key.space	n/a
441.5615	0.12	883123	keystroke_n	n	n/a
441.6665	0.15	883333	keystroke_e	e	n/a
441.8315	0.12	883663	keystroke_l	l	n/a
441.997	0.089	883994	keystroke_s	s	n/a
442.132	0.15	884264	keystroke_o	o	n/a
442.222	0.12	884444	keystroke_n	n	n/a
442.536	0.12	885072	keystroke_Key.space	Key.space	n/a
442.747	0.135	885494	keystroke_s	s	n/a
442.927	0.1045	885854	keystroke_u	u	n/a
443.0465	0.075	886093	keystroke_d	d	n/a
443.2115	0.105	886423	keystroke_d	d	n/a
443.4365	0.12	886873	keystroke_e	e	n/a
443.5415	0.12	887083	keystroke_n	n	n/a
443.9315	0.105	887863	keystroke_l	l	n/a
444.1565	0.091	888313	keystroke_y	y	n/a
445.0265	0.075	890053	keystroke_Key.enter	Key.enter	n/a
445.1095	10.194	890219	prompt	n/a	conviction top skirts reconstruction\n
446.0015	0.105	892003	keystroke_c	c	n/a
446.0915	0.195	892183	keystroke_o	o	n/a
446.2115	0.12	892423	keystroke_n	n	n/a
446.8265	0.15	893653	keystroke_v	v	n/a
447.0515	0.105	894103	keystroke_i	i	n/a
447.2165	0.075	894433	keystroke_c	c	n/a
447.5015	0.105	895003	keystroke_t	t	n/a
447.6365	0.256	895273	keystroke_i	i	n/a
447.7875	0.225	895575	keystroke_o	o	n/a
447.9365	0.1345	895873	keystroke_n	n	n/a
448.1165	0.1195	896233	keystroke_Key.space	Key.space	n/a
448.612	0.074	897224	keystroke_t	t	n/a
449.001	0.196	898002	keystroke_o	o	n/a
449.122	0.135	898244	keystroke_p	p	n/a
449.391	0.135	898782	keystroke_Key.space	Key.space	n/a
449.751	0.1055	899502	keystroke_s	s	n/a
449.8875	0.104	899775	keystroke_k	k	n/a
450.082	0.12	900164	keystroke_i	i	n/a
450.352	0.105	900704	keystroke_r	r	n/a
450.577	0.075	901154	keystroke_t	t	n/a
450.757	0.12	901514	keystroke_s	s	n/a
451.252	0.06	902504	keystroke_Key.space	Key.space	n/a
451.612	0.135	903224	keystroke_r	r	n/a
451.702	0.135	903404	keystroke_e	e	n/a
452.002	0.075	904004	keystroke_c	c	n/a
452.137	0.225	904274	keystroke_o	o	n/a
452.317	0.15	904634	keystroke_n	n	n/a
452.617	0.135	905234	keystroke_s	s	n/a
453.322	0.09	906644	keystroke_t	t	n/a
453.517	0.105	907034	keystroke_r	r	n/a
453.637	0.12	907274	keystroke_u	u	n/a
453.817	0.09	907634	keystroke_c	c	n/a
454.057	0.09	908114	keystroke_t	t	n/a
454.162	0.18	908324	keystroke_i	i	n/a
454.252	0.225	908504	keystroke_o	o	n/a
454.417	0.135	908834	keystroke_n	n	n/a
455.227	0.075	910454	keystroke_Key.enter	Key.enter	n/a
455.3085	12.7425	910617	prompt	n/a	concentrate dumb claims mods\n
458.11	0.057	916220	keystroke_c	c	n/a
458.227	0.18	916454	keystroke_o	o	n/a
458.332	0.15	916664	keystroke_n	n	n/a
458.692	0.09	917384	keystroke_c	c	n/a
458.947	0.165	917894	keystroke_e	e	n/a
459.127	0.15	918254	keystroke_n	n	n/a
459.352	0.09	918704	keystroke_t	t	n/a
459.532	0.12	919064	keystroke_r	r	n/a
459.682	0.135	919364	keystroke_a	a	n/a
461.167	0.105	922334	keystroke_t	t	n/a
461.257	0.225	922514	keystroke_i	i	n/a
461.407	0.21	922814	keystroke_o	o	n/a
461.557	0.1045	923114	keystroke_n	n	n/a
461.8565	0.12	923713	keystroke_Key.space	Key.space	n/a
462.4715	0.09	924943	keystroke_d	d	n/a
462.5465	0.105	925093	keystroke_u	u	n/a
462.7865	0.12	925573	keystroke_m	m	n/a
463.611	0.075	927222	keystroke_b	b	n/a
464.0905	0.105	928181	keystroke_Key.space	Key.space	n/a
464.4055	0.09	928811	keystroke_c	c	n/a
464.7205	0.12	929441	keystroke_l	l	n/a
465.0505	0.105	930101	keystroke_a	a	n/a
465.1855	0.1045	930371	keystroke_i	i	n/a
465.425	0.15	930850	keystroke_m	m	n/a
465.56	0.105	931120	keystroke_s	s	n/a
465.83	0.105	931660	keystroke_Key.space	Key.space	n/a
466.265	0.105	932530	keystroke_m	m	n/a
466.4745	0.12	932949	keystroke_o	o	n/a
466.6545	0.12	933309	keystroke_d	d	n/a
466.7445	0.12	933489	keystroke_s	s	n/a
467.959	0.09	935918	keystroke_Key.enter	Key.enter	n/a
468.059	16.561	936118	prompt	n/a	deadly houston window sparc\n
468.7685	0.09	937537	keystroke_d	d	n/a
469.0235	0.061	938047	keystroke_e	e	n/a
469.173	0.091	938346	keystroke_e	e	n/a
469.384	0.105	938768	keystroke_d	d	n/a
469.548	0.105	939096	keystroke_l	l	n/a
470.358	0.1055	940716	keystroke_y	y	n/a
470.9125	0.15	941825	keystroke_Key.space	Key.space	n/a
471.3775	0.105	942755	keystroke_h	h	n/a
471.603	0.1945	943206	keystroke_o	o	n/a
471.7225	0.15	943445	keystroke_u	u	n/a
471.9025	0.18	943805	keystroke_s	s	n/a
472.1275	0.105	944255	keystroke_t	t	n/a
472.2475	0.18	944495	keystroke_o	o	n/a
472.3675	0.135	944735	keystroke_n	n	n/a
473.7775	0.075	947555	keystroke_Key.backspace	Key.backspace	n/a
473.9725	0.075	947945	keystroke_Key.backspace	Key.backspace	n/a
474.168	0.075	948336	keystroke_Key.backspace	Key.backspace	n/a
474.378	0.075	948756	keystroke_Key.backspace	Key.backspace	n/a
474.558	0.09	949116	keystroke_Key.backspace	Key.backspace	n/a
474.768	0.075	949536	keystroke_Key.backspace	Key.backspace	n/a
474.963	0.075	949926	keystroke_Key.backspace	Key.backspace	n/a
475.157	0.06	950314	keystroke_Key.backspace	Key.backspace	n/a
475.338	0.089	950676	keystroke_Key.backspace	Key.backspace	n/a
475.547	0.075	951094	keystroke_Key.backspace	Key.backspace	n/a
475.743	0.089	951486	keystroke_Key.backspace	Key.backspace	n/a
475.968	0.09	951936	keystroke_Key.backspace	Key.backspace	n/a
477.093	0.1195	954186	keystroke_a	a	n/a
477.3025	0.12	954605	keystroke_d	d	n/a
477.5425	0.0905	955085	keystroke_l	l	n/a
477.783	0.1045	955566	keystroke_y	y	n/a
478.4275	0.135	956855	keystroke_Key.space	Key.space	n/a
478.683	0.12	957366	keystroke_h	h	n/a
478.848	0.1345	957696	keystroke_o	o	n/a
478.9825	0.15	957965	keystroke_u	u	n/a
479.2225	0.135	958445	keystroke_s	s	n/a
479.4925	0.105	958985	keystroke_t	t	n/a
479.643	0.165	959286	keystroke_o	o	n/a
479.748	0.1345	959496	keystroke_n	n	n/a
480.4525	0.1355	960905	keystroke_Key.space	Key.space	n/a
480.7525	0.12	961505	keystroke_w	w	n/a
480.8875	0.18	961775	keystroke_i	i	n/a
481.0225	0.165	962045	keystroke_n	n	n/a
481.2325	0.12	962465	keystroke_d	d	n/a
481.623	0.0895	963246	keystroke_o	o	n/a
481.7725	0.09	963545	keystroke_w	w	n/a
482.073	0.12	964146	keystroke_Key.space	Key.space	n/a
482.3425	0.105	964685	keystroke_s	s	n/a
482.538	0.12	965076	keystroke_p	p	n/a
482.7775	0.195	965555	keystroke_a	a	n/a
482.9125	0.105	965825	keystroke_r	r	n/a
483.3925	0.105	966785	keystroke_c	c	n/a
484.548	0.06	969096	keystroke_Key.enter	Key.enter	n/a
484.624	18.631	969248	prompt	n/a	singles protocol checked mere\n
485.418	0.1195	970836	keystroke_s	s	n/a
485.5825	0.1955	971165	keystroke_o	o	n/a
485.718	0.165	971436	keystroke_n	n	n/a
485.928	0.09	971856	keystroke_g	g	n/a
486.078	0.105	972156	keystroke_l	l	n/a
486.198	0.12	972396	keystroke_e	e	n/a
486.408	0.12	972816	keystroke_s	s	n/a
487.263	0.12	974526	keystroke_Key.space	Key.space	n/a
487.638	0.105	975276	keystroke_p	p	n/a
487.788	0.12	975576	keystroke_r	r	n/a
487.923	0.12	975846	keystroke_o	o	n/a
488.328	0.075	976656	keystroke_t	t	n/a
488.463	0.15	976926	keystroke_o	o	n/a
488.658	0.105	977316	keystroke_c	c	n/a
488.9125	0.121	977825	keystroke_o	o	n/a
489.1385	0.089	978277	keystroke_l	l	n/a
489.5425	0.12	979085	keystroke_Key.space	Key.space	n/a
491.4475	0.105	982895	keystroke_Key.left	Key.left	n/a
491.6725	0.09	983345	keystroke_Key.left	Key.left	n/a
491.8375	0.09	983675	keystroke_Key.left	Key.left	n/a
492.0025	0.105	984005	keystroke_Key.left	Key.left	n/a
492.1985	0.089	984397	keystroke_Key.left	Key.left	n/a
492.3935	0.074	984787	keystroke_Key.left	Key.left	n/a
492.5725	0.091	985145	keystroke_Key.left	Key.left	n/a
492.7375	0.09	985475	keystroke_Key.left	Key.left	n/a
492.917	0.091	985834	keystroke_Key.left	Key.left	n/a
493.097	0.091	986194	keystroke_Key.left	Key.left	n/a
493.2775	0.106	986555	keystroke_Key.left	Key.left	n/a
493.4725	0.091	986945	keystroke_Key.left	Key.left	n/a
493.6525	0.106	987305	keystroke_Key.left	Key.left	n/a
493.8475	0.12	987695	keystroke_Key.left	Key.left	n/a
494.087	0.1215	988174	keystroke_Key.left	Key.left	n/a
495.0025	0.09	990005	keystroke_Key.backspace	Key.backspace	n/a
495.3485	0.105	990697	keystroke_i	i	n/a
496.0385	0.0745	992077	keystroke_Key.right	Key.right	n/a
496.2325	0.0755	992465	keystroke_Key.right	Key.right	n/a
496.427	0.091	992854	keystroke_Key.right	Key.right	n/a
496.637	0.061	993274	keystroke_Key.right	Key.right	n/a
496.832	0.076	993664	keystroke_Key.right	Key.right	n/a
497.028	0.06	994056	keystroke_Key.right	Key.right	n/a
497.2225	0.06	994445	keystroke_Key.right	Key.right	n/a
497.433	0.06	994866	keystroke_Key.right	Key.right	n/a
497.628	0.06	995256	keystroke_Key.right	Key.right	n/a
497.838	0.045	995676	keystroke_Key.right	Key.right	n/a
498.048	0.06	996096	keystroke_Key.right	Key.right	n/a
498.258	0.06	996516	keystroke_Key.right	Key.right	n/a
498.453	0.075	996906	keystroke_Key.right	Key.right	n/a
498.648	0.09	997296	keystroke_Key.right	Key.right	n/a
499.518	0.15	999036	keystroke_Key.space	Key.space	n/a
500.073	0.12	1000146	keystroke_c	c	n/a
500.208	0.105	1000416	keystroke_h	h	n/a
500.358	0.09	1000716	keystroke_e	e	n/a
500.613	0.075	1001226	keystroke_c	c	n/a
500.748	0.12	1001496	keystroke_k	k	n/a
500.883	0.075	1001766	keystroke_e	e	n/a
501.108	0.06	1002216	keystroke_d	d	n/a
501.528	0.09	1003056	keystroke_Key.space	Key.space	n/a
501.753	0.12	1003506	keystroke_m	m	n/a
501.948	0.105	1003896	keystroke_e	e	n/a
502.128	0.18	1004256	keystroke_r	r	n/a
502.248	0.135	1004496	keystroke_e	e	n/a
503.1625	0.09	1006325	keystroke_Key.enter	Key.enter	n/a
503.2585	8.9215	1006517	prompt	n/a	shed stakeholders trees isle\n
504.0035	0.12	1008007	keystroke_s	s	n/a
504.1535	0.135	1008307	keystroke_h	h	n/a
504.2735	0.09	1008547	keystroke_e	e	n/a
504.4835	0.075	1008967	keystroke_d	d	n/a
504.7535	0.12	1009507	keystroke_Key.space	Key.space	n/a
505.0385	0.135	1010077	keystroke_s	s	n/a
505.2935	0.075	1010587	keystroke_t	t	n/a
505.4875	0.15	1010975	keystroke_a	a	n/a
505.6835	0.134	1011367	keystroke_k	k	n/a
506.1625	0.106	1012325	keystroke_e	e	n/a
506.4785	0.165	1012957	keystroke_h	h	n/a
506.5835	0.119	1013167	keystroke_o	o	n/a
506.8225	0.136	1013645	keystroke_l	l	n/a
506.9725	0.091	1013945	keystroke_d	d	n/a
507.198	0.1505	1014396	keystroke_e	e	n/a
507.2885	0.15	1014577	keystroke_r	r	n/a
507.5585	0.12	1015117	keystroke_s	s	n/a
508.248	0.105	1016496	keystroke_Key.space	Key.space	n/a
508.563	0.06	1017126	keystroke_f	f	n/a
508.968	0.105	1017936	keystroke_Key.backspace	Key.backspace	n/a
509.118	0.075	1018236	keystroke_t	t	n/a
509.328	0.135	1018656	keystroke_r	r	n/a
509.598	0.075	1019196	keystroke_e	e	n/a
509.809	0.075	1019618	keystroke_e	e	n/a
510.004	0.105	1020008	keystroke_s	s	n/a
510.258	0.09	1020516	keystroke_Key.space	Key.space	n/a
510.483	0.12	1020966	keystroke_i	i	n/a
510.738	0.105	1021476	keystroke_s	s	n/a
510.934	0.089	1021868	keystroke_l	l	n/a
511.053	0.06	1022106	keystroke_e	e	n/a
512.103	0.075	1024206	keystroke_Key.enter	Key.enter	n/a
512.1845	14.456	1024369	prompt	n/a	stories indianapolis attention massage\n
512.959	0.1495	1025918	keystroke_s	s	n/a
513.1835	0.1045	1026367	keystroke_t	t	n/a
513.333	0.121	1026666	keystroke_o	o	n/a
513.484	0.134	1026968	keystroke_r	r	n/a
513.664	0.1485	1027328	keystroke_i	i	n/a
513.7685	0.135	1027537	keystroke_e	e	n/a
513.8575	0.15	1027715	keystroke_s	s	n/a
514.3375	0.09	1028675	keystroke_Key.space	Key.space	n/a
514.984	0.1945	1029968	keystroke_i	i	n/a
515.1475	0.1215	1030295	keystroke_n	n	n/a
515.493	0.106	1030986	keystroke_d	d	n/a
515.674	0.135	1031348	keystroke_i	i	n/a
515.974	0.119	1031948	keystroke_a	a	n/a
516.229	0.134	1032458	keystroke_n	n	n/a
516.393	0.136	1032786	keystroke_a	a	n/a
516.648	0.166	1033296	keystroke_p	p	n/a
516.739	0.134	1033478	keystroke_o	o	n/a
517.023	0.151	1034046	keystroke_l	l	n/a
517.129	0.135	1034258	keystroke_i	i	n/a
517.279	0.134	1034558	keystroke_s	s	n/a
517.548	0.12	1035096	keystroke_Key.space	Key.space	n/a
517.909	0.15	1035818	keystroke_a	a	n/a
518.419	0.075	1036838	keystroke_t	t	n/a
518.584	0.075	1037168	keystroke_t	t	n/a
518.763	0.135	1037526	keystroke_e	e	n/a
518.914	0.15	1037828	keystroke_n	n	n/a
519.259	0.075	1038518	keystroke_t	t	n/a
519.364	0.24	1038728	keystroke_i	i	n/a
519.484	0.255	1038968	keystroke_o	o	n/a
519.709	0.105	1039418	keystroke_n	n	n/a
524.662	0.072	1049324	keystroke_Key.space	Key.space	n/a
524.974	0.09	1049948	keystroke_m	m	n/a
525.094	0.12	1050188	keystroke_a	a	n/a
525.334	0.09	1050668	keystroke_s	s	n/a
525.499	0.105	1050998	keystroke_s	s	n/a
525.709	0.105	1051418	keystroke_a	a	n/a
525.919	0.15	1051838	keystroke_g	g	n/a
526.054	0.105	1052108	keystroke_e	e	n/a
526.564	0.075	1053128	keystroke_Key.enter	Key.enter	n/a
526.6455	9.19	1053291	prompt	n/a	believed walls utils copy\n
527.4335	0.12	1054867	keystroke_b	b	n/a
527.5685	0.09	1055137	keystroke_e	e	n/a
527.7335	0.165	1055467	keystroke_l	l	n/a
527.8535	0.165	1055707	keystroke_i	i	n/a
528.4385	0.09	1056877	keystroke_e	e	n/a
528.6635	0.09	1057327	keystroke_v	v	n/a
528.7835	0.105	1057567	keystroke_e	e	n/a
528.994	0.09	1057988	keystroke_d	d	n/a
529.504	0.135	1059008	keystroke_Key.space	Key.space	n/a
529.819	0.15	1059638	keystroke_w	w	n/a
529.984	0.15	1059968	keystroke_a	a	n/a
530.149	0.105	1060298	keystroke_l	l	n/a
530.329	0.135	1060658	keystroke_l	l	n/a
530.539	0.12	1061078	keystroke_s	s	n/a
530.748	0.106	1061496	keystroke_Key.space	Key.space	n/a
531.123	0.105	1062246	keystroke_u	u	n/a
531.469	0.105	1062938	keystroke_n	n	n/a
531.903	0.09	1063806	keystroke_Key.backspace	Key.backspace	n/a
532.473	0.091	1064946	keystroke_t	t	n/a
532.624	0.149	1065248	keystroke_i	i	n/a
532.714	0.135	1065428	keystroke_l	l	n/a
533.6885	0.09	1067377	keystroke_s	s	n/a
534.4985	0.12	1068997	keystroke_Key.space	Key.space	n/a
534.7385	0.09	1069477	keystroke_c	c	n/a
534.8435	0.12	1069687	keystroke_o	o	n/a
535.0535	0.105	1070107	keystroke_p	p	n/a
535.2635	0.105	1070527	keystroke_y	y	n/a
535.759	0.075	1071518	keystroke_Key.enter	Key.enter	n/a
535.8405	12.327	1071681	prompt	n/a	developments flags floors newsletter\n
536.704	0.09	1073408	keystroke_d	d	n/a
536.914	0.09	1073828	keystroke_e	e	n/a
537.2135	0.105	1074427	keystroke_v	v	n/a
537.4385	0.091	1074877	keystroke_e	e	n/a
537.7085	0.105	1075417	keystroke_l	l	n/a
537.8735	0.21	1075747	keystroke_o	o	n/a
538.0385	0.105	1076077	keystroke_p	p	n/a
538.8935	0.09	1077787	keystroke_m	m	n/a
539.0135	0.15	1078027	keystroke_e	e	n/a
539.1185	0.1355	1078237	keystroke_n	n	n/a
539.269	0.105	1078538	keystroke_t	t	n/a
539.464	0.135	1078928	keystroke_s	s	n/a
539.644	0.1195	1079288	keystroke_Key.space	Key.space	n/a
540.4235	0.165	1080847	keystroke_f	f	n/a
540.5735	0.12	1081147	keystroke_l	l	n/a
540.7385	0.12	1081477	keystroke_a	a	n/a
540.9935	0.105	1081987	keystroke_g	g	n/a
541.3985	0.105	1082797	keystroke_s	s	n/a
541.6535	0.12	1083307	keystroke_Key.space	Key.space	n/a
542.0435	0.075	1084087	keystroke_f	f	n/a
542.1935	0.09	1084387	keystroke_l	l	n/a
542.4035	0.075	1084807	keystroke_o	o	n/a
542.5835	0.135	1085167	keystroke_o	o	n/a
542.7335	0.075	1085467	keystroke_r	r	n/a
542.9585	0.12	1085917	keystroke_s	s	n/a
543.1985	0.1055	1086397	keystroke_Key.space	Key.space	n/a
543.409	0.1195	1086818	keystroke_n	n	n/a
543.5135	0.165	1087027	keystroke_e	e	n/a
543.6035	0.15	1087207	keystroke_w	w	n/a
543.8735	0.09	1087747	keystroke_s	s	n/a
544.849	0.12	1089698	keystroke_l	l	n/a
545.824	0.09	1091648	keystroke_e	e	n/a
546.049	0.075	1092098	keystroke_t	t	n/a
546.229	0.075	1092458	keystroke_t	t	n/a
546.364	0.285	1092728	keystroke_e	e	n/a
546.799	0.09	1093598	keystroke_r	r	n/a
548.059	0.105	1096118	keystroke_Key.enter	Key.enter	n/a
548.172	10.239	1096344	prompt	n/a	wealth vertical confused overall\n
548.885	0.164	1097770	keystroke_w	w	n/a
548.989	0.135	1097978	keystroke_e	e	n/a
549.214	0.15	1098428	keystroke_a	a	n/a
549.379	0.105	1098758	keystroke_l	l	n/a
549.589	0.075	1099178	keystroke_t	t	n/a
549.694	0.06	1099388	keystroke_h	h	n/a
550.294	0.135	1100588	keystroke_Key.space	Key.space	n/a
550.969	0.135	1101938	keystroke_v	v	n/a
551.284	0.15	1102568	keystroke_e	e	n/a
551.404	0.135	1102808	keystroke_r	r	n/a
551.794	0.075	1103588	keystroke_t	t	n/a
551.914	0.135	1103828	keystroke_i	i	n/a
552.214	0.121	1104428	keystroke_c	c	n/a
552.454	0.12	1104908	keystroke_a	a	n/a
552.619	0.105	1105238	keystroke_l	l	n/a
553.024	0.12	1106048	keystroke_Key.space	Key.space	n/a
553.699	0.135	1107398	keystroke_c	c	n/a
553.864	0.18	1107728	keystroke_o	o	n/a
553.984	0.135	1107968	keystroke_n	n	n/a
554.224	0.105	1108448	keystroke_f	f	n/a
554.344	0.105	1108688	keystroke_u	u	n/a
554.464	0.165	1108928	keystroke_s	s	n/a
554.569	0.12	1109138	keystroke_e	e	n/a
554.824	0.105	1109648	keystroke_d	d	n/a
555.2435	0.136	1110487	keystroke_Key.space	Key.space	n/a
555.5445	0.105	1111089	keystroke_o	o	n/a
555.8295	0.12	1111659	keystroke_v	v	n/a
556.2045	0.12	1112409	keystroke_e	e	n/a
556.3095	0.09	1112619	keystroke_r	r	n/a
556.6095	0.09	1113219	keystroke_f	f	n/a
557.074	0.1045	1114148	keystroke_Key.backspace	Key.backspace	n/a
557.1935	0.091	1114387	keystroke_r	r	n/a
557.3595	0.104	1114719	keystroke_a	a	n/a
557.5535	0.09	1115107	keystroke_l	l	n/a
557.7185	0.09	1115437	keystroke_l	l	n/a
558.334	0.075	1116668	keystroke_Key.enter	Key.enter	n/a
558.4155	13.631	1116831	prompt	n/a	affordable reflections interesting readily\n
559.279	0.075	1118558	keystroke_a	a	n/a
559.474	0.075	1118948	keystroke_f	f	n/a
559.654	0.075	1119308	keystroke_f	f	n/a
559.789	0.12	1119578	keystroke_o	o	n/a
559.879	0.12	1119758	keystroke_r	r	n/a
560.149	0.09	1120298	keystroke_d	d	n/a
560.374	0.105	1120748	keystroke_a	a	n/a
560.584	0.165	1121168	keystroke_b	b	n/a
560.689	0.12	1121378	keystroke_l	l	n/a
560.824	0.09	1121648	keystroke_e	e	n/a
561.229	0.12	1122458	keystroke_Key.space	Key.space	n/a
561.664	0.165	1123328	keystroke_r	r	n/a
561.769	0.12	1123538	keystroke_e	e	n/a
562.294	0.135	1124588	keystroke_f	f	n/a
562.444	0.135	1124888	keystroke_e	e	n/a
562.729	0.15	1125458	keystroke_l	l	n/a
563.524	0.0905	1127048	keystroke_=	=	n/a
564.0495	0.1195	1128099	keystroke_Key.backspace	Key.backspace	n/a
564.3795	0.12	1128759	keystroke_Key.backspace	Key.backspace	n/a
564.814	0.1055	1129628	keystroke_Key.backspace	Key.backspace	n/a
565.6995	0.12	1131399	keystroke_l	l	n/a
565.9545	0.09	1131909	keystroke_e	e	n/a
566.1945	0.09	1132389	keystroke_c	c	n/a
566.4345	0.12	1132869	keystroke_t	t	n/a
566.5395	0.165	1133079	keystroke_i	i	n/a
566.5995	0.21	1133199	keystroke_o	o	n/a
566.7645	0.12	1133529	keystroke_n	n	n/a
566.9145	0.1345	1133829	keystroke_s	s	n/a
567.094	0.135	1134188	keystroke_Key.space	Key.space	n/a
567.635	0.194	1135270	keystroke_i	i	n/a
567.769	0.105	1135538	keystroke_n	n	n/a
567.994	0.105	1135988	keystroke_t	t	n/a
568.114	0.135	1136228	keystroke_e	e	n/a
568.25	0.149	1136500	keystroke_r	r	n/a
568.339	0.165	1136678	keystroke_e	e	n/a
568.534	0.195	1137068	keystroke_s	s	n/a
568.744	0.105	1137488	keystroke_t	t	n/a
568.939	0.165	1137878	keystroke_i	i	n/a
569.029	0.135	1138058	keystroke_n	n	n/a
569.179	0.12	1138358	keystroke_g	g	n/a
569.359	0.105	1138718	keystroke_Key.space	Key.space	n/a
569.989	0.15	1139978	keystroke_r	r	n/a
570.064	0.21	1140128	keystroke_e	e	n/a
570.259	0.18	1140518	keystroke_a	a	n/a
570.679	0.09	1141358	keystroke_d	d	n/a
571.0395	0.105	1142079	keystroke_i	i	n/a
571.2345	0.12	1142469	keystroke_l	l	n/a
571.4145	0.12	1142829	keystroke_y	y	n/a
571.9545	0.09	1143909	keystroke_Key.enter	Key.enter	n/a
572.052	10.689	1144104	prompt	n/a	proportion reputation moss calls\n
572.8095	0.09	1145619	keystroke_p	p	n/a
573.2595	0.12	1146519	keystroke_r	r	n/a
573.3645	0.105	1146729	keystroke_o	o	n/a
573.6195	0.135	1147239	keystroke_p	p	n/a
573.9645	0.12	1147929	keystroke_o	o	n/a
574.0995	0.12	1148199	keystroke_r	r	n/a
574.3695	0.09	1148739	keystroke_t	t	n/a
574.5795	0.21	1149159	keystroke_i	i	n/a
574.6845	0.21	1149369	keystroke_o	o	n/a
574.8345	0.15	1149669	keystroke_n	n	n/a
575.0445	0.135	1150089	keystroke_Key.space	Key.space	n/a
575.7195	0.165	1151439	keystroke_r	r	n/a
575.8245	0.135	1151649	keystroke_e	e	n/a
576.1395	0.1205	1152279	keystroke_p	p	n/a
576.6645	0.1055	1153329	keystroke_u	u	n/a
576.9045	0.09	1153809	keystroke_t	t	n/a
577.5045	0.15	1155009	keystroke_a	a	n/a
577.8345	0.09	1155669	keystroke_t	t	n/a
577.9545	0.21	1155909	keystroke_i	i	n/a
578.06	0.2095	1156120	keystroke_o	o	n/a
578.2395	0.1055	1156479	keystroke_n	n	n/a
578.5245	0.105	1157049	keystroke_Key.space	Key.space	n/a
578.7345	0.075	1157469	keystroke_m	m	n/a
578.9145	0.12	1157829	keystroke_o	o	n/a
579.1545	0.105	1158309	keystroke_o	o	n/a
579.6495	0.105	1159299	keystroke_Key.backspace	Key.backspace	n/a
579.8295	0.09	1159659	keystroke_s	s	n/a
580.0095	0.15	1160019	keystroke_s	s	n/a
580.4895	0.135	1160979	keystroke_Key.space	Key.space	n/a
580.8945	0.105	1161789	keystroke_c	c	n/a
581.0595	0.15	1162119	keystroke_a	a	n/a
581.2845	0.105	1162569	keystroke_l	l	n/a
581.4495	0.15	1162899	keystroke_l	l	n/a
581.5845	0.09	1163169	keystroke_s	s	n/a
582.6495	0.09	1165299	keystroke_Key.enter	Key.enter	n/a
582.746	14.606	1165492	prompt	n/a	reload frankfurt invoice gravity\n
583.5795	0.165	1167159	keystroke_r	r	n/a
583.6695	0.135	1167339	keystroke_e	e	n/a
583.8345	0.135	1167669	keystroke_l	l	n/a
584.1495	0.105	1168299	keystroke_o	o	n/a
584.3445	0.105	1168689	keystroke_a	a	n/a
584.5845	0.06	1169169	keystroke_d	d	n/a
585.0195	0.105	1170039	keystroke_Key.space	Key.space	n/a
585.9045	0.105	1171809	keystroke_f	f	n/a
586.1445	0.09	1172289	keystroke_r	r	n/a
586.2945	0.165	1172589	keystroke_a	a	n/a
586.4445	0.12	1172889	keystroke_n	n	n/a
587.224	0.135	1174448	keystroke_k	k	n/a
588.139	0.105	1176278	keystroke_f	f	n/a
588.304	0.18	1176608	keystroke_u	u	n/a
588.455	0.104	1176910	keystroke_r	r	n/a
588.679	0.06	1177358	keystroke_t	t	n/a
589.4	0.134	1178800	keystroke_Key.space	Key.space	n/a
590.4045	0.18	1180809	keystroke_i	i	n/a
590.4805	0.165	1180961	keystroke_n	n	n/a
590.8245	0.105	1181649	keystroke_v	v	n/a
591.0195	0.195	1182039	keystroke_o	o	n/a
591.1095	0.165	1182219	keystroke_i	i	n/a
593.0895	0.135	1186179	keystroke_c	c	n/a
593.3295	0.09	1186659	keystroke_e	e	n/a
594.4845	0.15	1188969	keystroke_Key.space	Key.space	n/a
594.9045	0.075	1189809	keystroke_g	g	n/a
595.0995	0.135	1190199	keystroke_r	r	n/a
595.6095	0.15	1191219	keystroke_a	a	n/a
596.2095	0.105	1192419	keystroke_v	v	n/a
596.3595	0.105	1192719	keystroke_i	i	n/a
596.5095	0.09	1193019	keystroke_t	t	n/a
596.6595	0.105	1193319	keystroke_y	y	n/a
597.2445	0.105	1194489	keystroke_Key.enter	Key.enter	n/a
597.3585	12.324	1194717	prompt	n/a	surfing integrated scoop gore\n
598.4595	0.12	1196919	keystroke_u	u	n/a
599.4795	0.12	1198959	keystroke_Key.backspace	Key.backspace	n/a
599.9745	0.121	1199949	keystroke_s	s	n/a
600.2755	0.119	1200551	keystroke_u	u	n/a
600.3805	0.104	1200761	keystroke_r	r	n/a
600.7995	0.12	1201599	keystroke_f	f	n/a
601.0405	0.224	1202081	keystroke_i	i	n/a
601.1745	0.151	1202349	keystroke_n	n	n/a
601.2795	0.105	1202559	keystroke_g	g	n/a
601.5505	0.104	1203101	keystroke_Key.space	Key.space	n/a
601.9845	0.2255	1203969	keystroke_i	i	n/a
602.135	0.15	1204270	keystroke_n	n	n/a
602.345	0.12	1204690	keystroke_t	t	n/a
602.78	0.105	1205560	keystroke_e	e	n/a
603.17	0.09	1206340	keystroke_g	g	n/a
603.395	0.135	1206790	keystroke_r	r	n/a
603.515	0.195	1207030	keystroke_a	a	n/a
603.815	0.135	1207630	keystroke_t	t	n/a
603.935	0.135	1207870	keystroke_e	e	n/a
604.175	0.105	1208350	keystroke_d	d	n/a
604.385	0.15	1208770	keystroke_Key.space	Key.space	n/a
604.73	0.09	1209460	keystroke_s	s	n/a
605.03	0.09	1210060	keystroke_c	c	n/a
605.405	0.075	1210810	keystroke_o	o	n/a
605.585	0.165	1211170	keystroke_o	o	n/a
605.69	0.12	1211380	keystroke_p	p	n/a
608.4235	0.072	1216847	keystroke_Key.space	Key.space	n/a
608.7955	0.075	1217591	keystroke_g	g	n/a
608.9455	0.135	1217891	keystroke_o	o	n/a
609.0955	0.0745	1218191	keystroke_r	r	n/a
609.14	0.135	1218280	keystroke_e	e	n/a
609.605	0.0755	1219210	keystroke_Key.enter	Key.enter	n/a
609.688	16.149	1219376	prompt	n/a	weighted processors plains permanent\n
610.58	0.1355	1221160	keystroke_w	w	n/a
610.985	0.105	1221970	keystroke_e	e	n/a
611.075	0.12	1222150	keystroke_i	i	n/a
611.27	0.105	1222540	keystroke_g	g	n/a
611.466	0.089	1222932	keystroke_h	h	n/a
611.601	0.089	1223202	keystroke_t	t	n/a
611.795	0.106	1223590	keystroke_e	e	n/a
612.021	0.089	1224042	keystroke_d	d	n/a
612.3795	0.105	1224759	keystroke_Key.space	Key.space	n/a
612.7555	0.104	1225511	keystroke_p	p	n/a
613.265	0.165	1226530	keystroke_r	r	n/a
613.37	0.135	1226740	keystroke_e	e	n/a
614.8695	0.105	1229739	keystroke_Key.backspace	Key.backspace	n/a
615.1855	0.134	1230371	keystroke_o	o	n/a
615.7095	0.136	1231419	keystroke_c	c	n/a
616.3255	0.15	1232651	keystroke_e	e	n/a
616.5805	0.09	1233161	keystroke_s	s	n/a
616.7755	0.134	1233551	keystroke_s	s	n/a
616.9255	0.1195	1233851	keystroke_o	o	n/a
617.06	0.105	1234120	keystroke_r	r	n/a
617.21	0.135	1234420	keystroke_s	s	n/a
618.62	0.165	1237240	keystroke_Key.space	Key.space	n/a
618.906	0.104	1237812	keystroke_p	p	n/a
619.13	0.15	1238260	keystroke_l	l	n/a
619.34	0.15	1238680	keystroke_a	a	n/a
619.52	0.225	1239040	keystroke_i	i	n/a
619.64	0.18	1239280	keystroke_n	n	n/a
619.85	0.12	1239700	keystroke_s	s	n/a
620.21	0.12	1240420	keystroke_Key.space	Key.space	n/a
620.705	0.12	1241410	keystroke_p	p	n/a
621.17	0.1355	1242340	keystroke_e	e	n/a
621.2905	0.135	1242581	keystroke_r	r	n/a
621.5755	0.12	1243151	keystroke_m	m	n/a
621.8905	0.165	1243781	keystroke_a	a	n/a
622.1605	0.255	1244321	keystroke_n	n	n/a
623.5405	0.165	1247081	keystroke_e	e	n/a
623.8105	0.18	1247621	keystroke_n	n	n/a
623.9305	0.09	1247861	keystroke_t	t	n/a
625.7455	0.09	1251491	keystroke_Key.enter	Key.enter	n/a
625.8415	7.6155	1251683	prompt	n/a	amateur knew bands locally\n
626.9455	0.1345	1253891	keystroke_a	a	n/a
627.11	0.12	1254220	keystroke_m	m	n/a
627.2	0.12	1254400	keystroke_a	a	n/a
627.455	0.105	1254910	keystroke_t	t	n/a
627.89	0.15	1255780	keystroke_e	e	n/a
628.085	0.1505	1256170	keystroke_u	u	n/a
628.2505	0.075	1256501	keystroke_r	r	n/a
629.105	0.105	1258210	keystroke_Key.space	Key.space	n/a
629.33	0.105	1258660	keystroke_k	k	n/a
629.51	0.18	1259020	keystroke_n	n	n/a
629.66	0.165	1259320	keystroke_e	e	n/a
629.75	0.195	1259500	keystroke_w	w	n/a
630.05	0.1355	1260100	keystroke_Key.space	Key.space	n/a
630.3205	0.12	1260641	keystroke_b	b	n/a
630.4255	0.12	1260851	keystroke_a	a	n/a
630.5605	0.1345	1261121	keystroke_n	n	n/a
630.6805	0.135	1261361	keystroke_d	d	n/a
630.8305	0.105	1261661	keystroke_s	s	n/a
631.1605	0.105	1262321	keystroke_Key.space	Key.space	n/a
631.3855	0.075	1262771	keystroke_l	l	n/a
631.5505	0.15	1263101	keystroke_o	o	n/a
631.7155	0.15	1263431	keystroke_c	c	n/a
631.8955	0.15	1263791	keystroke_a	a	n/a
632.1055	0.285	1264211	keystroke_l	l	n/a
632.9005	0.06	1265801	keystroke_l	l	n/a
633.0965	0.119	1266193	keystroke_y	y	n/a
633.3805	0.075	1266761	keystroke_Key.enter	Key.enter	n/a
633.461	9.0875	1266922	prompt	n/a	proposition mainland longest fonts\n
634.3715	0.074	1268743	keystroke_p	p	n/a
634.8805	0.12	1269761	keystroke_r	r	n/a
634.9705	0.09	1269941	keystroke_o	o	n/a
635.2105	0.105	1270421	keystroke_p	p	n/a
635.3755	0.135	1270751	keystroke_o	o	n/a
635.6305	0.165	1271261	keystroke_s	s	n/a
635.7365	0.134	1271473	keystroke_i	i	n/a
635.9305	0.09	1271861	keystroke_t	t	n/a
635.9905	0.18	1271981	keystroke_i	i	n/a
636.0955	0.18	1272191	keystroke_o	o	n/a
636.2455	0.105	1272491	keystroke_n	n	n/a
636.4555	0.12	1272911	keystroke_Key.space	Key.space	n/a
636.8455	0.135	1273691	keystroke_m	m	n/a
637.0855	0.105	1274171	keystroke_a	a	n/a
637.2805	0.165	1274561	keystroke_i	i	n/a
637.3855	0.12	1274771	keystroke_n	n	n/a
637.5505	0.12	1275101	keystroke_l	l	n/a
637.6265	0.134	1275253	keystroke_a	a	n/a
637.7755	0.105	1275551	keystroke_n	n	n/a
637.8955	0.135	1275791	keystroke_d	d	n/a
638.0605	0.135	1276121	keystroke_Key.space	Key.space	n/a
638.3455	0.105	1276691	keystroke_l	l	n/a
638.5705	0.18	1277141	keystroke_o	o	n/a
638.7055	0.165	1277411	keystroke_n	n	n/a
639.7105	0.12	1279421	keystroke_g	g	n/a
639.8915	0.164	1279783	keystroke_e	e	n/a
640.0255	0.18	1280051	keystroke_s	s	n/a
640.1465	0.134	1280293	keystroke_t	t	n/a
640.5355	0.105	1281071	keystroke_Key.space	Key.space	n/a
641.0455	0.06	1282091	keystroke_f	f	n/a
641.2255	0.165	1282451	keystroke_o	o	n/a
641.3305	0.18	1282661	keystroke_n	n	n/a
641.4955	0.09	1282991	keystroke_t	t	n/a
641.6755	0.09	1283351	keystroke_s	s	n/a
642.4715	0.074	1284943	keystroke_Key.enter	Key.enter	n/a
642.553	7.915	1285106	prompt	n/a	came skins deeper losses\n
643.5505	0.121	1287101	keystroke_c	c	n/a
643.7455	0.135	1287491	keystroke_a	a	n/a
643.9255	0.105	1287851	keystroke_m	m	n/a
644.0455	0.106	1288091	keystroke_e	e	n/a
644.4955	0.135	1288991	keystroke_Key.space	Key.space	n/a
644.8705	0.091	1289741	keystroke_s	s	n/a
645.0655	0.06	1290131	keystroke_k	k	n/a
645.2455	0.18	1290491	keystroke_i	i	n/a
645.3655	0.15	1290731	keystroke_n	n	n/a
645.4855	0.12	1290971	keystroke_s	s	n/a
645.7705	0.075	1291541	keystroke_Key.space	Key.space	n/a
646.1315	0.104	1292263	keystroke_d	d	n/a
646.4455	0.075	1292891	keystroke_e	e	n/a
646.6555	0.091	1293311	keystroke_e	e	n/a
646.8805	0.1055	1293761	keystroke_p	p	n/a
647.061	0.12	1294122	keystroke_e	e	n/a
647.166	0.105	1294332	keystroke_r	r	n/a
647.511	0.105	1295022	keystroke_Key.space	Key.space	n/a
647.721	0.06	1295442	keystroke_l	l	n/a
647.901	0.105	1295802	keystroke_o	o	n/a
648.111	0.06	1296222	keystroke_s	s	n/a
648.276	0.03	1296552	keystroke_s	s	n/a
648.741	0.12	1297482	keystroke_e	e	n/a
648.801	0.135	1297602	keystroke_s	s	n/a
650.391	0.074	1300782	keystroke_Key.enter	Key.enter	n/a
650.472	11.906	1300944	prompt	n/a	cassette wellington christians ghost\n
651.426	0.135	1302852	keystroke_c	c	n/a
651.636	0.15	1303272	keystroke_a	a	n/a
651.936	0.09	1303872	keystroke_s	s	n/a
652.101	0.09	1304202	keystroke_s	s	n/a
652.311	0.105	1304622	keystroke_e	e	n/a
652.551	0.06	1305102	keystroke_t	t	n/a
652.701	0.12	1305402	keystroke_t	t	n/a
652.806	0.135	1305612	keystroke_e	e	n/a
653.571	0.105	1307142	keystroke_Key.space	Key.space	n/a
653.871	0.15	1307742	keystroke_w	w	n/a
653.976	0.135	1307952	keystroke_e	e	n/a
654.246	0.105	1308492	keystroke_l	l	n/a
654.426	0.135	1308852	keystroke_l	l	n/a
654.621	0.225	1309242	keystroke_i	i	n/a
654.771	0.15	1309542	keystroke_n	n	n/a
654.922	0.104	1309844	keystroke_g	g	n/a
655.1605	0.12	1310321	keystroke_t	t	n/a
655.3415	0.164	1310683	keystroke_o	o	n/a
655.4765	0.119	1310953	keystroke_n	n	n/a
655.8515	0.134	1311703	keystroke_Key.space	Key.space	n/a
656.2105	0.12	1312421	keystroke_c	c	n/a
656.3615	0.135	1312723	keystroke_h	h	n/a
656.5705	0.121	1313141	keystroke_r	r	n/a
656.7215	0.105	1313443	keystroke_i	i	n/a
656.9165	0.1345	1313833	keystroke_s	s	n/a
657.171	0.105	1314342	keystroke_t	t	n/a
657.261	0.105	1314522	keystroke_i	i	n/a
657.381	0.12	1314762	keystroke_a	a	n/a
657.531	0.105	1315062	keystroke_n	n	n/a
657.696	0.135	1315392	keystroke_s	s	n/a
657.951	0.12	1315902	keystroke_Key.space	Key.space	n/a
658.596	0.105	1317192	keystroke_g	g	n/a
658.776	0.165	1317552	keystroke_h	h	n/a
658.911	0.15	1317822	keystroke_o	o	n/a
659.016	0.18	1318032	keystroke_s	s	n/a
659.181	0.09	1318362	keystroke_t	t	n/a
662.364	0.012	1324728	keystroke_Key.enter	Key.enter	n/a
662.3835	8.2895	1324767	prompt	n/a	commented useful army purpose\n
663.141	0.15	1326282	keystroke_c	c	n/a
663.276	0.09	1326552	keystroke_o	o	n/a
663.501	0.075	1327002	keystroke_m	m	n/a
663.636	0.12	1327272	keystroke_m	m	n/a
663.771	0.135	1327542	keystroke_e	e	n/a
663.876	0.12	1327752	keystroke_n	n	n/a
664.041	0.09	1328082	keystroke_t	t	n/a
664.266	0.09	1328532	keystroke_e	e	n/a
664.491	0.06	1328982	keystroke_d	d	n/a
665.301	0.165	1330602	keystroke_Key.space	Key.space	n/a
665.556	0.105	1331112	keystroke_u	u	n/a
665.676	0.15	1331352	keystroke_s	s	n/a
666.351	0.09	1332702	keystroke_e	e	n/a
666.606	0.09	1333212	keystroke_f	f	n/a
666.711	0.09	1333422	keystroke_u	u	n/a
666.906	0.135	1333812	keystroke_l	l	n/a
667.251	0.105	1334502	keystroke_Key.space	Key.space	n/a
667.506	0.075	1335012	keystroke_a	a	n/a
667.7165	0.0745	1335433	keystroke_r	r	n/a
667.911	0.12	1335822	keystroke_m	m	n/a
668.241	0.105	1336482	keystroke_y	y	n/a
668.601	0.12	1337202	keystroke_Key.space	Key.space	n/a
668.901	0.105	1337802	keystroke_p	p	n/a
669.156	0.12	1338312	keystroke_u	u	n/a
669.351	0.105	1338702	keystroke_r	r	n/a
669.501	0.15	1339002	keystroke_p	p	n/a
669.591	0.165	1339182	keystroke_o	o	n/a
669.771	0.165	1339542	keystroke_s	s	n/a
669.8755	0.1355	1339751	keystroke_e	e	n/a
670.581	0.09	1341162	keystroke_Key.enter	Key.enter	n/a
670.6785	12.4595	1341357	prompt	n/a	updated slots bare executive\n
671.992	0.089	1343984	keystroke_u	u	n/a
672.486	0.075	1344972	keystroke_p	p	n/a
672.726	0.135	1345452	keystroke_l	l	n/a
673.296	0.12	1346592	keystroke_Key.backspace	Key.backspace	n/a
673.521	0.09	1347042	keystroke_d	d	n/a
673.701	0.12	1347402	keystroke_a	a	n/a
673.926	0.135	1347852	keystroke_t	t	n/a
674.002	0.134	1348004	keystroke_e	e	n/a
674.226	0.15	1348452	keystroke_d	d	n/a
674.391	0.135	1348782	keystroke_Key.space	Key.space	n/a
674.647	0.134	1349294	keystroke_s	s	n/a
674.9305	0.09	1349861	keystroke_l	l	n/a
675.0965	0.15	1350193	keystroke_o	o	n/a
675.2305	0.091	1350461	keystroke_t	t	n/a
675.3805	0.136	1350761	keystroke_s	s	n/a
676.041	0.105	1352082	keystroke_Key.space	Key.space	n/a
676.491	0.12	1352982	keystroke_b	b	n/a
676.641	0.135	1353282	keystroke_a	a	n/a
676.881	0.105	1353762	keystroke_r	r	n/a
676.941	0.1205	1353882	keystroke_e	e	n/a
677.4515	0.12	1354903	keystroke_Key.space	Key.space	n/a
677.7365	0.12	1355473	keystroke_e	e	n/a
678.3665	0.12	1356733	keystroke_x	x	n/a
678.6965	0.105	1357393	keystroke_e	e	n/a
679.4465	0.105	1358893	keystroke_c	c	n/a
679.6265	0.12	1359253	keystroke_u	u	n/a
679.8215	0.105	1359643	keystroke_t	t	n/a
679.9415	0.075	1359883	keystroke_i	i	n/a
680.1365	0.12	1360273	keystroke_v	v	n/a
680.2115	0.105	1360423	keystroke_e	e	n/a
683.125	0.011	1366250	keystroke_Key.enter	Key.enter	n/a
683.143	11.3355	1366286	prompt	n/a	genetic occurring ordinance verizon\n
683.962	0.12	1367924	keystroke_g	g	n/a
684.651	0.121	1369302	keystroke_e	e	n/a
684.847	0.135	1369694	keystroke_n	n	n/a
684.982	0.1645	1369964	keystroke_e	e	n/a
685.6415	0.09	1371283	keystroke_t	t	n/a
685.7615	0.09	1371523	keystroke_i	i	n/a
686.0315	0.09	1372063	keystroke_c	c	n/a
686.2865	0.15	1372573	keystroke_Key.space	Key.space	n/a
686.7215	0.135	1373443	keystroke_o	o	n/a
686.9765	0.06	1373953	keystroke_c	c	n/a
687.157	0.12	1374314	keystroke_c	c	n/a
687.397	0.15	1374794	keystroke_u	u	n/a
687.697	0.135	1375394	keystroke_r	r	n/a
688.4025	0.1045	1376805	keystroke_r	r	n/a
688.537	0.2105	1377074	keystroke_i	i	n/a
688.687	0.135	1377374	keystroke_n	n	n/a
688.837	0.09	1377674	keystroke_g	g	n/a
689.032	0.12	1378064	keystroke_Key.space	Key.space	n/a
689.3175	0.135	1378635	keystroke_o	o	n/a
689.542	0.105	1379084	keystroke_r	r	n/a
689.796	0.091	1379592	keystroke_d	d	n/a
689.932	0.105	1379864	keystroke_i	i	n/a
690.112	0.105	1380224	keystroke_n	n	n/a
690.201	0.151	1380402	keystroke_a	a	n/a
690.337	0.135	1380674	keystroke_n	n	n/a
690.487	0.135	1380974	keystroke_c	c	n/a
690.712	0.165	1381424	keystroke_e	e	n/a
690.922	0.135	1381844	keystroke_Key.space	Key.space	n/a
691.777	0.105	1383554	keystroke_v	v	n/a
692.077	0.21	1384154	keystroke_e	e	n/a
692.197	0.195	1384394	keystroke_r	r	n/a
692.647	0.09	1385294	keystroke_i	i	n/a
693.142	0.15	1386284	keystroke_z	z	n/a
693.472	0.12	1386944	keystroke_o	o	n/a
693.547	0.105	1387094	keystroke_n	n	n/a
694.372	0.105	1388744	keystroke_Key.enter	Key.enter	n/a
694.4825	13.647	1388965	prompt	n/a	bone configurations connect voyuer\n
695.242	0.165	1390484	keystroke_b	b	n/a
695.377	0.18	1390754	keystroke_o	o	n/a
695.512	0.1355	1391024	keystroke_n	n	n/a
695.6775	0.135	1391355	keystroke_e	e	n/a
695.9325	0.135	1391865	keystroke_Key.space	Key.space	n/a
696.4425	0.105	1392885	keystroke_c	c	n/a
696.5925	0.1945	1393185	keystroke_o	o	n/a
696.697	0.1205	1393394	keystroke_n	n	n/a
698.407	0.12	1396814	keystroke_f	f	n/a
698.557	0.12	1397114	keystroke_i	i	n/a
698.857	0.1055	1397714	keystroke_g	g	n/a
699.0075	0.09	1398015	keystroke_u	u	n/a
699.6825	0.12	1399365	keystroke_r	r	n/a
699.8475	0.135	1399695	keystroke_a	a	n/a
700.0575	0.12	1400115	keystroke_t	t	n/a
700.1325	0.225	1400265	keystroke_i	i	n/a
700.2675	0.165	1400535	keystroke_o	o	n/a
700.3725	0.135	1400745	keystroke_n	n	n/a
700.5225	0.165	1401045	keystroke_s	s	n/a
700.8075	0.105	1401615	keystroke_Key.space	Key.space	n/a
701.0925	0.09	1402185	keystroke_c	c	n/a
701.2265	0.181	1402453	keystroke_o	o	n/a
701.722	0.105	1403444	keystroke_n	n	n/a
701.902	0.15	1403804	keystroke_n	n	n/a
702.007	0.09	1404014	keystroke_e	e	n/a
702.2475	0.09	1404495	keystroke_c	c	n/a
702.5175	0.09	1405035	keystroke_t	t	n/a
702.727	0.12	1405454	keystroke_Key.space	Key.space	n/a
704.2275	0.15	1408455	keystroke_v	v	n/a
704.4375	0.285	1408875	keystroke_o	o	n/a
706.3275	0.135	1412655	keystroke_y	y	n/a
706.6425	0.18	1413285	keystroke_u	u	n/a
706.8825	0.135	1413765	keystroke_e	e	n/a
706.9865	0.106	1413973	keystroke_r	r	n/a
708.0075	0.12	1416015	keystroke_Key.enter	Key.enter	n/a
708.134	11.6825	1416268	prompt	n/a	overview iceland rebel expansion\n
708.877	0.12	1417754	keystroke_o	o	n/a
709.3275	0.105	1418655	keystroke_v	v	n/a
709.4625	0.12	1418925	keystroke_e	e	n/a
709.5675	0.135	1419135	keystroke_r	r	n/a
710.4225	0.135	1420845	keystroke_v	v	n/a
710.6175	0.12	1421235	keystroke_i	i	n/a
710.7525	0.135	1421505	keystroke_e	e	n/a
710.8275	0.15	1421655	keystroke_w	w	n/a
711.2015	0.12	1422403	keystroke_Key.space	Key.space	n/a
711.6665	0.121	1423333	keystroke_i	i	n/a
711.9365	0.09	1423873	keystroke_c	c	n/a
712.1765	0.09	1424353	keystroke_e	e	n/a
712.3565	0.12	1424713	keystroke_l	l	n/a
712.4325	0.134	1424865	keystroke_a	a	n/a
712.5825	0.149	1425165	keystroke_n	n	n/a
712.7175	0.12	1425435	keystroke_d	d	n/a
713.0165	0.0905	1426033	keystroke_Key.space	Key.space	n/a
713.362	0.12	1426724	keystroke_r	r	n/a
713.422	0.15	1426844	keystroke_e	e	n/a
713.722	0.1205	1427444	keystroke_b	b	n/a
713.827	0.1055	1427654	keystroke_e	e	n/a
713.977	0.1055	1427954	keystroke_l	l	n/a
715.6125	0.149	1431225	keystroke_Key.space	Key.space	n/a
715.9275	0.105	1431855	keystroke_e	e	n/a
716.1825	0.135	1432365	keystroke_x	x	n/a
716.4525	0.105	1432905	keystroke_p	p	n/a
716.6175	0.135	1433235	keystroke_a	a	n/a
717.487	0.12	1434974	keystroke_n	n	n/a
717.907	0.105	1435814	keystroke_s	s	n/a
718.027	0.21	1436054	keystroke_i	i	n/a
718.222	0.135	1436444	keystroke_o	o	n/a
718.297	0.165	1436594	keystroke_n	n	n/a
719.707	0.105	1439414	keystroke_Key.enter	Key.enter	n/a
719.8235	10.656	1439647	prompt	n/a	extensions broker donald reserves\n
720.922	0.105	1441844	keystroke_e	e	n/a
721.162	0.1205	1442324	keystroke_x	x	n/a
721.6425	0.075	1443285	keystroke_e	e	n/a
722.0775	0.135	1444155	keystroke_Key.backspace	Key.backspace	n/a
722.2425	0.165	1444485	keystroke_t	t	n/a
722.4085	0.164	1444817	keystroke_e	e	n/a
722.5575	0.105	1445115	keystroke_n	n	n/a
722.8125	0.09	1445625	keystroke_s	s	n/a
722.9325	0.165	1445865	keystroke_i	i	n/a
723.0375	0.18	1446075	keystroke_o	o	n/a
723.1575	0.12	1446315	keystroke_n	n	n/a
723.2925	0.135	1446585	keystroke_s	s	n/a
723.5475	0.09	1447095	keystroke_Key.space	Key.space	n/a
723.7575	0.12	1447515	keystroke_b	b	n/a
723.9075	0.105	1447815	keystroke_r	r	n/a
724.0275	0.12	1448055	keystroke_o	o	n/a
724.2675	0.12	1448535	keystroke_k	k	n/a
724.4325	0.105	1448865	keystroke_e	e	n/a
724.7325	0.105	1449465	keystroke_r	r	n/a
725.317	0.105	1450634	keystroke_Key.space	Key.space	n/a
725.692	0.09	1451384	keystroke_d	d	n/a
725.842	0.135	1451684	keystroke_o	o	n/a
725.992	0.135	1451984	keystroke_n	n	n/a
726.202	0.135	1452404	keystroke_a	a	n/a
726.382	0.105	1452764	keystroke_l	l	n/a
726.472	0.09	1452944	keystroke_d	d	n/a
726.772	0.09	1453544	keystroke_Key.space	Key.space	n/a
727.042	0.165	1454084	keystroke_r	r	n/a
727.132	0.15	1454264	keystroke_e	e	n/a
728.632	0.09	1457264	keystroke_s	s	n/a
728.932	0.135	1457864	keystroke_e	e	n/a
729.052	0.091	1458104	keystroke_r	r	n/a
729.442	0.135	1458884	keystroke_v	v	n/a
729.652	0.18	1459304	keystroke_e	e	n/a
729.772	0.12	1459544	keystroke_s	s	n/a
730.372	0.105	1460744	keystroke_Key.enter	Key.enter	n/a
730.484	9.3265	1460968	prompt	n/a	opponents funded approaches mens\n
731.393	0.119	1462786	keystroke_o	o	n/a
731.617	0.0605	1463234	keystroke_p	p	n/a
731.7975	0.105	1463595	keystroke_p	p	n/a
732.0075	0.105	1464015	keystroke_o	o	n/a
732.3075	0.106	1464615	keystroke_n	n	n/a
732.4435	0.164	1464887	keystroke_e	e	n/a
732.5325	0.15	1465065	keystroke_n	n	n/a
732.6675	0.09	1465335	keystroke_t	t	n/a
732.8325	0.135	1465665	keystroke_s	s	n/a
733.117	0.105	1466234	keystroke_Key.space	Key.space	n/a
733.522	0.105	1467044	keystroke_f	f	n/a
733.657	0.09	1467314	keystroke_u	u	n/a
733.882	0.15	1467764	keystroke_n	n	n/a
734.062	0.06	1468124	keystroke_d	d	n/a
734.242	0.075	1468484	keystroke_e	e	n/a
734.452	0.091	1468904	keystroke_d	d	n/a
734.827	0.09	1469654	keystroke_Key.space	Key.space	n/a
735.097	0.15	1470194	keystroke_a	a	n/a
735.3385	0.0585	1470677	keystroke_p	p	n/a
735.487	0.12	1470974	keystroke_p	p	n/a
735.6685	0.0895	1471337	keystroke_r	r	n/a
735.772	0.15	1471544	keystroke_o	o	n/a
735.982	0.1055	1471964	keystroke_c	c	n/a
736.6875	0.135	1473375	keystroke_Key.backspace	Key.backspace	n/a
737.0325	0.105	1474065	keystroke_a	a	n/a
737.3625	0.09	1474725	keystroke_c	c	n/a
737.5425	0.12	1475085	keystroke_h	h	n/a
737.6775	0.165	1475355	keystroke_e	e	n/a
737.7825	0.12	1475565	keystroke_s	s	n/a
738.1275	0.105	1476255	keystroke_Key.space	Key.space	n/a
738.3825	0.105	1476765	keystroke_m	m	n/a
738.5775	0.105	1477155	keystroke_e	e	n/a
738.7275	0.135	1477455	keystroke_n	n	n/a
739.1175	0.1505	1478235	keystroke_s	s	n/a
739.733	0.075	1479466	keystroke_Key.enter	Key.enter	n/a
739.815	8.935	1479630	prompt	n/a	company personally appointed demo\n
740.768	0.09	1481536	keystroke_c	c	n/a
740.873	0.12	1481746	keystroke_o	o	n/a
741.0675	0.105	1482135	keystroke_m	m	n/a
741.7275	0.135	1483455	keystroke_p	p	n/a
742.1775	0.135	1484355	keystroke_a	a	n/a
742.3275	0.09	1484655	keystroke_n	n	n/a
742.5975	0.105	1485195	keystroke_y	y	n/a
743.123	0.12	1486246	keystroke_Key.space	Key.space	n/a
743.363	0.105	1486726	keystroke_p	p	n/a
743.483	0.135	1486966	keystroke_e	e	n/a
743.588	0.12	1487176	keystroke_r	r	n/a
743.738	0.165	1487476	keystroke_s	s	n/a
743.873	0.18	1487746	keystroke_o	o	n/a
743.978	0.135	1487956	keystroke_n	n	n/a
744.083	0.135	1488166	keystroke_a	a	n/a
744.233	0.075	1488466	keystroke_l	l	n/a
744.368	0.12	1488736	keystroke_l	l	n/a
744.608	0.135	1489216	keystroke_y	y	n/a
744.818	0.135	1489636	keystroke_Key.space	Key.space	n/a
745.103	0.09	1490206	keystroke_a	a	n/a
745.283	0.075	1490566	keystroke_p	p	n/a
745.448	0.105	1490896	keystroke_p	p	n/a
745.658	0.15	1491316	keystroke_o	o	n/a
745.853	0.24	1491706	keystroke_i	i	n/a
745.988	0.18	1491976	keystroke_n	n	n/a
746.138	0.15	1492276	keystroke_t	t	n/a
746.273	0.105	1492546	keystroke_e	e	n/a
746.483	0.15	1492966	keystroke_d	d	n/a
746.648	0.12	1493296	keystroke_Key.space	Key.space	n/a
746.873	0.075	1493746	keystroke_d	d	n/a
747.068	0.075	1494136	keystroke_e	e	n/a
747.173	0.075	1494346	keystroke_m	m	n/a
747.338	0.105	1494676	keystroke_o	o	n/a
748.673	0.075	1497346	keystroke_Key.enter	Key.enter	n/a
748.754	10.301	1497508	prompt	n/a	crazy expression christianity nervous\n
749.558	0.105	1499116	keystroke_c	c	n/a
749.828	0.09	1499656	keystroke_r	r	n/a
749.933	0.165	1499866	keystroke_a	a	n/a
750.263	0.09	1500526	keystroke_z	z	n/a
750.443	0.105	1500886	keystroke_y	y	n/a
750.758	0.12	1501516	keystroke_Key.space	Key.space	n/a
751.013	0.105	1502026	keystroke_e	e	n/a
751.268	0.105	1502536	keystroke_x	x	n/a
751.823	0.12	1503646	keystroke_p	p	n/a
751.988	0.09	1503976	keystroke_r	r	n/a
752.048	0.21	1504096	keystroke_e	e	n/a
752.183	0.165	1504366	keystroke_s	s	n/a
752.423	0.135	1504846	keystroke_s	s	n/a
752.663	0.15	1505326	keystroke_i	i	n/a
752.753	0.18	1505506	keystroke_o	o	n/a
752.888	0.12	1505776	keystroke_n	n	n/a
753.353	0.105	1506706	keystroke_Key.space	Key.space	n/a
753.608	0.09	1507216	keystroke_c	c	n/a
753.773	0.105	1507546	keystroke_h	h	n/a
753.983	0.09	1507966	keystroke_r	r	n/a
754.058	0.12	1508116	keystroke_i	i	n/a
754.193	0.15	1508386	keystroke_s	s	n/a
754.748	0.12	1509496	keystroke_t	t	n/a
754.898	0.135	1509796	keystroke_i	i	n/a
755.034	0.134	1510068	keystroke_a	a	n/a
755.198	0.12	1510396	keystroke_n	n	n/a
755.438	0.12	1510876	keystroke_i	i	n/a
755.633	0.09	1511266	keystroke_t	t	n/a
755.768	0.105	1511536	keystroke_y	y	n/a
756.218	0.09	1512436	keystroke_Key.space	Key.space	n/a
756.473	0.12	1512946	keystroke_n	n	n/a
756.653	0.165	1513306	keystroke_e	e	n/a
756.758	0.12	1513516	keystroke_r	r	n/a
757.058	0.105	1514116	keystroke_v	v	n/a
757.388	0.15	1514776	keystroke_o	o	n/a
757.493	0.135	1514986	keystroke_u	u	n/a
757.568	0.135	1515136	keystroke_s	s	n/a
758.948	0.105	1517896	keystroke_Key.enter	Key.enter	n/a
759.0595	14.608	1518119	prompt	n/a	sweden acne ascii channel\n
759.953	0.12	1519906	keystroke_s	s	n/a
760.193	0.165	1520386	keystroke_w	w	n/a
760.343	0.15	1520686	keystroke_e	e	n/a
760.688	0.12	1521376	keystroke_d	d	n/a
760.928	0.075	1521856	keystroke_e	e	n/a
761.078	0.105	1522156	keystroke_n	n	n/a
761.333	0.075	1522666	keystroke_Key.space	Key.space	n/a
762.3535	0.12	1524707	keystroke_a	a	n/a
762.6985	0.09	1525397	keystroke_c	c	n/a
762.9385	0.075	1525877	keystroke_e	e	n/a
764.379	0.12	1528758	keystroke_Key.backspace	Key.backspace	n/a
765.279	0.105	1530558	keystroke_n	n	n/a
765.429	0.09	1530858	keystroke_e	e	n/a
765.729	0.09	1531458	keystroke_Key.space	Key.space	n/a
767.244	0.15	1534488	keystroke_a	a	n/a
767.484	0.135	1534968	keystroke_s	s	n/a
768.1145	0.09	1536229	keystroke_c	c	n/a
768.3995	0.075	1536799	keystroke_i	i	n/a
768.5645	0.075	1537129	keystroke_i	i	n/a
771.0285	0.071	1542057	keystroke_Key.space	Key.space	n/a
771.791	0.135	1543582	keystroke_c	c	n/a
771.971	0.12	1543942	keystroke_h	h	n/a
772.121	0.12	1544242	keystroke_a	a	n/a
772.375	0.075	1544750	keystroke_n	n	n/a
772.541	0.105	1545082	keystroke_n	n	n/a
772.706	0.09	1545412	keystroke_e	e	n/a
772.811	0.119	1545622	keystroke_l	l	n/a
773.53	0.135	1547060	keystroke_Key.enter	Key.enter	n/a
773.672	12.9735	1547344	prompt	n/a	jacket rides motors violence\n
774.4615	0.149	1548923	keystroke_j	j	n/a
774.6265	0.104	1549253	keystroke_a	a	n/a
774.8665	0.074	1549733	keystroke_c	c	n/a
774.9865	0.1195	1549973	keystroke_k	k	n/a
775.091	0.165	1550182	keystroke_e	e	n/a
775.226	0.135	1550452	keystroke_t	t	n/a
775.481	0.105	1550962	keystroke_Key.space	Key.space	n/a
775.796	0.09	1551592	keystroke_r	r	n/a
775.916	0.1045	1551832	keystroke_i	i	n/a
776.0365	0.09	1552073	keystroke_d	d	n/a
776.2305	0.136	1552461	keystroke_e	e	n/a
776.3505	0.151	1552701	keystroke_s	s	n/a
776.6505	0.1205	1553301	keystroke_Key.space	Key.space	n/a
777.042	0.1945	1554084	keystroke_m	m	n/a
777.1765	0.135	1554353	keystroke_o	o	n/a
777.8215	0.09	1555643	keystroke_t	t	n/a
778.0015	0.15	1556003	keystroke_o	o	n/a
778.1665	0.09	1556333	keystroke_r	r	n/a
778.3315	0.135	1556663	keystroke_s	s	n/a
778.6765	0.105	1557353	keystroke_Key.space	Key.space	n/a
779.382	0.075	1558764	keystroke_v	v	n/a
779.607	0.135	1559214	keystroke_i	i	n/a
779.667	0.135	1559334	keystroke_o	o	n/a
779.922	0.09	1559844	keystroke_l	l	n/a
780.102	0.09	1560204	keystroke_e	e	n/a
780.282	0.15	1560564	keystroke_n	n	n/a
780.507	0.105	1561014	keystroke_c	c	n/a
780.732	0.075	1561464	keystroke_e	e	n/a
786.616	0.027	1573232	keystroke_Key.enter	Key.enter	n/a
786.6505	12.103	1573301	prompt	n/a	principles entered regarded disney\n
787.588	0.105	1575176	keystroke_p	p	n/a
787.843	0.12	1575686	keystroke_r	r	n/a
788.368	0.2255	1576736	keystroke_i	i	n/a
788.5035	0.135	1577007	keystroke_n	n	n/a
788.9095	0.119	1577819	keystroke_c	c	n/a
789.0435	0.075	1578087	keystroke_i	i	n/a
789.2085	0.09	1578417	keystroke_p	p	n/a
789.4185	0.15	1578837	keystroke_l	l	n/a
789.5385	0.15	1579077	keystroke_e	e	n/a
789.6585	0.15	1579317	keystroke_s	s	n/a
790.2585	0.105	1580517	keystroke_Key.space	Key.space	n/a
790.7835	0.105	1581567	keystroke_e	e	n/a
790.9185	0.135	1581837	keystroke_n	n	n/a
791.4435	0.165	1582887	keystroke_t	t	n/a
791.5935	0.165	1583187	keystroke_e	e	n/a
791.7435	0.2255	1583487	keystroke_r	r	n/a
791.864	0.15	1583728	keystroke_e	e	n/a
792.119	0.12	1584238	keystroke_d	d	n/a
792.464	0.12	1584928	keystroke_Key.space	Key.space	n/a
792.944	0.195	1585888	keystroke_r	r	n/a
793.064	0.135	1586128	keystroke_e	e	n/a
793.289	0.105	1586578	keystroke_g	g	n/a
793.514	0.18	1587028	keystroke_a	a	n/a
793.619	0.12	1587238	keystroke_r	r	n/a
793.829	0.105	1587658	keystroke_d	d	n/a
794.039	0.075	1588078	keystroke_e	e	n/a
794.249	0.105	1588498	keystroke_d	d	n/a
794.429	0.12	1588858	keystroke_Key.space	Key.space	n/a
794.744	0.105	1589488	keystroke_d	d	n/a
794.864	0.135	1589728	keystroke_i	i	n/a
794.969	0.135	1589938	keystroke_s	s	n/a
795.164	0.12	1590328	keystroke_n	n	n/a
795.299	0.075	1590598	keystroke_e	e	n/a
795.4345	0.135	1590869	keystroke_y	y	n/a
798.7225	0.027	1597445	keystroke_Key.enter	Key.enter	n/a
798.7585	10.5845	1597517	prompt	n/a	angeles independence entertaining viral\n
799.5755	0.135	1599151	keystroke_a	a	n/a
