onset	duration	sample	value	key	prompt_text
7.0825	10.8075	14165	prompt	n/a	the quick brown fox jumps over a lazy dog\n
9.296	0.0575	18592	keystroke_t	t	n/a
9.3675	0.075	18735	keystroke_h	h	n/a
9.4585	0.104	18917	keystroke_e	e	n/a
9.5925	0.12	19185	keystroke_Key.space	Key.space	n/a
10.343	0.075	20686	keystroke_q	q	n/a
10.4785	0.1195	20957	keystroke_u	u	n/a
10.583	0.09	21166	keystroke_i	i	n/a
10.823	0.0755	21646	keystroke_c	c	n/a
10.913	0.075	21826	keystroke_k	k	n/a
11.093	0.09	22186	keystroke_Key.space	Key.space	n/a
11.273	0.0755	22546	keystroke_b	b	n/a
11.408	0.105	22816	keystroke_r	r	n/a
11.543	0.0605	23086	keystroke_o	o	n/a
11.663	0.0905	23326	keystroke_w	w	n/a
11.843	0.075	23686	keystroke_n	n	n/a
12.0375	0.075	24075	keystroke_Key.space	Key.space	n/a
12.533	0.075	25066	keystroke_f	f	n/a
12.653	0.09	25306	keystroke_o	o	n/a
12.938	0.105	25876	keystroke_x	x	n/a
13.028	0.09	26056	keystroke_Key.space	Key.space	n/a
13.223	0.0755	26446	keystroke_j	j	n/a
13.343	0.09	26686	keystroke_u	u	n/a
13.808	0.12	27616	keystroke_m	m	n/a
13.973	0.09	27946	keystroke_p	p	n/a
14.1235	0.0745	28247	keystroke_s	s	n/a
14.498	0.075	28996	keystroke_Key.space	Key.space	n/a
14.738	0.1055	29476	keystroke_o	o	n/a
14.888	0.0905	29776	keystroke_v	v	n/a
15.038	0.15	30076	keystroke_e	e	n/a
15.128	0.1045	30256	keystroke_r	r	n/a
15.203	0.0595	30406	keystroke_Key.space	Key.space	n/a
15.3535	0.0605	30707	keystroke_a	a	n/a
15.398	0.09	30796	keystroke_Key.space	Key.space	n/a
15.5785	0.0895	31157	keystroke_l	l	n/a
15.6985	0.105	31397	keystroke_a	a	n/a
15.968	0.1795	31936	keystroke_z	z	n/a
16.1035	0.075	32207	keystroke_y	y	n/a
16.3275	0.075	32655	keystroke_Key.space	Key.space	n/a
16.673	0.0905	33346	keystroke_d	d	n/a
16.7925	0.076	33585	keystroke_o	o	n/a
17.093	0.09	34186	keystroke_g	g	n/a
17.8125	0.0755	35625	keystroke_Key.enter	Key.enter	n/a
17.8945	6.7005	35789	prompt	n/a	boating drilling follows outside\n
18.862	0.076	37724	keystroke_b	b	n/a
18.953	0.0755	37906	keystroke_o	o	n/a
19.0425	0.1205	38085	keystroke_a	a	n/a
19.192	0.121	38384	keystroke_t	t	n/a
19.3275	0.0755	38655	keystroke_i	i	n/a
19.387	0.105	38774	keystroke_n	n	n/a
19.522	0.061	39044	keystroke_g	g	n/a
19.597	0.106	39194	keystroke_Key.space	Key.space	n/a
20.4375	0.091	40875	keystroke_d	d	n/a
20.6035	0.075	41207	keystroke_r	r	n/a
20.693	0.0595	41386	keystroke_i	i	n/a
20.9025	0.06	41805	keystroke_l	l	n/a
21.0235	0.09	42047	keystroke_l	l	n/a
21.2485	0.1195	42497	keystroke_i	i	n/a
21.2925	0.12	42585	keystroke_n	n	n/a
21.4285	0.075	42857	keystroke_g	g	n/a
21.5335	0.0745	43067	keystroke_Key.space	Key.space	n/a
21.998	0.09	43996	keystroke_f	f	n/a
22.1035	0.0895	44207	keystroke_o	o	n/a
22.298	0.0595	44596	keystroke_l	l	n/a
22.448	0.06	44896	keystroke_l	l	n/a
22.598	0.1055	45196	keystroke_o	o	n/a
22.658	0.0905	45316	keystroke_w	w	n/a
22.898	0.075	45796	keystroke_s	s	n/a
23.258	0.0605	46516	keystroke_Key.space	Key.space	n/a
23.438	0.105	46876	keystroke_o	o	n/a
23.633	0.075	47266	keystroke_u	u	n/a
23.723	0.06	47446	keystroke_t	t	n/a
23.903	0.09	47806	keystroke_s	s	n/a
24.0535	0.0745	48107	keystroke_i	i	n/a
24.1875	0.045	48375	keystroke_d	d	n/a
24.3375	0.075	48675	keystroke_e	e	n/a
24.4875	0.105	48975	keystroke_Key.enter	Key.enter	n/a
24.6005	7.9295	49201	prompt	n/a	drugs faster crash johnson\n
25.748	0.075	51496	keystroke_d	d	n/a
25.9575	0.105	51915	keystroke_r	r	n/a
26.078	0.0595	52156	keystroke_u	u	n/a
26.1675	0.091	52335	keystroke_g	g	n/a
26.3335	0.1045	52667	keystroke_s	s	n/a
26.498	0.105	52996	keystroke_Key.space	Key.space	n/a
27.0975	0.106	54195	keystroke_f	f	n/a
27.2625	0.105	54525	keystroke_a	a	n/a
27.353	0.1045	54706	keystroke_s	s	n/a
27.653	0.075	55306	keystroke_t	t	n/a
27.8035	0.104	55607	keystroke_e	e	n/a
27.8625	0.1055	55725	keystroke_r	r	n/a
28.043	0.0745	56086	keystroke_Key.space	Key.space	n/a
28.403	0.1055	56806	keystroke_c	c	n/a
28.598	0.0895	57196	keystroke_r	r	n/a
28.7475	0.1805	57495	keystroke_s	s	n/a
28.7925	0.091	57585	keystroke_a	a	n/a
28.9585	0.104	57917	keystroke_h	h	n/a
29.918	0.0155	59836	keystroke_Key.backspace	Key.backspace	n/a
29.978	0.0145	59956	keystroke_Key.backspace	Key.backspace	n/a
30.0075	0.0455	60015	keystroke_Key.backspace	Key.backspace	n/a
30.578	0.075	61156	keystroke_a	a	n/a
30.593	0.1055	61186	keystroke_s	s	n/a
30.758	0.0905	61516	keystroke_h	h	n/a
31.058	0.0745	62116	keystroke_Key.space	Key.space	n/a
31.4475	0.0755	62895	keystroke_j	j	n/a
31.5835	0.1345	63167	keystroke_o	o	n/a
31.7475	0.075	63495	keystroke_h	h	n/a
31.943	0.0905	63886	keystroke_n	n	n/a
32.0625	0.0755	64125	keystroke_s	s	n/a
32.123	0.1055	64246	keystroke_o	o	n/a
32.2125	0.09	64425	keystroke_n	n	n/a
32.4225	0.105	64845	keystroke_Key.enter	Key.enter	n/a
32.541	6.7845	65082	prompt	n/a	senate ozone changes congressional\n
33.203	0.075	66406	keystroke_s	s	n/a
33.398	0.105	66796	keystroke_e	e	n/a
33.5335	0.089	67067	keystroke_n	n	n/a
33.6675	0.1205	67335	keystroke_a	a	n/a
33.9375	0.0745	67875	keystroke_t	t	n/a
33.9835	0.1035	67967	keystroke_e	e	n/a
34.162	0.076	68324	keystroke_Key.space	Key.space	n/a
34.478	0.075	68956	keystroke_o	o	n/a
34.613	0.15	69226	keystroke_z	z	n/a
34.838	0.12	69676	keystroke_o	o	n/a
34.943	0.12	69886	keystroke_n	n	n/a
35.198	0.03	70396	keystroke_e	e	n/a
35.543	0.0745	71086	keystroke_Key.space	Key.space	n/a
35.918	0.1195	71836	keystroke_c	c	n/a
35.9785	0.09	71957	keystroke_h	h	n/a
36.0835	0.104	72167	keystroke_a	a	n/a
36.1725	0.105	72345	keystroke_n	n	n/a
36.2925	0.12	72585	keystroke_g	g	n/a
36.3985	0.089	72797	keystroke_e	e	n/a
36.593	0.1055	73186	keystroke_s	s	n/a
36.7125	0.0455	73425	keystroke_Key.space	Key.space	n/a
37.0435	0.1045	74087	keystroke_c	c	n/a
37.103	0.135	74206	keystroke_o	o	n/a
37.193	0.12	74386	keystroke_n	n	n/a
37.388	0.12	74776	keystroke_g	g	n/a
37.4935	0.0895	74987	keystroke_r	r	n/a
37.718	0.12	75436	keystroke_e	e	n/a
37.943	0.075	75886	keystroke_s	s	n/a
38.1075	0.075	76215	keystroke_s	s	n/a
38.2575	0.1205	76515	keystroke_i	i	n/a
38.3025	0.1355	76605	keystroke_o	o	n/a
38.393	0.119	76786	keystroke_n	n	n/a
38.528	0.105	77056	keystroke_a	a	n/a
38.6485	0.1495	77297	keystroke_l	l	n/a
39.218	0.105	78436	keystroke_Key.enter	Key.enter	n/a
39.3295	7.094	78659	prompt	n/a	senators branches items michel\n
40.013	0.075	80026	keystroke_s	s	n/a
40.2235	0.0745	80447	keystroke_e	e	n/a
40.313	0.105	80626	keystroke_n	n	n/a
40.433	0.015	80866	keystroke_t	t	n/a
41.063	0.06	82126	keystroke_Key.backspace	Key.backspace	n/a
41.153	0.105	82306	keystroke_a	a	n/a
41.393	0.09	82786	keystroke_t	t	n/a
41.5275	0.0895	83055	keystroke_o	o	n/a
41.6025	0.1055	83205	keystroke_r	r	n/a
41.828	0.075	83656	keystroke_s	s	n/a
41.978	0.074	83956	keystroke_Key.space	Key.space	n/a
42.863	0.0755	85726	keystroke_b	b	n/a
42.953	0.06	85906	keystroke_r	r	n/a
43.133	0.075	86266	keystroke_a	a	n/a
43.238	0.09	86476	keystroke_n	n	n/a
43.358	0.12	86716	keystroke_c	c	n/a
43.463	0.105	86926	keystroke_h	h	n/a
43.5825	0.06	87165	keystroke_e	e	n/a
43.853	0.105	87706	keystroke_s	s	n/a
44.138	0.075	88276	keystroke_Key.space	Key.space	n/a
44.438	0.09	88876	keystroke_i	i	n/a
44.543	0.0755	89086	keystroke_t	t	n/a
44.6485	0.1195	89297	keystroke_e	e	n/a
44.813	0.06	89626	keystroke_m	m	n/a
44.858	0.104	89716	keystroke_s	s	n/a
45.008	0.0745	90016	keystroke_Key.space	Key.space	n/a
45.413	0.045	90826	keystroke_m	m	n/a
45.548	0.09	91096	keystroke_i	i	n/a
45.683	0.09	91366	keystroke_c	c	n/a
45.758	0.09	91516	keystroke_h	h	n/a
45.863	0.1055	91726	keystroke_e	e	n/a
46.028	0.075	92056	keystroke_l	l	n/a
46.328	0.09	92656	keystroke_Key.enter	Key.enter	n/a
46.427	10.268	92854	prompt	n/a	physician oriented atlantic total\n
47.1535	0.0895	94307	keystroke_p	p	n/a
47.3475	0.0755	94695	keystroke_h	h	n/a
47.4975	0.09	94995	keystroke_y	y	n/a
47.5885	0.074	95177	keystroke_s	s	n/a
47.8425	0.091	95685	keystroke_i	i	n/a
48.128	0.06	96256	keystroke_c	c	n/a
48.2485	0.0745	96497	keystroke_i	i	n/a
48.353	0.0895	96706	keystroke_a	a	n/a
48.9375	0.075	97875	keystroke_n	n	n/a
49.1925	0.0755	98385	keystroke_Key.space	Key.space	n/a
49.538	0.075	99076	keystroke_o	o	n/a
49.718	0.045	99436	keystroke_r	r	n/a
49.793	0.09	99586	keystroke_i	i	n/a
49.898	0.09	99796	keystroke_e	e	n/a
49.973	0.089	99946	keystroke_n	n	n/a
50.078	0.0905	100156	keystroke_t	t	n/a
50.333	0.075	100666	keystroke_e	e	n/a
50.513	0.075	101026	keystroke_d	d	n/a
50.8435	0.0445	101687	keystroke_Key.space	Key.space	n/a
51.338	0.12	102676	keystroke_a	a	n/a
51.593	0.09	103186	keystroke_t	t	n/a
51.743	0.075	103486	keystroke_l	l	n/a
51.833	0.105	103666	keystroke_a	a	n/a
51.953	0.075	103906	keystroke_n	n	n/a
52.073	0.0905	104146	keystroke_t	t	n/a
52.7325	0.1205	105465	keystroke_i	i	n/a
52.8375	0.09	105675	keystroke_c	c	n/a
53.078	0.059	106156	keystroke_Key.space	Key.space	n/a
53.663	0.0895	107326	keystroke_t	t	n/a
54.353	0.089	108706	keystroke_o	o	n/a
54.428	0.0905	108856	keystroke_t	t	n/a
54.653	0.089	109306	keystroke_a	a	n/a
54.758	0.075	109516	keystroke_l	l	n/a
56.6025	0.0905	113205	keystroke_Key.enter	Key.enter	n/a
56.6995	9.086	113399	prompt	n/a	tires biography greater energy\n
57.8185	0.0745	115637	keystroke_t	t	n/a
57.9235	0.075	115847	keystroke_i	i	n/a
58.1175	0.106	116235	keystroke_r	r	n/a
58.193	0.0895	116386	keystroke_e	e	n/a
58.3575	0.0895	116715	keystroke_s	s	n/a
58.642	0.075	117284	keystroke_Key.space	Key.space	n/a
59.2135	0.0735	118427	keystroke_b	b	n/a
59.243	0.1045	118486	keystroke_i	i	n/a
59.273	0.12	118546	keystroke_o	o	n/a
59.528	0.089	119056	keystroke_g	g	n/a
59.573	0.105	119146	keystroke_r	r	n/a
59.858	0.03	119716	keystroke_a	a	n/a
59.873	0.045	119746	keystroke_p	p	n/a
60.023	0.0895	120046	keystroke_h	h	n/a
60.1585	0.0895	120317	keystroke_y	y	n/a
60.773	0.09	121546	keystroke_Key.space	Key.space	n/a
61.4335	0.1195	122867	keystroke_g	g	n/a
61.538	0.075	123076	keystroke_r	r	n/a
61.793	0.135	123586	keystroke_e	e	n/a
62.003	0.06	124006	keystroke_a	a	n/a
62.183	0.105	124366	keystroke_t	t	n/a
62.333	0.105	124666	keystroke_e	e	n/a
62.393	0.1055	124786	keystroke_r	r	n/a
62.543	0.0895	125086	keystroke_Key.space	Key.space	n/a
62.7385	0.1045	125477	keystroke_e	e	n/a
62.798	0.09	125596	keystroke_n	n	n/a
62.948	0.06	125896	keystroke_t	t	n/a
63.338	0.0905	126676	keystroke_Key.backspace	Key.backspace	n/a
63.5785	0.089	127157	keystroke_r	r	n/a
64.2085	0.104	128417	keystroke_Key.backspace	Key.backspace	n/a
64.628	0.1055	129256	keystroke_e	e	n/a
64.748	0.09	129496	keystroke_r	r	n/a
65.2875	0.045	130575	keystroke_g	g	n/a
65.4375	0.075	130875	keystroke_y	y	n/a
65.693	0.0895	131386	keystroke_Key.enter	Key.enter	n/a
65.793	7.372	131586	prompt	n/a	feeding linear celebrities login\n
66.653	0.075	133306	keystroke_f	f	n/a
66.788	0.075	133576	keystroke_e	e	n/a
66.953	0.06	133906	keystroke_e	e	n/a
67.118	0.09	134236	keystroke_d	d	n/a
67.2835	0.1195	134567	keystroke_i	i	n/a
67.343	0.1055	134686	keystroke_n	n	n/a
67.463	0.075	134926	keystroke_g	g	n/a
67.613	0.12	135226	keystroke_Key.space	Key.space	n/a
68.168	0.09	136336	keystroke_l	l	n/a
68.333	0.1355	136666	keystroke_i	i	n/a
68.4375	0.1355	136875	keystroke_n	n	n/a
68.543	0.1505	137086	keystroke_e	e	n/a
68.753	0.075	137506	keystroke_a	a	n/a
68.828	0.105	137656	keystroke_r	r	n/a
68.978	0.105	137956	keystroke_Key.space	Key.space	n/a
69.3685	0.089	138737	keystroke_c	c	n/a
69.503	0.075	139006	keystroke_e	e	n/a
69.6375	0.0605	139275	keystroke_l	l	n/a
69.683	0.105	139366	keystroke_e	e	n/a
70.238	0.06	140476	keystroke_b	b	n/a
70.3575	0.09	140715	keystroke_r	r	n/a
70.463	0.075	140926	keystroke_i	i	n/a
70.5525	0.1205	141105	keystroke_t	t	n/a
70.838	0.075	141676	keystroke_i	i	n/a
70.8985	0.0895	141797	keystroke_e	e	n/a
71.1075	0.075	142215	keystroke_s	s	n/a
71.888	0.075	143776	keystroke_Key.space	Key.space	n/a
72.173	0.0755	144346	keystroke_l	l	n/a
72.3685	0.105	144737	keystroke_o	o	n/a
72.5475	0.091	145095	keystroke_g	g	n/a
72.6525	0.121	145305	keystroke_i	i	n/a
72.7125	0.12	145425	keystroke_n	n	n/a
73.0575	0.105	146115	keystroke_Key.enter	Key.enter	n/a
73.17	13.105	146340	prompt	n/a	locks barn surgeons zdnet\n
74.1385	0.075	148277	keystroke_l	l	n/a
74.3185	0.105	148637	keystroke_o	o	n/a
74.5135	0.09	149027	keystroke_c	c	n/a
74.8585	0.0745	149717	keystroke_l	l	n/a
75.098	0.06	150196	keystroke_s	s	n/a
75.668	0.075	151336	keystroke_Key.backspace	Key.backspace	n/a
75.803	0.09	151606	keystroke_Key.backspace	Key.backspace	n/a
76.5985	0.1045	153197	keystroke_k	k	n/a
78.0385	0.075	156077	keystroke_s	s	n/a
79.268	0.09	158536	keystroke_Key.space	Key.space	n/a
80.888	0.09	161776	keystroke_b	b	n/a
81.068	0.12	162136	keystroke_a	a	n/a
81.488	0.0605	162976	keystroke_r	r	n/a
81.5485	0.1045	163097	keystroke_n	n	n/a
81.803	0.075	163606	keystroke_Key.space	Key.space	n/a
82.2985	0.119	164597	keystroke_s	s	n/a
82.4335	0.074	164867	keystroke_u	u	n/a
82.5235	0.089	165047	keystroke_r	r	n/a
82.7175	0.106	165435	keystroke_g	g	n/a
82.9125	0.091	165825	keystroke_e	e	n/a
83.138	0.15	166276	keystroke_o	o	n/a
83.243	0.135	166486	keystroke_n	n	n/a
83.363	0.09	166726	keystroke_s	s	n/a
83.528	0.0895	167056	keystroke_Key.space	Key.space	n/a
84.3985	0.089	168797	keystroke_z	z	n/a
84.6685	0.105	169337	keystroke_d	d	n/a
85.088	0.0755	170176	keystroke_n	n	n/a
85.4775	0.1655	170955	keystroke_e	e	n/a
85.6875	0.0755	171375	keystroke_t	t	n/a
86.1675	0.105	172335	keystroke_Key.enter	Key.enter	n/a
86.279	7.616	172558	prompt	n/a	dvds forbes dental belarus\n
87.473	0.09	174946	keystroke_d	d	n/a
87.623	0.09	175246	keystroke_v	v	n/a
87.728	0.075	175456	keystroke_d	d	n/a
88.118	0.045	176236	keystroke_s	s	n/a
88.448	0.105	176896	keystroke_Key.space	Key.space	n/a
88.7185	0.089	177437	keystroke_f	f	n/a
88.8235	0.104	177647	keystroke_o	o	n/a
88.913	0.0895	177826	keystroke_r	r	n/a
89.1375	0.076	178275	keystroke_b	b	n/a
89.5575	0.061	179115	keystroke_e	e	n/a
89.7225	0.075	179445	keystroke_s	s	n/a
89.8875	0.106	179775	keystroke_Key.space	Key.space	n/a
90.6085	0.1045	181217	keystroke_d	d	n/a
90.758	0.075	181516	keystroke_e	e	n/a
90.848	0.105	181696	keystroke_n	n	n/a
90.9985	0.09	181997	keystroke_t	t	n/a
91.1485	0.1045	182297	keystroke_a	a	n/a
91.478	0.105	182956	keystroke_l	l	n/a
91.898	0.0755	183796	keystroke_Key.space	Key.space	n/a
92.5135	0.0745	185027	keystroke_b	b	n/a
92.708	0.09	185416	keystroke_e	e	n/a
92.8585	0.0895	185717	keystroke_l	l	n/a
93.083	0.09	186166	keystroke_a	a	n/a
93.2935	0.0745	186587	keystroke_r	r	n/a
93.383	0.0905	186766	keystroke_u	u	n/a
93.533	0.075	187066	keystroke_s	s	n/a
93.788	0.1055	187576	keystroke_Key.enter	Key.enter	n/a
93.8985	6.8515	187797	prompt	n/a	deleted aspect rainbow cable\n
94.673	0.0755	189346	keystroke_d	d	n/a
94.853	0.09	189706	keystroke_e	e	n/a
94.988	0.09	189976	keystroke_l	l	n/a
95.093	0.09	190186	keystroke_e	e	n/a
95.363	0.06	190726	keystroke_t	t	n/a
95.438	0.09	190876	keystroke_e	e	n/a
95.5885	0.0895	191177	keystroke_d	d	n/a
95.7235	0.12	191447	keystroke_Key.space	Key.space	n/a
95.9035	0.075	191807	keystroke_a	a	n/a
96.0985	0.105	192197	keystroke_s	s	n/a
96.2785	0.105	192557	keystroke_p	p	n/a
96.7135	0.06	193427	keystroke_e	e	n/a
96.9535	0.105	193907	keystroke_c	c	n/a
97.2375	0.0755	194475	keystroke_t	t	n/a
97.538	0.09	195076	keystroke_Key.space	Key.space	n/a
97.973	0.0755	195946	keystroke_r	r	n/a
98.138	0.0755	196276	keystroke_a	a	n/a
98.228	0.1205	196456	keystroke_i	i	n/a
98.288	0.12	196576	keystroke_n	n	n/a
98.8135	0.0745	197627	keystroke_b	b	n/a
98.903	0.09	197806	keystroke_o	o	n/a
99.0375	0.091	198075	keystroke_w	w	n/a
99.2035	0.075	198407	keystroke_Key.space	Key.space	n/a
99.6675	0.061	199335	keystroke_c	c	n/a
99.8785	0.105	199757	keystroke_a	a	n/a
100.088	0.0905	200176	keystroke_b	b	n/a
100.2235	0.075	200447	keystroke_l	l	n/a
100.2835	0.105	200567	keystroke_e	e	n/a
100.6285	0.1195	201257	keystroke_Key.enter	Key.enter	n/a
100.7545	5.636	201509	prompt	n/a	federation faith result anne\n
101.468	0.09	202936	keystroke_f	f	n/a
101.633	0.105	203266	keystroke_e	e	n/a
101.843	0.0895	203686	keystroke_d	d	n/a
101.993	0.1355	203986	keystroke_e	e	n/a
102.0825	0.09	204165	keystroke_r	r	n/a
102.2625	0.105	204525	keystroke_a	a	n/a
102.4285	0.1045	204857	keystroke_t	t	n/a
102.548	0.21	205096	keystroke_i	i	n/a
102.5925	0.1505	205185	keystroke_o	o	n/a
102.728	0.105	205456	keystroke_n	n	n/a
103.1485	0.1195	206297	keystroke_Key.space	Key.space	n/a
103.5385	0.1045	207077	keystroke_f	f	n/a
103.628	0.105	207256	keystroke_a	a	n/a
103.778	0.0905	207556	keystroke_i	i	n/a
103.9125	0.1055	207825	keystroke_t	t	n/a
104.033	0.075	208066	keystroke_h	h	n/a
104.213	0.105	208426	keystroke_Key.space	Key.space	n/a
104.663	0.09	209326	keystroke_r	r	n/a
104.708	0.06	209416	keystroke_e	e	n/a
104.843	0.105	209686	keystroke_s	s	n/a
104.963	0.045	209926	keystroke_u	u	n/a
105.1885	0.0895	210377	keystroke_l	l	n/a
105.2935	0.0595	210587	keystroke_t	t	n/a
105.5025	0.09	211005	keystroke_Key.space	Key.space	n/a
105.7125	0.076	211425	keystroke_a	a	n/a
105.8325	0.06	211665	keystroke_n	n	n/a
105.9675	0.061	211935	keystroke_n	n	n/a
106.118	0.075	212236	keystroke_e	e	n/a
106.298	0.0905	212596	keystroke_Key.enter	Key.enter	n/a
106.3955	8.994	212791	prompt	n/a	qualities various sapphire wrong\n
107.423	0.075	214846	keystroke_q	q	n/a
107.618	0.105	215236	keystroke_u	u	n/a
107.7525	0.105	215505	keystroke_a	a	n/a
107.873	0.0595	215746	keystroke_l	l	n/a
108.248	0.075	216496	keystroke_o	o	n/a
108.503	0.0605	217006	keystroke_t	t	n/a
108.818	0.075	217636	keystroke_Key.backspace	Key.backspace	n/a
108.953	0.104	217906	keystroke_Key.backspace	Key.backspace	n/a
109.448	0.075	218896	keystroke_i	i	n/a
109.6275	0.0905	219255	keystroke_t	t	n/a
109.7625	0.1055	219525	keystroke_i	i	n/a
109.868	0.075	219736	keystroke_e	e	n/a
110.018	0.1045	220036	keystroke_s	s	n/a
110.333	0.1045	220666	keystroke_Key.space	Key.space	n/a
110.903	0.075	221806	keystroke_v	v	n/a
111.068	0.105	222136	keystroke_a	a	n/a
111.158	0.12	222316	keystroke_r	r	n/a
111.293	0.075	222586	keystroke_i	i	n/a
111.473	0.1195	222946	keystroke_o	o	n/a
111.578	0.1045	223156	keystroke_u	u	n/a
111.6675	0.0905	223335	keystroke_s	s	n/a
111.832	0.03	223664	keystroke_n	n	n/a
112.298	0.075	224596	keystroke_Key.backspace	Key.backspace	n/a
112.538	0.075	225076	keystroke_Key.space	Key.space	n/a
112.808	0.09	225616	keystroke_s	s	n/a
112.988	0.09	225976	keystroke_a	a	n/a
113.183	0.0605	226366	keystroke_p	p	n/a
113.303	0.075	226606	keystroke_p	p	n/a
113.587	0.091	227174	keystroke_h	h	n/a
113.738	0.105	227476	keystroke_i	i	n/a
113.858	0.09	227716	keystroke_r	r	n/a
113.918	0.09	227836	keystroke_e	e	n/a
114.023	0.09	228046	keystroke_Key.space	Key.space	n/a
114.5035	0.09	229007	keystroke_w	w	n/a
114.698	0.09	229396	keystroke_r	r	n/a
114.8035	0.104	229607	keystroke_o	o	n/a
114.8325	0.121	229665	keystroke_n	n	n/a
114.9385	0.0745	229877	keystroke_g	g	n/a
115.298	0.09	230596	keystroke_Key.enter	Key.enter	n/a
115.393	9.087	230786	prompt	n/a	fuji assessment conspiracy gays\n
116.348	0.075	232696	keystroke_f	f	n/a
116.543	0.075	233086	keystroke_u	u	n/a
116.7385	0.1195	233477	keystroke_j	j	n/a
116.843	0.075	233686	keystroke_i	i	n/a
117.398	0.09	234796	keystroke_Key.space	Key.space	n/a
117.533	0.075	235066	keystroke_a	a	n/a
117.713	0.0755	235426	keystroke_s	s	n/a
117.8785	0.075	235757	keystroke_s	s	n/a
118.088	0.09	236176	keystroke_e	e	n/a
118.268	0.075	236536	keystroke_s	s	n/a
118.418	0.075	236836	keystroke_s	s	n/a
118.553	0.09	237106	keystroke_m	m	n/a
118.6275	0.0905	237255	keystroke_e	e	n/a
118.733	0.1055	237466	keystroke_n	n	n/a
118.8385	0.074	237677	keystroke_t	t	n/a
118.9875	0.1055	237975	keystroke_Key.space	Key.space	n/a
119.468	0.105	238936	keystroke_c	c	n/a
119.588	0.135	239176	keystroke_o	o	n/a
119.663	0.09	239326	keystroke_n	n	n/a
119.9035	0.075	239807	keystroke_s	s	n/a
120.8175	0.06	241635	keystroke_p	p	n/a
121.0575	0.0905	242115	keystroke_i	i	n/a
121.193	0.0745	242386	keystroke_r	r	n/a
121.3725	0.0755	242745	keystroke_a	a	n/a
121.5525	0.12	243105	keystroke_c	c	n/a
121.868	0.105	243736	keystroke_y	y	n/a
122.0775	0.0905	244155	keystroke_Key.space	Key.space	n/a
122.768	0.03	245536	keystroke_h	h	n/a
123.1275	0.075	246255	keystroke_Key.backspace	Key.backspace	n/a
123.2035	0.09	246407	keystroke_g	g	n/a
123.353	0.0905	246706	keystroke_a	a	n/a
123.593	0.09	247186	keystroke_y	y	n/a
123.7885	0.0895	247577	keystroke_s	s	n/a
124.3875	0.09	248775	keystroke_Key.enter	Key.enter	n/a
124.4845	6.025	248969	prompt	n/a	collection tribute detection comm\n
125.243	0.1045	250486	keystroke_c	c	n/a
125.363	0.044	250726	keystroke_o	o	n/a
125.528	0.045	251056	keystroke_l	l	n/a
125.647	0.091	251294	keystroke_l	l	n/a
125.707	0.09	251414	keystroke_e	e	n/a
125.843	0.09	251686	keystroke_c	c	n/a
126.053	0.09	252106	keystroke_t	t	n/a
126.082	0.166	252164	keystroke_i	i	n/a
126.128	0.135	252256	keystroke_o	o	n/a
126.218	0.09	252436	keystroke_n	n	n/a
126.413	0.09	252826	keystroke_Key.space	Key.space	n/a
126.773	0.09	253546	keystroke_t	t	n/a
126.833	0.1045	253666	keystroke_r	r	n/a
126.9525	0.09	253905	keystroke_i	i	n/a
127.0575	0.09	254115	keystroke_b	b	n/a
127.1625	0.0755	254325	keystroke_u	u	n/a
127.313	0.06	254626	keystroke_t	t	n/a
127.358	0.12	254716	keystroke_e	e	n/a
127.763	0.0445	255526	keystroke_Key.space	Key.space	n/a
128.1985	0.12	256397	keystroke_d	d	n/a
128.363	0.1195	256726	keystroke_e	e	n/a
128.5425	0.09	257085	keystroke_t	t	n/a
128.6175	0.1205	257235	keystroke_e	e	n/a
128.8725	0.105	257745	keystroke_c	c	n/a
129.0675	0.0755	258135	keystroke_t	t	n/a
129.128	0.1495	258256	keystroke_i	i	n/a
129.1435	0.149	258287	keystroke_o	o	n/a
129.2475	0.121	258495	keystroke_n	n	n/a
129.4575	0.09	258915	keystroke_Key.space	Key.space	n/a
129.683	0.09	259366	keystroke_c	c	n/a
129.8175	0.0755	259635	keystroke_o	o	n/a
129.968	0.0595	259936	keystroke_m	m	n/a
130.1025	0.0605	260205	keystroke_m	m	n/a
130.3875	0.12	260775	keystroke_Key.enter	Key.enter	n/a
130.5135	11.246	261027	prompt	n/a	demanding descriptions frequently hence\n
131.693	0.0895	263386	keystroke_d	d	n/a
131.9025	0.075	263805	keystroke_e	e	n/a
132.0225	0.0605	264045	keystroke_m	m	n/a
132.1275	0.0905	264255	keystroke_a	a	n/a
132.2325	0.1355	264465	keystroke_n	n	n/a
132.3825	0.075	264765	keystroke_d	d	n/a
132.5025	0.0905	265005	keystroke_i	i	n/a
132.5775	0.1055	265155	keystroke_n	n	n/a
132.668	0.0595	265336	keystroke_g	g	n/a
132.788	0.0895	265576	keystroke_Key.space	Key.space	n/a
133.3575	0.045	266715	keystroke_d	d	n/a
133.4775	0.0905	266955	keystroke_s	s	n/a
134.0025	0.105	268005	keystroke_Key.backspace	Key.backspace	n/a
134.0775	0.1045	268155	keystroke_e	e	n/a
134.242	0.12	268484	keystroke_s	s	n/a
135.053	0.09	270106	keystroke_c	c	n/a
135.233	0.09	270466	keystroke_r	r	n/a
135.338	0.1645	270676	keystroke_i	i	n/a
135.7125	0.09	271425	keystroke_p	p	n/a
136.058	0.0745	272116	keystroke_t	t	n/a
136.7635	0.104	273527	keystroke_i	i	n/a
136.913	0.1045	273826	keystroke_o	o	n/a
137.093	0.09	274186	keystroke_n	n	n/a
137.258	0.0895	274516	keystroke_s	s	n/a
137.9775	0.0905	275955	keystroke_Key.space	Key.space	n/a
138.623	0.09	277246	keystroke_f	f	n/a
138.803	0.075	277606	keystroke_r	r	n/a
138.863	0.09	277726	keystroke_e	e	n/a
139.283	0.045	278566	keystroke_q	q	n/a
139.373	0.1045	278746	keystroke_u	u	n/a
139.538	0.105	279076	keystroke_e	e	n/a
139.628	0.105	279256	keystroke_n	n	n/a
139.748	0.1205	279496	keystroke_t	t	n/a
140.183	0.075	280366	keystroke_l	l	n/a
140.303	0.075	280606	keystroke_y	y	n/a
140.633	0.09	281266	keystroke_Key.space	Key.space	n/a
141.038	0.09	282076	keystroke_h	h	n/a
141.113	0.105	282226	keystroke_e	e	n/a
141.248	0.09	282496	keystroke_n	n	n/a
141.353	0.12	282706	keystroke_c	c	n/a
141.4435	0.1045	282887	keystroke_e	e	n/a
141.668	0.09	283336	keystroke_Key.enter	Key.enter	n/a
141.764	8.8455	283528	prompt	n/a	fishing marina adult competing\n
142.5525	0.0605	285105	keystroke_f	f	n/a
142.6425	0.105	285285	keystroke_i	i	n/a
142.7935	0.0895	285587	keystroke_s	s	n/a
142.898	0.0595	285796	keystroke_h	h	n/a
142.9725	0.135	285945	keystroke_i	i	n/a
143.0475	0.12	286095	keystroke_n	n	n/a
143.213	0.0745	286426	keystroke_g	g	n/a
143.393	0.0745	286786	keystroke_Key.space	Key.space	n/a
143.888	0.0745	287776	keystroke_m	m	n/a
143.993	0.1045	287986	keystroke_a	a	n/a
144.188	0.0895	288376	keystroke_r	r	n/a
144.293	0.12	288586	keystroke_i	i	n/a
144.3675	0.135	288735	keystroke_n	n	n/a
144.5175	0.105	289035	keystroke_a	a	n/a
145.2225	0.075	290445	keystroke_Key.space	Key.space	n/a
145.3575	0.165	290715	keystroke_a	a	n/a
145.5235	0.0895	291047	keystroke_d	d	n/a
145.6275	0.09	291255	keystroke_u	u	n/a
145.853	0.12	291706	keystroke_l	l	n/a
145.958	0.09	291916	keystroke_t	t	n/a
146.198	0.09	292396	keystroke_Key.space	Key.space	n/a
146.4075	0.09	292815	keystroke_c	c	n/a
146.513	0.0895	293026	keystroke_i	i	n/a
146.558	0.1195	293116	keystroke_m	m	n/a
147.1275	0.0605	294255	keystroke_Key.backspace	Key.backspace	n/a
147.233	0.0895	294466	keystroke_Key.backspace	Key.backspace	n/a
147.473	0.1495	294946	keystroke_o	o	n/a
147.5925	0.0455	295185	keystroke_n	n	n/a
148.1175	0.0605	296235	keystroke_Key.backspace	Key.backspace	n/a
148.448	0.06	296896	keystroke_m	m	n/a
148.763	0.0445	297526	keystroke_p	p	n/a
149.0325	0.0745	298065	keystroke_e	e	n/a
149.2575	0.0905	298515	keystroke_r	r	n/a
149.7225	0.0905	299445	keystroke_Key.backspace	Key.backspace	n/a
149.783	0.075	299566	keystroke_t	t	n/a
150.0075	0.1055	300015	keystroke_i	i	n/a
150.053	0.119	300106	keystroke_n	n	n/a
150.128	0.075	300256	keystroke_g	g	n/a
150.518	0.09	301036	keystroke_Key.enter	Key.enter	n/a
150.614	5.7405	301228	prompt	n/a	fathers maintained notion sword\n
151.523	0.075	303046	keystroke_f	f	n/a
151.613	0.1345	303226	keystroke_a	a	n/a
151.7625	0.1055	303525	keystroke_t	t	n/a
151.883	0.075	303766	keystroke_h	h	n/a
151.943	0.09	303886	keystroke_e	e	n/a
152.0185	0.0895	304037	keystroke_r	r	n/a
152.183	0.105	304366	keystroke_s	s	n/a
152.303	0.0895	304606	keystroke_Key.space	Key.space	n/a
152.4975	0.09	304995	keystroke_m	m	n/a
152.6025	0.1655	305205	keystroke_a	a	n/a
152.7225	0.09	305445	keystroke_i	i	n/a
152.7825	0.105	305565	keystroke_n	n	n/a
152.9025	0.091	305805	keystroke_t	t	n/a
153.083	0.0895	306166	keystroke_a	a	n/a
153.1575	0.091	306315	keystroke_i	i	n/a
153.2175	0.09	306435	keystroke_n	n	n/a
153.3525	0.03	306705	keystroke_e	e	n/a
153.6675	0.09	307335	keystroke_d	d	n/a
154.1325	0.075	308265	keystroke_Key.space	Key.space	n/a
154.3435	0.104	308687	keystroke_n	n	n/a
154.5525	0.1055	309105	keystroke_o	o	n/a
154.718	0.09	309436	keystroke_t	t	n/a
154.868	0.1345	309736	keystroke_i	i	n/a
154.9875	0.15	309975	keystroke_o	o	n/a
155.093	0.1205	310186	keystroke_n	n	n/a
155.3025	0.0905	310605	keystroke_Key.space	Key.space	n/a
155.5725	0.075	311145	keystroke_s	s	n/a
155.7525	0.105	311505	keystroke_w	w	n/a
155.888	0.1195	311776	keystroke_o	o	n/a
155.9775	0.075	311955	keystroke_r	r	n/a
156.158	0.0755	312316	keystroke_d	d	n/a
156.2175	0.135	312435	keystroke_Key.enter	Key.enter	n/a
156.358	9.402	312716	prompt	n/a	initially assembly phys modification\n
157.0585	0.104	314117	keystroke_i	i	n/a
157.178	0.105	314356	keystroke_n	n	n/a
157.2985	0.1195	314597	keystroke_i	i	n/a
157.4325	0.091	314865	keystroke_t	t	n/a
157.5525	0.075	315105	keystroke_i	i	n/a
157.6575	0.075	315315	keystroke_a	a	n/a
157.793	0.0595	315586	keystroke_l	l	n/a
157.9125	0.0905	315825	keystroke_l	l	n/a
158.018	0.09	316036	keystroke_y	y	n/a
158.123	0.12	316246	keystroke_Key.space	Key.space	n/a
158.2885	0.0895	316577	keystroke_a	a	n/a
158.5725	0.075	317145	keystroke_s	s	n/a
158.7225	0.075	317445	keystroke_s	s	n/a
158.9025	0.075	317805	keystroke_e	e	n/a
158.9475	0.0905	317895	keystroke_m	m	n/a
159.113	0.1195	318226	keystroke_l	l	n/a
159.2775	0.09	318555	keystroke_y	y	n/a
159.7275	0.105	319455	keystroke_Key.backspace	Key.backspace	n/a
159.9375	0.0755	319875	keystroke_Key.backspace	Key.backspace	n/a
160.4175	0.0755	320835	keystroke_b	b	n/a
160.508	0.0895	321016	keystroke_l	l	n/a
160.658	0.0595	321316	keystroke_y	y	n/a
161.5275	0.0905	323055	keystroke_Key.space	Key.space	n/a
161.918	0.0895	323836	keystroke_p	p	n/a
162.113	0.09	324226	keystroke_h	h	n/a
162.263	0.0895	324526	keystroke_y	y	n/a
162.338	0.09	324676	keystroke_s	s	n/a
162.638	0.0595	325276	keystroke_Key.space	Key.space	n/a
163.4775	0.0905	326955	keystroke_m	m	n/a
163.6125	0.1205	327225	keystroke_o	o	n/a
163.8375	0.0895	327675	keystroke_d	d	n/a
163.958	0.09	327916	keystroke_i	i	n/a
164.288	0.06	328576	keystroke_f	f	n/a
164.543	0.09	329086	keystroke_i	i	n/a
164.648	0.09	329296	keystroke_c	c	n/a
164.798	0.12	329596	keystroke_a	a	n/a
165.068	0.09	330136	keystroke_t	t	n/a
165.203	0.1495	330406	keystroke_i	i	n/a
165.293	0.1655	330586	keystroke_o	o	n/a
165.3975	0.105	330795	keystroke_n	n	n/a
165.668	0.09	331336	keystroke_Key.enter	Key.enter	n/a
165.766	7.4185	331532	prompt	n/a	montana rights insulation extras\n
166.4325	0.1055	332865	keystroke_m	m	n/a
166.6575	0.075	333315	keystroke_o	o	n/a
166.7335	0.149	333467	keystroke_n	n	n/a
167.0325	0.09	334065	keystroke_t	t	n/a
167.1825	0.09	334365	keystroke_a	a	n/a
167.2575	0.09	334515	keystroke_n	n	n/a
167.6025	0.0905	335205	keystroke_a	a	n/a
167.977	0.091	335954	keystroke_Key.space	Key.space	n/a
168.413	0.06	336826	keystroke_r	r	n/a
168.518	0.1045	337036	keystroke_i	i	n/a
168.683	0.075	337366	keystroke_g	g	n/a
168.7725	0.0905	337545	keystroke_h	h	n/a
168.833	0.0895	337666	keystroke_t	t	n/a
169.0125	0.135	338025	keystroke_s	s	n/a
169.1025	0.075	338205	keystroke_Key.space	Key.space	n/a
169.358	0.1045	338716	keystroke_i	i	n/a
169.4325	0.0755	338865	keystroke_n	n	n/a
169.613	0.06	339226	keystroke_s	s	n/a
169.673	0.075	339346	keystroke_u	u	n/a
169.898	0.12	339796	keystroke_l	l	n/a
170.4825	0.09	340965	keystroke_a	a	n/a
170.663	0.09	341326	keystroke_t	t	n/a
170.753	0.209	341506	keystroke_i	i	n/a
170.813	0.135	341626	keystroke_o	o	n/a
170.933	0.09	341866	keystroke_n	n	n/a
171.188	0.06	342376	keystroke_Key.space	Key.space	n/a
171.563	0.09	343126	keystroke_e	e	n/a
171.863	0.09	343726	keystroke_x	x	n/a
172.208	0.09	344416	keystroke_t	t	n/a
172.253	0.105	344506	keystroke_r	r	n/a
172.508	0.09	345016	keystroke_a	a	n/a
172.688	0.105	345376	keystroke_s	s	n/a
173.078	0.105	346156	keystroke_Key.enter	Key.enter	n/a
173.1885	13.826	346377	prompt	n/a	comprehensive flood members scroll\n
174.082	0.105	348164	keystroke_c	c	n/a
174.292	0.151	348584	keystroke_o	o	n/a
174.413	0.09	348826	keystroke_m	m	n/a
174.577	0.105	349154	keystroke_p	p	n/a
174.817	0.1065	349634	keystroke_r	r	n/a
174.8775	0.1055	349755	keystroke_e	e	n/a
175.1925	0.09	350385	keystroke_h	h	n/a
175.298	0.089	350596	keystroke_e	e	n/a
175.402	0.105	350804	keystroke_n	n	n/a
175.838	0.06	351676	keystroke_s	s	n/a
176.318	0.09	352636	keystroke_i	i	n/a
176.6475	0.075	353295	keystroke_v	v	n/a
176.7825	0.1055	353565	keystroke_e	e	n/a
176.9775	0.09	353955	keystroke_Key.space	Key.space	n/a
177.5925	0.0905	355185	keystroke_f	f	n/a
177.683	0.0445	355366	keystroke_l	l	n/a
177.8625	0.06	355725	keystroke_o	o	n/a
177.983	0.104	355966	keystroke_o	o	n/a
178.073	0.06	356146	keystroke_d	d	n/a
178.193	0.09	356386	keystroke_Key.space	Key.space	n/a
178.373	0.089	356746	keystroke_m	m	n/a
178.448	0.044	356896	keystroke_e	e	n/a
178.552	0.0755	357104	keystroke_m	m	n/a
178.598	0.075	357196	keystroke_e	e	n/a
178.8235	0.075	357647	keystroke_b	b	n/a
178.988	0.0445	357976	keystroke_e	e	n/a
179.093	0.045	358186	keystroke_e	e	n/a
179.108	0.09	358216	keystroke_r	r	n/a
179.573	0.075	359146	keystroke_Key.backspace	Key.backspace	n/a
179.708	0.09	359416	keystroke_Key.backspace	Key.backspace	n/a
179.813	0.075	359626	keystroke_r	r	n/a
180.023	0.09	360046	keystroke_s	s	n/a
180.233	0.105	360466	keystroke_Key.space	Key.space	n/a
180.533	0.0905	361066	keystroke_s	s	n/a
180.683	0.1055	361366	keystroke_c	c	n/a
180.923	0.029	361846	keystroke_r	r	n/a
180.968	0.06	361936	keystroke_o	o	n/a
181.298	0.06	362596	keystroke_l	l	n/a
181.567	0.06	363134	keystroke_l	l	n/a
182.7975	0.075	365595	keystroke_Key.backspace	Key.backspace	n/a
182.9475	0.06	365895	keystroke_Key.backspace	Key.backspace	n/a
183.083	0.06	366166	keystroke_Key.backspace	Key.backspace	n/a
183.2175	0.06	366435	keystroke_Key.backspace	Key.backspace	n/a
183.338	0.075	366676	keystroke_Key.backspace	Key.backspace	n/a
183.5025	0.045	367005	keystroke_Key.backspace	Key.backspace	n/a
183.6075	0.0605	367215	keystroke_Key.backspace	Key.backspace	n/a
183.728	0.06	367456	keystroke_Key.backspace	Key.backspace	n/a
183.8775	0.045	367755	keystroke_Key.backspace	Key.backspace	n/a
183.9975	0.0455	367995	keystroke_Key.backspace	Key.backspace	n/a
184.088	0.0595	368176	keystroke_Key.backspace	Key.backspace	n/a
184.4175	0.045	368835	keystroke_Key.backspace	Key.backspace	n/a
185.1225	0.0905	370245	keystroke_b	b	n/a
185.243	0.1045	370486	keystroke_e	e	n/a
185.318	0.0745	370636	keystroke_r	r	n/a
185.4525	0.105	370905	keystroke_s	s	n/a
185.663	0.0595	371326	keystroke_Key.space	Key.space	n/a
185.9025	0.0755	371805	keystroke_s	s	n/a
186.0385	0.1045	372077	keystroke_c	c	n/a
186.248	0.105	372496	keystroke_r	r	n/a
186.368	0.06	372736	keystroke_o	o	n/a
186.518	0.075	373036	keystroke_l	l	n/a
186.653	0.075	373306	keystroke_l	l	n/a
186.908	0.105	373816	keystroke_Key.enter	Key.enter	n/a
187.02	6.8945	374040	prompt	n/a	defects nodes security charter\n
187.853	0.09	375706	keystroke_d	d	n/a
188.0325	0.09	376065	keystroke_e	e	n/a
188.243	0.0895	376486	keystroke_f	f	n/a
188.3775	0.075	376755	keystroke_e	e	n/a
188.5125	0.09	377025	keystroke_c	c	n/a
188.7225	0.09	377445	keystroke_t	t	n/a
188.8875	0.0905	377775	keystroke_s	s	n/a
188.9625	0.075	377925	keystroke_Key.space	Key.space	n/a
189.1275	0.09	378255	keystroke_n	n	n/a
189.2775	0.09	378555	keystroke_o	o	n/a
189.3375	0.075	378675	keystroke_d	d	n/a
189.488	0.0745	378976	keystroke_e	e	n/a
189.6225	0.1205	379245	keystroke_s	s	n/a
189.743	0.0745	379486	keystroke_Key.space	Key.space	n/a
190.178	0.075	380356	keystroke_s	s	n/a
190.3125	0.1205	380625	keystroke_e	e	n/a
190.567	0.061	381134	keystroke_d	d	n/a
191.123	0.029	382246	keystroke_Key.backspace	Key.backspace	n/a
191.168	0.0745	382336	keystroke_c	c	n/a
191.573	0.09	383146	keystroke_u	u	n/a
191.632	0.091	383264	keystroke_r	r	n/a
191.783	0.09	383566	keystroke_i	i	n/a
191.888	0.0895	383776	keystroke_t	t	n/a
192.068	0.09	384136	keystroke_y	y	n/a
192.3375	0.075	384675	keystroke_Key.space	Key.space	n/a
192.9675	0.0905	385935	keystroke_c	c	n/a
193.0585	0.074	386117	keystroke_h	h	n/a
193.1175	0.1205	386235	keystroke_a	a	n/a
193.252	0.106	386504	keystroke_r	r	n/a
193.418	0.09	386836	keystroke_t	t	n/a
193.538	0.1045	387076	keystroke_e	e	n/a
193.613	0.09	387226	keystroke_r	r	n/a
193.808	0.105	387616	keystroke_Key.enter	Key.enter	n/a
193.919	7.9755	387838	prompt	n/a	amino motorola visa worry\n
194.558	0.09	389116	keystroke_a	a	n/a
194.6925	0.0745	389385	keystroke_m	m	n/a
194.827	0.136	389654	keystroke_i	i	n/a
194.918	0.1205	389836	keystroke_n	n	n/a
195.202	0.106	390404	keystroke_o	o	n/a
195.487	0.091	390974	keystroke_Key.space	Key.space	n/a
195.983	0.0745	391966	keystroke_m	m	n/a
196.133	0.09	392266	keystroke_o	o	n/a
196.283	0.06	392566	keystroke_t	t	n/a
196.358	0.135	392716	keystroke_o	o	n/a
196.8075	0.0605	393615	keystroke_r	r	n/a
197.2125	0.0755	394425	keystroke_o	o	n/a
197.378	0.0895	394756	keystroke_l	l	n/a
197.4825	0.0755	394965	keystroke_a	a	n/a
197.6625	0.0755	395325	keystroke_Key.space	Key.space	n/a
198.127	0.075	396254	keystroke_v	v	n/a
198.2325	0.091	396465	keystroke_i	i	n/a
198.5025	0.1045	397005	keystroke_s	s	n/a
198.698	0.075	397396	keystroke_a	a	n/a
198.833	0.074	397666	keystroke_Key.space	Key.space	n/a
201.189	0.0435	402378	keystroke_w	w	n/a
201.248	0.09	402496	keystroke_o	o	n/a
201.367	0.061	402734	keystroke_r	r	n/a
201.503	0.059	403006	keystroke_r	r	n/a
201.713	0.075	403426	keystroke_y	y	n/a
201.802	0.0905	403604	keystroke_Key.enter	Key.enter	n/a
201.899	4.991	403798	prompt	n/a	solve surf fraud racing\n
202.568	0.09	405136	keystroke_s	s	n/a
202.673	0.075	405346	keystroke_o	o	n/a
202.823	0.12	405646	keystroke_l	l	n/a
202.928	0.075	405856	keystroke_v	v	n/a
203.063	0.12	406126	keystroke_e	e	n/a
203.168	0.105	406336	keystroke_Key.space	Key.space	n/a
203.6775	0.09	407355	keystroke_s	s	n/a
203.8875	0.09	407775	keystroke_u	u	n/a
203.9625	0.09	407925	keystroke_r	r	n/a
204.158	0.075	408316	keystroke_f	f	n/a
204.233	0.09	408466	keystroke_Key.space	Key.space	n/a
204.8475	0.075	409695	keystroke_f	f	n/a
204.9975	0.091	409995	keystroke_r	r	n/a
205.1325	0.09	410265	keystroke_a	a	n/a
205.283	0.1045	410566	keystroke_u	u	n/a
205.3875	0.075	410775	keystroke_d	d	n/a
205.538	0.0895	411076	keystroke_Key.space	Key.space	n/a
206.0175	0.09	412035	keystroke_r	r	n/a
206.1675	0.075	412335	keystroke_a	a	n/a
206.3175	0.1205	412635	keystroke_c	c	n/a
206.4225	0.12	412845	keystroke_i	i	n/a
206.5125	0.09	413025	keystroke_n	n	n/a
206.5875	0.09	413175	keystroke_g	g	n/a
206.783	0.1045	413566	keystroke_Key.enter	Key.enter	n/a
206.8975	7.6115	413795	prompt	n/a	sticks freeware copies bibliography\n
207.668	0.0895	415336	keystroke_s	s	n/a
207.8475	0.09	415695	keystroke_t	t	n/a
207.9525	0.09	415905	keystroke_i	i	n/a
208.103	0.105	416206	keystroke_c	c	n/a
208.2225	0.06	416445	keystroke_k	k	n/a
208.3275	0.045	416655	keystroke_s	s	n/a
208.4625	0.09	416925	keystroke_Key.space	Key.space	n/a
208.8225	0.075	417645	keystroke_f	f	n/a
208.9875	0.1205	417975	keystroke_r	r	n/a
209.1085	0.0745	418217	keystroke_e	e	n/a
209.2275	0.09	418455	keystroke_e	e	n/a
209.4975	0.09	418995	keystroke_w	w	n/a
209.7225	0.075	419445	keystroke_a	a	n/a
209.9175	0.09	419835	keystroke_r	r	n/a
209.963	0.09	419926	keystroke_e	e	n/a
210.2025	0.09	420405	keystroke_Key.space	Key.space	n/a
210.5025	0.0755	421005	keystroke_c	c	n/a
210.653	0.15	421306	keystroke_o	o	n/a
210.758	0.105	421516	keystroke_p	p	n/a
210.983	0.105	421966	keystroke_i	i	n/a
211.073	0.09	422146	keystroke_e	e	n/a
211.208	0.105	422416	keystroke_s	s	n/a
211.328	0.06	422656	keystroke_Key.space	Key.space	n/a
212.1375	0.06	424275	keystroke_b	b	n/a
212.213	0.075	424426	keystroke_i	i	n/a
212.3025	0.075	424605	keystroke_b	b	n/a
212.588	0.09	425176	keystroke_l	l	n/a
212.798	0.135	425596	keystroke_i	i	n/a
212.903	0.09	425806	keystroke_o	o	n/a
213.548	0.075	427096	keystroke_g	g	n/a
213.593	0.105	427186	keystroke_r	r	n/a
213.773	0.15	427546	keystroke_a	a	n/a
213.863	0.075	427726	keystroke_p	p	n/a
214.028	0.09	428056	keystroke_h	h	n/a
214.133	0.09	428266	keystroke_y	y	n/a
214.403	0.105	428806	keystroke_Key.enter	Key.enter	n/a
214.513	6.6715	429026	prompt	n/a	cultural date tradition on\n
215.303	0.075	430606	keystroke_c	c	n/a
215.393	0.06	430786	keystroke_u	u	n/a
215.573	0.105	431146	keystroke_l	l	n/a
215.663	0.09	431326	keystroke_t	t	n/a
215.948	0.105	431896	keystroke_u	u	n/a
216.083	0.075	432166	keystroke_r	r	n/a
216.143	0.09	432286	keystroke_e	e	n/a
216.548	0.075	433096	keystroke_Key.backspace	Key.backspace	n/a
216.653	0.075	433306	keystroke_a	a	n/a
216.758	0.12	433516	keystroke_l	l	n/a
217.013	0.09	434026	keystroke_Key.space	Key.space	n/a
217.403	0.12	434806	keystroke_d	d	n/a
217.538	0.135	435076	keystroke_a	a	n/a
217.778	0.09	435556	keystroke_t	t	n/a
217.853	0.09	435706	keystroke_e	e	n/a
218.1675	0.06	436335	keystroke_Key.space	Key.space	n/a
218.303	0.0595	436606	keystroke_s	s	n/a
218.798	0.09	437596	keystroke_Key.backspace	Key.backspace	n/a
219.083	0.09	438166	keystroke_t	t	n/a
219.143	0.075	438286	keystroke_r	r	n/a
219.398	0.075	438796	keystroke_a	a	n/a
219.653	0.105	439306	keystroke_d	d	n/a
219.908	0.09	439816	keystroke_i	i	n/a
220.043	0.105	440086	keystroke_t	t	n/a
220.133	0.15	440266	keystroke_i	i	n/a
220.178	0.15	440356	keystroke_o	o	n/a
220.268	0.105	440536	keystroke_n	n	n/a
220.478	0.075	440956	keystroke_Key.space	Key.space	n/a
220.703	0.135	441406	keystroke_o	o	n/a
220.793	0.12	441586	keystroke_n	n	n/a
221.063	0.1195	442126	keystroke_Key.enter	Key.enter	n/a
221.188	7.511	442376	prompt	n/a	goat holland tissue coach\n
221.978	0.0895	443956	keystroke_g	g	n/a
222.052	0.121	444104	keystroke_o	o	n/a
222.158	0.105	444316	keystroke_a	a	n/a
222.293	0.089	444586	keystroke_t	t	n/a
222.397	0.06	444794	keystroke_Key.space	Key.space	n/a
222.578	0.105	445156	keystroke_h	h	n/a
222.758	0.105	445516	keystroke_o	o	n/a
222.998	0.045	445996	keystroke_l	l	n/a
223.103	0.09	446206	keystroke_l	l	n/a
223.238	0.045	446476	keystroke_a	a	n/a
223.313	0.09	446626	keystroke_n	n	n/a
223.568	0.06	447136	keystroke_d	d	n/a
223.9275	0.075	447855	keystroke_Key.space	Key.space	n/a
224.452	0.06	448904	keystroke_t	t	n/a
224.528	0.0895	449056	keystroke_i	i	n/a
224.6325	0.0755	449265	keystroke_s	s	n/a
224.782	0.0755	449564	keystroke_s	s	n/a
224.888	0.0745	449776	keystroke_u	u	n/a
225.0225	0.0755	450045	keystroke_e	e	n/a
225.3375	0.09	450675	keystroke_Key.space	Key.space	n/a
225.713	0.0895	451426	keystroke_c	c	n/a
225.8475	0.0905	451695	keystroke_o	o	n/a
226.268	0.105	452536	keystroke_a	a	n/a
226.388	0.09	452776	keystroke_s	s	n/a
226.523	0.09	453046	keystroke_h	h	n/a
227.5875	0.0755	455175	keystroke_Key.backspace	Key.backspace	n/a
227.723	0.105	455446	keystroke_Key.backspace	Key.backspace	n/a
227.873	0.0895	455746	keystroke_c	c	n/a
228.038	0.09	456076	keystroke_h	h	n/a
228.622	0.075	457244	keystroke_Key.enter	Key.enter	n/a
228.7025	4.9465	457405	prompt	n/a	units claims poker ctrl\n
229.447	0.105	458894	keystroke_u	u	n/a
229.522	0.075	459044	keystroke_n	n	n/a
229.6425	0.1045	459285	keystroke_i	i	n/a
229.7025	0.0895	459405	keystroke_t	t	n/a
229.852	0.106	459704	keystroke_s	s	n/a
229.942	0.0755	459884	keystroke_Key.space	Key.space	n/a
230.3925	0.105	460785	keystroke_c	c	n/a
230.4825	0.09	460965	keystroke_l	l	n/a
230.588	0.1045	461176	keystroke_a	a	n/a
230.708	0.1345	461416	keystroke_i	i	n/a
230.8275	0.105	461655	keystroke_m	m	n/a
230.9625	0.09	461925	keystroke_s	s	n/a
231.0675	0.0905	462135	keystroke_Key.space	Key.space	n/a
231.5175	0.09	463035	keystroke_p	p	n/a
231.6675	0.105	463335	keystroke_o	o	n/a
231.893	0.0745	463786	keystroke_k	k	n/a
232.013	0.1045	464026	keystroke_e	e	n/a
232.103	0.105	464206	keystroke_r	r	n/a
232.2675	0.09	464535	keystroke_Key.space	Key.space	n/a
232.6125	0.105	465225	keystroke_c	c	n/a
232.9125	0.09	465825	keystroke_t	t	n/a
233.0925	0.09	466185	keystroke_r	r	n/a
233.1975	0.0905	466395	keystroke_l	l	n/a
233.5425	0.105	467085	keystroke_Key.enter	Key.enter	n/a
233.6525	9.852	467305	prompt	n/a	video strengthening conjunction facilities\n
234.638	0.06	469276	keystroke_v	v	n/a
234.833	0.0445	469666	keystroke_e	e	n/a
234.8925	0.075	469785	keystroke_i	i	n/a
235.2525	0.03	470505	keystroke_Key.backspace	Key.backspace	n/a
235.3425	0.075	470685	keystroke_Key.backspace	Key.backspace	n/a
235.5675	0.09	471135	keystroke_i	i	n/a
235.6275	0.075	471255	keystroke_d	d	n/a
235.7925	0.0905	471585	keystroke_e	e	n/a
235.9275	0.0745	471855	keystroke_o	o	n/a
236.272	0.105	472544	keystroke_Key.space	Key.space	n/a
236.572	0.0905	473144	keystroke_s	s	n/a
236.813	0.119	473626	keystroke_t	t	n/a
236.888	0.0745	473776	keystroke_r	r	n/a
237.082	0.031	474164	keystroke_n	n	n/a
237.113	0.059	474226	keystroke_e	e	n/a
237.547	0.0605	475094	keystroke_Key.backspace	Key.backspace	n/a
237.6825	0.0755	475365	keystroke_Key.backspace	Key.backspace	n/a
237.772	0.076	475544	keystroke_e	e	n/a
237.923	0.105	475846	keystroke_n	n	n/a
238.043	0.09	476086	keystroke_g	g	n/a
238.223	0.075	476446	keystroke_t	t	n/a
238.313	0.06	476626	keystroke_h	h	n/a
238.703	0.075	477406	keystroke_e	e	n/a
238.793	0.09	477586	keystroke_n	n	n/a
238.988	0.1045	477976	keystroke_i	i	n/a
239.0625	0.075	478125	keystroke_n	n	n/a
239.1225	0.075	478245	keystroke_g	g	n/a
239.228	0.1045	478456	keystroke_Key.space	Key.space	n/a
239.4975	0.0905	478995	keystroke_c	c	n/a
239.6025	0.105	479205	keystroke_o	o	n/a
239.6775	0.0755	479355	keystroke_n	n	n/a
239.8725	0.06	479745	keystroke_j	j	n/a
240.0525	0.09	480105	keystroke_u	u	n/a
240.188	0.09	480376	keystroke_n	n	n/a
240.2925	0.105	480585	keystroke_c	c	n/a
240.608	0.0595	481216	keystroke_t	t	n/a
240.6975	0.1805	481395	keystroke_i	i	n/a
240.7725	0.1355	481545	keystroke_o	o	n/a
240.8475	0.12	481695	keystroke_n	n	n/a
241.4925	0.09	482985	keystroke_Key.space	Key.space	n/a
241.8375	0.09	483675	keystroke_f	f	n/a
241.9725	0.1055	483945	keystroke_a	a	n/a
242.1225	0.12	484245	keystroke_c	c	n/a
242.2725	0.075	484545	keystroke_i	i	n/a
242.4525	0.09	484905	keystroke_l	l	n/a
242.6325	0.075	485265	keystroke_i	i	n/a
242.7225	0.06	485445	keystroke_t	t	n/a
242.8125	0.1205	485625	keystroke_i	i	n/a
242.8725	0.0905	485745	keystroke_e	e	n/a
243.068	0.06	486136	keystroke_s	s	n/a
243.397	0.1055	486794	keystroke_Key.enter	Key.enter	n/a
243.5095	6.895	487019	prompt	n/a	poultry solve entering scored\n
244.568	0.075	489136	keystroke_p	p	n/a
245.108	0.075	490216	keystroke_o	o	n/a
245.288	0.075	490576	keystroke_u	u	n/a
245.528	0.074	491056	keystroke_l	l	n/a
245.978	0.119	491956	keystroke_t	t	n/a
246.052	0.1065	492104	keystroke_r	r	n/a
246.203	0.09	492406	keystroke_y	y	n/a
246.878	0.075	493756	keystroke_Key.space	Key.space	n/a
247.058	0.075	494116	keystroke_s	s	n/a
247.162	0.091	494324	keystroke_o	o	n/a
247.358	0.09	494716	keystroke_l	l	n/a
247.433	0.074	494866	keystroke_v	v	n/a
247.552	0.091	495104	keystroke_e	e	n/a
247.687	0.09	495374	keystroke_Key.space	Key.space	n/a
247.913	0.1195	495826	keystroke_e	e	n/a
248.003	0.105	496006	keystroke_n	n	n/a
248.122	0.075	496244	keystroke_t	t	n/a
248.228	0.12	496456	keystroke_e	e	n/a
248.317	0.091	496634	keystroke_r	r	n/a
248.468	0.119	496936	keystroke_i	i	n/a
248.543	0.104	497086	keystroke_n	n	n/a
248.6325	0.0895	497265	keystroke_g	g	n/a
248.738	0.089	497476	keystroke_Key.space	Key.space	n/a
249.338	0.15	498676	keystroke_s	s	n/a
249.473	0.12	498946	keystroke_c	c	n/a
249.668	0.09	499336	keystroke_o	o	n/a
249.773	0.105	499546	keystroke_r	r	n/a
249.878	0.075	499756	keystroke_e	e	n/a
250.072	0.075	500144	keystroke_d	d	n/a
250.282	0.121	500564	keystroke_Key.enter	Key.enter	n/a
250.4095	7.96	500819	prompt	n/a	radius understand party compliant\n
251.1825	0.0755	502365	keystroke_r	r	n/a
251.3175	0.0905	502635	keystroke_a	a	n/a
251.4675	0.0905	502935	keystroke_d	d	n/a
251.6025	0.09	503205	keystroke_i	i	n/a
251.8435	0.0895	503687	keystroke_u	u	n/a
251.947	0.075	503894	keystroke_s	s	n/a
252.517	0.076	505034	keystroke_Key.space	Key.space	n/a
252.8625	0.1495	505725	keystroke_u	u	n/a
252.938	0.0905	505876	keystroke_n	n	n/a
253.072	0.075	506144	keystroke_d	d	n/a
253.193	0.105	506386	keystroke_e	e	n/a
253.267	0.076	506534	keystroke_r	r	n/a
253.4325	0.1055	506865	keystroke_s	s	n/a
253.613	0.059	507226	keystroke_t	t	n/a
253.763	0.089	507526	keystroke_a	a	n/a
253.882	0.0905	507764	keystroke_n	n	n/a
253.9575	0.075	507915	keystroke_d	d	n/a
254.1075	0.06	508215	keystroke_Key.space	Key.space	n/a
254.768	0.09	509536	keystroke_p	p	n/a
254.903	0.105	509806	keystroke_a	a	n/a
255.128	0.09	510256	keystroke_r	r	n/a
255.308	0.09	510616	keystroke_t	t	n/a
255.5025	0.0605	511005	keystroke_y	y	n/a
255.8175	0.075	511635	keystroke_Key.space	Key.space	n/a
256.1175	0.091	512235	keystroke_c	c	n/a
256.2525	0.12	512505	keystroke_o	o	n/a
256.3125	0.105	512625	keystroke_m	m	n/a
256.4925	0.1955	512985	keystroke_p	p	n/a
256.5975	0.1505	513195	keystroke_l	l	n/a
256.868	0.104	513736	keystroke_i	i	n/a
257.0325	0.0745	514065	keystroke_a	a	n/a
257.122	0.105	514244	keystroke_n	n	n/a
257.8875	0.0905	515775	keystroke_t	t	n/a
258.2625	0.1045	516525	keystroke_Key.enter	Key.enter	n/a
258.373	8.126	516746	prompt	n/a	valve dosage nano cooperation\n
259.522	0.0905	519044	keystroke_v	v	n/a
259.672	0.075	519344	keystroke_a	a	n/a
259.778	0.09	519556	keystroke_l	l	n/a
260.168	0.074	520336	keystroke_v	v	n/a
260.318	0.089	520636	keystroke_e	e	n/a
260.452	0.075	520904	keystroke_Key.space	Key.space	n/a
260.843	0.09	521686	keystroke_d	d	n/a
260.978	0.074	521956	keystroke_o	o	n/a
261.068	0.135	522136	keystroke_s	s	n/a
261.5475	0.045	523095	keystroke_g	g	n/a
261.953	0.0895	523906	keystroke_Key.backspace	Key.backspace	n/a
261.9975	0.135	523995	keystroke_a	a	n/a
262.2225	0.09	524445	keystroke_g	g	n/a
262.283	0.1045	524566	keystroke_e	e	n/a
262.6875	0.075	525375	keystroke_Key.space	Key.space	n/a
262.9425	0.0905	525885	keystroke_n	n	n/a
263.1825	0.09	526365	keystroke_a	a	n/a
263.3025	0.075	526605	keystroke_n	n	n/a
263.4825	0.075	526965	keystroke_o	o	n/a
263.7375	0.09	527475	keystroke_Key.space	Key.space	n/a
264.2935	0.089	528587	keystroke_c	c	n/a
264.4125	0.0605	528825	keystroke_o	o	n/a
264.547	0.0615	529094	keystroke_o	o	n/a
264.728	0.09	529456	keystroke_p	p	n/a
264.968	0.105	529936	keystroke_e	e	n/a
265.043	0.09	530086	keystroke_r	r	n/a
265.283	0.105	530566	keystroke_a	a	n/a
265.433	0.12	530866	keystroke_t	t	n/a
265.523	0.255	531046	keystroke_i	i	n/a
265.688	0.15	531376	keystroke_o	o	n/a
266.0925	0.0905	532185	keystroke_n	n	n/a
266.363	0.135	532726	keystroke_Key.enter	Key.enter	n/a
266.5035	9.011	533007	prompt	n/a	layers magnitude comparison scientist\n
267.278	0.09	534556	keystroke_l	l	n/a
267.383	0.105	534766	keystroke_a	a	n/a
267.533	0.119	535066	keystroke_y	y	n/a
267.7125	0.105	535425	keystroke_e	e	n/a
267.7875	0.0905	535575	keystroke_r	r	n/a
267.9375	0.1055	535875	keystroke_s	s	n/a
268.6575	0.06	537315	keystroke_Key.space	Key.space	n/a
268.8375	0.09	537675	keystroke_m	m	n/a
268.9125	0.105	537825	keystroke_a	a	n/a
269.152	0.0915	538304	keystroke_g	g	n/a
269.257	0.075	538514	keystroke_n	n	n/a
269.3925	0.09	538785	keystroke_i	i	n/a
269.6475	0.0605	539295	keystroke_t	t	n/a
269.723	0.0745	539446	keystroke_u	u	n/a
269.8125	0.06	539625	keystroke_t	t	n/a
270.1875	0.09	540375	keystroke_Key.backspace	Key.backspace	n/a
270.2325	0.0755	540465	keystroke_d	d	n/a
270.3825	0.0755	540765	keystroke_e	e	n/a
271.0125	0.09	542025	keystroke_Key.space	Key.space	n/a
271.2375	0.075	542475	keystroke_c	c	n/a
271.3425	0.1355	542685	keystroke_o	o	n/a
271.4625	0.075	542925	keystroke_m	m	n/a
271.5975	0.105	543195	keystroke_p	p	n/a
271.7175	0.12	543435	keystroke_a	a	n/a
271.883	0.09	543766	keystroke_r	r	n/a
271.9875	0.015	543975	keystroke_o	o	n/a
272.0625	0.075	544125	keystroke_i	i	n/a
272.4075	0.06	544815	keystroke_Key.backspace	Key.backspace	n/a
272.528	0.0895	545056	keystroke_Key.backspace	Key.backspace	n/a
272.7825	0.1205	545565	keystroke_i	i	n/a
272.9925	0.0905	545985	keystroke_s	s	n/a
273.053	0.119	546106	keystroke_o	o	n/a
273.143	0.1055	546286	keystroke_n	n	n/a
273.367	0.091	546734	keystroke_Key.space	Key.space	n/a
273.9225	0.0905	547845	keystroke_s	s	n/a
274.118	0.104	548236	keystroke_c	c	n/a
274.252	0.1055	548504	keystroke_i	i	n/a
274.402	0.061	548804	keystroke_e	e	n/a
274.508	0.0895	549016	keystroke_n	n	n/a
274.6725	0.075	549345	keystroke_t	t	n/a
274.793	0.104	549586	keystroke_i	i	n/a
274.8825	0.09	549765	keystroke_s	s	n/a
275.047	0.075	550094	keystroke_t	t	n/a
275.422	0.0905	550844	keystroke_Key.enter	Key.enter	n/a
275.5195	9.8045	551039	prompt	n/a	browser pharmaceuticals cooling labels\n
276.383	0.075	552766	keystroke_b	b	n/a
276.518	0.12	553036	keystroke_r	r	n/a
276.653	0.12	553306	keystroke_o	o	n/a
276.788	0.09	553576	keystroke_w	w	n/a
277.028	0.09	554056	keystroke_e	e	n/a
277.223	0.06	554446	keystroke_r	r	n/a
277.522	0.061	555044	keystroke_Key.backspace	Key.backspace	n/a
277.643	0.089	555286	keystroke_Key.backspace	Key.backspace	n/a
277.703	0.105	555406	keystroke_s	s	n/a
277.793	0.12	555586	keystroke_e	e	n/a
277.898	0.09	555796	keystroke_r	r	n/a
278.483	0.075	556966	keystroke_Key.space	Key.space	n/a
278.7675	0.0905	557535	keystroke_p	p	n/a
279.008	0.1045	558016	keystroke_h	h	n/a
279.1275	0.105	558255	keystroke_a	a	n/a
279.2625	0.09	558525	keystroke_r	r	n/a
279.7725	0.075	559545	keystroke_m	m	n/a
280.118	0.074	560236	keystroke_a	a	n/a
280.6125	0.0895	561225	keystroke_c	c	n/a
280.748	0.1355	561496	keystroke_e	e	n/a
281.0475	0.1195	562095	keystroke_u	u	n/a
281.3775	0.075	562755	keystroke_t	t	n/a
281.4975	0.09	562995	keystroke_i	i	n/a
281.6625	0.1205	563325	keystroke_c	c	n/a
281.828	0.1045	563656	keystroke_a	a	n/a
281.9775	0.09	563955	keystroke_l	l	n/a
282.053	0.0895	564106	keystroke_s	s	n/a
282.2625	0.09	564525	keystroke_Key.space	Key.space	n/a
282.788	0.075	565576	keystroke_c	c	n/a
282.923	0.06	565846	keystroke_o	o	n/a
283.043	0.075	566086	keystroke_o	o	n/a
283.208	0.09	566416	keystroke_l	l	n/a
283.418	0.12	566836	keystroke_i	i	n/a
283.493	0.105	566986	keystroke_n	n	n/a
283.613	0.06	567226	keystroke_g	g	n/a
283.673	0.09	567346	keystroke_Key.space	Key.space	n/a
283.9125	0.1055	567825	keystroke_l	l	n/a
284.033	0.105	568066	keystroke_a	a	n/a
284.483	0.09	568966	keystroke_b	b	n/a
284.663	0.09	569326	keystroke_e	e	n/a
284.768	0.09	569536	keystroke_l	l	n/a
284.873	0.1055	569746	keystroke_s	s	n/a
285.233	0.09	570466	keystroke_Key.enter	Key.enter	n/a
285.328	7.9765	570656	prompt	n/a	builders dropped translations accessed\n
286.2225	0.075	572445	keystroke_b	b	n/a
286.3425	0.075	572685	keystroke_u	u	n/a
286.5225	0.0605	573045	keystroke_i	i	n/a
286.6885	0.12	573377	keystroke_l	l	n/a
286.8225	0.045	573645	keystroke_d	d	n/a
286.8975	0.135	573795	keystroke_e	e	n/a
287.0175	0.075	574035	keystroke_r	r	n/a
287.228	0.0895	574456	keystroke_s	s	n/a
287.3625	0.105	574725	keystroke_Key.space	Key.space	n/a
287.963	0.105	575926	keystroke_d	d	n/a
288.1725	0.0605	576345	keystroke_r	r	n/a
288.2175	0.105	576435	keystroke_o	o	n/a
288.2925	0.09	576585	keystroke_p	p	n/a
288.4725	0.1355	576945	keystroke_p	p	n/a
288.6525	0.076	577305	keystroke_e	e	n/a
288.8775	0.075	577755	keystroke_d	d	n/a
289.1325	0.0755	578265	keystroke_Key.space	Key.space	n/a
289.4775	0.105	578955	keystroke_t	t	n/a
289.5525	0.0755	579105	keystroke_r	r	n/a
289.7625	0.075	579525	keystroke_a	a	n/a
289.8225	0.1055	579645	keystroke_n	n	n/a
289.942	0.076	579884	keystroke_s	s	n/a
290.288	0.06	580576	keystroke_l	l	n/a
290.423	0.105	580846	keystroke_a	a	n/a
290.648	0.09	581296	keystroke_t	t	n/a
290.753	0.1645	581506	keystroke_i	i	n/a
290.813	0.135	581626	keystroke_o	o	n/a
290.9025	0.12	581805	keystroke_n	n	n/a
290.9925	0.075	581985	keystroke_s	s	n/a
291.173	0.0745	582346	keystroke_Key.space	Key.space	n/a
291.8175	0.06	583635	keystroke_a	a	n/a
292.028	0.0595	584056	keystroke_c	c	n/a
292.1625	0.0905	584325	keystroke_c	c	n/a
292.328	0.0745	584656	keystroke_e	e	n/a
292.5225	0.075	585045	keystroke_s	s	n/a
292.6725	0.075	585345	keystroke_s	s	n/a
292.8675	0.075	585735	keystroke_e	e	n/a
293.0025	0.09	586005	keystroke_d	d	n/a
293.198	0.105	586396	keystroke_Key.enter	Key.enter	n/a
293.309	7.9155	586618	prompt	n/a	field bennett worry upgrading\n
294.1275	0.09	588255	keystroke_f	f	n/a
294.2025	0.075	588405	keystroke_i	i	n/a
294.2785	0.074	588557	keystroke_e	e	n/a
294.4125	0.12	588825	keystroke_l	l	n/a
294.5175	0.0755	589035	keystroke_d	d	n/a
294.668	0.09	589336	keystroke_Key.space	Key.space	n/a
295.418	0.075	590836	keystroke_b	b	n/a
295.598	0.0745	591196	keystroke_e	e	n/a
295.7175	0.045	591435	keystroke_n	n	n/a
295.8225	0.091	591645	keystroke_n	n	n/a
295.928	0.0895	591856	keystroke_e	e	n/a
296.1685	0.06	592337	keystroke_t	t	n/a
296.318	0.074	592636	keystroke_t	t	n/a
297.352	0.0755	594704	keystroke_Key.space	Key.space	n/a
297.5325	0.091	595065	keystroke_w	w	n/a
297.6525	0.09	595305	keystroke_o	o	n/a
297.7875	0.0155	595575	keystroke_r	r	n/a
297.8625	0.106	595725	keystroke_r	r	n/a
298.1025	0.09	596205	keystroke_y	y	n/a
298.2675	0.075	596535	keystroke_Key.space	Key.space	n/a
299.0625	0.09	598125	keystroke_u	u	n/a
299.3625	0.105	598725	keystroke_p	p	n/a
299.783	0.075	599566	keystroke_g	g	n/a
299.8125	0.105	599625	keystroke_r	r	n/a
300.008	0.1345	600016	keystroke_a	a	n/a
300.0975	0.1205	600195	keystroke_d	d	n/a
300.2185	0.1045	600437	keystroke_i	i	n/a
300.2925	0.105	600585	keystroke_n	n	n/a
300.3825	0.09	600765	keystroke_g	g	n/a
301.1025	0.1205	602205	keystroke_Key.enter	Key.enter	n/a
301.228	6.5965	602456	prompt	n/a	soil upgrade redeem premier\n
301.9425	0.06	603885	keystroke_s	s	n/a
302.123	0.12	604246	keystroke_o	o	n/a
302.228	0.089	604456	keystroke_i	i	n/a
302.438	0.105	604876	keystroke_l	l	n/a
302.648	0.105	605296	keystroke_Key.space	Key.space	n/a
303.083	0.059	606166	keystroke_u	u	n/a
303.458	0.105	606916	keystroke_p	p	n/a
303.863	0.075	607726	keystroke_g	g	n/a
303.907	0.121	607814	keystroke_r	r	n/a
304.103	0.135	608206	keystroke_a	a	n/a
304.193	0.09	608386	keystroke_d	d	n/a
304.343	0.09	608686	keystroke_e	e	n/a
304.508	0.09	609016	keystroke_Key.space	Key.space	n/a
304.778	0.09	609556	keystroke_r	r	n/a
304.838	0.09	609676	keystroke_e	e	n/a
305.048	0.09	610096	keystroke_d	d	n/a
305.198	0.075	610396	keystroke_e	e	n/a
305.333	0.09	610666	keystroke_e	e	n/a
305.453	0.075	610906	keystroke_m	m	n/a
305.633	0.075	611266	keystroke_Key.space	Key.space	n/a
306.0675	0.12	612135	keystroke_p	p	n/a
306.4725	0.06	612945	keystroke_r	r	n/a
306.5025	0.0755	613005	keystroke_e	e	n/a
306.728	0.0745	613456	keystroke_m	m	n/a
306.8775	0.09	613755	keystroke_i	i	n/a
307.0125	0.1045	614025	keystroke_e	e	n/a
307.103	0.0905	614206	keystroke_r	r	n/a
307.7175	0.105	615435	keystroke_Key.enter	Key.enter	n/a
307.83	7.78	615660	prompt	n/a	election holdem canyon cnet\n
308.603	0.075	617206	keystroke_e	e	n/a
308.723	0.105	617446	keystroke_l	l	n/a
308.798	0.09	617596	keystroke_e	e	n/a
309.038	0.06	618076	keystroke_c	c	n/a
309.233	0.075	618466	keystroke_t	t	n/a
309.293	0.165	618586	keystroke_i	i	n/a
309.353	0.12	618706	keystroke_o	o	n/a
309.428	0.105	618856	keystroke_n	n	n/a
309.638	0.075	619276	keystroke_Key.space	Key.space	n/a
310.3125	0.045	620625	keystroke_h	h	n/a
310.433	0.0895	620866	keystroke_o	o	n/a
310.628	0.1045	621256	keystroke_l	l	n/a
310.808	0.09	621616	keystroke_d	d	n/a
310.9575	0.075	621915	keystroke_e	e	n/a
311.0775	0.105	622155	keystroke_m	m	n/a
311.363	0.075	622726	keystroke_Key.space	Key.space	n/a
312.2635	0.075	624527	keystroke_c	c	n/a
312.323	0.1195	624646	keystroke_o	o	n/a
312.383	0.1055	624766	keystroke_n	n	n/a
313.0125	0.0605	626025	keystroke_Key.backspace	Key.backspace	n/a
313.1325	0.0905	626265	keystroke_Key.backspace	Key.backspace	n/a
313.268	0.075	626536	keystroke_a	a	n/a
313.403	0.09	626806	keystroke_n	n	n/a
313.703	0.12	627406	keystroke_y	y	n/a
313.973	0.135	627946	keystroke_o	o	n/a
314.063	0.09	628126	keystroke_n	n	n/a
314.303	0.09	628606	keystroke_Key.space	Key.space	n/a
314.978	0.075	629956	keystroke_c	c	n/a
315.067	0.076	630134	keystroke_n	n	n/a
315.173	0.075	630346	keystroke_e	e	n/a
315.338	0.075	630676	keystroke_t	t	n/a
315.503	0.105	631006	keystroke_Key.enter	Key.enter	n/a
315.6145	9.266	631229	prompt	n/a	headquarters newer identify sigma\n
316.3425	0.09	632685	keystroke_h	h	n/a
316.4175	0.0905	632835	keystroke_e	e	n/a
316.583	0.1045	633166	keystroke_a	a	n/a
316.6735	0.1045	633347	keystroke_d	d	n/a
317.8435	0.0595	635687	keystroke_q	q	n/a
317.873	0.09	635746	keystroke_u	u	n/a
318.083	0.06	636166	keystroke_a	a	n/a
318.308	0.075	636616	keystroke_r	r	n/a
318.593	0.015	637186	keystroke_t	t	n/a
318.638	0.105	637276	keystroke_e	e	n/a
318.7285	0.0745	637457	keystroke_r	r	n/a
318.893	0.105	637786	keystroke_s	s	n/a
319.013	0.105	638026	keystroke_Key.space	Key.space	n/a
319.223	0.105	638446	keystroke_n	n	n/a
319.373	0.12	638746	keystroke_e	e	n/a
319.4485	0.1045	638897	keystroke_w	w	n/a
319.823	0.075	639646	keystroke_r	r	n/a
320.198	0.1045	640396	keystroke_Key.backspace	Key.backspace	n/a
320.273	0.0905	640546	keystroke_e	e	n/a
320.333	0.0745	640666	keystroke_r	r	n/a
320.6175	0.0745	641235	keystroke_Key.space	Key.space	n/a
321.083	0.075	642166	keystroke_i	i	n/a
321.2185	0.0895	642437	keystroke_d	d	n/a
321.3675	0.091	642735	keystroke_e	e	n/a
321.4725	0.091	642945	keystroke_n	n	n/a
322.193	0.06	644386	keystroke_t	t	n/a
322.298	0.075	644596	keystroke_i	i	n/a
322.658	0.09	645316	keystroke_f	f	n/a
322.898	0.075	645796	keystroke_y	y	n/a
323.573	0.075	647146	keystroke_Key.space	Key.space	n/a
323.7985	0.0895	647597	keystroke_s	s	n/a
323.873	0.09	647746	keystroke_i	i	n/a
324.203	0.075	648406	keystroke_g	g	n/a
324.4435	0.1045	648887	keystroke_m	m	n/a
324.533	0.0895	649066	keystroke_a	a	n/a
324.7875	0.09	649575	keystroke_Key.enter	Key.enter	n/a
324.885	7.3745	649770	prompt	n/a	tasks butterfly purse encourage\n
325.5985	0.0745	651197	keystroke_t	t	n/a
325.778	0.09	651556	keystroke_a	a	n/a
325.8685	0.0895	651737	keystroke_s	s	n/a
326.018	0.09	652036	keystroke_k	k	n/a
326.153	0.09	652306	keystroke_s	s	n/a
326.813	0.09	653626	keystroke_Key.space	Key.space	n/a
327.143	0.09	654286	keystroke_b	b	n/a
327.203	0.09	654406	keystroke_u	u	n/a
327.383	0.0455	654766	keystroke_t	t	n/a
327.473	0.1055	654946	keystroke_t	t	n/a
327.6235	0.0895	655247	keystroke_e	e	n/a
327.683	0.075	655366	keystroke_r	r	n/a
328.058	0.09	656116	keystroke_f	f	n/a
328.118	0.09	656236	keystroke_l	l	n/a
328.358	0.09	656716	keystroke_y	y	n/a
328.9575	0.075	657915	keystroke_Key.space	Key.space	n/a
329.1825	0.106	658365	keystroke_p	p	n/a
329.3775	0.09	658755	keystroke_u	u	n/a
329.4825	0.075	658965	keystroke_r	r	n/a
329.6175	0.12	659235	keystroke_s	s	n/a
329.7525	0.0755	659505	keystroke_e	e	n/a
330.0225	0.046	660045	keystroke_Key.space	Key.space	n/a
330.3825	0.0605	660765	keystroke_e	e	n/a
330.458	0.09	660916	keystroke_n	n	n/a
330.893	0.06	661786	keystroke_c	c	n/a
331.013	0.15	662026	keystroke_o	o	n/a
331.118	0.12	662236	keystroke_u	u	n/a
331.253	0.075	662506	keystroke_r	r	n/a
331.463	0.075	662926	keystroke_a	a	n/a
331.658	0.09	663316	keystroke_g	g	n/a
331.733	0.1345	663466	keystroke_e	e	n/a
332.1675	0.09	664335	keystroke_Key.enter	Key.enter	n/a
332.2655	9.2345	664531	prompt	n/a	symbols photographers salaries crime\n
333.068	0.0895	666136	keystroke_s	s	n/a
333.323	0.075	666646	keystroke_y	y	n/a
333.428	0.1045	666856	keystroke_m	m	n/a
333.7575	0.09	667515	keystroke_b	b	n/a
333.8785	0.0295	667757	keystroke_o	o	n/a
334.2535	0.1195	668507	keystroke_l	l	n/a
334.3875	0.075	668775	keystroke_s	s	n/a
335.3175	0.075	670635	keystroke_Key.space	Key.space	n/a
335.7075	0.06	671415	keystroke_p	p	n/a
335.9035	0.0595	671807	keystroke_h	h	n/a
336.068	0.105	672136	keystroke_o	o	n/a
336.218	0.09	672436	keystroke_t	t	n/a
336.323	0.09	672646	keystroke_o	o	n/a
336.968	0.075	673936	keystroke_g	g	n/a
336.998	0.09	673996	keystroke_r	r	n/a
337.163	0.12	674326	keystroke_a	a	n/a
337.253	0.0905	674506	keystroke_p	p	n/a
337.448	0.075	674896	keystroke_h	h	n/a
337.658	0.105	675316	keystroke_e	e	n/a
337.733	0.105	675466	keystroke_r	r	n/a
337.928	0.12	675856	keystroke_s	s	n/a
338.198	0.074	676396	keystroke_Key.space	Key.space	n/a
338.468	0.09	676936	keystroke_s	s	n/a
338.648	0.06	677296	keystroke_a	a	n/a
338.7235	0.0745	677447	keystroke_l	l	n/a
338.813	0.0895	677626	keystroke_a	a	n/a
339.038	0.075	678076	keystroke_r	r	n/a
339.143	0.12	678286	keystroke_i	i	n/a
339.248	0.09	678496	keystroke_e	e	n/a
339.458	0.075	678916	keystroke_s	s	n/a
339.6675	0.09	679335	keystroke_Key.space	Key.space	n/a
340.1475	0.045	680295	keystroke_f	f	n/a
340.4625	0.105	680925	keystroke_Key.backspace	Key.backspace	n/a
340.5225	0.091	681045	keystroke_c	c	n/a
340.7335	0.089	681467	keystroke_r	r	n/a
340.8385	0.164	681677	keystroke_i	i	n/a
340.9275	0.135	681855	keystroke_m	m	n/a
340.9875	0.091	681975	keystroke_e	e	n/a
341.4075	0.091	682815	keystroke_Key.enter	Key.enter	n/a
341.5045	8.2455	683009	prompt	n/a	beats plaintiff drum scientists\n
342.3085	0.09	684617	keystroke_b	b	n/a
342.4125	0.091	684825	keystroke_e	e	n/a
342.5635	0.135	685127	keystroke_a	a	n/a
342.7285	0.075	685457	keystroke_t	t	n/a
342.8785	0.105	685757	keystroke_s	s	n/a
343.0285	0.105	686057	keystroke_Key.space	Key.space	n/a
343.4475	0.12	686895	keystroke_l	l	n/a
344.2875	0.075	688575	keystroke_Key.backspace	Key.backspace	n/a
344.6625	0.0905	689325	keystroke_p	p	n/a
344.8425	0.075	689685	keystroke_l	l	n/a
345.0225	0.075	690045	keystroke_a	a	n/a
345.053	0.1495	690106	keystroke_i	i	n/a
345.1585	0.104	690317	keystroke_n	n	n/a
345.503	0.0745	691006	keystroke_t	t	n/a
345.623	0.0895	691246	keystroke_i	i	n/a
345.728	0.0895	691456	keystroke_f	f	n/a
345.878	0.09	691756	keystroke_f	f	n/a
346.0725	0.0755	692145	keystroke_Key.space	Key.space	n/a
346.4925	0.075	692985	keystroke_d	d	n/a
346.6875	0.0905	693375	keystroke_r	r	n/a
346.8075	0.0905	693615	keystroke_u	u	n/a
347.1675	0.0605	694335	keystroke_m	m	n/a
347.4825	0.015	694965	keystroke_Key.space	Key.space	n/a
347.9625	0.075	695925	keystroke_s	s	n/a
348.143	0.09	696286	keystroke_c	c	n/a
348.458	0.09	696916	keystroke_i	i	n/a
348.698	0.09	697396	keystroke_e	e	n/a
348.818	0.09	697636	keystroke_n	n	n/a
349.028	0.06	698056	keystroke_t	t	n/a
349.103	0.075	698206	keystroke_i	i	n/a
349.208	0.105	698416	keystroke_s	s	n/a
349.387	0.0755	698774	keystroke_t	t	n/a
349.538	0.09	699076	keystroke_s	s	n/a
349.643	0.105	699286	keystroke_Key.enter	Key.enter	n/a
349.7545	5.515	699509	prompt	n/a	merit surname sized griffin\n
350.453	0.06	700906	keystroke_m	m	n/a
350.558	0.105	701116	keystroke_e	e	n/a
350.648	0.09	701296	keystroke_r	r	n/a
350.903	0.105	701806	keystroke_i	i	n/a
351.0225	0.091	702045	keystroke_t	t	n/a
351.158	0.09	702316	keystroke_Key.space	Key.space	n/a
351.413	0.09	702826	keystroke_s	s	n/a
351.518	0.075	703036	keystroke_u	u	n/a
351.638	0.0605	703276	keystroke_r	r	n/a
351.758	0.09	703516	keystroke_n	n	n/a
351.878	0.1045	703756	keystroke_a	a	n/a
351.998	0.0745	703996	keystroke_m	m	n/a
352.118	0.0745	704236	keystroke_e	e	n/a
352.178	0.1045	704356	keystroke_Key.space	Key.space	n/a
352.598	0.0595	705196	keystroke_s	s	n/a
352.6725	0.0755	705345	keystroke_i	i	n/a
353.1825	0.09	706365	keystroke_z	z	n/a
353.4825	0.09	706965	keystroke_e	e	n/a
353.678	0.09	707356	keystroke_d	d	n/a
353.7825	0.09	707565	keystroke_Key.space	Key.space	n/a
354.278	0.0895	708556	keystroke_g	g	n/a
354.3375	0.105	708675	keystroke_r	r	n/a
354.4575	0.0605	708915	keystroke_i	i	n/a
354.5475	0.0755	709095	keystroke_f	f	n/a
354.683	0.0755	709366	keystroke_f	f	n/a
354.7725	0.1195	709545	keystroke_i	i	n/a
354.8475	0.061	709695	keystroke_n	n	n/a
355.178	0.09	710356	keystroke_Key.enter	Key.enter	n/a
355.273	5.9365	710546	prompt	n/a	headers chevy male bone\n
356.0175	0.105	712035	keystroke_h	h	n/a
356.0925	0.0755	712185	keystroke_e	e	n/a
356.2575	0.105	712515	keystroke_a	a	n/a
356.3475	0.091	712695	keystroke_d	d	n/a
356.4825	0.1205	712965	keystroke_e	e	n/a
356.573	0.0755	713146	keystroke_r	r	n/a
356.6935	0.119	713387	keystroke_s	s	n/a
356.8135	0.104	713627	keystroke_Key.space	Key.space	n/a
357.1125	0.105	714225	keystroke_c	c	n/a
357.2025	0.09	714405	keystroke_h	h	n/a
357.2625	0.12	714525	keystroke_e	e	n/a
357.7275	0.0755	715455	keystroke_v	v	n/a
358.1925	0.075	716385	keystroke_y	y	n/a
358.718	0.06	717436	keystroke_Key.space	Key.space	n/a
358.928	0.0745	717856	keystroke_m	m	n/a
359.033	0.12	718066	keystroke_a	a	n/a
359.168	0.105	718336	keystroke_l	l	n/a
359.288	0.075	718576	keystroke_e	e	n/a
359.408	0.075	718816	keystroke_Key.space	Key.space	n/a
359.828	0.075	719656	keystroke_m	m	n/a
360.157	0.046	720314	keystroke_Key.backspace	Key.backspace	n/a
360.3235	0.0895	720647	keystroke_b	b	n/a
360.638	0.1355	721276	keystroke_o	o	n/a
360.728	0.12	721456	keystroke_n	n	n/a
360.803	0.075	721606	keystroke_e	e	n/a
361.118	0.09	722236	keystroke_Key.enter	Key.enter	n/a
361.214	4.9005	722428	prompt	n/a	saint reflects brick susan\n
361.8075	0.0905	723615	keystroke_s	s	n/a
362.078	0.1045	724156	keystroke_a	a	n/a
362.198	0.0745	724396	keystroke_i	i	n/a
362.2575	0.09	724515	keystroke_n	n	n/a
362.3775	0.0905	724755	keystroke_t	t	n/a
362.468	0.0745	724936	keystroke_Key.space	Key.space	n/a
362.798	0.0895	725596	keystroke_r	r	n/a
362.8575	0.0905	725715	keystroke_e	e	n/a
363.023	0.105	726046	keystroke_f	f	n/a
363.143	0.1045	726286	keystroke_l	l	n/a
363.173	0.105	726346	keystroke_e	e	n/a
363.3375	0.075	726675	keystroke_c	c	n/a
363.5325	0.075	727065	keystroke_t	t	n/a
363.6825	0.105	727365	keystroke_s	s	n/a
363.7725	0.1055	727545	keystroke_Key.space	Key.space	n/a
364.1175	0.0605	728235	keystroke_b	b	n/a
364.2685	0.074	728537	keystroke_r	r	n/a
364.328	0.105	728656	keystroke_i	i	n/a
364.523	0.0895	729046	keystroke_c	c	n/a
364.6425	0.1055	729285	keystroke_k	k	n/a
364.8225	0.09	729645	keystroke_Key.space	Key.space	n/a
365.2875	0.0155	730575	keystroke_s	s	n/a
365.318	0.0745	730636	keystroke_u	u	n/a
365.4075	0.06	730815	keystroke_s	s	n/a
365.5575	0.091	731115	keystroke_a	a	n/a
365.6625	0.09	731325	keystroke_n	n	n/a
366.0225	0.09	732045	keystroke_Key.enter	Key.enter	n/a
366.1185	6.281	732237	prompt	n/a	organize nirvana mono books\n
366.8635	0.089	733727	keystroke_o	o	n/a
366.9675	0.0755	733935	keystroke_r	r	n/a
367.1325	0.075	734265	keystroke_g	g	n/a
367.2825	0.075	734565	keystroke_a	a	n/a
367.3435	0.089	734687	keystroke_n	n	n/a
367.478	0.12	734956	keystroke_i	i	n/a
367.5825	0.03	735165	keystroke_s	s	n/a
368.1975	0.165	736395	keystroke_Key.backspace	Key.backspace	n/a
368.3485	0.0295	736697	keystroke_z	z	n/a
368.5125	0.0755	737025	keystroke_e	e	n/a
368.9925	0.075	737985	keystroke_Key.space	Key.space	n/a
369.1875	0.0905	738375	keystroke_n	n	n/a
369.338	0.075	738676	keystroke_i	i	n/a
369.428	0.06	738856	keystroke_r	r	n/a
369.638	0.075	739276	keystroke_v	v	n/a
369.7725	0.1055	739545	keystroke_a	a	n/a
369.8925	0.09	739785	keystroke_n	n	n/a
369.968	0.0895	739936	keystroke_a	a	n/a
370.1325	0.06	740265	keystroke_Key.space	Key.space	n/a
370.6125	0.075	741225	keystroke_m	m	n/a
370.7335	0.119	741467	keystroke_o	o	n/a
370.8375	0.0755	741675	keystroke_n	n	n/a
370.943	0.075	741886	keystroke_o	o	n/a
371.1675	0.075	742335	keystroke_Key.space	Key.space	n/a
371.5575	0.076	743115	keystroke_b	b	n/a
371.648	0.0445	743296	keystroke_o	o	n/a
371.7525	0.135	743505	keystroke_o	o	n/a
371.8725	0.0905	743745	keystroke_k	k	n/a
371.993	0.075	743986	keystroke_s	s	n/a
372.323	0.075	744646	keystroke_Key.enter	Key.enter	n/a
372.403	7.736	744806	prompt	n/a	quiz costumes operates smoking\n
373.2525	0.09	746505	keystroke_q	q	n/a
373.3435	0.074	746687	keystroke_u	u	n/a
373.5085	0.12	747017	keystroke_i	i	n/a
373.763	0.06	747526	keystroke_s	s	n/a
374.3325	0.1055	748665	keystroke_Key.backspace	Key.backspace	n/a
374.4225	0.06	748845	keystroke_z	z	n/a
374.9175	0.075	749835	keystroke_Key.space	Key.space	n/a
375.278	0.1045	750556	keystroke_c	c	n/a
375.3675	0.09	750735	keystroke_o	o	n/a
375.4875	0.0755	750975	keystroke_s	s	n/a
375.698	0.0745	751396	keystroke_t	t	n/a
375.7425	0.09	751485	keystroke_u	u	n/a
375.9375	0.105	751875	keystroke_m	m	n/a
375.9825	0.075	751965	keystroke_e	e	n/a
376.1475	0.09	752295	keystroke_s	s	n/a
376.658	0.075	753316	keystroke_Key.space	Key.space	n/a
376.898	0.105	753796	keystroke_o	o	n/a
377.138	0.09	754276	keystroke_p	p	n/a
377.273	0.105	754546	keystroke_e	e	n/a
377.363	0.09	754726	keystroke_r	r	n/a
377.572	0.076	755144	keystroke_a	a	n/a
377.738	0.105	755476	keystroke_t	t	n/a
377.812	0.092	755624	keystroke_e	e	n/a
377.978	0.09	755956	keystroke_s	s	n/a
377.9925	0.0155	755985	keystroke_w	w	n/a
378.158	0.075	756316	keystroke_Key.space	Key.space	n/a
378.473	0.075	756946	keystroke_Key.backspace	Key.backspace	n/a
378.623	0.075	757246	keystroke_Key.backspace	Key.backspace	n/a
378.878	0.105	757756	keystroke_Key.space	Key.space	n/a
379.028	0.09	758056	keystroke_s	s	n/a
379.133	0.06	758266	keystroke_m	m	n/a
379.268	0.09	758536	keystroke_o	o	n/a
379.403	0.1045	758806	keystroke_k	k	n/a
379.5525	0.135	759105	keystroke_i	i	n/a
379.6575	0.1055	759315	keystroke_n	n	n/a
379.748	0.0905	759496	keystroke_g	g	n/a
380.0325	0.105	760065	keystroke_Key.enter	Key.enter	n/a
380.143	4.9165	760286	prompt	n/a	medical racks seed viewing\n
380.828	0.075	761656	keystroke_m	m	n/a
381.008	0.075	762016	keystroke_e	e	n/a
381.188	0.075	762376	keystroke_d	d	n/a
381.278	0.09	762556	keystroke_i	i	n/a
381.353	0.105	762706	keystroke_c	c	n/a
381.503	0.105	763006	keystroke_a	a	n/a
381.623	0.06	763246	keystroke_l	l	n/a
381.773	0.1045	763546	keystroke_Key.space	Key.space	n/a
381.9375	0.09	763875	keystroke_r	r	n/a
382.0875	0.1055	764175	keystroke_a	a	n/a
382.268	0.12	764536	keystroke_c	c	n/a
382.403	0.09	764806	keystroke_k	k	n/a
382.463	0.09	764926	keystroke_s	s	n/a
382.598	0.105	765196	keystroke_Key.space	Key.space	n/a
382.958	0.09	765916	keystroke_s	s	n/a
383.138	0.06	766276	keystroke_e	e	n/a
383.288	0.06	766576	keystroke_e	e	n/a
383.453	0.06	766906	keystroke_d	d	n/a
383.558	0.1045	767116	keystroke_Key.space	Key.space	n/a
383.9625	0.075	767925	keystroke_v	v	n/a
384.0525	0.045	768105	keystroke_i	i	n/a
384.2025	0.105	768405	keystroke_e	e	n/a
384.2775	0.105	768555	keystroke_w	w	n/a
384.488	0.1045	768976	keystroke_i	i	n/a
384.5475	0.12	769095	keystroke_n	n	n/a
384.6685	0.0745	769337	keystroke_g	g	n/a
384.938	0.12	769876	keystroke_Key.enter	Key.enter	n/a
385.063	8.0375	770126	prompt	n/a	eddie simpson adidas console\n
385.6135	0.1045	771227	keystroke_e	e	n/a
385.8235	0.0745	771647	keystroke_d	d	n/a
385.9575	0.091	771915	keystroke_d	d	n/a
386.1075	0.091	772215	keystroke_i	i	n/a
386.3025	0.09	772605	keystroke_e	e	n/a
386.8275	0.075	773655	keystroke_Key.space	Key.space	n/a
387.0225	0.075	774045	keystroke_s	s	n/a
387.1575	0.1055	774315	keystroke_i	i	n/a
387.1725	0.03	774345	keystroke_o	o	n/a
387.8325	0.09	775665	keystroke_Key.backspace	Key.backspace	n/a
388.1025	0.105	776205	keystroke_m	m	n/a
388.2985	0.0745	776597	keystroke_p	p	n/a
388.8525	0.06	777705	keystroke_s	s	n/a
388.9275	0.121	777855	keystroke_o	o	n/a
389.018	0.105	778036	keystroke_n	n	n/a
389.4675	0.06	778935	keystroke_Key.space	Key.space	n/a
389.6775	0.075	779355	keystroke_a	a	n/a
389.9325	0.09	779865	keystroke_d	d	n/a
390.113	0.105	780226	keystroke_i	i	n/a
390.2025	0.0455	780405	keystroke_s	s	n/a
390.593	0.075	781186	keystroke_Key.backspace	Key.backspace	n/a
390.638	0.09	781276	keystroke_d	d	n/a
390.893	0.09	781786	keystroke_a	a	n/a
391.118	0.075	782236	keystroke_s	s	n/a
391.538	0.09	783076	keystroke_Key.space	Key.space	n/a
391.8525	0.105	783705	keystroke_c	c	n/a
391.9725	0.076	783945	keystroke_o	o	n/a
392.0025	0.09	784005	keystroke_n	n	n/a
392.213	0.0605	784426	keystroke_s	s	n/a
392.3025	0.075	784605	keystroke_o	o	n/a
392.468	0.105	784936	keystroke_l	l	n/a
392.7675	0.076	785535	keystroke_e	e	n/a
393.023	0.075	786046	keystroke_Key.enter	Key.enter	n/a
393.1045	6.5655	786209	prompt	n/a	skype absent footage click\n
393.8325	0.075	787665	keystroke_s	s	n/a
393.9375	0.09	787875	keystroke_k	k	n/a
394.2825	0.0895	788565	keystroke_y	y	n/a
394.733	0.09	789466	keystroke_p	p	n/a
394.838	0.075	789676	keystroke_e	e	n/a
395.078	0.075	790156	keystroke_Key.space	Key.space	n/a
395.543	0.0745	791086	keystroke_a	a	n/a
395.8425	0.091	791685	keystroke_b	b	n/a
396.0535	0.089	792107	keystroke_s	s	n/a
396.218	0.1055	792436	keystroke_e	e	n/a
396.3675	0.105	792735	keystroke_n	n	n/a
396.5775	0.09	793155	keystroke_Key.space	Key.space	n/a
397.0125	0.09	794025	keystroke_Key.backspace	Key.backspace	n/a
397.0575	0.091	794115	keystroke_t	t	n/a
397.3125	0.0755	794625	keystroke_Key.space	Key.space	n/a
397.5985	0.104	795197	keystroke_f	f	n/a
397.7485	0.029	795497	keystroke_o	o	n/a
397.853	0.105	795706	keystroke_o	o	n/a
397.943	0.09	795886	keystroke_t	t	n/a
398.123	0.12	796246	keystroke_a	a	n/a
398.303	0.12	796606	keystroke_g	g	n/a
398.378	0.12	796756	keystroke_e	e	n/a
398.543	0.0895	797086	keystroke_Key.space	Key.space	n/a
398.873	0.0905	797746	keystroke_c	c	n/a
398.948	0.0755	797896	keystroke_l	l	n/a
399.0985	0.0895	798197	keystroke_i	i	n/a
399.203	0.105	798406	keystroke_c	c	n/a
399.308	0.0905	798616	keystroke_k	k	n/a
399.548	0.12	799096	keystroke_Key.enter	Key.enter	n/a
399.674	4.706	799348	prompt	n/a	among hunter form neon\n
400.2825	0.1055	800565	keystroke_a	a	n/a
400.448	0.1045	800896	keystroke_m	m	n/a
400.598	0.1645	801196	keystroke_o	o	n/a
400.733	0.105	801466	keystroke_n	n	n/a
400.898	0.1045	801796	keystroke_g	g	n/a
401.0625	0.0605	802125	keystroke_Key.space	Key.space	n/a
401.6325	0.091	803265	keystroke_h	h	n/a
401.7075	0.15	803415	keystroke_u	u	n/a
401.8285	0.12	803657	keystroke_n	n	n/a
401.9485	0.0895	803897	keystroke_t	t	n/a
402.0825	0.1055	804165	keystroke_e	e	n/a
402.1575	0.091	804315	keystroke_r	r	n/a
402.3825	0.12	804765	keystroke_Key.space	Key.space	n/a
402.6235	0.075	805247	keystroke_f	f	n/a
402.8625	0.0755	805725	keystroke_o	o	n/a
402.9675	0.075	805935	keystroke_r	r	n/a
403.0735	0.089	806147	keystroke_m	m	n/a
403.238	0.0895	806476	keystroke_Key.space	Key.space	n/a
403.4325	0.091	806865	keystroke_n	n	n/a
403.5535	0.089	807107	keystroke_e	e	n/a
403.7325	0.12	807465	keystroke_o	o	n/a
403.8375	0.09	807675	keystroke_n	n	n/a
404.288	0.0895	808576	keystroke_Key.enter	Key.enter	n/a
404.387	7.9275	808774	prompt	n/a	caring maximize compact opportunities\n
405.1125	0.105	810225	keystroke_c	c	n/a
405.2625	0.15	810525	keystroke_a	a	n/a
405.3825	0.1055	810765	keystroke_r	r	n/a
405.5025	0.105	811005	keystroke_i	i	n/a
405.5625	0.0755	811125	keystroke_n	n	n/a
405.6525	0.105	811305	keystroke_g	g	n/a
405.743	0.0595	811486	keystroke_Key.space	Key.space	n/a
405.8935	0.089	811787	keystroke_m	m	n/a
405.9985	0.074	811997	keystroke_a	a	n/a
406.5225	0.0755	813045	keystroke_x	x	n/a
406.6125	0.09	813225	keystroke_i	i	n/a
406.808	0.075	813616	keystroke_m	m	n/a
406.928	0.105	813856	keystroke_i	i	n/a
407.273	0.09	814546	keystroke_z	z	n/a
407.528	0.0905	815056	keystroke_e	e	n/a
407.873	0.0595	815746	keystroke_Key.space	Key.space	n/a
408.4725	0.09	816945	keystroke_c	c	n/a
408.5475	0.045	817095	keystroke_o	o	n/a
408.5785	0.075	817157	keystroke_m	m	n/a
408.7275	0.105	817455	keystroke_p	p	n/a
408.8325	0.09	817665	keystroke_a	a	n/a
408.9825	0.105	817965	keystroke_c	c	n/a
409.2075	0.0905	818415	keystroke_t	t	n/a
409.313	0.0745	818626	keystroke_Key.space	Key.space	n/a
409.808	0.075	819616	keystroke_o	o	n/a
410.033	0.045	820066	keystroke_p	p	n/a
410.153	0.075	820306	keystroke_p	p	n/a
410.393	0.09	820786	keystroke_o	o	n/a
410.633	0.075	821266	keystroke_r	r	n/a
411.173	0.075	822346	keystroke_t	t	n/a
411.263	0.075	822526	keystroke_u	u	n/a
411.308	0.075	822616	keystroke_n	n	n/a
411.428	0.1045	822856	keystroke_i	i	n/a
411.698	0.0745	823396	keystroke_t	t	n/a
411.8035	0.09	823607	keystroke_i	i	n/a
411.8635	0.089	823727	keystroke_e	e	n/a
412.013	0.105	824026	keystroke_s	s	n/a
412.223	0.0895	824446	keystroke_Key.enter	Key.enter	n/a
412.318	10.3165	824636	prompt	n/a	simpsons suffer triumph preview\n
413.048	0.075	826096	keystroke_s	s	n/a
413.1075	0.135	826215	keystroke_i	i	n/a
413.1985	0.104	826397	keystroke_m	m	n/a
413.3785	0.1045	826757	keystroke_p	p	n/a
413.513	0.06	827026	keystroke_s	s	n/a
413.873	0.045	827746	keystroke_s	s	n/a
414.278	0.075	828556	keystroke_Key.backspace	Key.backspace	n/a
414.503	0.1355	829006	keystroke_o	o	n/a
414.6085	0.1045	829217	keystroke_n	n	n/a
414.788	0.074	829576	keystroke_s	s	n/a
415.448	0.105	830896	keystroke_Key.space	Key.space	n/a
415.568	0.105	831136	keystroke_s	s	n/a
415.673	0.09	831346	keystroke_u	u	n/a
415.808	0.06	831616	keystroke_f	f	n/a
415.928	0.09	831856	keystroke_f	f	n/a
416.123	0.09	832246	keystroke_e	e	n/a
416.198	0.06	832396	keystroke_r	r	n/a
416.3325	0.0905	832665	keystroke_Key.space	Key.space	n/a
416.8285	0.0895	833657	keystroke_t	t	n/a
418.1325	0.061	836265	keystroke_r	r	n/a
418.2075	0.0905	836415	keystroke_i	i	n/a
418.4175	0.09	836835	keystroke_u	u	n/a
418.6575	0.075	837315	keystroke_m	m	n/a
418.8525	0.03	837705	keystroke_o	o	n/a
419.1385	0.09	838277	keystroke_h	h	n/a
419.6935	0.089	839387	keystroke_Key.backspace	Key.backspace	n/a
419.8275	0.0905	839655	keystroke_Key.backspace	Key.backspace	n/a
420.338	0.0295	840676	keystroke_p	p	n/a
420.578	0.075	841156	keystroke_h	h	n/a
420.833	0.09	841666	keystroke_Key.space	Key.space	n/a
421.253	0.045	842506	keystroke_p	p	n/a
421.478	0.09	842956	keystroke_r	r	n/a
421.538	0.09	843076	keystroke_e	e	n/a
421.838	0.0905	843676	keystroke_v	v	n/a
421.943	0.075	843886	keystroke_i	i	n/a
422.048	0.09	844096	keystroke_e	e	n/a
422.0935	0.1345	844187	keystroke_w	w	n/a
422.513	0.12	845026	keystroke_Key.enter	Key.enter	n/a
422.638	9.0715	845276	prompt	n/a	composite flickr plasma adoption\n
423.503	0.105	847006	keystroke_c	c	n/a
423.623	0.12	847246	keystroke_o	o	n/a
423.713	0.09	847426	keystroke_m	m	n/a
423.998	0.03	847996	keystroke_p	p	n/a
424.013	0.06	848026	keystroke_o	o	n/a
424.118	0.15	848236	keystroke_s	s	n/a
424.253	0.12	848506	keystroke_i	i	n/a
424.403	0.0755	848806	keystroke_t	t	n/a
424.5675	0.075	849135	keystroke_y	y	n/a
425.0775	0.0455	850155	keystroke_Key.backspace	Key.backspace	n/a
425.1235	0.089	850247	keystroke_e	e	n/a
425.5585	0.0745	851117	keystroke_Key.space	Key.space	n/a
426.038	0.0455	852076	keystroke_f	f	n/a
426.068	0.0755	852136	keystroke_l	l	n/a
426.218	0.105	852436	keystroke_i	i	n/a
426.338	0.075	852676	keystroke_c	c	n/a
426.443	0.105	852886	keystroke_k	k	n/a
426.848	0.09	853696	keystroke_r	r	n/a
427.178	0.075	854356	keystroke_Key.space	Key.space	n/a
428.078	0.135	856156	keystroke_p	p	n/a
428.288	0.03	856576	keystroke_l	l	n/a
428.948	0.09	857896	keystroke_a	a	n/a
428.978	0.1195	857956	keystroke_s	s	n/a
429.2175	0.06	858435	keystroke_m	m	n/a
429.518	0.075	859036	keystroke_a	a	n/a
429.863	0.09	859726	keystroke_Key.space	Key.space	n/a
430.223	0.075	860446	keystroke_a	a	n/a
430.568	0.0755	861136	keystroke_d	d	n/a
430.673	0.135	861346	keystroke_o	o	n/a
430.763	0.105	861526	keystroke_p	p	n/a
430.958	0.09	861916	keystroke_t	t	n/a
431.063	0.1645	862126	keystroke_i	i	n/a
431.153	0.12	862306	keystroke_o	o	n/a
431.198	0.1055	862396	keystroke_n	n	n/a
431.6025	0.105	863205	keystroke_Key.enter	Key.enter	n/a
431.7135	13.466	863427	prompt	n/a	specialized versus excellent declaration\n
432.4125	0.09	864825	keystroke_s	s	n/a
432.548	0.09	865096	keystroke_p	p	n/a
432.6525	0.105	865305	keystroke_e	e	n/a
432.8475	0.0905	865695	keystroke_c	c	n/a
432.9675	0.09	865935	keystroke_i	i	n/a
433.1035	0.1045	866207	keystroke_a	a	n/a
433.238	0.105	866476	keystroke_l	l	n/a
433.448	0.09	866896	keystroke_i	i	n/a
434.018	0.09	868036	keystroke_z	z	n/a
434.468	0.09	868936	keystroke_e	e	n/a
434.978	0.09	869956	keystroke_d	d	n/a
435.368	0.06	870736	keystroke_Key.space	Key.space	n/a
435.908	0.09	871816	keystroke_v	v	n/a
436.058	0.105	872116	keystroke_e	e	n/a
436.133	0.075	872266	keystroke_r	r	n/a
436.283	0.075	872566	keystroke_s	s	n/a
436.388	0.075	872776	keystroke_u	u	n/a
436.463	0.075	872926	keystroke_s	s	n/a
436.583	0.105	873166	keystroke_Key.space	Key.space	n/a
436.763	0.0905	873526	keystroke_e	e	n/a
437.2275	0.0905	874455	keystroke_c	c	n/a
437.3935	0.1045	874787	keystroke_e	e	n/a
437.7825	0.075	875565	keystroke_Key.backspace	Key.backspace	n/a
437.9185	0.074	875837	keystroke_Key.backspace	Key.backspace	n/a
437.9485	0.105	875897	keystroke_x	x	n/a
438.1435	0.089	876287	keystroke_e	e	n/a
438.593	0.09	877186	keystroke_Key.backspace	Key.backspace	n/a
438.6535	0.104	877307	keystroke_c	c	n/a
438.7435	0.089	877487	keystroke_e	e	n/a
438.8925	0.0905	877785	keystroke_l	l	n/a
439.0435	0.09	878087	keystroke_l	l	n/a
439.118	0.105	878236	keystroke_e	e	n/a
439.2375	0.105	878475	keystroke_n	n	n/a
439.3285	0.0895	878657	keystroke_t	t	n/a
439.4475	0.076	878895	keystroke_Key.space	Key.space	n/a
440.678	0.045	881356	keystroke_d	d	n/a
440.768	0.09	881536	keystroke_e	e	n/a
440.9635	0.075	881927	keystroke_c	c	n/a
441.128	0.045	882256	keystroke_l	l	n/a
441.203	0.105	882406	keystroke_a	a	n/a
441.353	0.09	882706	keystroke_r	r	n/a
441.548	0.045	883096	keystroke_t	t	n/a
442.043	0.09	884086	keystroke_Key.backspace	Key.backspace	n/a
442.178	0.09	884356	keystroke_a	a	n/a
442.448	0.09	884896	keystroke_t	t	n/a
442.598	0.195	885196	keystroke_i	i	n/a
442.643	0.165	885286	keystroke_o	o	n/a
442.748	0.09	885496	keystroke_n	n	n/a
445.1495	0.029	890299	keystroke_Key.enter	Key.enter	n/a
445.1835	7.0315	890367	prompt	n/a	remarks remember visual troy\n
446.153	0.105	892306	keystroke_r	r	n/a
446.318	0.075	892636	keystroke_e	e	n/a
446.573	0.075	893146	keystroke_m	m	n/a
446.693	0.1055	893386	keystroke_a	a	n/a
446.783	0.105	893566	keystroke_r	r	n/a
446.9035	0.09	893807	keystroke_k	k	n/a
446.9785	0.104	893957	keystroke_s	s	n/a
447.1125	0.076	894225	keystroke_Key.space	Key.space	n/a
447.638	0.09	895276	keystroke_r	r	n/a
447.698	0.09	895396	keystroke_e	e	n/a
447.8185	0.075	895637	keystroke_m	m	n/a
447.9085	0.0895	895817	keystroke_e	e	n/a
447.983	0.09	895966	keystroke_m	m	n/a
448.178	0.075	896356	keystroke_b	b	n/a
448.373	0.09	896746	keystroke_e	e	n/a
448.433	0.09	896866	keystroke_r	r	n/a
448.583	0.09	897166	keystroke_Key.space	Key.space	n/a
449.6775	0.0605	899355	keystroke_v	v	n/a
449.7535	0.074	899507	keystroke_i	i	n/a
449.843	0.075	899686	keystroke_s	s	n/a
449.933	0.09	899866	keystroke_u	u	n/a
450.053	0.06	900106	keystroke_a	a	n/a
450.158	0.105	900316	keystroke_l	l	n/a
450.368	0.105	900736	keystroke_Key.space	Key.space	n/a
450.968	0.12	901936	keystroke_t	t	n/a
451.073	0.0605	902146	keystroke_r	r	n/a
451.178	0.09	902356	keystroke_y	y	n/a
451.553	0.09	903106	keystroke_Key.backspace	Key.backspace	n/a
451.763	0.0905	903526	keystroke_o	o	n/a
451.793	0.0755	903586	keystroke_y	y	n/a
452.1085	0.1045	904217	keystroke_Key.enter	Key.enter	n/a
452.219	7.5105	904438	prompt	n/a	televisions fantastic relations excellence\n
453.023	0.105	906046	keystroke_t	t	n/a
453.173	0.075	906346	keystroke_e	e	n/a
453.293	0.075	906586	keystroke_l	l	n/a
453.353	0.075	906706	keystroke_e	e	n/a
453.608	0.09	907216	keystroke_v	v	n/a
453.713	0.06	907426	keystroke_i	i	n/a
453.788	0.12	907576	keystroke_s	s	n/a
453.863	0.135	907726	keystroke_i	i	n/a
453.923	0.12	907846	keystroke_o	o	n/a
453.983	0.1355	907966	keystroke_n	n	n/a
454.058	0.09	908116	keystroke_s	s	n/a
454.268	0.075	908536	keystroke_Key.space	Key.space	n/a
454.7935	0.0745	909587	keystroke_f	f	n/a
454.928	0.0905	909856	keystroke_a	a	n/a
455.003	0.09	910006	keystroke_n	n	n/a
455.153	0.105	910306	keystroke_t	t	n/a
455.303	0.105	910606	keystroke_a	a	n/a
455.4685	0.1045	910937	keystroke_s	s	n/a
455.7385	0.0895	911477	keystroke_t	t	n/a
455.843	0.0905	911686	keystroke_i	i	n/a
455.9635	0.12	911927	keystroke_c	c	n/a
456.0975	0.075	912195	keystroke_Key.space	Key.space	n/a
456.2935	0.104	912587	keystroke_r	r	n/a
456.3685	0.09	912737	keystroke_e	e	n/a
456.4735	0.104	912947	keystroke_l	l	n/a
456.6075	0.075	913215	keystroke_a	a	n/a
456.7435	0.089	913487	keystroke_t	t	n/a
456.818	0.18	913636	keystroke_i	i	n/a
456.8775	0.136	913755	keystroke_o	o	n/a
456.9525	0.12	913905	keystroke_n	n	n/a
457.0435	0.075	914087	keystroke_s	s	n/a
457.1925	0.09	914385	keystroke_Key.space	Key.space	n/a
457.6885	0.089	915377	keystroke_e	e	n/a
458.0935	0.0895	916187	keystroke_x	x	n/a
458.2885	0.059	916577	keystroke_c	c	n/a
458.3775	0.0755	916755	keystroke_e	e	n/a
458.5275	0.061	917055	keystroke_l	l	n/a
458.6625	0.09	917325	keystroke_l	l	n/a
458.7385	0.089	917477	keystroke_e	e	n/a
458.9025	0.016	917805	keystroke_n	n	n/a
459.2025	0.09	918405	keystroke_c	c	n/a
459.2485	0.104	918497	keystroke_e	e	n/a
459.608	0.1195	919216	keystroke_Key.enter	Key.enter	n/a
459.7345	8.786	919469	prompt	n/a	waterproof meter infrastructure direct\n
460.3275	0.105	920655	keystroke_w	w	n/a
460.538	0.1045	921076	keystroke_a	a	n/a
460.7025	0.075	921405	keystroke_t	t	n/a
460.8235	0.104	921647	keystroke_e	e	n/a
460.8985	0.0895	921797	keystroke_r	r	n/a
461.7075	0.075	923415	keystroke_p	p	n/a
461.903	0.045	923806	keystroke_r	r	n/a
462.098	0.06	924196	keystroke_o	o	n/a
462.233	0.0755	924466	keystroke_o	o	n/a
462.353	0.09	924706	keystroke_f	f	n/a
462.593	0.075	925186	keystroke_Key.space	Key.space	n/a
462.773	0.105	925546	keystroke_m	m	n/a
462.848	0.0905	925696	keystroke_e	e	n/a
463.103	0.075	926206	keystroke_t	t	n/a
463.253	0.09	926506	keystroke_e	e	n/a
463.328	0.09	926656	keystroke_r	r	n/a
463.508	0.06	927016	keystroke_Key.space	Key.space	n/a
463.913	0.09	927826	keystroke_i	i	n/a
463.958	0.105	927916	keystroke_n	n	n/a
464.108	0.075	928216	keystroke_f	f	n/a
464.303	0.06	928606	keystroke_r	r	n/a
464.603	0.075	929206	keystroke_a	a	n/a
465.203	0.075	930406	keystroke_s	s	n/a
465.413	0.105	930826	keystroke_t	t	n/a
465.488	0.075	930976	keystroke_r	r	n/a
465.578	0.09	931156	keystroke_u	u	n/a
465.713	0.105	931426	keystroke_c	c	n/a
466.328	0.09	932656	keystroke_t	t	n/a
466.448	0.105	932896	keystroke_u	u	n/a
466.568	0.1055	933136	keystroke_r	r	n/a
466.6275	0.105	933255	keystroke_e	e	n/a
466.8975	0.09	933795	keystroke_Key.space	Key.space	n/a
467.5275	0.075	935055	keystroke_d	d	n/a
467.618	0.075	935236	keystroke_i	i	n/a
467.7085	0.089	935417	keystroke_r	r	n/a
467.7835	0.09	935567	keystroke_e	e	n/a
467.9485	0.1045	935897	keystroke_c	c	n/a
468.1735	0.089	936347	keystroke_t	t	n/a
468.3975	0.12	936795	keystroke_Key.enter	Key.enter	n/a
468.5245	12.13	937049	prompt	n/a	negotiations enterprises prague selection\n
469.2825	0.106	938565	keystroke_n	n	n/a
469.3725	0.09	938745	keystroke_e	e	n/a
469.538	0.0905	939076	keystroke_o	o	n/a
469.808	0.09	939616	keystroke_t	t	n/a
469.883	0.135	939766	keystroke_i	i	n/a
470.588	0.015	941176	keystroke_Key.backspace	Key.backspace	n/a
470.678	0.075	941356	keystroke_Key.backspace	Key.backspace	n/a
470.888	0.09	941776	keystroke_Key.backspace	Key.backspace	n/a
471.6385	0.074	943277	keystroke_g	g	n/a
471.6985	0.09	943397	keystroke_o	o	n/a
471.923	0.075	943846	keystroke_t	t	n/a
471.999	0.104	943998	keystroke_i	i	n/a
472.148	0.105	944296	keystroke_a	a	n/a
472.598	0.09	945196	keystroke_t	t	n/a
472.658	0.1655	945316	keystroke_i	i	n/a
472.733	0.135	945466	keystroke_o	o	n/a
472.7775	0.1205	945555	keystroke_n	n	n/a
472.913	0.105	945826	keystroke_s	s	n/a
473.573	0.075	947146	keystroke_Key.space	Key.space	n/a
473.663	0.105	947326	keystroke_e	e	n/a
473.753	0.105	947506	keystroke_n	n	n/a
473.859	0.089	947718	keystroke_t	t	n/a
473.993	0.12	947986	keystroke_e	e	n/a
474.068	0.105	948136	keystroke_r	r	n/a
474.278	0.09	948556	keystroke_p	p	n/a
474.7875	0.045	949575	keystroke_r	r	n/a
474.878	0.09	949756	keystroke_i	i	n/a
475.0885	0.0895	950177	keystroke_s	s	n/a
475.298	0.06	950596	keystroke_e	e	n/a
475.448	0.09	950896	keystroke_s	s	n/a
475.643	0.06	951286	keystroke_Key.space	Key.space	n/a
475.898	0.075	951796	keystroke_p	p	n/a
476.018	0.09	952036	keystroke_r	r	n/a
476.513	0.045	953026	keystroke_a	a	n/a
476.843	0.0155	953686	keystroke_g	g	n/a
476.873	0.045	953746	keystroke_u	u	n/a
477.4585	0.0745	954917	keystroke_e	e	n/a
477.773	0.0745	955546	keystroke_Key.space	Key.space	n/a
478.043	0.12	956086	keystroke_s	s	n/a
478.298	0.075	956596	keystroke_e	e	n/a
478.418	0.09	956836	keystroke_l	l	n/a
478.523	0.06	957046	keystroke_e	e	n/a
478.8825	0.106	957765	keystroke_c	c	n/a
479.1525	0.0905	958305	keystroke_t	t	n/a
479.2125	0.165	958425	keystroke_i	i	n/a
479.3025	0.12	958605	keystroke_o	o	n/a
479.3475	0.091	958695	keystroke_n	n	n/a
480.578	0.075	961156	keystroke_Key.enter	Key.enter	n/a
480.658	5.082	961316	prompt	n/a	geek teens signatures more\n
481.538	0.0755	963076	keystroke_g	g	n/a
481.733	0.045	963466	keystroke_e	e	n/a
481.853	0.075	963706	keystroke_e	e	n/a
481.943	0.09	963886	keystroke_k	k	n/a
482.1385	0.0745	964277	keystroke_Key.space	Key.space	n/a
482.4085	0.0745	964817	keystroke_t	t	n/a
482.528	0.09	965056	keystroke_e	e	n/a
482.678	0.09	965356	keystroke_e	e	n/a
482.798	0.0905	965596	keystroke_n	n	n/a
482.9185	0.105	965837	keystroke_s	s	n/a
483.0085	0.09	966017	keystroke_Key.space	Key.space	n/a
483.1885	0.09	966377	keystroke_s	s	n/a
483.2785	0.09	966557	keystroke_i	i	n/a
483.5175	0.06	967035	keystroke_g	g	n/a
483.593	0.1205	967186	keystroke_n	n	n/a
483.7275	0.106	967455	keystroke_a	a	n/a
483.8635	0.0895	967727	keystroke_t	t	n/a
483.968	0.09	967936	keystroke_u	u	n/a
484.0285	0.104	968057	keystroke_r	r	n/a
484.118	0.0895	968236	keystroke_e	e	n/a
484.2525	0.105	968505	keystroke_s	s	n/a
484.4335	0.089	968867	keystroke_Key.space	Key.space	n/a
485.0935	0.09	970187	keystroke_m	m	n/a
485.2585	0.1345	970517	keystroke_o	o	n/a
485.3785	0.074	970757	keystroke_r	r	n/a
485.4085	0.104	970817	keystroke_e	e	n/a
485.6335	0.104	971267	keystroke_Key.enter	Key.enter	n/a
485.75	6.7845	971500	prompt	n/a	monitors temporal nano people\n
486.338	0.0745	972676	keystroke_m	m	n/a
486.4585	0.12	972917	keystroke_o	o	n/a
486.5625	0.076	973125	keystroke_n	n	n/a
486.683	0.1205	973366	keystroke_i	i	n/a
486.8325	0.076	973665	keystroke_t	t	n/a
486.9375	0.1055	973875	keystroke_o	o	n/a
487.0135	0.075	974027	keystroke_r	r	n/a
487.1775	0.0905	974355	keystroke_s	s	n/a
487.3135	0.074	974627	keystroke_Key.space	Key.space	n/a
487.6275	0.075	975255	keystroke_t	t	n/a
487.7325	0.09	975465	keystroke_e	e	n/a
487.8075	0.091	975615	keystroke_m	m	n/a
487.988	0.1205	975976	keystroke_p	p	n/a
488.498	0.105	976996	keystroke_o	o	n/a
488.5885	0.0745	977177	keystroke_r	r	n/a
488.798	0.09	977596	keystroke_a	a	n/a
488.9335	0.0745	977867	keystroke_l	l	n/a
489.218	0.075	978436	keystroke_Key.space	Key.space	n/a
489.3835	0.105	978767	keystroke_n	n	n/a
489.4885	0.0745	978977	keystroke_a	a	n/a
489.5785	0.0895	979157	keystroke_n	n	n/a
489.773	0.09	979546	keystroke_o	o	n/a
489.968	0.09	979936	keystroke_Key.space	Key.space	n/a
490.178	0.015	980356	keystroke_o	o	n/a
490.2385	0.0895	980477	keystroke_e	e	n/a
490.373	0.06	980746	keystroke_o	o	n/a
490.688	0.06	981376	keystroke_Key.backspace	Key.backspace	n/a
490.8385	0.0595	981677	keystroke_Key.backspace	Key.backspace	n/a
490.988	0.03	981976	keystroke_Key.backspace	Key.backspace	n/a
491.2135	0.09	982427	keystroke_p	p	n/a
491.3935	0.06	982787	keystroke_e	e	n/a
491.648	0.0755	983296	keystroke_o	o	n/a
491.7075	0.1355	983415	keystroke_p	p	n/a
491.8125	0.09	983625	keystroke_l	l	n/a
491.9175	0.061	983835	keystroke_e	e	n/a
492.4275	0.105	984855	keystroke_Key.enter	Key.enter	n/a
492.5385	6.4165	985077	prompt	n/a	living cage minnesota film\n
493.118	0.1205	986236	keystroke_l	l	n/a
493.328	0.09	986656	keystroke_i	i	n/a
493.463	0.09	986926	keystroke_v	v	n/a
493.523	0.105	987046	keystroke_i	i	n/a
493.583	0.1055	987166	keystroke_n	n	n/a
493.673	0.0905	987346	keystroke_g	g	n/a
493.778	0.1045	987556	keystroke_Key.space	Key.space	n/a
494.0785	0.09	988157	keystroke_c	c	n/a
494.2135	0.09	988427	keystroke_a	a	n/a
494.4085	0.09	988817	keystroke_g	g	n/a
494.4685	0.15	988937	keystroke_e	e	n/a
494.6325	0.105	989265	keystroke_Key.space	Key.space	n/a
495.1285	0.06	990257	keystroke_m	m	n/a
495.2935	0.0595	990587	keystroke_i	i	n/a
495.4585	0.0595	990917	keystroke_n	n	n/a
495.5775	0.105	991155	keystroke_n	n	n/a
495.6225	0.076	991245	keystroke_e	e	n/a
495.758	0.1045	991516	keystroke_s	s	n/a
496.2685	0.09	992537	keystroke_o	o	n/a
496.4335	0.074	992867	keystroke_t	t	n/a
496.643	0.0905	993286	keystroke_a	a	n/a
496.8075	0.1205	993615	keystroke_Key.space	Key.space	n/a
497.528	0.0745	995056	keystroke_f	f	n/a
497.6025	0.045	995205	keystroke_i	i	n/a
498.2925	0.135	996585	keystroke_l	l	n/a
498.3835	0.105	996767	keystroke_m	m	n/a
498.8335	0.12	997667	keystroke_Key.enter	Key.enter	n/a
498.9585	7.511	997917	prompt	n/a	trick ways alfred donor\n
499.6735	0.12	999347	keystroke_t	t	n/a
499.7485	0.105	999497	keystroke_r	r	n/a
499.8685	0.09	999737	keystroke_i	i	n/a
500.0035	0.105	1000007	keystroke_c	c	n/a
500.0635	0.09	1000127	keystroke_k	k	n/a
500.2285	0.12	1000457	keystroke_Key.space	Key.space	n/a
500.3785	0.09	1000757	keystroke_w	w	n/a
500.5585	0.075	1001117	keystroke_a	a	n/a
501.053	0.09	1002106	keystroke_t	t	n/a
501.278	0.09	1002556	keystroke_s	s	n/a
501.6085	0.0595	1003217	keystroke_Key.backspace	Key.backspace	n/a
501.728	0.1055	1003456	keystroke_Key.backspace	Key.backspace	n/a
501.863	0.06	1003726	keystroke_y	y	n/a
501.998	0.105	1003996	keystroke_s	s	n/a
502.178	0.0755	1004356	keystroke_Key.space	Key.space	n/a
502.733	0.09	1005466	keystroke_a	a	n/a
502.853	0.12	1005706	keystroke_l	l	n/a
503.1535	0.0745	1006307	keystroke_r	r	n/a
503.4535	0.0895	1006907	keystroke_Key.backspace	Key.backspace	n/a
503.528	0.09	1007056	keystroke_f	f	n/a
503.6785	0.105	1007357	keystroke_r	r	n/a
503.768	0.0745	1007536	keystroke_e	e	n/a
503.9335	0.075	1007867	keystroke_d	d	n/a
504.0975	0.075	1008195	keystroke_Key.space	Key.space	n/a
505.103	0.075	1010206	keystroke_d	d	n/a
505.2085	0.1045	1010417	keystroke_o	o	n/a
505.298	0.09	1010596	keystroke_n	n	n/a
505.418	0.135	1010836	keystroke_o	o	n/a
505.568	0.075	1011136	keystroke_r	r	n/a
506.3635	0.104	1012727	keystroke_Key.enter	Key.enter	n/a
506.476	7.7645	1012952	prompt	n/a	patterns weekends something's slave\n
507.7885	0.0895	1015577	keystroke_p	p	n/a
507.9385	0.09	1015877	keystroke_a	a	n/a
508.1635	0.075	1016327	keystroke_t	t	n/a
508.2535	0.12	1016507	keystroke_t	t	n/a
509.0485	0.105	1018097	keystroke_e	e	n/a
509.1235	0.09	1018247	keystroke_r	r	n/a
509.2435	0.075	1018487	keystroke_n	n	n/a
509.2885	0.12	1018577	keystroke_s	s	n/a
509.4235	0.09	1018847	keystroke_Key.space	Key.space	n/a
509.6035	0.06	1019207	keystroke_w	w	n/a
509.7835	0.06	1019567	keystroke_e	e	n/a
509.918	0.0755	1019836	keystroke_e	e	n/a
510.0385	0.075	1020077	keystroke_k	k	n/a
510.1735	0.074	1020347	keystroke_e	e	n/a
510.7885	0.0445	1021577	keystroke_n	n	n/a
510.8475	0.09	1021695	keystroke_d	d	n/a
510.9835	0.104	1021967	keystroke_s	s	n/a
511.4475	0.06	1022895	keystroke_Key.space	Key.space	n/a
511.7185	0.089	1023437	keystroke_s	s	n/a
511.7935	0.105	1023587	keystroke_o	o	n/a
511.8675	0.091	1023735	keystroke_m	m	n/a
511.9435	0.075	1023887	keystroke_e	e	n/a
512.0925	0.0905	1024185	keystroke_t	t	n/a
512.1535	0.075	1024307	keystroke_h	h	n/a
512.2135	0.12	1024427	keystroke_i	i	n/a
512.3025	0.106	1024605	keystroke_n	n	n/a
512.3935	0.075	1024787	keystroke_g	g	n/a
512.6335	0.1045	1025267	keystroke_'	'	n/a
512.7685	0.089	1025537	keystroke_s	s	n/a
513.0675	0.046	1026135	keystroke_Key.space	Key.space	n/a
513.2475	0.075	1026495	keystroke_s	s	n/a
513.3385	0.089	1026677	keystroke_l	l	n/a
513.4425	0.105	1026885	keystroke_a	a	n/a
513.6525	0.091	1027305	keystroke_v	v	n/a
513.7435	0.12	1027487	keystroke_e	e	n/a
514.133	0.105	1028266	keystroke_Key.enter	Key.enter	n/a
514.245	8.9205	1028490	prompt	n/a	confirmation ignored sections fioricet\n
514.943	0.075	1029886	keystroke_c	c	n/a
515.033	0.1055	1030066	keystroke_o	o	n/a
515.093	0.09	1030186	keystroke_n	n	n/a
515.198	0.075	1030396	keystroke_f	f	n/a
515.2885	0.1045	1030577	keystroke_i	i	n/a
515.378	0.0755	1030756	keystroke_r	r	n/a
515.5585	0.0895	1031117	keystroke_m	m	n/a
516.053	0.1055	1032106	keystroke_a	a	n/a
516.293	0.0605	1032586	keystroke_t	t	n/a
516.3385	0.12	1032677	keystroke_i	i	n/a
516.368	0.135	1032736	keystroke_o	o	n/a
516.4135	0.1045	1032827	keystroke_n	n	n/a
516.593	0.09	1033186	keystroke_Key.space	Key.space	n/a
516.8185	0.09	1033637	keystroke_i	i	n/a
516.9535	0.105	1033907	keystroke_g	g	n/a
517.0435	0.075	1034087	keystroke_n	n	n/a
517.1935	0.09	1034387	keystroke_o	o	n/a
517.2685	0.12	1034537	keystroke_r	r	n/a
517.3435	0.09	1034687	keystroke_e	e	n/a
517.5085	0.105	1035017	keystroke_d	d	n/a
517.6735	0.1195	1035347	keystroke_Key.space	Key.space	n/a
518.168	0.09	1036336	keystroke_s	s	n/a
518.318	0.09	1036636	keystroke_e	e	n/a
518.513	0.12	1037026	keystroke_c	c	n/a
518.7385	0.075	1037477	keystroke_t	t	n/a
518.798	0.15	1037596	keystroke_i	i	n/a
518.873	0.1355	1037746	keystroke_o	o	n/a
518.9335	0.1045	1037867	keystroke_n	n	n/a
518.993	0.0895	1037986	keystroke_s	s	n/a
519.1425	0.091	1038285	keystroke_Key.space	Key.space	n/a
521.1525	0.0605	1042305	keystroke_f	f	n/a
521.1975	0.091	1042395	keystroke_i	i	n/a
521.3785	0.105	1042757	keystroke_o	o	n/a
521.513	0.0755	1043026	keystroke_r	r	n/a
522.1285	0.0895	1044257	keystroke_i	i	n/a
522.308	0.0905	1044616	keystroke_c	c	n/a
522.4885	0.1045	1044977	keystroke_e	e	n/a
522.698	0.0905	1045396	keystroke_t	t	n/a
523.073	0.0905	1046146	keystroke_Key.enter	Key.enter	n/a
523.1695	6.325	1046339	prompt	n/a	command guide disney question\n
523.8235	0.0745	1047647	keystroke_c	c	n/a
523.928	0.06	1047856	keystroke_o	o	n/a
524.078	0.075	1048156	keystroke_m	m	n/a
524.198	0.0905	1048396	keystroke_m	m	n/a
524.273	0.075	1048546	keystroke_a	a	n/a
524.378	0.105	1048756	keystroke_n	n	n/a
524.468	0.09	1048936	keystroke_d	d	n/a
524.573	0.06	1049146	keystroke_Key.space	Key.space	n/a
524.873	0.075	1049746	keystroke_g	g	n/a
524.978	0.045	1049956	keystroke_u	u	n/a
525.0985	0.105	1050197	keystroke_i	i	n/a
525.218	0.105	1050436	keystroke_d	d	n/a
525.3675	0.0905	1050735	keystroke_e	e	n/a
525.4425	0.075	1050885	keystroke_Key.space	Key.space	n/a
526.1335	0.09	1052267	keystroke_d	d	n/a
526.2385	0.0895	1052477	keystroke_i	i	n/a
526.313	0.09	1052626	keystroke_s	s	n/a
526.4335	0.0895	1052867	keystroke_n	n	n/a
526.5385	0.1045	1053077	keystroke_e	e	n/a
526.793	0.075	1053586	keystroke_y	y	n/a
526.898	0.0905	1053796	keystroke_Key.space	Key.space	n/a
527.4385	0.1045	1054877	keystroke_q	q	n/a
527.558	0.0755	1055116	keystroke_u	u	n/a
527.6475	0.075	1055295	keystroke_e	e	n/a
527.843	0.105	1055686	keystroke_s	s	n/a
528.0535	0.0895	1056107	keystroke_t	t	n/a
528.1285	0.1645	1056257	keystroke_i	i	n/a
528.203	0.1355	1056406	keystroke_o	o	n/a
528.263	0.09	1056526	keystroke_n	n	n/a
529.388	0.1045	1058776	keystroke_Key.enter	Key.enter	n/a
529.4985	7.0915	1058997	prompt	n/a	execution reception movie hook\n
530.153	0.0905	1060306	keystroke_e	e	n/a
530.3925	0.0905	1060785	keystroke_x	x	n/a
530.6625	0.106	1061325	keystroke_e	e	n/a
530.963	0.09	1061926	keystroke_c	c	n/a
531.0835	0.0895	1062167	keystroke_u	u	n/a
532.0725	0.091	1064145	keystroke_t	t	n/a
532.1635	0.18	1064327	keystroke_i	i	n/a
532.2385	0.12	1064477	keystroke_o	o	n/a
532.3135	0.09	1064627	keystroke_n	n	n/a
