onset	duration	sample	value	key	prompt_text
14.0085	11.917	28017	prompt	n/a	the quick brown fox jumps over a lazy dog\n
15.229	0.001	30458	keystroke_t	t	n/a
15.332	0.075	30664	keystroke_h	h	n/a
15.467	0.135	30934	keystroke_e	e	n/a
15.617	0.105	31234	keystroke_Key.space	Key.space	n/a
16.067	0.075	32134	keystroke_q	q	n/a
16.217	0.075	32434	keystroke_u	u	n/a
16.367	0.09	32734	keystroke_i	i	n/a
16.547	0.06	33094	keystroke_c	c	n/a
16.6975	0.075	33395	keystroke_k	k	n/a
16.8475	0.105	33695	keystroke_Key.space	Key.space	n/a
17.0725	0.105	34145	keystroke_b	b	n/a
17.2225	0.075	34445	keystroke_r	r	n/a
17.3575	0.09	34715	keystroke_o	o	n/a
17.5225	0.09	35045	keystroke_w	w	n/a
17.6875	0.09	35375	keystroke_n	n	n/a
17.8225	0.105	35645	keystroke_Key.space	Key.space	n/a
18.6775	0.06	37355	keystroke_f	f	n/a
18.7825	0.09	37565	keystroke_o	o	n/a
19.0825	0.105	38165	keystroke_x	x	n/a
19.2025	0.105	38405	keystroke_Key.space	Key.space	n/a
19.3375	0.0745	38675	keystroke_j	j	n/a
19.517	0.06	39034	keystroke_u	u	n/a
19.712	0.06	39424	keystroke_m	m	n/a
19.862	0.075	39724	keystroke_p	p	n/a
19.997	0.12	39994	keystroke_s	s	n/a
20.132	0.0905	40264	keystroke_Key.space	Key.space	n/a
21.002	0.06	42004	keystroke_o	o	n/a
21.258	0.075	42516	keystroke_v	v	n/a
21.362	0.0755	42724	keystroke_e	e	n/a
21.542	0.12	43084	keystroke_r	r	n/a
21.602	0.12	43204	keystroke_Key.space	Key.space	n/a
21.783	0.074	43566	keystroke_t	t	n/a
21.992	0.12	43984	keystroke_h	h	n/a
22.067	0.135	44134	keystroke_e	e	n/a
22.157	0.12	44314	keystroke_Key.space	Key.space	n/a
22.458	0.075	44916	keystroke_l	l	n/a
22.547	0.105	45094	keystroke_a	a	n/a
22.817	0.0905	45634	keystroke_z	z	n/a
22.9675	0.09	45935	keystroke_y	y	n/a
23.1025	0.09	46205	keystroke_Key.space	Key.space	n/a
23.7625	0.12	47525	keystroke_d	d	n/a
23.8675	0.09	47735	keystroke_o	o	n/a
24.1225	0.105	48245	keystroke_g	g	n/a
25.8475	0.075	51695	keystroke_Key.enter	Key.enter	n/a
25.9295	16.6325	51859	prompt	n/a	captured improving calvin incl\n
27.077	0.045	54154	keystroke_c	c	n/a
27.167	0.12	54334	keystroke_a	a	n/a
27.302	0.075	54604	keystroke_p	p	n/a
27.558	0.044	55116	keystroke_u	u	n/a
27.812	0.075	55624	keystroke_t	t	n/a
27.933	0.089	55866	keystroke_e	e	n/a
28.233	0.059	56466	keystroke_r	r	n/a
28.472	0.06	56944	keystroke_Key.backspace	Key.backspace	n/a
28.607	0.09	57214	keystroke_Key.backspace	Key.backspace	n/a
29.267	0.105	58534	keystroke_r	r	n/a
29.717	0.075	59434	keystroke_Key.backspace	Key.backspace	n/a
29.973	0.074	59946	keystroke_u	u	n/a
30.092	0.091	60184	keystroke_r	r	n/a
30.317	0.075	60634	keystroke_Key.backspace	Key.backspace	n/a
30.483	0.074	60966	keystroke_Key.backspace	Key.backspace	n/a
30.662	0.105	61324	keystroke_Key.backspace	Key.backspace	n/a
31.022	0.09	62044	keystroke_Key.backspace	Key.backspace	n/a
31.083	0.089	62166	keystroke_t	t	n/a
31.308	0.059	62616	keystroke_u	u	n/a
31.833	0.075	63666	keystroke_r	r	n/a
31.922	0.061	63844	keystroke_e	e	n/a
32.117	0.151	64234	keystroke_d	d	n/a
32.283	0.104	64566	keystroke_Key.space	Key.space	n/a
32.762	0.046	65524	keystroke_i	i	n/a
32.868	0.105	65736	keystroke_m	m	n/a
33.047	0.091	66094	keystroke_p	p	n/a
33.228	0.074	66456	keystroke_r	r	n/a
33.317	0.091	66634	keystroke_o	o	n/a
33.708	0.059	67416	keystroke_v	v	n/a
33.783	0.06	67566	keystroke_i	i	n/a
33.933	0.105	67866	keystroke_n	n	n/a
34.068	0.12	68136	keystroke_g	g	n/a
34.202	0.12	68404	keystroke_Key.space	Key.space	n/a
34.908	0.059	69816	keystroke_c	c	n/a
35.028	0.105	70056	keystroke_a	a	n/a
35.148	0.09	70296	keystroke_l	l	n/a
35.403	0.015	70806	keystroke_v	v	n/a
35.433	0.075	70866	keystroke_i	i	n/a
35.613	0.075	71226	keystroke_n	n	n/a
36.438	0.135	72876	keystroke_Key.space	Key.space	n/a
37.038	0.075	74076	keystroke_n	n	n/a
39.6795	0.028	79359	keystroke_Key.backspace	Key.backspace	n/a
39.8425	0.06	79685	keystroke_i	i	n/a
40.0075	0.105	80015	keystroke_n	n	n/a
40.1875	0.09	80375	keystroke_c	c	n/a
40.3075	0.09	80615	keystroke_l	l	n/a
42.5595	0	85119	keystroke_Key.enter	Key.enter	n/a
42.5655	9.924	85131	prompt	n/a	dear lighting batteries announced\n
43.473	0.075	86946	keystroke_d	d	n/a
43.638	0.09	87276	keystroke_e	e	n/a
43.833	0.09	87666	keystroke_a	a	n/a
43.893	0.075	87786	keystroke_r	r	n/a
44.043	0.105	88086	keystroke_Key.space	Key.space	n/a
44.538	0.06	89076	keystroke_l	l	n/a
44.763	0.075	89526	keystroke_i	i	n/a
45.213	0.075	90426	keystroke_g	g	n/a
45.303	0.09	90606	keystroke_h	h	n/a
45.438	0.075	90876	keystroke_t	t	n/a
45.663	0.06	91326	keystroke_i	i	n/a
45.843	0.075	91686	keystroke_n	n	n/a
47.643	0.06	95286	keystroke_g	g	n/a
47.808	0.075	95616	keystroke_Key.space	Key.space	n/a
48.588	0.075	97176	keystroke_b	b	n/a
48.693	0.12	97386	keystroke_a	a	n/a
48.888	0.06	97776	keystroke_t	t	n/a
49.038	0.09	98076	keystroke_t	t	n/a
49.113	0.06	98226	keystroke_e	e	n/a
49.278	0.09	98556	keystroke_r	r	n/a
49.398	0.075	98796	keystroke_i	i	n/a
49.503	0.075	99006	keystroke_e	e	n/a
49.698	0.105	99396	keystroke_s	s	n/a
49.788	0.09	99576	keystroke_Key.space	Key.space	n/a
49.983	0.09	99966	keystroke_a	a	n/a
50.178	0.075	100356	keystroke_n	n	n/a
50.343	0.06	100686	keystroke_n	n	n/a
50.493	0.105	100986	keystroke_o	o	n/a
50.703	0.09	101406	keystroke_u	u	n/a
51.033	0.075	102066	keystroke_n	n	n/a
51.303	0.09	102606	keystroke_c	c	n/a
51.363	0.06	102726	keystroke_e	e	n/a
51.528	0.075	103056	keystroke_d	d	n/a
52.428	0.06	104856	keystroke_Key.enter	Key.enter	n/a
52.493	8.5765	104986	prompt	n/a	owen anxiety depot occurs\n
53.403	0.075	106806	keystroke_o	o	n/a
53.493	0.105	106986	keystroke_w	w	n/a
53.703	0.09	107406	keystroke_e	e	n/a
53.838	0.105	107676	keystroke_n	n	n/a
53.958	0.09	107916	keystroke_Key.space	Key.space	n/a
54.663	0.09	109326	keystroke_a	a	n/a
55.083	0.105	110166	keystroke_n	n	n/a
55.248	0.09	110496	keystroke_x	x	n/a
55.398	0.075	110796	keystroke_i	i	n/a
56.448	0.06	112896	keystroke_e	e	n/a
56.553	0.06	113106	keystroke_t	t	n/a
56.688	0.075	113376	keystroke_y	y	n/a
57.558	0.105	115116	keystroke_Key.space	Key.space	n/a
57.7375	0.075	115475	keystroke_d	d	n/a
57.9325	0.075	115865	keystroke_e	e	n/a
58.023	0.12	116046	keystroke_p	p	n/a
58.143	0.09	116286	keystroke_o	o	n/a
58.458	0.0595	116916	keystroke_t	t	n/a
58.608	0.105	117216	keystroke_Key.space	Key.space	n/a
59.973	0.0745	119946	keystroke_o	o	n/a
60.0775	0.075	120155	keystroke_c	c	n/a
60.2425	0.09	120485	keystroke_c	c	n/a
60.3475	0.09	120695	keystroke_u	u	n/a
60.4975	0.0755	120995	keystroke_r	r	n/a
60.7675	0.075	121535	keystroke_s	s	n/a
60.9925	0.075	121985	keystroke_Key.enter	Key.enter	n/a
61.073	7.7065	122146	prompt	n/a	intimate boats mother counties\n
61.8175	0.061	123635	keystroke_i	i	n/a
61.9535	0.134	123907	keystroke_n	n	n/a
62.1175	0.075	124235	keystroke_t	t	n/a
62.2075	0.075	124415	keystroke_i	i	n/a
62.3725	0.105	124745	keystroke_m	m	n/a
62.5075	0.12	125015	keystroke_a	a	n/a
62.8525	0.06	125705	keystroke_t	t	n/a
62.9425	0.12	125885	keystroke_e	e	n/a
63.0475	0.09	126095	keystroke_Key.space	Key.space	n/a
63.2875	0.06	126575	keystroke_t	t	n/a
63.6025	0.06	127205	keystroke_Key.backspace	Key.backspace	n/a
63.8285	0.089	127657	keystroke_b	b	n/a
64.0225	0.09	128045	keystroke_o	o	n/a
64.1575	0.105	128315	keystroke_a	a	n/a
64.3675	0.06	128735	keystroke_t	t	n/a
64.5175	0.135	129035	keystroke_s	s	n/a
64.6225	0.12	129245	keystroke_Key.space	Key.space	n/a
65.2375	0.075	130475	keystroke_m	m	n/a
65.4325	0.06	130865	keystroke_o	o	n/a
65.5825	0.075	131165	keystroke_t	t	n/a
65.6725	0.06	131345	keystroke_h	h	n/a
65.8225	0.075	131645	keystroke_e	e	n/a
66.0475	0.045	132095	keystroke_r	r	n/a
67.0225	0.09	134045	keystroke_Key.space	Key.space	n/a
67.2325	0.075	134465	keystroke_c	c	n/a
67.3225	0.075	134645	keystroke_o	o	n/a
67.5025	0.075	135005	keystroke_u	u	n/a
67.6825	0.09	135365	keystroke_n	n	n/a
67.7875	0.06	135575	keystroke_t	t	n/a
67.8775	0.076	135755	keystroke_i	i	n/a
68.0125	0.06	136025	keystroke_e	e	n/a
68.1925	0.075	136385	keystroke_s	s	n/a
68.7325	0.045	137465	keystroke_Key.enter	Key.enter	n/a
68.7825	7.9775	137565	prompt	n/a	dont titans american chocolate\n
69.7375	0.075	139475	keystroke_d	d	n/a
69.8285	0.074	139657	keystroke_o	o	n/a
70.0075	0.075	140015	keystroke_n	n	n/a
70.1425	0.06	140285	keystroke_t	t	n/a
70.4125	0.09	140825	keystroke_Key.space	Key.space	n/a
70.773	0.075	141546	keystroke_t	t	n/a
70.878	0.06	141756	keystroke_i	i	n/a
70.968	0.075	141936	keystroke_t	t	n/a
71.193	0.105	142386	keystroke_a	a	n/a
71.688	0.0595	143376	keystroke_l	l	n/a
72.018	0.075	144036	keystroke_Key.backspace	Key.backspace	n/a
72.1975	0.105	144395	keystroke_n	n	n/a
72.2875	0.12	144575	keystroke_s	s	n/a
72.4075	0.12	144815	keystroke_Key.space	Key.space	n/a
73.1725	0.0895	146345	keystroke_a	a	n/a
73.2175	0.1045	146435	keystroke_m	m	n/a
73.4125	0.0745	146825	keystroke_e	e	n/a
73.577	0.076	147154	keystroke_r	r	n/a
73.667	0.0755	147334	keystroke_i	i	n/a
73.803	0.089	147606	keystroke_c	c	n/a
74.012	0.105	148024	keystroke_a	a	n/a
74.087	0.091	148174	keystroke_n	n	n/a
74.252	0.09	148504	keystroke_Key.space	Key.space	n/a
74.657	0.06	149314	keystroke_c	c	n/a
74.762	0.061	149524	keystroke_h	h	n/a
74.912	0.091	149824	keystroke_o	o	n/a
75.018	0.059	150036	keystroke_c	c	n/a
75.107	0.075	150214	keystroke_o	o	n/a
75.287	0.09	150574	keystroke_l	l	n/a
75.392	0.106	150784	keystroke_a	a	n/a
75.662	0.061	151324	keystroke_t	t	n/a
75.737	0.061	151474	keystroke_e	e	n/a
76.682	0.075	153364	keystroke_Key.enter	Key.enter	n/a
76.766	9.699	153532	prompt	n/a	demonstrates drops miami definition\n
77.732	0.135	155464	keystroke_d	d	n/a
77.882	0.046	155764	keystroke_e	e	n/a
77.942	0.076	155884	keystroke_m	m	n/a
78.092	0.09	156184	keystroke_o	o	n/a
78.213	0.074	156426	keystroke_s	s	n/a
79.457	0.075	158914	keystroke_Key.backspace	Key.backspace	n/a
79.998	0.075	159996	keystroke_n	n	n/a
80.238	0.075	160476	keystroke_s	s	n/a
80.357	0.075	160714	keystroke_t	t	n/a
80.508	0.09	161016	keystroke_r	r	n/a
80.673	0.09	161346	keystroke_a	a	n/a
80.778	0.09	161556	keystroke_t	t	n/a
80.928	0.074	161856	keystroke_e	e	n/a
81.123	0.105	162246	keystroke_s	s	n/a
81.258	0.104	162516	keystroke_Key.space	Key.space	n/a
81.798	0.06	163596	keystroke_d	d	n/a
81.963	0.075	163926	keystroke_r	r	n/a
82.068	0.09	164136	keystroke_o	o	n/a
82.293	0.09	164586	keystroke_p	p	n/a
82.398	0.15	164796	keystroke_s	s	n/a
82.503	0.12	165006	keystroke_Key.space	Key.space	n/a
82.878	0.09	165756	keystroke_m	m	n/a
83.088	0.075	166176	keystroke_i	i	n/a
83.178	0.12	166356	keystroke_a	a	n/a
83.283	0.105	166566	keystroke_m	m	n/a
83.448	0.075	166896	keystroke_i	i	n/a
83.538	0.12	167076	keystroke_Key.space	Key.space	n/a
84.063	0.075	168126	keystroke_d	d	n/a
84.153	0.075	168306	keystroke_e	e	n/a
84.288	0.075	168576	keystroke_f	f	n/a
84.558	0.045	169116	keystroke_i	i	n/a
84.663	0.105	169326	keystroke_n	n	n/a
84.828	0.075	169656	keystroke_i	i	n/a
84.918	0.075	169836	keystroke_t	t	n/a
85.023	0.075	170046	keystroke_i	i	n/a
85.173	0.075	170346	keystroke_o	o	n/a
85.338	0.09	170676	keystroke_n	n	n/a
86.418	0.045	172836	keystroke_Key.enter	Key.enter	n/a
86.4685	6.0405	172937	prompt	n/a	closure delays minus arabia\n
87.378	0.06	174756	keystroke_c	c	n/a
87.498	0.075	174996	keystroke_l	l	n/a
87.678	0.075	175356	keystroke_o	o	n/a
87.768	0.09	175536	keystroke_s	s	n/a
87.933	0.09	175866	keystroke_u	u	n/a
88.053	0.075	176106	keystroke_r	r	n/a
88.233	0.12	176466	keystroke_e	e	n/a
88.308	0.12	176616	keystroke_Key.space	Key.space	n/a
88.593	0.075	177186	keystroke_d	d	n/a
88.773	0.06	177546	keystroke_e	e	n/a
88.878	0.06	177756	keystroke_l	l	n/a
88.998	0.105	177996	keystroke_a	a	n/a
89.118	0.075	178236	keystroke_y	y	n/a
89.238	0.135	178476	keystroke_s	s	n/a
89.403	0.075	178806	keystroke_Key.space	Key.space	n/a
89.613	0.09	179226	keystroke_m	m	n/a
89.838	0.06	179676	keystroke_i	i	n/a
90.018	0.105	180036	keystroke_n	n	n/a
90.633	0.075	181266	keystroke_u	u	n/a
90.723	0.15	181446	keystroke_s	s	n/a
90.843	0.09	181686	keystroke_Key.space	Key.space	n/a
91.038	0.09	182076	keystroke_a	a	n/a
91.263	0.06	182526	keystroke_r	r	n/a
91.368	0.09	182736	keystroke_a	a	n/a
91.593	0.075	183186	keystroke_b	b	n/a
91.863	0.075	183726	keystroke_i	i	n/a
91.983	0.075	183966	keystroke_a	a	n/a
92.448	0.06	184896	keystroke_Key.enter	Key.enter	n/a
92.512	9.028	185024	prompt	n/a	florida sole craps terms\n
93.273	0.075	186546	keystroke_f	f	n/a
93.333	0.105	186666	keystroke_l	l	n/a
93.483	0.075	186966	keystroke_o	o	n/a
93.573	0.0745	187146	keystroke_r	r	n/a
93.6625	0.075	187325	keystroke_i	i	n/a
93.8125	0.09	187625	keystroke_d	d	n/a
94.0075	0.135	188015	keystroke_a	a	n/a
94.1125	0.105	188225	keystroke_Key.space	Key.space	n/a
94.4125	0.015	188825	keystroke_s	s	n/a
94.5025	0.075	189005	keystroke_o	o	n/a
94.6675	0.105	189335	keystroke_l	l	n/a
94.7875	0.09	189575	keystroke_e	e	n/a
94.9075	0.09	189815	keystroke_Key.space	Key.space	n/a
95.1925	0.075	190385	keystroke_c	c	n/a
95.7625	0.075	191525	keystroke_r	r	n/a
96.2875	0.075	192575	keystroke_a	a	n/a
96.378	0.0745	192756	keystroke_p	p	n/a
96.5275	0.135	193055	keystroke_s	s	n/a
96.6775	0.09	193355	keystroke_Key.space	Key.space	n/a
97.067	0.06	194134	keystroke_t	t	n/a
97.112	0.061	194224	keystroke_e	e	n/a
97.262	0.105	194524	keystroke_r	r	n/a
97.382	0.045	194764	keystroke_m	m	n/a
97.487	0.061	194974	keystroke_e	e	n/a
98.7325	0.06	197465	keystroke_Key.backspace	Key.backspace	n/a
98.8075	0.09	197615	keystroke_s	s	n/a
101.5245	0.013	203049	keystroke_Key.enter	Key.enter	n/a
101.545	7.0895	203090	prompt	n/a	allan sperm medium lord\n
102.3475	0.105	204695	keystroke_a	a	n/a
102.4375	0.06	204875	keystroke_l	l	n/a
102.5725	0.075	205145	keystroke_l	l	n/a
102.6625	0.105	205325	keystroke_a	a	n/a
102.7975	0.09	205595	keystroke_n	n	n/a
102.8725	0.105	205745	keystroke_Key.space	Key.space	n/a
103.2475	0.075	206495	keystroke_s	s	n/a
103.3825	0.075	206765	keystroke_p	p	n/a
103.7125	0.075	207425	keystroke_e	e	n/a
103.8925	0.075	207785	keystroke_r	r	n/a
104.0275	0.075	208055	keystroke_m	m	n/a
104.1625	0.105	208325	keystroke_Key.space	Key.space	n/a
104.6875	0.09	209375	keystroke_m	m	n/a
104.7475	0.075	209495	keystroke_e	e	n/a
104.9425	0.09	209885	keystroke_d	d	n/a
105.0335	0.09	210067	keystroke_i	i	n/a
105.2725	0.09	210545	keystroke_u	u	n/a
105.5425	0.075	211085	keystroke_m	m	n/a
105.6325	0.105	211265	keystroke_Key.space	Key.space	n/a
106.2025	0.075	212405	keystroke_l	l	n/a
106.3825	0.06	212765	keystroke_o	o	n/a
106.5775	0.06	213155	keystroke_d	d	n/a
107.8825	0.06	215765	keystroke_Key.backspace	Key.backspace	n/a
108.1675	0.06	216335	keystroke_r	r	n/a
108.3475	0.076	216695	keystroke_d	d	n/a
108.5875	0.045	217175	keystroke_Key.enter	Key.enter	n/a
108.6375	8.3215	217275	prompt	n/a	variations spice nation shop\n
109.4575	0.075	218915	keystroke_v	v	n/a
109.5475	0.076	219095	keystroke_a	a	n/a
109.7425	0.09	219485	keystroke_r	r	n/a
109.8475	0.06	219695	keystroke_i	i	n/a
109.9675	0.09	219935	keystroke_a	a	n/a
110.1925	0.12	220385	keystroke_t	t	n/a
110.2675	0.075	220535	keystroke_i	i	n/a
110.4325	0.075	220865	keystroke_o	o	n/a
110.5675	0.15	221135	keystroke_s	s	n/a
110.6875	0.09	221375	keystroke_Key.space	Key.space	n/a
110.8825	0.09	221765	keystroke_s	s	n/a
110.9875	0.075	221975	keystroke_p	p	n/a
111.9475	0.06	223895	keystroke_Key.backspace	Key.backspace	n/a
112.0975	0.09	224195	keystroke_Key.backspace	Key.backspace	n/a
112.3225	0.075	224645	keystroke_Key.backspace	Key.backspace	n/a
112.5625	0.09	225125	keystroke_Key.backspace	Key.backspace	n/a
112.9525	0.0745	225905	keystroke_n	n	n/a
113.012	0.12	226024	keystroke_s	s	n/a
113.117	0.09	226234	keystroke_Key.space	Key.space	n/a
113.418	0.075	226836	keystroke_s	s	n/a
113.597	0.075	227194	keystroke_p	p	n/a
113.807	0.075	227614	keystroke_i	i	n/a
113.898	0.09	227796	keystroke_c	c	n/a
114.122	0.15	228244	keystroke_e	e	n/a
114.227	0.09	228454	keystroke_Key.space	Key.space	n/a
114.572	0.075	229144	keystroke_n	n	n/a
114.662	0.106	229324	keystroke_a	a	n/a
114.932	0.061	229864	keystroke_t	t	n/a
115.007	0.061	230014	keystroke_i	i	n/a
115.187	0.06	230374	keystroke_o	o	n/a
115.457	0.09	230914	keystroke_n	n	n/a
115.562	0.09	231124	keystroke_Key.space	Key.space	n/a
115.712	0.09	231424	keystroke_s	s	n/a
115.848	0.09	231696	keystroke_h	h	n/a
116.043	0.075	232086	keystroke_o	o	n/a
116.252	0.075	232504	keystroke_p	p	n/a
116.882	0.075	233764	keystroke_Key.enter	Key.enter	n/a
116.962	10.0475	233924	prompt	n/a	appeal donations yourself assistance\n
117.678	0.074	235356	keystroke_a	a	n/a
117.782	0.091	235564	keystroke_p	p	n/a
117.962	0.061	235924	keystroke_p	p	n/a
118.052	0.091	236104	keystroke_e	e	n/a
118.277	0.075	236554	keystroke_a	a	n/a
118.412	0.09	236824	keystroke_l	l	n/a
118.562	0.106	237124	keystroke_Key.space	Key.space	n/a
119.073	0.09	238146	keystroke_d	d	n/a
119.147	0.075	238294	keystroke_o	o	n/a
119.313	0.075	238626	keystroke_n	n	n/a
119.372	0.091	238744	keystroke_a	a	n/a
119.628	0.09	239256	keystroke_t	t	n/a
119.748	0.074	239496	keystroke_i	i	n/a
119.913	0.09	239826	keystroke_o	o	n/a
120.078	0.09	240156	keystroke_n	n	n/a
120.228	0.15	240456	keystroke_s	s	n/a
120.363	0.089	240726	keystroke_Key.space	Key.space	n/a
120.768	0.075	241536	keystroke_y	y	n/a
120.948	0.09	241896	keystroke_o	o	n/a
121.143	0.06	242286	keystroke_u	u	n/a
121.233	0.075	242466	keystroke_r	r	n/a
121.533	0.075	243066	keystroke_s	s	n/a
121.773	0.074	243546	keystroke_e	e	n/a
121.998	0.06	243996	keystroke_f	f	n/a
122.073	0.075	244146	keystroke_l	l	n/a
122.523	0.074	245046	keystroke_Key.backspace	Key.backspace	n/a
122.688	0.06	245376	keystroke_Key.backspace	Key.backspace	n/a
122.853	0.075	245706	keystroke_l	l	n/a
122.898	0.09	245796	keystroke_f	f	n/a
123.093	0.09	246186	keystroke_Key.space	Key.space	n/a
123.618	0.09	247236	keystroke_a	a	n/a
123.858	0.09	247716	keystroke_s	s	n/a
124.038	0.105	248076	keystroke_s	s	n/a
124.158	0.075	248316	keystroke_i	i	n/a
124.473	0.075	248946	keystroke_s	s	n/a
125.418	0.075	250836	keystroke_t	t	n/a
125.538	0.12	251076	keystroke_a	a	n/a
125.673	0.06	251346	keystroke_n	n	n/a
125.868	0.075	251736	keystroke_c	c	n/a
125.973	0.075	251946	keystroke_e	e	n/a
126.948	0.06	253896	keystroke_Key.enter	Key.enter	n/a
127.0135	9.8205	254027	prompt	n/a	illegal isn't tire visit\n
128.0125	0.06	256025	keystroke_i	i	n/a
128.2075	0.0605	256415	keystroke_l	l	n/a
128.3425	0.09	256685	keystroke_l	l	n/a
128.4475	0.075	256895	keystroke_e	e	n/a
129.2275	0.075	258455	keystroke_g	g	n/a
129.3325	0.09	258665	keystroke_a	a	n/a
129.5275	0.09	259055	keystroke_l	l	n/a
129.6325	0.105	259265	keystroke_Key.space	Key.space	n/a
129.7825	0.075	259565	keystroke_i	i	n/a
129.9175	0.105	259835	keystroke_s	s	n/a
130.6825	0.03	261365	keystroke_e	e	n/a
130.8025	0.06	261605	keystroke_n	n	n/a
131.5525	0.06	263105	keystroke_Key.backspace	Key.backspace	n/a
131.6875	0.09	263375	keystroke_Key.backspace	Key.backspace	n/a
131.9725	0.075	263945	keystroke_n	n	n/a
132.722	0.06	265444	keystroke_'	'	n/a
132.872	0.105	265744	keystroke_t	t	n/a
132.962	0.105	265924	keystroke_Key.space	Key.space	n/a
133.443	0.075	266886	keystroke_t	t	n/a
133.532	0.075	267064	keystroke_i	i	n/a
133.772	0.075	267544	keystroke_r	r	n/a
133.982	0.12	267964	keystroke_e	e	n/a
134.072	0.135	268144	keystroke_Key.space	Key.space	n/a
134.793	0.075	269586	keystroke_c	c	n/a
135.092	0.09	270184	keystroke_Key.backspace	Key.backspace	n/a
135.213	0.059	270426	keystroke_v	v	n/a
135.287	0.09	270574	keystroke_i	i	n/a
135.468	0.059	270936	keystroke_s	s	n/a
135.557	0.075	271114	keystroke_i	i	n/a
135.782	0.075	271564	keystroke_t	t	n/a
136.772	0.06	273544	keystroke_Key.enter	Key.enter	n/a
136.8375	9.0415	273675	prompt	n/a	bryan went jazz flickr\n
137.688	0.075	275376	keystroke_b	b	n/a
137.777	0.075	275554	keystroke_r	r	n/a
138.018	0.059	276036	keystroke_y	y	n/a
138.138	0.089	276276	keystroke_a	a	n/a
138.272	0.106	276544	keystroke_n	n	n/a
138.392	0.105	276784	keystroke_Key.space	Key.space	n/a
138.917	0.09	277834	keystroke_w	w	n/a
139.067	0.075	278134	keystroke_n	n	n/a
139.427	0.075	278854	keystroke_Key.backspace	Key.backspace	n/a
139.518	0.075	279036	keystroke_e	e	n/a
139.668	0.059	279336	keystroke_n	n	n/a
139.908	0.074	279816	keystroke_t	t	n/a
140.012	0.12	280024	keystroke_Key.space	Key.space	n/a
140.943	0.045	281886	keystroke_j	j	n/a
141.003	0.09	282006	keystroke_a	a	n/a
141.318	0.075	282636	keystroke_z	z	n/a
141.513	0.06	283026	keystroke_z	z	n/a
141.707	0.075	283414	keystroke_Key.space	Key.space	n/a
142.518	0.09	285036	keystroke_f	f	n/a
142.623	0.09	285246	keystroke_l	l	n/a
142.832	0.076	285664	keystroke_i	i	n/a
142.953	0.074	285906	keystroke_c	c	n/a
143.088	0.075	286176	keystroke_k	k	n/a
143.943	0.045	287886	keystroke_r	r	n/a
145.818	0.06	291636	keystroke_Key.enter	Key.enter	n/a
145.882	7.1075	291764	prompt	n/a	sake adobe discussing password\n
146.733	0.075	293466	keystroke_s	s	n/a
146.928	0.105	293856	keystroke_a	a	n/a
147.048	0.105	294096	keystroke_k	k	n/a
147.168	0.105	294336	keystroke_e	e	n/a
147.243	0.12	294486	keystroke_Key.space	Key.space	n/a
147.813	0.09	295626	keystroke_a	a	n/a
148.083	0.06	296166	keystroke_d	d	n/a
148.173	0.075	296346	keystroke_o	o	n/a
148.368	0.09	296736	keystroke_b	b	n/a
148.473	0.105	296946	keystroke_e	e	n/a
148.548	0.105	297096	keystroke_Key.space	Key.space	n/a
149.103	0.09	298206	keystroke_d	d	n/a
149.208	0.105	298416	keystroke_i	i	n/a
149.328	0.09	298656	keystroke_s	s	n/a
149.553	0.09	299106	keystroke_c	c	n/a
149.703	0.075	299406	keystroke_u	u	n/a
149.868	0.075	299736	keystroke_s	s	n/a
150.033	0.075	300066	keystroke_s	s	n/a
150.123	0.09	300246	keystroke_i	i	n/a
150.273	0.105	300546	keystroke_n	n	n/a
150.573	0.09	301146	keystroke_g	g	n/a
150.678	0.105	301356	keystroke_Key.space	Key.space	n/a
150.918	0.075	301836	keystroke_p	p	n/a
151.023	0.12	302046	keystroke_a	a	n/a
151.158	0.045	302316	keystroke_s	s	n/a
151.293	0.075	302586	keystroke_s	s	n/a
151.968	0.045	303936	keystroke_w	w	n/a
152.043	0.105	304086	keystroke_o	o	n/a
152.253	0.075	304506	keystroke_r	r	n/a
152.433	0.06	304866	keystroke_d	d	n/a
152.928	0.06	305856	keystroke_Key.enter	Key.enter	n/a
152.9925	7.662	305985	prompt	n/a	lakes languages tips profession\n
153.723	0.09	307446	keystroke_l	l	n/a
153.828	0.105	307656	keystroke_a	a	n/a
153.948	0.075	307896	keystroke_k	k	n/a
154.053	0.075	308106	keystroke_e	e	n/a
154.233	0.105	308466	keystroke_s	s	n/a
154.323	0.09	308646	keystroke_Key.space	Key.space	n/a
154.443	0.09	308886	keystroke_l	l	n/a
154.563	0.105	309126	keystroke_a	a	n/a
154.698	0.09	309396	keystroke_n	n	n/a
154.968	0.075	309936	keystroke_g	g	n/a
155.103	0.09	310206	keystroke_u	u	n/a
155.208	0.09	310416	keystroke_a	a	n/a
155.358	0.075	310716	keystroke_g	g	n/a
155.463	0.075	310926	keystroke_e	e	n/a
155.658	0.105	311316	keystroke_s	s	n/a
155.718	0.135	311436	keystroke_Key.space	Key.space	n/a
156.153	0.075	312306	keystroke_t	t	n/a
156.243	0.03	312486	keystroke_u	u	n/a
156.8725	0.075	313745	keystroke_Key.backspace	Key.backspace	n/a
157.0675	0.06	314135	keystroke_i	i	n/a
157.2475	0.06	314495	keystroke_p	p	n/a
157.323	0.1345	314646	keystroke_s	s	n/a
157.4275	0.12	314855	keystroke_Key.space	Key.space	n/a
158.2675	0.09	316535	keystroke_p	p	n/a
158.3875	0.06	316775	keystroke_r	r	n/a
158.4775	0.075	316955	keystroke_o	o	n/a
158.6425	0.09	317285	keystroke_f	f	n/a
158.8375	0.045	317675	keystroke_e	e	n/a
159.0175	0.075	318035	keystroke_s	s	n/a
159.1825	0.075	318365	keystroke_s	s	n/a
159.2875	0.09	318575	keystroke_i	i	n/a
159.4375	0.09	318875	keystroke_o	o	n/a
159.5875	0.12	319175	keystroke_n	n	n/a
160.5925	0.06	321185	keystroke_Key.enter	Key.enter	n/a
160.662	7.3565	321324	prompt	n/a	chicken basis simple fetish\n
161.4775	0.075	322955	keystroke_c	c	n/a
161.5675	0.075	323135	keystroke_h	h	n/a
161.7025	0.09	323405	keystroke_i	i	n/a
161.7775	0.09	323555	keystroke_c	c	n/a
162.0925	0.06	324185	keystroke_k	k	n/a
162.1825	0.06	324365	keystroke_e	e	n/a
162.3175	0.09	324635	keystroke_n	n	n/a
163.0825	0.105	326165	keystroke_Key.space	Key.space	n/a
163.2625	0.06	326525	keystroke_b	b	n/a
163.3375	0.12	326675	keystroke_a	a	n/a
163.4425	0.105	326885	keystroke_s	s	n/a
163.5925	0.105	327185	keystroke_i	i	n/a
163.6825	0.12	327365	keystroke_s	s	n/a
163.7875	0.12	327575	keystroke_Key.space	Key.space	n/a
164.7775	0.09	329555	keystroke_s	s	n/a
164.8975	0.075	329795	keystroke_i	i	n/a
165.0775	0.09	330155	keystroke_m	m	n/a
165.2275	0.09	330455	keystroke_p	p	n/a
165.3325	0.09	330665	keystroke_l	l	n/a
165.5125	0.09	331025	keystroke_e	e	n/a
165.5875	0.09	331175	keystroke_Key.space	Key.space	n/a
166.0975	0.075	332195	keystroke_f	f	n/a
166.5925	0.075	333185	keystroke_e	e	n/a
166.8475	0.075	333695	keystroke_t	t	n/a
166.9225	0.075	333845	keystroke_i	i	n/a
167.1475	0.075	334295	keystroke_s	s	n/a
167.3125	0.075	334625	keystroke_h	h	n/a
167.942	0.075	335884	keystroke_Key.enter	Key.enter	n/a
168.0215	9.597	336043	prompt	n/a	rendering meals longitude arrived\n
168.8875	0.075	337775	keystroke_r	r	n/a
168.9775	0.075	337955	keystroke_e	e	n/a
169.2175	0.075	338435	keystroke_d	d	n/a
169.5325	0.09	339065	keystroke_Key.backspace	Key.backspace	n/a
169.7725	0.075	339545	keystroke_n	n	n/a
169.8175	0.09	339635	keystroke_d	d	n/a
169.9975	0.075	339995	keystroke_e	e	n/a
170.687	0.06	341374	keystroke_r	r	n/a
170.882	0.06	341764	keystroke_i	i	n/a
171.002	0.12	342004	keystroke_n	n	n/a
171.467	0.105	342934	keystroke_g	g	n/a
171.542	0.12	343084	keystroke_Key.space	Key.space	n/a
172.202	0.09	344404	keystroke_m	m	n/a
172.322	0.091	344644	keystroke_e	e	n/a
172.5475	0.105	345095	keystroke_a	a	n/a
172.6825	0.09	345365	keystroke_l	l	n/a
172.8175	0.15	345635	keystroke_s	s	n/a
172.9225	0.12	345845	keystroke_Key.space	Key.space	n/a
173.2225	0.09	346445	keystroke_l	l	n/a
173.4175	0.075	346835	keystroke_o	o	n/a
173.6275	0.09	347255	keystroke_n	n	n/a
174.0175	0.075	348035	keystroke_g	g	n/a
174.0925	0.09	348185	keystroke_i	i	n/a
174.3175	0.06	348635	keystroke_t	t	n/a
174.4225	0.075	348845	keystroke_u	u	n/a
174.6025	0.105	349205	keystroke_r	r	n/a
174.9325	0.09	349865	keystroke_Key.backspace	Key.backspace	n/a
175.0075	0.09	350015	keystroke_d	d	n/a
175.2175	0.135	350435	keystroke_e	e	n/a
175.3225	0.09	350645	keystroke_Key.space	Key.space	n/a
176.0275	0.09	352055	keystroke_a	a	n/a
176.3125	0.075	352625	keystroke_r	r	n/a
176.4925	0.06	352985	keystroke_r	r	n/a
176.6425	0.075	353285	keystroke_i	i	n/a
176.8375	0.06	353675	keystroke_v	v	n/a
176.8825	0.075	353765	keystroke_e	e	n/a
177.0625	0.075	354125	keystroke_d	d	n/a
177.5575	0.06	355115	keystroke_Key.enter	Key.enter	n/a
177.622	8.367	355244	prompt	n/a	lamps belief namely depth\n
178.3525	0.06	356705	keystroke_l	l	n/a
178.4575	0.09	356915	keystroke_a	a	n/a
178.4875	0.09	356975	keystroke_m	m	n/a
178.6825	0.06	357365	keystroke_p	p	n/a
178.7575	0.1345	357515	keystroke_s	s	n/a
178.862	0.12	357724	keystroke_Key.space	Key.space	n/a
179.477	0.075	358954	keystroke_b	b	n/a
179.567	0.075	359134	keystroke_e	e	n/a
179.702	0.09	359404	keystroke_l	l	n/a
179.927	0.06	359854	keystroke_i	i	n/a
180.033	0.059	360066	keystroke_e	e	n/a
180.197	0.075	360394	keystroke_f	f	n/a
180.317	0.09	360634	keystroke_Key.space	Key.space	n/a
180.797	0.075	361594	keystroke_n	n	n/a
180.902	0.106	361804	keystroke_a	a	n/a
180.992	0.091	361984	keystroke_m	m	n/a
181.142	0.105	362284	keystroke_e	e	n/a
181.277	0.075	362554	keystroke_l	l	n/a
181.533	0.075	363066	keystroke_y	y	n/a
181.637	0.106	363274	keystroke_Key.space	Key.space	n/a
182.777	0.06	365554	keystroke_d	d	n/a
182.852	0.075	365704	keystroke_e	e	n/a
183.047	0.045	366094	keystroke_o	o	n/a
183.227	0.06	366454	keystroke_t	t	n/a
183.363	0.074	366726	keystroke_h	h	n/a
184.127	0.06	368254	keystroke_Key.backspace	Key.backspace	n/a
184.292	0.075	368584	keystroke_Key.backspace	Key.backspace	n/a
184.577	0.06	369154	keystroke_Key.backspace	Key.backspace	n/a
184.937	0.06	369874	keystroke_p	p	n/a
185.118	0.059	370236	keystroke_t	t	n/a
185.222	0.061	370444	keystroke_h	h	n/a
185.927	0.06	371854	keystroke_Key.enter	Key.enter	n/a
185.9925	7.3915	371985	prompt	n/a	computers semi printed carb\n
186.753	0.089	373506	keystroke_c	c	n/a
186.843	0.06	373686	keystroke_o	o	n/a
186.992	0.061	373984	keystroke_m	m	n/a
187.142	0.061	374284	keystroke_p	p	n/a
187.308	0.059	374616	keystroke_u	u	n/a
187.547	0.076	375094	keystroke_t	t	n/a
187.562	0.046	375124	keystroke_r	r	n/a
187.638	0.09	375276	keystroke_e	e	n/a
188.192	0.091	376384	keystroke_Key.backspace	Key.backspace	n/a
188.387	0.06	376774	keystroke_Key.backspace	Key.backspace	n/a
188.433	0.075	376866	keystroke_e	e	n/a
188.583	0.089	377166	keystroke_r	r	n/a
188.808	0.134	377616	keystroke_s	s	n/a
188.927	0.106	377854	keystroke_Key.space	Key.space	n/a
189.378	0.0895	378756	keystroke_s	s	n/a
189.5415	0.106	379083	keystroke_e	e	n/a
189.6615	0.106	379323	keystroke_m	m	n/a
189.8275	0.089	379655	keystroke_i	i	n/a
190.0515	0.121	380103	keystroke_Key.space	Key.space	n/a
190.3675	0.09	380735	keystroke_p	p	n/a
190.5025	0.09	381005	keystroke_r	r	n/a
190.6075	0.075	381215	keystroke_i	i	n/a
190.7875	0.089	381575	keystroke_n	n	n/a
191.1475	0.09	382295	keystroke_t	t	n/a
191.2375	0.089	382475	keystroke_e	e	n/a
191.5075	0.12	383015	keystroke_d	d	n/a
191.6125	0.12	383225	keystroke_Key.space	Key.space	n/a
192.3475	0.105	384695	keystroke_c	c	n/a
192.4375	0.03	384875	keystroke_a	a	n/a
192.5415	0.076	385083	keystroke_r	r	n/a
192.6325	0.045	385265	keystroke_b	b	n/a
193.3075	0.075	386615	keystroke_Key.enter	Key.enter	n/a
193.3875	7.167	386775	prompt	n/a	writes specs mission servers\n
194.4475	0.075	388895	keystroke_w	w	n/a
194.5675	0.09	389135	keystroke_i	i	n/a
194.9575	0.075	389915	keystroke_Key.backspace	Key.backspace	n/a
195.0175	0.075	390035	keystroke_r	r	n/a
195.1225	0.09	390245	keystroke_i	i	n/a
195.4075	0.09	390815	keystroke_t	t	n/a
195.5125	0.09	391025	keystroke_e	e	n/a
195.6925	0.12	391385	keystroke_s	s	n/a
195.7975	0.105	391595	keystroke_Key.space	Key.space	n/a
196.3075	0.105	392615	keystroke_s	s	n/a
196.4875	0.075	392975	keystroke_p	p	n/a
196.5925	0.075	393185	keystroke_e	e	n/a
196.8625	0.075	393725	keystroke_c	c	n/a
196.9525	0.15	393905	keystroke_s	s	n/a
197.0875	0.12	394175	keystroke_Key.space	Key.space	n/a
197.4325	0.105	394865	keystroke_m	m	n/a
197.6125	0.09	395225	keystroke_i	i	n/a
197.7175	0.105	395435	keystroke_s	s	n/a
197.9275	0.075	395855	keystroke_s	s	n/a
198.0325	0.105	396065	keystroke_i	i	n/a
198.1975	0.09	396395	keystroke_o	o	n/a
198.3625	0.09	396725	keystroke_n	n	n/a
198.4675	0.12	396935	keystroke_Key.space	Key.space	n/a
198.7975	0.105	397595	keystroke_s	s	n/a
198.9925	0.09	397985	keystroke_e	e	n/a
199.202	0.075	398404	keystroke_r	r	n/a
199.547	0.075	399094	keystroke_v	v	n/a
199.667	0.06	399334	keystroke_e	e	n/a
199.817	0.12	399634	keystroke_s	s	n/a
200.492	0.06	400984	keystroke_Key.enter	Key.enter	n/a
200.559	11.7555	401118	prompt	n/a	skip pupils sell dangerous\n
202.052	0.06	404104	keystroke_s	s	n/a
202.277	0.106	404554	keystroke_k	k	n/a
202.472	0.061	404944	keystroke_i	i	n/a
203.072	0.06	406144	keystroke_p	p	n/a
203.162	0.12	406324	keystroke_Key.space	Key.space	n/a
203.447	0.06	406894	keystroke_p	p	n/a
203.597	0.075	407194	keystroke_p	p	n/a
204.002	0.09	408004	keystroke_Key.backspace	Key.backspace	n/a
204.212	0.075	408424	keystroke_u	u	n/a
204.422	0.09	408844	keystroke_p	p	n/a
204.782	0.045	409564	keystroke_i	i	n/a
205.112	0.09	410224	keystroke_l	l	n/a
205.217	0.135	410434	keystroke_s	s	n/a
205.337	0.12	410674	keystroke_Key.space	Key.space	n/a
205.532	0.105	411064	keystroke_s	s	n/a
205.728	0.074	411456	keystroke_e	e	n/a
205.847	0.09	411694	keystroke_l	l	n/a
206.012	0.075	412024	keystroke_l	l	n/a
206.147	0.12	412294	keystroke_Key.space	Key.space	n/a
206.508	0.045	413016	keystroke_s	s	n/a
206.837	0.075	413674	keystroke_Key.backspace	Key.backspace	n/a
206.928	0.075	413856	keystroke_f	f	n/a
206.942	0.045	413884	keystroke_d	d	n/a
207.392	0.075	414784	keystroke_Key.backspace	Key.backspace	n/a
207.542	0.09	415084	keystroke_Key.backspace	Key.backspace	n/a
207.572	0.09	415144	keystroke_f	f	n/a
207.753	0.105	415506	keystroke_a	a	n/a
207.812	0.105	415624	keystroke_n	n	n/a
208.397	0.075	416794	keystroke_Key.backspace	Key.backspace	n/a
208.562	0.105	417124	keystroke_Key.backspace	Key.backspace	n/a
208.817	0.075	417634	keystroke_Key.backspace	Key.backspace	n/a
209.432	0.075	418864	keystroke_d	d	n/a
209.568	0.104	419136	keystroke_a	a	n/a
209.687	0.075	419374	keystroke_n	n	n/a
210.423	0.074	420846	keystroke_g	g	n/a
210.513	0.059	421026	keystroke_e	e	n/a
211.037	0.076	422074	keystroke_r	r	n/a
211.113	0.075	422226	keystroke_o	o	n/a
211.308	0.089	422616	keystroke_u	u	n/a
211.413	0.12	422826	keystroke_s	s	n/a
212.253	0.059	424506	keystroke_Key.enter	Key.enter	n/a
212.319	12.595	424638	prompt	n/a	tutorials biographies missile migration\n
213.333	0.06	426666	keystroke_t	t	n/a
213.408	0.075	426816	keystroke_u	u	n/a
213.498	0.09	426996	keystroke_t	t	n/a
213.948	0.075	427896	keystroke_o	o	n/a
214.338	0.06	428676	keystroke_r	r	n/a
214.443	0.09	428886	keystroke_i	i	n/a
214.578	0.12	429156	keystroke_a	a	n/a
214.743	0.105	429486	keystroke_l	l	n/a
214.863	0.12	429726	keystroke_s	s	n/a
214.953	0.12	429906	keystroke_Key.space	Key.space	n/a
215.463	0.06	430926	keystroke_v	v	n/a
215.688	0.09	431376	keystroke_Key.backspace	Key.backspace	n/a
215.808	0.06	431616	keystroke_b	b	n/a
215.913	0.09	431826	keystroke_i	i	n/a
216.078	0.09	432156	keystroke_o	o	n/a
216.333	0.09	432666	keystroke_g	g	n/a
216.543	0.075	433086	keystroke_r	r	n/a
216.663	0.09	433326	keystroke_a	a	n/a
216.933	0.075	433866	keystroke_p	p	n/a
217.398	0.075	434796	keystroke_h	h	n/a
217.548	0.075	435096	keystroke_i	i	n/a
217.863	0.105	435726	keystroke_e	e	n/a
218.088	0.15	436176	keystroke_s	s	n/a
218.193	0.12	436386	keystroke_Key.space	Key.space	n/a
219.1975	0.09	438395	keystroke_m	m	n/a
219.4075	0.09	438815	keystroke_i	i	n/a
219.4825	0.075	438965	keystroke_s	s	n/a
219.6325	0.105	439265	keystroke_s	s	n/a
219.7675	0.09	439535	keystroke_i	i	n/a
219.9925	0.075	439985	keystroke_l	l	n/a
220.0825	0.09	440165	keystroke_e	e	n/a
220.3075	0.09	440615	keystroke_Key.space	Key.space	n/a
220.5175	0.105	441035	keystroke_m	m	n/a
220.727	0.075	441454	keystroke_i	i	n/a
221.147	0.0755	442294	keystroke_g	g	n/a
221.327	0.09	442654	keystroke_r	r	n/a
221.432	0.06	442864	keystroke_a	a	n/a
221.672	0.075	443344	keystroke_t	t	n/a
221.792	0.075	443584	keystroke_i	i	n/a
221.928	0.089	443856	keystroke_o	o	n/a
222.077	0.105	444154	keystroke_n	n	n/a
224.765	0.147	449530	keystroke_Key.enter	Key.enter	n/a
224.9175	9.5515	449835	prompt	n/a	privacy carmen nashville many\n
226.037	0.06	452074	keystroke_p	p	n/a
226.142	0.075	452284	keystroke_r	r	n/a
226.247	0.075	452494	keystroke_i	i	n/a
226.487	0.105	452974	keystroke_v	v	n/a
226.578	0.104	453156	keystroke_a	a	n/a
226.817	0.09	453634	keystroke_c	c	n/a
226.953	0.104	453906	keystroke_y	y	n/a
227.072	0.09	454144	keystroke_Key.space	Key.space	n/a
227.612	0.075	455224	keystroke_c	c	n/a
227.807	0.075	455614	keystroke_a	a	n/a
228.032	0.06	456064	keystroke_r	r	n/a
228.137	0.091	456274	keystroke_m	m	n/a
228.242	0.075	456484	keystroke_e	e	n/a
228.378	0.075	456756	keystroke_n	n	n/a
228.497	0.075	456994	keystroke_Key.space	Key.space	n/a
228.992	0.105	457984	keystroke_n	n	n/a
229.082	0.091	458164	keystroke_a	a	n/a
229.142	0.105	458284	keystroke_s	s	n/a
229.367	0.075	458734	keystroke_h	h	n/a
229.607	0.09	459214	keystroke_c	c	n/a
229.997	0.075	459994	keystroke_Key.backspace	Key.backspace	n/a
230.088	0.059	460176	keystroke_v	v	n/a
230.222	0.09	460444	keystroke_u	u	n/a
230.447	0.075	460894	keystroke_k	k	n/a
230.597	0.075	461194	keystroke_k	k	n/a
230.792	0.075	461584	keystroke_Key.backspace	Key.backspace	n/a
230.928	0.089	461856	keystroke_Key.backspace	Key.backspace	n/a
231.092	0.105	462184	keystroke_Key.backspace	Key.backspace	n/a
231.632	0.075	463264	keystroke_i	i	n/a
231.828	0.075	463656	keystroke_l	l	n/a
231.992	0.075	463984	keystroke_l	l	n/a
232.082	0.105	464164	keystroke_e	e	n/a
232.157	0.121	464314	keystroke_Key.space	Key.space	n/a
232.623	0.075	465246	keystroke_m	m	n/a
232.728	0.09	465456	keystroke_a	a	n/a
232.848	0.09	465696	keystroke_n	n	n/a
233.103	0.09	466206	keystroke_y	y	n/a
234.422	0.045	468844	keystroke_Key.enter	Key.enter	n/a
234.472	10.482	468944	prompt	n/a	giving teaching feeding romantic\n
235.458	0.075	470916	keystroke_g	g	n/a
235.533	0.074	471066	keystroke_i	i	n/a
235.683	0.12	471366	keystroke_v	v	n/a
235.832	0.076	471664	keystroke_i	i	n/a
236.433	0.09	472866	keystroke_n	n	n/a
236.538	0.105	473076	keystroke_g	g	n/a
236.658	0.12	473316	keystroke_Key.space	Key.space	n/a
237.318	0.09	474636	keystroke_t	t	n/a
237.498	0.09	474996	keystroke_e	e	n/a
237.768	0.09	475536	keystroke_a	a	n/a
237.933	0.12	475866	keystroke_c	c	n/a
238.038	0.09	476076	keystroke_h	h	n/a
238.188	0.09	476376	keystroke_i	i	n/a
238.353	0.105	476706	keystroke_n	n	n/a
238.458	0.075	476916	keystroke_f	f	n/a
238.473	0.09	476946	keystroke_g	g	n/a
238.9075	0.075	477815	keystroke_Key.backspace	Key.backspace	n/a
239.0575	0.075	478115	keystroke_Key.backspace	Key.backspace	n/a
239.6125	0.09	479225	keystroke_g	g	n/a
239.6725	0.135	479345	keystroke_Key.space	Key.space	n/a
240.7375	0.09	481475	keystroke_f	f	n/a
240.8725	0.045	481745	keystroke_e	e	n/a
241.0075	0.075	482015	keystroke_e	e	n/a
241.1875	0.09	482375	keystroke_d	d	n/a
241.2625	0.075	482525	keystroke_i	i	n/a
241.4425	0.105	482885	keystroke_n	n	n/a
241.5625	0.075	483125	keystroke_g	g	n/a
241.7725	0.09	483545	keystroke_Key.space	Key.space	n/a
241.9375	0.09	483875	keystroke_m	m	n/a
242.2825	0.075	484565	keystroke_Key.backspace	Key.backspace	n/a
242.3725	0.09	484745	keystroke_r	r	n/a
242.4925	0.03	484985	keystroke_i	i	n/a
242.5075	0.03	485015	keystroke_o	o	n/a
243.0025	0.0745	486005	keystroke_Key.backspace	Key.backspace	n/a
243.152	0.09	486304	keystroke_Key.backspace	Key.backspace	n/a
243.287	0.105	486574	keystroke_o	o	n/a
243.512	0.09	487024	keystroke_m	m	n/a
243.587	0.12	487174	keystroke_a	a	n/a
243.752	0.105	487504	keystroke_n	n	n/a
244.022	0.06	488044	keystroke_t	t	n/a
244.112	0.09	488224	keystroke_i	i	n/a
244.307	0.105	488614	keystroke_c	c	n/a
244.907	0.045	489814	keystroke_Key.enter	Key.enter	n/a
244.9575	19.077	489915	prompt	n/a	acknowledged vertical most investigator\n
245.823	0.089	491646	keystroke_a	a	n/a
246.077	0.075	492154	keystroke_c	c	n/a
246.212	0.075	492424	keystroke_k	k	n/a
246.348	0.089	492696	keystroke_n	n	n/a
246.542	0.075	493084	keystroke_o	o	n/a
246.722	0.09	493444	keystroke_l	l	n/a
247.457	0.045	494914	keystroke_e	e	n/a
248.087	0.075	496174	keystroke_d	d	n/a
248.207	0.075	496414	keystroke_g	g	n/a
248.298	0.074	496596	keystroke_e	e	n/a
248.462	0.15	496924	keystroke_d	d	n/a
248.613	0.074	497226	keystroke_Key.space	Key.space	n/a
252.53	0.001	505060	keystroke_Key.backspace	Key.backspace	n/a
252.633	0.075	505266	keystroke_Key.backspace	Key.backspace	n/a
252.782	0.075	505564	keystroke_Key.backspace	Key.backspace	n/a
252.948	0.075	505896	keystroke_Key.backspace	Key.backspace	n/a
253.112	0.075	506224	keystroke_Key.backspace	Key.backspace	n/a
253.278	0.09	506556	keystroke_Key.backspace	Key.backspace	n/a
253.473	0.075	506946	keystroke_Key.backspace	Key.backspace	n/a
254.3875	0.09	508775	keystroke_w	w	n/a
254.4925	0.075	508985	keystroke_l	l	n/a
254.6425	0.075	509285	keystroke_e	e	n/a
256.5625	0.075	513125	keystroke_d	d	n/a
256.9675	0.09	513935	keystroke_g	g	n/a
257.0425	0.075	514085	keystroke_e	e	n/a
257.2525	0.15	514505	keystroke_d	d	n/a
257.4025	0.135	514805	keystroke_Key.space	Key.space	n/a
258.2125	0.09	516425	keystroke_v	v	n/a
258.2875	0.09	516575	keystroke_e	e	n/a
258.4525	0.09	516905	keystroke_r	r	n/a
258.6475	0.075	517295	keystroke_t	t	n/a
258.7375	0.075	517475	keystroke_i	i	n/a
258.8575	0.105	517715	keystroke_c	c	n/a
259.0375	0.09	518075	keystroke_a	a	n/a
259.1425	0.09	518285	keystroke_l	l	n/a
259.2025	0.12	518405	keystroke_Key.space	Key.space	n/a
259.3525	0.09	518705	keystroke_m	m	n/a
259.5175	0.075	519035	keystroke_o	o	n/a
259.5625	0.135	519125	keystroke_s	s	n/a
259.8775	0.18	519755	keystroke_r	r	n/a
260.0425	0.12	520085	keystroke_Key.space	Key.space	n/a
260.5075	0.06	521015	keystroke_Key.backspace	Key.backspace	n/a
260.6425	0.09	521285	keystroke_Key.backspace	Key.backspace	n/a
260.6875	0.105	521375	keystroke_t	t	n/a
260.7475	0.12	521495	keystroke_Key.space	Key.space	n/a
260.8825	0.075	521765	keystroke_i	i	n/a
261.0775	0.09	522155	keystroke_n	n	n/a
261.5875	0.09	523175	keystroke_v	v	n/a
261.6475	0.075	523295	keystroke_e	e	n/a
261.8275	0.105	523655	keystroke_s	s	n/a
262.1575	0.075	524315	keystroke_t	t	n/a
262.2475	0.076	524495	keystroke_i	i	n/a
262.4575	0.075	524915	keystroke_g	g	n/a
262.4875	0.105	524975	keystroke_a	a	n/a
262.7125	0.075	525425	keystroke_r	r	n/a
262.9825	0.075	525965	keystroke_Key.backspace	Key.backspace	n/a
263.0735	0.075	526147	keystroke_t	t	n/a
263.1625	0.09	526325	keystroke_o	o	n/a
263.2825	0.09	526565	keystroke_r	r	n/a
263.9725	0.0595	527945	keystroke_Key.enter	Key.enter	n/a
264.041	11.213	528082	prompt	n/a	swingers pricing nationwide last\n
265.037	0.09	530074	keystroke_s	s	n/a
265.232	0.105	530464	keystroke_w	w	n/a
265.442	0.075	530884	keystroke_i	i	n/a
265.607	0.105	531214	keystroke_n	n	n/a
265.952	0.06	531904	keystroke_f	f	n/a
266.057	0.091	532114	keystroke_e	e	n/a
266.417	0.075	532834	keystroke_Key.backspace	Key.backspace	n/a
266.567	0.09	533134	keystroke_Key.backspace	Key.backspace	n/a
267.123	0.089	534246	keystroke_g	g	n/a
267.197	0.09	534394	keystroke_e	e	n/a
267.377	0.121	534754	keystroke_r	r	n/a
268.067	0.105	536134	keystroke_s	s	n/a
268.127	0.135	536254	keystroke_Key.space	Key.space	n/a
268.277	0.105	536554	keystroke_p	p	n/a
268.442	0.06	536884	keystroke_e	e	n/a
268.682	0.105	537364	keystroke_Key.backspace	Key.backspace	n/a
268.772	0.076	537544	keystroke_r	r	n/a
268.892	0.09	537784	keystroke_i	i	n/a
269.312	0.105	538624	keystroke_c	c	n/a
269.402	0.105	538804	keystroke_i	i	n/a
269.762	0.105	539524	keystroke_n	n	n/a
269.972	0.046	539944	keystroke_g	g	n/a
270.962	0.105	541924	keystroke_Key.space	Key.space	n/a
271.172	0.091	542344	keystroke_n	n	n/a
271.263	0.089	542526	keystroke_a	a	n/a
271.637	0.061	543274	keystroke_t	t	n/a
271.712	0.075	543424	keystroke_i	i	n/a
271.877	0.06	543754	keystroke_o	o	n/a
272.057	0.09	544114	keystroke_n	n	n/a
273.018	0.075	546036	keystroke_w	w	n/a
273.137	0.075	546274	keystroke_i	i	n/a
273.273	0.075	546546	keystroke_d	d	n/a
273.468	0.134	546936	keystroke_e	e	n/a
273.557	0.12	547114	keystroke_Key.space	Key.space	n/a
273.977	0.091	547954	keystroke_l	l	n/a
274.052	0.121	548104	keystroke_a	a	n/a
274.157	0.105	548314	keystroke_s	s	n/a
274.623	0.059	549246	keystroke_t	t	n/a
275.177	0.075	550354	keystroke_Key.enter	Key.enter	n/a
275.2575	8.757	550515	prompt	n/a	energy prevention cameroon delivered\n
276.063	0.06	552126	keystroke_e	e	n/a
276.153	0.104	552306	keystroke_n	n	n/a
276.287	0.075	552574	keystroke_e	e	n/a
276.482	0.075	552964	keystroke_r	r	n/a
276.588	0.09	553176	keystroke_g	g	n/a
276.768	0.06	553536	keystroke_y	y	n/a
276.918	0.075	553836	keystroke_Key.space	Key.space	n/a
277.503	0.09	555006	keystroke_p	p	n/a
277.638	0.074	555276	keystroke_r	r	n/a
277.788	0.105	555576	keystroke_e	e	n/a
278.028	0.075	556056	keystroke_v	v	n/a
278.148	0.075	556296	keystroke_e	e	n/a
278.238	0.105	556476	keystroke_n	n	n/a
278.372	0.09	556744	keystroke_t	t	n/a
278.507	0.091	557014	keystroke_i	i	n/a
278.673	0.105	557346	keystroke_o	o	n/a
278.868	0.09	557736	keystroke_n	n	n/a
278.943	0.105	557886	keystroke_Key.space	Key.space	n/a
279.153	0.09	558306	keystroke_c	c	n/a
279.348	0.105	558696	keystroke_a	a	n/a
279.438	0.075	558876	keystroke_m	m	n/a
279.633	0.075	559266	keystroke_e	e	n/a
279.828	0.075	559656	keystroke_r	r	n/a
279.993	0.06	559986	keystroke_r	r	n/a
280.083	0.09	560166	keystroke_o	o	n/a
280.398	0.045	560796	keystroke_Key.backspace	Key.backspace	n/a
280.532	0.061	561064	keystroke_Key.backspace	Key.backspace	n/a
280.713	0.075	561426	keystroke_o	o	n/a
280.863	0.075	561726	keystroke_o	o	n/a
281.103	0.075	562206	keystroke_n	n	n/a
281.163	0.105	562326	keystroke_Key.space	Key.space	n/a
282.333	0.045	564666	keystroke_d	d	n/a
282.438	0.09	564876	keystroke_e	e	n/a
282.558	0.105	565116	keystroke_l	l	n/a
282.768	0.09	565536	keystroke_i	i	n/a
283.023	0.105	566046	keystroke_v	v	n/a
283.098	0.09	566196	keystroke_e	e	n/a
283.263	0.09	566526	keystroke_r	r	n/a
283.428	0.12	566856	keystroke_e	e	n/a
283.683	0.09	567366	keystroke_d	d	n/a
283.953	0.06	567906	keystroke_Key.enter	Key.enter	n/a
284.0175	11.097	568035	prompt	n/a	housewives pairs involved exports\n
285.018	0.06	570036	keystroke_h	h	n/a
285.183	0.105	570366	keystroke_o	o	n/a
285.393	0.075	570786	keystroke_u	u	n/a
285.528	0.075	571056	keystroke_s	s	n/a
285.723	0.1345	571446	keystroke_e	e	n/a
285.8275	0.045	571655	keystroke_Key.space	Key.space	n/a
286.2325	0.09	572465	keystroke_Key.backspace	Key.backspace	n/a
286.2775	0.12	572555	keystroke_w	w	n/a
286.9075	0.09	573815	keystroke_i	i	n/a
287.3725	0.09	574745	keystroke_v	v	n/a
287.4475	0.075	574895	keystroke_e	e	n/a
287.6575	0.12	575315	keystroke_s	s	n/a
287.7625	0.12	575525	keystroke_Key.space	Key.space	n/a
288.6625	0.135	577325	keystroke_p	p	n/a
288.7525	0.09	577505	keystroke_a	a	n/a
288.8725	0.09	577745	keystroke_i	i	n/a
288.9925	0.075	577985	keystroke_r	r	n/a
289.2325	0.18	578465	keystroke_s	s	n/a
289.3375	0.105	578675	keystroke_Key.space	Key.space	n/a
289.8025	0.075	579605	keystroke_i	i	n/a
289.9675	0.12	579935	keystroke_n	n	n/a
290.1925	0.075	580385	keystroke_v	v	n/a
290.2675	0.075	580535	keystroke_o	o	n/a
290.4475	0.075	580895	keystroke_l	l	n/a
290.6875	0.06	581375	keystroke_v	v	n/a
290.7625	0.075	581525	keystroke_e	e	n/a
290.9425	0.06	581885	keystroke_r	r	n/a
291.2275	0.075	582455	keystroke_Key.backspace	Key.backspace	n/a
291.3175	0.105	582635	keystroke_d	d	n/a
291.4675	0.075	582935	keystroke_Key.space	Key.space	n/a
291.6625	0.09	583325	keystroke_e	e	n/a
292.0975	0.06	584195	keystroke_x	x	n/a
292.1725	0.09	584345	keystroke_o	o	n/a
292.6525	0.075	585305	keystroke_Key.backspace	Key.backspace	n/a
292.8025	0.09	585605	keystroke_p	p	n/a
292.9825	0.075	585965	keystroke_o	o	n/a
293.0575	0.075	586115	keystroke_r	r	n/a
293.6275	0.06	587255	keystroke_t	t	n/a
293.7025	0.09	587405	keystroke_s	s	n/a
295.0225	0.09	590045	keystroke_Key.enter	Key.enter	n/a
295.1175	12.9265	590235	prompt	n/a	terminals winds psychiatry replacing\n
296.0125	0.075	592025	keystroke_t	t	n/a
296.1325	0.075	592265	keystroke_e	e	n/a
296.2975	0.09	592595	keystroke_r	r	n/a
296.4025	0.075	592805	keystroke_m	m	n/a
296.5375	0.075	593075	keystroke_i	i	n/a
296.6725	0.105	593345	keystroke_n	n	n/a
296.7625	0.09	593525	keystroke_a	a	n/a
296.8975	0.09	593795	keystroke_l	l	n/a
297.0325	0.195	594065	keystroke_s	s	n/a
297.1825	0.105	594365	keystroke_Key.space	Key.space	n/a
297.9475	0.09	595895	keystroke_w	w	n/a
298.0675	0.075	596135	keystroke_i	i	n/a
298.2325	0.105	596465	keystroke_n	n	n/a
298.3675	0.075	596735	keystroke_d	d	n/a
298.5925	0.165	597185	keystroke_s	s	n/a
298.7125	0.12	597425	keystroke_Key.space	Key.space	n/a
299.9425	0.06	599885	keystroke_p	p	n/a
301.3675	0.075	602735	keystroke_s	s	n/a
301.5025	0.075	603005	keystroke_y	y	n/a
301.6225	0.09	603245	keystroke_c	c	n/a
302.4925	0.09	604985	keystroke_h	h	n/a
303.0175	0.09	606035	keystroke_i	i	n/a
303.1225	0.09	606245	keystroke_a	a	n/a
303.3475	0.09	606695	keystroke_t	t	n/a
303.5275	0.09	607055	keystroke_r	r	n/a
303.6325	0.105	607265	keystroke_y	y	n/a
304.3225	0.09	608645	keystroke_Key.space	Key.space	n/a
304.7275	0.06	609455	keystroke_r	r	n/a
304.8625	0.09	609725	keystroke_e	e	n/a
305.1325	0.09	610265	keystroke_p	p	n/a
305.4925	0.075	610985	keystroke_l	l	n/a
305.5975	0.09	611195	keystroke_a	a	n/a
305.8075	0.09	611615	keystroke_c	c	n/a
305.8825	0.09	611765	keystroke_i	i	n/a
306.0775	0.09	612155	keystroke_n	n	n/a
306.5875	0.075	613175	keystroke_g	g	n/a
307.9975	0.045	615995	keystroke_Key.enter	Key.enter	n/a
308.0475	9.3875	616095	prompt	n/a	supplies denial thats tour\n
309.1825	0.061	618365	keystroke_s	s	n/a
309.2725	0.075	618545	keystroke_u	u	n/a
309.5125	0.06	619025	keystroke_p	p	n/a
309.6625	0.09	619325	keystroke_p	p	n/a
309.8575	0.075	619715	keystroke_l	l	n/a
310.0525	0.075	620105	keystroke_i	i	n/a
310.1435	0.074	620287	keystroke_e	e	n/a
310.3225	0.105	620645	keystroke_s	s	n/a
310.3975	0.105	620795	keystroke_Key.space	Key.space	n/a
310.802	0.075	621604	keystroke_d	d	n/a
310.967	0.09	621934	keystroke_e	e	n/a
311.042	0.09	622084	keystroke_n	n	n/a
311.207	0.09	622414	keystroke_i	i	n/a
312.227	0.105	624454	keystroke_a	a	n/a
312.347	0.0905	624694	keystroke_l	l	n/a
312.4825	0.12	624965	keystroke_Key.space	Key.space	n/a
312.9475	0.06	625895	keystroke_t	t	n/a
313.0225	0.075	626045	keystroke_h	h	n/a
313.1725	0.105	626345	keystroke_a	a	n/a
313.3375	0.06	626675	keystroke_t	t	n/a
313.6825	0.135	627365	keystroke_s	s	n/a
313.8025	0.12	627605	keystroke_Key.space	Key.space	n/a
314.9575	0.06	629915	keystroke_t	t	n/a
315.0025	0.105	630005	keystroke_o	o	n/a
315.2575	0.075	630515	keystroke_u	u	n/a
315.3025	0.015	630605	keystroke_y	y	n/a
315.7825	0.09	631565	keystroke_Key.backspace	Key.backspace	n/a
316.3225	0.06	632645	keystroke_r	r	n/a
317.3875	0.045	634775	keystroke_Key.enter	Key.enter	n/a
317.4385	7.871	634877	prompt	n/a	land enclosed config heart\n
318.3775	0.075	636755	keystroke_l	l	n/a
318.4825	0.105	636965	keystroke_a	a	n/a
318.6325	0.075	637265	keystroke_n	n	n/a
318.7225	0.12	637445	keystroke_d	d	n/a
318.8275	0.12	637655	keystroke_Key.space	Key.space	n/a
319.2625	0.09	638525	keystroke_e	e	n/a
319.3825	0.09	638765	keystroke_n	n	n/a
319.5325	0.105	639065	keystroke_c	c	n/a
319.6525	0.06	639305	keystroke_o	o	n/a
320.0575	0.075	640115	keystroke_Key.backspace	Key.backspace	n/a
320.2225	0.09	640445	keystroke_l	l	n/a
320.4175	0.09	640835	keystroke_o	o	n/a
320.4925	0.075	640985	keystroke_s	s	n/a
320.6725	0.09	641345	keystroke_e	e	n/a
320.8825	0.15	641765	keystroke_d	d	n/a
321.0175	0.105	642035	keystroke_Key.space	Key.space	n/a
321.3475	0.09	642695	keystroke_c	c	n/a
321.4225	0.075	642845	keystroke_o	o	n/a
321.5875	0.09	643175	keystroke_n	n	n/a
321.9475	0.075	643895	keystroke_g	g	n/a
322.3675	0.075	644735	keystroke_Key.backspace	Key.backspace	n/a
322.4575	0.09	644915	keystroke_f	f	n/a
322.5925	0.075	645185	keystroke_i	i	n/a
322.8325	0.09	645665	keystroke_g	g	n/a
322.9975	0.105	645995	keystroke_Key.space	Key.space	n/a
323.7025	0.105	647405	keystroke_h	h	n/a
323.7925	0.045	647585	keystroke_e	e	n/a
323.9725	0.135	647945	keystroke_a	a	n/a
324.0775	0.075	648155	keystroke_r	r	n/a
324.3175	0.015	648635	keystroke_t	t	n/a
325.2475	0.06	650495	keystroke_Key.enter	Key.enter	n/a
325.3135	12.8355	650627	prompt	n/a	reflected inspector talked reviewed\n
326.1925	0.09	652385	keystroke_r	r	n/a
326.2975	0.06	652595	keystroke_e	e	n/a
326.3725	0.075	652745	keystroke_f	f	n/a
326.6275	0.06	653255	keystroke_l	l	n/a
326.7325	0.075	653465	keystroke_e	e	n/a
327.1825	0.045	654365	keystroke_c	c	n/a
327.3175	0.075	654635	keystroke_t	t	n/a
327.4225	0.09	654845	keystroke_e	e	n/a
327.6175	0.12	655235	keystroke_d	d	n/a
327.7225	0.105	655445	keystroke_Key.space	Key.space	n/a
328.2175	0.075	656435	keystroke_i	i	n/a
328.4125	0.09	656825	keystroke_n	n	n/a
328.5175	0.09	657035	keystroke_s	s	n/a
328.6825	0.09	657365	keystroke_p	p	n/a
328.9525	0.09	657905	keystroke_e	e	n/a
329.2525	0.09	658505	keystroke_c	c	n/a
329.5075	0.075	659015	keystroke_t	t	n/a
329.6425	0.075	659285	keystroke_o	o	n/a
329.7475	0.12	659495	keystroke_r	r	n/a
329.8525	0.12	659705	keystroke_Key.space	Key.space	n/a
330.812	0.075	661624	keystroke_t	t	n/a
330.902	0.12	661804	keystroke_a	a	n/a
331.157	0.075	662314	keystroke_k	k	n/a
331.532	0.075	663064	keystroke_Key.backspace	Key.backspace	n/a
331.758	0.075	663516	keystroke_l	l	n/a
331.967	0.06	663934	keystroke_k	k	n/a
332.057	0.06	664114	keystroke_e	e	n/a
332.237	0.12	664474	keystroke_d	d	n/a
332.342	0.105	664684	keystroke_Key.space	Key.space	n/a
332.987	0.06	665974	keystroke_r	r	n/a
333.122	0.09	666244	keystroke_e	e	n/a
333.812	0.06	667624	keystroke_v	v	n/a
333.962	0.09	667924	keystroke_i	i	n/a
335.388	0.089	670776	keystroke_e	e	n/a
335.522	0.15	671044	keystroke_w	w	n/a
337.202	0.075	674404	keystroke_e	e	n/a
337.367	0.105	674734	keystroke_d	d	n/a
338.087	0.06	676174	keystroke_Key.enter	Key.enter	n/a
338.154	10.39	676308	prompt	n/a	serve selected bottles interfaces\n
338.958	0.059	677916	keystroke_s	s	n/a
339.138	0.045	678276	keystroke_e	e	n/a
339.302	0.075	678604	keystroke_r	r	n/a
339.452	0.061	678904	keystroke_v	v	n/a
339.513	0.12	679026	keystroke_e	e	n/a
339.587	0.12	679174	keystroke_Key.space	Key.space	n/a
340.277	0.09	680554	keystroke_s	s	n/a
340.458	0.059	680916	keystroke_e	e	n/a
340.697	0.03	681394	keystroke_c	c	n/a
341.012	0.09	682024	keystroke_Key.backspace	Key.backspace	n/a
341.208	0.105	682416	keystroke_;	;	n/a
341.297	0.075	682594	keystroke_e	e	n/a
341.522	0.105	683044	keystroke_c	c	n/a
341.808	0.075	683616	keystroke_Key.backspace	Key.backspace	n/a
341.958	0.089	683916	keystroke_Key.backspace	Key.backspace	n/a
342.212	0.075	684424	keystroke_Key.backspace	Key.backspace	n/a
342.618	0.09	685236	keystroke_l	l	n/a
342.693	0.075	685386	keystroke_e	e	n/a
342.947	0.075	685894	keystroke_c	c	n/a
343.083	0.105	686166	keystroke_t	t	n/a
343.172	0.075	686344	keystroke_e	e	n/a
343.352	0.136	686704	keystroke_d	d	n/a
343.458	0.134	686916	keystroke_Key.space	Key.space	n/a
344.223	0.06	688446	keystroke_b	b	n/a
344.388	0.09	688776	keystroke_o	o	n/a
344.522	0.076	689044	keystroke_t	t	n/a
344.672	0.091	689344	keystroke_t	t	n/a
344.808	0.09	689616	keystroke_l	l	n/a
344.928	0.089	689856	keystroke_e	e	n/a
345.167	0.136	690334	keystroke_s	s	n/a
345.288	0.09	690576	keystroke_Key.space	Key.space	n/a
346.097	0.061	692194	keystroke_i	i	n/a
346.248	0.075	692496	keystroke_n	n	n/a
346.488	0.06	692976	keystroke_t	t	n/a
346.563	0.045	693126	keystroke_e	e	n/a
346.698	0.105	693396	keystroke_r	r	n/a
347.463	0.075	694926	keystroke_f	f	n/a
347.598	0.135	695196	keystroke_a	a	n/a
347.748	0.075	695496	keystroke_c	c	n/a
347.838	0.09	695676	keystroke_e	e	n/a
348.033	0.09	696066	keystroke_s	s	n/a
348.468	0.075	696936	keystroke_Key.enter	Key.enter	n/a
348.5475	10.4965	697095	prompt	n/a	technology pure gadgets head\n
349.6975	0.06	699395	keystroke_t	t	n/a
349.7425	0.06	699485	keystroke_e	e	n/a
349.9375	0.09	699875	keystroke_c	c	n/a
350.0875	0.075	700175	keystroke_h	h	n/a
351.1975	0.06	702395	keystroke_n	n	n/a
351.3475	0.075	702695	keystroke_o	o	n/a
351.5275	0.09	703055	keystroke_l	l	n/a
351.7075	0.075	703415	keystroke_o	o	n/a
352.2775	0.06	704555	keystroke_g	g	n/a
352.3975	0.075	704795	keystroke_y	y	n/a
352.8475	0.105	705695	keystroke_Key.space	Key.space	n/a
353.0425	0.09	706085	keystroke_p	p	n/a
353.2825	0.09	706565	keystroke_u	u	n/a
353.3875	0.075	706775	keystroke_r	r	n/a
353.5375	0.135	707075	keystroke_e	e	n/a
353.6575	0.12	707315	keystroke_Key.space	Key.space	n/a
355.1275	0.06	710255	keystroke_g	g	n/a
355.2325	0.105	710465	keystroke_a	a	n/a
355.5175	0.06	711035	keystroke_d	d	n/a
355.7875	0.06	711575	keystroke_g	g	n/a
355.8625	0.075	711725	keystroke_e	e	n/a
356.0125	0.075	712025	keystroke_t	t	n/a
356.1775	0.075	712355	keystroke_d	d	n/a
357.1675	0.075	714335	keystroke_Key.backspace	Key.backspace	n/a
357.2125	0.15	714425	keystroke_s	s	n/a
357.3475	0.135	714695	keystroke_Key.space	Key.space	n/a
357.9175	0.075	715835	keystroke_h	h	n/a
357.9625	0.075	715925	keystroke_e	e	n/a
358.1875	0.075	716375	keystroke_a	a	n/a
358.3225	0.09	716645	keystroke_d	d	n/a
358.9825	0.06	717965	keystroke_Key.enter	Key.enter	n/a
359.047	13.7375	718094	prompt	n/a	fireplace encoding database parties\n
360.1975	0.075	720395	keystroke_f	f	n/a
360.3175	0.075	720635	keystroke_i	i	n/a
360.4375	0.045	720875	keystroke_r	r	n/a
360.5725	0.09	721145	keystroke_e	e	n/a
360.7825	0.09	721565	keystroke_p	p	n/a
360.9325	0.105	721865	keystroke_l	l	n/a
361.0525	0.105	722105	keystroke_a	a	n/a
361.3525	0.075	722705	keystroke_v	v	n/a
361.4425	0.135	722885	keystroke_e	e	n/a
361.5625	0.105	723125	keystroke_Key.space	Key.space	n/a
362.2525	0.075	724505	keystroke_Key.backspace	Key.backspace	n/a
362.4025	0.09	724805	keystroke_Key.backspace	Key.backspace	n/a
362.5675	0.12	725135	keystroke_Key.backspace	Key.backspace	n/a
362.6575	0.09	725315	keystroke_c	c	n/a
362.8825	0.12	725765	keystroke_e	e	n/a
362.9875	0.105	725975	keystroke_Key.space	Key.space	n/a
363.8425	0.12	727685	keystroke_e	e	n/a
363.9325	0.09	727865	keystroke_n	n	n/a
364.1875	0.09	728375	keystroke_c	c	n/a
365.2225	0.075	730445	keystroke_o	o	n/a
365.6575	0.09	731315	keystroke_f	f	n/a
365.7925	0.075	731585	keystroke_i	i	n/a
365.9575	0.105	731915	keystroke_n	n	n/a
366.4825	0.09	732965	keystroke_Key.backspace	Key.backspace	n/a
366.6175	0.12	733235	keystroke_Key.backspace	Key.backspace	n/a
367.0375	0.09	734075	keystroke_Key.backspace	Key.backspace	n/a
367.5175	0.06	735035	keystroke_d	d	n/a
367.6225	0.09	735245	keystroke_i	i	n/a
367.8475	0.09	735695	keystroke_n	n	n/a
367.9825	0.075	735965	keystroke_g	g	n/a
368.6575	0.12	737315	keystroke_Key.space	Key.space	n/a
369.1375	0.105	738275	keystroke_d	d	n/a
369.2275	0.105	738455	keystroke_a	a	n/a
369.3475	0.075	738695	keystroke_t	t	n/a
369.4375	0.105	738875	keystroke_a	a	n/a
369.6775	0.09	739355	keystroke_b	b	n/a
369.7525	0.15	739505	keystroke_a	a	n/a
370.1575	0.075	740315	keystroke_s	s	n/a
370.4275	0.09	740855	keystroke_e	e	n/a
370.5775	0.12	741155	keystroke_Key.space	Key.space	n/a
370.8625	0.105	741725	keystroke_p	p	n/a
370.9525	0.135	741905	keystroke_a	a	n/a
371.4175	0.075	742835	keystroke_r	r	n/a
371.5825	0.09	743165	keystroke_t	t	n/a
371.6875	0.075	743375	keystroke_i	i	n/a
371.7775	0.09	743555	keystroke_e	e	n/a
371.9725	0.06	743945	keystroke_s	s	n/a
372.7075	0.075	745415	keystroke_Key.enter	Key.enter	n/a
372.788	10.5295	745576	prompt	n/a	i'll seeking planets covering\n
373.7275	0.045	747455	keystroke_i	i	n/a
374.312	0.075	748624	keystroke_'	'	n/a
374.537	0.045	749074	keystroke_l	l	n/a
374.657	0.09	749314	keystroke_l	l	n/a
374.762	0.09	749524	keystroke_Key.space	Key.space	n/a
374.912	0.09	749824	keystroke_s	s	n/a
375.137	0.045	750274	keystroke_e	e	n/a
375.242	0.105	750484	keystroke_e	e	n/a
375.377	0.09	750754	keystroke_k	k	n/a
375.692	0.075	751384	keystroke_i	i	n/a
375.962	0.105	751924	keystroke_n	n	n/a
376.803	0.074	753606	keystroke_g	g	n/a
376.892	0.12	753784	keystroke_Key.space	Key.space	n/a
377.462	0.091	754924	keystroke_p	p	n/a
377.657	0.076	755314	keystroke_l	l	n/a
377.807	0.105	755614	keystroke_a	a	n/a
377.928	0.074	755856	keystroke_n	n	n/a
378.437	0.075	756874	keystroke_e	e	n/a
378.587	0.06	757174	keystroke_t	t	n/a
378.737	0.15	757474	keystroke_s	s	n/a
378.857	0.12	757714	keystroke_Key.space	Key.space	n/a
379.487	0.091	758974	keystroke_c	c	n/a
379.592	0.061	759184	keystroke_o	o	n/a
380.028	0.089	760056	keystroke_v	v	n/a
380.072	0.075	760144	keystroke_e	e	n/a
380.222	0.09	760444	keystroke_r	r	n/a
380.328	0.074	760656	keystroke_i	i	n/a
380.492	0.091	760984	keystroke_n	n	n/a
380.567	0.075	761134	keystroke_g	g	n/a
383.315	0.001	766630	keystroke_Key.enter	Key.enter	n/a
383.3225	8.9915	766645	prompt	n/a	land asian effect challenging\n
384.182	0.09	768364	keystroke_l	l	n/a
384.287	0.105	768574	keystroke_a	a	n/a
384.423	0.075	768846	keystroke_n	n	n/a
384.543	0.104	769086	keystroke_d	d	n/a
384.603	0.119	769206	keystroke_Key.space	Key.space	n/a
384.948	0.105	769896	keystroke_a	a	n/a
385.037	0.091	770074	keystroke_s	s	n/a
385.142	0.091	770284	keystroke_i	i	n/a
385.248	0.105	770496	keystroke_a	a	n/a
385.353	0.104	770706	keystroke_n	n	n/a
385.667	0.105	771334	keystroke_Key.space	Key.space	n/a
386.343	0.089	772686	keystroke_e	e	n/a
386.448	0.105	772896	keystroke_f	f	n/a
386.583	0.12	773166	keystroke_e	e	n/a
387.153	0.089	774306	keystroke_Key.backspace	Key.backspace	n/a
387.213	0.09	774426	keystroke_f	f	n/a
387.467	0.091	774934	keystroke_e	e	n/a
387.948	0.09	775896	keystroke_c	c	n/a
388.083	0.18	776166	keystroke_t	t	n/a
388.247	0.106	776494	keystroke_Key.space	Key.space	n/a
388.968	0.075	777936	keystroke_c	c	n/a
389.088	0.09	778176	keystroke_h	h	n/a
389.208	0.09	778416	keystroke_a	a	n/a
389.373	0.09	778746	keystroke_l	l	n/a
389.643	0.06	779286	keystroke_l	l	n/a
389.778	0.09	779556	keystroke_e	e	n/a
389.913	0.075	779826	keystroke_n	n	n/a
390.513	0.075	781026	keystroke_g	g	n/a
390.603	0.075	781206	keystroke_i	i	n/a
390.723	0.12	781446	keystroke_n	n	n/a
390.828	0.075	781656	keystroke_g	g	n/a
392.253	0.06	784506	keystroke_Key.enter	Key.enter	n/a
392.317	8.667	784634	prompt	n/a	soul mirrors crude admitted\n
393.288	0.075	786576	keystroke_s	s	n/a
393.378	0.09	786756	keystroke_o	o	n/a
393.558	0.105	787116	keystroke_u	u	n/a
393.813	0.06	787626	keystroke_l	l	n/a
393.888	0.105	787776	keystroke_Key.space	Key.space	n/a
394.008	0.09	788016	keystroke_m	m	n/a
394.188	0.075	788376	keystroke_i	i	n/a
394.278	0.06	788556	keystroke_r	r	n/a
394.413	0.09	788826	keystroke_r	r	n/a
394.533	0.09	789066	keystroke_o	o	n/a
394.698	0.15	789396	keystroke_s	s	n/a
394.818	0.105	789636	keystroke_Key.space	Key.space	n/a
395.4175	0.09	790835	keystroke_c	c	n/a
395.6875	0.06	791375	keystroke_r	r	n/a
395.7925	0.09	791585	keystroke_u	u	n/a
395.928	0.0895	791856	keystroke_d	d	n/a
396.1075	0.12	792215	keystroke_e	e	n/a
396.1975	0.105	792395	keystroke_Key.space	Key.space	n/a
396.5425	0.09	793085	keystroke_a	a	n/a
396.6625	0.105	793325	keystroke_m	m	n/a
396.9175	0.06	793835	keystroke_i	i	n/a
397.3375	0.045	794675	keystroke_t	t	n/a
397.5325	0.06	795065	keystroke_t	t	n/a
397.6375	0.075	795275	keystroke_e	e	n/a
397.8175	0.135	795635	keystroke_d	d	n/a
398.4625	0.06	796925	keystroke_Key.backspace	Key.backspace	n/a
398.5975	0.075	797195	keystroke_Key.backspace	Key.backspace	n/a
398.7325	0.09	797465	keystroke_Key.backspace	Key.backspace	n/a
398.8975	0.09	797795	keystroke_Key.backspace	Key.backspace	n/a
399.0925	0.09	798185	keystroke_Key.backspace	Key.backspace	n/a
399.3475	0.075	798695	keystroke_Key.backspace	Key.backspace	n/a
399.6025	0.075	799205	keystroke_d	d	n/a
399.9325	0.09	799865	keystroke_m	m	n/a
400.0975	0.075	800195	keystroke_i	i	n/a
400.3075	0.06	800615	keystroke_t	t	n/a
400.4275	0.105	800855	keystroke_t	t	n/a
400.5175	0.075	801035	keystroke_e	e	n/a
400.7125	0.075	801425	keystroke_d	d	n/a
400.9075	0.075	801815	keystroke_Key.enter	Key.enter	n/a
400.987	9.3875	801974	prompt	n/a	pipes snowboard fetish pound\n
401.7625	0.075	803525	keystroke_p	p	n/a
401.9425	0.09	803885	keystroke_i	i	n/a
402.1375	0.12	804275	keystroke_p	p	n/a
402.2125	0.075	804425	keystroke_e	e	n/a
402.3925	0.105	804785	keystroke_s	s	n/a
402.4825	0.12	804965	keystroke_Key.space	Key.space	n/a
402.9175	0.075	805835	keystroke_s	s	n/a
403.0975	0.075	806195	keystroke_n	n	n/a
403.2475	0.12	806495	keystroke_o	o	n/a
403.3975	0.075	806795	keystroke_w	w	n/a
403.9525	0.075	807905	keystroke_b	b	n/a
404.0875	0.105	808175	keystroke_o	o	n/a
404.8825	0.12	809765	keystroke_a	a	n/a
405.1375	0.105	810275	keystroke_r	r	n/a
405.3475	0.15	810695	keystroke_d	d	n/a
405.4525	0.105	810905	keystroke_Key.space	Key.space	n/a
406.4125	0.09	812825	keystroke_f	f	n/a
406.4875	0.075	812975	keystroke_e	e	n/a
406.5925	0.105	813185	keystroke_t	t	n/a
406.8325	0.09	813665	keystroke_i	i	n/a
406.9225	0.12	813845	keystroke_s	s	n/a
407.1325	0.105	814265	keystroke_h	h	n/a
407.3125	0.12	814625	keystroke_Key.space	Key.space	n/a
407.8675	0.105	815735	keystroke_p	p	n/a
408.0775	0.075	816155	keystroke_i	i	n/a
408.1975	0.105	816395	keystroke_r	r	n/a
408.3775	0.075	816755	keystroke_u	u	n/a
408.6025	0.09	817205	keystroke_Key.backspace	Key.backspace	n/a
408.7525	0.105	817505	keystroke_Key.backspace	Key.backspace	n/a
409.0075	0.075	818015	keystroke_Key.backspace	Key.backspace	n/a
409.2925	0.075	818585	keystroke_o	o	n/a
409.5025	0.06	819005	keystroke_u	u	n/a
409.6675	0.09	819335	keystroke_n	n	n/a
409.7725	0.09	819545	keystroke_d	d	n/a
410.3125	0.06	820625	keystroke_Key.enter	Key.enter	n/a
410.378	10.526	820756	prompt	n/a	zealand pages category blind\n
411.4675	0.075	822935	keystroke_z	z	n/a
411.7075	0.075	823415	keystroke_e	e	n/a
411.8725	0.09	823745	keystroke_a	a	n/a
411.9925	0.105	823985	keystroke_l	l	n/a
412.1425	0.105	824285	keystroke_a	a	n/a
412.2925	0.075	824585	keystroke_n	n	n/a
412.4125	0.06	824825	keystroke_d	d	n/a
412.4275	0.03	824855	keystroke_f	f	n/a
413.0875	0.09	826175	keystroke_Key.backspace	Key.backspace	n/a
413.3275	0.105	826655	keystroke_Key.space	Key.space	n/a
413.8225	0.075	827645	keystroke_p	p	n/a
413.9275	0.12	827855	keystroke_a	a	n/a
414.0925	0.075	828185	keystroke_g	g	n/a
414.1975	0.075	828395	keystroke_e	e	n/a
414.3775	0.12	828755	keystroke_s	s	n/a
414.4525	0.12	828905	keystroke_Key.space	Key.space	n/a
416.4475	0.075	832895	keystroke_c	c	n/a
416.4925	0.105	832985	keystroke_a	a	n/a
416.6725	0.105	833345	keystroke_t	t	n/a
417.2575	0.06	834515	keystroke_e	e	n/a
417.3625	0.075	834725	keystroke_g	g	n/a
417.6175	0.09	835235	keystroke_o	o	n/a
417.7675	0.09	835535	keystroke_r	r	n/a
417.9775	0.09	835955	keystroke_y	y	n/a
418.997	0.12	837994	keystroke_Key.space	Key.space	n/a
419.357	0.075	838714	keystroke_b	b	n/a
419.537	0.09	839074	keystroke_l	l	n/a
419.732	0.06	839464	keystroke_i	i	n/a
419.867	0.09	839734	keystroke_n	n	n/a
419.987	0.09	839974	keystroke_d	d	n/a
420.827	0.075	841654	keystroke_Key.enter	Key.enter	n/a
420.9075	6.9265	841815	prompt	n/a	frame plaza thinks constitution\n
421.712	0.061	843424	keystroke_f	f	n/a
421.832	0.091	843664	keystroke_r	r	n/a
421.952	0.105	843904	keystroke_a	a	n/a
422.162	0.09	844324	keystroke_m	m	n/a
422.312	0.105	844624	keystroke_e	e	n/a
422.387	0.105	844774	keystroke_Key.space	Key.space	n/a
422.717	0.09	845434	keystroke_p	p	n/a
422.882	0.105	845764	keystroke_l	l	n/a
422.973	0.104	845946	keystroke_a	a	n/a
423.212	0.12	846424	keystroke_z	z	n/a
423.452	0.165	846904	keystroke_a	a	n/a
423.602	0.135	847204	keystroke_Key.space	Key.space	n/a
423.902	0.09	847804	keystroke_t	t	n/a
424.007	0.075	848014	keystroke_h	h	n/a
424.127	0.105	848254	keystroke_i	i	n/a
424.337	0.075	848674	keystroke_n	n	n/a
424.487	0.075	848974	keystroke_k	k	n/a
424.592	0.135	849184	keystroke_s	s	n/a
424.682	0.135	849364	keystroke_Key.space	Key.space	n/a
425.507	0.075	851014	keystroke_c	c	n/a
425.598	0.044	851196	keystroke_o	o	n/a
425.732	0.106	851464	keystroke_n	n	n/a
425.823	0.104	851646	keystroke_s	s	n/a
426.123	0.059	852246	keystroke_t	t	n/a
426.273	0.089	852546	keystroke_i	i	n/a
426.408	0.06	852816	keystroke_t	t	n/a
426.513	0.074	853026	keystroke_u	u	n/a
426.617	0.06	853234	keystroke_t	t	n/a
426.798	0.089	853596	keystroke_i	i	n/a
426.932	0.091	853864	keystroke_o	o	n/a
427.127	0.075	854254	keystroke_n	n	n/a
427.787	0.045	855574	keystroke_Key.enter	Key.enter	n/a
427.837	14.0075	855674	prompt	n/a	leon signal childrens reset\n
428.553	0.089	857106	keystroke_l	l	n/a
428.657	0.075	857314	keystroke_e	e	n/a
428.807	0.076	857614	keystroke_i	i	n/a
429.002	0.091	858004	keystroke_n	n	n/a
429.273	0.089	858546	keystroke_Key.backspace	Key.backspace	n/a
429.423	0.134	858846	keystroke_Key.backspace	Key.backspace	n/a
429.573	0.089	859146	keystroke_p	p	n/a
429.828	0.074	859656	keystroke_n	n	n/a
429.932	0.105	859864	keystroke_Key.space	Key.space	n/a
430.157	0.075	860314	keystroke_Key.backspace	Key.backspace	n/a
430.307	0.091	860614	keystroke_Key.backspace	Key.backspace	n/a
430.548	0.075	861096	keystroke_Key.backspace	Key.backspace	n/a
430.998	0.075	861996	keystroke_o	o	n/a
431.193	0.105	862386	keystroke_n	n	n/a
431.267	0.09	862534	keystroke_Key.space	Key.space	n/a
431.403	0.089	862806	keystroke_s	s	n/a
431.507	0.091	863014	keystroke_i	i	n/a
431.823	0.06	863646	keystroke_g	g	n/a
432.003	0.09	864006	keystroke_n	n	n/a
432.108	0.09	864216	keystroke_a	a	n/a
432.213	0.09	864426	keystroke_l	l	n/a
432.348	0.089	864696	keystroke_Key.space	Key.space	n/a
432.723	0.09	865446	keystroke_c	c	n/a
432.843	0.075	865686	keystroke_h	h	n/a
432.978	0.09	865956	keystroke_i	i	n/a
433.203	0.09	866406	keystroke_l	l	n/a
433.533	0.075	867066	keystroke_d	d	n/a
433.683	0.075	867366	keystroke_r	r	n/a
433.803	0.075	867606	keystroke_e	e	n/a
433.983	0.075	867966	keystroke_n	n	n/a
434.133	0.03	868266	keystroke_e	e	n/a
434.733	0.09	869466	keystroke_Key.backspace	Key.backspace	n/a
434.793	0.09	869586	keystroke_s	s	n/a
434.958	0.135	869916	keystroke_Key.space	Key.space	n/a
435.363	0.06	870726	keystroke_r	r	n/a
435.528	0.075	871056	keystroke_e	e	n/a
435.723	0.09	871446	keystroke_s	s	n/a
435.828	0.105	871656	keystroke_t	t	n/a
435.978	0.06	871956	keystroke_e	e	n/a
436.683	0.06	873366	keystroke_Key.backspace	Key.backspace	n/a
440.0595	0.028	880119	keystroke_Key.backspace	Key.backspace	n/a
440.0875	0.075	880175	keystroke_e	e	n/a
440.6275	0.06	881255	keystroke_t	t	n/a
441.7825	0.06	883565	keystroke_Key.enter	Key.enter	n/a
441.8475	18.372	883695	prompt	n/a	hardcover strictly brighton classics\n
442.6975	0.075	885395	keystroke_h	h	n/a
442.8025	0.105	885605	keystroke_a	a	n/a
443.0425	0.075	886085	keystroke_r	r	n/a
443.1775	0.075	886355	keystroke_d	d	n/a
443.3875	0.09	886775	keystroke_c	c	n/a
443.4625	0.09	886925	keystroke_o	o	n/a
443.7325	0.075	887465	keystroke_v	v	n/a
443.8225	0.075	887645	keystroke_e	e	n/a
443.9725	0.15	887945	keystroke_r	r	n/a
444.0625	0.09	888125	keystroke_Key.space	Key.space	n/a
444.4075	0.09	888815	keystroke_s	s	n/a
444.9775	0.06	889955	keystroke_t	t	n/a
445.1125	0.105	890225	keystroke_r	r	n/a
445.5175	0.06	891035	keystroke_c	c	n/a
445.6375	0.075	891275	keystroke_i	i	n/a
446.0425	0.06	892085	keystroke_Key.backspace	Key.backspace	n/a
446.1925	0.09	892385	keystroke_Key.backspace	Key.backspace	n/a
446.4175	0.075	892835	keystroke_i	i	n/a
446.5675	0.12	893135	keystroke_c	c	n/a
446.8675	0.09	893735	keystroke_t	t	n/a
447.6025	0.075	895205	keystroke_l	l	n/a
448.3375	0.06	896675	keystroke_y	y	n/a
448.4575	0.09	896915	keystroke_Key.space	Key.space	n/a
449.1625	0.105	898325	keystroke_b	b	n/a
449.4925	0.075	898985	keystroke_r	r	n/a
449.6425	0.09	899285	keystroke_i	i	n/a
451.6975	0.15	903395	keystroke_g	g	n/a
451.8625	0.015	903725	keystroke_h	h	n/a
451.8925	0.045	903785	keystroke_t	t	n/a
451.9825	0.105	903965	keystroke_o	o	n/a
452.1625	0.09	904325	keystroke_n	n	n/a
452.3575	0.105	904715	keystroke_Key.space	Key.space	n/a
452.5975	0.075	905195	keystroke_c	c	n/a
452.6875	0.105	905375	keystroke_l	l	n/a
452.8525	0.12	905705	keystroke_a	a	n/a
453.0475	0.03	906095	keystroke_s	s	n/a
453.1825	0.12	906365	keystroke_s	s	n/a
453.4375	0.09	906875	keystroke_e	e	n/a
453.8725	0.075	907745	keystroke_Key.backspace	Key.backspace	n/a
454.0525	0.09	908105	keystroke_i	i	n/a
454.3525	0.09	908705	keystroke_c	c	n/a
454.593	0.135	909186	keystroke_s	s	n/a
454.773	0.075	909546	keystroke_Key.space	Key.space	n/a
459.3355	0.072	918671	keystroke_Key.backspace	Key.backspace	n/a
460.158	0.06	920316	keystroke_Key.enter	Key.enter	n/a
460.2225	8.937	920445	prompt	n/a	bathroom attached cuisine drain\n
461.043	0.075	922086	keystroke_b	b	n/a
461.403	0.09	922806	keystroke_a	a	n/a
461.508	0.075	923016	keystroke_t	t	n/a
462.108	0.09	924216	keystroke_h	h	n/a
462.408	0.075	924816	keystroke_r	r	n/a
462.528	0.075	925056	keystroke_o	o	n/a
462.678	0.075	925356	keystroke_o	o	n/a
462.828	0.105	925656	keystroke_m	m	n/a
462.978	0.09	925956	keystroke_Key.space	Key.space	n/a
463.443	0.105	926886	keystroke_a	a	n/a
463.683	0.06	927366	keystroke_t	t	n/a
463.818	0.09	927636	keystroke_t	t	n/a
463.923	0.105	927846	keystroke_a	a	n/a
464.238	0.075	928476	keystroke_c	c	n/a
464.328	0.09	928656	keystroke_h	h	n/a
464.463	0.075	928926	keystroke_e	e	n/a
464.658	0.12	929316	keystroke_d	d	n/a
464.748	0.105	929496	keystroke_Key.space	Key.space	n/a
465.048	0.075	930096	keystroke_c	c	n/a
465.153	0.105	930306	keystroke_o	o	n/a
466.128	0.105	932256	keystroke_Key.backspace	Key.backspace	n/a
466.383	0.075	932766	keystroke_u	u	n/a
466.548	0.075	933096	keystroke_i	i	n/a
466.668	0.0445	933336	keystroke_s	s	n/a
466.7275	0.075	933455	keystroke_i	i	n/a
466.8775	0.09	933755	keystroke_n	n	n/a
466.9525	0.12	933905	keystroke_e	e	n/a
467.0275	0.1055	934055	keystroke_Key.space	Key.space	n/a
467.8825	0.0755	935765	keystroke_d	d	n/a
468.0625	0.075	936125	keystroke_r	r	n/a
468.2275	0.105	936455	keystroke_a	a	n/a
468.3475	0.06	936695	keystroke_i	i	n/a
468.4675	0.105	936935	keystroke_n	n	n/a
469.083	0.0745	938166	keystroke_Key.enter	Key.enter	n/a
469.1625	10.227	938325	prompt	n/a	born higher buy administrators\n
469.9075	0.0905	939815	keystroke_b	b	n/a
470.1025	0.06	940205	keystroke_r	r	n/a
470.1775	0.075	940355	keystroke_o	o	n/a
470.3275	0.105	940655	keystroke_n	n	n/a
470.4475	0.105	940895	keystroke_Key.space	Key.space	n/a
470.8675	0.075	941735	keystroke_h	h	n/a
471.0325	0.09	942065	keystroke_i	i	n/a
471.7525	0.075	943505	keystroke_g	g	n/a
471.8875	0.06	943775	keystroke_h	h	n/a
472.0525	0.105	944105	keystroke_t	t	n/a
472.6075	0.105	945215	keystroke_Key.backspace	Key.backspace	n/a
472.6975	0.075	945395	keystroke_e	e	n/a
472.8775	0.165	945755	keystroke_r	r	n/a
473.0125	0.135	946025	keystroke_Key.space	Key.space	n/a
473.8225	0.075	947645	keystroke_b	b	n/a
473.9725	0.075	947945	keystroke_i	i	n/a
474.0175	0.015	948035	keystroke_u	u	n/a
474.1385	0.104	948277	keystroke_y	y	n/a
474.7225	0.075	949445	keystroke_Key.backspace	Key.backspace	n/a
474.9025	0.075	949805	keystroke_Key.backspace	Key.backspace	n/a
475.0825	0.09	950165	keystroke_Key.backspace	Key.backspace	n/a
475.4575	0.075	950915	keystroke_u	u	n/a
475.6075	0.12	951215	keystroke_y	y	n/a
475.7125	0.09	951425	keystroke_Key.space	Key.space	n/a
475.8625	0.105	951725	keystroke_a	a	n/a
476.4925	0.075	952985	keystroke_d	d	n/a
476.5825	0.075	953165	keystroke_m	m	n/a
476.7175	0.075	953435	keystroke_i	i	n/a
476.8675	0.105	953735	keystroke_n	n	n/a
477.0325	0.075	954065	keystroke_i	i	n/a
477.1675	0.105	954335	keystroke_s	s	n/a
477.4075	0.09	954815	keystroke_t	t	n/a
477.6775	0.075	955355	keystroke_r	r	n/a
477.7825	0.09	955565	keystroke_a	a	n/a
478.1275	0.06	956255	keystroke_t	t	n/a
478.2175	0.09	956435	keystroke_o	o	n/a
478.3375	0.105	956675	keystroke_r	r	n/a
478.8325	0.09	957665	keystroke_s	s	n/a
479.3275	0.06	958655	keystroke_Key.enter	Key.enter	n/a
479.393	9.0565	958786	prompt	n/a	lose modification township nepal\n
480.6175	0.075	961235	keystroke_l	l	n/a
480.8575	0.015	961715	keystroke_o	o	n/a
480.8885	0.075	961777	keystroke_s	s	n/a
481.0825	0.165	962165	keystroke_e	e	n/a
481.2025	0.12	962405	keystroke_Key.space	Key.space	n/a
481.4575	0.106	962915	keystroke_m	m	n/a
481.6825	0.075	963365	keystroke_o	o	n/a
482.3125	0.06	964625	keystroke_f	f	n/a
482.5975	0.09	965195	keystroke_Key.backspace	Key.backspace	n/a
482.7025	0.075	965405	keystroke_d	d	n/a
482.7925	0.121	965585	keystroke_i	i	n/a
483.3335	0.074	966667	keystroke_f	f	n/a
483.4385	0.089	966877	keystroke_i	i	n/a
483.5285	0.074	967057	keystroke_c	c	n/a
483.6775	0.105	967355	keystroke_a	a	n/a
483.9475	0.06	967895	keystroke_t	t	n/a
484.0225	0.091	968045	keystroke_i	i	n/a
484.1575	0.106	968315	keystroke_o	o	n/a
484.3225	0.105	968645	keystroke_n	n	n/a
484.3825	0.09	968765	keystroke_Key.space	Key.space	n/a
484.9385	0.059	969877	keystroke_t	t	n/a
485.0425	0.075	970085	keystroke_o	o	n/a
485.2075	0.075	970415	keystroke_w	w	n/a
485.3435	0.105	970687	keystroke_n	n	n/a
485.8075	0.09	971615	keystroke_s	s	n/a
485.9135	0.089	971827	keystroke_h	h	n/a
486.0635	0.104	972127	keystroke_i	i	n/a
486.3175	0.06	972635	keystroke_p	p	n/a
486.4525	0.12	972905	keystroke_Key.space	Key.space	n/a
486.7675	0.121	973535	keystroke_n	n	n/a
486.8725	0.046	973745	keystroke_e	e	n/a
487.0385	0.075	974077	keystroke_l	l	n/a
487.3075	0.075	974615	keystroke_Key.backspace	Key.backspace	n/a
487.4725	0.105	974945	keystroke_p	p	n/a
487.5925	0.091	975185	keystroke_a	a	n/a
487.6985	0.09	975397	keystroke_l	l	n/a
488.3885	0.059	976777	keystroke_Key.enter	Key.enter	n/a
488.4535	12.9705	976907	prompt	n/a	archives shannon poet enhancement\n
489.2735	0.074	978547	keystroke_a	a	n/a
489.4835	0.075	978967	keystroke_r	r	n/a
489.6935	0.089	979387	keystroke_c	c	n/a
489.7535	0.074	979507	keystroke_h	h	n/a
489.8885	0.089	979777	keystroke_i	i	n/a
490.1135	0.089	980227	keystroke_v	v	n/a
490.2035	0.075	980407	keystroke_e	e	n/a
490.3975	0.105	980795	keystroke_s	s	n/a
490.4885	0.104	980977	keystroke_Key.space	Key.space	n/a
490.6985	0.105	981397	keystroke_s	s	n/a
490.863	0.09	981726	keystroke_h	h	n/a
490.968	0.105	981936	keystroke_a	a	n/a
491.103	0.09	982206	keystroke_n	n	n/a
491.568	0.075	983136	keystroke_n	n	n/a
491.718	0.105	983436	keystroke_o	o	n/a
491.853	0.09	983706	keystroke_s	s	n/a
492.213	0.06	984426	keystroke_Key.backspace	Key.backspace	n/a
492.453	0.105	984906	keystroke_n	n	n/a
492.573	0.105	985146	keystroke_Key.space	Key.space	n/a
493.053	0.09	986106	keystroke_p	p	n/a
493.263	0.075	986526	keystroke_o	o	n/a
493.383	0.0895	986766	keystroke_e	e	n/a
494.5375	0.135	989075	keystroke_t	t	n/a
495.9625	0.135	991925	keystroke_Key.space	Key.space	n/a
496.5775	0.045	993155	keystroke_e	e	n/a
496.6525	0.105	993305	keystroke_n	n	n/a
496.8325	0.075	993665	keystroke_h	h	n/a
496.9225	0.12	993845	keystroke_a	a	n/a
497.0725	0.09	994145	keystroke_n	n	n/a
498.1075	0.075	996215	keystroke_c	c	n/a
498.1675	0.09	996335	keystroke_e	e	n/a
498.4075	0.075	996815	keystroke_m	m	n/a
498.4675	0.09	996935	keystroke_e	e	n/a
498.6475	0.06	997295	keystroke_n	n	n/a
498.7225	0.075	997445	keystroke_t	t	n/a
501.4105	0.012	1002821	keystroke_Key.enter	Key.enter	n/a
501.429	8.1405	1002858	prompt	n/a	infant prospects affecting dried\n
502.2625	0.06	1004525	keystroke_i	i	n/a
502.3975	0.105	1004795	keystroke_n	n	n/a
502.6525	0.061	1005305	keystroke_f	f	n/a
502.7725	0.09	1005545	keystroke_a	a	n/a
502.8635	0.089	1005727	keystroke_n	n	n/a
503.1025	0.045	1006205	keystroke_t	t	n/a
503.2225	0.105	1006445	keystroke_Key.space	Key.space	n/a
503.8675	0.091	1007735	keystroke_p	p	n/a
503.9875	0.075	1007975	keystroke_r	r	n/a
504.0775	0.09	1008155	keystroke_o	o	n/a
504.4075	0.076	1008815	keystroke_s	s	n/a
504.5585	0.089	1009117	keystroke_p	p	n/a
504.7225	0.075	1009445	keystroke_e	e	n/a
504.9625	0.075	1009925	keystroke_c	c	n/a
505.1875	0.075	1010375	keystroke_t	t	n/a
505.3085	0.134	1010617	keystroke_s	s	n/a
506.118	0.075	1012236	keystroke_Key.space	Key.space	n/a
506.313	0.105	1012626	keystroke_a	a	n/a
506.538	0.06	1013076	keystroke_f	f	n/a
506.688	0.09	1013376	keystroke_f	f	n/a
506.808	0.075	1013616	keystroke_e	e	n/a
506.898	0.09	1013796	keystroke_c	c	n/a
507.048	0.09	1014096	keystroke_t	t	n/a
507.303	0.075	1014606	keystroke_i	i	n/a
507.498	0.09	1014996	keystroke_n	n	n/a
507.603	0.075	1015206	keystroke_g	g	n/a
507.798	0.12	1015596	keystroke_Key.space	Key.space	n/a
508.473	0.09	1016946	keystroke_d	d	n/a
508.668	0.06	1017336	keystroke_r	r	n/a
508.758	0.075	1017516	keystroke_i	i	n/a
508.833	0.09	1017666	keystroke_e	e	n/a
509.013	0.075	1018026	keystroke_d	d	n/a
509.523	0.045	1019046	keystroke_Key.enter	Key.enter	n/a
509.572	9.388	1019144	prompt	n/a	alabama static warning serbia\n
510.483	0.105	1020966	keystroke_a	a	n/a
510.753	0.075	1021506	keystroke_l	l	n/a
510.858	0.105	1021716	keystroke_a	a	n/a
511.068	0.075	1022136	keystroke_b	b	n/a
511.248	0.09	1022496	keystroke_a	a	n/a
511.473	0.09	1022946	keystroke_m	m	n/a
511.623	0.09	1023246	keystroke_a	a	n/a
511.818	0.12	1023636	keystroke_Key.space	Key.space	n/a
512.028	0.12	1024056	keystroke_s	s	n/a
512.673	0.09	1025346	keystroke_t	t	n/a
512.748	0.075	1025496	keystroke_a	a	n/a
512.838	0.075	1025676	keystroke_t	t	n/a
513.033	0.09	1026066	keystroke_i	i	n/a
513.873	0.105	1027746	keystroke_c	c	n/a
513.993	0.105	1027986	keystroke_Key.space	Key.space	n/a
514.653	0.075	1029306	keystroke_w	w	n/a
514.863	0.12	1029726	keystroke_a	a	n/a
515.148	0.075	1030296	keystroke_r	r	n/a
515.238	0.09	1030476	keystroke_n	n	n/a
515.403	0.075	1030806	keystroke_i	i	n/a
515.538	0.12	1031076	keystroke_n	n	n/a
515.718	0.105	1031436	keystroke_g	g	n/a
515.988	0.09	1031976	keystroke_Key.space	Key.space	n/a
516.783	0.075	1033566	keystroke_s	s	n/a
516.978	0.06	1033956	keystroke_e	e	n/a
517.143	0.075	1034286	keystroke_r	r	n/a
517.653	0.015	1035306	keystroke_b	b	n/a
517.728	0.075	1035456	keystroke_i	i	n/a
517.863	0.12	1035726	keystroke_a	a	n/a
518.8975	0.0605	1037795	keystroke_Key.enter	Key.enter	n/a
518.963	11.4715	1037926	prompt	n/a	christians quoted you indicating\n
519.8275	0.075	1039655	keystroke_c	c	n/a
519.9175	0.105	1039835	keystroke_h	h	n/a
520.0975	0.075	1040195	keystroke_r	r	n/a
520.3225	0.09	1040645	keystroke_i	i	n/a
520.5025	0.09	1041005	keystroke_s	s	n/a
520.8625	0.105	1041725	keystroke_t	t	n/a
521.1775	0.09	1042355	keystroke_i	i	n/a
521.8075	0.09	1043615	keystroke_a	a	n/a
521.9125	0.075	1043825	keystroke_n	n	n/a
522.0335	0.134	1044067	keystroke_s	s	n/a
522.1525	0.105	1044305	keystroke_Key.space	Key.space	n/a
522.8875	0.06	1045775	keystroke_q	q	n/a
522.9175	0.091	1045835	keystroke_u	u	n/a
523.1125	0.03	1046225	keystroke_i	i	n/a
523.5025	0.09	1047005	keystroke_Key.backspace	Key.backspace	n/a
523.6525	0.105	1047305	keystroke_o	o	n/a
524.2375	0.09	1048475	keystroke_t	t	n/a
524.2975	0.075	1048595	keystroke_e	e	n/a
524.5085	0.089	1049017	keystroke_d	d	n/a
524.5825	0.12	1049165	keystroke_Key.space	Key.space	n/a
525.3025	0.075	1050605	keystroke_y	y	n/a
525.4825	0.09	1050965	keystroke_o	o	n/a
525.6775	0.105	1051355	keystroke_u	u	n/a
525.8725	0.12	1051745	keystroke_Key.space	Key.space	n/a
526.3375	0.06	1052675	keystroke_i	i	n/a
526.518	0.105	1053036	keystroke_n	n	n/a
527.103	0.09	1054206	keystroke_d	d	n/a
527.178	0.075	1054356	keystroke_i	i	n/a
528.123	0.09	1056246	keystroke_c	c	n/a
528.243	0.105	1056486	keystroke_a	a	n/a
528.333	0.075	1056666	keystroke_t	t	n/a
528.588	0.075	1057176	keystroke_i	i	n/a
528.783	0.09	1057566	keystroke_n	n	n/a
529.098	0.045	1058196	keystroke_g	g	n/a
530.358	0.075	1060716	keystroke_Key.enter	Key.enter	n/a
530.438	8.067	1060876	prompt	n/a	message driving edges wrapping\n
531.288	0.075	1062576	keystroke_m	m	n/a
531.333	0.075	1062666	keystroke_e	e	n/a
531.528	0.06	1063056	keystroke_s	s	n/a
531.663	0.075	1063326	keystroke_s	s	n/a
531.918	0.105	1063836	keystroke_a	a	n/a
532.098	0.09	1064196	keystroke_g	g	n/a
532.203	0.12	1064406	keystroke_e	e	n/a
532.308	0.105	1064616	keystroke_Key.space	Key.space	n/a
532.938	0.03	1065876	keystroke_d	d	n/a
533.073	0.075	1066146	keystroke_r	r	n/a
533.208	0.075	1066416	keystroke_i	i	n/a
533.613	0.075	1067226	keystroke_v	v	n/a
533.703	0.075	1067406	keystroke_i	i	n/a
533.854	0.119	1067708	keystroke_n	n	n/a
533.988	0.075	1067976	keystroke_g	g	n/a
534.783	0.09	1069566	keystroke_Key.space	Key.space	n/a
535.008	0.06	1070016	keystroke_e	e	n/a
535.188	0.09	1070376	keystroke_d	d	n/a
535.338	0.09	1070676	keystroke_g	g	n/a
535.443	0.075	1070886	keystroke_e	e	n/a
535.638	0.135	1071276	keystroke_s	s	n/a
535.788	0.09	1071576	keystroke_Key.space	Key.space	n/a
536.298	0.075	1072596	keystroke_w	w	n/a
536.733	0.045	1073466	keystroke_r	r	n/a
536.943	0.09	1073886	keystroke_a	a	n/a
537.093	0.075	1074186	keystroke_p	p	n/a
537.258	0.045	1074516	keystroke_p	p	n/a
537.453	0.06	1074906	keystroke_i	i	n/a
537.633	0.09	1075266	keystroke_n	n	n/a
537.708	0.09	1075416	keystroke_g	g	n/a
538.428	0.075	1076856	keystroke_Key.enter	Key.enter	n/a
538.5085	8.036	1077017	prompt	n/a	designs fighter meets gonna\n
539.253	0.06	1078506	keystroke_d	d	n/a
539.418	0.06	1078836	keystroke_e	e	n/a
539.613	0.075	1079226	keystroke_s	s	n/a
539.718	0.075	1079436	keystroke_i	i	n/a
540.003	0.06	1080006	keystroke_g	g	n/a
540.108	0.09	1080216	keystroke_n	n	n/a
540.318	0.135	1080636	keystroke_s	s	n/a
540.438	0.105	1080876	keystroke_Key.space	Key.space	n/a
541.038	0.075	1082076	keystroke_f	f	n/a
541.143	0.075	1082286	keystroke_i	i	n/a
541.383	0.075	1082766	keystroke_g	g	n/a
542.178	0.075	1084356	keystroke_h	h	n/a
542.404	0.059	1084808	keystroke_t	t	n/a
542.643	0.06	1085286	keystroke_e	e	n/a
542.808	0.1645	1085616	keystroke_r	r	n/a
542.9275	0.105	1085855	keystroke_Key.space	Key.space	n/a
543.4525	0.09	1086905	keystroke_m	m	n/a
543.4975	0.06	1086995	keystroke_e	e	n/a
543.6475	0.09	1087295	keystroke_e	e	n/a
543.8725	0.09	1087745	keystroke_t	t	n/a
543.9775	0.12	1087955	keystroke_s	s	n/a
544.0825	0.105	1088165	keystroke_Key.space	Key.space	n/a
544.5025	0.076	1089005	keystroke_g	g	n/a
544.6975	0.09	1089395	keystroke_o	o	n/a
544.8925	0.06	1089785	keystroke_n	n	n/a
545.0425	0.09	1090085	keystroke_n	n	n/a
545.1475	0.12	1090295	keystroke_a	a	n/a
546.4675	0.075	1092935	keystroke_Key.enter	Key.enter	n/a
546.5475	9.432	1093095	prompt	n/a	whole nowhere conventions tablets\n
547.5475	0.06	1095095	keystroke_w	w	n/a
547.6225	0.075	1095245	keystroke_h	h	n/a
547.7875	0.075	1095575	keystroke_o	o	n/a
547.9975	0.06	1095995	keystroke_l	l	n/a
548.0875	0.105	1096175	keystroke_e	e	n/a
548.2075	0.15	1096415	keystroke_Key.space	Key.space	n/a
548.6725	0.075	1097345	keystroke_n	n	n/a
548.8675	0.075	1097735	keystroke_o	o	n/a
548.9875	0.045	1097975	keystroke_w	w	n/a
550.1725	0.075	1100345	keystroke_h	h	n/a
550.2325	0.075	1100465	keystroke_e	e	n/a
550.4125	0.075	1100825	keystroke_r	r	n/a
550.5625	0.135	1101125	keystroke_e	e	n/a
550.6525	0.12	1101305	keystroke_Key.space	Key.space	n/a
551.2535	0.075	1102507	keystroke_c	c	n/a
551.3425	0.075	1102685	keystroke_o	o	n/a
551.4925	0.105	1102985	keystroke_n	n	n/a
551.7475	0.075	1103495	keystroke_v	v	n/a
551.8075	0.075	1103615	keystroke_e	e	n/a
551.9875	0.091	1103975	keystroke_n	n	n/a
552.9475	0.075	1105895	keystroke_t	t	n/a
553.0535	0.075	1106107	keystroke_i	i	n/a
553.2325	0.076	1106465	keystroke_o	o	n/a
553.4125	0.091	1106825	keystroke_n	n	n/a
553.5175	0.12	1107035	keystroke_s	s	n/a
553.6075	0.105	1107215	keystroke_Key.space	Key.space	n/a
554.4035	0.075	1108807	keystroke_t	t	n/a
554.4925	0.106	1108985	keystroke_a	a	n/a
554.6125	0.091	1109225	keystroke_b	b	n/a
554.8225	0.09	1109645	keystroke_l	l	n/a
554.9135	0.09	1109827	keystroke_e	e	n/a
555.1235	0.074	1110247	keystroke_t	t	n/a
555.2425	0.121	1110485	keystroke_s	s	n/a
555.9175	0.061	1111835	keystroke_Key.enter	Key.enter	n/a
555.983	10.737	1111966	prompt	n/a	internship instant nevada willow\n
556.803	0.045	1113606	keystroke_i	i	n/a
556.938	0.09	1113876	keystroke_n	n	n/a
557.178	0.075	1114356	keystroke_t	t	n/a
557.268	0.075	1114536	keystroke_e	e	n/a
557.448	0.075	1114896	keystroke_r	r	n/a
557.583	0.105	1115166	keystroke_n	n	n/a
558.198	0.075	1116396	keystroke_s	s	n/a
558.303	0.075	1116606	keystroke_h	h	n/a
558.438	0.09	1116876	keystroke_i	i	n/a
558.678	0.045	1117356	keystroke_p	p	n/a
560.103	0.09	1120206	keystroke_Key.space	Key.space	n/a
560.208	0.06	1120416	keystroke_i	i	n/a
560.358	0.105	1120716	keystroke_n	n	n/a
560.433	0.12	1120866	keystroke_s	s	n/a
560.658	0.06	1121316	keystroke_y	y	n/a
560.763	0.12	1121526	keystroke_a	a	n/a
561.108	0.06	1122216	keystroke_Key.backspace	Key.backspace	n/a
561.243	0.135	1122486	keystroke_Key.backspace	Key.backspace	n/a
561.783	0.045	1123566	keystroke_t	t	n/a
561.858	0.105	1123716	keystroke_a	a	n/a
561.993	0.06	1123986	keystroke_n	n	n/a
562.233	0.075	1124466	keystroke_t	t	n/a
562.908	0.105	1125816	keystroke_Key.space	Key.space	n/a
563.193	0.075	1126386	keystroke_n	n	n/a
563.283	0.06	1126566	keystroke_e	e	n/a
563.433	0.075	1126866	keystroke_v	v	n/a
563.538	0.12	1127076	keystroke_a	a	n/a
563.688	0.105	1127376	keystroke_d	d	n/a
563.808	0.165	1127616	keystroke_a	a	n/a
563.958	0.12	1127916	keystroke_Key.space	Key.space	n/a
564.453	0.09	1128906	keystroke_w	w	n/a
564.528	0.075	1129056	keystroke_i	i	n/a
564.723	0.075	1129446	keystroke_l	l	n/a
564.873	0.0745	1129746	keystroke_l	l	n/a
565.0525	0.06	1130105	keystroke_o	o	n/a
565.9825	0.075	1131965	keystroke_w	w	n/a
566.6575	0.06	1133315	keystroke_Key.enter	Key.enter	n/a
566.723	10.8865	1133446	prompt	n/a	contributing mounted hotel battery\n
567.6325	0.06	1135265	keystroke_c	c	n/a
567.7075	0.09	1135415	keystroke_o	o	n/a
567.9175	0.09	1135835	keystroke_n	n	n/a
568.0675	0.075	1136135	keystroke_t	t	n/a
568.2325	0.075	1136465	keystroke_r	r	n/a
568.3375	0.075	1136675	keystroke_i	i	n/a
568.5325	0.09	1137065	keystroke_b	b	n/a
568.8625	0.06	1137725	keystroke_t	t	n/a
569.0275	0.06	1138055	keystroke_i	i	n/a
569.2825	0.06	1138565	keystroke_Key.backspace	Key.backspace	n/a
569.4325	0.105	1138865	keystroke_Key.backspace	Key.backspace	n/a
570.4825	0.075	1140965	keystroke_u	u	n/a
570.5875	0.075	1141175	keystroke_t	t	n/a
570.6925	0.045	1141385	keystroke_i	i	n/a
570.8275	0.09	1141655	keystroke_n	n	n/a
571.0075	0.12	1142015	keystroke_g	g	n/a
571.2025	0.105	1142405	keystroke_Key.space	Key.space	n/a
571.9375	0.075	1143875	keystroke_m	m	n/a
572.0735	0.089	1144147	keystroke_o	o	n/a
572.2825	0.075	1144565	keystroke_u	u	n/a
572.4775	0.12	1144955	keystroke_n	n	n/a
572.7485	0.074	1145497	keystroke_t	t	n/a
572.8375	0.06	1145675	keystroke_e	e	n/a
573.0325	0.105	1146065	keystroke_d	d	n/a
573.1225	0.12	1146245	keystroke_Key.space	Key.space	n/a
573.2875	0.105	1146575	keystroke_h	h	n/a
573.4975	0.09	1146995	keystroke_o	o	n/a
573.6775	0.06	1147355	keystroke_t	t	n/a
573.8275	0.075	1147655	keystroke_l	l	n/a
574.4425	0.09	1148885	keystroke_Key.backspace	Key.backspace	n/a
574.5175	0.106	1149035	keystroke_e	e	n/a
574.6525	0.09	1149305	keystroke_l	l	n/a
574.8025	0.12	1149605	keystroke_Key.space	Key.space	n/a
575.5825	0.091	1151165	keystroke_b	b	n/a
575.6575	0.12	1151315	keystroke_a	a	n/a
575.8235	0.075	1151647	keystroke_t	t	n/a
575.9735	0.089	1151947	keystroke_t	t	n/a
576.0775	0.075	1152155	keystroke_e	e	n/a
576.2575	0.075	1152515	keystroke_r	r	n/a
576.4825	0.075	1152965	keystroke_y	y	n/a
577.5475	0.06	1155095	keystroke_Key.enter	Key.enter	n/a
577.6125	7.392	1155225	prompt	n/a	shaft forbidden gotta bond\n
578.5235	0.089	1157047	keystroke_s	s	n/a
578.9735	0.0885	1157947	keystroke_h	h	n/a
579.077	0.121	1158154	keystroke_a	a	n/a
579.407	0.091	1158814	keystroke_f	f	n/a
579.557	0.075	1159114	keystroke_t	t	n/a
579.887	0.12	1159774	keystroke_Key.space	Key.space	n/a
580.487	0.061	1160974	keystroke_f	f	n/a
580.577	0.076	1161154	keystroke_o	o	n/a
580.712	0.061	1161424	keystroke_r	r	n/a
580.848	0.104	1161696	keystroke_b	b	n/a
581.057	0.076	1162114	keystroke_i	i	n/a
581.327	0.075	1162654	keystroke_d	d	n/a
581.973	0.075	1163946	keystroke_d	d	n/a
582.152	0.076	1164304	keystroke_e	e	n/a
582.243	0.09	1164486	keystroke_n	n	n/a
582.362	0.105	1164724	keystroke_Key.space	Key.space	n/a
582.707	0.105	1165414	keystroke_g	g	n/a
582.843	0.09	1165686	keystroke_o	o	n/a
583.428	0.06	1166856	keystroke_t	t	n/a
583.563	0.089	1167126	keystroke_t	t	n/a
583.653	0.105	1167306	keystroke_a	a	n/a
583.742	0.12	1167484	keystroke_Key.space	Key.space	n/a
584.253	0.075	1168506	keystroke_b	b	n/a
584.403	0.12	1168806	keystroke_o	o	n/a
584.553	0.105	1169106	keystroke_n	n	n/a
584.643	0.075	1169286	keystroke_d	d	n/a
584.958	0.044	1169916	keystroke_Key.enter	Key.enter	n/a
585.0075	11.517	1170015	prompt	n/a	reynolds door lancaster transaction\n
586.278	0.09	1172556	keystroke_r	r	n/a
586.383	0.06	1172766	keystroke_e	e	n/a
586.533	0.075	1173066	keystroke_y	y	n/a
586.743	0.075	1173486	keystroke_n	n	n/a
586.908	0.06	1173816	keystroke_o	o	n/a
587.073	0.09	1174146	keystroke_l	l	n/a
587.178	0.075	1174356	keystroke_d	d	n/a
587.388	0.15	1174776	keystroke_s	s	n/a
587.508	0.12	1175016	keystroke_Key.space	Key.space	n/a
588.018	0.075	1176036	keystroke_f	f	n/a
588.348	0.09	1176696	keystroke_Key.backspace	Key.backspace	n/a
588.423	0.09	1176846	keystroke_d	d	n/a
588.543	0.09	1177086	keystroke_o	o	n/a
588.693	0.09	1177386	keystroke_o	o	n/a
588.798	0.135	1177596	keystroke_r	r	n/a
588.903	0.12	1177806	keystroke_Key.space	Key.space	n/a
589.623	0.09	1179246	keystroke_l	l	n/a
589.728	0.105	1179456	keystroke_a	a	n/a
589.848	0.09	1179696	keystroke_n	n	n/a
590.148	0.075	1180296	keystroke_Key.backspace	Key.backspace	n/a
590.553	0.105	1181106	keystroke_n	n	n/a
591.018	0.075	1182036	keystroke_c	c	n/a
591.108	0.12	1182216	keystroke_a	a	n/a
591.213	0.12	1182426	keystroke_s	s	n/a
591.333	0.075	1182666	keystroke_t	t	n/a
591.453	0.075	1182906	keystroke_e	e	n/a
591.603	0.135	1183206	keystroke_r	r	n/a
591.708	0.105	1183416	keystroke_Key.space	Key.space	n/a
592.128	0.075	1184256	keystroke_t	t	n/a
592.293	0.075	1184586	keystroke_r	r	n/a
592.383	0.12	1184766	keystroke_a	a	n/a
592.593	0.075	1185186	keystroke_n	n	n/a
592.773	0.09	1185546	keystroke_s	s	n/a
593.883	0.09	1187766	keystroke_a	a	n/a
594.078	0.075	1188156	keystroke_c	c	n/a
594.168	0.09	1188336	keystroke_t	t	n/a
594.423	0.03	1188846	keystroke_u	u	n/a
594.918	0.075	1189836	keystroke_Key.backspace	Key.backspace	n/a
595.383	0.075	1190766	keystroke_i	i	n/a
595.518	0.09	1191036	keystroke_o	o	n/a
595.668	0.105	1191336	keystroke_n	n	n/a
596.4625	0.06	1192925	keystroke_Key.enter	Key.enter	n/a
596.529	7.6155	1193058	prompt	n/a	icon header rendering swiss\n
597.3325	0.06	1194665	keystroke_i	i	n/a
597.438	0.0895	1194876	keystroke_c	c	n/a
597.5425	0.06	1195085	keystroke_o	o	n/a
597.7075	0.0905	1195415	keystroke_n	n	n/a
597.8425	0.075	1195685	keystroke_Key.space	Key.space	n/a
598.2325	0.06	1196465	keystroke_h	h	n/a
598.3075	0.075	1196615	keystroke_e	e	n/a
598.5175	0.105	1197035	keystroke_a	a	n/a
598.6975	0.075	1197395	keystroke_d	d	n/a
598.8475	0.075	1197695	keystroke_r	r	n/a
598.9525	0.09	1197905	keystroke_e	e	n/a
599.313	0.0745	1198626	keystroke_Key.backspace	Key.backspace	n/a
599.4625	0.0755	1198925	keystroke_Key.backspace	Key.backspace	n/a
599.508	0.0745	1199016	keystroke_e	e	n/a
599.6875	0.165	1199375	keystroke_r	r	n/a
599.8075	0.135	1199615	keystroke_Key.space	Key.space	n/a
600.5875	0.075	1201175	keystroke_r	r	n/a
600.7375	0.09	1201475	keystroke_e	e	n/a
600.8425	0.0905	1201685	keystroke_n	n	n/a
600.9475	0.105	1201895	keystroke_d	d	n/a
601.143	0.0895	1202286	keystroke_e	e	n/a
601.3375	0.075	1202675	keystroke_r	r	n/a
601.4425	0.075	1202885	keystroke_i	i	n/a
601.6225	0.0905	1203245	keystroke_n	n	n/a
601.7425	0.105	1203485	keystroke_g	g	n/a
602.0725	0.105	1204145	keystroke_Key.space	Key.space	n/a
602.3275	0.09	1204655	keystroke_s	s	n/a
602.7175	0.075	1205435	keystroke_w	w	n/a
603.0175	0.105	1206035	keystroke_i	i	n/a
603.3475	0.06	1206695	keystroke_s	s	n/a
603.4825	0.105	1206965	keystroke_s	s	n/a
604.0675	0.075	1208135	keystroke_Key.enter	Key.enter	n/a
604.1495	8.1405	1208299	prompt	n/a	dept costs volume preferences\n
604.9975	0.075	1209995	keystroke_d	d	n/a
605.1625	0.09	1210325	keystroke_e	e	n/a
605.2375	0.09	1210475	keystroke_p	p	n/a
605.5075	0.075	1211015	keystroke_t	t	n/a
605.6875	0.075	1211375	keystroke_Key.space	Key.space	n/a
606.0625	0.105	1212125	keystroke_c	c	n/a
606.1825	0.09	1212365	keystroke_o	o	n/a
606.3325	0.09	1212665	keystroke_s	s	n/a
606.4975	0.09	1212995	keystroke_t	t	n/a
606.5875	0.135	1213175	keystroke_s	s	n/a
606.7075	0.12	1213415	keystroke_Key.space	Key.space	n/a
607.7125	0.075	1215425	keystroke_v	v	n/a
607.8025	0.075	1215605	keystroke_o	o	n/a
607.9675	0.09	1215935	keystroke_l	l	n/a
608.1925	0.09	1216385	keystroke_u	u	n/a
608.4175	0.09	1216835	keystroke_m	m	n/a
608.5075	0.15	1217015	keystroke_e	e	n/a
608.6125	0.105	1217225	keystroke_Key.space	Key.space	n/a
608.9575	0.075	1217915	keystroke_p	p	n/a
609.0475	0.075	1218095	keystroke_r	r	n/a
609.2125	0.09	1218425	keystroke_e	e	n/a
609.7675	0.105	1219535	keystroke_f	f	n/a
609.8875	0.09	1219775	keystroke_e	e	n/a
610.0075	0.09	1220015	keystroke_r	r	n/a
610.2925	0.09	1220585	keystroke_n	n	n/a
610.4275	0.09	1220855	keystroke_d	d	n/a
610.7875	0.09	1221575	keystroke_Key.backspace	Key.backspace	n/a
610.8625	0.075	1221725	keystroke_c	c	n/a
610.9825	0.105	1221965	keystroke_e	e	n/a
611.2525	0.12	1222505	keystroke_s	s	n/a
612.2275	0.06	1224455	keystroke_Key.enter	Key.enter	n/a
612.2925	9.057	1224585	prompt	n/a	registered basis carnival completion\n
613.0975	0.06	1226195	keystroke_r	r	n/a
613.2625	0.075	1226525	keystroke_e	e	n/a
613.4875	0.075	1226975	keystroke_g	g	n/a
613.7275	0.075	1227455	keystroke_i	i	n/a
613.8475	0.09	1227695	keystroke_s	s	n/a
613.9975	0.09	1227995	keystroke_t	t	n/a
614.1325	0.075	1228265	keystroke_e	e	n/a
614.4625	0.06	1228925	keystroke_r	r	n/a
614.5525	0.06	1229105	keystroke_e	e	n/a
614.6275	0.09	1229255	keystroke_d	d	n/a
615.3175	0.09	1230635	keystroke_Key.space	Key.space	n/a
615.9625	0.106	1231925	keystroke_b	b	n/a
616.0525	0.105	1232105	keystroke_a	a	n/a
616.2475	0.075	1232495	keystroke_i	i	n/a
616.5925	0.075	1233185	keystroke_Key.backspace	Key.backspace	n/a
616.7125	0.09	1233425	keystroke_s	s	n/a
616.8175	0.09	1233635	keystroke_i	i	n/a
616.9085	0.104	1233817	keystroke_s	s	n/a
616.9975	0.105	1233995	keystroke_Key.space	Key.space	n/a
617.2225	0.09	1234445	keystroke_c	c	n/a
617.4185	0.089	1234837	keystroke_a	a	n/a
617.6425	0.06	1235285	keystroke_r	r	n/a
617.7335	0.074	1235467	keystroke_n	n	n/a
617.8675	0.09	1235735	keystroke_i	i	n/a
618.1375	0.045	1236275	keystroke_v	v	n/a
618.2875	0.09	1236575	keystroke_a	a	n/a
618.4685	0.059	1236937	keystroke_l	l	n/a
618.6325	0.09	1237265	keystroke_Key.space	Key.space	n/a
619.0685	0.059	1238137	keystroke_c	c	n/a
619.1435	0.089	1238287	keystroke_o	o	n/a
619.3075	0.09	1238615	keystroke_m	m	n/a
619.4725	0.105	1238945	keystroke_p	p	n/a
619.6225	0.105	1239245	keystroke_l	l	n/a
619.7575	0.075	1239515	keystroke_e	e	n/a
620.0725	0.075	1240145	keystroke_t	t	n/a
620.1775	0.12	1240355	keystroke_i	i	n/a
620.3725	0.105	1240745	keystroke_o	o	n/a
620.5975	0.075	1241195	keystroke_n	n	n/a
621.2725	0.075	1242545	keystroke_Key.enter	Key.enter	n/a
621.3525	10.947	1242705	prompt	n/a	mpegs speeds spokesman regulatory\n
622.173	0.09	1244346	keystroke_m	m	n/a
622.383	0.06	1244766	keystroke_p	p	n/a
623.088	0.09	1246176	keystroke_e	e	n/a
623.193	0.075	1246386	keystroke_g	g	n/a
623.598	0.135	1247196	keystroke_s	s	n/a
623.763	0.12	1247526	keystroke_Key.space	Key.space	n/a
624.573	0.075	1249146	keystroke_s	s	n/a
624.708	0.09	1249416	keystroke_p	p	n/a
624.858	0.075	1249716	keystroke_e	e	n/a
625.008	0.075	1250016	keystroke_e	e	n/a
625.203	0.15	1250406	keystroke_d	d	n/a
625.308	0.06	1250616	keystroke_Key.space	Key.space	n/a
625.623	0.09	1251246	keystroke_Key.backspace	Key.backspace	n/a
625.728	0.135	1251456	keystroke_s	s	n/a
625.848	0.105	1251696	keystroke_Key.space	Key.space	n/a
626.103	0.09	1252206	keystroke_s	s	n/a
626.238	0.075	1252476	keystroke_o	o	n/a
626.463	0.075	1252926	keystroke_p	p	n/a
627.168	0.075	1254336	keystroke_Key.backspace	Key.backspace	n/a
627.318	0.075	1254636	keystroke_Key.backspace	Key.backspace	n/a
627.423	0.105	1254846	keystroke_p	p	n/a
627.663	0.075	1255326	keystroke_o	o	n/a
628.173	0.06	1256346	keystroke_k	k	n/a
628.248	0.06	1256496	keystroke_e	e	n/a
628.443	0.075	1256886	keystroke_s	s	n/a
628.728	0.09	1257456	keystroke_m	m	n/a
629.028	0.105	1258056	keystroke_a	a	n/a
629.148	0.09	1258296	keystroke_n	n	n/a
629.283	0.12	1258566	keystroke_Key.space	Key.space	n/a
630.003	0.09	1260006	keystroke_r	r	n/a
630.078	0.06	1260156	keystroke_e	e	n/a
630.183	0.105	1260366	keystroke_g	g	n/a
630.408	0.075	1260816	keystroke_u	u	n/a
630.663	0.075	1261326	keystroke_l	l	n/a
630.918	0.015	1261836	keystroke_a	a	n/a
630.978	0.075	1261956	keystroke_t	t	n/a
631.203	0.09	1262406	keystroke_o	o	n/a
631.308	0.075	1262616	keystroke_r	r	n/a
631.458	0.09	1262916	keystroke_y	y	n/a
632.253	0.045	1264506	keystroke_Key.enter	Key.enter	n/a
632.303	12.4465	1264606	prompt	n/a	wild techno subsequent walnut\n
633.393	0.06	1266786	keystroke_w	w	n/a
633.513	0.075	1267026	keystroke_i	i	n/a
633.723	0.075	1267446	keystroke_l	l	n/a
633.813	0.15	1267626	keystroke_d	d	n/a
633.948	0.09	1267896	keystroke_Key.space	Key.space	n/a
634.983	0.075	1269966	keystroke_t	t	n/a
635.2535	0.06	1270507	keystroke_e	e	n/a
635.4035	0.075	1270807	keystroke_h	h	n/a
635.5535	0.075	1271107	keystroke_c	c	n/a
635.8685	0.06	1271737	keystroke_Key.backspace	Key.backspace	n/a
636.0175	0.091	1272035	keystroke_Key.backspace	Key.backspace	n/a
636.2735	0.06	1272547	keystroke_c	c	n/a
636.4235	0.075	1272847	keystroke_h	h	n/a
638.4785	0.075	1276957	keystroke_n	n	n/a
638.6135	0.105	1277227	keystroke_o	o	n/a
638.7025	0.106	1277405	keystroke_Key.space	Key.space	n/a
638.9435	0.105	1277887	keystroke_s	s	n/a
639.1685	0.075	1278337	keystroke_u	u	n/a
639.9185	0.075	1279837	keystroke_b	b	n/a
640.0085	0.075	1280017	keystroke_s	s	n/a
640.2035	0.06	1280407	keystroke_e	e	n/a
640.3985	0.1045	1280797	keystroke_q	q	n/a
640.4885	0.09	1280977	keystroke_u	u	n/a
640.6235	0.0895	1281247	keystroke_e	e	n/a
640.728	0.105	1281456	keystroke_n	n	n/a
640.863	0.075	1281726	keystroke_t	t	n/a
641.148	0.09	1282296	keystroke_Key.space	Key.space	n/a
641.433	0.06	1282866	keystroke_w	w	n/a
641.448	0.03	1282896	keystroke_e	e	n/a
641.883	0.09	1283766	keystroke_Key.backspace	Key.backspace	n/a
642.063	0.1195	1284126	keystroke_a	a	n/a
642.1825	0.075	1284365	keystroke_l	l	n/a
642.5575	0.09	1285115	keystroke_n	n	n/a
642.7375	0.075	1285475	keystroke_u	u	n/a
642.8135	0.074	1285627	keystroke_t	t	n/a
644.7025	0.045	1289405	keystroke_Key.enter	Key.enter	n/a
644.753	7.407	1289506	prompt	n/a	orange increases sectors tony\n
645.4975	0.075	1290995	keystroke_o	o	n/a
645.8275	0.045	1291655	keystroke_r	r	n/a
645.9625	0.076	1291925	keystroke_a	a	n/a
646.0825	0.09	1292165	keystroke_n	n	n/a
646.3075	0.06	1292615	keystroke_g	g	n/a
646.3825	0.135	1292765	keystroke_e	e	n/a
646.4875	0.105	1292975	keystroke_Key.space	Key.space	n/a
647.1025	0.06	1294205	keystroke_i	i	n/a
647.2675	0.09	1294535	keystroke_n	n	n/a
647.4175	0.09	1294835	keystroke_c	c	n/a
