onset	duration	sample	value	key	prompt_text
4.331	8.1195	8662	prompt	n/a	the quick brown fox jumps over a lazy dog\n
5.352	0.0435	10704	keystroke_t	t	n/a
5.411	0.0755	10822	keystroke_h	h	n/a
5.5605	0.1355	11121	keystroke_e	e	n/a
5.681	0.075	11362	keystroke_Key.space	Key.space	n/a
5.7715	0.1195	11543	keystroke_q	q	n/a
5.9215	0.0745	11843	keystroke_u	u	n/a
6.071	0.074	12142	keystroke_c	c	n/a
6.1015	0.058	12203	keystroke_i	i	n/a
6.295	0.059	12590	keystroke_k	k	n/a
7.1205	0.075	14241	keystroke_Key.backspace	Key.backspace	n/a
7.271	0.06	14542	keystroke_Key.backspace	Key.backspace	n/a
7.39	0.0905	14780	keystroke_Key.backspace	Key.backspace	n/a
7.676	0.0745	15352	keystroke_i	i	n/a
7.8105	0.0755	15621	keystroke_c	c	n/a
7.8705	0.0745	15741	keystroke_k	k	n/a
8.096	0.0595	16192	keystroke_Key.space	Key.space	n/a
8.3215	0.06	16643	keystroke_b	b	n/a
8.501	0.1045	17002	keystroke_r	r	n/a
8.621	0.0305	17242	keystroke_o	o	n/a
8.711	0.105	17422	keystroke_w	w	n/a
8.8015	0.059	17603	keystroke_n	n	n/a
8.951	0.0605	17902	keystroke_Key.space	Key.space	n/a
8.9955	0.091	17991	keystroke_f	f	n/a
9.161	0.046	18322	keystroke_o	o	n/a
9.222	0.105	18444	keystroke_x	x	n/a
9.341	0.0755	18682	keystroke_Key.space	Key.space	n/a
9.5215	0.045	19043	keystroke_j	j	n/a
9.657	0.075	19314	keystroke_u	u	n/a
9.852	0.0595	19704	keystroke_m	m	n/a
10.0465	0.0605	20093	keystroke_p	p	n/a
10.1215	0.09	20243	keystroke_s	s	n/a
10.226	0.0755	20452	keystroke_Key.space	Key.space	n/a
10.4215	0.045	20843	keystroke_o	o	n/a
10.4525	0.0595	20905	keystroke_v	v	n/a
10.5275	0.1495	21055	keystroke_e	e	n/a
10.647	0.09	21294	keystroke_r	r	n/a
10.707	0.059	21414	keystroke_Key.space	Key.space	n/a
10.887	0.075	21774	keystroke_a	a	n/a
10.9015	0.0755	21803	keystroke_Key.space	Key.space	n/a
11.1265	0.0295	22253	keystroke_l	l	n/a
11.2615	0.0595	22523	keystroke_a	a	n/a
11.5775	0.119	23155	keystroke_z	z	n/a
11.7565	0.091	23513	keystroke_y	y	n/a
11.876	0.09	23752	keystroke_Key.space	Key.space	n/a
11.996	0.105	23992	keystroke_d	d	n/a
12.147	0.0605	24294	keystroke_o	o	n/a
12.2365	0.0755	24473	keystroke_g	g	n/a
12.326	0.1205	24652	keystroke_Key.enter	Key.enter	n/a
12.458	3.696	24916	prompt	n/a	flame their bear lyrics\n
13.1375	0.089	26275	keystroke_f	f	n/a
13.2425	0.09	26485	keystroke_l	l	n/a
13.3165	0.106	26633	keystroke_a	a	n/a
13.4375	0.09	26875	keystroke_m	m	n/a
13.5115	0.09	27023	keystroke_e	e	n/a
13.6165	0.091	27233	keystroke_Key.space	Key.space	n/a
13.6765	0.0905	27353	keystroke_t	t	n/a
13.827	0.0605	27654	keystroke_h	h	n/a
13.8415	0.106	27683	keystroke_e	e	n/a
14.0075	0.075	28015	keystroke_i	i	n/a
14.0825	0.075	28165	keystroke_r	r	n/a
14.187	0.0895	28374	keystroke_Key.space	Key.space	n/a
14.292	0.075	28584	keystroke_b	b	n/a
14.5165	0.075	29033	keystroke_e	e	n/a
14.577	0.135	29154	keystroke_a	a	n/a
14.6815	0.091	29363	keystroke_r	r	n/a
14.7865	0.0755	29573	keystroke_Key.space	Key.space	n/a
14.997	0.0455	29994	keystroke_l	l	n/a
15.0575	0.075	30115	keystroke_y	y	n/a
15.267	0.0455	30534	keystroke_r	r	n/a
15.6115	0.046	31223	keystroke_i	i	n/a
15.7015	0.12	31403	keystroke_c	c	n/a
15.8375	0.105	31675	keystroke_s	s	n/a
16.062	0.0895	32124	keystroke_Key.enter	Key.enter	n/a
16.161	11.648	32322	prompt	n/a	videos consumption supplement encounter\n
16.7525	0.0595	33505	keystroke_v	v	n/a
16.857	0.0595	33714	keystroke_i	i	n/a
16.9475	0.12	33895	keystroke_d	d	n/a
17.082	0.0755	34164	keystroke_o	o	n/a
17.1265	0.121	34253	keystroke_e	e	n/a
17.5475	0.0745	35095	keystroke_Key.backspace	Key.backspace	n/a
17.682	0.105	35364	keystroke_Key.backspace	Key.backspace	n/a
17.8015	0.0755	35603	keystroke_e	e	n/a
17.8915	0.076	35783	keystroke_o	o	n/a
17.997	0.1055	35994	keystroke_s	s	n/a
18.1465	0.0905	36293	keystroke_Key.space	Key.space	n/a
18.5375	0.06	37075	keystroke_c	c	n/a
18.5975	0.06	37195	keystroke_o	o	n/a
18.7625	0.06	37525	keystroke_m	m	n/a
19.047	0.0745	38094	keystroke_Key.backspace	Key.backspace	n/a
19.2575	0.075	38515	keystroke_n	n	n/a
19.3915	0.091	38783	keystroke_s	s	n/a
19.4665	0.061	38933	keystroke_u	u	n/a
19.6315	0.076	39263	keystroke_m	m	n/a
19.8265	0.0905	39653	keystroke_p	p	n/a
20.0065	0.061	40013	keystroke_t	t	n/a
20.622	0.0905	41244	keystroke_o	o	n/a
20.9075	0.059	41815	keystroke_Key.backspace	Key.backspace	n/a
21.0415	0.06	42083	keystroke_i	i	n/a
21.1925	0.09	42385	keystroke_o	o	n/a
21.2825	0.075	42565	keystroke_n	n	n/a
21.462	0.0895	42924	keystroke_Key.space	Key.space	n/a
21.7625	0.09	43525	keystroke_s	s	n/a
21.912	0.075	43824	keystroke_u	u	n/a
22.2115	0.045	44423	keystroke_p	p	n/a
22.3775	0.059	44755	keystroke_l	l	n/a
22.5125	0.059	45025	keystroke_l	l	n/a
22.5875	0.09	45175	keystroke_e	e	n/a
22.7215	0.076	45443	keystroke_m	m	n/a
22.8425	0.12	45685	keystroke_e	e	n/a
22.9325	0.09	45865	keystroke_n	n	n/a
23.0825	0.06	46165	keystroke_t	t	n/a
23.2915	0.0755	46583	keystroke_Key.backspace	Key.backspace	n/a
23.4265	0.076	46853	keystroke_Key.backspace	Key.backspace	n/a
23.577	0.06	47154	keystroke_Key.backspace	Key.backspace	n/a
23.712	0.075	47424	keystroke_Key.backspace	Key.backspace	n/a
23.862	0.06	47724	keystroke_Key.backspace	Key.backspace	n/a
23.997	0.06	47994	keystroke_Key.backspace	Key.backspace	n/a
24.642	0.075	49284	keystroke_Key.backspace	Key.backspace	n/a
24.8075	0.075	49615	keystroke_p	p	n/a
25.0025	0.075	50005	keystroke_l	l	n/a
25.137	0.1045	50274	keystroke_e	e	n/a
25.4515	0.075	50903	keystroke_m	m	n/a
25.5865	0.106	51173	keystroke_e	e	n/a
25.662	0.0905	51324	keystroke_n	n	n/a
25.7675	0.089	51535	keystroke_t	t	n/a
25.9315	0.0755	51863	keystroke_Key.space	Key.space	n/a
26.397	0.0905	52794	keystroke_e	e	n/a
26.772	0.0755	53544	keystroke_n	n	n/a
26.8625	0.09	53725	keystroke_c	c	n/a
27.0725	0.045	54145	keystroke_o	o	n/a
27.2375	0.06	54475	keystroke_u	u	n/a
27.402	0.09	54804	keystroke_n	n	n/a
27.447	0.105	54894	keystroke_t	t	n/a
27.537	0.1355	55074	keystroke_e	e	n/a
27.6425	0.1045	55285	keystroke_r	r	n/a
27.732	0.0745	55464	keystroke_Key.enter	Key.enter	n/a
27.816	5.6775	55632	prompt	n/a	males organisms hardly forecast\n
28.3475	0.075	56695	keystroke_m	m	n/a
28.4525	0.0745	56905	keystroke_a	a	n/a
28.572	0.0445	57144	keystroke_l	l	n/a
28.6325	0.09	57265	keystroke_e	e	n/a
28.812	0.105	57624	keystroke_s	s	n/a
28.887	0.0595	57774	keystroke_Key.space	Key.space	n/a
29.082	0.0755	58164	keystroke_o	o	n/a
29.142	0.1205	58284	keystroke_r	r	n/a
29.3825	0.0895	58765	keystroke_g	g	n/a
29.5325	0.09	59065	keystroke_a	a	n/a
29.7415	0.076	59483	keystroke_n	n	n/a
29.952	0.0455	59904	keystroke_i	i	n/a
30.0115	0.09	60023	keystroke_s	s	n/a
30.1625	0.074	60325	keystroke_m	m	n/a
30.282	0.0905	60564	keystroke_s	s	n/a
30.387	0.075	60774	keystroke_Key.space	Key.space	n/a
30.6425	0.06	61285	keystroke_h	h	n/a
30.7175	0.09	61435	keystroke_a	a	n/a
30.7625	0.0745	61525	keystroke_r	r	n/a
30.9415	0.0755	61883	keystroke_d	d	n/a
31.0625	0.0745	62125	keystroke_l	l	n/a
31.1975	0.09	62395	keystroke_y	y	n/a
31.3325	0.0745	62665	keystroke_Key.space	Key.space	n/a
31.497	0.075	62994	keystroke_f	f	n/a
31.602	0.0605	63204	keystroke_o	o	n/a
31.6765	0.151	63353	keystroke_r	r	n/a
31.8125	0.0895	63625	keystroke_e	e	n/a
32.0975	0.135	64195	keystroke_c	c	n/a
32.2025	0.09	64405	keystroke_e	e	n/a
32.697	0.0755	65394	keystroke_Key.backspace	Key.backspace	n/a
32.8775	0.09	65755	keystroke_a	a	n/a
32.922	0.135	65844	keystroke_s	s	n/a
33.1025	0.075	66205	keystroke_t	t	n/a
33.387	0.105	66774	keystroke_Key.enter	Key.enter	n/a
33.4965	6.5085	66993	prompt	n/a	europe buses headlines supply\n
34.0925	0.09	68185	keystroke_e	e	n/a
34.2275	0.06	68455	keystroke_u	u	n/a
34.3175	0.09	68635	keystroke_r	r	n/a
34.4675	0.075	68935	keystroke_o	o	n/a
34.692	0.0755	69384	keystroke_p	p	n/a
34.8275	0.12	69655	keystroke_e	e	n/a
34.962	0.075	69924	keystroke_Key.space	Key.space	n/a
35.3225	0.12	70645	keystroke_b	b	n/a
35.4875	0.0445	70975	keystroke_u	u	n/a
35.562	0.1055	71124	keystroke_s	s	n/a
35.802	0.1355	71604	keystroke_e	e	n/a
35.892	0.1205	71784	keystroke_s	s	n/a
36.0575	0.089	72115	keystroke_Key.space	Key.space	n/a
36.2975	0.06	72595	keystroke_h	h	n/a
36.372	0.12	72744	keystroke_e	e	n/a
36.4475	0.1345	72895	keystroke_a	a	n/a
36.5975	0.0745	73195	keystroke_l	l	n/a
37.302	0.09	74604	keystroke_Key.backspace	Key.backspace	n/a
37.4065	0.09	74813	keystroke_d	d	n/a
37.6025	0.104	75205	keystroke_l	l	n/a
37.812	0.0595	75624	keystroke_i	i	n/a
37.9765	0.091	75953	keystroke_n	n	n/a
38.0525	0.06	76105	keystroke_e	e	n/a
38.1875	0.075	76375	keystroke_s	s	n/a
38.232	0.075	76464	keystroke_Key.space	Key.space	n/a
38.4725	0.075	76945	keystroke_u	u	n/a
38.727	0.105	77454	keystroke_Key.backspace	Key.backspace	n/a
38.892	0.09	77784	keystroke_s	s	n/a
38.9965	0.061	77993	keystroke_u	u	n/a
39.2365	0.061	78473	keystroke_p	p	n/a
39.387	0.045	78774	keystroke_p	p	n/a
39.5675	0.089	79135	keystroke_l	l	n/a
39.7175	0.075	79435	keystroke_y	y	n/a
39.882	0.1205	79764	keystroke_Key.enter	Key.enter	n/a
40.01	6.205	80020	prompt	n/a	ecology necklace neural assignments\n
40.6475	0.0595	81295	keystroke_e	e	n/a
40.782	0.075	81564	keystroke_c	c	n/a
40.9175	0.06	81835	keystroke_o	o	n/a
41.3075	0.075	82615	keystroke_l	l	n/a
41.502	0.0755	83004	keystroke_o	o	n/a
41.622	0.075	83244	keystroke_g	g	n/a
41.8175	0.0595	83635	keystroke_y	y	n/a
41.952	0.0905	83904	keystroke_Key.space	Key.space	n/a
42.1915	0.075	84383	keystroke_n	n	n/a
42.2825	0.105	84565	keystroke_a	a	n/a
42.3565	0.105	84713	keystroke_c	c	n/a
42.4915	0.06	84983	keystroke_k	k	n/a
42.6875	0.075	85375	keystroke_l	l	n/a
42.7775	0.09	85555	keystroke_a	a	n/a
42.9275	0.135	85855	keystroke_c	c	n/a
43.0025	0.105	86005	keystroke_e	e	n/a
43.1225	0.074	86245	keystroke_Key.space	Key.space	n/a
43.4075	0.06	86815	keystroke_n	n	n/a
43.7375	0.105	87475	keystroke_e	e	n/a
43.9625	0.06	87925	keystroke_u	u	n/a
44.0825	0.075	88165	keystroke_r	r	n/a
44.3225	0.075	88645	keystroke_a	a	n/a
44.4575	0.059	88915	keystroke_l	l	n/a
44.652	0.0895	89304	keystroke_Key.space	Key.space	n/a
44.7725	0.089	89545	keystroke_a	a	n/a
44.9525	0.059	89905	keystroke_s	s	n/a
45.1015	0.06	90203	keystroke_s	s	n/a
45.1915	0.075	90383	keystroke_i	i	n/a
45.297	0.0755	90594	keystroke_g	g	n/a
45.402	0.0605	90804	keystroke_n	n	n/a
45.567	0.075	91134	keystroke_m	m	n/a
45.6725	0.105	91345	keystroke_e	e	n/a
45.7625	0.075	91525	keystroke_n	n	n/a
45.8515	0.09	91703	keystroke_t	t	n/a
45.9575	0.105	91915	keystroke_s	s	n/a
46.0915	0.12	92183	keystroke_Key.enter	Key.enter	n/a
46.2215	5.153	92443	prompt	n/a	recently laptops horse dude\n
46.8565	0.106	93713	keystroke_r	r	n/a
46.932	0.105	93864	keystroke_e	e	n/a
47.067	0.1355	94134	keystroke_c	c	n/a
47.157	0.12	94314	keystroke_e	e	n/a
47.2925	0.0745	94585	keystroke_n	n	n/a
47.382	0.12	94764	keystroke_t	t	n/a
47.547	0.0905	95094	keystroke_l	l	n/a
47.6525	0.0595	95305	keystroke_y	y	n/a
47.772	0.0755	95544	keystroke_Key.space	Key.space	n/a
48.0875	0.0595	96175	keystroke_a	a	n/a
48.2975	0.0745	96595	keystroke_Key.backspace	Key.backspace	n/a
48.4315	0.105	96863	keystroke_l	l	n/a
48.6575	0.1045	97315	keystroke_a	a	n/a
48.9425	0.12	97885	keystroke_p	p	n/a
49.1825	0.06	98365	keystroke_t	t	n/a
49.2875	0.06	98575	keystroke_o	o	n/a
49.4665	0.076	98933	keystroke_p	p	n/a
49.5575	0.09	99115	keystroke_s	s	n/a
49.767	0.06	99534	keystroke_Key.space	Key.space	n/a
50.1115	0.075	100223	keystroke_h	h	n/a
50.2465	0.075	100493	keystroke_o	o	n/a
50.3375	0.09	100675	keystroke_r	r	n/a
50.5175	0.06	101035	keystroke_s	s	n/a
50.667	0.0605	101334	keystroke_e	e	n/a
50.7415	0.09	101483	keystroke_Key.space	Key.space	n/a
50.8475	0.06	101695	keystroke_d	d	n/a
50.9665	0.076	101933	keystroke_u	u	n/a
51.0425	0.104	102085	keystroke_d	d	n/a
51.1015	0.105	102203	keystroke_e	e	n/a
51.2965	0.075	102593	keystroke_Key.enter	Key.enter	n/a
51.382	5.0645	102764	prompt	n/a	baseline innovation pond juice\n
52.0175	0.0745	104035	keystroke_b	b	n/a
52.1375	0.15	104275	keystroke_a	a	n/a
52.167	0.1355	104334	keystroke_s	s	n/a
52.542	0.06	105084	keystroke_e	e	n/a
52.932	0.09	105864	keystroke_l	l	n/a
53.112	0.06	106224	keystroke_i	i	n/a
53.2775	0.0595	106555	keystroke_n	n	n/a
53.352	0.0755	106704	keystroke_e	e	n/a
53.4425	0.06	106885	keystroke_Key.space	Key.space	n/a
53.622	0.045	107244	keystroke_i	i	n/a
53.772	0.0605	107544	keystroke_n	n	n/a
53.8775	0.0745	107755	keystroke_n	n	n/a
54.0875	0.0595	108175	keystroke_o	o	n/a
54.1625	0.1045	108325	keystroke_v	v	n/a
54.2825	0.1495	108565	keystroke_a	a	n/a
54.402	0.0905	108804	keystroke_t	t	n/a
54.5225	0.0445	109045	keystroke_i	i	n/a
54.6575	0.075	109315	keystroke_o	o	n/a
54.7475	0.075	109495	keystroke_n	n	n/a
54.837	0.09	109674	keystroke_Key.space	Key.space	n/a
55.062	0.0595	110124	keystroke_p	p	n/a
55.2275	0.06	110455	keystroke_o	o	n/a
55.4225	0.06	110845	keystroke_n	n	n/a
55.5275	0.09	111055	keystroke_d	d	n/a
55.5865	0.076	111173	keystroke_Key.space	Key.space	n/a
55.782	0.045	111564	keystroke_j	j	n/a
55.9325	0.045	111865	keystroke_u	u	n/a
56.097	0.0605	112194	keystroke_i	i	n/a
56.127	0.1355	112254	keystroke_c	c	n/a
56.2175	0.1045	112435	keystroke_e	e	n/a
56.3525	0.089	112705	keystroke_Key.enter	Key.enter	n/a
56.451	4.913	112902	prompt	n/a	all checked audio hole\n
56.937	0.09	113874	keystroke_a	a	n/a
57.1925	0.0595	114385	keystroke_l	l	n/a
57.3275	0.0895	114655	keystroke_l	l	n/a
57.5525	0.06	115105	keystroke_Key.space	Key.space	n/a
57.613	0.1045	115226	keystroke_c	c	n/a
57.7625	0.06	115525	keystroke_h	h	n/a
57.8375	0.105	115675	keystroke_e	e	n/a
58.0325	0.06	116065	keystroke_k	k	n/a
58.0475	0.06	116095	keystroke_c	c	n/a
58.692	0.0595	117384	keystroke_Key.backspace	Key.backspace	n/a
58.8265	0.1205	117653	keystroke_Key.backspace	Key.backspace	n/a
58.932	0.09	117864	keystroke_c	c	n/a
59.0375	0.044	118075	keystroke_k	k	n/a
59.0965	0.1355	118193	keystroke_e	e	n/a
59.2625	0.075	118525	keystroke_d	d	n/a
59.382	0.075	118764	keystroke_Key.space	Key.space	n/a
59.683	0.1045	119366	keystroke_a	a	n/a
59.8475	0.06	119695	keystroke_u	u	n/a
59.9525	0.0745	119905	keystroke_d	d	n/a
60.1025	0.0595	120205	keystroke_i	i	n/a
60.2825	0.0595	120565	keystroke_o	o	n/a
60.5665	0.09	121133	keystroke_Key.space	Key.space	n/a
60.7015	0.105	121403	keystroke_h	h	n/a
60.8225	0.044	121645	keystroke_o	o	n/a
60.9565	0.0905	121913	keystroke_l	l	n/a
61.1075	0.105	122215	keystroke_e	e	n/a
61.2565	0.106	122513	keystroke_Key.enter	Key.enter	n/a
61.3685	5.395	122737	prompt	n/a	obvious caps marshall hardly\n
61.9775	0.06	123955	keystroke_o	o	n/a
62.0525	0.075	124105	keystroke_b	b	n/a
62.6225	0.09	125245	keystroke_v	v	n/a
62.8325	0.075	125665	keystroke_i	i	n/a
63.0125	0.06	126025	keystroke_o	o	n/a
63.1765	0.0605	126353	keystroke_u	u	n/a
63.2515	0.091	126503	keystroke_s	s	n/a
63.357	0.0895	126714	keystroke_Key.space	Key.space	n/a
63.4475	0.1045	126895	keystroke_c	c	n/a
63.5375	0.0895	127075	keystroke_a	a	n/a
63.657	0.0605	127314	keystroke_p	p	n/a
63.7765	0.1055	127553	keystroke_s	s	n/a
63.9115	0.075	127823	keystroke_Key.space	Key.space	n/a
64.0915	0.076	128183	keystroke_m	m	n/a
64.1825	0.105	128365	keystroke_a	a	n/a
64.2415	0.1055	128483	keystroke_r	r	n/a
64.812	0.09	129624	keystroke_s	s	n/a
64.947	0.0605	129894	keystroke_h	h	n/a
65.1125	0.0595	130225	keystroke_a	a	n/a
65.247	0.0905	130494	keystroke_l	l	n/a
65.3975	0.0895	130795	keystroke_l	l	n/a
65.502	0.12	131004	keystroke_Key.space	Key.space	n/a
65.9215	0.0755	131843	keystroke_h	h	n/a
66.0115	0.105	132023	keystroke_a	a	n/a
66.0875	0.06	132175	keystroke_r	r	n/a
66.252	0.0895	132504	keystroke_d	d	n/a
66.3865	0.09	132773	keystroke_l	l	n/a
66.5375	0.0745	133075	keystroke_y	y	n/a
66.6715	0.09	133343	keystroke_Key.enter	Key.enter	n/a
66.7695	5.439	133539	prompt	n/a	we brochures your enquiries\n
67.4525	0.134	134905	keystroke_w	w	n/a
67.527	0.105	135054	keystroke_e	e	n/a
67.647	0.09	135294	keystroke_Key.space	Key.space	n/a
67.812	0.0745	135624	keystroke_b	b	n/a
67.9925	0.074	135985	keystroke_r	r	n/a
68.1565	0.0755	136313	keystroke_o	o	n/a
68.2465	0.0605	136493	keystroke_c	c	n/a
68.4415	0.061	136883	keystroke_h	h	n/a
68.6825	0.0595	137365	keystroke_u	u	n/a
68.7725	0.164	137545	keystroke_r	r	n/a
68.9065	0.076	137813	keystroke_e	e	n/a
69.1165	0.091	138233	keystroke_s	s	n/a
69.3715	0.076	138743	keystroke_Key.space	Key.space	n/a
69.867	0.0895	139734	keystroke_y	y	n/a
69.9725	0.0445	139945	keystroke_o	o	n/a
70.152	0.06	140304	keystroke_u	u	n/a
70.2575	0.075	140515	keystroke_r	r	n/a
70.347	0.09	140694	keystroke_Key.space	Key.space	n/a
70.497	0.09	140994	keystroke_e	e	n/a
70.647	0.09	141294	keystroke_n	n	n/a
70.827	0.0905	141654	keystroke_q	q	n/a
70.9615	0.061	141923	keystroke_u	u	n/a
71.1565	0.076	142313	keystroke_i	i	n/a
71.2765	0.0755	142553	keystroke_r	r	n/a
71.4875	0.075	142975	keystroke_i	i	n/a
71.697	0.06	143394	keystroke_e	e	n/a
71.8925	0.075	143785	keystroke_s	s	n/a
72.0865	0.1205	144173	keystroke_Key.enter	Key.enter	n/a
72.2135	5.89	144427	prompt	n/a	marvel array solving thinking\n
72.8225	0.074	145645	keystroke_m	m	n/a
72.8825	0.1345	145765	keystroke_a	a	n/a
72.9725	0.0895	145945	keystroke_r	r	n/a
73.152	0.1055	146304	keystroke_v	v	n/a
73.227	0.105	146454	keystroke_e	e	n/a
73.347	0.0455	146694	keystroke_l	l	n/a
73.496	0.0905	146992	keystroke_Key.space	Key.space	n/a
73.5715	0.076	147143	keystroke_a	a	n/a
73.707	0.0595	147414	keystroke_r	r	n/a
73.8275	0.1345	147655	keystroke_r	r	n/a
73.9775	0.0895	147955	keystroke_a	a	n/a
74.142	0.0605	148284	keystroke_y	y	n/a
74.262	0.0745	148524	keystroke_Key.space	Key.space	n/a
74.682	0.06	149364	keystroke_s	s	n/a
74.937	0.075	149874	keystroke_Key.backspace	Key.backspace	n/a
75.087	0.075	150174	keystroke_Key.backspace	Key.backspace	n/a
75.612	0.09	151224	keystroke_Key.space	Key.space	n/a
75.867	0.0905	151734	keystroke_s	s	n/a
75.9575	0.0445	151915	keystroke_o	o	n/a
76.1075	0.089	152215	keystroke_l	l	n/a
76.211	0.1055	152422	keystroke_v	v	n/a
76.317	0.06	152634	keystroke_i	i	n/a
76.466	0.0765	152932	keystroke_n	n	n/a
76.5425	0.075	153085	keystroke_g	g	n/a
76.6315	0.09	153263	keystroke_Key.space	Key.space	n/a
76.7515	0.061	153503	keystroke_t	t	n/a
76.9175	0.075	153835	keystroke_h	h	n/a
77.0365	0.045	154073	keystroke_i	i	n/a
77.1265	0.076	154253	keystroke_n	n	n/a
77.1875	0.059	154375	keystroke_k	k	n/a
77.697	0.06	155394	keystroke_i	i	n/a
77.742	0.135	155484	keystroke_n	n	n/a
77.8325	0.1045	155665	keystroke_g	g	n/a
77.997	0.105	155994	keystroke_Key.enter	Key.enter	n/a
78.107	7.4515	156214	prompt	n/a	updated announce darwin nominations\n
78.897	0.0605	157794	keystroke_u	u	n/a
79.107	0.075	158214	keystroke_p	p	n/a
79.1975	0.1195	158395	keystroke_d	d	n/a
79.332	0.1205	158664	keystroke_a	a	n/a
79.422	0.1055	158844	keystroke_t	t	n/a
79.482	0.1055	158964	keystroke_e	e	n/a
79.6765	0.075	159353	keystroke_d	d	n/a
79.7665	0.0755	159533	keystroke_Key.space	Key.space	n/a
79.8725	0.1045	159745	keystroke_a	a	n/a
80.052	0.075	160104	keystroke_n	n	n/a
80.1725	0.0745	160345	keystroke_n	n	n/a
80.382	0.0445	160764	keystroke_o	o	n/a
80.547	0.0595	161094	keystroke_u	u	n/a
80.6965	0.211	161393	keystroke_c	c	n/a
80.712	0.0745	161424	keystroke_n	n	n/a
80.8625	0.15	161725	keystroke_e	e	n/a
81.1465	0.076	162293	keystroke_Key.space	Key.space	n/a
81.431	0.061	162862	keystroke_Key.backspace	Key.backspace	n/a
81.5665	0.0745	163133	keystroke_Key.backspace	Key.backspace	n/a
81.701	0.091	163402	keystroke_Key.backspace	Key.backspace	n/a
82.122	0.06	164244	keystroke_Key.backspace	Key.backspace	n/a
82.347	0.075	164694	keystroke_n	n	n/a
82.437	0.12	164874	keystroke_c	c	n/a
82.512	0.09	165024	keystroke_e	e	n/a
82.617	0.075	165234	keystroke_Key.space	Key.space	n/a
82.737	0.1205	165474	keystroke_d	d	n/a
82.872	0.075	165744	keystroke_a	a	n/a
83.127	0.105	166254	keystroke_r	r	n/a
83.427	0.075	166854	keystroke_w	w	n/a
83.547	0.06	167094	keystroke_i	i	n/a
83.712	0.06	167424	keystroke_n	n	n/a
83.847	0.09	167694	keystroke_Key.space	Key.space	n/a
84.072	0.075	168144	keystroke_n	n	n/a
84.2365	0.0605	168473	keystroke_o	o	n/a
84.387	0.06	168774	keystroke_m	m	n/a
84.552	0.0455	169104	keystroke_i	i	n/a
84.687	0.0905	169374	keystroke_n	n	n/a
84.792	0.09	169584	keystroke_a	a	n/a
84.852	0.09	169704	keystroke_t	t	n/a
84.927	0.06	169854	keystroke_i	i	n/a
85.077	0.105	170154	keystroke_o	o	n/a
85.167	0.0605	170334	keystroke_n	n	n/a
85.347	0.0755	170694	keystroke_s	s	n/a
85.4665	0.09	170933	keystroke_Key.enter	Key.enter	n/a
85.564	6.8195	171128	prompt	n/a	federation meanwhile metallica subjects\n
86.157	0.1045	172314	keystroke_f	f	n/a
86.2775	0.1195	172555	keystroke_e	e	n/a
86.3675	0.06	172735	keystroke_r	r	n/a
86.622	0.0895	173244	keystroke_Key.backspace	Key.backspace	n/a
86.6975	0.134	173395	keystroke_d	d	n/a
86.8165	0.1345	173633	keystroke_e	e	n/a
86.9215	0.1205	173843	keystroke_r	r	n/a
87.087	0.119	174174	keystroke_a	a	n/a
87.192	0.075	174384	keystroke_t	t	n/a
87.3425	0.0595	174685	keystroke_i	i	n/a
87.4925	0.0595	174985	keystroke_o	o	n/a
87.5675	0.0445	175135	keystroke_n	n	n/a
87.6565	0.075	175313	keystroke_Key.space	Key.space	n/a
87.8225	0.0745	175645	keystroke_m	m	n/a
87.9425	0.09	175885	keystroke_a	a	n/a
88.302	0.075	176604	keystroke_Key.backspace	Key.backspace	n/a
88.422	0.105	176844	keystroke_e	e	n/a
88.4975	0.09	176995	keystroke_a	a	n/a
88.588	0.074	177176	keystroke_n	n	n/a
88.887	0.105	177774	keystroke_w	w	n/a
89.037	0.06	178074	keystroke_h	h	n/a
89.217	0.0455	178434	keystroke_i	i	n/a
89.412	0.06	178824	keystroke_l	l	n/a
89.502	0.105	179004	keystroke_e	e	n/a
89.6075	0.074	179215	keystroke_Key.space	Key.space	n/a
89.787	0.0745	179574	keystroke_m	m	n/a
89.8465	0.135	179693	keystroke_e	e	n/a
89.9665	0.106	179933	keystroke_t	t	n/a
90.0875	0.09	180175	keystroke_a	a	n/a
90.207	0.0595	180414	keystroke_l	l	n/a
90.3575	0.0595	180715	keystroke_l	l	n/a
90.537	0.06	181074	keystroke_i	i	n/a
90.611	0.1505	181222	keystroke_c	c	n/a
90.7175	0.105	181435	keystroke_a	a	n/a
90.8365	0.09	181673	keystroke_Key.space	Key.space	n/a
91.0475	0.089	182095	keystroke_s	s	n/a
91.1515	0.06	182303	keystroke_u	u	n/a
91.2415	0.061	182483	keystroke_b	b	n/a
91.377	0.0595	182754	keystroke_j	j	n/a
91.467	0.09	182934	keystroke_e	e	n/a
91.5875	0.0745	183175	keystroke_c	c	n/a
91.752	0.12	183504	keystroke_t	t	n/a
91.887	0.045	183774	keystroke_s	s	n/a
92.307	0.0745	184614	keystroke_Key.enter	Key.enter	n/a
92.389	5.5895	184778	prompt	n/a	tons roommate yellow innovations\n
93.0125	0.075	186025	keystroke_t	t	n/a
93.072	0.06	186144	keystroke_o	o	n/a
93.252	0.075	186504	keystroke_n	n	n/a
93.387	0.105	186774	keystroke_s	s	n/a
93.522	0.09	187044	keystroke_Key.space	Key.space	n/a
93.6865	0.09	187373	keystroke_r	r	n/a
93.8375	0.06	187675	keystroke_o	o	n/a
93.9575	0.06	187915	keystroke_o	o	n/a
94.1375	0.075	188275	keystroke_m	m	n/a
94.2425	0.104	188485	keystroke_a	a	n/a
94.4815	0.06	188963	keystroke_t	t	n/a
95.0525	0.0895	190105	keystroke_e	e	n/a
95.2615	0.09	190523	keystroke_Key.space	Key.space	n/a
95.487	0.105	190974	keystroke_y	y	n/a
95.607	0.105	191214	keystroke_e	e	n/a
95.7125	0.059	191425	keystroke_l	l	n/a
95.8475	0.074	191695	keystroke_l	l	n/a
95.9975	0.074	191995	keystroke_o	o	n/a
96.1015	0.0605	192203	keystroke_w	w	n/a
96.177	0.09	192354	keystroke_Key.space	Key.space	n/a
96.432	0.03	192864	keystroke_i	i	n/a
96.567	0.0605	193134	keystroke_n	n	n/a
96.6865	0.075	193373	keystroke_n	n	n/a
96.881	0.075	193762	keystroke_o	o	n/a
96.972	0.105	193944	keystroke_v	v	n/a
97.107	0.165	194214	keystroke_a	a	n/a
97.227	0.105	194454	keystroke_t	t	n/a
97.347	0.0455	194694	keystroke_i	i	n/a
97.497	0.0605	194994	keystroke_o	o	n/a
97.572	0.045	195144	keystroke_n	n	n/a
97.7525	0.0745	195505	keystroke_s	s	n/a
97.872	0.105	195744	keystroke_Key.enter	Key.enter	n/a
97.984	6.1295	195968	prompt	n/a	studying nova shadows velvet\n
98.577	0.09	197154	keystroke_s	s	n/a
98.7415	0.075	197483	keystroke_t	t	n/a
98.8615	0.0755	197723	keystroke_u	u	n/a
98.9515	0.06	197903	keystroke_d	d	n/a
99.1475	0.074	198295	keystroke_y	y	n/a
99.3125	0.0595	198625	keystroke_i	i	n/a
99.462	0.0905	198924	keystroke_n	n	n/a
99.537	0.0895	199074	keystroke_g	g	n/a
99.6415	0.075	199283	keystroke_Key.space	Key.space	n/a
99.852	0.06	199704	keystroke_n	n	n/a
100.062	0.06	200124	keystroke_o	o	n/a
100.152	0.105	200304	keystroke_v	v	n/a
100.302	0.105	200604	keystroke_a	a	n/a
100.422	0.06	200844	keystroke_Key.space	Key.space	n/a
100.542	0.15	201084	keystroke_s	s	n/a
100.767	0.075	201534	keystroke_h	h	n/a
100.887	0.1355	201774	keystroke_d	d	n/a
101.037	0.105	202074	keystroke_a	a	n/a
101.276	0.076	202552	keystroke_o	o	n/a
101.472	0.075	202944	keystroke_Key.backspace	Key.backspace	n/a
101.622	0.0595	203244	keystroke_Key.backspace	Key.backspace	n/a
101.7565	0.106	203513	keystroke_Key.backspace	Key.backspace	n/a
101.8475	0.105	203695	keystroke_a	a	n/a
102.2825	0.06	204565	keystroke_d	d	n/a
102.687	0.0745	205374	keystroke_o	o	n/a
102.7625	0.089	205525	keystroke_w	w	n/a
102.9565	0.075	205913	keystroke_s	s	n/a
103.0465	0.075	206093	keystroke_Key.space	Key.space	n/a
103.257	0.1195	206514	keystroke_v	v	n/a
103.3165	0.121	206633	keystroke_e	e	n/a
103.4515	0.0755	206903	keystroke_l	l	n/a
103.557	0.105	207114	keystroke_v	v	n/a
103.632	0.12	207264	keystroke_e	e	n/a
103.812	0.1205	207624	keystroke_t	t	n/a
104.007	0.1045	208014	keystroke_Key.enter	Key.enter	n/a
104.1185	7.4955	208237	prompt	n/a	realistic internationally powell letters\n
104.667	0.1345	209334	keystroke_r	r	n/a
104.7565	0.105	209513	keystroke_e	e	n/a
104.922	0.105	209844	keystroke_l	l	n/a
105.0115	0.046	210023	keystroke_a	a	n/a
105.342	0.06	210684	keystroke_Key.backspace	Key.backspace	n/a
105.4765	0.09	210953	keystroke_Key.backspace	Key.backspace	n/a
105.5965	0.076	211193	keystroke_a	a	n/a
105.687	0.09	211374	keystroke_l	l	n/a
105.8965	0.0605	211793	keystroke_i	i	n/a
106.0165	0.03	212033	keystroke_a	a	n/a
106.3465	0.0905	212693	keystroke_Key.backspace	Key.backspace	n/a
106.4215	0.135	212843	keystroke_s	s	n/a
106.527	0.105	213054	keystroke_t	t	n/a
106.707	0.09	213414	keystroke_i	i	n/a
106.782	0.0895	213564	keystroke_c	c	n/a
106.9615	0.0605	213923	keystroke_Key.space	Key.space	n/a
107.2465	0.0455	214493	keystroke_i	i	n/a
107.3965	0.091	214793	keystroke_n	n	n/a
107.472	0.1055	214944	keystroke_t	t	n/a
107.547	0.1345	215094	keystroke_e	e	n/a
107.652	0.105	215304	keystroke_r	r	n/a
108.282	0.075	216564	keystroke_n	n	n/a
108.372	0.12	216744	keystroke_a	a	n/a
108.462	0.12	216924	keystroke_t	t	n/a
108.612	0.06	217224	keystroke_i	i	n/a
108.777	0.0895	217554	keystroke_o	o	n/a
108.852	0.09	217704	keystroke_n	n	n/a
109.032	0.09	218064	keystroke_a	a	n/a
109.1065	0.0745	218213	keystroke_l	l	n/a
109.2415	0.1055	218483	keystroke_l	l	n/a
109.3315	0.0905	218663	keystroke_y	y	n/a
109.4365	0.0755	218873	keystroke_Key.space	Key.space	n/a
109.6615	0.0605	219323	keystroke_p	p	n/a
109.827	0.09	219654	keystroke_o	o	n/a
109.8715	0.1505	219743	keystroke_w	w	n/a
109.992	0.105	219984	keystroke_e	e	n/a
110.112	0.0605	220224	keystroke_l	l	n/a
110.231	0.076	220462	keystroke_l	l	n/a
110.4865	0.015	220973	keystroke_Key.space	Key.space	n/a
110.6215	0.076	221243	keystroke_l	l	n/a
110.7115	0.09	221423	keystroke_e	e	n/a
110.7865	0.0605	221573	keystroke_t	t	n/a
110.952	0.0895	221904	keystroke_t	t	n/a
111.0575	0.104	222115	keystroke_e	e	n/a
111.147	0.1195	222294	keystroke_r	r	n/a
111.4915	0.1205	222983	keystroke_Key.enter	Key.enter	n/a
111.6195	4.959	223239	prompt	n/a	doesn't yield least shall\n
112.617	0.075	225234	keystroke_d	d	n/a
112.722	0.105	225444	keystroke_o	o	n/a
112.812	0.105	225624	keystroke_e	e	n/a
112.887	0.105	225774	keystroke_s	s	n/a
112.947	0.09	225894	keystroke_n	n	n/a
113.232	0.075	226464	keystroke_'	'	n/a
113.322	0.09	226644	keystroke_t	t	n/a
113.457	0.09	226914	keystroke_Key.space	Key.space	n/a
113.622	0.0745	227244	keystroke_y	y	n/a
113.907	0.059	227814	keystroke_i	i	n/a
113.9975	0.119	227995	keystroke_e	e	n/a
114.101	0.076	228202	keystroke_l	l	n/a
114.2075	0.0745	228415	keystroke_d	d	n/a
114.311	0.12	228622	keystroke_Key.space	Key.space	n/a
114.597	0.044	229194	keystroke_s	s	n/a
114.7765	0.0605	229553	keystroke_Key.backspace	Key.backspace	n/a
114.927	0.1045	229854	keystroke_l	l	n/a
114.942	0.1645	229884	keystroke_e	e	n/a
115.077	0.1945	230154	keystroke_a	a	n/a
115.1815	0.1505	230363	keystroke_s	s	n/a
115.392	0.1055	230784	keystroke_t	t	n/a
115.557	0.09	231114	keystroke_Key.space	Key.space	n/a
115.752	0.12	231504	keystroke_s	s	n/a
115.9315	0.075	231863	keystroke_h	h	n/a
116.0365	0.1055	232073	keystroke_a	a	n/a
116.2015	0.0605	232403	keystroke_l	l	n/a
116.322	0.09	232644	keystroke_l	l	n/a
116.442	0.135	232884	keystroke_Key.enter	Key.enter	n/a
116.5845	7.194	233169	prompt	n/a	beach recorded movements polished\n
117.312	0.1045	234624	keystroke_b	b	n/a
117.402	0.105	234804	keystroke_e	e	n/a
117.567	0.12	235134	keystroke_c	c	n/a
117.642	0.105	235284	keystroke_a	a	n/a
117.987	0.105	235974	keystroke_h	h	n/a
118.271	0.061	236542	keystroke_Key.backspace	Key.backspace	n/a
118.392	0.075	236784	keystroke_Key.backspace	Key.backspace	n/a
118.542	0.105	237084	keystroke_Key.backspace	Key.backspace	n/a
118.692	0.105	237384	keystroke_a	a	n/a
118.812	0.12	237624	keystroke_c	c	n/a
118.977	0.09	237954	keystroke_h	h	n/a
119.172	0.089	238344	keystroke_Key.space	Key.space	n/a
119.396	0.106	238792	keystroke_r	r	n/a
119.457	0.105	238914	keystroke_e	e	n/a
119.622	0.06	239244	keystroke_c	c	n/a
119.712	0.06	239424	keystroke_o	o	n/a
119.787	0.09	239574	keystroke_r	r	n/a
119.9815	0.1205	239963	keystroke_d	d	n/a
120.072	0.15	240144	keystroke_e	e	n/a
120.222	0.0895	240444	keystroke_d	d	n/a
120.326	0.076	240652	keystroke_Key.space	Key.space	n/a
120.552	0.059	241104	keystroke_m	m	n/a
120.717	0.075	241434	keystroke_o	o	n/a
120.777	0.12	241554	keystroke_v	v	n/a
120.867	0.09	241734	keystroke_e	e	n/a
120.942	0.09	241884	keystroke_m	m	n/a
121.092	0.12	242184	keystroke_e	e	n/a
121.182	0.09	242364	keystroke_n	n	n/a
121.302	0.105	242604	keystroke_t	t	n/a
121.437	0.09	242874	keystroke_Key.space	Key.space	n/a
121.572	0.075	243144	keystroke_s	s	n/a
121.8415	0.0605	243683	keystroke_Key.backspace	Key.backspace	n/a
121.947	0.105	243894	keystroke_Key.backspace	Key.backspace	n/a
122.082	0.09	244164	keystroke_s	s	n/a
122.277	0.075	244554	keystroke_Key.space	Key.space	n/a
122.562	0.075	245124	keystroke_p	p	n/a
122.742	0.06	245484	keystroke_o	o	n/a
122.907	0.059	245814	keystroke_l	l	n/a
123.0865	0.0605	246173	keystroke_i	i	n/a
123.192	0.105	246384	keystroke_s	s	n/a
123.2815	0.0905	246563	keystroke_h	h	n/a
123.3865	0.165	246773	keystroke_e	e	n/a
123.582	0.104	247164	keystroke_d	d	n/a
123.701	0.0755	247402	keystroke_Key.enter	Key.enter	n/a
123.7875	8.4965	247575	prompt	n/a	cheats dozen something's fountain\n
124.422	0.09	248844	keystroke_c	c	n/a
124.587	0.075	249174	keystroke_h	h	n/a
124.647	0.105	249294	keystroke_e	e	n/a
124.737	0.12	249474	keystroke_a	a	n/a
124.842	0.1195	249684	keystroke_t	t	n/a
124.9615	0.09	249923	keystroke_s	s	n/a
125.0365	0.0905	250073	keystroke_Key.space	Key.space	n/a
125.1565	0.0905	250313	keystroke_d	d	n/a
125.2915	0.075	250583	keystroke_o	o	n/a
125.667	0.15	251334	keystroke_z	z	n/a
125.846	0.09	251692	keystroke_e	e	n/a
125.951	0.09	251902	keystroke_n	n	n/a
126.177	0.0895	252354	keystroke_Key.space	Key.space	n/a
126.5815	0.09	253163	keystroke_d	d	n/a
126.7765	0.06	253553	keystroke_Key.backspace	Key.backspace	n/a
126.8665	0.105	253733	keystroke_s	s	n/a
126.927	0.06	253854	keystroke_o	o	n/a
127.107	0.075	254214	keystroke_m	m	n/a
127.1665	0.1055	254333	keystroke_e	e	n/a
127.2415	0.0905	254483	keystroke_t	t	n/a
127.557	0.045	255114	keystroke_i	i	n/a
127.767	0.075	255534	keystroke_=	=	n/a
127.8725	0.06	255745	keystroke_h	h	n/a
127.947	0.06	255894	keystroke_i	i	n/a
128.1715	0.0745	256343	keystroke_Key.backspace	Key.backspace	n/a
128.306	0.075	256612	keystroke_Key.backspace	Key.backspace	n/a
128.441	0.075	256882	keystroke_Key.backspace	Key.backspace	n/a
128.576	0.105	257152	keystroke_Key.backspace	Key.backspace	n/a
128.682	0.1195	257364	keystroke_h	h	n/a
128.817	0.0755	257634	keystroke_i	i	n/a
128.907	0.135	257814	keystroke_n	n	n/a
128.982	0.105	257964	keystroke_g	g	n/a
129.2965	0.0755	258593	keystroke_'	'	n/a
129.402	0.075	258804	keystroke_s	s	n/a
129.552	0.075	259104	keystroke_Key.space	Key.space	n/a
129.9265	0.075	259853	keystroke_f	f	n/a
130.0465	0.0305	260093	keystroke_o	o	n/a
130.167	0.09	260334	keystroke_u	u	n/a
130.362	0.0745	260724	keystroke_n	n	n/a
130.377	0.1045	260754	keystroke_d	d	n/a
130.5715	0.12	261143	keystroke_t	t	n/a
130.677	0.105	261354	keystroke_a	a	n/a
130.767	0.045	261534	keystroke_i	i	n/a
130.947	0.075	261894	keystroke_Key.backspace	Key.backspace	n/a
131.082	0.06	262164	keystroke_Key.backspace	Key.backspace	n/a
131.217	0.06	262434	keystroke_Key.backspace	Key.backspace	n/a
131.337	0.0895	262674	keystroke_Key.backspace	Key.backspace	n/a
131.412	0.12	262824	keystroke_t	t	n/a
131.4875	0.104	262975	keystroke_a	a	n/a
131.5765	0.06	263153	keystroke_i	i	n/a
131.7415	0.075	263483	keystroke_n	n	n/a
132.177	0.1045	264354	keystroke_Key.enter	Key.enter	n/a
132.2885	5.501	264577	prompt	n/a	marsh queue listen promote\n
132.822	0.1195	265644	keystroke_m	m	n/a
132.9265	0.105	265853	keystroke_a	a	n/a
132.972	0.12	265944	keystroke_r	r	n/a
133.1515	0.12	266303	keystroke_s	s	n/a
133.722	0.06	267444	keystroke_h	h	n/a
133.902	0.089	267804	keystroke_Key.space	Key.space	n/a
134.142	0.1195	268284	keystroke_q	q	n/a
134.2765	0.075	268553	keystroke_u	u	n/a
134.382	0.1195	268764	keystroke_e	e	n/a
134.5025	0.0595	269005	keystroke_u	u	n/a
134.5915	0.0755	269183	keystroke_e	e	n/a
134.7865	0.075	269573	keystroke_Key.space	Key.space	n/a
135.2225	0.045	270445	keystroke_l	l	n/a
135.3715	0.0755	270743	keystroke_i	i	n/a
135.402	0.1355	270804	keystroke_s	s	n/a
135.5215	0.15	271043	keystroke_t	t	n/a
135.642	0.1045	271284	keystroke_e	e	n/a
135.7615	0.09	271523	keystroke_n	n	n/a
135.957	0.0745	271914	keystroke_Key.space	Key.space	n/a
136.3015	0.105	272603	keystroke_r	r	n/a
136.542	0.12	273084	keystroke_Key.backspace	Key.backspace	n/a
136.722	0.075	273444	keystroke_p	p	n/a
136.977	0.12	273954	keystroke_r	r	n/a
137.112	0.045	274224	keystroke_o	o	n/a
137.277	0.06	274554	keystroke_m	m	n/a
137.4575	0.0445	274915	keystroke_o	o	n/a
137.517	0.12	275034	keystroke_t	t	n/a
137.607	0.104	275214	keystroke_e	e	n/a
137.666	0.121	275332	keystroke_Key.enter	Key.enter	n/a
137.794	7.195	275588	prompt	n/a	comm alive cooling jackson\n
138.492	0.075	276984	keystroke_c	c	n/a
138.597	0.06	277194	keystroke_o	o	n/a
138.762	0.06	277524	keystroke_m	m	n/a
138.882	0.045	277764	keystroke_m	m	n/a
139.0165	0.0755	278033	keystroke_Key.space	Key.space	n/a
139.1215	0.0895	278243	keystroke_a	a	n/a
139.226	0.09	278452	keystroke_l	l	n/a
139.437	0.0595	278874	keystroke_i	i	n/a
139.527	0.12	279054	keystroke_v	v	n/a
139.617	0.09	279234	keystroke_e	e	n/a
139.7815	0.0895	279563	keystroke_Key.space	Key.space	n/a
139.887	0.075	279774	keystroke_c	c	n/a
140.006	0.06	280012	keystroke_o	o	n/a
140.142	0.06	280284	keystroke_o	o	n/a
140.2765	0.075	280553	keystroke_l	l	n/a
140.4415	0.075	280883	keystroke_i	i	n/a
140.502	0.1195	281004	keystroke_n	n	n/a
140.5765	0.0605	281153	keystroke_g	g	n/a
140.6515	0.0755	281303	keystroke_Key.space	Key.space	n/a
140.832	0.0745	281664	keystroke_j	j	n/a
140.8915	0.1205	281783	keystroke_a	a	n/a
140.9815	0.105	281963	keystroke_c	c	n/a
141.057	0.045	282114	keystroke_k	k	n/a
141.1915	0.045	282383	keystroke_i	i	n/a
141.356	0.046	282712	keystroke_n	n	n/a
141.581	0.06	283162	keystroke_Key.backspace	Key.backspace	n/a
141.701	0.0905	283402	keystroke_Key.backspace	Key.backspace	n/a
141.8215	0.0755	283643	keystroke_s	s	n/a
141.8365	0.075	283673	keystroke_o	o	n/a
142.0465	0.0745	284093	keystroke_n	n	n/a
143.292	0.09	286584	keystroke_]	]	n/a
144.7015	0.03	289403	keystroke_Key.backspace	Key.backspace	n/a
144.926	0.061	289852	keystroke_Key.enter	Key.enter	n/a
144.995	6.264	289990	prompt	n/a	walking referring airports charming\n
145.556	0.181	291112	keystroke_w	w	n/a
145.707	0.0895	291414	keystroke_a	a	n/a
145.782	0.074	291564	keystroke_l	l	n/a
145.9465	0.0755	291893	keystroke_k	k	n/a
146.1115	0.0755	292223	keystroke_i	i	n/a
146.1565	0.1205	292313	keystroke_n	n	n/a
146.2165	0.0755	292433	keystroke_g	g	n/a
146.322	0.09	292644	keystroke_Key.space	Key.space	n/a
146.457	0.105	292914	keystroke_r	r	n/a
146.517	0.12	293034	keystroke_e	e	n/a
146.6665	0.0605	293333	keystroke_f	f	n/a
146.7865	0.1205	293573	keystroke_f	f	n/a
146.922	0.105	293844	keystroke_e	e	n/a
146.982	0.105	293964	keystroke_r	r	n/a
147.102	0.045	294204	keystroke_i	i	n/a
147.252	0.06	294504	keystroke_n	n	n/a
147.327	0.075	294654	keystroke_g	g	n/a
147.402	0.075	294804	keystroke_Key.space	Key.space	n/a
147.522	0.12	295044	keystroke_a	a	n/a
147.687	0.075	295374	keystroke_i	i	n/a
147.762	0.0895	295524	keystroke_r	r	n/a
147.911	0.076	295822	keystroke_p	p	n/a
148.091	0.061	296182	keystroke_o	o	n/a
148.182	0.12	296364	keystroke_t	t	n/a
148.2715	0.0905	296543	keystroke_s	s	n/a
148.542	0.059	297084	keystroke_s	s	n/a
148.646	0.045	297292	keystroke_Key.space	Key.space	n/a
148.917	0.045	297834	keystroke_Key.backspace	Key.backspace	n/a
149.051	0.075	298102	keystroke_Key.backspace	Key.backspace	n/a
149.262	0.105	298524	keystroke_Key.backspace	Key.backspace	n/a
149.457	0.075	298914	keystroke_Key.backspace	Key.backspace	n/a
149.577	0.045	299154	keystroke_r	r	n/a
149.712	0.09	299424	keystroke_t	t	n/a
149.847	0.105	299694	keystroke_s	s	n/a
149.982	0.105	299964	keystroke_Key.space	Key.space	n/a
150.087	0.105	300174	keystroke_c	c	n/a
150.237	0.075	300474	keystroke_h	h	n/a
150.297	0.18	300594	keystroke_a	a	n/a
150.431	0.076	300862	keystroke_r	r	n/a
150.492	0.075	300984	keystroke_m	m	n/a
150.672	0.045	301344	keystroke_i	i	n/a
150.822	0.09	301644	keystroke_n	n	n/a
150.882	0.09	301764	keystroke_g	g	n/a
151.152	0.105	302304	keystroke_Key.enter	Key.enter	n/a
151.2635	10.66	302527	prompt	n/a	fabric action sandwich delaware\n
151.872	0.12	303744	keystroke_f	f	n/a
151.9765	0.135	303953	keystroke_a	a	n/a
152.0815	0.105	304163	keystroke_v	v	n/a
152.3065	0.09	304613	keystroke_r	r	n/a
152.5315	0.03	305063	keystroke_i	i	n/a
152.7115	0.06	305423	keystroke_Key.backspace	Key.backspace	n/a
152.831	0.076	305662	keystroke_Key.backspace	Key.backspace	n/a
152.966	0.106	305932	keystroke_b	b	n/a
152.967	0.12	305934	keystroke_Key.backspace	Key.backspace	n/a
153.372	0.075	306744	keystroke_Key.backspace	Key.backspace	n/a
153.492	0.09	306984	keystroke_b	b	n/a
153.687	0.0905	307374	keystroke_r	r	n/a
153.867	0.09	307734	keystroke_i	i	n/a
153.912	0.06	307824	keystroke_t	t	n/a
154.122	0.075	308244	keystroke_c	c	n/a
154.242	0.045	308484	keystroke_Key.space	Key.space	n/a
154.467	0.06	308934	keystroke_Key.backspace	Key.backspace	n/a
154.617	0.06	309234	keystroke_Key.backspace	Key.backspace	n/a
154.767	0.0595	309534	keystroke_Key.backspace	Key.backspace	n/a
154.917	0.03	309834	keystroke_Key.backspace	Key.backspace	n/a
155.771	0.106	311542	keystroke_Key.backspace	Key.backspace	n/a
156.1765	0.0905	312353	keystroke_r	r	n/a
156.431	0.075	312862	keystroke_i	i	n/a
156.536	0.091	313072	keystroke_c	c	n/a
156.6865	0.0755	313373	keystroke_Key.space	Key.space	n/a
156.8815	0.105	313763	keystroke_a	a	n/a
157.032	0.0745	314064	keystroke_c	c	n/a
157.242	0.075	314484	keystroke_t	t	n/a
157.287	0.045	314574	keystroke_i	i	n/a
157.5115	0.0455	315023	keystroke_o	o	n/a
157.7215	0.0455	315443	keystroke_n	n	n/a
157.9165	0.075	315833	keystroke_Key.space	Key.space	n/a
158.4565	0.1955	316913	keystroke_s	s	n/a
158.607	0.12	317214	keystroke_a	a	n/a
158.667	0.03	317334	keystroke_n	n	n/a
159.087	0.06	318174	keystroke_d	d	n/a
159.297	0.0595	318594	keystroke_w	w	n/a
159.596	0.06	319192	keystroke_i	i	n/a
159.747	0.045	319494	keystroke_c	c	n/a
159.807	0.06	319614	keystroke_h	h	n/a
160.002	0.09	320004	keystroke_Key.space	Key.space	n/a
160.1065	0.1205	320213	keystroke_d	d	n/a
160.212	0.105	320424	keystroke_e	e	n/a
160.362	0.045	320724	keystroke_l	l	n/a
160.467	0.105	320934	keystroke_a	a	n/a
160.542	0.075	321084	keystroke_t	t	n/a
161.006	0.061	322012	keystroke_Key.backspace	Key.backspace	n/a
161.3665	0.1955	322733	keystroke_w	w	n/a
161.517	0.12	323034	keystroke_a	a	n/a
161.6065	0.15	323213	keystroke_r	r	n/a
161.7115	0.135	323423	keystroke_e	e	n/a
161.8315	0.09	323663	keystroke_Key.enter	Key.enter	n/a
161.928	5.755	323856	prompt	n/a	court emotional learning recognize\n
162.5815	0.0605	325163	keystroke_c	c	n/a
162.672	0.06	325344	keystroke_o	o	n/a
162.867	0.06	325734	keystroke_u	u	n/a
162.942	0.075	325884	keystroke_r	r	n/a
163.301	0.091	326602	keystroke_t	t	n/a
163.481	0.06	326962	keystroke_Key.space	Key.space	n/a
163.7965	0.0755	327593	keystroke_e	e	n/a
163.8865	0.0755	327773	keystroke_m	m	n/a
164.097	0.06	328194	keystroke_o	o	n/a
164.171	0.09	328342	keystroke_t	t	n/a
164.276	0.061	328552	keystroke_i	i	n/a
164.4415	0.0455	328883	keystroke_o	o	n/a
164.456	0.076	328912	keystroke_n	n	n/a
164.651	0.0755	329302	keystroke_a	a	n/a
164.772	0.074	329544	keystroke_l	l	n/a
164.966	0.06	329932	keystroke_Key.space	Key.space	n/a
165.162	0.059	330324	keystroke_l	l	n/a
165.237	0.225	330474	keystroke_e	e	n/a
165.432	0.135	330864	keystroke_a	a	n/a
165.537	0.105	331074	keystroke_r	r	n/a
165.672	0.075	331344	keystroke_n	n	n/a
165.867	0.06	331734	keystroke_i	i	n/a
166.032	0.074	332064	keystroke_n	n	n/a
166.107	0.074	332214	keystroke_g	g	n/a
166.212	0.074	332424	keystroke_Key.space	Key.space	n/a
166.422	0.089	332844	keystroke_r	r	n/a
166.481	0.121	332962	keystroke_e	e	n/a
166.647	0.0595	333294	keystroke_c	c	n/a
166.767	0.074	333534	keystroke_o	o	n/a
166.932	0.075	333864	keystroke_g	g	n/a
167.0665	0.0605	334133	keystroke_n	n	n/a
167.261	0.046	334522	keystroke_i	i	n/a
167.3365	0.1645	334673	keystroke_z	z	n/a
167.442	0.135	334884	keystroke_e	e	n/a
167.591	0.0905	335182	keystroke_Key.enter	Key.enter	n/a
167.6885	7.0895	335377	prompt	n/a	trains invalid olympics wife\n
168.2215	0.075	336443	keystroke_t	t	n/a
168.372	0.135	336744	keystroke_r	r	n/a
168.477	0.105	336954	keystroke_a	a	n/a
168.597	0.0595	337194	keystroke_i	i	n/a
168.762	0.075	337524	keystroke_n	n	n/a
168.867	0.105	337734	keystroke_s	s	n/a
168.9865	0.0755	337973	keystroke_Key.space	Key.space	n/a
169.422	0.075	338844	keystroke_n	n	n/a
169.512	0.105	339024	keystroke_v	v	n/a
169.632	0.105	339264	keystroke_a	a	n/a
169.9765	0.06	339953	keystroke_Key.backspace	Key.backspace	n/a
170.127	0.06	340254	keystroke_Key.backspace	Key.backspace	n/a
170.246	0.09	340492	keystroke_Key.backspace	Key.backspace	n/a
170.4265	0.0605	340853	keystroke_i	i	n/a
170.561	0.106	341122	keystroke_n	n	n/a
170.667	0.105	341334	keystroke_v	v	n/a
170.757	0.09	341514	keystroke_a	a	n/a
170.9815	0.075	341963	keystroke_l	l	n/a
171.1765	0.0755	342353	keystroke_i	i	n/a
171.2665	0.0905	342533	keystroke_d	d	n/a
171.3865	0.1055	342773	keystroke_Key.space	Key.space	n/a
171.687	0.045	343374	keystroke_o	o	n/a
172.137	0.09	344274	keystroke_l	l	n/a
172.317	0.075	344634	keystroke_y	y	n/a
172.737	0.075	345474	keystroke_m	m	n/a
172.962	0.06	345924	keystroke_p	p	n/a
173.067	0.045	346134	keystroke_t	t	n/a
173.172	0.045	346344	keystroke_i	i	n/a
173.351	0.076	346702	keystroke_Key.backspace	Key.backspace	n/a
173.502	0.059	347004	keystroke_Key.backspace	Key.backspace	n/a
173.652	0.074	347304	keystroke_i	i	n/a
173.742	0.12	347484	keystroke_c	c	n/a
173.817	0.105	347634	keystroke_s	s	n/a
173.951	0.0605	347902	keystroke_Key.space	Key.space	n/a
174.237	0.06	348474	keystroke_w	w	n/a
174.3565	0.0755	348713	keystroke_i	i	n/a
174.477	0.1645	348954	keystroke_f	f	n/a
174.5665	0.15	349133	keystroke_e	e	n/a
174.7015	0.075	349403	keystroke_Key.enter	Key.enter	n/a
174.783	8.125	349566	prompt	n/a	alphabetical aquatic manufacture chrysler\n
175.377	0.1195	350754	keystroke_a	a	n/a
175.4815	0.09	350963	keystroke_l	l	n/a
175.6615	0.075	351323	keystroke_h	h	n/a
175.9915	0.09	351983	keystroke_Key.backspace	Key.backspace	n/a
176.097	0.0895	352194	keystroke_p	p	n/a
176.1565	0.09	352313	keystroke_h	h	n/a
176.337	0.1045	352674	keystroke_a	a	n/a
176.5915	0.1045	353183	keystroke_b	b	n/a
176.666	0.135	353332	keystroke_e	e	n/a
176.831	0.075	353662	keystroke_t	t	n/a
176.996	0.075	353992	keystroke_i	i	n/a
177.086	0.09	354172	keystroke_c	c	n/a
177.147	0.105	354294	keystroke_a	a	n/a
177.266	0.06	354532	keystroke_l	l	n/a
177.3865	0.045	354773	keystroke_Key.space	Key.space	n/a
177.7765	0.09	355553	keystroke_a	a	n/a
178.0015	0.105	356003	keystroke_q	q	n/a
178.2565	0.06	356513	keystroke_u	u	n/a
178.347	0.105	356694	keystroke_a	a	n/a
178.481	0.0755	356962	keystroke_t	t	n/a
178.647	0.06	357294	keystroke_i	i	n/a
178.9165	0.0605	357833	keystroke_c	c	n/a
179.0365	0.0895	358073	keystroke_Key.space	Key.space	n/a
179.292	0.06	358584	keystroke_m	m	n/a
179.352	0.119	358704	keystroke_a	a	n/a
179.487	0.0745	358974	keystroke_n	n	n/a
179.7115	0.06	359423	keystroke_u	u	n/a
179.8915	0.09	359783	keystroke_f	f	n/a
180.0115	0.15	360023	keystroke_a	a	n/a
180.117	0.0745	360234	keystroke_c	c	n/a
180.312	0.09	360624	keystroke_t	t	n/a
180.537	0.075	361074	keystroke_u	u	n/a
180.597	0.15	361194	keystroke_r	r	n/a
180.687	0.12	361374	keystroke_e	e	n/a
180.867	0.074	361734	keystroke_Key.space	Key.space	n/a
181.137	0.06	362274	keystroke_c	c	n/a
181.257	0.06	362514	keystroke_h	h	n/a
181.392	0.074	362784	keystroke_r	r	n/a
181.6465	0.09	363293	keystroke_y	y	n/a
181.9765	0.09	363953	keystroke_s	s	n/a
182.201	0.03	364402	keystroke_t	t	n/a
182.411	0.0755	364822	keystroke_Key.backspace	Key.backspace	n/a
182.576	0.09	365152	keystroke_l	l	n/a
182.652	0.104	365304	keystroke_e	e	n/a
182.681	0.1355	365362	keystroke_r	r	n/a
182.817	0.089	365634	keystroke_Key.enter	Key.enter	n/a
182.914	6.069	365828	prompt	n/a	mounted talking concerning spiritual\n
183.477	0.0895	366954	keystroke_m	m	n/a
183.6715	0.045	367343	keystroke_o	o	n/a
183.822	0.0595	367644	keystroke_u	u	n/a
183.9865	0.09	367973	keystroke_n	n	n/a
184.062	0.1195	368124	keystroke_t	t	n/a
184.1515	0.09	368303	keystroke_e	e	n/a
184.317	0.0745	368634	keystroke_d	d	n/a
184.4065	0.0895	368813	keystroke_Key.space	Key.space	n/a
184.6765	0.09	369353	keystroke_t	t	n/a
184.7365	0.105	369473	keystroke_a	a	n/a
184.8265	0.0605	369653	keystroke_l	l	n/a
184.992	0.045	369984	keystroke_k	k	n/a
185.1265	0.0605	370253	keystroke_i	i	n/a
185.172	0.1195	370344	keystroke_n	n	n/a
185.2465	0.075	370493	keystroke_g	g	n/a
185.3515	0.09	370703	keystroke_Key.space	Key.space	n/a
185.5015	0.06	371003	keystroke_c	c	n/a
185.607	0.0595	371214	keystroke_o	o	n/a
185.7865	0.0745	371573	keystroke_n	n	n/a
185.832	0.119	371664	keystroke_c	c	n/a
185.9365	0.165	371873	keystroke_e	e	n/a
186.0715	0.0745	372143	keystroke_r	r	n/a
186.161	0.06	372322	keystroke_n	n	n/a
186.326	0.045	372652	keystroke_i	i	n/a
186.462	0.074	372924	keystroke_n	n	n/a
186.521	0.0905	373042	keystroke_g	g	n/a
186.6265	0.0895	373253	keystroke_Key.space	Key.space	n/a
186.7765	0.1045	373553	keystroke_s	s	n/a
186.896	0.09	373792	keystroke_p	p	n/a
187.107	0.09	374214	keystroke_i	i	n/a
187.182	0.105	374364	keystroke_r	r	n/a
187.3465	0.0905	374693	keystroke_i	i	n/a
187.4515	0.0605	374903	keystroke_t	t	n/a
187.6915	0.0595	375383	keystroke_u	u	n/a
187.826	0.09	375652	keystroke_a	a	n/a
187.977	0.0595	375954	keystroke_l	l	n/a
188.067	0.0745	376134	keystroke_s	s	n/a
188.396	0.0755	376792	keystroke_Key.backspace	Key.backspace	n/a
188.8915	0.09	377783	keystroke_Key.enter	Key.enter	n/a
188.99	7.0285	377980	prompt	n/a	plates mechanics range rate\n
189.5515	0.09	379103	keystroke_p	p	n/a
189.717	0.1045	379434	keystroke_l	l	n/a
189.7765	0.12	379553	keystroke_a	a	n/a
189.9115	0.06	379823	keystroke_y	y	n/a
189.9865	0.0745	379973	keystroke_e	e	n/a
190.511	0.06	381022	keystroke_Key.backspace	Key.backspace	n/a
190.766	0.0755	381532	keystroke_Key.backspace	Key.backspace	n/a
190.977	0.105	381954	keystroke_t	t	n/a
191.097	0.09	382194	keystroke_s	s	n/a
191.4265	0.105	382853	keystroke_Key.space	Key.space	n/a
191.8615	0.075	383723	keystroke_Key.backspace	Key.backspace	n/a
192.0115	0.0595	384023	keystroke_Key.backspace	Key.backspace	n/a
192.311	0.105	384622	keystroke_e	e	n/a
192.537	0.075	385074	keystroke_s	s	n/a
192.6265	0.1045	385253	keystroke_Key.space	Key.space	n/a
192.8965	0.1195	385793	keystroke_m	m	n/a
192.971	0.09	385942	keystroke_e	e	n/a
193.076	0.0605	386152	keystroke_c	c	n/a
193.1815	0.0745	386363	keystroke_h	h	n/a
193.271	0.1055	386542	keystroke_a	a	n/a
193.392	0.075	386784	keystroke_n	n	n/a
193.4515	0.09	386903	keystroke_c	c	n/a
193.6165	0.0755	387233	keystroke_i	i	n/a
193.991	0.061	387982	keystroke_Key.backspace	Key.backspace	n/a
194.1115	0.089	388223	keystroke_Key.backspace	Key.backspace	n/a
194.307	0.06	388614	keystroke_i	i	n/a
194.382	0.1195	388764	keystroke_c	c	n/a
194.517	0.075	389034	keystroke_s	s	n/a
194.621	0.0745	389242	keystroke_Key.space	Key.space	n/a
194.967	0.1195	389934	keystroke_r	r	n/a
195.057	0.134	390114	keystroke_a	a	n/a
195.1765	0.06	390353	keystroke_n	n	n/a
195.2215	0.1205	390443	keystroke_g	g	n/a
195.2965	0.105	390593	keystroke_e	e	n/a
195.4315	0.045	390863	keystroke_Key.space	Key.space	n/a
195.521	0.121	391042	keystroke_r	r	n/a
195.611	0.136	391222	keystroke_a	a	n/a
195.7165	0.1195	391433	keystroke_t	t	n/a
195.792	0.1195	391584	keystroke_e	e	n/a
195.9265	0.0895	391853	keystroke_Key.enter	Key.enter	n/a
196.027	8.6165	392054	prompt	n/a	pharmaceutical organic probability nikon\n
196.7365	0.06	393473	keystroke_p	p	n/a
196.9165	0.09	393833	keystroke_h	h	n/a
197.0815	0.105	394163	keystroke_a	a	n/a
197.2015	0.0905	394403	keystroke_r	r	n/a
197.442	0.075	394884	keystroke_m	m	n/a
197.592	0.075	395184	keystroke_a	a	n/a
197.877	0.074	395754	keystroke_c	c	n/a
198.0865	0.105	396173	keystroke_e	e	n/a
198.4015	0.075	396803	keystroke_u	u	n/a
198.5815	0.0895	397163	keystroke_t	t	n/a
198.747	0.075	397494	keystroke_i	i	n/a
198.866	0.1205	397732	keystroke_c	c	n/a
198.942	0.0895	397884	keystroke_a	a	n/a
199.0465	0.06	398093	keystroke_l	l	n/a
199.2115	0.075	398423	keystroke_Key.space	Key.space	n/a
199.4215	0.0455	398843	keystroke_o	o	n/a
199.4815	0.105	398963	keystroke_r	r	n/a
199.6615	0.105	399323	keystroke_g	g	n/a
199.7815	0.105	399563	keystroke_a	a	n/a
199.9165	0.0605	399833	keystroke_n	n	n/a
200.112	0.059	400224	keystroke_i	i	n/a
200.232	0.075	400464	keystroke_c	c	n/a
200.307	0.089	400614	keystroke_Key.space	Key.space	n/a
200.652	0.06	401304	keystroke_p	p	n/a
200.772	0.0745	401544	keystroke_r	r	n/a
200.9215	0.0605	401843	keystroke_o	o	n/a
201.027	0.0895	402054	keystroke_b	b	n/a
201.1315	0.1355	402263	keystroke_a	a	n/a
201.2365	0.0755	402473	keystroke_b	b	n/a
201.927	0.045	403854	keystroke_i	i	n/a
202.092	0.075	404184	keystroke_l	l	n/a
202.2565	0.075	404513	keystroke_i	i	n/a
202.3165	0.045	404633	keystroke_t	t	n/a
202.542	0.12	405084	keystroke_y	y	n/a
202.766	0.075	405532	keystroke_Key.space	Key.space	n/a
202.992	0.0595	405984	keystroke_k	k	n/a
203.5015	0.0595	407003	keystroke_Key.backspace	Key.backspace	n/a
203.622	0.075	407244	keystroke_n	n	n/a
203.727	0.0745	407454	keystroke_i	i	n/a
203.952	0.0595	407904	keystroke_k	k	n/a
204.1465	0.06	408293	keystroke_o	o	n/a
204.3415	0.075	408683	keystroke_n	n	n/a
204.5515	0.09	409103	keystroke_Key.enter	Key.enter	n/a
204.6475	6.176	409295	prompt	n/a	victim bankruptcy looking plains\n
205.331	0.06	410662	keystroke_v	v	n/a
205.4365	0.075	410873	keystroke_i	i	n/a
205.5265	0.09	411053	keystroke_c	c	n/a
205.7215	0.0745	411443	keystroke_t	t	n/a
205.842	0.075	411684	keystroke_i	i	n/a
206.022	0.075	412044	keystroke_m	m	n/a
206.4715	0.105	412943	keystroke_Key.space	Key.space	n/a
206.7415	0.09	413483	keystroke_b	b	n/a
206.8765	0.09	413753	keystroke_a	a	n/a
206.9965	0.09	413993	keystroke_n	n	n/a
207.2215	0.075	414443	keystroke_k	k	n/a
207.3115	0.09	414623	keystroke_r	r	n/a
207.6115	0.06	415223	keystroke_u	u	n/a
207.972	0.075	415944	keystroke_p	p	n/a
208.0915	0.075	416183	keystroke_t	t	n/a
208.3465	0.045	416693	keystroke_c	c	n/a
208.5715	0.06	417143	keystroke_y	y	n/a
208.7215	0.075	417443	keystroke_Key.space	Key.space	n/a
208.991	0.015	417982	keystroke_l	l	n/a
209.141	0.045	418282	keystroke_o	o	n/a
209.276	0.045	418552	keystroke_o	o	n/a
209.441	0.031	418882	keystroke_k	k	n/a
209.562	0.0615	419124	keystroke_i	i	n/a
209.606	0.121	419212	keystroke_n	n	n/a
209.667	0.1195	419334	keystroke_g	g	n/a
209.8015	0.06	419603	keystroke_Key.space	Key.space	n/a
210.0115	0.0455	420023	keystroke_p	p	n/a
210.1765	0.06	420353	keystroke_l	l	n/a
210.2515	0.0755	420503	keystroke_a	a	n/a
210.3415	0.045	420683	keystroke_i	i	n/a
210.5065	0.0905	421013	keystroke_n	n	n/a
210.5815	0.09	421163	keystroke_s	s	n/a
210.7165	0.105	421433	keystroke_Key.enter	Key.enter	n/a
210.8275	6.476	421655	prompt	n/a	surround fabric achievement toolbox\n
211.4215	0.18	422843	keystroke_s	s	n/a
211.7665	0.06	423533	keystroke_u	u	n/a
212.0215	0.075	424043	keystroke_r	r	n/a
212.1565	0.0905	424313	keystroke_r	r	n/a
212.2615	0.0755	424523	keystroke_o	o	n/a
212.4415	0.06	424883	keystroke_u	u	n/a
212.6365	0.06	425273	keystroke_n	n	n/a
212.6665	0.0755	425333	keystroke_d	d	n/a
212.8015	0.075	425603	keystroke_Key.space	Key.space	n/a
213.042	0.075	426084	keystroke_a	a	n/a
213.342	0.06	426684	keystroke_Key.backspace	Key.backspace	n/a
213.387	0.12	426774	keystroke_f	f	n/a
213.492	0.15	426984	keystroke_a	a	n/a
213.627	0.104	427254	keystroke_b	b	n/a
213.8965	0.0745	427793	keystroke_r	r	n/a
214.016	0.061	428032	keystroke_i	i	n/a
214.1215	0.0895	428243	keystroke_c	c	n/a
214.2565	0.075	428513	keystroke_Key.space	Key.space	n/a
214.451	0.061	428902	keystroke_a	a	n/a
214.587	0.0895	429174	keystroke_c	c	n/a
214.722	0.0595	429444	keystroke_h	h	n/a
215.082	0.06	430164	keystroke_i	i	n/a
215.247	0.075	430494	keystroke_e	e	n/a
215.382	0.15	430764	keystroke_v	v	n/a
215.502	0.09	431004	keystroke_e	e	n/a
215.682	0.075	431364	keystroke_m	m	n/a
215.772	0.1195	431544	keystroke_e	e	n/a
215.8765	0.075	431753	keystroke_n	n	n/a
215.937	0.09	431874	keystroke_t	t	n/a
216.0565	0.0745	432113	keystroke_Key.space	Key.space	n/a
216.177	0.1045	432354	keystroke_t	t	n/a
216.266	0.075	432532	keystroke_o	o	n/a
216.4015	0.075	432803	keystroke_o	o	n/a
216.551	0.1055	433102	keystroke_l	l	n/a
216.7915	0.0755	433583	keystroke_b	b	n/a
216.927	0.0595	433854	keystroke_o	o	n/a
217.032	0.1045	434064	keystroke_x	x	n/a
217.181	0.1205	434362	keystroke_Key.enter	Key.enter	n/a
217.31	7.8085	434620	prompt	n/a	strand reproduced radius personalized\n
217.947	0.165	435894	keystroke_s	s	n/a
218.097	0.075	436194	keystroke_t	t	n/a
218.277	0.119	436554	keystroke_r	r	n/a
218.367	0.134	436734	keystroke_a	a	n/a
218.486	0.0905	436972	keystroke_n	n	n/a
218.712	0.0745	437424	keystroke_d	d	n/a
218.8165	0.075	437633	keystroke_Key.space	Key.space	n/a
219.027	0.1195	438054	keystroke_r	r	n/a
219.1165	0.1055	438233	keystroke_e	e	n/a
219.2515	0.0605	438503	keystroke_p	p	n/a
219.416	0.105	438832	keystroke_o	o	n/a
219.477	0.105	438954	keystroke_r	r	n/a
220.2115	0.059	440423	keystroke_Key.backspace	Key.backspace	n/a
220.3315	0.1055	440663	keystroke_Key.backspace	Key.backspace	n/a
220.437	0.075	440874	keystroke_r	r	n/a
220.512	0.09	441024	keystroke_o	o	n/a
220.677	0.0595	441354	keystroke_d	d	n/a
220.8565	0.0745	441713	keystroke_u	u	n/a
220.916	0.1205	441832	keystroke_c	c	n/a
221.021	0.151	442042	keystroke_e	e	n/a
221.1565	0.1055	442313	keystroke_d	d	n/a
221.2905	0.076	442581	keystroke_Key.space	Key.space	n/a
221.3815	0.12	442763	keystroke_r	r	n/a
221.517	0.1495	443034	keystroke_a	a	n/a
221.6515	0.09	443303	keystroke_d	d	n/a
221.8015	0.0755	443603	keystroke_i	i	n/a
221.9665	0.09	443933	keystroke_u	u	n/a
222.087	0.0895	444174	keystroke_s	s	n/a
222.2215	0.105	444443	keystroke_Key.space	Key.space	n/a
222.4315	0.06	444863	keystroke_r	r	n/a
222.821	0.09	445642	keystroke_Key.backspace	Key.backspace	n/a
222.957	0.134	445914	keystroke_p	p	n/a
223.076	0.1205	446152	keystroke_e	e	n/a
223.122	0.12	446244	keystroke_r	r	n/a
223.302	0.105	446604	keystroke_o	o	n/a
223.631	0.0755	447262	keystroke_Key.backspace	Key.backspace	n/a
223.7515	0.09	447503	keystroke_s	s	n/a
223.8565	0.0305	447713	keystroke_o	o	n/a
224.0515	0.075	448103	keystroke_n	n	n/a
224.172	0.0895	448344	keystroke_a	a	n/a
224.3365	0.0755	448673	keystroke_l	l	n/a
224.517	0.0745	449034	keystroke_i	i	n/a
224.5615	0.15	449123	keystroke_z	z	n/a
224.6815	0.105	449363	keystroke_e	e	n/a
224.832	0.09	449664	keystroke_d	d	n/a
224.9815	0.135	449963	keystroke_Key.enter	Key.enter	n/a
225.124	8.769	450248	prompt	n/a	endorsement placed synopsis pleasure\n
225.6715	0.0905	451343	keystroke_e	e	n/a
225.8815	0.0605	451763	keystroke_n	n	n/a
226.0915	0.075	452183	keystroke_d	d	n/a
226.2115	0.045	452423	keystroke_o	o	n/a
226.302	0.105	452604	keystroke_r	r	n/a
226.7365	0.12	453473	keystroke_s	s	n/a
226.9615	0.06	453923	keystroke_e	e	n/a
227.622	0.044	455244	keystroke_m	m	n/a
227.726	0.09	455452	keystroke_e	e	n/a
227.801	0.0905	455602	keystroke_n	n	n/a
227.877	0.0895	455754	keystroke_t	t	n/a
227.996	0.0755	455992	keystroke_Key.space	Key.space	n/a
228.221	0.0455	456442	keystroke_p	p	n/a
228.371	0.091	456742	keystroke_l	l	n/a
228.446	0.121	456892	keystroke_a	a	n/a
228.5515	0.1355	457103	keystroke_c	c	n/a
228.657	0.105	457314	keystroke_e	e	n/a
228.806	0.0905	457612	keystroke_d	d	n/a
228.941	0.0905	457882	keystroke_Key.space	Key.space	n/a
229.272	0.089	458544	keystroke_s	s	n/a
229.4665	0.0755	458933	keystroke_y	y	n/a
229.797	0.075	459594	keystroke_n	n	n/a
230.367	0.075	460734	keystroke_o	o	n/a
230.607	0.09	461214	keystroke_p	p	n/a
231.1015	0.0745	462203	keystroke_s	s	n/a
231.206	0.09	462412	keystroke_i	i	n/a
231.311	0.075	462622	keystroke_s	s	n/a
231.4615	0.09	462923	keystroke_Key.space	Key.space	n/a
231.7165	0.045	463433	keystroke_p	p	n/a
231.867	0.089	463734	keystroke_l	l	n/a
231.941	0.15	463882	keystroke_e	e	n/a
232.076	0.165	464152	keystroke_a	a	n/a
232.197	0.1045	464394	keystroke_s	s	n/a
232.4065	0.0905	464813	keystroke_e	e	n/a
232.857	0.0445	465714	keystroke_u	u	n/a
233.0365	0.075	466073	keystroke_Key.backspace	Key.backspace	n/a
233.1565	0.105	466313	keystroke_Key.backspace	Key.backspace	n/a
233.4565	0.045	466913	keystroke_u	u	n/a
233.5165	0.135	467033	keystroke_r	r	n/a
233.5915	0.12	467183	keystroke_e	e	n/a
233.8315	0.06	467663	keystroke_Key.enter	Key.enter	n/a
233.897	9.0565	467794	prompt	n/a	revolutionary appendix gamecube socks\n
234.447	0.0745	468894	keystroke_r	r	n/a
234.4915	0.09	468983	keystroke_e	e	n/a
234.6715	0.0455	469343	keystroke_v	v	n/a
234.807	0.0595	469614	keystroke_o	o	n/a
234.9715	0.09	469943	keystroke_l	l	n/a
235.182	0.0745	470364	keystroke_u	u	n/a
235.3015	0.105	470603	keystroke_t	t	n/a
235.4365	0.06	470873	keystroke_i	i	n/a
235.5865	0.09	471173	keystroke_o	o	n/a
235.6465	0.0895	471293	keystroke_n	n	n/a
235.826	0.136	471652	keystroke_a	a	n/a
235.991	0.12	471982	keystroke_r	r	n/a
236.217	0.09	472434	keystroke_y	y	n/a
236.351	0.09	472702	keystroke_Key.space	Key.space	n/a
236.4715	0.0895	472943	keystroke_a	a	n/a
236.621	0.06	473242	keystroke_p	p	n/a
236.741	0.06	473482	keystroke_p	p	n/a
236.8315	0.0745	473663	keystroke_e	e	n/a
236.951	0.09	473902	keystroke_n	n	n/a
237.071	0.045	474142	keystroke_d	d	n/a
237.176	0.0605	474352	keystroke_i	i	n/a
237.461	0.03	474922	keystroke_Key.space	Key.space	n/a
237.5965	0.0605	475193	keystroke_x	x	n/a
237.881	0.0605	475762	keystroke_Key.backspace	Key.backspace	n/a
237.9865	0.075	475973	keystroke_Key.backspace	Key.backspace	n/a
238.0765	0.075	476153	keystroke_x	x	n/a
238.1965	0.09	476393	keystroke_Key.space	Key.space	n/a
238.5865	0.12	477173	keystroke_g	g	n/a
238.6915	0.06	477383	keystroke_a	a	n/a
238.8265	0.075	477653	keystroke_n	n	n/a
238.9465	0.0455	477893	keystroke_g	g	n/a
239.2465	0.06	478493	keystroke_Key.backspace	Key.backspace	n/a
239.307	0.09	478614	keystroke_e	e	n/a
239.5015	0.0605	479003	keystroke_c	c	n/a
239.7865	0.075	479573	keystroke_Key.backspace	Key.backspace	n/a
239.9365	0.06	479873	keystroke_Key.backspace	Key.backspace	n/a
240.0415	0.105	480083	keystroke_Key.backspace	Key.backspace	n/a
240.371	0.0755	480742	keystroke_e	e	n/a
240.6265	0.06	481253	keystroke_Key.backspace	Key.backspace	n/a
240.792	0.105	481584	keystroke_m	m	n/a
240.9115	0.0755	481823	keystroke_e	e	n/a
241.1065	0.06	482213	keystroke_c	c	n/a
241.2715	0.045	482543	keystroke_u	u	n/a
241.3915	0.0455	482783	keystroke_d	d	n/a
241.676	0.076	483352	keystroke_Key.backspace	Key.backspace	n/a
241.752	0.1045	483504	keystroke_b	b	n/a
241.8415	0.09	483683	keystroke_e	e	n/a
242.0215	0.06	484043	keystroke_Key.space	Key.space	n/a
242.276	0.1055	484552	keystroke_s	s	n/a
242.382	0.044	484764	keystroke_o	o	n/a
242.4565	0.09	484913	keystroke_c	c	n/a
242.5615	0.06	485123	keystroke_k	k	n/a
242.6215	0.105	485243	keystroke_s	s	n/a
242.8315	0.12	485663	keystroke_Key.enter	Key.enter	n/a
242.959	6.699	485918	prompt	n/a	signed florida stable varieties\n
243.4315	0.12	486863	keystroke_r	r	n/a
243.7305	0.09	487461	keystroke_Key.backspace	Key.backspace	n/a
243.867	0.105	487734	keystroke_s	s	n/a
243.972	0.0745	487944	keystroke_i	i	n/a
244.1215	0.06	488243	keystroke_g	g	n/a
244.227	0.0745	488454	keystroke_n	n	n/a
244.437	0.089	488874	keystroke_e	e	n/a
244.571	0.09	489142	keystroke_d	d	n/a
244.676	0.075	489352	keystroke_Key.space	Key.space	n/a
244.841	0.091	489682	keystroke_f	f	n/a
244.946	0.061	489892	keystroke_l	l	n/a
245.112	0.0595	490224	keystroke_o	o	n/a
245.1415	0.1055	490283	keystroke_r	r	n/a
245.291	0.076	490582	keystroke_i	i	n/a
245.381	0.135	490762	keystroke_d	d	n/a
245.4865	0.1195	490973	keystroke_a	a	n/a
245.621	0.075	491242	keystroke_Key.space	Key.space	n/a
245.801	0.1205	491602	keystroke_s	s	n/a
245.9065	0.1205	491813	keystroke_t	t	n/a
246.042	0.105	492084	keystroke_a	a	n/a
246.176	0.075	492352	keystroke_b	b	n/a
246.2815	0.075	492563	keystroke_l	l	n/a
246.3715	0.0745	492743	keystroke_e	e	n/a
246.4915	0.0895	492983	keystroke_Key.space	Key.space	n/a
246.612	0.1195	493224	keystroke_v	v	n/a
246.7315	0.1505	493463	keystroke_a	a	n/a
246.8515	0.105	493703	keystroke_r	r	n/a
247.0015	0.0895	494003	keystroke_i	i	n/a
247.992	0.105	495984	keystroke_e	e	n/a
248.157	0.089	496314	keystroke_t	t	n/a
248.3365	0.045	496673	keystroke_i	i	n/a
248.6665	0.06	497333	keystroke_e	e	n/a
248.8465	0.075	497693	keystroke_s	s	n/a
249.5215	0.135	499043	keystroke_Key.enter	Key.enter	n/a
249.663	5.65	499326	prompt	n/a	mode tunnel sentence pledge\n
250.2415	0.075	500483	keystroke_m	m	n/a
250.421	0.0605	500842	keystroke_o	o	n/a
250.4965	0.135	500993	keystroke_d	d	n/a
250.5865	0.12	501173	keystroke_e	e	n/a
250.6915	0.075	501383	keystroke_Key.space	Key.space	n/a
250.7815	0.075	501563	keystroke_t	t	n/a
250.8865	0.0605	501773	keystroke_u	u	n/a
251.067	0.0595	502134	keystroke_n	n	n/a
251.1715	0.09	502343	keystroke_n	n	n/a
251.2915	0.12	502583	keystroke_e	e	n/a
251.3965	0.075	502793	keystroke_l	l	n/a
251.5915	0.105	503183	keystroke_Key.space	Key.space	n/a
251.7265	0.105	503453	keystroke_s	s	n/a
251.9515	0.09	503903	keystroke_e	e	n/a
252.1315	0.06	504263	keystroke_n	n	n/a
252.2065	0.075	504413	keystroke_t	t	n/a
252.4315	0.06	504863	keystroke_e	e	n/a
252.777	0.0595	505554	keystroke_Key.backspace	Key.backspace	n/a
253.1065	0.09	506213	keystroke_e	e	n/a
253.242	0.06	506484	keystroke_n	n	n/a
253.3765	0.075	506753	keystroke_c	c	n/a
253.407	0.1345	506814	keystroke_e	e	n/a
253.5265	0.045	507053	keystroke_Key.space	Key.space	n/a
253.7215	0.06	507443	keystroke_p	p	n/a
253.9015	0.075	507803	keystroke_l	l	n/a
253.9915	0.075	507983	keystroke_d	d	n/a
254.501	0.09	509002	keystroke_Key.backspace	Key.backspace	n/a
254.6215	0.15	509243	keystroke_e	e	n/a
254.7565	0.1045	509513	keystroke_d	d	n/a
254.9815	0.1195	509963	keystroke_g	g	n/a
255.056	0.12	510112	keystroke_e	e	n/a
255.221	0.0905	510442	keystroke_Key.enter	Key.enter	n/a
255.3175	9.011	510635	prompt	n/a	futures cumulative supply consideration\n
255.9265	0.12	511853	keystroke_f	f	n/a
256.0915	0.045	512183	keystroke_u	u	n/a
256.2265	0.03	512453	keystroke_r	r	n/a
256.3165	0.105	512633	keystroke_u	u	n/a
256.4065	0.06	512813	keystroke_t	t	n/a
256.706	0.06	513412	keystroke_Key.backspace	Key.backspace	n/a
256.841	0.18	513682	keystroke_Key.backspace	Key.backspace	n/a
257.291	0.09	514582	keystroke_Key.backspace	Key.backspace	n/a
257.486	0.045	514972	keystroke_t	t	n/a
257.6065	0.0595	515213	keystroke_u	u	n/a
257.801	0.106	515602	keystroke_r	r	n/a
257.951	0.1055	515902	keystroke_e	e	n/a
258.1615	0.06	516323	keystroke_s	s	n/a
258.6565	0.045	517313	keystroke_Key.space	Key.space	n/a
258.8815	0.075	517763	keystroke_c	c	n/a
259.151	0.06	518302	keystroke_u	u	n/a
259.376	0.06	518752	keystroke_m	m	n/a
259.5715	0.0595	519143	keystroke_u	u	n/a
259.9765	0.09	519953	keystroke_l	l	n/a
260.082	0.1495	520164	keystroke_a	a	n/a
260.201	0.06	520402	keystroke_t	t	n/a
260.307	0.074	520614	keystroke_i	i	n/a
260.397	0.12	520794	keystroke_v	v	n/a
260.471	0.1055	520942	keystroke_e	e	n/a
260.5915	0.0895	521183	keystroke_Key.space	Key.space	n/a
260.756	0.0605	521512	keystroke_s	s	n/a
261.0115	0.06	522023	keystroke_u	u	n/a
261.2665	0.045	522533	keystroke_p	p	n/a
261.3865	0.06	522773	keystroke_p	p	n/a
261.6415	0.105	523283	keystroke_l	l	n/a
261.7755	0.061	523551	keystroke_y	y	n/a
261.9565	0.074	523913	keystroke_Key.space	Key.space	n/a
262.3165	0.06	524633	keystroke_c	c	n/a
262.7815	0.075	525563	keystroke_o	o	n/a
262.9455	0.106	525891	keystroke_n	n	n/a
263.052	0.1045	526104	keystroke_s	s	n/a
263.1715	0.09	526343	keystroke_i	i	n/a
263.2455	0.12	526491	keystroke_d	d	n/a
263.3505	0.136	526701	keystroke_e	e	n/a
263.4565	0.09	526913	keystroke_r	r	n/a
263.6505	0.1055	527301	keystroke_a	a	n/a
263.7265	0.1045	527453	keystroke_t	t	n/a
263.831	0.075	527662	keystroke_i	i	n/a
263.981	0.1055	527962	keystroke_o	o	n/a
264.071	0.0755	528142	keystroke_n	n	n/a
264.191	0.135	528382	keystroke_Key.enter	Key.enter	n/a
264.334	8.214	528668	prompt	n/a	subsection everyday fares frequency\n
264.8665	0.09	529733	keystroke_s	s	n/a
265.3165	0.075	530633	keystroke_u	u	n/a
265.4215	0.0605	530843	keystroke_b	b	n/a
265.616	0.09	531232	keystroke_s	s	n/a
265.7815	0.09	531563	keystroke_e	e	n/a
265.8865	0.105	531773	keystroke_c	c	n/a
266.112	0.074	532224	keystroke_t	t	n/a
266.2015	0.0595	532403	keystroke_i	i	n/a
266.366	0.09	532732	keystroke_o	o	n/a
266.4265	0.09	532853	keystroke_n	n	n/a
266.591	0.0905	533182	keystroke_Key.space	Key.space	n/a
267.131	0.12	534262	keystroke_e	e	n/a
267.237	0.1345	534474	keystroke_v	v	n/a
267.356	0.15	534712	keystroke_e	e	n/a
267.491	0.075	534982	keystroke_r	r	n/a
267.641	0.0755	535282	keystroke_y	y	n/a
267.836	0.105	535672	keystroke_d	d	n/a
267.9265	0.1195	535853	keystroke_a	a	n/a
268.0765	0.105	536153	keystroke_y	y	n/a
268.2565	0.0895	536513	keystroke_Key.space	Key.space	n/a
268.391	0.1205	536782	keystroke_f	f	n/a
268.4965	0.135	536993	keystroke_a	a	n/a
268.6015	0.15	537203	keystroke_r	r	n/a
268.7215	0.105	537443	keystroke_e	e	n/a
268.9015	0.075	537803	keystroke_s	s	n/a
269.0365	0.075	538073	keystroke_Key.space	Key.space	n/a
269.201	0.06	538402	keystroke_d	d	n/a
269.546	0.075	539092	keystroke_Key.backspace	Key.backspace	n/a
269.591	0.076	539182	keystroke_f	f	n/a
269.7715	0.12	539543	keystroke_e	e	n/a
270.2965	0.105	540593	keystroke_Key.backspace	Key.backspace	n/a
270.3865	0.045	540773	keystroke_e	e	n/a
270.881	0.12	541762	keystroke_Key.backspace	Key.backspace	n/a
271.1065	0.0595	542213	keystroke_r	r	n/a
271.331	0.12	542662	keystroke_e	e	n/a
271.436	0.0905	542872	keystroke_q	q	n/a
271.6165	0.0895	543233	keystroke_u	u	n/a
271.721	0.105	543442	keystroke_e	e	n/a
271.871	0.075	543742	keystroke_n	n	n/a
271.961	0.075	543922	keystroke_c	c	n/a
272.171	0.075	544342	keystroke_y	y	n/a
272.456	0.09	544912	keystroke_Key.enter	Key.enter	n/a
272.5555	5.1525	545111	prompt	n/a	variable pleasant historic duncan\n
273.191	0.1205	546382	keystroke_v	v	n/a
273.3115	0.135	546623	keystroke_a	a	n/a
273.4165	0.09	546833	keystroke_r	r	n/a
273.5215	0.0745	547043	keystroke_i	i	n/a
273.611	0.135	547222	keystroke_a	a	n/a
273.7315	0.075	547463	keystroke_b	b	n/a
273.821	0.0605	547642	keystroke_l	l	n/a
273.911	0.0905	547822	keystroke_e	e	n/a
274.016	0.09	548032	keystroke_Key.space	Key.space	n/a
274.2565	0.075	548513	keystroke_p	p	n/a
274.4215	0.09	548843	keystroke_l	l	n/a
274.5115	0.12	549023	keystroke_e	e	n/a
274.6015	0.1645	549203	keystroke_a	a	n/a
274.691	0.105	549382	keystroke_s	s	n/a
275.066	0.09	550132	keystroke_a	a	n/a
275.1715	0.0745	550343	keystroke_n	n	n/a
275.2615	0.0745	550523	keystroke_t	t	n/a
275.381	0.075	550762	keystroke_Key.space	Key.space	n/a
275.6515	0.045	551303	keystroke_h	h	n/a
275.7565	0.09	551513	keystroke_i	i	n/a
275.8315	0.09	551663	keystroke_s	s	n/a
275.9515	0.09	551903	keystroke_t	t	n/a
276.0715	0.075	552143	keystroke_o	o	n/a
276.1315	0.075	552263	keystroke_r	r	n/a
276.2965	0.09	552593	keystroke_i	i	n/a
276.4005	0.0605	552801	keystroke_c	c	n/a
276.551	0.09	553102	keystroke_Key.space	Key.space	n/a
276.9115	0.075	553823	keystroke_d	d	n/a
277.0155	0.06	554031	keystroke_u	u	n/a
277.1665	0.09	554333	keystroke_n	n	n/a
277.2715	0.119	554543	keystroke_c	c	n/a
277.3465	0.12	554693	keystroke_a	a	n/a
277.4365	0.075	554873	keystroke_n	n	n/a
277.5855	0.121	555171	keystroke_Key.enter	Key.enter	n/a
277.7115	4.8415	555423	prompt	n/a	who's pressure captain villa\n
278.336	0.09	556672	keystroke_w	w	n/a
278.501	0.0755	557002	keystroke_h	h	n/a
278.5915	0.0595	557183	keystroke_o	o	n/a
278.8165	0.0595	557633	keystroke_'	'	n/a
278.921	0.06	557842	keystroke_s	s	n/a
279.041	0.06	558082	keystroke_Key.space	Key.space	n/a
279.266	0.075	558532	keystroke_p	p	n/a
279.3265	0.1345	558653	keystroke_r	r	n/a
279.4165	0.09	558833	keystroke_e	e	n/a
279.5965	0.06	559193	keystroke_s	s	n/a
279.686	0.105	559372	keystroke_s	s	n/a
280.4815	0.06	560963	keystroke_u	u	n/a
280.5565	0.105	561113	keystroke_r	r	n/a
280.6165	0.105	561233	keystroke_e	e	n/a
280.7365	0.06	561473	keystroke_Key.space	Key.space	n/a
280.8565	0.09	561713	keystroke_c	c	n/a
280.9165	0.09	561833	keystroke_a	a	n/a
281.0665	0.075	562133	keystroke_p	p	n/a
281.1865	0.1045	562373	keystroke_t	t	n/a
281.2765	0.09	562553	keystroke_a	a	n/a
281.381	0.06	562762	keystroke_i	i	n/a
281.5615	0.06	563123	keystroke_n	n	n/a
281.6955	0.09	563391	keystroke_Key.space	Key.space	n/a
281.8165	0.105	563633	keystroke_v	v	n/a
281.9365	0.06	563873	keystroke_i	i	n/a
282.131	0.0455	564262	keystroke_l	l	n/a
282.221	0.09	564442	keystroke_l	l	n/a
282.371	0.09	564742	keystroke_a	a	n/a
282.446	0.105	564892	keystroke_Key.enter	Key.enter	n/a
282.5575	6.37	565115	prompt	n/a	salem louis memo dies\n
283.121	0.195	566242	keystroke_s	s	n/a
283.2565	0.1055	566513	keystroke_a	a	n/a
283.331	0.0905	566662	keystroke_l	l	n/a
283.511	0.0905	567022	keystroke_e	e	n/a
283.7965	0.075	567593	keystroke_m	m	n/a
283.961	0.075	567922	keystroke_Key.space	Key.space	n/a
284.231	0.06	568462	keystroke_l	l	n/a
284.396	0.09	568792	keystroke_o	o	n/a
284.591	0.06	569182	keystroke_u	u	n/a
284.711	0.1055	569422	keystroke_s	s	n/a
284.801	0.09	569602	keystroke_Key.space	Key.space	n/a
284.9965	0.075	569993	keystroke_m	m	n/a
285.2965	0.105	570593	keystroke_e	e	n/a
285.5965	0.075	571193	keystroke_Key.backspace	Key.backspace	n/a
285.7465	0.0595	571493	keystroke_Key.backspace	Key.backspace	n/a
285.8815	0.06	571763	keystroke_Key.backspace	Key.backspace	n/a
286.001	0.09	572002	keystroke_Key.backspace	Key.backspace	n/a
286.211	0.0305	572422	keystroke_i	i	n/a
286.301	0.09	572602	keystroke_s	s	n/a
286.4805	0.0605	572961	keystroke_Key.space	Key.space	n/a
286.6915	0.075	573383	keystroke_m	m	n/a
286.8115	0.075	573623	keystroke_e	e	n/a
286.9015	0.09	573803	keystroke_m	m	n/a
287.1415	0.0455	574283	keystroke_o	o	n/a
287.5315	0.075	575063	keystroke_d	d	n/a
287.816	0.09	575632	keystroke_Key.backspace	Key.backspace	n/a
287.951	0.09	575902	keystroke_Key.space	Key.space	n/a
288.0715	0.06	576143	keystroke_d	d	n/a
288.3715	0.0895	576743	keystroke_i	i	n/a
288.506	0.1805	577012	keystroke_e	e	n/a
288.6715	0.12	577343	keystroke_s	s	n/a
288.7765	0.15	577553	keystroke_Key.enter	Key.enter	n/a
288.9325	5.2305	577865	prompt	n/a	pensions really your mpeg\n
289.496	0.0755	578992	keystroke_p	p	n/a
289.6015	0.1195	579203	keystroke_e	e	n/a
289.856	0.0455	579712	keystroke_n	n	n/a
289.9165	0.12	579833	keystroke_s	s	n/a
290.0515	0.06	580103	keystroke_i	i	n/a
290.2165	0.09	580433	keystroke_o	o	n/a
290.2915	0.06	580583	keystroke_n	n	n/a
290.4715	0.03	580943	keystroke_d	d	n/a
290.4865	0.06	580973	keystroke_s	s	n/a
290.5315	0.09	581063	keystroke_Key.space	Key.space	n/a
290.6365	0.12	581273	keystroke_r	r	n/a
290.8765	0.1045	581753	keystroke_e	e	n/a
290.9665	0.1045	581933	keystroke_a	a	n/a
291.056	0.0605	582112	keystroke_l	l	n/a
291.1755	0.091	582351	keystroke_l	l	n/a
291.2805	0.091	582561	keystroke_y	y	n/a
291.4015	0.09	582803	keystroke_Key.space	Key.space	n/a
291.6565	0.03	583313	keystroke_y	y	n/a
291.6715	0.075	583343	keystroke_o	o	n/a
291.881	0.06	583762	keystroke_u	u	n/a
291.986	0.09	583972	keystroke_r	r	n/a
292.136	0.075	584272	keystroke_Key.space	Key.space	n/a
292.481	0.0755	584962	keystroke_m	m	n/a
292.5865	0.06	585173	keystroke_e	e	n/a
292.856	0.09	585712	keystroke_Key.backspace	Key.backspace	n/a
292.992	0.1045	585984	keystroke_p	p	n/a
293.1115	0.12	586223	keystroke_g	g	n/a
293.2315	0.075	586463	keystroke_e	e	n/a
293.4265	0.06	586853	keystroke_Key.backspace	Key.backspace	n/a
293.5465	0.09	587093	keystroke_Key.backspace	Key.backspace	n/a
293.6215	0.15	587243	keystroke_e	e	n/a
293.6965	0.135	587393	keystroke_g	g	n/a
294.0415	0.12	588083	keystroke_Key.enter	Key.enter	n/a
294.168	6.82	588336	prompt	n/a	fibre cingular trustees spatial\n
295.122	0.089	590244	keystroke_f	f	n/a
295.272	0.029	590544	keystroke_i	i	n/a
295.361	0.046	590722	keystroke_v	v	n/a
295.616	0.1205	591232	keystroke_r	r	n/a
295.9005	0.0455	591801	keystroke_Key.backspace	Key.backspace	n/a
296.0055	0.09	592011	keystroke_Key.backspace	Key.backspace	n/a
296.0505	0.091	592101	keystroke_b	b	n/a
296.2765	0.18	592553	keystroke_r	r	n/a
296.427	0.105	592854	keystroke_e	e	n/a
296.6065	0.0895	593213	keystroke_Key.space	Key.space	n/a
296.7865	0.0755	593573	keystroke_c	c	n/a
296.907	0.0595	593814	keystroke_i	i	n/a
297.087	0.074	594174	keystroke_n	n	n/a
297.147	0.1045	594294	keystroke_g	g	n/a
297.281	0.06	594562	keystroke_u	u	n/a
297.477	0.0745	594954	keystroke_l	l	n/a
297.5665	0.135	595133	keystroke_a	a	n/a
297.6715	0.1045	595343	keystroke_r	r	n/a
297.791	0.09	595582	keystroke_Key.space	Key.space	n/a
297.956	0.1055	595912	keystroke_t	t	n/a
298.2115	0.029	596423	keystroke_r	r	n/a
298.7205	0.046	597441	keystroke_u	u	n/a
298.796	0.0905	597592	keystroke_s	s	n/a
298.9315	0.1055	597863	keystroke_t	t	n/a
299.0965	0.0895	598193	keystroke_e	e	n/a
299.262	0.105	598524	keystroke_e	e	n/a
299.471	0.075	598942	keystroke_s	s	n/a
299.606	0.0905	599212	keystroke_Key.space	Key.space	n/a
299.7865	0.105	599573	keystroke_s	s	n/a
299.9965	0.09	599993	keystroke_p	p	n/a
300.1165	0.105	600233	keystroke_a	a	n/a
300.2965	0.1045	600593	keystroke_t	t	n/a
300.491	0.075	600982	keystroke_i	i	n/a
300.611	0.06	601222	keystroke_a	a	n/a
300.7015	0.0745	601403	keystroke_l	l	n/a
300.836	0.1505	601672	keystroke_Key.enter	Key.enter	n/a
300.9935	7.929	601987	prompt	n/a	zoloft foundation marie declared\n
301.467	0.059	602934	keystroke_s	s	n/a
301.6765	0.09	603353	keystroke_Key.backspace	Key.backspace	n/a
301.7815	0.12	603563	keystroke_z	z	n/a
301.8865	0.059	603773	keystroke_o	o	n/a
302.0365	0.06	604073	keystroke_l	l	n/a
302.1715	0.105	604343	keystroke_o	o	n/a
302.5315	0.0895	605063	keystroke_Key.backspace	Key.backspace	n/a
302.5915	0.075	605183	keystroke_f	f	n/a
302.7565	0.075	605513	keystroke_t	t	n/a
303.191	0.075	606382	keystroke_Key.backspace	Key.backspace	n/a
303.5815	0.0895	607163	keystroke_Key.backspace	Key.backspace	n/a
303.761	0.075	607522	keystroke_o	o	n/a
303.851	0.0905	607702	keystroke_f	f	n/a
304.0315	0.09	608063	keystroke_t	t	n/a
304.1965	0.09	608393	keystroke_Key.space	Key.space	n/a
305.381	0.0905	610762	keystroke_f	f	n/a
305.4865	0.075	610973	keystroke_o	o	n/a
305.6665	0.075	611333	keystroke_u	u	n/a
305.831	0.09	611662	keystroke_n	n	n/a
305.8915	0.1195	611783	keystroke_d	d	n/a
305.996	0.1505	611992	keystroke_a	a	n/a
306.1165	0.105	612233	keystroke_t	t	n/a
306.191	0.075	612382	keystroke_i	i	n/a
306.3565	0.0745	612713	keystroke_o	o	n/a
306.581	0.075	613162	keystroke_Key.space	Key.space	n/a
306.806	0.06	613612	keystroke_Key.backspace	Key.backspace	n/a
306.836	0.105	613672	keystroke_n	n	n/a
307.076	0.0755	614152	keystroke_Key.space	Key.space	n/a
307.2865	0.06	614573	keystroke_m	m	n/a
307.3915	0.0895	614783	keystroke_a	a	n/a
307.4215	0.1195	614843	keystroke_r	r	n/a
307.601	0.045	615202	keystroke_i	i	n/a
307.676	0.1205	615352	keystroke_e	e	n/a
307.8265	0.09	615653	keystroke_Key.space	Key.space	n/a
307.9315	0.09	615863	keystroke_d	d	n/a
308.0665	0.09	616133	keystroke_e	e	n/a
308.1715	0.105	616343	keystroke_c	c	n/a
308.2765	0.074	616553	keystroke_l	l	n/a
308.3665	0.135	616733	keystroke_a	a	n/a
308.472	0.104	616944	keystroke_r	r	n/a
308.561	0.09	617122	keystroke_e	e	n/a
308.711	0.0605	617422	keystroke_d	d	n/a
308.8165	0.104	617633	keystroke_Key.enter	Key.enter	n/a
308.926	6.672	617852	prompt	n/a	board hayes schedules tobago\n
309.476	0.09	618952	keystroke_b	b	n/a
309.597	0.105	619194	keystroke_o	o	n/a
309.6865	0.135	619373	keystroke_a	a	n/a
309.7765	0.09	619553	keystroke_r	r	n/a
309.9565	0.0745	619913	keystroke_d	d	n/a
310.106	0.09	620212	keystroke_Key.space	Key.space	n/a
310.3905	0.076	620781	keystroke_h	h	n/a
310.4665	0.089	620933	keystroke_a	a	n/a
310.6755	0.061	621351	keystroke_y	y	n/a
311.1865	0.06	622373	keystroke_e	e	n/a
311.366	0.091	622732	keystroke_s	s	n/a
311.8165	0.089	623633	keystroke_Key.space	Key.space	n/a
311.9205	0.091	623841	keystroke_s	s	n/a
312.0715	0.12	624143	keystroke_c	c	n/a
312.4165	0.09	624833	keystroke_h	h	n/a
312.8065	0.075	625613	keystroke_e	e	n/a
313.0465	0.089	626093	keystroke_d	d	n/a
313.6755	0.061	627351	keystroke_u	u	n/a
313.9165	0.0745	627833	keystroke_l	l	n/a
314.036	0.075	628072	keystroke_e	e	n/a
314.216	0.0905	628432	keystroke_s	s	n/a
314.336	0.075	628672	keystroke_Key.space	Key.space	n/a
314.531	0.09	629062	keystroke_t	t	n/a
314.6515	0.0745	629303	keystroke_o	o	n/a
314.7565	0.09	629513	keystroke_b	b	n/a
314.861	0.12	629722	keystroke_a	a	n/a
315.071	0.09	630142	keystroke_g	g	n/a
315.2365	0.075	630473	keystroke_o	o	n/a
315.461	0.135	630922	keystroke_Key.enter	Key.enter	n/a
315.603	7.6905	631206	prompt	n/a	meet caps comply spoke\n
316.1815	0.075	632363	keystroke_m	m	n/a
316.2715	0.075	632543	keystroke_e	e	n/a
316.421	0.1055	632842	keystroke_e	e	n/a
316.4955	0.136	632991	keystroke_t	t	n/a
316.6765	0.0895	633353	keystroke_Key.space	Key.space	n/a
316.691	0.0905	633382	keystroke_s	s	n/a
316.856	0.12	633712	keystroke_c	c	n/a
316.946	0.09	633892	keystroke_a	a	n/a
317.141	0.0605	634282	keystroke_p	p	n/a
317.306	0.0605	634612	keystroke_s	s	n/a
318.0715	0.074	636143	keystroke_Key.backspace	Key.backspace	n/a
318.2065	0.105	636413	keystroke_Key.backspace	Key.backspace	n/a
318.3265	0.09	636653	keystroke_Key.backspace	Key.backspace	n/a
318.4615	0.075	636923	keystroke_Key.backspace	Key.backspace	n/a
318.5965	0.105	637193	keystroke_Key.backspace	Key.backspace	n/a
319.1365	0.03	638273	keystroke_Key.space	Key.space	n/a
319.496	0.105	638992	keystroke_Key.backspace	Key.backspace	n/a
319.751	0.1205	639502	keystroke_c	c	n/a
319.841	0.12	639682	keystroke_a	a	n/a
319.991	0.09	639982	keystroke_p	p	n/a
320.111	0.105	640222	keystroke_s	s	n/a
320.276	0.075	640552	keystroke_Key.space	Key.space	n/a
320.501	0.09	641002	keystroke_c	c	n/a
320.6065	0.0445	641213	keystroke_o	o	n/a
320.7415	0.0605	641483	keystroke_m	m	n/a
320.906	0.06	641812	keystroke_p	p	n/a
321.041	0.09	642082	keystroke_l	l	n/a
321.116	0.091	642232	keystroke_y	y	n/a
321.251	0.09	642502	keystroke_Key.space	Key.space	n/a
321.371	0.09	642742	keystroke_s	s	n/a
321.477	0.0595	642954	keystroke_p	p	n/a
321.641	0.0455	643282	keystroke_o	o	n/a
321.9265	0.0595	643853	keystroke_Key.backspace	Key.backspace	n/a
322.076	0.0605	644152	keystroke_Key.backspace	Key.backspace	n/a
322.5865	0.0895	645173	keystroke_p	p	n/a
322.7665	0.0745	645533	keystroke_o	o	n/a
322.9465	0.0595	645893	keystroke_k	k	n/a
323.021	0.09	646042	keystroke_e	e	n/a
323.141	0.1505	646282	keystroke_Key.enter	Key.enter	n/a
323.2985	4.0595	646597	prompt	n/a	gains filed story remove\n
323.8465	0.0895	647693	keystroke_g	g	n/a
323.9065	0.12	647813	keystroke_a	a	n/a
324.0105	0.06	648021	keystroke_i	i	n/a
324.1605	0.075	648321	keystroke_n	n	n/a
324.2505	0.09	648501	keystroke_s	s	n/a
324.3255	0.076	648651	keystroke_Key.space	Key.space	n/a
324.4165	0.105	648833	keystroke_f	f	n/a
324.5365	0.045	649073	keystroke_i	i	n/a
324.701	0.0755	649402	keystroke_l	l	n/a
324.8065	0.15	649613	keystroke_e	e	n/a
324.9705	0.076	649941	keystroke_d	d	n/a
325.0305	0.106	650061	keystroke_Key.space	Key.space	n/a
325.2265	0.119	650453	keystroke_s	s	n/a
325.3315	0.075	650663	keystroke_t	t	n/a
325.4665	0.0595	650933	keystroke_o	o	n/a
325.5265	0.0745	651053	keystroke_r	r	n/a
325.7055	0.091	651411	keystroke_y	y	n/a
326.1405	0.091	652281	keystroke_Key.space	Key.space	n/a
326.471	0.1355	652942	keystroke_r	r	n/a
326.576	0.1205	653152	keystroke_e	e	n/a
326.6815	0.075	653363	keystroke_m	m	n/a
326.8765	0.03	653753	keystroke_o	o	n/a
326.9365	0.12	653873	keystroke_v	v	n/a
327.0115	0.105	654023	keystroke_e	e	n/a
327.2665	0.09	654533	keystroke_Key.enter	Key.enter	n/a
327.363	6.4	654726	prompt	n/a	ribbon twin neither questionnaire\n
327.9565	0.1045	655913	keystroke_e	e	n/a
328.2415	0.075	656483	keystroke_Key.backspace	Key.backspace	n/a
328.2865	0.1205	656573	keystroke_r	r	n/a
328.4505	0.076	656901	keystroke_i	i	n/a
328.6465	0.074	657293	keystroke_b	b	n/a
328.7815	0.089	657563	keystroke_b	b	n/a
328.8565	0.06	657713	keystroke_o	o	n/a
329.066	0.015	658132	keystroke_j	j	n/a
329.411	0.06	658822	keystroke_Key.backspace	Key.backspace	n/a
329.606	0.045	659212	keystroke_n	n	n/a
329.7405	0.0905	659481	keystroke_Key.space	Key.space	n/a
329.8165	0.105	659633	keystroke_t	t	n/a
329.8915	0.104	659783	keystroke_w	w	n/a
330.011	0.0595	660022	keystroke_i	i	n/a
330.1615	0.075	660323	keystroke_n	n	n/a
330.3255	0.045	660651	keystroke_Key.space	Key.space	n/a
330.4615	0.0595	660923	keystroke_n	n	n/a
330.5055	0.1215	661011	keystroke_e	e	n/a
330.657	0.059	661314	keystroke_i	i	n/a
330.731	0.1055	661462	keystroke_t	t	n/a
330.8515	0.0745	661703	keystroke_h	h	n/a
330.9115	0.089	661823	keystroke_e	e	n/a
330.956	0.121	661912	keystroke_r	r	n/a
331.091	0.0745	662182	keystroke_Key.space	Key.space	n/a
331.196	0.1055	662392	keystroke_q	q	n/a
331.3305	0.076	662661	keystroke_u	u	n/a
331.421	0.1195	662842	keystroke_e	e	n/a
331.5255	0.09	663051	keystroke_s	s	n/a
331.646	0.075	663292	keystroke_t	t	n/a
331.7665	0.015	663533	keystroke_i	i	n/a
331.9465	0.06	663893	keystroke_o	o	n/a
331.9915	0.06	663983	keystroke_n	n	n/a
332.6665	0.0595	665333	keystroke_n	n	n/a
332.7715	0.105	665543	keystroke_a	a	n/a
332.9665	0.015	665933	keystroke_i	i	n/a
333.2665	0.075	666533	keystroke_r	r	n/a
333.5205	0.091	667041	keystroke_e	e	n/a
333.6405	0.1205	667281	keystroke_Key.enter	Key.enter	n/a
333.771	8.3025	667542	prompt	n/a	dressing southampton safety beauty\n
334.331	0.1505	668662	keystroke_d	d	n/a
334.4365	0.09	668873	keystroke_e	e	n/a
334.7665	0.09	669533	keystroke_Key.backspace	Key.backspace	n/a
334.8265	0.105	669653	keystroke_r	r	n/a
334.9015	0.105	669803	keystroke_e	e	n/a
335.0965	0.045	670193	keystroke_s	s	n/a
335.2165	0.1055	670433	keystroke_s	s	n/a
335.3815	0.075	670763	keystroke_i	i	n/a
335.5615	0.12	671123	keystroke_n	n	n/a
335.6365	0.075	671273	keystroke_g	g	n/a
335.7255	0.0755	671451	keystroke_Key.space	Key.space	n/a
335.892	0.089	671784	keystroke_s	s	n/a
335.9965	0.0605	671993	keystroke_o	o	n/a
336.2365	0.0905	672473	keystroke_u	u	n/a
336.476	0.09	672952	keystroke_t	t	n/a
336.581	0.0905	673162	keystroke_h	h	n/a
336.956	0.075	673912	keystroke_h	h	n/a
337.0615	0.0895	674123	keystroke_a	a	n/a
337.1665	0.075	674333	keystroke_m	m	n/a
337.526	0.06	675052	keystroke_Key.backspace	Key.backspace	n/a
337.661	0.075	675322	keystroke_Key.backspace	Key.backspace	n/a
337.796	0.1045	675592	keystroke_Key.backspace	Key.backspace	n/a
338.1415	0.105	676283	keystroke_a	a	n/a
338.2615	0.06	676523	keystroke_m	m	n/a
338.4565	0.0895	676913	keystroke_p	p	n/a
338.5615	0.0895	677123	keystroke_t	t	n/a
338.681	0.045	677362	keystroke_i	i	n/a
339.011	0.09	678022	keystroke_Key.backspace	Key.backspace	n/a
339.206	0.075	678412	keystroke_o	o	n/a
339.4315	0.0745	678863	keystroke_n	n	n/a
339.5965	0.0895	679193	keystroke_Key.space	Key.space	n/a
339.806	0.1655	679612	keystroke_s	s	n/a
339.957	0.1335	679914	keystroke_a	a	n/a
340.1665	0.1495	680333	keystroke_f	f	n/a
340.301	0.12	680602	keystroke_e	e	n/a
340.5715	0.119	681143	keystroke_t	t	n/a
340.7805	0.046	681561	keystroke_y	y	n/a
340.946	0.0895	681892	keystroke_Key.space	Key.space	n/a
341.1555	0.0905	682311	keystroke_b	b	n/a
341.3065	0.1195	682613	keystroke_e	e	n/a
341.441	0.136	682882	keystroke_a	a	n/a
341.606	0.06	683212	keystroke_u	u	n/a
341.681	0.0905	683362	keystroke_t	t	n/a
341.861	0.105	683722	keystroke_y	y	n/a
341.981	0.0905	683962	keystroke_Key.enter	Key.enter	n/a
342.0785	5.5145	684157	prompt	n/a	hazard businesses sharp zope\n
342.791	0.075	685582	keystroke_h	h	n/a
342.8965	0.09	685793	keystroke_a	a	n/a
343.1215	0.075	686243	keystroke_z	z	n/a
343.3165	0.15	686633	keystroke_a	a	n/a
343.4515	0.075	686903	keystroke_r	r	n/a
343.6165	0.09	687233	keystroke_d	d	n/a
343.7365	0.075	687473	keystroke_Key.space	Key.space	n/a
343.8715	0.089	687743	keystroke_b	b	n/a
344.0365	0.06	688073	keystroke_u	u	n/a
344.141	0.105	688282	keystroke_s	s	n/a
344.2765	0.075	688553	keystroke_i	i	n/a
344.4415	0.09	688883	keystroke_n	n	n/a
344.5765	0.105	689153	keystroke_e	e	n/a
344.7865	0.06	689573	keystroke_s	s	n/a
344.9515	0.105	689903	keystroke_s	s	n/a
345.1615	0.119	690323	keystroke_e	e	n/a
345.2665	0.0895	690533	keystroke_s	s	n/a
345.491	0.0755	690982	keystroke_Key.space	Key.space	n/a
346.061	0.1055	692122	keystroke_s	s	n/a
346.211	0.075	692422	keystroke_h	h	n/a
346.301	0.12	692602	keystroke_a	a	n/a
346.391	0.1055	692782	keystroke_r	r	n/a
346.6015	0.0595	693203	keystroke_p	p	n/a
346.7815	0.1045	693563	keystroke_Key.space	Key.space	n/a
347.021	0.105	694042	keystroke_z	z	n/a
347.1115	0.06	694223	keystroke_o	o	n/a
347.276	0.0755	694552	keystroke_p	p	n/a
347.321	0.1205	694642	keystroke_e	e	n/a
347.456	0.135	694912	keystroke_Key.enter	Key.enter	n/a
347.598	12.58	695196	prompt	n/a	badge connected entity berkeley\n
348.2215	0.165	696443	keystroke_d	d	n/a
348.341	0.1805	696682	keystroke_a	a	n/a
348.611	0.075	697222	keystroke_Key.backspace	Key.backspace	n/a
348.776	0.0755	697552	keystroke_Key.backspace	Key.backspace	n/a
348.836	0.1055	697672	keystroke_b	b	n/a
348.942	0.1345	697884	keystroke_a	a	n/a
349.1365	0.12	698273	keystroke_d	d	n/a
349.3615	0.105	698723	keystroke_g	g	n/a
349.4365	0.105	698873	keystroke_e	e	n/a
349.586	0.075	699172	keystroke_Key.space	Key.space	n/a
349.6915	0.045	699383	keystroke_c	c	n/a
349.796	0.06	699592	keystroke_o	o	n/a
349.976	0.06	699952	keystroke_n	n	n/a
350.096	0.0905	700192	keystroke_n	n	n/a
350.2015	0.18	700403	keystroke_e	e	n/a
350.321	0.075	700642	keystroke_c	c	n/a
350.5165	0.135	701033	keystroke_t	t	n/a
350.606	0.135	701212	keystroke_e	e	n/a
350.8015	0.015	701603	keystroke_d	d	n/a
350.8465	0.105	701693	keystroke_Key.space	Key.space	n/a
351.3265	0.119	702653	keystroke_e	e	n/a
351.4315	0.12	702863	keystroke_n	n	n/a
351.5965	0.12	703193	keystroke_t	t	n/a
351.8515	0.075	703703	keystroke_i	i	n/a
351.9565	0.075	703913	keystroke_t	t	n/a
352.2565	0.0895	704513	keystroke_y	y	n/a
352.541	0.06	705082	keystroke_Key.backspace	Key.backspace	n/a
352.871	0.09	705742	keystroke_y	y	n/a
353.1105	0.06	706221	keystroke_Key.space	Key.space	n/a
353.291	0.1355	706582	keystroke_b	b	n/a
353.381	0.1655	706762	keystroke_e	e	n/a
353.5165	0.12	707033	keystroke_r	r	n/a
353.6965	0.059	707393	keystroke_k	k	n/a
353.7855	0.076	707571	keystroke_e	e	n/a
354.0265	0.045	708053	keystroke_e	e	n/a
354.4455	0.075	708891	keystroke_Key.backspace	Key.backspace	n/a
354.5365	0.12	709073	keystroke_l	l	n/a
354.6715	0.075	709343	keystroke_y	y	n/a
355.241	0.12	710482	keystroke_Key.backspace	Key.backspace	n/a
355.3465	0.1045	710693	keystroke_e	e	n/a
355.4815	0.0745	710963	keystroke_l	l	n/a
355.541	0.1195	711082	keystroke_y	y	n/a
358.183	0	716366	keystroke_Key.backspace	Key.backspace	n/a
358.2865	0.0595	716573	keystroke_Key.backspace	Key.backspace	n/a
358.7815	0.09	717563	keystroke_y	y	n/a
360.041	0.135	720082	keystroke_Key.enter	Key.enter	n/a
360.184	6.804	720368	prompt	n/a	director amounts cemetery lost\n
360.8815	0.0895	721763	keystroke_d	d	n/a
360.986	0.075	721972	keystroke_i	i	n/a
361.076	0.1045	722152	keystroke_r	r	n/a
361.1655	0.105	722331	keystroke_e	e	n/a
361.3165	0.074	722633	keystroke_c	c	n/a
361.4965	0.074	722993	keystroke_t	t	n/a
361.5865	0.06	723173	keystroke_o	o	n/a
361.6765	0.089	723353	keystroke_r	r	n/a
361.7805	0.09	723561	keystroke_Key.space	Key.space	n/a
361.8865	0.1045	723773	keystroke_a	a	n/a
361.9765	0.0745	723953	keystroke_m	m	n/a
362.3365	0.015	724673	keystroke_u	u	n/a
362.7705	0.075	725541	keystroke_Key.backspace	Key.backspace	n/a
363.326	0.0455	726652	keystroke_o	o	n/a
363.521	0.06	727042	keystroke_u	u	n/a
363.7015	0.0895	727403	keystroke_n	n	n/a
363.776	0.12	727552	keystroke_t	t	n/a
363.881	0.075	727762	keystroke_s	s	n/a
363.971	0.075	727942	keystroke_Key.space	Key.space	n/a
364.1365	0.12	728273	keystroke_c	c	n/a
364.2115	0.075	728423	keystroke_e	e	n/a
364.4205	0.105	728841	keystroke_e	e	n/a
364.7205	0.06	729441	keystroke_Key.backspace	Key.backspace	n/a
364.9005	0.076	729801	keystroke_m	m	n/a
365.006	0.1045	730012	keystroke_e	e	n/a
365.2165	0.089	730433	keystroke_t	t	n/a
365.4105	0.105	730821	keystroke_r	r	n/a
365.726	0.0595	731452	keystroke_Key.backspace	Key.backspace	n/a
365.8165	0.1345	731633	keystroke_a	a	n/a
365.8765	0.12	731753	keystroke_r	r	n/a
366.101	0.075	732202	keystroke_y	y	n/a
366.2365	0.0445	732473	keystroke_Key.space	Key.space	n/a
366.476	0.0745	732952	keystroke_l	l	n/a
366.627	0.075	733254	keystroke_o	o	n/a
366.6855	0.121	733371	keystroke_s	s	n/a
366.7755	0.0905	733551	keystroke_t	t	n/a
366.867	0.1195	733734	keystroke_Key.enter	Key.enter	n/a
366.9925	5.3355	733985	prompt	n/a	blah standard shaped belief\n
367.6165	0.0895	735233	keystroke_b	b	n/a
367.7365	0.09	735473	keystroke_l	l	n/a
367.796	0.1205	735592	keystroke_a	a	n/a
368.0965	0.06	736193	keystroke_h	h	n/a
368.2765	0.09	736553	keystroke_Key.space	Key.space	n/a
368.4115	0.12	736823	keystroke_s	s	n/a
368.5165	0.105	737033	keystroke_t	t	n/a
368.6365	0.12	737273	keystroke_a	a	n/a
368.6815	0.06	737363	keystroke_n	n	n/a
368.8165	0.09	737633	keystroke_d	d	n/a
368.9515	0.135	737903	keystroke_a	a	n/a
369.0715	0.09	738143	keystroke_r	r	n/a
369.2665	0.06	738533	keystroke_d	d	n/a
369.3415	0.105	738683	keystroke_Key.space	Key.space	n/a
369.5665	0.075	739133	keystroke_s	s	n/a
369.6865	0.06	739373	keystroke_h	h	n/a
369.7765	0.135	739553	keystroke_a	a	n/a
369.9265	0.075	739853	keystroke_m	m	n/a
370.2115	0.09	740423	keystroke_Key.backspace	Key.backspace	n/a
370.3615	0.075	740723	keystroke_p	p	n/a
370.4515	0.135	740903	keystroke_e	e	n/a
370.6315	0.075	741263	keystroke_d	d	n/a
370.7365	0.075	741473	keystroke_Key.space	Key.space	n/a
370.8865	0.12	741773	keystroke_b	b	n/a
370.9915	0.09	741983	keystroke_e	e	n/a
371.0965	0.075	742193	keystroke_l	l	n/a
371.276	0.06	742552	keystroke_i	i	n/a
371.891	0.1355	743782	keystroke_e	e	n/a
372.086	0.12	744172	keystroke_f	f	n/a
372.2215	0.105	744443	keystroke_Key.enter	Key.enter	n/a
372.333	5.4405	744666	prompt	n/a	developers three obesity offshore\n
372.9265	0.12	745853	keystroke_d	d	n/a
373.0615	0.09	746123	keystroke_e	e	n/a
373.1665	0.135	746333	keystroke_v	v	n/a
373.2715	0.0895	746543	keystroke_e	e	n/a
373.346	0.0755	746692	keystroke_l	l	n/a
373.511	0.0605	747022	keystroke_o	o	n/a
373.662	0.0745	747324	keystroke_p	p	n/a
373.7665	0.165	747533	keystroke_e	e	n/a
373.916	0.105	747832	keystroke_r	r	n/a
374.1265	0.09	748253	keystroke_s	s	n/a
374.2615	0.075	748523	keystroke_Key.space	Key.space	n/a
374.456	0.0455	748912	keystroke_t	t	n/a
374.5915	0.0445	749183	keystroke_h	h	n/a
374.6515	0.12	749303	keystroke_r	r	n/a
374.7715	0.09	749543	keystroke_e	e	n/a
374.9365	0.09	749873	keystroke_e	e	n/a
375.0715	0.09	750143	keystroke_Key.space	Key.space	n/a
375.2965	0.0445	750593	keystroke_o	o	n/a
375.356	0.1505	750712	keystroke_b	b	n/a
375.4915	0.0895	750983	keystroke_e	e	n/a
375.702	0.0745	751404	keystroke_s	s	n/a
375.9115	0.045	751823	keystroke_i	i	n/a
375.9865	0.075	751973	keystroke_t	t	n/a
376.1365	0.089	752273	keystroke_y	y	n/a
376.3155	0.075	752631	keystroke_Key.space	Key.space	n/a
376.5855	0.046	753171	keystroke_o	o	n/a
376.6455	0.076	753291	keystroke_f	f	n/a
376.7965	0.045	753593	keystroke_f	f	n/a
376.9615	0.06	753923	keystroke_s	s	n/a
377.0965	0.105	754193	keystroke_h	h	n/a
377.2615	0.06	754523	keystroke_o	o	n/a
377.3815	0.09	754763	keystroke_r	r	n/a
377.5615	0.105	755123	keystroke_e	e	n/a
377.6805	0.09	755361	keystroke_Key.enter	Key.enter	n/a
377.7785	8.23	755557	prompt	n/a	semiconductor menu endorsed accomplish\n
378.3865	0.09	756773	keystroke_s	s	n/a
378.5665	0.06	757133	keystroke_e	e	n/a
378.6415	0.09	757283	keystroke_m	m	n/a
378.8365	0.075	757673	keystroke_i	i	n/a
378.9715	0.105	757943	keystroke_d	d	n/a
379.3165	0.074	758633	keystroke_Key.backspace	Key.backspace	n/a
379.406	0.0745	758812	keystroke_c	c	n/a
379.5115	0.059	759023	keystroke_o	o	n/a
379.751	0.0305	759502	keystroke_n	n	n/a
379.7965	0.1045	759593	keystroke_d	d	n/a
380.036	0.06	760072	keystroke_o	o	n/a
380.336	0.0895	760672	keystroke_Key.backspace	Key.backspace	n/a
380.7855	0.0305	761571	keystroke_u	u	n/a
380.8455	0.0605	761691	keystroke_c	c	n/a
381.0265	0.075	762053	keystroke_t	t	n/a
381.1615	0.075	762323	keystroke_o	o	n/a
381.2215	0.0745	762443	keystroke_r	r	n/a
381.446	0.0605	762892	keystroke_Key.space	Key.space	n/a
381.7015	0.09	763403	keystroke_m	m	n/a
381.821	0.09	763642	keystroke_e	e	n/a
381.941	0.06	763882	keystroke_n	n	n/a
382.121	0.045	764242	keystroke_u	u	n/a
382.421	0.0755	764842	keystroke_Key.space	Key.space	n/a
382.661	0.0755	765322	keystroke_e	e	n/a
382.781	0.075	765562	keystroke_n	n	n/a
383.051	0.061	766102	keystroke_d	d	n/a
383.1865	0.0445	766373	keystroke_o	o	n/a
383.3065	0.09	766613	keystroke_r	r	n/a
383.6215	0.09	767243	keystroke_s	s	n/a
383.801	0.1055	767602	keystroke_e	e	n/a
384.056	0.06	768112	keystroke_d	d	n/a
384.176	0.075	768352	keystroke_Key.space	Key.space	n/a
384.311	0.0755	768622	keystroke_a	a	n/a
384.5515	0.045	769103	keystroke_c	c	n/a
384.6715	0.075	769343	keystroke_c	c	n/a
384.776	0.0755	769552	keystroke_o	o	n/a
384.9715	0.044	769943	keystroke_m	m	n/a
385.1515	0.029	770303	keystroke_p	p	n/a
385.3005	0.06	770601	keystroke_l	l	n/a
385.4965	0.074	770993	keystroke_i	i	n/a
385.6315	0.09	771263	keystroke_s	s	n/a
385.722	0.0595	771444	keystroke_h	h	n/a
385.9315	0.075	771863	keystroke_Key.enter	Key.enter	n/a
386.0135	5.0945	772027	prompt	n/a	stream verse alot activation\n
386.6355	0.091	773271	keystroke_s	s	n/a
386.7565	0.09	773513	keystroke_t	t	n/a
386.9215	0.105	773843	keystroke_r	r	n/a
387.146	0.045	774292	keystroke_e	e	n/a
387.176	0.1055	774352	keystroke_a	a	n/a
387.4015	0.0595	774803	keystroke_m	m	n/a
387.7765	0.074	775553	keystroke_Key.space	Key.space	n/a
387.9865	0.09	775973	keystroke_v	v	n/a
388.0615	0.1345	776123	keystroke_e	e	n/a
388.1665	0.1045	776333	keystroke_r	r	n/a
388.3015	0.104	776603	keystroke_s	s	n/a
388.4665	0.074	776933	keystroke_e	e	n/a
388.616	0.0595	777232	keystroke_Key.space	Key.space	n/a
388.7215	0.075	777443	keystroke_a	a	n/a
388.8405	0.06	777681	keystroke_l	l	n/a
388.9915	0.074	777983	keystroke_o	o	n/a
389.0505	0.091	778101	keystroke_t	t	n/a
389.1705	0.105	778341	keystroke_Key.space	Key.space	n/a
389.2465	0.0895	778493	keystroke_a	a	n/a
389.5015	0.015	779003	keystroke_v	v	n/a
389.8015	0.119	779603	keystroke_Key.backspace	Key.backspace	n/a
389.8915	0.074	779783	keystroke_c	c	n/a
390.0865	0.059	780173	keystroke_t	t	n/a
390.2215	0.06	780443	keystroke_i	i	n/a
390.2965	0.1045	780593	keystroke_v	v	n/a
390.416	0.135	780832	keystroke_a	a	n/a
390.5665	0.0595	781133	keystroke_t	t	n/a
390.641	0.06	781282	keystroke_i	i	n/a
390.7905	0.0905	781581	keystroke_o	o	n/a
390.896	0.06	781792	keystroke_n	n	n/a
391.016	0.09	782032	keystroke_Key.enter	Key.enter	n/a
391.113	5.62	782226	prompt	n/a	adventures small surface servers\n
391.766	0.045	783532	keystroke_s	s	n/a
391.826	0.06	783652	keystroke_a	a	n/a
392.276	0.0905	784552	keystroke_Key.backspace	Key.backspace	n/a
392.411	0.12	784822	keystroke_Key.backspace	Key.backspace	n/a
392.4705	0.151	784941	keystroke_a	a	n/a
392.5755	0.1055	785151	keystroke_d	d	n/a
392.8155	0.091	785631	keystroke_v	v	n/a
393.026	0.105	786052	keystroke_e	e	n/a
393.1615	0.1195	786323	keystroke_n	n	n/a
393.236	0.09	786472	keystroke_t	t	n/a
393.3865	0.0595	786773	keystroke_u	u	n/a
393.461	0.1205	786922	keystroke_r	r	n/a
393.5215	0.075	787043	keystroke_e	e	n/a
393.701	0.09	787402	keystroke_s	s	n/a
393.806	0.075	787612	keystroke_Key.space	Key.space	n/a
393.9565	0.0895	787913	keystroke_s	s	n/a
394.076	0.06	788152	keystroke_m	m	n/a
394.166	0.105	788332	keystroke_a	a	n/a
394.286	0.06	788572	keystroke_l	l	n/a
394.4065	0.0595	788813	keystroke_l	l	n/a
394.586	0.09	789172	keystroke_Key.space	Key.space	n/a
394.691	0.1355	789382	keystroke_s	s	n/a
394.811	0.0595	789622	keystroke_u	u	n/a
394.9005	0.09	789801	keystroke_r	r	n/a
395.0955	0.105	790191	keystroke_f	f	n/a
395.2155	0.135	790431	keystroke_a	a	n/a
395.3055	0.15	790611	keystroke_c	c	n/a
395.396	0.105	790792	keystroke_e	e	n/a
395.5155	0.09	791031	keystroke_Key.space	Key.space	n/a
395.6655	0.1205	791331	keystroke_s	s	n/a
395.8605	0.151	791721	keystroke_e	e	n/a
395.9505	0.09	791901	keystroke_r	r	n/a
396.1455	0.09	792291	keystroke_v	v	n/a
396.2205	0.136	792441	keystroke_e	e	n/a
396.341	0.1045	792682	keystroke_r	r	n/a
396.4905	0.105	792981	keystroke_s	s	n/a
396.6255	0.1055	793251	keystroke_Key.enter	Key.enter	n/a
396.738	5.2895	793476	prompt	n/a	domain required mins hunting\n
397.2565	0.044	794513	keystroke_d	d	n/a
397.3305	0.061	794661	keystroke_o	o	n/a
397.4815	0.075	794963	keystroke_m	m	n/a
397.5715	0.0895	795143	keystroke_a	a	n/a
397.6765	0.045	795353	keystroke_i	i	n/a
397.8265	0.074	795653	keystroke_n	n	n/a
397.9605	0.105	795921	keystroke_Key.space	Key.space	n/a
398.0665	0.1495	796133	keystroke_r	r	n/a
398.1415	0.105	796283	keystroke_e	e	n/a
398.711	0.0905	797422	keystroke_q	q	n/a
398.8165	0.0445	797633	keystroke_u	u	n/a
398.966	0.075	797932	keystroke_i	i	n/a
399.056	0.1205	798112	keystroke_r	r	n/a
399.1315	0.0895	798263	keystroke_e	e	n/a
399.296	0.09	798592	keystroke_d	d	n/a
399.4455	0.0305	798891	keystroke_Key.space	Key.space	n/a
399.5955	0.0605	799191	keystroke_m	m	n/a
399.761	0.045	799522	keystroke_i	i	n/a
399.911	0.0755	799822	keystroke_n	n	n/a
400.0315	0.09	800063	keystroke_s	s	n/a
400.1655	0.106	800331	keystroke_Key.space	Key.space	n/a
400.6015	0.045	801203	keystroke_h	h	n/a
400.721	0.075	801442	keystroke_u	u	n/a
400.871	0.0905	801742	keystroke_n	n	n/a
400.976	0.09	801952	keystroke_t	t	n/a
401.081	0.045	802162	keystroke_i	i	n/a
401.2005	0.09	802401	keystroke_n	n	n/a
401.2915	0.074	802583	keystroke_g	g	n/a
401.921	0.105	803842	keystroke_Key.enter	Key.enter	n/a
402.035	7.8525	804070	prompt	n/a	qualified renaissance attractions literary\n
402.6565	0.09	805313	keystroke_q	q	n/a
402.791	0.0745	805582	keystroke_u	u	n/a
403.0305	0.105	806061	keystroke_a	a	n/a
403.1965	0.059	806393	keystroke_l	l	n/a
403.406	0.06	806812	keystroke_i	i	n/a
403.496	0.075	806992	keystroke_f	f	n/a
403.616	0.075	807232	keystroke_i	i	n/a
404.066	0.09	808132	keystroke_e	e	n/a
404.261	0.045	808522	keystroke_d	d	n/a
404.366	0.075	808732	keystroke_Key.space	Key.space	n/a
404.636	0.105	809272	keystroke_r	r	n/a
404.6965	0.09	809393	keystroke_e	e	n/a
404.831	0.075	809662	keystroke_n	n	n/a
405.056	0.045	810112	keystroke_a	a	n/a
405.206	0.045	810412	keystroke_i	i	n/a
405.326	0.0445	810652	keystroke_s	s	n/a
405.4755	0.136	810951	keystroke_s	s	n/a
405.5965	0.1045	811193	keystroke_a	a	n/a
405.701	0.0745	811402	keystroke_n	n	n/a
405.7915	0.089	811583	keystroke_c	c	n/a
405.821	0.1195	811642	keystroke_e	e	n/a
405.926	0.0745	811852	keystroke_Key.space	Key.space	n/a
406.0915	0.105	812183	keystroke_a	a	n/a
406.2255	0.061	812451	keystroke_t	t	n/a
406.3455	0.076	812691	keystroke_t	t	n/a
406.4955	0.0905	812991	keystroke_r	r	n/a
406.556	0.165	813112	keystroke_a	a	n/a
406.691	0.06	813382	keystroke_c	c	n/a
406.8565	0.075	813713	keystroke_t	t	n/a
406.9465	0.045	813893	keystroke_i	i	n/a
407.0965	0.0895	814193	keystroke_o	o	n/a
407.201	0.0445	814402	keystroke_n	n	n/a
407.396	0.0905	814792	keystroke_s	s	n/a
407.5305	0.09	815061	keystroke_Key.space	Key.space	n/a
407.951	0.075	815902	keystroke_l	l	n/a
408.131	0.075	816262	keystroke_i	i	n/a
408.2515	0.1645	816503	keystroke_e	e	n/a
408.446	0.075	816892	keystroke_t	t	n/a
408.701	0.06	817402	keystroke_Key.backspace	Key.backspace	n/a
408.836	0.075	817672	keystroke_Key.backspace	Key.backspace	n/a
408.926	0.12	817852	keystroke_t	t	n/a
409.031	0.15	818062	keystroke_e	e	n/a
409.1515	0.134	818303	keystroke_r	r	n/a
