onset	duration	sample	value	key	prompt_text
11.9585	9.748	23917	prompt	n/a	the quick brown fox jumps over a lazy dog\n
13.8315	0.088	27663	keystroke_t	t	n/a
13.8745	0.074	27749	keystroke_h	h	n/a
13.9645	0.24	27929	keystroke_e	e	n/a
14.1595	0.15	28319	keystroke_Key.space	Key.space	n/a
14.3385	0.1505	28677	keystroke_q	q	n/a
14.639	0.135	29278	keystroke_u	u	n/a
14.834	0.105	29668	keystroke_i	i	n/a
15.029	0.135	30058	keystroke_c	c	n/a
15.194	0.09	30388	keystroke_k	k	n/a
15.359	0.135	30718	keystroke_Key.space	Key.space	n/a
15.554	0.105	31108	keystroke_b	b	n/a
15.8695	0.1045	31739	keystroke_r	r	n/a
15.989	0.09	31978	keystroke_o	o	n/a
16.124	0.105	32248	keystroke_w	w	n/a
16.259	0.06	32518	keystroke_n	n	n/a
16.439	0.15	32878	keystroke_Key.space	Key.space	n/a
16.739	0.09	33478	keystroke_f	f	n/a
16.874	0.075	33748	keystroke_o	o	n/a
17.024	0.1055	34048	keystroke_x	x	n/a
17.1895	0.09	34379	keystroke_Key.space	Key.space	n/a
17.2655	0.074	34531	keystroke_j	j	n/a
17.429	0.075	34858	keystroke_u	u	n/a
17.654	0.075	35308	keystroke_m	m	n/a
17.969	0.12	35938	keystroke_p	p	n/a
18.149	0.075	36298	keystroke_s	s	n/a
18.269	0.12	36538	keystroke_Key.space	Key.space	n/a
18.629	0.105	37258	keystroke_o	o	n/a
18.719	0.105	37438	keystroke_v	v	n/a
18.929	0.12	37858	keystroke_e	e	n/a
19.019	0.12	38038	keystroke_r	r	n/a
19.259	0.285	38518	keystroke_Key.space	Key.space	n/a
19.334	0.105	38668	keystroke_a	a	n/a
20.0685	0.1055	40137	keystroke_Key.space	Key.space	n/a
20.204	0.105	40408	keystroke_l	l	n/a
20.324	0.1045	40648	keystroke_a	a	n/a
20.564	0.1055	41128	keystroke_z	z	n/a
20.744	0.075	41488	keystroke_y	y	n/a
20.879	0.12	41758	keystroke_Key.space	Key.space	n/a
21.014	0.09	42028	keystroke_d	d	n/a
21.119	0.0905	42238	keystroke_o	o	n/a
21.2995	0.06	42599	keystroke_g	g	n/a
21.5995	0.105	43199	keystroke_Key.enter	Key.enter	n/a
21.7105	11.4705	43421	prompt	n/a	environment else massachusetts freedom\n
22.3795	0.12	44759	keystroke_e	e	n/a
22.544	0.0605	45088	keystroke_n	n	n/a
22.7245	0.09	45449	keystroke_v	v	n/a
22.8595	0.09	45719	keystroke_i	i	n/a
24.3735	0.075	48747	keystroke_r	r	n/a
26.219	0.105	52438	keystroke_o	o	n/a
26.429	0.045	52858	keystroke_n	n	n/a
26.654	0.09	53308	keystroke_m	m	n/a
26.789	0.135	53578	keystroke_e	e	n/a
26.909	0.075	53818	keystroke_n	n	n/a
27.029	0.15	54058	keystroke_t	t	n/a
27.194	0.18	54388	keystroke_Key.space	Key.space	n/a
27.404	0.12	54808	keystroke_e	e	n/a
27.689	0.09	55378	keystroke_l	l	n/a
27.899	0.135	55798	keystroke_s	s	n/a
27.989	0.135	55978	keystroke_e	e	n/a
28.184	0.12	56368	keystroke_Key.space	Key.space	n/a
28.844	0.105	57688	keystroke_m	m	n/a
28.964	0.105	57928	keystroke_a	a	n/a
29.2785	0.0755	58557	keystroke_s	s	n/a
29.474	0.06	58948	keystroke_s	s	n/a
29.639	0.15	59278	keystroke_a	a	n/a
29.954	0.105	59908	keystroke_c	c	n/a
30.149	0.0595	60298	keystroke_h	h	n/a
30.389	0.045	60778	keystroke_u	u	n/a
30.599	0.135	61198	keystroke_s	s	n/a
31.0195	0.075	62039	keystroke_e	e	n/a
31.2745	0.06	62549	keystroke_t	t	n/a
31.4385	0.046	62877	keystroke_t	t	n/a
31.589	0.135	63178	keystroke_s	s	n/a
31.739	0.135	63478	keystroke_Key.space	Key.space	n/a
31.919	0.1355	63838	keystroke_f	f	n/a
32.2045	0.075	64409	keystroke_r	r	n/a
32.2495	0.09	64499	keystroke_e	e	n/a
32.3995	0.105	64799	keystroke_e	e	n/a
32.6095	0.09	65219	keystroke_d	d	n/a
32.7145	0.15	65429	keystroke_o	o	n/a
32.8495	0.105	65699	keystroke_m	m	n/a
33.1045	0.075	66209	keystroke_Key.enter	Key.enter	n/a
33.1845	8.2015	66369	prompt	n/a	dragon corner kazakhstan oral\n
33.9595	0.105	67919	keystroke_d	d	n/a
34.1695	0.15	68339	keystroke_r	r	n/a
34.2895	0.135	68579	keystroke_a	a	n/a
34.4995	0.09	68999	keystroke_g	g	n/a
34.6045	0.165	69209	keystroke_o	o	n/a
34.7845	0.075	69569	keystroke_n	n	n/a
34.8745	0.12	69749	keystroke_Key.space	Key.space	n/a
35.2645	0.15	70529	keystroke_c	c	n/a
35.4295	0.12	70859	keystroke_o	o	n/a
35.5645	0.12	71129	keystroke_r	r	n/a
35.6845	0.06	71369	keystroke_n	n	n/a
35.8045	0.135	71609	keystroke_e	e	n/a
35.924	0.1055	71848	keystroke_r	r	n/a
36.194	0.105	72388	keystroke_Key.space	Key.space	n/a
36.764	0.09	73528	keystroke_k	k	n/a
37.274	0.15	74548	keystroke_a	a	n/a
37.739	0.105	75478	keystroke_z	z	n/a
38.384	0.105	76768	keystroke_a	a	n/a
39.134	0.12	78268	keystroke_k	k	n/a
39.479	0.09	78958	keystroke_h	h	n/a
39.989	0.105	79978	keystroke_s	s	n/a
40.1685	0.121	80337	keystroke_t	t	n/a
40.3345	0.135	80669	keystroke_a	a	n/a
40.4845	0.075	80969	keystroke_n	n	n/a
40.5745	0.12	81149	keystroke_Key.space	Key.space	n/a
40.7245	0.105	81449	keystroke_o	o	n/a
40.7995	0.105	81599	keystroke_r	r	n/a
40.9495	0.135	81899	keystroke_a	a	n/a
41.0545	0.105	82109	keystroke_l	l	n/a
41.3245	0.06	82649	keystroke_Key.enter	Key.enter	n/a
41.3895	11.5465	82779	prompt	n/a	pencil calcium conservative polymer\n
42.0745	0.09	84149	keystroke_p	p	n/a
42.2095	0.09	84419	keystroke_e	e	n/a
42.3145	0.06	84629	keystroke_n	n	n/a
42.4795	0.15	84959	keystroke_c	c	n/a
42.5695	0.135	85139	keystroke_i	i	n/a
42.7045	0.135	85409	keystroke_l	l	n/a
42.7945	0.12	85589	keystroke_Key.space	Key.space	n/a
42.9745	0.1645	85949	keystroke_c	c	n/a
43.169	0.12	86338	keystroke_a	a	n/a
43.304	0.075	86608	keystroke_l	l	n/a
43.544	0.105	87088	keystroke_c	c	n/a
43.754	0.09	87508	keystroke_i	i	n/a
43.9495	0.06	87899	keystroke_u	u	n/a
44.2195	0.029	88439	keystroke_m	m	n/a
44.849	0.075	89698	keystroke_Key.space	Key.space	n/a
45.029	0.15	90058	keystroke_c	c	n/a
45.164	0.105	90328	keystroke_o	o	n/a
45.329	0.06	90658	keystroke_n	n	n/a
45.434	0.135	90868	keystroke_s	s	n/a
45.554	0.165	91108	keystroke_e	e	n/a
45.6745	0.0895	91349	keystroke_r	r	n/a
46.0195	0.1345	92039	keystroke_v	v	n/a
46.1695	0.105	92339	keystroke_a	a	n/a
46.364	0.1055	92728	keystroke_t	t	n/a
47.8645	0.0895	95729	keystroke_Key.backspace	Key.backspace	n/a
49.154	0.105	98308	keystroke_t	t	n/a
49.274	0.0905	98548	keystroke_i	i	n/a
49.4395	0.12	98879	keystroke_v	v	n/a
49.6795	0.105	99359	keystroke_e	e	n/a
49.7695	0.135	99539	keystroke_Key.space	Key.space	n/a
50.0695	0.105	100139	keystroke_p	p	n/a
50.5795	0.09	101159	keystroke_o	o	n/a
50.7745	0.09	101549	keystroke_l	l	n/a
51.8385	0.061	103677	keystroke_y	y	n/a
52.3045	0.09	104609	keystroke_m	m	n/a
52.4695	0.1645	104939	keystroke_e	e	n/a
52.604	0.105	105208	keystroke_r	r	n/a
52.874	0.06	105748	keystroke_Key.enter	Key.enter	n/a
52.9395	7.0015	105879	prompt	n/a	waiting organ homes sticky\n
53.624	0.21	107248	keystroke_e	e	n/a
54.5095	0.09	109019	keystroke_Key.backspace	Key.backspace	n/a
54.7795	0.105	109559	keystroke_w	w	n/a
54.9595	0.12	109919	keystroke_a	a	n/a
55.4545	0.09	110909	keystroke_i	i	n/a
55.605	0.104	111210	keystroke_t	t	n/a
55.7245	0.09	111449	keystroke_i	i	n/a
55.9195	0.0895	111839	keystroke_n	n	n/a
56.054	0.105	112108	keystroke_g	g	n/a
56.219	0.15	112438	keystroke_Key.space	Key.space	n/a
56.504	0.12	113008	keystroke_o	o	n/a
56.609	0.105	113218	keystroke_r	r	n/a
56.834	0.12	113668	keystroke_g	g	n/a
56.969	0.105	113938	keystroke_a	a	n/a
57.104	0.075	114208	keystroke_n	n	n/a
57.224	0.09	114448	keystroke_Key.space	Key.space	n/a
57.434	0.075	114868	keystroke_h	h	n/a
57.584	0.12	115168	keystroke_o	o	n/a
57.749	0.105	115498	keystroke_m	m	n/a
57.839	0.165	115678	keystroke_e	e	n/a
57.959	0.135	115918	keystroke_s	s	n/a
58.094	0.15	116188	keystroke_Key.space	Key.space	n/a
58.709	0.105	117418	keystroke_s	s	n/a
58.874	0.1055	117748	keystroke_t	t	n/a
59.0395	0.09	118079	keystroke_i	i	n/a
59.2185	0.121	118437	keystroke_c	c	n/a
59.3245	0.075	118649	keystroke_k	k	n/a
59.5795	0.045	119159	keystroke_y	y	n/a
59.864	0.0755	119728	keystroke_Key.enter	Key.enter	n/a
59.944	6.7025	119888	prompt	n/a	upon trends painful expiration\n
60.6295	0.09	121259	keystroke_u	u	n/a
61.0195	0.105	122039	keystroke_p	p	n/a
61.2145	0.105	122429	keystroke_o	o	n/a
61.4245	0.075	122849	keystroke_n	n	n/a
61.6945	0.12	123389	keystroke_Key.space	Key.space	n/a
62.099	0.075	124198	keystroke_t	t	n/a
62.309	0.12	124618	keystroke_r	r	n/a
62.384	0.12	124768	keystroke_e	e	n/a
62.549	0.105	125098	keystroke_n	n	n/a
62.669	0.135	125338	keystroke_d	d	n/a
62.819	0.12	125638	keystroke_s	s	n/a
63.029	0.135	126058	keystroke_Key.space	Key.space	n/a
63.374	0.105	126748	keystroke_p	p	n/a
63.494	0.135	126988	keystroke_a	a	n/a
63.599	0.075	127198	keystroke_i	i	n/a
63.794	0.06	127588	keystroke_n	n	n/a
63.914	0.121	127828	keystroke_f	f	n/a
64.094	0.075	128188	keystroke_u	u	n/a
64.259	0.12	128518	keystroke_l	l	n/a
64.364	0.135	128728	keystroke_Key.space	Key.space	n/a
64.544	0.12	129088	keystroke_e	e	n/a
64.8745	0.135	129749	keystroke_x	x	n/a
65.1445	0.09	130289	keystroke_p	p	n/a
65.489	0.075	130978	keystroke_i	i	n/a
65.624	0.135	131248	keystroke_r	r	n/a
65.774	0.18	131548	keystroke_a	a	n/a
65.969	0.09	131938	keystroke_t	t	n/a
66.09	0.195	132180	keystroke_i	i	n/a
66.209	0.166	132418	keystroke_o	o	n/a
66.329	0.09	132658	keystroke_n	n	n/a
66.599	0.045	133198	keystroke_Key.enter	Key.enter	n/a
66.6505	5.6955	133301	prompt	n/a	cable atomic helmet quote\n
67.365	0.165	134730	keystroke_c	c	n/a
67.484	0.165	134968	keystroke_a	a	n/a
67.769	0.09	135538	keystroke_b	b	n/a
67.904	0.105	135808	keystroke_l	l	n/a
68.039	0.15	136078	keystroke_e	e	n/a
68.174	0.15	136348	keystroke_Key.space	Key.space	n/a
68.49	0.119	136980	keystroke_a	a	n/a
68.684	0.075	137368	keystroke_t	t	n/a
68.819	0.12	137638	keystroke_o	o	n/a
68.969	0.075	137938	keystroke_m	m	n/a
69.134	0.075	138268	keystroke_i	i	n/a
69.269	0.195	138538	keystroke_c	c	n/a
69.464	0.135	138928	keystroke_Key.space	Key.space	n/a
69.869	0.075	139738	keystroke_h	h	n/a
70.109	0.105	140218	keystroke_e	e	n/a
70.244	0.0755	140488	keystroke_l	l	n/a
70.4245	0.09	140849	keystroke_m	m	n/a
70.5445	0.12	141089	keystroke_e	e	n/a
70.7245	0.135	141449	keystroke_t	t	n/a
70.8895	0.165	141779	keystroke_Key.space	Key.space	n/a
71.2345	0.12	142469	keystroke_q	q	n/a
71.4445	0.09	142889	keystroke_u	u	n/a
71.714	0.09	143428	keystroke_o	o	n/a
71.879	0.1505	143758	keystroke_t	t	n/a
71.9995	0.12	143999	keystroke_e	e	n/a
72.2695	0.075	144539	keystroke_Key.enter	Key.enter	n/a
72.352	5.259	144704	prompt	n/a	arab fruits roses jail\n
73.109	0.135	146218	keystroke_a	a	n/a
73.274	0.12	146548	keystroke_r	r	n/a
73.424	0.135	146848	keystroke_a	a	n/a
73.859	0.1205	147718	keystroke_b	b	n/a
74.0845	0.12	148169	keystroke_Key.space	Key.space	n/a
74.3395	0.105	148679	keystroke_f	f	n/a
74.5345	0.105	149069	keystroke_r	r	n/a
74.849	0.12	149698	keystroke_u	u	n/a
75.014	0.105	150028	keystroke_i	i	n/a
75.134	0.12	150268	keystroke_t	t	n/a
75.45	0.134	150900	keystroke_s	s	n/a
75.599	0.135	151198	keystroke_Key.space	Key.space	n/a
75.945	0.105	151890	keystroke_r	r	n/a
76.11	0.105	152220	keystroke_o	o	n/a
76.23	0.165	152460	keystroke_s	s	n/a
76.365	0.12	152730	keystroke_e	e	n/a
76.619	0.12	153238	keystroke_Key.space	Key.space	n/a
76.829	0.091	153658	keystroke_j	j	n/a
76.98	0.1345	153960	keystroke_a	a	n/a
77.0845	0.12	154169	keystroke_i	i	n/a
77.1745	0.15	154349	keystroke_l	l	n/a
77.5345	0.075	155069	keystroke_Key.enter	Key.enter	n/a
77.6135	10.1675	155227	prompt	n/a	tuesday possible operate resumes\n
78.54	0.104	157080	keystroke_t	t	n/a
78.704	0.09	157408	keystroke_u	u	n/a
78.959	0.09	157918	keystroke_e	e	n/a
79.514	0.09	159028	keystroke_s	s	n/a
79.664	0.1655	159328	keystroke_d	d	n/a
79.8145	0.1045	159629	keystroke_a	a	n/a
79.9645	0.06	159929	keystroke_y	y	n/a
80.19	0.09	160380	keystroke_Key.space	Key.space	n/a
80.475	0.045	160950	keystroke_p	p	n/a
80.67	0.06	161340	keystroke_o	o	n/a
80.865	0.06	161730	keystroke_o	o	n/a
81.105	0.1045	162210	keystroke_s	s	n/a
81.6145	0.075	163229	keystroke_Key.backspace	Key.backspace	n/a
82.079	0.06	164158	keystroke_Key.backspace	Key.backspace	n/a
82.439	0.105	164878	keystroke_s	s	n/a
82.649	0.075	165298	keystroke_s	s	n/a
82.754	0.105	165508	keystroke_i	i	n/a
83.264	0.105	166528	keystroke_b	b	n/a
83.46	0.089	166920	keystroke_l	l	n/a
83.564	0.18	167128	keystroke_e	e	n/a
83.729	0.12	167458	keystroke_Key.space	Key.space	n/a
84.989	0.15	169978	keystroke_o	o	n/a
85.169	0.091	170338	keystroke_p	p	n/a
85.275	0.255	170550	keystroke_e	e	n/a
85.425	0.135	170850	keystroke_r	r	n/a
85.89	0.179	171780	keystroke_a	a	n/a
86.039	0.15	172078	keystroke_t	t	n/a
86.175	0.165	172350	keystroke_e	e	n/a
86.309	0.135	172618	keystroke_Key.space	Key.space	n/a
86.579	0.1355	173158	keystroke_r	r	n/a
86.6845	0.1045	173369	keystroke_e	e	n/a
86.909	0.105	173818	keystroke_s	s	n/a
86.969	0.075	173938	keystroke_u	u	n/a
87.194	0.075	174388	keystroke_m	m	n/a
87.239	0.105	174478	keystroke_e	e	n/a
87.524	0.09	175048	keystroke_s	s	n/a
87.719	0.06	175438	keystroke_Key.enter	Key.enter	n/a
87.7855	11.996	175571	prompt	n/a	poetry module attorneys bride\n
88.574	0.09	177148	keystroke_p	p	n/a
88.769	0.09	177538	keystroke_o	o	n/a
89.009	0.12	178018	keystroke_e	e	n/a
89.249	0.075	178498	keystroke_t	t	n/a
89.459	0.09	178918	keystroke_r	r	n/a
89.6095	0.06	179219	keystroke_y	y	n/a
89.7895	0.09	179579	keystroke_Key.space	Key.space	n/a
90.1495	0.09	180299	keystroke_o	o	n/a
90.959	0.09	181918	keystroke_Key.backspace	Key.backspace	n/a
91.485	0.075	182970	keystroke_m	m	n/a
91.664	0.09	183328	keystroke_o	o	n/a
91.815	0.119	183630	keystroke_d	d	n/a
92.039	0.061	184078	keystroke_u	u	n/a
92.384	0.09	184768	keystroke_l	l	n/a
92.489	0.121	184978	keystroke_e	e	n/a
92.759	0.105	185518	keystroke_Key.space	Key.space	n/a
92.954	0.105	185908	keystroke_a	a	n/a
93.12	0.059	186240	keystroke_t	t	n/a
93.284	0.09	186568	keystroke_t	t	n/a
93.434	0.105	186868	keystroke_o	o	n/a
93.554	0.105	187108	keystroke_r	r	n/a
94.094	0.075	188188	keystroke_n	n	n/a
94.274	0.09	188548	keystroke_e	e	n/a
94.514	0.06	189028	keystroke_y	y	n/a
94.649	0.121	189298	keystroke_s	s	n/a
94.8145	0.135	189629	keystroke_Key.space	Key.space	n/a
95.0395	0.12	190079	keystroke_b	b	n/a
95.8795	0.105	191759	keystroke_r	r	n/a
96.1195	0.075	192239	keystroke_i	i	n/a
96.6295	0.09	193259	keystroke_d	d	n/a
96.8995	0.105	193799	keystroke_g	g	n/a
97.0945	0.09	194189	keystroke_e	e	n/a
97.6045	0.105	195209	keystroke_Key.backspace	Key.backspace	n/a
97.9795	0.06	195959	keystroke_Key.backspace	Key.backspace	n/a
99.21	0.105	198420	keystroke_e	e	n/a
99.705	0.075	199410	keystroke_Key.enter	Key.enter	n/a
99.7855	6.9405	199571	prompt	n/a	fleece dinner cant desktop\n
100.439	0.135	200878	keystroke_f	f	n/a
100.619	0.135	201238	keystroke_l	l	n/a
100.769	0.075	201538	keystroke_e	e	n/a
100.904	0.091	201808	keystroke_e	e	n/a
101.16	0.179	202320	keystroke_c	c	n/a
101.294	0.151	202588	keystroke_e	e	n/a
101.414	0.15	202828	keystroke_Key.space	Key.space	n/a
101.6095	0.12	203219	keystroke_d	d	n/a
101.7745	0.075	203549	keystroke_i	i	n/a
101.969	0.045	203938	keystroke_n	n	n/a
102.134	0.03	204268	keystroke_n	n	n/a
102.2545	0.1345	204509	keystroke_e	e	n/a
102.359	0.165	204718	keystroke_r	r	n/a
102.569	0.1205	205138	keystroke_Key.space	Key.space	n/a
103.08	0.225	206160	keystroke_c	c	n/a
103.29	0.15	206580	keystroke_a	a	n/a
103.455	0.075	206910	keystroke_n	n	n/a
103.605	0.12	207210	keystroke_t	t	n/a
103.844	0.076	207688	keystroke_Key.space	Key.space	n/a
104.1445	0.075	208289	keystroke_d	d	n/a
104.3245	0.09	208649	keystroke_e	e	n/a
104.4895	0.12	208979	keystroke_s	s	n/a
105.78	0.09	211560	keystroke_k	k	n/a
106.0345	0.105	212069	keystroke_t	t	n/a
106.1845	0.15	212369	keystroke_o	o	n/a
106.3645	0.12	212729	keystroke_p	p	n/a
106.6495	0.075	213299	keystroke_Key.enter	Key.enter	n/a
106.729	7.2725	213458	prompt	n/a	balanced replied chaos keen\n
107.4595	0.15	214919	keystroke_b	b	n/a
107.7145	0.075	215429	keystroke_a	a	n/a
108.15	0.105	216300	keystroke_l	l	n/a
108.375	0.135	216750	keystroke_a	a	n/a
108.54	0.075	217080	keystroke_n	n	n/a
108.674	0.181	217348	keystroke_c	c	n/a
108.81	0.105	217620	keystroke_e	e	n/a
109.035	0.15	218070	keystroke_d	d	n/a
109.169	0.1205	218338	keystroke_Key.space	Key.space	n/a
109.4395	0.1205	218879	keystroke_r	r	n/a
109.545	0.09	219090	keystroke_e	e	n/a
109.83	0.075	219660	keystroke_p	p	n/a
109.995	0.12	219990	keystroke_l	l	n/a
110.175	0.09	220350	keystroke_i	i	n/a
110.295	0.105	220590	keystroke_e	e	n/a
110.52	0.12	221040	keystroke_d	d	n/a
110.655	0.135	221310	keystroke_Key.space	Key.space	n/a
111.195	0.255	222390	keystroke_c	c	n/a
111.72	0.074	223440	keystroke_h	h	n/a
112.0045	0.1205	224009	keystroke_a	a	n/a
112.23	0.105	224460	keystroke_o	o	n/a
112.365	0.105	224730	keystroke_s	s	n/a
112.5895	0.135	225179	keystroke_Key.space	Key.space	n/a
113.13	0.105	226260	keystroke_k	k	n/a
113.355	0.09	226710	keystroke_e	e	n/a
113.52	0.075	227040	keystroke_e	e	n/a
113.685	0.0295	227370	keystroke_n	n	n/a
113.955	0.045	227910	keystroke_Key.enter	Key.enter	n/a
114.005	8.4565	228010	prompt	n/a	thee manchester estate trend\n
115.14	0.105	230280	keystroke_t	t	n/a
115.365	0.06	230730	keystroke_h	h	n/a
115.5	0.09	231000	keystroke_e	e	n/a
115.695	0.105	231390	keystroke_e	e	n/a
116.07	0.12	232140	keystroke_Key.space	Key.space	n/a
116.37	0.105	232740	keystroke_m	m	n/a
116.565	0.135	233130	keystroke_a	a	n/a
116.745	0.075	233490	keystroke_n	n	n/a
116.88	0.15	233760	keystroke_c	c	n/a
117.075	0.075	234150	keystroke_h	h	n/a
117.57	0.15	235140	keystroke_e	e	n/a
117.705	0.15	235410	keystroke_s	s	n/a
117.87	0.135	235740	keystroke_t	t	n/a
118.02	0.18	236040	keystroke_e	e	n/a
118.14	0.18	236280	keystroke_r	r	n/a
118.335	0.15	236670	keystroke_Key.space	Key.space	n/a
118.575	0.1045	237150	keystroke_e	e	n/a
118.7695	0.15	237539	keystroke_s	s	n/a
118.9945	0.105	237989	keystroke_t	t	n/a
120.2845	0.21	240569	keystroke_a	a	n/a
120.4795	0.135	240959	keystroke_t	t	n/a
120.5695	0.165	241139	keystroke_e	e	n/a
120.8245	0.165	241649	keystroke_Key.space	Key.space	n/a
121.0645	0.12	242129	keystroke_t	t	n/a
121.3195	0.135	242639	keystroke_r	r	n/a
121.4095	0.135	242819	keystroke_e	e	n/a
121.5895	0.075	243179	keystroke_n	n	n/a
121.7245	0.105	243449	keystroke_d	d	n/a
122.3695	0.09	244739	keystroke_Key.enter	Key.enter	n/a
122.4655	7.331	244931	prompt	n/a	exclusively denied coal float\n
123.1645	0.075	246329	keystroke_e	e	n/a
123.3905	0.12	246781	keystroke_x	x	n/a
123.6145	0.12	247229	keystroke_c	c	n/a
124.4995	0.1045	248999	keystroke_l	l	n/a
124.725	0.06	249450	keystroke_u	u	n/a
124.935	0.105	249870	keystroke_s	s	n/a
124.979	0.075	249958	keystroke_i	i	n/a
125.19	0.135	250380	keystroke_v	v	n/a
125.475	0.12	250950	keystroke_e	e	n/a
125.685	0.105	251370	keystroke_l	l	n/a
125.9395	0.06	251879	keystroke_y	y	n/a
126.0595	0.1495	252119	keystroke_Key.space	Key.space	n/a
126.255	0.105	252510	keystroke_d	d	n/a
126.45	0.09	252900	keystroke_e	e	n/a
126.57	0.075	253140	keystroke_n	n	n/a
126.735	0.09	253470	keystroke_i	i	n/a
126.84	0.075	253680	keystroke_e	e	n/a
127.05	0.1495	254100	keystroke_d	d	n/a
127.1845	0.135	254369	keystroke_Key.space	Key.space	n/a
127.485	0.1795	254970	keystroke_c	c	n/a
127.6795	0.0905	255359	keystroke_o	o	n/a
127.8145	0.1355	255629	keystroke_a	a	n/a
127.95	0.075	255900	keystroke_l	l	n/a
128.04	0.105	256080	keystroke_Key.space	Key.space	n/a
128.46	0.135	256920	keystroke_f	f	n/a
128.895	0.09	257790	keystroke_l	l	n/a
129.09	0.09	258180	keystroke_o	o	n/a
129.255	0.135	258510	keystroke_a	a	n/a
129.465	0.12	258930	keystroke_t	t	n/a
129.72	0.075	259440	keystroke_Key.enter	Key.enter	n/a
129.799	9.642	259598	prompt	n/a	conspiracy lexus ensures municipal\n
130.6205	0.15	261241	keystroke_c	c	n/a
130.7845	0.09	261569	keystroke_o	o	n/a
130.9055	0.089	261811	keystroke_n	n	n/a
131.0095	0.105	262019	keystroke_s	s	n/a
131.2645	0.0905	262529	keystroke_p	p	n/a
131.52	0.075	263040	keystroke_i	i	n/a
131.73	0.09	263460	keystroke_r	r	n/a
131.9695	0.135	263939	keystroke_a	a	n/a
132.1795	0.15	264359	keystroke_c	c	n/a
132.3905	0.074	264781	keystroke_y	y	n/a
132.5545	0.105	265109	keystroke_Key.space	Key.space	n/a
132.7945	0.135	265589	keystroke_l	l	n/a
132.9455	0.0745	265891	keystroke_e	e	n/a
133.14	0.12	266280	keystroke_x	x	n/a
133.32	0.09	266640	keystroke_u	u	n/a
133.455	0.12	266910	keystroke_s	s	n/a
133.575	0.1495	267150	keystroke_Key.space	Key.space	n/a
133.8595	0.09	267719	keystroke_e	e	n/a
133.9945	0.105	267989	keystroke_n	n	n/a
135.6595	0.12	271319	keystroke_s	s	n/a
135.8095	0.105	271619	keystroke_u	u	n/a
135.9295	0.12	271859	keystroke_r	r	n/a
136.0045	0.195	272009	keystroke_e	e	n/a
136.1845	0.121	272369	keystroke_s	s	n/a
136.3055	0.119	272611	keystroke_Key.space	Key.space	n/a
136.89	0.105	273780	keystroke_m	m	n/a
137.2195	0.09	274439	keystroke_u	u	n/a
137.505	0.06	275010	keystroke_n	n	n/a
137.7	0.06	275400	keystroke_i	i	n/a
138.105	0.165	276210	keystroke_c	c	n/a
138.24	0.105	276480	keystroke_i	i	n/a
138.4645	0.075	276929	keystroke_p	p	n/a
138.87	0.12	277740	keystroke_a	a	n/a
139.02	0.09	278040	keystroke_l	l	n/a
139.35	0.09	278700	keystroke_Key.enter	Key.enter	n/a
139.4445	8.8915	278889	prompt	n/a	alien conscious wallpapers physical\n
140.0095	0.135	280019	keystroke_a	a	n/a
140.1895	0.12	280379	keystroke_l	l	n/a
140.3695	0.0905	280739	keystroke_i	i	n/a
140.505	0.1195	281010	keystroke_e	e	n/a
140.6545	0.09	281309	keystroke_n	n	n/a
140.8045	0.105	281609	keystroke_Key.space	Key.space	n/a
141.21	0.135	282420	keystroke_c	c	n/a
141.315	0.12	282630	keystroke_o	o	n/a
141.48	0.075	282960	keystroke_n	n	n/a
141.57	0.105	283140	keystroke_s	s	n/a
141.915	0.0895	283830	keystroke_c	c	n/a
142.6195	0.09	285239	keystroke_i	i	n/a
142.8445	0.12	285689	keystroke_o	o	n/a
142.9795	0.09	285959	keystroke_u	u	n/a
143.1445	0.12	286289	keystroke_s	s	n/a
143.2795	0.165	286559	keystroke_Key.space	Key.space	n/a
143.715	0.09	287430	keystroke_w	w	n/a
143.865	0.135	287730	keystroke_a	a	n/a
144.33	0.075	288660	keystroke_l	l	n/a
144.4795	0.1205	288959	keystroke_l	l	n/a
144.7495	0.0905	289499	keystroke_p	p	n/a
144.9	0.135	289800	keystroke_a	a	n/a
145.1095	0.1055	290219	keystroke_p	p	n/a
145.2445	0.165	290489	keystroke_e	e	n/a
145.3645	0.105	290729	keystroke_r	r	n/a
145.5895	0.105	291179	keystroke_s	s	n/a
145.7095	0.12	291419	keystroke_Key.space	Key.space	n/a
145.9645	0.105	291929	keystroke_p	p	n/a
146.52	0.075	293040	keystroke_h	h	n/a
146.91	0.075	293820	keystroke_y	y	n/a
147.3	0.12	294600	keystroke_s	s	n/a
147.555	0.075	295110	keystroke_i	i	n/a
147.72	0.195	295440	keystroke_c	c	n/a
147.9	0.135	295800	keystroke_a	a	n/a
148.02	0.09	296040	keystroke_l	l	n/a
148.26	0.075	296520	keystroke_Key.enter	Key.enter	n/a
148.3395	6.6415	296679	prompt	n/a	cooperative uses postal subjects\n
149.1	0.09	298200	keystroke_c	c	n/a
149.475	0.075	298950	keystroke_o	o	n/a
149.8495	0.0905	299699	keystroke_o	o	n/a
150.044	0.09	300088	keystroke_p	p	n/a
150.179	0.151	300358	keystroke_e	e	n/a
150.284	0.105	300568	keystroke_r	r	n/a
150.464	0.121	300928	keystroke_a	a	n/a
150.6	0.104	301200	keystroke_t	t	n/a
150.734	0.105	301468	keystroke_i	i	n/a
150.929	0.12	301858	keystroke_v	v	n/a
151.124	0.1055	302248	keystroke_e	e	n/a
151.244	0.105	302488	keystroke_Key.space	Key.space	n/a
151.395	0.089	302790	keystroke_u	u	n/a
151.499	0.151	302998	keystroke_s	s	n/a
151.619	0.151	303238	keystroke_e	e	n/a
151.799	0.075	303598	keystroke_s	s	n/a
151.919	0.105	303838	keystroke_Key.space	Key.space	n/a
152.145	0.1045	304290	keystroke_p	p	n/a
152.3545	0.1055	304709	keystroke_o	o	n/a
152.445	0.1345	304890	keystroke_s	s	n/a
152.6095	0.1355	305219	keystroke_t	t	n/a
152.775	0.135	305550	keystroke_a	a	n/a
152.925	0.105	305850	keystroke_l	l	n/a
153.045	0.105	306090	keystroke_Key.space	Key.space	n/a
153.225	0.135	306450	keystroke_s	s	n/a
153.405	0.09	306810	keystroke_u	u	n/a
153.66	0.12	307320	keystroke_b	b	n/a
153.84	0.12	307680	keystroke_j	j	n/a
153.975	0.165	307950	keystroke_e	e	n/a
154.26	0.105	308520	keystroke_c	c	n/a
154.485	0.15	308970	keystroke_t	t	n/a
154.65	0.12	309300	keystroke_s	s	n/a
154.905	0.0745	309810	keystroke_Key.enter	Key.enter	n/a
154.9855	20.0365	309971	prompt	n/a	cordless sublimedirectory episodes issn\n
156.015	0.15	312030	keystroke_c	c	n/a
156.21	0.105	312420	keystroke_o	o	n/a
156.345	0.135	312690	keystroke_r	r	n/a
156.54	0.09	313080	keystroke_d	d	n/a
157.08	0.135	314160	keystroke_l	l	n/a
157.2	0.09	314400	keystroke_e	e	n/a
157.395	0.0895	314790	keystroke_s	s	n/a
157.5745	0.105	315149	keystroke_s	s	n/a
157.7545	0.165	315509	keystroke_Key.space	Key.space	n/a
158.324	0.12	316648	keystroke_s	s	n/a
158.55	0.074	317100	keystroke_u	u	n/a
158.76	0.134	317520	keystroke_b	b	n/a
158.969	0.105	317938	keystroke_l	l	n/a
159.27	0.119	318540	keystroke_i	i	n/a
160.755	0.105	321510	keystroke_m	m	n/a
161.069	0.136	322138	keystroke_e	e	n/a
161.5345	0.105	323069	keystroke_d	d	n/a
162.6295	0.105	325259	keystroke_i	i	n/a
163.125	0.105	326250	keystroke_r	r	n/a
163.305	0.105	326610	keystroke_e	e	n/a
163.605	0.09	327210	keystroke_c	c	n/a
163.86	0.12	327720	keystroke_t	t	n/a
164.025	0.12	328050	keystroke_o	o	n/a
164.115	0.12	328230	keystroke_r	r	n/a
164.295	0.09	328590	keystroke_y	y	n/a
164.415	0.135	328830	keystroke_Key.space	Key.space	n/a
164.7	0.09	329400	keystroke_e	e	n/a
172.383	0.042	344766	keystroke_p	p	n/a
172.5605	0.075	345121	keystroke_i	i	n/a
172.8755	0.105	345751	keystroke_s	s	n/a
173.0405	0.105	346081	keystroke_o	o	n/a
173.2805	0.075	346561	keystroke_d	d	n/a
173.4905	0.045	346981	keystroke_e	e	n/a
173.5955	0.135	347191	keystroke_s	s	n/a
174.045	0.135	348090	keystroke_Key.space	Key.space	n/a
174.27	0.075	348540	keystroke_i	i	n/a
174.39	0.09	348780	keystroke_s	s	n/a
174.555	0.09	349110	keystroke_s	s	n/a
174.675	0.105	349350	keystroke_n	n	n/a
174.96	0.06	349920	keystroke_Key.enter	Key.enter	n/a
175.025	5.6215	350050	prompt	n/a	wonder pick thunder laptops\n
175.965	0.09	351930	keystroke_w	w	n/a
176.07	0.105	352140	keystroke_o	o	n/a
176.235	0.0905	352470	keystroke_n	n	n/a
176.295	0.0755	352590	keystroke_d	d	n/a
176.4905	0.1045	352981	keystroke_e	e	n/a
176.58	0.12	353160	keystroke_r	r	n/a
176.775	0.12	353550	keystroke_Key.space	Key.space	n/a
176.865	0.105	353730	keystroke_p	p	n/a
177.015	0.105	354030	keystroke_i	i	n/a
177.165	0.135	354330	keystroke_c	c	n/a
177.285	0.105	354570	keystroke_k	k	n/a
177.391	0.104	354782	keystroke_Key.space	Key.space	n/a
177.54	0.105	355080	keystroke_t	t	n/a
177.63	0.06	355260	keystroke_h	h	n/a
177.81	0.045	355620	keystroke_u	u	n/a
177.9905	0.075	355981	keystroke_n	n	n/a
178.0505	0.06	356101	keystroke_d	d	n/a
178.2905	0.045	356581	keystroke_e	e	n/a
178.3205	0.135	356641	keystroke_r	r	n/a
178.5605	0.09	357121	keystroke_Key.space	Key.space	n/a
178.7405	0.135	357481	keystroke_l	l	n/a
178.9055	0.12	357811	keystroke_a	a	n/a
179.0555	0.1045	358111	keystroke_p	p	n/a
179.8955	0.105	359791	keystroke_t	t	n/a
180.0155	0.18	360031	keystroke_o	o	n/a
180.1805	0.105	360361	keystroke_p	p	n/a
180.3155	0.105	360631	keystroke_s	s	n/a
180.5855	0.06	361171	keystroke_Key.enter	Key.enter	n/a
180.6515	7.3455	361303	prompt	n/a	workforce beverage background chrome\n
181.3955	0.09	362791	keystroke_w	w	n/a
181.5605	0.09	363121	keystroke_o	o	n/a
181.6505	0.105	363301	keystroke_r	r	n/a
181.8005	0.105	363601	keystroke_k	k	n/a
182.0695	0.136	364139	keystroke_f	f	n/a
182.2205	0.135	364441	keystroke_o	o	n/a
182.2955	0.09	364591	keystroke_r	r	n/a
182.581	0.195	365162	keystroke_c	c	n/a
182.76	0.105	365520	keystroke_e	e	n/a
182.85	0.15	365700	keystroke_Key.space	Key.space	n/a
183.12	0.09	366240	keystroke_b	b	n/a
183.3905	0.105	366781	keystroke_e	e	n/a
183.6305	0.12	367261	keystroke_v	v	n/a
183.8255	0.195	367651	keystroke_e	e	n/a
183.9305	0.15	367861	keystroke_r	r	n/a
184.3055	0.15	368611	keystroke_a	a	n/a
184.4855	0.105	368971	keystroke_g	g	n/a
184.6505	0.1345	369301	keystroke_e	e	n/a
184.815	0.12	369630	keystroke_Key.space	Key.space	n/a
185.025	0.1055	370050	keystroke_b	b	n/a
185.1905	0.15	370381	keystroke_a	a	n/a
185.3705	0.12	370741	keystroke_c	c	n/a
185.5055	0.06	371011	keystroke_k	k	n/a
185.8355	0.0895	371671	keystroke_g	g	n/a
186.045	0.09	372090	keystroke_r	r	n/a
186.18	0.12	372360	keystroke_o	o	n/a
186.27	0.0755	372540	keystroke_u	u	n/a
186.4805	0.075	372961	keystroke_n	n	n/a
186.5105	0.15	373021	keystroke_d	d	n/a
186.6455	0.135	373291	keystroke_Key.space	Key.space	n/a
186.8555	0.12	373711	keystroke_c	c	n/a
186.9905	0.09	373981	keystroke_h	h	n/a
187.2005	0.105	374401	keystroke_r	r	n/a
187.3355	0.12	374671	keystroke_o	o	n/a
187.5155	0.105	375031	keystroke_m	m	n/a
187.6355	0.09	375271	keystroke_e	e	n/a
187.935	0.06	375870	keystroke_Key.enter	Key.enter	n/a
188	8.577	376000	prompt	n/a	bracket member returning combo\n
188.76	0.12	377520	keystroke_b	b	n/a
189.075	0.15	378150	keystroke_r	r	n/a
189.5555	0.135	379111	keystroke_a	a	n/a
190.0355	0.12	380071	keystroke_c	c	n/a
190.23	0.09	380460	keystroke_k	k	n/a
190.38	0.12	380760	keystroke_e	e	n/a
190.545	0.165	381090	keystroke_t	t	n/a
190.725	0.135	381450	keystroke_Key.space	Key.space	n/a
190.8905	0.09	381781	keystroke_m	m	n/a
190.9955	0.15	381991	keystroke_e	e	n/a
191.1155	0.105	382231	keystroke_m	m	n/a
191.3255	0.045	382651	keystroke_b	b	n/a
191.9855	0.135	383971	keystroke_e	e	n/a
192.1355	0.105	384271	keystroke_r	r	n/a
192.3155	0.165	384631	keystroke_Key.space	Key.space	n/a
192.8105	0.2105	385621	keystroke_r	r	n/a
192.9755	0.075	385951	keystroke_e	e	n/a
193.5455	0.105	387091	keystroke_t	t	n/a
193.831	0.0895	387662	keystroke_u	u	n/a
194.37	0.09	388740	keystroke_r	r	n/a
194.445	0.075	388890	keystroke_n	n	n/a
194.625	0.075	389250	keystroke_i	i	n/a
194.776	0.104	389552	keystroke_n	n	n/a
194.836	0.149	389672	keystroke_g	g	n/a
194.97	0.091	389940	keystroke_Key.space	Key.space	n/a
195.211	0.149	390422	keystroke_c	c	n/a
195.646	0.09	391292	keystroke_o	o	n/a
195.81	0.105	391620	keystroke_m	m	n/a
196.08	0.105	392160	keystroke_b	b	n/a
196.215	0.106	392430	keystroke_o	o	n/a
196.516	0.059	393032	keystroke_Key.enter	Key.enter	n/a
196.5805	7.1815	393161	prompt	n/a	auditor they're fact providers\n
197.2205	0.12	394441	keystroke_a	a	n/a
197.6555	0.075	395311	keystroke_u	u	n/a
197.8205	0.1045	395641	keystroke_d	d	n/a
198.0005	0.075	396001	keystroke_i	i	n/a
198.2105	0.09	396421	keystroke_t	t	n/a
198.3305	0.1045	396661	keystroke_o	o	n/a
198.495	0.135	396990	keystroke_r	r	n/a
198.69	0.135	397380	keystroke_Key.space	Key.space	n/a
198.945	0.105	397890	keystroke_t	t	n/a
199.3355	0.06	398671	keystroke_h	h	n/a
199.4405	0.12	398881	keystroke_e	e	n/a
199.5905	0.09	399181	keystroke_y	y	n/a
199.89	0.075	399780	keystroke_'	'	n/a
200.01	0.151	400020	keystroke_r	r	n/a
200.131	0.149	400262	keystroke_e	e	n/a
200.34	0.12	400680	keystroke_Key.space	Key.space	n/a
200.986	0.134	401972	keystroke_f	f	n/a
201.105	0.165	402210	keystroke_a	a	n/a
201.286	0.119	402572	keystroke_c	c	n/a
201.525	0.135	403050	keystroke_t	t	n/a
201.645	0.18	403290	keystroke_Key.space	Key.space	n/a
201.9305	0.09	403861	keystroke_p	p	n/a
202.0505	0.105	404101	keystroke_r	r	n/a
202.1855	0.075	404371	keystroke_o	o	n/a
202.6355	0.105	405271	keystroke_v	v	n/a
202.7705	0.105	405541	keystroke_i	i	n/a
202.8605	0.105	405721	keystroke_d	d	n/a
203.1005	0.135	406201	keystroke_e	e	n/a
203.1905	0.105	406381	keystroke_r	r	n/a
203.4005	0.105	406801	keystroke_s	s	n/a
203.6855	0.075	407371	keystroke_Key.enter	Key.enter	n/a
203.766	8.111	407532	prompt	n/a	tunisia trail everyone list\n
204.916	0.09	409832	keystroke_t	t	n/a
205.065	0.06	410130	keystroke_u	u	n/a
205.275	0.075	410550	keystroke_n	n	n/a
205.635	0.09	411270	keystroke_i	i	n/a
205.965	0.12	411930	keystroke_s	s	n/a
206.205	0.075	412410	keystroke_i	i	n/a
206.445	0.135	412890	keystroke_a	a	n/a
206.595	0.135	413190	keystroke_Key.space	Key.space	n/a
206.821	0.09	413642	keystroke_t	t	n/a
207.031	0.104	414062	keystroke_r	r	n/a
207.151	0.089	414302	keystroke_a	a	n/a
207.255	0.06	414510	keystroke_i	i	n/a
207.435	0.106	414870	keystroke_l	l	n/a
209.205	0.1355	418410	keystroke_Key.space	Key.space	n/a
209.8505	0.0895	419701	keystroke_e	e	n/a
210.045	0.105	420090	keystroke_v	v	n/a
210.195	0.12	420390	keystroke_e	e	n/a
210.271	0.119	420542	keystroke_r	r	n/a
210.42	0.09	420840	keystroke_y	y	n/a
210.63	0.12	421260	keystroke_o	o	n/a
210.825	0.106	421650	keystroke_n	n	n/a
210.915	0.15	421830	keystroke_e	e	n/a
211.035	0.135	422070	keystroke_Key.space	Key.space	n/a
211.125	0.106	422250	keystroke_l	l	n/a
211.305	0.09	422610	keystroke_i	i	n/a
211.381	0.1645	422762	keystroke_s	s	n/a
211.5755	0.105	423151	keystroke_t	t	n/a
211.8005	0.075	423601	keystroke_Key.enter	Key.enter	n/a
211.8805	5.7265	423761	prompt	n/a	candy organizer hose drove\n
212.565	0.18	425130	keystroke_c	c	n/a
212.716	0.134	425432	keystroke_a	a	n/a
212.82	0.091	425640	keystroke_n	n	n/a
212.925	0.105	425850	keystroke_d	d	n/a
213.091	0.059	426182	keystroke_y	y	n/a
213.285	0.12	426570	keystroke_Key.space	Key.space	n/a
213.555	0.12	427110	keystroke_o	o	n/a
213.615	0.105	427230	keystroke_r	r	n/a
214.05	0.105	428100	keystroke_g	g	n/a
214.185	0.135	428370	keystroke_a	a	n/a
214.335	0.075	428670	keystroke_n	n	n/a
214.47	0.09	428940	keystroke_i	i	n/a
214.62	0.136	429240	keystroke_z	z	n/a
214.83	0.136	429660	keystroke_e	e	n/a
214.935	0.15	429870	keystroke_r	r	n/a
215.086	0.149	430172	keystroke_Key.space	Key.space	n/a
215.295	0.09	430590	keystroke_h	h	n/a
215.46	0.135	430920	keystroke_o	o	n/a
215.58	0.15	431160	keystroke_s	s	n/a
215.715	0.12	431430	keystroke_e	e	n/a
215.85	0.105	431700	keystroke_Key.space	Key.space	n/a
216.03	0.12	432060	keystroke_d	d	n/a
216.4355	0.0745	432871	keystroke_r	r	n/a
216.645	0.135	433290	keystroke_o	o	n/a
216.765	0.09	433530	keystroke_v	v	n/a
216.96	0.075	433920	keystroke_e	e	n/a
217.5005	0.105	435001	keystroke_Key.enter	Key.enter	n/a
217.6095	9.283	435219	prompt	n/a	pairs london screw condo\n
218.2505	0.09	436501	keystroke_p	p	n/a
218.3855	0.135	436771	keystroke_a	a	n/a
218.5055	0.09	437011	keystroke_r	r	n/a
218.6105	0.09	437221	keystroke_i	i	n/a
218.7455	0.1195	437491	keystroke_s	s	n/a
218.91	0.135	437820	keystroke_Key.space	Key.space	n/a
220.245	0.09	440490	keystroke_Key.backspace	Key.backspace	n/a
220.9055	0.075	441811	keystroke_Key.backspace	Key.backspace	n/a
221.535	0.09	443070	keystroke_Key.backspace	Key.backspace	n/a
222.0455	0.075	444091	keystroke_Key.backspace	Key.backspace	n/a
222.5255	0.09	445051	keystroke_i	i	n/a
222.6305	0.12	445261	keystroke_r	r	n/a
222.8105	0.1195	445621	keystroke_s	s	n/a
222.945	0.135	445890	keystroke_Key.space	Key.space	n/a
223.2	0.12	446400	keystroke_l	l	n/a
223.41	0.09	446820	keystroke_o	o	n/a
223.59	0.06	447180	keystroke_n	n	n/a
223.68	0.105	447360	keystroke_d	d	n/a
223.8	0.12	447600	keystroke_o	o	n/a
223.996	0.089	447992	keystroke_n	n	n/a
224.115	0.105	448230	keystroke_Key.space	Key.space	n/a
224.61	0.12	449220	keystroke_s	s	n/a
224.85	0.105	449700	keystroke_c	c	n/a
225.075	0.135	450150	keystroke_r	r	n/a
225.18	0.15	450360	keystroke_e	e	n/a
225.315	0.105	450630	keystroke_w	w	n/a
225.435	0.135	450870	keystroke_Key.space	Key.space	n/a
226.0355	0.135	452071	keystroke_c	c	n/a
226.1855	0.15	452371	keystroke_o	o	n/a
226.3505	0.075	452701	keystroke_n	n	n/a
226.4255	0.1345	452851	keystroke_d	d	n/a
226.575	0.09	453150	keystroke_o	o	n/a
226.815	0.075	453630	keystroke_Key.enter	Key.enter	n/a
226.8965	18.3705	453793	prompt	n/a	maritime nothing commercial hottest\n
227.7	0.12	455400	keystroke_m	m	n/a
227.88	0.1655	455760	keystroke_a	a	n/a
228.0455	0.12	456091	keystroke_r	r	n/a
229.6505	0.12	459301	keystroke_i	i	n/a
229.8455	0.06	459691	keystroke_t	t	n/a
229.95	0.09	459900	keystroke_i	i	n/a
230.1	0.135	460200	keystroke_m	m	n/a
230.205	0.105	460410	keystroke_e	e	n/a
230.475	0.135	460950	keystroke_Key.space	Key.space	n/a
230.94	0.075	461880	keystroke_n	n	n/a
231.105	0.09	462210	keystroke_o	o	n/a
231.255	0.09	462510	keystroke_t	t	n/a
231.33	0.09	462660	keystroke_h	h	n/a
231.465	0.105	462930	keystroke_i	i	n/a
231.615	0.09	463230	keystroke_n	n	n/a
231.645	0.12	463290	keystroke_g	g	n/a
231.765	0.105	463530	keystroke_Key.space	Key.space	n/a
231.975	0.135	463950	keystroke_c	c	n/a
232.095	0.075	464190	keystroke_o	o	n/a
232.275	0.045	464550	keystroke_m	m	n/a
232.425	0.06	464850	keystroke_m	m	n/a
232.515	0.15	465030	keystroke_e	e	n/a
232.62	0.12	465240	keystroke_r	r	n/a
232.83	0.09	465660	keystroke_i	i	n/a
232.95	0.15	465900	keystroke_c	c	n/a
233.085	0.15	466170	keystroke_a	a	n/a
233.205	0.105	466410	keystroke_l	l	n/a
233.325	0.09	466650	keystroke_Key.space	Key.space	n/a
233.475	0.075	466950	keystroke_h	h	n/a
233.7	0.075	467400	keystroke_o	o	n/a
234.78	0.09	469560	keystroke_Key.backspace	Key.backspace	n/a
235.1855	0.09	470371	keystroke_Key.backspace	Key.backspace	n/a
236.0855	0.075	472171	keystroke_Key.backspace	Key.backspace	n/a
236.58	0.075	473160	keystroke_Key.backspace	Key.backspace	n/a
237.106	0.075	474212	keystroke_Key.backspace	Key.backspace	n/a
237.631	0.09	475262	keystroke_i	i	n/a
237.751	0.105	475502	keystroke_a	a	n/a
237.871	0.09	475742	keystroke_l	l	n/a
237.975	0.15	475950	keystroke_Key.space	Key.space	n/a
239.925	0.105	479850	keystroke_Key.backspace	Key.backspace	n/a
240.48	0.105	480960	keystroke_Key.backspace	Key.backspace	n/a
241.065	0.09	482130	keystroke_Key.backspace	Key.backspace	n/a
241.6055	0.075	483211	keystroke_Key.backspace	Key.backspace	n/a
242.1305	0.06	484261	keystroke_Key.backspace	Key.backspace	n/a
242.5655	0.06	485131	keystroke_Key.backspace	Key.backspace	n/a
242.8355	0.15	485671	keystroke_c	c	n/a
242.9705	0.09	485941	keystroke_i	i	n/a
243.1355	0.12	486271	keystroke_a	a	n/a
243.2255	0.09	486451	keystroke_l	l	n/a
243.3305	0.135	486661	keystroke_Key.space	Key.space	n/a
244.095	0.075	488190	keystroke_h	h	n/a
244.245	0.135	488490	keystroke_o	o	n/a
244.455	0.061	488910	keystroke_t	t	n/a
244.59	0.105	489180	keystroke_t	t	n/a
244.68	0.1805	489360	keystroke_e	e	n/a
244.8305	0.18	489661	keystroke_s	s	n/a
244.9805	0.12	489961	keystroke_t	t	n/a
245.2055	0.06	490411	keystroke_Key.enter	Key.enter	n/a
245.27	5.6675	490540	prompt	n/a	patio podcast vision anne\n
245.9105	0.105	491821	keystroke_p	p	n/a
246.1355	0.105	492271	keystroke_a	a	n/a
246.2855	0.09	492571	keystroke_t	t	n/a
246.4055	0.165	492811	keystroke_i	i	n/a
246.5405	0.1655	493081	keystroke_o	o	n/a
246.765	0.121	493530	keystroke_Key.space	Key.space	n/a
247.261	0.12	494522	keystroke_p	p	n/a
247.786	0.105	495572	keystroke_o	o	n/a
247.906	0.105	495812	keystroke_d	d	n/a
248.236	0.15	496472	keystroke_c	c	n/a
248.371	0.135	496742	keystroke_a	a	n/a
248.566	0.1345	497132	keystroke_s	s	n/a
248.7605	0.1345	497521	keystroke_t	t	n/a
248.91	0.12	497820	keystroke_Key.space	Key.space	n/a
249.135	0.135	498270	keystroke_v	v	n/a
249.285	0.075	498570	keystroke_i	i	n/a
249.405	0.105	498810	keystroke_s	s	n/a
249.495	0.18	498990	keystroke_i	i	n/a
249.615	0.15	499230	keystroke_o	o	n/a
249.75	0.135	499500	keystroke_n	n	n/a
249.9605	0.105	499921	keystroke_Key.space	Key.space	n/a
250.246	0.1195	500492	keystroke_a	a	n/a
250.411	0.0595	500822	keystroke_n	n	n/a
250.5605	0.075	501121	keystroke_n	n	n/a
250.6505	0.09	501301	keystroke_e	e	n/a
250.876	0.0595	501752	keystroke_Key.enter	Key.enter	n/a
250.9415	7.3155	501883	prompt	n/a	bingo submit marked translated\n
251.836	0.12	503672	keystroke_b	b	n/a
251.971	0.075	503942	keystroke_i	i	n/a
252.136	0.075	504272	keystroke_n	n	n/a
252.196	0.075	504392	keystroke_g	g	n/a
252.361	0.105	504722	keystroke_o	o	n/a
252.481	0.12	504962	keystroke_Key.space	Key.space	n/a
253.246	0.1345	506492	keystroke_s	s	n/a
253.441	0.09	506882	keystroke_u	u	n/a
253.621	0.0595	507242	keystroke_b	b	n/a
253.9355	0.105	507871	keystroke_m	m	n/a
254.0855	0.075	508171	keystroke_i	i	n/a
254.641	0.18	509282	keystroke_t	t	n/a
254.806	0.164	509612	keystroke_Key.space	Key.space	n/a
254.956	0.104	509912	keystroke_m	m	n/a
255.016	0.165	510032	keystroke_a	a	n/a
255.15	0.12	510300	keystroke_r	r	n/a
255.285	0.091	510570	keystroke_k	k	n/a
255.361	0.104	510722	keystroke_e	e	n/a
255.586	0.164	511172	keystroke_d	d	n/a
255.765	0.075	511530	keystroke_Key.space	Key.space	n/a
256.185	0.105	512370	keystroke_t	t	n/a
256.395	0.165	512790	keystroke_r	r	n/a
256.545	0.135	513090	keystroke_a	a	n/a
256.665	0.06	513330	keystroke_n	n	n/a
257.1605	0.075	514321	keystroke_s	s	n/a
257.2655	0.09	514531	keystroke_l	l	n/a
257.3705	0.165	514741	keystroke_a	a	n/a
257.5505	0.15	515101	keystroke_t	t	n/a
257.6555	0.12	515311	keystroke_e	e	n/a
257.9255	0.0455	515851	keystroke_d	d	n/a
258.181	0.075	516362	keystroke_Key.enter	Key.enter	n/a
258.2595	9.9575	516519	prompt	n/a	guest tolerance sync coleman\n
259.006	0.105	518012	keystroke_g	g	n/a
259.171	0.09	518342	keystroke_u	u	n/a
259.321	0.18	518642	keystroke_e	e	n/a
259.456	0.18	518912	keystroke_s	s	n/a
259.636	0.1495	519272	keystroke_t	t	n/a
259.8005	0.165	519601	keystroke_Key.space	Key.space	n/a
260.2505	0.12	520501	keystroke_t	t	n/a
260.4155	0.09	520831	keystroke_o	o	n/a
260.7305	0.09	521461	keystroke_e	e	n/a
261.2555	0.09	522511	keystroke_Key.backspace	Key.backspace	n/a
261.9155	0.12	523831	keystroke_l	l	n/a
262.0805	0.195	524161	keystroke_e	e	n/a
262.2155	0.105	524431	keystroke_r	r	n/a
262.3955	0.15	524791	keystroke_a	a	n/a
262.5305	0.06	525061	keystroke_n	n	n/a
262.6505	0.18	525301	keystroke_c	c	n/a
262.7855	0.165	525571	keystroke_e	e	n/a
262.9355	0.135	525871	keystroke_Key.space	Key.space	n/a
263.3105	0.12	526621	keystroke_s	s	n/a
263.6855	0.075	527371	keystroke_n	n	n/a
264.2855	0.075	528571	keystroke_Key.backspace	Key.backspace	n/a
265.4855	0.09	530971	keystroke_y	y	n/a
265.8155	0.075	531631	keystroke_n	n	n/a
266.0555	0.18	532111	keystroke_c	c	n/a
266.2655	0.09	532531	keystroke_Key.space	Key.space	n/a
266.6855	0.12	533371	keystroke_c	c	n/a
266.8805	0.075	533761	keystroke_o	o	n/a
267.0755	0.105	534151	keystroke_l	l	n/a
267.2555	0.09	534511	keystroke_e	e	n/a
267.3905	0.075	534781	keystroke_m	m	n/a
267.7505	0.105	535501	keystroke_a	a	n/a
267.8555	0.06	535711	keystroke_n	n	n/a
268.1405	0.075	536281	keystroke_Key.enter	Key.enter	n/a
268.22	5.967	536440	prompt	n/a	tennis social oils summer\n
268.9505	0.0905	537901	keystroke_t	t	n/a
269.131	0.1195	538262	keystroke_e	e	n/a
269.476	0.06	538952	keystroke_n	n	n/a
269.626	0.06	539252	keystroke_n	n	n/a
269.791	0.06	539582	keystroke_i	i	n/a
269.866	0.15	539732	keystroke_s	s	n/a
270.031	0.12	540062	keystroke_Key.space	Key.space	n/a
270.5255	0.135	541051	keystroke_s	s	n/a
270.8105	0.075	541621	keystroke_o	o	n/a
270.9905	0.12	541981	keystroke_c	c	n/a
271.1255	0.075	542251	keystroke_i	i	n/a
271.2305	0.12	542461	keystroke_a	a	n/a
271.3955	0.09	542791	keystroke_l	l	n/a
271.5155	0.12	543031	keystroke_Key.space	Key.space	n/a
272.1155	0.0895	544231	keystroke_o	o	n/a
272.265	0.0755	544530	keystroke_i	i	n/a
272.4605	0.105	544921	keystroke_l	l	n/a
272.6105	0.135	545221	keystroke_s	s	n/a
272.7605	0.15	545521	keystroke_Key.space	Key.space	n/a
273.1955	0.12	546391	keystroke_s	s	n/a
273.3305	0.0595	546661	keystroke_u	u	n/a
273.541	0.044	547082	keystroke_m	m	n/a
273.69	0.076	547380	keystroke_m	m	n/a
273.856	0.1045	547712	keystroke_e	e	n/a
273.9305	0.09	547861	keystroke_r	r	n/a
274.1255	0.06	548251	keystroke_Key.enter	Key.enter	n/a
274.1915	13.526	548383	prompt	n/a	downloadable verzeichnis excuse automatically\n
274.906	0.0895	549812	keystroke_d	d	n/a
275.0705	0.105	550141	keystroke_o	o	n/a
275.1605	0.105	550321	keystroke_w	w	n/a
275.3705	0.09	550741	keystroke_n	n	n/a
275.776	0.09	551552	keystroke_l	l	n/a
276.436	0.09	552872	keystroke_o	o	n/a
276.556	0.12	553112	keystroke_a	a	n/a
276.721	0.105	553442	keystroke_d	d	n/a
276.886	0.255	553772	keystroke_a	a	n/a
277.096	0.135	554192	keystroke_b	b	n/a
277.321	0.105	554642	keystroke_l	l	n/a
277.411	0.12	554822	keystroke_e	e	n/a
277.501	0.135	555002	keystroke_Key.space	Key.space	n/a
277.951	0.09	555902	keystroke_v	v	n/a
278.146	0.18	556292	keystroke_e	e	n/a
278.251	0.134	556502	keystroke_r	r	n/a
278.611	0.12	557222	keystroke_z	z	n/a
279.2105	0.12	558421	keystroke_e	e	n/a
280.1405	0.09	560281	keystroke_i	i	n/a
280.6955	0.1045	561391	keystroke_c	c	n/a
280.875	0.075	561750	keystroke_h	h	n/a
281.1	0.06	562200	keystroke_n	n	n/a
281.236	0.089	562472	keystroke_i	i	n/a
281.355	0.12	562710	keystroke_s	s	n/a
281.49	0.1355	562980	keystroke_Key.space	Key.space	n/a
281.6705	0.09	563341	keystroke_e	e	n/a
281.9105	0.0895	563821	keystroke_x	x	n/a
282.151	0.15	564302	keystroke_c	c	n/a
282.285	0.076	564570	keystroke_u	u	n/a
282.51	0.09	565020	keystroke_t	t	n/a
283.306	0.105	566612	keystroke_Key.backspace	Key.backspace	n/a
283.561	0.21	567122	keystroke_s	s	n/a
283.786	0.045	567572	keystroke_e	e	n/a
284.086	0.135	568172	keystroke_Key.space	Key.space	n/a
284.4905	0.135	568981	keystroke_a	a	n/a
284.9255	0.06	569851	keystroke_u	u	n/a
285.1505	0.105	570301	keystroke_t	t	n/a
285.7355	0.09	571471	keystroke_o	o	n/a
286.0055	0.075	572011	keystroke_m	m	n/a
286.1555	0.12	572311	keystroke_a	a	n/a
286.3355	0.12	572671	keystroke_t	t	n/a
286.5305	0.075	573061	keystroke_i	i	n/a
286.711	0.15	573422	keystroke_c	c	n/a
286.846	0.135	573692	keystroke_a	a	n/a
286.966	0.06	573932	keystroke_l	l	n/a
287.116	0.105	574232	keystroke_l	l	n/a
287.326	0.06	574652	keystroke_y	y	n/a
287.641	0.075	575282	keystroke_Key.enter	Key.enter	n/a
287.721	13.061	575442	prompt	n/a	compounds annoying enabling ballet\n
288.376	0.15	576752	keystroke_c	c	n/a
288.781	0.09	577562	keystroke_o	o	n/a
288.961	0.105	577922	keystroke_m	m	n/a
289.126	0.09	578252	keystroke_p	p	n/a
289.336	0.06	578672	keystroke_u	u	n/a
289.561	0.075	579122	keystroke_n	n	n/a
289.861	0.15	579722	keystroke_d	d	n/a
290.085	0.106	580170	keystroke_s	s	n/a
290.295	0.1355	580590	keystroke_Key.space	Key.space	n/a
290.6255	0.075	581251	keystroke_a	a	n/a
292.5	0.075	585000	keystroke_Key.backspace	Key.backspace	n/a
292.995	0.06	585990	keystroke_Key.backspace	Key.backspace	n/a
293.4305	0.06	586861	keystroke_Key.backspace	Key.backspace	n/a
293.7905	0.06	587581	keystroke_Key.backspace	Key.backspace	n/a
294.211	0.075	588422	keystroke_Key.backspace	Key.backspace	n/a
294.526	0.06	589052	keystroke_Key.backspace	Key.backspace	n/a
295.051	0.135	590102	keystroke_o	o	n/a
295.201	0.075	590402	keystroke_u	u	n/a
295.396	0.105	590792	keystroke_n	n	n/a
295.516	0.15	591032	keystroke_d	d	n/a
295.681	0.18	591362	keystroke_s	s	n/a
295.876	0.15	591752	keystroke_Key.space	Key.space	n/a
296.491	0.12	592982	keystroke_a	a	n/a
296.656	0.045	593312	keystroke_n	n	n/a
296.776	0.075	593552	keystroke_n	n	n/a
296.926	0.105	593852	keystroke_o	o	n/a
297.091	0.074	594182	keystroke_y	y	n/a
297.241	0.089	594482	keystroke_i	i	n/a
297.436	0.074	594872	keystroke_n	n	n/a
297.555	0.135	595110	keystroke_g	g	n/a
297.72	0.12	595440	keystroke_Key.space	Key.space	n/a
298.156	0.12	596312	keystroke_e	e	n/a
298.351	0.075	596702	keystroke_n	n	n/a
298.576	0.1345	597152	keystroke_a	a	n/a
298.8005	0.1355	597601	keystroke_b	b	n/a
298.951	0.105	597902	keystroke_l	l	n/a
299.1155	0.09	598231	keystroke_i	i	n/a
299.281	0.09	598562	keystroke_n	n	n/a
299.341	0.15	598682	keystroke_g	g	n/a
299.476	0.15	598952	keystroke_Key.space	Key.space	n/a
299.731	0.105	599462	keystroke_b	b	n/a
299.866	0.105	599732	keystroke_a	a	n/a
300.016	0.075	600032	keystroke_l	l	n/a
300.166	0.135	600332	keystroke_l	l	n/a
300.271	0.135	600542	keystroke_e	e	n/a
300.421	0.15	600842	keystroke_t	t	n/a
300.691	0.09	601382	keystroke_Key.enter	Key.enter	n/a
300.7855	24.0875	601571	prompt	n/a	investors olive alexandria kilometers\n
301.396	0.06	602792	keystroke_i	i	n/a
301.546	0.09	603092	keystroke_n	n	n/a
301.756	0.105	603512	keystroke_v	v	n/a
301.9655	0.15	603931	keystroke_e	e	n/a
302.0705	0.105	604141	keystroke_r	r	n/a
302.2955	0.12	604591	keystroke_s	s	n/a
302.4005	0.09	604801	keystroke_t	t	n/a
302.5205	0.105	605041	keystroke_o	o	n/a
302.6405	0.09	605281	keystroke_r	r	n/a
302.8055	0.1495	605611	keystroke_s	s	n/a
302.956	0.134	605912	keystroke_Key.space	Key.space	n/a
303.27	0.076	606540	keystroke_o	o	n/a
304.0955	0.12	608191	keystroke_Key.backspace	Key.backspace	n/a
304.5605	0.09	609121	keystroke_Key.backspace	Key.backspace	n/a
306.526	0.09	613052	keystroke_Key.backspace	Key.backspace	n/a
306.961	0.09	613922	keystroke_Key.backspace	Key.backspace	n/a
307.516	0.06	615032	keystroke_Key.backspace	Key.backspace	n/a
307.9805	0.075	615961	keystroke_Key.backspace	Key.backspace	n/a
308.3855	0.075	616771	keystroke_Key.backspace	Key.backspace	n/a
308.97	0.075	617940	keystroke_Key.backspace	Key.backspace	n/a
309.405	0.136	618810	keystroke_s	s	n/a
309.601	0.104	619202	keystroke_t	t	n/a
309.751	0.119	619502	keystroke_o	o	n/a
309.885	0.06	619770	keystroke_r	r	n/a
310.065	0.1355	620130	keystroke_s	s	n/a
310.2155	0.135	620431	keystroke_Key.space	Key.space	n/a
310.4705	0.075	620941	keystroke_o	o	n/a
310.6355	0.135	621271	keystroke_l	l	n/a
310.8005	0.09	621601	keystroke_i	i	n/a
310.9055	0.12	621811	keystroke_v	v	n/a
311.1155	0.105	622231	keystroke_e	e	n/a
311.1905	0.15	622381	keystroke_Key.space	Key.space	n/a
311.5055	0.135	623011	keystroke_a	a	n/a
311.791	0.09	623582	keystroke_l	l	n/a
312.346	0.12	624692	keystroke_a	a	n/a
312.961	0.105	625922	keystroke_x	x	n/a
313.201	0.134	626402	keystroke_a	a	n/a
313.876	0.15	627752	keystroke_Key.backspace	Key.backspace	n/a
314.356	0.105	628712	keystroke_Key.backspace	Key.backspace	n/a
315.196	0.075	630392	keystroke_Key.backspace	Key.backspace	n/a
316.111	0.089	632222	keystroke_e	e	n/a
316.365	0.105	632730	keystroke_x	x	n/a
316.6055	0.136	633211	keystroke_a	a	n/a
316.7705	0.09	633541	keystroke_n	n	n/a
316.9655	0.1055	633931	keystroke_d	d	n/a
317.266	0.18	634532	keystroke_r	r	n/a
317.551	0.15	635102	keystroke_a	a	n/a
318.166	0.06	636332	keystroke_Key.backspace	Key.backspace	n/a
318.451	0.075	636902	keystroke_i	i	n/a
318.601	0.15	637202	keystroke_a	a	n/a
318.766	0.15	637532	keystroke_Key.space	Key.space	n/a
320.356	0.074	640712	keystroke_k	k	n/a
321.1805	0.091	642361	keystroke_i	i	n/a
322.261	0.075	644522	keystroke_l	l	n/a
322.486	0.075	644972	keystroke_o	o	n/a
322.711	0.075	645422	keystroke_m	m	n/a
322.846	0.15	645692	keystroke_e	e	n/a
323.056	0.18	646112	keystroke_t	t	n/a
323.176	0.18	646352	keystroke_e	e	n/a
323.5815	0.075	647163	keystroke_s	s	n/a
324.1805	0.075	648361	keystroke_Key.backspace	Key.backspace	n/a
324.3465	0.09	648693	keystroke_r	r	n/a
324.556	0.075	649112	keystroke_s	s	n/a
324.781	0.09	649562	keystroke_Key.enter	Key.enter	n/a
324.877	18.5955	649754	prompt	n/a	destroyed groundwater legislation combined\n
325.681	0.06	651362	keystroke_d	d	n/a
325.831	0.12	651662	keystroke_e	e	n/a
325.966	0.165	651932	keystroke_s	s	n/a
326.101	0.09	652202	keystroke_t	t	n/a
326.311	0.12	652622	keystroke_o	o	n/a
326.401	0.09	652802	keystroke_r	r	n/a
326.551	0.075	653102	keystroke_y	y	n/a
326.761	0.12	653522	keystroke_e	e	n/a
327.0005	0.1505	654001	keystroke_d	d	n/a
327.136	0.105	654272	keystroke_Key.space	Key.space	n/a
327.541	0.12	655082	keystroke_g	g	n/a
328.531	0.135	657062	keystroke_Key.backspace	Key.backspace	n/a
330.0915	0.149	660183	keystroke_Key.backspace	Key.backspace	n/a
331.876	0.15	663752	keystroke_Key.backspace	Key.backspace	n/a
332.326	0.09	664652	keystroke_Key.backspace	Key.backspace	n/a
332.881	0.075	665762	keystroke_Key.backspace	Key.backspace	n/a
333.406	0.09	666812	keystroke_Key.backspace	Key.backspace	n/a
333.826	0.0595	667652	keystroke_Key.backspace	Key.backspace	n/a
334.0655	0.105	668131	keystroke_r	r	n/a
334.186	0.06	668372	keystroke_o	o	n/a
334.786	0.12	669572	keystroke_y	y	n/a
335.041	0.09	670082	keystroke_e	e	n/a
335.236	0.12	670472	keystroke_d	d	n/a
335.371	0.135	670742	keystroke_Key.space	Key.space	n/a
335.836	0.105	671672	keystroke_g	g	n/a
336.061	0.12	672122	keystroke_r	r	n/a
336.196	0.09	672392	keystroke_o	o	n/a
336.256	0.09	672512	keystroke_u	u	n/a
336.496	0.09	672992	keystroke_n	n	n/a
336.541	0.09	673082	keystroke_d	d	n/a
336.721	0.105	673442	keystroke_w	w	n/a
336.841	0.195	673682	keystroke_a	a	n/a
337.006	0.135	674012	keystroke_t	t	n/a
337.126	0.195	674252	keystroke_e	e	n/a
337.291	0.1345	674582	keystroke_r	r	n/a
337.5605	0.105	675121	keystroke_Key.space	Key.space	n/a
337.8005	0.12	675601	keystroke_l	l	n/a
337.9505	0.105	675901	keystroke_e	e	n/a
338.2505	0.09	676501	keystroke_g	g	n/a
338.4455	0.075	676891	keystroke_i	i	n/a
339.0755	0.15	678151	keystroke_s	s	n/a
339.5855	0.09	679171	keystroke_l	l	n/a
339.7205	0.1355	679441	keystroke_a	a	n/a
339.886	0.06	679772	keystroke_t	t	n/a
340.081	0.225	680162	keystroke_i	i	n/a
340.246	0.18	680492	keystroke_o	o	n/a
340.441	0.12	680882	keystroke_n	n	n/a
340.726	0.12	681452	keystroke_Key.space	Key.space	n/a
341.5055	0.1505	683011	keystroke_c	c	n/a
341.671	0.105	683342	keystroke_o	o	n/a
342.2705	0.09	684541	keystroke_m	m	n/a
342.451	0.1055	684902	keystroke_b	b	n/a
342.5415	0.075	685083	keystroke_i	i	n/a
342.6915	0.09	685383	keystroke_n	n	n/a
342.7815	0.105	685563	keystroke_e	e	n/a
343.0515	0.12	686103	keystroke_d	d	n/a
343.3965	0.075	686793	keystroke_Key.enter	Key.enter	n/a
343.476	13.9465	686952	prompt	n/a	audi celebs johnny steady\n
344.7615	0.03	689523	keystroke_u	u	n/a
345.196	0.075	690392	keystroke_Key.backspace	Key.backspace	n/a
345.376	0.12	690752	keystroke_a	a	n/a
345.541	0.0595	691082	keystroke_u	u	n/a
345.542	0.044	691084	keystroke_i	i	n/a
345.6605	0.09	691321	keystroke_d	d	n/a
346.381	0.0605	692762	keystroke_Key.backspace	Key.backspace	n/a
346.8015	0.045	693603	keystroke_Key.backspace	Key.backspace	n/a
349.0085	0.043	698017	keystroke_d	d	n/a
349.1855	0.06	698371	keystroke_i	i	n/a
349.3655	0.105	698731	keystroke_Key.space	Key.space	n/a
350.2065	0.18	700413	keystroke_c	c	n/a
350.4015	0.075	700803	keystroke_e	e	n/a
351.151	0.12	702302	keystroke_l	l	n/a
351.826	0.075	703652	keystroke_e	e	n/a
352.081	0.12	704162	keystroke_b	b	n/a
352.351	0.12	704702	keystroke_s	s	n/a
352.501	0.165	705002	keystroke_Key.space	Key.space	n/a
353.116	0.15	706232	keystroke_j	j	n/a
353.551	0.06	707102	keystroke_o	o	n/a
354.286	0.12	708572	keystroke_h	h	n/a
355.1565	0.045	710313	keystroke_n	n	n/a
355.2915	0.0595	710583	keystroke_n	n	n/a
355.501	0.06	711002	keystroke_y	y	n/a
355.666	0.075	711332	keystroke_Key.space	Key.space	n/a
355.831	0.1195	711662	keystroke_s	s	n/a
356.0255	0.135	712051	keystroke_t	t	n/a
356.4615	0.1945	712923	keystroke_e	e	n/a
356.611	0.165	713222	keystroke_a	a	n/a
356.851	0.06	713702	keystroke_d	d	n/a
357.061	0.075	714122	keystroke_y	y	n/a
357.346	0.075	714692	keystroke_Key.enter	Key.enter	n/a
357.4255	10.9165	714851	prompt	n/a	grand vancouver picks block\n
358.291	0.09	716582	keystroke_g	g	n/a
358.471	0.135	716942	keystroke_r	r	n/a
358.591	0.135	717182	keystroke_a	a	n/a
358.801	0.06	717602	keystroke_n	n	n/a
358.876	0.15	717752	keystroke_d	d	n/a
359.011	0.15	718022	keystroke_Key.space	Key.space	n/a
359.491	0.12	718982	keystroke_v	v	n/a
359.641	0.12	719282	keystroke_a	a	n/a
359.746	0.075	719492	keystroke_n	n	n/a
359.911	0.1355	719822	keystroke_c	c	n/a
360.0315	0.15	720063	keystroke_o	o	n/a
360.1665	0.06	720333	keystroke_u	u	n/a
361.711	0.15	723422	keystroke_v	v	n/a
362.056	0.15	724112	keystroke_e	e	n/a
362.176	0.105	724352	keystroke_r	r	n/a
362.5055	0.135	725011	keystroke_Key.space	Key.space	n/a
363.1955	0.106	726391	keystroke_p	p	n/a
363.4055	0.09	726811	keystroke_i	i	n/a
363.6155	0.151	727231	keystroke_c	c	n/a
363.8255	0.0905	727651	keystroke_k	k	n/a
364.816	0.135	729632	keystroke_s	s	n/a
364.966	0.105	729932	keystroke_Key.space	Key.space	n/a
365.6565	0.09	731313	keystroke_b	b	n/a
365.8215	0.09	731643	keystroke_l	l	n/a
366.346	0.09	732692	keystroke_o	o	n/a
366.437	0.119	732874	keystroke_a	a	n/a
366.601	0.135	733202	keystroke_c	c	n/a
366.8255	0.075	733651	keystroke_k	k	n/a
367.2155	0.06	734431	keystroke_Key.backspace	Key.backspace	n/a
367.4105	0.06	734821	keystroke_Key.backspace	Key.backspace	n/a
367.6205	0.045	735241	keystroke_Key.backspace	Key.backspace	n/a
367.845	0.135	735690	keystroke_c	c	n/a
368.01	0.045	736020	keystroke_k	k	n/a
368.2805	0.059	736561	keystroke_Key.enter	Key.enter	n/a
368.345	9.457	736690	prompt	n/a	injuries poverty helped families\n
369.044	0.0595	738088	keystroke_i	i	n/a
369.2385	0.046	738477	keystroke_n	n	n/a
369.4035	0.075	738807	keystroke_j	j	n/a
369.733	0.076	739466	keystroke_u	u	n/a
370.647	0.105	741294	keystroke_r	r	n/a
370.887	0.09	741774	keystroke_i	i	n/a
371.007	0.1645	742014	keystroke_e	e	n/a
371.1865	0.15	742373	keystroke_s	s	n/a
371.427	0.1045	742854	keystroke_Key.space	Key.space	n/a
371.907	0.0895	743814	keystroke_p	p	n/a
372.3105	0.106	744621	keystroke_o	o	n/a
372.5205	0.1045	745041	keystroke_v	v	n/a
372.7	0.151	745400	keystroke_e	e	n/a
372.79	0.1355	745580	keystroke_r	r	n/a
373.0305	0.045	746061	keystroke_t	t	n/a
373.1355	0.06	746271	keystroke_y	y	n/a
373.391	0.1195	746782	keystroke_Key.space	Key.space	n/a
373.856	0.0895	747712	keystroke_h	h	n/a
374.0205	0.105	748041	keystroke_e	e	n/a
374.1255	0.1495	748251	keystroke_l	l	n/a
374.305	0.106	748610	keystroke_p	p	n/a
374.426	0.089	748852	keystroke_e	e	n/a
374.636	0.135	749272	keystroke_d	d	n/a
374.771	0.149	749542	keystroke_Key.space	Key.space	n/a
375.011	0.119	750022	keystroke_f	f	n/a
375.16	0.135	750320	keystroke_a	a	n/a
375.265	0.09	750530	keystroke_m	m	n/a
375.4	0.075	750800	keystroke_i	i	n/a
375.55	0.135	751100	keystroke_l	l	n/a
376.8405	0.074	753681	keystroke_i	i	n/a
377.0945	0.09	754189	keystroke_l	l	n/a
377.23	0.1655	754460	keystroke_e	e	n/a
377.3655	0.12	754731	keystroke_s	s	n/a
377.7255	0.0745	755451	keystroke_Key.enter	Key.enter	n/a
377.805	11.022	755610	prompt	n/a	accuracy pickup perspective attempting\n
378.43	0.135	756860	keystroke_a	a	n/a
378.91	0.09	757820	keystroke_c	c	n/a
379.075	0.09	758150	keystroke_c	c	n/a
379.3305	0.09	758661	keystroke_u	u	n/a
379.4655	0.135	758931	keystroke_r	r	n/a
379.6305	0.1495	759261	keystroke_a	a	n/a
379.825	0.135	759650	keystroke_c	c	n/a
380.005	0.045	760010	keystroke_y	y	n/a
380.095	0.105	760190	keystroke_Key.space	Key.space	n/a
380.485	0.09	760970	keystroke_p	p	n/a
380.6655	0.075	761331	keystroke_i	i	n/a
380.8005	0.135	761601	keystroke_c	c	n/a
380.9365	0.0885	761873	keystroke_k	k	n/a
381.5345	0.1355	763069	keystroke_u	u	n/a
381.685	0.105	763370	keystroke_p	p	n/a
382	0.1055	764000	keystroke_Key.space	Key.space	n/a
382.435	0.09	764870	keystroke_p	p	n/a
382.57	0.18	765140	keystroke_e	e	n/a
382.705	0.06	765410	keystroke_r	r	n/a
383.035	0.255	766070	keystroke_s	s	n/a
383.305	0.09	766610	keystroke_p	p	n/a
383.47	0.12	766940	keystroke_e	e	n/a
383.695	0.105	767390	keystroke_c	c	n/a
383.98	0.12	767960	keystroke_t	t	n/a
384.31	0.105	768620	keystroke_i	i	n/a
384.43	0.135	768860	keystroke_v	v	n/a
384.6255	0.1645	769251	keystroke_e	e	n/a
384.82	0.135	769640	keystroke_Key.space	Key.space	n/a
385.211	0.12	770422	keystroke_a	a	n/a
385.421	0.0595	770842	keystroke_t	t	n/a
385.5705	0.1055	771141	keystroke_t	t	n/a
385.691	0.135	771382	keystroke_e	e	n/a
386.576	0.1195	773152	keystroke_m	m	n/a
386.77	0.075	773540	keystroke_p	p	n/a
386.92	0.1055	773840	keystroke_t	t	n/a
387.0105	0.075	774021	keystroke_i	i	n/a
387.2055	0.0895	774411	keystroke_n	n	n/a
387.31	0.075	774620	keystroke_g	g	n/a
388.736	0.09	777472	keystroke_Key.enter	Key.enter	n/a
388.83	6.297	777660	prompt	n/a	roger lessons conclude repair\n
389.7105	0.1195	779421	keystroke_r	r	n/a
389.8455	0.09	779691	keystroke_o	o	n/a
389.9955	0.09	779991	keystroke_g	g	n/a
390.161	0.15	780322	keystroke_e	e	n/a
390.281	0.15	780562	keystroke_r	r	n/a
390.521	0.1345	781042	keystroke_Key.space	Key.space	n/a
390.7455	0.15	781491	keystroke_l	l	n/a
390.9105	0.09	781821	keystroke_e	e	n/a
391.0605	0.09	782121	keystroke_s	s	n/a
391.2255	0.105	782451	keystroke_s	s	n/a
391.3605	0.105	782721	keystroke_o	o	n/a
391.5405	0.09	783081	keystroke_n	n	n/a
391.6755	0.1195	783351	keystroke_s	s	n/a
391.8255	0.12	783651	keystroke_Key.space	Key.space	n/a
392.065	0.15	784130	keystroke_c	c	n/a
392.2	0.12	784400	keystroke_o	o	n/a
392.3655	0.09	784731	keystroke_n	n	n/a
392.4405	0.12	784881	keystroke_c	c	n/a
392.6505	0.1045	785301	keystroke_l	l	n/a
392.9205	0.06	785841	keystroke_u	u	n/a
393.07	0.09	786140	keystroke_d	d	n/a
393.2645	0.0905	786529	keystroke_e	e	n/a
393.625	0.09	787250	keystroke_Key.space	Key.space	n/a
393.82	0.12	787640	keystroke_r	r	n/a
393.91	0.09	787820	keystroke_e	e	n/a
394.12	0.061	788240	keystroke_p	p	n/a
394.285	0.09	788570	keystroke_a	a	n/a
394.735	0.06	789470	keystroke_i	i	n/a
394.81	0.1205	789620	keystroke_r	r	n/a
395.065	0.06	790130	keystroke_Key.enter	Key.enter	n/a
395.1295	10.6025	790259	prompt	n/a	macro intensity concord gibraltar\n
396.205	0.0755	792410	keystroke_m	m	n/a
396.3405	0.1205	792681	keystroke_a	a	n/a
396.536	0.12	793072	keystroke_c	c	n/a
396.956	0.105	793912	keystroke_r	r	n/a
397.136	0.105	794272	keystroke_o	o	n/a
397.271	0.134	794542	keystroke_Key.space	Key.space	n/a
397.66	0.0755	795320	keystroke_i	i	n/a
397.8555	0.0895	795711	keystroke_n	n	n/a
398.021	0.105	796042	keystroke_t	t	n/a
398.4555	0.09	796911	keystroke_e	e	n/a
398.5605	0.09	797121	keystroke_n	n	n/a
398.726	0.12	797452	keystroke_s	s	n/a
398.831	0.06	797662	keystroke_i	i	n/a
399.026	0.06	798052	keystroke_t	t	n/a
399.131	0.075	798262	keystroke_y	y	n/a
399.311	0.135	798622	keystroke_Key.space	Key.space	n/a
399.596	0.12	799192	keystroke_c	c	n/a
399.701	0.1195	799402	keystroke_o	o	n/a
399.8805	0.1045	799761	keystroke_n	n	n/a
400.541	0.105	801082	keystroke_c	c	n/a
400.811	0.105	801622	keystroke_o	o	n/a
400.931	0.06	801862	keystroke_r	r	n/a
401.126	0.12	802252	keystroke_d	d	n/a
401.4555	0.105	802911	keystroke_Key.space	Key.space	n/a
401.9655	0.12	803931	keystroke_g	g	n/a
402.236	0.12	804472	keystroke_i	i	n/a
402.4455	0.135	804891	keystroke_b	b	n/a
402.97	0.12	805940	keystroke_r	r	n/a
403.585	0.1205	807170	keystroke_a	a	n/a
403.885	0.106	807770	keystroke_l	l	n/a
404.5755	0.0905	809151	keystroke_t	t	n/a
405.131	0.1195	810262	keystroke_a	a	n/a
405.2655	0.09	810531	keystroke_r	r	n/a
405.671	0.06	811342	keystroke_Key.enter	Key.enter	n/a
405.7365	14.8005	811473	prompt	n/a	thumbnails distributors counter minute\n
406.511	0.135	813022	keystroke_t	t	n/a
406.736	0.06	813472	keystroke_u	u	n/a
406.9455	0.075	813891	keystroke_n	n	n/a
407.6205	0.09	815241	keystroke_Key.backspace	Key.backspace	n/a
407.9505	0.0755	815901	keystroke_Key.backspace	Key.backspace	n/a
408.475	0.076	816950	keystroke_h	h	n/a
408.686	0.06	817372	keystroke_u	u	n/a
408.895	0.075	817790	keystroke_m	m	n/a
409.15	0.1505	818300	keystroke_b	b	n/a
409.5705	0.09	819141	keystroke_n	n	n/a
409.7055	0.09	819411	keystroke_a	a	n/a
409.8405	0.165	819681	keystroke_i	i	n/a
410.0805	0.105	820161	keystroke_l	l	n/a
410.2005	0.12	820401	keystroke_s	s	n/a
410.5305	0.09	821061	keystroke_Key.space	Key.space	n/a
410.9055	0.105	821811	keystroke_d	d	n/a
411.2505	0.075	822501	keystroke_i	i	n/a
411.3705	0.1655	822741	keystroke_s	s	n/a
411.551	0.075	823102	keystroke_t	t	n/a
411.776	0.1045	823552	keystroke_r	r	n/a
414.088	0.013	828176	keystroke_i	i	n/a
414.2805	0.12	828561	keystroke_b	b	n/a
414.506	0.075	829012	keystroke_u	u	n/a
415.121	0.105	830242	keystroke_t	t	n/a
415.3155	0.0905	830631	keystroke_o	o	n/a
415.511	0.045	831022	keystroke_r	r	n/a
415.871	0.1345	831742	keystroke_s	s	n/a
416.1405	0.12	832281	keystroke_Key.space	Key.space	n/a
416.6055	0.12	833211	keystroke_c	c	n/a
416.7855	0.1055	833571	keystroke_o	o	n/a
416.8755	0.075	833751	keystroke_u	u	n/a
417.0855	0.09	834171	keystroke_n	n	n/a
417.1305	0.12	834261	keystroke_t	t	n/a
417.4005	0.165	834801	keystroke_e	e	n/a
417.5955	0.09	835191	keystroke_r	r	n/a
417.911	0.06	835822	keystroke_Key.space	Key.space	n/a
418.0165	0.03	836033	keystroke_Key.space	Key.space	n/a
418.286	0.045	836572	keystroke_m	m	n/a
418.391	0.09	836782	keystroke_i	i	n/a
418.586	0.09	837172	keystroke_n	n	n/a
419.126	0.06	838252	keystroke_u	u	n/a
419.4255	0.091	838851	keystroke_t	t	n/a
419.8015	0.105	839603	keystroke_e	e	n/a
420.4455	0.09	840891	keystroke_Key.enter	Key.enter	n/a
420.54	12.222	841080	prompt	n/a	interaction suburban consult substantially\n
421.2565	0.0445	842513	keystroke_i	i	n/a
421.435	0.0905	842870	keystroke_n	n	n/a
421.6455	0.12	843291	keystroke_t	t	n/a
421.8105	0.165	843621	keystroke_e	e	n/a
421.9305	0.135	843861	keystroke_r	r	n/a
422.2155	0.135	844431	keystroke_a	a	n/a
422.4255	0.09	844851	keystroke_c	c	n/a
422.6655	0.09	845331	keystroke_t	t	n/a
422.7565	0.149	845513	keystroke_i	i	n/a
422.9355	0.135	845871	keystroke_o	o	n/a
423.0555	0.12	846111	keystroke_n	n	n/a
423.1765	0.1345	846353	keystroke_Key.space	Key.space	n/a
423.341	0.12	846682	keystroke_s	s	n/a
423.941	0.0595	847882	keystroke_u	u	n/a
424.331	0.12	848662	keystroke_b	b	n/a
424.7365	0.089	849473	keystroke_u	u	n/a
424.9305	0.09	849861	keystroke_r	r	n/a
425.3805	0.105	850761	keystroke_b	b	n/a
425.5905	0.09	851181	keystroke_a	a	n/a
425.7255	0.06	851451	keystroke_n	n	n/a
425.8755	0.1055	851751	keystroke_Key.space	Key.space	n/a
426.4005	0.135	852801	keystroke_c	c	n/a
426.5205	0.105	853041	keystroke_o	o	n/a
426.6855	0.09	853371	keystroke_n	n	n/a
426.8055	0.105	853611	keystroke_s	s	n/a
426.9555	0.075	853911	keystroke_u	u	n/a
427.1655	0.105	854331	keystroke_l	l	n/a
427.3155	0.136	854631	keystroke_t	t	n/a
427.5415	0.105	855083	keystroke_Key.space	Key.space	n/a
427.7665	0.1045	855533	keystroke_s	s	n/a
427.931	0.09	855862	keystroke_u	u	n/a
428.1555	0.12	856311	keystroke_b	b	n/a
428.501	0.105	857002	keystroke_s	s	n/a
428.7855	0.12	857571	keystroke_t	t	n/a
429.3855	0.12	858771	keystroke_a	a	n/a
430.541	0.075	861082	keystroke_n	n	n/a
431.2905	0.105	862581	keystroke_t	t	n/a
431.4705	0.075	862941	keystroke_i	i	n/a
431.7555	0.1055	863511	keystroke_a	a	n/a
431.966	0.075	863932	keystroke_l	l	n/a
432.146	0.075	864292	keystroke_l	l	n/a
432.371	0.06	864742	keystroke_y	y	n/a
432.686	0.0745	865372	keystroke_Key.enter	Key.enter	n/a
432.765	10.153	865530	prompt	n/a	inspiration lending eligible respective\n
433.346	0.075	866692	keystroke_i	i	n/a
433.511	0.105	867022	keystroke_n	n	n/a
433.661	0.105	867322	keystroke_s	s	n/a
433.796	0.09	867592	keystroke_p	p	n/a
433.991	0.09	867982	keystroke_i	i	n/a
434.096	0.1195	868192	keystroke_r	r	n/a
434.2605	0.135	868521	keystroke_a	a	n/a
434.4405	0.075	868881	keystroke_t	t	n/a
434.5605	0.24	869121	keystroke_i	i	n/a
434.6955	0.24	869391	keystroke_o	o	n/a
434.8905	0.105	869781	keystroke_n	n	n/a
435.0555	0.135	870111	keystroke_Key.space	Key.space	n/a
435.2805	0.12	870561	keystroke_l	l	n/a
435.4155	0.105	870831	keystroke_e	e	n/a
435.6265	0.105	871253	keystroke_n	n	n/a
435.8665	0.105	871733	keystroke_d	d	n/a
436.0465	0.075	872093	keystroke_i	i	n/a
436.2715	0.075	872543	keystroke_n	n	n/a
436.376	0.165	872752	keystroke_g	g	n/a
436.526	0.1345	873052	keystroke_Key.space	Key.space	n/a
436.7665	0.09	873533	keystroke_e	e	n/a
437.126	0.075	874252	keystroke_l	l	n/a
437.396	0.075	874792	keystroke_i	i	n/a
437.591	0.06	875182	keystroke_g	g	n/a
438.566	0.075	877132	keystroke_i	i	n/a
438.701	0.105	877402	keystroke_b	b	n/a
438.866	0.105	877732	keystroke_l	l	n/a
438.986	0.15	877972	keystroke_e	e	n/a
439.151	0.135	878302	keystroke_Key.space	Key.space	n/a
440.0515	0.135	880103	keystroke_r	r	n/a
440.1415	0.105	880283	keystroke_e	e	n/a
440.351	0.105	880702	keystroke_s	s	n/a
440.591	0.105	881182	keystroke_e	e	n/a
441.057	0.104	882114	keystroke_Key.backspace	Key.backspace	n/a
441.5515	0.0905	883103	keystroke_p	p	n/a
441.657	0.1345	883314	keystroke_e	e	n/a
441.9565	0.12	883913	keystroke_c	c	n/a
442.1815	0.135	884363	keystroke_t	t	n/a
442.2865	0.105	884573	keystroke_i	i	n/a
442.4665	0.135	884933	keystroke_v	v	n/a
442.6615	0.135	885323	keystroke_e	e	n/a
442.8565	0.06	885713	keystroke_Key.enter	Key.enter	n/a
442.921	13.8415	885842	prompt	n/a	internationally uses flip music\n
443.621	0.075	887242	keystroke_i	i	n/a
443.891	0.03	887782	keystroke_n	n	n/a
443.906	0.105	887812	keystroke_t	t	n/a
444.041	0.18	888082	keystroke_e	e	n/a
444.146	0.12	888292	keystroke_r	r	n/a
444.296	0.105	888592	keystroke_n	n	n/a
444.416	0.12	888832	keystroke_a	a	n/a
445.2115	0.21	890423	keystroke_i	i	n/a
445.3465	0.1345	890693	keystroke_o	o	n/a
445.541	0.0755	891082	keystroke_n	n	n/a
445.6915	0.1195	891383	keystroke_a	a	n/a
445.796	0.075	891592	keystroke_l	l	n/a
445.961	0.0895	891922	keystroke_l	l	n/a
446.2005	0.06	892401	keystroke_y	y	n/a
446.3655	0.091	892731	keystroke_Key.space	Key.space	n/a
446.696	0.075	893392	keystroke_u	u	n/a
447.566	0.075	895132	keystroke_Key.backspace	Key.backspace	n/a
448.016	0.105	896032	keystroke_Key.backspace	Key.backspace	n/a
448.481	0.09	896962	keystroke_Key.backspace	Key.backspace	n/a
448.886	0.09	897772	keystroke_Key.backspace	Key.backspace	n/a
449.321	0.075	898642	keystroke_Key.backspace	Key.backspace	n/a
449.846	0.06	899692	keystroke_Key.backspace	Key.backspace	n/a
450.386	0.06	900772	keystroke_Key.backspace	Key.backspace	n/a
450.7315	0.074	901463	keystroke_Key.backspace	Key.backspace	n/a
450.9705	0.061	901941	keystroke_Key.backspace	Key.backspace	n/a
451.2555	0.0905	902511	keystroke_t	t	n/a
451.4665	0.21	902933	keystroke_i	i	n/a
451.6015	0.165	903203	keystroke_o	o	n/a
451.7215	0.12	903443	keystroke_n	n	n/a
451.8865	0.105	903773	keystroke_a	a	n/a
451.9765	0.0745	903953	keystroke_l	l	n/a
452.126	0.105	904252	keystroke_l	l	n/a
452.366	0.06	904732	keystroke_y	y	n/a
452.516	0.105	905032	keystroke_Key.space	Key.space	n/a
452.771	0.06	905542	keystroke_u	u	n/a
452.906	0.165	905812	keystroke_s	s	n/a
453.026	0.135	906052	keystroke_e	e	n/a
453.191	0.15	906382	keystroke_s	s	n/a
453.371	0.12	906742	keystroke_Key.space	Key.space	n/a
453.521	0.12	907042	keystroke_f	f	n/a
453.821	0.075	907642	keystroke_l	l	n/a
455.1115	0.09	910223	keystroke_i	i	n/a
455.3965	0.09	910793	keystroke_p	p	n/a
455.5615	0.105	911123	keystroke_Key.space	Key.space	n/a
455.9215	0.0895	911843	keystroke_m	m	n/a
456.101	0.075	912202	keystroke_u	u	n/a
456.191	0.09	912382	keystroke_s	s	n/a
456.296	0.09	912592	keystroke_i	i	n/a
456.416	0.135	912832	keystroke_c	c	n/a
456.686	0.075	913372	keystroke_Key.enter	Key.enter	n/a
456.7655	10.678	913531	prompt	n/a	satisfactory limousines related ought\n
457.4215	0.105	914843	keystroke_s	s	n/a
457.6315	0.119	915263	keystroke_a	a	n/a
457.8715	0.105	915743	keystroke_t	t	n/a
458.1705	0.016	916341	keystroke_i	i	n/a
458.606	0.1205	917212	keystroke_s	s	n/a
460.859	0.027	921718	keystroke_f	f	n/a
460.917	0.15	921834	keystroke_a	a	n/a
461.096	0.136	922192	keystroke_c	c	n/a
461.351	0.12	922702	keystroke_t	t	n/a
461.576	0.075	923152	keystroke_o	o	n/a
461.666	0.09	923332	keystroke_r	r	n/a
461.816	0.09	923632	keystroke_y	y	n/a
461.981	0.105	923962	keystroke_Key.space	Key.space	n/a
462.702	0.09	925404	keystroke_l	l	n/a
462.8665	0.09	925733	keystroke_i	i	n/a
463.1065	0.075	926213	keystroke_m	m	n/a
463.3465	0.1205	926693	keystroke_o	o	n/a
463.511	0.09	927022	keystroke_u	u	n/a
463.767	0.09	927534	keystroke_s	s	n/a
463.871	0.075	927742	keystroke_i	i	n/a
464.051	0.09	928102	keystroke_n	n	n/a
464.126	0.18	928252	keystroke_e	e	n/a
464.261	0.15	928522	keystroke_s	s	n/a
464.5915	0.105	929183	keystroke_Key.space	Key.space	n/a
465.0415	0.12	930083	keystroke_r	r	n/a
465.1465	0.075	930293	keystroke_e	e	n/a
465.2665	0.105	930533	keystroke_l	l	n/a
465.3865	0.15	930773	keystroke_a	a	n/a
465.5065	0.15	931013	keystroke_t	t	n/a
465.5965	0.12	931193	keystroke_e	e	n/a
465.8665	0.12	931733	keystroke_d	d	n/a
465.9715	0.075	931943	keystroke_Key.space	Key.space	n/a
466.3015	0.1055	932603	keystroke_o	o	n/a
466.437	0.1045	932874	keystroke_u	u	n/a
466.6915	0.075	933383	keystroke_g	g	n/a
466.7965	0.06	933593	keystroke_h	h	n/a
466.961	0.0605	933922	keystroke_t	t	n/a
467.3815	0.06	934763	keystroke_Key.enter	Key.enter	n/a
467.447	9.596	934894	prompt	n/a	trading shelter directed artificial\n
468.132	0.06	936264	keystroke_t	t	n/a
468.311	0.12	936622	keystroke_r	r	n/a
468.401	0.1205	936802	keystroke_a	a	n/a
468.581	0.1205	937162	keystroke_d	d	n/a
468.7315	0.075	937463	keystroke_i	i	n/a
468.9115	0.0745	937823	keystroke_n	n	n/a
468.971	0.166	937942	keystroke_g	g	n/a
469.121	0.135	938242	keystroke_Key.space	Key.space	n/a
469.646	0.105	939292	keystroke_s	s	n/a
470.0365	0.09	940073	keystroke_h	h	n/a
470.5615	0.105	941123	keystroke_e	e	n/a
470.7115	0.105	941423	keystroke_l	l	n/a
470.9065	0.075	941813	keystroke_t	t	n/a
471.087	0.165	942174	keystroke_e	e	n/a
471.207	0.1645	942414	keystroke_r	r	n/a
471.5665	0.12	943133	keystroke_Key.space	Key.space	n/a
471.7465	0.075	943493	keystroke_d	d	n/a
471.912	0.09	943824	keystroke_i	i	n/a
472.062	0.105	944124	keystroke_r	r	n/a
472.422	0.12	944844	keystroke_e	e	n/a
472.662	0.09	945324	keystroke_c	c	n/a
472.917	0.075	945834	keystroke_t	t	n/a
472.976	0.135	945952	keystroke_e	e	n/a
473.277	0.135	946554	keystroke_d	d	n/a
473.426	0.105	946852	keystroke_Key.space	Key.space	n/a
473.696	0.165	947392	keystroke_a	a	n/a
473.862	0.105	947724	keystroke_r	r	n/a
474.101	0.075	948202	keystroke_t	t	n/a
474.581	0.075	949162	keystroke_i	i	n/a
474.761	0.105	949522	keystroke_f	f	n/a
474.881	0.105	949762	keystroke_i	i	n/a
475.017	0.1645	950034	keystroke_c	c	n/a
475.1665	0.12	950333	keystroke_a	a	n/a
475.5865	0.06	951173	keystroke_Key.backspace	Key.backspace	n/a
476.427	0.075	952854	keystroke_i	i	n/a
476.562	0.12	953124	keystroke_a	a	n/a
476.712	0.075	953424	keystroke_l	l	n/a
476.9815	0.06	953963	keystroke_Key.enter	Key.enter	n/a
477.046	8.6375	954092	prompt	n/a	pmid investigation can eleven\n
477.701	0.091	955402	keystroke_p	p	n/a
478.1965	0.09	956393	keystroke_m	m	n/a
478.3465	0.09	956693	keystroke_i	i	n/a
478.4665	0.105	956933	keystroke_d	d	n/a
478.6615	0.15	957323	keystroke_Key.space	Key.space	n/a
479.8015	0.075	959603	keystroke_i	i	n/a
480.056	0.06	960112	keystroke_n	n	n/a
480.461	0.1355	960922	keystroke_v	v	n/a
480.7015	0.135	961403	keystroke_e	e	n/a
481.331	0.105	962662	keystroke_s	s	n/a
481.496	0.09	962992	keystroke_t	t	n/a
481.6915	0.105	963383	keystroke_i	i	n/a
481.826	0.12	963652	keystroke_g	g	n/a
481.961	0.1505	963922	keystroke_a	a	n/a
482.126	0.105	964252	keystroke_t	t	n/a
482.2465	0.21	964493	keystroke_i	i	n/a
482.3665	0.18	964733	keystroke_o	o	n/a
482.5315	0.135	965063	keystroke_n	n	n/a
482.711	0.0905	965422	keystroke_Key.space	Key.space	n/a
482.9515	0.18	965903	keystroke_c	c	n/a
483.1015	0.135	966203	keystroke_a	a	n/a
483.2665	0.0755	966533	keystroke_n	n	n/a
483.387	0.12	966774	keystroke_Key.space	Key.space	n/a
483.8365	0.09	967673	keystroke_e	e	n/a
484.0015	0.1045	968003	keystroke_l	l	n/a
484.121	0.105	968242	keystroke_e	e	n/a
484.601	0.106	969202	keystroke_v	v	n/a
484.767	0.12	969534	keystroke_e	e	n/a
484.902	0.0745	969804	keystroke_n	n	n/a
485.5915	0.09	971183	keystroke_Key.enter	Key.enter	n/a
485.686	6.117	971372	prompt	n/a	casio plate birds philips\n
486.386	0.18	972772	keystroke_c	c	n/a
486.551	0.165	973102	keystroke_a	a	n/a
486.776	0.075	973552	keystroke_s	s	n/a
486.896	0.15	973792	keystroke_i	i	n/a
487.031	0.121	974062	keystroke_o	o	n/a
487.257	0.1045	974514	keystroke_Key.space	Key.space	n/a
487.797	0.09	975594	keystroke_p	p	n/a
487.962	0.1495	975924	keystroke_l	l	n/a
488.0965	0.15	976193	keystroke_a	a	n/a
488.2915	0.135	976583	keystroke_t	t	n/a
488.4115	0.12	976823	keystroke_e	e	n/a
488.5615	0.15	977123	keystroke_Key.space	Key.space	n/a
488.817	0.105	977634	keystroke_b	b	n/a
488.982	0.105	977964	keystroke_i	i	n/a
489.102	0.1345	978204	keystroke_r	r	n/a
489.312	0.1045	978624	keystroke_d	d	n/a
489.5215	0.1205	979043	keystroke_s	s	n/a
489.6865	0.1505	979373	keystroke_Key.space	Key.space	n/a
490.092	0.104	980184	keystroke_p	p	n/a
490.316	0.076	980632	keystroke_h	h	n/a
490.496	0.091	980992	keystroke_i	i	n/a
490.676	0.105	981352	keystroke_l	l	n/a
490.826	0.091	981652	keystroke_i	i	n/a
491.157	0.105	982314	keystroke_p	p	n/a
491.442	0.12	982884	keystroke_s	s	n/a
491.7265	0.075	983453	keystroke_Key.enter	Key.enter	n/a
491.8065	7.902	983613	prompt	n/a	emerald chart cost invitation\n
492.5065	0.105	985013	keystroke_e	e	n/a
492.7915	0.09	985583	keystroke_m	m	n/a
492.9115	0.15	985823	keystroke_e	e	n/a
493.0315	0.12	986063	keystroke_r	r	n/a
493.2715	0.105	986543	keystroke_a	a	n/a
493.3915	0.1045	986783	keystroke_l	l	n/a
493.5115	0.1505	987023	keystroke_d	d	n/a
493.677	0.1345	987354	keystroke_Key.space	Key.space	n/a
494.351	0.15	988702	keystroke_c	c	n/a
494.531	0.031	989062	keystroke_h	h	n/a
494.952	0.1495	989904	keystroke_a	a	n/a
495.1165	0.09	990233	keystroke_r	r	n/a
495.3565	0.09	990713	keystroke_t	t	n/a
495.626	0.1505	991252	keystroke_Key.space	Key.space	n/a
496.0465	0.1205	992093	keystroke_c	c	n/a
496.212	0.09	992424	keystroke_o	o	n/a
496.317	0.15	992634	keystroke_s	s	n/a
496.482	0.165	992964	keystroke_t	t	n/a
496.632	0.135	993264	keystroke_Key.space	Key.space	n/a
496.782	0.075	993564	keystroke_i	i	n/a
496.9615	0.075	993923	keystroke_n	n	n/a
497.0815	0.135	994163	keystroke_v	v	n/a
497.2015	0.09	994403	keystroke_i	i	n/a
497.4865	0.06	994973	keystroke_i	i	n/a
497.9665	0.075	995933	keystroke_Key.backspace	Key.backspace	n/a
498.6715	0.09	997343	keystroke_t	t	n/a
498.8965	0.105	997793	keystroke_a	a	n/a
499.0315	0.105	998063	keystroke_t	t	n/a
499.1215	0.165	998243	keystroke_i	i	n/a
499.2415	0.1805	998483	keystroke_o	o	n/a
499.3915	0.1055	998783	keystroke_n	n	n/a
499.632	0.075	999264	keystroke_Key.enter	Key.enter	n/a
499.7115	9.357	999423	prompt	n/a	praise vulnerability madonna specialist\n
500.4865	0.105	1000973	keystroke_p	p	n/a
500.7565	0.1055	1001513	keystroke_r	r	n/a
500.9515	0.1205	1001903	keystroke_a	a	n/a
501.057	0.09	1002114	keystroke_i	i	n/a
501.192	0.18	1002384	keystroke_s	s	n/a
501.312	0.15	1002624	keystroke_e	e	n/a
501.5215	0.135	1003043	keystroke_Key.space	Key.space	n/a
502.0325	0.149	1004065	keystroke_v	v	n/a
502.3615	0.045	1004723	keystroke_u	u	n/a
502.5265	0.12	1005053	keystroke_l	l	n/a
502.8265	0.075	1005653	keystroke_n	n	n/a
503.0065	0.12	1006013	keystroke_e	e	n/a
503.0965	0.12	1006193	keystroke_r	r	n/a
503.3065	0.135	1006613	keystroke_a	a	n/a
503.7265	0.09	1007453	keystroke_b	b	n/a
504.0265	0.105	1008053	keystroke_i	i	n/a
504.3115	0.105	1008623	keystroke_l	l	n/a
504.5065	0.09	1009013	keystroke_i	i	n/a
504.6715	0.105	1009343	keystroke_t	t	n/a
504.8365	0.06	1009673	keystroke_y	y	n/a
505.3015	0.09	1010603	keystroke_Key.space	Key.space	n/a
505.5265	0.09	1011053	keystroke_m	m	n/a
505.6915	0.12	1011383	keystroke_a	a	n/a
505.9465	0.105	1011893	keystroke_d	d	n/a
506.2465	0.06	1012493	keystroke_o	o	n/a
506.4725	0.06	1012945	keystroke_n	n	n/a
506.6075	0.09	1013215	keystroke_n	n	n/a
506.7275	0.18	1013455	keystroke_a	a	n/a
506.8925	0.165	1013785	keystroke_Key.space	Key.space	n/a
507.1925	0.1045	1014385	keystroke_s	s	n/a
507.327	0.09	1014654	keystroke_p	p	n/a
507.477	0.15	1014954	keystroke_e	e	n/a
507.792	0.1195	1015584	keystroke_c	c	n/a
507.9715	0.075	1015943	keystroke_i	i	n/a
508.1375	0.12	1016275	keystroke_a	a	n/a
508.2725	0.12	1016545	keystroke_l	l	n/a
508.4675	0.09	1016935	keystroke_i	i	n/a
508.5725	0.15	1017145	keystroke_s	s	n/a
508.7375	0.12	1017475	keystroke_t	t	n/a
508.9925	0.075	1017985	keystroke_Key.enter	Key.enter	n/a
509.0735	11.561	1018147	prompt	n/a	bestsellers reno systematic flowers\n
509.8325	0.105	1019665	keystroke_b	b	n/a
510.0575	0.1795	1020115	keystroke_e	e	n/a
510.222	0.1655	1020444	keystroke_s	s	n/a
510.342	0.165	1020684	keystroke_t	t	n/a
510.5225	0.1795	1021045	keystroke_e	e	n/a
510.6575	0.09	1021315	keystroke_r	r	n/a
511.6025	0.09	1023205	keystroke_Key.backspace	Key.backspace	n/a
512.8925	0.06	1025785	keystroke_Key.backspace	Key.backspace	n/a
513.0575	0.165	1026115	keystroke_s	s	n/a
513.2075	0.09	1026415	keystroke_e	e	n/a
513.3725	0.075	1026745	keystroke_l	l	n/a
513.5525	0.105	1027105	keystroke_l	l	n/a
513.6575	0.12	1027315	keystroke_e	e	n/a
513.7325	0.12	1027465	keystroke_r	r	n/a
513.9875	0.12	1027975	keystroke_s	s	n/a
514.0925	0.135	1028185	keystroke_Key.space	Key.space	n/a
514.4375	0.165	1028875	keystroke_r	r	n/a
514.5725	0.1345	1029145	keystroke_e	e	n/a
514.737	0.09	1029474	keystroke_n	n	n/a
514.902	0.09	1029804	keystroke_o	o	n/a
515.037	0.12	1030074	keystroke_Key.space	Key.space	n/a
515.232	0.105	1030464	keystroke_s	s	n/a
515.4575	0.06	1030915	keystroke_y	y	n/a
515.637	0.1805	1031274	keystroke_s	s	n/a
515.8625	0.1045	1031725	keystroke_t	t	n/a
516.117	0.12	1032234	keystroke_e	e	n/a
516.267	0.09	1032534	keystroke_m	m	n/a
517.752	0.135	1035504	keystroke_a	a	n/a
517.947	0.12	1035894	keystroke_t	t	n/a
518.067	0.075	1036134	keystroke_i	i	n/a
518.307	0.15	1036614	keystroke_c	c	n/a
518.472	0.12	1036944	keystroke_Key.space	Key.space	n/a
518.652	0.105	1037304	keystroke_f	f	n/a
518.832	0.09	1037664	keystroke_l	l	n/a
519.0265	0.105	1038053	keystroke_o	o	n/a
519.3275	0.135	1038655	keystroke_w	w	n/a
519.4925	0.105	1038985	keystroke_e	e	n/a
519.5525	0.1495	1039105	keystroke_r	r	n/a
520.2575	0.105	1040515	keystroke_s	s	n/a
520.5575	0.075	1041115	keystroke_Key.enter	Key.enter	n/a
520.6375	6.1465	1041275	prompt	n/a	wright reform contract duties\n
521.3225	0.105	1042645	keystroke_w	w	n/a
521.4875	0.12	1042975	keystroke_r	r	n/a
521.6075	0.09	1043215	keystroke_i	i	n/a
521.7125	0.0905	1043425	keystroke_g	g	n/a
521.908	0.06	1043816	keystroke_h	h	n/a
521.998	0.134	1043996	keystroke_t	t	n/a
522.147	0.18	1044294	keystroke_Key.space	Key.space	n/a
522.5375	0.12	1045075	keystroke_r	r	n/a
522.6425	0.09	1045285	keystroke_e	e	n/a
522.852	0.105	1045704	keystroke_f	f	n/a
522.972	0.075	1045944	keystroke_o	o	n/a
523.077	0.105	1046154	keystroke_r	r	n/a
523.242	0.09	1046484	keystroke_m	m	n/a
523.362	0.09	1046724	keystroke_Key.space	Key.space	n/a
523.648	0.1345	1047296	keystroke_c	c	n/a
523.7675	0.105	1047535	keystroke_o	o	n/a
523.9325	0.12	1047865	keystroke_n	n	n/a
524.0225	0.1045	1048045	keystroke_t	t	n/a
524.487	0.165	1048974	keystroke_a	a	n/a
524.712	0.09	1049424	keystroke_c	c	n/a
524.952	0.135	1049904	keystroke_t	t	n/a
525.102	0.15	1050204	keystroke_Key.space	Key.space	n/a
525.402	0.09	1050804	keystroke_d	d	n/a
525.612	0.09	1051224	keystroke_u	u	n/a
526.002	0.105	1052004	keystroke_t	t	n/a
526.137	0.105	1052274	keystroke_i	i	n/a
526.227	0.195	1052454	keystroke_e	e	n/a
526.392	0.135	1052784	keystroke_s	s	n/a
526.722	0.06	1053444	keystroke_Key.enter	Key.enter	n/a
526.7885	9.94	1053577	prompt	n/a	collaboration estonia blocked influenced\n
527.517	0.135	1055034	keystroke_c	c	n/a
527.712	0.075	1055424	keystroke_o	o	n/a
527.922	0.03	1055844	keystroke_l	l	n/a
528.057	0.1205	1056114	keystroke_l	l	n/a
528.1625	0.105	1056325	keystroke_a	a	n/a
528.3725	0.12	1056745	keystroke_b	b	n/a
528.5675	0.105	1057135	keystroke_o	o	n/a
528.8975	0.09	1057795	keystroke_r	r	n/a
529.107	0.1495	1058214	keystroke_a	a	n/a
529.3015	0.09	1058603	keystroke_t	t	n/a
529.3925	0.195	1058785	keystroke_i	i	n/a
529.5425	0.15	1059085	keystroke_o	o	n/a
529.6925	0.1195	1059385	keystroke_n	n	n/a
529.8275	0.105	1059655	keystroke_Key.space	Key.space	n/a
530.0825	0.0895	1060165	keystroke_e	e	n/a
530.397	0.1505	1060794	keystroke_s	s	n/a
530.6075	0.0895	1061215	keystroke_t	t	n/a
530.727	0.12	1061454	keystroke_o	o	n/a
530.952	0.105	1061904	keystroke_n	n	n/a
531.342	0.105	1062684	keystroke_i	i	n/a
531.492	0.135	1062984	keystroke_a	a	n/a
531.642	0.135	1063284	keystroke_Key.space	Key.space	n/a
533.1715	0.165	1066343	keystroke_b	b	n/a
533.382	0.0895	1066764	keystroke_l	l	n/a
533.577	0.09	1067154	keystroke_o	o	n/a
533.697	0.15	1067394	keystroke_c	c	n/a
533.862	0.09	1067724	keystroke_k	k	n/a
533.982	0.0745	1067964	keystroke_e	e	n/a
534.2075	0.105	1068415	keystroke_d	d	n/a
534.3425	0.074	1068685	keystroke_Key.space	Key.space	n/a
534.4625	0.06	1068925	keystroke_i	i	n/a
534.6725	0.09	1069345	keystroke_n	n	n/a
534.9575	0.135	1069915	keystroke_f	f	n/a
535.2575	0.105	1070515	keystroke_l	l	n/a
535.5275	0.015	1071055	keystroke_u	u	n/a
535.7075	0.15	1071415	keystroke_e	e	n/a
535.8425	0.06	1071685	keystroke_n	n	n/a
536.0075	0.1495	1072015	keystroke_c	c	n/a
536.142	0.105	1072284	keystroke_e	e	n/a
536.382	0.075	1072764	keystroke_d	d	n/a
536.652	0.075	1073304	keystroke_Key.enter	Key.enter	n/a
536.7315	7.3925	1073463	prompt	n/a	weather complicated daughter modified\n
537.402	0.105	1074804	keystroke_w	w	n/a
537.522	0.151	1075044	keystroke_e	e	n/a
537.658	0.104	1075316	keystroke_a	a	n/a
537.867	0.09	1075734	keystroke_t	t	n/a
537.972	0.075	1075944	keystroke_h	h	n/a
538.122	0.12	1076244	keystroke_e	e	n/a
538.197	0.165	1076394	keystroke_r	r	n/a
538.332	0.1655	1076664	keystroke_Key.space	Key.space	n/a
538.6475	0.165	1077295	keystroke_c	c	n/a
538.7675	0.09	1077535	keystroke_o	o	n/a
538.9325	0.1195	1077865	keystroke_m	m	n/a
539.142	0.09	1078284	keystroke_p	p	n/a
539.337	0.105	1078674	keystroke_l	l	n/a
539.517	0.09	1079034	keystroke_i	i	n/a
539.622	0.165	1079244	keystroke_c	c	n/a
539.757	0.1805	1079514	keystroke_a	a	n/a
539.967	0.1205	1079934	keystroke_t	t	n/a
540.3575	0.09	1080715	keystroke_e	e	n/a
540.5825	0.105	1081165	keystroke_d	d	n/a
540.7025	0.135	1081405	keystroke_Key.space	Key.space	n/a
541.2275	0.12	1082455	keystroke_d	d	n/a
541.3775	0.12	1082755	keystroke_a	a	n/a
541.5425	0.0895	1083085	keystroke_u	u	n/a
541.693	0.104	1083386	keystroke_g	g	n/a
541.812	0.1205	1083624	keystroke_h	h	n/a
541.888	0.1345	1083776	keystroke_t	t	n/a
542.0375	0.165	1084075	keystroke_e	e	n/a
542.157	0.1505	1084314	keystroke_r	r	n/a
542.2925	0.1195	1084585	keystroke_Key.space	Key.space	n/a
542.547	0.06	1085094	keystroke_m	m	n/a
542.712	0.0905	1085424	keystroke_o	o	n/a
542.8475	0.1045	1085695	keystroke_d	d	n/a
543.042	0.075	1086084	keystroke_i	i	n/a
543.2075	0.12	1086415	keystroke_f	f	n/a
543.3425	0.075	1086685	keystroke_i	i	n/a
543.4625	0.09	1086925	keystroke_e	e	n/a
543.6725	0.105	1087345	keystroke_d	d	n/a
544.0475	0.075	1088095	keystroke_Key.enter	Key.enter	n/a
544.1265	8.7725	1088253	prompt	n/a	delivering staffing containers manitoba\n
544.737	0.135	1089474	keystroke_d	d	n/a
545.052	0.075	1090104	keystroke_l	l	n/a
545.472	0.06	1090944	keystroke_Key.backspace	Key.backspace	n/a
545.637	0.09	1091274	keystroke_e	e	n/a
545.787	0.09	1091574	keystroke_l	l	n/a
545.997	0.09	1091994	keystroke_i	i	n/a
546.057	0.105	1092114	keystroke_v	v	n/a
546.252	0.12	1092504	keystroke_e	e	n/a
546.342	0.12	1092684	keystroke_r	r	n/a
546.492	0.06	1092984	keystroke_i	i	n/a
546.657	0.09	1093314	keystroke_n	n	n/a
546.732	0.135	1093464	keystroke_g	g	n/a
546.882	0.12	1093764	keystroke_Key.space	Key.space	n/a
547.182	0.12	1094364	keystroke_s	s	n/a
547.392	0.135	1094784	keystroke_t	t	n/a
547.512	0.135	1095024	keystroke_a	a	n/a
547.767	0.075	1095534	keystroke_f	f	n/a
547.932	0.09	1095864	keystroke_f	f	n/a
548.082	0.075	1096164	keystroke_i	i	n/a
548.292	0.075	1096584	keystroke_n	n	n/a
548.382	0.12	1096764	keystroke_g	g	n/a
548.487	0.1205	1096974	keystroke_Key.space	Key.space	n/a
548.7725	0.135	1097545	keystroke_c	c	n/a
548.9225	0.09	1097845	keystroke_o	o	n/a
549.0875	0.105	1098175	keystroke_n	n	n/a
549.2075	0.1195	1098415	keystroke_t	t	n/a
549.462	0.136	1098924	keystroke_a	a	n/a
549.612	0.075	1099224	keystroke_i	i	n/a
549.8525	0.06	1099705	keystroke_n	n	n/a
550.0175	0.12	1100035	keystroke_e	e	n/a
550.1075	0.12	1100215	keystroke_r	r	n/a
550.4075	0.135	1100815	keystroke_s	s	n/a
550.5575	0.12	1101115	keystroke_Key.space	Key.space	n/a
551.0975	0.105	1102195	keystroke_m	m	n/a
551.2775	0.09	1102555	keystroke_a	a	n/a
551.3825	0.075	1102765	keystroke_n	n	n/a
551.5775	0.075	1103155	keystroke_i	i	n/a
552.088	0.1195	1104176	keystroke_t	t	n/a
552.2525	0.09	1104505	keystroke_o	o	n/a
552.4775	0.09	1104955	keystroke_b	b	n/a
552.613	0.119	1105226	keystroke_a	a	n/a
552.792	0.1055	1105584	keystroke_Key.enter	Key.enter	n/a
552.902	8.442	1105804	prompt	n/a	amanda sleep package wishes\n
553.5125	0.12	1107025	keystroke_a	a	n/a
553.6775	0.09	1107355	keystroke_m	m	n/a
553.8275	0.12	1107655	keystroke_a	a	n/a
553.9625	0.045	1107925	keystroke_m	m	n/a
554.1425	0.12	1108285	keystroke_d	d	n/a
554.4275	0.09	1108855	keystroke_a	a	n/a
554.9375	0.09	1109875	keystroke_Key.backspace	Key.backspace	n/a
555.718	0.06	1111436	keystroke_Key.backspace	Key.backspace	n/a
556.288	0.075	1112576	keystroke_Key.backspace	Key.backspace	n/a
556.6175	0.06	1113235	keystroke_n	n	n/a
556.7375	0.135	1113475	keystroke_d	d	n/a
556.8575	0.165	1113715	keystroke_a	a	n/a
557.0375	0.165	1114075	keystroke_Key.space	Key.space	n/a
557.6375	0.105	1115275	keystroke_s	s	n/a
557.7875	0.105	1115575	keystroke_l	l	n/a
558.0275	0.075	1116055	keystroke_e	e	n/a
558.193	0.0745	1116386	keystroke_e	e	n/a
558.328	0.0895	1116656	keystroke_p	p	n/a
558.4625	0.12	1116925	keystroke_Key.space	Key.space	n/a
558.8825	0.09	1117765	keystroke_p	p	n/a
558.9575	0.135	1117915	keystroke_a	a	n/a
559.1375	0.12	1118275	keystroke_c	c	n/a
559.2425	0.075	1118485	keystroke_k	k	n/a
559.3925	0.165	1118785	keystroke_a	a	n/a
559.5425	0.135	1119085	keystroke_g	g	n/a
559.7225	0.15	1119445	keystroke_e	e	n/a
559.8725	0.135	1119745	keystroke_Key.space	Key.space	n/a
560.3225	0.105	1120645	keystroke_w	w	n/a
560.4725	0.09	1120945	keystroke_i	i	n/a
560.5775	0.105	1121155	keystroke_s	s	n/a
560.7275	0.06	1121455	keystroke_h	h	n/a
560.803	0.1645	1121606	keystroke_e	e	n/a
560.9375	0.1345	1121875	keystroke_s	s	n/a
561.2675	0.075	1122535	keystroke_Key.enter	Key.enter	n/a
561.347	11.727	1122694	prompt	n/a	reduced request relaxation forecast\n
562.093	0.1495	1124186	keystroke_r	r	n/a
562.2125	0.105	1124425	keystroke_e	e	n/a
562.468	0.075	1124936	keystroke_d	d	n/a
562.633	0.09	1125266	keystroke_u	u	n/a
562.753	0.18	1125506	keystroke_c	c	n/a
562.903	0.12	1125806	keystroke_e	e	n/a
563.1875	0.135	1126375	keystroke_d	d	n/a
563.3525	0.105	1126705	keystroke_Key.space	Key.space	n/a
563.8775	0.075	1127755	keystroke_r	r	n/a
563.9225	0.15	1127845	keystroke_e	e	n/a
564.1025	0.09	1128205	keystroke_q	q	n/a
564.2975	0.075	1128595	keystroke_u	u	n/a
564.4175	0.225	1128835	keystroke_e	e	n/a
564.7475	0.15	1129495	keystroke_r	r	n/a
564.8225	0.1055	1129645	keystroke_s	s	n/a
565.528	0.075	1131056	keystroke_Key.backspace	Key.backspace	n/a
565.708	0.1045	1131416	keystroke_t	t	n/a
566.158	0.09	1132316	keystroke_Key.backspace	Key.backspace	n/a
567.193	0.1045	1134386	keystroke_Key.backspace	Key.backspace	n/a
567.3425	0.135	1134685	keystroke_s	s	n/a
567.5075	0.1055	1135015	keystroke_t	t	n/a
567.7785	0.149	1135557	keystroke_Key.space	Key.space	n/a
568.3025	0.15	1136605	keystroke_r	r	n/a
568.4075	0.105	1136815	keystroke_e	e	n/a
568.5875	0.12	1137175	keystroke_l	l	n/a
568.6925	0.135	1137385	keystroke_a	a	n/a
569.683	0.105	1139366	keystroke_x	x	n/a
569.908	0.12	1139816	keystroke_a	a	n/a
570.268	0.105	1140536	keystroke_t	t	n/a
570.358	0.165	1140716	keystroke_i	i	n/a
570.5075	0.135	1141015	keystroke_o	o	n/a
570.6275	0.12	1141255	keystroke_n	n	n/a
570.7325	0.12	1141465	keystroke_Key.space	Key.space	n/a
570.8675	0.105	1141735	keystroke_f	f	n/a
571.0025	0.135	1142005	keystroke_o	o	n/a
571.0925	0.12	1142185	keystroke_r	r	n/a
571.3175	0.15	1142635	keystroke_e	e	n/a
571.7975	0.1505	1143595	keystroke_c	c	n/a
572.038	0.12	1144076	keystroke_a	a	n/a
572.548	0.15	1145096	keystroke_s	s	n/a
572.743	0.135	1145486	keystroke_t	t	n/a
572.998	0.075	1145996	keystroke_Key.enter	Key.enter	n/a
573.077	6.3725	1146154	prompt	n/a	limit outer endorsement facts\n
573.6275	0.09	1147255	keystroke_l	l	n/a
573.7775	0.075	1147555	keystroke_i	i	n/a
574.1225	0.0905	1148245	keystroke_m	m	n/a
574.303	0.075	1148606	keystroke_i	i	n/a
574.393	0.15	1148786	keystroke_t	t	n/a
574.573	0.135	1149146	keystroke_Key.space	Key.space	n/a
574.738	0.12	1149476	keystroke_o	o	n/a
574.843	0.105	1149686	keystroke_u	u	n/a
574.978	0.12	1149956	keystroke_t	t	n/a
575.218	0.12	1150436	keystroke_e	e	n/a
575.3235	0.1495	1150647	keystroke_r	r	n/a
575.518	0.105	1151036	keystroke_Key.space	Key.space	n/a
575.803	0.0895	1151606	keystroke_e	e	n/a
576.0125	0.09	1152025	keystroke_n	n	n/a
576.178	0.075	1152356	keystroke_d	d	n/a
576.7475	0.105	1153495	keystroke_o	o	n/a
576.8375	0.12	1153675	keystroke_r	r	n/a
577.0925	0.135	1154185	keystroke_s	s	n/a
577.2125	0.105	1154425	keystroke_e	e	n/a
577.408	0.105	1154816	keystroke_m	m	n/a
577.588	0.15	1155176	keystroke_e	e	n/a
577.753	0.075	1155506	keystroke_n	n	n/a
577.873	0.135	1155746	keystroke_t	t	n/a
578.068	0.135	1156136	keystroke_Key.space	Key.space	n/a
578.308	0.135	1156616	keystroke_f	f	n/a
578.458	0.18	1156916	keystroke_a	a	n/a
578.653	0.12	1157306	keystroke_c	c	n/a
578.9225	0.105	1157845	keystroke_t	t	n/a
579.1475	0.09	1158295	keystroke_s	s	n/a
579.3725	0.075	1158745	keystroke_Key.enter	Key.enter	n/a
579.4525	10.122	1158905	prompt	n/a	champion approximate filters legend\n
580.213	0.09	1160426	keystroke_c	c	n/a
580.648	0.045	1161296	keystroke_Key.backspace	Key.backspace	n/a
581.143	0.135	1162286	keystroke_c	c	n/a
581.308	0.075	1162616	keystroke_h	h	n/a
581.458	0.105	1162916	keystroke_a	a	n/a
581.578	0.075	1163156	keystroke_m	m	n/a
582.163	0.075	1164326	keystroke_p	p	n/a
582.313	0.09	1164626	keystroke_i	i	n/a
582.9735	0.075	1165947	keystroke_o	o	n/a
583.1685	0.075	1166337	keystroke_n	n	n/a
583.3335	0.12	1166667	keystroke_Key.space	Key.space	n/a
583.7685	0.12	1167537	keystroke_a	a	n/a
583.9485	0.075	1167897	keystroke_p	p	n/a
584.0985	0.1045	1168197	keystroke_p	p	n/a
584.338	0.1195	1168676	keystroke_r	r	n/a
584.608	0.09	1169216	keystroke_o	o	n/a
584.9385	0.105	1169877	keystroke_x	x	n/a
585.1185	0.06	1170237	keystroke_i	i	n/a
585.5385	0.09	1171077	keystroke_m	m	n/a
585.6585	0.164	1171317	keystroke_a	a	n/a
585.8085	0.15	1171617	keystroke_t	t	n/a
585.9735	0.165	1171947	keystroke_e	e	n/a
586.1535	0.135	1172307	keystroke_Key.space	Key.space	n/a
586.4835	0.12	1172967	keystroke_f	f	n/a
586.6485	0.06	1173297	keystroke_i	i	n/a
586.8585	0.09	1173717	keystroke_l	l	n/a
587.2925	0.105	1174585	keystroke_t	t	n/a
587.4725	0.165	1174945	keystroke_e	e	n/a
587.5625	0.121	1175125	keystroke_r	r	n/a
587.803	0.135	1175606	keystroke_s	s	n/a
587.923	0.12	1175846	keystroke_Key.space	Key.space	n/a
588.223	0.09	1176446	keystroke_l	l	n/a
588.328	0.105	1176656	keystroke_e	e	n/a
588.538	0.075	1177076	keystroke_g	g	n/a
588.913	0.151	1177826	keystroke_e	e	n/a
589.079	0.089	1178158	keystroke_n	n	n/a
589.213	0.1045	1178426	keystroke_d	d	n/a
589.5125	0.0605	1179025	keystroke_Key.enter	Key.enter	n/a
589.577	5.743	1179154	prompt	n/a	zinc which alliance look\n
590.533	0.105	1181066	keystroke_z	z	n/a
590.728	0.06	1181456	keystroke_i	i	n/a
590.908	0.075	1181816	keystroke_n	n	n/a
591.118	0.165	1182236	keystroke_c	c	n/a
591.298	0.1205	1182596	keystroke_Key.space	Key.space	n/a
591.5985	0.105	1183197	keystroke_w	w	n/a
591.748	0.09	1183496	keystroke_h	h	n/a
591.898	0.105	1183796	keystroke_i	i	n/a
592.018	0.165	1184036	keystroke_c	c	n/a
592.198	0.0755	1184396	keystroke_h	h	n/a
592.213	0.1205	1184426	keystroke_Key.space	Key.space	n/a
592.3935	0.12	1184787	keystroke_a	a	n/a
592.5435	0.09	1185087	keystroke_l	l	n/a
592.7235	0.075	1185447	keystroke_l	l	n/a
592.9335	0.06	1185867	keystroke_i	i	n/a
593.4135	0.1195	1186827	keystroke_a	a	n/a
593.593	0.075	1187186	keystroke_n	n	n/a
593.683	0.1805	1187366	keystroke_c	c	n/a
593.8185	0.18	1187637	keystroke_e	e	n/a
593.9835	0.1055	1187967	keystroke_Key.space	Key.space	n/a
594.104	0.089	1188208	keystroke_l	l	n/a
594.3135	0.045	1188627	keystroke_o	o	n/a
594.4485	0.09	1188897	keystroke_o	o	n/a
594.958	0.075	1189916	keystroke_k	k	n/a
595.2735	0.045	1190547	keystroke_Key.enter	Key.enter	n/a
595.3245	6.1605	1190649	prompt	n/a	belly tank childhood grove\n
596.2335	0.12	1192467	keystroke_b	b	n/a
596.443	0.105	1192886	keystroke_e	e	n/a
596.578	0.06	1193156	keystroke_l	l	n/a
596.713	0.105	1193426	keystroke_l	l	n/a
596.938	0.09	1193876	keystroke_y	y	n/a
597.073	0.135	1194146	keystroke_Key.space	Key.space	n/a
597.238	0.1345	1194476	keystroke_t	t	n/a
597.3875	0.136	1194775	keystroke_a	a	n/a
597.4935	0.15	1194987	keystroke_n	n	n/a
597.6585	0.09	1195317	keystroke_k	k	n/a
597.8535	0.105	1195707	keystroke_Key.space	Key.space	n/a
598.379	0.134	1196758	keystroke_c	c	n/a
598.498	0.09	1196996	keystroke_h	h	n/a
598.648	0.09	1197296	keystroke_i	i	n/a
598.813	0.105	1197626	keystroke_l	l	n/a
598.933	0.12	1197866	keystroke_d	d	n/a
599.3685	0.06	1198737	keystroke_h	h	n/a
599.5185	0.09	1199037	keystroke_o	o	n/a
599.6985	0.09	1199397	keystroke_o	o	n/a
599.8785	0.15	1199757	keystroke_d	d	n/a
600.0135	0.135	1200027	keystroke_Key.space	Key.space	n/a
600.538	0.12	1201076	keystroke_g	g	n/a
600.778	0.09	1201556	keystroke_r	r	n/a
600.898	0.135	1201796	keystroke_o	o	n/a
601.018	0.12	1202036	keystroke_v	v	n/a
601.198	0.09	1202396	keystroke_e	e	n/a
601.4235	0.06	1202847	keystroke_Key.enter	Key.enter	n/a
601.4885	7.856	1202977	prompt	n/a	airfare voters tree churches\n
602.1735	0.105	1204347	keystroke_a	a	n/a
602.4435	0.09	1204887	keystroke_i	i	n/a
602.5935	0.135	1205187	keystroke_r	r	n/a
603.1185	0.1205	1206237	keystroke_f	f	n/a
603.284	0.15	1206568	keystroke_a	a	n/a
603.449	0.12	1206898	keystroke_r	r	n/a
603.554	0.135	1207108	keystroke_e	e	n/a
603.719	0.15	1207438	keystroke_Key.space	Key.space	n/a
604.319	0.119	1208638	keystroke_v	v	n/a
604.469	0.105	1208938	keystroke_o	o	n/a
604.603	0.165	1209206	keystroke_t	t	n/a
604.783	0.165	1209566	keystroke_e	e	n/a
604.888	0.121	1209776	keystroke_r	r	n/a
605.098	0.12	1210196	keystroke_s	s	n/a
605.203	0.165	1210406	keystroke_Key.space	Key.space	n/a
605.353	0.15	1210706	keystroke_f	f	n/a
606.868	0.075	1213736	keystroke_Key.backspace	Key.backspace	n/a
607.168	0.12	1214336	keystroke_t	t	n/a
607.424	0.135	1214848	keystroke_r	r	n/a
607.499	0.09	1214998	keystroke_e	e	n/a
607.679	0.12	1215358	keystroke_e	e	n/a
607.8585	0.12	1215717	keystroke_Key.space	Key.space	n/a
608.0385	0.15	1216077	keystroke_c	c	n/a
608.1585	0.075	1216317	keystroke_h	h	n/a
608.3535	0.075	1216707	keystroke_u	u	n/a
608.3985	0.09	1216797	keystroke_r	r	n/a
608.6535	0.1045	1217307	keystroke_c	c	n/a
608.773	0.075	1217546	keystroke_h	h	n/a
608.893	0.15	1217786	keystroke_e	e	n/a
609.029	0.134	1218058	keystroke_s	s	n/a
609.268	0.075	1218536	keystroke_Key.enter	Key.enter	n/a
609.348	7.212	1218696	prompt	n/a	sign feet christmas refurbished\n
609.988	0.12	1219976	keystroke_s	s	n/a
610.168	0.09	1220336	keystroke_i	i	n/a
610.799	0.075	1221598	keystroke_g	g	n/a
610.919	0.09	1221838	keystroke_n	n	n/a
611.069	0.105	1222138	keystroke_Key.space	Key.space	n/a
611.234	0.12	1222468	keystroke_f	f	n/a
611.429	0.075	1222858	keystroke_e	e	n/a
611.594	0.075	1223188	keystroke_e	e	n/a
611.789	0.12	1223578	keystroke_t	t	n/a
611.909	0.135	1223818	keystroke_Key.space	Key.space	n/a
612.104	0.1495	1224208	keystroke_c	c	n/a
612.2235	0.09	1224447	keystroke_h	h	n/a
612.4035	0.105	1224807	keystroke_r	r	n/a
612.4785	0.09	1224957	keystroke_i	i	n/a
612.5985	0.135	1225197	keystroke_s	s	n/a
612.7185	0.1505	1225437	keystroke_t	t	n/a
612.959	0.075	1225918	keystroke_m	m	n/a
613.094	0.135	1226188	keystroke_a	a	n/a
613.244	0.135	1226488	keystroke_s	s	n/a
613.424	0.1045	1226848	keystroke_Key.space	Key.space	n/a
613.8435	0.12	1227687	keystroke_r	r	n/a
613.9185	0.12	1227837	keystroke_e	e	n/a
614.3235	0.12	1228647	keystroke_f	f	n/a
614.6535	0.12	1229307	keystroke_u	u	n/a
615.0135	0.09	1230027	keystroke_r	r	n/a
615.4035	0.135	1230807	keystroke_b	b	n/a
615.5535	0.12	1231107	keystroke_i	i	n/a
615.7035	0.12	1231407	keystroke_s	s	n/a
615.7935	0.09	1231587	keystroke_h	h	n/a
615.9135	0.105	1231827	keystroke_e	e	n/a
616.1535	0.0605	1232307	keystroke_d	d	n/a
616.4985	0.0605	1232997	keystroke_Key.enter	Key.enter	n/a
616.563	10.9775	1233126	prompt	n/a	inquiry perl magnitude checkout\n
617.2035	0.075	1234407	keystroke_i	i	n/a
617.3835	0.075	1234767	keystroke_n	n	n/a
617.5335	0.105	1235067	keystroke_q	q	n/a
617.6835	0.075	1235367	keystroke_u	u	n/a
618.8685	0.06	1237737	keystroke_i	i	n/a
619.0335	0.09	1238067	keystroke_r	r	n/a
619.2735	0.045	1238547	keystroke_y	y	n/a
619.4235	0.12	1238847	keystroke_Key.space	Key.space	n/a
620.3235	0.06	1240647	keystroke_e	e	n/a
620.8785	0.06	1241757	keystroke_Key.backspace	Key.backspace	n/a
621.419	0.12	1242838	keystroke_p	p	n/a
621.569	0.18	1243138	keystroke_e	e	n/a
621.734	0.105	1243468	keystroke_r	r	n/a
621.869	0.09	1243738	keystroke_l	l	n/a
622.019	0.1945	1244038	keystroke_Key.space	Key.space	n/a
622.7085	0.105	1245417	keystroke_m	m	n/a
622.8735	0.135	1245747	keystroke_a	a	n/a
623.4135	0.09	1246827	keystroke_g	g	n/a
623.5935	0.1055	1247187	keystroke_n	n	n/a
624.179	0.075	1248358	keystroke_i	i	n/a
624.5085	0.12	1249017	keystroke_t	t	n/a
624.6435	0.0905	1249287	keystroke_u	u	n/a
624.7935	0.105	1249587	keystroke_d	d	n/a
624.989	0.1495	1249978	keystroke_e	e	n/a
625.1685	0.195	1250337	keystroke_Key.space	Key.space	n/a
625.7685	0.135	1251537	keystroke_c	c	n/a
625.9045	0.104	1251809	keystroke_h	h	n/a
626.0685	0.09	1252137	keystroke_e	e	n/a
626.4885	0.105	1252977	keystroke_c	c	n/a
626.6985	0.075	1253397	keystroke_k	k	n/a
626.9385	0.105	1253877	keystroke_o	o	n/a
627.0885	0.09	1254177	keystroke_u	u	n/a
627.2685	0.09	1254537	keystroke_t	t	n/a
627.449	0.09	1254898	keystroke_Key.enter	Key.enter	n/a
627.5435	9.387	1255087	prompt	n/a	maryland trouble palestinian grand\n
628.2445	0.12	1256489	keystroke_m	m	n/a
628.3495	0.15	1256699	keystroke_a	a	n/a
628.4695	0.105	1256939	keystroke_r	r	n/a
628.7095	0.075	1257419	keystroke_l	l	n/a
629.174	0.09	1258348	keystroke_Key.backspace	Key.backspace	n/a
629.504	0.06	1259008	keystroke_y	y	n/a
629.744	0.0905	1259488	keystroke_l	l	n/a
629.8495	0.105	1259699	keystroke_a	a	n/a
630.0145	0.075	1260029	keystroke_n	n	n/a
630.1195	0.135	1260239	keystroke_d	d	n/a
630.2395	0.135	1260479	keystroke_Key.space	Key.space	n/a
631.034	0.121	1262068	keystroke_t	t	n/a
631.245	0.149	1262490	keystroke_r	r	n/a
631.379	0.1055	1262758	keystroke_o	o	n/a
631.4535	0.1055	1262907	keystroke_u	u	n/a
631.605	0.1345	1263210	keystroke_b	b	n/a
631.8145	0.105	1263629	keystroke_l	l	n/a
631.9495	0.15	1263899	keystroke_e	e	n/a
