onset	duration	sample	value	key	prompt_text
3.9715	9.979	7943	prompt	n/a	the quick brown fox jumps over a lazy dog\n
6.555	0.028	13110	keystroke_t	t	n/a
6.628	0.09	13256	keystroke_h	h	n/a
6.763	0.075	13526	keystroke_e	e	n/a
6.943	0.06	13886	keystroke_Key.space	Key.space	n/a
7.2425	0.0755	14485	keystroke_q	q	n/a
7.423	0.075	14846	keystroke_u	u	n/a
7.603	0.09	15206	keystroke_i	i	n/a
7.828	0.0745	15656	keystroke_c	c	n/a
8.038	0.09	16076	keystroke_k	k	n/a
8.218	0.09	16436	keystroke_Key.space	Key.space	n/a
8.458	0.075	16916	keystroke_b	b	n/a
8.578	0.0895	17156	keystroke_r	r	n/a
8.7275	0.075	17455	keystroke_o	o	n/a
8.8175	0.09	17635	keystroke_w	w	n/a
8.9525	0.09	17905	keystroke_n	n	n/a
9.1175	0.09	18235	keystroke_Key.space	Key.space	n/a
9.373	0.105	18746	keystroke_f	f	n/a
9.538	0.075	19076	keystroke_o	o	n/a
9.748	0.105	19496	keystroke_x	x	n/a
9.913	0.105	19826	keystroke_Key.space	Key.space	n/a
10.6935	0.075	21387	keystroke_j	j	n/a
10.8735	0.075	21747	keystroke_u	u	n/a
11.083	0.075	22166	keystroke_m	m	n/a
11.2785	0.06	22557	keystroke_p	p	n/a
11.3985	0.089	22797	keystroke_s	s	n/a
11.5325	0.09	23065	keystroke_Key.space	Key.space	n/a
11.683	0.09	23366	keystroke_o	o	n/a
11.818	0.09	23636	keystroke_v	v	n/a
11.968	0.135	23936	keystroke_e	e	n/a
12.088	0.105	24176	keystroke_r	r	n/a
12.208	0.09	24416	keystroke_Key.space	Key.space	n/a
12.328	0.105	24656	keystroke_a	a	n/a
12.418	0.135	24836	keystroke_Key.space	Key.space	n/a
12.673	0.0905	25346	keystroke_l	l	n/a
12.7785	0.09	25557	keystroke_a	a	n/a
12.9875	0.121	25975	keystroke_z	z	n/a
13.1375	0.075	26275	keystroke_y	y	n/a
13.2575	0.135	26515	keystroke_Key.space	Key.space	n/a
13.4075	0.09	26815	keystroke_d	d	n/a
13.5125	0.09	27025	keystroke_o	o	n/a
13.6775	0.0905	27355	keystroke_g	g	n/a
13.858	0.09	27716	keystroke_Key.enter	Key.enter	n/a
13.955	6.79	27910	prompt	n/a	nodes appendix british likelihood\n
14.6535	0.075	29307	keystroke_n	n	n/a
14.8035	0.059	29607	keystroke_o	o	n/a
14.8935	0.119	29787	keystroke_d	d	n/a
14.9835	0.09	29967	keystroke_e	e	n/a
15.1925	0.091	30385	keystroke_s	s	n/a
15.3125	0.105	30625	keystroke_Key.space	Key.space	n/a
15.478	0.0595	30956	keystroke_a	a	n/a
15.5525	0.0755	31105	keystroke_p	p	n/a
15.838	0.075	31676	keystroke_p	p	n/a
16.048	0.06	32096	keystroke_e	e	n/a
16.213	0.075	32426	keystroke_n	n	n/a
16.363	0.075	32726	keystroke_d	d	n/a
16.513	0.09	33026	keystroke_i	i	n/a
16.813	0.075	33626	keystroke_x	x	n/a
16.963	0.075	33926	keystroke_Key.space	Key.space	n/a
17.203	0.105	34406	keystroke_b	b	n/a
17.353	0.075	34706	keystroke_r	r	n/a
17.458	0.075	34916	keystroke_i	i	n/a
17.593	0.075	35186	keystroke_t	t	n/a
17.713	0.105	35426	keystroke_i	i	n/a
17.878	0.09	35756	keystroke_s	s	n/a
18.043	0.09	36086	keystroke_h	h	n/a
18.208	0.12	36416	keystroke_Key.space	Key.space	n/a
18.463	0.135	36926	keystroke_l	l	n/a
18.583	0.09	37166	keystroke_i	i	n/a
18.778	0.09	37556	keystroke_k	k	n/a
18.913	0.09	37826	keystroke_e	e	n/a
19.363	0.165	38726	keystroke_l	l	n/a
19.558	0.075	39116	keystroke_i	i	n/a
20.008	0.075	40016	keystroke_h	h	n/a
20.248	0.06	40496	keystroke_o	o	n/a
20.383	0.075	40766	keystroke_o	o	n/a
20.518	0.06	41036	keystroke_d	d	n/a
20.668	0.075	41336	keystroke_Key.enter	Key.enter	n/a
20.748	6.402	41496	prompt	n/a	everybody trusted subaru binary\n
21.418	0.09	42836	keystroke_e	e	n/a
21.658	0.06	43316	keystroke_v	v	n/a
21.793	0.105	43586	keystroke_e	e	n/a
21.883	0.06	43766	keystroke_r	r	n/a
21.973	0.09	43946	keystroke_y	y	n/a
22.213	0.075	44426	keystroke_b	b	n/a
22.483	0.075	44966	keystroke_o	o	n/a
22.603	0.075	45206	keystroke_d	d	n/a
22.753	0.09	45506	keystroke_y	y	n/a
22.918	0.12	45836	keystroke_Key.space	Key.space	n/a
23.248	0.06	46496	keystroke_t	t	n/a
23.398	0.075	46796	keystroke_r	r	n/a
23.5485	0.09	47097	keystroke_u	u	n/a
23.6685	0.075	47337	keystroke_s	s	n/a
23.8185	0.0895	47637	keystroke_t	t	n/a
23.923	0.105	47846	keystroke_e	e	n/a
24.133	0.075	48266	keystroke_d	d	n/a
24.238	0.12	48476	keystroke_Key.space	Key.space	n/a
24.463	0.0895	48926	keystroke_s	s	n/a
24.6575	0.1055	49315	keystroke_u	u	n/a
24.823	0.09	49646	keystroke_b	b	n/a
24.9885	0.105	49977	keystroke_a	a	n/a
25.1525	0.075	50305	keystroke_r	r	n/a
25.5875	0.06	51175	keystroke_u	u	n/a
25.8125	0.09	51625	keystroke_Key.space	Key.space	n/a
26.098	0.09	52196	keystroke_b	b	n/a
26.248	0.075	52496	keystroke_i	i	n/a
26.428	0.09	52856	keystroke_n	n	n/a
26.593	0.12	53186	keystroke_a	a	n/a
26.758	0.09	53516	keystroke_r	r	n/a
26.893	0.075	53786	keystroke_y	y	n/a
27.103	0.045	54206	keystroke_Key.enter	Key.enter	n/a
27.1525	15.9725	54305	prompt	n/a	kijiji reprint decision designs\n
30.076	0.042	60152	keystroke_k	k	n/a
30.8535	0.09	61707	keystroke_i	i	n/a
31.1235	0.105	62247	keystroke_j	j	n/a
31.4235	0.09	62847	keystroke_i	i	n/a
31.8435	0.12	63687	keystroke_j	j	n/a
32.0985	0.075	64197	keystroke_i	i	n/a
32.2935	0.135	64587	keystroke_Key.space	Key.space	n/a
32.5785	0.12	65157	keystroke_r	r	n/a
32.7135	0.105	65427	keystroke_e	e	n/a
32.8935	0.045	65787	keystroke_p	p	n/a
33.148	0.105	66296	keystroke_r	r	n/a
33.343	0.12	66686	keystroke_i	i	n/a
33.478	0.09	66956	keystroke_n	n	n/a
33.583	0.105	67166	keystroke_t	t	n/a
33.718	0.09	67436	keystroke_Key.space	Key.space	n/a
33.9735	0.06	67947	keystroke_d	d	n/a
34.1235	0.075	68247	keystroke_e	e	n/a
34.3785	0.075	68757	keystroke_v	v	n/a
34.9335	0.045	69867	keystroke_Key.backspace	Key.backspace	n/a
35.0235	0.09	70047	keystroke_c	c	n/a
35.2485	0.105	70497	keystroke_i	i	n/a
35.3985	0.075	70797	keystroke_s	s	n/a
35.5185	0.12	71037	keystroke_i	i	n/a
35.6685	0.075	71337	keystroke_o	o	n/a
35.8785	0.105	71757	keystroke_n	n	n/a
36.0735	0.09	72147	keystroke_Key.space	Key.space	n/a
36.2835	0.06	72567	keystroke_d	d	n/a
36.4485	0.09	72897	keystroke_e	e	n/a
36.5985	0.105	73197	keystroke_s	s	n/a
36.7935	0.0745	73587	keystroke_g	g	n/a
36.973	0.15	73946	keystroke_i	i	n/a
37.108	0.105	74216	keystroke_n	n	n/a
37.513	0.06	75026	keystroke_Key.backspace	Key.backspace	n/a
37.633	0.09	75266	keystroke_Key.backspace	Key.backspace	n/a
37.798	0.0605	75596	keystroke_Key.backspace	Key.backspace	n/a
38.368	0.135	76736	keystroke_u	u	n/a
38.698	0.06	77396	keystroke_g	g	n/a
38.863	0.075	77726	keystroke_n	n	n/a
39.058	0.06	78116	keystroke_s	s	n/a
39.493	0.075	78986	keystroke_Key.backspace	Key.backspace	n/a
39.643	0.075	79286	keystroke_Key.backspace	Key.backspace	n/a
39.793	0.0755	79586	keystroke_Key.backspace	Key.backspace	n/a
39.9435	0.09	79887	keystroke_Key.backspace	Key.backspace	n/a
40.6635	0.075	81327	keystroke_u	u	n/a
40.8585	0.045	81717	keystroke_g	g	n/a
41.2785	0.06	82557	keystroke_Key.backspace	Key.backspace	n/a
41.848	0.06	83696	keystroke_Key.backspace	Key.backspace	n/a
42.208	0.075	84416	keystroke_i	i	n/a
42.328	0.06	84656	keystroke_g	g	n/a
42.508	0.075	85016	keystroke_n	n	n/a
42.658	0.0755	85316	keystroke_s	s	n/a
43.0485	0.075	86097	keystroke_Key.enter	Key.enter	n/a
43.128	8.832	86256	prompt	n/a	covers earliest parents namely\n
43.903	0.09	87806	keystroke_c	c	n/a
44.008	0.075	88016	keystroke_o	o	n/a
44.113	0.12	88226	keystroke_v	v	n/a
44.278	0.135	88556	keystroke_e	e	n/a
44.398	0.09	88796	keystroke_r	r	n/a
44.548	0.09	89096	keystroke_s	s	n/a
44.743	0.09	89486	keystroke_Key.space	Key.space	n/a
44.893	0.165	89786	keystroke_e	e	n/a
45.088	0.135	90176	keystroke_a	a	n/a
45.433	0.15	90866	keystroke_l	l	n/a
45.553	0.105	91106	keystroke_i	i	n/a
46.2585	0.105	92517	keystroke_Key.backspace	Key.backspace	n/a
46.4685	0.06	92937	keystroke_Key.backspace	Key.backspace	n/a
46.6035	0.09	93207	keystroke_r	r	n/a
46.7985	0.18	93597	keystroke_l	l	n/a
46.9485	0.12	93897	keystroke_i	i	n/a
47.0835	0.105	94167	keystroke_e	e	n/a
47.1735	0.1495	94347	keystroke_s	s	n/a
47.398	0.076	94796	keystroke_t	t	n/a
47.8485	0.105	95697	keystroke_Key.space	Key.space	n/a
48.1785	0.06	96357	keystroke_p	p	n/a
48.2535	0.105	96507	keystroke_a	a	n/a
48.3885	0.12	96777	keystroke_r	r	n/a
48.5095	0.1035	97019	keystroke_e	e	n/a
48.658	0.105	97316	keystroke_n	n	n/a
48.778	0.09	97556	keystroke_t	t	n/a
48.913	0.12	97826	keystroke_s	s	n/a
49.063	0.075	98126	keystroke_Key.space	Key.space	n/a
49.423	0.06	98846	keystroke_a	a	n/a
49.783	0.0605	99566	keystroke_Key.backspace	Key.backspace	n/a
50.834	0.06	101668	keystroke_n	n	n/a
50.953	0.091	101906	keystroke_a	a	n/a
51.103	0.076	102206	keystroke_m	m	n/a
51.209	0.075	102418	keystroke_e	e	n/a
51.359	0.074	102718	keystroke_l	l	n/a
51.583	0.076	103166	keystroke_y	y	n/a
51.8835	0.075	103767	keystroke_Key.enter	Key.enter	n/a
51.963	9.448	103926	prompt	n/a	antarctica browsing pathology morris\n
52.633	0.061	105266	keystroke_a	a	n/a
53.219	0.074	106438	keystroke_n	n	n/a
53.443	0.09	106886	keystroke_t	t	n/a
53.653	0.15	107306	keystroke_a	a	n/a
53.788	0.106	107576	keystroke_r	r	n/a
54.164	0.075	108328	keystroke_c	c	n/a
54.404	0.075	108808	keystroke_t	t	n/a
54.599	0.075	109198	keystroke_i	i	n/a
54.734	0.105	109468	keystroke_c	c	n/a
54.929	0.089	109858	keystroke_a	a	n/a
55.093	0.09	110186	keystroke_Key.space	Key.space	n/a
55.378	0.076	110756	keystroke_b	b	n/a
55.469	0.105	110938	keystroke_r	r	n/a
55.664	0.06	111328	keystroke_o	o	n/a
55.739	0.075	111478	keystroke_w	w	n/a
56.428	0.075	112856	keystroke_s	s	n/a
56.653	0.165	113306	keystroke_i	i	n/a
56.803	0.105	113606	keystroke_n	n	n/a
56.878	0.075	113756	keystroke_g	g	n/a
57.043	0.105	114086	keystroke_Key.space	Key.space	n/a
57.3135	0.06	114627	keystroke_p	p	n/a
57.4035	0.105	114807	keystroke_a	a	n/a
57.5535	0.09	115107	keystroke_t	t	n/a
57.7035	0.09	115407	keystroke_h	h	n/a
57.8985	0.06	115797	keystroke_o	o	n/a
58.0935	0.06	116187	keystroke_l	l	n/a
58.2885	0.075	116577	keystroke_o	o	n/a
58.5585	0.15	117117	keystroke_g	g	n/a
58.7985	0.09	117597	keystroke_y	y	n/a
59.4585	0.12	118917	keystroke_Key.space	Key.space	n/a
59.9535	0.09	119907	keystroke_m	m	n/a
60.1335	0.06	120267	keystroke_r	r	n/a
60.449	0.075	120898	keystroke_Key.backspace	Key.backspace	n/a
60.6435	0.075	121287	keystroke_o	o	n/a
60.7635	0.06	121527	keystroke_r	r	n/a
60.8985	0.075	121797	keystroke_r	r	n/a
61.0635	0.075	122127	keystroke_i	i	n/a
61.1535	0.09	122307	keystroke_s	s	n/a
61.3335	0.075	122667	keystroke_Key.enter	Key.enter	n/a
61.4165	9.6535	122833	prompt	n/a	hierarchy watershed higher signatures\n
62.174	0.105	124348	keystroke_h	h	n/a
62.699	0.06	125398	keystroke_i	i	n/a
63.254	0.104	126508	keystroke_e	e	n/a
63.493	0.075	126986	keystroke_r	r	n/a
63.718	0.135	127436	keystroke_a	a	n/a
63.913	0.09	127826	keystroke_r	r	n/a
64.273	0.06	128546	keystroke_c	c	n/a
64.483	0.06	128966	keystroke_h	h	n/a
64.783	0.09	129566	keystroke_y	y	n/a
65.008	0.12	130016	keystroke_Key.space	Key.space	n/a
65.653	0.181	131306	keystroke_w	w	n/a
65.789	0.135	131578	keystroke_a	a	n/a
65.984	0.12	131968	keystroke_t	t	n/a
66.134	0.135	132268	keystroke_e	e	n/a
66.254	0.09	132508	keystroke_r	r	n/a
66.494	0.075	132988	keystroke_s	s	n/a
66.614	0.09	133228	keystroke_h	h	n/a
66.719	0.09	133438	keystroke_e	e	n/a
66.899	0.09	133798	keystroke_d	d	n/a
67.019	0.09	134038	keystroke_Key.space	Key.space	n/a
67.214	0.0745	134428	keystroke_h	h	n/a
68.0685	0.075	136137	keystroke_i	i	n/a
68.2035	0.09	136407	keystroke_g	g	n/a
68.3685	0.06	136737	keystroke_h	h	n/a
68.5485	0.135	137097	keystroke_e	e	n/a
68.6835	0.105	137367	keystroke_r	r	n/a
68.8485	0.075	137697	keystroke_Key.space	Key.space	n/a
69.1185	0.075	138237	keystroke_s	s	n/a
69.2385	0.075	138477	keystroke_i	i	n/a
69.3585	0.09	138717	keystroke_g	g	n/a
69.4935	0.12	138987	keystroke_n	n	n/a
69.6435	0.135	139287	keystroke_a	a	n/a
69.8835	0.09	139767	keystroke_t	t	n/a
70.1085	0.06	140217	keystroke_u	u	n/a
70.1985	0.105	140397	keystroke_r	r	n/a
70.5135	0.075	141027	keystroke_e	e	n/a
70.6035	0.12	141207	keystroke_s	s	n/a
70.9635	0.105	141927	keystroke_Key.enter	Key.enter	n/a
71.0735	13.752	142147	prompt	n/a	digital shouldn't've womens outside\n
71.7735	0.09	143547	keystroke_d	d	n/a
71.8785	0.075	143757	keystroke_i	i	n/a
72.2535	0.105	144507	keystroke_g	g	n/a
72.4185	0.09	144837	keystroke_i	i	n/a
72.9885	0.105	145977	keystroke_t	t	n/a
73.1385	0.135	146277	keystroke_a	a	n/a
73.3335	0.075	146667	keystroke_l	l	n/a
73.4685	0.105	146937	keystroke_Key.space	Key.space	n/a
73.6485	0.09	147297	keystroke_s	s	n/a
73.7535	0.09	147507	keystroke_h	h	n/a
73.9335	0.09	147867	keystroke_o	o	n/a
74.0235	0.09	148047	keystroke_u	u	n/a
74.2035	0.075	148407	keystroke_l	l	n/a
74.3835	0.06	148767	keystroke_d	d	n/a
74.6385	0.09	149277	keystroke_n	n	n/a
78.001	0.013	156002	keystroke_'	'	n/a
78.269	0.075	156538	keystroke_t	t	n/a
78.899	0.075	157798	keystroke_'	'	n/a
79.528	0.061	159056	keystroke_v	v	n/a
79.649	0.0745	159298	keystroke_e	e	n/a
79.8435	0.09	159687	keystroke_Key.space	Key.space	n/a
80.188	0.091	160376	keystroke_w	w	n/a
80.324	0.059	160648	keystroke_o	o	n/a
80.548	0.09	161096	keystroke_m	m	n/a
80.699	0.045	161398	keystroke_e	e	n/a
80.924	0.015	161848	keystroke_n	n	n/a
80.999	0.105	161998	keystroke_s	s	n/a
81.134	0.105	162268	keystroke_Key.space	Key.space	n/a
81.389	0.105	162778	keystroke_o	o	n/a
81.7035	0.105	163407	keystroke_u	u	n/a
81.7935	0.0895	163587	keystroke_t	t	n/a
84.0455	0.0285	168091	keystroke_s	s	n/a
84.269	0.12	168538	keystroke_i	i	n/a
84.434	0.135	168868	keystroke_d	d	n/a
84.524	0.12	169048	keystroke_e	e	n/a
84.704	0.1195	169408	keystroke_Key.enter	Key.enter	n/a
84.828	7.8425	169656	prompt	n/a	indication camping so're both\n
86.7885	0.09	173577	keystroke_i	i	n/a
86.9685	0.075	173937	keystroke_n	n	n/a
87.0735	0.075	174147	keystroke_d	d	n/a
87.1935	0.075	174387	keystroke_i	i	n/a
87.2835	0.105	174567	keystroke_c	c	n/a
87.4335	0.12	174867	keystroke_a	a	n/a
87.6135	0.075	175227	keystroke_t	t	n/a
87.7335	0.12	175467	keystroke_i	i	n/a
87.8085	0.075	175617	keystroke_o	o	n/a
88.0335	0.06	176067	keystroke_n	n	n/a
88.1835	0.09	176367	keystroke_Key.space	Key.space	n/a
88.5735	0.09	177147	keystroke_c	c	n/a
88.7235	0.15	177447	keystroke_a	a	n/a
88.8885	0.09	177777	keystroke_m	m	n/a
89.0835	0.09	178167	keystroke_p	p	n/a
89.3985	0.105	178797	keystroke_i	i	n/a
89.5785	0.09	179157	keystroke_n	n	n/a
89.6985	0.075	179397	keystroke_g	g	n/a
89.8485	0.09	179697	keystroke_Key.space	Key.space	n/a
90.4485	0.12	180897	keystroke_s	s	n/a
90.5535	0.075	181107	keystroke_o	o	n/a
90.8535	0.09	181707	keystroke_'	'	n/a
91.1985	0.135	182397	keystroke_r	r	n/a
91.3635	0.135	182727	keystroke_e	e	n/a
91.6485	0.1055	183297	keystroke_Key.space	Key.space	n/a
91.949	0.075	183898	keystroke_b	b	n/a
92.144	0.075	184288	keystroke_o	o	n/a
92.279	0.105	184558	keystroke_t	t	n/a
92.369	0.09	184738	keystroke_h	h	n/a
92.594	0.075	185188	keystroke_Key.enter	Key.enter	n/a
92.6735	9.33	185347	prompt	n/a	embassy simpsons tigers includes\n
93.599	0.09	187198	keystroke_e	e	n/a
93.719	0.105	187438	keystroke_m	m	n/a
94.859	0.105	189718	keystroke_b	b	n/a
95.174	0.165	190348	keystroke_a	a	n/a
95.323	0.121	190646	keystroke_s	s	n/a
95.534	0.075	191068	keystroke_s	s	n/a
95.699	0.075	191398	keystroke_y	y	n/a
95.8485	0.12	191697	keystroke_Key.space	Key.space	n/a
96.1485	0.045	192297	keystroke_e	e	n/a
96.4935	0.075	192987	keystroke_Key.backspace	Key.backspace	n/a
96.5985	0.09	193197	keystroke_s	s	n/a
96.7185	0.09	193437	keystroke_i	i	n/a
96.9735	0.06	193947	keystroke_m	m	n/a
97.2735	0.09	194547	keystroke_p	p	n/a
97.7235	0.075	195447	keystroke_s	s	n/a
97.8735	0.09	195747	keystroke_o	o	n/a
98.0985	0.09	196197	keystroke_n	n	n/a
98.2485	0.075	196497	keystroke_s	s	n/a
98.4135	0.0445	196827	keystroke_Key.space	Key.space	n/a
98.7135	0.06	197427	keystroke_t	t	n/a
98.8635	0.045	197727	keystroke_i	i	n/a
99.5685	0.015	199137	keystroke_g	g	n/a
100.019	0.165	200038	keystroke_e	e	n/a
100.169	0.12	200338	keystroke_r	r	n/a
100.364	0.105	200728	keystroke_s	s	n/a
100.514	0.105	201028	keystroke_Key.space	Key.space	n/a
100.724	0.15	201448	keystroke_i	i	n/a
100.859	0.075	201718	keystroke_n	n	n/a
100.979	0.09	201958	keystroke_c	c	n/a
101.174	0.135	202348	keystroke_l	l	n/a
101.279	0.105	202558	keystroke_u	u	n/a
101.399	0.09	202798	keystroke_d	d	n/a
101.594	0.075	203188	keystroke_e	e	n/a
101.744	0.09	203488	keystroke_s	s	n/a
101.908	0.09	203816	keystroke_Key.enter	Key.enter	n/a
102.0035	7.212	204007	prompt	n/a	peterson lottery proceeds agents\n
102.584	0.0745	205168	keystroke_p	p	n/a
102.8985	0.09	205797	keystroke_e	e	n/a
103.0035	0.1205	206007	keystroke_t	t	n/a
103.139	0.12	206278	keystroke_e	e	n/a
103.244	0.09	206488	keystroke_r	r	n/a
103.379	0.12	206758	keystroke_s	s	n/a
103.544	0.075	207088	keystroke_o	o	n/a
103.724	0.09	207448	keystroke_n	n	n/a
103.829	0.105	207658	keystroke_Key.space	Key.space	n/a
103.949	0.12	207898	keystroke_l	l	n/a
104.039	0.09	208078	keystroke_i	i	n/a
104.114	0.06	208228	keystroke_t	t	n/a
104.249	0.09	208498	keystroke_t	t	n/a
104.609	0.075	209218	keystroke_Key.backspace	Key.backspace	n/a
104.729	0.06	209458	keystroke_Key.backspace	Key.backspace	n/a
104.849	0.045	209698	keystroke_Key.backspace	Key.backspace	n/a
105.059	0.06	210118	keystroke_o	o	n/a
105.134	0.06	210268	keystroke_t	t	n/a
105.269	0.075	210538	keystroke_t	t	n/a
105.659	0.15	211318	keystroke_e	e	n/a
105.778	0.106	211556	keystroke_r	r	n/a
105.929	0.09	211858	keystroke_y	y	n/a
106.093	0.12	212186	keystroke_Key.space	Key.space	n/a
106.319	0.074	212638	keystroke_p	p	n/a
106.408	0.1055	212816	keystroke_r	r	n/a
106.5435	0.075	213087	keystroke_o	o	n/a
106.6335	0.12	213267	keystroke_c	c	n/a
106.8585	0.06	213717	keystroke_e	e	n/a
107.0235	0.06	214047	keystroke_e	e	n/a
107.3985	0.06	214797	keystroke_d	d	n/a
107.4735	0.09	214947	keystroke_s	s	n/a
107.6685	0.105	215337	keystroke_Key.space	Key.space	n/a
108.0435	0.075	216087	keystroke_a	a	n/a
108.2535	0.09	216507	keystroke_g	g	n/a
108.4185	0.09	216837	keystroke_e	e	n/a
108.6285	0.075	217257	keystroke_n	n	n/a
108.8385	0.075	217677	keystroke_t	t	n/a
109.0035	0.075	218007	keystroke_s	s	n/a
109.1385	0.075	218277	keystroke_Key.enter	Key.enter	n/a
109.2185	10.752	218437	prompt	n/a	radiation villages mirror suddenly\n
109.964	0.105	219928	keystroke_r	r	n/a
110.203	0.09	220406	keystroke_e	e	n/a
110.353	0.136	220706	keystroke_a	a	n/a
111.148	0.045	222296	keystroke_Key.backspace	Key.backspace	n/a
111.253	0.075	222506	keystroke_Key.backspace	Key.backspace	n/a
111.359	0.12	222718	keystroke_a	a	n/a
111.494	0.09	222988	keystroke_d	d	n/a
112.3335	0.09	224667	keystroke_i	i	n/a
113.2335	0.105	226467	keystroke_a	a	n/a
113.4585	0.09	226917	keystroke_t	t	n/a
113.6085	0.12	227217	keystroke_i	i	n/a
113.6985	0.075	227397	keystroke_o	o	n/a
113.879	0.12	227758	keystroke_n	n	n/a
114.014	0.12	228028	keystroke_Key.space	Key.space	n/a
114.6135	0.12	229227	keystroke_v	v	n/a
114.8385	0.06	229677	keystroke_i	i	n/a
115.0185	0.06	230037	keystroke_l	l	n/a
115.1685	0.075	230337	keystroke_l	l	n/a
115.6335	0.09	231267	keystroke_a	a	n/a
115.874	0.134	231748	keystroke_g	g	n/a
116.023	0.105	232046	keystroke_e	e	n/a
116.248	0.075	232496	keystroke_s	s	n/a
116.383	0.105	232766	keystroke_Key.space	Key.space	n/a
116.609	0.089	233218	keystroke_m	m	n/a
116.758	0.09	233516	keystroke_i	i	n/a
116.894	0.06	233788	keystroke_r	r	n/a
117.013	0.09	234026	keystroke_r	r	n/a
117.133	0.06	234266	keystroke_o	o	n/a
117.253	0.091	234506	keystroke_r	r	n/a
117.389	0.09	234778	keystroke_Key.space	Key.space	n/a
117.689	0.105	235378	keystroke_a	a	n/a
118.004	0.045	236008	keystroke_Key.backspace	Key.backspace	n/a
118.124	0.09	236248	keystroke_s	s	n/a
118.244	0.09	236488	keystroke_u	u	n/a
118.484	0.06	236968	keystroke_d	d	n/a
118.709	0.105	237418	keystroke_d	d	n/a
118.934	0.09	237868	keystroke_e	e	n/a
119.069	0.105	238138	keystroke_n	n	n/a
119.354	0.12	238708	keystroke_l	l	n/a
119.669	0.09	239338	keystroke_y	y	n/a
119.8935	0.075	239787	keystroke_Key.enter	Key.enter	n/a
119.973	8.2025	239946	prompt	n/a	you'd fuel holes produces\n
120.824	0.09	241648	keystroke_y	y	n/a
120.974	0.105	241948	keystroke_o	o	n/a
121.049	0.09	242098	keystroke_u	u	n/a
121.274	0.075	242548	keystroke_'	'	n/a
121.544	0.105	243088	keystroke_d	d	n/a
121.739	0.09	243478	keystroke_Key.space	Key.space	n/a
122.549	0.105	245098	keystroke_f	f	n/a
122.654	0.075	245308	keystroke_u	u	n/a
122.849	0.09	245698	keystroke_l	l	n/a
122.924	0.075	245848	keystroke_e	e	n/a
123.1485	0.105	246297	keystroke_Key.space	Key.space	n/a
123.4035	0.045	246807	keystroke_h	h	n/a
123.5535	0.075	247107	keystroke_o	o	n/a
124.034	0.045	248068	keystroke_Key.backspace	Key.backspace	n/a
124.139	0.06	248278	keystroke_Key.backspace	Key.backspace	n/a
124.274	0.06	248548	keystroke_Key.backspace	Key.backspace	n/a
124.439	0.06	248878	keystroke_Key.backspace	Key.backspace	n/a
124.679	0.09	249358	keystroke_Key.backspace	Key.backspace	n/a
125.309	0.075	250618	keystroke_e	e	n/a
125.399	0.104	250798	keystroke_l	l	n/a
125.6385	0.0895	251277	keystroke_Key.space	Key.space	n/a
125.8645	0.074	251729	keystroke_h	h	n/a
126.0285	0.06	252057	keystroke_o	o	n/a
126.208	0.075	252416	keystroke_l	l	n/a
126.3295	0.1035	252659	keystroke_e	e	n/a
126.449	0.104	252898	keystroke_s	s	n/a
126.568	0.09	253136	keystroke_Key.space	Key.space	n/a
126.718	0.09	253436	keystroke_p	p	n/a
126.838	0.106	253676	keystroke_r	r	n/a
126.958	0.106	253916	keystroke_o	o	n/a
127.304	0.105	254608	keystroke_d	d	n/a
127.424	0.09	254848	keystroke_u	u	n/a
127.544	0.105	255088	keystroke_c	c	n/a
127.784	0.074	255568	keystroke_e	e	n/a
127.9345	0.104	255869	keystroke_s	s	n/a
128.0985	0.075	256197	keystroke_Key.enter	Key.enter	n/a
128.1785	5.412	256357	prompt	n/a	rack guidance built karen\n
128.9685	0.12	257937	keystroke_r	r	n/a
129.0735	0.135	258147	keystroke_a	a	n/a
129.2535	0.105	258507	keystroke_c	c	n/a
129.4035	0.135	258807	keystroke_k	k	n/a
129.5235	0.105	259047	keystroke_Key.space	Key.space	n/a
129.7335	0.135	259467	keystroke_g	g	n/a
129.9585	0.09	259917	keystroke_u	u	n/a
130.214	0.075	260428	keystroke_i	i	n/a
130.409	0.135	260818	keystroke_d	d	n/a
130.559	0.105	261118	keystroke_a	a	n/a
130.709	0.075	261418	keystroke_n	n	n/a
130.874	0.135	261748	keystroke_c	c	n/a
130.994	0.09	261988	keystroke_e	e	n/a
131.099	0.09	262198	keystroke_Key.space	Key.space	n/a
131.489	0.06	262978	keystroke_b	b	n/a
131.639	0.105	263278	keystroke_u	u	n/a
131.849	0.06	263698	keystroke_i	i	n/a
132.029	0.06	264058	keystroke_l	l	n/a
132.194	0.075	264388	keystroke_t	t	n/a
132.284	0.075	264568	keystroke_Key.space	Key.space	n/a
132.5835	0.075	265167	keystroke_k	k	n/a
132.6745	0.15	265349	keystroke_a	a	n/a
132.8535	0.091	265707	keystroke_r	r	n/a
133.0945	0.12	266189	keystroke_e	e	n/a
133.2745	0.089	266549	keystroke_n	n	n/a
133.4985	0.09	266997	keystroke_Key.enter	Key.enter	n/a
133.5935	6.147	267187	prompt	n/a	bring desktops blocked style\n
134.2635	0.105	268527	keystroke_b	b	n/a
134.4285	0.105	268857	keystroke_r	r	n/a
134.5185	0.12	269037	keystroke_i	i	n/a
134.6535	0.12	269307	keystroke_n	n	n/a
134.8035	0.12	269607	keystroke_g	g	n/a
134.9835	0.09	269967	keystroke_Key.space	Key.space	n/a
135.4935	0.09	270987	keystroke_d	d	n/a
135.6885	0.075	271377	keystroke_e	e	n/a
135.8235	0.15	271647	keystroke_s	s	n/a
136.0035	0.105	272007	keystroke_k	k	n/a
136.2135	0.09	272427	keystroke_t	t	n/a
136.3785	0.15	272757	keystroke_o	o	n/a
136.4985	0.09	272997	keystroke_p	p	n/a
136.7385	0.09	273477	keystroke_s	s	n/a
136.8885	0.12	273777	keystroke_Key.space	Key.space	n/a
137.2485	0.09	274497	keystroke_b	b	n/a
137.714	0.09	275428	keystroke_l	l	n/a
137.894	0.075	275788	keystroke_o	o	n/a
137.954	0.105	275908	keystroke_c	c	n/a
138.134	0.12	276268	keystroke_k	k	n/a
138.314	0.06	276628	keystroke_e	e	n/a
138.494	0.09	276988	keystroke_d	d	n/a
138.644	0.09	277288	keystroke_Key.space	Key.space	n/a
138.809	0.105	277618	keystroke_s	s	n/a
139.019	0.09	278038	keystroke_t	t	n/a
139.184	0.105	278368	keystroke_y	y	n/a
139.409	0.0745	278818	keystroke_l	l	n/a
139.5285	0.075	279057	keystroke_e	e	n/a
139.6485	0.09	279297	keystroke_Key.enter	Key.enter	n/a
139.744	12.8665	279488	prompt	n/a	territory anthropology branches excerpt\n
140.369	0.09	280738	keystroke_t	t	n/a
140.564	0.135	281128	keystroke_e	e	n/a
140.699	0.075	281398	keystroke_r	r	n/a
140.849	0.09	281698	keystroke_i	i	n/a
141.029	0.15	282058	keystroke_r	r	n/a
141.449	0.075	282898	keystroke_Key.backspace	Key.backspace	n/a
141.824	0.075	283648	keystroke_Key.backspace	Key.backspace	n/a
142.049	0.12	284098	keystroke_r	r	n/a
142.199	0.09	284398	keystroke_i	i	n/a
142.349	0.12	284698	keystroke_t	t	n/a
142.814	0.105	285628	keystroke_o	o	n/a
142.979	0.105	285958	keystroke_r	r	n/a
143.339	0.075	286678	keystroke_y	y	n/a
143.999	0.12	287998	keystroke_Key.space	Key.space	n/a
144.299	0.105	288598	keystroke_a	a	n/a
144.584	0.105	289168	keystroke_n	n	n/a
144.929	0.165	289858	keystroke_t	t	n/a
145.184	0.105	290368	keystroke_h	h	n/a
145.454	0.12	290908	keystroke_r	r	n/a
146.129	0.09	292258	keystroke_o	o	n/a
146.369	0.075	292738	keystroke_p	p	n/a
146.639	0.09	293278	keystroke_o	o	n/a
146.864	0.075	293728	keystroke_l	l	n/a
147.044	0.09	294088	keystroke_o	o	n/a
147.284	0.09	294568	keystroke_g	g	n/a
147.434	0.0895	294868	keystroke_y	y	n/a
147.673	0.105	295346	keystroke_Key.space	Key.space	n/a
148.229	0.12	296458	keystroke_b	b	n/a
148.409	0.135	296818	keystroke_r	r	n/a
148.559	0.135	297118	keystroke_a	a	n/a
148.724	0.075	297448	keystroke_n	n	n/a
148.829	0.12	297658	keystroke_c	c	n/a
149.084	0.075	298168	keystroke_h	h	n/a
149.204	0.09	298408	keystroke_e	e	n/a
149.339	0.135	298678	keystroke_s	s	n/a
149.699	0.089	299398	keystroke_Key.space	Key.space	n/a
150.359	0.09	300718	keystroke_e	e	n/a
150.5685	0.105	301137	keystroke_x	x	n/a
150.794	0.12	301588	keystroke_c	c	n/a
150.944	0.135	301888	keystroke_e	e	n/a
151.199	0.09	302398	keystroke_r	r	n/a
151.424	0.03	302848	keystroke_t	t	n/a
151.889	0.09	303778	keystroke_Key.backspace	Key.backspace	n/a
152.159	0.09	304318	keystroke_p	p	n/a
152.294	0.09	304588	keystroke_t	t	n/a
152.519	0.09	305038	keystroke_Key.enter	Key.enter	n/a
152.615	10.7355	305230	prompt	n/a	techrepublic outlet introduce noticed\n
153.3895	0.12	306779	keystroke_t	t	n/a
153.6445	0.15	307289	keystroke_e	e	n/a
154.0335	0.09	308067	keystroke_c	c	n/a
154.1545	0.105	308309	keystroke_h	h	n/a
154.3645	0.075	308729	keystroke_r	r	n/a
154.8885	0.09	309777	keystroke_e	e	n/a
155.3535	0.09	310707	keystroke_p	p	n/a
155.564	0.075	311128	keystroke_u	u	n/a
155.804	0.09	311608	keystroke_b	b	n/a
156.044	0.165	312088	keystroke_l	l	n/a
156.164	0.105	312328	keystroke_i	i	n/a
156.314	0.09	312628	keystroke_c	c	n/a
156.644	0.12	313288	keystroke_Key.space	Key.space	n/a
157.0635	0.1355	314127	keystroke_o	o	n/a
157.1685	0.1055	314337	keystroke_u	u	n/a
157.319	0.06	314638	keystroke_t	t	n/a
157.634	0.12	315268	keystroke_l	l	n/a
157.964	0.165	315928	keystroke_e	e	n/a
158.114	0.12	316228	keystroke_t	t	n/a
158.279	0.09	316558	keystroke_Key.space	Key.space	n/a
158.519	0.1345	317038	keystroke_i	i	n/a
158.6685	0.06	317337	keystroke_n	n	n/a
158.7435	0.06	317487	keystroke_t	t	n/a
158.9085	0.06	317817	keystroke_r	r	n/a
158.9835	0.12	317967	keystroke_o	o	n/a
159.2985	0.105	318597	keystroke_d	d	n/a
159.4335	0.105	318867	keystroke_u	u	n/a
159.5835	0.105	319167	keystroke_c	c	n/a
159.8235	0.09	319647	keystroke_e	e	n/a
160.0485	0.075	320097	keystroke_s	s	n/a
160.769	0.0895	321538	keystroke_Key.backspace	Key.backspace	n/a
160.9335	0.12	321867	keystroke_Key.space	Key.space	n/a
161.5935	0.075	323187	keystroke_o	o	n/a
161.984	0.0445	323968	keystroke_Key.backspace	Key.backspace	n/a
162.2235	0.0905	324447	keystroke_n	n	n/a
162.389	0.0745	324778	keystroke_o	o	n/a
162.4785	0.09	324957	keystroke_t	t	n/a
162.5985	0.0905	325197	keystroke_i	i	n/a
162.734	0.09	325468	keystroke_c	c	n/a
162.869	0.075	325738	keystroke_e	e	n/a
163.0495	0.0895	326099	keystroke_d	d	n/a
163.229	0.12	326458	keystroke_Key.enter	Key.enter	n/a
163.353	5.6975	326706	prompt	n/a	shoe attacks banners paso\n
163.8745	0.134	327749	keystroke_s	s	n/a
163.9935	0.06	327987	keystroke_h	h	n/a
164.144	0.06	328288	keystroke_o	o	n/a
164.264	0.075	328528	keystroke_w	w	n/a
164.729	0.045	329458	keystroke_Key.backspace	Key.backspace	n/a
164.819	0.09	329638	keystroke_e	e	n/a
164.939	0.105	329878	keystroke_Key.space	Key.space	n/a
165.1935	0.135	330387	keystroke_a	a	n/a
165.4045	0.06	330809	keystroke_t	t	n/a
165.539	0.105	331078	keystroke_t	t	n/a
165.674	0.12	331348	keystroke_a	a	n/a
165.884	0.075	331768	keystroke_c	c	n/a
166.049	0.075	332098	keystroke_k	k	n/a
166.184	0.075	332368	keystroke_s	s	n/a
166.319	0.09	332638	keystroke_Key.space	Key.space	n/a
166.664	0.09	333328	keystroke_b	b	n/a
166.769	0.105	333538	keystroke_a	a	n/a
166.904	0.06	333808	keystroke_n	n	n/a
167.024	0.075	334048	keystroke_n	n	n/a
167.114	0.15	334228	keystroke_e	e	n/a
167.249	0.105	334498	keystroke_r	r	n/a
167.399	0.105	334798	keystroke_s	s	n/a
167.579	0.09	335158	keystroke_Key.space	Key.space	n/a
167.939	0.135	335878	keystroke_a	a	n/a
168.269	0.045	336538	keystroke_Key.backspace	Key.backspace	n/a
168.464	0.09	336928	keystroke_p	p	n/a
168.539	0.135	337078	keystroke_a	a	n/a
168.644	0.105	337288	keystroke_s	s	n/a
168.779	0.09	337558	keystroke_o	o	n/a
168.974	0.075	337948	keystroke_Key.enter	Key.enter	n/a
169.0535	5.187	338107	prompt	n/a	lucy sony movies thanks\n
169.6935	0.12	339387	keystroke_l	l	n/a
169.9035	0.03	339807	keystroke_u	u	n/a
170.0235	0.045	340047	keystroke_c	c	n/a
170.6085	0.06	341217	keystroke_y	y	n/a
171.3735	0.09	342747	keystroke_Key.space	Key.space	n/a
171.5685	0.09	343137	keystroke_s	s	n/a
171.6285	0.09	343257	keystroke_o	o	n/a
171.8535	0.075	343707	keystroke_n	n	n/a
172.0485	0.0755	344097	keystroke_y	y	n/a
172.1835	0.105	344367	keystroke_Key.space	Key.space	n/a
172.3645	0.1045	344729	keystroke_m	m	n/a
172.499	0.09	344998	keystroke_o	o	n/a
172.664	0.075	345328	keystroke_v	v	n/a
172.754	0.09	345508	keystroke_i	i	n/a
172.874	0.105	345748	keystroke_e	e	n/a
173.084	0.105	346168	keystroke_s	s	n/a
173.204	0.105	346408	keystroke_Key.space	Key.space	n/a
173.384	0.09	346768	keystroke_t	t	n/a
173.564	0.075	347128	keystroke_h	h	n/a
173.624	0.105	347248	keystroke_a	a	n/a
173.759	0.09	347518	keystroke_n	n	n/a
173.8945	0.09	347789	keystroke_k	k	n/a
174.0295	0.09	348059	keystroke_s	s	n/a
174.1345	0.105	348269	keystroke_Key.enter	Key.enter	n/a
174.2435	6.912	348487	prompt	n/a	choices insertion vanilla chip\n
174.8245	0.0895	349649	keystroke_c	c	n/a
174.974	0.09	349948	keystroke_h	h	n/a
175.139	0.12	350278	keystroke_o	o	n/a
175.244	0.105	350488	keystroke_i	i	n/a
175.379	0.105	350758	keystroke_c	c	n/a
175.469	0.12	350938	keystroke_e	e	n/a
175.7085	0.09	351417	keystroke_s	s	n/a
175.8435	0.121	351687	keystroke_Key.space	Key.space	n/a
176.3545	0.09	352709	keystroke_i	i	n/a
176.5045	0.105	353009	keystroke_n	n	n/a
176.6245	0.135	353249	keystroke_s	s	n/a
176.9695	0.135	353939	keystroke_e	e	n/a
177.2245	0.09	354449	keystroke_r	r	n/a
177.4345	0.105	354869	keystroke_t	t	n/a
177.5245	0.12	355049	keystroke_i	i	n/a
177.6145	0.06	355229	keystroke_o	o	n/a
177.7795	0.1195	355559	keystroke_n	n	n/a
177.914	0.105	355828	keystroke_Key.space	Key.space	n/a
178.034	0.12	356068	keystroke_v	v	n/a
178.244	0.09	356488	keystroke_a	a	n/a
178.379	0.03	356758	keystroke_l	l	n/a
178.679	0.06	357358	keystroke_Key.backspace	Key.backspace	n/a
178.919	0.1045	357838	keystroke_n	n	n/a
179.0385	0.075	358077	keystroke_i	i	n/a
179.3385	0.015	358677	keystroke_a	a	n/a
179.6685	0.06	359337	keystroke_Key.backspace	Key.backspace	n/a
179.8935	0.06	359787	keystroke_l	l	n/a
180.0285	0.06	360057	keystroke_l	l	n/a
180.1185	0.135	360237	keystroke_a	a	n/a
180.2685	0.075	360537	keystroke_Key.space	Key.space	n/a
180.4045	0.105	360809	keystroke_c	c	n/a
180.5395	0.075	361079	keystroke_h	h	n/a
180.7345	0.09	361469	keystroke_i	i	n/a
180.8545	0.06	361709	keystroke_p	p	n/a
181.0795	0.075	362159	keystroke_Key.enter	Key.enter	n/a
181.159	9.2365	362318	prompt	n/a	chancellor media decide demographic\n
181.964	0.105	363928	keystroke_c	c	n/a
182.084	0.06	364168	keystroke_h	h	n/a
182.219	0.12	364438	keystroke_a	a	n/a
182.384	0.105	364768	keystroke_n	n	n/a
182.639	0.09	365278	keystroke_c	c	n/a
182.909	0.075	365818	keystroke_e	e	n/a
183.224	0.09	366448	keystroke_l	l	n/a
183.644	0.06	367288	keystroke_l	l	n/a
183.824	0.06	367648	keystroke_o	o	n/a
183.929	0.105	367858	keystroke_r	r	n/a
184.049	0.09	368098	keystroke_Key.space	Key.space	n/a
184.334	0.09	368668	keystroke_e	e	n/a
184.664	0.06	369328	keystroke_Key.backspace	Key.backspace	n/a
184.874	0.075	369748	keystroke_m	m	n/a
185.009	0.075	370018	keystroke_e	e	n/a
185.219	0.105	370438	keystroke_d	d	n/a
185.459	0.0905	370918	keystroke_i	i	n/a
185.6245	0.15	371249	keystroke_a	a	n/a
185.7585	0.106	371517	keystroke_Key.space	Key.space	n/a
186.0735	0.076	372147	keystroke_d	d	n/a
186.2235	0.09	372447	keystroke_e	e	n/a
186.4185	0.121	372837	keystroke_c	c	n/a
187.199	0.075	374398	keystroke_i	i	n/a
187.394	0.165	374788	keystroke_d	d	n/a
187.514	0.15	375028	keystroke_e	e	n/a
187.814	0.09	375628	keystroke_Key.space	Key.space	n/a
188.189	0.09	376378	keystroke_d	d	n/a
188.369	0.09	376738	keystroke_e	e	n/a
188.429	0.09	376858	keystroke_m	m	n/a
188.594	0.075	377188	keystroke_o	o	n/a
188.969	0.075	377938	keystroke_g	g	n/a
189.224	0.135	378448	keystroke_r	r	n/a
189.374	0.15	378748	keystroke_a	a	n/a
189.494	0.105	378988	keystroke_p	p	n/a
189.749	0.09	379498	keystroke_h	h	n/a
190.004	0.105	380008	keystroke_i	i	n/a
190.124	0.09	380248	keystroke_c	c	n/a
190.304	0.09	380608	keystroke_Key.enter	Key.enter	n/a
190.3985	10.182	380797	prompt	n/a	mechanism confidentiality kids broken\n
191.024	0.075	382048	keystroke_m	m	n/a
191.129	0.09	382258	keystroke_e	e	n/a
191.324	0.105	382648	keystroke_c	c	n/a
191.414	0.09	382828	keystroke_h	h	n/a
191.639	0.135	383278	keystroke_n	n	n/a
192.2245	0.075	384449	keystroke_Key.backspace	Key.backspace	n/a
192.5095	0.105	385019	keystroke_a	a	n/a
192.749	0.075	385498	keystroke_n	n	n/a
193.004	0.09	386008	keystroke_i	i	n/a
193.379	0.135	386758	keystroke_s	s	n/a
193.649	0.12	387298	keystroke_m	m	n/a
193.889	0.09	387778	keystroke_Key.space	Key.space	n/a
194.6085	0.105	389217	keystroke_c	c	n/a
194.6695	0.074	389339	keystroke_o	o	n/a
194.8635	0.076	389727	keystroke_n	n	n/a
196.0795	0.075	392159	keystroke_f	f	n/a
196.2895	0.075	392579	keystroke_i	i	n/a
196.3945	0.09	392789	keystroke_d	d	n/a
196.5745	0.09	393149	keystroke_e	e	n/a
196.6795	0.0745	393359	keystroke_n	n	n/a
196.859	0.105	393718	keystroke_t	t	n/a
197.444	0.09	394888	keystroke_i	i	n/a
197.6245	0.12	395249	keystroke_a	a	n/a
197.7595	0.1495	395519	keystroke_l	l	n/a
197.894	0.12	395788	keystroke_i	i	n/a
198.059	0.06	396118	keystroke_t	t	n/a
198.209	0.09	396418	keystroke_y	y	n/a
198.389	0.105	396778	keystroke_Key.space	Key.space	n/a
199.079	0.075	398158	keystroke_k	k	n/a
199.259	0.09	398518	keystroke_i	i	n/a
199.364	0.12	398728	keystroke_d	d	n/a
199.454	0.09	398908	keystroke_s	s	n/a
199.529	0.09	399058	keystroke_Key.space	Key.space	n/a
199.709	0.105	399418	keystroke_b	b	n/a
199.829	0.1195	399658	keystroke_r	r	n/a
199.9345	0.134	399869	keystroke_o	o	n/a
200.0385	0.12	400077	keystroke_k	k	n/a
200.1735	0.12	400347	keystroke_e	e	n/a
200.2945	0.089	400589	keystroke_n	n	n/a
200.4735	0.105	400947	keystroke_Key.enter	Key.enter	n/a
200.5835	9.567	401167	prompt	n/a	literacy simplified change changed\n
201.3435	0.1355	402687	keystroke_l	l	n/a
201.4335	0.1055	402867	keystroke_i	i	n/a
201.6285	0.06	403257	keystroke_t	t	n/a
201.7035	0.1355	403407	keystroke_e	e	n/a
201.8235	0.121	403647	keystroke_r	r	n/a
201.9595	0.15	403919	keystroke_a	a	n/a
202.319	0.105	404638	keystroke_c	c	n/a
202.469	0.09	404938	keystroke_y	y	n/a
202.619	0.1355	405238	keystroke_Key.space	Key.space	n/a
202.8295	0.1045	405659	keystroke_s	s	n/a
202.994	0.12	405988	keystroke_Key.down	Key.down	n/a
203.099	0.105	406198	keystroke_i	i	n/a
203.309	0.105	406618	keystroke_m	m	n/a
203.969	0.18	407938	keystroke_p	p	n/a
204.089	0.135	408178	keystroke_l	l	n/a
205.424	0.09	410848	keystroke_i	i	n/a
205.574	0.12	411148	keystroke_f	f	n/a
205.829	0.075	411658	keystroke_i	i	n/a
205.919	0.105	411838	keystroke_e	e	n/a
206.099	0.135	412198	keystroke_d	d	n/a
206.219	0.12	412438	keystroke_Key.space	Key.space	n/a
206.474	0.12	412948	keystroke_c	c	n/a
206.579	0.09	413158	keystroke_h	h	n/a
206.684	0.165	413368	keystroke_a	a	n/a
206.819	0.105	413638	keystroke_n	n	n/a
206.999	0.09	413998	keystroke_g	g	n/a
207.044	0.12	414088	keystroke_e	e	n/a
207.179	0.09	414358	keystroke_Key.space	Key.space	n/a
207.509	0.105	415018	keystroke_c	c	n/a
207.7495	0.09	415499	keystroke_h	h	n/a
207.8395	0.1495	415679	keystroke_a	a	n/a
209.399	0.06	418798	keystroke_n	n	n/a
209.474	0.09	418948	keystroke_g	g	n/a
209.579	0.105	419158	keystroke_e	e	n/a
209.789	0.105	419578	keystroke_d	d	n/a
210.059	0.09	420118	keystroke_Key.enter	Key.enter	n/a
210.154	7.422	420308	prompt	n/a	activities dress warm permalink\n
210.779	0.105	421558	keystroke_a	a	n/a
210.974	0.09	421948	keystroke_c	c	n/a
211.184	0.06	422368	keystroke_t	t	n/a
211.349	0.15	422698	keystroke_i	i	n/a
211.769	0.1055	423538	keystroke_v	v	n/a
211.9195	0.12	423839	keystroke_i	i	n/a
212.2795	0.12	424559	keystroke_t	t	n/a
212.5345	0.12	425069	keystroke_i	i	n/a
212.6395	0.12	425279	keystroke_e	e	n/a
212.7745	0.105	425549	keystroke_s	s	n/a
212.9245	0.105	425849	keystroke_Key.space	Key.space	n/a
213.3595	0.09	426719	keystroke_d	d	n/a
213.5545	0.075	427109	keystroke_r	r	n/a
213.7345	0.06	427469	keystroke_e	e	n/a
213.9745	0.09	427949	keystroke_s	s	n/a
214.1545	0.09	428309	keystroke_s	s	n/a
214.2895	0.105	428579	keystroke_Key.space	Key.space	n/a
214.5745	0.09	429149	keystroke_w	w	n/a
214.6645	0.195	429329	keystroke_a	a	n/a
214.8745	0.135	429749	keystroke_r	r	n/a
215.1595	0.105	430319	keystroke_m	m	n/a
215.3545	0.105	430709	keystroke_Key.space	Key.space	n/a
215.9095	0.09	431819	keystroke_p	p	n/a
216.0595	0.15	432119	keystroke_e	e	n/a
216.1945	0.09	432389	keystroke_r	r	n/a
216.3445	0.105	432689	keystroke_m	m	n/a
216.4645	0.135	432929	keystroke_a	a	n/a
216.7495	0.18	433499	keystroke_l	l	n/a
216.8695	0.12	433739	keystroke_i	i	n/a
217.1695	0.105	434339	keystroke_n	n	n/a
217.3045	0.075	434609	keystroke_k	k	n/a
217.4995	0.075	434999	keystroke_Key.enter	Key.enter	n/a
217.579	5.352	435158	prompt	n/a	ebook rico wordpress gotten\n
218.2495	0.105	436499	keystroke_e	e	n/a
218.3845	0.09	436769	keystroke_b	b	n/a
218.6095	0.045	437219	keystroke_o	o	n/a
218.7445	0.12	437489	keystroke_o	o	n/a
218.8495	0.135	437699	keystroke_k	k	n/a
219.0295	0.09	438059	keystroke_Key.space	Key.space	n/a
219.2545	0.09	438509	keystroke_r	r	n/a
219.3595	0.105	438719	keystroke_i	i	n/a
219.4795	0.105	438959	keystroke_c	c	n/a
219.6745	0.09	439349	keystroke_o	o	n/a
219.8095	0.1045	439619	keystroke_Key.space	Key.space	n/a
220.184	0.12	440368	keystroke_w	w	n/a
220.319	0.0605	440638	keystroke_o	o	n/a
220.4095	0.105	440819	keystroke_r	r	n/a
220.6345	0.09	441269	keystroke_d	d	n/a
220.7695	0.075	441539	keystroke_p	p	n/a
220.8895	0.135	441779	keystroke_r	r	n/a
221.1145	0.09	442229	keystroke_e	e	n/a
221.3845	0.075	442769	keystroke_s	s	n/a
221.5195	0.105	443039	keystroke_s	s	n/a
221.6095	0.105	443219	keystroke_Key.space	Key.space	n/a
221.9695	0.105	443939	keystroke_g	g	n/a
222.1045	0.09	444209	keystroke_o	o	n/a
222.2545	0.075	444509	keystroke_t	t	n/a
222.3745	0.12	444749	keystroke_t	t	n/a
222.5095	0.1195	445019	keystroke_e	e	n/a
222.659	0.09	445318	keystroke_n	n	n/a
222.839	0.09	445678	keystroke_Key.enter	Key.enter	n/a
222.935	7.016	445870	prompt	n/a	wallace housewares erotica criminal\n
223.844	0.1355	447688	keystroke_w	w	n/a
223.964	0.12	447928	keystroke_a	a	n/a
224.099	0.06	448198	keystroke_l	l	n/a
224.219	0.09	448438	keystroke_l	l	n/a
224.339	0.135	448678	keystroke_a	a	n/a
224.579	0.12	449158	keystroke_c	c	n/a
224.669	0.105	449338	keystroke_e	e	n/a
224.789	0.12	449578	keystroke_Key.space	Key.space	n/a
225.029	0.09	450058	keystroke_h	h	n/a
225.179	0.105	450358	keystroke_o	o	n/a
225.269	0.0755	450538	keystroke_u	u	n/a
225.3595	0.12	450719	keystroke_s	s	n/a
225.4645	0.105	450929	keystroke_e	e	n/a
225.5995	0.135	451199	keystroke_w	w	n/a
225.7045	0.15	451409	keystroke_a	a	n/a
225.8685	0.136	451737	keystroke_r	r	n/a
225.9895	0.105	451979	keystroke_e	e	n/a
226.0635	0.12	452127	keystroke_Key.space	Key.space	n/a
226.3935	0.105	452787	keystroke_r	r	n/a
226.4835	0.106	452967	keystroke_e	e	n/a
226.8285	0.0755	453657	keystroke_Key.backspace	Key.backspace	n/a
226.9635	0.075	453927	keystroke_Key.backspace	Key.backspace	n/a
227.0695	0.1195	454139	keystroke_e	e	n/a
227.159	0.136	454318	keystroke_r	r	n/a
227.564	0.105	455128	keystroke_o	o	n/a
227.699	0.09	455398	keystroke_t	t	n/a
227.834	0.09	455668	keystroke_i	i	n/a
227.984	0.0905	455968	keystroke_c	c	n/a
228.149	0.105	456298	keystroke_a	a	n/a
228.269	0.105	456538	keystroke_Key.space	Key.space	n/a
228.5995	0.0895	457199	keystroke_c	c	n/a
228.7795	0.0895	457559	keystroke_r	r	n/a
228.884	0.165	457768	keystroke_i	i	n/a
229.064	0.09	458128	keystroke_m	m	n/a
229.1995	0.0895	458399	keystroke_i	i	n/a
229.304	0.09	458608	keystroke_n	n	n/a
229.409	0.0455	458818	keystroke_i	i	n/a
229.5145	0.105	459029	keystroke_a	a	n/a
229.6795	0.09	459359	keystroke_l	l	n/a
229.8445	0.105	459689	keystroke_Key.enter	Key.enter	n/a
229.9535	10.2425	459907	prompt	n/a	enrollment dash keno arbitrary\n
231.0445	0.06	462089	keystroke_e	e	n/a
231.1195	0.105	462239	keystroke_n	n	n/a
231.7195	0.105	463439	keystroke_r	r	n/a
231.899	0.076	463798	keystroke_o	o	n/a
232.11	0.044	464220	keystroke_l	l	n/a
232.229	0.06	464458	keystroke_l	l	n/a
232.409	0.105	464818	keystroke_m	m	n/a
232.529	0.105	465058	keystroke_e	e	n/a
232.649	0.075	465298	keystroke_n	n	n/a
232.754	0.09	465508	keystroke_t	t	n/a
232.874	0.075	465748	keystroke_Key.space	Key.space	n/a
233.069	0.105	466138	keystroke_d	d	n/a
233.189	0.12	466378	keystroke_a	a	n/a
233.384	0.105	466768	keystroke_s	s	n/a
233.504	0.09	467008	keystroke_h	h	n/a
233.624	0.105	467248	keystroke_Key.space	Key.space	n/a
233.864	0.09	467728	keystroke_k	k	n/a
233.969	0.09	467938	keystroke_e	e	n/a
234.074	0.075	468148	keystroke_n	n	n/a
234.239	0.045	468478	keystroke_o	o	n/a
234.344	0.105	468688	keystroke_Key.space	Key.space	n/a
234.464	0.135	468928	keystroke_a	a	n/a
234.719	0.06	469438	keystroke_r	r	n/a
234.884	0.0905	469768	keystroke_b	b	n/a
235.0045	0.075	470009	keystroke_u	u	n/a
235.1245	0.09	470249	keystroke_t	t	n/a
235.8145	0.059	471629	keystroke_Key.backspace	Key.backspace	n/a
235.9335	0.075	471867	keystroke_Key.backspace	Key.backspace	n/a
236.2195	0.0595	472439	keystroke_i	i	n/a
236.294	0.12	472588	keystroke_t	t	n/a
236.715	0.105	473430	keystroke_r	r	n/a
236.805	0.21	473610	keystroke_a	a	n/a
237.87	0.074	475740	keystroke_Key.backspace	Key.backspace	n/a
238.004	0.06	476008	keystroke_Key.backspace	Key.backspace	n/a
238.124	0.06	476248	keystroke_Key.backspace	Key.backspace	n/a
238.23	0.134	476460	keystroke_a	a	n/a
238.335	0.105	476670	keystroke_r	r	n/a
238.919	0.061	477838	keystroke_Key.backspace	Key.backspace	n/a
239.054	0.075	478108	keystroke_Key.backspace	Key.backspace	n/a
239.234	0.105	478468	keystroke_t	t	n/a
239.429	0.211	478858	keystroke_a	a	n/a
239.61	0.164	479220	keystroke_r	r	n/a
239.834	0.091	479668	keystroke_y	y	n/a
240.119	0.075	480238	keystroke_Key.enter	Key.enter	n/a
240.201	9.715	480402	prompt	n/a	proceeding usually gasoline replacement\n
241.184	0.045	482368	keystroke_p	p	n/a
241.289	0.09	482578	keystroke_r	r	n/a
241.874	0.075	483748	keystroke_o	o	n/a
241.994	0.09	483988	keystroke_c	c	n/a
242.219	0.09	484438	keystroke_e	e	n/a
242.414	0.09	484828	keystroke_e	e	n/a
242.669	0.135	485338	keystroke_d	d	n/a
242.789	0.135	485578	keystroke_i	i	n/a
242.894	0.09	485788	keystroke_n	n	n/a
242.999	0.075	485998	keystroke_g	g	n/a
243.104	0.105	486208	keystroke_Key.space	Key.space	n/a
243.374	0.075	486748	keystroke_u	u	n/a
243.45	0.119	486900	keystroke_s	s	n/a
243.584	0.075	487168	keystroke_u	u	n/a
243.689	0.105	487378	keystroke_a	a	n/a
243.824	0.09	487648	keystroke_l	l	n/a
244.11	0.059	488220	keystroke_y	y	n/a
244.529	0.06	489058	keystroke_Key.backspace	Key.backspace	n/a
244.7995	0.075	489599	keystroke_l	l	n/a
245.0095	0.075	490019	keystroke_y	y	n/a
245.2795	0.09	490559	keystroke_Key.space	Key.space	n/a
246.195	0.075	492390	keystroke_g	g	n/a
246.315	0.105	492630	keystroke_a	a	n/a
246.63	0.12	493260	keystroke_s	s	n/a
246.825	0.075	493650	keystroke_o	o	n/a
247.3345	0.06	494669	keystroke_l	l	n/a
247.5445	0.12	495089	keystroke_i	i	n/a
247.6495	0.105	495299	keystroke_n	n	n/a
247.7845	0.075	495569	keystroke_e	e	n/a
248.01	0.0895	496020	keystroke_Key.space	Key.space	n/a
248.3995	0.12	496799	keystroke_r	r	n/a
248.5045	0.12	497009	keystroke_e	e	n/a
248.6545	0.165	497309	keystroke_p	p	n/a
248.7295	0.135	497459	keystroke_l	l	n/a
248.8795	0.135	497759	keystroke_a	a	n/a
249.0745	0.12	498149	keystroke_c	c	n/a
249.1795	0.12	498359	keystroke_e	e	n/a
249.3445	0.09	498689	keystroke_m	m	n/a
249.4495	0.12	498899	keystroke_e	e	n/a
249.5845	0.105	499169	keystroke_n	n	n/a
249.6895	0.09	499379	keystroke_t	t	n/a
249.8395	0.075	499679	keystroke_Key.enter	Key.enter	n/a
249.919	9.447	499838	prompt	n/a	conversion statutory obvious binding\n
250.6345	0.105	501269	keystroke_c	c	n/a
250.7245	0.06	501449	keystroke_o	o	n/a
250.9195	0.075	501839	keystroke_n	n	n/a
251.0095	0.06	502019	keystroke_v	v	n/a
251.1445	0.12	502289	keystroke_e	e	n/a
251.2495	0.105	502499	keystroke_r	r	n/a
251.3995	0.105	502799	keystroke_s	s	n/a
251.5195	0.12	503039	keystroke_i	i	n/a
251.6245	0.03	503249	keystroke_o	o	n/a
251.774	0.12	503548	keystroke_n	n	n/a
251.954	0.075	503908	keystroke_Key.space	Key.space	n/a
252.059	0.135	504118	keystroke_s	s	n/a
252.269	0.105	504538	keystroke_t	t	n/a
252.389	0.15	504778	keystroke_a	a	n/a
252.704	0.09	505408	keystroke_t	t	n/a
252.854	0.09	505708	keystroke_u	u	n/a
253.034	0.105	506068	keystroke_t	t	n/a
253.169	0.09	506338	keystroke_o	o	n/a
253.319	0.045	506638	keystroke_t	t	n/a
253.694	0.06	507388	keystroke_Key.backspace	Key.backspace	n/a
253.769	0.105	507538	keystroke_r	r	n/a
254.009	0.09	508018	keystroke_y	y	n/a
254.7895	0.075	509579	keystroke_Key.space	Key.space	n/a
256.185	0.074	512370	keystroke_o	o	n/a
256.425	0.075	512850	keystroke_b	b	n/a
256.8295	0.105	513659	keystroke_v	v	n/a
257.0395	0.15	514079	keystroke_i	i	n/a
257.1745	0.075	514349	keystroke_o	o	n/a
257.3695	0.09	514739	keystroke_u	u	n/a
257.5645	0.105	515129	keystroke_s	s	n/a
257.7295	0.105	515459	keystroke_Key.space	Key.space	n/a
258.1195	0.12	516239	keystroke_b	b	n/a
258.5395	0.09	517079	keystroke_i	i	n/a
258.6595	0.09	517319	keystroke_n	n	n/a
258.7645	0.105	517529	keystroke_d	d	n/a
258.8545	0.105	517709	keystroke_i	i	n/a
258.9445	0.09	517889	keystroke_n	n	n/a
259.0495	0.09	518099	keystroke_g	g	n/a
259.2595	0.105	518519	keystroke_Key.enter	Key.enter	n/a
259.369	12.072	518738	prompt	n/a	productivity facilitate activity specified\n
260.219	0.076	520438	keystroke_p	p	n/a
260.354	0.09	520708	keystroke_r	r	n/a
260.459	0.09	520918	keystroke_o	o	n/a
260.624	0.15	521248	keystroke_d	d	n/a
260.849	0.076	521698	keystroke_u	u	n/a
260.985	0.12	521970	keystroke_c	c	n/a
261.239	0.091	522478	keystroke_t	t	n/a
261.434	0.09	522868	keystroke_i	i	n/a
261.674	0.12	523348	keystroke_v	v	n/a
261.809	0.1205	523618	keystroke_i	i	n/a
262.0345	0.1195	524069	keystroke_t	t	n/a
262.289	0.075	524578	keystroke_y	y	n/a
262.529	0.105	525058	keystroke_Key.space	Key.space	n/a
263.294	0.105	526588	keystroke_f	f	n/a
263.414	0.12	526828	keystroke_a	a	n/a
263.579	0.12	527158	keystroke_c	c	n/a
263.73	0.089	527460	keystroke_i	i	n/a
263.925	0.119	527850	keystroke_l	l	n/a
264.029	0.12	528058	keystroke_i	i	n/a
264.224	0.135	528448	keystroke_a	a	n/a
264.374	0.09	528748	keystroke_t	t	n/a
264.809	0.06	529618	keystroke_Key.backspace	Key.backspace	n/a
264.9295	0.075	529859	keystroke_Key.backspace	Key.backspace	n/a
265.0795	0.15	530159	keystroke_t	t	n/a
265.9045	0.135	531809	keystroke_a	a	n/a
266.3395	0.09	532679	keystroke_t	t	n/a
266.4595	0.1345	532919	keystroke_e	e	n/a
266.654	0.09	533308	keystroke_Key.space	Key.space	n/a
267.4645	0.12	534929	keystroke_a	a	n/a
267.6295	0.105	535259	keystroke_c	c	n/a
267.8545	0.075	535709	keystroke_t	t	n/a
267.9595	0.105	535919	keystroke_i	i	n/a
268.1095	0.105	536219	keystroke_v	v	n/a
268.2445	0.12	536489	keystroke_i	i	n/a
268.4095	0.09	536819	keystroke_t	t	n/a
268.6195	0.075	537239	keystroke_y	y	n/a
268.7995	0.105	537599	keystroke_Key.space	Key.space	n/a
269.3095	0.06	538619	keystroke_s	s	n/a
269.3995	0.0895	538799	keystroke_p	p	n/a
269.549	0.1055	539098	keystroke_e	e	n/a
269.8495	0.105	539699	keystroke_c	c	n/a
270.1645	0.105	540329	keystroke_f	f	n/a
270.4045	0.12	540809	keystroke_i	i	n/a
270.6295	0.105	541259	keystroke_f	f	n/a
270.7795	0.045	541559	keystroke_i	i	n/a
270.8845	0.09	541769	keystroke_e	e	n/a
271.0645	0.105	542129	keystroke_d	d	n/a
271.3495	0.09	542699	keystroke_Key.enter	Key.enter	n/a
271.444	7.032	542888	prompt	n/a	mustang intense cached typing\n
272.399	0.09	544798	keystroke_m	m	n/a
272.609	0.09	545218	keystroke_u	u	n/a
272.684	0.105	545368	keystroke_s	s	n/a
272.834	0.045	545668	keystroke_t	t	n/a
272.909	0.135	545818	keystroke_a	a	n/a
273.029	0.09	546058	keystroke_n	n	n/a
273.134	0.09	546268	keystroke_d	d	n/a
273.57	0.06	547140	keystroke_Key.backspace	Key.backspace	n/a
273.66	0.075	547320	keystroke_g	g	n/a
273.975	0.075	547950	keystroke_Key.space	Key.space	n/a
274.395	0.1495	548790	keystroke_i	i	n/a
274.5295	0.105	549059	keystroke_n	n	n/a
274.8445	0.1205	549689	keystroke_t	t	n/a
274.98	0.135	549960	keystroke_e	e	n/a
275.13	0.135	550260	keystroke_n	n	n/a
275.355	0.195	550710	keystroke_s	s	n/a
275.5195	0.1355	551039	keystroke_e	e	n/a
275.685	0.1045	551370	keystroke_Key.space	Key.space	n/a
276.0145	0.075	552029	keystroke_c	c	n/a
276.1495	0.105	552299	keystroke_a	a	n/a
276.2995	0.105	552599	keystroke_c	c	n/a
276.4645	0.09	552929	keystroke_h	h	n/a
276.6145	0.075	553229	keystroke_e	e	n/a
276.7945	0.105	553589	keystroke_d	d	n/a
276.9145	0.105	553829	keystroke_Key.space	Key.space	n/a
277.2445	0.09	554489	keystroke_t	t	n/a
277.3645	0.09	554729	keystroke_y	y	n/a
277.5445	0.075	555089	keystroke_p	p	n/a
277.7545	0.18	555509	keystroke_i	i	n/a
277.9195	0.09	555839	keystroke_n	n	n/a
277.9795	0.12	555959	keystroke_g	g	n/a
278.4145	0.06	556829	keystroke_Key.enter	Key.enter	n/a
278.4785	9.3425	556957	prompt	n/a	pennsylvania echo framed client\n
279.089	0.0605	558178	keystroke_p	p	n/a
279.209	0.075	558418	keystroke_e	e	n/a
279.329	0.075	558658	keystroke_n	n	n/a
279.494	0.0755	558988	keystroke_n	n	n/a
279.6745	0.105	559349	keystroke_s	s	n/a
280.2145	0.135	560429	keystroke_l	l	n/a
280.6945	0.075	561389	keystroke_Key.backspace	Key.backspace	n/a
280.9345	0.09	561869	keystroke_y	y	n/a
281.294	0.09	562588	keystroke_l	l	n/a
281.82	0.0745	563640	keystroke_v	v	n/a
282.0145	0.12	564029	keystroke_a	a	n/a
282.1645	0.09	564329	keystroke_n	n	n/a
282.825	0.09	565650	keystroke_i	i	n/a
283.02	0.119	566040	keystroke_a	a	n/a
283.184	0.075	566368	keystroke_Key.space	Key.space	n/a
283.394	0.106	566788	keystroke_e	e	n/a
283.95	0.119	567900	keystroke_c	c	n/a
284.175	0.075	568350	keystroke_h	h	n/a
284.4	0.06	568800	keystroke_o	o	n/a
284.624	0.1205	569248	keystroke_Key.space	Key.space	n/a
284.9545	0.105	569909	keystroke_f	f	n/a
285.1945	0.1345	570389	keystroke_r	r	n/a
285.344	0.135	570688	keystroke_a	a	n/a
285.509	0.105	571018	keystroke_m	m	n/a
285.629	0.105	571258	keystroke_e	e	n/a
285.8095	0.1205	571619	keystroke_d	d	n/a
285.915	0.09	571830	keystroke_Key.space	Key.space	n/a
286.11	0.135	572220	keystroke_c	c	n/a
286.425	0.165	572850	keystroke_l	l	n/a
286.59	0.09	573180	keystroke_i	i	n/a
286.7245	0.12	573449	keystroke_e	e	n/a
287.4595	0.09	574919	keystroke_n	n	n/a
287.5795	0.105	575159	keystroke_t	t	n/a
287.7295	0.09	575459	keystroke_Key.enter	Key.enter	n/a
287.8245	8.5615	575649	prompt	n/a	valued nutritional simon jersey\n
288.3895	0.105	576779	keystroke_v	v	n/a
288.5995	0.105	577199	keystroke_a	a	n/a
288.7195	0.105	577439	keystroke_l	l	n/a
288.8395	0.09	577679	keystroke_u	u	n/a
289.0045	0.075	578009	keystroke_e	e	n/a
289.1695	0.105	578339	keystroke_d	d	n/a
289.2745	0.12	578549	keystroke_Key.space	Key.space	n/a
289.5895	0.06	579179	keystroke_n	n	n/a
289.7695	0.1195	579539	keystroke_u	u	n/a
289.904	0.09	579808	keystroke_t	t	n/a
290.084	0.09	580168	keystroke_r	r	n/a
290.204	0.105	580408	keystroke_i	i	n/a
290.369	0.136	580738	keystroke_t	t	n/a
290.909	0.15	581818	keystroke_i	i	n/a
291.044	0.075	582088	keystroke_o	o	n/a
291.254	0.06	582508	keystroke_n	n	n/a
291.344	0.105	582688	keystroke_a	a	n/a
291.509	0.09	583018	keystroke_l	l	n/a
291.629	0.105	583258	keystroke_Key.space	Key.space	n/a
292.095	0.105	584190	keystroke_s	s	n/a
292.2	0.15	584400	keystroke_i	i	n/a
292.38	0.104	584760	keystroke_m	m	n/a
292.635	0.12	585270	keystroke_o	o	n/a
292.919	0.076	585838	keystroke_n	n	n/a
293.144	0.075	586288	keystroke_Key.space	Key.space	n/a
293.399	0.09	586798	keystroke_k	k	n/a
293.519	0.106	587038	keystroke_e	e	n/a
293.729	0.075	587458	keystroke_r	r	n/a
293.849	0.196	587698	keystroke_s	s	n/a
294.284	0.06	588568	keystroke_Key.backspace	Key.backspace	n/a
294.404	0.075	588808	keystroke_Key.backspace	Key.backspace	n/a
294.554	0.06	589108	keystroke_Key.backspace	Key.backspace	n/a
294.704	0.075	589408	keystroke_Key.backspace	Key.backspace	n/a
295.3795	0.075	590759	keystroke_j	j	n/a
295.4695	0.18	590939	keystroke_e	e	n/a
295.6345	0.105	591269	keystroke_r	r	n/a
295.8445	0.1195	591689	keystroke_s	s	n/a
295.965	0.104	591930	keystroke_e	e	n/a
296.099	0.09	592198	keystroke_y	y	n/a
296.309	0.075	592618	keystroke_Key.enter	Key.enter	n/a
296.389	17.037	592778	prompt	n/a	journey materials vocabulary officer\n
297.0895	0.12	594179	keystroke_j	j	n/a
297.2395	0.135	594479	keystroke_o	o	n/a
297.3445	0.09	594689	keystroke_u	u	n/a
297.5245	0.1045	595049	keystroke_r	r	n/a
297.69	0.09	595380	keystroke_n	n	n/a
297.93	0.074	595860	keystroke_y	y	n/a
298.049	0.12	596098	keystroke_e	e	n/a
298.319	0.06	596638	keystroke_Key.space	Key.space	n/a
298.709	0.045	597418	keystroke_Key.backspace	Key.backspace	n/a
298.829	0.06	597658	keystroke_Key.backspace	Key.backspace	n/a
298.9795	0.0595	597959	keystroke_Key.backspace	Key.backspace	n/a
299.129	0.105	598258	keystroke_e	e	n/a
299.249	0.075	598498	keystroke_y	y	n/a
299.414	0.1055	598828	keystroke_Key.space	Key.space	n/a
299.9545	0.075	599909	keystroke_m	m	n/a
300.0595	0.12	600119	keystroke_e	e	n/a
300.2995	0.075	600599	keystroke_t	t	n/a
300.4795	0.105	600959	keystroke_e	e	n/a
300.6595	0.105	601319	keystroke_r	r	n/a
300.8995	0.105	601799	keystroke_i	i	n/a
301.0645	0.12	602129	keystroke_a	a	n/a
301.2445	0.105	602489	keystroke_l	l	n/a
301.3945	0.105	602789	keystroke_s	s	n/a
301.6345	0.09	603269	keystroke_Key.space	Key.space	n/a
302.1895	0.06	604379	keystroke_Key.backspace	Key.backspace	n/a
302.3245	0.075	604649	keystroke_Key.backspace	Key.backspace	n/a
302.4895	0.06	604979	keystroke_Key.backspace	Key.backspace	n/a
302.6695	0.105	605339	keystroke_Key.backspace	Key.backspace	n/a
302.8945	0.06	605789	keystroke_Key.backspace	Key.backspace	n/a
303.075	0.059	606150	keystroke_Key.backspace	Key.backspace	n/a
303.24	0.075	606480	keystroke_Key.backspace	Key.backspace	n/a
303.435	0.044	606870	keystroke_Key.backspace	Key.backspace	n/a
303.584	0.076	607168	keystroke_Key.backspace	Key.backspace	n/a
303.81	0.089	607620	keystroke_a	a	n/a
304.035	0.09	608070	keystroke_t	t	n/a
304.29	0.089	608580	keystroke_e	e	n/a
304.485	0.075	608970	keystroke_r	r	n/a
304.589	0.121	609178	keystroke_i	i	n/a
304.755	0.104	609510	keystroke_a	a	n/a
304.935	0.09	609870	keystroke_l	l	n/a
305.1	0.104	610200	keystroke_s	s	n/a
305.249	0.12	610498	keystroke_Key.space	Key.space	n/a
305.909	0.06	611818	keystroke_v	v	n/a
306.329	0.105	612658	keystroke_o	o	n/a
306.494	0.09	612988	keystroke_c	c	n/a
306.675	0.09	613350	keystroke_u	u	n/a
307.979	0.09	615958	keystroke_Key.backspace	Key.backspace	n/a
308.249	0.105	616498	keystroke_a	a	n/a
308.819	0.075	617638	keystroke_b	b	n/a
309.029	0.075	618058	keystroke_u	u	n/a
309.239	0.075	618478	keystroke_l	l	n/a
309.359	0.15	618718	keystroke_a	a	n/a
309.569	0.075	619138	keystroke_r	r	n/a
309.734	0.09	619468	keystroke_y	y	n/a
311.6545	0.09	623309	keystroke_Key.space	Key.space	n/a
312.3895	0.06	624779	keystroke_o	o	n/a
312.5545	0.045	625109	keystroke_f	f	n/a
312.6745	0.105	625349	keystroke_f	f	n/a
312.7945	0.075	625589	keystroke_i	i	n/a
312.9295	0.12	625859	keystroke_c	c	n/a
313.0795	0.165	626159	keystroke_e	e	n/a
313.2145	0.09	626429	keystroke_r	r	n/a
313.3345	0.09	626669	keystroke_Key.enter	Key.enter	n/a
313.4305	8.576	626861	prompt	n/a	engine occupation sending abilities\n
313.995	0.06	627990	keystroke_e	e	n/a
314.1	0.09	628200	keystroke_n	n	n/a
314.22	0.09	628440	keystroke_g	g	n/a
314.355	0.135	628710	keystroke_i	i	n/a
314.475	0.09	628950	keystroke_n	n	n/a
314.61	0.15	629220	keystroke_e	e	n/a
314.805	0.03	629610	keystroke_r	r	n/a
315.18	0.075	630360	keystroke_Key.backspace	Key.backspace	n/a
315.375	0.09	630750	keystroke_Key.space	Key.space	n/a
316.169	0.075	632338	keystroke_o	o	n/a
316.29	0.059	632580	keystroke_c	c	n/a
316.424	0.075	632848	keystroke_c	c	n/a
316.574	0.06	633148	keystroke_u	u	n/a
317.505	0.09	635010	keystroke_p	p	n/a
317.67	0.1195	635340	keystroke_a	a	n/a
317.8945	0.06	635789	keystroke_t	t	n/a
318.0295	0.135	636059	keystroke_i	i	n/a
318.1495	0.0595	636299	keystroke_o	o	n/a
318.374	0.09	636748	keystroke_n	n	n/a
318.524	0.09	637048	keystroke_Key.space	Key.space	n/a
318.9	0.09	637800	keystroke_s	s	n/a
319.065	0.075	638130	keystroke_e	e	n/a
319.215	0.09	638430	keystroke_n	n	n/a
319.35	0.105	638700	keystroke_d	d	n/a
319.47	0.15	638940	keystroke_i	i	n/a
319.605	0.12	639210	keystroke_n	n	n/a
319.74	0.1045	639480	keystroke_g	g	n/a
319.904	0.075	639808	keystroke_Key.space	Key.space	n/a
320.429	0.105	640858	keystroke_a	a	n/a
320.699	0.015	641398	keystroke_b	b	n/a
320.85	0.075	641700	keystroke_i	i	n/a
321.045	0.06	642090	keystroke_l	l	n/a
321.21	0.075	642420	keystroke_i	i	n/a
321.33	0.075	642660	keystroke_t	t	n/a
321.42	0.09	642840	keystroke_i	i	n/a
321.6	0.09	643200	keystroke_e	e	n/a
321.765	0.105	643530	keystroke_s	s	n/a
321.929	0.075	643858	keystroke_Key.enter	Key.enter	n/a
322.009	6.8075	644018	prompt	n/a	subscribers cork heel applies\n
322.529	0.06	645058	keystroke_e	e	n/a
322.949	0.06	645898	keystroke_Key.backspace	Key.backspace	n/a
323.039	0.09	646078	keystroke_s	s	n/a
323.234	0.105	646468	keystroke_u	u	n/a
323.354	0.075	646708	keystroke_b	b	n/a
323.6845	0.105	647369	keystroke_s	s	n/a
323.85	0.1045	647700	keystroke_c	c	n/a
324.0595	0.105	648119	keystroke_r	r	n/a
324.225	0.0895	648450	keystroke_i	i	n/a
324.4945	0.09	648989	keystroke_b	b	n/a
324.6445	0.15	649289	keystroke_e	e	n/a
324.7795	0.0905	649559	keystroke_r	r	n/a
324.99	0.09	649980	keystroke_s	s	n/a
325.155	0.075	650310	keystroke_Key.space	Key.space	n/a
325.395	0.09	650790	keystroke_c	c	n/a
325.515	0.075	651030	keystroke_o	o	n/a
325.605	0.06	651210	keystroke_r	r	n/a
325.77	0.09	651540	keystroke_k	k	n/a
325.9195	0.075	651839	keystroke_Key.space	Key.space	n/a
326.204	0.0905	652408	keystroke_h	h	n/a
326.3395	0.06	652679	keystroke_e	e	n/a
326.5045	0.075	653009	keystroke_e	e	n/a
326.6845	0.075	653369	keystroke_l	l	n/a
326.8345	0.09	653669	keystroke_Key.space	Key.space	n/a
327.0895	0.09	654179	keystroke_a	a	n/a
327.2395	0.075	654479	keystroke_p	p	n/a
327.3745	0.075	654749	keystroke_p	p	n/a
327.5695	0.09	655139	keystroke_l	l	n/a
327.7945	0.09	655589	keystroke_i	i	n/a
328.2895	0.105	656579	keystroke_e	e	n/a
328.6045	0.075	657209	keystroke_s	s	n/a
328.7245	0.09	657449	keystroke_Key.enter	Key.enter	n/a
328.819	7.902	657638	prompt	n/a	filing vocational pattern prostate\n
329.729	0.09	659458	keystroke_f	f	n/a
329.8945	0.075	659789	keystroke_i	i	n/a
330.1045	0.075	660209	keystroke_l	l	n/a
330.344	0.075	660688	keystroke_i	i	n/a
330.494	0.09	660988	keystroke_n	n	n/a
330.915	0.074	661830	keystroke_g	g	n/a
331.334	0.075	662668	keystroke_Key.space	Key.space	n/a
331.7245	0.03	663449	keystroke_v	v	n/a
331.9945	0.105	663989	keystroke_o	o	n/a
332.5045	0.105	665009	keystroke_c	c	n/a
332.7595	0.135	665519	keystroke_a	a	n/a
332.9395	0.0905	665879	keystroke_t	t	n/a
333.06	0.12	666120	keystroke_i	i	n/a
333.165	0.03	666330	keystroke_o	o	n/a
333.315	0.075	666630	keystroke_n	n	n/a
333.435	0.105	666870	keystroke_a	a	n/a
333.585	0.075	667170	keystroke_l	l	n/a
333.735	0.09	667470	keystroke_Key.space	Key.space	n/a
333.99	0.06	667980	keystroke_p	p	n/a
334.095	0.09	668190	keystroke_a	a	n/a
334.26	0.06	668520	keystroke_t	t	n/a
334.3945	0.0905	668789	keystroke_t	t	n/a
334.515	0.12	669030	keystroke_e	e	n/a
334.62	0.075	669240	keystroke_r	r	n/a
334.74	0.09	669480	keystroke_n	n	n/a
334.89	0.075	669780	keystroke_Key.space	Key.space	n/a
335.115	0.045	670230	keystroke_p	p	n/a
335.205	0.09	670410	keystroke_r	r	n/a
335.34	0.09	670680	keystroke_o	o	n/a
335.565	0.12	671130	keystroke_s	s	n/a
335.76	0.075	671520	keystroke_t	t	n/a
335.9245	0.15	671849	keystroke_a	a	n/a
336.2845	0.105	672569	keystroke_t	t	n/a
336.4195	0.12	672839	keystroke_e	e	n/a
336.6295	0.09	673259	keystroke_Key.enter	Key.enter	n/a
336.7265	9.52	673453	prompt	n/a	contemporary closely soon assistant\n
337.3795	0.09	674759	keystroke_c	c	n/a
337.4845	0.06	674969	keystroke_o	o	n/a
337.6645	0.09	675329	keystroke_n	n	n/a
337.8295	0.0755	675659	keystroke_t	t	n/a
338.37	0.075	676740	keystroke_e	e	n/a
338.55	0.075	677100	keystroke_m	m	n/a
338.865	0.06	677730	keystroke_p	p	n/a
339.5095	0.075	679019	keystroke_o	o	n/a
339.6745	0.09	679349	keystroke_r	r	n/a
339.9295	0.15	679859	keystroke_a	a	n/a
340.0805	0.104	680161	keystroke_r	r	n/a
340.2595	0.09	680519	keystroke_y	y	n/a
340.4395	0.12	680879	keystroke_Key.space	Key.space	n/a
340.7845	0.09	681569	keystroke_c	c	n/a
340.9495	0.09	681899	keystroke_l	l	n/a
341.1145	0.09	682229	keystroke_o	o	n/a
341.235	0.135	682470	keystroke_s	s	n/a
341.385	0.09	682770	keystroke_e	e	n/a
341.505	0.075	683010	keystroke_s	s	n/a
341.7445	0.105	683489	keystroke_l	l	n/a
342.2245	0.045	684449	keystroke_Key.backspace	Key.backspace	n/a
342.3595	0.06	684719	keystroke_Key.backspace	Key.backspace	n/a
342.615	0.09	685230	keystroke_l	l	n/a
342.84	0.075	685680	keystroke_y	y	n/a
343.02	0.09	686040	keystroke_Key.space	Key.space	n/a
343.8445	0.075	687689	keystroke_s	s	n/a
343.9645	0.06	687929	keystroke_o	o	n/a
344.1145	0.06	688229	keystroke_o	o	n/a
344.3245	0.09	688649	keystroke_n	n	n/a
344.4895	0.09	688979	keystroke_Key.space	Key.space	n/a
344.8045	0.105	689609	keystroke_a	a	n/a
344.9545	0.09	689909	keystroke_s	s	n/a
345.1045	0.105	690209	keystroke_s	s	n/a
345.2845	0.03	690569	keystroke_i	i	n/a
345.3445	0.12	690689	keystroke_s	s	n/a
345.5845	0.12	691169	keystroke_t	t	n/a
345.7195	0.135	691439	keystroke_a	a	n/a
345.87	0.09	691740	keystroke_n	n	n/a
345.99	0.09	691980	keystroke_t	t	n/a
346.17	0.075	692340	keystroke_Key.enter	Key.enter	n/a
346.2495	6.747	692499	prompt	n/a	audio peer sanyo murray\n
346.785	0.105	693570	keystroke_a	a	n/a
346.965	0.075	693930	keystroke_u	u	n/a
347.055	0.09	694110	keystroke_d	d	n/a
347.22	0.135	694440	keystroke_i	i	n/a
347.34	0.075	694680	keystroke_o	o	n/a
347.97	0.105	695940	keystroke_Key.space	Key.space	n/a
348.24	0.06	696480	keystroke_p	p	n/a
348.375	0.06	696750	keystroke_e	e	n/a
348.51	0.12	697020	keystroke_e	e	n/a
348.795	0.119	697590	keystroke_r	r	n/a
348.959	0.09	697918	keystroke_Key.space	Key.space	n/a
349.514	0.091	699028	keystroke_s	s	n/a
349.59	0.135	699180	keystroke_a	a	n/a
349.71	0.075	699420	keystroke_n	n	n/a
349.905	0.09	699810	keystroke_y	y	n/a
350.145	0.015	700290	keystroke_o	o	n/a
350.265	0.09	700530	keystroke_Key.space	Key.space	n/a
351.36	0.075	702720	keystroke_m	m	n/a
351.93	0.075	703860	keystroke_u	u	n/a
352.275	0.06	704550	keystroke_r	r	n/a
352.395	0.09	704790	keystroke_r	r	n/a
352.5	0.12	705000	keystroke_a	a	n/a
352.68	0.09	705360	keystroke_y	y	n/a
352.935	0.06	705870	keystroke_Key.enter	Key.enter	n/a
353	16.7215	706000	prompt	n/a	mandate disaster independence fort\n
353.64	0.09	707280	keystroke_m	m	n/a
353.76	0.135	707520	keystroke_a	a	n/a
353.91	0.03	707820	keystroke_s	s	n/a
354.375	0.015	708750	keystroke_Key.backspace	Key.backspace	n/a
354.75	0.09	709500	keystroke_n	n	n/a
354.945	0.135	709890	keystroke_d	d	n/a
355.035	0.165	710070	keystroke_a	a	n/a
355.26	0.12	710520	keystroke_t	t	n/a
355.365	0.12	710730	keystroke_e	e	n/a
355.5	0.105	711000	keystroke_Key.space	Key.space	n/a
355.785	0.075	711570	keystroke_d	d	n/a
355.8745	0.075	711749	keystroke_i	i	n/a
355.9945	0.15	711989	keystroke_s	s	n/a
356.3245	0.09	712649	keystroke_a	a	n/a
356.5195	0.195	713039	keystroke_s	s	n/a
356.7895	0.12	713579	keystroke_t	t	n/a
356.955	0.1195	713910	keystroke_e	e	n/a
357.0595	0.09	714119	keystroke_r	r	n/a
357.1645	0.12	714329	keystroke_Key.space	Key.space	n/a
357.4195	0.135	714839	keystroke_i	i	n/a
357.5695	0.06	715139	keystroke_n	n	n/a
357.6445	0.135	715289	keystroke_d	d	n/a
357.7645	0.09	715529	keystroke_e	e	n/a
357.8995	0.075	715799	keystroke_p	p	n/a
358.0495	0.12	716099	keystroke_e	e	n/a
358.2295	0.09	716459	keystroke_n	n	n/a
358.3645	0.105	716729	keystroke_d	d	n/a
358.5745	0.075	717149	keystroke_e	e	n/a
358.7395	0.075	717479	keystroke_d	d	n/a
359.2345	0.015	718469	keystroke_Key.backspace	Key.backspace	n/a
359.2945	0.106	718589	keystroke_c	c	n/a
359.3695	0.12	718739	keystroke_e	e	n/a
359.6095	0.0755	719219	keystroke_Key.space	Key.space	n/a
360.81	0.0895	721620	keystroke_f	f	n/a
361.6645	0.09	723329	keystroke_Key.backspace	Key.backspace	n/a
361.8745	0.075	723749	keystroke_Key.backspace	Key.backspace	n/a
362.1145	0.075	724229	keystroke_Key.backspace	Key.backspace	n/a
362.3245	0.075	724649	keystroke_Key.backspace	Key.backspace	n/a
362.6545	0.105	725309	keystroke_Key.backspace	Key.backspace	n/a
362.9845	0.105	725969	keystroke_Key.backspace	Key.backspace	n/a
364.2295	0.12	728459	keystroke_s	s	n/a
364.7095	0.09	729419	keystroke_Key.backspace	Key.backspace	n/a
364.8145	0.135	729629	keystroke_d	d	n/a
367.7275	0.073	735455	keystroke_e	e	n/a
368.2955	0.105	736591	keystroke_n	n	n/a
368.5045	0.12	737009	keystroke_c	c	n/a
368.6095	0.12	737219	keystroke_e	e	n/a
368.8045	0.09	737609	keystroke_Key.space	Key.space	n/a
369.1045	0.105	738209	keystroke_f	f	n/a
369.1945	0.105	738389	keystroke_o	o	n/a
369.3145	0.12	738629	keystroke_r	r	n/a
369.5095	0.09	739019	keystroke_t	t	n/a
369.6295	0.09	739259	keystroke_Key.enter	Key.enter	n/a
369.7245	9.9425	739449	prompt	n/a	vegetable detector lights spider\n
370.3795	0.03	740759	keystroke_v	v	n/a
370.8445	0.12	741689	keystroke_e	e	n/a
371.2495	0.105	742499	keystroke_g	g	n/a
371.955	0.135	743910	keystroke_e	e	n/a
372.0745	0.075	744149	keystroke_r	r	n/a
372.2845	0.106	744569	keystroke_t	t	n/a
372.4355	0.1495	744871	keystroke_a	a	n/a
372.63	0.075	745260	keystroke_b	b	n/a
372.855	0.06	745710	keystroke_l	l	n/a
372.99	0.06	745980	keystroke_e	e	n/a
373.335	0.06	746670	keystroke_Key.backspace	Key.backspace	n/a
373.47	0.075	746940	keystroke_Key.backspace	Key.backspace	n/a
373.62	0.045	747240	keystroke_Key.backspace	Key.backspace	n/a
373.755	0.06	747510	keystroke_Key.backspace	Key.backspace	n/a
373.9345	0.046	747869	keystroke_Key.backspace	Key.backspace	n/a
374.1145	0.075	748229	keystroke_Key.backspace	Key.backspace	n/a
374.2655	0.135	748531	keystroke_t	t	n/a
374.4155	0.15	748831	keystroke_a	a	n/a
374.5955	0.09	749191	keystroke_b	b	n/a
374.8345	0.061	749669	keystroke_l	l	n/a
374.9555	0.09	749911	keystroke_e	e	n/a
375.0905	0.089	750181	keystroke_Key.space	Key.space	n/a
375.51	0.075	751020	keystroke_d	d	n/a
375.66	0.105	751320	keystroke_e	e	n/a
375.885	0.09	751770	keystroke_t	t	n/a
376.005	0.135	752010	keystroke_e	e	n/a
376.2	0.09	752400	keystroke_c	c	n/a
376.395	0.06	752790	keystroke_t	t	n/a
376.545	0.075	753090	keystroke_o	o	n/a
376.635	0.105	753270	keystroke_r	r	n/a
376.7995	0.105	753599	keystroke_Key.space	Key.space	n/a
377.0545	0.15	754109	keystroke_l	l	n/a
377.1595	0.105	754319	keystroke_i	i	n/a
377.2495	0.105	754499	keystroke_g	g	n/a
377.4295	0.105	754859	keystroke_h	h	n/a
377.5495	0.09	755099	keystroke_t	t	n/a
377.6545	0.12	755309	keystroke_s	s	n/a
377.8795	0.075	755759	keystroke_Key.space	Key.space	n/a
378.3745	0.09	756749	keystroke_s	s	n/a
378.4795	0.06	756959	keystroke_p	p	n/a
378.6895	0.09	757379	keystroke_i	i	n/a
378.8255	0.134	757651	keystroke_d	d	n/a
378.9445	0.1355	757889	keystroke_e	e	n/a
379.095	0.09	758190	keystroke_r	r	n/a
379.605	0.06	759210	keystroke_Key.enter	Key.enter	n/a
379.6705	7.001	759341	prompt	n/a	convinced waters glance skins\n
380.2055	0.105	760411	keystroke_c	c	n/a
380.3255	0.06	760651	keystroke_o	o	n/a
380.5205	0.06	761041	keystroke_n	n	n/a
380.6105	0.06	761221	keystroke_v	v	n/a
381.2255	0.075	762451	keystroke_i	i	n/a
381.3455	0.09	762691	keystroke_n	n	n/a
381.4655	0.09	762931	keystroke_c	c	n/a
381.5705	0.12	763141	keystroke_e	e	n/a
381.7955	0.09	763591	keystroke_d	d	n/a
381.9005	0.105	763801	keystroke_Key.space	Key.space	n/a
382.1245	0.121	764249	keystroke_w	w	n/a
382.2305	0.119	764461	keystroke_a	a	n/a
382.4105	0.089	764821	keystroke_t	t	n/a
382.5295	0.136	765059	keystroke_e	e	n/a
382.6495	0.105	765299	keystroke_r	r	n/a
382.8605	0.09	765721	keystroke_s	s	n/a
383.2795	0.091	766559	keystroke_Key.space	Key.space	n/a
383.7455	0.015	767491	keystroke_f	f	n/a
384.4955	0.075	768991	keystroke_Key.backspace	Key.backspace	n/a
384.5855	0.045	769171	keystroke_g	g	n/a
384.7805	0.105	769561	keystroke_l	l	n/a
384.9155	0.15	769831	keystroke_a	a	n/a
385.1255	0.09	770251	keystroke_n	n	n/a
385.2755	0.105	770551	keystroke_c	c	n/a
385.4095	0.121	770819	keystroke_e	e	n/a
385.6345	0.075	771269	keystroke_Key.space	Key.space	n/a
385.8455	0.104	771691	keystroke_s	s	n/a
385.9655	0.059	771931	keystroke_k	k	n/a
386.1155	0.089	772231	keystroke_i	i	n/a
386.3105	0.089	772621	keystroke_n	n	n/a
386.4445	0.075	772889	keystroke_s	s	n/a
386.5795	0.09	773159	keystroke_Key.enter	Key.enter	n/a
386.6745	8.232	773349	prompt	n/a	paypal digit labeled possibly\n
387.225	0.06	774450	keystroke_p	p	n/a
387.315	0.12	774630	keystroke_a	a	n/a
387.54	0.045	775080	keystroke_y	y	n/a
387.99	0.0905	775980	keystroke_p	p	n/a
388.1255	0.12	776251	keystroke_a	a	n/a
388.2905	0.09	776581	keystroke_l	l	n/a
388.4705	0.09	776941	keystroke_Key.space	Key.space	n/a
388.8155	0.1345	777631	keystroke_d	d	n/a
388.965	0.105	777930	keystroke_i	i	n/a
389.13	0.12	778260	keystroke_g	g	n/a
389.251	0.104	778502	keystroke_i	i	n/a
389.535	0.105	779070	keystroke_t	t	n/a
389.94	0.075	779880	keystroke_Key.space	Key.space	n/a
390.3455	0.075	780691	keystroke_l	l	n/a
390.4505	0.09	780901	keystroke_a	a	n/a
390.5855	0.09	781171	keystroke_b	b	n/a
391.0205	0.105	782041	keystroke_e	e	n/a
391.2455	0.09	782491	keystroke_l	l	n/a
391.3655	0.105	782731	keystroke_e	e	n/a
391.5755	0.105	783151	keystroke_d	d	n/a
391.7845	0.09	783569	keystroke_Key.space	Key.space	n/a
391.9955	0.074	783991	keystroke_p	p	n/a
392.1895	0.09	784379	keystroke_s	s	n/a
392.2945	0.09	784589	keystroke_o	o	n/a
392.5505	0.06	785101	keystroke_s	s	n/a
392.8205	0.06	785641	keystroke_Key.backspace	Key.backspace	n/a
392.9555	0.075	785911	keystroke_Key.backspace	Key.backspace	n/a
393.0905	0.09	786181	keystroke_Key.backspace	Key.backspace	n/a
393.3305	0.075	786661	keystroke_o	o	n/a
393.4505	0.075	786901	keystroke_s	s	n/a
393.6005	0.09	787201	keystroke_s	s	n/a
393.7355	0.075	787471	keystroke_i	i	n/a
393.9145	0.075	787829	keystroke_b	b	n/a
394.1095	0.06	788219	keystroke_l	l	n/a
394.3045	0.0755	788609	keystroke_y	y	n/a
394.8145	0.09	789629	keystroke_Key.enter	Key.enter	n/a
394.9095	10.182	789819	prompt	n/a	density measuring driven exchange\n
396.1955	0.105	792391	keystroke_d	d	n/a
396.3155	0.105	792631	keystroke_e	e	n/a
396.4805	0.09	792961	keystroke_n	n	n/a
396.6155	0.09	793231	keystroke_s	s	n/a
396.7355	0.105	793471	keystroke_i	i	n/a
396.9905	0.09	793981	keystroke_t	t	n/a
397.3955	0.09	794791	keystroke_y	y	n/a
397.6355	0.075	795271	keystroke_Key.space	Key.space	n/a
398.2805	0.075	796561	keystroke_m	m	n/a
398.3555	0.135	796711	keystroke_e	e	n/a
398.4905	0.135	796981	keystroke_a	a	n/a
398.5955	0.1195	797191	keystroke_s	s	n/a
399.015	0.12	798030	keystroke_r	r	n/a
399.195	0.09	798390	keystroke_u	u	n/a
399.435	0.06	798870	keystroke_i	i	n/a
399.78	0.045	799560	keystroke_Key.backspace	Key.backspace	n/a
399.8855	0.075	799771	keystroke_Key.backspace	Key.backspace	n/a
400.0205	0.075	800041	keystroke_Key.backspace	Key.backspace	n/a
400.5905	0.075	801181	keystroke_u	u	n/a
400.6955	0.09	801391	keystroke_r	r	n/a
400.8005	0.105	801601	keystroke_i	i	n/a
400.8905	0.089	801781	keystroke_n	n	n/a
401.0255	0.09	802051	keystroke_g	g	n/a
401.1455	0.105	802291	keystroke_Key.space	Key.space	n/a
401.5505	0.075	803101	keystroke_d	d	n/a
401.8205	0.135	803641	keystroke_r	r	n/a
402.0605	0.06	804121	keystroke_i	i	n/a
402.1655	0.09	804331	keystroke_v	v	n/a
402.3305	0.105	804661	keystroke_e	e	n/a
402.495	0.09	804990	keystroke_n	n	n/a
402.69	0.09	805380	keystroke_Key.space	Key.space	n/a
403.035	0.075	806070	keystroke_e	e	n/a
403.23	0.12	806460	keystroke_x	x	n/a
404.2345	0.075	808469	keystroke_c	c	n/a
404.3545	0.105	808709	keystroke_h	h	n/a
404.4745	0.12	808949	keystroke_a	a	n/a
404.6095	0.105	809219	keystroke_n	n	n/a
404.7595	0.105	809519	keystroke_g	g	n/a
404.8495	0.105	809699	keystroke_e	e	n/a
404.9845	0.106	809969	keystroke_Key.enter	Key.enter	n/a
405.0945	7.347	810189	prompt	n/a	sharp workstation parker discover\n
405.8405	0.12	811681	keystroke_s	s	n/a
405.9455	0.075	811891	keystroke_h	h	n/a
406.1555	0.165	812311	keystroke_a	a	n/a
406.3505	0.075	812701	keystroke_r	r	n/a
406.4705	0.09	812941	keystroke_p	p	n/a
406.65	0.09	813300	keystroke_Key.space	Key.space	n/a
406.935	0.135	813870	keystroke_w	w	n/a
407.055	0.045	814110	keystroke_a	a	n/a
407.19	0.09	814380	keystroke_o	o	n/a
407.295	0.12	814590	keystroke_r	r	n/a
407.61	0.0445	815220	keystroke_Key.backspace	Key.backspace	n/a
407.715	0.06	815430	keystroke_Key.backspace	Key.backspace	n/a
407.8655	0.06	815731	keystroke_Key.backspace	Key.backspace	n/a
408.0755	0.075	816151	keystroke_o	o	n/a
408.2105	0.09	816421	keystroke_r	r	n/a
408.3455	0.09	816691	keystroke_k	k	n/a
408.5405	0.135	817081	keystroke_s	s	n/a
408.8255	0.09	817651	keystroke_t	t	n/a
408.9305	0.15	817861	keystroke_a	a	n/a
409.0655	0.1045	818131	keystroke_t	t	n/a
409.185	0.135	818370	keystroke_i	i	n/a
409.335	0.0455	818670	keystroke_o	o	n/a
409.5005	0.09	819001	keystroke_n	n	n/a
409.6505	0.09	819301	keystroke_Key.space	Key.space	n/a
410.0255	0.045	820051	keystroke_p	p	n/a
410.1005	0.12	820201	keystroke_a	a	n/a
410.2355	0.105	820471	keystroke_r	r	n/a
410.3855	0.105	820771	keystroke_k	k	n/a
410.5505	0.1345	821101	keystroke_e	e	n/a
410.6705	0.1045	821341	keystroke_r	r	n/a
410.805	0.105	821610	keystroke_Key.space	Key.space	n/a
411.135	0.09	822270	keystroke_d	d	n/a
411.315	0.075	822630	keystroke_i	i	n/a
411.42	0.09	822840	keystroke_s	s	n/a
411.57	0.12	823140	keystroke_c	c	n/a
411.75	0.075	823500	keystroke_o	o	n/a
411.87	0.09	823740	keystroke_v	v	n/a
412.065	0.12	824130	keystroke_e	e	n/a
412.17	0.105	824340	keystroke_r	r	n/a
412.35	0.09	824700	keystroke_Key.enter	Key.enter	n/a
412.4445	7.317	824889	prompt	n/a	theory successful enough offset\n
413.1745	0.075	826349	keystroke_t	t	n/a
413.2645	0.09	826529	keystroke_h	h	n/a
413.3995	0.105	826799	keystroke_e	e	n/a
413.5195	0.075	827039	keystroke_o	o	n/a
413.6245	0.12	827249	keystroke_r	r	n/a
413.8045	0.0605	827609	keystroke_y	y	n/a
413.9395	0.105	827879	keystroke_Key.space	Key.space	n/a
414.4195	0.045	828839	keystroke_s	s	n/a
414.4795	0.045	828959	keystroke_u	u	n/a
414.5995	0.105	829199	keystroke_c	c	n/a
414.7645	0.105	829529	keystroke_c	c	n/a
415.0195	0.075	830039	keystroke_e	e	n/a
415.1695	0.075	830339	keystroke_s	s	n/a
415.3195	0.09	830639	keystroke_s	s	n/a
415.5595	0.12	831119	keystroke_f	f	n/a
415.8295	0.075	831659	keystroke_u	u	n/a
416.0995	0.075	832199	keystroke_l	l	n/a
416.2795	0.105	832559	keystroke_Key.space	Key.space	n/a
416.5795	0.075	833159	keystroke_e	e	n/a
416.6995	0.0755	833399	keystroke_n	n	n/a
416.88	0.135	833760	keystroke_o	o	n/a
416.9995	0.1355	833999	keystroke_u	u	n/a
417.195	0.105	834390	keystroke_g	g	n/a
417.315	0.09	834630	keystroke_h	h	n/a
417.465	0.1045	834930	keystroke_Key.space	Key.space	n/a
417.8245	0.03	835649	keystroke_s	s	n/a
418.1105	0.074	836221	keystroke_Key.backspace	Key.backspace	n/a
418.3345	0.075	836669	keystroke_o	o	n/a
418.5295	0.075	837059	keystroke_f	f	n/a
418.6655	0.09	837331	keystroke_f	f	n/a
419.145	0.09	838290	keystroke_s	s	n/a
419.295	0.12	838590	keystroke_e	e	n/a
419.52	0.09	839040	keystroke_t	t	n/a
419.685	0.075	839370	keystroke_Key.enter	Key.enter	n/a
419.7645	5.862	839529	prompt	n/a	updated extras it's save\n
420.375	0.09	840750	keystroke_u	u	n/a
420.555	0.06	841110	keystroke_p	p	n/a
420.63	0.12	841260	keystroke_d	d	n/a
420.72	0.135	841440	keystroke_a	a	n/a
420.87	0.105	841740	keystroke_t	t	n/a
420.96	0.09	841920	keystroke_e	e	n/a
421.14	0.105	842280	keystroke_d	d	n/a
421.335	0.09	842670	keystroke_Key.space	Key.space	n/a
421.83	0.1205	843660	keystroke_e	e	n/a
422.1005	0.075	844201	keystroke_x	x	n/a
422.3105	0.06	844621	keystroke_t	t	n/a
422.4905	0.045	844981	keystroke_r	r	n/a
422.6405	0.1045	845281	keystroke_a	a	n/a
423.315	0.075	846630	keystroke_s	s	n/a
423.51	0.105	847020	keystroke_Key.space	Key.space	n/a
423.765	0.12	847530	keystroke_i	i	n/a
423.93	0.075	847860	keystroke_t	t	n/a
424.095	0.075	848190	keystroke_'	'	n/a
424.26	0.09	848520	keystroke_s	s	n/a
424.4245	0.105	848849	keystroke_Key.space	Key.space	n/a
424.7555	0.104	849511	keystroke_s	s	n/a
424.8605	0.134	849721	keystroke_a	a	n/a
425.1595	0.061	850319	keystroke_v	v	n/a
425.34	0.045	850680	keystroke_e	e	n/a
425.535	0.09	851070	keystroke_Key.enter	Key.enter	n/a
425.6315	8.1555	851263	prompt	n/a	sensor designing assessing number\n
426.555	0.09	853110	keystroke_s	s	n/a
426.645	0.09	853290	keystroke_e	e	n/a
426.84	0.09	853680	keystroke_n	n	n/a
426.915	0.135	853830	keystroke_s	s	n/a
427.44	0.105	854880	keystroke_r	r	n/a
427.56	0.075	855120	keystroke_o	o	n/a
428.0405	0.06	856081	keystroke_Key.backspace	Key.backspace	n/a
428.1755	0.06	856351	keystroke_Key.backspace	Key.backspace	n/a
428.3855	0.06	856771	keystroke_o	o	n/a
428.4905	0.075	856981	keystroke_r	r	n/a
428.6405	0.105	857281	keystroke_Key.space	Key.space	n/a
428.9405	0.075	857881	keystroke_d	d	n/a
429.1055	0.09	858211	keystroke_e	e	n/a
429.2405	0.12	858481	keystroke_s	s	n/a
429.4205	0.09	858841	keystroke_i	i	n/a
429.5705	0.09	859141	keystroke_g	g	n/a
429.7205	0.09	859441	keystroke_n	n	n/a
429.84	0.105	859680	keystroke_i	i	n/a
429.96	0.09	859920	keystroke_n	n	n/a
430.065	0.09	860130	keystroke_g	g	n/a
430.26	0.09	860520	keystroke_Key.space	Key.space	n/a
431.13	0.105	862260	keystroke_a	a	n/a
431.295	0.075	862590	keystroke_s	s	n/a
431.46	0.075	862920	keystroke_s	s	n/a
431.61	0.105	863220	keystroke_e	e	n/a
431.76	0.075	863520	keystroke_s	s	n/a
431.9095	0.0755	863819	keystroke_s	s	n/a
432.0895	0.12	864179	keystroke_i	i	n/a
432.2245	0.1355	864449	keystroke_n	n	n/a
432.405	0.0895	864810	keystroke_g	g	n/a
432.54	0.105	865080	keystroke_Key.space	Key.space	n/a
432.765	0.06	865530	keystroke_n	n	n/a
432.945	0.09	865890	keystroke_u	u	n/a
433.14	0.06	866280	keystroke_m	m	n/a
433.35	0.06	866700	keystroke_b	b	n/a
433.47	0.135	866940	keystroke_e	e	n/a
433.575	0.09	867150	keystroke_r	r	n/a
433.725	0.06	867450	keystroke_Key.enter	Key.enter	n/a
433.79	8.187	867580	prompt	n/a	teaching beliefs carlo enemy\n
434.535	0.03	869070	keystroke_t	t	n/a
434.7	0.09	869400	keystroke_e	e	n/a
434.805	0.105	869610	keystroke_a	a	n/a
434.94	0.12	869880	keystroke_c	c	n/a
435.105	0.09	870210	keystroke_h	h	n/a
435.21	0.135	870420	keystroke_i	i	n/a
435.33	0.105	870660	keystroke_n	n	n/a
435.465	0.09	870930	keystroke_g	g	n/a
435.6	0.09	871200	keystroke_Key.space	Key.space	n/a
435.915	0.09	871830	keystroke_d	d	n/a
436.23	0.075	872460	keystroke_Key.backspace	Key.backspace	n/a
436.485	0.075	872970	keystroke_b	b	n/a
436.605	0.1045	873210	keystroke_e	e	n/a
436.8145	0.1355	873629	keystroke_l	l	n/a
436.89	0.135	873780	keystroke_i	i	n/a
437.055	0.105	874110	keystroke_e	e	n/a
437.745	0.06	875490	keystroke_f	f	n/a
438.06	0.09	876120	keystroke_s	s	n/a
438.33	0.075	876660	keystroke_Key.space	Key.space	n/a
438.645	0.105	877290	keystroke_c	c	n/a
438.825	0.12	877650	keystroke_a	a	n/a
438.93	0.09	877860	keystroke_r	r	n/a
439.065	0.06	878130	keystroke_l	l	n/a
439.245	0.06	878490	keystroke_o	o	n/a
439.32	0.105	878640	keystroke_Key.space	Key.space	n/a
439.56	0.015	879120	keystroke_e	e	n/a
439.59	0.075	879180	keystroke_n	n	n/a
439.6955	0.104	879391	keystroke_e	e	n/a
440.1905	0.074	880381	keystroke_r	r	n/a
440.835	0.09	881670	keystroke_Key.backspace	Key.backspace	n/a
440.94	0.09	881880	keystroke_m	m	n/a
441.7355	0.06	883471	keystroke_y	y	n/a
441.885	0.09	883770	keystroke_Key.enter	Key.enter	n/a
441.9805	7.841	883961	prompt	n/a	ralph donate acquire recipe\n
442.71	0.105	885420	keystroke_r	r	n/a
442.83	0.12	885660	keystroke_a	a	n/a
442.965	0.06	885930	keystroke_p	p	n/a
443.19	0.045	886380	keystroke_h	h	n/a
443.37	0.105	886740	keystroke_Key.space	Key.space	n/a
443.85	0.135	887700	keystroke_d	d	n/a
444.12	0.06	888240	keystroke_o	o	n/a
444.3	0.09	888600	keystroke_n	n	n/a
444.42	0.12	888840	keystroke_a	a	n/a
444.6	0.12	889200	keystroke_t	t	n/a
444.72	0.09	889440	keystroke_e	e	n/a
444.855	0.105	889710	keystroke_Key.space	Key.space	n/a
445.4545	0.105	890909	keystroke_a	a	n/a
446.2795	0.12	892559	keystroke_c	c	n/a
447.0145	0.105	894029	keystroke_q	q	n/a
447.2095	0.075	894419	keystroke_u	u	n/a
447.4505	0.105	894901	keystroke_i	i	n/a
447.5995	0.105	895199	keystroke_r	r	n/a
447.8095	0.105	895619	keystroke_e	e	n/a
448.1245	0.105	896249	keystroke_Key.space	Key.space	n/a
448.6955	0.075	897391	keystroke_r	r	n/a
448.8605	0.075	897721	keystroke_e	e	n/a
449.0555	0.104	898111	keystroke_c	c	n/a
449.1905	0.12	898381	keystroke_i	i	n/a
449.3705	0.074	898741	keystroke_p	p	n/a
449.5495	0.075	899099	keystroke_e	e	n/a
449.7145	0.105	899429	keystroke_Key.enter	Key.enter	n/a
449.8245	7.6775	899649	prompt	n/a	distributed boundary benefit grill\n
450.3895	0.105	900779	keystroke_d	d	n/a
450.5095	0.06	901019	keystroke_i	i	n/a
450.6005	0.104	901201	keystroke_s	s	n/a
451.3795	0.046	902759	keystroke_t	t	n/a
451.5145	0.075	903029	keystroke_r	r	n/a
451.6355	0.09	903271	keystroke_i	i	n/a
451.9205	0.06	903841	keystroke_b	b	n/a
452.2355	0.105	904471	keystroke_u	u	n/a
452.3855	0.105	904771	keystroke_t	t	n/a
452.5355	0.09	905071	keystroke_e	e	n/a
452.7455	0.075	905491	keystroke_d	d	n/a
452.8505	0.105	905701	keystroke_Key.space	Key.space	n/a
453.15	0.09	906300	keystroke_b	b	n/a
453.33	0.12	906660	keystroke_o	o	n/a
453.42	0.09	906840	keystroke_u	u	n/a
453.615	0.12	907230	keystroke_n	n	n/a
453.72	0.12	907440	keystroke_d	d	n/a
453.825	0.195	907650	keystroke_a	a	n/a
453.99	0.105	907980	keystroke_r	r	n/a
454.125	0.105	908250	keystroke_y	y	n/a
454.305	0.09	908610	keystroke_Key.space	Key.space	n/a
454.575	0.09	909150	keystroke_b	b	n/a
454.68	0.09	909360	keystroke_e	e	n/a
454.785	0.12	909570	keystroke_n	n	n/a
454.89	0.105	909780	keystroke_e	e	n/a
455.1	0.135	910200	keystroke_f	f	n/a
455.235	0.09	910470	keystroke_i	i	n/a
455.355	0.12	910710	keystroke_t	t	n/a
455.73	0.075	911460	keystroke_Key.space	Key.space	n/a
456.36	0.105	912720	keystroke_g	g	n/a
456.72	0.09	913440	keystroke_r	r	n/a
456.87	0.105	913740	keystroke_i	i	n/a
457.095	0.075	914190	keystroke_l	l	n/a
457.23	0.075	914460	keystroke_l	l	n/a
457.395	0.105	914790	keystroke_Key.enter	Key.enter	n/a
457.5045	5.9375	915009	prompt	n/a	match lookup stream sources\n
458.085	0.09	916170	keystroke_m	m	n/a
458.22	0.12	916440	keystroke_a	a	n/a
458.37	0.045	916740	keystroke_t	t	n/a
458.7305	0.09	917461	keystroke_c	c	n/a
458.8655	0.075	917731	keystroke_h	h	n/a
459.0155	0.12	918031	keystroke_Key.space	Key.space	n/a
459.2405	0.045	918481	keystroke_l	l	n/a
459.3905	0.06	918781	keystroke_o	o	n/a
459.5405	0.135	919081	keystroke_o	o	n/a
459.7055	0.12	919411	keystroke_k	k	n/a
460.0055	0.06	920011	keystroke_u	u	n/a
460.1705	0.044	920341	keystroke_p	p	n/a
460.3345	0.1055	920669	keystroke_Key.space	Key.space	n/a
460.71	0.105	921420	keystroke_s	s	n/a
460.875	0.09	921750	keystroke_t	t	n/a
461.101	0.044	922202	keystroke_r	r	n/a
461.281	0.12	922562	keystroke_e	e	n/a
461.415	0.12	922830	keystroke_a	a	n/a
461.625	0.09	923250	keystroke_m	m	n/a
461.775	0.105	923550	keystroke_Key.space	Key.space	n/a
462.03	0.15	924060	keystroke_s	s	n/a
462.195	0.135	924390	keystroke_o	o	n/a
462.285	0.12	924570	keystroke_u	u	n/a
462.345	0.105	924690	keystroke_r	r	n/a
462.81	0.12	925620	keystroke_c	c	n/a
462.931	0.104	925862	keystroke_e	e	n/a
463.2	0.09	926400	keystroke_s	s	n/a
463.335	0.105	926670	keystroke_Key.enter	Key.enter	n/a
463.4445	5.5625	926889	prompt	n/a	chase nearest demo alone\n
464.13	0.105	928260	keystroke_c	c	n/a
464.25	0.06	928500	keystroke_h	h	n/a
464.325	0.15	928650	keystroke_a	a	n/a
464.67	0.15	929340	keystroke_s	s	n/a
464.805	0.105	929610	keystroke_e	e	n/a
464.925	0.105	929850	keystroke_Key.space	Key.space	n/a
465.15	0.09	930300	keystroke_n	n	n/a
465.225	0.0905	930450	keystroke_e	e	n/a
465.2855	0.15	930571	keystroke_a	a	n/a
465.4505	0.075	930901	keystroke_r	r	n/a
465.6005	0.105	931201	keystroke_e	e	n/a
465.7655	0.12	931531	keystroke_s	s	n/a
465.9155	0.09	931831	keystroke_t	t	n/a
466.0655	0.105	932131	keystroke_Key.space	Key.space	n/a
466.7255	0.09	933451	keystroke_d	d	n/a
466.9055	0.09	933811	keystroke_e	e	n/a
467.6255	0.09	935251	keystroke_m	m	n/a
467.8205	0.06	935641	keystroke_o	o	n/a
467.9555	0.12	935911	keystroke_Key.space	Key.space	n/a
468.1355	0.12	936271	keystroke_a	a	n/a
468.2405	0.075	936481	keystroke_l	l	n/a
468.4055	0.075	936811	keystroke_o	o	n/a
468.6005	0.075	937201	keystroke_n	n	n/a
468.7805	0.075	937561	keystroke_e	e	n/a
468.9155	0.09	937831	keystroke_Key.enter	Key.enter	n/a
469.011	10.661	938022	prompt	n/a	surprised indonesian capabilities jurisdiction\n
469.65	0.2105	939300	keystroke_s	s	n/a
469.875	0.015	939750	keystroke_u	u	n/a
470.13	0.045	940260	keystroke_r	r	n/a
470.491	0.089	940982	keystroke_p	p	n/a
470.641	0.0895	941282	keystroke_r	r	n/a
470.9705	0.045	941941	keystroke_i	i	n/a
471.0455	0.12	942091	keystroke_s	s	n/a
471.1955	0.09	942391	keystroke_e	e	n/a
471.3905	0.105	942781	keystroke_d	d	n/a
471.5105	0.105	943021	keystroke_Key.space	Key.space	n/a
472.125	0.09	944250	keystroke_i	i	n/a
472.23	0.105	944460	keystroke_n	n	n/a
472.38	0.075	944760	keystroke_d	d	n/a
472.47	0.09	944940	keystroke_o	o	n/a
472.665	0.12	945330	keystroke_n	n	n/a
472.8	0.075	945600	keystroke_e	e	n/a
472.965	0.105	945930	keystroke_s	s	n/a
473.13	0.105	946260	keystroke_i	i	n/a
473.25	0.105	946500	keystroke_a	a	n/a
473.4305	0.105	946861	keystroke_n	n	n/a
473.5805	0.104	947161	keystroke_Key.space	Key.space	n/a
474.0905	0.09	948181	keystroke_c	c	n/a
474.2255	0.09	948451	keystroke_a	a	n/a
474.361	0.0895	948722	keystroke_p	p	n/a
475.156	0.104	950312	keystroke_a	a	n/a
475.276	0.075	950552	keystroke_b	b	n/a
475.515	0.076	951030	keystroke_i	i	n/a
475.71	0.091	951420	keystroke_l	l	n/a
475.831	0.105	951662	keystroke_i	i	n/a
475.921	0.089	951842	keystroke_t	t	n/a
476.1	0.09	952200	keystroke_i	i	n/a
476.205	0.075	952410	keystroke_e	e	n/a
476.311	0.105	952622	keystroke_s	s	n/a
476.49	0.09	952980	keystroke_Key.space	Key.space	n/a
477.06	0.061	954120	keystroke_j	j	n/a
477.226	0.075	954452	keystroke_u	u	n/a
477.316	0.09	954632	keystroke_r	r	n/a
477.451	0.0895	954902	keystroke_i	i	n/a
477.5705	0.105	955141	keystroke_s	s	n/a
477.87	0.105	955740	keystroke_d	d	n/a
478.066	0.09	956132	keystroke_i	i	n/a
478.306	0.09	956612	keystroke_c	c	n/a
478.89	0.091	957780	keystroke_t	t	n/a
479.04	0.121	958080	keystroke_i	i	n/a
479.175	0.06	958350	keystroke_o	o	n/a
479.325	0.061	958650	keystroke_n	n	n/a
479.58	0.09	959160	keystroke_Key.enter	Key.enter	n/a
479.675	7.767	959350	prompt	n/a	spokesman also tennis begin\n
480.3005	0.12	960601	keystroke_s	s	n/a
480.4355	0.06	960871	keystroke_p	p	n/a
480.8405	0.075	961681	keystroke_o	o	n/a
481.1255	0.09	962251	keystroke_k	k	n/a
481.3205	0.075	962641	keystroke_e	e	n/a
481.8155	0.09	963631	keystroke_s	s	n/a
482.0555	0.09	964111	keystroke_m	m	n/a
482.1905	0.12	964381	keystroke_a	a	n/a
482.3105	0.09	964621	keystroke_n	n	n/a
482.4755	0.105	964951	keystroke_Key.space	Key.space	n/a
482.6255	0.1345	965251	keystroke_a	a	n/a
482.805	0.075	965610	keystroke_l	l	n/a
482.91	0.12	965820	keystroke_s	s	n/a
483.015	0.06	966030	keystroke_o	o	n/a
483.105	0.105	966210	keystroke_Key.space	Key.space	n/a
483.51	0.12	967020	keystroke_t	t	n/a
483.615	0.12	967230	keystroke_e	e	n/a
483.795	0.06	967590	keystroke_n	n	n/a
483.93	0.075	967860	keystroke_n	n	n/a
484.14	0.09	968280	keystroke_i	i	n/a
484.275	0.105	968550	keystroke_s	s	n/a
484.395	0.105	968790	keystroke_Key.space	Key.space	n/a
484.635	0.09	969270	keystroke_b	b	n/a
484.785	0.09	969570	keystroke_r	r	n/a
485.28	0.06	970560	keystroke_e	e	n/a
485.505	0.105	971010	keystroke_Key.backspace	Key.backspace	n/a
485.625	0.09	971250	keystroke_Key.backspace	Key.backspace	n/a
485.79	0.075	971580	keystroke_Key.backspace	Key.backspace	n/a
486.33	0.09	972660	keystroke_b	b	n/a
486.465	0.12	972930	keystroke_e	e	n/a
486.72	0.105	973440	keystroke_g	g	n/a
486.84	0.135	973680	keystroke_i	i	n/a
486.945	0.075	973890	keystroke_n	n	n/a
487.335	0.105	974670	keystroke_Key.enter	Key.enter	n/a
487.445	6.507	974890	prompt	n/a	neck dates crawford accessible\n
488.1905	0.09	976381	keystroke_n	n	n/a
488.2655	0.075	976531	keystroke_e	e	n/a
488.4905	0.09	976981	keystroke_c	c	n/a
488.5655	0.105	977131	keystroke_k	k	n/a
488.6855	0.09	977371	keystroke_Key.space	Key.space	n/a
488.8355	0.105	977671	keystroke_d	d	n/a
488.9105	0.15	977821	keystroke_a	a	n/a
489.1055	0.12	978211	keystroke_t	t	n/a
489.2105	0.09	978421	keystroke_e	e	n/a
489.4355	0.06	978871	keystroke_s	s	n/a
489.5405	0.105	979081	keystroke_Key.space	Key.space	n/a
489.7505	0.105	979501	keystroke_c	c	n/a
490.1705	0.045	980341	keystroke_r	r	n/a
490.2755	0.03	980551	keystroke_r	r	n/a
490.8155	0.06	981631	keystroke_Key.backspace	Key.backspace	n/a
490.9205	0.195	981841	keystroke_a	a	n/a
491.1305	0.12	982261	keystroke_w	w	n/a
491.4455	0.12	982891	keystroke_f	f	n/a
491.5955	0.09	983191	keystroke_o	o	n/a
491.7005	0.0905	983401	keystroke_r	r	n/a
491.895	0.09	983790	keystroke_d	d	n/a
492.0005	0.105	984001	keystroke_Key.space	Key.space	n/a
492.1955	0.105	984391	keystroke_a	a	n/a
492.3905	0.075	984781	keystroke_c	c	n/a
492.5255	0.0895	985051	keystroke_c	c	n/a
492.735	0.075	985470	keystroke_e	e	n/a
492.87	0.0755	985740	keystroke_s	s	n/a
493.0205	0.0745	986041	keystroke_s	s	n/a
493.2005	0.0895	986401	keystroke_i	i	n/a
493.425	0.06	986850	keystroke_b	b	n/a
493.605	0.075	987210	keystroke_l	l	n/a
493.7405	0.0745	987481	keystroke_e	e	n/a
493.861	0.09	987722	keystroke_Key.enter	Key.enter	n/a
493.9545	10.4375	987909	prompt	n/a	manufacturers translations willing potato\n
494.656	0.06	989312	keystroke_m	m	n/a
494.731	0.105	989462	keystroke_a	a	n/a
494.986	0.09	989972	keystroke_n	n	n/a
495.361	0.09	990722	keystroke_u	u	n/a
496.6355	0.075	993271	keystroke_f	f	n/a
496.7705	0.135	993541	keystroke_a	a	n/a
496.9655	0.075	993931	keystroke_c	c	n/a
497.1755	0.075	994351	keystroke_t	t	n/a
497.2955	0.09	994591	keystroke_u	u	n/a
497.4005	0.075	994801	keystroke_r	r	n/a
497.5655	0.075	995131	keystroke_e	e	n/a
497.7005	0.105	995401	keystroke_s	s	n/a
497.8355	0.1045	995671	keystroke_Key.space	Key.space	n/a
498.1355	0.06	996271	keystroke_t	t	n/a
498.3005	0.105	996601	keystroke_r	r	n/a
498.4205	0.12	996841	keystroke_a	a	n/a
498.6005	0.135	997201	keystroke_n	n	n/a
498.9455	0.135	997891	keystroke_s	s	n/a
499.2005	0.09	998401	keystroke_l	l	n/a
499.3805	0.135	998761	keystroke_a	a	n/a
499.5905	0.075	999181	keystroke_t	t	n/a
499.7105	0.12	999421	keystroke_i	i	n/a
499.7855	0.09	999571	keystroke_o	o	n/a
499.9805	0.09	999961	keystroke_n	n	n/a
500.0855	0.12	1000171	keystroke_s	s	n/a
500.2505	0.0905	1000501	keystroke_Key.space	Key.space	n/a
500.926	0.075	1001852	keystroke_w	w	n/a
501.661	0.075	1003322	keystroke_i	i	n/a
501.856	0.045	1003712	keystroke_l	l	n/a
501.976	0.06	1003952	keystroke_l	l	n/a
502.171	0.105	1004342	keystroke_i	i	n/a
502.291	0.09	1004582	keystroke_n	n	n/a
502.426	0.105	1004852	keystroke_g	g	n/a
502.651	0.105	1005302	keystroke_Key.space	Key.space	n/a
503.101	0.045	1006202	keystroke_p	p	n/a
503.296	0.0595	1006592	keystroke_o	o	n/a
503.4305	0.105	1006861	keystroke_t	t	n/a
503.5505	0.15	1007101	keystroke_a	a	n/a
503.7155	0.09	1007431	keystroke_t	t	n/a
503.9855	0.12	1007971	keystroke_o	o	n/a
504.3305	0.06	1008661	keystroke_Key.enter	Key.enter	n/a
504.3965	7.7205	1008793	prompt	n/a	nominations abilities sought burn\n
504.9455	0.075	1009891	keystroke_n	n	n/a
505.1855	0.015	1010371	keystroke_o	o	n/a
505.2905	0.09	1010581	keystroke_m	m	n/a
505.4555	0.105	1010911	keystroke_i	i	n/a
505.5455	0.09	1011091	keystroke_n	n	n/a
505.6805	0.12	1011361	keystroke_a	a	n/a
505.8455	0.105	1011691	keystroke_t	t	n/a
505.9655	0.105	1011931	keystroke_i	i	n/a
506.0105	0.09	1012021	keystroke_o	o	n/a
506.2055	0.09	1012411	keystroke_n	n	n/a
506.3405	0.075	1012681	keystroke_s	s	n/a
506.4305	0.105	1012861	keystroke_Key.space	Key.space	n/a
506.6255	0.12	1013251	keystroke_a	a	n/a
506.7755	0.075	1013551	keystroke_b	b	n/a
506.9255	0.075	1013851	keystroke_i	i	n/a
507.1205	0.045	1014241	keystroke_l	l	n/a
507.2705	0.06	1014541	keystroke_i	i	n/a
507.8705	0.105	1015741	keystroke_t	t	n/a
508.1855	0.075	1016371	keystroke_i	i	n/a
508.2905	0.09	1016581	keystroke_e	e	n/a
508.4105	0.105	1016821	keystroke_s	s	n/a
508.5905	0.06	1017181	keystroke_Key.space	Key.space	n/a
509.2205	0.12	1018441	keystroke_a	a	n/a
509.7305	0.045	1019461	keystroke_Key.backspace	Key.backspace	n/a
509.8355	0.135	1019671	keystroke_s	s	n/a
509.9555	0.165	1019911	keystroke_o	o	n/a
510.0755	0.105	1020151	keystroke_u	u	n/a
510.3155	0.12	1020631	keystroke_g	g	n/a
510.4505	0.06	1020901	keystroke_h	h	n/a
510.7205	0.075	1021441	keystroke_t	t	n/a
510.9605	0.105	1021921	keystroke_Key.space	Key.space	n/a
511.2905	0.09	1022581	keystroke_b	b	n/a
511.4405	0.12	1022881	keystroke_Key.down	Key.down	n/a
511.4555	0.09	1022911	keystroke_u	u	n/a
511.5905	0.09	1023181	keystroke_r	r	n/a
511.7555	0.105	1023511	keystroke_n	n	n/a
512.0255	0.09	1024051	keystroke_Key.enter	Key.enter	n/a
512.121	8.966	1024242	prompt	n/a	harold facilitate malta greatly\n
512.7755	0.09	1025551	keystroke_h	h	n/a
512.8955	0.135	1025791	keystroke_a	a	n/a
513.0455	0.06	1026091	keystroke_r	r	n/a
513.1955	0.06	1026391	keystroke_o	o	n/a
513.3905	0.03	1026781	keystroke_l	l	n/a
513.4955	0.105	1026991	keystroke_d	d	n/a
513.6155	0.0755	1027231	keystroke_Key.space	Key.space	n/a
513.826	0.045	1027652	keystroke_b	b	n/a
514.156	0.06	1028312	keystroke_Key.backspace	Key.backspace	n/a
514.231	0.09	1028462	keystroke_f	f	n/a
514.336	0.15	1028672	keystroke_a	a	n/a
514.576	0.105	1029152	keystroke_c	c	n/a
514.711	0.105	1029422	keystroke_i	i	n/a
514.936	0.075	1029872	keystroke_l	l	n/a
515.131	0.075	1030262	keystroke_i	i	n/a
515.221	0.105	1030442	keystroke_t	t	n/a
515.401	0.105	1030802	keystroke_i	i	n/a
515.536	0.09	1031072	keystroke_e	e	n/a
515.671	0.12	1031342	keystroke_s	s	n/a
516.211	0.06	1032422	keystroke_Key.backspace	Key.backspace	n/a
516.345	0.06	1032690	keystroke_Key.backspace	Key.backspace	n/a
516.51	0.0155	1033020	keystroke_Key.backspace	Key.backspace	n/a
516.6605	0.15	1033321	keystroke_a	a	n/a
516.9305	0.105	1033861	keystroke_t	t	n/a
517.0205	0.135	1034041	keystroke_e	e	n/a
517.2005	0.12	1034401	keystroke_Key.space	Key.space	n/a
517.9205	0.06	1035841	keystroke_m	m	n/a
518.1605	0.1355	1036321	keystroke_a	a	n/a
518.3255	0.09	1036651	keystroke_l	l	n/a
518.4755	0.12	1036951	keystroke_t	t	n/a
518.6105	0.135	1037221	keystroke_a	a	n/a
518.8055	0.105	1037611	keystroke_Key.space	Key.space	n/a
519.735	0.075	1039470	keystroke_g	g	n/a
519.855	0.075	1039710	keystroke_r	r	n/a
519.99	0.12	1039980	keystroke_e	e	n/a
520.08	0.15	1040160	keystroke_a	a	n/a
520.245	0.09	1040490	keystroke_t	t	n/a
520.41	0.121	1040820	keystroke_l	l	n/a
520.786	0.1045	1041572	keystroke_y	y	n/a
520.9655	0.12	1041931	keystroke_Key.enter	Key.enter	n/a
521.0905	9.0265	1042181	prompt	n/a	organ traveler situations marine\n
521.8955	0.09	1043791	keystroke_o	o	n/a
521.9705	0.105	1043941	keystroke_r	r	n/a
522.2105	0.12	1044421	keystroke_a	a	n/a
522.6005	0.06	1045201	keystroke_Key.backspace	Key.backspace	n/a
522.6455	0.105	1045291	keystroke_g	g	n/a
522.7955	0.135	1045591	keystroke_a	a	n/a
522.9755	0.09	1045951	keystroke_n	n	n/a
523.1255	0.105	1046251	keystroke_Key.space	Key.space	n/a
523.41	0.105	1046820	keystroke_t	t	n/a
523.6055	0.105	1047211	keystroke_r	r	n/a
523.711	0.1195	1047422	keystroke_a	a	n/a
523.935	0.061	1047870	keystroke_v	v	n/a
524.0705	0.075	1048141	keystroke_e	e	n/a
524.19	0.09	1048380	keystroke_l	l	n/a
524.34	0.135	1048680	keystroke_e	e	n/a
524.46	0.09	1048920	keystroke_r	r	n/a
524.565	0.09	1049130	keystroke_Key.space	Key.space	n/a
524.791	0.089	1049582	keystroke_s	s	n/a
524.94	0.09	1049880	keystroke_u	u	n/a
525.015	0.105	1050030	keystroke_t	t	n/a
525.165	0.165	1050330	keystroke_a	a	n/a
525.375	0.075	1050750	keystroke_t	t	n/a
525.645	0.06	1051290	keystroke_Key.backspace	Key.backspace	n/a
525.765	0.0755	1051530	keystroke_Key.backspace	Key.backspace	n/a
525.9155	0.06	1051831	keystroke_Key.backspace	Key.backspace	n/a
526.0505	0.06	1052101	keystroke_Key.backspace	Key.backspace	n/a
526.3055	0.045	1052611	keystroke_i	i	n/a
526.3805	0.09	1052761	keystroke_t	t	n/a
526.5905	0.135	1053181	keystroke_a	a	n/a
527.2055	0.045	1054411	keystroke_Key.backspace	Key.backspace	n/a
527.4755	0.075	1054951	keystroke_u	u	n/a
527.7005	0.09	1055401	keystroke_t	t	n/a
528.18	0.06	1056360	keystroke_Key.backspace	Key.backspace	n/a
528.331	0.149	1056662	keystroke_a	a	n/a
528.495	0.121	1056990	keystroke_t	t	n/a
528.63	0.135	1057260	keystroke_i	i	n/a
528.75	0.075	1057500	keystroke_o	o	n/a
528.96	0.09	1057920	keystroke_n	n	n/a
529.08	0.091	1058160	keystroke_s	s	n/a
529.215	0.075	1058430	keystroke_Key.space	Key.space	n/a
529.38	0.09	1058760	keystroke_m	m	n/a
529.485	0.12	1058970	keystroke_a	a	n/a
529.62	0.06	1059240	keystroke_r	r	n/a
529.695	0.136	1059390	keystroke_i	i	n/a
529.785	0.121	1059570	keystroke_n	n	n/a
529.906	0.075	1059812	keystroke_e	e	n/a
530.026	0.09	1060052	keystroke_Key.enter	Key.enter	n/a
530.1195	9.433	1060239	prompt	n/a	commodities satisfied documents knights\n
530.941	0.075	1061882	keystroke_c	c	n/a
531.076	0.09	1062152	keystroke_o	o	n/a
531.256	0.075	1062512	keystroke_m	m	n/a
531.406	0.06	1062812	keystroke_m	m	n/a
531.571	0.06	1063142	keystroke_o	o	n/a
531.676	0.105	1063352	keystroke_d	d	n/a
531.796	0.0595	1063592	keystroke_i	i	n/a
532.0355	0.09	1064071	keystroke_t	t	n/a
532.1705	0.09	1064341	keystroke_i	i	n/a
532.3055	0.105	1064611	keystroke_e	e	n/a
532.4405	0.12	1064881	keystroke_s	s	n/a
532.6055	0.105	1065211	keystroke_Key.space	Key.space	n/a
532.9505	0.075	1065901	keystroke_s	s	n/a
533.221	0.15	1066442	keystroke_a	a	n/a
533.416	0.089	1066832	keystroke_t	t	n/a
533.61	0.09	1067220	keystroke_i	i	n/a
533.73	0.09	1067460	keystroke_d	d	n/a
534.48	0.075	1068960	keystroke_Key.backspace	Key.backspace	n/a
534.585	0.135	1069170	keystroke_s	s	n/a
535.32	0.075	1070640	keystroke_f	f	n/a
535.41	0.105	1070820	keystroke_i	i	n/a
535.53	0.091	1071060	keystroke_e	e	n/a
535.725	0.105	1071450	keystroke_d	d	n/a
535.845	0.09	1071690	keystroke_Key.space	Key.space	n/a
536.055	0.06	1072110	keystroke_c	c	n/a
536.34	0.075	1072680	keystroke_Key.backspace	Key.backspace	n/a
536.445	0.09	1072890	keystroke_d	d	n/a
536.595	0.2105	1073190	keystroke_o	o	n/a
537.2555	0.0895	1074511	keystroke_c	c	n/a
537.42	0.075	1074840	keystroke_u	u	n/a
537.6455	0.075	1075291	keystroke_m	m	n/a
537.7355	0.105	1075471	keystroke_e	e	n/a
537.871	0.1045	1075742	keystroke_n	n	n/a
537.961	0.1045	1075922	keystroke_t	t	n/a
538.0805	0.105	1076161	keystroke_s	s	n/a
538.2155	0.09	1076431	keystroke_Key.space	Key.space	n/a
538.5005	0.075	1077001	keystroke_k	k	n/a
538.6955	0.075	1077391	keystroke_n	n	n/a
538.8305	0.075	1077661	keystroke_i	i	n/a
538.9655	0.105	1077931	keystroke_g	g	n/a
539.0855	0.105	1078171	keystroke_h	h	n/a
539.2055	0.105	1078411	keystroke_t	t	n/a
539.2955	0.105	1078591	keystroke_s	s	n/a
539.4455	0.105	1078891	keystroke_Key.enter	Key.enter	n/a
539.5575	5.1695	1079115	prompt	n/a	layout blink residential hats\n
540.1955	0.09	1080391	keystroke_l	l	n/a
540.3005	0.03	1080601	keystroke_a	a	n/a
540.3605	0.09	1080721	keystroke_y	y	n/a
540.5255	0.105	1081051	keystroke_o	o	n/a
540.6155	0.075	1081231	keystroke_u	u	n/a
540.7205	0.09	1081441	keystroke_t	t	n/a
540.8255	0.09	1081651	keystroke_Key.space	Key.space	n/a
541.1105	0.09	1082221	keystroke_b	b	n/a
541.3355	0.06	1082671	keystroke_l	l	n/a
541.5155	0.045	1083031	keystroke_i	i	n/a
541.6805	0.12	1083361	keystroke_n	n	n/a
541.8305	0.06	1083661	keystroke_k	k	n/a
541.9805	0.105	1083961	keystroke_Key.space	Key.space	n/a
542.2355	0.075	1084471	keystroke_r	r	n/a
542.2955	0.09	1084591	keystroke_e	e	n/a
542.4605	0.105	1084921	keystroke_s	s	n/a
542.5805	0.09	1085161	keystroke_i	i	n/a
542.7605	0.105	1085521	keystroke_d	d	n/a
542.9405	0.09	1085881	keystroke_e	e	n/a
543.0605	0.09	1086121	keystroke_n	n	n/a
543.1655	0.075	1086331	keystroke_t	t	n/a
543.3905	0.075	1086781	keystroke_i	i	n/a
543.4955	0.135	1086991	keystroke_a	a	n/a
