onset	duration	sample	value	key	prompt_text
5.359	7.83	10718	prompt	n/a	the quick brown fox jumps over a lazy dog\n
7.4125	0.043	14825	keystroke_t	t	n/a
7.4135	0.1175	14827	keystroke_h	h	n/a
7.516	0.12	15032	keystroke_e	e	n/a
7.651	0.1205	15302	keystroke_Key.space	Key.space	n/a
7.8315	0.09	15663	keystroke_q	q	n/a
7.9365	0.0445	15873	keystroke_u	u	n/a
7.9515	0.1345	15903	keystroke_i	i	n/a
8.101	0.135	16202	keystroke_c	c	n/a
8.206	0.105	16412	keystroke_k	k	n/a
8.386	0.12	16772	keystroke_Key.space	Key.space	n/a
8.596	0.075	17192	keystroke_b	b	n/a
8.8655	0.06	17731	keystroke_r	r	n/a
8.9705	0.12	17941	keystroke_o	o	n/a
9.0755	0.12	18151	keystroke_w	w	n/a
9.1505	0.12	18301	keystroke_n	n	n/a
9.3605	0.1045	18721	keystroke_Key.space	Key.space	n/a
9.4805	0.105	18961	keystroke_f	f	n/a
9.5555	0.12	19111	keystroke_o	o	n/a
9.7205	0.12	19441	keystroke_x	x	n/a
9.8555	0.135	19711	keystroke_Key.space	Key.space	n/a
10.0055	0.105	20011	keystroke_j	j	n/a
10.2305	0.06	20461	keystroke_u	u	n/a
10.4545	0.106	20909	keystroke_m	m	n/a
10.6345	0.091	21269	keystroke_p	p	n/a
11.0255	0.135	22051	keystroke_s	s	n/a
11.1755	0.135	22351	keystroke_Key.space	Key.space	n/a
11.3855	0.075	22771	keystroke_o	o	n/a
11.4005	0.09	22801	keystroke_v	v	n/a
11.551	0.1345	23102	keystroke_e	e	n/a
11.6405	0.075	23281	keystroke_r	r	n/a
11.7305	0.09	23461	keystroke_Key.space	Key.space	n/a
11.8355	0.105	23671	keystroke_a	a	n/a
11.9405	0.12	23881	keystroke_Key.space	Key.space	n/a
12.0615	0.149	24123	keystroke_l	l	n/a
12.1805	0.105	24361	keystroke_a	a	n/a
12.4355	0.12	24871	keystroke_z	z	n/a
12.5705	0.06	25141	keystroke_y	y	n/a
12.75	0.09	25500	keystroke_Key.space	Key.space	n/a
12.7955	0.12	25591	keystroke_d	d	n/a
12.886	0.1195	25772	keystroke_o	o	n/a
12.991	0.06	25982	keystroke_g	g	n/a
13.1255	0.059	26251	keystroke_Key.enter	Key.enter	n/a
13.1945	7.089	26389	prompt	n/a	hope andale psychiatry ryan\n
14.1005	0.1205	28201	keystroke_h	h	n/a
14.235	0.196	28470	keystroke_o	o	n/a
14.296	0.119	28592	keystroke_p	p	n/a
14.4005	0.105	28801	keystroke_e	e	n/a
14.565	0.1505	29130	keystroke_Key.space	Key.space	n/a
14.836	0.1795	29672	keystroke_a	a	n/a
15.0305	0.149	30061	keystroke_n	n	n/a
15.9005	0.165	31801	keystroke_d	d	n/a
16.0195	0.121	32039	keystroke_a	a	n/a
16.11	0.1355	32220	keystroke_l	l	n/a
16.2005	0.1045	32401	keystroke_e	e	n/a
16.336	0.104	32672	keystroke_Key.space	Key.space	n/a
16.515	0.135	33030	keystroke_p	p	n/a
16.711	0.135	33422	keystroke_s	s	n/a
16.8305	0.09	33661	keystroke_y	y	n/a
17.1005	0.1195	34201	keystroke_c	c	n/a
17.2655	0.15	34531	keystroke_h	h	n/a
17.431	0.105	34862	keystroke_i	i	n/a
17.566	0.135	35132	keystroke_a	a	n/a
17.8055	0.075	35611	keystroke_t	t	n/a
18.0155	0.0745	36031	keystroke_r	r	n/a
18.1355	0.075	36271	keystroke_y	y	n/a
18.2995	0.1205	36599	keystroke_Key.space	Key.space	n/a
18.451	0.1195	36902	keystroke_r	r	n/a
18.7355	0.15	37471	keystroke_h	h	n/a
19.3355	0.1205	38671	keystroke_Key.backspace	Key.backspace	n/a
19.6805	0.09	39361	keystroke_y	y	n/a
19.8755	0.1355	39751	keystroke_a	a	n/a
19.966	0.0895	39932	keystroke_n	n	n/a
20.2055	0.075	40411	keystroke_Key.enter	Key.enter	n/a
20.2865	6.011	40573	prompt	n/a	wearing limitations wizard than\n
20.926	0.119	41852	keystroke_w	w	n/a
21.0155	0.09	42031	keystroke_e	e	n/a
21.1805	0.045	42361	keystroke_w	w	n/a
21.6455	0.105	43291	keystroke_Key.backspace	Key.backspace	n/a
21.8705	0.135	43741	keystroke_a	a	n/a
21.9755	0.0905	43951	keystroke_r	r	n/a
22.1705	0.105	44341	keystroke_i	i	n/a
22.291	0.1195	44582	keystroke_n	n	n/a
22.411	0.0595	44822	keystroke_g	g	n/a
22.5455	0.135	45091	keystroke_Key.space	Key.space	n/a
22.6655	0.15	45331	keystroke_l	l	n/a
22.7705	0.12	45541	keystroke_i	i	n/a
22.891	0.1495	45782	keystroke_m	m	n/a
23.0255	0.135	46051	keystroke_i	i	n/a
23.3105	0.075	46621	keystroke_t	t	n/a
23.4305	0.105	46861	keystroke_a	a	n/a
23.506	0.12	47012	keystroke_t	t	n/a
23.641	0.1195	47282	keystroke_i	i	n/a
23.7455	0.105	47491	keystroke_o	o	n/a
23.836	0.1045	47672	keystroke_n	n	n/a
24.0005	0.15	48001	keystroke_s	s	n/a
24.1805	0.135	48361	keystroke_Key.space	Key.space	n/a
24.4655	0.1355	48931	keystroke_w	w	n/a
24.6605	0.165	49321	keystroke_i	i	n/a
24.8555	0.12	49711	keystroke_z	z	n/a
25.1255	0.135	50251	keystroke_a	a	n/a
25.2155	0.18	50431	keystroke_r	r	n/a
25.4105	0.12	50821	keystroke_d	d	n/a
25.5605	0.12	51121	keystroke_Key.space	Key.space	n/a
25.7695	0.076	51539	keystroke_t	t	n/a
25.8305	0.075	51661	keystroke_h	h	n/a
25.92	0.1355	51840	keystroke_a	a	n/a
26.0255	0.0755	52051	keystroke_n	n	n/a
26.2055	0.09	52411	keystroke_Key.enter	Key.enter	n/a
26.303	6.1305	52606	prompt	n/a	shared wilson partners realized\n
26.9555	0.1355	53911	keystroke_s	s	n/a
27.0755	0.09	54151	keystroke_h	h	n/a
27.2405	0.15	54481	keystroke_a	a	n/a
27.3305	0.1355	54661	keystroke_r	r	n/a
27.4505	0.12	54901	keystroke_e	e	n/a
27.691	0.0895	55382	keystroke_d	d	n/a
27.8105	0.1195	55621	keystroke_Key.space	Key.space	n/a
27.9605	0.18	55921	keystroke_w	w	n/a
28.1105	0.15	56221	keystroke_i	i	n/a
28.2905	0.1205	56581	keystroke_l	l	n/a
28.381	0.1345	56762	keystroke_s	s	n/a
28.5455	0.0895	57091	keystroke_o	o	n/a
28.6505	0.1205	57301	keystroke_n	n	n/a
28.8755	0.075	57751	keystroke_Key.space	Key.space	n/a
28.9805	0.105	57961	keystroke_p	p	n/a
29.1155	0.15	58231	keystroke_a	a	n/a
29.2355	0.09	58471	keystroke_r	r	n/a
29.4755	0.135	58951	keystroke_t	t	n/a
30.465	0.121	60930	keystroke_n	n	n/a
30.57	0.2555	61140	keystroke_e	e	n/a
30.661	0.1655	61322	keystroke_r	r	n/a
30.796	0.1645	61592	keystroke_s	s	n/a
30.9455	0.15	61891	keystroke_Key.space	Key.space	n/a
31.1105	0.165	62221	keystroke_r	r	n/a
31.1855	0.1355	62371	keystroke_e	e	n/a
31.26	0.1655	62520	keystroke_a	a	n/a
31.3805	0.1205	62761	keystroke_l	l	n/a
31.636	0.135	63272	keystroke_i	i	n/a
31.8305	0.1205	63661	keystroke_z	z	n/a
31.9205	0.105	63841	keystroke_e	e	n/a
32.161	0.1345	64322	keystroke_d	d	n/a
32.34	0.0905	64680	keystroke_Key.enter	Key.enter	n/a
32.4365	5.4415	64873	prompt	n/a	empty ideal needn't espn\n
33.031	0.1495	66062	keystroke_e	e	n/a
33.1955	0.09	66391	keystroke_m	m	n/a
33.376	0.105	66752	keystroke_p	p	n/a
33.5555	0.1205	67111	keystroke_t	t	n/a
33.706	0.074	67412	keystroke_y	y	n/a
33.9155	0.1345	67831	keystroke_Key.space	Key.space	n/a
34.141	0.149	68282	keystroke_i	i	n/a
34.261	0.1045	68522	keystroke_d	d	n/a
34.456	0.134	68912	keystroke_e	e	n/a
34.5455	0.1505	69091	keystroke_a	a	n/a
34.921	0.135	69842	keystroke_l	l	n/a
35.1455	0.135	70291	keystroke_Key.space	Key.space	n/a
35.4155	0.12	70831	keystroke_n	n	n/a
35.4905	0.105	70981	keystroke_e	e	n/a
35.671	0.0895	71342	keystroke_e	e	n/a
35.8955	0.1205	71791	keystroke_d	d	n/a
36.1505	0.09	72301	keystroke_n	n	n/a
36.3	0.121	72600	keystroke_'	'	n/a
36.436	0.1045	72872	keystroke_t	t	n/a
36.66	0.136	73320	keystroke_Key.space	Key.space	n/a
37.065	0.196	74130	keystroke_e	e	n/a
37.185	0.135	74370	keystroke_s	s	n/a
37.3955	0.0905	74791	keystroke_p	p	n/a
37.5755	0.1055	75151	keystroke_n	n	n/a
37.785	0.091	75570	keystroke_Key.enter	Key.enter	n/a
37.883	5.2165	75766	prompt	n/a	forbidden become card cole\n
38.491	0.149	76982	keystroke_f	f	n/a
38.581	0.119	77162	keystroke_o	o	n/a
38.7455	0.0905	77491	keystroke_r	r	n/a
39.0605	0.075	78121	keystroke_b	b	n/a
39.166	0.1345	78332	keystroke_i	i	n/a
39.2555	0.105	78511	keystroke_d	d	n/a
39.421	0.149	78842	keystroke_d	d	n/a
39.66	0.121	79320	keystroke_e	e	n/a
40.155	0.1055	80310	keystroke_n	n	n/a
40.3955	0.135	80791	keystroke_Key.space	Key.space	n/a
40.6355	0.0905	81271	keystroke_b	b	n/a
40.771	0.06	81542	keystroke_e	e	n/a
40.966	0.09	81932	keystroke_c	c	n/a
41.041	0.0895	82082	keystroke_o	o	n/a
41.131	0.1345	82262	keystroke_m	m	n/a
41.206	0.105	82412	keystroke_e	e	n/a
41.371	0.135	82742	keystroke_Key.space	Key.space	n/a
41.4755	0.15	82951	keystroke_c	c	n/a
41.8055	0.1495	83611	keystroke_a	a	n/a
41.911	0.135	83822	keystroke_r	r	n/a
42.061	0.195	84122	keystroke_d	d	n/a
42.271	0.104	84542	keystroke_Key.space	Key.space	n/a
42.481	0.1205	84962	keystroke_c	c	n/a
42.586	0.074	85172	keystroke_o	o	n/a
42.781	0.12	85562	keystroke_l	l	n/a
42.84	0.106	85680	keystroke_e	e	n/a
43.035	0.061	86070	keystroke_Key.enter	Key.enter	n/a
43.106	5.2285	86212	prompt	n/a	bacteria remote fine only\n
44.2355	0.09	88471	keystroke_b	b	n/a
44.821	0.1645	89642	keystroke_a	a	n/a
45.0905	0.0905	90181	keystroke_c	c	n/a
45.406	0.1045	90812	keystroke_t	t	n/a
45.5415	0.149	91083	keystroke_e	e	n/a
45.6455	0.1355	91291	keystroke_r	r	n/a
45.9005	0.1205	91801	keystroke_i	i	n/a
45.9905	0.1505	91981	keystroke_a	a	n/a
46.1855	0.1505	92371	keystroke_Key.space	Key.space	n/a
46.366	0.15	92732	keystroke_r	r	n/a
46.486	0.12	92972	keystroke_e	e	n/a
46.591	0.09	93182	keystroke_m	m	n/a
46.71	0.121	93420	keystroke_o	o	n/a
46.815	0.1205	93630	keystroke_t	t	n/a
46.906	0.09	93812	keystroke_e	e	n/a
46.98	0.1205	93960	keystroke_Key.space	Key.space	n/a
47.116	0.12	94232	keystroke_f	f	n/a
47.19	0.106	94380	keystroke_i	i	n/a
47.2805	0.1205	94561	keystroke_n	n	n/a
47.356	0.0745	94712	keystroke_e	e	n/a
47.52	0.0905	95040	keystroke_Key.space	Key.space	n/a
47.625	0.0905	95250	keystroke_o	o	n/a
47.716	0.15	95432	keystroke_n	n	n/a
47.881	0.1045	95762	keystroke_l	l	n/a
48.016	0.0745	96032	keystroke_y	y	n/a
48.2555	0.075	96511	keystroke_Key.enter	Key.enter	n/a
48.339	7.898	96678	prompt	n/a	grace flowers sexuality fujitsu\n
49.0655	0.0905	98131	keystroke_g	g	n/a
49.2605	0.1055	98521	keystroke_r	r	n/a
49.3355	0.165	98671	keystroke_a	a	n/a
49.6655	0.09	99331	keystroke_c	c	n/a
49.8605	0.1055	99721	keystroke_e	e	n/a
50.011	0.12	100022	keystroke_Key.space	Key.space	n/a
50.221	0.15	100442	keystroke_f	f	n/a
50.386	0.105	100772	keystroke_l	l	n/a
50.581	0.09	101162	keystroke_o	o	n/a
50.641	0.12	101282	keystroke_w	w	n/a
50.731	0.12	101462	keystroke_e	e	n/a
50.791	0.151	101582	keystroke_r	r	n/a
50.926	0.12	101852	keystroke_s	s	n/a
51.106	0.1345	102212	keystroke_Key.space	Key.space	n/a
51.256	0.165	102512	keystroke_s	s	n/a
51.391	0.105	102782	keystroke_e	e	n/a
51.661	0.12	103322	keystroke_x	x	n/a
51.811	0.12	103622	keystroke_u	u	n/a
51.901	0.12	103802	keystroke_a	a	n/a
52.081	0.12	104162	keystroke_l	l	n/a
52.351	0.105	104702	keystroke_i	i	n/a
52.426	0.15	104852	keystroke_t	t	n/a
52.591	0.09	105182	keystroke_y	y	n/a
52.7855	0.135	105571	keystroke_Key.space	Key.space	n/a
52.9055	0.1505	105811	keystroke_f	f	n/a
53.101	0.1195	106202	keystroke_i	i	n/a
53.641	0.075	107282	keystroke_Key.backspace	Key.backspace	n/a
54.256	0.075	108512	keystroke_u	u	n/a
54.586	0.134	109172	keystroke_j	j	n/a
54.931	0.105	109862	keystroke_i	i	n/a
55.6215	0.134	111243	keystroke_t	t	n/a
55.8605	0.1205	111721	keystroke_s	s	n/a
55.951	0.105	111902	keystroke_u	u	n/a
56.176	0.06	112352	keystroke_Key.enter	Key.enter	n/a
56.24	5.537	112480	prompt	n/a	ecology harper offensive markers\n
56.911	0.0895	113822	keystroke_e	e	n/a
57.1655	0.1055	114331	keystroke_c	c	n/a
57.2405	0.09	114481	keystroke_o	o	n/a
57.526	0.0745	115052	keystroke_l	l	n/a
57.7055	0.1355	115411	keystroke_o	o	n/a
58.006	0.1345	116012	keystroke_g	g	n/a
58.2015	0.074	116403	keystroke_y	y	n/a
58.41	0.1355	116820	keystroke_Key.space	Key.space	n/a
58.6805	0.0905	117361	keystroke_h	h	n/a
58.786	0.1345	117572	keystroke_a	a	n/a
58.891	0.1045	117782	keystroke_r	r	n/a
59.1305	0.075	118261	keystroke_p	p	n/a
59.1905	0.135	118381	keystroke_e	e	n/a
59.2655	0.105	118531	keystroke_r	r	n/a
59.4305	0.12	118861	keystroke_Key.space	Key.space	n/a
59.6405	0.1205	119281	keystroke_o	o	n/a
59.746	0.09	119492	keystroke_f	f	n/a
59.941	0.0895	119882	keystroke_f	f	n/a
60.0605	0.1205	120121	keystroke_e	e	n/a
60.196	0.1195	120392	keystroke_n	n	n/a
60.331	0.12	120662	keystroke_s	s	n/a
60.4355	0.1205	120871	keystroke_i	i	n/a
60.5855	0.105	121171	keystroke_v	v	n/a
60.661	0.1345	121322	keystroke_e	e	n/a
60.811	0.105	121622	keystroke_Key.space	Key.space	n/a
60.946	0.165	121892	keystroke_m	m	n/a
61.0355	0.165	122071	keystroke_a	a	n/a
61.1405	0.091	122281	keystroke_r	r	n/a
61.2455	0.166	122491	keystroke_k	k	n/a
61.3355	0.21	122671	keystroke_e	e	n/a
61.3955	0.151	122791	keystroke_r	r	n/a
61.5315	0.1195	123063	keystroke_s	s	n/a
61.681	0.09	123362	keystroke_Key.enter	Key.enter	n/a
61.777	7.2855	123554	prompt	n/a	listening provisions pool household\n
62.386	0.135	124772	keystroke_l	l	n/a
62.506	0.135	125012	keystroke_i	i	n/a
62.596	0.12	125192	keystroke_s	s	n/a
62.686	0.135	125372	keystroke_t	t	n/a
62.806	0.134	125612	keystroke_e	e	n/a
63.436	0.119	126872	keystroke_n	n	n/a
63.63	0.151	127260	keystroke_i	i	n/a
63.7655	0.1355	127531	keystroke_n	n	n/a
63.916	0.0745	127832	keystroke_g	g	n/a
64.0505	0.09	128101	keystroke_Key.space	Key.space	n/a
64.2305	0.135	128461	keystroke_p	p	n/a
64.4105	0.105	128821	keystroke_r	r	n/a
64.5305	0.12	129061	keystroke_o	o	n/a
64.7415	0.1045	129483	keystroke_v	v	n/a
64.9355	0.12	129871	keystroke_i	i	n/a
65.3705	0.15	130741	keystroke_s	s	n/a
65.4605	0.135	130921	keystroke_i	i	n/a
65.581	0.0745	131162	keystroke_o	o	n/a
65.6405	0.135	131281	keystroke_n	n	n/a
65.7455	0.1355	131491	keystroke_s	s	n/a
65.911	0.074	131822	keystroke_Key.space	Key.space	n/a
66.03	0.121	132060	keystroke_p	p	n/a
66.241	0.105	132482	keystroke_o	o	n/a
66.781	0.105	133562	keystroke_o	o	n/a
67.201	0.135	134402	keystroke_l	l	n/a
67.426	0.104	134852	keystroke_Key.space	Key.space	n/a
67.6505	0.0755	135301	keystroke_h	h	n/a
67.711	0.165	135422	keystroke_o	o	n/a
67.816	0.134	135632	keystroke_u	u	n/a
67.921	0.1505	135842	keystroke_s	s	n/a
68.041	0.1195	136082	keystroke_e	e	n/a
68.461	0.105	136922	keystroke_h	h	n/a
68.5805	0.0755	137161	keystroke_o	o	n/a
68.7605	0.135	137521	keystroke_l	l	n/a
68.8355	0.12	137671	keystroke_d	d	n/a
69.0005	0.06	138001	keystroke_Key.enter	Key.enter	n/a
69.067	6.3555	138134	prompt	n/a	peaceful doctrine healthcare automobile\n
69.661	0.12	139322	keystroke_p	p	n/a
69.751	0.15	139502	keystroke_e	e	n/a
69.856	0.134	139712	keystroke_a	a	n/a
70.05	0.091	140100	keystroke_c	c	n/a
70.291	0.15	140582	keystroke_e	e	n/a
70.426	0.195	140852	keystroke_f	f	n/a
70.6055	0.0755	141211	keystroke_u	u	n/a
70.726	0.1795	141452	keystroke_l	l	n/a
70.921	0.149	141842	keystroke_Key.space	Key.space	n/a
71.056	0.134	142112	keystroke_d	d	n/a
71.206	0.089	142412	keystroke_o	o	n/a
71.311	0.104	142622	keystroke_c	c	n/a
71.506	0.089	143012	keystroke_t	t	n/a
71.715	0.106	143430	keystroke_r	r	n/a
71.88	0.1205	143760	keystroke_i	i	n/a
72.0305	0.1355	144061	keystroke_n	n	n/a
72.1355	0.105	144271	keystroke_e	e	n/a
72.3155	0.0905	144631	keystroke_Key.space	Key.space	n/a
72.4655	0.1205	144931	keystroke_h	h	n/a
72.5405	0.12	145081	keystroke_e	e	n/a
72.6455	0.1205	145291	keystroke_a	a	n/a
72.7055	0.1055	145411	keystroke_l	l	n/a
72.8405	0.121	145681	keystroke_t	t	n/a
72.9465	0.1045	145893	keystroke_h	h	n/a
73.1705	0.1205	146341	keystroke_c	c	n/a
73.2755	0.12	146551	keystroke_a	a	n/a
73.3655	0.105	146731	keystroke_r	r	n/a
73.441	0.135	146882	keystroke_e	e	n/a
73.6205	0.075	147241	keystroke_Key.space	Key.space	n/a
73.7555	0.135	147511	keystroke_a	a	n/a
73.8755	0.075	147751	keystroke_u	u	n/a
74.0555	0.106	148111	keystroke_t	t	n/a
74.1755	0.09	148351	keystroke_o	o	n/a
74.535	0.1365	149070	keystroke_m	m	n/a
74.7605	0.09	149521	keystroke_o	o	n/a
74.9255	0.075	149851	keystroke_b	b	n/a
75.046	0.1195	150092	keystroke_i	i	n/a
75.151	0.1345	150302	keystroke_l	l	n/a
75.2115	0.0895	150423	keystroke_e	e	n/a
75.3605	0.0605	150721	keystroke_Key.enter	Key.enter	n/a
75.4275	4.601	150855	prompt	n/a	burn activated beans daughters\n
76.051	0.075	152102	keystroke_b	b	n/a
76.155	0.091	152310	keystroke_u	u	n/a
76.261	0.105	152522	keystroke_r	r	n/a
76.396	0.09	152792	keystroke_n	n	n/a
76.591	0.134	153182	keystroke_Key.space	Key.space	n/a
76.666	0.09	153332	keystroke_a	a	n/a
76.815	0.15	153630	keystroke_c	c	n/a
76.981	0.104	153962	keystroke_t	t	n/a
77.115	0.135	154230	keystroke_i	i	n/a
77.281	0.1345	154562	keystroke_v	v	n/a
77.4165	0.1645	154833	keystroke_a	a	n/a
77.566	0.105	155132	keystroke_t	t	n/a
77.641	0.1045	155282	keystroke_e	e	n/a
77.881	0.105	155762	keystroke_d	d	n/a
78.0755	0.105	156151	keystroke_Key.space	Key.space	n/a
78.1355	0.0905	156271	keystroke_b	b	n/a
78.2715	0.134	156543	keystroke_e	e	n/a
78.3755	0.136	156751	keystroke_a	a	n/a
78.526	0.165	157052	keystroke_n	n	n/a
78.6305	0.1355	157261	keystroke_s	s	n/a
78.811	0.09	157622	keystroke_Key.space	Key.space	n/a
78.931	0.195	157862	keystroke_d	d	n/a
79.111	0.12	158222	keystroke_a	a	n/a
79.261	0.105	158522	keystroke_u	u	n/a
79.396	0.105	158792	keystroke_g	g	n/a
79.486	0.104	158972	keystroke_h	h	n/a
79.561	0.255	159122	keystroke_e	e	n/a
79.636	0.15	159272	keystroke_r	r	n/a
79.756	0.165	159512	keystroke_s	s	n/a
79.981	0.045	159962	keystroke_Key.enter	Key.enter	n/a
80.0335	4.824	160067	prompt	n/a	config municipal isn't speak\n
80.671	0.105	161342	keystroke_c	c	n/a
80.731	0.0895	161462	keystroke_o	o	n/a
80.8355	0.1355	161671	keystroke_n	n	n/a
80.911	0.135	161822	keystroke_f	f	n/a
81.031	0.135	162062	keystroke_i	i	n/a
81.241	0.12	162482	keystroke_g	g	n/a
81.39	0.106	162780	keystroke_Key.space	Key.space	n/a
81.616	0.045	163232	keystroke_m	m	n/a
81.811	0.075	163622	keystroke_u	u	n/a
82.036	0.075	164072	keystroke_n	n	n/a
82.141	0.15	164282	keystroke_i	i	n/a
82.3515	0.1345	164703	keystroke_c	c	n/a
82.561	0.135	165122	keystroke_i	i	n/a
82.966	0.09	165932	keystroke_p	p	n/a
83.086	0.165	166172	keystroke_a	a	n/a
83.236	0.165	166472	keystroke_l	l	n/a
83.43	0.121	166860	keystroke_Key.space	Key.space	n/a
83.566	0.12	167132	keystroke_i	i	n/a
83.701	0.12	167402	keystroke_s	s	n/a
83.746	0.09	167492	keystroke_n	n	n/a
83.911	0.105	167822	keystroke_'	'	n/a
84.031	0.075	168062	keystroke_t	t	n/a
84.1505	0.1045	168301	keystroke_Key.space	Key.space	n/a
84.285	0.151	168570	keystroke_s	s	n/a
84.361	0.105	168722	keystroke_p	p	n/a
84.451	0.12	168902	keystroke_e	e	n/a
84.526	0.15	169052	keystroke_a	a	n/a
84.616	0.12	169232	keystroke_k	k	n/a
84.796	0.06	169592	keystroke_Key.enter	Key.enter	n/a
84.862	4.256	169724	prompt	n/a	ensures logo timing libs\n
85.531	0.12	171062	keystroke_e	e	n/a
85.606	0.15	171212	keystroke_n	n	n/a
85.741	0.12	171482	keystroke_s	s	n/a
85.921	0.135	171842	keystroke_u	u	n/a
86.041	0.1795	172082	keystroke_r	r	n/a
86.1455	0.18	172291	keystroke_e	e	n/a
86.236	0.1195	172472	keystroke_s	s	n/a
86.4005	0.12	172801	keystroke_Key.space	Key.space	n/a
86.671	0.09	173342	keystroke_l	l	n/a
86.8655	0.076	173731	keystroke_o	o	n/a
87.121	0.134	174242	keystroke_g	g	n/a
87.2705	0.1055	174541	keystroke_o	o	n/a
87.556	0.1195	175112	keystroke_Key.space	Key.space	n/a
87.751	0.1195	175502	keystroke_t	t	n/a
87.8255	0.09	175651	keystroke_i	i	n/a
87.9305	0.1205	175861	keystroke_m	m	n/a
88.1555	0.105	176311	keystroke_i	i	n/a
88.246	0.134	176492	keystroke_n	n	n/a
88.411	0.105	176822	keystroke_g	g	n/a
88.53	0.12	177060	keystroke_Key.space	Key.space	n/a
88.635	0.165	177270	keystroke_l	l	n/a
88.756	0.134	177512	keystroke_i	i	n/a
88.816	0.104	177632	keystroke_b	b	n/a
88.905	0.151	177810	keystroke_s	s	n/a
89.071	0.044	178142	keystroke_Key.enter	Key.enter	n/a
89.127	5.1665	178254	prompt	n/a	behalf chassis ensures heroes\n
89.791	0.06	179582	keystroke_b	b	n/a
89.926	0.075	179852	keystroke_e	e	n/a
90.061	0.149	180122	keystroke_h	h	n/a
90.1955	0.1505	180391	keystroke_a	a	n/a
90.361	0.12	180722	keystroke_l	l	n/a
90.436	0.165	180872	keystroke_f	f	n/a
90.631	0.12	181262	keystroke_Key.space	Key.space	n/a
90.916	0.1495	181832	keystroke_c	c	n/a
91.036	0.12	182072	keystroke_h	h	n/a
91.1255	0.165	182251	keystroke_a	a	n/a
91.246	0.1345	182492	keystroke_s	s	n/a
91.5155	0.15	183031	keystroke_i	i	n/a
91.6365	0.15	183273	keystroke_s	s	n/a
91.906	0.135	183812	keystroke_Key.space	Key.space	n/a
92.236	0.135	184472	keystroke_e	e	n/a
92.326	0.1495	184652	keystroke_n	n	n/a
92.52	0.166	185040	keystroke_s	s	n/a
92.82	0.151	185640	keystroke_u	u	n/a
92.926	0.135	185852	keystroke_r	r	n/a
93.0155	0.1645	186031	keystroke_e	e	n/a
93.106	0.12	186212	keystroke_s	s	n/a
93.256	0.119	186512	keystroke_Key.space	Key.space	n/a
93.361	0.15	186722	keystroke_h	h	n/a
93.4955	0.2405	186991	keystroke_e	e	n/a
93.646	0.12	187292	keystroke_r	r	n/a
93.796	0.135	187592	keystroke_o	o	n/a
93.916	0.209	187832	keystroke_e	e	n/a
94.036	0.135	188072	keystroke_s	s	n/a
94.185	0.106	188370	keystroke_Key.enter	Key.enter	n/a
94.2975	8.0355	188595	prompt	n/a	punishment inquiry explanation latex\n
95.101	0.1805	190202	keystroke_p	p	n/a
95.2655	0.105	190531	keystroke_u	u	n/a
95.536	0.0895	191072	keystroke_n	n	n/a
95.686	0.1495	191372	keystroke_i	i	n/a
95.8505	0.105	191701	keystroke_s	s	n/a
95.911	0.075	191822	keystroke_h	h	n/a
96.1355	0.1355	192271	keystroke_m	m	n/a
96.256	0.1045	192512	keystroke_e	e	n/a
96.376	0.1355	192752	keystroke_n	n	n/a
96.481	0.09	192962	keystroke_t	t	n/a
96.645	0.1355	193290	keystroke_Key.space	Key.space	n/a
96.766	0.1495	193532	keystroke_i	i	n/a
96.9165	0.134	193833	keystroke_n	n	n/a
97.1255	0.165	194251	keystroke_q	q	n/a
97.2755	0.105	194551	keystroke_u	u	n/a
97.366	0.1195	194732	keystroke_i	i	n/a
97.7705	0.1805	195541	keystroke_r	r	n/a
98.041	0.105	196082	keystroke_y	y	n/a
98.296	0.135	196592	keystroke_Key.space	Key.space	n/a
98.491	0.09	196982	keystroke_e	e	n/a
98.761	0.12	197522	keystroke_x	x	n/a
98.851	0.09	197702	keystroke_p	p	n/a
98.956	0.195	197912	keystroke_l	l	n/a
99.106	0.1655	198212	keystroke_a	a	n/a
99.811	0.1345	199622	keystroke_n	n	n/a
99.9755	0.165	199951	keystroke_a	a	n/a
100.1555	0.12	200311	keystroke_t	t	n/a
100.2905	0.1205	200581	keystroke_i	i	n/a
100.3805	0.135	200761	keystroke_o	o	n/a
100.5005	0.12	201001	keystroke_n	n	n/a
100.756	0.12	201512	keystroke_Key.space	Key.space	n/a
101.086	0.165	202172	keystroke_l	l	n/a
101.206	0.18	202412	keystroke_a	a	n/a
101.491	0.15	202982	keystroke_t	t	n/a
101.671	0.105	203342	keystroke_e	e	n/a
101.9405	0.1355	203881	keystroke_x	x	n/a
102.2405	0.0895	204481	keystroke_Key.enter	Key.enter	n/a
102.342	11.556	204684	prompt	n/a	frozen metallic coordinator jane\n
102.991	0.165	205982	keystroke_f	f	n/a
103.141	0.119	206282	keystroke_o	o	n/a
103.245	0.106	206490	keystroke_r	r	n/a
103.4405	0.166	206881	keystroke_z	z	n/a
103.5605	0.18	207121	keystroke_e	e	n/a
103.7255	0.12	207451	keystroke_n	n	n/a
103.9355	0.15	207871	keystroke_Key.space	Key.space	n/a
104.2355	0.1805	208471	keystroke_m	m	n/a
104.431	0.09	208862	keystroke_e	e	n/a
104.7165	0.1045	209433	keystroke_t	t	n/a
104.836	0.18	209672	keystroke_a	a	n/a
105.016	0.165	210032	keystroke_l	l	n/a
105.151	0.135	210302	keystroke_i	i	n/a
105.256	0.12	210512	keystroke_c	c	n/a
105.436	0.135	210872	keystroke_Key.space	Key.space	n/a
105.811	0.105	211622	keystroke_c	c	n/a
105.886	0.074	211772	keystroke_o	o	n/a
106.096	0.1195	212192	keystroke_o	o	n/a
106.261	0.134	212522	keystroke_r	r	n/a
106.591	0.1045	213182	keystroke_d	d	n/a
106.6805	0.1055	213361	keystroke_i	i	n/a
106.801	0.15	213602	keystroke_n	n	n/a
112.518	0.088	225036	keystroke_a	a	n/a
112.621	0.12	225242	keystroke_t	t	n/a
112.742	0.119	225484	keystroke_o	o	n/a
112.876	0.12	225752	keystroke_r	r	n/a
113.071	0.1495	226142	keystroke_Key.space	Key.space	n/a
113.2365	0.149	226473	keystroke_j	j	n/a
113.3255	0.1655	226651	keystroke_a	a	n/a
113.4915	0.1495	226983	keystroke_n	n	n/a
113.6105	0.105	227221	keystroke_e	e	n/a
113.776	0.1195	227552	keystroke_Key.enter	Key.enter	n/a
113.9035	6.4295	227807	prompt	n/a	isn't kennedy bored consumers\n
115.9825	0.058	231965	keystroke_i	i	n/a
116.056	0.1055	232112	keystroke_s	s	n/a
116.1005	0.106	232201	keystroke_n	n	n/a
116.2655	0.105	232531	keystroke_'	'	n/a
116.401	0.0745	232802	keystroke_t	t	n/a
116.5505	0.135	233101	keystroke_Key.space	Key.space	n/a
116.911	0.165	233822	keystroke_k	k	n/a
117.001	0.135	234002	keystroke_e	e	n/a
117.181	0.075	234362	keystroke_n	n	n/a
117.331	0.15	234662	keystroke_n	n	n/a
117.436	0.12	234872	keystroke_e	e	n/a
117.691	0.09	235382	keystroke_d	d	n/a
117.826	0.09	235652	keystroke_y	y	n/a
118.0355	0.1205	236071	keystroke_Key.space	Key.space	n/a
118.066	0.105	236132	keystroke_b	b	n/a
118.186	0.135	236372	keystroke_o	o	n/a
118.2915	0.1345	236583	keystroke_r	r	n/a
118.3805	0.1045	236761	keystroke_e	e	n/a
118.606	0.0745	237212	keystroke_d	d	n/a
118.6655	0.135	237331	keystroke_Key.space	Key.space	n/a
118.831	0.1345	237662	keystroke_c	c	n/a
119.1005	0.1055	238201	keystroke_o	o	n/a
119.325	0.166	238650	keystroke_n	n	n/a
119.4605	0.135	238921	keystroke_s	s	n/a
119.671	0.075	239342	keystroke_u	u	n/a
119.896	0.1355	239792	keystroke_m	m	n/a
119.926	0.2245	239852	keystroke_e	e	n/a
119.9865	0.134	239973	keystroke_r	r	n/a
120.1055	0.15	240211	keystroke_s	s	n/a
120.2705	0.06	240541	keystroke_Key.enter	Key.enter	n/a
120.337	5.891	240674	prompt	n/a	surgical changed maker computing\n
120.9765	0.149	241953	keystroke_s	s	n/a
121.1265	0.1045	242253	keystroke_u	u	n/a
121.2455	0.075	242491	keystroke_r	r	n/a
121.4565	0.1195	242913	keystroke_g	g	n/a
121.531	0.135	243062	keystroke_i	i	n/a
121.7715	0.1795	243543	keystroke_c	c	n/a
122.026	0.15	244052	keystroke_a	a	n/a
122.101	0.12	244202	keystroke_l	l	n/a
122.311	0.105	244622	keystroke_Key.space	Key.space	n/a
122.536	0.15	245072	keystroke_c	c	n/a
122.596	0.075	245192	keystroke_h	h	n/a
122.701	0.135	245402	keystroke_a	a	n/a
122.791	0.1205	245582	keystroke_n	n	n/a
122.896	0.15	245792	keystroke_g	g	n/a
123.031	0.045	246062	keystroke_e	e	n/a
123.211	0.0895	246422	keystroke_d	d	n/a
123.361	0.105	246722	keystroke_Key.space	Key.space	n/a
123.631	0.135	247262	keystroke_m	m	n/a
123.7065	0.119	247413	keystroke_a	a	n/a
123.8855	0.1655	247771	keystroke_k	k	n/a
124.036	0.18	248072	keystroke_e	e	n/a
124.156	0.1055	248312	keystroke_r	r	n/a
124.2615	0.1345	248523	keystroke_Key.space	Key.space	n/a
124.5755	0.03	249151	keystroke_c	c	n/a
124.5905	0.0755	249181	keystroke_o	o	n/a
124.681	0.135	249362	keystroke_m	m	n/a
124.861	0.1505	249722	keystroke_p	p	n/a
124.996	0.1045	249992	keystroke_u	u	n/a
125.1305	0.12	250261	keystroke_t	t	n/a
125.281	0.135	250562	keystroke_i	i	n/a
125.776	0.1645	251552	keystroke_n	n	n/a
125.896	0.09	251792	keystroke_g	g	n/a
126.1655	0.0605	252331	keystroke_Key.enter	Key.enter	n/a
126.232	6.7005	252464	prompt	n/a	writer thumb fastest choir\n
126.961	0.1195	253922	keystroke_w	w	n/a
127.1255	0.135	254251	keystroke_r	r	n/a
127.2755	0.1355	254551	keystroke_i	i	n/a
127.4405	0.105	254881	keystroke_t	t	n/a
127.591	0.1355	255182	keystroke_e	e	n/a
127.696	0.1045	255392	keystroke_r	r	n/a
127.9505	0.105	255901	keystroke_Key.space	Key.space	n/a
128.6255	0.12	257251	keystroke_t	t	n/a
128.686	0.09	257372	keystroke_h	h	n/a
128.881	0.075	257762	keystroke_u	u	n/a
129.091	0.105	258182	keystroke_m	m	n/a
129.241	0.06	258482	keystroke_b	b	n/a
129.451	0.105	258902	keystroke_Key.space	Key.space	n/a
129.886	0.1795	259772	keystroke_f	f	n/a
130.021	0.1805	260042	keystroke_a	a	n/a
130.111	0.1655	260222	keystroke_s	s	n/a
130.306	0.1945	260612	keystroke_t	t	n/a
130.4705	0.195	260941	keystroke_e	e	n/a
130.606	0.12	261212	keystroke_s	s	n/a
130.696	0.1195	261392	keystroke_t	t	n/a
131.8805	0.135	263761	keystroke_Key.space	Key.space	n/a
132.0455	0.1205	264091	keystroke_c	c	n/a
132.151	0.135	264302	keystroke_h	h	n/a
132.406	0.165	264812	keystroke_o	o	n/a
132.555	0.121	265110	keystroke_i	i	n/a
132.676	0.09	265352	keystroke_r	r	n/a
132.841	0.09	265682	keystroke_Key.enter	Key.enter	n/a
132.9375	7.375	265875	prompt	n/a	preceding vatican porsche similar\n
133.6065	0.075	267213	keystroke_p	p	n/a
133.696	0.15	267392	keystroke_r	r	n/a
133.8155	0.165	267631	keystroke_e	e	n/a
134.191	0.1045	268382	keystroke_c	c	n/a
134.4155	0.135	268831	keystroke_e	e	n/a
134.746	0.1345	269492	keystroke_d	d	n/a
134.9415	0.1195	269883	keystroke_i	i	n/a
135.046	0.1495	270092	keystroke_n	n	n/a
135.181	0.075	270362	keystroke_g	g	n/a
135.331	0.135	270662	keystroke_Key.space	Key.space	n/a
135.691	0.105	271382	keystroke_v	v	n/a
135.8255	0.135	271651	keystroke_a	a	n/a
135.9455	0.1205	271891	keystroke_t	t	n/a
136.081	0.1645	272162	keystroke_i	i	n/a
136.306	0.1195	272612	keystroke_c	c	n/a
136.4265	0.15	272853	keystroke_a	a	n/a
136.5455	0.106	273091	keystroke_n	n	n/a
136.8905	0.1655	273781	keystroke_Key.space	Key.space	n/a
137.177	0.0885	274354	keystroke_p	p	n/a
137.3855	0.1205	274771	keystroke_o	o	n/a
137.5215	0.104	275043	keystroke_r	r	n/a
138.0005	0.0905	276001	keystroke_s	s	n/a
138.1955	0.1055	276391	keystroke_c	c	n/a
138.2855	0.1055	276571	keystroke_h	h	n/a
138.8115	0.135	277623	keystroke_e	e	n/a
138.9755	0.12	277951	keystroke_Key.space	Key.space	n/a
139.171	0.15	278342	keystroke_s	s	n/a
139.231	0.15	278462	keystroke_i	i	n/a
139.396	0.165	278792	keystroke_m	m	n/a
139.546	0.15	279092	keystroke_i	i	n/a
139.681	0.165	279362	keystroke_l	l	n/a
139.861	0.1645	279722	keystroke_a	a	n/a
139.9955	0.1355	279991	keystroke_r	r	n/a
140.221	0.09	280442	keystroke_Key.enter	Key.enter	n/a
140.317	9.596	280634	prompt	n/a	agricultural crash ratio segments\n
142.6975	0.118	285395	keystroke_a	a	n/a
142.936	0.09	285872	keystroke_g	g	n/a
143.1455	0.105	286291	keystroke_r	r	n/a
143.281	0.1345	286562	keystroke_i	i	n/a
143.4455	0.105	286891	keystroke_c	c	n/a
143.7155	0.09	287431	keystroke_u	u	n/a
143.8355	0.1355	287671	keystroke_l	l	n/a
144.001	0.1495	288002	keystroke_t	t	n/a
144.166	0.119	288332	keystroke_u	u	n/a
144.256	0.105	288512	keystroke_r	r	n/a
144.616	0.134	289232	keystroke_a	a	n/a
144.6905	0.121	289381	keystroke_l	l	n/a
144.87	0.135	289740	keystroke_Key.space	Key.space	n/a
144.991	0.104	289982	keystroke_c	c	n/a
145.186	0.149	290372	keystroke_r	r	n/a
145.321	0.1505	290642	keystroke_a	a	n/a
145.441	0.12	290882	keystroke_s	s	n/a
145.5755	0.106	291151	keystroke_h	h	n/a
145.756	0.12	291512	keystroke_Key.space	Key.space	n/a
145.891	0.1195	291782	keystroke_r	r	n/a
146.0255	0.151	292051	keystroke_a	a	n/a
146.1455	0.1355	292291	keystroke_t	t	n/a
146.2965	0.0885	292593	keystroke_i	i	n/a
146.3115	0.0145	292623	keystroke_j	j	n/a
146.356	0.134	292712	keystroke_o	o	n/a
147.031	0.06	294062	keystroke_Key.backspace	Key.backspace	n/a
147.241	0.045	294482	keystroke_Key.backspace	Key.backspace	n/a
147.676	0.09	295352	keystroke_o	o	n/a
147.916	0.1045	295832	keystroke_Key.space	Key.space	n/a
148.7555	0.195	297511	keystroke_s	s	n/a
148.9355	0.105	297871	keystroke_e	e	n/a
149.101	0.1045	298202	keystroke_g	g	n/a
149.3405	0.1355	298681	keystroke_m	m	n/a
149.446	0.1355	298892	keystroke_e	e	n/a
149.596	0.12	299192	keystroke_n	n	n/a
149.6705	0.121	299341	keystroke_t	t	n/a
149.746	0.12	299492	keystroke_s	s	n/a
149.8505	0.06	299701	keystroke_Key.enter	Key.enter	n/a
149.918	9.4745	299836	prompt	n/a	angeles replacing satisfied determining\n
150.736	0.15	301472	keystroke_a	a	n/a
150.871	0.12	301742	keystroke_n	n	n/a
151.081	0.105	302162	keystroke_g	g	n/a
151.276	0.105	302552	keystroke_e	e	n/a
151.501	0.18	303002	keystroke_l	l	n/a
151.666	0.2405	303332	keystroke_e	e	n/a
151.816	0.165	303632	keystroke_s	s	n/a
152.011	0.135	304022	keystroke_Key.space	Key.space	n/a
152.55	0.151	305100	keystroke_r	r	n/a
152.656	0.1045	305312	keystroke_e	e	n/a
152.776	0.06	305552	keystroke_p	p	n/a
152.866	0.1655	305732	keystroke_l	l	n/a
152.941	0.105	305882	keystroke_a	a	n/a
153.241	0.015	306482	keystroke_c	c	n/a
153.301	0.09	306602	keystroke_i	i	n/a
153.391	0.15	306782	keystroke_n	n	n/a
153.481	0.1055	306962	keystroke_g	g	n/a
153.646	0.12	307292	keystroke_Key.space	Key.space	n/a
153.781	0.134	307562	keystroke_s	s	n/a
153.9315	0.1045	307863	keystroke_t	t	n/a
154.5605	0.075	309121	keystroke_Key.backspace	Key.backspace	n/a
154.7555	0.18	309511	keystroke_a	a	n/a
154.9205	0.105	309841	keystroke_t	t	n/a
155.0705	0.121	310141	keystroke_i	i	n/a
155.3855	0.1805	310771	keystroke_s	s	n/a
155.8805	0.135	311761	keystroke_f	f	n/a
156.001	0.135	312002	keystroke_i	i	n/a
156.076	0.12	312152	keystroke_e	e	n/a
156.3605	0.1655	312721	keystroke_d	d	n/a
156.541	0.134	313082	keystroke_Key.space	Key.space	n/a
156.991	0.12	313982	keystroke_d	d	n/a
157.246	0.135	314492	keystroke_e	e	n/a
157.591	0.1045	315182	keystroke_t	t	n/a
157.7705	0.18	315541	keystroke_e	e	n/a
157.861	0.12	315722	keystroke_r	r	n/a
158.266	0.105	316532	keystroke_m	m	n/a
158.431	0.1205	316862	keystroke_i	i	n/a
158.5365	0.104	317073	keystroke_n	n	n/a
158.7155	0.1055	317431	keystroke_i	i	n/a
158.8055	0.1655	317611	keystroke_n	n	n/a
158.9555	0.09	317911	keystroke_g	g	n/a
159.3305	0.0605	318661	keystroke_Key.enter	Key.enter	n/a
159.3975	8.2455	318795	prompt	n/a	advantages replaced strategic seat\n
160.2305	0.1805	320461	keystroke_a	a	n/a
160.5155	0.1055	321031	keystroke_d	d	n/a
161.071	0.135	322142	keystroke_v	v	n/a
161.251	0.15	322502	keystroke_a	a	n/a
161.416	0.12	322832	keystroke_n	n	n/a
161.596	0.105	323192	keystroke_t	t	n/a
161.821	0.075	323642	keystroke_a	a	n/a
161.926	0.135	323852	keystroke_g	g	n/a
162.0315	0.1495	324063	keystroke_e	e	n/a
162.121	0.12	324242	keystroke_s	s	n/a
162.256	0.134	324512	keystroke_Key.space	Key.space	n/a
162.5415	0.1045	325083	keystroke_r	r	n/a
162.616	0.135	325232	keystroke_e	e	n/a
162.811	0.105	325622	keystroke_p	p	n/a
162.931	0.15	325862	keystroke_l	l	n/a
163.021	0.0895	326042	keystroke_a	a	n/a
163.216	0.0895	326432	keystroke_c	c	n/a
163.4255	0.105	326851	keystroke_e	e	n/a
163.7855	0.12	327571	keystroke_d	d	n/a
164.041	0.1345	328082	keystroke_Key.space	Key.space	n/a
164.701	0.15	329402	keystroke_s	s	n/a
164.866	0.105	329732	keystroke_t	t	n/a
165.0765	0.1495	330153	keystroke_r	r	n/a
165.271	0.09	330542	keystroke_a	a	n/a
165.766	0.12	331532	keystroke_t	t	n/a
165.976	0.1045	331952	keystroke_e	e	n/a
166.1865	0.12	332373	keystroke_g	g	n/a
166.32	0.1355	332640	keystroke_i	i	n/a
166.4715	0.1045	332943	keystroke_c	c	n/a
166.62	0.135	333240	keystroke_Key.space	Key.space	n/a
166.77	0.15	333540	keystroke_s	s	n/a
166.891	0.135	333782	keystroke_e	e	n/a
166.996	0.165	333992	keystroke_a	a	n/a
167.3105	0.1205	334621	keystroke_t	t	n/a
167.581	0.06	335162	keystroke_Key.enter	Key.enter	n/a
167.647	11.1255	335294	prompt	n/a	quantitative oakland night fireplace\n
168.496	0.075	336992	keystroke_q	q	n/a
168.556	0.105	337112	keystroke_u	u	n/a
168.736	0.15	337472	keystroke_a	a	n/a
168.856	0.12	337712	keystroke_n	n	n/a
169.111	0.105	338222	keystroke_t	t	n/a
169.231	0.15	338462	keystroke_i	i	n/a
169.606	0.1205	339212	keystroke_t	t	n/a
169.696	0.1505	339392	keystroke_i	i	n/a
171.631	0.075	343262	keystroke_Key.backspace	Key.backspace	n/a
173.1755	0.151	346351	keystroke_a	a	n/a
173.3405	0.0905	346681	keystroke_t	t	n/a
173.4465	0.1195	346893	keystroke_i	i	n/a
173.611	0.1045	347222	keystroke_v	v	n/a
173.6865	0.119	347373	keystroke_e	e	n/a
173.7905	0.135	347581	keystroke_Key.space	Key.space	n/a
173.971	0.135	347942	keystroke_o	o	n/a
174.1215	0.135	348243	keystroke_a	a	n/a
174.346	0.1945	348692	keystroke_k	k	n/a
174.961	0.12	349922	keystroke_l	l	n/a
175.111	0.15	350222	keystroke_a	a	n/a
175.246	0.15	350492	keystroke_n	n	n/a
175.2905	0.1355	350581	keystroke_d	d	n/a
175.5	0.1205	351000	keystroke_Key.space	Key.space	n/a
175.636	0.1045	351272	keystroke_n	n	n/a
175.7415	0.119	351483	keystroke_i	i	n/a
175.8165	0.074	351633	keystroke_g	g	n/a
175.9055	0.1205	351811	keystroke_h	h	n/a
176.0105	0.0755	352021	keystroke_t	t	n/a
176.1305	0.1195	352261	keystroke_Key.space	Key.space	n/a
176.221	0.12	352442	keystroke_f	f	n/a
176.341	0.1355	352682	keystroke_i	i	n/a
176.431	0.135	352862	keystroke_r	r	n/a
176.521	0.1195	353042	keystroke_e	e	n/a
176.761	0.135	353522	keystroke_p	p	n/a
177.001	0.105	354002	keystroke_a	a	n/a
177.136	0.195	354272	keystroke_l	l	n/a
177.451	0.135	354902	keystroke_Key.backspace	Key.backspace	n/a
177.691	0.06	355382	keystroke_Key.backspace	Key.backspace	n/a
177.916	0.1495	355832	keystroke_l	l	n/a
178.0505	0.15	356101	keystroke_a	a	n/a
178.321	0.1045	356642	keystroke_c	c	n/a
178.546	0.12	357092	keystroke_e	e	n/a
178.71	0.06	357420	keystroke_Key.enter	Key.enter	n/a
178.7755	6.267	357551	prompt	n/a	subsequently foam error bacon\n
179.581	0.1045	359162	keystroke_s	s	n/a
179.671	0.1195	359342	keystroke_u	u	n/a
179.776	0.1345	359552	keystroke_b	b	n/a
180.001	0.135	360002	keystroke_s	s	n/a
180.121	0.1505	360242	keystroke_e	e	n/a
180.4805	0.09	360961	keystroke_q	q	n/a
180.616	0.15	361232	keystroke_u	u	n/a
180.8105	0.1345	361621	keystroke_e	e	n/a
181.096	0.1495	362192	keystroke_n	n	n/a
181.2305	0.105	362461	keystroke_t	t	n/a
181.3505	0.1505	362701	keystroke_l	l	n/a
181.546	0.0895	363092	keystroke_y	y	n/a
181.741	0.1795	363482	keystroke_Key.space	Key.space	n/a
181.8755	0.1355	363751	keystroke_f	f	n/a
181.9655	0.1355	363931	keystroke_o	o	n/a
182.0855	0.15	364171	keystroke_a	a	n/a
182.2055	0.1355	364411	keystroke_m	m	n/a
182.4155	0.15	364831	keystroke_Key.space	Key.space	n/a
182.7005	0.1055	365401	keystroke_a	a	n/a
182.866	0.0595	365732	keystroke_e	e	n/a
183.151	0.0745	366302	keystroke_Key.backspace	Key.backspace	n/a
183.3455	0.06	366691	keystroke_Key.backspace	Key.backspace	n/a
183.4955	0.1955	366991	keystroke_e	e	n/a
183.6305	0.09	367261	keystroke_r	r	n/a
183.8255	0.105	367651	keystroke_r	r	n/a
183.9605	0.105	367921	keystroke_o	o	n/a
184.0505	0.09	368101	keystroke_r	r	n/a
184.216	0.15	368432	keystroke_Key.space	Key.space	n/a
184.336	0.09	368672	keystroke_b	b	n/a
184.441	0.105	368882	keystroke_a	a	n/a
184.59	0.135	369180	keystroke_c	c	n/a
184.695	0.091	369390	keystroke_o	o	n/a
184.801	0.074	369602	keystroke_n	n	n/a
184.966	0.0745	369932	keystroke_Key.enter	Key.enter	n/a
185.0465	5.5915	370093	prompt	n/a	terminal grace choice silicon\n
185.716	0.09	371432	keystroke_t	t	n/a
185.836	0.149	371672	keystroke_e	e	n/a
185.941	0.105	371882	keystroke_r	r	n/a
186.031	0.119	372062	keystroke_m	m	n/a
186.2105	0.105	372421	keystroke_i	i	n/a
186.301	0.1195	372602	keystroke_n	n	n/a
187.2005	0.135	374401	keystroke_a	a	n/a
187.2755	0.12	374551	keystroke_l	l	n/a
187.4405	0.12	374881	keystroke_Key.space	Key.space	n/a
187.6055	0.1055	375211	keystroke_g	g	n/a
187.8305	0.105	375661	keystroke_r	r	n/a
187.9205	0.1205	375841	keystroke_a	a	n/a
188.1455	0.09	376291	keystroke_c	c	n/a
188.3255	0.105	376651	keystroke_e	e	n/a
188.476	0.1195	376952	keystroke_Key.space	Key.space	n/a
188.6405	0.135	377281	keystroke_c	c	n/a
188.7455	0.1355	377491	keystroke_h	h	n/a
188.8505	0.12	377701	keystroke_o	o	n/a
188.941	0.0895	377882	keystroke_i	i	n/a
189.0155	0.105	378031	keystroke_c	c	n/a
189.226	0.135	378452	keystroke_e	e	n/a
189.391	0.089	378782	keystroke_Key.space	Key.space	n/a
189.465	0.105	378930	keystroke_s	s	n/a
189.601	0.1645	379202	keystroke_i	i	n/a
189.75	0.1355	379500	keystroke_l	l	n/a
189.871	0.165	379742	keystroke_i	i	n/a
190.215	0.1205	380430	keystroke_c	c	n/a
190.306	0.06	380612	keystroke_o	o	n/a
190.396	0.074	380792	keystroke_n	n	n/a
190.575	0.0605	381150	keystroke_Key.enter	Key.enter	n/a
190.6455	6.352	381291	prompt	n/a	products meter state exhibition\n
191.3405	0.12	382681	keystroke_p	p	n/a
191.5055	0.1205	383011	keystroke_r	r	n/a
191.6105	0.1355	383221	keystroke_o	o	n/a
191.7605	0.09	383521	keystroke_d	d	n/a
191.9405	0.0905	383881	keystroke_u	u	n/a
192.0605	0.135	384121	keystroke_c	c	n/a
192.3605	0.15	384721	keystroke_t	t	n/a
192.4655	0.12	384931	keystroke_s	s	n/a
192.6005	0.15	385201	keystroke_Key.space	Key.space	n/a
192.736	0.1645	385472	keystroke_m	m	n/a
192.826	0.135	385652	keystroke_e	e	n/a
193.1105	0.1205	386221	keystroke_t	t	n/a
193.2755	0.165	386551	keystroke_e	e	n/a
193.396	0.119	386792	keystroke_r	r	n/a
193.65	0.1655	387300	keystroke_Key.space	Key.space	n/a
194.0405	0.165	388081	keystroke_s	s	n/a
194.1905	0.09	388381	keystroke_t	t	n/a
194.266	0.165	388532	keystroke_a	a	n/a
194.371	0.1495	388742	keystroke_t	t	n/a
194.4605	0.149	388921	keystroke_e	e	n/a
194.625	0.1205	389250	keystroke_Key.space	Key.space	n/a
194.775	0.091	389550	keystroke_e	e	n/a
195.031	0.134	390062	keystroke_x	x	n/a
195.226	0.15	390452	keystroke_h	h	n/a
195.346	0.134	390692	keystroke_i	i	n/a
195.916	0.15	391832	keystroke_b	b	n/a
196.021	0.135	392042	keystroke_i	i	n/a
196.3505	0.1505	392701	keystroke_t	t	n/a
196.486	0.135	392972	keystroke_i	i	n/a
196.6055	0.0905	393211	keystroke_o	o	n/a
196.7105	0.0745	393421	keystroke_n	n	n/a
196.906	0.089	393812	keystroke_Key.enter	Key.enter	n/a
197.0005	7.722	394001	prompt	n/a	structures crack charter beverages\n
197.821	0.1345	395642	keystroke_s	s	n/a
197.9415	0.104	395883	keystroke_t	t	n/a
198.151	0.1195	396302	keystroke_r	r	n/a
198.3005	0.1205	396601	keystroke_u	u	n/a
198.436	0.1345	396872	keystroke_c	c	n/a
198.6005	0.136	397201	keystroke_t	t	n/a
199.0505	0.15	398101	keystroke_u	u	n/a
199.1705	0.24	398341	keystroke_r	r	n/a
199.3655	0.165	398731	keystroke_e	e	n/a
199.4705	0.1205	398941	keystroke_s	s	n/a
199.606	0.1195	399212	keystroke_Key.space	Key.space	n/a
199.8455	0.1655	399691	keystroke_c	c	n/a
199.9965	0.119	399993	keystroke_r	r	n/a
200.0865	0.1345	400173	keystroke_a	a	n/a
200.491	0.1495	400982	keystroke_c	c	n/a
200.701	0.1495	401402	keystroke_k	k	n/a
201.001	0.1195	402002	keystroke_Key.space	Key.space	n/a
201.4655	0.1505	402931	keystroke_c	c	n/a
201.6	0.1055	403200	keystroke_h	h	n/a
201.676	0.15	403352	keystroke_a	a	n/a
201.7955	0.1055	403591	keystroke_r	r	n/a
202.0055	0.09	404011	keystroke_t	t	n/a
202.1255	0.195	404251	keystroke_e	e	n/a
202.2305	0.1055	404461	keystroke_r	r	n/a
202.395	0.1355	404790	keystroke_Key.space	Key.space	n/a
202.546	0.12	405092	keystroke_b	b	n/a
202.7405	0.1505	405481	keystroke_e	e	n/a
203.041	0.12	406082	keystroke_v	v	n/a
203.2355	0.1505	406471	keystroke_e	e	n/a
203.3105	0.15	406621	keystroke_r	r	n/a
203.581	0.1495	407162	keystroke_a	a	n/a
203.716	0.0895	407432	keystroke_t	t	n/a
204.181	0.075	408362	keystroke_Key.backspace	Key.backspace	n/a
204.331	0.135	408662	keystroke_g	g	n/a
204.436	0.1495	408872	keystroke_e	e	n/a
204.5105	0.1355	409021	keystroke_s	s	n/a
204.6605	0.0605	409321	keystroke_Key.enter	Key.enter	n/a
204.727	8.4405	409454	prompt	n/a	nutrition pulse killed directed\n
205.3955	0.09	410791	keystroke_n	n	n/a
205.6205	0.1055	411241	keystroke_u	u	n/a
205.801	0.18	411602	keystroke_t	t	n/a
206.026	0.12	412052	keystroke_u	u	n/a
206.385	0.0755	412770	keystroke_Key.backspace	Key.backspace	n/a
206.6405	0.105	413281	keystroke_r	r	n/a
207.076	0.089	414152	keystroke_i	i	n/a
207.496	0.12	414992	keystroke_t	t	n/a
207.736	0.165	415472	keystroke_i	i	n/a
207.886	0.15	415772	keystroke_o	o	n/a
208.021	0.15	416042	keystroke_n	n	n/a
208.201	0.119	416402	keystroke_Key.space	Key.space	n/a
208.3805	0.0905	416761	keystroke_p	p	n/a
208.4555	0.181	416911	keystroke_u	u	n/a
208.6955	0.1055	417391	keystroke_s	s	n/a
209.041	0.09	418082	keystroke_Key.backspace	Key.backspace	n/a
209.296	0.18	418592	keystroke_l	l	n/a
209.416	0.18	418832	keystroke_s	s	n/a
209.716	0.1345	419432	keystroke_e	e	n/a
209.8955	0.1055	419791	keystroke_Key.space	Key.space	n/a
210.3315	0.089	420663	keystroke_k	k	n/a
210.5105	0.0905	421021	keystroke_i	i	n/a
210.7505	0.135	421501	keystroke_l	l	n/a
210.9755	0.1355	421951	keystroke_l	l	n/a
211.096	0.09	422192	keystroke_e	e	n/a
211.3055	0.12	422611	keystroke_d	d	n/a
211.4105	0.1955	422821	keystroke_Key.space	Key.space	n/a
211.6955	0.121	423391	keystroke_d	d	n/a
211.7705	0.1355	423541	keystroke_i	i	n/a
212.041	0.135	424082	keystroke_r	r	n/a
212.146	0.135	424292	keystroke_e	e	n/a
212.4455	0.1195	424891	keystroke_c	c	n/a
212.611	0.119	425222	keystroke_t	t	n/a
212.716	0.12	425432	keystroke_e	e	n/a
212.925	0.151	425850	keystroke_d	d	n/a
213.091	0.074	426182	keystroke_Key.enter	Key.enter	n/a
213.1725	4.3445	426345	prompt	n/a	light zones ratio highways\n
213.811	0.09	427622	keystroke_l	l	n/a
213.946	0.135	427892	keystroke_i	i	n/a
214.0055	0.0905	428011	keystroke_g	g	n/a
214.1105	0.12	428221	keystroke_h	h	n/a
214.2005	0.09	428401	keystroke_t	t	n/a
214.3655	0.135	428731	keystroke_Key.space	Key.space	n/a
214.531	0.1345	429062	keystroke_z	z	n/a
214.6055	0.075	429211	keystroke_o	o	n/a
214.696	0.15	429392	keystroke_n	n	n/a
214.7705	0.18	429541	keystroke_e	e	n/a
214.8605	0.1505	429721	keystroke_s	s	n/a
215.011	0.119	430022	keystroke_Key.space	Key.space	n/a
215.281	0.119	430562	keystroke_r	r	n/a
215.4155	0.1355	430831	keystroke_a	a	n/a
215.5365	0.104	431073	keystroke_t	t	n/a
215.6555	0.1195	431311	keystroke_i	i	n/a
215.73	0.1205	431460	keystroke_o	o	n/a
215.836	0.1195	431672	keystroke_n	n	n/a
216.016	0.1195	432032	keystroke_Key.space	Key.space	n/a
216.226	0.1495	432452	keystroke_h	h	n/a
216.421	0.165	432842	keystroke_i	i	n/a
216.571	0.105	433142	keystroke_g	g	n/a
216.631	0.105	433262	keystroke_h	h	n/a
216.946	0.1355	433892	keystroke_w	w	n/a
217.0505	0.1355	434101	keystroke_a	a	n/a
217.1405	0.09	434281	keystroke_y	y	n/a
217.2455	0.165	434491	keystroke_s	s	n/a
217.4255	0.0905	434851	keystroke_Key.enter	Key.enter	n/a
217.5215	6.4165	435043	prompt	n/a	british again algorithm disable\n
218.251	0.075	436502	keystroke_b	b	n/a
218.476	0.104	436952	keystroke_r	r	n/a
218.595	0.106	437190	keystroke_i	i	n/a
218.776	0.09	437552	keystroke_t	t	n/a
218.791	0.134	437582	keystroke_i	i	n/a
219.03	0.151	438060	keystroke_s	s	n/a
219.166	0.105	438332	keystroke_h	h	n/a
219.391	0.1345	438782	keystroke_Key.space	Key.space	n/a
219.511	0.1045	439022	keystroke_a	a	n/a
219.6305	0.105	439261	keystroke_g	g	n/a
219.7215	0.179	439443	keystroke_a	a	n/a
219.7955	0.12	439591	keystroke_i	i	n/a
219.9015	0.134	439803	keystroke_n	n	n/a
220.156	0.1345	440312	keystroke_Key.space	Key.space	n/a
220.4705	0.1505	440941	keystroke_a	a	n/a
220.5905	0.12	441181	keystroke_l	l	n/a
220.876	0.0595	441752	keystroke_o	o	n/a
221.2505	0.045	442501	keystroke_Key.backspace	Key.backspace	n/a
221.476	0.1495	442952	keystroke_g	g	n/a
221.596	0.0895	443192	keystroke_o	o	n/a
221.761	0.06	443522	keystroke_r	r	n/a
222.075	0.121	444150	keystroke_i	i	n/a
222.211	0.135	444422	keystroke_t	t	n/a
222.376	0.075	444752	keystroke_h	h	n/a
222.616	0.119	445232	keystroke_m	m	n/a
222.8555	0.1195	445711	keystroke_Key.space	Key.space	n/a
222.946	0.179	445892	keystroke_d	d	n/a
223.081	0.18	446162	keystroke_i	i	n/a
223.1865	0.1345	446373	keystroke_s	s	n/a
223.381	0.135	446762	keystroke_a	a	n/a
223.531	0.09	447062	keystroke_b	b	n/a
223.606	0.195	447212	keystroke_l	l	n/a
223.741	0.12	447482	keystroke_e	e	n/a
223.876	0.06	447752	keystroke_Key.enter	Key.enter	n/a
223.95	4.9525	447900	prompt	n/a	syria scan prix referred\n
224.566	0.15	449132	keystroke_s	s	n/a
224.701	0.1045	449402	keystroke_y	y	n/a
224.851	0.1045	449702	keystroke_r	r	n/a
224.9705	0.165	449941	keystroke_i	i	n/a
225.1205	0.135	450241	keystroke_a	a	n/a
225.271	0.1645	450542	keystroke_Key.space	Key.space	n/a
225.496	0.1795	450992	keystroke_s	s	n/a
225.736	0.12	451472	keystroke_c	c	n/a
225.871	0.15	451742	keystroke_a	a	n/a
225.976	0.12	451952	keystroke_n	n	n/a
226.1555	0.1195	452311	keystroke_Key.space	Key.space	n/a
226.291	0.09	452582	keystroke_p	p	n/a
226.4255	0.0905	452851	keystroke_r	r	n/a
226.5755	0.18	453151	keystroke_i	i	n/a
226.966	0.1495	453932	keystroke_x	x	n/a
227.1455	0.1355	454291	keystroke_Key.space	Key.space	n/a
227.416	0.12	454832	keystroke_r	r	n/a
227.521	0.105	455042	keystroke_e	e	n/a
227.731	0.12	455462	keystroke_f	f	n/a
227.866	0.195	455732	keystroke_e	e	n/a
228.0005	0.135	456001	keystroke_r	r	n/a
228.3155	0.12	456631	keystroke_r	r	n/a
228.436	0.1195	456872	keystroke_e	e	n/a
228.6755	0.1355	457351	keystroke_d	d	n/a
228.856	0.0445	457712	keystroke_Key.enter	Key.enter	n/a
228.9065	14.141	457813	prompt	n/a	bargain pokemon destroy cameras\n
234.0935	0.0125	468187	keystroke_b	b	n/a
234.256	0.1045	468512	keystroke_r	r	n/a
234.376	0.2545	468752	keystroke_a	a	n/a
234.9	0.075	469800	keystroke_Key.backspace	Key.backspace	n/a
235.065	0.06	470130	keystroke_Key.backspace	Key.backspace	n/a
235.2165	0.1795	470433	keystroke_a	a	n/a
235.411	0.12	470822	keystroke_r	r	n/a
235.861	0.0895	471722	keystroke_g	g	n/a
235.9655	0.1955	471931	keystroke_a	a	n/a
236.0865	0.1195	472173	keystroke_i	i	n/a
236.191	0.135	472382	keystroke_n	n	n/a
236.416	0.06	472832	keystroke_Key.space	Key.space	n/a
236.521	0.12	473042	keystroke_p	p	n/a
236.656	0.1495	473312	keystroke_e	e	n/a
236.746	0.1045	473492	keystroke_o	o	n/a
236.7915	0.1795	473583	keystroke_k	k	n/a
236.956	0.12	473912	keystroke_m	m	n/a
237.481	0.075	474962	keystroke_Key.backspace	Key.backspace	n/a
237.676	0.0595	475352	keystroke_Key.backspace	Key.backspace	n/a
237.826	0.0895	475652	keystroke_Key.backspace	Key.backspace	n/a
238.066	0.015	476132	keystroke_Key.backspace	Key.backspace	n/a
238.786	0.105	477572	keystroke_o	o	n/a
238.861	0.1505	477722	keystroke_k	k	n/a
239.026	0.09	478052	keystroke_e	e	n/a
239.117	0.134	478234	keystroke_m	m	n/a
239.371	0.0605	478742	keystroke_n	n	n/a
239.8355	0.075	479671	keystroke_Key.backspace	Key.backspace	n/a
240.106	0.105	480212	keystroke_o	o	n/a
240.226	0.105	480452	keystroke_n	n	n/a
240.436	0.12	480872	keystroke_Key.space	Key.space	n/a
240.496	0.12	480992	keystroke_d	d	n/a
240.691	0.24	481382	keystroke_e	e	n/a
240.856	0.12	481712	keystroke_s	s	n/a
240.931	0.1045	481862	keystroke_t	t	n/a
241.156	0.0905	482312	keystroke_r	r	n/a
241.2155	0.1355	482431	keystroke_o	o	n/a
241.3355	0.0755	482671	keystroke_y	y	n/a
241.5305	0.1355	483061	keystroke_Key.space	Key.space	n/a
241.8155	0.1055	483631	keystroke_c	c	n/a
241.9055	0.1655	483811	keystroke_a	a	n/a
242.056	0.135	484112	keystroke_m	m	n/a
242.146	0.27	484292	keystroke_e	e	n/a
242.236	0.195	484472	keystroke_r	r	n/a
242.566	0.1355	485132	keystroke_a	a	n/a
242.791	0.165	485582	keystroke_s	s	n/a
242.971	0.075	485942	keystroke_Key.enter	Key.enter	n/a
243.052	9.806	486104	prompt	n/a	currently screenshot footage defects\n
243.661	0.1205	487322	keystroke_c	c	n/a
243.811	0.09	487622	keystroke_u	u	n/a
243.871	0.09	487742	keystroke_r	r	n/a
244.051	0.12	488102	keystroke_r	r	n/a
244.201	0.12	488402	keystroke_e	e	n/a
244.351	0.135	488702	keystroke_n	n	n/a
244.441	0.06	488882	keystroke_t	t	n/a
244.5165	0.12	489033	keystroke_l	l	n/a
244.696	0.075	489392	keystroke_y	y	n/a
244.891	0.105	489782	keystroke_Key.space	Key.space	n/a
244.966	0.135	489932	keystroke_s	s	n/a
245.1905	0.1205	490381	keystroke_c	c	n/a
245.341	0.1655	490682	keystroke_r	r	n/a
245.4915	0.075	490983	keystroke_e	e	n/a
245.6415	0.1195	491283	keystroke_e	e	n/a
245.836	0.09	491672	keystroke_n	n	n/a
245.866	0.105	491732	keystroke_s	s	n/a
246.2705	0.12	492541	keystroke_h	h	n/a
246.376	0.105	492752	keystroke_o	o	n/a
246.5855	0.106	493171	keystroke_t	t	n/a
246.8105	0.1355	493621	keystroke_Key.space	Key.space	n/a
247.036	0.105	494072	keystroke_f	f	n/a
247.156	0.105	494312	keystroke_o	o	n/a
247.366	0.105	494732	keystroke_o	o	n/a
247.456	0.09	494912	keystroke_t	t	n/a
247.681	0.165	495362	keystroke_a	a	n/a
247.831	0.1355	495662	keystroke_g	g	n/a
247.9515	0.135	495903	keystroke_e	e	n/a
251.4775	0.0135	502955	keystroke_Key.space	Key.space	n/a
251.581	0.1345	503162	keystroke_d	d	n/a
251.821	0.135	503642	keystroke_e	e	n/a
251.941	0.1795	503882	keystroke_f	f	n/a
252.136	0.1045	504272	keystroke_e	e	n/a
252.4205	0.09	504841	keystroke_c	c	n/a
252.5555	0.1205	505111	keystroke_t	t	n/a
252.6465	0.1495	505293	keystroke_s	s	n/a
252.781	0.075	505562	keystroke_Key.enter	Key.enter	n/a
252.8625	7.6755	505725	prompt	n/a	revenues welding modem differently\n
253.5155	0.1205	507031	keystroke_r	r	n/a
253.6065	0.12	507213	keystroke_e	e	n/a
253.891	0.135	507782	keystroke_v	v	n/a
254.0105	0.091	508021	keystroke_e	e	n/a
254.2355	0.121	508471	keystroke_n	n	n/a
254.491	0.12	508982	keystroke_u	u	n/a
254.566	0.21	509132	keystroke_e	e	n/a
254.701	0.12	509402	keystroke_s	s	n/a
254.8215	0.15	509643	keystroke_Key.space	Key.space	n/a
255.0605	0.1655	510121	keystroke_w	w	n/a
255.1805	0.09	510361	keystroke_e	e	n/a
255.316	0.165	510632	keystroke_l	l	n/a
255.4355	0.12	510871	keystroke_d	d	n/a
255.5855	0.091	511171	keystroke_i	i	n/a
255.6905	0.1505	511381	keystroke_n	n	n/a
255.8105	0.0755	511621	keystroke_g	g	n/a
255.9155	0.135	511831	keystroke_Key.space	Key.space	n/a
256.366	0.135	512732	keystroke_m	m	n/a
256.546	0.135	513092	keystroke_o	o	n/a
256.696	0.1505	513392	keystroke_d	d	n/a
257.506	0.15	515012	keystroke_e	e	n/a
257.716	0.1205	515432	keystroke_m	m	n/a
257.925	0.1205	515850	keystroke_Key.space	Key.space	n/a
258.0765	0.149	516153	keystroke_d	d	n/a
258.2415	0.149	516483	keystroke_i	i	n/a
258.3765	0.089	516753	keystroke_f	f	n/a
258.5705	0.15	517141	keystroke_f	f	n/a
258.8255	0.21	517651	keystroke_e	e	n/a
258.9915	0.149	517983	keystroke_r	r	n/a
259.5005	0.121	519001	keystroke_e	e	n/a
259.6365	0.135	519273	keystroke_n	n	n/a
259.7855	0.0755	519571	keystroke_t	t	n/a
259.9215	0.1195	519843	keystroke_l	l	n/a
260.101	0.135	520202	keystroke_y	y	n/a
260.416	0.12	520832	keystroke_Key.enter	Key.enter	n/a
260.5425	17.2165	521085	prompt	n/a	climbing cant others initiated\n
268.1285	0.103	536257	keystroke_c	c	n/a
268.2165	0.1205	536433	keystroke_l	l	n/a
268.381	0.1055	536762	keystroke_u	u	n/a
268.6665	0.015	537333	keystroke_b	b	n/a
268.9955	0.136	537991	keystroke_Key.backspace	Key.backspace	n/a
269.611	0.0755	539222	keystroke_Key.backspace	Key.backspace	n/a
270.076	0.09	540152	keystroke_i	i	n/a
270.2865	0.18	540573	keystroke_m	m	n/a
270.481	0.12	540962	keystroke_b	b	n/a
270.616	0.0905	541232	keystroke_k	k	n/a
270.647	0.149	541294	keystroke_l	l	n/a
271.2765	0.09	542553	keystroke_Key.backspace	Key.backspace	n/a
271.471	0.1045	542942	keystroke_Key.backspace	Key.backspace	n/a
272.807	0.12	545614	keystroke_i	i	n/a
272.912	0.1345	545824	keystroke_n	n	n/a
273.017	0.104	546034	keystroke_g	g	n/a
273.181	0.15	546362	keystroke_Key.space	Key.space	n/a
273.526	0.136	547052	keystroke_c	c	n/a
273.631	0.1655	547262	keystroke_a	a	n/a
273.7215	0.135	547443	keystroke_n	n	n/a
273.8715	0.135	547743	keystroke_t	t	n/a
274.3215	0.105	548643	keystroke_Key.space	Key.space	n/a
274.4565	0.135	548913	keystroke_o	o	n/a
274.5315	0.105	549063	keystroke_t	t	n/a
274.7865	0.135	549573	keystroke_h	h	n/a
274.9815	0.2995	549963	keystroke_e	e	n/a
275.116	0.136	550232	keystroke_r	r	n/a
275.206	0.1205	550412	keystroke_s	s	n/a
275.311	0.1205	550622	keystroke_Key.space	Key.space	n/a
275.4615	0.105	550923	keystroke_i	i	n/a
275.6415	0.135	551283	keystroke_n	n	n/a
275.7915	0.135	551583	keystroke_i	i	n/a
276.061	0.15	552122	keystroke_t	t	n/a
276.151	0.165	552302	keystroke_i	i	n/a
276.287	0.1495	552574	keystroke_a	a	n/a
276.4055	0.09	552811	keystroke_l	l	n/a
276.7655	0.105	553531	keystroke_Key.backspace	Key.backspace	n/a
277.1865	0.15	554373	keystroke_t	t	n/a
277.3065	0.0895	554613	keystroke_e	e	n/a
277.502	0.1185	555004	keystroke_d	d	n/a
277.666	0.0905	555332	keystroke_Key.enter	Key.enter	n/a
277.763	4.915	555526	prompt	n/a	part mild deaf explorer\n
278.4465	0.105	556893	keystroke_p	p	n/a
278.5365	0.27	557073	keystroke_a	a	n/a
278.6415	0.075	557283	keystroke_r	r	n/a
278.8215	0.075	557643	keystroke_t	t	n/a
278.9565	0.105	557913	keystroke_Key.space	Key.space	n/a
279.6015	0.1495	559203	keystroke_m	m	n/a
279.752	0.104	559504	keystroke_i	i	n/a
279.8565	0.195	559713	keystroke_l	l	n/a
279.946	0.1355	559892	keystroke_d	d	n/a
280.096	0.135	560192	keystroke_Key.space	Key.space	n/a
280.246	0.0755	560492	keystroke_d	d	n/a
280.411	0.1355	560822	keystroke_e	e	n/a
280.5015	0.135	561003	keystroke_a	a	n/a
280.577	0.164	561154	keystroke_f	f	n/a
280.7565	0.1195	561513	keystroke_Key.space	Key.space	n/a
280.9665	0.0905	561933	keystroke_e	e	n/a
281.206	0.121	562412	keystroke_x	x	n/a
281.251	0.1055	562502	keystroke_p	p	n/a
281.386	0.15	562772	keystroke_l	l	n/a
281.5965	0.135	563193	keystroke_o	o	n/a
281.6415	0.1795	563283	keystroke_e	e	n/a
281.746	0.1355	563492	keystroke_r	r	n/a
282.0305	0.166	564061	keystroke_e	e	n/a
282.1215	0.15	564243	keystroke_r	r	n/a
282.5865	0.09	565173	keystroke_Key.enter	Key.enter	n/a
282.685	5.798	565370	prompt	n/a	valley maui lopez footage\n
283.8765	0.1205	567753	keystroke_v	v	n/a
284.0115	0.105	568023	keystroke_a	a	n/a
284.131	0.105	568262	keystroke_l	l	n/a
284.326	0.1505	568652	keystroke_l	l	n/a
284.416	0.12	568832	keystroke_e	e	n/a
284.551	0.0905	569102	keystroke_y	y	n/a
284.7455	0.165	569491	keystroke_Key.space	Key.space	n/a
284.8805	0.166	569761	keystroke_m	m	n/a
285.0315	0.135	570063	keystroke_a	a	n/a
285.1965	0.12	570393	keystroke_u	u	n/a
285.481	0.1205	570962	keystroke_i	i	n/a
285.691	0.1495	571382	keystroke_Key.space	Key.space	n/a
285.901	0.0905	571802	keystroke_l	l	n/a
286.1115	0.18	572223	keystroke_o	o	n/a
286.1865	0.105	572373	keystroke_p	p	n/a
286.4265	0.15	572853	keystroke_e	e	n/a
286.6965	0.165	573393	keystroke_z	z	n/a
286.8765	0.105	573753	keystroke_Key.space	Key.space	n/a
287.0715	0.105	574143	keystroke_f	f	n/a
287.0865	0.06	574173	keystroke_o	o	n/a
287.686	0.1205	575372	keystroke_o	o	n/a
287.896	0.075	575792	keystroke_t	t	n/a
288.0465	0.1645	576093	keystroke_a	a	n/a
288.1965	0.135	576393	keystroke_g	g	n/a
288.2865	0.135	576573	keystroke_e	e	n/a
288.4065	0.075	576813	keystroke_Key.enter	Key.enter	n/a
288.4875	7.0755	576975	prompt	n/a	exempt shows bond guam\n
289.1265	0.09	578253	keystroke_e	e	n/a
290.027	0.134	580054	keystroke_x	x	n/a
290.3865	0.15	580773	keystroke_e	e	n/a
290.5215	0.135	581043	keystroke_m	m	n/a
290.7025	0.1045	581405	keystroke_p	p	n/a
290.8515	0.075	581703	keystroke_t	t	n/a
290.9865	0.165	581973	keystroke_Key.space	Key.space	n/a
291.3465	0.1505	582693	keystroke_s	s	n/a
291.4665	0.0895	582933	keystroke_h	h	n/a
291.541	0.105	583082	keystroke_o	o	n/a
291.961	0.1355	583922	keystroke_s	s	n/a
292.1415	0.149	584283	keystroke_Key.space	Key.space	n/a
292.5765	0.06	585153	keystroke_Key.backspace	Key.backspace	n/a
292.7265	0.09	585453	keystroke_Key.backspace	Key.backspace	n/a
292.877	0.1195	585754	keystroke_w	w	n/a
293.1165	0.1355	586233	keystroke_s	s	n/a
293.4155	0.2105	586831	keystroke_Key.space	Key.space	n/a
293.686	0.1205	587372	keystroke_b	b	n/a
293.791	0.105	587582	keystroke_o	o	n/a
293.911	0.135	587822	keystroke_n	n	n/a
293.9865	0.1345	587973	keystroke_d	d	n/a
294.211	0.15	588422	keystroke_Key.space	Key.space	n/a
294.826	0.135	589652	keystroke_g	g	n/a
294.991	0.105	589982	keystroke_u	u	n/a
295.1115	0.195	590223	keystroke_a	a	n/a
295.2165	0.1495	590433	keystroke_m	m	n/a
295.4565	0.1045	590913	keystroke_Key.enter	Key.enter	n/a
295.567	6.7015	591134	prompt	n/a	zones deer texas lawsuit\n
298.2645	0.102	596529	keystroke_z	z	n/a
298.3815	0.09	596763	keystroke_o	o	n/a
298.472	0.1495	596944	keystroke_n	n	n/a
298.5315	0.1655	597063	keystroke_e	e	n/a
298.6365	0.135	597273	keystroke_s	s	n/a
298.7855	0.135	597571	keystroke_Key.space	Key.space	n/a
299.102	0.089	598204	keystroke_d	d	n/a
299.2965	0.075	598593	keystroke_e	e	n/a
299.4615	0.105	598923	keystroke_e	e	n/a
299.6415	0.1045	599283	keystroke_r	r	n/a
299.7765	0.1495	599553	keystroke_Key.space	Key.space	n/a
300.047	0.1645	600094	keystroke_t	t	n/a
300.2865	0.09	600573	keystroke_e	e	n/a
300.5715	0.09	601143	keystroke_x	x	n/a
300.6915	0.225	601383	keystroke_a	a	n/a
300.8415	0.1355	601683	keystroke_s	s	n/a
300.9915	0.105	601983	keystroke_Key.space	Key.space	n/a
301.246	0.135	602492	keystroke_l	l	n/a
301.336	0.1355	602672	keystroke_a	a	n/a
301.426	0.1205	602852	keystroke_w	w	n/a
301.6965	0.1045	603393	keystroke_s	s	n/a
301.831	0.105	603662	keystroke_u	u	n/a
301.921	0.12	603842	keystroke_i	i	n/a
302.0265	0.09	604053	keystroke_t	t	n/a
302.1615	0.105	604323	keystroke_Key.enter	Key.enter	n/a
302.2725	7.915	604545	prompt	n/a	frontier connectivity bali withdrawal\n
303.167	0.1195	606334	keystroke_f	f	n/a
303.3915	0.1055	606783	keystroke_r	r	n/a
303.4815	0.105	606963	keystroke_o	o	n/a
303.6015	0.135	607203	keystroke_n	n	n/a
303.6915	0.1045	607383	keystroke_t	t	n/a
303.947	0.134	607894	keystroke_i	i	n/a
304.036	0.21	608072	keystroke_e	e	n/a
304.1565	0.135	608313	keystroke_r	r	n/a
304.351	0.1205	608702	keystroke_Key.space	Key.space	n/a
304.531	0.09	609062	keystroke_c	c	n/a
304.5615	0.1045	609123	keystroke_o	o	n/a
304.6815	0.0895	609363	keystroke_n	n	n/a
304.861	0.121	609722	keystroke_n	n	n/a
304.9365	0.12	609873	keystroke_e	e	n/a
305.2215	0.105	610443	keystroke_c	c	n/a
305.3115	0.06	610623	keystroke_k	k	n/a
305.3715	0.09	610743	keystroke_t	t	n/a
305.8815	0.0745	611763	keystroke_Key.backspace	Key.backspace	n/a
306.046	0.1055	612092	keystroke_Key.backspace	Key.backspace	n/a
306.451	0.09	612902	keystroke_t	t	n/a
306.5265	0.1345	613053	keystroke_i	i	n/a
306.721	0.121	613442	keystroke_v	v	n/a
306.796	0.151	613592	keystroke_i	i	n/a
306.991	0.121	613982	keystroke_t	t	n/a
307.112	0.104	614224	keystroke_y	y	n/a
307.321	0.196	614642	keystroke_Key.space	Key.space	n/a
307.487	0.104	614974	keystroke_b	b	n/a
307.637	0.1345	615274	keystroke_a	a	n/a
307.951	0.196	615902	keystroke_l	l	n/a
308.132	0.135	616264	keystroke_i	i	n/a
308.3115	0.1645	616623	keystroke_Key.space	Key.space	n/a
308.581	0.106	617162	keystroke_w	w	n/a
308.6565	0.1195	617313	keystroke_i	i	n/a
308.7465	0.1345	617493	keystroke_t	t	n/a
308.866	0.06	617732	keystroke_h	h	n/a
309.0465	0.1345	618093	keystroke_d	d	n/a
309.1515	0.1345	618303	keystroke_r	r	n/a
309.2715	0.1645	618543	keystroke_a	a	n/a
309.376	0.135	618752	keystroke_w	w	n/a
309.796	0.135	619592	keystroke_a	a	n/a
309.917	0.1345	619834	keystroke_l	l	n/a
310.1415	0.045	620283	keystroke_Key.enter	Key.enter	n/a
310.1905	6.5535	620381	prompt	n/a	scenario reynolds handling double\n
310.8315	0.12	621663	keystroke_s	s	n/a
311.071	0.1055	622142	keystroke_c	c	n/a
311.3115	0.105	622623	keystroke_e	e	n/a
311.4615	0.15	622923	keystroke_n	n	n/a
311.672	0.1495	623344	keystroke_a	a	n/a
311.7915	0.1055	623583	keystroke_r	r	n/a
311.971	0.151	623942	keystroke_i	i	n/a
312.1065	0.1055	624213	keystroke_o	o	n/a
312.256	0.12	624512	keystroke_j	j	n/a
312.391	0.09	624782	keystroke_Key.space	Key.space	n/a
312.736	0.09	625472	keystroke_Key.backspace	Key.backspace	n/a
312.931	0.105	625862	keystroke_Key.backspace	Key.backspace	n/a
313.216	0.1505	626432	keystroke_Key.space	Key.space	n/a
313.4115	0.1505	626823	keystroke_r	r	n/a
313.5165	0.135	627033	keystroke_e	e	n/a
313.7565	0.0605	627513	keystroke_y	y	n/a
314.0565	0.09	628113	keystroke_n	n	n/a
314.1765	0.1055	628353	keystroke_o	o	n/a
314.4165	0.15	628833	keystroke_l	l	n/a
314.551	0.2255	629102	keystroke_d	d	n/a
314.6865	0.135	629373	keystroke_s	s	n/a
314.7915	0.135	629583	keystroke_Key.space	Key.space	n/a
315.0315	0.09	630063	keystroke_h	h	n/a
315.1065	0.15	630213	keystroke_a	a	n/a
315.2265	0.105	630453	keystroke_n	n	n/a
315.3015	0.195	630603	keystroke_d	d	n/a
315.4365	0.18	630873	keystroke_l	l	n/a
315.602	0.1195	631204	keystroke_i	i	n/a
315.7365	0.12	631473	keystroke_n	n	n/a
315.8415	0.105	631683	keystroke_g	g	n/a
315.9765	0.135	631953	keystroke_Key.space	Key.space	n/a
316.0815	0.135	632163	keystroke_d	d	n/a
316.1715	0.12	632343	keystroke_o	o	n/a
316.2465	0.135	632493	keystroke_u	u	n/a
316.3665	0.075	632733	keystroke_b	b	n/a
316.4565	0.15	632913	keystroke_l	l	n/a
316.5465	0.105	633093	keystroke_e	e	n/a
316.6665	0.075	633333	keystroke_Key.enter	Key.enter	n/a
316.7485	5.41	633497	prompt	n/a	aaron iceland materials believes\n
317.446	0.105	634892	keystroke_a	a	n/a
317.671	0.165	635342	keystroke_a	a	n/a
317.821	0.09	635642	keystroke_r	r	n/a
317.926	0.1055	635852	keystroke_o	o	n/a
318.0465	0.105	636093	keystroke_n	n	n/a
318.2715	0.0895	636543	keystroke_Key.space	Key.space	n/a
318.406	0.1655	636812	keystroke_i	i	n/a
318.5565	0.0905	637113	keystroke_c	c	n/a
318.766	0.121	637532	keystroke_e	e	n/a
318.9015	0.18	637803	keystroke_l	l	n/a
319.051	0.15	638102	keystroke_a	a	n/a
319.186	0.12	638372	keystroke_n	n	n/a
319.2465	0.1355	638493	keystroke_d	d	n/a
319.411	0.135	638822	keystroke_Key.space	Key.space	n/a
319.682	0.149	639364	keystroke_m	m	n/a
319.786	0.1795	639572	keystroke_a	a	n/a
319.936	0.09	639872	keystroke_t	t	n/a
320.071	0.18	640142	keystroke_e	e	n/a
320.1915	0.105	640383	keystroke_r	r	n/a
320.326	0.15	640652	keystroke_i	i	n/a
320.461	0.135	640922	keystroke_a	a	n/a
320.5665	0.1645	641133	keystroke_l	l	n/a
320.686	0.151	641372	keystroke_s	s	n/a
320.821	0.15	641642	keystroke_Key.space	Key.space	n/a
321.032	0.105	642064	keystroke_b	b	n/a
321.181	0.135	642362	keystroke_e	e	n/a
321.331	0.1655	642662	keystroke_l	l	n/a
321.4515	0.1495	642903	keystroke_i	i	n/a
321.497	0.1195	642994	keystroke_e	e	n/a
321.6615	0.0895	643323	keystroke_v	v	n/a
321.721	0.1055	643442	keystroke_e	e	n/a
321.9165	0.135	643833	keystroke_s	s	n/a
322.0665	0.09	644133	keystroke_Key.enter	Key.enter	n/a
322.1625	14.1405	644325	prompt	n/a	sealed stores deficit gentleman\n
322.7715	0.165	645543	keystroke_s	s	n/a
322.9065	0.15	645813	keystroke_e	e	n/a
323.0115	0.135	646023	keystroke_a	a	n/a
323.1015	0.135	646203	keystroke_l	l	n/a
323.2215	0.105	646443	keystroke_e	e	n/a
323.402	0.134	646804	keystroke_d	d	n/a
323.551	0.15	647102	keystroke_Key.space	Key.space	n/a
323.687	0.165	647374	keystroke_s	s	n/a
323.837	0.09	647674	keystroke_t	t	n/a
323.911	0.1355	647822	keystroke_o	o	n/a
324.0615	0.165	648123	keystroke_r	r	n/a
324.166	0.1655	648332	keystroke_e	e	n/a
324.2415	0.18	648483	keystroke_s	s	n/a
324.4815	0.12	648963	keystroke_Key.space	Key.space	n/a
324.8565	0.18	649713	keystroke_f	f	n/a
325.0215	0.12	650043	keystroke_e	e	n/a
327.257	0.074	654514	keystroke_f	f	n/a
327.3615	0.1645	654723	keystroke_i	i	n/a
327.496	0.1055	654992	keystroke_c	c	n/a
328.5315	0.075	657063	keystroke_Key.backspace	Key.backspace	n/a
328.741	0.075	657482	keystroke_Key.backspace	Key.backspace	n/a
328.921	0.09	657842	keystroke_Key.backspace	Key.backspace	n/a
329.161	0.105	658322	keystroke_Key.backspace	Key.backspace	n/a
329.566	0.09	659132	keystroke_Key.backspace	Key.backspace	n/a
329.8215	0.105	659643	keystroke_d	d	n/a
330.0465	0.1205	660093	keystroke_e	e	n/a
330.8415	0.1195	661683	keystroke_f	f	n/a
330.9465	0.1205	661893	keystroke_i	i	n/a
331.157	0.149	662314	keystroke_c	c	n/a
331.291	0.136	662582	keystroke_i	i	n/a
331.412	0.105	662824	keystroke_t	t	n/a
331.726	0.1355	663452	keystroke_Key.space	Key.space	n/a
332.506	0.15	665012	keystroke_g	g	n/a
332.6415	0.12	665283	keystroke_e	e	n/a
332.942	0.134	665884	keystroke_n	n	n/a
333.211	0.121	666422	keystroke_t	t	n/a
334.8465	0.135	669693	keystroke_l	l	n/a
334.966	0.075	669932	keystroke_e	e	n/a
335.116	0.1205	670232	keystroke_m	m	n/a
335.2215	0.075	670443	keystroke_e	e	n/a
335.6415	0.09	671283	keystroke_Key.backspace	Key.backspace	n/a
335.972	0.135	671944	keystroke_a	a	n/a
336.046	0.09	672092	keystroke_n	n	n/a
336.241	0.06	672482	keystroke_Key.enter	Key.enter	n/a
336.3065	3.6575	672613	prompt	n/a	if river fiction pressing\n
337.066	0.12	674132	keystroke_i	i	n/a
337.141	0.135	674282	keystroke_f	f	n/a
337.291	0.1205	674582	keystroke_Key.space	Key.space	n/a
337.426	0.0755	674852	keystroke_r	r	n/a
337.516	0.1505	675032	keystroke_i	i	n/a
337.651	0.075	675302	keystroke_v	v	n/a
337.7715	0.135	675543	keystroke_e	e	n/a
337.862	0.0745	675724	keystroke_r	r	n/a
337.9665	0.1345	675933	keystroke_Key.space	Key.space	n/a
338.1165	0.105	676233	keystroke_f	f	n/a
338.222	0.1195	676444	keystroke_i	i	n/a
338.401	0.0755	676802	keystroke_c	c	n/a
338.5365	0.1045	677073	keystroke_t	t	n/a
338.596	0.106	677192	keystroke_i	i	n/a
338.6865	0.105	677373	keystroke_o	o	n/a
338.7765	0.105	677553	keystroke_n	n	n/a
338.941	0.09	677882	keystroke_Key.space	Key.space	n/a
339.077	0.089	678154	keystroke_p	p	n/a
339.152	0.164	678304	keystroke_r	r	n/a
339.2715	0.1345	678543	keystroke_e	e	n/a
339.3765	0.075	678753	keystroke_s	s	n/a
339.5415	0.1195	679083	keystroke_s	s	n/a
339.6315	0.09	679263	keystroke_i	i	n/a
339.7215	0.09	679443	keystroke_n	n	n/a
339.766	0.0755	679532	keystroke_g	g	n/a
339.886	0.0755	679772	keystroke_Key.enter	Key.enter	n/a
339.9675	5.441	679935	prompt	n/a	kennedy malaysia watching buttons\n
340.681	0.15	681362	keystroke_k	k	n/a
340.8015	0.0745	681603	keystroke_e	e	n/a
340.936	0.1205	681872	keystroke_n	n	n/a
341.161	0.12	682322	keystroke_n	n	n/a
341.206	0.105	682412	keystroke_e	e	n/a
341.446	0.15	682892	keystroke_d	d	n/a
341.5515	0.0905	683103	keystroke_y	y	n/a
341.806	0.1355	683612	keystroke_Key.space	Key.space	n/a
342.0775	0.134	684155	keystroke_m	m	n/a
342.1965	0.106	684393	keystroke_a	a	n/a
342.317	0.1495	684634	keystroke_l	l	n/a
342.437	0.1195	684874	keystroke_a	a	n/a
342.7065	0.0905	685413	keystroke_y	y	n/a
342.8265	0.1205	685653	keystroke_s	s	n/a
342.9615	0.15	685923	keystroke_i	i	n/a
343.0665	0.1495	686133	keystroke_a	a	n/a
343.231	0.12	686462	keystroke_Key.space	Key.space	n/a
343.5315	0.12	687063	keystroke_w	w	n/a
343.6215	0.12	687243	keystroke_a	a	n/a
343.7265	0.0595	687453	keystroke_t	t	n/a
343.9065	0.105	687813	keystroke_c	c	n/a
343.9965	0.075	687993	keystroke_h	h	n/a
344.0865	0.1045	688173	keystroke_i	i	n/a
344.1765	0.1355	688353	keystroke_n	n	n/a
344.2815	0.075	688563	keystroke_g	g	n/a
344.4315	0.1195	688863	keystroke_Key.space	Key.space	n/a
344.5215	0.0595	689043	keystroke_b	b	n/a
344.656	0.0905	689312	keystroke_u	u	n/a
344.716	0.075	689432	keystroke_t	t	n/a
344.851	0.12	689702	keystroke_t	t	n/a
345.016	0.12	690032	keystroke_o	o	n/a
345.1515	0.0745	690303	keystroke_n	n	n/a
345.211	0.106	690422	keystroke_s	s	n/a
345.331	0.075	690662	keystroke_Key.enter	Key.enter	n/a
345.4135	5.4995	690827	prompt	n/a	superb lodging leather agenda\n
346.157	0.149	692314	keystroke_s	s	n/a
346.291	0.106	692582	keystroke_u	u	n/a
346.592	0.044	693184	keystroke_p	p	n/a
346.727	0.1795	693454	keystroke_e	e	n/a
346.847	0.09	693694	keystroke_r	r	n/a
347.102	0.105	694204	keystroke_b	b	n/a
347.701	0.1505	695402	keystroke_Key.space	Key.space	n/a
347.9415	0.105	695883	keystroke_l	l	n/a
348.121	0.1355	696242	keystroke_o	o	n/a
348.2415	0.1205	696483	keystroke_d	d	n/a
348.4365	0.105	696873	keystroke_g	g	n/a
348.7965	0.135	697593	keystroke_i	i	n/a
348.9315	0.135	697863	keystroke_n	n	n/a
349.0065	0.0905	698013	keystroke_g	g	n/a
349.1865	0.12	698373	keystroke_Key.space	Key.space	n/a
349.3215	0.15	698643	keystroke_l	l	n/a
349.3515	0.135	698703	keystroke_e	e	n/a
349.4565	0.12	698913	keystroke_a	a	n/a
349.547	0.0895	699094	keystroke_t	t	n/a
349.6665	0.12	699333	keystroke_h	h	n/a
349.7265	0.12	699453	keystroke_e	e	n/a
349.8015	0.075	699603	keystroke_r	r	n/a
349.966	0.105	699932	keystroke_Key.space	Key.space	n/a
350.1315	0.12	700263	keystroke_a	a	n/a
350.2665	0.12	700533	keystroke_g	g	n/a
350.3565	0.135	700713	keystroke_e	e	n/a
350.5065	0.12	701013	keystroke_n	n	n/a
350.6115	0.135	701223	keystroke_d	d	n/a
350.7315	0.105	701463	keystroke_a	a	n/a
350.8215	0.09	701643	keystroke_Key.enter	Key.enter	n/a
350.9175	9.4915	701835	prompt	n/a	homework hopefully alternate arbitration\n
351.647	0.1045	703294	keystroke_h	h	n/a
351.7365	0.135	703473	keystroke_o	o	n/a
351.8565	0.135	703713	keystroke_m	m	n/a
351.9615	0.09	703923	keystroke_e	e	n/a
352.1415	0.165	704283	keystroke_w	w	n/a
352.2315	0.1195	704463	keystroke_o	o	n/a
352.3665	0.1045	704733	keystroke_r	r	n/a
352.4415	0.1345	704883	keystroke_k	k	n/a
352.621	0.12	705242	keystroke_Key.space	Key.space	n/a
352.742	0.0895	705484	keystroke_h	h	n/a
352.816	0.1805	705632	keystroke_o	o	n/a
352.8765	0.09	705753	keystroke_p	p	n/a
352.9815	0.12	705963	keystroke_e	e	n/a
353.042	0.2095	706084	keystroke_f	f	n/a
353.2065	0.09	706413	keystroke_u	u	n/a
353.3415	0.09	706683	keystroke_l	l	n/a
353.521	0.1055	707042	keystroke_l	l	n/a
353.686	0.106	707372	keystroke_y	y	n/a
353.881	0.12	707762	keystroke_Key.space	Key.space	n/a
354.092	0.194	708184	keystroke_a	a	n/a
354.257	0.104	708514	keystroke_l	l	n/a
354.376	0.09	708752	keystroke_t	t	n/a
354.496	0.165	708992	keystroke_e	e	n/a
354.601	0.106	709202	keystroke_r	r	n/a
354.812	0.134	709624	keystroke_n	n	n/a
354.902	0.119	709804	keystroke_a	a	n/a
355.007	0.105	710014	keystroke_t	t	n/a
355.067	0.135	710134	keystroke_e	e	n/a
355.246	0.1355	710492	keystroke_Key.space	Key.space	n/a
355.5165	0.165	711033	keystroke_a	a	n/a
355.6815	0.075	711363	keystroke_t	t	n/a
355.8765	0.135	711753	keystroke_r	r	n/a
356.0565	0.1345	712113	keystroke_i	i	n/a
357.6915	0.0595	715383	keystroke_Key.backspace	Key.backspace	n/a
357.992	0.12	715984	keystroke_i	i	n/a
358.8615	0.09	717723	keystroke_t	t	n/a
359.0865	0.1055	718173	keystroke_r	r	n/a
359.2815	0.18	718563	keystroke_a	a	n/a
359.881	0.1355	719762	keystroke_t	t	n/a
359.986	0.105	719972	keystroke_i	i	n/a
360.076	0.09	720152	keystroke_o	o	n/a
360.151	0.091	720302	keystroke_n	n	n/a
360.331	0.0755	720662	keystroke_Key.enter	Key.enter	n/a
360.413	7.8845	720826	prompt	n/a	perfect muslim sought biotechnology\n
361.232	0.0745	722464	keystroke_p	p	n/a
361.291	0.15	722582	keystroke_e	e	n/a
361.397	0.1045	722794	keystroke_r	r	n/a
361.6215	0.1345	723243	keystroke_f	f	n/a
361.726	0.106	723452	keystroke_e	e	n/a
361.997	0.089	723994	keystroke_c	c	n/a
362.6415	0.075	725283	keystroke_t	t	n/a
362.7915	0.135	725583	keystroke_Key.space	Key.space	n/a
363.0015	0.075	726003	keystroke_m	m	n/a
363.1815	0.1205	726363	keystroke_u	u	n/a
363.2865	0.12	726573	keystroke_s	s	n/a
363.4365	0.209	726873	keystroke_l	l	n/a
363.9315	0.135	727863	keystroke_i	i	n/a
364.0515	0.15	728103	keystroke_m	m	n/a
364.2615	0.135	728523	keystroke_Key.space	Key.space	n/a
364.3815	0.1355	728763	keystroke_s	s	n/a
364.4415	0.15	728883	keystroke_o	o	n/a
364.5615	0.09	729123	keystroke_u	u	n/a
364.6665	0.06	729333	keystroke_g	g	n/a
364.7415	0.135	729483	keystroke_h	h	n/a
364.8465	0.075	729693	keystroke_t	t	n/a
364.9815	0.1195	729963	keystroke_Key.space	Key.space	n/a
365.1465	0.0905	730293	keystroke_b	b	n/a
365.2205	0.106	730441	keystroke_i	i	n/a
365.2965	0.12	730593	keystroke_o	o	n/a
365.5805	0.151	731161	keystroke_t	t	n/a
365.7765	0.1345	731553	keystroke_e	e	n/a
366.047	0.1195	732094	keystroke_c	c	n/a
366.137	0.1045	732274	keystroke_h	h	n/a
366.2865	0.06	732573	keystroke_o	o	n/a
366.436	0.045	732872	keystroke_n	n	n/a
366.691	0.045	733382	keystroke_Key.backspace	Key.backspace	n/a
366.8565	0.045	733713	keystroke_Key.backspace	Key.backspace	n/a
367.187	0.105	734374	keystroke_n	n	n/a
367.306	0.105	734612	keystroke_o	o	n/a
367.561	0.075	735122	keystroke_l	l	n/a
367.727	0.135	735454	keystroke_o	o	n/a
367.817	0.1345	735634	keystroke_g	g	n/a
367.966	0.06	735932	keystroke_y	y	n/a
368.176	0.1205	736352	keystroke_Key.enter	Key.enter	n/a
368.303	5.5445	736606	prompt	n/a	juan experiences family canal\n
368.8815	0.074	737763	keystroke_j	j	n/a
369.0465	0.105	738093	keystroke_u	u	n/a
369.166	0.1655	738332	keystroke_a	a	n/a
369.317	0.0595	738634	keystroke_n	n	n/a
369.4965	0.119	738993	keystroke_Key.space	Key.space	n/a
369.7365	0.1345	739473	keystroke_e	e	n/a
370.111	0.09	740222	keystroke_x	x	n/a
370.217	0.104	740434	keystroke_p	p	n/a
370.322	0.164	740644	keystroke_e	e	n/a
370.441	0.12	740882	keystroke_r	r	n/a
370.892	0.119	741784	keystroke_i	i	n/a
371.026	0.0905	742052	keystroke_e	e	n/a
371.131	0.136	742262	keystroke_n	n	n/a
371.268	0.088	742536	keystroke_c	c	n/a
371.491	0.135	742982	keystroke_e	e	n/a
371.566	0.1355	743132	keystroke_s	s	n/a
371.686	0.1505	743372	keystroke_Key.space	Key.space	n/a
371.8365	0.074	743673	keystroke_f	f	n/a
371.9565	0.2095	743913	keystroke_a	a	n/a
372.076	0.136	744152	keystroke_m	m	n/a
372.1965	0.1645	744393	keystroke_i	i	n/a
372.271	0.1355	744542	keystroke_l	l	n/a
372.466	0.105	744932	keystroke_y	y	n/a
372.721	0.1655	745442	keystroke_Key.space	Key.space	n/a
372.901	0.1345	745802	keystroke_c	c	n/a
373.0515	0.0905	746103	keystroke_a	a	n/a
373.111	0.1205	746222	keystroke_n	n	n/a
373.2765	0.12	746553	keystroke_a	a	n/a
373.5015	0.1655	747003	keystroke_l	l	n/a
373.7855	0.06	747571	keystroke_Key.enter	Key.enter	n/a
373.852	7.391	747704	prompt	n/a	housewares give testimonials coupons\n
374.6265	0.1045	749253	keystroke_h	h	n/a
374.701	0.18	749402	keystroke_o	o	n/a
374.8365	0.1195	749673	keystroke_u	u	n/a
374.8365	0.135	749673	keystroke_s	s	n/a
375.0765	0.105	750153	keystroke_e	e	n/a
375.406	0.105	750812	keystroke_w	w	n/a
375.4665	0.1945	750933	keystroke_a	a	n/a
375.6315	0.225	751263	keystroke_r	r	n/a
375.7815	0.15	751563	keystroke_e	e	n/a
376.0365	0.21	752073	keystroke_s	s	n/a
376.3965	0.12	752793	keystroke_Key.space	Key.space	n/a
376.8015	0.12	753603	keystroke_g	g	n/a
376.9665	0.15	753933	keystroke_i	i	n/a
377.0715	0.12	754143	keystroke_v	v	n/a
377.1765	0.105	754353	keystroke_e	e	n/a
377.297	0.179	754594	keystroke_Key.space	Key.space	n/a
377.5065	0.1645	755013	keystroke_t	t	n/a
377.626	0.18	755252	keystroke_e	e	n/a
377.731	0.1505	755462	keystroke_s	s	n/a
377.8815	0.1195	755763	keystroke_t	t	n/a
378.0165	0.1195	756033	keystroke_i	i	n/a
378.301	0.1355	756602	keystroke_m	m	n/a
378.481	0.075	756962	keystroke_o	o	n/a
378.571	0.12	757142	keystroke_n	n	n/a
378.7965	0.1505	757593	keystroke_i	i	n/a
378.917	0.12	757834	keystroke_a	a	n/a
379.007	0.134	758014	keystroke_l	l	n/a
379.127	0.1345	758254	keystroke_s	s	n/a
379.2765	0.135	758553	keystroke_Key.space	Key.space	n/a
379.4265	0.15	758853	keystroke_c	c	n/a
379.4865	0.255	758973	keystroke_o	o	n/a
379.6065	0.12	759213	keystroke_u	u	n/a
379.6815	0.105	759363	keystroke_p	p	n/a
379.9965	0.09	759993	keystroke_l	l	n/a
380.5365	0.075	761073	keystroke_Key.backspace	Key.backspace	n/a
380.8065	0.105	761613	keystroke_o	o	n/a
380.9265	0.135	761853	keystroke_n	n	n/a
381.0165	0.15	762033	keystroke_s	s	n/a
381.1815	0.06	762363	keystroke_Key.enter	Key.enter	n/a
381.247	6.626	762494	prompt	n/a	taxi convinced chen imagination\n
381.872	0.134	763744	keystroke_t	t	n/a
381.991	0.15	763982	keystroke_a	a	n/a
382.246	0.061	764492	keystroke_x	x	n/a
382.4105	0.15	764821	keystroke_i	i	n/a
382.6355	0.1505	765271	keystroke_Key.space	Key.space	n/a
382.816	0.1205	765632	keystroke_c	c	n/a
382.891	0.075	765782	keystroke_o	o	n/a
382.981	0.166	765962	keystroke_n	n	n/a
383.101	0.105	766202	keystroke_v	v	n/a
383.237	0.104	766474	keystroke_i	i	n/a
383.5365	0.1045	767073	keystroke_c	c	n/a
384.136	0.0605	768272	keystroke_Key.backspace	Key.backspace	n/a
384.3465	0.12	768693	keystroke_n	n	n/a
384.437	0.0745	768874	keystroke_c	c	n/a
384.6605	0.046	769321	keystroke_e	e	n/a
384.856	0.1205	769712	keystroke_d	d	n/a
385.036	0.1355	770072	keystroke_Key.space	Key.space	n/a
385.381	0.106	770762	keystroke_c	c	n/a
385.487	0.119	770974	keystroke_h	h	n/a
385.622	0.105	771244	keystroke_e	e	n/a
385.7865	0.15	771573	keystroke_n	n	n/a
386.0415	0.135	772083	keystroke_Key.space	Key.space	n/a
386.206	0.09	772412	keystroke_i	i	n/a
386.327	0.1345	772654	keystroke_m	m	n/a
386.552	0.1495	773104	keystroke_a	a	n/a
386.7165	0.09	773433	keystroke_g	g	n/a
386.8665	0.105	773733	keystroke_i	i	n/a
387.0165	0.1655	774033	keystroke_n	n	n/a
387.1965	0.15	774393	keystroke_a	a	n/a
387.3315	0.12	774663	keystroke_t	t	n/a
387.4365	0.1195	774873	keystroke_i	i	n/a
387.5415	0.0895	775083	keystroke_o	o	n/a
387.632	0.0595	775264	keystroke_n	n	n/a
387.7965	0.0745	775593	keystroke_Key.enter	Key.enter	n/a
387.8775	4.602	775755	prompt	n/a	hairy advice consider sperm\n
388.637	0.0895	777274	keystroke_h	h	n/a
388.7115	0.15	777423	keystroke_a	a	n/a
388.8315	0.1495	777663	keystroke_i	i	n/a
388.9665	0.105	777933	keystroke_r	r	n/a
389.1615	0.0745	778323	keystroke_y	y	n/a
389.341	0.105	778682	keystroke_Key.space	Key.space	n/a
389.506	0.1805	779012	keystroke_a	a	n/a
389.6115	0.12	779223	keystroke_d	d	n/a
389.7915	0.12	779583	keystroke_v	v	n/a
389.9265	0.1645	779853	keystroke_i	i	n/a
390.0765	0.1045	780153	keystroke_c	c	n/a
390.316	0.076	780632	keystroke_e	e	n/a
390.4815	0.1345	780963	keystroke_Key.space	Key.space	n/a
390.601	0.121	781202	keystroke_c	c	n/a
390.692	0.0745	781384	keystroke_o	o	n/a
390.796	0.135	781592	keystroke_n	n	n/a
390.9165	0.12	781833	keystroke_s	s	n/a
391.0515	0.1355	782103	keystroke_i	i	n/a
391.1715	0.0905	782343	keystroke_d	d	n/a
391.3665	0.1205	782733	keystroke_e	e	n/a
391.442	0.0895	782884	keystroke_r	r	n/a
391.5455	0.1355	783091	keystroke_Key.space	Key.space	n/a
391.6665	0.135	783333	keystroke_s	s	n/a
391.7715	0.09	783543	keystroke_p	p	n/a
391.8615	0.1945	783723	keystroke_e	e	n/a
391.981	0.1355	783962	keystroke_r	r	n/a
392.1915	0.1205	784383	keystroke_m	m	n/a
392.401	0.075	784802	keystroke_Key.enter	Key.enter	n/a
392.483	9.2655	784966	prompt	n/a	duck reputation melissa ourselves\n
393.1815	0.1205	786363	keystroke_d	d	n/a
393.302	0.104	786604	keystroke_u	u	n/a
393.481	0.09	786962	keystroke_c	c	n/a
393.527	0.1345	787054	keystroke_k	k	n/a
393.7365	0.135	787473	keystroke_Key.space	Key.space	n/a
393.9165	0.1355	787833	keystroke_r	r	n/a
394.0065	0.1655	788013	keystroke_e	e	n/a
394.2165	0.105	788433	keystroke_p	p	n/a
394.561	0.15	789122	keystroke_u	u	n/a
395.8805	0.0605	791761	keystroke_Key.backspace	Key.backspace	n/a
396.316	0.1355	792632	keystroke_a	a	n/a
396.481	0.106	792962	keystroke_t	t	n/a
397.367	0.18	794734	keystroke_i	i	n/a
397.532	0.134	795064	keystroke_o	o	n/a
397.651	0.136	795302	keystroke_n	n	n/a
398.5815	0.1345	797163	keystroke_Key.space	Key.space	n/a
399.2565	0.1645	798513	keystroke_m	m	n/a
399.3165	0.15	798633	keystroke_e	e	n/a
399.482	0.209	798964	keystroke_l	l	n/a
399.661	0.135	799322	keystroke_i	i	n/a
399.8115	0.1045	799623	keystroke_s	s	n/a
400.0215	0.15	800043	keystroke_s	s	n/a
400.1865	0.15	800373	keystroke_a	a	n/a
400.2765	0.165	800553	keystroke_Key.space	Key.space	n/a
400.487	0.18	800974	keystroke_o	o	n/a
400.6365	0.09	801273	keystroke_u	u	n/a
400.6515	0.105	801303	keystroke_r	r	n/a
400.8915	0.1355	801783	keystroke_s	s	n/a
401.1615	0.105	802323	keystroke_e	e	n/a
401.3265	0.15	802653	keystroke_l	l	n/a
401.4315	0.105	802863	keystroke_v	v	n/a
401.5065	0.135	803013	keystroke_e	e	n/a
401.5665	0.15	803133	keystroke_s	s	n/a
401.6715	0.075	803343	keystroke_Key.enter	Key.enter	n/a
401.753	5.155	803506	prompt	n/a	ignored lady classified talented\n
402.377	0.1045	804754	keystroke_i	i	n/a
402.496	0.09	804992	keystroke_g	g	n/a
402.6165	0.105	805233	keystroke_n	n	n/a
402.736	0.1055	805472	keystroke_o	o	n/a
402.7665	0.1495	805533	keystroke_r	r	n/a
402.901	0.075	805802	keystroke_e	e	n/a
403.0965	0.0745	806193	keystroke_d	d	n/a
403.171	0.165	806342	keystroke_Key.space	Key.space	n/a
403.292	0.15	806584	keystroke_l	l	n/a
403.337	0.15	806674	keystroke_a	a	n/a
403.456	0.135	806912	keystroke_d	d	n/a
403.577	0.0895	807154	keystroke_y	y	n/a
403.7855	0.151	807571	keystroke_Key.space	Key.space	n/a
403.907	0.1345	807814	keystroke_c	c	n/a
404.0115	0.135	808023	keystroke_l	l	n/a
404.1315	0.135	808263	keystroke_a	a	n/a
404.2215	0.135	808443	keystroke_s	s	n/a
404.4765	0.09	808953	keystroke_s	s	n/a
404.641	0.12	809282	keystroke_i	i	n/a
404.776	0.135	809552	keystroke_f	f	n/a
404.9715	0.149	809943	keystroke_i	i	n/a
405.1365	0.12	810273	keystroke_e	e	n/a
405.3765	0.12	810753	keystroke_d	d	n/a
405.511	0.15	811022	keystroke_Key.space	Key.space	n/a
405.6765	0.09	811353	keystroke_t	t	n/a
405.8105	0.1205	811621	keystroke_a	a	n/a
405.9015	0.12	811803	keystroke_l	l	n/a
406.0665	0.12	812133	keystroke_n	n	n/a
406.1415	0.1205	812283	keystroke_e	e	n/a
406.3965	0.15	812793	keystroke_t	t	n/a
406.5165	0.1205	813033	keystroke_e	e	n/a
406.7415	0.1055	813483	keystroke_d	d	n/a
406.861	0.0455	813722	keystroke_Key.enter	Key.enter	n/a
406.9125	8.3805	813825	prompt	n/a	liechtenstein specifies star silly\n
407.7765	0.1505	815553	keystroke_l	l	n/a
407.896	0.1365	815792	keystroke_i	i	n/a
408.1365	0.135	816273	keystroke_e	e	n/a
408.8415	0.15	817683	keystroke_c	c	n/a
408.9765	0.12	817953	keystroke_h	h	n/a
409.3815	0.15	818763	keystroke_t	t	n/a
409.5015	0.12	819003	keystroke_e	e	n/a
409.6365	0.12	819273	keystroke_n	n	n/a
410.0415	0.1645	820083	keystroke_s	s	n/a
410.237	0.164	820474	keystroke_t	t	n/a
410.371	0.1505	820742	keystroke_e	e	n/a
410.6115	0.165	821223	keystroke_i	i	n/a
410.7915	0.1355	821583	keystroke_n	n	n/a
411.0465	0.135	822093	keystroke_Key.space	Key.space	n/a
411.1515	0.18	822303	keystroke_s	s	n/a
411.2865	0.1045	822573	keystroke_p	p	n/a
411.377	0.074	822754	keystroke_e	e	n/a
412.261	0.135	824522	keystroke_c	c	n/a
412.442	0.12	824884	keystroke_i	i	n/a
412.682	0.1645	825364	keystroke_f	f	n/a
412.7865	0.165	825573	keystroke_i	i	n/a
412.8915	0.195	825783	keystroke_e	e	n/a
412.9965	0.135	825993	keystroke_s	s	n/a
413.1465	0.135	826293	keystroke_Key.space	Key.space	n/a
413.2515	0.105	826503	keystroke_s	s	n/a
413.3865	0.15	826773	keystroke_t	t	n/a
413.4915	0.165	826983	keystroke_a	a	n/a
413.6115	0.12	827223	keystroke_r	r	n/a
413.911	0.136	827822	keystroke_Key.space	Key.space	n/a
414.0765	0.1795	828153	keystroke_s	s	n/a
414.4515	0.135	828903	keystroke_i	i	n/a
414.601	0.0605	829202	keystroke_l	l	n/a
414.7815	0.1195	829563	keystroke_l	l	n/a
414.976	0.0755	829952	keystroke_y	y	n/a
415.216	0.075	830432	keystroke_Key.enter	Key.enter	n/a
415.296	6.987	830592	prompt	n/a	alternatives must've oscar paragraphs\n
415.9965	0.1505	831993	keystroke_a	a	n/a
416.0865	0.165	832173	keystroke_l	l	n/a
416.2815	0.09	832563	keystroke_t	t	n/a
416.4165	0.165	832833	keystroke_e	e	n/a
416.5215	0.15	833043	keystroke_r	r	n/a
416.6865	0.165	833373	keystroke_n	n	n/a
416.807	0.135	833614	keystroke_a	a	n/a
416.9265	0.12	833853	keystroke_t	t	n/a
417.1965	0.15	834393	keystroke_i	i	n/a
417.3615	0.105	834723	keystroke_v	v	n/a
417.4365	0.165	834873	keystroke_e	e	n/a
417.5415	0.09	835083	keystroke_s	s	n/a
417.6165	0.12	835233	keystroke_Key.space	Key.space	n/a
417.7065	0.075	835413	keystroke_m	m	n/a
417.8865	0.1195	835773	keystroke_u	u	n/a
417.9915	0.1205	835983	keystroke_s	s	n/a
418.097	0.105	836194	keystroke_t	t	n/a
418.3965	0.12	836793	keystroke_'	'	n/a
418.637	0.119	837274	keystroke_v	v	n/a
418.727	0.1195	837454	keystroke_e	e	n/a
418.8905	0.1205	837781	keystroke_Key.space	Key.space	n/a
419.207	0.1345	838414	keystroke_o	o	n/a
419.2965	0.105	838593	keystroke_s	s	n/a
419.5065	0.1345	839013	keystroke_c	c	n/a
419.6265	0.1505	839253	keystroke_a	a	n/a
419.716	0.165	839432	keystroke_r	r	n/a
419.9865	0.12	839973	keystroke_Key.space	Key.space	n/a
420.3315	0.105	840663	keystroke_p	p	n/a
420.4815	0.09	840963	keystroke_a	a	n/a
420.8715	0.105	841743	keystroke_r	r	n/a
420.977	0.165	841954	keystroke_a	a	n/a
421.472	0.075	842944	keystroke_g	g	n/a
421.667	0.119	843334	keystroke_r	r	n/a
421.742	0.165	843484	keystroke_a	a	n/a
421.892	0.06	843784	keystroke_p	p	n/a
421.997	0.089	843994	keystroke_h	h	n/a
422.041	0.15	844082	keystroke_s	s	n/a
422.221	0.0605	844442	keystroke_Key.enter	Key.enter	n/a
422.2875	5.0205	844575	prompt	n/a	glow used milwaukee published\n
422.9865	0.105	845973	keystroke_g	g	n/a
423.0765	0.09	846153	keystroke_l	l	n/a
423.2415	0.105	846483	keystroke_o	o	n/a
423.362	0.0595	846724	keystroke_w	w	n/a
423.4665	0.09	846933	keystroke_Key.space	Key.space	n/a
423.6015	0.105	847203	keystroke_u	u	n/a
423.661	0.1055	847322	keystroke_s	s	n/a
423.7515	0.09	847503	keystroke_e	e	n/a
423.9465	0.12	847893	keystroke_d	d	n/a
424.096	0.075	848192	keystroke_Key.space	Key.space	n/a
424.156	0.15	848312	keystroke_m	m	n/a
424.291	0.105	848582	keystroke_i	i	n/a
424.382	0.164	848764	keystroke_l	l	n/a
424.592	0.15	849184	keystroke_w	w	n/a
424.6965	0.1505	849393	keystroke_a	a	n/a
425.0115	0.135	850023	keystroke_u	u	n/a
425.3565	0.135	850713	keystroke_k	k	n/a
425.4465	0.075	850893	keystroke_e	e	n/a
425.6265	0.105	851253	keystroke_e	e	n/a
425.8515	0.12	851703	keystroke_Key.space	Key.space	n/a
426.0315	0.135	852063	keystroke_p	p	n/a
426.1365	0.1505	852273	keystroke_u	u	n/a
426.2565	0.105	852513	keystroke_b	b	n/a
426.4665	0.1795	852933	keystroke_l	l	n/a
426.617	0.149	853234	keystroke_i	i	n/a
426.7365	0.12	853473	keystroke_s	s	n/a
426.812	0.134	853624	keystroke_h	h	n/a
426.9315	0.0745	853863	keystroke_e	e	n/a
427.096	0.1205	854192	keystroke_d	d	n/a
427.231	0.0755	854462	keystroke_Key.enter	Key.enter	n/a
427.312	10.661	854624	prompt	n/a	applicants there're immune uses\n
428.087	0.1345	856174	keystroke_a	a	n/a
428.1765	0.075	856353	keystroke_p	p	n/a
428.3415	0.075	856683	keystroke_p	p	n/a
428.4465	0.195	856893	keystroke_l	l	n/a
428.6115	0.135	857223	keystroke_i	i	n/a
428.7915	0.12	857583	keystroke_c	c	n/a
428.912	0.1645	857824	keystroke_a	a	n/a
429.0315	0.135	858063	keystroke_t	t	n/a
429.526	0.045	859052	keystroke_Key.backspace	Key.backspace	n/a
429.752	0.135	859504	keystroke_n	n	n/a
429.827	0.164	859654	keystroke_t	t	n/a
430.3065	0.18	860613	keystroke_s	s	n/a
430.501	0.105	861002	keystroke_Key.space	Key.space	n/a
430.6365	0.09	861273	keystroke_t	t	n/a
430.697	0.12	861394	keystroke_h	h	n/a
430.7705	0.1205	861541	keystroke_e	e	n/a
430.8615	0.15	861723	keystroke_r	r	n/a
430.981	0.1345	861962	keystroke_e	e	n/a
431.971	0.076	863942	keystroke_'	'	n/a
432.631	0.09	865262	keystroke_Key.backspace	Key.backspace	n/a
433.021	0.046	866042	keystroke_Key.backspace	Key.backspace	n/a
433.546	0.075	867092	keystroke_Key.backspace	Key.backspace	n/a
435.046	0.135	870092	keystroke_r	r	n/a
435.1515	0.105	870303	keystroke_e	e	n/a
435.661	0.121	871322	keystroke_'	'	n/a
435.887	0.1485	871774	keystroke_r	r	n/a
435.9765	0.1505	871953	keystroke_e	e	n/a
436.201	0.121	872402	keystroke_Key.space	Key.space	n/a
436.501	0.091	873002	keystroke_i	i	n/a
436.6215	0.075	873243	keystroke_m	m	n/a
436.7715	0.09	873543	keystroke_m	m	n/a
436.9665	0.0745	873933	keystroke_u	u	n/a
437.161	0.136	874322	keystroke_n	n	n/a
437.252	0.105	874504	keystroke_e	e	n/a
437.401	0.075	874802	keystroke_Key.space	Key.space	n/a
437.521	0.12	875042	keystroke_u	u	n/a
437.566	0.1205	875132	keystroke_s	s	n/a
437.656	0.181	875312	keystroke_e	e	n/a
437.776	0.1655	875552	keystroke_s	s	n/a
437.926	0.0455	875852	keystroke_Key.enter	Key.enter	n/a
437.978	4.585	875956	prompt	n/a	pills chubby saved arguments\n
438.5715	0.1495	877143	keystroke_p	p	n/a
438.7065	0.1495	877413	keystroke_i	i	n/a
438.827	0.104	877654	keystroke_l	l	n/a
439.022	0.135	878044	keystroke_l	l	n/a
439.141	0.105	878282	keystroke_s	s	n/a
439.306	0.1345	878612	keystroke_Key.space	Key.space	n/a
439.5015	0.105	879003	keystroke_c	c	n/a
439.5615	0.0905	879123	keystroke_h	h	n/a
439.7565	0.12	879513	keystroke_u	u	n/a
439.8465	0.075	879693	keystroke_b	b	n/a
440.027	0.105	880054	keystroke_b	b	n/a
440.1465	0.09	880293	keystroke_y	y	n/a
440.3715	0.18	880743	keystroke_Key.space	Key.space	n/a
440.5655	0.166	881131	keystroke_s	s	n/a
440.686	0.1505	881372	keystroke_a	a	n/a
440.7915	0.1055	881583	keystroke_v	v	n/a
440.9115	0.075	881823	keystroke_e	e	n/a
441.1065	0.119	882213	keystroke_d	d	n/a
441.2405	0.1505	882481	keystroke_Key.space	Key.space	n/a
441.346	0.165	882692	keystroke_a	a	n/a
441.467	0.0745	882934	keystroke_r	r	n/a
441.6615	0.09	883323	keystroke_g	g	n/a
441.691	0.106	883382	keystroke_u	u	n/a
441.9465	0.1505	883893	keystroke_m	m	n/a
442.0665	0.135	884133	keystroke_e	e	n/a
442.217	0.134	884434	keystroke_n	n	n/a
442.2915	0.104	884583	keystroke_t	t	n/a
442.3665	0.15	884733	keystroke_s	s	n/a
442.4865	0.074	884973	keystroke_Key.enter	Key.enter	n/a
442.5685	4.9755	885137	prompt	n/a	continues wife denial till\n
443.3715	0.1205	886743	keystroke_c	c	n/a
443.432	0.09	886864	keystroke_o	o	n/a
443.5515	0.1195	887103	keystroke_n	n	n/a
443.656	0.136	887312	keystroke_t	t	n/a
443.777	0.105	887554	keystroke_i	i	n/a
443.8965	0.105	887793	keystroke_n	n	n/a
444.1215	0.119	888243	keystroke_u	u	n/a
444.1965	0.165	888393	keystroke_e	e	n/a
444.3015	0.09	888603	keystroke_s	s	n/a
444.421	0.165	888842	keystroke_Key.space	Key.space	n/a
444.6165	0.1345	889233	keystroke_w	w	n/a
444.797	0.1345	889594	keystroke_i	i	n/a
444.9615	0.1795	889923	keystroke_f	f	n/a
445.0665	0.1205	890133	keystroke_e	e	n/a
445.201	0.1055	890402	keystroke_Key.space	Key.space	n/a
445.351	0.075	890702	keystroke_d	d	n/a
445.5465	0.12	891093	keystroke_e	e	n/a
445.7265	0.105	891453	keystroke_n	n	n/a
445.8915	0.165	891783	keystroke_i	i	n/a
445.9815	0.165	891963	keystroke_a	a	n/a
446.131	0.1505	892262	keystroke_l	l	n/a
446.341	0.1655	892682	keystroke_Key.space	Key.space	n/a
446.5665	0.105	893133	keystroke_t	t	n/a
446.6265	0.135	893253	keystroke_i	i	n/a
446.7465	0.105	893493	keystroke_l	l	n/a
446.9115	0.135	893823	keystroke_l	l	n/a
447.3615	0.18	894723	keystroke_Key.enter	Key.enter	n/a
447.5505	6.2925	895101	prompt	n/a	illegal assure dispatch timeline\n
448.2465	0.12	896493	keystroke_i	i	n/a
448.4265	0.15	896853	keystroke_l	l	n/a
448.5015	0.105	897003	keystroke_e	e	n/a
448.7265	0.1055	897453	keystroke_e	e	n/a
448.9065	0.105	897813	keystroke_g	g	n/a
449.0115	0.135	898023	keystroke_a	a	n/a
449.0865	0.12	898173	keystroke_l	l	n/a
449.2965	0.1495	898593	keystroke_Key.space	Key.space	n/a
449.4615	0.18	898923	keystroke_a	a	n/a
449.5815	0.12	899163	keystroke_s	s	n/a
449.7915	0.15	899583	keystroke_s	s	n/a
449.957	0.09	899914	keystroke_u	u	n/a
450.121	0.1205	900242	keystroke_e	e	n/a
450.526	0.0605	901052	keystroke_Key.backspace	Key.backspace	n/a
450.691	0.1205	901382	keystroke_r	r	n/a
450.7665	0.12	901533	keystroke_e	e	n/a
450.931	0.12	901862	keystroke_Key.space	Key.space	n/a
451.216	0.181	902432	keystroke_d	d	n/a
451.381	0.1505	902762	keystroke_i	i	n/a
451.5465	0.1345	903093	keystroke_s	s	n/a
451.8765	0.1645	903753	keystroke_p	p	n/a
452.042	0.164	904084	keystroke_a	a	n/a
452.2215	0.105	904443	keystroke_t	t	n/a
452.4465	0.104	904893	keystroke_c	c	n/a
452.5365	0.12	905073	keystroke_h	h	n/a
452.7165	0.12	905433	keystroke_Key.space	Key.space	n/a
452.8665	0.075	905733	keystroke_t	t	n/a
452.8815	0.09	905763	keystroke_i	i	n/a
452.9725	0.209	905945	keystroke_m	m	n/a
453.0915	0.105	906183	keystroke_e	e	n/a
453.3765	0.135	906753	keystroke_l	l	n/a
453.4815	0.105	906963	keystroke_i	i	n/a
453.5865	0.105	907173	keystroke_n	n	n/a
453.6765	0.075	907353	keystroke_e	e	n/a
453.7665	0.075	907533	keystroke_Key.enter	Key.enter	n/a
453.847	7.722	907694	prompt	n/a	login edward logic redeem\n
454.6065	0.075	909213	keystroke_l	l	n/a
454.7715	0.105	909543	keystroke_o	o	n/a
454.8915	0.12	909783	keystroke_g	g	n/a
455.1015	0.1195	910203	keystroke_i	i	n/a
455.206	0.15	910412	keystroke_n	n	n/a
455.461	0.1355	910922	keystroke_Key.space	Key.space	n/a
455.6715	0.1505	911343	keystroke_e	e	n/a
455.9265	0.135	911853	keystroke_d	d	n/a
456.226	0.1955	912452	keystroke_w	w	n/a
456.3615	0.135	912723	keystroke_a	a	n/a
456.4515	0.15	912903	keystroke_r	r	n/a
456.586	0.1805	913172	keystroke_d	d	n/a
456.8705	0.106	913741	keystroke_Key.space	Key.space	n/a
457.0815	0.1195	914163	keystroke_l	l	n/a
457.2615	0.0745	914523	keystroke_g	g	n/a
457.291	0.136	914582	keystroke_o	o	n/a
458.056	0.075	916112	keystroke_Key.backspace	Key.backspace	n/a
458.251	0.075	916502	keystroke_Key.backspace	Key.backspace	n/a
458.566	0.121	917132	keystroke_o	o	n/a
459.077	0.1345	918154	keystroke_g	g	n/a
459.2115	0.135	918423	keystroke_i	i	n/a
459.3615	0.12	918723	keystroke_c	c	n/a
459.571	0.12	919142	keystroke_Key.space	Key.space	n/a
459.8865	0.18	919773	keystroke_r	r	n/a
460.022	0.119	920044	keystroke_e	e	n/a
460.2615	0.03	920523	keystroke_e	e	n/a
460.6665	0.09	921333	keystroke_Key.backspace	Key.backspace	n/a
460.8015	0.105	921603	keystroke_d	d	n/a
461.0265	0.09	922053	keystroke_e	e	n/a
461.1915	0.15	922383	keystroke_e	e	n/a
461.2815	0.105	922563	keystroke_m	m	n/a
461.4465	0.12	922893	keystroke_Key.enter	Key.enter	n/a
461.573	6.2355	923146	prompt	n/a	happens asks prescribed macedonia\n
462.242	0.105	924484	keystroke_h	h	n/a
462.3615	0.1495	924723	keystroke_a	a	n/a
462.436	0.091	924872	keystroke_p	p	n/a
462.631	0.09	925262	keystroke_p	p	n/a
462.707	0.1195	925414	keystroke_e	e	n/a
462.811	0.1205	925622	keystroke_n	n	n/a
462.901	0.1205	925802	keystroke_s	s	n/a
463.036	0.1505	926072	keystroke_Key.space	Key.space	n/a
463.1415	0.18	926283	keystroke_a	a	n/a
463.2315	0.105	926463	keystroke_s	s	n/a
463.3065	0.135	926613	keystroke_k	k	n/a
463.4415	0.15	926883	keystroke_s	s	n/a
463.5765	0.105	927153	keystroke_Key.space	Key.space	n/a
463.7265	0.09	927453	keystroke_p	p	n/a
463.8015	0.1495	927603	keystroke_r	r	n/a
463.9215	0.12	927843	keystroke_e	e	n/a
464.026	0.136	928052	keystroke_s	s	n/a
464.2815	0.119	928563	keystroke_c	c	n/a
464.4765	0.1195	928953	keystroke_r	r	n/a
464.641	0.15	929282	keystroke_i	i	n/a
464.821	0.1055	929642	keystroke_b	b	n/a
464.986	0.105	929972	keystroke_e	e	n/a
465.2115	0.1195	930423	keystroke_d	d	n/a
465.376	0.1055	930752	keystroke_Key.space	Key.space	n/a
465.6165	0.165	931233	keystroke_m	m	n/a
465.7365	0.135	931473	keystroke_a	a	n/a
466.112	0.119	932224	keystroke_c	c	n/a
466.6215	0.1195	933243	keystroke_e	e	n/a
467.1315	0.1645	934263	keystroke_d	d	n/a
467.237	0.074	934474	keystroke_o	o	n/a
467.3415	0.1045	934683	keystroke_n	n	n/a
467.477	0.134	934954	keystroke_i	i	n/a
467.4915	0.1045	934983	keystroke_a	a	n/a
467.716	0.09	935432	keystroke_Key.enter	Key.enter	n/a
467.812	8.0815	935624	prompt	n/a	employee irish equipped mailed\n
468.4815	0.1195	936963	keystroke_e	e	n/a
468.631	0.106	937262	keystroke_m	m	n/a
468.796	0.105	937592	keystroke_p	p	n/a
468.917	0.1645	937834	keystroke_l	l	n/a
469.186	0.166	938372	keystroke_o	o	n/a
469.426	0.06	938852	keystroke_h	h	n/a
469.651	0.12	939302	keystroke_e	e	n/a
470.0115	0.15	940023	keystroke_e	e	n/a
470.431	0.075	940862	keystroke_Key.backspace	Key.backspace	n/a
470.596	0.06	941192	keystroke_Key.backspace	Key.backspace	n/a
470.776	0.075	941552	keystroke_Key.backspace	Key.backspace	n/a
471.1815	0.0895	942363	keystroke_y	y	n/a
471.4205	0.091	942841	keystroke_e	e	n/a
471.6165	0.09	943233	keystroke_e	e	n/a
471.946	0.0155	943892	keystroke_Key.space	Key.space	n/a
472.2165	0.135	944433	keystroke_i	i	n/a
472.4565	0.09	944913	keystroke_r	r	n/a
472.5465	0.18	945093	keystroke_i	i	n/a
472.6815	0.089	945363	keystroke_s	s	n/a
472.7415	0.105	945483	keystroke_h	h	n/a
472.9515	0.1495	945903	keystroke_Key.space	Key.space	n/a
473.1915	0.15	946383	keystroke_e	e	n/a
473.6565	0.105	947313	keystroke_q	q	n/a
473.9565	0.1045	947913	keystroke_u	u	n/a
474.0315	0.135	948063	keystroke_i	i	n/a
474.4365	0.075	948873	keystroke_p	p	n/a
474.6165	0.075	949233	keystroke_p	p	n/a
474.6765	0.09	949353	keystroke_e	e	n/a
474.8715	0.12	949743	keystroke_d	d	n/a
475.0065	0.18	950013	keystroke_Key.space	Key.space	n/a
475.187	0.1945	950374	keystroke_m	m	n/a
475.2915	0.1495	950583	keystroke_a	a	n/a
475.3665	0.1355	950733	keystroke_i	i	n/a
475.427	0.179	950854	keystroke_l	l	n/a
475.517	0.074	951034	keystroke_e	e	n/a
475.696	0.0905	951392	keystroke_d	d	n/a
475.816	0.075	951632	keystroke_Key.enter	Key.enter	n/a
475.898	4.9455	951796	prompt	n/a	thongs entirely borders scared\n
476.581	0.1355	953162	keystroke_t	t	n/a
476.641	0.105	953282	keystroke_h	h	n/a
476.731	0.1055	953462	keystroke_o	o	n/a
476.851	0.15	953702	keystroke_n	n	n/a
476.971	0.15	953942	keystroke_g	g	n/a
477.0915	0.165	954183	keystroke_s	s	n/a
477.2865	0.12	954573	keystroke_Key.space	Key.space	n/a
477.4815	0.12	954963	keystroke_e	e	n/a
477.6465	0.0895	955293	keystroke_n	n	n/a
477.751	0.105	955502	keystroke_t	t	n/a
477.8415	0.18	955683	keystroke_i	i	n/a
477.991	0.136	955982	keystroke_r	r	n/a
478.0815	0.12	956163	keystroke_e	e	n/a
478.2165	0.12	956433	keystroke_l	l	n/a
478.4115	0.06	956823	keystroke_y	y	n/a
478.6065	0.105	957213	keystroke_Key.space	Key.space	n/a
478.6965	0.105	957393	keystroke_b	b	n/a
478.7565	0.135	957513	keystroke_o	o	n/a
478.937	0.134	957874	keystroke_r	r	n/a
479.0565	0.105	958113	keystroke_d	d	n/a
479.2815	0.15	958563	keystroke_e	e	n/a
479.3415	0.1645	958683	keystroke_r	r	n/a
479.521	0.166	959042	keystroke_s	s	n/a
479.716	0.1205	959432	keystroke_Key.space	Key.space	n/a
479.9415	0.105	959883	keystroke_s	s	n/a
480.106	0.1355	960212	keystroke_c	c	n/a
480.256	0.121	960512	keystroke_a	a	n/a
480.317	0.134	960634	keystroke_r	r	n/a
480.421	0.1205	960842	keystroke_e	e	n/a
480.616	0.09	961232	keystroke_d	d	n/a
480.766	0.075	961532	keystroke_Key.enter	Key.enter	n/a
480.847	8.9515	961694	prompt	n/a	dispatch demand who'd've lets\n
481.562	0.15	963124	keystroke_d	d	n/a
481.697	0.119	963394	keystroke_i	i	n/a
481.8015	0.165	963603	keystroke_s	s	n/a
482.0115	0.105	964023	keystroke_p	p	n/a
482.1755	0.1215	964351	keystroke_a	a	n/a
482.3415	0.0755	964683	keystroke_t	t	n/a
482.5815	0.0905	965163	keystroke_c	c	n/a
482.6565	0.105	965313	keystroke_h	h	n/a
482.8065	0.15	965613	keystroke_Key.space	Key.space	n/a
482.9115	0.105	965823	keystroke_d	d	n/a
483.1215	0.105	966243	keystroke_e	e	n/a
483.2115	0.165	966423	keystroke_m	m	n/a
483.3315	0.135	966663	keystroke_a	a	n/a
483.692	0.1795	967384	keystroke_n	n	n/a
483.7815	0.15	967563	keystroke_d	d	n/a
483.9915	0.1195	967983	keystroke_Key.space	Key.space	n/a
484.1565	0.135	968313	keystroke_w	w	n/a
484.6065	0.1205	969213	keystroke_h	h	n/a
484.7415	0.09	969483	keystroke_o	o	n/a
485.2515	0.12	970503	keystroke_'	'	n/a
485.8815	0.075	971763	keystroke_Key.backspace	Key.backspace	n/a
486.3615	0.135	972723	keystroke_'	'	n/a
486.5715	0.15	973143	keystroke_d	d	n/a
486.7815	0.12	973563	keystroke_v	v	n/a
486.8865	0.15	973773	keystroke_e	e	n/a
487.951	0.0455	975902	keystroke_Key.backspace	Key.backspace	n/a
488.131	0.0605	976262	keystroke_Key.backspace	Key.backspace	n/a
488.7615	0.15	977523	keystroke_'	'	n/a
488.927	0.104	977854	keystroke_v	v	n/a
489.0015	0.105	978003	keystroke_e	e	n/a
489.151	0.12	978302	keystroke_Key.space	Key.space	n/a
489.287	0.135	978574	keystroke_l	l	n/a
489.376	0.241	978752	keystroke_e	e	n/a
489.481	0.1205	978962	keystroke_t	t	n/a
489.5715	0.105	979143	keystroke_s	s	n/a
489.7215	0.075	979443	keystroke_Key.enter	Key.enter	n/a
489.803	7.3305	979606	prompt	n/a	personalized infrared nigeria when\n
491.3415	0.1055	982683	keystroke_p	p	n/a
491.4015	0.225	982803	keystroke_e	e	n/a
491.4915	0.12	982983	keystroke_r	r	n/a
491.6415	0.1655	983283	keystroke_s	s	n/a
491.852	0.105	983704	keystroke_o	o	n/a
491.9715	0.1055	983943	keystroke_n	n	n/a
492.062	0.1345	984124	keystroke_a	a	n/a
492.2265	0.2245	984453	keystroke_l	l	n/a
