onset	duration	sample	value	key	prompt_text
7.0375	14.16	14075	prompt	n/a	the quick brown fox jumps over a lazy dog\n
8.416	0	16832	keystroke	t	n/a
8.533	0.06	17066	keystroke	h	n/a
8.653	0.15	17306	keystroke	e	n/a
8.818	0.09	17636	keystroke	Key.space	n/a
9.014	0.105	18028	keystroke	q	n/a
9.1485	0.0755	18297	keystroke	u	n/a
9.284	0.0895	18568	keystroke	i	n/a
9.4335	0.075	18867	keystroke	c	n/a
9.6135	0.0755	19227	keystroke	k	n/a
9.7785	0.0905	19557	keystroke	Key.space	n/a
10.064	0.0895	20128	keystroke	b	n/a
10.544	0.06	21088	keystroke	r	n/a
10.679	0.06	21358	keystroke	o	n/a
11.8935	0.09	23787	keystroke	w	n/a
12.0435	0.075	24087	keystroke	n	n/a
12.1485	0.12	24297	keystroke	Key.space	n/a
12.7935	0.075	25587	keystroke	f	n/a
12.8835	0.09	25767	keystroke	o	n/a
13.708	0.09	27416	keystroke	x	n/a
13.934	0.09	27868	keystroke	Key.space	n/a
14.2035	0.0755	28407	keystroke	j	n/a
14.354	0.075	28708	keystroke	u	n/a
14.549	0.105	29098	keystroke	m	n/a
15.404	0.045	30808	keystroke	p	n/a
15.508	0.105	31016	keystroke	s	n/a
15.583	0.136	31166	keystroke	Key.space	n/a
15.779	0.059	31558	keystroke	i	n/a
16.303	0.06	32606	keystroke	Key.backspace	n/a
16.499	0.059	32998	keystroke	o	n/a
16.8135	0.06	33627	keystroke	v	n/a
16.8885	0.06	33777	keystroke	e	n/a
17.0385	0.12	34077	keystroke	r	n/a
17.1285	0.09	34257	keystroke	Key.space	n/a
17.3235	0.12	34647	keystroke	a	n/a
17.3835	0.12	34767	keystroke	Key.space	n/a
18.299	0.075	36598	keystroke	l	n/a
18.389	0.105	36778	keystroke	a	n/a
18.719	0.09	37438	keystroke	z	n/a
18.884	0.09	37768	keystroke	y	n/a
19.019	0.075	38038	keystroke	Key.space	n/a
19.814	0.06	39628	keystroke	d	n/a
19.903	0.076	39806	keystroke	o	n/a
20.069	0.06	40138	keystroke	g	n/a
21.148	0.045	42296	keystroke	Key.enter	n/a
21.2035	7.9425	42407	prompt	n/a	pound tell ignored romania\n
22.558	0.061	45116	keystroke	p	n/a
22.904	0.075	45808	keystroke	o	n/a
23.4135	0.046	46827	keystroke	u	n/a
23.5635	0.0755	47127	keystroke	n	n/a
23.669	0.12	47338	keystroke	d	n/a
23.804	0.1045	47608	keystroke	Key.space	n/a
24.479	0.06	48958	keystroke	t	n/a
24.554	0.06	49108	keystroke	e	n/a
24.929	0.045	49858	keystroke	l	n/a
25.064	0.075	50128	keystroke	l	n/a
25.259	0.105	50518	keystroke	Key.space	n/a
25.829	0.06	51658	keystroke	i	n/a
26.039	0.06	52078	keystroke	g	n/a
26.144	0.09	52288	keystroke	n	n/a
26.309	0.075	52618	keystroke	o	n/a
26.564	0.075	53128	keystroke	r	n/a
26.669	0.075	53338	keystroke	e	n/a
26.879	0.165	53758	keystroke	d	n/a
27.059	0.075	54118	keystroke	Key.space	n/a
27.359	0.105	54718	keystroke	r	n/a
27.479	0.09	54958	keystroke	o	n/a
27.644	0.105	55288	keystroke	m	n/a
27.734	0.09	55468	keystroke	a	n/a
27.884	0.075	55768	keystroke	n	n/a
28.034	0.075	56068	keystroke	i	n/a
28.139	0.09	56278	keystroke	a	n/a
29.084	0.06	58168	keystroke	Key.enter	n/a
29.149	8.7865	58298	prompt	n/a	fresh buzz black amateur\n
29.9995	0.075	59999	keystroke	f	n/a
30.1785	0.075	60357	keystroke	r	n/a
30.2985	0.06	60597	keystroke	e	n/a
30.5085	0.075	61017	keystroke	s	n/a
30.6435	0.075	61287	keystroke	h	n/a
30.7935	0.09	61587	keystroke	Key.space	n/a
31.3495	0.074	62699	keystroke	b	n/a
31.5135	0.075	63027	keystroke	u	n/a
31.6335	0.075	63267	keystroke	s	n/a
32.7585	0.06	65517	keystroke	Key.backspace	n/a
33.0885	0.09	66177	keystroke	z	n/a
33.2535	0.046	66507	keystroke	z	n/a
33.4785	0.06	66957	keystroke	Key.space	n/a
34.2585	0.075	68517	keystroke	b	n/a
34.4535	0.075	68907	keystroke	l	n/a
34.5295	0.12	69059	keystroke	a	n/a
34.7835	0.075	69567	keystroke	c	n/a
34.9335	0.075	69867	keystroke	k	n/a
35.0985	0.09	70197	keystroke	Key.space	n/a
35.2935	0.09	70587	keystroke	a	n/a
35.3995	0.075	70799	keystroke	m	n/a
35.5185	0.106	71037	keystroke	a	n/a
36.0585	0.06	72117	keystroke	t	n/a
36.1335	0.075	72267	keystroke	e	n/a
36.4635	0.061	72927	keystroke	u	n/a
36.5695	0.075	73139	keystroke	r	n/a
37.8885	0.045	75777	keystroke	Key.enter	n/a
37.9385	7.392	75877	prompt	n/a	reset forest fields bound\n
38.6835	0.091	77367	keystroke	r	n/a
38.7885	0.075	77577	keystroke	e	n/a
39.0145	0.119	78029	keystroke	s	n/a
39.3435	0.06	78687	keystroke	e	n/a
39.4635	0.075	78927	keystroke	t	n/a
39.6435	0.105	79287	keystroke	Key.space	n/a
40.3035	0.06	80607	keystroke	f	n/a
40.3935	0.075	80787	keystroke	o	n/a
40.4995	0.075	80999	keystroke	r	n/a
40.9495	0.059	81899	keystroke	e	n/a
41.1435	0.09	82287	keystroke	s	n/a
41.2945	0.06	82589	keystroke	t	n/a
41.5035	0.09	83007	keystroke	Key.space	n/a
42.3745	0.075	84749	keystroke	f	n/a
42.4785	0.105	84957	keystroke	i	n/a
42.6435	0.09	85287	keystroke	e	n/a
42.7495	0.075	85499	keystroke	l	n/a
43.1395	0.089	86279	keystroke	d	n/a
43.3795	0.195	86759	keystroke	s	n/a
43.5585	0.09	87117	keystroke	Key.space	n/a
44.024	0.075	88048	keystroke	b	n/a
44.204	0.105	88408	keystroke	o	n/a
44.384	0.06	88768	keystroke	u	n/a
44.579	0.075	89158	keystroke	n	n/a
44.684	0.09	89368	keystroke	d	n/a
45.314	0.015	90628	keystroke	Key.enter	n/a
45.334	10.272	90668	prompt	n/a	teeth magnitude buddy worthy\n
46.244	0.06	92488	keystroke	t	n/a
46.454	0.075	92908	keystroke	e	n/a
46.649	0.09	93298	keystroke	e	n/a
46.754	0.105	93508	keystroke	h	n/a
47.504	0.075	95008	keystroke	Key.backspace	n/a
47.624	0.075	95248	keystroke	t	n/a
47.744	0.105	95488	keystroke	h	n/a
47.879	0.12	95758	keystroke	Key.space	n/a
48.569	0.015	97138	keystroke	m	n/a
48.599	0.12	97198	keystroke	a	n/a
48.734	0.075	97468	keystroke	n	n/a
48.989	0.09	97978	keystroke	Key.backspace	n/a
49.109	0.075	98218	keystroke	g	n/a
49.214	0.105	98428	keystroke	n	n/a
49.409	0.06	98818	keystroke	i	n/a
49.589	0.075	99178	keystroke	t	n/a
49.769	0.09	99538	keystroke	u	n/a
50.294	0.09	100588	keystroke	f	n/a
50.414	0.105	100828	keystroke	e	n/a
50.789	0.075	101578	keystroke	Key.backspace	n/a
50.969	0.045	101938	keystroke	Key.backspace	n/a
50.984	0.075	101968	keystroke	d	n/a
51.164	0.135	102328	keystroke	e	n/a
51.254	0.135	102508	keystroke	Key.space	n/a
51.869	0.075	103738	keystroke	b	n/a
52.034	0.06	104068	keystroke	u	n/a
52.214	0.06	104428	keystroke	d	n/a
52.364	0.09	104728	keystroke	d	n/a
52.484	0.075	104968	keystroke	y	n/a
52.619	0.105	105238	keystroke	Key.space	n/a
53.699	0.075	107398	keystroke	w	n/a
53.804	0.091	107608	keystroke	o	n/a
54.044	0.075	108088	keystroke	r	n/a
54.224	0.09	108448	keystroke	t	n/a
54.374	0.09	108748	keystroke	h	n/a
54.645	0.074	109290	keystroke	y	n/a
55.544	0.06	111088	keystroke	Key.enter	n/a
55.6095	6.8375	111219	prompt	n/a	humans neck contributor wide\n
56.429	0.075	112858	keystroke	h	n/a
56.579	0.105	113158	keystroke	u	n/a
56.804	0.075	113608	keystroke	m	n/a
56.895	0.104	113790	keystroke	a	n/a
57.029	0.075	114058	keystroke	n	n/a
57.134	0.181	114268	keystroke	s	n/a
57.329	0.12	114658	keystroke	Key.space	n/a
57.509	0.09	115018	keystroke	n	n/a
57.614	0.09	115228	keystroke	e	n/a
57.854	0.091	115708	keystroke	c	n/a
57.974	0.09	115948	keystroke	k	n/a
58.634	0.075	117268	keystroke	Key.space	n/a
58.994	0.076	117988	keystroke	c	n/a
59.099	0.075	118198	keystroke	o	n/a
59.264	0.09	118528	keystroke	n	n/a
59.399	0.046	118798	keystroke	t	n/a
59.549	0.09	119098	keystroke	r	n/a
59.699	0.075	119398	keystroke	i	n/a
60	0.089	120000	keystroke	b	n/a
60.165	0.089	120330	keystroke	u	n/a
60.329	0.075	120658	keystroke	t	n/a
60.495	0.09	120990	keystroke	o	n/a
60.629	0.091	121258	keystroke	r	n/a
61.049	0.09	122098	keystroke	Key.space	n/a
61.529	0.075	123058	keystroke	w	n/a
61.634	0.075	123268	keystroke	i	n/a
61.754	0.091	123508	keystroke	d	n/a
61.934	0.075	123868	keystroke	e	n/a
62.354	0.091	124708	keystroke	Key.enter	n/a
62.461	10.47	124922	prompt	n/a	plumbing tiffany extraordinary lens\n
63.584	0.045	127168	keystroke	p	n/a
63.704	0.105	127408	keystroke	l	n/a
63.959	0.076	127918	keystroke	u	n/a
64.17	0.089	128340	keystroke	m	n/a
64.424	0.106	128848	keystroke	b	n/a
64.559	0.106	129118	keystroke	i	n/a
64.754	0.106	129508	keystroke	n	n/a
64.904	0.091	129808	keystroke	g	n/a
65.145	0.059	130290	keystroke	Key.space	n/a
66.075	0.075	132150	keystroke	t	n/a
66.195	0.075	132390	keystroke	i	n/a
66.465	0.06	132930	keystroke	f	n/a
66.615	0.075	133230	keystroke	f	n/a
66.705	0.105	133410	keystroke	a	n/a
66.93	0.075	133860	keystroke	n	n/a
68.145	0.075	136290	keystroke	y	n/a
68.265	0.105	136530	keystroke	Key.space	n/a
68.835	0.0595	137670	keystroke	e	n/a
69.3595	0.09	138719	keystroke	x	n/a
69.5095	0.075	139019	keystroke	t	n/a
69.6595	0.09	139319	keystroke	r	n/a
69.7645	0.12	139529	keystroke	a	n/a
70.0345	0.09	140069	keystroke	o	n/a
70.2745	0.06	140549	keystroke	r	n/a
70.6195	0.075	141239	keystroke	d	n/a
70.7095	0.075	141419	keystroke	i	n/a
70.9045	0.09	141809	keystroke	n	n/a
70.9645	0.09	141929	keystroke	a	n/a
71.2195	0.06	142439	keystroke	r	n/a
71.3695	0.09	142739	keystroke	y	n/a
72.0745	0.105	144149	keystroke	Key.space	n/a
72.2695	0.09	144539	keystroke	l	n/a
72.3745	0.075	144749	keystroke	e	n/a
72.4795	0.09	144959	keystroke	n	n/a
72.6145	0.09	145229	keystroke	s	n/a
72.8845	0.045	145769	keystroke	Key.enter	n/a
72.9345	8.996	145869	prompt	n/a	stack florence treo here\n
73.8745	0.09	147749	keystroke	s	n/a
74.0545	0.06	148109	keystroke	t	n/a
74.1745	0.075	148349	keystroke	a	n/a
74.3845	0.075	148769	keystroke	c	n/a
74.5045	0.075	149009	keystroke	k	n/a
74.9845	0.09	149969	keystroke	Key.space	n/a
75.4045	0.09	150809	keystroke	f	n/a
75.5095	0.09	151019	keystroke	l	n/a
75.6895	0.06	151379	keystroke	o	n/a
75.9595	0.075	151919	keystroke	r	n/a
76.0795	0.06	152159	keystroke	e	n/a
76.9795	0.09	153959	keystroke	n	n/a
77.0845	0.06	154169	keystroke	c	n/a
77.3095	0.165	154619	keystroke	e	n/a
77.4595	0.105	154919	keystroke	Key.space	n/a
79.1845	0.06	158369	keystroke	t	n/a
79.3645	0.075	158729	keystroke	r	n/a
79.4845	0.075	158969	keystroke	e	n/a
79.6945	0.06	159389	keystroke	o	n/a
79.8295	0.135	159659	keystroke	Key.space	n/a
81.0445	0.09	162089	keystroke	h	n/a
81.0895	0.075	162179	keystroke	e	n/a
81.359	0.075	162718	keystroke	r	n/a
81.494	0.09	162988	keystroke	e	n/a
81.824	0.105	163648	keystroke	Key.enter	n/a
81.9345	18.1165	163869	prompt	n/a	sisters demonstrated unavailable furnished\n
83.099	0.06	166198	keystroke	s	n/a
83.204	0.075	166408	keystroke	i	n/a
83.294	0.09	166588	keystroke	s	n/a
83.459	0.105	166918	keystroke	t	n/a
83.699	0.06	167398	keystroke	r	n/a
84.029	0.105	168058	keystroke	Key.backspace	n/a
84.104	0.09	168208	keystroke	e	n/a
84.299	0.105	168598	keystroke	r	n/a
84.539	0.09	169078	keystroke	t	n/a
85.079	0.135	170158	keystroke	s	n/a
85.484	0.09	170968	keystroke	=	n/a
85.829	0.045	171658	keystroke	Key.backspace	n/a
85.979	0.06	171958	keystroke	Key.backspace	n/a
86.114	0.09	172228	keystroke	Key.backspace	n/a
86.249	0.09	172498	keystroke	s	n/a
86.294	0.12	172588	keystroke	Key.space	n/a
87.284	0.075	174568	keystroke	d	n/a
87.449	0.075	174898	keystroke	e	n/a
87.509	0.075	175018	keystroke	n	n/a
87.644	0.075	175288	keystroke	o	n/a
87.764	0.09	175528	keystroke	s	n/a
88.019	0.09	176038	keystroke	n	n/a
88.889	0.045	177778	keystroke	Key.backspace	n/a
89.039	0.075	178078	keystroke	Key.backspace	n/a
89.174	0.09	178348	keystroke	Key.backspace	n/a
89.324	0.09	178648	keystroke	Key.backspace	n/a
89.804	0.075	179608	keystroke	m	n/a
89.939	0.075	179878	keystroke	o	n/a
90.179	0.09	180358	keystroke	n	n/a
90.314	0.075	180628	keystroke	s	n/a
90.554	0.12	181108	keystroke	t	n/a
90.809	0.09	181618	keystroke	r	n/a
90.899	0.12	181798	keystroke	a	n/a
91.244	0.09	182488	keystroke	t	n/a
91.319	0.105	182638	keystroke	e	n/a
91.529	0.135	183058	keystroke	d	n/a
91.634	0.105	183268	keystroke	Key.space	n/a
92.384	0.045	184768	keystroke	u	n/a
92.504	0.135	185008	keystroke	n	n/a
92.729	0.105	185458	keystroke	a	n/a
93.494	0.015	186988	keystroke	v	n/a
93.554	0.105	187108	keystroke	a	n/a
93.734	0.075	187468	keystroke	i	n/a
93.914	0.09	187828	keystroke	l	n/a
94.034	0.12	188068	keystroke	a	n/a
94.169	0.09	188338	keystroke	b	n/a
94.379	0.09	188758	keystroke	l	n/a
94.484	0.15	188968	keystroke	e	n/a
94.619	0.075	189238	keystroke	Key.space	n/a
95.174	0.075	190348	keystroke	f	n/a
95.309	0.075	190618	keystroke	u	n/a
95.414	0.075	190828	keystroke	r	n/a
95.549	0.105	191098	keystroke	n	n/a
95.715	0.074	191430	keystroke	i	n/a
95.804	0.075	191608	keystroke	s	n/a
96.134	0.09	192268	keystroke	h	n/a
96.344	0.06	192688	keystroke	e	n/a
96.734	0.105	193468	keystroke	d	n/a
97.649	0.06	195298	keystroke	'	n/a
99.179	0.09	198358	keystroke	Key.backspace	n/a
99.989	0.06	199978	keystroke	Key.enter	n/a
100.054	11.502	200108	prompt	n/a	slovak relax after sequences\n
100.979	0.061	201958	keystroke	s	n/a
101.054	0.075	202108	keystroke	l	n/a
101.19	0.074	202380	keystroke	o	n/a
101.415	0.089	202830	keystroke	v	n/a
101.519	0.09	203038	keystroke	a	n/a
101.684	0.09	203368	keystroke	k	n/a
101.819	0.105	203638	keystroke	Key.space	n/a
102.104	0.09	204208	keystroke	r	n/a
102.299	0.091	204598	keystroke	e	n/a
102.554	0.09	205108	keystroke	a	n/a
102.674	0.091	205348	keystroke	l	n/a
103.199	0.06	206398	keystroke	Key.backspace	n/a
103.319	0.06	206638	keystroke	Key.backspace	n/a
103.469	0.09	206938	keystroke	l	n/a
103.574	0.06	207148	keystroke	a	n/a
103.754	0.105	207508	keystroke	x	n/a
104.024	0.06	208048	keystroke	Key.space	n/a
104.759	0.105	209518	keystroke	a	n/a
104.924	0.105	209848	keystroke	f	n/a
105.074	0.105	210148	keystroke	t	n/a
105.164	0.076	210328	keystroke	e	n/a
105.315	0.15	210630	keystroke	r	n/a
105.434	0.105	210868	keystroke	Key.space	n/a
105.749	0.091	211498	keystroke	s	n/a
105.959	0.06	211918	keystroke	e	n/a
106.169	0.09	212338	keystroke	q	n/a
106.289	0.09	212578	keystroke	u	n/a
106.394	0.06	212788	keystroke	e	n/a
106.559	0.09	213118	keystroke	n	n/a
106.665	0.104	213330	keystroke	s	n/a
106.859	0.09	213718	keystroke	e	n/a
107.04	0.089	214080	keystroke	s	n/a
107.279	0.075	214558	keystroke	=	n/a
107.429	0.075	214858	keystroke	=	n/a
107.579	0.061	215158	keystroke	=	n/a
107.759	0.075	215518	keystroke	Key.backspace	n/a
107.924	0.075	215848	keystroke	Key.backspace	n/a
108.074	0.09	216148	keystroke	Key.backspace	n/a
108.239	0.09	216478	keystroke	Key.backspace	n/a
108.449	0.091	216898	keystroke	Key.backspace	n/a
108.704	0.09	217408	keystroke	Key.backspace	n/a
109.395	0.09	218790	keystroke	c	n/a
109.469	0.091	218938	keystroke	e	n/a
109.634	0.076	219268	keystroke	s	n/a
111.48	0.074	222960	keystroke	Key.enter	n/a
111.559	16.722	223118	prompt	n/a	grocery owen types marble\n
118.111	0.001	236222	keystroke	g	n/a
118.139	0.06	236278	keystroke	r	n/a
118.229	0.09	236458	keystroke	o	n/a
119.084	0.105	238168	keystroke	c	n/a
119.174	0.075	238348	keystroke	e	n/a
119.354	0.09	238708	keystroke	r	n/a
119.504	0.075	239008	keystroke	t	n/a
119.639	0.105	239278	keystroke	Key.space	n/a
120.629	0.06	241258	keystroke	Key.backspace	n/a
120.779	0.09	241558	keystroke	Key.backspace	n/a
121.499	0.03	242998	keystroke	y	n/a
121.799	0.105	243598	keystroke	Key.space	n/a
121.949	0.105	243898	keystroke	o	n/a
122.384	0.075	244768	keystroke	w	n/a
122.549	0.09	245098	keystroke	e	n/a
122.729	0.09	245458	keystroke	n	n/a
122.864	0.09	245728	keystroke	Key.space	n/a
124.409	0.09	248818	keystroke	t	n/a
125.01	0.074	250020	keystroke	y	n/a
125.324	0.075	250648	keystroke	o	n/a
125.429	0.09	250858	keystroke	e	n/a
125.624	0.15	251248	keystroke	s	n/a
126.044	0.06	252088	keystroke	Key.backspace	n/a
126.179	0.075	252358	keystroke	Key.backspace	n/a
126.329	0.09	252658	keystroke	Key.backspace	n/a
126.434	0.105	252868	keystroke	p	n/a
126.554	0.075	253108	keystroke	e	n/a
126.734	0.135	253468	keystroke	s	n/a
126.839	0.105	253678	keystroke	Key.space	n/a
127.169	0.105	254338	keystroke	m	n/a
127.274	0.12	254548	keystroke	a	n/a
127.499	0.09	254998	keystroke	r	n/a
127.709	0.09	255418	keystroke	b	n/a
127.919	0.075	255838	keystroke	l	n/a
128.009	0.06	256018	keystroke	e	n/a
128.219	0.06	256438	keystroke	Key.enter	n/a
128.284	9.1015	256568	prompt	n/a	closely nothing actually largely\n
129.269	0.045	258538	keystroke	c	n/a
129.719	0.09	259438	keystroke	l	n/a
129.929	0.075	259858	keystroke	o	n/a
129.989	0.105	259978	keystroke	s	n/a
130.214	0.09	260428	keystroke	e	n/a
130.635	0.089	261270	keystroke	l	n/a
130.859	0.09	261718	keystroke	y	n/a
130.964	0.105	261928	keystroke	Key.space	n/a
131.129	0.105	262258	keystroke	n	n/a
131.309	0.09	262618	keystroke	o	n/a
131.384	0.075	262768	keystroke	t	n/a
131.534	0.105	263068	keystroke	h	n/a
131.744	0.06	263488	keystroke	i	n/a
131.759	0.03	263518	keystroke	o	n/a
131.924	0.075	263848	keystroke	n	n/a
132.194	0.06	264388	keystroke	Key.backspace	n/a
132.329	0.075	264658	keystroke	Key.backspace	n/a
132.614	0.06	265228	keystroke	n	n/a
132.659	0.075	265318	keystroke	g	n/a
133.334	0.075	266668	keystroke	Key.space	n/a
133.484	0.09	266968	keystroke	a	n/a
133.679	0.09	267358	keystroke	c	n/a
133.934	0.06	267868	keystroke	t	n/a
134.039	0.09	268078	keystroke	u	n/a
134.174	0.09	268348	keystroke	a	n/a
134.294	0.075	268588	keystroke	l	n/a
134.429	0.075	268858	keystroke	l	n/a
134.669	0.075	269338	keystroke	y	n/a
134.759	0.105	269518	keystroke	Key.space	n/a
134.969	0.105	269938	keystroke	l	n/a
135.059	0.105	270118	keystroke	a	n/a
135.314	0.06	270628	keystroke	r	n/a
135.464	0.075	270928	keystroke	g	n/a
135.554	0.075	271108	keystroke	e	n/a
135.764	0.09	271528	keystroke	l	n/a
135.944	0.09	271888	keystroke	l	n/a
136.274	0.06	272548	keystroke	Key.backspace	n/a
136.559	0.06	273118	keystroke	y	n/a
136.664	0.09	273328	keystroke	Key.space	n/a
137.054	0.06	274108	keystroke	Key.backspace	n/a
137.339	0.045	274678	keystroke	Key.enter	n/a
137.3895	10.8715	274779	prompt	n/a	hudson motor periods filters\n
138.344	0.075	276688	keystroke	h	n/a
138.479	0.105	276958	keystroke	u	n/a
138.629	0.03	277258	keystroke	d	n/a
138.899	0.06	277798	keystroke	s	n/a
138.974	0.09	277948	keystroke	o	n/a
139.139	0.06	278278	keystroke	m	n/a
139.244	0.105	278488	keystroke	Key.space	n/a
140.024	0.045	280048	keystroke	Key.backspace	n/a
140.084	0.09	280168	keystroke	Key.backspace	n/a
140.609	0.06	281218	keystroke	n	n/a
140.654	0.15	281308	keystroke	Key.space	n/a
140.805	0.074	281610	keystroke	m	n/a
140.939	0.075	281878	keystroke	o	n/a
141.029	0.075	282058	keystroke	t	n/a
141.149	0.075	282298	keystroke	o	n/a
141.599	0.075	283198	keystroke	r	n/a
141.779	0.09	283558	keystroke	Key.space	n/a
142.289	0.075	284578	keystroke	p	n/a
142.349	0.075	284698	keystroke	e	n/a
142.514	0.075	285028	keystroke	r	n/a
142.649	0.105	285298	keystroke	i	n/a
142.829	0.09	285658	keystroke	o	n/a
143.129	0.075	286258	keystroke	d	n/a
143.309	0.15	286618	keystroke	s	n/a
143.429	0.105	286858	keystroke	Key.space	n/a
144.494	0.09	288988	keystroke	f	n/a
144.599	0.075	289198	keystroke	i	n/a
144.824	0.09	289648	keystroke	l	n/a
145.364	0.075	290728	keystroke	t	n/a
145.409	0.09	290818	keystroke	e	n/a
145.559	0.09	291118	keystroke	r	n/a
145.769	0.075	291538	keystroke	s	n/a
146.474	0.06	292948	keystroke	'	n/a
147.884	0.06	295768	keystroke	Key.backspace	n/a
148.199	0.06	296398	keystroke	Key.enter	n/a
148.2645	10.287	296529	prompt	n/a	seniors allah saint to've\n
150.962	0.027	301924	keystroke	s	n/a
151.08	0.06	302160	keystroke	e	n/a
151.605	0.089	303210	keystroke	n	n/a
151.785	0.059	303570	keystroke	i	n/a
152.324	0.075	304648	keystroke	o	n/a
152.384	0.091	304768	keystroke	r	n/a
152.624	0.166	305248	keystroke	s	n/a
152.759	0.105	305518	keystroke	Key.space	n/a
153.134	0.091	306268	keystroke	a	n/a
153.24	0.059	306480	keystroke	l	n/a
153.405	0.075	306810	keystroke	l	n/a
153.539	0.121	307078	keystroke	a	n/a
153.75	0.089	307500	keystroke	h	n/a
153.884	0.121	307768	keystroke	Key.space	n/a
154.53	0.104	309060	keystroke	s	n/a
154.815	0.015	309630	keystroke	a	n/a
155.025	0.075	310050	keystroke	i	n/a
155.189	0.091	310378	keystroke	n	n/a
155.309	0.091	310618	keystroke	t	n/a
155.82	0.089	311640	keystroke	Key.space	n/a
156.164	0.061	312328	keystroke	t	n/a
156.239	0.076	312478	keystroke	o	n/a
156.915	0.06	313830	keystroke	'	n/a
157.38	0.06	314760	keystroke	v	n/a
157.425	0.09	314850	keystroke	e	n/a
158.49	0.06	316980	keystroke	Key.enter	n/a
158.554	8.112	317108	prompt	n/a	wilderness compiled check tabs\n
159.585	0.075	319170	keystroke	w	n/a
159.69	0.075	319380	keystroke	i	n/a
159.885	0.09	319770	keystroke	l	n/a
160.02	0.075	320040	keystroke	d	n/a
160.2	0.075	320400	keystroke	e	n/a
160.35	0.09	320700	keystroke	r	n/a
160.485	0.09	320970	keystroke	n	n/a
160.59	0.09	321180	keystroke	e	n/a
160.815	0.06	321630	keystroke	s	n/a
160.965	0.075	321930	keystroke	s	n/a
161.115	0.09	322230	keystroke	Key.space	n/a
161.445	0.09	322890	keystroke	c	n/a
161.52	0.12	323040	keystroke	o	n/a
161.73	0.075	323460	keystroke	m	n/a
161.88	0.09	323760	keystroke	p	n/a
162.36	0.075	324720	keystroke	l	n/a
162.675	0.075	325350	keystroke	Key.backspace	n/a
162.855	0.105	325710	keystroke	i	n/a
163.065	0.09	326130	keystroke	l	n/a
163.17	0.045	326340	keystroke	e	n/a
163.32	0.135	326640	keystroke	d	n/a
163.44	0.1045	326880	keystroke	Key.space	n/a
164.22	0.09	328440	keystroke	c	n/a
164.3995	0.1055	328799	keystroke	h	n/a
164.52	0.0745	329040	keystroke	e	n/a
164.8045	0.09	329609	keystroke	c	n/a
164.9095	0.09	329819	keystroke	k	n/a
165.09	0.0745	330180	keystroke	Key.space	n/a
165.5845	0.09	331169	keystroke	t	n/a
165.72	0.0595	331440	keystroke	a	n/a
165.8095	0.09	331619	keystroke	b	n/a
165.945	0.1045	331890	keystroke	s	n/a
166.59	0.075	333180	keystroke	Key.enter	n/a
166.669	10.1075	333338	prompt	n/a	realtors retain hypothetical times\n
167.6545	0.075	335309	keystroke	r	n/a
167.8045	0.075	335609	keystroke	e	n/a
168.0445	0.12	336089	keystroke	a	n/a
168.1795	0.09	336359	keystroke	l	n/a
168.5695	0.06	337139	keystroke	t	n/a
168.6445	0.09	337289	keystroke	o	n/a
169.0345	0.06	338069	keystroke	r	n/a
169.2895	0.15	338579	keystroke	s	n/a
169.4695	0.075	338939	keystroke	Key.space	n/a
170.3545	0.075	340709	keystroke	r	n/a
170.5195	0.06	341039	keystroke	e	n/a
170.6545	0.105	341309	keystroke	t	n/a
170.7595	0.105	341519	keystroke	a	n/a
171.0295	0.015	342059	keystroke	i	n/a
171.1195	0.09	342239	keystroke	n	n/a
171.2245	0.12	342449	keystroke	Key.space	n/a
171.4945	0.09	342989	keystroke	h	n/a
171.6445	0.06	343289	keystroke	e	n/a
172.0345	0.09	344069	keystroke	Key.backspace	n/a
172.4095	0.075	344819	keystroke	y	n/a
172.7095	0.09	345419	keystroke	p	n/a
173.3845	0.09	346769	keystroke	o	n/a
173.5045	0.09	347009	keystroke	t	n/a
173.7145	0.09	347429	keystroke	h	n/a
173.8495	0.06	347699	keystroke	e	n/a
174.1345	0.06	348269	keystroke	t	n/a
174.2245	0.09	348449	keystroke	i	n/a
174.7195	0.075	349439	keystroke	c	n/a
175.3945	0.09	350789	keystroke	a	n/a
175.4845	0.075	350969	keystroke	l	n/a
175.6195	0.105	351239	keystroke	Key.space	n/a
175.9195	0.06	351839	keystroke	t	n/a
175.9945	0.09	351989	keystroke	i	n/a
176.235	0.059	352470	keystroke	m	n/a
176.279	0.075	352558	keystroke	e	n/a
176.445	0.075	352890	keystroke	s	n/a
176.73	0.045	353460	keystroke	Key.enter	n/a
176.7795	9.0115	353559	prompt	n/a	discounts below form canberra\n
177.929	0.06	355858	keystroke	d	n/a
178.034	0.091	356068	keystroke	i	n/a
178.14	0.075	356280	keystroke	s	n/a
178.35	0.075	356700	keystroke	c	n/a
178.484	0.091	356968	keystroke	o	n/a
178.709	0.091	357418	keystroke	u	n/a
178.92	0.105	357840	keystroke	n	n/a
179.355	0.105	358710	keystroke	t	n/a
179.475	0.12	358950	keystroke	s	n/a
179.58	0.104	359160	keystroke	Key.space	n/a
180.33	0.09	360660	keystroke	b	n/a
180.48	0.015	360960	keystroke	e	n/a
180.555	0.105	361110	keystroke	l	n/a
180.78	0.09	361560	keystroke	o	n/a
180.99	0.12	361980	keystroke	w	n/a
181.14	0.12	362280	keystroke	Key.space	n/a
181.785	0.075	363570	keystroke	f	n/a
182.625	0.09	365250	keystroke	o	n/a
182.73	0.075	365460	keystroke	r	n/a
182.88	0.105	365760	keystroke	m	n/a
183.06	0.09	366120	keystroke	Key.space	n/a
183.51	0.09	367020	keystroke	c	n/a
183.72	0.09	367440	keystroke	a	n/a
183.825	0.105	367650	keystroke	n	n/a
184.455	0.135	368910	keystroke	b	n/a
184.605	0.045	369210	keystroke	e	n/a
184.74	0.09	369480	keystroke	r	n/a
185.13	0.09	370260	keystroke	r	n/a
185.325	0.135	370650	keystroke	a	n/a
185.73	0.06	371460	keystroke	Key.enter	n/a
185.7965	7.539	371593	prompt	n/a	columbus bull wide cafe\n
186.5245	0.075	373049	keystroke	c	n/a
186.6145	0.075	373229	keystroke	o	n/a
186.8845	0.015	373769	keystroke	l	n/a
187.0495	0.075	374099	keystroke	u	n/a
187.2595	0.075	374519	keystroke	m	n/a
187.4545	0.09	374909	keystroke	b	n/a
187.6195	0.075	375239	keystroke	u	n/a
187.7545	0.12	375509	keystroke	s	n/a
187.8895	0.09	375779	keystroke	Key.space	n/a
188.3695	0.075	376739	keystroke	b	n/a
188.4895	0.105	376979	keystroke	u	n/a
188.8345	0.075	377669	keystroke	l	n/a
189.0895	0.015	378179	keystroke	l	n/a
189.1195	0.135	378239	keystroke	Key.space	n/a
189.944	0.075	379888	keystroke	w	n/a
190.0345	0.075	380069	keystroke	i	n/a
190.229	0.06	380458	keystroke	d	n/a
190.409	0.135	380818	keystroke	e	n/a
190.4845	0.165	380969	keystroke	Key.space	n/a
190.814	0.09	381628	keystroke	v	n/a
190.919	0.105	381838	keystroke	a	n/a
191.384	0.045	382768	keystroke	Key.backspace	n/a
191.519	0.075	383038	keystroke	Key.backspace	n/a
191.609	0.045	383218	keystroke	c	n/a
191.804	0.075	383608	keystroke	e	n/a
191.924	0.06	383848	keystroke	f	n/a
192.239	0.06	384478	keystroke	Key.backspace	n/a
192.374	0.075	384748	keystroke	Key.backspace	n/a
192.434	0.09	384868	keystroke	a	n/a
192.629	0.075	385258	keystroke	f	n/a
192.719	0.06	385438	keystroke	e	n/a
193.274	0.06	386548	keystroke	Key.enter	n/a
193.3385	8.967	386677	prompt	n/a	vulnerable prescribed touch donna\n
194.684	0.06	389368	keystroke	v	n/a
194.759	0.09	389518	keystroke	u	n/a
195.254	0.075	390508	keystroke	l	n/a
195.464	0.09	390928	keystroke	n	n/a
195.539	0.075	391078	keystroke	e	n/a
195.689	0.09	391378	keystroke	r	n/a
195.929	0.12	391858	keystroke	a	n/a
196.214	0.09	392428	keystroke	b	n/a
196.409	0.09	392818	keystroke	l	n/a
196.484	0.135	392968	keystroke	e	n/a
196.589	0.12	393178	keystroke	Key.space	n/a
196.889	0.105	393778	keystroke	p	n/a
196.979	0.06	393958	keystroke	r	n/a
197.114	0.09	394228	keystroke	e	n/a
197.324	0.09	394648	keystroke	s	n/a
197.654	0.06	395308	keystroke	c	n/a
197.789	0.075	395578	keystroke	i	n/a
198.269	0.09	396538	keystroke	Key.backspace	n/a
198.329	0.06	396658	keystroke	r	n/a
198.479	0.09	396958	keystroke	i	n/a
198.974	0.12	397948	keystroke	b	n/a
199.079	0.03	398158	keystroke	e	n/a
199.259	0.135	398518	keystroke	d	n/a
199.409	0.09	398818	keystroke	Key.space	n/a
199.709	0.075	399418	keystroke	t	n/a
199.799	0.105	399598	keystroke	o	n/a
200.009	0.09	400018	keystroke	u	n/a
200.219	0.09	400438	keystroke	c	n/a
200.384	0.06	400768	keystroke	j	n/a
200.774	0.06	401548	keystroke	Key.backspace	n/a
200.999	0.09	401998	keystroke	h	n/a
201.059	0.075	402118	keystroke	Key.space	n/a
201.464	0.09	402928	keystroke	d	n/a
201.584	0.075	403168	keystroke	o	n/a
201.749	0.075	403498	keystroke	n	n/a
201.914	0.075	403828	keystroke	n	n/a
202.004	0.09	404008	keystroke	a	n/a
202.259	0.045	404518	keystroke	Key.enter	n/a
202.3085	15.5375	404617	prompt	n/a	administrative roommates beverly exhibit\n
203.144	0.075	406288	keystroke	a	n/a
203.354	0.06	406708	keystroke	d	n/a
203.459	0.075	406918	keystroke	m	n/a
203.624	0.09	407248	keystroke	i	n/a
203.744	0.09	407488	keystroke	n	n/a
203.864	0.09	407728	keystroke	i	n/a
203.984	0.075	407968	keystroke	s	n/a
204.119	0.075	408238	keystroke	y	n/a
204.149	0.06	408298	keystroke	t	n/a
204.314	0.075	408628	keystroke	t	n/a
204.329	0.045	408658	keystroke	r	n/a
204.644	0.06	409288	keystroke	Key.backspace	n/a
204.779	0.06	409558	keystroke	Key.backspace	n/a
204.929	0.075	409858	keystroke	Key.backspace	n/a
205.079	0.09	410158	keystroke	Key.backspace	n/a
205.544	0.06	411088	keystroke	t	n/a
205.694	0.075	411388	keystroke	r	n/a
205.814	0.105	411628	keystroke	a	n/a
206.174	0.06	412348	keystroke	t	n/a
206.264	0.075	412528	keystroke	i	n/a
206.474	0.09	412948	keystroke	v	n/a
206.594	0.135	413188	keystroke	e	n/a
206.699	0.105	413398	keystroke	Key.space	n/a
207.014	0.09	414028	keystroke	r	n/a
207.134	0.09	414268	keystroke	o	n/a
207.299	0.09	414598	keystroke	o	n/a
207.479	0.105	414958	keystroke	m	n/a
207.599	0.105	415198	keystroke	a	n/a
207.854	0.12	415708	keystroke	t	n/a
207.989	0.045	415978	keystroke	e	n/a
208.154	0.15	416308	keystroke	s	n/a
208.349	0.075	416698	keystroke	Key.space	n/a
208.769	0.045	417538	keystroke	b	n/a
209.054	0.06	418108	keystroke	e	n/a
210.314	0.075	420628	keystroke	Key.backspace	n/a
210.659	0.09	421318	keystroke	Key.backspace	n/a
210.809	0.09	421618	keystroke	Key.backspace	n/a
210.959	0.105	421918	keystroke	Key.backspace	n/a
211.139	0.135	422278	keystroke	Key.backspace	n/a
211.409	0.09	422818	keystroke	Key.backspace	n/a
211.694	0.075	423388	keystroke	Key.backspace	n/a
212.339	0.075	424678	keystroke	m	n/a
212.504	0.135	425008	keystroke	a	n/a
212.714	0.09	425428	keystroke	t	n/a
212.82	0.074	425640	keystroke	e	n/a
213.014	0.105	426028	keystroke	s	n/a
213.089	0.12	426178	keystroke	Key.space	n/a
213.584	0.045	427168	keystroke	b	n/a
213.764	0.09	427528	keystroke	e	n/a
213.899	0.06	427798	keystroke	v	n/a
213.974	0.075	427948	keystroke	e	n/a
214.139	0.09	428278	keystroke	r	n/a
214.259	0.136	428518	keystroke	l	n/a
214.559	0.045	429118	keystroke	y	n/a
214.634	0.105	429268	keystroke	Key.space	n/a
214.754	0.091	429508	keystroke	e	n/a
216.434	0.075	432868	keystroke	x	n/a
216.584	0.061	433168	keystroke	h	n/a
216.72	0.104	433440	keystroke	i	n/a
216.915	0.089	433830	keystroke	b	n/a
217.064	0.12	434128	keystroke	i	n/a
217.17	0.059	434340	keystroke	t	n/a
217.769	0.075	435538	keystroke	Key.enter	n/a
217.849	7.5265	435698	prompt	n/a	ntsc veterans typical lucia\n
218.804	0.016	437608	keystroke	n	n/a
219.2245	0.0745	438449	keystroke	t	n/a
220.0635	0.06	440127	keystroke	s	n/a
220.1695	0.075	440339	keystroke	c	n/a
220.3785	0.105	440757	keystroke	Key.space	n/a
221.1145	0.105	442229	keystroke	v	n/a
221.2035	0.045	442407	keystroke	e	n/a
221.3395	0.09	442679	keystroke	t	n/a
221.4145	0.075	442829	keystroke	e	n/a
221.5645	0.09	443129	keystroke	r	n/a
221.8195	0.075	443639	keystroke	a	n/a
221.9395	0.075	443879	keystroke	n	n/a
222.0735	0.136	444147	keystroke	s	n/a
222.2095	0.074	444419	keystroke	Key.space	n/a
222.4795	0.074	444959	keystroke	t	n/a
222.7035	0.105	445407	keystroke	y	n/a
223.0645	0.09	446129	keystroke	p	n/a
223.4235	0.091	446847	keystroke	i	n/a
223.6045	0.0905	447209	keystroke	c	n/a
223.8295	0.09	447659	keystroke	a	n/a
223.9495	0.09	447899	keystroke	l	n/a
224.1135	0.075	448227	keystroke	Key.space	n/a
224.4135	0.106	448827	keystroke	l	n/a
224.6695	0.06	449339	keystroke	u	n/a
224.7895	0.075	449579	keystroke	c	n/a
224.8945	0.089	449789	keystroke	i	n/a
225.0445	0.09	450089	keystroke	a	n/a
225.3295	0.045	450659	keystroke	Key.enter	n/a
225.379	7.272	450758	prompt	n/a	reveals flex especially america\n
226.4395	0.045	452879	keystroke	r	n/a
226.5745	0.09	453149	keystroke	e	n/a
226.6795	0.09	453359	keystroke	v	n/a
226.7845	0.075	453569	keystroke	e	n/a
226.9945	0.105	453989	keystroke	a	n/a
227.0845	0.075	454169	keystroke	l	n/a
227.2345	0.12	454469	keystroke	s	n/a
227.3995	0.105	454799	keystroke	Key.space	n/a
227.7895	0.06	455579	keystroke	f	n/a
227.8945	0.105	455789	keystroke	l	n/a
228.0145	0.075	456029	keystroke	e	n/a
228.2695	0.105	456539	keystroke	x	n/a
228.5395	0.105	457079	keystroke	Key.space	n/a
229.0045	0.075	458009	keystroke	e	n/a
229.5295	0.06	459059	keystroke	s	n/a
230.3395	0.031	460679	keystroke	p	n/a
230.3705	0.059	460741	keystroke	e	n/a
230.5795	0.075	461159	keystroke	c	n/a
230.6995	0.09	461399	keystroke	i	n/a
230.8345	0.135	461669	keystroke	a	n/a
230.9845	0.045	461969	keystroke	l	n/a
231.0895	0.09	462179	keystroke	l	n/a
231.3445	0.075	462689	keystroke	y	n/a
231.4345	0.075	462869	keystroke	Key.space	n/a
231.5845	0.15	463169	keystroke	a	n/a
231.6895	0.09	463379	keystroke	m	n/a
231.8095	0.09	463619	keystroke	e	n/a
231.9595	0.09	463919	keystroke	r	n/a
232.0795	0.09	464159	keystroke	i	n/a
232.1995	0.09	464399	keystroke	c	n/a
232.3795	0.075	464759	keystroke	a	n/a
232.5895	0.06	465179	keystroke	Key.enter	n/a
232.654	7.917	465308	prompt	n/a	geometry xhtml chase saves\n
233.7295	0.12	467459	keystroke	g	n/a
233.8945	0.015	467789	keystroke	e	n/a
233.9245	0.015	467849	keystroke	o	n/a
233.9845	0.105	467969	keystroke	m	n/a
234.1045	0.075	468209	keystroke	e	n/a
234.3595	0.075	468719	keystroke	t	n/a
234.5395	0.075	469079	keystroke	r	n/a
234.6295	0.09	469259	keystroke	y	n/a
234.7345	0.09	469469	keystroke	Key.space	n/a
236.474	0.09	472948	keystroke	x	n/a
237.494	0.06	474988	keystroke	h	n/a
237.659	0.075	475318	keystroke	t	n/a
237.884	0.075	475768	keystroke	m	n/a
238.259	0.045	476518	keystroke	l	n/a
238.514	0.09	477028	keystroke	Key.space	n/a
238.724	0.075	477448	keystroke	c	n/a
238.829	0.105	477658	keystroke	h	n/a
238.949	0.121	477898	keystroke	a	n/a
239.04	0.119	478080	keystroke	s	n/a
239.249	0.165	478498	keystroke	e	n/a
239.429	0.075	478858	keystroke	Key.space	n/a
239.624	0.12	479248	keystroke	s	n/a
239.789	0.12	479578	keystroke	a	n/a
239.984	0.075	479968	keystroke	v	n/a
240.09	0.074	480180	keystroke	e	n/a
240.359	0.03	480718	keystroke	s	n/a
240.509	0.06	481018	keystroke	Key.enter	n/a
240.574	10.3315	481148	prompt	n/a	retro change fixes mongolia\n
241.605	0.06	483210	keystroke	r	n/a
241.695	0.045	483390	keystroke	e	n/a
241.784	0.106	483568	keystroke	t	n/a
242.024	0.075	484048	keystroke	r	n/a
242.129	0.091	484258	keystroke	o	n/a
242.264	0.075	484528	keystroke	Key.space	n/a
242.58	0.074	485160	keystroke	c	n/a
242.759	0.09	485518	keystroke	h	n/a
242.864	0.09	485728	keystroke	a	n/a
242.97	0.1045	485940	keystroke	n	n/a
243.2395	0.075	486479	keystroke	g	n/a
243.3445	0.105	486689	keystroke	e	n/a
243.5395	0.105	487079	keystroke	Key.space	n/a
244.2445	0.075	488489	keystroke	f	n/a
244.3645	0.03	488729	keystroke	i	n/a
244.9645	0.075	489929	keystroke	z	n/a
245.9095	0.075	491819	keystroke	Key.backspace	n/a
245.9845	0.09	491969	keystroke	x	n/a
246.2095	0.075	492419	keystroke	e	n/a
246.4045	0.1195	492809	keystroke	s	n/a
246.4945	0.1195	492989	keystroke	Key.space	n/a
246.629	0.09	493258	keystroke	m	n/a
246.734	0.105	493468	keystroke	a	n/a
247.454	0.06	494908	keystroke	Key.backspace	n/a
247.6045	0.105	495209	keystroke	Key.backspace	n/a
247.7995	0.0895	495599	keystroke	o	n/a
248.294	0.09	496588	keystroke	Key.backspace	n/a
248.999	0.06	497998	keystroke	m	n/a
249.074	0.015	498148	keystroke	o	n/a
249.134	0.075	498268	keystroke	n	n/a
249.674	0.075	499348	keystroke	g	n/a
249.764	0.075	499528	keystroke	o	n/a
249.929	0.09	499858	keystroke	l	n/a
250.169	0.06	500338	keystroke	i	n/a
250.259	0.105	500518	keystroke	a	n/a
250.829	0.075	501658	keystroke	Key.enter	n/a
250.909	12.6115	501818	prompt	n/a	queens surrounded install added\n
252.659	0.075	505318	keystroke	q	n/a
252.764	0.09	505528	keystroke	u	n/a
252.869	0.075	505738	keystroke	e	n/a
253.019	0.075	506038	keystroke	e	n/a
253.124	0.09	506248	keystroke	n	n/a
253.259	0.15	506518	keystroke	s	n/a
253.424	0.075	506848	keystroke	Key.space	n/a
254.054	0.015	508108	keystroke	s	n/a
254.084	0.015	508168	keystroke	u	n/a
255.584	0.045	511168	keystroke	r	n/a
255.704	0.09	511408	keystroke	r	n/a
255.839	0.045	511678	keystroke	o	n/a
255.974	0.091	511948	keystroke	u	n/a
256.199	0.105	512398	keystroke	n	n/a
256.349	0.075	512698	keystroke	d	n/a
256.544	0.09	513088	keystroke	e	n/a
256.844	0.12	513688	keystroke	d	n/a
256.979	0.105	513958	keystroke	Key.space	n/a
257.189	0.09	514378	keystroke	i	n/a
257.369	0.105	514738	keystroke	n	n/a
257.49	0.104	514980	keystroke	s	n/a
257.729	0.09	515458	keystroke	t	n/a
257.834	0.12	515668	keystroke	a	n/a
258.419	0.0755	516838	keystroke	l	n/a
258.5385	0.12	517077	keystroke	Key.space	n/a
258.765	0.089	517530	keystroke	a	n/a
259.2285	0.075	518457	keystroke	Key.backspace	n/a
259.349	0.1195	518698	keystroke	Key.backspace	n/a
259.4985	0.09	518997	keystroke	Key.backspace	n/a
261.2985	0.045	522597	keystroke	l	n/a
261.4035	0.075	522807	keystroke	l	n/a
261.6585	0.105	523317	keystroke	Key.space	n/a
262.3035	0.075	524607	keystroke	a	n/a
262.4685	0.075	524937	keystroke	d	n/a
262.6185	0.075	525237	keystroke	d	n/a
262.7985	0.075	525597	keystroke	e	n/a
262.9785	0.076	525957	keystroke	d	n/a
263.4435	0.075	526887	keystroke	Key.enter	n/a
263.524	7.6765	527048	prompt	n/a	queries sons brass defining\n
264.2535	0.09	528507	keystroke	q	n/a
264.3895	0.089	528779	keystroke	u	n/a
264.4935	0.075	528987	keystroke	e	n/a
264.6735	0.075	529347	keystroke	r	n/a
264.8685	0.06	529737	keystroke	i	n/a
264.9585	0.106	529917	keystroke	e	n/a
265.1535	0.181	530307	keystroke	s	n/a
265.3185	0.09	530637	keystroke	Key.space	n/a
265.4985	0.105	530997	keystroke	s	n/a
265.5595	0.089	531119	keystroke	o	n/a
265.7085	0.12	531417	keystroke	n	n/a
265.7685	0.15	531537	keystroke	s	n/a
265.8895	0.089	531779	keystroke	Key.space	n/a
266.1585	0.09	532317	keystroke	b	n/a
266.4295	0.075	532859	keystroke	t	n/a
266.6545	0.12	533309	keystroke	a	n/a
266.8185	0.06	533637	keystroke	s	n/a
267.0285	0.061	534057	keystroke	Key.backspace	n/a
267.1785	0.061	534357	keystroke	Key.backspace	n/a
267.2985	0.105	534597	keystroke	Key.backspace	n/a
267.3595	0.09	534719	keystroke	r	n/a
267.5545	0.135	535109	keystroke	a	n/a
267.6585	0.091	535317	keystroke	s	n/a
267.8395	0.105	535679	keystroke	s	n/a
268.0485	0.075	536097	keystroke	Key.space	n/a
268.8145	0.135	537629	keystroke	d	n/a
268.9645	0.089	537929	keystroke	e	n/a
269.1445	0.104	538289	keystroke	f	n/a
269.2345	0.075	538469	keystroke	i	n/a
269.3695	0.105	538739	keystroke	n	n/a
269.5195	0.09	539039	keystroke	i	n/a
269.7295	0.09	539459	keystroke	n	n/a
269.8795	0.089	539759	keystroke	g	n/a
271.1395	0.059	542279	keystroke	Key.enter	n/a
271.2035	8.263	542407	prompt	n/a	criticism vision brought arnold\n
272.1445	0.06	544289	keystroke	c	n/a
272.3395	0.075	544679	keystroke	r	n/a
272.4745	0.105	544949	keystroke	i	n/a
272.6245	0.075	545249	keystroke	t	n/a
272.7445	0.075	545489	keystroke	i	n/a
273.1045	0.045	546209	keystroke	c	n/a
273.1945	0.09	546389	keystroke	i	n/a
273.2995	0.09	546599	keystroke	s	n/a
273.6295	0.09	547259	keystroke	m	n/a
273.8095	0.12	547619	keystroke	Key.space	n/a
274.6345	0.03	549269	keystroke	v	n/a
274.7845	0.09	549569	keystroke	i	n/a
274.9495	0.09	549899	keystroke	s	n/a
275.0845	0.09	550169	keystroke	i	n/a
275.2645	0.105	550529	keystroke	o	n/a
275.4445	0.105	550889	keystroke	n	n/a
275.5345	0.12	551069	keystroke	Key.space	n/a
275.7595	0.09	551519	keystroke	b	n/a
275.8645	0.075	551729	keystroke	r	n/a
276.0295	0.105	552059	keystroke	o	n/a
276.2695	0.105	552539	keystroke	u	n/a
277.3345	0.045	554669	keystroke	g	n/a
277.4095	0.09	554819	keystroke	h	n/a
277.5445	0.135	555089	keystroke	t	n/a
277.6945	0.075	555389	keystroke	Key.space	n/a
278.0695	0.09	556139	keystroke	a	n/a
278.3095	0.06	556619	keystroke	r	n/a
278.3995	0.09	556799	keystroke	n	n/a
278.5495	0.075	557099	keystroke	o	n/a
278.7445	0.075	557489	keystroke	l	n/a
278.8345	0.06	557669	keystroke	d	n/a
279.4045	0.06	558809	keystroke	Key.enter	n/a
279.471	15.445	558942	prompt	n/a	welding unsubscribe cyber guest\n
280.4545	0.06	560909	keystroke	w	n/a
280.6945	0.075	561389	keystroke	e	n/a
280.8145	0.075	561629	keystroke	l	n/a
280.9945	0.105	561989	keystroke	d	n/a
281.2495	0.075	562499	keystroke	i	n/a
281.4145	0.105	562829	keystroke	n	n/a
281.5345	0.075	563069	keystroke	g	n/a
281.7295	0.09	563459	keystroke	Key.space	n/a
282.0895	0.075	564179	keystroke	u	n/a
282.3295	0.075	564659	keystroke	n	n/a
282.5095	0.06	565019	keystroke	s	n/a
282.6745	0.075	565349	keystroke	i	n/a
283.0345	0.075	566069	keystroke	Key.backspace	n/a
283.2595	0.06	566519	keystroke	u	n/a
283.4245	0.09	566849	keystroke	s	n/a
283.6795	0.09	567359	keystroke	c	n/a
284.4295	0.0595	568859	keystroke	r	n/a
284.504	0.0755	569008	keystroke	i	n/a
284.669	0.105	569338	keystroke	b	n/a
284.774	0.1505	569548	keystroke	e	n/a
284.8795	0.1195	569759	keystroke	Key.space	n/a
287.417	0.027	574834	keystroke	Key.backspace	n/a
287.519	0.075	575038	keystroke	Key.backspace	n/a
287.669	0.09	575338	keystroke	Key.backspace	n/a
287.819	0.09	575638	keystroke	Key.backspace	n/a
287.985	0.104	575970	keystroke	Key.backspace	n/a
288.164	0.135	576328	keystroke	Key.backspace	n/a
288.554	0.0595	577108	keystroke	Key.backspace	n/a
288.9745	0.06	577949	keystroke	b	n/a
289.049	0.0455	578098	keystroke	s	n/a
290.2785	0.076	580557	keystroke	c	n/a
290.5195	0.074	581039	keystroke	r	n/a
290.6245	0.089	581249	keystroke	i	n/a
290.8345	0.105	581669	keystroke	b	n/a
290.924	0.1355	581848	keystroke	e	n/a
291.0145	0.12	582029	keystroke	Key.space	n/a
291.3595	0.09	582719	keystroke	c	n/a
291.5545	0.135	583109	keystroke	y	n/a
291.8845	0.075	583769	keystroke	b	n/a
291.9445	0.105	583889	keystroke	e	n/a
292.1395	0.149	584279	keystroke	r	n/a
292.2735	0.075	584547	keystroke	Key.space	n/a
292.6945	0.09	585389	keystroke	q	n/a
292.7995	0.075	585599	keystroke	u	n/a
293.1295	0.059	586259	keystroke	Key.backspace	n/a
293.2495	0.09	586499	keystroke	Key.backspace	n/a
293.4895	0.075	586979	keystroke	g	n/a
293.7445	0.074	587489	keystroke	u	n/a
293.8795	0.045	587759	keystroke	e	n/a
294.0445	0.105	588089	keystroke	s	n/a
294.1945	0.09	588389	keystroke	t	n/a
294.8545	0.06	589709	keystroke	Key.enter	n/a
294.919	12.012	589838	prompt	n/a	botswana items tricks alternate\n
295.7245	0.105	591449	keystroke	b	n/a
296.7895	0.09	593579	keystroke	o	n/a
296.8945	0.045	593789	keystroke	s	n/a
297.2095	0.09	594419	keystroke	Key.backspace	n/a
297.2545	0.075	594509	keystroke	t	n/a
297.5395	0.12	595079	keystroke	s	n/a
298.0795	0.075	596159	keystroke	w	n/a
298.2745	0.12	596549	keystroke	a	n/a
298.3795	0.105	596759	keystroke	n	n/a
298.4995	0.12	596999	keystroke	a	n/a
298.6645	0.075	597329	keystroke	Key.space	n/a
300.119	0.09	600238	keystroke	i	n/a
300.419	0.105	600838	keystroke	t	n/a
300.539	0.105	601078	keystroke	e	n/a
300.839	0.09	601678	keystroke	m	n/a
301.064	0.15	602128	keystroke	s	n/a
301.229	0.09	602458	keystroke	Key.space	n/a
301.784	0.06	603568	keystroke	t	n/a
301.949	0.075	603898	keystroke	r	n/a
302.054	0.075	604108	keystroke	i	n/a
302.174	0.09	604348	keystroke	c	n/a
302.309	0.09	604618	keystroke	k	n/a
302.444	0.135	604888	keystroke	s	n/a
302.714	0.09	605428	keystroke	Key.space	n/a
302.954	0.105	605908	keystroke	a	n/a
303.479	0.075	606958	keystroke	l	n/a
304.049	0.09	608098	keystroke	t	n/a
304.109	0.075	608218	keystroke	e	n/a
304.289	0.075	608578	keystroke	r	n/a
304.394	0.12	608788	keystroke	n	n/a
304.529	0.105	609058	keystroke	a	n/a
304.724	0.06	609448	keystroke	t	n/a
304.799	0.075	609598	keystroke	e	n/a
306.854	0.075	613708	keystroke	Key.enter	n/a
306.9335	10.137	613867	prompt	n/a	supplied logging corporate ruling\n
307.964	0.09	615928	keystroke	s	n/a
308.069	0.075	616138	keystroke	u	n/a
308.294	0.06	616588	keystroke	p	n/a
308.474	0.06	616948	keystroke	p	n/a
308.624	0.075	617248	keystroke	l	n/a
308.819	0.12	617638	keystroke	i	n/a
308.894	0.06	617788	keystroke	e	n/a
309.074	0.12	618148	keystroke	d	n/a
309.179	0.105	618358	keystroke	Key.space	n/a
309.404	0.09	618808	keystroke	l	n/a
309.599	0.09	619198	keystroke	o	n/a
310.199	0.045	620398	keystroke	g	n/a
310.334	0.075	620668	keystroke	g	n/a
310.424	0.09	620848	keystroke	i	n/a
310.589	0.09	621178	keystroke	n	n/a
310.724	0.12	621448	keystroke	g	n/a
310.844	0.09	621688	keystroke	Key.space	n/a
311.114	0.09	622228	keystroke	c	n/a
311.219	0.09	622438	keystroke	o	n/a
311.414	0.075	622828	keystroke	r	n/a
311.579	0.075	623158	keystroke	o	n/a
312.119	0.075	624238	keystroke	Key.backspace	n/a
312.299	0.105	624598	keystroke	p	n/a
312.479	0.12	624958	keystroke	o	n/a
312.689	0.075	625378	keystroke	r	n/a
312.959	0.12	625918	keystroke	a	n/a
313.229	0.09	626458	keystroke	t	n/a
313.469	0.135	626938	keystroke	e	n/a
313.559	0.12	627118	keystroke	Key.space	n/a
313.799	0.12	627598	keystroke	r	n/a
313.979	0.075	627958	keystroke	u	n/a
314.234	0.105	628468	keystroke	l	n/a
314.594	0.09	629188	keystroke	u	n/a
314.834	0.075	629668	keystroke	n	n/a
314.909	0.075	629818	keystroke	f	n/a
315.2235	0.075	630447	keystroke	Key.backspace	n/a
315.3585	0.075	630717	keystroke	Key.backspace	n/a
315.5085	0.075	631017	keystroke	Key.backspace	n/a
316.0795	0.06	632159	keystroke	i	n/a
316.2745	0.059	632549	keystroke	n	n/a
316.3635	0.076	632727	keystroke	g	n/a
317.0085	0.06	634017	keystroke	Key.enter	n/a
317.0735	11.487	634147	prompt	n/a	specs halifax you'd bookmarks\n
318.0135	0.076	636027	keystroke	s	n/a
318.1195	0.075	636239	keystroke	p	n/a
318.2695	0.074	636539	keystroke	e	n/a
318.4945	0.075	636989	keystroke	c	n/a
318.6745	0.18	637349	keystroke	s	n/a
318.8385	0.076	637677	keystroke	Key.space	n/a
319.4545	0.075	638909	keystroke	h	n/a
319.5895	0.075	639179	keystroke	a	n/a
319.7095	0.075	639419	keystroke	l	n/a
319.9345	0.045	639869	keystroke	i	n/a
320.1295	0.075	640259	keystroke	f	n/a
320.2195	0.12	640439	keystroke	a	n/a
320.6095	0.09	641219	keystroke	c	n/a
321.2845	0.075	642569	keystroke	Key.backspace	n/a
321.3445	0.135	642689	keystroke	x	n/a
321.6895	0.105	643379	keystroke	Key.space	n/a
323.1295	0.09	646259	keystroke	y	n/a
323.3095	0.105	646619	keystroke	o	n/a
323.5045	0.09	647009	keystroke	u	n/a
324.2095	0.06	648419	keystroke	'	n/a
324.7195	0.0895	649439	keystroke	d	n/a
324.7945	0.1045	649589	keystroke	Key.space	n/a
326.0395	0.0595	652079	keystroke	b	n/a
326.174	0.09	652348	keystroke	o	n/a
326.354	0.06	652708	keystroke	o	n/a
326.474	0.12	652948	keystroke	k	n/a
326.699	0.105	653398	keystroke	m	n/a
326.834	0.12	653668	keystroke	a	n/a
326.999	0.09	653998	keystroke	k	n/a
327.209	0.03	654418	keystroke	r	n/a
327.404	0.06	654808	keystroke	Key.backspace	n/a
327.599	0.075	655198	keystroke	Key.backspace	n/a
327.689	0.075	655378	keystroke	r	n/a
327.809	0.09	655618	keystroke	k	n/a
327.959	0.135	655918	keystroke	s	n/a
328.499	0.06	656998	keystroke	Key.enter	n/a
328.5635	9.552	657127	prompt	n/a	enlarge epic flow subsidiaries\n
329.414	0.06	658828	keystroke	e	n/a
329.504	0.075	659008	keystroke	n	n/a
329.654	0.105	659308	keystroke	l	n/a
329.774	0.09	659548	keystroke	a	n/a
330.014	0.075	660028	keystroke	r	n/a
330.209	0.075	660418	keystroke	g	n/a
330.344	0.135	660688	keystroke	e	n/a
330.464	0.09	660928	keystroke	Key.space	n/a
330.629	0.09	661258	keystroke	e	n/a
330.794	0.09	661588	keystroke	p	n/a
330.974	0.09	661948	keystroke	i	n/a
331.124	0.09	662248	keystroke	c	n/a
331.304	0.09	662608	keystroke	Key.space	n/a
331.619	0.09	663238	keystroke	f	n/a
331.739	0.09	663478	keystroke	l	n/a
331.919	0.06	663838	keystroke	o	n/a
332.039	0.045	664078	keystroke	e	n/a
332.444	0.075	664888	keystroke	Key.backspace	n/a
332.489	0.105	664978	keystroke	w	n/a
332.669	0.105	665338	keystroke	Key.space	n/a
333.344	0.075	666688	keystroke	s	n/a
333.494	0.075	666988	keystroke	u	n/a
333.704	0.09	667408	keystroke	s	n/a
333.839	0.105	667678	keystroke	b	n/a
335.009	0.06	670018	keystroke	Key.backspace	n/a
335.129	0.09	670258	keystroke	Key.backspace	n/a
335.384	0.09	670768	keystroke	b	n/a
335.834	0.09	671668	keystroke	s	n/a
335.939	0.09	671878	keystroke	i	n/a
336.284	0.09	672568	keystroke	d	n/a
336.389	0.105	672778	keystroke	i	n/a
336.629	0.12	673258	keystroke	a	n/a
336.899	0.105	673798	keystroke	r	n/a
337.049	0.075	674098	keystroke	i	n/a
337.139	0.075	674278	keystroke	e	n/a
337.334	0.09	674668	keystroke	s	n/a
338.009	0.105	676018	keystroke	Key.enter	n/a
338.119	12.0715	676238	prompt	n/a	couples mime boundaries boutique\n
340.786	0.013	681572	keystroke	c	n/a
340.814	0.061	681628	keystroke	o	n/a
340.949	0.09	681898	keystroke	u	n/a
341.804	0.06	683608	keystroke	l	n/a
342.539	0.09	685078	keystroke	Key.backspace	n/a
342.75	0.075	685500	keystroke	p	n/a
343.319	0.045	686638	keystroke	l	n/a
343.454	0.06	686908	keystroke	e	n/a
343.65	0.134	687300	keystroke	s	n/a
344.144	0.105	688288	keystroke	Key.space	n/a
344.414	0.09	688828	keystroke	m	n/a
344.609	0.075	689218	keystroke	i	n/a
344.939	0.09	689878	keystroke	m	n/a
345.014	0.135	690028	keystroke	e	n/a
345.15	0.059	690300	keystroke	Key.space	n/a
345.629	0.09	691258	keystroke	c	n/a
345.9595	0.075	691919	keystroke	Key.backspace	n/a
346.2295	0.06	692459	keystroke	b	n/a
346.3945	0.09	692789	keystroke	o	n/a
346.5445	0.09	693089	keystroke	u	n/a
346.7695	0.105	693539	keystroke	n	n/a
346.8445	0.12	693689	keystroke	d	n/a
347.0845	0.135	694169	keystroke	a	n/a
347.3695	0.06	694739	keystroke	r	n/a
347.4595	0.09	694919	keystroke	i	n/a
347.6845	0.09	695369	keystroke	e	n/a
347.8945	0.12	695789	keystroke	s	n/a
347.9995	0.105	695999	keystroke	Key.space	n/a
348.2245	0.075	696449	keystroke	b	n/a
348.4045	0.105	696809	keystroke	o	n/a
348.5995	0.105	697199	keystroke	u	n/a
348.8095	0.09	697619	keystroke	t	n/a
349.0345	0.075	698069	keystroke	i	n/a
349.4695	0.09	698939	keystroke	q	n/a
349.5895	0.1045	699179	keystroke	u	n/a
349.694	0.075	699388	keystroke	e	n/a
350.1145	0.075	700229	keystroke	Key.enter	n/a
350.1935	9.717	700387	prompt	n/a	descriptions sophisticated colors clip\n
350.984	0.075	701968	keystroke	d	n/a
351.179	0.075	702358	keystroke	e	n/a
351.359	0.0755	702718	keystroke	s	n/a
351.569	0.075	703138	keystroke	c	n/a
351.779	0.09	703558	keystroke	r	n/a
351.929	0.075	703858	keystroke	i	n/a
352.154	0.105	704308	keystroke	p	n/a
352.424	0.075	704848	keystroke	t	n/a
352.514	0.075	705028	keystroke	i	n/a
352.649	0.09	705298	keystroke	o	n/a
352.814	0.105	705628	keystroke	n	n/a
352.964	0.15	705928	keystroke	s	n/a
353.069	0.135	706138	keystroke	Key.space	n/a
353.384	0.09	706768	keystroke	s	n/a
353.504	0.105	707008	keystroke	o	n/a
353.909	0.06	707818	keystroke	p	n/a
354.299	0.06	708598	keystroke	h	n/a
354.419	0.105	708838	keystroke	i	n/a
354.584	0.09	709168	keystroke	s	n/a
354.779	0.09	709558	keystroke	t	n/a
355.469	0.075	710938	keystroke	i	n/a
355.559	0.105	711118	keystroke	c	n/a
355.754	0.12	711508	keystroke	a	n/a
355.979	0.075	711958	keystroke	t	n/a
356.084	0.09	712168	keystroke	e	n/a
356.684	0.09	713368	keystroke	d	n/a
356.834	0.105	713668	keystroke	Key.space	n/a
357.194	0.075	714388	keystroke	c	n/a
357.299	0.06	714598	keystroke	o	n/a
357.464	0.105	714928	keystroke	l	n/a
357.659	0.075	715318	keystroke	o	n/a
357.839	0.075	715678	keystroke	r	n/a
358.199	0.135	716398	keystroke	s	n/a
358.349	0.09	716698	keystroke	Key.space	n/a
358.559	0.09	717118	keystroke	c	n/a
358.634	0.09	717268	keystroke	l	n/a
358.844	0.09	717688	keystroke	i	n/a
359.099	0.09	718198	keystroke	p	n/a
359.834	0.075	719668	keystroke	Key.enter	n/a
359.9135	5.697	719827	prompt	n/a	andy teen surely class\n
360.629	0.09	721258	keystroke	a	n/a
360.734	0.09	721468	keystroke	n	n/a
360.869	0.075	721738	keystroke	d	n/a
361.049	0.075	722098	keystroke	y	n/a
362.024	0.06	724048	keystroke	Key.space	n/a
362.294	0.09	724588	keystroke	t	n/a
362.399	0.075	724798	keystroke	e	n/a
362.624	0.075	725248	keystroke	e	n/a
362.774	0.09	725548	keystroke	n	n/a
362.864	0.105	725728	keystroke	Key.space	n/a
363.119	0.075	726238	keystroke	s	n/a
363.224	0.09	726448	keystroke	u	n/a
363.404	0.075	726808	keystroke	r	n/a
363.569	0.12	727138	keystroke	e	n/a
363.704	0.105	727408	keystroke	Key.space	n/a
364.094	0.075	728188	keystroke	Key.backspace	n/a
364.304	0.105	728608	keystroke	l	n/a
364.589	0.075	729178	keystroke	y	n/a
364.694	0.09	729388	keystroke	Key.space	n/a
364.814	0.135	729628	keystroke	c	n/a
364.964	0.075	729928	keystroke	l	n/a
365.084	0.135	730168	keystroke	a	n/a
365.204	0.075	730408	keystroke	s	n/a
365.354	0.09	730708	keystroke	s	n/a
365.564	0.045	731128	keystroke	Key.enter	n/a
365.6135	9.942	731227	prompt	n/a	surf toronto climate kennedy\n
367.139	0.09	734278	keystroke	s	n/a
367.244	0.075	734488	keystroke	u	n/a
367.409	0.06	734818	keystroke	r	n/a
367.604	0.09	735208	keystroke	f	n/a
367.679	0.075	735358	keystroke	Key.space	n/a
367.934	0.075	735868	keystroke	t	n/a
368.039	0.105	736078	keystroke	o	n/a
368.159	0.09	736318	keystroke	r	n/a
368.279	0.09	736558	keystroke	o	n/a
368.849	0.045	737698	keystroke	n	n/a
368.925	0.089	737850	keystroke	t	n/a
369.029	0.09	738058	keystroke	o	n/a
369.134	0.09	738268	keystroke	Key.space	n/a
369.359	0.09	738718	keystroke	c	n/a
369.479	0.121	738958	keystroke	l	n/a
370.754	0.06	741508	keystroke	i	n/a
370.949	0.105	741898	keystroke	m	n/a
371.114	0.135	742228	keystroke	a	n/a
371.399	0.075	742798	keystroke	t	n/a
371.475	0.134	742950	keystroke	e	n/a
371.594	0.105	743188	keystroke	Key.space	n/a
371.879	0.075	743758	keystroke	k	n/a
372.014	0.09	744028	keystroke	e	n/a
372.434	0.075	744868	keystroke	n	n/a
372.914	0.061	745828	keystroke	n	n/a
373.004	0.06	746008	keystroke	e	n/a
373.575	0.044	747150	keystroke	d	n/a
373.695	0.044	747390	keystroke	t	n/a
374.654	0.075	749308	keystroke	Key.backspace	n/a
374.759	0.061	749518	keystroke	y	n/a
375.494	0.06	750988	keystroke	Key.enter	n/a
375.5585	7.692	751117	prompt	n/a	benjamin zoloft unix belts\n
376.3945	0.075	752789	keystroke	b	n/a
376.4835	0.061	752967	keystroke	e	n/a
376.5885	0.09	753177	keystroke	j	n/a
376.7695	0.1495	753539	keystroke	a	n/a
376.9335	0.0605	753867	keystroke	m	n/a
377.1285	0.06	754257	keystroke	i	n/a
377.2945	0.089	754589	keystroke	n	n/a
377.3985	0.1205	754797	keystroke	Key.space	n/a
377.9835	0.105	755967	keystroke	z	n/a
378.0745	0.074	756149	keystroke	o	n/a
378.2695	0.089	756539	keystroke	l	n/a
378.4495	0.09	756899	keystroke	o	n/a
379.2735	0.06	758547	keystroke	f	n/a
379.4085	0.091	758817	keystroke	t	n/a
379.5735	0.12	759147	keystroke	Key.space	n/a
380.3695	0.075	760739	keystroke	u	n/a
380.5785	0.091	761157	keystroke	n	n/a
380.729	0.105	761458	keystroke	i	n/a
381.599	0.12	763198	keystroke	x	n/a
381.704	0.105	763408	keystroke	Key.space	n/a
381.929	0.105	763858	keystroke	b	n/a
382.035	0.074	764070	keystroke	e	n/a
382.214	0.09	764428	keystroke	l	n/a
382.529	0.075	765058	keystroke	t	n/a
382.649	0.09	765298	keystroke	s	n/a
383.204	0.045	766408	keystroke	Key.enter	n/a
383.256	7.1955	766512	prompt	n/a	star salad thereof rand\n
384.014	0.105	768028	keystroke	s	n/a
384.179	0.105	768358	keystroke	t	n/a
384.284	0.105	768568	keystroke	a	n/a
384.509	0.15	769018	keystroke	r	n/a
384.644	0.09	769288	keystroke	Key.space	n/a
384.854	0.15	769708	keystroke	s	n/a
385.005	0.149	770010	keystroke	a	n/a
385.109	0.075	770218	keystroke	l	n/a
385.274	0.12	770548	keystroke	d	n/a
385.454	0.135	770908	keystroke	a	n/a
385.769	0.075	771538	keystroke	Key.backspace	n/a
385.904	0.12	771808	keystroke	Key.backspace	n/a
385.979	0.165	771958	keystroke	a	n/a
386.099	0.165	772198	keystroke	d	n/a
386.249	0.105	772498	keystroke	Key.space	n/a
386.984	0.09	773968	keystroke	t	n/a
387.209	0.09	774418	keystroke	h	n/a
387.329	0.091	774658	keystroke	e	n/a
387.509	0.075	775018	keystroke	r	n/a
387.689	0.045	775378	keystroke	e	n/a
388.184	0.105	776368	keystroke	o	n/a
388.619	0.105	777238	keystroke	f	n/a
389.399	0.09	778798	keystroke	Key.space	n/a
389.624	0.09	779248	keystroke	r	n/a
389.849	0.12	779698	keystroke	a	n/a
389.954	0.09	779908	keystroke	n	n/a
390.059	0.09	780118	keystroke	d	n/a
390.389	0.06	780778	keystroke	Key.enter	n/a
390.4545	9.776	780909	prompt	n/a	surgery collaborative tuning ebay\n
391.664	0.075	783328	keystroke	s	n/a
391.769	0.075	783538	keystroke	u	n/a
392.129	0.06	784258	keystroke	r	n/a
392.22	0.089	784440	keystroke	g	n/a
392.354	0.09	784708	keystroke	e	n/a
392.534	0.105	785068	keystroke	r	n/a
392.714	0.09	785428	keystroke	y	n/a
392.834	0.09	785668	keystroke	Key.space	n/a
393.12	0.089	786240	keystroke	c	n/a
393.254	0.06	786508	keystroke	o	n/a
393.449	0.075	786898	keystroke	l	n/a
393.599	0.09	787198	keystroke	l	n/a
393.704	0.075	787408	keystroke	a	n/a
393.974	0.06	787948	keystroke	b	n/a
394.139	0.09	788278	keystroke	o	n/a
394.484	0.09	788968	keystroke	r	n/a
394.62	0.104	789240	keystroke	a	n/a
394.874	0.075	789748	keystroke	t	n/a
394.964	0.075	789928	keystroke	u	n/a
395.429	0.075	790858	keystroke	Key.backspace	n/a
395.595	0.089	791190	keystroke	i	n/a
395.864	0.06	791728	keystroke	v	n/a
395.97	0.134	791940	keystroke	e	n/a
396.105	0.089	792210	keystroke	Key.space	n/a
396.87	0.059	793740	keystroke	t	n/a
397.004	0.075	794008	keystroke	u	n/a
397.874	0.105	795748	keystroke	n	n/a
398.054	0.091	796108	keystroke	i	n/a
398.234	0.09	796468	keystroke	n	n/a
398.429	0.091	796858	keystroke	g	n/a
398.654	0.09	797308	keystroke	Key.space	n/a
398.864	0.075	797728	keystroke	e	n/a
399.149	0.075	798298	keystroke	b	n/a
399.27	0.104	798540	keystroke	a	n/a
399.494	0.076	798988	keystroke	y	n/a
400.1545	0.075	800309	keystroke	Key.enter	n/a
400.2345	8.321	800469	prompt	n/a	influenced become deals lakes\n
400.9795	0.06	801959	keystroke	i	n/a
401.1145	0.105	802229	keystroke	n	n/a
401.3845	0.06	802769	keystroke	f	n/a
401.4595	0.09	802919	keystroke	l	n/a
401.6845	0.09	803369	keystroke	u	n/a
401.7895	0.075	803579	keystroke	e	n/a
401.9095	0.105	803819	keystroke	n	n/a
402.1645	0.075	804329	keystroke	c	n/a
402.2995	0.075	804599	keystroke	e	n/a
402.5245	0.105	805049	keystroke	d	n/a
402.7645	0.075	805529	keystroke	Key.space	n/a
403.1245	0.045	806249	keystroke	b	n/a
403.2895	0.09	806579	keystroke	e	n/a
403.5745	0.09	807149	keystroke	c	n/a
403.7845	0.06	807569	keystroke	a	n/a
404.3095	0.045	808619	keystroke	Key.backspace	n/a
404.4145	0.105	808829	keystroke	i	n/a
404.8495	0.0745	809699	keystroke	Key.backspace	n/a
404.9695	0.105	809939	keystroke	o	n/a
405.1795	0.0895	810359	keystroke	m	n/a
405.2845	0.1495	810569	keystroke	e	n/a
405.464	0.105	810928	keystroke	Key.space	n/a
405.749	0.06	811498	keystroke	d	n/a
405.989	0.075	811978	keystroke	e	n/a
406.2445	0.105	812489	keystroke	a	n/a
406.469	0.06	812938	keystroke	l	n/a
406.589	0.18	813178	keystroke	s	n/a
406.724	0.09	813448	keystroke	Key.space	n/a
406.919	0.09	813838	keystroke	l	n/a
406.994	0.105	813988	keystroke	a	n/a
407.114	0.06	814228	keystroke	l	n/a
407.789	0.075	815578	keystroke	Key.backspace	n/a
407.999	0.075	815998	keystroke	k	n/a
408.059	0.09	816118	keystroke	e	n/a
408.254	0.075	816508	keystroke	s	n/a
408.509	0.045	817018	keystroke	Key.enter	n/a
408.559	10.707	817118	prompt	n/a	compilation engineer metabolism watt\n
409.544	0.075	819088	keystroke	c	n/a
409.604	0.075	819208	keystroke	o	n/a
409.739	0.105	819478	keystroke	m	n/a
409.919	0.105	819838	keystroke	p	n/a
410.039	0.105	820078	keystroke	l	n/a
410.264	0.075	820528	keystroke	i	n/a
410.579	0.06	821158	keystroke	Key.backspace	n/a
410.714	0.09	821428	keystroke	Key.backspace	n/a
410.894	0.09	821788	keystroke	i	n/a
411.104	0.105	822208	keystroke	l	n/a
411.164	0.09	822328	keystroke	a	n/a
411.434	0.06	822868	keystroke	t	n/a
411.479	0.09	822958	keystroke	i	n/a
411.644	0.09	823288	keystroke	o	n/a
411.839	0.105	823678	keystroke	n	n/a
412.004	0.075	824008	keystroke	Key.space	n/a
412.274	0.075	824548	keystroke	e	n/a
412.334	0.12	824668	keystroke	n	n/a
413.219	0.06	826438	keystroke	g	n/a
413.309	0.09	826618	keystroke	i	n/a
413.534	0.09	827068	keystroke	n	n/a
413.609	0.075	827218	keystroke	e	n/a
413.774	0.075	827548	keystroke	e	n/a
413.954	0.18	827908	keystroke	r	n/a
414.734	0.105	829468	keystroke	Key.space	n/a
414.884	0.105	829768	keystroke	m	n/a
414.974	0.105	829948	keystroke	e	n/a
415.259	0.09	830518	keystroke	t	n/a
415.334	0.105	830668	keystroke	a	n/a
415.889	0.075	831778	keystroke	b	n/a
416.084	0.09	832168	keystroke	o	n/a
416.294	0.09	832588	keystroke	l	n/a
416.504	0.075	833008	keystroke	i	n/a
416.639	0.09	833278	keystroke	s	n/a
416.789	0.105	833578	keystroke	m	n/a
417.494	0.12	834988	keystroke	Key.space	n/a
417.929	0.075	835858	keystroke	w	n/a
418.14	0.089	836280	keystroke	a	n/a
418.274	0.075	836548	keystroke	t	n/a
418.409	0.09	836818	keystroke	t	n/a
419.219	0.045	838438	keystroke	Key.enter	n/a
419.269	14.967	838538	prompt	n/a	disclosure beginning they'd collectors\n
420.509	0.06	841018	keystroke	d	n/a
420.614	0.105	841228	keystroke	i	n/a
420.734	0.045	841468	keystroke	s	n/a
421.019	0.075	842038	keystroke	c	n/a
422.264	0.09	844528	keystroke	l	n/a
422.444	0.075	844888	keystroke	o	n/a
423.119	0.075	846238	keystroke	s	n/a
423.195	0.089	846390	keystroke	u	n/a
423.344	0.075	846688	keystroke	r	n/a
423.54	0.15	847080	keystroke	e	n/a
423.674	0.0895	847348	keystroke	Key.space	n/a
424.199	0.0905	848398	keystroke	n	n/a
424.304	0.0895	848608	keystroke	e	n/a
424.6485	0.075	849297	keystroke	g	n/a
425.084	0.075	850168	keystroke	Key.backspace	n/a
425.2185	0.09	850437	keystroke	Key.backspace	n/a
425.6535	0.06	851307	keystroke	Key.backspace	n/a
426.0585	0.09	852117	keystroke	b	n/a
426.1645	0.089	852329	keystroke	e	n/a
426.2835	0.076	852567	keystroke	g	n/a
426.5835	0.075	853167	keystroke	i	n/a
426.8235	0.045	853647	keystroke	n	n/a
426.9595	0.089	853919	keystroke	n	n/a
428.1735	0.075	856347	keystroke	i	n/a
428.3245	0.104	856649	keystroke	n	n/a
428.4735	0.016	856947	keystroke	g	n/a
428.6395	0.104	857279	keystroke	Key.space	n/a
428.9845	0.089	857969	keystroke	t	n/a
429.1485	0.075	858297	keystroke	h	n/a
429.2395	0.105	858479	keystroke	e	n/a
429.4495	0.06	858899	keystroke	y	n/a
430.664	0.06	861328	keystroke	'	n/a
431.039	0.12	862078	keystroke	d	n/a
431.144	0.12	862288	keystroke	Key.space	n/a
431.669	0.09	863338	keystroke	c	n/a
431.804	0.09	863608	keystroke	o	n/a
431.999	0.075	863998	keystroke	l	n/a
432.149	0.075	864298	keystroke	l	n/a
432.209	0.075	864418	keystroke	e	n/a
432.434	0.09	864868	keystroke	c	n/a
432.704	0.06	865408	keystroke	t	n/a
432.779	0.09	865558	keystroke	o	n/a
432.884	0.09	865768	keystroke	r	n/a
433.169	0.09	866338	keystroke	s	n/a
434.174	0.06	868348	keystroke	Key.enter	n/a
434.239	12.927	868478	prompt	n/a	bright herald myspace tiffany\n
435.135	0.104	870270	keystroke	b	n/a
435.314	0.09	870628	keystroke	r	n/a
435.464	0.09	870928	keystroke	i	n/a
435.734	0.06	871468	keystroke	g	n/a
435.809	0.105	871618	keystroke	h	n/a
435.929	0.15	871858	keystroke	t	n/a
436.034	0.105	872068	keystroke	Key.space	n/a
436.484	0.06	872968	keystroke	t	n/a
436.769	0.06	873538	keystroke	Key.backspace	n/a
436.979	0.105	873958	keystroke	h	n/a
437.024	0.09	874048	keystroke	e	n/a
437.219	0.09	874438	keystroke	r	n/a
437.429	0.105	874858	keystroke	a	n/a
437.564	0.09	875128	keystroke	l	n/a
438.089	0.06	876178	keystroke	d	n/a
438.239	0.12	876478	keystroke	Key.space	n/a
438.674	0.09	877348	keystroke	,	n/a
439.169	0.09	878338	keystroke	Key.backspace	n/a
439.454	0.105	878908	keystroke	m	n/a
439.679	0.09	879358	keystroke	y	n/a
439.904	0.09	879808	keystroke	s	n/a
440.01	0.089	880020	keystroke	p	n/a
440.174	0.12	880348	keystroke	a	n/a
441.089	0.105	882178	keystroke	v	n/a
441.179	0.135	882358	keystroke	e	n/a
441.299	0.105	882598	keystroke	Key.space	n/a
441.509	0.09	883018	keystroke	t	n/a
441.629	0.09	883258	keystroke	i	n/a
442.184	0.06	884368	keystroke	Key.backspace	n/a
442.319	0.091	884638	keystroke	Key.backspace	n/a
442.499	0.09	884998	keystroke	Key.backspace	n/a
442.664	0.105	885328	keystroke	Key.backspace	n/a
443.114	0.06	886228	keystroke	Key.backspace	n/a
443.399	0.105	886798	keystroke	c	n/a
443.489	0.165	886978	keystroke	e	n/a
443.609	0.105	887218	keystroke	Key.space	n/a
443.864	0.09	887728	keystroke	t	n/a
443.991	0.083	887982	keystroke	i	n/a
444.285	0.075	888570	keystroke	f	n/a
444.419	0.09	888838	keystroke	f	n/a
444.524	0.09	889048	keystroke	a	n/a
444.644	0.105	889288	keystroke	b	n/a
444.899	0.061	889798	keystroke	t	n/a
445.529	0.09	891058	keystroke	Key.backspace	n/a
445.679	0.105	891358	keystroke	Key.backspace	n/a
446.309	0.076	892618	keystroke	n	n/a
446.504	0.09	893008	keystroke	y	n/a
447.0885	0.075	894177	keystroke	Key.enter	n/a
447.169	7.797	894338	prompt	n/a	scale stranger junior sleeping\n
447.914	0.06	895828	keystroke	s	n/a
448.0935	0.091	896187	keystroke	c	n/a
448.2885	0.105	896577	keystroke	a	n/a
448.4395	0.089	896879	keystroke	l	n/a
448.6345	0.075	897269	keystroke	e	n/a
448.8585	0.076	897717	keystroke	Key.space	n/a
449.084	0.1205	898168	keystroke	s	n/a
449.7595	0.089	899519	keystroke	t	n/a
449.8635	0.03	899727	keystroke	a	n/a
449.9235	0.091	899847	keystroke	r	n/a
450.359	0.075	900718	keystroke	Key.backspace	n/a
450.494	0.09	900988	keystroke	Key.backspace	n/a
450.779	0.09	901558	keystroke	r	n/a
450.884	0.09	901768	keystroke	a	n/a
451.019	0.105	902038	keystroke	n	n/a
451.244	0.075	902488	keystroke	g	n/a
451.319	0.075	902638	keystroke	e	n/a
451.499	0.135	902998	keystroke	r	n/a
451.604	0.09	903208	keystroke	Key.space	n/a
451.829	0.105	903658	keystroke	j	n/a
452.009	0.09	904018	keystroke	u	n/a
452.204	0.09	904408	keystroke	n	n/a
452.354	0.09	904708	keystroke	i	n/a
452.519	0.105	905038	keystroke	o	n/a
452.639	0.12	905278	keystroke	r	n/a
452.729	0.105	905458	keystroke	Key.space	n/a
453.029	0.105	906058	keystroke	s	n/a
453.299	0.075	906598	keystroke	l	n/a
453.404	0.06	906808	keystroke	e	n/a
453.554	0.09	907108	keystroke	e	n/a
453.674	0.09	907348	keystroke	p	n/a
453.929	0.09	907858	keystroke	i	n/a
454.139	0.105	908278	keystroke	n	n/a
454.229	0.09	908458	keystroke	g	n/a
454.889	0.075	909778	keystroke	Key.enter	n/a
454.969	9.762	909938	prompt	n/a	enlargement study appear winners\n
455.804	0.075	911608	keystroke	e	n/a
455.894	0.075	911788	keystroke	n	n/a
456.059	0.105	912118	keystroke	l	n/a
456.134	0.105	912268	keystroke	a	n/a
456.374	0.09	912748	keystroke	g	n/a
456.794	0.075	913588	keystroke	Key.backspace	n/a
456.884	0.09	913768	keystroke	r	n/a
457.094	0.09	914188	keystroke	g	n/a
457.334	0.09	914668	keystroke	e	n/a
457.919	0.075	915838	keystroke	m	n/a
458.01	0.089	916020	keystroke	e	n/a
458.129	0.09	916258	keystroke	n	n/a
458.25	0.149	916500	keystroke	t	n/a
458.414	0.105	916828	keystroke	Key.space	n/a
458.774	0.12	917548	keystroke	s	n/a
459.044	0.075	918088	keystroke	t	n/a
459.179	0.09	918358	keystroke	u	n/a
459.329	0.12	918658	keystroke	d	n/a
459.494	0.09	918988	keystroke	y	n/a
459.629	0.105	919258	keystroke	Key.space	n/a
460.184	0.09	920368	keystroke	a	n/a
460.319	0.045	920638	keystroke	p	n/a
460.454	0.105	920908	keystroke	p	n/a
460.574	0.075	921148	keystroke	e	n/a
460.919	0.105	921838	keystroke	a	n/a
461.144	0.105	922288	keystroke	r	n/a
461.309	0.09	922618	keystroke	Key.space	n/a
461.864	0.075	923728	keystroke	w	n/a
461.969	0.075	923938	keystroke	i	n/a
462.179	0.015	924358	keystroke	b	n/a
462.314	0.06	924628	keystroke	b	n/a
462.419	0.09	924838	keystroke	e	n/a
462.749	0.075	925498	keystroke	Key.backspace	n/a
462.899	0.09	925798	keystroke	Key.backspace	n/a
463.049	0.12	926098	keystroke	Key.backspace	n/a
463.575	0.044	927150	keystroke	n	n/a
463.709	0.09	927418	keystroke	n	n/a
463.785	0.059	927570	keystroke	e	n/a
463.949	0.075	927898	keystroke	r	n/a
464.144	0.09	928288	keystroke	s	n/a
464.654	0.075	929308	keystroke	Key.enter	n/a
464.7335	7.107	929467	prompt	n/a	replied steal fixtures served\n
465.719	0.045	931438	keystroke	r	n/a
465.779	0.075	931558	keystroke	e	n/a
465.989	0.09	931978	keystroke	p	n/a
466.244	0.091	932488	keystroke	l	n/a
466.439	0.075	932878	keystroke	i	n/a
466.529	0.075	933058	keystroke	e	n/a
466.709	0.15	933418	keystroke	d	n/a
466.829	0.105	933658	keystroke	Key.space	n/a
467.144	0.105	934288	keystroke	s	n/a
467.384	0.075	934768	keystroke	t	n/a
467.474	0.105	934948	keystroke	e	n/a
467.654	0.135	935308	keystroke	a	n/a
467.774	0.105	935548	keystroke	l	n/a
467.91	0.089	935820	keystroke	Key.space	n/a
468.389	0.06	936778	keystroke	f	n/a
468.464	0.075	936928	keystroke	i	n/a
469.154	0.12	938308	keystroke	x	n/a
469.379	0.045	938758	keystroke	t	n/a
469.425	0.104	938850	keystroke	u	n/a
469.559	0.076	939118	keystroke	r	n/a
469.724	0.09	939448	keystroke	e	n/a
469.949	0.136	939898	keystroke	s	n/a
470.159	0.075	940318	keystroke	Key.space	n/a
470.339	0.105	940678	keystroke	s	n/a
470.535	0.089	941070	keystroke	e	n/a
470.73	0.074	941460	keystroke	r	n/a
470.894	0.075	941788	keystroke	v	n/a
470.984	0.076	941968	keystroke	e	n/a
471.179	0.09	942358	keystroke	d	n/a
471.779	0.06	943558	keystroke	Key.enter	n/a
471.844	14.997	943688	prompt	n/a	codes lauderdale massachusetts courses\n
472.5885	0.0755	945177	keystroke	c	n/a
472.6795	0.0895	945359	keystroke	o	n/a
472.8135	0.0755	945627	keystroke	d	n/a
473.0385	0.075	946077	keystroke	e	n/a
473.2795	0.134	946559	keystroke	s	n/a
473.399	0.1355	946798	keystroke	Key.space	n/a
473.639	0.075	947278	keystroke	l	n/a
473.7885	0.106	947577	keystroke	a	n/a
474.0295	0.105	948059	keystroke	u	n/a
474.6885	0.106	949377	keystroke	d	n/a
474.8235	0.046	949647	keystroke	e	n/a
474.9595	0.104	949919	keystroke	r	n/a
475.1235	0.091	950247	keystroke	l	n/a
475.4685	0.091	950937	keystroke	Key.backspace	n/a
475.5445	0.104	951089	keystroke	d	n/a
475.6795	0.119	951359	keystroke	a	n/a
475.7995	0.105	951599	keystroke	l	n/a
475.9795	0.075	951959	keystroke	e	n/a
476.5185	0.091	953037	keystroke	Key.space	n/a
476.6995	0.12	953399	keystroke	m	n/a
476.8045	0.09	953609	keystroke	a	n/a
477.0145	0.104	954029	keystroke	s	n/a
477.8995	0.075	955799	keystroke	s	n/a
480.4665	0.058	960933	keystroke	a	n/a
481.0795	0.075	962159	keystroke	c	n/a
481.1995	0.075	962399	keystroke	h	n/a
481.3345	0.09	962669	keystroke	u	n/a
481.6495	0.075	963299	keystroke	s	n/a
481.7995	0.135	963599	keystroke	s	n/a
482.0995	0.09	964199	keystroke	e	n/a
482.2645	0.12	964529	keystroke	t	n/a
482.9245	0.075	965849	keystroke	Key.backspace	n/a
483.0745	0.09	966149	keystroke	Key.backspace	n/a
483.2395	0.09	966479	keystroke	Key.backspace	n/a
484.0045	0.075	968009	keystroke	e	n/a
484.1095	0.075	968219	keystroke	t	n/a
484.2595	0.09	968519	keystroke	t	n/a
484.4095	0.135	968819	keystroke	s	n/a
484.7095	0.105	969419	keystroke	Key.space	n/a
485.0245	0.075	970049	keystroke	c	n/a
485.0695	0.105	970139	keystroke	o	n/a
485.5345	0.105	971069	keystroke	u	n/a
485.6695	0.075	971339	keystroke	r	n/a
485.9845	0.075	971969	keystroke	s	n/a
486.1645	0.06	972329	keystroke	e	n/a
486.3295	0.09	972659	keystroke	s	n/a
486.7795	0.06	973559	keystroke	Key.enter	n/a
486.8455	14.9055	973691	prompt	n/a	diagram exterior definitely supports\n
487.7995	0.09	975599	keystroke	d	n/a
487.9495	0.09	975899	keystroke	i	n/a
488.0545	0.105	976109	keystroke	a	n/a
488.1745	0.105	976349	keystroke	g	n/a
488.3845	0.075	976769	keystroke	r	n/a
488.5045	0.09	977009	keystroke	a	n/a
488.6995	0.075	977399	keystroke	m	n/a
488.8195	0.09	977639	keystroke	Key.space	n/a
489.0595	0.06	978119	keystroke	e	n/a
489.3145	0.075	978629	keystroke	x	n/a
489.4645	0.075	978929	keystroke	t	n/a
489.8245	0.06	979649	keystroke	e	n/a
490.0045	0.075	980009	keystroke	r	n/a
490.1395	0.09	980279	keystroke	i	n/a
490.6345	0.09	981269	keystroke	o	n/a
490.8145	0.09	981629	keystroke	r	n/a
491.0245	0.09	982049	keystroke	Key.space	n/a
491.8045	0.06	983609	keystroke	d	n/a
491.9845	0.075	983969	keystroke	e	n/a
492.2245	0.09	984449	keystroke	f	n/a
492.2995	0.075	984599	keystroke	e	n/a
492.4645	0.09	984929	keystroke	n	n/a
492.6295	0.105	985259	keystroke	i	n/a
492.8395	0.09	985679	keystroke	t	n/a
493.4545	0.075	986909	keystroke	e	n/a
493.5895	0.09	987179	keystroke	l	n/a
493.8595	0.105	987719	keystroke	y	n/a
493.9945	0.12	987989	keystroke	Key.space	n/a
494.3545	0.09	988709	keystroke	s	n/a
495.4045	0.09	990809	keystroke	Key.backspace	n/a
495.5695	0.105	991139	keystroke	Key.backspace	n/a
495.7645	0.0895	991529	keystroke	Key.backspace	n/a
495.929	0.075	991858	keystroke	Key.backspace	n/a
496.0945	0.0895	992189	keystroke	Key.backspace	n/a
496.259	0.09	992518	keystroke	Key.backspace	n/a
496.439	0.09	992878	keystroke	Key.backspace	n/a
496.604	0.09	993208	keystroke	Key.backspace	n/a
496.7995	0.1045	993599	keystroke	Key.backspace	n/a
497.2495	0.06	994499	keystroke	i	n/a
497.429	0.075	994858	keystroke	n	n/a
497.609	0.06	995218	keystroke	i	n/a
497.864	0.06	995728	keystroke	t	n/a
497.969	0.09	995938	keystroke	e	n/a
498.239	0.105	996478	keystroke	l	n/a
498.509	0.09	997018	keystroke	y	n/a
498.659	0.135	997318	keystroke	Key.space	n/a
499.529	0.075	999058	keystroke	s	n/a
499.634	0.105	999268	keystroke	u	n/a
499.919	0.075	999838	keystroke	p	n/a
500.069	0.09	1000138	keystroke	p	n/a
500.189	0.12	1000378	keystroke	o	n/a
500.294	0.075	1000588	keystroke	r	n/a
501.134	0.06	1002268	keystroke	t	n/a
501.419	0.09	1002838	keystroke	s	n/a
501.704	0.045	1003408	keystroke	Key.enter	n/a
501.754	16.3315	1003508	prompt	n/a	recommend poland hydraulic vocational\n
502.769	0.12	1005538	keystroke	r	n/a
503.114	0.105	1006228	keystroke	c	n/a
503.219	0.09	1006438	keystroke	o	n/a
503.414	0.075	1006828	keystroke	m	n/a
503.579	0.105	1007158	keystroke	m	n/a
503.969	0.045	1007938	keystroke	Key.backspace	n/a
504.104	0.09	1008208	keystroke	Key.backspace	n/a
504.269	0.09	1008538	keystroke	Key.backspace	n/a
504.434	0.12	1008868	keystroke	Key.backspace	n/a
504.524	0.09	1009048	keystroke	e	n/a
504.824	0.075	1009648	keystroke	c	n/a
504.9	0.089	1009800	keystroke	o	n/a
505.079	0.12	1010158	keystroke	m	n/a
505.229	0.075	1010458	keystroke	e	n/a
505.439	0.03	1010878	keystroke	e	n/a
505.655	0.054	1011310	keystroke	Key.backspace	n/a
505.784	0.075	1011568	keystroke	Key.backspace	n/a
505.979	0.105	1011958	keystroke	m	n/a
506.024	0.075	1012048	keystroke	e	n/a
506.219	0.09	1012438	keystroke	d	n/a
506.324	0.075	1012648	keystroke	n	n/a
506.429	0.09	1012858	keystroke	Key.space	n/a
506.939	0.06	1013878	keystroke	Key.backspace	n/a
507.074	0.105	1014148	keystroke	Key.backspace	n/a
507.434	0.075	1014868	keystroke	Key.backspace	n/a
507.659	0.09	1015318	keystroke	n	n/a
507.719	0.135	1015438	keystroke	d	n/a
507.839	0.105	1015678	keystroke	Key.space	n/a
508.154	0.105	1016308	keystroke	p	n/a
508.334	0.09	1016668	keystroke	o	n/a
508.544	0.09	1017088	keystroke	l	n/a
508.649	0.09	1017298	keystroke	a	n/a
508.874	0.075	1017748	keystroke	n	n/a
508.979	0.12	1017958	keystroke	d	n/a
509.129	0.12	1018258	keystroke	Key.space	n/a
509.414	0.06	1018828	keystroke	h	n/a
509.774	0.075	1019548	keystroke	Key.backspace	n/a
510.764	0.09	1021528	keystroke	h	n/a
510.975	0.075	1021950	keystroke	y	n/a
511.139	0.09	1022278	keystroke	d	n/a
511.529	0.06	1023058	keystroke	r	n/a
512.744	0.106	1025488	keystroke	a	n/a
513.179	0.105	1026358	keystroke	u	n/a
513.419	0.12	1026838	keystroke	l	n/a
513.644	0.075	1027288	keystroke	i	n/a
513.749	0.12	1027498	keystroke	c	n/a
513.959	0.075	1027918	keystroke	Key.space	n/a
514.994	0.06	1029988	keystroke	v	n/a
515.1	0.075	1030200	keystroke	o	n/a
515.984	0.075	1031968	keystroke	c	n/a
516.105	0.104	1032210	keystroke	a	n/a
516.344	0.076	1032688	keystroke	t	n/a
516.404	0.075	1032808	keystroke	i	n/a
516.569	0.075	1033138	keystroke	o	n/a
516.704	0.105	1033408	keystroke	n	n/a
516.795	0.074	1033590	keystroke	a	n/a
516.914	0.091	1033828	keystroke	l	n/a
518.0245	0.0595	1036049	keystroke	Key.enter	n/a
518.089	7.0165	1036178	prompt	n/a	david dallas haven somewhere\n
519.9295	0.104	1039859	keystroke	d	n/a
520.0495	0.135	1040099	keystroke	a	n/a
520.2895	0.06	1040579	keystroke	v	n/a
520.4395	0.075	1040879	keystroke	i	n/a
520.5285	0.151	1041057	keystroke	d	n/a
520.6495	0.104	1041299	keystroke	Key.space	n/a
520.9035	0.121	1041807	keystroke	d	n/a
521.1585	0.091	1042317	keystroke	a	n/a
521.2935	0.075	1042587	keystroke	l	n/a
521.4595	0.075	1042919	keystroke	l	n/a
521.5495	0.165	1043099	keystroke	a	n/a
521.6845	0.15	1043369	keystroke	s	n/a
521.8045	0.135	1043609	keystroke	Key.space	n/a
522.5835	0.076	1045167	keystroke	h	n/a
522.6895	0.105	1045379	keystroke	a	n/a
522.8095	0.09	1045619	keystroke	v	n/a
522.9145	0.105	1045829	keystroke	e	n/a
523.0645	0.119	1046129	keystroke	n	n/a
523.1995	0.089	1046399	keystroke	Key.space	n/a
523.4545	0.09	1046909	keystroke	s	n/a
523.5145	0.075	1047029	keystroke	o	n/a
523.7095	0.075	1047419	keystroke	m	n/a
523.8145	0.089	1047629	keystroke	e	n/a
524.1295	0.09	1048259	keystroke	w	n/a
524.2345	0.09	1048469	keystroke	h	n/a
524.3695	0.075	1048739	keystroke	e	n/a
524.5645	0.075	1049129	keystroke	r	n/a
524.7445	0.06	1049489	keystroke	e	n/a
525.0595	0.044	1050119	keystroke	Key.enter	n/a
525.109	9.5515	1050218	prompt	n/a	youth encourages sells loves\n
526.2295	0.075	1052459	keystroke	y	n/a
526.4095	0.105	1052819	keystroke	o	n/a
526.5895	0.09	1053179	keystroke	u	n/a
526.6945	0.075	1053389	keystroke	t	n/a
526.7995	0.105	1053599	keystroke	h	n/a
526.9195	0.12	1053839	keystroke	Key.space	n/a
527.2195	0.045	1054439	keystroke	r	n/a
527.6245	0.09	1055249	keystroke	Key.backspace	n/a
527.7295	0.09	1055459	keystroke	e	n/a
527.8945	0.09	1055789	keystroke	n	n/a
527.9995	0.105	1055999	keystroke	c	n/a
528.1195	0.12	1056239	keystroke	o	n/a
528.3895	0.105	1056779	keystroke	u	n/a
528.8095	0.045	1057619	keystroke	Key.backspace	n/a
529.3195	0.09	1058639	keystroke	u	n/a
529.4995	0.09	1058999	keystroke	r	n/a
529.7545	0.135	1059509	keystroke	a	n/a
530.0095	0.09	1060019	keystroke	g	n/a
530.1145	0.075	1060229	keystroke	e	n/a
530.2945	0.12	1060589	keystroke	s	n/a
530.4145	0.075	1060829	keystroke	Key.space	n/a
530.7595	0.075	1061519	keystroke	s	n/a
530.9695	0.06	1061939	keystroke	e	n/a
531.1195	0.06	1062239	keystroke	l	n/a
531.2695	0.075	1062539	keystroke	l	n/a
531.3745	0.12	1062749	keystroke	s	n/a
531.4645	0.105	1062929	keystroke	Key.space	n/a
531.7045	0.105	1063409	keystroke	l	n/a
531.8995	0.06	1063799	keystroke	o	n/a
532.1545	0.06	1064309	keystroke	b	n/a
532.2445	0.075	1064489	keystroke	e	n/a
532.4545	0.03	1064909	keystroke	s	n/a
532.5895	0.075	1065179	keystroke	Key.backspace	n/a
532.7395	0.075	1065479	keystroke	Key.backspace	n/a
532.8745	0.15	1065749	keystroke	Key.backspace	n/a
533.4145	0.045	1066829	keystroke	v	n/a
533.4445	0.075	1066889	keystroke	e	n/a
533.6245	0.09	1067249	keystroke	s	n/a
534.6145	0.045	1069229	keystroke	Key.enter	n/a
534.6635	9.4025	1069327	prompt	n/a	batteries photographer loops sage\n
535.6945	0.075	1071389	keystroke	b	n/a
535.7995	0.135	1071599	keystroke	a	n/a
535.9495	0.06	1071899	keystroke	t	n/a
536.0845	0.105	1072169	keystroke	t	n/a
536.2045	0.06	1072409	keystroke	e	n/a
536.3545	0.09	1072709	keystroke	r	n/a
536.474	0.1055	1072948	keystroke	i	n/a
536.594	0.045	1073188	keystroke	e	n/a
536.7595	0.12	1073519	keystroke	s	n/a
536.894	0.0605	1073788	keystroke	Key.space	n/a
537.1045	0.0895	1074209	keystroke	b	n/a
537.524	0.0905	1075048	keystroke	Key.backspace	n/a
537.689	0.1205	1075378	keystroke	p	n/a
537.974	0.045	1075948	keystroke	r	n/a
538.229	0.09	1076458	keystroke	Key.backspace	n/a
538.664	0.06	1077328	keystroke	h	n/a
538.829	0.105	1077658	keystroke	o	n/a
538.964	0.06	1077928	keystroke	t	n/a
539.084	0.09	1078168	keystroke	o	n/a
539.849	0.09	1079698	keystroke	g	n/a
540.014	0.09	1080028	keystroke	r	n/a
540.119	0.09	1080238	keystroke	a	n/a
540.329	0.075	1080658	keystroke	p	n/a
540.554	0.075	1081108	keystroke	h	n/a
540.644	0.075	1081288	keystroke	e	n/a
540.869	0.105	1081738	keystroke	r	n/a
540.929	0.09	1081858	keystroke	Key.space	n/a
541.514	0.075	1083028	keystroke	l	n/a
541.754	0.06	1083508	keystroke	o	n/a
541.904	0.09	1083808	keystroke	o	n/a
542.144	0.075	1084288	keystroke	p	n/a
542.264	0.135	1084528	keystroke	s	n/a
542.384	0.105	1084768	keystroke	Key.space	n/a
542.789	0.15	1085578	keystroke	s	n/a
542.954	0.12	1085908	keystroke	a	n/a
543.374	0.075	1086748	keystroke	g	n/a
543.434	0.105	1086868	keystroke	e	n/a
544.004	0.06	1088008	keystroke	Key.enter	n/a
544.069	6.2365	1088138	prompt	n/a	cuba jessica metallica main\n
544.874	0.075	1089748	keystroke	c	n/a
544.994	0.075	1089988	keystroke	u	n/a
545.219	0.09	1090438	keystroke	b	n/a
545.309	0.135	1090618	keystroke	a	n/a
545.429	0.105	1090858	keystroke	Key.space	n/a
545.669	0.06	1091338	keystroke	j	n/a
545.714	0.105	1091428	keystroke	e	n/a
545.924	0.06	1091848	keystroke	s	n/a
546.059	0.09	1092118	keystroke	s	n/a
546.839	0.075	1093678	keystroke	i	n/a
546.929	0.075	1093858	keystroke	c	n/a
547.124	0.105	1094248	keystroke	a	n/a
547.334	0.135	1094668	keystroke	Key.space	n/a
547.919	0.075	1095838	keystroke	m	n/a
547.979	0.09	1095958	keystroke	e	n/a
548.309	0.075	1096618	keystroke	t	n/a
548.399	0.105	1096798	keystroke	a	n/a
548.594	0.075	1097188	keystroke	l	n/a
548.729	0.09	1097458	keystroke	l	n/a
548.909	0.09	1097818	keystroke	i	n/a
549.029	0.075	1098058	keystroke	c	n/a
549.239	0.12	1098478	keystroke	a	n/a
549.404	0.075	1098808	keystroke	Key.space	n/a
549.554	0.09	1099108	keystroke	m	n/a
549.659	0.105	1099318	keystroke	a	n/a
549.779	0.09	1099558	keystroke	i	n/a
549.929	0.12	1099858	keystroke	n	n/a
550.229	0.075	1100458	keystroke	Key.enter	n/a
550.3085	5.7575	1100617	prompt	n/a	tall proof silly mint\n
551.159	0.06	1102318	keystroke	t	n/a
551.279	0.105	1102558	keystroke	a	n/a
551.564	0.045	1103128	keystroke	l	n/a
551.714	0.06	1103428	keystroke	l	n/a
551.789	0.105	1103578	keystroke	Key.space	n/a
551.939	0.09	1103878	keystroke	p	n/a
552.119	0.09	1104238	keystroke	r	n/a
552.284	0.075	1104568	keystroke	o	n/a
552.419	0.09	1104838	keystroke	o	n/a
552.614	0.06	1105228	keystroke	f	n/a
552.629	0.03	1105258	keystroke	d	n/a
553.034	0.06	1106068	keystroke	Key.backspace	n/a
553.334	0.06	1106668	keystroke	Key.space	n/a
553.784	0.075	1107568	keystroke	s	n/a
553.919	0.09	1107838	keystroke	i	n/a
554.144	0.076	1108288	keystroke	l	n/a
554.279	0.091	1108558	keystroke	l	n/a
554.504	0.091	1109008	keystroke	y	n/a
554.639	0.075	1109278	keystroke	Key.space	n/a
554.745	0.104	1109490	keystroke	m	n/a
554.924	0.09	1109848	keystroke	i	n/a
555.089	0.106	1110178	keystroke	n	n/a
555.224	0.06	1110448	keystroke	t	n/a
555.989	0.075	1111978	keystroke	Key.enter	n/a
556.0695	9.7015	1112139	prompt	n/a	metres rehab heavily manhattan\n
557.279	0.075	1114558	keystroke	m	n/a
557.384	0.105	1114768	keystroke	e	n/a
557.594	0.076	1115188	keystroke	t	n/a
557.745	0.104	1115490	keystroke	r	n/a
557.879	0.091	1115758	keystroke	e	n/a
558.104	0.12	1116208	keystroke	s	n/a
558.209	0.09	1116418	keystroke	Key.space	n/a
558.524	0.046	1117048	keystroke	e	n/a
558.899	0.105	1117798	keystroke	Key.backspace	n/a
558.974	0.15	1117948	keystroke	r	n/a
559.095	0.104	1118190	keystroke	e	n/a
559.32	0.089	1118640	keystroke	h	n/a
559.454	0.12	1118908	keystroke	a	n/a
559.679	0.091	1119358	keystroke	n	n/a
559.994	0.076	1119988	keystroke	Key.backspace	n/a
560.055	0.104	1120110	keystroke	v	n/a
560.369	0.076	1120738	keystroke	Key.space	n/a
560.609	0.061	1121218	keystroke	Key.backspace	n/a
560.745	0.119	1121490	keystroke	Key.backspace	n/a
560.804	0.12	1121608	keystroke	b	n/a
561.059	0.09	1122118	keystroke	Key.space	n/a
561.78	0.09	1123560	keystroke	h	n/a
561.854	0.0755	1123708	keystroke	e	n/a
562.0495	0.12	1124099	keystroke	a	n/a
562.1245	0.09	1124249	keystroke	v	n/a
562.3045	0.09	1124609	keystroke	i	n/a
562.5445	0.09	1125089	keystroke	l	n/a
562.7995	0.075	1125599	keystroke	y	n/a
562.979	0.075	1125958	keystroke	Key.space	n/a
563.309	0.09	1126618	keystroke	m	n/a
563.549	0.12	1127098	keystroke	a	n/a
563.654	0.09	1127308	keystroke	n	n/a
564.554	0.045	1129108	keystroke	h	n/a
564.614	0.075	1129228	keystroke	a	n/a
564.704	0.06	1129408	keystroke	t	n/a
564.824	0.105	1129648	keystroke	t	n/a
564.974	0.105	1129948	keystroke	a	n/a
565.109	0.075	1130218	keystroke	n	n/a
565.709	0.06	1131418	keystroke	Key.enter	n/a
565.7745	10.9615	1131549	prompt	n/a	printer injury remarkable conducted\n
566.729	0.09	1133458	keystroke	p	n/a
566.864	0.075	1133728	keystroke	r	n/a
566.969	0.075	1133938	keystroke	i	n/a
567.194	0.075	1134388	keystroke	n	n/a
567.449	0.105	1134898	keystroke	t	n/a
567.569	0.105	1135138	keystroke	e	n/a
567.884	0.135	1135768	keystroke	r	n/a
567.989	0.105	1135978	keystroke	Key.space	n/a
568.244	0.075	1136488	keystroke	i	n/a
568.439	0.09	1136878	keystroke	n	n/a
568.664	0.09	1137328	keystroke	j	n/a
568.859	0.075	1137718	keystroke	u	n/a
569.084	0.09	1138168	keystroke	r	n/a
569.219	0.09	1138438	keystroke	y	n/a
569.369	0.09	1138738	keystroke	Key.space	n/a
570.074	0.075	1140148	keystroke	r	n/a
570.209	0.09	1140418	keystroke	e	n/a
570.434	0.105	1140868	keystroke	a	n/a
570.54	0.119	1141080	keystroke	m	n/a
571.334	0.075	1142668	keystroke	Key.backspace	n/a
571.469	0.09	1142938	keystroke	Key.backspace	n/a
571.679	0.105	1143358	keystroke	m	n/a
571.769	0.12	1143538	keystroke	a	n/a
572.024	0.075	1144048	keystroke	r	n/a
573.014	0.075	1146028	keystroke	k	n/a
573.119	0.12	1146238	keystroke	a	n/a
573.284	0.06	1146568	keystroke	b	n/a
573.479	0.105	1146958	keystroke	l	n/a
573.554	0.105	1147108	keystroke	e	n/a
574.049	0.075	1148098	keystroke	Key.space	n/a
574.229	0.12	1148458	keystroke	c	n/a
574.304	0.075	1148608	keystroke	o	n/a
574.589	0.015	1149178	keystroke	n	n/a
575.069	0.075	1150138	keystroke	d	n/a
575.924	0.06	1151848	keystroke	u	n/a
575.999	0.09	1151998	keystroke	c	n/a
576.134	0.075	1152268	keystroke	t	n/a
576.254	0.075	1152508	keystroke	e	n/a
576.449	0.06	1152898	keystroke	d	n/a
576.674	0.06	1153348	keystroke	Key.enter	n/a
576.7395	9.0265	1153479	prompt	n/a	fame cooper attributes boston\n
578.069	0.06	1156138	keystroke	f	n/a
578.189	0.0605	1156378	keystroke	a	n/a
578.4295	0.075	1156859	keystroke	e	n/a
578.7145	0.075	1157429	keystroke	Key.backspace	n/a
578.9395	0.09	1157879	keystroke	m	n/a
579.0145	0.12	1158029	keystroke	e	n/a
579.1195	0.105	1158239	keystroke	Key.space	n/a
579.3445	0.09	1158689	keystroke	c	n/a
579.4495	0.06	1158899	keystroke	o	n/a
579.5845	0.09	1159169	keystroke	o	n/a
579.7945	0.09	1159589	keystroke	p	n/a
579.8995	0.075	1159799	keystroke	e	n/a
580.0795	0.09	1160159	keystroke	r	n/a
580.2145	0.12	1160429	keystroke	Key.space	n/a
580.4695	0.075	1160939	keystroke	a	n/a
580.7245	0.045	1161449	keystroke	t	n/a
580.8745	0.075	1161749	keystroke	r	n/a
581.1445	0.06	1162289	keystroke	Key.backspace	n/a
581.2945	0.075	1162589	keystroke	t	n/a
581.6545	0.09	1163309	keystroke	i	n/a
581.9395	0.09	1163879	keystroke	Key.backspace	n/a
582.0145	0.09	1164029	keystroke	r	n/a
582.1345	0.09	1164269	keystroke	i	n/a
582.9145	0.135	1165829	keystroke	b	n/a
583.0645	0.015	1166129	keystroke	u	n/a
583.1845	0.03	1166369	keystroke	t	n/a
583.2295	0.09	1166459	keystroke	e	n/a
583.9195	0.12	1167839	keystroke	s	n/a
584.0545	0.12	1168109	keystroke	Key.space	n/a
584.3695	0.06	1168739	keystroke	b	n/a
584.5195	0.105	1169039	keystroke	o	n/a
584.5795	0.105	1169159	keystroke	s	n/a
584.8495	0.075	1169699	keystroke	t	n/a
584.9395	0.09	1169879	keystroke	o	n/a
585.0895	0.105	1170179	keystroke	n	n/a
585.7045	0.06	1171409	keystroke	Key.enter	n/a
585.771	9.19	1171542	prompt	n/a	hazardous mount uruguay share\n
586.6195	0.06	1173239	keystroke	h	n/a
586.7095	0.135	1173419	keystroke	a	n/a
586.9495	0.06	1173899	keystroke	r	n/a
587.2195	0.0745	1174439	keystroke	Key.backspace	n/a
587.324	0.0905	1174648	keystroke	z	n/a
587.6845	0.1045	1175369	keystroke	a	n/a
588.029	0.0755	1176058	keystroke	r	n/a
589.124	0.06	1178248	keystroke	d	n/a
589.199	0.09	1178398	keystroke	o	n/a
589.379	0.09	1178758	keystroke	u	n/a
589.499	0.12	1178998	keystroke	s	n/a
589.634	0.09	1179268	keystroke	Key.space	n/a
589.859	0.105	1179718	keystroke	m	n/a
590.054	0.075	1180108	keystroke	o	n/a
590.249	0.075	1180498	keystroke	u	n/a
590.474	0.075	1180948	keystroke	n	n/a
590.564	0.135	1181128	keystroke	t	n/a
591.044	0.06	1182088	keystroke	Key.space	n/a
591.629	0.09	1183258	keystroke	u	n/a
592.109	0.06	1184218	keystroke	r	n/a
592.199	0.09	1184398	keystroke	u	n/a
592.319	0.06	1184638	keystroke	g	n/a
592.454	0.105	1184908	keystroke	u	n/a
592.619	0.12	1185238	keystroke	a	n/a
592.874	0.015	1185748	keystroke	y	n/a
592.934	0.12	1185868	keystroke	Key.space	n/a
593.174	0.105	1186348	keystroke	s	n/a
593.384	0.09	1186768	keystroke	h	n/a
593.699	0.09	1187398	keystroke	a	n/a
594.074	0.075	1188148	keystroke	r	n/a
594.239	0.09	1188478	keystroke	e	n/a
594.914	0.045	1189828	keystroke	Key.enter	n/a
594.964	11.232	1189928	prompt	n/a	scanners fame adaptation ceiling\n
595.799	0.045	1191598	keystroke	s	n/a
596.069	0.06	1192138	keystroke	c	n/a
596.219	0.09	1192438	keystroke	a	n/a
596.324	0.075	1192648	keystroke	n	n/a
596.474	0.09	1192948	keystroke	n	n/a
596.594	0.09	1193188	keystroke	e	n/a
596.774	0.09	1193548	keystroke	r	n/a
597.029	0.12	1194058	keystroke	s	n/a
597.209	0.12	1194418	keystroke	Key.space	n/a
597.959	0.075	1195918	keystroke	f	n/a
598.154	0.09	1196308	keystroke	a	n/a
598.274	0.09	1196548	keystroke	n	n/a
598.424	0.165	1196848	keystroke	e	n/a
598.544	0.105	1197088	keystroke	Key.space	n/a
598.829	0.06	1197658	keystroke	Key.backspace	n/a
598.964	0.075	1197928	keystroke	Key.backspace	n/a
599.099	0.105	1198198	keystroke	Key.backspace	n/a
599.324	0.09	1198648	keystroke	m	n/a
599.399	0.105	1198798	keystroke	e	n/a
599.474	0.12	1198948	keystroke	Key.space	n/a
600.239	0.09	1200478	keystroke	a	n/a
600.494	0.045	1200988	keystroke	f	n/a
600.854	0.09	1201708	keystroke	Key.backspace	n/a
600.959	0.075	1201918	keystroke	d	n/a
601.094	0.075	1202188	keystroke	p	n/a
601.394	0.105	1202788	keystroke	Key.backspace	n/a
601.544	0.09	1203088	keystroke	a	n/a
601.649	0.105	1203298	keystroke	p	n/a
602.04	0.104	1204080	keystroke	m	n/a
602.624	0.075	1205248	keystroke	Key.backspace	n/a
602.714	0.09	1205428	keystroke	t	n/a
602.954	0.105	1205908	keystroke	a	n/a
603.224	0.075	1206448	keystroke	t	n/a
603.284	0.09	1206568	keystroke	i	n/a
603.434	0.105	1206868	keystroke	o	n/a
603.644	0.09	1207288	keystroke	n	n/a
603.749	0.09	1207498	keystroke	Key.space	n/a
604.079	0.075	1208158	keystroke	c	n/a
604.484	0.09	1208968	keystroke	e	n/a
604.679	0.075	1209358	keystroke	i	n/a
604.994	0.09	1209988	keystroke	l	n/a
605.204	0.075	1210408	keystroke	i	n/a
605.354	0.105	1210708	keystroke	n	n/a
605.474	0.075	1210948	keystroke	g	n/a
606.119	0.075	1212238	keystroke	Key.enter	n/a
606.199	8.022	1212398	prompt	n/a	shopper mike wilson array\n
606.96	0.059	1213920	keystroke	s	n/a
607.064	0.076	1214128	keystroke	h	n/a
607.214	0.105	1214428	keystroke	o	n/a
607.454	0.06	1214908	keystroke	p	n/a
607.59	0.089	1215180	keystroke	p	n/a
607.709	0.076	1215418	keystroke	e	n/a
607.859	0.12	1215718	keystroke	r	n/a
607.949	0.091	1215898	keystroke	Key.space	n/a
608.13	0.105	1216260	keystroke	m	n/a
608.324	0.075	1216648	keystroke	i	n/a
608.489	0.105	1216978	keystroke	k	n/a
608.624	0.105	1217248	keystroke	e	n/a
608.684	0.09	1217368	keystroke	Key.space	n/a
609.0895	0.089	1218179	keystroke	w	n/a
609.1935	0.076	1218387	keystroke	i	n/a
609.4045	0.105	1218809	keystroke	l	n/a
609.5245	0.089	1219049	keystroke	s	n/a
609.674	0.091	1219348	keystroke	o	n/a
609.9595	0.0895	1219919	keystroke	n	n/a
610.154	0.1055	1220308	keystroke	Key.space	n/a
610.545	0.1045	1221090	keystroke	a	n/a
610.9645	0.089	1221929	keystroke	e	n/a
611.4585	0.09	1222917	keystroke	Key.backspace	n/a
611.5495	0.0905	1223099	keystroke	w	n/a
611.715	0.0885	1223430	keystroke	w	n/a
611.9095	0.134	1223819	keystroke	a	n/a
612.2385	0.09	1224477	keystroke	Key.backspace	n/a
612.3895	0.089	1224779	keystroke	Key.backspace	n/a
612.5685	0.121	1225137	keystroke	Key.backspace	n/a
612.9735	0.075	1225947	keystroke	r	n/a
613.1235	0.106	1226247	keystroke	r	n/a
613.3045	0.119	1226609	keystroke	a	n/a
613.4535	0.076	1226907	keystroke	y	n/a
614.1595	0.059	1228319	keystroke	Key.enter	n/a
614.224	9.507	1228448	prompt	n/a	sage workout fleece prove\n
615.0895	0.135	1230179	keystroke	s	n/a
615.2095	0.12	1230419	keystroke	a	n/a
615.3595	0.09	1230719	keystroke	g	n/a
615.4795	0.135	1230959	keystroke	e	n/a
615.5985	0.075	1231197	keystroke	Key.space	n/a
616.1235	0.106	1232247	keystroke	w	n/a
616.2445	0.105	1232489	keystroke	o	n/a
616.4395	0.105	1232879	keystroke	u	n/a
617.0685	0.091	1234137	keystroke	Key.backspace	n/a
617.1895	0.045	1234379	keystroke	r	n/a
617.9545	0.09	1235909	keystroke	k	n/a
618.1195	0.09	1236239	keystroke	p	n/a
619.1095	0.075	1238219	keystroke	Key.backspace	n/a
619.3795	0.06	1238759	keystroke	o	n/a
619.6345	0.06	1239269	keystroke	u	n/a
619.7395	0.15	1239479	keystroke	t	n/a
619.8745	0.075	1239749	keystroke	Key.space	n/a
620.8195	0.09	1241639	keystroke	f	n/a
620.9545	0.105	1241909	keystroke	k	n/a
621.4795	0.06	1242959	keystroke	Key.backspace	n/a
621.6895	0.09	1243379	keystroke	l	n/a
621.8095	0.09	1243619	keystroke	e	n/a
622.0045	0.075	1244009	keystroke	e	n/a
622.2895	0.075	1244579	keystroke	c	n/a
622.4995	0.15	1244999	keystroke	e	n/a
622.5895	0.135	1245179	keystroke	Key.space	n/a
622.7095	0.105	1245419	keystroke	p	n/a
622.8595	0.09	1245719	keystroke	r	n/a
622.9645	0.075	1245929	keystroke	o	n/a
623.2645	0.06	1246529	keystroke	v	n/a
623.3245	0.075	1246649	keystroke	e	n/a
623.6845	0.045	1247369	keystroke	Key.enter	n/a
623.7335	8.8925	1247467	prompt	n/a	united mint council organisation\n
624.5245	0.06	1249049	keystroke	u	n/a
624.6445	0.12	1249289	keystroke	n	n/a
624.8095	0.09	1249619	keystroke	i	n/a
625.0645	0.09	1250129	keystroke	t	n/a
625.1395	0.09	1250279	keystroke	e	n/a
625.3495	0.105	1250699	keystroke	d	n/a
625.4995	0.12	1250999	keystroke	Key.space	n/a
625.7845	0.09	1251569	keystroke	m	n/a
625.9645	0.075	1251929	keystroke	i	n/a
626.1145	0.12	1252229	keystroke	n	n/a
626.2645	0.135	1252529	keystroke	t	n/a
626.3845	0.105	1252769	keystroke	Key.space	n/a
626.6245	0.12	1253249	keystroke	c	n/a
626.7145	0.09	1253429	keystroke	o	n/a
626.8945	0.075	1253789	keystroke	i	n/a
627.2845	0.06	1254569	keystroke	Key.backspace	n/a
627.4795	0.06	1254959	keystroke	u	n/a
627.6295	0.135	1255259	keystroke	n	n/a
627.7495	0.09	1255499	keystroke	c	n/a
628.2595	0.075	1256519	keystroke	i	n/a
628.4545	0.135	1256909	keystroke	l	n/a
628.6045	0.09	1257209	keystroke	Key.space	n/a
628.7995	0.09	1257599	keystroke	o	n/a
628.9345	0.09	1257869	keystroke	r	n/a
629.8645	0.075	1259729	keystroke	g	n/a
629.9845	0.09	1259969	keystroke	a	n/a
630.0895	0.105	1260179	keystroke	n	n/a
630.2545	0.06	1260509	keystroke	i	n/a
630.3295	0.12	1260659	keystroke	s	n/a
630.5695	0.105	1261139	keystroke	a	n/a
630.9295	0.09	1261859	keystroke	t	n/a
631.0345	0.075	1262069	keystroke	i	n/a
631.1845	0.09	1262369	keystroke	o	n/a
631.3645	0.075	1262729	keystroke	n	n/a
632.5795	0.045	1265159	keystroke	Key.enter	n/a
632.6285	7.798	1265257	prompt	n/a	instruments onto shaved permit\n
634.079	0.075	1268158	keystroke	i	n/a
634.229	0.105	1268458	keystroke	n	n/a
634.289	0.09	1268578	keystroke	s	n/a
634.544	0.0605	1269088	keystroke	t	n/a
634.724	0.075	1269448	keystroke	r	n/a
634.784	0.075	1269568	keystroke	u	n/a
634.979	0.105	1269958	keystroke	m	n/a
635.069	0.09	1270138	keystroke	e	n/a
635.174	0.105	1270348	keystroke	n	n/a
635.474	0.075	1270948	keystroke	t	n/a
635.564	0.135	1271128	keystroke	s	n/a
635.669	0.12	1271338	keystroke	Key.space	n/a
635.804	0.09	1271608	keystroke	o	n/a
636.014	0.105	1272028	keystroke	n	n/a
636.149	0.09	1272298	keystroke	t	n/a
636.269	0.075	1272538	keystroke	o	n/a
636.344	0.105	1272688	keystroke	Key.space	n/a
636.824	0.105	1273648	keystroke	s	n/a
636.944	0.105	1273888	keystroke	h	n/a
637.064	0.105	1274128	keystroke	a	n/a
637.274	0.06	1274548	keystroke	v	n/a
637.379	0.075	1274758	keystroke	e	n/a
637.649	0.06	1275298	keystroke	x	n/a
637.979	0.075	1275958	keystroke	Key.backspace	n/a
638.055	0.074	1276110	keystroke	d	n/a
638.909	0.06	1277818	keystroke	Key.space	n/a
639.119	0.09	1278238	keystroke	p	n/a
639.239	0.075	1278478	keystroke	e	n/a
639.404	0.075	1278808	keystroke	r	n/a
639.494	0.105	1278988	keystroke	m	n/a
639.674	0.09	1279348	keystroke	i	n/a
639.794	0.075	1279588	keystroke	t	n/a
640.334	0.09	1280668	keystroke	Key.enter	n/a
640.4295	10.6765	1280859	prompt	n/a	argentina laughing civilization lives\n
641.234	0.06	1282468	keystroke	a	n/a
641.414	0.06	1282828	keystroke	r	n/a
641.579	0.09	1283158	keystroke	g	n/a
641.699	0.075	1283398	keystroke	e	n/a
641.789	0.105	1283578	keystroke	n	n/a
641.954	0.075	1283908	keystroke	t	n/a
642.044	0.06	1284088	keystroke	i	n/a
642.209	0.105	1284418	keystroke	n	n/a
642.344	0.12	1284688	keystroke	a	n/a
642.479	0.09	1284958	keystroke	Key.space	n/a
642.824	0.06	1285648	keystroke	a	n/a
643.199	0.12	1286398	keystroke	Key.backspace	n/a
643.814	0.075	1287628	keystroke	l	n/a
643.919	0.105	1287838	keystroke	a	n/a
644.084	0.075	1288168	keystroke	u	n/a
644.354	0.06	1288708	keystroke	g	n/a
644.444	0.105	1288888	keystroke	h	n/a
645.089	0.075	1290178	keystroke	i	n/a
645.269	0.09	1290538	keystroke	n	n/a
645.389	0.091	1290778	keystroke	g	n/a
646.169	0.105	1292338	keystroke	Key.space	n/a
646.484	0.105	1292968	keystroke	c	n/a
646.574	0.105	1293148	keystroke	i	n/a
647.039	0.075	1294078	keystroke	v	n/a
647.129	0.076	1294258	keystroke	i	n/a
647.324	0.121	1294648	keystroke	l	n/a
647.58	0.075	1295160	keystroke	i	n/a
647.924	0.105	1295848	keystroke	x	n/a
648.134	0.135	1296268	keystroke	a	n/a
648.434	0.06	1296868	keystroke	Key.backspace	n/a
648.569	0.075	1297138	keystroke	Key.backspace	n/a
648.6	0.134	1297200	keystroke	z	n/a
648.735	0.119	1297470	keystroke	a	n/a
649.034	0.06	1298068	keystroke	t	n/a
649.109	0.075	1298218	keystroke	i	n/a
649.244	0.09	1298488	keystroke	o	n/a
649.439	0.091	1298878	keystroke	n	n/a
649.544	0.105	1299088	keystroke	Key.space	n/a
649.859	0.091	1299718	keystroke	l	n/a
650.084	0.075	1300168	keystroke	i	n/a
650.325	0.089	1300650	keystroke	v	n/a
650.399	0.091	1300798	keystroke	e	n/a
650.609	0.075	1301218	keystroke	s	n/a
651.044	0.06	1302088	keystroke	Key.enter	n/a
651.1085	12.2975	1302217	prompt	n/a	judge workstation edited palace\n
651.989	0.06	1303978	keystroke	j	n/a
652.139	0.075	1304278	keystroke	u	n/a
652.335	0.089	1304670	keystroke	d	n/a
652.68	0.075	1305360	keystroke	g	n/a
652.769	0.12	1305538	keystroke	e	n/a
652.949	0.105	1305898	keystroke	Key.space	n/a
653.7	0.089	1307400	keystroke	w	n/a
653.805	0.075	1307610	keystroke	o	n/a
654.344	0.046	1308688	keystroke	r	n/a
654.615	0.09	1309230	keystroke	s	n/a
654.794	0.09	1309588	keystroke	k	n/a
655.155	0.075	1310310	keystroke	Key.backspace	n/a
655.319	0.09	1310638	keystroke	t	n/a
655.605	0.12	1311210	keystroke	a	n/a
656.069	0.061	1312138	keystroke	Key.backspace	n/a
656.205	0.089	1312410	keystroke	Key.backspace	n/a
656.384	0.061	1312768	keystroke	Key.backspace	n/a
656.655	0.105	1313310	keystroke	k	n/a
657.12	0.06	1314240	keystroke	s	n/a
657.21	0.104	1314420	keystroke	t	n/a
657.33	0.09	1314660	keystroke	a	n/a
657.48	0.089	1314960	keystroke	t	n/a
657.69	0.09	1315380	keystroke	i	n/a
657.8695	0.1055	1315739	keystroke	o	n/a
658.064	0.091	1316128	keystroke	n	n/a
658.185	0.1195	1316370	keystroke	Key.space	n/a
658.59	0.09	1317180	keystroke	e	n/a
658.814	0.0755	1317628	keystroke	d	n/a
658.9195	0.0905	1317839	keystroke	i	n/a
659.3095	0.0305	1318619	keystroke	f	n/a
659.5495	0.074	1319099	keystroke	Key.backspace	n/a
659.6695	0.09	1319339	keystroke	t	n/a
659.9245	0.105	1319849	keystroke	e	n/a
660.1795	0.15	1320359	keystroke	d	n/a
660.3145	0.119	1320629	keystroke	Key.space	n/a
660.5845	0.075	1321169	keystroke	p	n/a
660.7795	0.075	1321559	keystroke	l	n/a
661.1385	0.061	1322277	keystroke	Key.backspace	n/a
661.4545	0.09	1322909	keystroke	a	n/a
661.5295	0.105	1323059	keystroke	l	n/a
661.6945	0.09	1323389	keystroke	a	n/a
661.9945	0.06	1323989	keystroke	c	n/a
662.2345	0.09	1324469	keystroke	e	n/a
663.3295	0.075	1326659	keystroke	Key.enter	n/a
663.409	7.497	1326818	prompt	n/a	breast why'd ancient keys\n
664.4395	0.135	1328879	keystroke	b	n/a
664.6495	0.105	1329299	keystroke	r	n/a
664.7245	0.075	1329449	keystroke	e	n/a
664.9495	0.15	1329899	keystroke	a	n/a
665.0695	0.12	1330139	keystroke	s	n/a
665.2495	0.075	1330499	keystroke	t	n/a
665.3695	0.12	1330739	keystroke	Key.space	n/a
665.8645	0.075	1331729	keystroke	w	n/a
666.0595	0.105	1332119	keystroke	h	n/a
666.2395	0.09	1332479	keystroke	y	n/a
667.2145	0.045	1334429	keystroke	'	n/a
667.3495	0.165	1334699	keystroke	d	n/a
667.4995	0.12	1334999	keystroke	Key.space	n/a
667.9795	0.06	1335959	keystroke	a	n/a
668.2345	0.06	1336469	keystroke	n	n/a
668.6695	0.075	1337339	keystroke	c	n/a
668.7895	0.09	1337579	keystroke	i	n/a
668.9395	0.09	1337879	keystroke	e	n/a
669.0595	0.105	1338119	keystroke	n	n/a
669.2395	0.06	1338479	keystroke	t	n/a
669.4945	0.075	1338989	keystroke	Key.space	n/a
669.6295	0.12	1339259	keystroke	k	n/a
669.7645	0.075	1339529	keystroke	e	n/a
670.0495	0.09	1340099	keystroke	y	n/a
670.1995	0.105	1340399	keystroke	s	n/a
670.8295	0.075	1341659	keystroke	Key.enter	n/a
670.909	10.992	1341818	prompt	n/a	vatican shots theaters score\n
671.8195	0.0745	1343639	keystroke	v	n/a
671.939	0.0755	1343878	keystroke	a	n/a
672.0445	0.075	1344089	keystroke	t	n/a
672.299	0.0455	1344598	keystroke	o	n/a
672.314	0.015	1344628	keystroke	i	n/a
672.9445	0.0895	1345889	keystroke	Key.backspace	n/a
673.1095	0.105	1346219	keystroke	Key.backspace	n/a
673.484	0.09	1346968	keystroke	i	n/a
673.559	0.075	1347118	keystroke	c	n/a
673.799	0.105	1347598	keystroke	a	n/a
673.919	0.09	1347838	keystroke	n	n/a
674.069	0.105	1348138	keystroke	Key.space	n/a
674.369	0.135	1348738	keystroke	s	n/a
674.474	0.105	1348948	keystroke	h	n/a
674.699	0.105	1349398	keystroke	o	n/a
674.879	0.105	1349758	keystroke	t	n/a
675.539	0.165	1351078	keystroke	s	n/a
675.629	0.12	1351258	keystroke	Key.space	n/a
675.824	0.09	1351648	keystroke	y	n/a
675.839	0.06	1351678	keystroke	t	n/a
676.229	0.09	1352458	keystroke	Key.backspace	n/a
676.394	0.105	1352788	keystroke	Key.backspace	n/a
676.739	0.075	1353478	keystroke	t	n/a
676.904	0.105	1353808	keystroke	h	n/a
676.964	0.09	1353928	keystroke	e	n/a
677.174	0.12	1354348	keystroke	a	n/a
677.969	0.09	1355938	keystroke	t	n/a
677.984	0.06	1355968	keystroke	r	n/a
678.074	0.09	1356148	keystroke	e	n/a
678.434	0.06	1356868	keystroke	Key.backspace	n/a
678.584	0.105	1357168	keystroke	Key.backspace	n/a
678.854	0.075	1357708	keystroke	e	n/a
679.004	0.075	1358008	keystroke	r	n/a
679.244	0.18	1358488	keystroke	s	n/a
679.409	0.12	1358818	keystroke	Key.space	n/a
679.754	0.06	1359508	keystroke	s	n/a
679.919	0.09	1359838	keystroke	c	n/a
680.654	0.06	1361308	keystroke	o	n/a
680.804	0.045	1361608	keystroke	r	n/a
680.924	0.09	1361848	keystroke	e	n/a
681.854	0.045	1363708	keystroke	Key.enter	n/a
681.9045	8.0965	1363809	prompt	n/a	toshiba republicans typical requires\n
683.0245	0.075	1366049	keystroke	t	n/a
683.1145	0.09	1366229	keystroke	o	n/a
683.2795	0.135	1366559	keystroke	s	n/a
