onset	duration	sample	value	key	prompt_text
8.2445	10.818	16489	prompt	n/a	the quick brown fox jumps over a lazy dog\n
9.5515	0.0585	19103	keystroke_t	t	n/a
9.5525	0.0875	19105	keystroke_h	h	n/a
9.76	0.09	19520	keystroke_w	w	n/a
9.97	0.075	19940	keystroke_Key.space	Key.space	n/a
10.33	0.075	20660	keystroke_Key.backspace	Key.backspace	n/a
10.465	0.075	20930	keystroke_Key.backspace	Key.backspace	n/a
10.525	0.09	21050	keystroke_e	e	n/a
10.705	0.075	21410	keystroke_Key.space	Key.space	n/a
10.825	0.105	21650	keystroke_q	q	n/a
11.035	0.09	22070	keystroke_u	u	n/a
11.2	0.09	22400	keystroke_i	i	n/a
11.305	0.075	22610	keystroke_Key.space	Key.space	n/a
11.395	0.09	22790	keystroke_k	k	n/a
11.44	0.075	22880	keystroke_Key.space	Key.space	n/a
11.65	0.015	23300	keystroke_b	b	n/a
11.8445	0.075	23689	keystroke_Key.backspace	Key.backspace	n/a
11.9945	0.075	23989	keystroke_Key.backspace	Key.backspace	n/a
12.1445	0.045	24289	keystroke_Key.backspace	Key.backspace	n/a
12.2645	0.075	24529	keystroke_Key.backspace	Key.backspace	n/a
12.8045	0.105	25609	keystroke_c	c	n/a
12.9545	0.105	25909	keystroke_k	k	n/a
13.0145	0.09	26029	keystroke_Key.space	Key.space	n/a
13.1645	0.1055	26329	keystroke_b	b	n/a
13.285	0.0895	26570	keystroke_r	r	n/a
13.3755	0.0895	26751	keystroke_o	o	n/a
13.495	0.09	26990	keystroke_w	w	n/a
13.54	0.06	27080	keystroke_n	n	n/a
13.66	0.09	27320	keystroke_Key.space	Key.space	n/a
13.765	0.12	27530	keystroke_f	f	n/a
14.02	0.075	28040	keystroke_o	o	n/a
14.11	0.105	28220	keystroke_x	x	n/a
14.23	0.09	28460	keystroke_Key.space	Key.space	n/a
14.38	0.09	28760	keystroke_j	j	n/a
14.53	0.09	29060	keystroke_u	u	n/a
14.695	0.105	29390	keystroke_m	m	n/a
14.89	0.105	29780	keystroke_p	p	n/a
15.025	0.09	30050	keystroke_s	s	n/a
15.07	0.075	30140	keystroke_Key.space	Key.space	n/a
15.19	0.09	30380	keystroke_o	o	n/a
15.235	0.12	30470	keystroke_v	v	n/a
15.37	0.105	30740	keystroke_r	r	n/a
15.385	0.015	30770	keystroke_e	e	n/a
15.46	0.075	30920	keystroke_Key.space	Key.space	n/a
15.565	0.12	31130	keystroke_a	a	n/a
15.64	0.06	31280	keystroke_Key.space	Key.space	n/a
15.9705	0.045	31941	keystroke_Key.backspace	Key.backspace	n/a
16.1205	0.045	32241	keystroke_Key.backspace	Key.backspace	n/a
16.2405	0.0595	32481	keystroke_Key.backspace	Key.backspace	n/a
16.375	0.075	32750	keystroke_Key.backspace	Key.backspace	n/a
16.51	0.09	33020	keystroke_Key.backspace	Key.backspace	n/a
17.065	0.135	34130	keystroke_e	e	n/a
17.155	0.09	34310	keystroke_r	r	n/a
17.201	0.089	34402	keystroke_Key.space	Key.space	n/a
17.3355	0.09	34671	keystroke_a	a	n/a
17.3795	0.075	34759	keystroke_Key.space	Key.space	n/a
17.5155	0.089	35031	keystroke_l	l	n/a
17.6195	0.06	35239	keystroke_a	a	n/a
17.8005	0.1045	35601	keystroke_z	z	n/a
18.025	0.06	36050	keystroke_y	y	n/a
18.115	0.0445	36230	keystroke_Key.space	Key.space	n/a
18.2345	0.0905	36469	keystroke_d	d	n/a
18.31	0.075	36620	keystroke_o	o	n/a
18.43	0.09	36860	keystroke_g	g	n/a
18.985	0.075	37970	keystroke_Key.enter	Key.enter	n/a
19.0665	8.0355	38133	prompt	n/a	movie municipality dont autos\n
19.675	0.135	39350	keystroke_m	m	n/a
19.735	0.12	39470	keystroke_o	o	n/a
19.87	0.105	39740	keystroke_v	v	n/a
20.005	0.0745	40010	keystroke_i	i	n/a
20.1095	0.09	40219	keystroke_e	e	n/a
20.3495	0.075	40699	keystroke_Key.space	Key.space	n/a
20.9655	0.1195	41931	keystroke_m	m	n/a
21.3995	0.0755	42799	keystroke_u	u	n/a
21.52	0.075	43040	keystroke_n	n	n/a
21.6405	0.074	43281	keystroke_i	i	n/a
22.0295	0.09	44059	keystroke_c	c	n/a
22.1645	0.075	44329	keystroke_i	i	n/a
22.72	0.0745	45440	keystroke_p	p	n/a
22.8245	0.12	45649	keystroke_a	a	n/a
23.0045	0.075	46009	keystroke_l	l	n/a
23.1545	0.075	46309	keystroke_i	i	n/a
23.2745	0.1055	46549	keystroke_t	t	n/a
23.3495	0.1055	46699	keystroke_y	y	n/a
23.62	0.105	47240	keystroke_Key.space	Key.space	n/a
23.89	0.105	47780	keystroke_d	d	n/a
23.98	0.12	47960	keystroke_o	o	n/a
24.04	0.09	48080	keystroke_n	n	n/a
24.415	0.09	48830	keystroke_t	t	n/a
24.55	0.09	49100	keystroke_Key.space	Key.space	n/a
24.865	0.135	49730	keystroke_a	a	n/a
25.03	0.06	50060	keystroke_u	u	n/a
25.12	0.1055	50240	keystroke_t	t	n/a
25.2405	0.075	50481	keystroke_o	o	n/a
25.5855	0.104	51171	keystroke_s	s	n/a
27.0105	0.09	54021	keystroke_Key.enter	Key.enter	n/a
27.1045	6.6575	54209	prompt	n/a	dancing analyze resolutions contact\n
27.7155	0.06	55431	keystroke_d	d	n/a
27.8055	0.105	55611	keystroke_a	a	n/a
27.9255	0.075	55851	keystroke_n	n	n/a
28.0155	0.105	56031	keystroke_c	c	n/a
28.0895	0.09	56179	keystroke_i	i	n/a
28.1205	0.105	56241	keystroke_n	n	n/a
28.2255	0.09	56451	keystroke_g	g	n/a
28.2855	0.09	56571	keystroke_Key.space	Key.space	n/a
28.4805	0.119	56961	keystroke_a	a	n/a
28.5855	0.075	57171	keystroke_n	n	n/a
28.9455	0.09	57891	keystroke_a	a	n/a
29.4095	0.06	58819	keystroke_l	l	n/a
29.4855	0.06	58971	keystroke_y	y	n/a
29.7245	0.091	59449	keystroke_z	z	n/a
30.07	0.09	60140	keystroke_e	e	n/a
30.205	0.06	60410	keystroke_Key.space	Key.space	n/a
30.5055	0.0895	61011	keystroke_r	r	n/a
30.5345	0.091	61069	keystroke_e	e	n/a
30.7305	0.105	61461	keystroke_s	s	n/a
30.8205	0.075	61641	keystroke_o	o	n/a
30.9855	0.09	61971	keystroke_l	l	n/a
31.2105	0.075	62421	keystroke_u	u	n/a
31.39	0.09	62780	keystroke_t	t	n/a
31.495	0.075	62990	keystroke_i	i	n/a
31.645	0.09	63290	keystroke_o	o	n/a
31.675	0.105	63350	keystroke_n	n	n/a
31.795	0.1055	63590	keystroke_s	s	n/a
31.8855	0.09	63771	keystroke_Key.space	Key.space	n/a
32.1405	0.105	64281	keystroke_c	c	n/a
32.2155	0.09	64431	keystroke_o	o	n/a
32.2605	0.09	64521	keystroke_n	n	n/a
32.71	0.03	65420	keystroke_t	t	n/a
32.875	0.105	65750	keystroke_a	a	n/a
32.965	0.135	65930	keystroke_c	c	n/a
33.235	0.075	66470	keystroke_t	t	n/a
33.6705	0.09	67341	keystroke_Key.enter	Key.enter	n/a
33.7655	7.6315	67531	prompt	n/a	ford legs quebec modify\n
34.33	0.06	68660	keystroke_d	d	n/a
34.5545	0.075	69109	keystroke_Key.backspace	Key.backspace	n/a
34.6455	0.075	69291	keystroke_f	f	n/a
34.7355	0.075	69471	keystroke_o	o	n/a
34.8255	0.0745	69651	keystroke_r	r	n/a
35.005	0.0905	70010	keystroke_d	d	n/a
35.215	0.075	70430	keystroke_Key.space	Key.space	n/a
35.3795	0.076	70759	keystroke_l	l	n/a
35.4705	0.075	70941	keystroke_e	e	n/a
35.6055	0.0905	71211	keystroke_g	g	n/a
35.74	0.1205	71480	keystroke_s	s	n/a
35.8755	0.06	71751	keystroke_Key.space	Key.space	n/a
36.5955	0.015	73191	keystroke_q	q	n/a
36.6555	0.03	73311	keystroke_u	u	n/a
36.7005	0.075	73401	keystroke_e	e	n/a
37.1055	0.06	74211	keystroke_b	b	n/a
37.2555	0.06	74511	keystroke_e	e	n/a
37.3905	0.12	74781	keystroke_c	c	n/a
37.5255	0.075	75051	keystroke_Key.space	Key.space	n/a
37.7655	0.12	75531	keystroke_m	m	n/a
37.8105	0.09	75621	keystroke_o	o	n/a
38.2905	0.0895	76581	keystroke_d	d	n/a
38.395	0.075	76790	keystroke_i	i	n/a
38.545	0.105	77090	keystroke_g	g	n/a
38.785	0.075	77570	keystroke_y	y	n/a
39.1755	0.075	78351	keystroke_Key.backspace	Key.backspace	n/a
39.3105	0.0745	78621	keystroke_Key.backspace	Key.backspace	n/a
39.67	0.075	79340	keystroke_f	f	n/a
39.805	0.09	79610	keystroke_y	y	n/a
41.3205	0.075	82641	keystroke_Key.enter	Key.enter	n/a
41.4005	7.3915	82801	prompt	n/a	humanity approx websites favor\n
42.13	0.091	84260	keystroke_h	h	n/a
42.205	0.105	84410	keystroke_u	u	n/a
42.415	0.105	84830	keystroke_m	m	n/a
42.565	0.105	85130	keystroke_a	a	n/a
42.64	0.09	85280	keystroke_n	n	n/a
42.895	0.075	85790	keystroke_i	i	n/a
43	0.105	86000	keystroke_t	t	n/a
43.075	0.106	86150	keystroke_y	y	n/a
43.195	0.061	86390	keystroke_Key.space	Key.space	n/a
43.3305	0.135	86661	keystroke_a	a	n/a
43.3905	0.06	86781	keystroke_p	p	n/a
43.5105	0.075	87021	keystroke_p	p	n/a
43.5855	0.105	87171	keystroke_r	r	n/a
43.6755	0.06	87351	keystroke_o	o	n/a
43.7955	0.06	87591	keystroke_v	v	n/a
43.8255	0.105	87651	keystroke_e	e	n/a
44.0505	0.09	88101	keystroke_s	s	n/a
44.2155	0.075	88431	keystroke_Key.space	Key.space	n/a
44.756	0.105	89512	keystroke_w	w	n/a
44.831	0.15	89662	keystroke_e	e	n/a
45.266	0.075	90532	keystroke_b	b	n/a
45.491	0.104	90982	keystroke_s	s	n/a
45.656	0.06	91312	keystroke_i	i	n/a
45.791	0.0295	91582	keystroke_t	t	n/a
45.791	0.1195	91582	keystroke_e	e	n/a
46.0305	0.12	92061	keystroke_s	s	n/a
46.4655	0.03	92931	keystroke_Key.backspace	Key.backspace	n/a
46.5855	0.045	93171	keystroke_Key.backspace	Key.backspace	n/a
46.6755	0.09	93351	keystroke_Key.backspace	Key.backspace	n/a
46.8255	0.12	93651	keystroke_t	t	n/a
46.8705	0.12	93741	keystroke_e	e	n/a
47.0655	0.105	94131	keystroke_s	s	n/a
47.2155	0.0745	94431	keystroke_Key.space	Key.space	n/a
47.4105	0.12	94821	keystroke_f	f	n/a
47.5005	0.12	95001	keystroke_a	a	n/a
47.7405	0.0905	95481	keystroke_v	v	n/a
47.816	0.075	95632	keystroke_o	o	n/a
47.95	0.09	95900	keystroke_r	r	n/a
48.715	0.075	97430	keystroke_Key.enter	Key.enter	n/a
48.795	7.8875	97590	prompt	n/a	moving floating recipient accountability\n
49.3005	0.1505	98601	keystroke_m	m	n/a
49.375	0.105	98750	keystroke_o	o	n/a
49.51	0.105	99020	keystroke_v	v	n/a
49.601	0.105	99202	keystroke_i	i	n/a
49.645	0.09	99290	keystroke_n	n	n/a
49.72	0.076	99440	keystroke_g	g	n/a
49.81	0.0755	99620	keystroke_Key.space	Key.space	n/a
49.9605	0.1055	99921	keystroke_f	f	n/a
50.021	0.09	100042	keystroke_l	l	n/a
50.156	0.089	100312	keystroke_o	o	n/a
50.276	0.09	100552	keystroke_a	a	n/a
50.351	0.105	100702	keystroke_t	t	n/a
50.426	0.105	100852	keystroke_i	i	n/a
50.486	0.09	100972	keystroke_n	n	n/a
50.561	0.089	101122	keystroke_g	g	n/a
50.635	0.091	101270	keystroke_Key.space	Key.space	n/a
50.785	0.1655	101570	keystroke_r	r	n/a
50.8905	0.105	101781	keystroke_e	e	n/a
51.1155	0.105	102231	keystroke_c	c	n/a
51.3405	0.075	102681	keystroke_i	i	n/a
51.5505	0.105	103101	keystroke_p	p	n/a
51.836	0.105	103672	keystroke_i	i	n/a
51.956	0.104	103912	keystroke_e	e	n/a
52.046	0.089	104092	keystroke_n	n	n/a
52.165	0.091	104330	keystroke_t	t	n/a
52.316	0.104	104632	keystroke_Key.space	Key.space	n/a
52.556	0.105	105112	keystroke_a	a	n/a
52.7505	0.045	105501	keystroke_c	c	n/a
52.8555	0.105	105711	keystroke_c	c	n/a
52.9755	0.09	105951	keystroke_o	o	n/a
53.1705	0.075	106341	keystroke_u	u	n/a
53.1855	0.045	106371	keystroke_i	i	n/a
53.2155	0.105	106431	keystroke_n	n	n/a
53.665	0.075	107330	keystroke_Key.backspace	Key.backspace	n/a
53.8	0.0905	107600	keystroke_Key.backspace	Key.backspace	n/a
54.2955	0.06	108591	keystroke_n	n	n/a
54.4155	0.1345	108831	keystroke_t	t	n/a
54.52	0.12	109040	keystroke_a	a	n/a
54.865	0.105	109730	keystroke_b	b	n/a
54.955	0.09	109910	keystroke_i	i	n/a
55.135	0.06	110270	keystroke_l	l	n/a
55.255	0.09	110510	keystroke_i	i	n/a
55.36	0.1205	110720	keystroke_t	t	n/a
55.405	0.1355	110810	keystroke_y	y	n/a
56.5455	0.135	113091	keystroke_Key.enter	Key.enter	n/a
56.687	6.16	113374	prompt	n/a	pendant coated compact pastor\n
57.235	0.09	114470	keystroke_p	p	n/a
57.326	0.089	114652	keystroke_e	e	n/a
57.43	0.075	114860	keystroke_n	n	n/a
57.52	0.106	115040	keystroke_d	d	n/a
57.61	0.121	115220	keystroke_a	a	n/a
57.715	0.076	115430	keystroke_n	n	n/a
57.8655	0.12	115731	keystroke_t	t	n/a
58.1205	0.0755	116241	keystroke_Key.space	Key.space	n/a
58.3155	0.1195	116631	keystroke_c	c	n/a
58.42	0.0755	116840	keystroke_o	o	n/a
58.5405	0.09	117081	keystroke_a	a	n/a
58.9305	0.09	117861	keystroke_t	t	n/a
58.9755	0.105	117951	keystroke_e	e	n/a
59.1555	0.12	118311	keystroke_d	d	n/a
59.2905	0.075	118581	keystroke_Key.space	Key.space	n/a
59.4855	0.105	118971	keystroke_c	c	n/a
59.5605	0.09	119121	keystroke_o	o	n/a
59.6055	0.09	119211	keystroke_m	m	n/a
59.7705	0.0895	119541	keystroke_p	p	n/a
59.846	0.105	119692	keystroke_a	a	n/a
59.905	0.135	119810	keystroke_c	c	n/a
60.1	0.105	120200	keystroke_t	t	n/a
60.25	0.09	120500	keystroke_Key.space	Key.space	n/a
60.58	0.105	121160	keystroke_p	p	n/a
60.67	0.12	121340	keystroke_a	a	n/a
60.745	0.135	121490	keystroke_s	s	n/a
60.865	0.1355	121730	keystroke_t	t	n/a
60.9855	0.075	121971	keystroke_o	o	n/a
61.0615	0.089	122123	keystroke_r	r	n/a
62.756	0.09	125512	keystroke_Key.enter	Key.enter	n/a
62.8535	5.9035	125707	prompt	n/a	baking inter exchange babe\n
63.6855	0.075	127371	keystroke_b	b	n/a
63.7905	0.135	127581	keystroke_a	a	n/a
63.8955	0.105	127791	keystroke_n	n	n/a
63.9855	0.09	127971	keystroke_k	k	n/a
64.1355	0.105	128271	keystroke_i	i	n/a
64.1955	0.075	128391	keystroke_n	n	n/a
64.2555	0.09	128511	keystroke_g	g	n/a
64.3605	0.06	128721	keystroke_Key.space	Key.space	n/a
64.51	0.106	129020	keystroke_i	i	n/a
64.555	0.091	129110	keystroke_n	n	n/a
64.63	0.12	129260	keystroke_t	t	n/a
64.78	0.151	129560	keystroke_e	e	n/a
64.795	0.105	129590	keystroke_r	r	n/a
65.635	0.09	131270	keystroke_Key.space	Key.space	n/a
65.8755	0.075	131751	keystroke_e	e	n/a
66.0855	0.105	132171	keystroke_x	x	n/a
66.4605	0.12	132921	keystroke_c	c	n/a
66.5955	0.075	133191	keystroke_h	h	n/a
66.6715	0.104	133343	keystroke_a	a	n/a
66.7605	0.075	133521	keystroke_n	n	n/a
66.8805	0.09	133761	keystroke_g	g	n/a
66.9105	0.135	133821	keystroke_e	e	n/a
67.3755	0.075	134751	keystroke_Key.space	Key.space	n/a
67.5705	0.09	135141	keystroke_b	b	n/a
67.7805	0.105	135561	keystroke_a	a	n/a
67.9305	0.12	135861	keystroke_b	b	n/a
68.0655	0.075	136131	keystroke_e	e	n/a
68.6805	0.075	137361	keystroke_Key.enter	Key.enter	n/a
68.76	6.3575	137520	prompt	n/a	acts prompt sensors form\n
69.2955	0.12	138591	keystroke_a	a	n/a
69.3855	0.12	138771	keystroke_c	c	n/a
69.7455	0.105	139491	keystroke_t	t	n/a
69.9105	0.075	139821	keystroke_o	o	n/a
70.1955	0.09	140391	keystroke_Key.backspace	Key.backspace	n/a
70.3005	0.105	140601	keystroke_s	s	n/a
70.4505	0.0745	140901	keystroke_Key.space	Key.space	n/a
70.675	0.09	141350	keystroke_p	p	n/a
70.855	0.075	141710	keystroke_r	r	n/a
70.945	0.09	141890	keystroke_o	o	n/a
71.005	0.06	142010	keystroke_m	m	n/a
71.335	0.045	142670	keystroke_p	p	n/a
71.47	0.091	142940	keystroke_t	t	n/a
71.68	0.09	143360	keystroke_Key.space	Key.space	n/a
71.905	0.105	143810	keystroke_s	s	n/a
72.1	0.06	144200	keystroke_e	e	n/a
72.22	0.09	144440	keystroke_n	n	n/a
72.475	0.06	144950	keystroke_o	o	n/a
72.76	0.075	145520	keystroke_Key.backspace	Key.backspace	n/a
72.85	0.12	145700	keystroke_s	s	n/a
72.955	0.075	145910	keystroke_o	o	n/a
73.06	0.12	146120	keystroke_r	r	n/a
73.135	0.135	146270	keystroke_s	s	n/a
73.78	0.06	147560	keystroke_Key.space	Key.space	n/a
73.855	0.09	147710	keystroke_f	f	n/a
73.93	0.09	147860	keystroke_o	o	n/a
74.0355	0.0895	148071	keystroke_r	r	n/a
74.11	0.075	148220	keystroke_m	m	n/a
75.04	0.075	150080	keystroke_Key.enter	Key.enter	n/a
75.121	4.016	150242	prompt	n/a	excluded over inch sony\n
75.88	0.06	151760	keystroke_e	e	n/a
76.075	0.075	152150	keystroke_x	x	n/a
76.225	0.105	152450	keystroke_c	c	n/a
76.345	0.09	152690	keystroke_l	l	n/a
76.525	0.075	153050	keystroke_u	u	n/a
76.615	0.06	153230	keystroke_d	d	n/a
76.75	0.075	153500	keystroke_e	e	n/a
76.885	0.09	153770	keystroke_d	d	n/a
76.99	0.075	153980	keystroke_Key.space	Key.space	n/a
77.2	0.06	154400	keystroke_o	o	n/a
77.275	0.09	154550	keystroke_v	v	n/a
77.335	0.15	154670	keystroke_e	e	n/a
77.44	0.12	154880	keystroke_r	r	n/a
77.56	0.09	155120	keystroke_Key.space	Key.space	n/a
77.755	0.1055	155510	keystroke_i	i	n/a
77.815	0.0905	155630	keystroke_n	n	n/a
77.9205	0.105	155841	keystroke_c	c	n/a
78.0105	0.06	156021	keystroke_h	h	n/a
78.1455	0.09	156291	keystroke_Key.space	Key.space	n/a
78.2205	0.12	156441	keystroke_s	s	n/a
78.3255	0.105	156651	keystroke_o	o	n/a
78.386	0.0895	156772	keystroke_n	n	n/a
78.5805	0.075	157161	keystroke_y	y	n/a
79.0605	0.075	158121	keystroke_Key.enter	Key.enter	n/a
79.1395	4.1975	158279	prompt	n/a	huge do third cure\n
79.7655	0.075	159531	keystroke_h	h	n/a
79.9305	0.075	159861	keystroke_u	u	n/a
80.0355	0.09	160071	keystroke_g	g	n/a
80.0805	0.135	160161	keystroke_e	e	n/a
80.2605	0.105	160521	keystroke_Key.space	Key.space	n/a
80.516	0.1345	161032	keystroke_d	d	n/a
80.6355	0.075	161271	keystroke_o	o	n/a
80.7855	0.09	161571	keystroke_Key.space	Key.space	n/a
80.9805	0.09	161961	keystroke_t	t	n/a
81.0255	0.09	162051	keystroke_h	h	n/a
81.1005	0.075	162201	keystroke_i	i	n/a
81.2055	0.09	162411	keystroke_r	r	n/a
81.385	0.12	162770	keystroke_d	d	n/a
81.625	0.076	163250	keystroke_Key.space	Key.space	n/a
81.8955	0.075	163791	keystroke_c	c	n/a
82.0005	0.075	164001	keystroke_u	u	n/a
82.1355	0.105	164271	keystroke_r	r	n/a
82.1805	0.09	164361	keystroke_e	e	n/a
83.2455	0.09	166491	keystroke_Key.enter	Key.enter	n/a
83.341	8.306	166682	prompt	n/a	configurations riders skip educational\n
83.996	0.104	167992	keystroke_c	c	n/a
84.055	0.105	168110	keystroke_o	o	n/a
84.115	0.075	168230	keystroke_n	n	n/a
84.22	0.09	168440	keystroke_f	f	n/a
85.121	0.09	170242	keystroke_i	i	n/a
85.286	0.105	170572	keystroke_g	g	n/a
85.421	0.075	170842	keystroke_u	u	n/a
85.885	0.135	171770	keystroke_r	r	n/a
85.961	0.134	171922	keystroke_a	a	n/a
86.125	0.06	172250	keystroke_t	t	n/a
86.2	0.075	172400	keystroke_i	i	n/a
86.35	0.105	172700	keystroke_o	o	n/a
86.41	0.105	172820	keystroke_n	n	n/a
86.605	0.105	173210	keystroke_s	s	n/a
87.1455	0.015	174291	keystroke_Key.space	Key.space	n/a
87.3105	0.09	174621	keystroke_r	r	n/a
87.5505	0.06	175101	keystroke_i	i	n/a
87.655	0.105	175310	keystroke_d	d	n/a
88	0.135	176000	keystroke_e	e	n/a
88.09	0.075	176180	keystroke_r	r	n/a
88.2255	0.12	176451	keystroke_s	s	n/a
88.855	0.061	177710	keystroke_Key.space	Key.space	n/a
89.051	0.105	178102	keystroke_s	s	n/a
89.141	0.075	178282	keystroke_k	k	n/a
89.29	0.061	178580	keystroke_i	i	n/a
89.456	0.075	178912	keystroke_p	p	n/a
89.65	0.075	179300	keystroke_Key.space	Key.space	n/a
89.92	0.075	179840	keystroke_e	e	n/a
90.071	0.104	180142	keystroke_d	d	n/a
90.205	0.075	180410	keystroke_u	u	n/a
90.296	0.1045	180592	keystroke_c	c	n/a
90.325	0.1055	180650	keystroke_a	a	n/a
90.535	0.06	181070	keystroke_t	t	n/a
90.596	0.074	181192	keystroke_i	i	n/a
90.731	0.089	181462	keystroke_o	o	n/a
90.76	0.09	181520	keystroke_n	n	n/a
90.865	0.12	181730	keystroke_a	a	n/a
90.94	0.09	181880	keystroke_l	l	n/a
91.525	0.12	183050	keystroke_Key.enter	Key.enter	n/a
91.65	10.497	183300	prompt	n/a	they're lebanon quickly virtual\n
92.29	0.09	184580	keystroke_t	t	n/a
92.335	0.105	184670	keystroke_h	h	n/a
92.7855	0.12	185571	keystroke_e	e	n/a
92.9655	0.105	185931	keystroke_y	y	n/a
93.2205	0.075	186441	keystroke_'	'	n/a
93.3705	0.135	186741	keystroke_r	r	n/a
93.4155	0.12	186831	keystroke_e	e	n/a
93.8355	0.075	187671	keystroke_Key.space	Key.space	n/a
94.1355	0.09	188271	keystroke_l	l	n/a
94.2105	0.105	188421	keystroke_e	e	n/a
94.4355	0.075	188871	keystroke_b	b	n/a
94.6155	0.09	189231	keystroke_a	a	n/a
94.8105	0.075	189621	keystroke_n	n	n/a
94.9755	0.12	189951	keystroke_o	o	n/a
95.0505	0.09	190101	keystroke_n	n	n/a
95.2305	0.105	190461	keystroke_Key.space	Key.space	n/a
95.5155	0.135	191031	keystroke_q	q	n/a
95.6355	0.06	191271	keystroke_u	u	n/a
95.7705	0.09	191541	keystroke_i	i	n/a
95.8755	0.105	191751	keystroke_c	c	n/a
96.1905	0.075	192381	keystroke_k	k	n/a
96.3855	0.06	192771	keystroke_l	l	n/a
96.5055	0.09	193011	keystroke_y	y	n/a
97.5855	0.09	195171	keystroke_Key.space	Key.space	n/a
97.8405	0.09	195681	keystroke_v	v	n/a
97.9455	0.09	195891	keystroke_i	i	n/a
98.1105	0.105	196221	keystroke_r	r	n/a
98.4405	0.09	196881	keystroke_t	t	n/a
98.5455	0.075	197091	keystroke_u	u	n/a
98.6355	0.12	197271	keystroke_a	a	n/a
98.7705	0.075	197541	keystroke_l	l	n/a
102.133	0.013	204266	keystroke_Key.enter	Key.enter	n/a
102.15	19.3925	204300	prompt	n/a	shaved niagara findarticles thongs\n
102.761	0.165	205522	keystroke_s	s	n/a
102.941	0.045	205882	keystroke_h	h	n/a
103.001	0.12	206002	keystroke_a	a	n/a
103.241	0.105	206482	keystroke_e	e	n/a
103.256	0.015	206512	keystroke_v	v	n/a
103.4205	0.105	206841	keystroke_d	d	n/a
103.5555	0.09	207111	keystroke_Key.space	Key.space	n/a
104.0355	0.06	208071	keystroke_Key.backspace	Key.backspace	n/a
104.1855	0.06	208371	keystroke_Key.backspace	Key.backspace	n/a
104.3055	0.06	208611	keystroke_Key.backspace	Key.backspace	n/a
104.4255	0.09	208851	keystroke_Key.backspace	Key.backspace	n/a
104.5455	0.1205	209091	keystroke_v	v	n/a
104.651	0.1045	209302	keystroke_e	e	n/a
104.8905	0.12	209781	keystroke_d	d	n/a
105.0405	0.105	210081	keystroke_Key.space	Key.space	n/a
105.221	0.075	210442	keystroke_n	n	n/a
105.506	0.075	211012	keystroke_i	i	n/a
105.686	0.105	211372	keystroke_a	a	n/a
105.881	0.0895	211762	keystroke_g	g	n/a
106.1205	0.075	212241	keystroke_r	r	n/a
106.2555	0.105	212511	keystroke_a	a	n/a
106.4955	0.075	212991	keystroke_Key.space	Key.space	n/a
106.6605	0.12	213321	keystroke_f	f	n/a
106.886	0.135	213772	keystroke_i	i	n/a
106.976	0.09	213952	keystroke_n	n	n/a
107.156	0.09	214312	keystroke_d	d	n/a
107.696	0.12	215392	keystroke_a	a	n/a
108.386	0.105	216772	keystroke_r	r	n/a
108.461	0.105	216922	keystroke_t	t	n/a
108.7305	0.075	217461	keystroke_i	i	n/a
108.8955	0.105	217791	keystroke_c	c	n/a
109.0755	0.075	218151	keystroke_l	l	n/a
109.1805	0.105	218361	keystroke_e	e	n/a
109.2705	0.12	218541	keystroke_s	s	n/a
113.8485	0.057	227697	keystroke_Key.left	Key.left	n/a
113.9655	0.075	227931	keystroke_Key.left	Key.left	n/a
114.1005	0.09	228201	keystroke_Key.left	Key.left	n/a
114.2355	0.09	228471	keystroke_Key.left	Key.left	n/a
114.3855	0.075	228771	keystroke_Key.left	Key.left	n/a
114.506	0.075	229012	keystroke_Key.left	Key.left	n/a
114.64	0.076	229280	keystroke_Key.left	Key.left	n/a
114.775	0.06	229550	keystroke_Key.left	Key.left	n/a
114.895	0.076	229790	keystroke_Key.left	Key.left	n/a
115.046	0.06	230092	keystroke_Key.left	Key.left	n/a
115.165	0.0765	230330	keystroke_Key.left	Key.left	n/a
115.3005	0.09	230601	keystroke_Key.left	Key.left	n/a
115.4505	0.075	230901	keystroke_Key.left	Key.left	n/a
115.5855	0.075	231171	keystroke_Key.left	Key.left	n/a
115.7355	0.075	231471	keystroke_Key.left	Key.left	n/a
115.9755	0.135	231951	keystroke_a	a	n/a
116.2755	0.075	232551	keystroke_Key.right	Key.right	n/a
116.4405	0.0755	232881	keystroke_Key.right	Key.right	n/a
116.576	0.075	233152	keystroke_Key.right	Key.right	n/a
116.711	0.075	233422	keystroke_Key.right	Key.right	n/a
116.846	0.09	233692	keystroke_Key.right	Key.right	n/a
117.026	0.06	234052	keystroke_Key.right	Key.right	n/a
117.7905	0.09	235581	keystroke_Key.right	Key.right	n/a
117.9405	0.075	235881	keystroke_Key.right	Key.right	n/a
118.0905	0.075	236181	keystroke_Key.right	Key.right	n/a
118.225	0.06	236450	keystroke_Key.right	Key.right	n/a
118.36	0.0755	236720	keystroke_Key.right	Key.right	n/a
118.4955	0.0755	236991	keystroke_Key.right	Key.right	n/a
118.661	0.06	237322	keystroke_Key.right	Key.right	n/a
118.796	0.075	237592	keystroke_Key.right	Key.right	n/a
118.946	0.075	237892	keystroke_Key.right	Key.right	n/a
119.0955	0.06	238191	keystroke_Key.right	Key.right	n/a
119.4855	0.075	238971	keystroke_Key.space	Key.space	n/a
119.8605	0.09	239721	keystroke_t	t	n/a
119.9205	0.09	239841	keystroke_h	h	n/a
119.9655	0.105	239931	keystroke_i	i	n/a
120.1155	0.105	240231	keystroke_g	g	n/a
120.431	0.06	240862	keystroke_Key.backspace	Key.backspace	n/a
120.5205	0.105	241041	keystroke_Key.backspace	Key.backspace	n/a
120.8205	0.075	241641	keystroke_o	o	n/a
120.8505	0.1055	241701	keystroke_n	n	n/a
121.001	0.105	242002	keystroke_g	g	n/a
121.061	0.119	242122	keystroke_s	s	n/a
121.451	0.09	242902	keystroke_Key.enter	Key.enter	n/a
121.546	9.701	243092	prompt	n/a	cialis lighter attempts gamma\n
122.246	0.134	244492	keystroke_c	c	n/a
122.381	0.09	244762	keystroke_i	i	n/a
122.501	0.134	245002	keystroke_a	a	n/a
122.98	0.075	245960	keystroke_l	l	n/a
123.115	0.075	246230	keystroke_i	i	n/a
123.175	0.12	246350	keystroke_s	s	n/a
123.7755	0.09	247551	keystroke_Key.space	Key.space	n/a
124.0905	0.075	248181	keystroke_l	l	n/a
124.241	0.09	248482	keystroke_i	i	n/a
124.316	0.15	248632	keystroke_g	g	n/a
124.406	0.135	248812	keystroke_h	h	n/a
124.5705	0.1055	249141	keystroke_t	t	n/a
124.751	0.15	249502	keystroke_e	e	n/a
124.841	0.12	249682	keystroke_r	r	n/a
127.1985	0.042	254397	keystroke_Key.space	Key.space	n/a
127.6455	0.09	255291	keystroke_a	a	n/a
127.931	0.0745	255862	keystroke_t	t	n/a
128.0505	0.18	256101	keystroke_e	e	n/a
128.1855	0.0755	256371	keystroke_m	m	n/a
128.546	0.075	257092	keystroke_Key.backspace	Key.backspace	n/a
128.666	0.09	257332	keystroke_Key.backspace	Key.backspace	n/a
128.756	0.105	257512	keystroke_t	t	n/a
128.816	0.15	257632	keystroke_e	e	n/a
128.951	0.105	257902	keystroke_m	m	n/a
129.026	0.09	258052	keystroke_p	p	n/a
129.461	0.135	258922	keystroke_t	t	n/a
129.581	0.135	259162	keystroke_s	s	n/a
129.791	0.09	259582	keystroke_Key.space	Key.space	n/a
130.061	0.09	260122	keystroke_g	g	n/a
130.3605	0.12	260721	keystroke_a	a	n/a
130.4955	0.045	260991	keystroke_m	m	n/a
130.5855	0.075	261171	keystroke_m	m	n/a
130.6755	0.105	261351	keystroke_a	a	n/a
131.1705	0.075	262341	keystroke_Key.enter	Key.enter	n/a
131.2515	7.8105	262503	prompt	n/a	oops glucose households investigated\n
131.9055	0.06	263811	keystroke_o	o	n/a
132.0405	0.09	264081	keystroke_o	o	n/a
132.2055	0.09	264411	keystroke_p	p	n/a
132.2805	0.12	264561	keystroke_s	s	n/a
132.4155	0.105	264831	keystroke_Key.space	Key.space	n/a
132.6255	0.105	265251	keystroke_g	g	n/a
132.7005	0.075	265401	keystroke_l	l	n/a
132.8655	0.075	265731	keystroke_u	u	n/a
132.9705	0.105	265941	keystroke_c	c	n/a
133.5105	0.075	267021	keystroke_o	o	n/a
133.6005	0.105	267201	keystroke_s	s	n/a
133.6755	0.105	267351	keystroke_e	e	n/a
133.7655	0.0745	267531	keystroke_Key.space	Key.space	n/a
133.961	0.09	267922	keystroke_h	h	n/a
134.08	0.091	268160	keystroke_o	o	n/a
134.246	0.074	268492	keystroke_u	u	n/a
134.305	0.105	268610	keystroke_s	s	n/a
134.366	0.12	268732	keystroke_e	e	n/a
134.816	0.09	269632	keystroke_h	h	n/a
134.981	0.105	269962	keystroke_o	o	n/a
135.145	0.106	270290	keystroke_l	l	n/a
135.236	0.1045	270472	keystroke_d	d	n/a
135.311	0.1195	270622	keystroke_s	s	n/a
135.7755	0.105	271551	keystroke_Key.space	Key.space	n/a
135.986	0.09	271972	keystroke_i	i	n/a
136.03	0.105	272060	keystroke_n	n	n/a
136.151	0.089	272302	keystroke_v	v	n/a
136.256	0.09	272512	keystroke_e	e	n/a
136.451	0.134	272902	keystroke_s	s	n/a
136.555	0.151	273110	keystroke_t	t	n/a
136.796	0.075	273592	keystroke_i	i	n/a
137.0205	0.105	274041	keystroke_g	g	n/a
137.1405	0.12	274281	keystroke_a	a	n/a
137.291	0.105	274582	keystroke_t	t	n/a
137.351	0.12	274702	keystroke_e	e	n/a
137.546	0.105	275092	keystroke_d	d	n/a
138.971	0.09	277942	keystroke_Key.enter	Key.enter	n/a
139.0655	6.6715	278131	prompt	n/a	owner addressing patients hearts\n
139.571	0.09	279142	keystroke_o	o	n/a
139.706	0.12	279412	keystroke_w	w	n/a
139.8105	0.0755	279621	keystroke_n	n	n/a
139.901	0.1345	279802	keystroke_e	e	n/a
139.976	0.1345	279952	keystroke_r	r	n/a
140.1255	0.09	280251	keystroke_Key.space	Key.space	n/a
140.2605	0.105	280521	keystroke_a	a	n/a
140.6205	0.09	281241	keystroke_d	d	n/a
140.7705	0.075	281541	keystroke_d	d	n/a
140.9655	0.12	281931	keystroke_r	r	n/a
141.0405	0.105	282081	keystroke_e	e	n/a
141.2205	0.075	282441	keystroke_s	s	n/a
141.3705	0.105	282741	keystroke_s	s	n/a
141.4605	0.09	282921	keystroke_i	i	n/a
141.5055	0.09	283011	keystroke_n	n	n/a
141.5805	0.075	283161	keystroke_g	g	n/a
141.6565	0.089	283313	keystroke_Key.space	Key.space	n/a
141.9405	0.09	283881	keystroke_p	p	n/a
142.1055	0.09	284211	keystroke_a	a	n/a
142.331	0.12	284662	keystroke_t	t	n/a
142.451	0.09	284902	keystroke_i	i	n/a
142.526	0.09	285052	keystroke_e	e	n/a
142.586	0.09	285172	keystroke_n	n	n/a
142.736	0.075	285472	keystroke_t	t	n/a
142.826	0.09	285652	keystroke_s	s	n/a
143.021	0.075	286042	keystroke_Key.space	Key.space	n/a
143.486	0.075	286972	keystroke_h	h	n/a
143.606	0.12	287212	keystroke_e	e	n/a
143.816	0.105	287632	keystroke_a	a	n/a
143.996	0.1345	287992	keystroke_r	r	n/a
144.0705	0.12	288141	keystroke_t	t	n/a
144.2805	0.12	288561	keystroke_s	s	n/a
145.676	0.06	291352	keystroke_Key.enter	Key.enter	n/a
145.741	9.206	291482	prompt	n/a	carlo desirable americans hack\n
146.32	0.1205	292640	keystroke_c	c	n/a
146.3805	0.105	292761	keystroke_a	a	n/a
146.5455	0.105	293091	keystroke_r	r	n/a
146.6205	0.075	293241	keystroke_l	l	n/a
146.7405	0.0905	293481	keystroke_o	o	n/a
146.845	0.061	293690	keystroke_r	r	n/a
147.22	0.075	294440	keystroke_Key.backspace	Key.backspace	n/a
147.445	0.075	294890	keystroke_Key.space	Key.space	n/a
147.536	0.12	295072	keystroke_d	d	n/a
147.97	0.091	295940	keystroke_e	e	n/a
148.135	0.105	296270	keystroke_s	s	n/a
148.39	0.09	296780	keystroke_i	i	n/a
148.555	0.09	297110	keystroke_r	r	n/a
148.765	0.06	297530	keystroke_a	a	n/a
148.915	0.076	297830	keystroke_b	b	n/a
149.02	0.075	298040	keystroke_l	l	n/a
149.11	0.09	298220	keystroke_e	e	n/a
149.215	0.075	298430	keystroke_Key.space	Key.space	n/a
149.425	0.1205	298850	keystroke_a	a	n/a
149.516	0.0895	299032	keystroke_m	m	n/a
149.6355	0.135	299271	keystroke_e	e	n/a
149.7105	0.1045	299421	keystroke_r	r	n/a
149.83	0.076	299660	keystroke_i	i	n/a
149.95	0.09	299900	keystroke_c	c	n/a
150.07	0.076	300140	keystroke_n	n	n/a
150.5355	0.105	301071	keystroke_Key.backspace	Key.backspace	n/a
150.6555	0.105	301311	keystroke_a	a	n/a
150.7755	0.09	301551	keystroke_n	n	n/a
150.8655	0.12	301731	keystroke_s	s	n/a
151.0455	0.0905	302091	keystroke_Key.space	Key.space	n/a
151.346	0.0595	302692	keystroke_h	h	n/a
151.4205	0.135	302841	keystroke_a	a	n/a
151.4955	0.165	302991	keystroke_c	c	n/a
151.6005	0.075	303201	keystroke_k	k	n/a
154.933	0.013	309866	keystroke_Key.enter	Key.enter	n/a
154.9515	4.8105	309903	prompt	n/a	solar tobacco unlike woods\n
155.516	0.12	311032	keystroke_s	s	n/a
155.576	0.089	311152	keystroke_o	o	n/a
155.725	0.09	311450	keystroke_l	l	n/a
155.8	0.12	311600	keystroke_a	a	n/a
155.861	0.179	311722	keystroke_r	r	n/a
155.965	0.105	311930	keystroke_Key.space	Key.space	n/a
156.19	0.12	312380	keystroke_t	t	n/a
156.295	0.0755	312590	keystroke_o	o	n/a
156.4755	0.09	312951	keystroke_b	b	n/a
156.6855	0.09	313371	keystroke_a	a	n/a
156.8505	0.075	313701	keystroke_c	c	n/a
156.9855	0.105	313971	keystroke_c	c	n/a
157.2855	0.09	314571	keystroke_o	o	n/a
157.4505	0.105	314901	keystroke_Key.space	Key.space	n/a
157.7805	0.09	315561	keystroke_u	u	n/a
157.8405	0.09	315681	keystroke_n	n	n/a
158.0355	0.06	316071	keystroke_l	l	n/a
158.1555	0.075	316311	keystroke_i	i	n/a
158.2755	0.075	316551	keystroke_k	k	n/a
158.3355	0.075	316671	keystroke_e	e	n/a
158.4105	0.09	316821	keystroke_Key.space	Key.space	n/a
158.5155	0.09	317031	keystroke_w	w	n/a
158.6205	0.045	317241	keystroke_o	o	n/a
158.7105	0.09	317421	keystroke_o	o	n/a
158.8455	0.135	317691	keystroke_d	d	n/a
158.9505	0.135	317901	keystroke_s	s	n/a
159.6855	0.075	319371	keystroke_Key.enter	Key.enter	n/a
159.767	11.9355	319534	prompt	n/a	fruit juice snake zinc\n
160.391	0.075	320782	keystroke_f	f	n/a
160.541	0.09	321082	keystroke_r	r	n/a
160.616	0.06	321232	keystroke_u	u	n/a
160.736	0.105	321472	keystroke_i	i	n/a
160.826	0.075	321652	keystroke_t	t	n/a
160.961	0.045	321922	keystroke_Key.space	Key.space	n/a
161.171	0.075	322342	keystroke_j	j	n/a
161.306	0.075	322612	keystroke_u	u	n/a
161.441	0.12	322882	keystroke_c	c	n/a
161.456	0.045	322912	keystroke_i	i	n/a
161.501	0.135	323002	keystroke_e	e	n/a
161.651	0.075	323302	keystroke_Key.space	Key.space	n/a
162.146	0.075	324292	keystroke_Key.backspace	Key.backspace	n/a
162.296	0.06	324592	keystroke_Key.backspace	Key.backspace	n/a
162.446	0.045	324892	keystroke_Key.backspace	Key.backspace	n/a
162.566	0.075	325132	keystroke_Key.backspace	Key.backspace	n/a
162.806	0.09	325612	keystroke_i	i	n/a
162.866	0.09	325732	keystroke_c	c	n/a
162.926	0.12	325852	keystroke_e	e	n/a
163.061	0.075	326122	keystroke_Key.space	Key.space	n/a
163.151	0.105	326302	keystroke_s	s	n/a
163.226	0.075	326452	keystroke_n	n	n/a
163.346	0.105	326692	keystroke_a	a	n/a
163.706	0.12	327412	keystroke_c	c	n/a
163.811	0.06	327622	keystroke_k	k	n/a
164.426	0.06	328852	keystroke_Key.backspace	Key.backspace	n/a
164.561	0.075	329122	keystroke_Key.backspace	Key.backspace	n/a
164.846	0.075	329692	keystroke_k	k	n/a
164.936	0.075	329872	keystroke_e	e	n/a
168.2535	0	336507	keystroke_Key.space	Key.space	n/a
168.716	0.09	337432	keystroke_z	z	n/a
168.791	0.12	337582	keystroke_i	i	n/a
168.836	0.09	337672	keystroke_n	n	n/a
168.941	0.105	337882	keystroke_c	c	n/a
171.6735	0.027	343347	keystroke_Key.enter	Key.enter	n/a
171.7055	6.477	343411	prompt	n/a	logged captured concord pointer\n
172.361	0.06	344722	keystroke_l	l	n/a
172.526	0.075	345052	keystroke_o	o	n/a
172.676	0.0445	345352	keystroke_o	o	n/a
172.9905	0.075	345981	keystroke_Key.backspace	Key.backspace	n/a
173.0955	0.255	346191	keystroke_g	g	n/a
173.3055	0.105	346611	keystroke_e	e	n/a
173.6205	0.09	347241	keystroke_Key.backspace	Key.backspace	n/a
173.7255	0.09	347451	keystroke_g	g	n/a
173.7705	0.12	347541	keystroke_e	e	n/a
173.9655	0.1205	347931	keystroke_d	d	n/a
174.056	0.09	348112	keystroke_Key.space	Key.space	n/a
174.221	0.15	348442	keystroke_c	c	n/a
174.311	0.15	348622	keystroke_a	a	n/a
174.491	0.1045	348982	keystroke_p	p	n/a
174.6555	0.09	349311	keystroke_t	t	n/a
174.7605	0.076	349521	keystroke_u	u	n/a
174.8515	0.105	349703	keystroke_r	r	n/a
174.8805	0.09	349761	keystroke_e	e	n/a
175.061	0.105	350122	keystroke_d	d	n/a
175.196	0.075	350392	keystroke_Key.space	Key.space	n/a
175.316	0.105	350632	keystroke_c	c	n/a
175.406	0.105	350812	keystroke_o	o	n/a
175.451	0.105	350902	keystroke_n	n	n/a
175.586	0.12	351172	keystroke_c	c	n/a
175.9605	0.09	351921	keystroke_o	o	n/a
176.0805	0.105	352161	keystroke_r	r	n/a
176.2905	0.09	352581	keystroke_d	d	n/a
176.5155	0.075	353031	keystroke_Key.space	Key.space	n/a
176.816	0.09	353632	keystroke_p	p	n/a
176.981	0.105	353962	keystroke_o	o	n/a
177.176	0.09	354352	keystroke_i	i	n/a
177.206	0.105	354412	keystroke_n	n	n/a
177.311	0.09	354622	keystroke_t	t	n/a
177.386	0.165	354772	keystroke_e	e	n/a
177.491	0.12	354982	keystroke_r	r	n/a
178.0905	0.0905	356181	keystroke_Key.enter	Key.enter	n/a
178.186	8.4715	356372	prompt	n/a	helps effectively giving prescription\n
178.9455	0.06	357891	keystroke_h	h	n/a
179.0205	0.15	358041	keystroke_e	e	n/a
179.1105	0.075	358221	keystroke_l	l	n/a
179.2305	0.09	358461	keystroke_p	p	n/a
179.3215	0.104	358643	keystroke_s	s	n/a
179.4255	0.09	358851	keystroke_Key.space	Key.space	n/a
179.5605	0.0905	359121	keystroke_e	e	n/a
179.711	0.06	359422	keystroke_f	f	n/a
179.816	0.135	359632	keystroke_f	f	n/a
179.966	0.09	359932	keystroke_e	e	n/a
180.071	0.12	360142	keystroke_c	c	n/a
180.281	0.075	360562	keystroke_r	r	n/a
180.296	0.045	360592	keystroke_t	t	n/a
180.371	0.0745	360742	keystroke_i	i	n/a
180.7455	0.06	361491	keystroke_Key.backspace	Key.backspace	n/a
180.8655	0.0755	361731	keystroke_Key.backspace	Key.backspace	n/a
180.986	0.12	361972	keystroke_Key.backspace	Key.backspace	n/a
181.121	0.105	362242	keystroke_t	t	n/a
181.241	0.1055	362482	keystroke_i	i	n/a
181.331	0.1195	362662	keystroke_v	v	n/a
181.3905	0.15	362781	keystroke_e	e	n/a
181.5715	0.089	363143	keystroke_l	l	n/a
181.7665	0.074	363533	keystroke_y	y	n/a
182.1555	0.0905	364311	keystroke_Key.space	Key.space	n/a
182.396	0.09	364792	keystroke_g	g	n/a
182.516	0.0745	365032	keystroke_i	i	n/a
182.6055	0.105	365211	keystroke_v	v	n/a
182.6655	0.12	365331	keystroke_i	i	n/a
182.7255	0.09	365451	keystroke_n	n	n/a
182.8165	0.074	365633	keystroke_g	g	n/a
182.9205	0.09	365841	keystroke_Key.space	Key.space	n/a
183.1155	0.09	366231	keystroke_t	t	n/a
183.1605	0.06	366321	keystroke_h	h	n/a
183.5355	0.075	367071	keystroke_Key.backspace	Key.backspace	n/a
183.6705	0.075	367341	keystroke_Key.backspace	Key.backspace	n/a
184.001	0.075	368002	keystroke_p	p	n/a
184.136	0.135	368272	keystroke_r	r	n/a
184.196	0.09	368392	keystroke_e	e	n/a
184.421	0.12	368842	keystroke_s	s	n/a
184.526	0.12	369052	keystroke_c	c	n/a
184.661	0.075	369322	keystroke_r	r	n/a
185.2915	0.09	370583	keystroke_i	i	n/a
185.5015	0.075	371003	keystroke_p	p	n/a
185.5905	0.091	371181	keystroke_t	t	n/a
185.6965	0.075	371393	keystroke_i	i	n/a
185.8015	0.1045	371603	keystroke_o	o	n/a
185.846	0.105	371692	keystroke_n	n	n/a
186.566	0.09	373132	keystroke_Key.enter	Key.enter	n/a
186.66	13.332	373320	prompt	n/a	philadelphia trackback researcher activation\n
187.301	0.09	374602	keystroke_p	p	n/a
187.481	0.09	374962	keystroke_h	h	n/a
187.646	0.135	375292	keystroke_a	a	n/a
188.0355	0.09	376071	keystroke_Key.backspace	Key.backspace	n/a
188.2315	0.075	376463	keystroke_i	i	n/a
188.3815	0.09	376763	keystroke_l	l	n/a
188.4405	0.12	376881	keystroke_a	a	n/a
188.7105	0.076	377421	keystroke_d	d	n/a
188.8605	0.091	377721	keystroke_e	e	n/a
189.0865	0.075	378173	keystroke_l	l	n/a
189.2515	0.09	378503	keystroke_p	p	n/a
189.4155	0.105	378831	keystroke_h	h	n/a
189.5055	0.09	379011	keystroke_i	i	n/a
189.6115	0.12	379223	keystroke_a	a	n/a
190.2255	0.09	380451	keystroke_Key.space	Key.space	n/a
190.4805	0.15	380961	keystroke_t	t	n/a
190.5565	0.119	381113	keystroke_r	r	n/a
193.5435	0.042	387087	keystroke_a	a	n/a
193.6155	0.135	387231	keystroke_c	c	n/a
193.7655	0.09	387531	keystroke_k	k	n/a
194.0655	0.075	388131	keystroke_b	b	n/a
194.2305	0.12	388461	keystroke_a	a	n/a
194.3065	0.149	388613	keystroke_c	c	n/a
194.4405	0.0755	388881	keystroke_k	k	n/a
194.591	0.1045	389182	keystroke_Key.space	Key.space	n/a
194.8755	0.09	389751	keystroke_t	t	n/a
194.9055	0.12	389811	keystroke_r	r	n/a
195.326	0.06	390652	keystroke_Key.backspace	Key.backspace	n/a
195.461	0.075	390922	keystroke_Key.backspace	Key.backspace	n/a
195.491	0.15	390982	keystroke_r	r	n/a
195.566	0.09	391132	keystroke_e	e	n/a
195.806	0.12	391612	keystroke_s	s	n/a
195.971	0.135	391942	keystroke_e	e	n/a
196.121	0.105	392242	keystroke_a	a	n/a
196.151	0.135	392302	keystroke_r	r	n/a
196.481	0.0895	392962	keystroke_c	c	n/a
196.631	0.075	393262	keystroke_h	h	n/a
196.751	0.15	393502	keystroke_e	e	n/a
196.841	0.135	393682	keystroke_r	r	n/a
197.2605	0.09	394521	keystroke_Key.space	Key.space	n/a
197.8305	0.105	395661	keystroke_a	a	n/a
197.9955	0.105	395991	keystroke_c	c	n/a
198.2055	0.09	396411	keystroke_t	t	n/a
198.3255	0.09	396651	keystroke_i	i	n/a
198.6255	0.09	397251	keystroke_v	v	n/a
198.8505	0.09	397701	keystroke_a	a	n/a
199.0305	0.075	398061	keystroke_t	t	n/a
199.0905	0.075	398181	keystroke_i	i	n/a
199.2255	0.09	398451	keystroke_o	o	n/a
199.2705	0.075	398541	keystroke_n	n	n/a
199.916	0.075	399832	keystroke_Key.enter	Key.enter	n/a
199.9965	6.5205	399993	prompt	n/a	user relationships avoid birth\n
200.7255	0.06	401451	keystroke_u	u	n/a
200.8155	0.075	401631	keystroke_s	s	n/a
200.9805	0.105	401961	keystroke_e	e	n/a
201.0105	0.12	402021	keystroke_r	r	n/a
201.1005	0.105	402201	keystroke_Key.space	Key.space	n/a
201.2205	0.1205	402441	keystroke_r	r	n/a
201.2505	0.1205	402501	keystroke_e	e	n/a
201.416	0.09	402832	keystroke_l	l	n/a
201.611	0.105	403222	keystroke_a	a	n/a
201.746	0.105	403492	keystroke_t	t	n/a
201.806	0.075	403612	keystroke_i	i	n/a
201.926	0.075	403852	keystroke_o	o	n/a
201.941	0.12	403882	keystroke_n	n	n/a
202.046	0.0895	404092	keystroke_s	s	n/a
202.2255	0.09	404451	keystroke_h	h	n/a
202.3005	0.09	404601	keystroke_i	i	n/a
202.5105	0.09	405021	keystroke_p	p	n/a
202.6305	0.12	405261	keystroke_s	s	n/a
202.9455	0.09	405891	keystroke_Key.space	Key.space	n/a
203.0805	0.09	406161	keystroke_a	a	n/a
203.2605	0.12	406521	keystroke_v	v	n/a
203.3655	0.075	406731	keystroke_o	o	n/a
203.5005	0.09	407001	keystroke_i	i	n/a
203.5605	0.09	407121	keystroke_d	d	n/a
203.6805	0.09	407361	keystroke_Key.space	Key.space	n/a
203.8455	0.075	407691	keystroke_b	b	n/a
203.9055	0.075	407811	keystroke_i	i	n/a
204.0255	0.0905	408051	keystroke_r	r	n/a
204.206	0.12	408412	keystroke_t	t	n/a
204.266	0.105	408532	keystroke_h	h	n/a
206.503	0.013	413006	keystroke_Key.enter	Key.enter	n/a
206.521	11.486	413042	prompt	n/a	quizzes elder tomatoes replied\n
207.3105	0.03	414621	keystroke_q	q	n/a
207.3705	0.06	414741	keystroke_u	u	n/a
207.7155	0.075	415431	keystroke_i	i	n/a
208.1805	0.06	416361	keystroke_z	z	n/a
208.6155	0.1205	417231	keystroke_z	z	n/a
208.886	0.09	417772	keystroke_e	e	n/a
209.051	0.105	418102	keystroke_s	s	n/a
209.216	0.105	418432	keystroke_Key.space	Key.space	n/a
209.471	0.075	418942	keystroke_e	e	n/a
209.561	0.075	419122	keystroke_l	l	n/a
209.651	0.075	419302	keystroke_d	d	n/a
209.771	0.105	419542	keystroke_e	e	n/a
209.831	0.135	419662	keystroke_r	r	n/a
209.966	0.089	419932	keystroke_Key.space	Key.space	n/a
210.101	0.075	420202	keystroke_t	t	n/a
210.161	0.12	420322	keystroke_e	e	n/a
210.506	0.09	421012	keystroke_Key.backspace	Key.backspace	n/a
210.686	0.105	421372	keystroke_o	o	n/a
210.746	0.09	421492	keystroke_m	m	n/a
210.896	0.1195	421792	keystroke_a	a	n/a
211.3305	0.105	422661	keystroke_t	t	n/a
211.4505	0.075	422901	keystroke_o	o	n/a
211.5705	0.105	423141	keystroke_e	e	n/a
211.7805	0.09	423561	keystroke_s	s	n/a
211.8555	0.075	423711	keystroke_Key.space	Key.space	n/a
211.9755	0.105	423951	keystroke_r	r	n/a
212.0355	0.09	424071	keystroke_e	e	n/a
212.1265	0.1195	424253	keystroke_p	p	n/a
212.1855	0.0905	424371	keystroke_l	l	n/a
212.396	0.075	424792	keystroke_i	i	n/a
212.486	0.1195	424972	keystroke_d	d	n/a
214.5705	0.06	429141	keystroke_Key.backspace	Key.backspace	n/a
214.6905	0.075	429381	keystroke_Key.backspace	Key.backspace	n/a
215.276	0.075	430552	keystroke_i	i	n/a
215.456	0.075	430912	keystroke_e	e	n/a
215.741	0.06	431482	keystroke_Key.backspace	Key.backspace	n/a
216.266	0.075	432532	keystroke_e	e	n/a
216.431	0.09	432862	keystroke_d	d	n/a
217.916	0.09	435832	keystroke_Key.enter	Key.enter	n/a
218.011	10.2265	436022	prompt	n/a	strengths courier relocation revenge\n
218.546	0.12	437092	keystroke_s	s	n/a
218.696	0.105	437392	keystroke_t	t	n/a
218.756	0.105	437512	keystroke_r	r	n/a
218.876	0.09	437752	keystroke_n	n	n/a
218.981	0.1045	437962	keystroke_g	g	n/a
219.0705	0.105	438141	keystroke_e	e	n/a
219.4605	0.075	438921	keystroke_Key.backspace	Key.backspace	n/a
219.6105	0.06	439221	keystroke_Key.backspace	Key.backspace	n/a
219.7305	0.105	439461	keystroke_Key.backspace	Key.backspace	n/a
219.8505	0.12	439701	keystroke_e	e	n/a
219.9855	0.09	439971	keystroke_n	n	n/a
220.0905	0.09	440181	keystroke_g	g	n/a
220.2105	0.135	440421	keystroke_t	t	n/a
220.3005	0.105	440601	keystroke_h	h	n/a
220.5705	0.105	441141	keystroke_s	s	n/a
220.9605	0.075	441921	keystroke_Key.space	Key.space	n/a
221.0805	0.1205	442161	keystroke_c	c	n/a
221.216	0.09	442432	keystroke_o	o	n/a
221.426	0.075	442852	keystroke_u	u	n/a
221.606	0.09	443212	keystroke_r	r	n/a
222.055	0.031	444110	keystroke_i	i	n/a
222.086	0.135	444172	keystroke_e	e	n/a
222.161	0.135	444322	keystroke_r	r	n/a
222.28	0.075	444560	keystroke_Key.space	Key.space	n/a
222.581	0.089	445162	keystroke_r	r	n/a
222.61	0.106	445220	keystroke_e	e	n/a
222.865	0.075	445730	keystroke_l	l	n/a
222.97	0.121	445940	keystroke_c	c	n/a
223.03	0.09	446060	keystroke_a	a	n/a
223.2405	0.09	446481	keystroke_t	t	n/a
223.6905	0.075	447381	keystroke_Key.backspace	Key.backspace	n/a
223.8405	0.06	447681	keystroke_Key.backspace	Key.backspace	n/a
223.9605	0.09	447921	keystroke_Key.backspace	Key.backspace	n/a
224.1405	0.075	448281	keystroke_o	o	n/a
224.1855	0.12	448371	keystroke_c	c	n/a
224.2455	0.105	448491	keystroke_a	a	n/a
224.4105	0.105	448821	keystroke_t	t	n/a
224.5005	0.06	449001	keystroke_i	i	n/a
224.6055	0.09	449211	keystroke_o	o	n/a
224.6505	0.09	449301	keystroke_n	n	n/a
224.8155	0.105	449631	keystroke_Key.space	Key.space	n/a
225.1005	0.105	450201	keystroke_e	e	n/a
225.5505	0.075	451101	keystroke_Key.backspace	Key.backspace	n/a
225.6105	0.1205	451221	keystroke_r	r	n/a
225.6705	0.1045	451341	keystroke_e	e	n/a
225.866	0.089	451732	keystroke_v	v	n/a
225.911	0.119	451822	keystroke_e	e	n/a
226.181	0.074	452362	keystroke_n	n	n/a
226.315	0.061	452630	keystroke_e	e	n/a
226.346	0.12	452692	keystroke_g	g	n/a
226.451	0.089	452902	keystroke_e	e	n/a
227.1255	0.06	454251	keystroke_Key.backspace	Key.backspace	n/a
227.2755	0.045	454551	keystroke_Key.backspace	Key.backspace	n/a
227.3805	0.09	454761	keystroke_Key.backspace	Key.backspace	n/a
227.4555	0.105	454911	keystroke_g	g	n/a
227.5155	0.12	455031	keystroke_e	e	n/a
228.1605	0.075	456321	keystroke_Key.enter	Key.enter	n/a
228.2405	12.327	456481	prompt	n/a	i'll podcast restaurants belarus\n
228.9405	0.075	457881	keystroke_i	i	n/a
229.2255	0.105	458451	keystroke_'	'	n/a
229.5705	0.0755	459141	keystroke_l	l	n/a
229.706	0.105	459412	keystroke_l	l	n/a
229.916	0.0745	459832	keystroke_Key.space	Key.space	n/a
230.1405	0.015	460281	keystroke_p	p	n/a
230.2155	0.06	460431	keystroke_r	r	n/a
230.6205	0.06	461241	keystroke_Key.backspace	Key.backspace	n/a
230.7715	0.089	461543	keystroke_o	o	n/a
230.8455	0.075	461691	keystroke_d	d	n/a
231.1755	0.105	462351	keystroke_c	c	n/a
231.3555	0.135	462711	keystroke_a	a	n/a
231.4455	0.135	462891	keystroke_s	s	n/a
231.5505	0.105	463101	keystroke_t	t	n/a
231.7605	0.0905	463521	keystroke_Key.space	Key.space	n/a
233.096	0.135	466192	keystroke_r	r	n/a
233.156	0.12	466312	keystroke_e	e	n/a
233.366	0.165	466732	keystroke_s	s	n/a
233.501	0.105	467002	keystroke_t	t	n/a
233.636	0.09	467272	keystroke_a	a	n/a
233.891	0.105	467782	keystroke_u	u	n/a
234.026	0.135	468052	keystroke_r	r	n/a
234.116	0.105	468232	keystroke_a	a	n/a
234.176	0.075	468352	keystroke_n	n	n/a
234.281	0.09	468562	keystroke_t	t	n/a
234.416	0.1195	468832	keystroke_s	s	n/a
234.8955	0.09	469791	keystroke_Key.space	Key.space	n/a
235.1955	0.06	470391	keystroke_b	b	n/a
235.3755	0.075	470751	keystroke_e	e	n/a
235.4955	0.075	470991	keystroke_l	l	n/a
235.6455	0.105	471291	keystroke_a	a	n/a
236.051	0.075	472102	keystroke_r	r	n/a
236.141	0.075	472282	keystroke_u	u	n/a
236.246	0.105	472492	keystroke_s	s	n/a
240.553	0.013	481106	keystroke_Key.enter	Key.enter	n/a
240.571	8.9065	481142	prompt	n/a	majority argument cole bacterial\n
241.1955	0.105	482391	keystroke_m	m	n/a
241.3155	0.09	482631	keystroke_a	a	n/a
241.4955	0.075	482991	keystroke_j	j	n/a
241.9005	0.045	483801	keystroke_o	o	n/a
241.9755	0.09	483951	keystroke_r	r	n/a
242.0805	0.075	484161	keystroke_i	i	n/a
242.2155	0.09	484431	keystroke_t	t	n/a
242.3955	0.075	484791	keystroke_y	y	n/a
242.6805	0.09	485361	keystroke_Key.space	Key.space	n/a
242.9505	0.06	485901	keystroke_e	e	n/a
243.19	0.075	486380	keystroke_Key.backspace	Key.backspace	n/a
243.296	0.0595	486592	keystroke_a	a	n/a
243.311	0.1345	486622	keystroke_r	r	n/a
243.6255	0.105	487251	keystroke_g	g	n/a
243.821	0.0745	487642	keystroke_u	u	n/a
244.0455	0.091	488091	keystroke_m	m	n/a
244.1365	0.104	488273	keystroke_e	e	n/a
244.2255	0.075	488451	keystroke_n	n	n/a
244.3155	0.09	488631	keystroke_t	t	n/a
244.4205	0.09	488841	keystroke_Key.space	Key.space	n/a
244.6155	0.105	489231	keystroke_c	c	n/a
244.6905	0.06	489381	keystroke_o	o	n/a
244.8255	0.075	489651	keystroke_l	l	n/a
244.9015	0.104	489803	keystroke_e	e	n/a
245.0205	0.075	490041	keystroke_Key.space	Key.space	n/a
245.666	0.075	491332	keystroke_b	b	n/a
245.846	0.15	491692	keystroke_a	a	n/a
246.3405	0.105	492681	keystroke_c	c	n/a
246.6705	0.09	493341	keystroke_t	t	n/a
246.851	0.15	493702	keystroke_e	e	n/a
246.926	0.15	493852	keystroke_r	r	n/a
247.511	0.075	495022	keystroke_i	i	n/a
247.616	0.105	495232	keystroke_a	a	n/a
247.751	0.075	495502	keystroke_l	l	n/a
249.386	0.09	498772	keystroke_Key.enter	Key.enter	n/a
249.4805	4.602	498961	prompt	n/a	letters told jeep time\n
250.151	0.075	500302	keystroke_l	l	n/a
250.196	0.1645	500392	keystroke_e	e	n/a
250.3755	0.06	500751	keystroke_t	t	n/a
250.4955	0.09	500991	keystroke_t	t	n/a
250.6155	0.15	501231	keystroke_e	e	n/a
250.7055	0.09	501411	keystroke_r	r	n/a
250.8705	0.105	501741	keystroke_s	s	n/a
251.0055	0.075	502011	keystroke_Key.space	Key.space	n/a
251.1105	0.1205	502221	keystroke_t	t	n/a
251.186	0.075	502372	keystroke_o	o	n/a
251.321	0.1045	502642	keystroke_l	l	n/a
251.3805	0.075	502761	keystroke_d	d	n/a
251.4855	0.09	502971	keystroke_Key.space	Key.space	n/a
251.7705	0.075	503541	keystroke_j	j	n/a
251.8905	0.06	503781	keystroke_e	e	n/a
252.0105	0.09	504021	keystroke_e	e	n/a
252.1155	0.075	504231	keystroke_p	p	n/a
252.2505	0.09	504501	keystroke_Key.space	Key.space	n/a
252.3255	0.105	504651	keystroke_t	t	n/a
252.4155	0.075	504831	keystroke_i	i	n/a
252.4455	0.09	504891	keystroke_m	m	n/a
252.5055	0.105	505011	keystroke_e	e	n/a
254.006	0.075	508012	keystroke_Key.enter	Key.enter	n/a
254.0865	10.781	508173	prompt	n/a	continued antonio cradle fundraising\n
254.7255	0.1055	509451	keystroke_c	c	n/a
254.816	0.105	509632	keystroke_o	o	n/a
254.891	0.09	509782	keystroke_n	n	n/a
255.041	0.105	510082	keystroke_t	t	n/a
255.131	0.105	510262	keystroke_i	i	n/a
255.206	0.09	510412	keystroke_n	n	n/a
255.341	0.06	510682	keystroke_u	u	n/a
255.431	0.12	510862	keystroke_e	e	n/a
255.626	0.12	511252	keystroke_d	d	n/a
255.776	0.09	511552	keystroke_Key.space	Key.space	n/a
256.061	0.075	512122	keystroke_a	a	n/a
256.1505	0.0605	512301	keystroke_n	n	n/a
256.616	0.045	513232	keystroke_o	o	n/a
256.871	0.09	513742	keystroke_Key.backspace	Key.backspace	n/a
256.976	0.09	513952	keystroke_t	t	n/a
257.096	0.12	514192	keystroke_o	o	n/a
257.186	0.104	514372	keystroke_n	n	n/a
257.606	0.03	515212	keystroke_i	i	n/a
257.711	0.075	515422	keystroke_o	o	n/a
257.8755	0.09	515751	keystroke_Key.space	Key.space	n/a
258.1155	0.12	516231	keystroke_c	c	n/a
258.55	0.1055	517100	keystroke_r	r	n/a
258.7905	0.09	517581	keystroke_a	a	n/a
259.4655	0.075	518931	keystroke_d	d	n/a
259.5705	0.075	519141	keystroke_l	l	n/a
259.6605	0.06	519321	keystroke_e	e	n/a
261.1755	0.09	522351	keystroke_Key.space	Key.space	n/a
261.986	0.12	523972	keystroke_f	f	n/a
262.211	0.105	524422	keystroke_u	u	n/a
262.256	0.105	524512	keystroke_n	n	n/a
262.346	0.09	524692	keystroke_d	d	n/a
263.156	0.105	526312	keystroke_r	r	n/a
263.201	0.15	526402	keystroke_a	a	n/a
263.456	0.075	526912	keystroke_i	i	n/a
263.546	0.105	527092	keystroke_s	s	n/a
263.636	0.105	527272	keystroke_i	i	n/a
263.696	0.09	527392	keystroke_n	n	n/a
263.786	0.0745	527572	keystroke_g	g	n/a
264.791	0.0745	529582	keystroke_Key.enter	Key.enter	n/a
264.8735	4.1335	529747	prompt	n/a	volt accepting pads moms\n
265.5855	0.105	531171	keystroke_v	v	n/a
265.6455	0.06	531291	keystroke_o	o	n/a
265.7805	0.1055	531561	keystroke_l	l	n/a
265.871	0.075	531742	keystroke_t	t	n/a
266.126	0.09	532252	keystroke_Key.space	Key.space	n/a
266.276	0.075	532552	keystroke_a	a	n/a
266.456	0.045	532912	keystroke_c	c	n/a
266.561	0.09	533122	keystroke_c	c	n/a
266.666	0.1045	533332	keystroke_e	e	n/a
266.8005	0.09	533601	keystroke_p	p	n/a
266.9055	0.075	533811	keystroke_t	t	n/a
266.9955	0.1055	533991	keystroke_i	i	n/a
267.026	0.105	534052	keystroke_n	n	n/a
267.116	0.0745	534232	keystroke_g	g	n/a
267.2355	0.105	534471	keystroke_Key.space	Key.space	n/a
267.521	0.09	535042	keystroke_p	p	n/a
267.626	0.12	535252	keystroke_a	a	n/a
267.791	0.12	535582	keystroke_d	d	n/a
267.896	0.12	535792	keystroke_s	s	n/a
268.046	0.09	536092	keystroke_Key.space	Key.space	n/a
268.226	0.105	536452	keystroke_m	m	n/a
268.301	0.15	536602	keystroke_o	o	n/a
268.391	0.105	536782	keystroke_m	m	n/a
268.586	0.075	537172	keystroke_s	s	n/a
268.931	0.074	537862	keystroke_Key.enter	Key.enter	n/a
269.01	6.117	538020	prompt	n/a	regardless spent heaven radios\n
270.026	0.12	540052	keystroke_r	r	n/a
270.101	0.135	540202	keystroke_e	e	n/a
270.34	0.12	540680	keystroke_g	g	n/a
270.475	0.091	540950	keystroke_a	a	n/a
270.596	0.09	541192	keystroke_r	r	n/a
270.776	0.105	541552	keystroke_d	d	n/a
270.896	0.09	541792	keystroke_l	l	n/a
271.046	0.045	542092	keystroke_e	e	n/a
271.301	0.09	542602	keystroke_s	s	n/a
271.481	0.09	542962	keystroke_s	s	n/a
271.631	0.075	543262	keystroke_Key.space	Key.space	n/a
271.886	0.105	543772	keystroke_s	s	n/a
271.976	0.09	543952	keystroke_p	p	n/a
272.081	0.06	544162	keystroke_e	e	n/a
272.156	0.0745	544312	keystroke_n	n	n/a
272.2455	0.0905	544491	keystroke_t	t	n/a
272.336	0.075	544672	keystroke_Key.space	Key.space	n/a
272.516	0.0745	545032	keystroke_h	h	n/a
272.6055	0.09	545211	keystroke_e	e	n/a
272.7705	0.09	545541	keystroke_a	a	n/a
272.9505	0.075	545901	keystroke_v	v	n/a
272.9805	0.105	545961	keystroke_e	e	n/a
273.2655	0.075	546531	keystroke_n	n	n/a
273.4605	0.09	546921	keystroke_Key.space	Key.space	n/a
273.731	0.0745	547462	keystroke_r	r	n/a
273.836	0.12	547672	keystroke_a	a	n/a
273.986	0.09	547972	keystroke_d	d	n/a
274.136	0.09	548272	keystroke_i	i	n/a
274.301	0.075	548602	keystroke_o	o	n/a
274.376	0.105	548752	keystroke_s	s	n/a
275.0505	0.075	550101	keystroke_Key.enter	Key.enter	n/a
275.1305	10.722	550261	prompt	n/a	piece unsigned tricks divided\n
275.7555	0.0605	551511	keystroke_o	o	n/a
276.2505	0.09	552501	keystroke_Key.backspace	Key.backspace	n/a
276.4155	0.12	552831	keystroke_p	p	n/a
276.6405	0.09	553281	keystroke_i	i	n/a
276.7605	0.09	553521	keystroke_e	e	n/a
276.9405	0.12	553881	keystroke_e	e	n/a
277.3305	0.1055	554661	keystroke_Key.backspace	Key.backspace	n/a
277.421	0.105	554842	keystroke_c	c	n/a
277.481	0.105	554962	keystroke_e	e	n/a
277.781	0.1045	555562	keystroke_Key.space	Key.space	n/a
278.2605	0.075	556521	keystroke_u	u	n/a
278.2905	0.12	556581	keystroke_n	n	n/a
278.4555	0.09	556911	keystroke_s	s	n/a
278.5305	0.09	557061	keystroke_i	i	n/a
278.6655	0.09	557331	keystroke_g	g	n/a
279.026	0.075	558052	keystroke_n	n	n/a
279.146	0.09	558292	keystroke_e	e	n/a
279.311	0.09	558622	keystroke_d	d	n/a
279.416	0.09	558832	keystroke_Key.space	Key.space	n/a
279.566	0.15	559132	keystroke_t	t	n/a
279.686	0.09	559372	keystroke_r	r	n/a
279.8355	0.09	559671	keystroke_i	i	n/a
279.9405	0.09	559881	keystroke_c	c	n/a
280.0455	0.0605	560091	keystroke_k	k	n/a
280.166	0.045	560332	keystroke_e	e	n/a
280.526	0.075	561052	keystroke_Key.backspace	Key.backspace	n/a
280.616	0.09	561232	keystroke_s	s	n/a
280.766	0.09	561532	keystroke_Key.space	Key.space	n/a
281.006	0.09	562012	keystroke_d	d	n/a
281.1555	0.09	562311	keystroke_i	i	n/a
281.5005	0.075	563001	keystroke_v	v	n/a
281.5905	0.075	563181	keystroke_i	i	n/a
281.7405	0.09	563481	keystroke_d	d	n/a
281.9055	0.09	563811	keystroke_e	e	n/a
281.9955	0.06	563991	keystroke_n	n	n/a
283.1055	0.0895	566211	keystroke_d	d	n/a
284.8305	0.075	569661	keystroke_Key.backspace	Key.backspace	n/a
284.9805	0.075	569961	keystroke_Key.backspace	Key.backspace	n/a
285.3855	0.075	570771	keystroke_d	d	n/a
285.7755	0.075	571551	keystroke_Key.enter	Key.enter	n/a
285.855	5.802	571710	prompt	n/a	abstract nova deemed cleanup\n
286.826	0.12	573652	keystroke_a	a	n/a
287.021	0.075	574042	keystroke_b	b	n/a
287.171	0.105	574342	keystroke_s	s	n/a
287.291	0.105	574582	keystroke_t	t	n/a
287.336	0.075	574672	keystroke_r	r	n/a
287.501	0.12	575002	keystroke_a	a	n/a
287.576	0.12	575152	keystroke_c	c	n/a
287.756	0.09	575512	keystroke_t	t	n/a
287.891	0.06	575782	keystroke_Key.space	Key.space	n/a
288.041	0.12	576082	keystroke_n	n	n/a
288.101	0.105	576202	keystroke_o	o	n/a
288.341	0.09	576682	keystroke_a	a	n/a
288.5955	0.075	577191	keystroke_Key.backspace	Key.backspace	n/a
288.6555	0.12	577311	keystroke_v	v	n/a
288.7455	0.135	577491	keystroke_a	a	n/a
288.9255	0.09	577851	keystroke_Key.space	Key.space	n/a
289.3165	0.089	578633	keystroke_d	d	n/a
289.5705	0.015	579141	keystroke_e	e	n/a
289.6455	0.075	579291	keystroke_e	e	n/a
289.7355	0.0755	579471	keystroke_m	m	n/a
289.811	0.075	579622	keystroke_e	e	n/a
289.961	0.105	579922	keystroke_d	d	n/a
290.126	0.09	580252	keystroke_Key.space	Key.space	n/a
290.396	0.1045	580792	keystroke_c	c	n/a
290.5155	0.075	581031	keystroke_l	l	n/a
290.5755	0.075	581151	keystroke_e	e	n/a
290.6205	0.135	581241	keystroke_a	a	n/a
290.7705	0.09	581541	keystroke_n	n	n/a
290.9805	0.09	581961	keystroke_u	u	n/a
291.2055	0.075	582411	keystroke_p	p	n/a
291.566	0.09	583132	keystroke_Key.enter	Key.enter	n/a
291.66	5.997	583320	prompt	n/a	coffee pricing computers procurement\n
292.271	0.105	584542	keystroke_c	c	n/a
292.391	0.075	584782	keystroke_o	o	n/a
292.511	0.09	585022	keystroke_f	f	n/a
292.661	0.075	585322	keystroke_f	f	n/a
292.796	0.075	585592	keystroke_e	e	n/a
292.931	0.09	585862	keystroke_e	e	n/a
293.0655	0.0905	586131	keystroke_Key.space	Key.space	n/a
293.261	0.09	586522	keystroke_p	p	n/a
293.366	0.06	586732	keystroke_r	r	n/a
293.456	0.075	586912	keystroke_i	i	n/a
293.531	0.09	587062	keystroke_c	c	n/a
293.591	0.09	587182	keystroke_i	i	n/a
293.621	0.12	587242	keystroke_n	n	n/a
293.726	0.075	587452	keystroke_g	g	n/a
293.831	0.09	587662	keystroke_Key.space	Key.space	n/a
294.2655	0.12	588531	keystroke_c	c	n/a
294.3255	0.09	588651	keystroke_o	o	n/a
294.3555	0.09	588711	keystroke_m	m	n/a
294.521	0.075	589042	keystroke_p	p	n/a
294.671	0.09	589342	keystroke_u	u	n/a
294.746	0.105	589492	keystroke_t	t	n/a
294.911	0.165	589822	keystroke_e	e	n/a
295.001	0.06	590002	keystroke_r	r	n/a
295.5705	0.075	591141	keystroke_s	s	n/a
295.6755	0.075	591351	keystroke_Key.space	Key.space	n/a
295.9155	0.09	591831	keystroke_p	p	n/a
296.0355	0.09	592071	keystroke_r	r	n/a
296.1255	0.075	592251	keystroke_o	o	n/a
296.2455	0.105	592491	keystroke_c	c	n/a
296.3655	0.06	592731	keystroke_u	u	n/a
296.576	0.12	593152	keystroke_r	r	n/a
296.681	0.045	593362	keystroke_e	e	n/a
296.696	0.0895	593392	keystroke_m	m	n/a
296.8005	0.0905	593601	keystroke_e	e	n/a
296.8755	0.09	593751	keystroke_n	n	n/a
296.9805	0.09	593961	keystroke_t	t	n/a
297.581	0.075	595162	keystroke_Key.enter	Key.enter	n/a
297.6625	5.845	595325	prompt	n/a	annotation assure streets zone\n
298.271	0.12	596542	keystroke_a	a	n/a
298.406	0.06	596812	keystroke_n	n	n/a
298.5255	0.075	597051	keystroke_n	n	n/a
298.6305	0.12	597261	keystroke_o	o	n/a
299.0355	0.09	598071	keystroke_t	t	n/a
299.2305	0.09	598461	keystroke_a	a	n/a
299.3505	0.105	598701	keystroke_t	t	n/a
299.4405	0.09	598881	keystroke_i	i	n/a
299.5755	0.09	599151	keystroke_o	o	n/a
299.6205	0.09	599241	keystroke_n	n	n/a
299.9505	0.075	599901	keystroke_Key.space	Key.space	n/a
300.1455	0.075	600291	keystroke_a	a	n/a
300.2955	0.075	600591	keystroke_s	s	n/a
300.4155	0.105	600831	keystroke_s	s	n/a
300.5355	0.075	601071	keystroke_u	u	n/a
300.6255	0.105	601251	keystroke_r	r	n/a
300.6855	0.09	601371	keystroke_e	e	n/a
300.9405	0.09	601881	keystroke_Key.space	Key.space	n/a
301.1505	0.135	602301	keystroke_s	s	n/a
301.2705	0.09	602541	keystroke_t	t	n/a
301.4355	0.12	602871	keystroke_r	r	n/a
301.5405	0.09	603081	keystroke_e	e	n/a
301.6905	0.09	603381	keystroke_e	e	n/a
301.8555	0.09	603711	keystroke_t	t	n/a
302.0055	0.135	604011	keystroke_s	s	n/a
302.246	0.09	604492	keystroke_Key.space	Key.space	n/a
302.741	0.1205	605482	keystroke_z	z	n/a
302.876	0.09	605752	keystroke_o	o	n/a
302.921	0.09	605842	keystroke_n	n	n/a
302.995	0.061	605990	keystroke_e	e	n/a
303.416	0.089	606832	keystroke_Key.enter	Key.enter	n/a
303.5105	11.007	607021	prompt	n/a	structural this's portsmouth juan\n
304.0305	0.105	608061	keystroke_s	s	n/a
304.1655	0.105	608331	keystroke_t	t	n/a
304.2255	0.075	608451	keystroke_r	r	n/a
304.6905	0.045	609381	keystroke_u	u	n/a
304.7655	0.105	609531	keystroke_c	c	n/a
305.0055	0.09	610011	keystroke_t	t	n/a
305.1855	0.06	610371	keystroke_u	u	n/a
305.3055	0.09	610611	keystroke_r	r	n/a
305.4855	0.135	610971	keystroke_a	a	n/a
305.6355	0.0755	611271	keystroke_l	l	n/a
305.831	0.0745	611662	keystroke_Key.space	Key.space	n/a
306.056	0.1195	612112	keystroke_t	t	n/a
306.1155	0.105	612231	keystroke_h	h	n/a
306.2355	0.06	612471	keystroke_i	i	n/a
306.401	0.105	612802	keystroke_s	s	n/a
306.926	0.09	613852	keystroke_'	'	n/a
307.046	0.1195	614092	keystroke_s	s	n/a
307.6005	0.09	615201	keystroke_Key.space	Key.space	n/a
307.8405	0.09	615681	keystroke_p	p	n/a
307.9905	0.09	615981	keystroke_o	o	n/a
308.0655	0.12	616131	keystroke_r	r	n/a
308.1405	0.09	616281	keystroke_t	t	n/a
308.3355	0.105	616671	keystroke_s	s	n/a
308.5905	0.105	617181	keystroke_m	m	n/a
308.8605	0.075	617721	keystroke_o	o	n/a
309.0255	0.075	618051	keystroke_u	u	n/a
309.1455	0.12	618291	keystroke_t	t	n/a
309.2055	0.12	618411	keystroke_h	h	n/a
309.6255	0.105	619251	keystroke_Key.space	Key.space	n/a
309.8055	0.075	619611	keystroke_j	j	n/a
309.955	0.09	619910	keystroke_u	u	n/a
310.031	0.105	620062	keystroke_a	a	n/a
310.165	0.076	620330	keystroke_n	n	n/a
314.4875	0.028	628975	keystroke_Key.enter	Key.enter	n/a
314.52	5.622	629040	prompt	n/a	album setting posters july\n
315.2805	0.12	630561	keystroke_a	a	n/a
315.5355	0.09	631071	keystroke_l	l	n/a
315.6705	0.105	631341	keystroke_b	b	n/a
315.8055	0.105	631611	keystroke_u	u	n/a
315.9705	0.09	631941	keystroke_m	m	n/a
316.1505	0.075	632301	keystroke_Key.space	Key.space	n/a
316.3605	0.075	632721	keystroke_s	s	n/a
316.5555	0.075	633111	keystroke_e	e	n/a
316.6455	0.06	633291	keystroke_t	t	n/a
316.7655	0.105	633531	keystroke_t	t	n/a
316.9005	0.105	633801	keystroke_i	i	n/a
316.9305	0.12	633861	keystroke_n	n	n/a
316.9905	0.09	633981	keystroke_g	g	n/a
317.1555	0.135	634311	keystroke_Key.space	Key.space	n/a
317.7105	0.09	635421	keystroke_p	p	n/a
317.86	0.09	635720	keystroke_o	o	n/a
317.935	0.121	635870	keystroke_s	s	n/a
318.041	0.134	636082	keystroke_t	t	n/a
318.161	0.135	636322	keystroke_e	e	n/a
318.25	0.09	636500	keystroke_r	r	n/a
318.386	0.134	636772	keystroke_s	s	n/a
318.6255	0.105	637251	keystroke_Key.space	Key.space	n/a
319.0155	0.06	638031	keystroke_j	j	n/a
319.1655	0.015	638331	keystroke_u	u	n/a
319.3155	0.06	638631	keystroke_l	l	n/a
319.3905	0.061	638781	keystroke_y	y	n/a
320.051	0.09	640102	keystroke_Key.enter	Key.enter	n/a
320.145	7.587	640290	prompt	n/a	livecam individually immediately river\n
320.906	0.075	641812	keystroke_l	l	n/a
321.056	0.075	642112	keystroke_i	i	n/a
321.161	0.105	642322	keystroke_v	v	n/a
321.221	0.1205	642442	keystroke_e	e	n/a
321.5055	0.09	643011	keystroke_c	c	n/a
321.5355	0.15	643071	keystroke_a	a	n/a
321.7005	0.075	643401	keystroke_m	m	n/a
321.8655	0.075	643731	keystroke_Key.space	Key.space	n/a
322.0155	0.105	644031	keystroke_i	i	n/a
322.0755	0.075	644151	keystroke_n	n	n/a
322.1655	0.09	644331	keystroke_d	d	n/a
322.2705	0.075	644541	keystroke_i	i	n/a
323.0205	0.09	646041	keystroke_v	v	n/a
323.1405	0.12	646281	keystroke_i	i	n/a
323.2455	0.106	646491	keystroke_d	d	n/a
323.3655	0.075	646731	keystroke_u	u	n/a
323.4415	0.15	646883	keystroke_a	a	n/a
323.5915	0.059	647183	keystroke_l	l	n/a
323.6955	0.105	647391	keystroke_l	l	n/a
323.8165	0.089	647633	keystroke_y	y	n/a
323.9505	0.0755	647901	keystroke_Key.space	Key.space	n/a
324.146	0.09	648292	keystroke_i	i	n/a
324.206	0.09	648412	keystroke_m	m	n/a
324.326	0.105	648652	keystroke_m	m	n/a
324.476	0.09	648952	keystroke_e	e	n/a
324.641	0.12	649282	keystroke_d	d	n/a
324.836	0.075	649672	keystroke_i	i	n/a
324.971	0.09	649942	keystroke_a	a	n/a
325.076	0.12	650152	keystroke_t	t	n/a
325.151	0.12	650302	keystroke_e	e	n/a
325.226	0.09	650452	keystroke_l	l	n/a
325.331	0.0895	650662	keystroke_y	y	n/a
325.5855	0.09	651171	keystroke_Key.space	Key.space	n/a
326.201	0.09	652402	keystroke_r	r	n/a
326.306	0.06	652612	keystroke_i	i	n/a
326.396	0.09	652792	keystroke_v	v	n/a
326.471	0.1495	652942	keystroke_e	e	n/a
326.5455	0.15	653091	keystroke_r	r	n/a
327.671	0.06	655342	keystroke_Key.enter	Key.enter	n/a
327.735	7.287	655470	prompt	n/a	unexpected notebooks exchanges weak\n
328.4205	0.075	656841	keystroke_u	u	n/a
328.4805	0.0755	656961	keystroke_n	n	n/a
329.051	0.075	658102	keystroke_e	e	n/a
329.261	0.075	658522	keystroke_x	x	n/a
329.486	0.09	658972	keystroke_p	p	n/a
329.636	0.135	659272	keystroke_e	e	n/a
329.741	0.12	659482	keystroke_c	c	n/a
330.011	0.12	660022	keystroke_t	t	n/a
330.056	0.135	660112	keystroke_e	e	n/a
330.251	0.135	660502	keystroke_d	d	n/a
330.431	0.09	660862	keystroke_Key.space	Key.space	n/a
330.761	0.105	661522	keystroke_n	n	n/a
330.836	0.09	661672	keystroke_o	o	n/a
330.911	0.105	661822	keystroke_t	t	n/a
330.956	0.12	661912	keystroke_e	e	n/a
331.196	0.09	662392	keystroke_b	b	n/a
331.271	0.06	662542	keystroke_o	o	n/a
331.376	0.0895	662752	keystroke_o	o	n/a
331.5555	0.105	663111	keystroke_k	k	n/a
331.6315	0.105	663263	keystroke_s	s	n/a
331.7505	0.09	663501	keystroke_Key.space	Key.space	n/a
331.9905	0.075	663981	keystroke_e	e	n/a
332.5305	0.18	665061	keystroke_x	x	n/a
332.8005	0.12	665601	keystroke_c	c	n/a
332.9355	0.075	665871	keystroke_h	h	n/a
333.0255	0.09	666051	keystroke_a	a	n/a
333.1005	0.075	666201	keystroke_n	n	n/a
333.1905	0.075	666381	keystroke_g	g	n/a
333.2355	0.12	666471	keystroke_e	e	n/a
333.4305	0.12	666861	keystroke_s	s	n/a
333.7605	0.1205	667521	keystroke_Key.space	Key.space	n/a
333.956	0.12	667912	keystroke_w	w	n/a
334.136	0.075	668272	keystroke_e	e	n/a
334.331	0.135	668662	keystroke_a	a	n/a
334.451	0.075	668902	keystroke_k	k	n/a
334.946	0.075	669892	keystroke_Key.enter	Key.enter	n/a
335.025	8.9225	670050	prompt	n/a	guarantees habits indexes dining\n
335.846	0.09	671692	keystroke_g	g	n/a
336.086	0.045	672172	keystroke_u	u	n/a
336.3255	0.135	672651	keystroke_a	a	n/a
336.4755	0.135	672951	keystroke_r	r	n/a
337.3305	0.1205	674661	keystroke_a	a	n/a
337.4655	0.075	674931	keystroke_n	n	n/a
337.6155	0.09	675231	keystroke_t	t	n/a
337.7655	0.1055	675531	keystroke_e	e	n/a
337.931	0.09	675862	keystroke_e	e	n/a
338.111	0.09	676222	keystroke_s	s	n/a
338.336	0.09	676672	keystroke_Key.space	Key.space	n/a
338.831	0.075	677662	keystroke_h	h	n/a
338.921	0.075	677842	keystroke_a	a	n/a
339.071	0.105	678142	keystroke_b	b	n/a
339.161	0.075	678322	keystroke_i	i	n/a
339.341	0.075	678682	keystroke_t	t	n/a
339.386	0.15	678772	keystroke_s	s	n/a
339.596	0.075	679192	keystroke_Key.space	Key.space	n/a
339.746	0.12	679492	keystroke_i	i	n/a
339.836	0.09	679672	keystroke_n	n	n/a
339.896	0.12	679792	keystroke_d	d	n/a
340.256	0.09	680512	keystroke_e	e	n/a
340.541	0.09	681082	keystroke_x	x	n/a
340.766	0.075	681532	keystroke_e	e	n/a
340.946	0.105	681892	keystroke_s	s	n/a
341.276	0.075	682552	keystroke_Key.space	Key.space	n/a
341.546	0.09	683092	keystroke_d	d	n/a
341.666	0.06	683332	keystroke_i	i	n/a
342.116	0.045	684232	keystroke_n	n	n/a
342.191	0.12	684382	keystroke_i	i	n/a
342.251	0.105	684502	keystroke_n	n	n/a
342.356	0.09	684712	keystroke_g	g	n/a
343.8555	0.09	687711	keystroke_Key.enter	Key.enter	n/a
343.952	7.3755	687904	prompt	n/a	telescope slope minimize so're\n
344.5455	0.12	689091	keystroke_t	t	n/a
344.5905	0.15	689181	keystroke_e	e	n/a
344.7555	0.09	689511	keystroke_l	l	n/a
344.8305	0.09	689661	keystroke_e	e	n/a
345.1305	0.12	690261	keystroke_s	s	n/a
345.5355	0.105	691071	keystroke_c	c	n/a
345.6705	0.06	691341	keystroke_o	o	n/a
345.8955	0.075	691791	keystroke_p	p	n/a
346.016	0.09	692032	keystroke_e	e	n/a
346.151	0.075	692302	keystroke_Key.space	Key.space	n/a
346.256	0.135	692512	keystroke_s	s	n/a
346.376	0.09	692752	keystroke_l	l	n/a
346.541	0.06	693082	keystroke_o	o	n/a
346.556	0.03	693112	keystroke_i	i	n/a
346.676	0.09	693352	keystroke_p	p	n/a
347.1555	0.03	694311	keystroke_Key.backspace	Key.backspace	n/a
347.2605	0.076	694521	keystroke_Key.backspace	Key.backspace	n/a
347.4705	0.0455	694941	keystroke_p	p	n/a
347.531	0.075	695062	keystroke_e	e	n/a
347.981	0.075	695962	keystroke_Key.space	Key.space	n/a
348.266	0.12	696532	keystroke_m	m	n/a
348.401	0.09	696802	keystroke_i	i	n/a
348.506	0.09	697012	keystroke_n	n	n/a
348.581	0.09	697162	keystroke_i	i	n/a
349.196	0.105	698392	keystroke_m	m	n/a
349.256	0.105	698512	keystroke_i	i	n/a
349.376	0.105	698752	keystroke_z	z	n/a
349.541	0.09	699082	keystroke_e	e	n/a
349.706	0.075	699412	keystroke_Key.space	Key.space	n/a
349.946	0.105	699892	keystroke_s	s	n/a
350.036	0.075	700072	keystroke_o	o	n/a
350.411	0.09	700822	keystroke_'	'	n/a
350.591	0.105	701182	keystroke_r	r	n/a
350.606	0.15	701212	keystroke_e	e	n/a
351.251	0.075	702502	keystroke_Key.enter	Key.enter	n/a
351.3305	8.2615	702661	prompt	n/a	advantage innocent projects trend\n
351.8655	0.12	703731	keystroke_a	a	n/a
352.0305	0.105	704061	keystroke_d	d	n/a
352.2405	0.105	704481	keystroke_v	v	n/a
352.4055	0.0905	704811	keystroke_a	a	n/a
352.556	0.09	705112	keystroke_n	n	n/a
352.691	0.09	705382	keystroke_t	t	n/a
352.766	0.105	705532	keystroke_a	a	n/a
352.916	0.09	705832	keystroke_g	g	n/a
352.976	0.105	705952	keystroke_e	e	n/a
353.561	0.09	707122	keystroke_Key.space	Key.space	n/a
353.786	0.0745	707572	keystroke_i	i	n/a
353.8615	0.089	707723	keystroke_n	n	n/a
353.9805	0.09	707961	keystroke_n	n	n/a
354.1755	0.09	708351	keystroke_o	o	n/a
354.3705	0.1055	708741	keystroke_c	c	n/a
354.4155	0.105	708831	keystroke_e	e	n/a
354.5355	0.075	709071	keystroke_n	n	n/a
354.6705	0.075	709341	keystroke_t	t	n/a
355.2555	0.075	710511	keystroke_Key.space	Key.space	n/a
355.571	0.075	711142	keystroke_p	p	n/a
355.661	0.09	711322	keystroke_r	r	n/a
355.766	0.09	711532	keystroke_o	o	n/a
355.961	0.09	711922	keystroke_j	j	n/a
356.036	0.12	712072	keystroke_e	e	n/a
356.111	0.135	712222	keystroke_c	c	n/a
356.366	0.015	712732	keystroke_t	t	n/a
356.366	0.03	712732	keystroke_r	r	n/a
356.8605	0.09	713721	keystroke_Key.backspace	Key.backspace	n/a
356.9955	0.075	713991	keystroke_Key.backspace	Key.backspace	n/a
357.2205	0.12	714441	keystroke_t	t	n/a
357.3105	0.12	714621	keystroke_s	s	n/a
357.4455	0.09	714891	keystroke_Key.space	Key.space	n/a
357.791	0.1195	715582	keystroke_t	t	n/a
357.866	0.1205	715732	keystroke_r	r	n/a
358.316	0.105	716632	keystroke_e	e	n/a
358.436	0.06	716872	keystroke_n	n	n/a
358.541	0.09	717082	keystroke_d	d	n/a
359.516	0.075	719032	keystroke_Key.enter	Key.enter	n/a
359.595	6.5225	719190	prompt	n/a	developer dust soma nancy\n
360.101	0.135	720202	keystroke_a	a	n/a
360.266	0.075	720532	keystroke_d	d	n/a
360.431	0.075	720862	keystroke_Key.backspace	Key.backspace	n/a
360.5655	0.105	721131	keystroke_Key.backspace	Key.backspace	n/a
360.6555	0.09	721311	keystroke_d	d	n/a
360.8205	0.09	721641	keystroke_e	e	n/a
361.0155	0.075	722031	keystroke_v	v	n/a
361.0305	0.135	722061	keystroke_e	e	n/a
361.1955	0.075	722391	keystroke_l	l	n/a
361.3305	0.075	722661	keystroke_o	o	n/a
361.4805	0.075	722961	keystroke_p	p	n/a
361.5105	0.135	723021	keystroke_e	e	n/a
361.5705	0.15	723141	keystroke_r	r	n/a
361.946	0.075	723892	keystroke_Key.space	Key.space	n/a
362.306	0.09	724612	keystroke_d	d	n/a
362.411	0.09	724822	keystroke_u	u	n/a
362.486	0.135	724972	keystroke_s	s	n/a
362.576	0.135	725152	keystroke_t	t	n/a
362.696	0.09	725392	keystroke_Key.space	Key.space	n/a
362.996	0.105	725992	keystroke_o	o	n/a
363.041	0.12	726082	keystroke_m	m	n/a
363.146	0.12	726292	keystroke_a	a	n/a
363.806	0.075	727612	keystroke_Key.backspace	Key.backspace	n/a
363.956	0.075	727912	keystroke_Key.backspace	Key.backspace	n/a
364.091	0.06	728182	keystroke_Key.backspace	Key.backspace	n/a
364.391	0.09	728782	keystroke_s	s	n/a
364.466	0.1195	728932	keystroke_o	o	n/a
364.511	0.1195	729022	keystroke_m	m	n/a
364.6155	0.12	729231	keystroke_a	a	n/a
364.7505	0.09	729501	keystroke_Key.space	Key.space	n/a
364.9905	0.075	729981	keystroke_n	n	n/a
365.1105	0.075	730221	keystroke_a	a	n/a
365.1405	0.09	730281	keystroke_n	n	n/a
365.3505	0.105	730701	keystroke_c	c	n/a
365.5905	0.09	731181	keystroke_t	t	n/a
366.011	0.105	732022	keystroke_Key.enter	Key.enter	n/a
366.12	7.6325	732240	prompt	n/a	publishers turns removal annual\n
366.7305	0.09	733461	keystroke_p	p	n/a
367.3605	0.105	734721	keystroke_u	u	n/a
367.841	0.06	735682	keystroke_b	b	n/a
367.976	0.089	735952	keystroke_l	l	n/a
368.126	0.09	736252	keystroke_i	i	n/a
368.201	0.09	736402	keystroke_s	s	n/a
368.276	0.09	736552	keystroke_h	h	n/a
368.411	0.165	736822	keystroke_r	r	n/a
368.441	0.12	736882	keystroke_e	e	n/a
369.071	0.06	738142	keystroke_Key.backspace	Key.backspace	n/a
369.175	0.09	738350	keystroke_Key.backspace	Key.backspace	n/a
369.22	0.15	738440	keystroke_e	e	n/a
369.311	0.105	738622	keystroke_r	r	n/a
369.506	0.105	739012	keystroke_s	s	n/a
369.731	0.1045	739462	keystroke_Key.space	Key.space	n/a
369.9405	0.15	739881	keystroke_t	t	n/a
370.1205	0.09	740241	keystroke_u	u	n/a
370.1805	0.075	740361	keystroke_r	r	n/a
370.2855	0.1055	740571	keystroke_n	n	n/a
370.376	0.09	740752	keystroke_s	s	n/a
370.526	0.12	741052	keystroke_Key.space	Key.space	n/a
370.9005	0.075	741801	keystroke_r	r	n/a
370.9305	0.12	741861	keystroke_e	e	n/a
371.0655	0.135	742131	keystroke_m	m	n/a
371.1105	0.105	742221	keystroke_o	o	n/a
371.2165	0.119	742433	keystroke_v	v	n/a
371.3205	0.045	742641	keystroke_e	e	n/a
371.6805	0.105	743361	keystroke_Key.backspace	Key.backspace	n/a
371.8005	0.12	743601	keystroke_a	a	n/a
371.9055	0.075	743811	keystroke_l	l	n/a
372.0555	0.075	744111	keystroke_Key.space	Key.space	n/a
372.2955	0.105	744591	keystroke_a	a	n/a
372.5055	0.075	745011	keystroke_n	n	n/a
372.6405	0.12	745281	keystroke_n	n	n/a
372.7755	0.075	745551	keystroke_u	u	n/a
372.8655	0.12	745731	keystroke_a	a	n/a
372.9705	0.09	745941	keystroke_l	l	n/a
373.6605	0.09	747321	keystroke_Key.enter	Key.enter	n/a
373.755	8.3525	747510	prompt	n/a	completed mode technology installing\n
374.3655	0.1205	748731	keystroke_c	c	n/a
374.4255	0.0905	748851	keystroke_o	o	n/a
374.471	0.09	748942	keystroke_m	m	n/a
374.621	0.12	749242	keystroke_p	p	n/a
374.681	0.09	749362	keystroke_l	l	n/a
374.726	0.135	749452	keystroke_e	e	n/a
374.816	0.18	749632	keystroke_t	t	n/a
374.921	0.135	749842	keystroke_e	e	n/a
375.191	0.105	750382	keystroke_d	d	n/a
375.551	0.09	751102	keystroke_Key.space	Key.space	n/a
375.866	0.045	751732	keystroke_n	n	n/a
375.881	0.06	751762	keystroke_m	m	n/a
375.896	0.12	751792	keystroke_o	o	n/a
375.971	0.105	751942	keystroke_d	d	n/a
376.331	0.06	752662	keystroke_Key.backspace	Key.backspace	n/a
376.466	0.075	752932	keystroke_Key.backspace	Key.backspace	n/a
376.601	0.075	753202	keystroke_Key.backspace	Key.backspace	n/a
376.721	0.105	753442	keystroke_Key.backspace	Key.backspace	n/a
376.946	0.105	753892	keystroke_m	m	n/a
376.991	0.075	753982	keystroke_o	o	n/a
377.036	0.075	754072	keystroke_d	d	n/a
377.1705	0.12	754341	keystroke_e	e	n/a
377.2755	0.09	754551	keystroke_Key.space	Key.space	n/a
377.4105	0.105	754821	keystroke_t	t	n/a
377.4705	0.1205	754941	keystroke_e	e	n/a
377.666	0.12	755332	keystroke_c	c	n/a
377.756	0.075	755512	keystroke_h	h	n/a
377.891	0.12	755782	keystroke_n	n	n/a
378.026	0.105	756052	keystroke_o	o	n/a
378.191	0.075	756382	keystroke_l	l	n/a
378.311	0.09	756622	keystroke_o	o	n/a
378.371	0.135	756742	keystroke_g	g	n/a
378.596	0.09	757192	keystroke_y	y	n/a
378.806	0.105	757612	keystroke_Key.space	Key.space	n/a
379.031	0.12	758062	keystroke_i	i	n/a
379.106	0.105	758212	keystroke_n	n	n/a
379.181	0.105	758362	keystroke_t	t	n/a
379.736	0.09	759472	keystroke_Key.backspace	Key.backspace	n/a
379.781	0.1345	759562	keystroke_s	s	n/a
379.886	0.1495	759772	keystroke_t	t	n/a
379.9905	0.12	759981	keystroke_a	a	n/a
380.2755	0.06	760551	keystroke_l	l	n/a
380.3955	0.09	760791	keystroke_l	l	n/a
380.6055	0.105	761211	keystroke_i	i	n/a
380.6505	0.105	761301	keystroke_n	n	n/a
380.7705	0.09	761541	keystroke_g	g	n/a
382.0155	0.0895	764031	keystroke_Key.enter	Key.enter	n/a
382.11	7.7825	764220	prompt	n/a	spray islam manchester crafts\n
382.751	0.09	765502	keystroke_s	s	n/a
382.796	0.09	765592	keystroke_p	p	n/a
382.901	0.15	765802	keystroke_r	r	n/a
383.006	0.09	766012	keystroke_a	a	n/a
383.156	0.105	766312	keystroke_y	y	n/a
383.2755	0.0905	766551	keystroke_Key.space	Key.space	n/a
383.576	0.075	767152	keystroke_i	i	n/a
383.666	0.09	767332	keystroke_s	s	n/a
383.771	0.0895	767542	keystroke_l	l	n/a
383.8465	0.135	767693	keystroke_a	a	n/a
384.2505	0.075	768501	keystroke_m	m	n/a
384.4305	0.0755	768861	keystroke_Key.space	Key.space	n/a
384.611	0.09	769222	keystroke_m	m	n/a
384.716	0.12	769432	keystroke_a	a	n/a
384.851	0.105	769702	keystroke_n	n	n/a
384.971	0.135	769942	keystroke_c	c	n/a
385.166	0.09	770332	keystroke_h	h	n/a
385.3455	0.1055	770691	keystroke_e	e	n/a
385.526	0.12	771052	keystroke_s	s	n/a
385.601	0.135	771202	keystroke_t	t	n/a
385.721	0.1345	771442	keystroke_e	e	n/a
385.796	0.1645	771592	keystroke_r	r	n/a
385.9755	0.105	771951	keystroke_Key.space	Key.space	n/a
386.1405	0.09	772281	keystroke_c	c	n/a
386.2905	0.12	772581	keystroke_r	r	n/a
386.576	0.12	773152	keystroke_a	a	n/a
387.3405	0.105	774681	keystroke_f	f	n/a
387.5055	0.1355	775011	keystroke_t	t	n/a
389.1555	0.12	778311	keystroke_s	s	n/a
389.8155	0.075	779631	keystroke_Key.enter	Key.enter	n/a
389.895	7.152	779790	prompt	n/a	regularly coaches book cancelled\n
390.4755	0.165	780951	keystroke_r	r	n/a
390.5505	0.105	781101	keystroke_e	e	n/a
390.7155	0.12	781431	keystroke_g	g	n/a
390.8655	0.09	781731	keystroke_u	u	n/a
391.601	0.075	783202	keystroke_l	l	n/a
391.736	0.12	783472	keystroke_a	a	n/a
391.8105	0.1655	783621	keystroke_r	r	n/a
392.171	0.075	784342	keystroke_l	l	n/a
392.35	0.031	784700	keystroke_y	y	n/a
392.831	0.09	785662	keystroke_Key.space	Key.space	n/a
392.996	0.12	785992	keystroke_c	c	n/a
393.161	0.09	786322	keystroke_o	o	n/a
393.296	0.135	786592	keystroke_a	a	n/a
393.371	0.15	786742	keystroke_c	c	n/a
393.521	0.075	787042	keystroke_h	h	n/a
393.686	0.09	787372	keystroke_e	e	n/a
394.0905	0.09	788181	keystroke_Key.space	Key.space	n/a
394.4205	0.105	788841	keystroke_Key.backspace	Key.backspace	n/a
394.5105	0.0755	789021	keystroke_s	s	n/a
394.766	0.09	789532	keystroke_Key.space	Key.space	n/a
394.9005	0.09	789801	keystroke_b	b	n/a
394.9755	0.075	789951	keystroke_o	o	n/a
395.1105	0.09	790221	keystroke_o	o	n/a
395.2605	0.12	790521	keystroke_k	k	n/a
395.3355	0.09	790671	keystroke_Key.space	Key.space	n/a
395.4705	0.121	790941	keystroke_c	c	n/a
395.5465	0.135	791093	keystroke_a	a	n/a
395.6065	0.105	791213	keystroke_n	n	n/a
395.9965	0.06	791993	keystroke_c	c	n/a
396.0105	0.121	792021	keystroke_e	e	n/a
396.2505	0.061	792501	keystroke_l	l	n/a
396.3565	0.089	792713	keystroke_l	l	n/a
396.461	0.09	792922	keystroke_e	e	n/a
396.611	0.135	793222	keystroke_d	d	n/a
396.956	0.09	793912	keystroke_Key.enter	Key.enter	n/a
397.05	6.8225	794100	prompt	n/a	interesting jane stuart olympus\n
397.6005	0.0905	795201	keystroke_i	i	n/a
397.646	0.09	795292	keystroke_n	n	n/a
397.751	0.12	795502	keystroke_t	t	n/a
397.811	0.165	795622	keystroke_e	e	n/a
398.201	0.15	796402	keystroke_r	r	n/a
398.261	0.135	796522	keystroke_e	e	n/a
398.471	0.105	796942	keystroke_s	s	n/a
398.531	0.105	797062	keystroke_t	t	n/a
398.606	0.1045	797212	keystroke_i	i	n/a
398.651	0.0895	797302	keystroke_n	n	n/a
398.7255	0.09	797451	keystroke_g	g	n/a
398.8005	0.09	797601	keystroke_Key.space	Key.space	n/a
398.9205	0.12	797841	keystroke_j	j	n/a
399.0555	0.12	798111	keystroke_a	a	n/a
399.1605	0.12	798321	keystroke_n	n	n/a
399.2655	0.09	798531	keystroke_e	e	n/a
399.3705	0.09	798741	keystroke_Key.space	Key.space	n/a
399.5505	0.15	799101	keystroke_s	s	n/a
399.6705	0.12	799341	keystroke_t	t	n/a
399.8205	0.06	799641	keystroke_u	u	n/a
399.8955	0.12	799791	keystroke_a	a	n/a
399.9855	0.165	799971	keystroke_t	t	n/a
400.346	0.09	800692	keystroke_Key.backspace	Key.backspace	n/a
400.451	0.105	800902	keystroke_r	r	n/a
400.511	0.105	801022	keystroke_t	t	n/a
400.811	0.09	801622	keystroke_Key.space	Key.space	n/a
401.126	0.09	802252	keystroke_a	a	n/a
401.231	0.06	802462	keystroke_o	o	n/a
401.426	0.075	802852	keystroke_Key.backspace	Key.backspace	n/a
401.561	0.105	803122	keystroke_Key.backspace	Key.backspace	n/a
402.0105	0.045	804021	keystroke_o	o	n/a
402.1155	0.12	804231	keystroke_l	l	n/a
402.5055	0.045	805011	keystroke_y	y	n/a
402.641	0.06	805282	keystroke_m	m	n/a
402.821	0.075	805642	keystroke_p	p	n/a
403.061	0.09	806122	keystroke_u	u	n/a
403.211	0.105	806422	keystroke_s	s	n/a
403.781	0.0895	807562	keystroke_Key.enter	Key.enter	n/a
403.8755	5.907	807751	prompt	n/a	advice phentermine heater gives\n
404.3805	0.1055	808761	keystroke_a	a	n/a
404.531	0.1045	809062	keystroke_d	d	n/a
404.7105	0.09	809421	keystroke_v	v	n/a
404.8155	0.09	809631	keystroke_i	i	n/a
404.9205	0.105	809841	keystroke_c	c	n/a
404.9805	0.105	809961	keystroke_e	e	n/a
405.1905	0.09	810381	keystroke_Key.space	Key.space	n/a
405.5955	0.075	811191	keystroke_p	p	n/a
405.7455	0.09	811491	keystroke_h	h	n/a
405.8655	0.105	811731	keystroke_e	e	n/a
406.2255	0.075	812451	keystroke_n	n	n/a
406.6305	0.09	813261	keystroke_t	t	n/a
406.7805	0.15	813561	keystroke_e	e	n/a
406.8855	0.105	813771	keystroke_r	r	n/a
406.9755	0.105	813951	keystroke_m	m	n/a
407.1105	0.12	814221	keystroke_i	i	n/a
407.1705	0.105	814341	keystroke_n	n	n/a
407.2605	0.06	814521	keystroke_e	e	n/a
407.5905	0.075	815181	keystroke_Key.space	Key.space	n/a
408.0105	0.075	816021	keystroke_h	h	n/a
408.1155	0.135	816231	keystroke_e	e	n/a
408.2955	0.135	816591	keystroke_a	a	n/a
408.4305	0.12	816861	keystroke_t	t	n/a
408.5655	0.165	817131	keystroke_e	e	n/a
408.6705	0.12	817341	keystroke_r	r	n/a
408.8505	0.09	817701	keystroke_Key.space	Key.space	n/a
409.0305	0.075	818061	keystroke_g	g	n/a
409.1505	0.09	818301	keystroke_i	i	n/a
409.286	0.12	818572	keystroke_v	v	n/a
409.376	0.119	818752	keystroke_e	e	n/a
409.571	0.09	819142	keystroke_s	s	n/a
409.691	0.09	819382	keystroke_Key.enter	Key.enter	n/a
409.7855	6.6115	819571	prompt	n/a	china ranking situated towards\n
410.6355	0.09	821271	keystroke_h	h	n/a
410.8005	0.12	821601	keystroke_i	i	n/a
411.0855	0.06	822171	keystroke_Key.backspace	Key.backspace	n/a
411.2055	0.075	822411	keystroke_Key.backspace	Key.backspace	n/a
411.2955	0.105	822591	keystroke_c	c	n/a
411.4015	0.089	822803	keystroke_h	h	n/a
411.4755	0.12	822951	keystroke_i	i	n/a
411.5505	0.09	823101	keystroke_n	n	n/a
411.6105	0.135	823221	keystroke_a	a	n/a
411.7305	0.075	823461	keystroke_Key.space	Key.space	n/a
411.851	0.15	823702	keystroke_r	r	n/a
411.941	0.135	823882	keystroke_a	a	n/a
412.016	0.135	824032	keystroke_n	n	n/a
412.136	0.1195	824272	keystroke_k	k	n/a
412.2855	0.105	824571	keystroke_i	i	n/a
412.3305	0.09	824661	keystroke_n	n	n/a
412.4055	0.09	824811	keystroke_g	g	n/a
412.5105	0.09	825021	keystroke_Key.space	Key.space	n/a
412.5855	0.1055	825171	keystroke_s	s	n/a
412.976	0.075	825952	keystroke_i	i	n/a
413.066	0.12	826132	keystroke_t	t	n/a
413.231	0.075	826462	keystroke_u	u	n/a
413.321	0.105	826642	keystroke_a	a	n/a
413.456	0.12	826912	keystroke_t	t	n/a
413.546	0.105	827092	keystroke_e	e	n/a
413.726	0.105	827452	keystroke_d	d	n/a
413.816	0.09	827632	keystroke_Key.space	Key.space	n/a
414.011	0.09	828022	keystroke_t	t	n/a
414.086	0.075	828172	keystroke_o	o	n/a
414.176	0.135	828352	keystroke_w	w	n/a
414.341	0.06	828682	keystroke_q	q	n/a
414.416	0.1055	828832	keystroke_r	r	n/a
414.6855	0.09	829371	keystroke_Key.backspace	Key.backspace	n/a
414.7905	0.105	829581	keystroke_a	a	n/a
414.8505	0.135	829701	keystroke_r	r	n/a
415.1655	0.075	830331	keystroke_Key.backspace	Key.backspace	n/a
415.3155	0.075	830631	keystroke_Key.backspace	Key.backspace	n/a
415.4505	0.105	830901	keystroke_Key.backspace	Key.backspace	n/a
415.5865	0.119	831173	keystroke_a	a	n/a
415.6905	0.09	831381	keystroke_r	r	n/a
415.901	0.105	831802	keystroke_d	d	n/a
415.976	0.105	831952	keystroke_s	s	n/a
416.306	0.09	832612	keystroke_Key.enter	Key.enter	n/a
416.402	9.0405	832804	prompt	n/a	chile excessive scholars bizrate\n
416.9805	0.09	833961	keystroke_c	c	n/a
417.086	0.1195	834172	keystroke_h	h	n/a
417.1455	0.105	834291	keystroke_i	i	n/a
417.3255	0.09	834651	keystroke_l	l	n/a
417.4005	0.075	834801	keystroke_e	e	n/a
417.5205	0.09	835041	keystroke_Key.space	Key.space	n/a
417.716	0.075	835432	keystroke_e	e	n/a
417.956	0.075	835912	keystroke_x	x	n/a
419.366	0.075	838732	keystroke_Key.backspace	Key.backspace	n/a
419.981	0.105	839962	keystroke_x	x	n/a
420.206	0.135	840412	keystroke_c	c	n/a
420.326	0.075	840652	keystroke_e	e	n/a
420.5205	0.075	841041	keystroke_s	s	n/a
420.6555	0.09	841311	keystroke_s	s	n/a
420.7605	0.09	841521	keystroke_i	i	n/a
420.8655	0.09	841731	keystroke_v	v	n/a
420.9105	0.12	841821	keystroke_e	e	n/a
421.0905	0.09	842181	keystroke_Key.space	Key.space	n/a
421.3005	0.12	842601	keystroke_s	s	n/a
421.4055	0.12	842811	keystroke_c	c	n/a
421.5105	0.09	843021	keystroke_h	h	n/a
421.6905	0.075	843381	keystroke_o	o	n/a
421.8255	0.09	843651	keystroke_l	l	n/a
421.9005	0.12	843801	keystroke_a	a	n/a
421.9905	0.165	843981	keystroke_r	r	n/a
423.6255	0.105	847251	keystroke_s	s	n/a
423.8505	0.075	847701	keystroke_Key.space	Key.space	n/a
424.1205	0.09	848241	keystroke_b	b	n/a
424.2555	0.075	848511	keystroke_i	i	n/a
424.4055	0.1505	848811	keystroke_z	z	n/a
424.706	0.135	849412	keystroke_r	r	n/a
424.796	0.1195	849592	keystroke_a	a	n/a
424.9315	0.104	849863	keystroke_t	t	n/a
424.9905	0.12	849981	keystroke_e	e	n/a
425.3655	0.075	850731	keystroke_Key.enter	Key.enter	n/a
425.4455	7.437	850891	prompt	n/a	pollution violations engagement prayers\n
426.0405	0.105	852081	keystroke_p	p	n/a
426.281	0.075	852562	keystroke_o	o	n/a
426.461	0.075	852922	keystroke_l	l	n/a
426.596	0.105	853192	keystroke_l	l	n/a
426.851	0.075	853702	keystroke_u	u	n/a
426.971	0.105	853942	keystroke_t	t	n/a
427.076	0.075	854152	keystroke_i	i	n/a
427.211	0.105	854422	keystroke_o	o	n/a
427.256	0.09	854512	keystroke_n	n	n/a
427.9155	0.075	855831	keystroke_Key.space	Key.space	n/a
428.1705	0.12	856341	keystroke_v	v	n/a
428.3205	0.06	856641	keystroke_i	i	n/a
428.4705	0.075	856941	keystroke_o	o	n/a
428.6055	0.105	857211	keystroke_l	l	n/a
428.6955	0.09	857391	keystroke_a	a	n/a
428.7705	0.135	857541	keystroke_t	t	n/a
428.8605	0.09	857721	keystroke_i	i	n/a
428.9955	0.09	857991	keystroke_o	o	n/a
429.0255	0.105	858051	keystroke_n	n	n/a
429.1005	0.09	858201	keystroke_s	s	n/a
429.5505	0.09	859101	keystroke_Key.space	Key.space	n/a
429.7905	0.09	859581	keystroke_e	e	n/a
429.911	0.1195	859822	keystroke_n	n	n/a
430.0455	0.12	860091	keystroke_g	g	n/a
430.3005	0.1055	860601	keystroke_a	a	n/a
430.451	0.105	860902	keystroke_g	g	n/a
430.511	0.09	861022	keystroke_e	e	n/a
430.616	0.105	861232	keystroke_m	m	n/a
430.706	0.0895	861412	keystroke_e	e	n/a
430.8855	0.075	861771	keystroke_n	n	n/a
430.9905	0.075	861981	keystroke_t	t	n/a
431.336	0.1195	862672	keystroke_Key.space	Key.space	n/a
431.786	0.0905	863572	keystroke_p	p	n/a
431.8615	0.105	863723	keystroke_r	r	n/a
431.9965	0.119	863993	keystroke_a	a	n/a
432.1615	0.075	864323	keystroke_y	y	n/a
432.2365	0.165	864473	keystroke_e	e	n/a
432.3405	0.106	864681	keystroke_r	r	n/a
432.5065	0.105	865013	keystroke_s	s	n/a
432.806	0.075	865612	keystroke_Key.enter	Key.enter	n/a
432.885	7.9925	865770	prompt	n/a	pleasant prevention translations personals\n
433.541	0.09	867082	keystroke_p	p	n/a
433.736	0.1045	867472	keystroke_l	l	n/a
433.8555	0.12	867711	keystroke_e	e	n/a
433.9455	0.165	867891	keystroke_a	a	n/a
434.0655	0.15	868131	keystroke_s	s	n/a
434.651	0.12	869302	keystroke_a	a	n/a
434.756	0.075	869512	keystroke_n	n	n/a
434.846	0.105	869692	keystroke_t	t	n/a
434.936	0.09	869872	keystroke_Key.space	Key.space	n/a
435.206	0.075	870412	keystroke_p	p	n/a
435.311	0.06	870622	keystroke_r	r	n/a
435.326	0.12	870652	keystroke_e	e	n/a
435.566	0.1795	871132	keystroke_e	e	n/a
435.7005	0.09	871401	keystroke_n	n	n/a
436.076	0.06	872152	keystroke_Key.backspace	Key.backspace	n/a
436.225	0.091	872450	keystroke_Key.backspace	Key.backspace	n/a
436.346	0.09	872692	keystroke_v	v	n/a
436.391	0.134	872782	keystroke_e	e	n/a
436.541	0.09	873082	keystroke_n	n	n/a
436.706	0.075	873412	keystroke_t	t	n/a
436.841	0.09	873682	keystroke_i	i	n/a
436.976	0.09	873952	keystroke_o	o	n/a
437.036	0.09	874072	keystroke_n	n	n/a
437.216	0.105	874432	keystroke_Key.space	Key.space	n/a
437.501	0.105	875002	keystroke_t	t	n/a
437.636	0.105	875272	keystroke_r	r	n/a
437.801	0.12	875602	keystroke_a	a	n/a
437.906	0.0595	875812	keystroke_n	n	n/a
438.0105	0.06	876021	keystroke_s	s	n/a
438.0855	0.09	876171	keystroke_l	l	n/a
438.1905	0.105	876381	keystroke_a	a	n/a
438.3105	0.105	876621	keystroke_t	t	n/a
438.4005	0.0605	876801	keystroke_i	i	n/a
438.506	0.09	877012	keystroke_o	o	n/a
438.551	0.09	877102	keystroke_n	n	n/a
438.626	0.105	877252	keystroke_s	s	n/a
438.761	0.09	877522	keystroke_Key.space	Key.space	n/a
438.971	0.06	877942	keystroke_p	p	n/a
439.046	0.105	878092	keystroke_e	e	n/a
439.076	0.105	878152	keystroke_r	r	n/a
439.256	0.1355	878512	keystroke_s	s	n/a
439.346	0.1205	878692	keystroke_o	o	n/a
439.4065	0.09	878813	keystroke_n	n	n/a
439.5255	0.106	879051	keystroke_a	a	n/a
439.6165	0.105	879233	keystroke_l	l	n/a
439.7965	0.075	879593	keystroke_s	s	n/a
440.786	0.09	881572	keystroke_Key.enter	Key.enter	n/a
440.882	7.2405	881764	prompt	n/a	graduate airplane resolution statistical\n
441.4915	0.09	882983	keystroke_g	g	n/a
441.5365	0.104	883073	keystroke_r	r	n/a
441.6705	0.105	883341	keystroke_a	a	n/a
441.8055	0.1205	883611	keystroke_d	d	n/a
441.956	0.075	883912	keystroke_u	u	n/a
442.046	0.09	884092	keystroke_a	a	n/a
442.121	0.135	884242	keystroke_t	t	n/a
442.211	0.15	884422	keystroke_e	e	n/a
442.376	0.105	884752	keystroke_Key.space	Key.space	n/a
442.691	0.09	885382	keystroke_a	a	n/a
442.766	0.09	885532	keystroke_i	i	n/a
442.916	0.09	885832	keystroke_r	r	n/a
443.021	0.105	886042	keystroke_p	p	n/a
443.066	0.105	886132	keystroke_l	l	n/a
443.186	0.12	886372	keystroke_a	a	n/a
443.321	0.105	886642	keystroke_n	n	n/a
443.441	0.09	886882	keystroke_e	e	n/a
443.681	0.06	887362	keystroke_Key.space	Key.space	n/a
443.9205	0.1355	887841	keystroke_r	r	n/a
443.996	0.09	887992	keystroke_e	e	n/a
444.221	0.135	888442	keystroke_s	s	n/a
444.341	0.09	888682	keystroke_o	o	n/a
444.5355	0.075	889071	keystroke_l	l	n/a
444.7155	0.075	889431	keystroke_u	u	n/a
444.8205	0.12	889641	keystroke_t	t	n/a
444.9255	0.075	889851	keystroke_i	i	n/a
445.0455	0.0755	890091	keystroke_o	o	n/a
445.076	0.075	890152	keystroke_n	n	n/a
445.286	0.105	890572	keystroke_s	s	n/a
445.661	0.06	891322	keystroke_Key.backspace	Key.backspace	n/a
445.841	0.075	891682	keystroke_Key.space	Key.space	n/a
445.901	0.105	891802	keystroke_s	s	n/a
445.961	0.135	891922	keystroke_t	t	n/a
446.081	0.135	892162	keystroke_a	a	n/a
446.171	0.195	892342	keystroke_t	t	n/a
446.5015	0.074	893003	keystroke_i	i	n/a
446.6215	0.135	893243	keystroke_s	s	n/a
446.7115	0.119	893423	keystroke_t	t	n/a
446.8915	0.09	893783	keystroke_i	i	n/a
447.0565	0.105	894113	keystroke_c	c	n/a
447.0865	0.149	894173	keystroke_a	a	n/a
447.3115	0.075	894623	keystroke_l	l	n/a
448.0305	0.09	896061	keystroke_Key.enter	Key.enter	n/a
448.126	4.1515	896252	prompt	n/a	bomb nitrogen assure hung\n
448.691	0.06	897382	keystroke_b	b	n/a
448.736	0.105	897472	keystroke_o	o	n/a
448.781	0.105	897562	keystroke_m	m	n/a
448.856	0.075	897712	keystroke_b	b	n/a
448.991	0.105	897982	keystroke_Key.space	Key.space	n/a
449.216	0.135	898432	keystroke_n	n	n/a
449.291	0.1195	898582	keystroke_i	i	n/a
449.426	0.1495	898852	keystroke_t	t	n/a
449.5305	0.076	899061	keystroke_r	r	n/a
449.6065	0.074	899213	keystroke_o	o	n/a
449.7855	0.1055	899571	keystroke_g	g	n/a
449.846	0.135	899692	keystroke_e	e	n/a
450.086	0.075	900172	keystroke_n	n	n/a
450.476	0.0605	900952	keystroke_Key.space	Key.space	n/a
450.7465	0.0895	901493	keystroke_a	a	n/a
450.881	0.075	901762	keystroke_s	s	n/a
451.016	0.09	902032	keystroke_s	s	n/a
451.151	0.075	902302	keystroke_u	u	n/a
451.211	0.12	902422	keystroke_r	r	n/a
451.271	0.105	902542	keystroke_e	e	n/a
451.346	0.09	902692	keystroke_Key.space	Key.space	n/a
451.586	0.105	903172	keystroke_h	h	n/a
451.661	0.135	903322	keystroke_u	u	n/a
451.766	0.09	903532	keystroke_n	n	n/a
451.841	0.09	903682	keystroke_g	g	n/a
452.216	0.06	904432	keystroke_Key.enter	Key.enter	n/a
452.2805	6.162	904561	prompt	n/a	locator successfully meters previous\n
452.891	0.09	905782	keystroke_l	l	n/a
453.251	0.075	906502	keystroke_o	o	n/a
453.356	0.12	906712	keystroke_c	c	n/a
453.446	0.105	906892	keystroke_a	a	n/a
453.596	0.12	907192	keystroke_t	t	n/a
453.701	0.075	907402	keystroke_o	o	n/a
453.761	0.09	907522	keystroke_r	r	n/a
453.881	0.105	907762	keystroke_Key.space	Key.space	n/a
454.046	0.105	908092	keystroke_s	s	n/a
454.196	0.075	908392	keystroke_u	u	n/a
454.286	0.075	908572	keystroke_c	c	n/a
454.436	0.075	908872	keystroke_c	c	n/a
454.5705	0.105	909141	keystroke_e	e	n/a
454.7055	0.09	909411	keystroke_s	s	n/a
454.841	0.0755	909682	keystroke_s	s	n/a
455.186	0.09	910372	keystroke_f	f	n/a
455.291	0.075	910582	keystroke_u	u	n/a
455.486	0.06	910972	keystroke_l	l	n/a
455.606	0.09	911212	keystroke_l	l	n/a
455.681	0.075	911362	keystroke_y	y	n/a
455.801	0.0755	911602	keystroke_Key.space	Key.space	n/a
455.9365	0.09	911873	keystroke_m	m	n/a
455.9965	0.12	911993	keystroke_e	e	n/a
456.1615	0.105	912323	keystroke_t	t	n/a
456.2365	0.165	912473	keystroke_e	e	n/a
456.3415	0.105	912683	keystroke_r	r	n/a
456.5365	0.09	913073	keystroke_s	s	n/a
456.8515	0.09	913703	keystroke_Key.space	Key.space	n/a
457.0465	0.075	914093	keystroke_p	p	n/a
457.1065	0.135	914213	keystroke_r	r	n/a
457.1665	0.09	914333	keystroke_e	e	n/a
457.3615	0.1195	914723	keystroke_v	v	n/a
457.466	0.075	914932	keystroke_i	i	n/a
457.6015	0.06	915203	keystroke_o	o	n/a
457.736	0.06	915472	keystroke_u	u	n/a
457.841	0.09	915682	keystroke_s	s	n/a
458.351	0.09	916702	keystroke_Key.enter	Key.enter	n/a
458.4455	10.6025	916891	prompt	n/a	franchise bhutan demonstration how're\n
459.0855	0.105	918171	keystroke_f	f	n/a
459.3255	0.075	918651	keystroke_r	r	n/a
459.5205	0.105	919041	keystroke_a	a	n/a
459.7755	0.0905	919551	keystroke_n	n	n/a
459.911	0.105	919822	keystroke_c	c	n/a
460.031	0.12	920062	keystroke_h	h	n/a
460.106	0.105	920212	keystroke_i	i	n/a
460.256	0.15	920512	keystroke_s	s	n/a
460.361	0.12	920722	keystroke_e	e	n/a
461.7255	0.1055	923451	keystroke_Key.space	Key.space	n/a
461.8905	0.09	923781	keystroke_b	b	n/a
462.4155	0.12	924831	keystroke_h	h	n/a
462.4905	0.105	924981	keystroke_u	u	n/a
462.6555	0.105	925311	keystroke_t	t	n/a
462.941	0.12	925882	keystroke_a	a	n/a
463.301	0.075	926602	keystroke_n	n	n/a
463.466	0.09	926932	keystroke_Key.space	Key.space	n/a
463.586	0.105	927172	keystroke_d	d	n/a
463.751	0.09	927502	keystroke_e	e	n/a
464.141	0.075	928282	keystroke_m	m	n/a
464.231	0.105	928462	keystroke_o	o	n/a
464.291	0.09	928582	keystroke_n	n	n/a
464.411	0.105	928822	keystroke_s	s	n/a
464.531	0.135	929062	keystroke_t	t	n/a
464.591	0.09	929182	keystroke_r	r	n/a
464.726	0.075	929452	keystroke_a	a	n/a
464.771	0.18	929542	keystroke_t	t	n/a
464.861	0.105	929722	keystroke_i	i	n/a
465.011	0.09	930022	keystroke_o	o	n/a
465.041	0.12	930082	keystroke_n	n	n/a
465.371	0.09	930742	keystroke_Key.space	Key.space	n/a
465.476	0.105	930952	keystroke_w	w	n/a
465.6865	0.075	931373	keystroke_h	h	n/a
465.8515	0.06	931703	keystroke_Key.backspace	Key.backspace	n/a
465.9715	0.09	931943	keystroke_Key.backspace	Key.backspace	n/a
467.741	0.06	935482	keystroke_h	h	n/a
467.816	0.06	935632	keystroke_o	o	n/a
467.936	0.09	935872	keystroke_w	w	n/a
468.326	0.075	936652	keystroke_'	'	n/a
468.431	0.12	936862	keystroke_r	r	n/a
468.476	0.12	936952	keystroke_e	e	n/a
468.971	0.075	937942	keystroke_Key.enter	Key.enter	n/a
469.0505	4.422	938101	prompt	n/a	dialog give thus writings\n
469.766	0.06	939532	keystroke_i	i	n/a
470.0065	0.074	940013	keystroke_Key.backspace	Key.backspace	n/a
470.0965	0.075	940193	keystroke_d	d	n/a
470.1865	0.09	940373	keystroke_i	i	n/a
470.2465	0.12	940493	keystroke_a	a	n/a
470.4865	0.06	940973	keystroke_l	l	n/a
470.5915	0.09	941183	keystroke_o	o	n/a
470.6655	0.091	941331	keystroke_g	g	n/a
470.9055	0.09	941811	keystroke_Key.space	Key.space	n/a
471.0565	0.06	942113	keystroke_g	g	n/a
471.1315	0.089	942263	keystroke_i	i	n/a
471.2955	0.105	942591	keystroke_v	v	n/a
471.3565	0.12	942713	keystroke_e	e	n/a
471.5055	0.09	943011	keystroke_Key.space	Key.space	n/a
471.6105	0.091	943221	keystroke_t	t	n/a
471.6555	0.091	943311	keystroke_h	h	n/a
471.7615	0.074	943523	keystroke_u	u	n/a
471.8655	0.105	943731	keystroke_s	s	n/a
471.9715	0.089	943943	keystroke_Key.space	Key.space	n/a
472.2105	0.135	944421	keystroke_w	w	n/a
472.3155	0.105	944631	keystroke_r	r	n/a
472.4505	0.12	944901	keystroke_i	i	n/a
472.5715	0.0895	945143	keystroke_t	t	n/a
472.676	0.105	945352	keystroke_i	i	n/a
472.721	0.09	945442	keystroke_n	n	n/a
472.781	0.075	945562	keystroke_g	g	n/a
472.931	0.105	945862	keystroke_s	s	n/a
473.381	0.09	946762	keystroke_Key.enter	Key.enter	n/a
473.4755	7.8755	946951	prompt	n/a	streets irish ensuring sailing\n
473.966	0.135	947932	keystroke_s	s	n/a
474.116	0.075	948232	keystroke_t	t	n/a
474.266	0.09	948532	keystroke_r	r	n/a
474.371	0.075	948742	keystroke_e	e	n/a
474.5205	0.09	949041	keystroke_e	e	n/a
474.6255	0.105	949251	keystroke_t	t	n/a
474.7455	0.12	949491	keystroke_s	s	n/a
474.9255	0.075	949851	keystroke_Key.space	Key.space	n/a
475.3605	0.075	950721	keystroke_i	i	n/a
475.4355	0.12	950871	keystroke_r	r	n/a
475.5405	0.0905	951081	keystroke_i	i	n/a
475.6155	0.105	951231	keystroke_s	s	n/a
475.7215	0.089	951443	keystroke_h	h	n/a
476.0505	0.09	952101	keystroke_Key.space	Key.space	n/a
476.3055	0.09	952611	keystroke_e	e	n/a
476.3965	0.09	952793	keystroke_n	n	n/a
476.5155	0.1805	953031	keystroke_s	s	n/a
476.711	0.075	953422	keystroke_u	u	n/a
476.787	0.074	953574	keystroke_r	r	n/a
476.876	0.06	953752	keystroke_i	i	n/a
476.891	0.09	953782	keystroke_n	n	n/a
476.951	0.09	953902	keystroke_g	g	n/a
477.281	0.105	954562	keystroke_Key.space	Key.space	n/a
477.566	0.105	955132	keystroke_s	s	n/a
477.731	0.1495	955462	keystroke_a	a	n/a
477.9255	0.091	955851	keystroke_i	i	n/a
478.1055	0.09	956211	keystroke_l	l	n/a
478.2405	0.105	956481	keystroke_i	i	n/a
478.2855	0.106	956571	keystroke_n	n	n/a
478.3755	0.09	956751	keystroke_g	g	n/a
481.348	0.001	962696	keystroke_Key.enter	Key.enter	n/a
481.354	5.8285	962708	prompt	n/a	zero culture ordered mass\n
482.306	0.06	964612	keystroke_z	z	n/a
482.501	0.0905	965002	keystroke_e	e	n/a
482.5765	0.105	965153	keystroke_r	r	n/a
482.6515	0.09	965303	keystroke_o	o	n/a
482.846	0.09	965692	keystroke_Key.space	Key.space	n/a
483.161	0.15	966322	keystroke_c	c	n/a
483.326	0.075	966652	keystroke_u	u	n/a
483.5215	0.09	967043	keystroke_l	l	n/a
483.6265	0.105	967253	keystroke_t	t	n/a
483.7465	0.075	967493	keystroke_u	u	n/a
483.8655	0.091	967731	keystroke_r	r	n/a
483.8805	0.121	967761	keystroke_e	e	n/a
484.0315	0.03	968063	keystroke_r	r	n/a
484.526	0.09	969052	keystroke_Key.backspace	Key.backspace	n/a
484.826	0.075	969652	keystroke_Key.space	Key.space	n/a
485.186	0.09	970372	keystroke_o	o	n/a
485.321	0.105	970642	keystroke_r	r	n/a
485.546	0.09	971092	keystroke_d	d	n/a
485.771	0.12	971542	keystroke_e	e	n/a
485.861	0.18	971722	keystroke_r	r	n/a
485.966	0.12	971932	keystroke_e	e	n/a
486.161	0.105	972322	keystroke_d	d	n/a
486.326	0.06	972652	keystroke_Key.space	Key.space	n/a
486.461	0.09	972922	keystroke_m	m	n/a
486.521	0.12	973042	keystroke_a	a	n/a
486.656	0.09	973312	keystroke_s	s	n/a
486.791	0.105	973582	keystroke_s	s	n/a
487.121	0.06	974242	keystroke_Key.enter	Key.enter	n/a
487.1895	10.0425	974379	prompt	n/a	campaign basename funk seventh\n
487.916	0.105	975832	keystroke_c	c	n/a
487.976	0.135	975952	keystroke_a	a	n/a
488.051	0.09	976102	keystroke_m	m	n/a
488.246	0.0905	976492	keystroke_p	p	n/a
488.5615	0.12	977123	keystroke_a	a	n/a
488.7115	0.09	977423	keystroke_i	i	n/a
488.8015	0.09	977603	keystroke_g	g	n/a
488.9055	0.075	977811	keystroke_n	n	n/a
489.401	0.075	978802	keystroke_Key.space	Key.space	n/a
489.671	0.075	979342	keystroke_b	b	n/a
489.791	0.12	979582	keystroke_a	a	n/a
489.866	0.15	979732	keystroke_s	s	n/a
489.971	0.12	979942	keystroke_e	e	n/a
490.3155	0.09	980631	keystroke_n	n	n/a
490.4355	0.105	980871	keystroke_a	a	n/a
490.4955	0.09	980991	keystroke_m	m	n/a
490.6005	0.09	981201	keystroke_e	e	n/a
490.8105	0.09	981621	keystroke_Key.space	Key.space	n/a
490.946	0.12	981892	keystroke_f	f	n/a
491.126	0.075	982252	keystroke_u	u	n/a
491.186	0.09	982372	keystroke_n	n	n/a
491.351	0.075	982702	keystroke_k	k	n/a
492.116	0.075	984232	keystroke_Key.space	Key.space	n/a
492.221	0.105	984442	keystroke_s	s	n/a
492.521	0.105	985042	keystroke_e	e	n/a
492.866	0.06	985732	keystroke_Key.backspace	Key.backspace	n/a
493.346	0.09	986692	keystroke_e	e	n/a
493.451	0.12	986902	keystroke_v	v	n/a
493.526	0.135	987052	keystroke_e	e	n/a
493.616	0.09	987232	keystroke_n	n	n/a
493.781	0.075	987562	keystroke_t	t	n/a
494.141	0.09	988282	keystroke_h	h	n/a
497.2185	0.012	994437	keystroke_Key.enter	Key.enter	n/a
497.235	9.687	994470	prompt	n/a	waves blond sequence charlie\n
497.8905	0.03	995781	keystroke_e	e	n/a
497.9055	0.09	995811	keystroke_w	w	n/a
498.3555	0.075	996711	keystroke_Key.backspace	Key.backspace	n/a
498.4755	0.09	996951	keystroke_Key.backspace	Key.backspace	n/a
498.5505	0.135	997101	keystroke_w	w	n/a
498.7005	0.12	997401	keystroke_a	a	n/a
498.9105	0.075	997821	keystroke_v	v	n/a
498.9865	0.104	997973	keystroke_e	e	n/a
499.1955	0.105	998391	keystroke_s	s	n/a
499.3455	0.09	998691	keystroke_Key.space	Key.space	n/a
499.5705	0.09	999141	keystroke_b	b	n/a
499.6455	0.06	999291	keystroke_l	l	n/a
499.7655	0.09	999531	keystroke_o	o	n/a
499.7955	0.105	999591	keystroke_n	n	n/a
499.8705	0.0755	999741	keystroke_d	d	n/a
500.546	0.09	1001092	keystroke_Key.space	Key.space	n/a
500.846	0.135	1001692	keystroke_s	s	n/a
501.071	0.105	1002142	keystroke_e	e	n/a
501.266	0.12	1002532	keystroke_q	q	n/a
501.416	0.06	1002832	keystroke_u	u	n/a
501.506	0.0895	1003012	keystroke_e	e	n/a
501.6105	0.075	1003221	keystroke_n	n	n/a
501.7305	0.105	1003461	keystroke_c	c	n/a
501.7905	0.105	1003581	keystroke_e	e	n/a
501.9855	0.075	1003971	keystroke_Key.space	Key.space	n/a
502.9605	0.12	1005921	keystroke_c	c	n/a
503.0655	0.075	1006131	keystroke_h	h	n/a
503.1555	0.105	1006311	keystroke_a	a	n/a
503.3055	0.12	1006611	keystroke_r	r	n/a
503.4105	0.09	1006821	keystroke_l	l	n/a
503.5605	0.09	1007121	keystroke_i	i	n/a
503.6355	0.105	1007271	keystroke_e	e	n/a
506.8935	0.027	1013787	keystroke_Key.enter	Key.enter	n/a
