onset	duration	sample	value	key	prompt_text
12.424	9.8845	24848	prompt	n/a	the quick brown fox jumps over a lazy dog\n
13.562	0.028	27124	keystroke_t	t	n/a
13.6045	0.0745	27209	keystroke_h	h	n/a
13.7095	0.135	27419	keystroke_e	e	n/a
13.8135	0.106	27627	keystroke_Key.space	Key.space	n/a
14.0695	0.135	28139	keystroke_q	q	n/a
14.3095	0.075	28619	keystroke_u	u	n/a
14.4595	0.09	28919	keystroke_i	i	n/a
14.5645	0.105	29129	keystroke_c	c	n/a
14.6845	0.0905	29369	keystroke_k	k	n/a
14.7885	0.091	29577	keystroke_Key.space	Key.space	n/a
14.9395	0.09	29879	keystroke_b	b	n/a
15.1345	0.0745	30269	keystroke_o	o	n/a
15.2245	0.09	30449	keystroke_r	r	n/a
15.584	0.0755	31168	keystroke_Key.backspace	Key.backspace	n/a
15.719	0.0755	31438	keystroke_Key.backspace	Key.backspace	n/a
15.9295	0.0905	31859	keystroke_r	r	n/a
16.0795	0.105	32159	keystroke_o	o	n/a
16.2595	0.1045	32519	keystroke_w	w	n/a
16.4395	0.075	32879	keystroke_n	n	n/a
16.7235	0.106	33447	keystroke_Key.space	Key.space	n/a
17.5045	0.075	35009	keystroke_f	f	n/a
17.85	0.0895	35700	keystroke_o	o	n/a
17.9845	0.09	35969	keystroke_x	x	n/a
18.1945	0.09	36389	keystroke_Key.space	Key.space	n/a
18.389	0.0605	36778	keystroke_j	j	n/a
18.5695	0.0745	37139	keystroke_u	u	n/a
18.8245	0.0605	37649	keystroke_m	m	n/a
19.4845	0.1055	38969	keystroke_p	p	n/a
19.6495	0.0905	39299	keystroke_s	s	n/a
19.7095	0.12	39419	keystroke_Key.space	Key.space	n/a
19.8595	0.0905	39719	keystroke_o	o	n/a
19.9645	0.105	39929	keystroke_v	v	n/a
20.2045	0.105	40409	keystroke_e	e	n/a
20.279	0.1205	40558	keystroke_r	r	n/a
20.3545	0.12	40709	keystroke_Key.space	Key.space	n/a
20.4895	0.105	40979	keystroke_a	a	n/a
20.5795	0.12	41159	keystroke_Key.space	Key.space	n/a
20.7745	0.1055	41549	keystroke_l	l	n/a
20.8945	0.075	41789	keystroke_a	a	n/a
21.1345	0.105	42269	keystroke_z	z	n/a
21.2845	0.075	42569	keystroke_y	y	n/a
21.4045	0.15	42809	keystroke_Key.space	Key.space	n/a
21.614	0.1055	43228	keystroke_d	d	n/a
21.7345	0.0905	43469	keystroke_o	o	n/a
22.019	0.0905	44038	keystroke_g	g	n/a
22.2145	0.0895	44429	keystroke_Key.enter	Key.enter	n/a
22.3145	6.802	44629	prompt	n/a	recycling email donations purple\n
23.0095	0.135	46019	keystroke_r	r	n/a
23.1295	0.105	46259	keystroke_e	e	n/a
23.4145	0.0745	46829	keystroke_c	c	n/a
24.314	0.0755	48628	keystroke_y	y	n/a
24.479	0.075	48958	keystroke_c	c	n/a
24.8695	0.09	49739	keystroke_l	l	n/a
25.1835	0.151	50367	keystroke_i	i	n/a
25.2745	0.12	50549	keystroke_n	n	n/a
25.3645	0.1655	50729	keystroke_g	g	n/a
25.4845	0.15	50969	keystroke_Key.space	Key.space	n/a
25.65	0.1195	51300	keystroke_e	e	n/a
25.7835	0.1055	51567	keystroke_m	m	n/a
25.95	0.0895	51900	keystroke_a	a	n/a
26.0545	0.0895	52109	keystroke_i	i	n/a
26.264	0.1205	52528	keystroke_l	l	n/a
26.3695	0.0895	52739	keystroke_Key.space	Key.space	n/a
26.55	0.119	53100	keystroke_d	d	n/a
26.7445	0.135	53489	keystroke_o	o	n/a
26.8645	0.0895	53729	keystroke_n	n	n/a
26.999	0.1205	53998	keystroke_a	a	n/a
27.3295	0.105	54659	keystroke_t	t	n/a
27.4495	0.06	54899	keystroke_i	i	n/a
27.5995	0.1195	55199	keystroke_o	o	n/a
27.7045	0.09	55409	keystroke_n	n	n/a
27.7645	0.1345	55529	keystroke_s	s	n/a
27.869	0.12	55738	keystroke_Key.space	Key.space	n/a
28.0045	0.06	56009	keystroke_p	p	n/a
28.2595	0.075	56519	keystroke_u	u	n/a
28.3795	0.1045	56759	keystroke_r	r	n/a
28.589	0.1505	57178	keystroke_p	p	n/a
28.7095	0.105	57419	keystroke_l	l	n/a
28.845	0.104	57690	keystroke_e	e	n/a
29.009	0.105	58018	keystroke_Key.enter	Key.enter	n/a
29.125	9.2915	58250	prompt	n/a	supplier picked aquatic confidential\n
29.744	0.0905	59488	keystroke_s	s	n/a
29.8945	0.0895	59789	keystroke_u	u	n/a
30.194	0.0605	60388	keystroke_p	p	n/a
30.3445	0.135	60689	keystroke_p	p	n/a
30.4495	0.105	60899	keystroke_l	l	n/a
30.7045	0.09	61409	keystroke_i	i	n/a
30.8235	0.1805	61647	keystroke_e	e	n/a
30.9885	0.12	61977	keystroke_r	r	n/a
31.0645	0.119	62129	keystroke_Key.space	Key.space	n/a
31.2295	0.0745	62459	keystroke_p	p	n/a
31.4545	0.0755	62909	keystroke_i	i	n/a
31.589	0.0905	63178	keystroke_c	c	n/a
31.7245	0.09	63449	keystroke_k	k	n/a
31.904	0.0755	63808	keystroke_e	e	n/a
32.099	0.1505	64198	keystroke_d	d	n/a
32.2045	0.1195	64409	keystroke_Key.space	Key.space	n/a
33.1045	0.045	66209	keystroke_s	s	n/a
33.6135	0.106	67227	keystroke_Key.backspace	Key.backspace	n/a
33.7345	0.09	67469	keystroke_a	a	n/a
33.9745	0.12	67949	keystroke_q	q	n/a
34.2895	0.1045	68579	keystroke_u	u	n/a
34.469	0.105	68938	keystroke_a	a	n/a
34.74	0.0745	69480	keystroke_t	t	n/a
34.8895	0.105	69779	keystroke_i	i	n/a
35.0395	0.135	70079	keystroke_c	c	n/a
35.1895	0.09	70379	keystroke_Key.space	Key.space	n/a
35.85	0.09	71700	keystroke_c	c	n/a
35.941	0.134	71882	keystroke_o	o	n/a
36.045	0.119	72090	keystroke_n	n	n/a
36.3145	0.0895	72629	keystroke_f	f	n/a
36.434	0.105	72868	keystroke_i	i	n/a
36.749	0.075	73498	keystroke_d	d	n/a
37.2595	0.074	74519	keystroke_e	e	n/a
37.4095	0.075	74819	keystroke_n	n	n/a
37.6045	0.075	75209	keystroke_t	t	n/a
37.7545	0.09	75509	keystroke_i	i	n/a
37.934	0.09	75868	keystroke_a	a	n/a
38.0545	0.1055	76109	keystroke_l	l	n/a
38.324	0.09	76648	keystroke_Key.enter	Key.enter	n/a
38.422	12.7295	76844	prompt	n/a	phpbb receptors register regardless\n
39.1795	0.105	78359	keystroke_p	p	n/a
39.51	0.074	79020	keystroke_h	h	n/a
40.1545	0.0895	80309	keystroke_p	p	n/a
40.484	0.03	80968	keystroke_n	n	n/a
40.6345	0.045	81269	keystroke_n	n	n/a
40.8895	0.1045	81779	keystroke_Key.space	Key.space	n/a
41.4445	0.06	82889	keystroke_Key.backspace	Key.backspace	n/a
41.5795	0.075	83159	keystroke_Key.backspace	Key.backspace	n/a
41.7145	0.075	83429	keystroke_Key.backspace	Key.backspace	n/a
42.09	0.0145	84180	keystroke_b	b	n/a
42.225	0.0445	84450	keystroke_n	n	n/a
42.7945	0.09	85589	keystroke_Key.backspace	Key.backspace	n/a
43.11	0.06	86220	keystroke_n	n	n/a
43.6495	0.09	87299	keystroke_Key.backspace	Key.backspace	n/a
44.1445	0.09	88289	keystroke_b	b	n/a
44.4445	0.075	88889	keystroke_Key.space	Key.space	n/a
44.969	0.195	89938	keystroke_r	r	n/a
45.0895	0.1055	90179	keystroke_e	e	n/a
45.794	0.016	91588	keystroke_c	c	n/a
45.914	0.1205	91828	keystroke_e	e	n/a
46.0945	0.105	92189	keystroke_p	p	n/a
46.29	0.0745	92580	keystroke_t	t	n/a
46.589	0.0905	93178	keystroke_o	o	n/a
46.7695	0.12	93539	keystroke_r	r	n/a
46.9945	0.12	93989	keystroke_s	s	n/a
47.0995	0.12	94199	keystroke_Key.space	Key.space	n/a
47.3105	0.1345	94621	keystroke_r	r	n/a
47.4295	0.1055	94859	keystroke_e	e	n/a
47.6995	0.075	95399	keystroke_g	g	n/a
47.8645	0.075	95729	keystroke_i	i	n/a
48.0295	0.09	96059	keystroke_s	s	n/a
48.2695	0.075	96539	keystroke_t	t	n/a
48.5095	0.135	97019	keystroke_e	e	n/a
48.6145	0.12	97229	keystroke_r	r	n/a
48.7045	0.12	97409	keystroke_Key.space	Key.space	n/a
48.8995	0.09	97799	keystroke_r	r	n/a
49.0345	0.0905	98069	keystroke_e	e	n/a
49.365	0.09	98730	keystroke_g	g	n/a
49.5895	0.105	99179	keystroke_a	a	n/a
49.8145	0.06	99629	keystroke_r	r	n/a
50.0095	0.0605	100019	keystroke_d	d	n/a
50.2045	0.09	100409	keystroke_l	l	n/a
50.3395	0.075	100679	keystroke_e	e	n/a
50.5495	0.0755	101099	keystroke_s	s	n/a
50.699	0.076	101398	keystroke_s	s	n/a
51.0445	0.1055	102089	keystroke_Key.enter	Key.enter	n/a
51.1565	6.491	102313	prompt	n/a	amounts chicken obtaining true\n
51.7495	0.0755	103499	keystroke_a	a	n/a
51.8995	0.075	103799	keystroke_m	m	n/a
52.11	0.06	104220	keystroke_o	o	n/a
52.365	0.0895	104730	keystroke_u	u	n/a
52.4245	0.12	104849	keystroke_n	n	n/a
52.5145	0.135	105029	keystroke_t	t	n/a
52.664	0.1205	105328	keystroke_s	s	n/a
52.769	0.1205	105538	keystroke_Key.space	Key.space	n/a
53.0845	0.105	106169	keystroke_c	c	n/a
53.2795	0.06	106559	keystroke_h	h	n/a
53.4445	0.09	106889	keystroke_i	i	n/a
53.549	0.075	107098	keystroke_c	c	n/a
53.684	0.09	107368	keystroke_k	k	n/a
53.82	0.0895	107640	keystroke_e	e	n/a
53.984	0.075	107968	keystroke_n	n	n/a
54.104	0.105	108208	keystroke_Key.space	Key.space	n/a
55.514	0.076	111028	keystroke_o	o	n/a
55.619	0.061	111238	keystroke_b	b	n/a
55.8595	0.0745	111719	keystroke_t	t	n/a
55.994	0.121	111988	keystroke_a	a	n/a
56.1895	0.1205	112379	keystroke_i	i	n/a
56.325	0.045	112650	keystroke_n	n	n/a
56.4595	0.135	112919	keystroke_i	i	n/a
56.5805	0.1195	113161	keystroke_n	n	n/a
56.7145	0.105	113429	keystroke_g	g	n/a
56.805	0.1045	113610	keystroke_Key.space	Key.space	n/a
56.97	0.134	113940	keystroke_t	t	n/a
57.1195	0.1205	114239	keystroke_r	r	n/a
57.284	0.0455	114568	keystroke_u	u	n/a
57.389	0.105	114778	keystroke_e	e	n/a
57.5545	0.09	115109	keystroke_Key.enter	Key.enter	n/a
57.652	6.61	115304	prompt	n/a	ties vietnamese taxes nearby\n
58.3055	0.0895	116611	keystroke_t	t	n/a
58.4395	0.09	116879	keystroke_i	i	n/a
58.5595	0.21	117119	keystroke_e	e	n/a
58.7545	0.165	117509	keystroke_s	s	n/a
58.9345	0.09	117869	keystroke_Key.space	Key.space	n/a
59.205	0.0895	118410	keystroke_v	v	n/a
59.4595	0.075	118919	keystroke_i	i	n/a
59.6395	0.105	119279	keystroke_e	e	n/a
59.8645	0.09	119729	keystroke_t	t	n/a
60.1645	0.09	120329	keystroke_n	n	n/a
60.3445	0.1055	120689	keystroke_a	a	n/a
60.5095	0.105	121019	keystroke_m	m	n/a
60.7645	0.075	121529	keystroke_e	e	n/a
60.9895	0.105	121979	keystroke_s	s	n/a
61.1545	0.135	122309	keystroke_e	e	n/a
61.2595	0.12	122519	keystroke_Key.space	Key.space	n/a
61.424	0.106	122848	keystroke_t	t	n/a
61.59	0.105	123180	keystroke_a	a	n/a
61.9045	0.12	123809	keystroke_x	x	n/a
62.3545	0.165	124709	keystroke_e	e	n/a
62.49	0.1645	124980	keystroke_s	s	n/a
62.6555	0.104	125311	keystroke_Key.space	Key.space	n/a
62.999	0.09	125998	keystroke_n	n	n/a
63.0745	0.1945	126149	keystroke_e	e	n/a
63.2545	0.0895	126509	keystroke_a	a	n/a
63.4345	0.09	126869	keystroke_r	r	n/a
63.689	0.0905	127378	keystroke_b	b	n/a
63.9145	0.09	127829	keystroke_y	y	n/a
64.169	0.09	128338	keystroke_Key.enter	Key.enter	n/a
64.267	13.809	128534	prompt	n/a	democrat maria biodiversity lottery\n
64.8895	0.105	129779	keystroke_d	d	n/a
65.1145	0.0905	130229	keystroke_e	e	n/a
65.2795	0.0755	130559	keystroke_m	m	n/a
65.46	0.089	130920	keystroke_o	o	n/a
65.76	0.089	131520	keystroke_c	c	n/a
66.075	0.059	132150	keystroke_r	r	n/a
66.36	0.104	132720	keystroke_a	a	n/a
66.57	0.1045	133140	keystroke_t	t	n/a
66.6595	0.12	133319	keystroke_Key.space	Key.space	n/a
66.855	0.105	133710	keystroke_m	m	n/a
66.9895	0.1195	133979	keystroke_a	a	n/a
67.214	0.091	134428	keystroke_r	r	n/a
67.454	0.091	134908	keystroke_i	i	n/a
67.589	0.1355	135178	keystroke_a	a	n/a
67.695	0.1045	135390	keystroke_Key.space	Key.space	n/a
67.9645	0.09	135929	keystroke_b	b	n/a
68.2045	0.105	136409	keystroke_i	i	n/a
68.4595	0.09	136919	keystroke_o	o	n/a
69.2545	0.1055	138509	keystroke_d	d	n/a
69.405	0.1045	138810	keystroke_i	i	n/a
69.6295	0.075	139259	keystroke_v	v	n/a
70.0945	0.12	140189	keystroke_e	e	n/a
70.1995	0.09	140399	keystroke_r	r	n/a
70.68	0.09	141360	keystroke_s	s	n/a
70.7995	0.0905	141599	keystroke_i	i	n/a
71.085	0.134	142170	keystroke_r	r	n/a
71.2945	0.135	142589	keystroke_t	t	n/a
71.414	0.09	142828	keystroke_Key.space	Key.space	n/a
71.654	0.0755	143308	keystroke_l	l	n/a
71.835	0.0745	143670	keystroke_o	o	n/a
71.939	0.045	143878	keystroke_t	t	n/a
72.27	0.0445	144540	keystroke_=	=	n/a
72.39	0.075	144780	keystroke_=	=	n/a
72.674	0.076	145348	keystroke_=	=	n/a
73.4395	0.075	146879	keystroke_Key.backspace	Key.backspace	n/a
73.6045	0.06	147209	keystroke_Key.backspace	Key.backspace	n/a
73.7395	0.075	147479	keystroke_Key.backspace	Key.backspace	n/a
73.875	0.0595	147750	keystroke_Key.backspace	Key.backspace	n/a
74.01	0.075	148020	keystroke_Key.backspace	Key.backspace	n/a
74.16	0.06	148320	keystroke_Key.backspace	Key.backspace	n/a
74.294	0.076	148588	keystroke_Key.backspace	Key.backspace	n/a
74.475	0.075	148950	keystroke_Key.backspace	Key.backspace	n/a
74.744	0.09	149488	keystroke_Key.backspace	Key.backspace	n/a
75.059	0.091	150118	keystroke_Key.backspace	Key.backspace	n/a
75.794	0.09	151588	keystroke_i	i	n/a
75.899	0.076	151798	keystroke_t	t	n/a
76.079	0.12	152158	keystroke_y	y	n/a
76.214	0.105	152428	keystroke_Key.space	Key.space	n/a
76.845	0.0895	153690	keystroke_l	l	n/a
77.0245	0.09	154049	keystroke_o	o	n/a
77.1595	0.0605	154319	keystroke_t	t	n/a
77.28	0.1195	154560	keystroke_t	t	n/a
77.5045	0.1355	155009	keystroke_e	e	n/a
77.5945	0.1055	155189	keystroke_r	r	n/a
77.745	0.06	155490	keystroke_y	y	n/a
77.999	0.075	155998	keystroke_Key.enter	Key.enter	n/a
78.084	7.867	156168	prompt	n/a	largest dealing safe aspects\n
78.72	0.12	157440	keystroke_k	k	n/a
78.885	0.12	157770	keystroke_a	a	n/a
79.095	0.075	158190	keystroke_r	r	n/a
79.3795	0.06	158759	keystroke_Key.backspace	Key.backspace	n/a
79.5145	0.075	159029	keystroke_Key.backspace	Key.backspace	n/a
79.6495	0.06	159299	keystroke_Key.backspace	Key.backspace	n/a
80.0995	0.075	160199	keystroke_l	l	n/a
80.175	0.0895	160350	keystroke_a	a	n/a
80.3545	0.09	160709	keystroke_r	r	n/a
80.55	0.0745	161100	keystroke_g	g	n/a
80.6395	0.0905	161279	keystroke_e	e	n/a
81.18	0.1045	162360	keystroke_s	s	n/a
81.4045	0.105	162809	keystroke_t	t	n/a
81.4945	0.0905	162989	keystroke_Key.space	Key.space	n/a
81.8245	0.0905	163649	keystroke_d	d	n/a
82.065	0.135	164130	keystroke_e	e	n/a
82.2	0.105	164400	keystroke_a	a	n/a
82.245	0.104	164490	keystroke_l	l	n/a
82.574	0.12	165148	keystroke_i	i	n/a
82.6645	0.1055	165329	keystroke_n	n	n/a
82.754	0.1505	165508	keystroke_g	g	n/a
82.8745	0.12	165749	keystroke_Key.space	Key.space	n/a
83.0545	0.1055	166109	keystroke_s	s	n/a
83.279	0.1055	166558	keystroke_a	a	n/a
83.4145	0.1195	166829	keystroke_f	f	n/a
83.564	0.1355	167128	keystroke_e	e	n/a
83.67	0.105	167340	keystroke_Key.space	Key.space	n/a
84.3	0.09	168600	keystroke_a	a	n/a
84.5245	0.0905	169049	keystroke_s	s	n/a
84.7795	0.105	169559	keystroke_p	p	n/a
84.8995	0.09	169799	keystroke_e	e	n/a
85.1545	0.09	170309	keystroke_c	c	n/a
85.4245	0.18	170849	keystroke_t	t	n/a
85.6195	0.1505	171239	keystroke_s	s	n/a
85.844	0.105	171688	keystroke_Key.enter	Key.enter	n/a
85.9545	6.477	171909	prompt	n/a	indigenous concerns animal inches\n
87.03	0.1345	174060	keystroke_i	i	n/a
87.1045	0.12	174209	keystroke_n	n	n/a
87.2995	0.1205	174599	keystroke_d	d	n/a
87.4645	0.0755	174929	keystroke_i	i	n/a
87.7795	0.075	175559	keystroke_g	g	n/a
87.93	0.105	175860	keystroke_e	e	n/a
88.08	0.0905	176160	keystroke_n	n	n/a
88.29	0.075	176580	keystroke_o	o	n/a
88.5	0.09	177000	keystroke_u	u	n/a
88.59	0.12	177180	keystroke_s	s	n/a
88.6945	0.1045	177389	keystroke_Key.space	Key.space	n/a
89.0245	0.0895	178049	keystroke_c	c	n/a
89.1445	0.1505	178289	keystroke_o	o	n/a
89.279	0.0905	178558	keystroke_n	n	n/a
89.385	0.104	178770	keystroke_c	c	n/a
89.61	0.119	179220	keystroke_e	e	n/a
89.684	0.1205	179368	keystroke_r	r	n/a
89.834	0.09	179668	keystroke_n	n	n/a
90	0.104	180000	keystroke_s	s	n/a
90.09	0.104	180180	keystroke_Key.space	Key.space	n/a
90.33	0.09	180660	keystroke_a	a	n/a
90.45	0.089	180900	keystroke_n	n	n/a
90.645	0.075	181290	keystroke_i	i	n/a
90.839	0.091	181678	keystroke_m	m	n/a
90.944	0.09	181888	keystroke_a	a	n/a
91.095	0.089	182190	keystroke_l	l	n/a
91.199	0.091	182398	keystroke_Key.space	Key.space	n/a
91.41	0.104	182820	keystroke_i	i	n/a
91.4855	0.0885	182971	keystroke_n	n	n/a
91.635	0.105	183270	keystroke_c	c	n/a
91.8145	0.0745	183629	keystroke_h	h	n/a
91.9195	0.195	183839	keystroke_e	e	n/a
92.1	0.1195	184200	keystroke_s	s	n/a
92.3105	0.119	184621	keystroke_Key.enter	Key.enter	n/a
92.436	12.507	184872	prompt	n/a	encounter refined integrating discipline\n
93.0745	0.105	186149	keystroke_e	e	n/a
93.1645	0.075	186329	keystroke_n	n	n/a
93.4345	0.075	186869	keystroke_c	c	n/a
93.5245	0.0755	187049	keystroke_o	o	n/a
93.7945	0.0905	187589	keystroke_u	u	n/a
93.8245	0.12	187649	keystroke_n	n	n/a
94.2745	0.0755	188549	keystroke_t	t	n/a
94.44	0.134	188880	keystroke_e	e	n/a
94.545	0.1645	189090	keystroke_r	r	n/a
94.694	0.1055	189388	keystroke_Key.space	Key.space	n/a
94.8595	0.1345	189719	keystroke_r	r	n/a
94.979	0.0905	189958	keystroke_e	e	n/a
95.2945	0.076	190589	keystroke_f	f	n/a
95.4895	0.135	190979	keystroke_i	i	n/a
95.5795	0.12	191159	keystroke_n	n	n/a
95.76	0.0895	191520	keystroke_d	d	n/a
95.9995	0.06	191999	keystroke_e	e	n/a
96.2245	0.075	192449	keystroke_d	d	n/a
96.735	0.075	193470	keystroke_Key.backspace	Key.backspace	n/a
96.87	0.09	193740	keystroke_Key.backspace	Key.backspace	n/a
97.019	0.0905	194038	keystroke_Key.backspace	Key.backspace	n/a
97.17	0.045	194340	keystroke_e	e	n/a
97.38	0.105	194760	keystroke_d	d	n/a
97.47	0.1045	194940	keystroke_Key.space	Key.space	n/a
97.935	0.135	195870	keystroke_i	i	n/a
98.025	0.1045	196050	keystroke_n	n	n/a
98.2495	0.0895	196499	keystroke_t	t	n/a
98.445	0.0895	196890	keystroke_e	e	n/a
98.715	0.06	197430	keystroke_g	g	n/a
98.94	0.105	197880	keystroke_r	r	n/a
99.1055	0.119	198211	keystroke_a	a	n/a
99.345	0.0745	198690	keystroke_t	t	n/a
99.5395	0.12	199079	keystroke_i	i	n/a
99.6145	0.12	199229	keystroke_n	n	n/a
99.7495	0.1355	199499	keystroke_g	g	n/a
99.855	0.1195	199710	keystroke_Key.space	Key.space	n/a
100.1095	0.105	200219	keystroke_d	d	n/a
100.3345	0.105	200669	keystroke_i	i	n/a
100.679	0.106	201358	keystroke_c	c	n/a
101.3545	0.075	202709	keystroke_Key.backspace	Key.backspace	n/a
101.4145	0.105	202829	keystroke_s	s	n/a
101.9995	0.1055	203999	keystroke_c	c	n/a
102.24	0.1045	204480	keystroke_i	i	n/a
102.945	0.059	205890	keystroke_p	p	n/a
102.99	0.1195	205980	keystroke_l	l	n/a
103.3345	0.1505	206669	keystroke_i	i	n/a
103.5	0.12	207000	keystroke_n	n	n/a
103.6045	0.12	207209	keystroke_e	e	n/a
104.3245	0.15	208649	keystroke_Key.space	Key.space	n/a
104.6395	0.06	209279	keystroke_Key.backspace	Key.backspace	n/a
104.8495	0.09	209699	keystroke_Key.enter	Key.enter	n/a
104.951	6.7705	209902	prompt	n/a	magical common bailey quality\n
105.5845	0.09	211169	keystroke_m	m	n/a
105.6595	0.09	211319	keystroke_a	a	n/a
105.8695	0.075	211739	keystroke_g	g	n/a
105.9745	0.09	211949	keystroke_i	i	n/a
106.1845	0.075	212369	keystroke_c	c	n/a
106.3645	0.06	212729	keystroke_a	a	n/a
106.4395	0.075	212879	keystroke_l	l	n/a
106.5295	0.1055	213059	keystroke_Key.space	Key.space	n/a
106.74	0.06	213480	keystroke_a	a	n/a
107.039	0.091	214078	keystroke_Key.backspace	Key.backspace	n/a
107.175	0.09	214350	keystroke_c	c	n/a
107.355	0.075	214710	keystroke_o	o	n/a
107.565	0.045	215130	keystroke_m	m	n/a
107.7	0.06	215400	keystroke_m	m	n/a
107.9095	0.15	215819	keystroke_o	o	n/a
108.0445	0.075	216089	keystroke_n	n	n/a
108.1345	0.0895	216269	keystroke_Key.space	Key.space	n/a
108.2845	0.0905	216569	keystroke_b	b	n/a
108.4345	0.075	216869	keystroke_a	a	n/a
109.0195	0.12	218039	keystroke_i	i	n/a
109.2595	0.1195	218519	keystroke_l	l	n/a
109.44	0.134	218880	keystroke_y	y	n/a
109.529	0.151	219058	keystroke_Key.space	Key.space	n/a
110.579	0.09	221158	keystroke_q	q	n/a
110.7595	0.075	221519	keystroke_u	u	n/a
110.8495	0.1055	221699	keystroke_a	a	n/a
110.985	0.1055	221970	keystroke_l	l	n/a
111.195	0.075	222390	keystroke_i	i	n/a
111.285	0.075	222570	keystroke_t	t	n/a
111.45	0.074	222900	keystroke_y	y	n/a
111.6445	0.075	223289	keystroke_Key.enter	Key.enter	n/a
111.7255	8.8755	223451	prompt	n/a	we departmental fonts afghanistan\n
112.56	0.0595	225120	keystroke_w	w	n/a
112.605	0.105	225210	keystroke_e	e	n/a
112.634	0.09	225268	keystroke_Key.space	Key.space	n/a
112.814	0.09	225628	keystroke_d	d	n/a
113.01	0.06	226020	keystroke_e	e	n/a
113.19	0.074	226380	keystroke_a	a	n/a
113.325	0.09	226650	keystroke_p	p	n/a
114.1195	0.03	228239	keystroke_Key.backspace	Key.backspace	n/a
114.239	0.061	228478	keystroke_Key.backspace	Key.backspace	n/a
114.555	0.09	229110	keystroke_p	p	n/a
114.66	0.105	229320	keystroke_a	a	n/a
114.84	0.075	229680	keystroke_r	r	n/a
115.05	0.09	230100	keystroke_t	t	n/a
115.2305	0.0745	230461	keystroke_m	m	n/a
115.35	0.09	230700	keystroke_e	e	n/a
115.47	0.075	230940	keystroke_n	n	n/a
115.605	0.105	231210	keystroke_t	t	n/a
115.95	0.1195	231900	keystroke_a	a	n/a
116.0845	0.0905	232169	keystroke_l	l	n/a
116.235	0.0895	232470	keystroke_Key.space	Key.space	n/a
116.64	0.09	233280	keystroke_f	f	n/a
116.8495	0.105	233699	keystroke_o	o	n/a
116.9395	0.09	233879	keystroke_n	n	n/a
117.045	0.09	234090	keystroke_t	t	n/a
117.1795	0.12	234359	keystroke_s	s	n/a
117.2845	0.1195	234569	keystroke_Key.space	Key.space	n/a
117.615	0.1045	235230	keystroke_a	a	n/a
117.794	0.106	235588	keystroke_f	f	n/a
118.2	0.059	236400	keystroke_g	g	n/a
118.575	0.09	237150	keystroke_h	h	n/a
118.7395	0.1055	237479	keystroke_a	a	n/a
118.965	0.09	237930	keystroke_n	n	n/a
119.175	0.105	238350	keystroke_i	i	n/a
119.325	0.105	238650	keystroke_s	s	n/a
119.849	0.121	239698	keystroke_t	t	n/a
120.075	0.12	240150	keystroke_a	a	n/a
120.18	0.0895	240360	keystroke_n	n	n/a
120.54	0.0595	241080	keystroke_Key.enter	Key.enter	n/a
120.6055	6.178	241211	prompt	n/a	profit fail besides emerging\n
121.545	0.074	243090	keystroke_p	p	n/a
121.6645	0.0895	243329	keystroke_r	r	n/a
121.799	0.09	243598	keystroke_o	o	n/a
121.994	0.0755	243988	keystroke_f	f	n/a
122.129	0.091	244258	keystroke_i	i	n/a
122.31	0.105	244620	keystroke_t	t	n/a
122.384	0.105	244768	keystroke_Key.space	Key.space	n/a
122.609	0.0905	245218	keystroke_f	f	n/a
122.76	0.1045	245520	keystroke_a	a	n/a
122.85	0.089	245700	keystroke_i	i	n/a
123.045	0.0895	246090	keystroke_l	l	n/a
123.15	0.09	246300	keystroke_Key.space	Key.space	n/a
123.33	0.0595	246660	keystroke_b	b	n/a
123.4045	0.075	246809	keystroke_e	e	n/a
123.5845	0.105	247169	keystroke_s	s	n/a
123.78	0.0895	247560	keystroke_i	i	n/a
123.9445	0.105	247889	keystroke_d	d	n/a
124.215	0.1345	248430	keystroke_e	e	n/a
124.4095	0.166	248819	keystroke_s	s	n/a
124.7845	0.1055	249569	keystroke_Key.space	Key.space	n/a
125.1745	0.075	250349	keystroke_e	e	n/a
125.2345	0.0905	250469	keystroke_m	m	n/a
125.3695	0.1505	250739	keystroke_e	e	n/a
125.49	0.0895	250980	keystroke_r	r	n/a
125.7605	0.059	251521	keystroke_g	g	n/a
125.865	0.1495	251730	keystroke_i	i	n/a
125.9845	0.0905	251969	keystroke_n	n	n/a
126.0895	0.076	252179	keystroke_g	g	n/a
126.689	0.09	253378	keystroke_Key.enter	Key.enter	n/a
126.7875	5.199	253575	prompt	n/a	voices bath court fiscal\n
127.4245	0.1355	254849	keystroke_v	v	n/a
127.7695	0.0905	255539	keystroke_o	o	n/a
127.9645	0.09	255929	keystroke_i	i	n/a
128.0695	0.0895	256139	keystroke_c	c	n/a
128.325	0.149	256650	keystroke_e	e	n/a
128.444	0.136	256888	keystroke_s	s	n/a
128.55	0.12	257100	keystroke_Key.space	Key.space	n/a
128.7	0.075	257400	keystroke_b	b	n/a
128.805	0.105	257610	keystroke_a	a	n/a
129.045	0.06	258090	keystroke_t	t	n/a
129.135	0.09	258270	keystroke_h	h	n/a
129.21	0.105	258420	keystroke_Key.space	Key.space	n/a
129.5695	0.1205	259139	keystroke_c	c	n/a
129.6595	0.075	259319	keystroke_o	o	n/a
129.87	0.075	259740	keystroke_u	u	n/a
129.9605	0.074	259921	keystroke_r	r	n/a
130.1245	0.12	260249	keystroke_t	t	n/a
130.23	0.1195	260460	keystroke_Key.space	Key.space	n/a
130.5745	0.075	261149	keystroke_f	f	n/a
130.74	0.09	261480	keystroke_i	i	n/a
131.01	0.0895	262020	keystroke_s	s	n/a
131.295	0.09	262590	keystroke_c	c	n/a
131.475	0.075	262950	keystroke_a	a	n/a
131.58	0.105	263160	keystroke_l	l	n/a
131.88	0.1045	263760	keystroke_Key.enter	Key.enter	n/a
131.991	6.8805	263982	prompt	n/a	contents farm margaret bids\n
132.675	0.105	265350	keystroke_c	c	n/a
132.7945	0.0155	265589	keystroke_o	o	n/a
132.8395	0.0905	265679	keystroke_n	n	n/a
132.975	0.0895	265950	keystroke_t	t	n/a
133.14	0.105	266280	keystroke_e	e	n/a
133.26	0.09	266520	keystroke_n	n	n/a
133.38	0.12	266760	keystroke_t	t	n/a
133.545	0.105	267090	keystroke_s	s	n/a
133.635	0.105	267270	keystroke_Key.space	Key.space	n/a
133.86	0.09	267720	keystroke_f	f	n/a
134.07	0.104	268140	keystroke_a	a	n/a
134.415	0.075	268830	keystroke_r	r	n/a
134.535	0.09	269070	keystroke_m	m	n/a
134.655	0.09	269310	keystroke_Key.space	Key.space	n/a
135.045	0.075	270090	keystroke_m	m	n/a
135.135	0.105	270270	keystroke_a	a	n/a
135.57	0.0745	271140	keystroke_r	r	n/a
136.3795	0.0755	272759	keystroke_g	g	n/a
136.725	0.1495	273450	keystroke_a	a	n/a
136.995	0.15	273990	keystroke_r	r	n/a
137.1895	0.1195	274379	keystroke_e	e	n/a
137.534	0.076	275068	keystroke_t	t	n/a
137.654	0.091	275308	keystroke_Key.space	Key.space	n/a
137.97	0.0895	275940	keystroke_b	b	n/a
138.255	0.015	276510	keystroke_i	i	n/a
138.285	0.135	276570	keystroke_d	d	n/a
138.449	0.121	276898	keystroke_s	s	n/a
138.764	0.1055	277528	keystroke_Key.enter	Key.enter	n/a
138.876	6.79	277752	prompt	n/a	patients matrix extends euro\n
139.44	0.1045	278880	keystroke_p	p	n/a
139.53	0.0895	279060	keystroke_a	a	n/a
139.7695	0.075	279539	keystroke_t	t	n/a
139.905	0.075	279810	keystroke_i	i	n/a
140.0695	0.105	280139	keystroke_e	e	n/a
140.2195	0.105	280439	keystroke_n	n	n/a
140.3545	0.09	280709	keystroke_t	t	n/a
140.46	0.12	280920	keystroke_s	s	n/a
140.5495	0.1055	281099	keystroke_Key.space	Key.space	n/a
140.6995	0.1055	281399	keystroke_m	m	n/a
140.7895	0.0905	281579	keystroke_a	a	n/a
140.9695	0.1205	281939	keystroke_t	t	n/a
141.1495	0.1205	282299	keystroke_r	r	n/a
141.4045	0.09	282809	keystroke_i	i	n/a
141.7495	0.1055	283499	keystroke_x	x	n/a
142.034	0.09	284068	keystroke_Key.space	Key.space	n/a
142.305	0.09	284610	keystroke_e	e	n/a
142.845	0.074	285690	keystroke_x	x	n/a
143.19	0.09	286380	keystroke_t	t	n/a
143.339	0.091	286678	keystroke_e	e	n/a
143.52	0.09	287040	keystroke_n	n	n/a
143.67	0.12	287340	keystroke_d	d	n/a
143.91	0.12	287820	keystroke_s	s	n/a
144	0.105	288000	keystroke_Key.space	Key.space	n/a
144.524	0.091	289048	keystroke_e	e	n/a
144.6745	0.1055	289349	keystroke_u	u	n/a
145.1545	0.1045	290309	keystroke_r	r	n/a
145.32	0.1195	290640	keystroke_o	o	n/a
145.544	0.12	291088	keystroke_Key.enter	Key.enter	n/a
145.6745	6.532	291349	prompt	n/a	msie decide sharp usps\n
146.384	0.076	292768	keystroke_m	m	n/a
146.6845	0.09	293369	keystroke_s	s	n/a
146.8495	0.12	293699	keystroke_i	i	n/a
147.0295	0.15	294059	keystroke_e	e	n/a
147.1495	0.105	294299	keystroke_Key.space	Key.space	n/a
147.4945	0.105	294989	keystroke_d	d	n/a
147.72	0.0745	295440	keystroke_e	e	n/a
147.9595	0.105	295919	keystroke_c	c	n/a
148.1245	0.1045	296249	keystroke_i	i	n/a
148.5445	0.1045	297089	keystroke_d	d	n/a
148.814	0.1205	297628	keystroke_e	e	n/a
148.9045	0.12	297809	keystroke_Key.space	Key.space	n/a
149.3845	0.105	298769	keystroke_s	s	n/a
149.5645	0.09	299129	keystroke_h	h	n/a
149.715	0.105	299430	keystroke_a	a	n/a
149.9395	0.0745	299879	keystroke_r	r	n/a
150.134	0.09	300268	keystroke_p	p	n/a
150.284	0.105	300568	keystroke_Key.space	Key.space	n/a
151.035	0.09	302070	keystroke_u	u	n/a
151.154	0.121	302308	keystroke_s	s	n/a
151.455	0.105	302910	keystroke_p	p	n/a
151.874	0.106	303748	keystroke_s	s	n/a
152.099	0.105	304198	keystroke_Key.enter	Key.enter	n/a
152.2105	6.9555	304421	prompt	n/a	answer idle corresponding gains\n
152.9095	0.075	305819	keystroke_a	a	n/a
153.0295	0.12	306059	keystroke_n	n	n/a
153.299	0.0755	306598	keystroke_s	s	n/a
153.584	0.18	307168	keystroke_w	w	n/a
153.749	0.1055	307498	keystroke_e	e	n/a
154.02	0.075	308040	keystroke_r	r	n/a
154.1845	0.105	308369	keystroke_Key.space	Key.space	n/a
154.4845	0.0755	308969	keystroke_i	i	n/a
154.575	0.0745	309150	keystroke_d	d	n/a
154.9045	0.06	309809	keystroke_l	l	n/a
155.3695	0.12	310739	keystroke_e	e	n/a
155.4745	0.105	310949	keystroke_Key.space	Key.space	n/a
155.9095	0.0905	311819	keystroke_c	c	n/a
156.0295	0.075	312059	keystroke_o	o	n/a
156.1795	0.045	312359	keystroke_r	r	n/a
156.2845	0.105	312569	keystroke_r	r	n/a
156.405	0.179	312810	keystroke_e	e	n/a
156.554	0.15	313108	keystroke_s	s	n/a
157.0195	0.075	314039	keystroke_p	p	n/a
157.2295	0.105	314459	keystroke_o	o	n/a
157.3945	0.1055	314789	keystroke_n	n	n/a
157.545	0.09	315090	keystroke_d	d	n/a
157.77	0.134	315540	keystroke_i	i	n/a
157.89	0.105	315780	keystroke_n	n	n/a
158.025	0.119	316050	keystroke_g	g	n/a
158.084	0.135	316168	keystroke_Key.space	Key.space	n/a
158.4745	0.09	316949	keystroke_g	g	n/a
158.565	0.1345	317130	keystroke_a	a	n/a
158.6845	0.1205	317369	keystroke_i	i	n/a
158.7745	0.09	317549	keystroke_n	n	n/a
158.8795	0.105	317759	keystroke_s	s	n/a
159.0445	0.12	318089	keystroke_Key.enter	Key.enter	n/a
159.172	6.1595	318344	prompt	n/a	rack outputs greenhouse print\n
159.7945	0.09	319589	keystroke_r	r	n/a
159.9145	0.1505	319829	keystroke_a	a	n/a
160.2145	0.1045	320429	keystroke_c	c	n/a
160.349	0.0905	320698	keystroke_k	k	n/a
160.484	0.0905	320968	keystroke_Key.space	Key.space	n/a
160.6495	0.075	321299	keystroke_o	o	n/a
160.8745	0.06	321749	keystroke_u	u	n/a
160.9785	0.0905	321957	keystroke_t	t	n/a
161.354	0.0755	322708	keystroke_p	p	n/a
161.624	0.075	323248	keystroke_u	u	n/a
161.729	0.121	323458	keystroke_t	t	n/a
161.985	0.119	323970	keystroke_s	s	n/a
162.3295	0.1205	324659	keystroke_Key.space	Key.space	n/a
162.6	0.0895	325200	keystroke_g	g	n/a
162.8395	0.09	325679	keystroke_r	r	n/a
163.0045	0.09	326009	keystroke_e	e	n/a
163.17	0.089	326340	keystroke_e	e	n/a
163.3045	0.09	326609	keystroke_n	n	n/a
163.5745	0.09	327149	keystroke_h	h	n/a
163.739	0.0905	327478	keystroke_o	o	n/a
163.9495	0.0905	327899	keystroke_u	u	n/a
164.0245	0.09	328049	keystroke_s	s	n/a
164.22	0.1045	328440	keystroke_e	e	n/a
164.2795	0.12	328559	keystroke_Key.space	Key.space	n/a
164.4745	0.06	328949	keystroke_p	p	n/a
164.6095	0.09	329219	keystroke_r	r	n/a
164.8045	0.105	329609	keystroke_i	i	n/a
164.88	0.0895	329760	keystroke_n	n	n/a
165.0145	0.09	330029	keystroke_t	t	n/a
165.2245	0.105	330449	keystroke_Key.enter	Key.enter	n/a
165.336	6.145	330672	prompt	n/a	needs landing tramadol timely\n
166.0645	0.105	332129	keystroke_n	n	n/a
166.1545	0.06	332309	keystroke_e	e	n/a
166.2745	0.09	332549	keystroke_e	e	n/a
166.4995	0.135	332999	keystroke_d	d	n/a
166.65	0.1495	333300	keystroke_s	s	n/a
166.7545	0.105	333509	keystroke_Key.space	Key.space	n/a
166.9645	0.1055	333929	keystroke_l	l	n/a
167.085	0.0745	334170	keystroke_a	a	n/a
167.2495	0.075	334499	keystroke_n	n	n/a
167.3095	0.105	334619	keystroke_d	d	n/a
167.5955	0.104	335191	keystroke_i	i	n/a
167.685	0.1045	335370	keystroke_n	n	n/a
167.7745	0.1495	335549	keystroke_g	g	n/a
167.8645	0.1495	335729	keystroke_Key.space	Key.space	n/a
168.4645	0.1505	336929	keystroke_t	t	n/a
168.5995	0.12	337199	keystroke_r	r	n/a
168.8545	0.12	337709	keystroke_a	a	n/a
169.35	0.075	338700	keystroke_m	m	n/a
169.5145	0.1195	339029	keystroke_a	a	n/a
169.83	0.1045	339660	keystroke_d	d	n/a
169.964	0.105	339928	keystroke_o	o	n/a
170.1595	0.1045	340319	keystroke_l	l	n/a
170.2945	0.0745	340589	keystroke_Key.space	Key.space	n/a
170.579	0.1055	341158	keystroke_t	t	n/a
170.6995	0.105	341399	keystroke_i	i	n/a
170.7745	0.09	341549	keystroke_m	m	n/a
170.8795	0.105	341759	keystroke_e	e	n/a
171.0445	0.105	342089	keystroke_l	l	n/a
171.1945	0.075	342389	keystroke_y	y	n/a
171.3745	0.105	342749	keystroke_Key.enter	Key.enter	n/a
171.486	7.63	342972	prompt	n/a	synthetic difficult chick anything\n
172.14	0.09	344280	keystroke_s	s	n/a
172.35	0.06	344700	keystroke_y	y	n/a
172.574	0.091	345148	keystroke_n	n	n/a
172.725	0.09	345450	keystroke_t	t	n/a
172.875	0.075	345750	keystroke_h	h	n/a
172.965	0.09	345930	keystroke_e	e	n/a
173.43	0.0895	346860	keystroke_t	t	n/a
173.64	0.09	347280	keystroke_i	i	n/a
173.85	0.09	347700	keystroke_c	c	n/a
173.9995	0.105	347999	keystroke_Key.space	Key.space	n/a
174.21	0.105	348420	keystroke_d	d	n/a
174.3445	0.0755	348689	keystroke_i	i	n/a
174.705	0.075	349410	keystroke_f	f	n/a
174.84	0.09	349680	keystroke_f	f	n/a
175.0495	0.0895	350099	keystroke_i	i	n/a
175.215	0.0895	350430	keystroke_c	c	n/a
175.394	0.075	350788	keystroke_u	u	n/a
175.6645	0.0895	351329	keystroke_l	l	n/a
175.7695	0.1055	351539	keystroke_t	t	n/a
175.845	0.1045	351690	keystroke_Key.space	Key.space	n/a
176.1445	0.09	352289	keystroke_c	c	n/a
176.2495	0.0755	352499	keystroke_h	h	n/a
176.429	0.0905	352858	keystroke_e	e	n/a
176.864	0.0755	353728	keystroke_Key.backspace	Key.backspace	n/a
177.1045	0.09	354209	keystroke_i	i	n/a
177.2095	0.0905	354419	keystroke_c	c	n/a
177.3445	0.09	354689	keystroke_k	k	n/a
177.479	0.106	354958	keystroke_Key.space	Key.space	n/a
177.885	0.09	355770	keystroke_a	a	n/a
177.99	0.059	355980	keystroke_n	n	n/a
178.1845	0.0905	356369	keystroke_y	y	n/a
178.335	0.075	356670	keystroke_t	t	n/a
178.4245	0.0605	356849	keystroke_h	h	n/a
178.635	0.134	357270	keystroke_i	i	n/a
178.7245	0.075	357449	keystroke_n	n	n/a
178.8145	0.09	357629	keystroke_g	g	n/a
179.009	0.105	358018	keystroke_Key.enter	Key.enter	n/a
179.12	9.566	358240	prompt	n/a	logging postposted corporate grew\n
179.9695	0.09	359939	keystroke_l	l	n/a
180.15	0.0745	360300	keystroke_o	o	n/a
180.2395	0.06	360479	keystroke_g	g	n/a
180.3895	0.06	360779	keystroke_g	g	n/a
180.5245	0.135	361049	keystroke_i	i	n/a
180.6295	0.09	361259	keystroke_n	n	n/a
180.7345	0.105	361469	keystroke_g	g	n/a
180.8245	0.105	361649	keystroke_Key.space	Key.space	n/a
181.0495	0.075	362099	keystroke_p	p	n/a
181.2445	0.09	362489	keystroke_o	o	n/a
181.4545	0.075	362909	keystroke_t	t	n/a
182.234	0.09	364468	keystroke_Key.backspace	Key.backspace	n/a
182.3395	0.0895	364679	keystroke_s	s	n/a
182.5495	0.075	365099	keystroke_t	t	n/a
182.654	0.0605	365308	keystroke_p	p	n/a
182.8345	0.0755	365669	keystroke_o	o	n/a
182.9695	0.09	365939	keystroke_s	s	n/a
183.285	0.09	366570	keystroke_t	t	n/a
183.54	0.09	367080	keystroke_e	e	n/a
183.78	0.12	367560	keystroke_d	d	n/a
183.93	0.09	367860	keystroke_Key.space	Key.space	n/a
184.2	0.105	368400	keystroke_c	c	n/a
184.365	0.1045	368730	keystroke_o	o	n/a
184.5595	0.09	369119	keystroke_r	r	n/a
184.7245	0.075	369449	keystroke_p	p	n/a
184.92	0.0745	369840	keystroke_o	o	n/a
185.01	0.1045	370020	keystroke_r	r	n/a
185.1745	0.1205	370349	keystroke_a	a	n/a
185.415	0.12	370830	keystroke_t	t	n/a
185.535	0.135	371070	keystroke_e	e	n/a
185.6545	0.09	371309	keystroke_Key.space	Key.space	n/a
186.5245	0.135	373049	keystroke_g	g	n/a
186.945	0.0745	373890	keystroke_e	e	n/a
187.799	0.105	375598	keystroke_Key.backspace	Key.backspace	n/a
188.04	0.12	376080	keystroke_r	r	n/a
188.174	0.105	376348	keystroke_e	e	n/a
188.3995	0.105	376799	keystroke_w	w	n/a
188.5795	0.105	377159	keystroke_Key.enter	Key.enter	n/a
188.691	14.17	377382	prompt	n/a	appliance british moderators privileges\n
189.285	0.1045	378570	keystroke_a	a	n/a
189.4045	0.075	378809	keystroke_p	p	n/a
189.585	0.09	379170	keystroke_p	p	n/a
189.764	0.09	379528	keystroke_l	l	n/a
190.049	0.075	380098	keystroke_i	i	n/a
190.334	0.09	380668	keystroke_a	a	n/a
190.47	0.0745	380940	keystroke_n	n	n/a
190.5895	0.0895	381179	keystroke_c	c	n/a
190.814	0.105	381628	keystroke_e	e	n/a
190.8745	0.135	381749	keystroke_Key.space	Key.space	n/a
191.0695	0.0755	382139	keystroke_b	b	n/a
191.175	0.104	382350	keystroke_r	r	n/a
191.34	0.0745	382680	keystroke_i	i	n/a
191.475	0.075	382950	keystroke_t	t	n/a
191.5795	0.0745	383159	keystroke_i	i	n/a
191.819	0.09	383638	keystroke_s	s	n/a
191.954	0.06	383908	keystroke_h	h	n/a
192.06	0.105	384120	keystroke_Key.space	Key.space	n/a
192.36	0.09	384720	keystroke_m	m	n/a
192.555	0.0595	385110	keystroke_o	o	n/a
192.629	0.0905	385258	keystroke_d	d	n/a
192.8695	0.12	385739	keystroke_e	e	n/a
193.0045	0.12	386009	keystroke_r	r	n/a
193.424	0.091	386848	keystroke_a	a	n/a
193.665	0.0745	387330	keystroke_t	t	n/a
193.845	0.0895	387690	keystroke_o	o	n/a
193.949	0.1055	387898	keystroke_r	r	n/a
194.114	0.12	388228	keystroke_s	s	n/a
194.219	0.105	388438	keystroke_Key.space	Key.space	n/a
194.429	0.105	388858	keystroke_p	p	n/a
194.594	0.105	389188	keystroke_r	r	n/a
195.479	0.09	390958	keystroke_i	i	n/a
195.9295	0.09	391859	keystroke_v	v	n/a
196.124	0.09	392248	keystroke_i	i	n/a
196.5895	0.075	393179	keystroke_d	d	n/a
198.015	0.105	396030	keystroke_Key.backspace	Key.backspace	n/a
198.509	0.121	397018	keystroke_e	e	n/a
199.6345	0.075	399269	keystroke_Key.backspace	Key.backspace	n/a
200.1595	0.09	400319	keystroke_Key.backspace	Key.backspace	n/a
201.5095	0.09	403019	keystroke_i	i	n/a
201.7045	0.135	403409	keystroke_l	l	n/a
201.9295	0.0895	403859	keystroke_e	e	n/a
202.1545	0.1055	404309	keystroke_g	g	n/a
202.29	0.165	404580	keystroke_e	e	n/a
202.47	0.135	404940	keystroke_s	s	n/a
202.7545	0.1045	405509	keystroke_Key.enter	Key.enter	n/a
202.865	5.6515	405730	prompt	n/a	devoted price intelligence maui\n
203.6095	0.09	407219	keystroke_d	d	n/a
203.8045	0.075	407609	keystroke_e	e	n/a
203.9995	0.1055	407999	keystroke_v	v	n/a
204.15	0.1045	408300	keystroke_o	o	n/a
204.3145	0.1055	408629	keystroke_t	t	n/a
204.4345	0.105	408869	keystroke_e	e	n/a
204.6595	0.1055	409319	keystroke_d	d	n/a
204.734	0.106	409468	keystroke_Key.space	Key.space	n/a
204.915	0.09	409830	keystroke_p	p	n/a
205.02	0.09	410040	keystroke_r	r	n/a
205.2	0.09	410400	keystroke_i	i	n/a
205.304	0.076	410608	keystroke_c	c	n/a
205.515	0.105	411030	keystroke_e	e	n/a
205.59	0.105	411180	keystroke_Key.space	Key.space	n/a
205.74	0.105	411480	keystroke_i	i	n/a
205.815	0.09	411630	keystroke_n	n	n/a
205.92	0.075	411840	keystroke_t	t	n/a
206.01	0.1045	412020	keystroke_e	e	n/a
206.1	0.06	412200	keystroke_l	l	n/a
206.234	0.075	412468	keystroke_l	l	n/a
206.414	0.09	412828	keystroke_i	i	n/a
206.609	0.06	413218	keystroke_g	g	n/a
206.7745	0.1055	413549	keystroke_e	e	n/a
206.8945	0.0745	413789	keystroke_n	n	n/a
207.045	0.09	414090	keystroke_c	c	n/a
207.254	0.1055	414508	keystroke_e	e	n/a
207.33	0.12	414660	keystroke_Key.space	Key.space	n/a
207.48	0.0895	414960	keystroke_m	m	n/a
207.5845	0.1205	415169	keystroke_a	a	n/a
207.945	0.075	415890	keystroke_u	u	n/a
208.155	0.075	416310	keystroke_i	i	n/a
208.4095	0.1055	416819	keystroke_Key.enter	Key.enter	n/a
208.521	9.445	417042	prompt	n/a	subsidiaries initiatives worst provincial\n
209.265	0.12	418530	keystroke_s	s	n/a
209.444	0.121	418888	keystroke_u	u	n/a
209.535	0.0895	419070	keystroke_b	b	n/a
209.7145	0.1205	419429	keystroke_s	s	n/a
209.91	0.0895	419820	keystroke_i	i	n/a
210.1045	0.0905	420209	keystroke_d	d	n/a
210.4345	0.09	420869	keystroke_i	i	n/a
210.6295	0.105	421259	keystroke_a	a	n/a
210.8995	0.09	421799	keystroke_r	r	n/a
211.1395	0.075	422279	keystroke_i	i	n/a
211.26	0.135	422520	keystroke_e	e	n/a
211.41	0.1345	422820	keystroke_s	s	n/a
211.529	0.1055	423058	keystroke_Key.space	Key.space	n/a
211.7545	0.09	423509	keystroke_i	i	n/a
211.8295	0.09	423659	keystroke_n	n	n/a
212.025	0.0895	424050	keystroke_i	i	n/a
212.3545	0.06	424709	keystroke_t	t	n/a
212.4595	0.1055	424919	keystroke_i	i	n/a
212.6995	0.12	425399	keystroke_a	a	n/a
213.059	0.09	426118	keystroke_t	t	n/a
213.209	0.091	426418	keystroke_i	i	n/a
213.4495	0.0895	426899	keystroke_v	v	n/a
213.794	0.09	427588	keystroke_s	s	n/a
214.155	0.09	428310	keystroke_Key.backspace	Key.backspace	n/a
214.259	0.151	428518	keystroke_e	e	n/a
214.365	0.1495	428730	keystroke_s	s	n/a
214.4695	0.15	428939	keystroke_Key.space	Key.space	n/a
214.7845	0.105	429569	keystroke_w	w	n/a
214.9045	0.1045	429809	keystroke_o	o	n/a
215.04	0.0895	430080	keystroke_r	r	n/a
215.294	0.09	430588	keystroke_s	s	n/a
215.49	0.119	430980	keystroke_t	t	n/a
215.579	0.121	431158	keystroke_Key.space	Key.space	n/a
215.894	0.015	431788	keystroke_p	p	n/a
215.9245	0.09	431849	keystroke_r	r	n/a
216.059	0.091	432118	keystroke_o	o	n/a
216.3295	0.0895	432659	keystroke_v	v	n/a
216.5245	0.135	433049	keystroke_i	i	n/a
216.6445	0.0905	433289	keystroke_n	n	n/a
216.915	0.105	433830	keystroke_c	c	n/a
217.079	0.0905	434158	keystroke_i	i	n/a
217.4395	0.09	434879	keystroke_a	a	n/a
217.5745	0.091	435149	keystroke_l	l	n/a
217.8595	0.105	435719	keystroke_Key.enter	Key.enter	n/a
217.9705	12.4155	435941	prompt	n/a	fuzzy paradise protected limit\n
218.7895	0.0755	437579	keystroke_f	f	n/a
219.0445	0.015	438089	keystroke_u	u	n/a
219.1945	0.0445	438389	keystroke_x	x	n/a
219.3745	0.06	438749	keystroke_z	z	n/a
219.689	0.06	439378	keystroke_Key.backspace	Key.backspace	n/a
219.809	0.0755	439618	keystroke_Key.backspace	Key.backspace	n/a
219.9445	0.0755	439889	keystroke_z	z	n/a
220.11	0.0745	440220	keystroke_z	z	n/a
220.244	0.09	440488	keystroke_y	y	n/a
220.439	0.09	440878	keystroke_Key.space	Key.space	n/a
220.7695	0.105	441539	keystroke_p	p	n/a
220.889	0.09	441778	keystroke_a	a	n/a
221.0845	0.1355	442169	keystroke_r	r	n/a
221.2045	0.15	442409	keystroke_a	a	n/a
221.969	0.06	443938	keystroke_d	d	n/a
222.3445	0.1045	444689	keystroke_i	i	n/a
222.5095	0.0895	445019	keystroke_z	z	n/a
222.869	0.09	445738	keystroke_Key.backspace	Key.backspace	n/a
222.975	0.105	445950	keystroke_s	s	n/a
223.1845	0.15	446369	keystroke_e	e	n/a
223.3195	0.105	446639	keystroke_Key.space	Key.space	n/a
223.9345	0.09	447869	keystroke_o	o	n/a
224.0695	0.09	448139	keystroke_r	r	n/a
224.2195	0.075	448439	keystroke_i	i	n/a
224.5495	0.0755	449099	keystroke_Key.backspace	Key.backspace	n/a
224.6995	0.06	449399	keystroke_Key.backspace	Key.backspace	n/a
224.8195	0.045	449639	keystroke_Key.backspace	Key.backspace	n/a
225.0295	0.105	450059	keystroke_p	p	n/a
225.1495	0.09	450299	keystroke_r	r	n/a
225.2695	0.0745	450539	keystroke_o	o	n/a
225.45	0.119	450900	keystroke_t	t	n/a
225.614	0.0905	451228	keystroke_e	e	n/a
225.885	0.089	451770	keystroke_c	c	n/a
226.484	0.0905	452968	keystroke_t	t	n/a
226.62	0.09	453240	keystroke_e	e	n/a
226.845	0.09	453690	keystroke_d	d	n/a
226.9645	0.0905	453929	keystroke_Key.space	Key.space	n/a
227.369	0.091	454738	keystroke_k	k	n/a
228.0295	0.09	456059	keystroke_Key.backspace	Key.backspace	n/a
228.33	0.075	456660	keystroke_k	k	n/a
228.705	0.0745	457410	keystroke_Key.backspace	Key.backspace	n/a
228.975	0.0595	457950	keystroke_l	l	n/a
229.29	0.1495	458580	keystroke_i	i	n/a
229.4245	0.105	458849	keystroke_m	m	n/a
229.56	0.1195	459120	keystroke_i	i	n/a
229.7845	0.09	459569	keystroke_t	t	n/a
230.2945	0.09	460589	keystroke_Key.enter	Key.enter	n/a
230.391	6.265	460782	prompt	n/a	insight entire sport notified\n
231.089	0.105	462178	keystroke_i	i	n/a
231.179	0.076	462358	keystroke_n	n	n/a
231.284	0.121	462568	keystroke_s	s	n/a
231.419	0.076	462838	keystroke_i	i	n/a
231.524	0.076	463048	keystroke_g	g	n/a
231.659	0.0755	463318	keystroke_h	h	n/a
231.749	0.105	463498	keystroke_t	t	n/a
231.824	0.12	463648	keystroke_Key.space	Key.space	n/a
232.034	0.1055	464068	keystroke_e	e	n/a
232.125	0.089	464250	keystroke_n	n	n/a
232.2745	0.06	464549	keystroke_t	t	n/a
232.439	0.0755	464878	keystroke_i	i	n/a
232.559	0.12	465118	keystroke_r	r	n/a
232.68	0.1645	465360	keystroke_e	e	n/a
232.829	0.1205	465658	keystroke_Key.space	Key.space	n/a
233.4145	0.061	466829	keystroke_s	s	n/a
233.4895	0.075	466979	keystroke_p	p	n/a
233.6845	0.12	467369	keystroke_o	o	n/a
233.7745	0.1955	467549	keystroke_r	r	n/a
233.9545	0.09	467909	keystroke_t	t	n/a
234.0145	0.135	468029	keystroke_Key.space	Key.space	n/a
234.2095	0.0755	468419	keystroke_n	n	n/a
234.39	0.0745	468780	keystroke_o	o	n/a
234.4795	0.0755	468959	keystroke_t	t	n/a
234.6595	0.075	469319	keystroke_i	i	n/a
234.8095	0.09	469619	keystroke_f	f	n/a
235.4095	0.09	470819	keystroke_e	e	n/a
235.8445	0.06	471689	keystroke_Key.backspace	Key.backspace	n/a
236.0845	0.075	472169	keystroke_i	i	n/a
236.1745	0.045	472349	keystroke_e	e	n/a
236.354	0.09	472708	keystroke_d	d	n/a
236.549	0.105	473098	keystroke_Key.enter	Key.enter	n/a
236.661	6.7155	473322	prompt	n/a	muze donor upper essence\n
237.4495	0.03	474899	keystroke_m	m	n/a
237.6295	0.0905	475259	keystroke_u	u	n/a
237.93	0.09	475860	keystroke_z	z	n/a
238.259	0.12	476518	keystroke_e	e	n/a
238.3345	0.135	476669	keystroke_Key.space	Key.space	n/a
238.71	0.119	477420	keystroke_d	d	n/a
238.815	0.06	477630	keystroke_o	o	n/a
238.9945	0.0605	477989	keystroke_n	n	n/a
239.16	0.074	478320	keystroke_o	o	n/a
239.354	0.15	478708	keystroke_r	r	n/a
239.4745	0.1045	478949	keystroke_Key.space	Key.space	n/a
239.9545	0.0905	479909	keystroke_u	u	n/a
240.2245	0.09	480449	keystroke_p	p	n/a
240.3895	0.09	480779	keystroke_p	p	n/a
240.5245	0.15	481049	keystroke_e	e	n/a
240.6445	0.1355	481289	keystroke_r	r	n/a
240.7345	0.135	481469	keystroke_Key.space	Key.space	n/a
240.9295	0.105	481859	keystroke_s	s	n/a
241.5145	0.0895	483029	keystroke_Key.backspace	Key.backspace	n/a
241.62	0.1045	483240	keystroke_e	e	n/a
241.8595	0.0605	483719	keystroke_s	s	n/a
242.024	0.105	484048	keystroke_s	s	n/a
242.25	0.1045	484500	keystroke_e	e	n/a
242.4745	0.09	484949	keystroke_n	n	n/a
242.7595	0.1195	485519	keystroke_c	c	n/a
243.0445	0.105	486089	keystroke_e	e	n/a
243.2545	0.12	486509	keystroke_Key.enter	Key.enter	n/a
243.381	7.0625	486762	prompt	n/a	tahoe computation shade build\n
244.05	0.089	488100	keystroke_t	t	n/a
244.1995	0.1505	488399	keystroke_a	a	n/a
244.41	0.09	488820	keystroke_h	h	n/a
244.59	0.1045	489180	keystroke_o	o	n/a
244.6795	0.135	489359	keystroke_e	e	n/a
244.7845	0.135	489569	keystroke_Key.space	Key.space	n/a
245.114	0.106	490228	keystroke_c	c	n/a
245.2345	0.12	490469	keystroke_o	o	n/a
245.309	0.09	490618	keystroke_m	m	n/a
245.505	0.074	491010	keystroke_p	p	n/a
245.7895	0.075	491579	keystroke_u	u	n/a
245.9995	0.0755	491999	keystroke_t	t	n/a
246.1645	0.12	492329	keystroke_a	a	n/a
246.3445	0.09	492689	keystroke_t	t	n/a
247.185	0.075	494370	keystroke_i	i	n/a
247.4395	0.1355	494879	keystroke_o	o	n/a
247.634	0.076	495268	keystroke_n	n	n/a
247.7245	0.09	495449	keystroke_Key.space	Key.space	n/a
247.9945	0.105	495989	keystroke_s	s	n/a
248.2045	0.09	496409	keystroke_h	h	n/a
248.3245	0.0905	496649	keystroke_a	a	n/a
248.535	0.1045	497070	keystroke_d	d	n/a
248.745	0.1045	497490	keystroke_e	e	n/a
248.8195	0.09	497639	keystroke_Key.space	Key.space	n/a
249.0745	0.09	498149	keystroke_b	b	n/a
249.3	0.075	498600	keystroke_u	u	n/a
249.509	0.0905	499018	keystroke_i	i	n/a
249.974	0.076	499948	keystroke_l	l	n/a
250.1245	0.105	500249	keystroke_d	d	n/a
250.349	0.09	500698	keystroke_Key.enter	Key.enter	n/a
250.451	7.146	500902	prompt	n/a	decimal shots harvard downloading\n
251.114	0.1205	502228	keystroke_d	d	n/a
251.339	0.075	502678	keystroke_e	e	n/a
251.5795	0.09	503159	keystroke_c	c	n/a
251.7145	0.09	503429	keystroke_i	i	n/a
252.029	0.0755	504058	keystroke_m	m	n/a
252.134	0.09	504268	keystroke_a	a	n/a
252.2695	0.0905	504539	keystroke_l	l	n/a
252.3445	0.105	504689	keystroke_Key.space	Key.space	n/a
252.5245	0.105	505049	keystroke_s	s	n/a
252.6445	0.075	505289	keystroke_h	h	n/a
252.809	0.1055	505618	keystroke_o	o	n/a
252.9445	0.1195	505889	keystroke_t	t	n/a
253.079	0.12	506158	keystroke_s	s	n/a
253.1695	0.1195	506339	keystroke_Key.space	Key.space	n/a
253.3795	0.075	506759	keystroke_h	h	n/a
253.469	0.09	506938	keystroke_a	a	n/a
253.634	0.09	507268	keystroke_r	r	n/a
254.0545	0.09	508109	keystroke_v	v	n/a
254.3395	0.12	508679	keystroke_a	a	n/a
254.58	0.0595	509160	keystroke_r	r	n/a
255.1195	0.135	510239	keystroke_d	d	n/a
255.2695	0.075	510539	keystroke_Key.space	Key.space	n/a
255.465	0.1185	510930	keystroke_d	d	n/a
255.705	0.0595	511410	keystroke_o	o	n/a
255.825	0.105	511650	keystroke_w	w	n/a
255.989	0.091	511978	keystroke_n	n	n/a
256.2435	0.09	512487	keystroke_l	l	n/a
256.439	0.0755	512878	keystroke_o	o	n/a
256.47	0.1195	512940	keystroke_a	a	n/a
256.6045	0.12	513209	keystroke_d	d	n/a
256.7845	0.1205	513569	keystroke_i	i	n/a
256.8745	0.09	513749	keystroke_n	n	n/a
257.2345	0.06	514469	keystroke_g	g	n/a
257.4895	0.105	514979	keystroke_Key.enter	Key.enter	n/a
257.604	7.8375	515208	prompt	n/a	blanket understood designs drum\n
258.2695	0.09	516539	keystroke_b	b	n/a
258.4645	0.12	516929	keystroke_l	l	n/a
258.6145	0.105	517229	keystroke_a	a	n/a
258.7345	0.09	517469	keystroke_n	n	n/a
258.944	0.105	517888	keystroke_k	k	n/a
259.094	0.135	518188	keystroke_e	e	n/a
259.3335	0.121	518667	keystroke_t	t	n/a
259.4385	0.09	518877	keystroke_Key.space	Key.space	n/a
259.7845	0.1505	519569	keystroke_u	u	n/a
259.8895	0.12	519779	keystroke_n	n	n/a
259.9945	0.105	519989	keystroke_d	d	n/a
260.2195	0.18	520439	keystroke_e	e	n/a
260.3545	0.1205	520709	keystroke_r	r	n/a
260.6695	0.1055	521339	keystroke_s	s	n/a
260.8795	0.0905	521759	keystroke_t	t	n/a
261.06	0.075	522120	keystroke_o	o	n/a
261.2095	0.0895	522419	keystroke_o	o	n/a
261.33	0.135	522660	keystroke_d	d	n/a
261.435	0.104	522870	keystroke_Key.space	Key.space	n/a
261.7945	0.09	523589	keystroke_d	d	n/a
262.02	0.119	524040	keystroke_e	e	n/a
262.124	0.166	524248	keystroke_s	s	n/a
262.604	0.045	525208	keystroke_g	g	n/a
262.8145	0.0905	525629	keystroke_i	i	n/a
263.2045	0.0445	526409	keystroke_Key.backspace	Key.backspace	n/a
263.294	0.03	526588	keystroke_Key.backspace	Key.backspace	n/a
263.52	0.09	527040	keystroke_i	i	n/a
263.639	0.09	527278	keystroke_g	g	n/a
263.7745	0.105	527549	keystroke_n	n	n/a
263.91	0.104	527820	keystroke_s	s	n/a
264.0745	0.0895	528149	keystroke_Key.space	Key.space	n/a
264.4795	0.09	528959	keystroke_d	d	n/a
264.69	0.0895	529380	keystroke_r	r	n/a
264.8695	0.105	529739	keystroke_u	u	n/a
265.1245	0.09	530249	keystroke_m	m	n/a
265.3345	0.105	530669	keystroke_Key.enter	Key.enter	n/a
265.4465	9.0845	530893	prompt	n/a	reservation xanax merger nicaragua\n
266.04	0.15	532080	keystroke_r	r	n/a
266.1745	0.1205	532349	keystroke_e	e	n/a
266.34	0.1195	532680	keystroke_s	s	n/a
266.4445	0.18	532889	keystroke_e	e	n/a
266.58	0.105	533160	keystroke_r	r	n/a
266.8945	0.09	533789	keystroke_v	v	n/a
267.0895	0.09	534179	keystroke_a	a	n/a
267.2995	0.09	534599	keystroke_t	t	n/a
267.4045	0.0905	534809	keystroke_i	i	n/a
267.63	0.119	535260	keystroke_o	o	n/a
267.719	0.12	535438	keystroke_n	n	n/a
267.869	0.105	535738	keystroke_Key.space	Key.space	n/a
268.4545	0.06	536909	keystroke_x	x	n/a
268.8595	0.12	537719	keystroke_a	a	n/a
269.024	0.0905	538048	keystroke_n	n	n/a
269.669	0.12	539338	keystroke_a	a	n/a
270.195	0.104	540390	keystroke_x	x	n/a
270.479	0.0905	540958	keystroke_Key.space	Key.space	n/a
270.7645	0.0905	541529	keystroke_m	m	n/a
270.869	0.1355	541738	keystroke_e	e	n/a
270.99	0.1045	541980	keystroke_r	r	n/a
271.5895	0.09	543179	keystroke_g	g	n/a
271.74	0.1345	543480	keystroke_e	e	n/a
271.8595	0.135	543719	keystroke_r	r	n/a
271.9495	0.12	543899	keystroke_Key.space	Key.space	n/a
272.37	0.075	544740	keystroke_n	n	n/a
272.6545	0.075	545309	keystroke_i	i	n/a
272.9245	0.12	545849	keystroke_c	c	n/a
273.1645	0.1055	546329	keystroke_a	a	n/a
273.3595	0.15	546719	keystroke_r	r	n/a
273.4945	0.105	546989	keystroke_a	a	n/a
273.75	0.0745	547500	keystroke_g	g	n/a
273.9895	0.0905	547979	keystroke_u	u	n/a
274.1245	0.1205	548249	keystroke_a	a	n/a
274.4245	0.105	548849	keystroke_Key.enter	Key.enter	n/a
274.5365	8.3495	549073	prompt	n/a	guards reflection until designated\n
275.2645	0.0745	550529	keystroke_g	g	n/a
275.4295	0.0895	550859	keystroke_u	u	n/a
275.549	0.0905	551098	keystroke_a	a	n/a
275.7595	0.075	551519	keystroke_r	r	n/a
275.9995	0.165	551999	keystroke_d	d	n/a
276.1495	0.135	552299	keystroke_s	s	n/a
276.2695	0.1045	552539	keystroke_Key.space	Key.space	n/a
276.48	0.119	552960	keystroke_r	r	n/a
276.584	0.1055	553168	keystroke_e	e	n/a
276.869	0.0755	553738	keystroke_f	f	n/a
277.0345	0.12	554069	keystroke_l	l	n/a
277.1395	0.075	554279	keystroke_e	e	n/a
277.3645	0.075	554729	keystroke_c	c	n/a
277.62	0.075	555240	keystroke_t	t	n/a
277.725	0.0595	555450	keystroke_i	i	n/a
277.9045	0.105	555809	keystroke_o	o	n/a
277.995	0.0895	555990	keystroke_n	n	n/a
278.1145	0.09	556229	keystroke_Key.space	Key.space	n/a
278.2945	0.1355	556589	keystroke_u	u	n/a
278.385	0.09	556770	keystroke_n	n	n/a
278.565	0.075	557130	keystroke_t	t	n/a
278.6695	0.0895	557339	keystroke_i	i	n/a
278.88	0.1045	557760	keystroke_l	l	n/a
278.969	0.0905	557938	keystroke_Key.space	Key.space	n/a
279.1645	0.0905	558329	keystroke_d	d	n/a
279.3595	0.075	558719	keystroke_e	e	n/a
279.5845	0.105	559169	keystroke_s	s	n/a
279.735	0.09	559470	keystroke_i	i	n/a
280.1095	0.0745	560219	keystroke_n	n	n/a
280.6945	0.075	561389	keystroke_Key.backspace	Key.backspace	n/a
280.9195	0.075	561839	keystroke_g	g	n/a
281.0995	0.09	562199	keystroke_n	n	n/a
281.4445	0.09	562889	keystroke_a	a	n/a
281.6845	0.12	563369	keystroke_t	t	n/a
281.8195	0.06	563639	keystroke_e	e	n/a
282.165	0.09	564330	keystroke_d	d	n/a
282.39	0.1045	564780	keystroke_Key.space	Key.space	n/a
282.6145	0.09	565229	keystroke_Key.backspace	Key.backspace	n/a
282.8095	0.075	565619	keystroke_Key.enter	Key.enter	n/a
282.8905	7.9755	565781	prompt	n/a	tourist impaired advertising slight\n
283.5145	0.09	567029	keystroke_t	t	n/a
283.6205	0.059	567241	keystroke_o	o	n/a
283.7995	0.045	567599	keystroke_i	i	n/a
283.8895	0.09	567779	keystroke_r	r	n/a
284.3545	0.075	568709	keystroke_Key.backspace	Key.backspace	n/a
284.4745	0.075	568949	keystroke_Key.backspace	Key.backspace	n/a
284.7445	0.0755	569489	keystroke_u	u	n/a
284.8045	0.075	569609	keystroke_r	r	n/a
284.954	0.1055	569908	keystroke_i	i	n/a
285.1045	0.1205	570209	keystroke_s	s	n/a
285.3445	0.0895	570689	keystroke_t	t	n/a
285.404	0.12	570808	keystroke_Key.space	Key.space	n/a
285.705	0.089	571410	keystroke_m	m	n/a
286.064	0.06	572128	keystroke_Key.backspace	Key.backspace	n/a
286.365	0.105	572730	keystroke_i	i	n/a
286.455	0.089	572910	keystroke_m	m	n/a
286.694	0.076	573388	keystroke_p	p	n/a
286.814	0.1055	573628	keystroke_a	a	n/a
287.01	0.0885	574020	keystroke_i	i	n/a
287.16	0.09	574320	keystroke_r	r	n/a
287.3095	0.1045	574619	keystroke_e	e	n/a
287.565	0.104	575130	keystroke_d	d	n/a
287.7	0.1045	575400	keystroke_Key.space	Key.space	n/a
288.1345	0.12	576269	keystroke_a	a	n/a
288.2395	0.12	576479	keystroke_d	d	n/a
288.54	0.089	577080	keystroke_v	v	n/a
288.749	0.105	577498	keystroke_e	e	n/a
288.8245	0.09	577649	keystroke_r	r	n/a
289.005	0.0895	578010	keystroke_t	t	n/a
289.1245	0.09	578249	keystroke_i	i	n/a
289.2895	0.12	578579	keystroke_s	s	n/a
289.4245	0.1205	578849	keystroke_i	i	n/a
289.5145	0.075	579029	keystroke_n	n	n/a
289.6045	0.12	579209	keystroke_g	g	n/a
289.6945	0.105	579389	keystroke_Key.space	Key.space	n/a
289.9045	0.075	579809	keystroke_s	s	n/a
289.9945	0.09	579989	keystroke_l	l	n/a
290.2495	0.075	580499	keystroke_i	i	n/a
290.3245	0.075	580649	keystroke_g	g	n/a
290.5045	0.075	581009	keystroke_h	h	n/a
290.565	0.09	581130	keystroke_t	t	n/a
290.7895	0.075	581579	keystroke_Key.enter	Key.enter	n/a
290.8705	9.3105	581741	prompt	n/a	subaru matched stock maryland\n
291.6295	0.1205	583259	keystroke_s	s	n/a
291.779	0.09	583558	keystroke_u	u	n/a
292.2295	0.09	584459	keystroke_b	b	n/a
292.3645	0.105	584729	keystroke_a	a	n/a
292.5745	0.105	585149	keystroke_r	r	n/a
292.8895	0.075	585779	keystroke_u	u	n/a
293.0245	0.105	586049	keystroke_Key.space	Key.space	n/a
293.7745	0.105	587549	keystroke_m	m	n/a
293.925	0.1045	587850	keystroke_a	a	n/a
294.6445	0.0905	589289	keystroke_t	t	n/a
294.944	0.076	589888	keystroke_c	c	n/a
295.0645	0.0905	590129	keystroke_h	h	n/a
295.1995	0.075	590399	keystroke_e	e	n/a
295.4095	0.105	590819	keystroke_d	d	n/a
295.5595	0.09	591119	keystroke_Key.space	Key.space	n/a
295.86	0.075	591720	keystroke_s	s	n/a
296.0695	0.0755	592139	keystroke_t	t	n/a
296.1745	0.075	592349	keystroke_o	o	n/a
296.3395	0.075	592679	keystroke_c	c	n/a
296.4445	0.0755	592889	keystroke_k	k	n/a
296.5495	0.09	593099	keystroke_Key.space	Key.space	n/a
296.6695	0.09	593339	keystroke_m	m	n/a
296.7745	0.09	593549	keystroke_a	a	n/a
297.0295	0.06	594059	keystroke_y	y	n/a
297.315	0.0895	594630	keystroke_l	l	n/a
297.7645	0.045	595529	keystroke_Key.backspace	Key.backspace	n/a
297.96	0.0745	595920	keystroke_r	r	n/a
298.1245	0.075	596249	keystroke_Key.backspace	Key.backspace	n/a
298.5595	0.0605	597119	keystroke_Key.backspace	Key.backspace	n/a
298.679	0.0905	597358	keystroke_r	r	n/a
298.8895	0.06	597779	keystroke_y	y	n/a
299.25	0.014	598500	keystroke_l	l	n/a
299.67	0.075	599340	keystroke_a	a	n/a
299.804	0.0755	599608	keystroke_n	n	n/a
299.9095	0.09	599819	keystroke_d	d	n/a
300.0895	0.09	600179	keystroke_Key.enter	Key.enter	n/a
300.185	9.806	600370	prompt	n/a	deutsch proof appreciation careful\n
300.99	0.1045	601980	keystroke_d	d	n/a
301.3045	0.105	602609	keystroke_e	e	n/a
301.3945	0.1345	602789	keystroke_s	s	n/a
302.0995	0.09	604199	keystroke_Key.backspace	Key.backspace	n/a
302.4295	0.09	604859	keystroke_u	u	n/a
302.774	0.0905	605548	keystroke_t	t	n/a
303.2395	0.09	606479	keystroke_s	s	n/a
303.644	0.09	607288	keystroke_c	c	n/a
303.7795	0.0755	607559	keystroke_h	h	n/a
303.9895	0.09	607979	keystroke_Key.space	Key.space	n/a
304.515	0.0895	609030	keystroke_p	p	n/a
304.664	0.0755	609328	keystroke_r	r	n/a
304.8445	0.09	609689	keystroke_o	o	n/a
304.9795	0.0905	609959	keystroke_o	o	n/a
305.144	0.1655	610288	keystroke_f	f	n/a
305.339	0.1355	610678	keystroke_Key.space	Key.space	n/a
306.2845	0.0895	612569	keystroke_a	a	n/a
306.3895	0.0595	612779	keystroke_p	p	n/a
306.494	0.1205	612988	keystroke_p	p	n/a
306.6445	0.1355	613289	keystroke_r	r	n/a
306.75	0.12	613500	keystroke_e	e	n/a
307.0345	0.0895	614069	keystroke_c	c	n/a
307.14	0.09	614280	keystroke_i	i	n/a
307.289	0.09	614578	keystroke_a	a	n/a
307.56	0.09	615120	keystroke_t	t	n/a
307.83	0.0895	615660	keystroke_i	i	n/a
308.0545	0.12	616109	keystroke_o	o	n/a
308.1595	0.0895	616319	keystroke_n	n	n/a
308.279	0.1355	616558	keystroke_Key.space	Key.space	n/a
308.6845	0.075	617369	keystroke_c	c	n/a
308.8195	0.09	617639	keystroke_a	a	n/a
308.9995	0.12	617999	keystroke_r	r	n/a
309.0895	0.105	618179	keystroke_e	e	n/a
309.3145	0.075	618629	keystroke_f	f	n/a
309.4045	0.075	618809	keystroke_u	u	n/a
309.6445	0.09	619289	keystroke_l	l	n/a
309.899	0.0905	619798	keystroke_Key.enter	Key.enter	n/a
309.995	11.2015	619990	prompt	n/a	latvia heath extending pastor\n
310.9495	0.075	621899	keystroke_l	l	n/a
311.3245	0.09	622649	keystroke_a	a	n/a
311.5645	0.0755	623129	keystroke_t	t	n/a
311.8645	0.1355	623729	keystroke_v	v	n/a
312.075	0.0895	624150	keystroke_i	i	n/a
312.42	0.075	624840	keystroke_s	s	n/a
312.8245	0.075	625649	keystroke_Key.backspace	Key.backspace	n/a
312.9295	0.105	625859	keystroke_a	a	n/a
313.0495	0.105	626099	keystroke_Key.space	Key.space	n/a
313.3045	0.09	626609	keystroke_h	h	n/a
313.4245	0.09	626849	keystroke_e	e	n/a
313.5155	0.134	627031	keystroke_a	a	n/a
313.6645	0.09	627329	keystroke_l	l	n/a
314.9845	0.09	629969	keystroke_t	t	n/a
315.57	0.1045	631140	keystroke_h	h	n/a
316.4995	0.12	632999	keystroke_Key.backspace	Key.backspace	n/a
316.6795	0.09	633359	keystroke_Key.backspace	Key.backspace	n/a
316.9345	0.09	633869	keystroke_Key.backspace	Key.backspace	n/a
317.2495	0.075	634499	keystroke_t	t	n/a
317.3545	0.09	634709	keystroke_h	h	n/a
317.5195	0.105	635039	keystroke_Key.space	Key.space	n/a
318.2545	0.0595	636509	keystroke_e	e	n/a
318.5845	0.09	637169	keystroke_x	x	n/a
318.8995	0.09	637799	keystroke_t	t	n/a
319.0345	0.1045	638069	keystroke_e	e	n/a
319.185	0.1045	638370	keystroke_n	n	n/a
319.305	0.0895	638610	keystroke_d	d	n/a
319.5595	0.135	639119	keystroke_i	i	n/a
319.6345	0.09	639269	keystroke_n	n	n/a
319.7395	0.105	639479	keystroke_g	g	n/a
319.7995	0.12	639599	keystroke_Key.space	Key.space	n/a
319.9795	0.12	639959	keystroke_p	p	n/a
320.0845	0.0755	640169	keystroke_a	a	n/a
320.2795	0.075	640559	keystroke_s	s	n/a
320.5345	0.06	641069	keystroke_t	t	n/a
320.6995	0.1055	641399	keystroke_o	o	n/a
320.849	0.105	641698	keystroke_r	r	n/a
321.089	0.1055	642178	keystroke_Key.enter	Key.enter	n/a
321.2005	11.1705	642401	prompt	n/a	suite protect springfield distributions\n
321.9295	0.105	643859	keystroke_s	s	n/a
322.0495	0.09	644099	keystroke_u	u	n/a
322.2745	0.0895	644549	keystroke_i	i	n/a
322.349	0.1205	644698	keystroke_t	t	n/a
322.499	0.121	644998	keystroke_e	e	n/a
322.5745	0.12	645149	keystroke_Key.space	Key.space	n/a
322.7245	0.0895	645449	keystroke_p	p	n/a
322.874	0.1055	645748	keystroke_r	r	n/a
323.0245	0.0895	646049	keystroke_o	o	n/a
323.264	0.105	646528	keystroke_t	t	n/a
323.3995	0.09	646799	keystroke_e	e	n/a
323.6995	0.0895	647399	keystroke_c	c	n/a
323.9995	0.0745	647999	keystroke_t	t	n/a
324.0595	0.12	648119	keystroke_Key.space	Key.space	n/a
324.2845	0.09	648569	keystroke_s	s	n/a
324.4035	0.076	648807	keystroke_p	p	n/a
324.7045	0.0755	649409	keystroke_r	r	n/a
324.93	0.1195	649860	keystroke_i	i	n/a
325.0345	0.09	650069	keystroke_n	n	n/a
325.1395	0.075	650279	keystroke_g	g	n/a
325.6795	0.075	651359	keystroke_f	f	n/a
325.8595	0.0905	651719	keystroke_i	i	n/a
325.9945	0.0895	651989	keystroke_e	e	n/a
326.1445	0.105	652289	keystroke_l	l	n/a
326.3245	0.09	652649	keystroke_d	d	n/a
326.459	0.105	652918	keystroke_Key.space	Key.space	n/a
326.819	0.0905	653638	keystroke_d	d	n/a
327.029	0.075	654058	keystroke_i	i	n/a
327.0895	0.135	654179	keystroke_s	s	n/a
329.717	0.057	659434	keystroke_t	t	n/a
329.789	0.1355	659578	keystroke_r	r	n/a
330.4345	0.1055	660869	keystroke_i	i	n/a
330.9	0.06	661800	keystroke_b	b	n/a
331.08	0.075	662160	keystroke_u	u	n/a
331.2735	0.0755	662547	keystroke_t	t	n/a
331.3945	0.0755	662789	keystroke_i	i	n/a
331.8595	0.1345	663719	keystroke_o	o	n/a
331.9795	0.0745	663959	keystroke_n	n	n/a
332.0995	0.12	664199	keystroke_s	s	n/a
332.264	0.1055	664528	keystroke_Key.enter	Key.enter	n/a
332.3745	8.6835	664749	prompt	n/a	situations differ assessments boats\n
333.1195	0.0905	666239	keystroke_s	s	n/a
333.21	0.014	666420	keystroke_i	i	n/a
333.2395	0.0295	666479	keystroke_t	t	n/a
333.315	0.0895	666630	keystroke_u	u	n/a
333.4645	0.105	666929	keystroke_a	a	n/a
333.6895	0.0595	667379	keystroke_t	t	n/a
333.779	0.0905	667558	keystroke_i	i	n/a
334.0495	0.0595	668099	keystroke_o	o	n/a
334.2445	0.105	668489	keystroke_s	s	n/a
334.68	0.059	669360	keystroke_Key.backspace	Key.backspace	n/a
334.92	0.0745	669840	keystroke_n	n	n/a
334.964	0.105	669928	keystroke_s	s	n/a
335.0395	0.1195	670079	keystroke_Key.space	Key.space	n/a
335.2795	0.1045	670559	keystroke_d	d	n/a
335.399	0.0755	670798	keystroke_i	i	n/a
335.489	0.0755	670978	keystroke_f	f	n/a
335.609	0.0905	671218	keystroke_f	f	n/a
335.8345	0.09	671669	keystroke_e	e	n/a
335.909	0.12	671818	keystroke_r	r	n/a
336.104	0.09	672208	keystroke_Key.space	Key.space	n/a
336.554	0.0605	673108	keystroke_a	a	n/a
336.885	0.0895	673770	keystroke_s	s	n/a
337.05	0.1045	674100	keystroke_s	s	n/a
337.2895	0.105	674579	keystroke_e	e	n/a
337.4995	0.09	674999	keystroke_s	s	n/a
337.6645	0.105	675329	keystroke_s	s	n/a
337.8145	0.06	675629	keystroke_m	m	n/a
337.905	0.0895	675810	keystroke_e	e	n/a
338.0545	0.075	676109	keystroke_n	n	n/a
338.459	0.105	676918	keystroke_e	e	n/a
338.9995	0.09	677999	keystroke_Key.backspace	Key.backspace	n/a
339.1195	0.135	678239	keystroke_t	t	n/a
339.2695	0.12	678539	keystroke_s	s	n/a
339.4195	0.09	678839	keystroke_Key.space	Key.space	n/a
339.7495	0.0605	679499	keystroke_b	b	n/a
339.915	0.105	679830	keystroke_o	o	n/a
340.005	0.104	680010	keystroke_a	a	n/a
340.5295	0.0895	681059	keystroke_t	t	n/a
340.77	0.1345	681540	keystroke_s	s	n/a
340.9495	0.1045	681899	keystroke_Key.enter	Key.enter	n/a
341.0655	10.5505	682131	prompt	n/a	configuration russia competitive ideas\n
341.835	0.09	683670	keystroke_c	c	n/a
341.9395	0.0755	683879	keystroke_o	o	n/a
341.985	0.105	683970	keystroke_n	n	n/a
342.1195	0.0905	684239	keystroke_f	f	n/a
342.254	0.0905	684508	keystroke_i	i	n/a
342.4945	0.0745	684989	keystroke_g	g	n/a
342.6145	0.0745	685229	keystroke_u	u	n/a
342.809	0.09	685618	keystroke_r	r	n/a
343.064	0.12	686128	keystroke_a	a	n/a
343.304	0.09	686608	keystroke_t	t	n/a
343.439	0.105	686878	keystroke_i	i	n/a
343.6495	0.1045	687299	keystroke_o	o	n/a
343.7245	0.0905	687449	keystroke_n	n	n/a
343.829	0.09	687658	keystroke_Key.space	Key.space	n/a
344.07	0.089	688140	keystroke_r	r	n/a
344.28	0.044	688560	keystroke_u	u	n/a
344.385	0.075	688770	keystroke_s	s	n/a
344.535	0.074	689070	keystroke_s	s	n/a
344.7145	0.0895	689429	keystroke_i	i	n/a
344.864	0.0905	689728	keystroke_a	a	n/a
344.9845	0.12	689969	keystroke_Key.space	Key.space	n/a
345.314	0.09	690628	keystroke_c	c	n/a
345.39	0.135	690780	keystroke_o	o	n/a
345.465	0.12	690930	keystroke_m	m	n/a
345.899	0.12	691798	keystroke_p	p	n/a
346.079	0.0905	692158	keystroke_e	e	n/a
346.3045	0.075	692609	keystroke_t	t	n/a
346.454	0.0755	692908	keystroke_i	i	n/a
346.5145	0.0755	693029	keystroke_t	t	n/a
346.8895	0.09	693779	keystroke_v	v	n/a
347.0845	0.12	694169	keystroke_e	e	n/a
347.1895	0.12	694379	keystroke_Key.space	Key.space	n/a
347.7445	0.0145	695489	keystroke_Key.backspace	Key.backspace	n/a
347.834	0.06	695668	keystroke_Key.backspace	Key.backspace	n/a
347.954	0.06	695908	keystroke_Key.backspace	Key.backspace	n/a
348.2095	0.0895	696419	keystroke_i	i	n/a
348.3	0.089	696600	keystroke_v	v	n/a
348.509	0.15	697018	keystroke_e	e	n/a
348.5995	0.1045	697199	keystroke_Key.space	Key.space	n/a
348.8545	0.075	697709	keystroke_t	t	n/a
349.1695	0.0745	698339	keystroke_Key.backspace	Key.backspace	n/a
349.5445	0.105	699089	keystroke_d	d	n/a
349.7695	0.1205	699539	keystroke_e	e	n/a
349.9045	0.09	699809	keystroke_a	a	n/a
350.1595	0.0755	700319	keystroke_Key.backspace	Key.backspace	n/a
350.2945	0.06	700589	keystroke_Key.backspace	Key.backspace	n/a
350.4145	0.075	700829	keystroke_Key.backspace	Key.backspace	n/a
350.685	0.0895	701370	keystroke_i	i	n/a
350.76	0.12	701520	keystroke_d	d	n/a
350.9995	0.0905	701999	keystroke_e	e	n/a
351.12	0.119	702240	keystroke_a	a	n/a
351.375	0.09	702750	keystroke_s	s	n/a
351.509	0.105	703018	keystroke_Key.enter	Key.enter	n/a
351.6205	9.3255	703241	prompt	n/a	particular strengthening expressed why'd\n
352.275	0.119	704550	keystroke_p	p	n/a
352.365	0.12	704730	keystroke_a	a	n/a
352.53	0.0745	705060	keystroke_r	r	n/a
352.71	0.075	705420	keystroke_t	t	n/a
352.829	0.09	705658	keystroke_i	i	n/a
353.07	0.075	706140	keystroke_c	c	n/a
353.2495	0.075	706499	keystroke_u	u	n/a
353.5045	0.1055	707009	keystroke_l	l	n/a
353.6545	0.105	707309	keystroke_a	a	n/a
353.8345	0.135	707669	keystroke_r	r	n/a
353.9545	0.134	707909	keystroke_Key.space	Key.space	n/a
354.314	0.076	708628	keystroke_s	s	n/a
354.524	0.1055	709048	keystroke_t	t	n/a
354.645	0.0895	709290	keystroke_r	r	n/a
354.8995	0.105	709799	keystroke_e	e	n/a
355.095	0.0895	710190	keystroke_n	n	n/a
355.4545	0.09	710909	keystroke_g	g	n/a
355.7695	0.09	711539	keystroke_t	t	n/a
355.9195	0.0905	711839	keystroke_h	h	n/a
356.3545	0.075	712709	keystroke_e	e	n/a
356.4595	0.105	712919	keystroke_n	n	n/a
356.7595	0.1355	713519	keystroke_i	i	n/a
356.8645	0.105	713729	keystroke_n	n	n/a
357.0145	0.12	714029	keystroke_g	g	n/a
357.1045	0.135	714209	keystroke_Key.space	Key.space	n/a
357.4045	0.045	714809	keystroke_a	a	n/a
357.734	0.075	715468	keystroke_Key.backspace	Key.backspace	n/a
357.825	0.075	715650	keystroke_e	e	n/a
358.049	0.105	716098	keystroke_x	x	n/a
358.244	0.091	716488	keystroke_p	p	n/a
358.425	0.135	716850	keystroke_r	r	n/a
358.53	0.12	717060	keystroke_e	e	n/a
358.799	0.0755	717598	keystroke_s	s	n/a
358.9645	0.09	717929	keystroke_s	s	n/a
359.174	0.0455	718348	keystroke_e	e	n/a
359.3545	0.12	718709	keystroke_d	d	n/a
359.4595	0.105	718919	keystroke_Key.space	Key.space	n/a
359.6845	0.09	719369	keystroke_w	w	n/a
359.79	0.0745	719580	keystroke_h	h	n/a
359.9845	0.075	719969	keystroke_y	y	n/a
360.3295	0.0755	720659	keystroke_'	'	n/a
360.5395	0.09	721079	keystroke_d	d	n/a
360.8695	0.075	721739	keystroke_Key.enter	Key.enter	n/a
360.9505	5.396	721901	prompt	n/a	whats companies number locks\n
361.7245	0.0905	723449	keystroke_w	w	n/a
361.86	0.09	723720	keystroke_h	h	n/a
361.9945	0.1055	723989	keystroke_a	a	n/a
362.1895	0.12	724379	keystroke_t	t	n/a
362.3245	0.135	724649	keystroke_s	s	n/a
362.4445	0.12	724889	keystroke_Key.space	Key.space	n/a
362.8495	0.075	725699	keystroke_c	c	n/a
362.969	0.1505	725938	keystroke_o	o	n/a
363.074	0.1055	726148	keystroke_m	m	n/a
363.284	0.09	726568	keystroke_p	p	n/a
363.45	0.089	726900	keystroke_a	a	n/a
363.5995	0.0745	727199	keystroke_n	n	n/a
363.779	0.0905	727558	keystroke_i	i	n/a
363.9745	0.15	727949	keystroke_e	e	n/a
364.1545	0.135	728309	keystroke_s	s	n/a
364.3795	0.104	728759	keystroke_Key.space	Key.space	n/a
364.634	0.06	729268	keystroke_n	n	n/a
364.829	0.0755	729658	keystroke_u	u	n/a
365.0545	0.0605	730109	keystroke_m	m	n/a
365.235	0.074	730470	keystroke_b	b	n/a
365.325	0.12	730650	keystroke_e	e	n/a
365.399	0.121	730798	keystroke_r	r	n/a
365.4745	0.09	730949	keystroke_Key.space	Key.space	n/a
365.594	0.0905	731188	keystroke_l	l	n/a
365.76	0.074	731520	keystroke_o	o	n/a
365.85	0.074	731700	keystroke_c	c	n/a
365.969	0.1055	731938	keystroke_k	k	n/a
366.104	0.105	732208	keystroke_s	s	n/a
366.254	0.09	732508	keystroke_Key.enter	Key.enter	n/a
366.351	9.16	732702	prompt	n/a	marketing academic immunology staff\n
366.9895	0.0755	733979	keystroke_m	m	n/a
367.0495	0.09	734099	keystroke_a	a	n/a
367.2445	0.075	734489	keystroke_r	r	n/a
367.304	0.1055	734608	keystroke_k	k	n/a
367.4245	0.09	734849	keystroke_e	e	n/a
367.6345	0.075	735269	keystroke_t	t	n/a
367.814	0.1205	735628	keystroke_i	i	n/a
367.9045	0.0905	735809	keystroke_n	n	n/a
368.0095	0.1195	736019	keystroke_g	g	n/a
368.099	0.1055	736198	keystroke_Key.space	Key.space	n/a
368.2795	0.1045	736559	keystroke_a	a	n/a
368.564	0.09	737128	keystroke_c	c	n/a
368.804	0.105	737608	keystroke_a	a	n/a
369.3895	0.0745	738779	keystroke_d	d	n/a
369.6595	0.0595	739319	keystroke_e	e	n/a
369.8845	0.09	739769	keystroke_m	m	n/a
370.3195	0.075	740639	keystroke_i	i	n/a
370.4395	0.105	740879	keystroke_c	c	n/a
370.6345	0.0895	741269	keystroke_Key.space	Key.space	n/a
370.964	0.0755	741928	keystroke_i	i	n/a
371.1895	0.075	742379	keystroke_m	m	n/a
371.3545	0.075	742709	keystroke_m	m	n/a
371.6245	0.135	743249	keystroke_u	u	n/a
371.7295	0.1205	743459	keystroke_n	n	n/a
372.15	0.0895	744300	keystroke_o	o	n/a
372.4945	0.105	744989	keystroke_l	l	n/a
372.7195	0.09	745439	keystroke_o	o	n/a
373.034	0.0605	746068	keystroke_g	g	n/a
373.6045	0.059	747209	keystroke_y	y	n/a
373.9645	0.1195	747929	keystroke_Key.space	Key.space	n/a
374.444	0.0905	748888	keystroke_s	s	n/a
374.669	0.09	749338	keystroke_t	t	n/a
374.849	0.12	749698	keystroke_a	a	n/a
375.119	0.0605	750238	keystroke_f	f	n/a
375.2395	0.0745	750479	keystroke_f	f	n/a
375.404	0.105	750808	keystroke_Key.enter	Key.enter	n/a
375.5165	4.0445	751033	prompt	n/a	bring so medicaid time\n
376.259	0.09	752518	keystroke_b	b	n/a
376.3645	0.075	752729	keystroke_r	r	n/a
376.5295	0.1045	753059	keystroke_i	i	n/a
376.619	0.09	753238	keystroke_n	n	n/a
376.6945	0.12	753389	keystroke_g	g	n/a
376.784	0.15	753568	keystroke_Key.space	Key.space	n/a
376.949	0.1055	753898	keystroke_s	s	n/a
377.069	0.0755	754138	keystroke_o	o	n/a
377.129	0.106	754258	keystroke_Key.space	Key.space	n/a
377.4145	0.0745	754829	keystroke_m	m	n/a
377.55	0.0745	755100	keystroke_e	e	n/a
377.744	0.09	755488	keystroke_d	d	n/a
377.8945	0.0905	755789	keystroke_i	i	n/a
378.0745	0.09	756149	keystroke_c	c	n/a
378.239	0.0905	756478	keystroke_a	a	n/a
378.359	0.075	756718	keystroke_i	i	n/a
378.479	0.12	756958	keystroke_d	d	n/a
378.569	0.135	757138	keystroke_Key.space	Key.space	n/a
378.824	0.075	757648	keystroke_t	t	n/a
378.945	0.134	757890	keystroke_i	i	n/a
379.034	0.09	758068	keystroke_m	m	n/a
379.139	0.1055	758278	keystroke_e	e	n/a
379.4545	0.105	758909	keystroke_Key.enter	Key.enter	n/a
379.565	7.421	759130	prompt	n/a	pioneer claim waiting nodes\n
380.309	0.075	760618	keystroke_p	p	n/a
380.5645	0.0745	761129	keystroke_i	i	n/a
380.774	0.0755	761548	keystroke_o	o	n/a
380.954	0.075	761908	keystroke_n	n	n/a
381.149	0.06	762298	keystroke_e	e	n/a
381.3145	0.1045	762629	keystroke_e	e	n/a
381.4795	0.105	762959	keystroke_r	r	n/a
381.569	0.12	763138	keystroke_Key.space	Key.space	n/a
381.945	0.074	763890	keystroke_c	c	n/a
382.0645	0.12	764129	keystroke_l	l	n/a
382.439	0.105	764878	keystroke_a	a	n/a
382.829	0.06	765658	keystroke_m	m	n/a
382.874	0.15	765748	keystroke_i	i	n/a
383.2645	0.075	766529	keystroke_Key.backspace	Key.backspace	n/a
383.3995	0.06	766799	keystroke_Key.backspace	Key.backspace	n/a
383.7295	0.075	767459	keystroke_m	m	n/a
384.0595	0.09	768119	keystroke_Key.backspace	Key.backspace	n/a
384.3295	0.1505	768659	keystroke_i	i	n/a
384.4345	0.1205	768869	keystroke_m	m	n/a
384.5395	0.09	769079	keystroke_Key.space	Key.space	n/a
384.7195	0.1205	769439	keystroke_w	w	n/a
384.8545	0.1355	769709	keystroke_a	a	n/a
385.0795	0.105	770159	keystroke_i	i	n/a
385.3045	0.06	770609	keystroke_t	t	n/a
385.4695	0.165	770939	keystroke_i	i	n/a
385.5895	0.105	771179	keystroke_n	n	n/a
385.7395	0.105	771479	keystroke_g	g	n/a
385.8295	0.09	771659	keystroke_Key.space	Key.space	n/a
386.129	0.0905	772258	keystroke_n	n	n/a
386.324	0.076	772648	keystroke_o	o	n/a
386.4145	0.09	772829	keystroke_d	d	n/a
386.639	0.12	773278	keystroke_e	e	n/a
386.7445	0.135	773489	keystroke_s	s	n/a
386.88	0.104	773760	keystroke_Key.enter	Key.enter	n/a
386.989	9.4625	773978	prompt	n/a	cordless gamecube paragraph nurses\n
387.93	0.0595	775860	keystroke_c	c	n/a
388.0195	0.075	776039	keystroke_o	o	n/a
388.1545	0.075	776309	keystroke_r	r	n/a
388.32	0.0895	776640	keystroke_d	d	n/a
388.4245	0.09	776849	keystroke_l	l	n/a
388.604	0.0305	777208	keystroke_e	e	n/a
388.8295	0.0605	777659	keystroke_s	s	n/a
388.994	0.076	777988	keystroke_s	s	n/a
389.1745	0.09	778349	keystroke_Key.space	Key.space	n/a
389.6845	0.06	779369	keystroke_g	g	n/a
389.8795	0.09	779759	keystroke_a	a	n/a
389.9995	0.09	779999	keystroke_m	m	n/a
390.119	0.135	780238	keystroke_e	e	n/a
390.285	0.044	780570	keystroke_s	s	n/a
390.7045	0.0895	781409	keystroke_Key.backspace	Key.backspace	n/a
391.1545	0.015	782309	keystroke_b	b	n/a
391.4095	0.0455	782819	keystroke_c	c	n/a
391.4845	0.09	782969	keystroke_Key.backspace	Key.backspace	n/a
391.619	0.0755	783238	keystroke_Key.backspace	Key.backspace	n/a
391.7395	0.09	783479	keystroke_c	c	n/a
391.9645	0.1645	783929	keystroke_u	u	n/a
392.084	0.105	784168	keystroke_b	b	n/a
392.25	0.134	784500	keystroke_e	e	n/a
392.3545	0.1195	784709	keystroke_Key.space	Key.space	n/a
392.9845	0.105	785969	keystroke_p	p	n/a
393.119	0.1205	786238	keystroke_a	a	n/a
393.33	0.1345	786660	keystroke_r	r	n/a
393.479	0.105	786958	keystroke_a	a	n/a
393.734	0.06	787468	keystroke_g	g	n/a
393.9445	0.09	787889	keystroke_r	r	n/a
394.049	0.1205	788098	keystroke_a	a	n/a
394.4695	0.0905	788939	keystroke_p	p	n/a
394.7695	0.09	789539	keystroke_h	h	n/a
394.904	0.075	789808	keystroke_Key.space	Key.space	n/a
395.204	0.075	790408	keystroke_n	n	n/a
395.43	0.0895	790860	keystroke_u	u	n/a
395.639	0.0755	791278	keystroke_r	r	n/a
395.834	0.1055	791668	keystroke_s	s	n/a
395.9995	0.12	791999	keystroke_e	e	n/a
396.134	0.105	792268	keystroke_s	s	n/a
396.359	0.09	792718	keystroke_Key.enter	Key.enter	n/a
396.456	8.935	792912	prompt	n/a	trivia vertical architecture preparation\n
397.08	0.104	794160	keystroke_t	t	n/a
397.2	0.12	794400	keystroke_r	r	n/a
397.3495	0.1055	794699	keystroke_i	i	n/a
397.53	0.119	795060	keystroke_v	v	n/a
397.664	0.0905	795328	keystroke_i	i	n/a
397.8895	0.089	795779	keystroke_a	a	n/a
398.0245	0.0895	796049	keystroke_Key.space	Key.space	n/a
398.4295	0.075	796859	keystroke_v	v	n/a
398.6395	0.1195	797279	keystroke_e	e	n/a
398.744	0.075	797488	keystroke_r	r	n/a
398.9395	0.0745	797879	keystroke_t	t	n/a
399.0595	0.09	798119	keystroke_i	i	n/a
399.2845	0.089	798569	keystroke_c	c	n/a
399.434	0.09	798868	keystroke_a	a	n/a
399.5395	0.0745	799079	keystroke_l	l	n/a
399.6595	0.105	799319	keystroke_Key.space	Key.space	n/a
399.9145	0.0895	799829	keystroke_a	a	n/a
400.139	0.075	800278	keystroke_r	r	n/a
400.409	0.0905	800818	keystroke_c	c	n/a
400.574	0.0605	801148	keystroke_h	h	n/a
400.8	0.0895	801600	keystroke_i	i	n/a
401.144	0.0905	802288	keystroke_t	t	n/a
401.2645	0.1045	802529	keystroke_e	e	n/a
401.819	0.075	803638	keystroke_c	c	n/a
402.1195	0.0895	804239	keystroke_t	t	n/a
402.494	0.09	804988	keystroke_u	u	n/a
402.614	0.1805	805228	keystroke_r	r	n/a
402.779	0.1355	805558	keystroke_e	e	n/a
402.899	0.1055	805798	keystroke_Key.space	Key.space	n/a
403.109	0.105	806218	keystroke_p	p	n/a
403.334	0.15	806668	keystroke_r	r	n/a
403.4695	0.1045	806939	keystroke_e	e	n/a
403.739	0.09	807478	keystroke_p	p	n/a
403.844	0.09	807688	keystroke_a	a	n/a
404.04	0.104	808080	keystroke_r	r	n/a
404.159	0.1205	808318	keystroke_a	a	n/a
404.4145	0.075	808829	keystroke_t	t	n/a
404.534	0.106	809068	keystroke_i	i	n/a
404.7745	0.165	809549	keystroke_o	o	n/a
404.924	0.075	809848	keystroke_n	n	n/a
405.299	0.0905	810598	keystroke_Key.enter	Key.enter	n/a
405.4045	9.5715	810809	prompt	n/a	direct change votes frequencies\n
406.034	0.075	812068	keystroke_d	d	n/a
406.274	0.09	812548	keystroke_i	i	n/a
406.4095	0.075	812819	keystroke_r	r	n/a
406.5295	0.12	813059	keystroke_e	e	n/a
406.8295	0.059	813659	keystroke_c	c	n/a
407.0845	0.06	814169	keystroke_t	t	n/a
407.1445	0.105	814289	keystroke_Key.space	Key.space	n/a
407.4595	0.0895	814919	keystroke_c	c	n/a
407.564	0.06	815128	keystroke_h	h	n/a
407.669	0.09	815338	keystroke_a	a	n/a
407.774	0.0905	815548	keystroke_n	n	n/a
407.9085	0.106	815817	keystroke_g	g	n/a
408.0295	0.104	816059	keystroke_e	e	n/a
408.0885	0.105	816177	keystroke_Key.space	Key.space	n/a
408.4195	0.089	816839	keystroke_c	c	n/a
408.9445	0.0745	817889	keystroke_Key.backspace	Key.backspace	n/a
409.0335	0.1065	818067	keystroke_v	v	n/a
409.4535	0.076	818907	keystroke_o	o	n/a
409.5735	0.211	819147	keystroke_t	t	n/a
409.7685	0.151	819537	keystroke_e	e	n/a
409.89	0.149	819780	keystroke_s	s	n/a
410.0395	0.105	820079	keystroke_Key.space	Key.space	n/a
410.3685	0.121	820737	keystroke_f	f	n/a
410.6695	0.12	821339	keystroke_r	r	n/a
410.8045	0.135	821609	keystroke_e	e	n/a
410.9845	0.135	821969	keystroke_s	s	n/a
411.629	0.0755	823258	keystroke_Key.backspace	Key.backspace	n/a
411.749	0.105	823498	keystroke_q	q	n/a
412.8145	0.045	825629	keystroke_u	u	n/a
412.9795	0.09	825959	keystroke_e	e	n/a
413.159	0.12	826318	keystroke_n	n	n/a
413.549	0.0905	827098	keystroke_c	c	n/a
413.7595	0.1045	827519	keystroke_i	i	n/a
414.0145	0.0595	828029	keystroke_e	e	n/a
414.059	0.105	828118	keystroke_s	s	n/a
414.404	0.1055	828808	keystroke_Key.space	Key.space	n/a
414.6895	0.074	829379	keystroke_Key.backspace	Key.backspace	n/a
414.8845	0.0895	829769	keystroke_Key.enter	Key.enter	n/a
414.98	11.891	829960	prompt	n/a	declaration uruguay extraordinary lesbians\n
415.604	0.0905	831208	keystroke_d	d	n/a
415.829	0.09	831658	keystroke_e	e	n/a
416.0845	0.0895	832169	keystroke_c	c	n/a
416.204	0.09	832408	keystroke_l	l	n/a
416.414	0.09	832828	keystroke_a	a	n/a
416.6095	0.12	833219	keystroke_r	r	n/a
416.744	0.09	833488	keystroke_a	a	n/a
416.984	0.06	833968	keystroke_t	t	n/a
417.0895	0.0595	834179	keystroke_i	i	n/a
417.299	0.106	834598	keystroke_o	o	n/a
417.4645	0.1045	834929	keystroke_n	n	n/a
417.629	0.105	835258	keystroke_Key.space	Key.space	n/a
417.9595	0.09	835919	keystroke_u	u	n/a
418.1545	0.0905	836309	keystroke_r	r	n/a
418.514	0.1055	837028	keystroke_u	u	n/a
418.7845	0.105	837569	keystroke_g	g	n/a
419.0545	0.09	838109	keystroke_u	u	n/a
419.2195	0.104	838439	keystroke_a	a	n/a
419.4445	0.075	838889	keystroke_y	y	n/a
419.5785	0.106	839157	keystroke_Key.space	Key.space	n/a
419.9535	0.091	839907	keystroke_e	e	n/a
420.6145	0.12	841229	keystroke_x	x	n/a
422.534	0.105	845068	keystroke_t	t	n/a
422.699	0.0905	845398	keystroke_r	r	n/a
422.8795	0.09	845759	keystroke_a	a	n/a
423.4195	0.09	846839	keystroke_o	o	n/a
423.5995	0.09	847199	keystroke_r	r	n/a
423.9	0.059	847800	keystroke_d	d	n/a
424.109	0.1205	848218	keystroke_i	i	n/a
424.1845	0.09	848369	keystroke_n	n	n/a
424.334	0.1055	848668	keystroke_a	a	n/a
424.5595	0.0745	849119	keystroke_r	r	n/a
424.754	0.06	849508	keystroke_y	y	n/a
424.919	0.105	849838	keystroke_Key.space	Key.space	n/a
425.504	0.0905	851008	keystroke_l	l	n/a
425.655	0.1495	851310	keystroke_e	e	n/a
425.8045	0.12	851609	keystroke_s	s	n/a
426.0895	0.06	852179	keystroke_b	b	n/a
426.2545	0.075	852509	keystroke_i	i	n/a
426.3745	0.075	852749	keystroke_a	a	n/a
426.5095	0.06	853019	keystroke_n	n	n/a
426.6145	0.09	853229	keystroke_s	s	n/a
426.7795	0.09	853559	keystroke_Key.enter	Key.enter	n/a
426.878	5.993	853756	prompt	n/a	donald revision quad aqua\n
427.589	0.1055	855178	keystroke_d	d	n/a
427.7245	0.12	855449	keystroke_o	o	n/a
427.814	0.09	855628	keystroke_n	n	n/a
427.919	0.0905	855838	keystroke_a	a	n/a
428.039	0.0755	856078	keystroke_l	l	n/a
428.174	0.1205	856348	keystroke_d	d	n/a
428.264	0.1345	856528	keystroke_Key.space	Key.space	n/a
428.5195	0.12	857039	keystroke_r	r	n/a
428.6245	0.1195	857249	keystroke_e	e	n/a
428.924	0.076	857848	keystroke_v	v	n/a
429.074	0.09	858148	keystroke_i	i	n/a
429.2095	0.09	858419	keystroke_s	s	n/a
429.2995	0.089	858599	keystroke_i	i	n/a
429.5095	0.105	859019	keystroke_o	o	n/a
429.5995	0.0745	859199	keystroke_n	n	n/a
429.689	0.0905	859378	keystroke_Key.space	Key.space	n/a
430.079	0.0905	860158	keystroke_q	q	n/a
430.2895	0.105	860579	keystroke_u	u	n/a
430.484	0.09	860968	keystroke_a	a	n/a
430.7695	0.135	861539	keystroke_d	d	n/a
430.9795	0.1045	861959	keystroke_Key.space	Key.space	n/a
431.8495	0.105	863699	keystroke_a	a	n/a
432.1495	0.075	864299	keystroke_q	q	n/a
432.4195	0.105	864839	keystroke_u	u	n/a
432.5395	0.105	865079	keystroke_a	a	n/a
432.764	0.105	865528	keystroke_Key.enter	Key.enter	n/a
432.875	8.456	865750	prompt	n/a	acknowledge crew preliminary case\n
433.619	0.121	867238	keystroke_a	a	n/a
433.8895	0.09	867779	keystroke_c	c	n/a
434.3995	0.075	868799	keystroke_k	k	n/a
435.0295	0.0905	870059	keystroke_n	n	n/a
435.2545	0.09	870509	keystroke_o	o	n/a
435.4495	0.1045	870899	keystroke_w	w	n/a
435.5995	0.09	871199	keystroke_l	l	n/a
435.839	0.0605	871678	keystroke_e	e	n/a
436.064	0.0905	872128	keystroke_d	d	n/a
436.304	0.09	872608	keystroke_g	g	n/a
436.424	0.135	872848	keystroke_e	e	n/a
436.544	0.09	873088	keystroke_Key.space	Key.space	n/a
436.934	0.0905	873868	keystroke_c	c	n/a
437.1895	0.1495	874379	keystroke_r	r	n/a
437.3845	0.09	874769	keystroke_e	e	n/a
437.579	0.12	875158	keystroke_w	w	n/a
437.669	0.105	875338	keystroke_Key.space	Key.space	n/a
437.819	0.1055	875638	keystroke_p	p	n/a
437.9545	0.09	875909	keystroke_r	r	n/a
438.2235	0.09	876447	keystroke_e	e	n/a
438.4945	0.09	876989	keystroke_l	l	n/a
438.7195	0.105	877439	keystroke_i	i	n/a
438.8995	0.105	877799	keystroke_m	m	n/a
439.0795	0.12	878159	keystroke_i	i	n/a
439.259	0.1055	878518	keystroke_n	n	n/a
439.4085	0.091	878817	keystroke_a	a	n/a
439.6045	0.075	879209	keystroke_r	r	n/a
439.7695	0.089	879539	keystroke_y	y	n/a
439.9185	0.105	879837	keystroke_Key.space	Key.space	n/a
440.4885	0.091	880977	keystroke_c	c	n/a
440.639	0.105	881278	keystroke_a	a	n/a
440.879	0.105	881758	keystroke_s	s	n/a
441.0445	0.1345	882089	keystroke_e	e	n/a
441.224	0.1055	882448	keystroke_Key.enter	Key.enter	n/a
441.334	8.6075	882668	prompt	n/a	dawn governance threatened thousand\n
442.1845	0.075	884369	keystroke_d	d	n/a
442.5595	0.1045	885119	keystroke_a	a	n/a
442.7845	0.09	885569	keystroke_w	w	n/a
442.934	0.0755	885868	keystroke_n	n	n/a
443.039	0.075	886078	keystroke_Key.space	Key.space	n/a
443.549	0.0595	887098	keystroke_g	g	n/a
443.654	0.1205	887308	keystroke_o	o	n/a
443.7885	0.09	887577	keystroke_v	v	n/a
444.0295	0.09	888059	keystroke_e	e	n/a
444.1045	0.0895	888209	keystroke_r	r	n/a
444.2535	0.091	888507	keystroke_n	n	n/a
444.629	0.1055	889258	keystroke_a	a	n/a
444.8845	0.12	889769	keystroke_n	n	n/a
445.124	0.075	890248	keystroke_c	c	n/a
445.4245	0.09	890849	keystroke_e	e	n/a
445.4995	0.1045	890999	keystroke_Key.space	Key.space	n/a
446.264	0.075	892528	keystroke_t	t	n/a
446.4745	0.06	892949	keystroke_h	h	n/a
446.5495	0.12	893099	keystroke_r	r	n/a
446.699	0.165	893398	keystroke_e	e	n/a
446.924	0.045	893848	keystroke_a	a	n/a
447.074	0.1055	894148	keystroke_t	t	n/a
447.329	0.09	894658	keystroke_e	e	n/a
447.5545	0.1045	895109	keystroke_n	n	n/a
447.689	0.09	895378	keystroke_e	e	n/a
447.929	0.15	895858	keystroke_d	d	n/a
448.064	0.1055	896128	keystroke_Key.space	Key.space	n/a
448.274	0.09	896548	keystroke_t	t	n/a
448.439	0.1055	896878	keystroke_h	h	n/a
448.6045	0.0895	897209	keystroke_o	o	n/a
448.814	0.075	897628	keystroke_u	u	n/a
449.069	0.105	898138	keystroke_s	s	n/a
449.4145	0.09	898829	keystroke_a	a	n/a
449.5195	0.105	899039	keystroke_n	n	n/a
449.6545	0.105	899309	keystroke_d	d	n/a
449.8495	0.09	899699	keystroke_Key.enter	Key.enter	n/a
449.9455	3.9405	899891	prompt	n/a	custom noon till died\n
450.6445	0.09	901289	keystroke_c	c	n/a
450.8095	0.075	901619	keystroke_u	u	n/a
450.8995	0.09	901799	keystroke_s	s	n/a
451.1395	0.06	902279	keystroke_t	t	n/a
451.259	0.1195	902518	keystroke_o	o	n/a
451.349	0.0745	902698	keystroke_m	m	n/a
451.4085	0.106	902817	keystroke_Key.space	Key.space	n/a
451.6485	0.061	903297	keystroke_n	n	n/a
451.8285	0.076	903657	keystroke_o	o	n/a
451.9645	0.104	903929	keystroke_o	o	n/a
452.1135	0.09	904227	keystroke_n	n	n/a
452.2045	0.104	904409	keystroke_Key.space	Key.space	n/a
452.3395	0.105	904679	keystroke_t	t	n/a
452.4585	0.09	904917	keystroke_i	i	n/a
452.6845	0.06	905369	keystroke_l	l	n/a
452.7895	0.075	905579	keystroke_l	l	n/a
452.8785	0.091	905757	keystroke_Key.space	Key.space	n/a
453.0745	0.105	906149	keystroke_d	d	n/a
453.1945	0.134	906389	keystroke_i	i	n/a
453.4335	0.061	906867	keystroke_e	e	n/a
453.6135	0.09	907227	keystroke_d	d	n/a
453.7635	0.12	907527	keystroke_Key.enter	Key.enter	n/a
453.89	7.241	907780	prompt	n/a	spend true consistent i've\n
454.59	0.0895	909180	keystroke_s	s	n/a
454.6935	0.106	909387	keystroke_p	p	n/a
454.8445	0.09	909689	keystroke_e	e	n/a
455.1745	0.0745	910349	keystroke_n	n	n/a
455.279	0.12	910558	keystroke_d	d	n/a
455.3835	0.121	910767	keystroke_Key.space	Key.space	n/a
455.6245	0.105	911249	keystroke_t	t	n/a
455.744	0.1205	911488	keystroke_r	r	n/a
455.9085	0.091	911817	keystroke_u	u	n/a
456.03	0.119	912060	keystroke_e	e	n/a
456.119	0.105	912238	keystroke_Key.space	Key.space	n/a
456.569	0.03	913138	keystroke_c	c	n/a
456.6295	0.075	913259	keystroke_o	o	n/a
456.6895	0.105	913379	keystroke_n	n	n/a
456.8545	0.075	913709	keystroke_s	s	n/a
456.9745	0.0755	913949	keystroke_i	i	n/a
457.0345	0.075	914069	keystroke_s	s	n/a
457.2895	0.06	914579	keystroke_t	t	n/a
457.4545	0.075	914909	keystroke_n	n	n/a
457.6045	0.09	915209	keystroke_e	e	n/a
457.8445	0.06	915689	keystroke_n	n	n/a
457.9795	0.12	915959	keystroke_t	t	n/a
458.1295	0.105	916259	keystroke_Key.space	Key.space	n/a
458.7745	0.059	917549	keystroke_Key.backspace	Key.backspace	n/a
458.9085	0.076	917817	keystroke_Key.backspace	Key.backspace	n/a
459.0435	0.061	918087	keystroke_Key.backspace	Key.backspace	n/a
459.164	0.0755	918328	keystroke_Key.backspace	Key.backspace	n/a
459.314	0.06	918628	keystroke_Key.backspace	Key.backspace	n/a
459.4945	0.0895	918989	keystroke_e	e	n/a
459.644	0.09	919288	keystroke_n	n	n/a
459.7945	0.1045	919589	keystroke_t	t	n/a
459.869	0.105	919738	keystroke_Key.space	Key.space	n/a
460.199	0.105	920398	keystroke_i	i	n/a
460.484	0.1055	920968	keystroke_'	'	n/a
460.665	0.0745	921330	keystroke_v	v	n/a
460.8595	0.1045	921719	keystroke_e	e	n/a
461.024	0.105	922048	keystroke_Key.enter	Key.enter	n/a
461.1355	10.3755	922271	prompt	n/a	motion canvas grade constraints\n
461.7745	0.0745	923549	keystroke_m	m	n/a
461.939	0.075	923878	keystroke_o	o	n/a
462.059	0.09	924118	keystroke_t	t	n/a
462.209	0.0895	924418	keystroke_i	i	n/a
462.464	0.1195	924928	keystroke_o	o	n/a
462.554	0.0905	925108	keystroke_n	n	n/a
462.689	0.1055	925378	keystroke_Key.space	Key.space	n/a
463.049	0.0755	926098	keystroke_v	v	n/a
463.184	0.105	926368	keystroke_a	a	n/a
463.319	0.09	926638	keystroke_n	n	n/a
463.8895	0.1045	927779	keystroke_v	v	n/a
464.1145	0.105	928229	keystroke_a	a	n/a
464.474	0.09	928948	keystroke_Key.backspace	Key.backspace	n/a
464.609	0.09	929218	keystroke_Key.backspace	Key.backspace	n/a
464.7445	0.0745	929489	keystroke_Key.backspace	Key.backspace	n/a
464.8795	0.0745	929759	keystroke_Key.backspace	Key.backspace	n/a
465.134	0.075	930268	keystroke_Key.backspace	Key.backspace	n/a
465.269	0.0905	930538	keystroke_c	c	n/a
465.5245	0.12	931049	keystroke_o	o	n/a
465.614	0.105	931228	keystroke_n	n	n/a
466.139	0.0155	932278	keystroke_Key.backspace	Key.backspace	n/a
466.2145	0.0595	932429	keystroke_Key.backspace	Key.backspace	n/a
466.319	0.09	932638	keystroke_a	a	n/a
466.7695	0.06	933539	keystroke_n	n	n/a
466.9195	0.1045	933839	keystroke_v	v	n/a
467.234	0.0755	934468	keystroke_a	a	n/a
467.4745	0.09	934949	keystroke_s	s	n/a
467.669	0.0905	935338	keystroke_Key.space	Key.space	n/a
468.149	0.09	936298	keystroke_g	g	n/a
468.419	0.121	936838	keystroke_r	r	n/a
468.584	0.1205	937168	keystroke_a	a	n/a
468.7945	0.105	937589	keystroke_d	d	n/a
468.9745	0.105	937949	keystroke_e	e	n/a
469.0485	0.106	938097	keystroke_Key.space	Key.space	n/a
469.319	0.106	938638	keystroke_c	c	n/a
469.4995	0.089	938999	keystroke_o	o	n/a
469.5595	0.1195	939119	keystroke_n	n	n/a
469.7245	0.089	939449	keystroke_s	s	n/a
469.9495	0.119	939899	keystroke_t	t	n/a
470.054	0.1205	940108	keystroke_r	r	n/a
470.4895	0.1195	940979	keystroke_a	a	n/a
470.714	0.165	941428	keystroke_i	i	n/a
470.8345	0.1195	941669	keystroke_n	n	n/a
471.0445	0.12	942089	keystroke_t	t	n/a
471.1645	0.1495	942329	keystroke_s	s	n/a
471.389	0.12	942778	keystroke_Key.enter	Key.enter	n/a
471.5155	10.4955	943031	prompt	n/a	economies wagner republic firms\n
472.3195	0.075	944639	keystroke_e	e	n/a
472.56	0.0895	945120	keystroke_c	c	n/a
472.7845	0.12	945569	keystroke_o	o	n/a
472.8895	0.135	945779	keystroke_n	n	n/a
473.0695	0.105	946139	keystroke_o	o	n/a
473.88	0.0895	947760	keystroke_m	m	n/a
474.224	0.0755	948448	keystroke_i	i	n/a
474.3445	0.1645	948689	keystroke_e	e	n/a
474.4945	0.12	948989	keystroke_s	s	n/a
474.554	0.1205	949108	keystroke_Key.space	Key.space	n/a
474.8385	0.106	949677	keystroke_w	w	n/a
475.0035	0.12	950007	keystroke_a	a	n/a
475.2285	0.076	950457	keystroke_g	g	n/a
475.454	0.0905	950908	keystroke_n	n	n/a
475.6045	0.104	951209	keystroke_e	e	n/a
475.7385	0.0755	951477	keystroke_e	e	n/a
475.7985	0.1505	951597	keystroke_r	r	n/a
475.9345	0.1045	951869	keystroke_Key.space	Key.space	n/a
476.1735	0.136	952347	keystroke_r	r	n/a
476.3245	0.09	952649	keystroke_e	e	n/a
476.7745	0.09	953549	keystroke_Key.backspace	Key.backspace	n/a
476.924	0.0595	953848	keystroke_Key.backspace	Key.backspace	n/a
477.059	0.0605	954118	keystroke_Key.backspace	Key.backspace	n/a
477.1785	0.06	954357	keystroke_Key.backspace	Key.backspace	n/a
477.3295	0.105	954659	keystroke_r	r	n/a
477.4645	0.089	954929	keystroke_Key.space	Key.space	n/a
477.6895	0.059	955379	keystroke_Key.backspace	Key.backspace	n/a
477.8235	0.061	955647	keystroke_Key.backspace	Key.backspace	n/a
477.9435	0.075	955887	keystroke_Key.backspace	Key.backspace	n/a
478.05	0.1645	956100	keystroke_r	r	n/a
478.1695	0.18	956339	keystroke_Key.space	Key.space	n/a
479.1745	0.1345	958349	keystroke_r	r	n/a
479.31	0.119	958620	keystroke_e	e	n/a
479.6095	0.105	959219	keystroke_p	p	n/a
479.9545	0.0755	959909	keystroke_u	u	n/a
480.164	0.075	960328	keystroke_b	b	n/a
480.4045	0.09	960809	keystroke_l	l	n/a
480.599	0.075	961198	keystroke_i	i	n/a
480.734	0.09	961468	keystroke_c	c	n/a
481.004	0.075	962008	keystroke_Key.space	Key.space	n/a
481.229	0.0905	962458	keystroke_f	f	n/a
481.3795	0.09	962759	keystroke_i	i	n/a
481.5145	0.09	963029	keystroke_r	r	n/a
481.6495	0.09	963299	keystroke_m	m	n/a
481.7845	0.12	963569	keystroke_s	s	n/a
481.9195	0.09	963839	keystroke_Key.enter	Key.enter	n/a
482.015	13.1955	964030	prompt	n/a	charleston mysql pharmaceutical heat\n
482.774	0.0895	965548	keystroke_c	c	n/a
482.909	0.0755	965818	keystroke_h	h	n/a
482.999	0.1055	965998	keystroke_a	a	n/a
483.2095	0.12	966419	keystroke_r	r	n/a
483.3595	0.12	966719	keystroke_e	e	n/a
483.9295	0.059	967859	keystroke_Key.backspace	Key.backspace	n/a
484.229	0.09	968458	keystroke_e	e	n/a
484.5295	0.074	969059	keystroke_Key.backspace	Key.backspace	n/a
484.7385	0.091	969477	keystroke_l	l	n/a
484.859	0.1645	969718	keystroke_e	e	n/a
485.0245	0.135	970049	keystroke_s	s	n/a
485.5035	0.046	971007	keystroke_t	t	n/a
485.7445	0.105	971489	keystroke_o	o	n/a
485.8345	0.15	971669	keystroke_n	n	n/a
486.0435	0.106	972087	keystroke_Key.space	Key.space	n/a
486.4945	0.089	972989	keystroke_m	m	n/a
486.9295	0.105	973859	keystroke_y	y	n/a
487.5145	0.135	975029	keystroke_s	s	n/a
488.5645	0.1045	977129	keystroke_q	q	n/a
488.6995	0.1055	977399	keystroke_l	l	n/a
488.984	0.105	977968	keystroke_Key.space	Key.space	n/a
489.7345	0.075	979469	keystroke_p	p	n/a
489.8245	0.1195	979649	keystroke_a	a	n/a
490.154	0.09	980308	keystroke_h	h	n/a
490.484	0.03	980968	keystroke_Key.backspace	Key.backspace	n/a
490.5745	0.09	981149	keystroke_Key.backspace	Key.backspace	n/a
490.8145	0.089	981629	keystroke_h	h	n/a
490.9185	0.075	981837	keystroke_a	a	n/a
491.099	0.0895	982198	keystroke_r	r	n/a
491.2185	0.0905	982437	keystroke_m	m	n/a
491.3685	0.106	982737	keystroke_a	a	n/a
492.0295	0.105	984059	keystroke_c	c	n/a
492.3445	0.014	984689	keystroke_e	e	n/a
492.4945	0.105	984989	keystroke_u	u	n/a
492.764	0.075	985528	keystroke_t	t	n/a
492.8545	0.09	985709	keystroke_i	i	n/a
493.424	0.015	986848	keystroke_c	c	n/a
493.589	0.105	987178	keystroke_a	a	n/a
493.709	0.09	987418	keystroke_l	l	n/a
493.844	0.105	987688	keystroke_Key.space	Key.space	n/a
494.2345	0.1045	988469	keystroke_h	h	n/a
494.3545	0.1195	988709	keystroke_e	e	n/a
494.459	0.105	988918	keystroke_a	a	n/a
494.6995	0.075	989399	keystroke_t	t	n/a
495.1185	0.0905	990237	keystroke_Key.enter	Key.enter	n/a
495.2155	5.3205	990431	prompt	n/a	mapping allen johnson tribute\n
496.0645	0.0745	992129	keystroke_m	m	n/a
496.1245	0.0895	992249	keystroke_a	a	n/a
496.319	0.075	992638	keystroke_p	p	n/a
496.4545	0.0745	992909	keystroke_p	p	n/a
496.6795	0.1045	993359	keystroke_i	i	n/a
496.7395	0.1045	993479	keystroke_n	n	n/a
496.8145	0.12	993629	keystroke_g	g	n/a
496.889	0.12	993778	keystroke_Key.space	Key.space	n/a
497.024	0.1055	994048	keystroke_a	a	n/a
497.1145	0.045	994229	keystroke_l	l	n/a
497.219	0.0905	994438	keystroke_l	l	n/a
497.354	0.105	994708	keystroke_e	e	n/a
497.4895	0.074	994979	keystroke_n	n	n/a
497.5485	0.106	995097	keystroke_Key.space	Key.space	n/a
497.7895	0.0895	995579	keystroke_j	j	n/a
497.984	0.075	995968	keystroke_o	o	n/a
498.209	0.0455	996418	keystroke_h	h	n/a
498.3745	0.075	996749	keystroke_n	n	n/a
498.525	0.1045	997050	keystroke_s	s	n/a
498.659	0.061	997318	keystroke_o	o	n/a
498.869	0.061	997738	keystroke_n	n	n/a
498.959	0.1205	997918	keystroke_Key.space	Key.space	n/a
499.2595	0.1045	998519	keystroke_t	t	n/a
499.394	0.105	998788	keystroke_r	r	n/a
499.545	0.104	999090	keystroke_i	i	n/a
499.784	0.09	999568	keystroke_b	b	n/a
499.979	0.06	999958	keystroke_u	u	n/a
500.069	0.105	1000138	keystroke_t	t	n/a
500.2195	0.0895	1000439	keystroke_e	e	n/a
500.4145	0.1195	1000829	keystroke_Key.enter	Key.enter	n/a
500.54	6.7305	1001080	prompt	n/a	percent remarks badly taste\n
501.1645	0.12	1002329	keystroke_p	p	n/a
501.2995	0.12	1002599	keystroke_e	e	n/a
501.3745	0.12	1002749	keystroke_r	r	n/a
501.6445	0.06	1003289	keystroke_c	c	n/a
501.8245	0.0745	1003649	keystroke_e	e	n/a
501.9145	0.075	1003829	keystroke_n	n	n/a
502.0045	0.105	1004009	keystroke_t	t	n/a
502.064	0.105	1004128	keystroke_Key.space	Key.space	n/a
502.2145	0.075	1004429	keystroke_m	m	n/a
502.2595	0.12	1004519	keystroke_e	e	n/a
502.364	0.0755	1004728	keystroke_r	r	n/a
502.619	0.06	1005238	keystroke_Key.backspace	Key.backspace	n/a
502.7695	0.045	1005539	keystroke_Key.backspace	Key.backspace	n/a
503.1595	0.075	1006319	keystroke_r	r	n/a
503.339	0.075	1006678	keystroke_Key.backspace	Key.backspace	n/a
503.474	0.09	1006948	keystroke_Key.backspace	Key.backspace	n/a
503.579	0.15	1007158	keystroke_r	r	n/a
503.6995	0.1345	1007399	keystroke_e	e	n/a
503.9545	0.09	1007909	keystroke_m	m	n/a
504.104	0.1055	1008208	keystroke_a	a	n/a
504.3145	0.09	1008629	keystroke_r	r	n/a
504.4935	0.091	1008987	keystroke_k	k	n/a
504.7485	0.15	1009497	keystroke_s	s	n/a
504.9135	0.09	1009827	keystroke_Key.space	Key.space	n/a
505.1995	0.074	1010399	keystroke_b	b	n/a
505.289	0.0905	1010578	keystroke_a	a	n/a
505.4085	0.1055	1010817	keystroke_d	d	n/a
505.5745	0.09	1011149	keystroke_l	l	n/a
505.7685	0.076	1011537	keystroke_y	y	n/a
505.8285	0.1055	1011657	keystroke_Key.space	Key.space	n/a
506.0845	0.105	1012169	keystroke_t	t	n/a
506.4285	0.091	1012857	keystroke_a	a	n/a
506.6695	0.09	1013339	keystroke_s	s	n/a
506.8795	0.12	1013759	keystroke_t	t	n/a
507.0145	0.135	1014029	keystroke_e	e	n/a
507.1935	0.075	1014387	keystroke_Key.enter	Key.enter	n/a
507.275	6.9405	1014550	prompt	n/a	moscow chapel afraid latest\n
507.8695	0.0745	1015739	keystroke_m	m	n/a
508.274	0.09	1016548	keystroke_o	o	n/a
508.379	0.105	1016758	keystroke_s	s	n/a
508.8295	0.044	1017659	keystroke_c	c	n/a
509.0995	0.074	1018199	keystroke_o	o	n/a
509.339	0.0895	1018678	keystroke_w	w	n/a
509.5185	0.106	1019037	keystroke_Key.space	Key.space	n/a
510.0595	0.1195	1020119	keystroke_c	c	n/a
510.1945	0.0595	1020389	keystroke_h	h	n/a
510.2695	0.104	1020539	keystroke_a	a	n/a
510.5095	0.105	1021019	keystroke_p	p	n/a
510.8545	0.09	1021709	keystroke_e	e	n/a
510.9595	0.105	1021919	keystroke_l	l	n/a
511.124	0.1055	1022248	keystroke_Key.space	Key.space	n/a
511.544	0.1055	1023088	keystroke_a	a	n/a
512.0545	0.105	1024109	keystroke_f	f	n/a
512.4595	0.09	1024919	keystroke_r	r	n/a
512.594	0.1205	1025188	keystroke_a	a	n/a
512.759	0.0755	1025518	keystroke_i	i	n/a
512.8645	0.12	1025729	keystroke_d	d	n/a
513.0145	0.1045	1026029	keystroke_Key.space	Key.space	n/a
513.2545	0.104	1026509	keystroke_l	l	n/a
513.3745	0.105	1026749	keystroke_a	a	n/a
513.5535	0.151	1027107	keystroke_t	t	n/a
513.6735	0.1655	1027347	keystroke_e	e	n/a
513.8085	0.1355	1027617	keystroke_s	s	n/a
513.9595	0.105	1027919	keystroke_t	t	n/a
514.109	0.1045	1028218	keystroke_Key.enter	Key.enter	n/a
514.222	10.5235	1028444	prompt	n/a	mastercard soonest convention toolbar\n
514.934	0.03	1029868	keystroke_m	m	n/a
514.9795	0.0895	1029959	keystroke_a	a	n/a
515.1895	0.09	1030379	keystroke_s	s	n/a
515.3845	0.075	1030769	keystroke_t	t	n/a
515.519	0.1505	1031038	keystroke_e	e	n/a
515.6545	0.06	1031309	keystroke_r	r	n/a
515.969	0.0755	1031938	keystroke_c	c	n/a
516.1045	0.1045	1032209	keystroke_a	a	n/a
516.314	0.0755	1032628	keystroke_r	r	n/a
516.5395	0.1195	1033079	keystroke_d	d	n/a
516.644	0.0895	1033288	keystroke_Key.space	Key.space	n/a
516.929	0.09	1033858	keystroke_c	c	n/a
517.064	0.075	1034128	keystroke_o	o	n/a
517.2145	0.09	1034429	keystroke_o	o	n/a
517.3945	0.09	1034789	keystroke_n	n	n/a
517.7545	0.089	1035509	keystroke_e	e	n/a
517.9495	0.105	1035899	keystroke_s	s	n/a
518.2045	0.1045	1036409	keystroke_t	t	n/a
518.309	0.105	1036618	keystroke_Key.space	Key.space	n/a
518.8335	0.075	1037667	keystroke_Key.backspace	Key.backspace	n/a
518.9685	0.075	1037937	keystroke_Key.backspace	Key.backspace	n/a
519.119	0.06	1038238	keystroke_Key.backspace	Key.backspace	n/a
519.2385	0.09	1038477	keystroke_Key.backspace	Key.backspace	n/a
519.3885	0.076	1038777	keystroke_Key.backspace	Key.backspace	n/a
519.509	0.0745	1039018	keystroke_Key.backspace	Key.backspace	n/a
519.6445	0.059	1039289	keystroke_Key.backspace	Key.backspace	n/a
520.0185	0.075	1040037	keystroke_Key.backspace	Key.backspace	n/a
520.1545	0.0905	1040309	keystroke_s	s	n/a
520.3195	0.075	1040639	keystroke_o	o	n/a
520.4695	0.09	1040939	keystroke_o	o	n/a
520.7095	0.0895	1041419	keystroke_n	n	n/a
520.979	0.0895	1041958	keystroke_e	e	n/a
521.2495	0.075	1042499	keystroke_s	s	n/a
521.5045	0.09	1043009	keystroke_t	t	n/a
521.564	0.0905	1043128	keystroke_Key.space	Key.space	n/a
521.8335	0.0755	1043667	keystroke_c	c	n/a
521.9245	0.09	1043849	keystroke_o	o	n/a
521.999	0.105	1043998	keystroke_n	n	n/a
522.1195	0.0745	1044239	keystroke_v	v	n/a
522.314	0.0755	1044628	keystroke_e	e	n/a
522.405	0.0895	1044810	keystroke_n	n	n/a
522.509	0.09	1045018	keystroke_t	t	n/a
522.645	0.0895	1045290	keystroke_i	i	n/a
522.8245	0.12	1045649	keystroke_o	o	n/a
522.9145	0.045	1045829	keystroke_n	n	n/a
523.0045	0.104	1046009	keystroke_Key.space	Key.space	n/a
523.2585	0.076	1046517	keystroke_t	t	n/a
523.3485	0.076	1046697	keystroke_o	o	n/a
523.4685	0.121	1046937	keystroke_o	o	n/a
523.7695	0.09	1047539	keystroke_l	l	n/a
524.279	0.1055	1048558	keystroke_b	b	n/a
524.369	0.0755	1048738	keystroke_a	a	n/a
524.5495	0.06	1049099	keystroke_r	r	n/a
524.654	0.09	1049308	keystroke_Key.enter	Key.enter	n/a
524.749	11.607	1049498	prompt	n/a	demonstrates adaptation prohibited economics\n
525.434	0.0905	1050868	keystroke_d	d	n/a
525.644	0.09	1051288	keystroke_e	e	n/a
526.185	0.0895	1052370	keystroke_m	m	n/a
526.4095	0.135	1052819	keystroke_o	o	n/a
526.529	0.075	1053058	keystroke_n	n	n/a
526.634	0.09	1053268	keystroke_s	s	n/a
526.8445	0.1045	1053689	keystroke_t	t	n/a
526.9495	0.0905	1053899	keystroke_r	r	n/a
527.114	0.1205	1054228	keystroke_a	a	n/a
527.294	0.1355	1054588	keystroke_t	t	n/a
527.43	0.119	1054860	keystroke_e	e	n/a
527.5195	0.1205	1055039	keystroke_s	s	n/a
527.6095	0.119	1055219	keystroke_Key.space	Key.space	n/a
527.895	0.105	1055790	keystroke_a	a	n/a
529.1095	0.15	1058219	keystroke_d	d	n/a
529.229	0.121	1058458	keystroke_a	a	n/a
529.425	0.104	1058850	keystroke_p	p	n/a
530.084	0.105	1060168	keystroke_t	t	n/a
530.444	0.1055	1060888	keystroke_a	a	n/a
530.6395	0.105	1061279	keystroke_t	t	n/a
530.7745	0.09	1061549	keystroke_i	i	n/a
531	0.1195	1062000	keystroke_o	o	n/a
531.1495	0.1205	1062299	keystroke_n	n	n/a
531.3145	0.12	1062629	keystroke_Key.space	Key.space	n/a
532.1845	0.09	1064369	keystroke_p	p	n/a
532.3345	0.089	1064669	keystroke_r	r	n/a
532.469	0.0745	1064938	keystroke_o	o	n/a
532.7245	0.0745	1065449	keystroke_h	h	n/a
532.874	0.0905	1065748	keystroke_i	i	n/a
533.159	0.075	1066318	keystroke_b	b	n/a
533.3395	0.09	1066679	keystroke_i	i	n/a
533.6835	0.106	1067367	keystroke_t	t	n/a
533.909	0.0895	1067818	keystroke_e	e	n/a
