onset	duration	sample	value	key	prompt_text
7.6465	4.8135	15293	prompt	n/a	the quick brown fox jumps over a lazy dog\n
8.7685	0.027	17537	keystroke_t	t	n/a
8.7805	0.1055	17561	keystroke_h	h	n/a
8.856	0.0895	17712	keystroke_e	e	n/a
8.9305	0.105	17861	keystroke_Key.space	Key.space	n/a
9.0205	0.105	18041	keystroke_q	q	n/a
9.1105	0.135	18221	keystroke_u	u	n/a
9.1855	0.12	18371	keystroke_i	i	n/a
9.3205	0.1055	18641	keystroke_c	c	n/a
9.396	0.0895	18792	keystroke_k	k	n/a
9.4405	0.09	18881	keystroke_Key.space	Key.space	n/a
9.6355	0.075	19271	keystroke_b	b	n/a
9.7255	0.06	19451	keystroke_r	r	n/a
9.8005	0.09	19601	keystroke_o	o	n/a
9.8755	0.0745	19751	keystroke_w	w	n/a
9.965	0.075	19930	keystroke_n	n	n/a
10.01	0.09	20020	keystroke_Key.space	Key.space	n/a
10.085	0.061	20170	keystroke_f	f	n/a
10.161	0.105	20322	keystroke_o	o	n/a
10.2805	0.075	20561	keystroke_x	x	n/a
10.3405	0.075	20681	keystroke_Key.space	Key.space	n/a
10.4455	0.09	20891	keystroke_j	j	n/a
10.6105	0.0755	21221	keystroke_u	u	n/a
10.7905	0.105	21581	keystroke_m	m	n/a
10.8655	0.1205	21731	keystroke_p	p	n/a
10.956	0.12	21912	keystroke_s	s	n/a
11.031	0.089	22062	keystroke_Key.space	Key.space	n/a
11.121	0.1045	22242	keystroke_o	o	n/a
11.181	0.0595	22362	keystroke_v	v	n/a
11.2855	0.135	22571	keystroke_e	e	n/a
11.3605	0.106	22721	keystroke_r	r	n/a
11.4515	0.0745	22903	keystroke_Key.space	Key.space	n/a
11.511	0.105	23022	keystroke_a	a	n/a
11.601	0.075	23202	keystroke_Key.space	Key.space	n/a
11.6615	0.1045	23323	keystroke_l	l	n/a
11.7515	0.0595	23503	keystroke_a	a	n/a
11.901	0.0745	23802	keystroke_z	z	n/a
11.9605	0.105	23921	keystroke_y	y	n/a
12.0055	0.09	24011	keystroke_Key.space	Key.space	n/a
12.0805	0.075	24161	keystroke_d	d	n/a
12.1855	0.105	24371	keystroke_o	o	n/a
12.2605	0.09	24521	keystroke_g	g	n/a
12.3655	0.09	24731	keystroke_Key.enter	Key.enter	n/a
12.4645	5.318	24929	prompt	n/a	filters headers plane supplement\n
13.0555	0.09	26111	keystroke_f	f	n/a
13.1005	0.09	26201	keystroke_i	i	n/a
13.1605	0.09	26321	keystroke_l	l	n/a
13.2655	0.06	26531	keystroke_t	t	n/a
13.3265	0.134	26653	keystroke_e	e	n/a
13.4305	0.105	26861	keystroke_r	r	n/a
13.4755	0.105	26951	keystroke_s	s	n/a
13.5505	0.09	27101	keystroke_Key.space	Key.space	n/a
13.7605	0.09	27521	keystroke_h	h	n/a
13.8055	0.075	27611	keystroke_e	e	n/a
13.8655	0.12	27731	keystroke_a	a	n/a
13.9705	0.09	27941	keystroke_d	d	n/a
14.1055	0.12	28211	keystroke_e	e	n/a
14.1805	0.12	28361	keystroke_r	r	n/a
14.2405	0.105	28481	keystroke_s	s	n/a
14.4355	0.12	28871	keystroke_p	p	n/a
14.8255	0.105	29651	keystroke_Key.backspace	Key.backspace	n/a
14.8855	0.09	29771	keystroke_Key.space	Key.space	n/a
15.0205	0.12	30041	keystroke_p	p	n/a
15.0805	0.12	30161	keystroke_l	l	n/a
15.1555	0.09	30311	keystroke_a	a	n/a
15.3065	0.104	30613	keystroke_n	n	n/a
15.381	0.0745	30762	keystroke_e	e	n/a
15.4255	0.075	30851	keystroke_Key.space	Key.space	n/a
15.5155	0.105	31031	keystroke_s	s	n/a
15.9505	0.06	31901	keystroke_u	u	n/a
16.2355	0.06	32471	keystroke_p	p	n/a
16.4005	0.105	32801	keystroke_p	p	n/a
16.4755	0.105	32951	keystroke_l	l	n/a
17.196	0.105	34392	keystroke_e	e	n/a
17.271	0.09	34542	keystroke_m	m	n/a
17.391	0.075	34782	keystroke_e	e	n/a
17.466	0.075	34932	keystroke_n	n	n/a
17.556	0.09	35112	keystroke_t	t	n/a
17.676	0.105	35352	keystroke_Key.enter	Key.enter	n/a
17.786	6.0865	35572	prompt	n/a	statement melbourne janet effective\n
18.456	0.105	36912	keystroke_s	s	n/a
18.621	0.12	37242	keystroke_t	t	n/a
18.696	0.105	37392	keystroke_a	a	n/a
19.161	0.09	38322	keystroke_t	t	n/a
19.221	0.09	38442	keystroke_e	e	n/a
19.326	0.075	38652	keystroke_m	m	n/a
19.416	0.075	38832	keystroke_e	e	n/a
19.521	0.075	39042	keystroke_n	n	n/a
19.581	0.075	39162	keystroke_t	t	n/a
19.671	0.09	39342	keystroke_Key.space	Key.space	n/a
19.896	0.075	39792	keystroke_m	m	n/a
19.956	0.09	39912	keystroke_e	e	n/a
20.061	0.09	40122	keystroke_l	l	n/a
20.211	0.105	40422	keystroke_b	b	n/a
20.826	0.135	41652	keystroke_o	o	n/a
20.946	0.09	41892	keystroke_u	u	n/a
21.006	0.09	42012	keystroke_r	r	n/a
21.186	0.105	42372	keystroke_n	n	n/a
21.261	0.12	42522	keystroke_e	e	n/a
21.366	0.09	42732	keystroke_Key.space	Key.space	n/a
21.5915	0.075	43183	keystroke_j	j	n/a
21.6365	0.105	43273	keystroke_a	a	n/a
21.7565	0.105	43513	keystroke_n	n	n/a
21.8015	0.12	43603	keystroke_e	e	n/a
21.8765	0.075	43753	keystroke_t	t	n/a
21.9365	0.12	43873	keystroke_Key.space	Key.space	n/a
22.0415	0.1345	44083	keystroke_e	e	n/a
22.1315	0.0895	44263	keystroke_f	f	n/a
22.281	0.09	44562	keystroke_f	f	n/a
22.326	0.106	44652	keystroke_e	e	n/a
22.491	0.09	44982	keystroke_c	c	n/a
22.746	0.075	45492	keystroke_t	t	n/a
22.806	0.105	45612	keystroke_i	i	n/a
22.971	0.135	45942	keystroke_v	v	n/a
23.031	0.135	46062	keystroke_e	e	n/a
23.721	0.15	47442	keystroke_Key.enter	Key.enter	n/a
23.8765	3.7315	47753	prompt	n/a	terrorism undo herbs walter\n
24.606	0.075	49212	keystroke_t	t	n/a
24.831	0.105	49662	keystroke_e	e	n/a
24.891	0.0595	49782	keystroke_r	r	n/a
25.0255	0.091	50051	keystroke_r	r	n/a
25.1455	0.09	50291	keystroke_o	o	n/a
25.2505	0.076	50501	keystroke_r	r	n/a
25.3555	0.0905	50711	keystroke_i	i	n/a
25.446	0.105	50892	keystroke_s	s	n/a
25.566	0.09	51132	keystroke_m	m	n/a
25.596	0.12	51192	keystroke_Key.space	Key.space	n/a
26.0465	0.09	52093	keystroke_u	u	n/a
26.1965	0.105	52393	keystroke_n	n	n/a
26.3015	0.105	52603	keystroke_d	d	n/a
26.3615	0.09	52723	keystroke_o	o	n/a
26.4065	0.09	52813	keystroke_Key.space	Key.space	n/a
26.5565	0.09	53113	keystroke_h	h	n/a
26.6165	0.105	53233	keystroke_e	e	n/a
26.6615	0.09	53323	keystroke_r	r	n/a
26.7665	0.075	53533	keystroke_b	b	n/a
26.8265	0.105	53653	keystroke_s	s	n/a
26.9165	0.105	53833	keystroke_Key.space	Key.space	n/a
27.0665	0.06	54133	keystroke_w	w	n/a
27.0815	0.105	54163	keystroke_a	a	n/a
27.1715	0.105	54343	keystroke_l	l	n/a
27.2615	0.075	54523	keystroke_t	t	n/a
27.3215	0.165	54643	keystroke_e	e	n/a
27.4265	0.105	54853	keystroke_r	r	n/a
27.5165	0.09	55033	keystroke_Key.enter	Key.enter	n/a
27.611	3.717	55222	prompt	n/a	careful cream driving terminal\n
28.1765	0.09	56353	keystroke_c	c	n/a
28.2215	0.105	56443	keystroke_a	a	n/a
28.3865	0.075	56773	keystroke_r	r	n/a
28.4315	0.075	56863	keystroke_e	e	n/a
28.5665	0.105	57133	keystroke_f	f	n/a
28.6265	0.0895	57253	keystroke_u	u	n/a
28.6865	0.0745	57373	keystroke_l	l	n/a
28.7015	0.1195	57403	keystroke_Key.space	Key.space	n/a
28.836	0.06	57672	keystroke_c	c	n/a
29.0165	0.06	58033	keystroke_r	r	n/a
29.1505	0.091	58301	keystroke_e	e	n/a
29.1965	0.09	58393	keystroke_a	a	n/a
29.2565	0.09	58513	keystroke_m	m	n/a
29.2715	0.105	58543	keystroke_Key.space	Key.space	n/a
29.4815	0.105	58963	keystroke_d	d	n/a
29.7065	0.075	59413	keystroke_r	r	n/a
29.8115	0.105	59623	keystroke_i	i	n/a
29.9305	0.061	59861	keystroke_v	v	n/a
30.0065	0.12	60013	keystroke_i	i	n/a
30.0965	0.12	60193	keystroke_n	n	n/a
30.1565	0.09	60313	keystroke_g	g	n/a
30.2605	0.106	60521	keystroke_Key.space	Key.space	n/a
30.546	0.0755	61092	keystroke_t	t	n/a
30.666	0.1355	61332	keystroke_e	e	n/a
30.726	0.105	61452	keystroke_r	r	n/a
30.7865	0.1045	61573	keystroke_m	m	n/a
30.8615	0.1195	61723	keystroke_i	i	n/a
30.966	0.075	61932	keystroke_n	n	n/a
31.011	0.09	62022	keystroke_a	a	n/a
31.116	0.09	62232	keystroke_l	l	n/a
31.2215	0.105	62443	keystroke_Key.enter	Key.enter	n/a
31.331	5.6085	62662	prompt	n/a	snowboard heritage tone chairman\n
31.9565	0.09	63913	keystroke_s	s	n/a
32.0315	0.06	64063	keystroke_n	n	n/a
32.1215	0.09	64243	keystroke_o	o	n/a
32.2115	0.06	64423	keystroke_w	w	n/a
32.3015	0.06	64603	keystroke_b	b	n/a
32.4065	0.09	64813	keystroke_o	o	n/a
32.4665	0.09	64933	keystroke_a	a	n/a
32.5115	0.06	65023	keystroke_r	r	n/a
32.6315	0.12	65263	keystroke_d	d	n/a
32.7065	0.105	65413	keystroke_Key.space	Key.space	n/a
32.8865	0.09	65773	keystroke_h	h	n/a
32.9615	0.105	65923	keystroke_e	e	n/a
33.0065	0.105	66013	keystroke_r	r	n/a
33.1565	0.105	66313	keystroke_i	i	n/a
33.5615	0.09	67123	keystroke_t	t	n/a
33.6815	0.075	67363	keystroke_a	a	n/a
33.7865	0.105	67573	keystroke_g	g	n/a
33.8465	0.12	67693	keystroke_e	e	n/a
33.9215	0.105	67843	keystroke_Key.space	Key.space	n/a
34.1915	0.045	68383	keystroke_t	t	n/a
34.5065	0.075	69013	keystroke_o	o	n/a
34.6415	0.0755	69283	keystroke_n	n	n/a
34.7015	0.089	69403	keystroke_e	e	n/a
34.7615	0.1195	69523	keystroke_Key.space	Key.space	n/a
35.0165	0.0905	70033	keystroke_c	c	n/a
35.166	0.09	70332	keystroke_h	h	n/a
35.257	0.105	70514	keystroke_a	a	n/a
35.346	0.106	70692	keystroke_r	r	n/a
35.931	0.06	71862	keystroke_Key.backspace	Key.backspace	n/a
36.096	0.09	72192	keystroke_i	i	n/a
36.171	0.09	72342	keystroke_r	r	n/a
36.291	0.09	72582	keystroke_m	m	n/a
36.366	0.12	72732	keystroke_a	a	n/a
36.471	0.06	72942	keystroke_n	n	n/a
36.801	0.135	73602	keystroke_Key.enter	Key.enter	n/a
36.9435	3.1445	73887	prompt	n/a	realtors monte period caught\n
37.506	0.06	75012	keystroke_r	r	n/a
37.657	0.089	75314	keystroke_e	e	n/a
37.686	0.12	75372	keystroke_a	a	n/a
37.776	0.105	75552	keystroke_l	l	n/a
37.941	0.075	75882	keystroke_t	t	n/a
38.061	0.09	76122	keystroke_o	o	n/a
38.166	0.105	76332	keystroke_r	r	n/a
38.241	0.09	76482	keystroke_s	s	n/a
38.286	0.09	76572	keystroke_Key.space	Key.space	n/a
38.451	0.105	76902	keystroke_m	m	n/a
38.511	0.0755	77022	keystroke_o	o	n/a
38.6465	0.1055	77293	keystroke_n	n	n/a
38.6915	0.1045	77383	keystroke_t	t	n/a
38.766	0.12	77532	keystroke_e	e	n/a
38.826	0.09	77652	keystroke_Key.space	Key.space	n/a
38.976	0.091	77952	keystroke_p	p	n/a
39.052	0.105	78104	keystroke_e	e	n/a
39.097	0.105	78194	keystroke_r	r	n/a
39.172	0.105	78344	keystroke_i	i	n/a
39.232	0.075	78464	keystroke_o	o	n/a
39.292	0.089	78584	keystroke_d	d	n/a
39.366	0.121	78732	keystroke_Key.space	Key.space	n/a
39.502	0.074	79004	keystroke_c	c	n/a
39.532	0.089	79064	keystroke_a	a	n/a
39.607	0.105	79214	keystroke_u	u	n/a
39.727	0.06	79454	keystroke_g	g	n/a
39.771	0.091	79542	keystroke_h	h	n/a
39.876	0.0755	79752	keystroke_t	t	n/a
39.9965	0.09	79993	keystroke_Key.enter	Key.enter	n/a
40.0935	4.5095	80187	prompt	n/a	internationally vice stroke display\n
40.7015	0.075	81403	keystroke_i	i	n/a
40.8065	0.105	81613	keystroke_n	n	n/a
40.8515	0.09	81703	keystroke_t	t	n/a
40.9565	0.12	81913	keystroke_e	e	n/a
41.0465	0.09	82093	keystroke_r	r	n/a
41.496	0.075	82992	keystroke_n	n	n/a
41.586	0.09	83172	keystroke_a	a	n/a
41.646	0.09	83292	keystroke_t	t	n/a
41.751	0.09	83502	keystroke_i	i	n/a
41.811	0.075	83622	keystroke_o	o	n/a
41.976	0.0905	83952	keystroke_n	n	n/a
42.1865	0.075	84373	keystroke_a	a	n/a
42.3065	0.06	84613	keystroke_l	l	n/a
42.4415	0.075	84883	keystroke_l	l	n/a
42.681	0.09	85362	keystroke_y	y	n/a
42.801	0.09	85602	keystroke_Key.space	Key.space	n/a
43.011	0.075	86022	keystroke_v	v	n/a
43.101	0.105	86202	keystroke_i	i	n/a
43.191	0.12	86382	keystroke_c	c	n/a
43.266	0.09	86532	keystroke_e	e	n/a
43.326	0.12	86652	keystroke_Key.space	Key.space	n/a
43.431	0.15	86862	keystroke_s	s	n/a
43.536	0.105	87072	keystroke_t	t	n/a
43.596	0.105	87192	keystroke_r	r	n/a
43.626	0.09	87252	keystroke_o	o	n/a
43.686	0.09	87372	keystroke_k	k	n/a
43.761	0.09	87522	keystroke_e	e	n/a
43.836	0.09	87672	keystroke_Key.space	Key.space	n/a
43.941	0.075	87882	keystroke_d	d	n/a
44.001	0.105	88002	keystroke_i	i	n/a
44.091	0.09	88182	keystroke_s	s	n/a
44.196	0.105	88392	keystroke_p	p	n/a
44.256	0.135	88512	keystroke_l	l	n/a
44.331	0.09	88662	keystroke_a	a	n/a
44.376	0.075	88752	keystroke_y	y	n/a
44.481	0.12	88962	keystroke_Key.enter	Key.enter	n/a
44.606	4.722	89212	prompt	n/a	concert foam hundreds principle\n
45.276	0.075	90552	keystroke_c	c	n/a
45.366	0.06	90732	keystroke_o	o	n/a
45.486	0.105	90972	keystroke_n	n	n/a
45.531	0.09	91062	keystroke_c	c	n/a
45.666	0.105	91332	keystroke_e	e	n/a
45.726	0.09	91452	keystroke_r	r	n/a
45.876	0.09	91752	keystroke_t	t	n/a
45.936	0.105	91872	keystroke_Key.space	Key.space	n/a
46.071	0.075	92142	keystroke_f	f	n/a
46.116	0.075	92232	keystroke_o	o	n/a
46.206	0.09	92412	keystroke_a	a	n/a
46.266	0.105	92532	keystroke_m	m	n/a
46.326	0.075	92652	keystroke_Key.space	Key.space	n/a
46.506	0.075	93012	keystroke_h	h	n/a
46.536	0.09	93072	keystroke_u	u	n/a
46.671	0.12	93342	keystroke_n	n	n/a
46.716	0.09	93432	keystroke_d	d	n/a
46.8815	0.1045	93763	keystroke_r	r	n/a
46.9715	0.1045	93943	keystroke_e	e	n/a
47.106	0.105	94212	keystroke_d	d	n/a
47.271	0.105	94542	keystroke_s	s	n/a
47.4965	0.09	94993	keystroke_Key.space	Key.space	n/a
47.6465	0.105	95293	keystroke_p	p	n/a
48.1715	0.105	96343	keystroke_r	r	n/a
48.3065	0.075	96613	keystroke_i	i	n/a
48.4415	0.105	96883	keystroke_n	n	n/a
48.6365	0.09	97273	keystroke_c	c	n/a
48.7565	0.09	97513	keystroke_i	i	n/a
48.9215	0.105	97843	keystroke_p	p	n/a
48.9965	0.135	97993	keystroke_l	l	n/a
49.0865	0.09	98173	keystroke_e	e	n/a
49.2065	0.12	98413	keystroke_Key.enter	Key.enter	n/a
49.331	5.472	98662	prompt	n/a	sucking decor steel acids\n
49.9265	0.03	99853	keystroke_s	s	n/a
49.9865	0.12	99973	keystroke_u	u	n/a
50.0915	0.105	100183	keystroke_c	c	n/a
50.2265	0.075	100453	keystroke_k	k	n/a
50.3615	0.09	100723	keystroke_i	i	n/a
50.4065	0.135	100813	keystroke_n	n	n/a
50.4815	0.075	100963	keystroke_g	g	n/a
50.5715	0.09	101143	keystroke_Key.space	Key.space	n/a
50.6615	0.075	101323	keystroke_d	d	n/a
50.6915	0.12	101383	keystroke_e	e	n/a
50.886	0.105	101772	keystroke_c	c	n/a
51.006	0.105	102012	keystroke_o	o	n/a
51.126	0.105	102252	keystroke_r	r	n/a
51.201	0.12	102402	keystroke_Key.space	Key.space	n/a
51.396	0.105	102792	keystroke_s	s	n/a
51.756	0.105	103512	keystroke_t	t	n/a
51.846	0.075	103692	keystroke_e	e	n/a
52.026	0.09	104052	keystroke_e	e	n/a
52.101	0.12	104202	keystroke_l	l	n/a
52.161	0.135	104322	keystroke_Key.space	Key.space	n/a
52.446	0.075	104892	keystroke_a	a	n/a
52.581	0.0905	105162	keystroke_c	c	n/a
53.2565	0.105	106513	keystroke_i	i	n/a
53.3465	0.12	106693	keystroke_d	d	n/a
53.3915	0.12	106783	keystroke_s	s	n/a
54.696	0.1055	109392	keystroke_Key.enter	Key.enter	n/a
54.8075	12.4155	109615	prompt	n/a	glenn prague autumn inspired\n
55.6265	0.105	111253	keystroke_g	g	n/a
55.8515	0.09	111703	keystroke_l	l	n/a
55.9565	0.09	111913	keystroke_e	e	n/a
56.1815	0.06	112363	keystroke_n	n	n/a
56.3315	0.09	112663	keystroke_n	n	n/a
56.4065	0.105	112813	keystroke_Key.space	Key.space	n/a
56.6165	0.0895	113233	keystroke_p	p	n/a
56.721	0.09	113442	keystroke_r	r	n/a
56.916	0.06	113832	keystroke_g	g	n/a
57.096	0.09	114192	keystroke_r	r	n/a
57.141	0.075	114282	keystroke_a	a	n/a
58.372	0.075	116744	keystroke_Key.backspace	Key.backspace	n/a
58.612	0.075	117224	keystroke_Key.backspace	Key.backspace	n/a
58.972	0.075	117944	keystroke_Key.backspace	Key.backspace	n/a
59.3015	0.09	118603	keystroke_a	a	n/a
59.3465	0.12	118693	keystroke_g	g	n/a
60.2165	0.075	120433	keystroke_u	u	n/a
60.2765	0.105	120553	keystroke_e	e	n/a
60.3515	0.12	120703	keystroke_Key.space	Key.space	n/a
60.5165	0.12	121033	keystroke_a	a	n/a
60.6515	0.0755	121303	keystroke_u	u	n/a
60.756	0.09	121512	keystroke_t	t	n/a
60.921	0.075	121842	keystroke_m	m	n/a
61.131	0.06	122262	keystroke_n	n	n/a
61.176	0.1355	122352	keystroke_Key.space	Key.space	n/a
61.5065	0.075	123013	keystroke_i	i	n/a
61.5965	0.09	123193	keystroke_n	n	n/a
61.7165	0.105	123433	keystroke_s	s	n/a
61.8365	0.105	123673	keystroke_p	p	n/a
61.9115	0.12	123823	keystroke_i	i	n/a
61.9865	0.105	123973	keystroke_r	r	n/a
62.0765	0.075	124153	keystroke_e	e	n/a
62.5715	0.075	125143	keystroke_Key.backspace	Key.backspace	n/a
62.8115	0.075	125623	keystroke_Key.backspace	Key.backspace	n/a
63.0515	0.075	126103	keystroke_Key.backspace	Key.backspace	n/a
63.276	0.09	126552	keystroke_Key.backspace	Key.backspace	n/a
63.561	0.09	127122	keystroke_Key.backspace	Key.backspace	n/a
63.801	0.105	127602	keystroke_Key.backspace	Key.backspace	n/a
64.086	0.09	128172	keystroke_Key.backspace	Key.backspace	n/a
64.3565	0.0895	128713	keystroke_Key.backspace	Key.backspace	n/a
64.656	0.09	129312	keystroke_Key.backspace	Key.backspace	n/a
64.9115	0.075	129823	keystroke_Key.backspace	Key.backspace	n/a
65.227	0.06	130454	keystroke_u	u	n/a
65.541	0.076	131082	keystroke_m	m	n/a
65.782	0.0595	131564	keystroke_n	n	n/a
65.9615	0.09	131923	keystroke_Key.space	Key.space	n/a
66.3815	0.075	132763	keystroke_i	i	n/a
66.5165	0.075	133033	keystroke_n	n	n/a
66.6515	0.06	133303	keystroke_s	s	n/a
66.7415	0.06	133483	keystroke_p	p	n/a
66.8165	0.09	133633	keystroke_i	i	n/a
66.8615	0.09	133723	keystroke_r	r	n/a
66.9215	0.15	133843	keystroke_e	e	n/a
67.0565	0.105	134113	keystroke_d	d	n/a
67.1315	0.09	134263	keystroke_Key.enter	Key.enter	n/a
67.2265	6.402	134453	prompt	n/a	mainland avatar proposals championships\n
68.3765	0.1195	136753	keystroke_m	m	n/a
68.526	0.105	137052	keystroke_a	a	n/a
68.632	0.089	137264	keystroke_i	i	n/a
68.691	0.12	137382	keystroke_n	n	n/a
68.901	0.09	137802	keystroke_l	l	n/a
68.961	0.09	137922	keystroke_a	a	n/a
69.066	0.075	138132	keystroke_n	n	n/a
69.126	0.09	138252	keystroke_d	d	n/a
69.201	0.1205	138402	keystroke_Key.space	Key.space	n/a
69.3065	0.105	138613	keystroke_a	a	n/a
69.4265	0.105	138853	keystroke_v	v	n/a
69.5015	0.105	139003	keystroke_a	a	n/a
69.7115	0.06	139423	keystroke_t	t	n/a
70.3265	0.105	140653	keystroke_a	a	n/a
70.3865	0.105	140773	keystroke_r	r	n/a
70.4465	0.105	140893	keystroke_Key.space	Key.space	n/a
70.6265	0.09	141253	keystroke_p	p	n/a
70.7315	0.09	141463	keystroke_r	r	n/a
70.8515	0.09	141703	keystroke_o	o	n/a
71.1215	0.105	142243	keystroke_p	p	n/a
71.2115	0.105	142423	keystroke_o	o	n/a
71.4065	0.075	142813	keystroke_s	s	n/a
71.4515	0.09	142903	keystroke_a	a	n/a
71.5115	0.09	143023	keystroke_l	l	n/a
71.6165	0.09	143233	keystroke_s	s	n/a
71.7215	0.075	143443	keystroke_Key.space	Key.space	n/a
72.186	0.075	144372	keystroke_c	c	n/a
72.276	0.075	144552	keystroke_h	h	n/a
72.336	0.12	144672	keystroke_a	a	n/a
72.471	0.075	144942	keystroke_m	m	n/a
72.606	0.09	145212	keystroke_p	p	n/a
72.846	0.03	145692	keystroke_i	i	n/a
72.861	0.045	145722	keystroke_o	o	n/a
72.981	0.09	145962	keystroke_n	n	n/a
73.086	0.105	146172	keystroke_s	s	n/a
73.146	0.09	146292	keystroke_h	h	n/a
73.206	0.12	146412	keystroke_i	i	n/a
73.266	0.12	146532	keystroke_p	p	n/a
73.356	0.12	146712	keystroke_s	s	n/a
73.536	0.09	147072	keystroke_Key.enter	Key.enter	n/a
73.6325	9.025	147265	prompt	n/a	bias thriller why're statistics\n
74.3315	0.075	148663	keystroke_b	b	n/a
74.4515	0.1045	148903	keystroke_i	i	n/a
74.5115	0.1045	149023	keystroke_a	a	n/a
74.5415	0.1045	149083	keystroke_s	s	n/a
74.631	0.0755	149262	keystroke_Key.space	Key.space	n/a
74.8115	0.09	149623	keystroke_t	t	n/a
74.9165	0.075	149833	keystroke_h	h	n/a
75.1865	0.105	150373	keystroke_r	r	n/a
75.2765	0.09	150553	keystroke_i	i	n/a
75.5315	0.075	151063	keystroke_l	l	n/a
75.6815	0.075	151363	keystroke_l	l	n/a
75.7715	0.09	151543	keystroke_e	e	n/a
75.8015	0.09	151603	keystroke_r	r	n/a
75.8765	0.105	151753	keystroke_Key.space	Key.space	n/a
76.0565	0.105	152113	keystroke_w	w	n/a
76.5665	0.09	153133	keystroke_h	h	n/a
76.7915	0.12	153583	keystroke_y	y	n/a
76.8965	0.09	153793	keystroke_;	;	n/a
77.0765	0.09	154153	keystroke_r	r	n/a
77.1215	0.12	154243	keystroke_e	e	n/a
77.2265	0.0745	154453	keystroke_Key.space	Key.space	n/a
77.676	0.075	155352	keystroke_Key.backspace	Key.backspace	n/a
77.9315	0.06	155863	keystroke_Key.backspace	Key.backspace	n/a
78.186	0.06	156372	keystroke_Key.backspace	Key.backspace	n/a
78.396	0.09	156792	keystroke_Key.backspace	Key.backspace	n/a
79.011	0.045	158022	keystroke_'	'	n/a
79.461	0.135	158922	keystroke_r	r	n/a
79.521	0.105	159042	keystroke_e	e	n/a
79.641	0.12	159282	keystroke_Key.space	Key.space	n/a
79.791	0.105	159582	keystroke_s	s	n/a
79.926	0.09	159852	keystroke_t	t	n/a
80.121	0.075	160242	keystroke_a	a	n/a
80.661	0.0755	161322	keystroke_t	t	n/a
80.8415	0.09	161683	keystroke_u	u	n/a
81.4565	0.075	162913	keystroke_Key.backspace	Key.backspace	n/a
81.6965	0.105	163393	keystroke_i	i	n/a
81.8315	0.075	163663	keystroke_s	s	n/a
81.9665	0.105	163933	keystroke_t	t	n/a
82.0865	0.09	164173	keystroke_i	i	n/a
82.2065	0.105	164413	keystroke_c	c	n/a
82.2515	0.135	164503	keystroke_s	s	n/a
82.5365	0.12	165073	keystroke_Key.enter	Key.enter	n/a
82.6615	5.6365	165323	prompt	n/a	customized residents stays political\n
83.4515	0.075	166903	keystroke_c	c	n/a
83.5115	0.105	167023	keystroke_u	u	n/a
83.6315	0.09	167263	keystroke_s	s	n/a
83.6765	0.09	167353	keystroke_t	t	n/a
83.7065	0.075	167413	keystroke_o	o	n/a
83.8265	0.1645	167653	keystroke_m	m	n/a
83.901	0.105	167802	keystroke_i	i	n/a
83.946	0.135	167892	keystroke_z	z	n/a
84.021	0.165	168042	keystroke_e	e	n/a
84.096	0.135	168192	keystroke_d	d	n/a
84.171	0.135	168342	keystroke_Key.space	Key.space	n/a
84.321	0.12	168642	keystroke_r	r	n/a
84.381	0.135	168762	keystroke_e	e	n/a
84.411	0.135	168822	keystroke_s	s	n/a
84.531	0.1205	169062	keystroke_i	i	n/a
84.6065	0.105	169213	keystroke_d	d	n/a
84.6665	0.09	169333	keystroke_e	e	n/a
84.7565	0.105	169513	keystroke_n	n	n/a
84.8315	0.135	169663	keystroke_t	t	n/a
84.8915	0.12	169783	keystroke_s	s	n/a
84.9815	0.09	169963	keystroke_Key.space	Key.space	n/a
85.1615	0.0895	170323	keystroke_s	s	n/a
85.311	0.09	170622	keystroke_t	t	n/a
85.371	0.105	170742	keystroke_a	a	n/a
85.491	0.09	170982	keystroke_y	y	n/a
85.566	0.12	171132	keystroke_e	e	n/a
85.626	0.12	171252	keystroke_d	d	n/a
85.686	0.105	171372	keystroke_Key.space	Key.space	n/a
85.836	0.105	171672	keystroke_p	p	n/a
85.911	0.105	171822	keystroke_o	o	n/a
86.091	0.105	172182	keystroke_l	l	n/a
86.166	0.105	172332	keystroke_i	i	n/a
86.241	0.0745	172482	keystroke_t	t	n/a
86.4055	0.12	172811	keystroke_i	i	n/a
86.5555	0.076	173111	keystroke_c	c	n/a
86.961	0.09	173922	keystroke_a	a	n/a
87.081	0.075	174162	keystroke_l	l	n/a
88.1765	0.12	176353	keystroke_Key.enter	Key.enter	n/a
88.3015	5.831	176603	prompt	n/a	hairy room delight additionally\n
88.956	0.105	177912	keystroke_h	h	n/a
89.046	0.075	178092	keystroke_a	a	n/a
89.136	0.105	178272	keystroke_i	i	n/a
89.226	0.105	178452	keystroke_r	r	n/a
89.316	0.09	178632	keystroke_y	y	n/a
89.361	0.09	178722	keystroke_Key.space	Key.space	n/a
89.436	0.09	178872	keystroke_r	r	n/a
89.541	0.075	179082	keystroke_o	o	n/a
89.676	0.105	179352	keystroke_o	o	n/a
89.736	0.12	179472	keystroke_m	m	n/a
89.811	0.135	179622	keystroke_Key.space	Key.space	n/a
90.5615	0.119	181123	keystroke_d	d	n/a
90.6355	0.06	181271	keystroke_e	e	n/a
90.6815	0.044	181363	keystroke_l	l	n/a
90.7105	0.045	181421	keystroke_i	i	n/a
90.7405	0.075	181481	keystroke_g	g	n/a
90.8305	0.105	181661	keystroke_h	h	n/a
90.8905	0.075	181781	keystroke_t	t	n/a
90.9505	0.105	181901	keystroke_Key.space	Key.space	n/a
91.0405	0.12	182081	keystroke_a	a	n/a
91.1155	0.12	182231	keystroke_d	d	n/a
91.2805	0.105	182561	keystroke_i	i	n/a
91.7605	0.09	183521	keystroke_Key.backspace	Key.backspace	n/a
91.8955	0.09	183791	keystroke_d	d	n/a
92.2855	0.075	184571	keystroke_i	i	n/a
92.5565	0.12	185113	keystroke_t	t	n/a
92.8865	0.09	185773	keystroke_i	i	n/a
92.9915	0.09	185983	keystroke_o	o	n/a
93.186	0.015	186372	keystroke_n	n	n/a
93.231	0.12	186462	keystroke_a	a	n/a
93.666	0.075	187332	keystroke_l	l	n/a
93.801	0.09	187602	keystroke_l	l	n/a
93.876	0.105	187752	keystroke_y	y	n/a
94.041	0.09	188082	keystroke_Key.enter	Key.enter	n/a
94.1365	6.221	188273	prompt	n/a	phillips usually pricing latino\n
94.7465	0.09	189493	keystroke_p	p	n/a
94.8965	0.09	189793	keystroke_h	h	n/a
95.0165	0.105	190033	keystroke_i	i	n/a
95.1365	0.105	190273	keystroke_l	l	n/a
95.931	0.09	191862	keystroke_l	l	n/a
96.126	0.105	192252	keystroke_i	i	n/a
96.186	0.09	192372	keystroke_p	p	n/a
96.291	0.12	192582	keystroke_s	s	n/a
96.426	0.1495	192852	keystroke_Key.space	Key.space	n/a
97.626	0.0905	195252	keystroke_u	u	n/a
97.7315	0.09	195463	keystroke_s	s	n/a
97.8365	0.075	195673	keystroke_u	u	n/a
97.9265	0.075	195853	keystroke_a	a	n/a
98.0165	0.045	196033	keystroke_l	l	n/a
98.1215	0.09	196243	keystroke_l	l	n/a
98.1965	0.104	196393	keystroke_y	y	n/a
98.2855	0.075	196571	keystroke_Key.space	Key.space	n/a
98.4215	0.09	196843	keystroke_p	p	n/a
98.5265	0.089	197053	keystroke_r	r	n/a
98.6755	0.075	197351	keystroke_i	i	n/a
98.7655	0.09	197531	keystroke_c	c	n/a
98.8405	0.1055	197681	keystroke_i	i	n/a
98.9305	0.12	197861	keystroke_n	n	n/a
99.0055	0.09	198011	keystroke_g	g	n/a
99.1105	0.1055	198221	keystroke_Key.space	Key.space	n/a
99.471	0.09	198942	keystroke_l	l	n/a
99.5455	0.06	199091	keystroke_a	a	n/a
99.8155	0.03	199631	keystroke_t	t	n/a
99.8305	0.031	199661	keystroke_i	i	n/a
99.9065	0.09	199813	keystroke_n	n	n/a
100.0415	0.09	200083	keystroke_o	o	n/a
100.2665	0.09	200533	keystroke_Key.enter	Key.enter	n/a
100.3605	6.147	200721	prompt	n/a	curriculum compared researcher elections\n
101.2565	0.089	202513	keystroke_c	c	n/a
101.5705	0.075	203141	keystroke_u	u	n/a
101.8105	0.075	203621	keystroke_r	r	n/a
102.2605	0.12	204521	keystroke_r	r	n/a
102.5005	0.075	205001	keystroke_i	i	n/a
102.6665	0.12	205333	keystroke_c	c	n/a
102.7565	0.09	205513	keystroke_u	u	n/a
102.9065	0.105	205813	keystroke_l	l	n/a
102.9965	0.105	205993	keystroke_u	u	n/a
103.2065	0.105	206413	keystroke_m	m	n/a
103.2665	0.09	206533	keystroke_Key.space	Key.space	n/a
103.3865	0.09	206773	keystroke_c	c	n/a
103.4315	0.09	206863	keystroke_o	o	n/a
103.5065	0.105	207013	keystroke_m	m	n/a
103.6565	0.075	207313	keystroke_p	p	n/a
103.6865	0.09	207373	keystroke_a	a	n/a
103.7165	0.09	207433	keystroke_r	r	n/a
103.8215	0.1345	207643	keystroke_e	e	n/a
103.8965	0.1045	207793	keystroke_d	d	n/a
103.971	0.12	207942	keystroke_Key.space	Key.space	n/a
104.136	0.15	208272	keystroke_r	r	n/a
104.211	0.135	208422	keystroke_e	e	n/a
104.286	0.12	208572	keystroke_s	s	n/a
104.571	0.075	209142	keystroke_e	e	n/a
104.721	0.135	209442	keystroke_a	a	n/a
104.796	0.075	209592	keystroke_r	r	n/a
104.961	0.105	209922	keystroke_c	c	n/a
105.067	0.104	210134	keystroke_h	h	n/a
105.156	0.105	210312	keystroke_e	e	n/a
105.216	0.09	210432	keystroke_r	r	n/a
105.276	0.105	210552	keystroke_Key.space	Key.space	n/a
105.471	0.105	210942	keystroke_e	e	n/a
105.561	0.075	211122	keystroke_l	l	n/a
105.666	0.105	211332	keystroke_e	e	n/a
105.696	0.12	211392	keystroke_c	c	n/a
105.936	0.09	211872	keystroke_t	t	n/a
106.011	0.105	212022	keystroke_i	i	n/a
106.071	0.06	212142	keystroke_o	o	n/a
106.236	0.06	212472	keystroke_n	n	n/a
106.281	0.075	212562	keystroke_s	s	n/a
106.416	0.09	212832	keystroke_Key.enter	Key.enter	n/a
106.5105	5.1725	213021	prompt	n/a	translate volt journalism prizes\n
107.196	0.045	214392	keystroke_t	t	n/a
107.3315	0.135	214663	keystroke_r	r	n/a
107.6615	0.075	215323	keystroke_a	a	n/a
107.781	0.0905	215562	keystroke_n	n	n/a
107.9165	0.06	215833	keystroke_s	s	n/a
108.0665	0.1045	216133	keystroke_l	l	n/a
108.156	0.105	216312	keystroke_a	a	n/a
108.216	0.105	216432	keystroke_t	t	n/a
108.276	0.12	216552	keystroke_e	e	n/a
108.366	0.09	216732	keystroke_Key.space	Key.space	n/a
108.501	0.105	217002	keystroke_v	v	n/a
108.546	0.075	217092	keystroke_o	o	n/a
108.7115	0.09	217423	keystroke_l	l	n/a
108.7565	0.075	217513	keystroke_t	t	n/a
108.8615	0.06	217723	keystroke_Key.space	Key.space	n/a
109.011	0.075	218022	keystroke_j	j	n/a
109.116	0.12	218232	keystroke_o	o	n/a
109.206	0.075	218412	keystroke_u	u	n/a
109.386	0.075	218772	keystroke_r	r	n/a
110.046	0.09	220092	keystroke_n	n	n/a
110.211	0.09	220422	keystroke_a	a	n/a
110.346	0.135	220692	keystroke_l	l	n/a
110.466	0.075	220932	keystroke_i	i	n/a
110.571	0.09	221142	keystroke_s	s	n/a
110.661	0.105	221322	keystroke_m	m	n/a
110.706	0.12	221412	keystroke_Key.space	Key.space	n/a
110.871	0.09	221742	keystroke_p	p	n/a
110.946	0.075	221892	keystroke_r	r	n/a
111.081	0.09	222162	keystroke_i	i	n/a
111.141	0.135	222282	keystroke_z	z	n/a
111.321	0.15	222642	keystroke_e	e	n/a
111.426	0.105	222852	keystroke_s	s	n/a
111.591	0.09	223182	keystroke_Key.enter	Key.enter	n/a
111.6865	3.731	223373	prompt	n/a	commands calvin context flesh\n
112.3115	0.1045	224623	keystroke_c	c	n/a
112.3565	0.1045	224713	keystroke_o	o	n/a
112.4915	0.075	224983	keystroke_m	m	n/a
112.6265	0.075	225253	keystroke_m	m	n/a
112.6715	0.105	225343	keystroke_a	a	n/a
112.7915	0.09	225583	keystroke_n	n	n/a
112.8215	0.09	225643	keystroke_d	d	n/a
112.8815	0.06	225763	keystroke_s	s	n/a
112.9265	0.105	225853	keystroke_Key.space	Key.space	n/a
113.0165	0.09	226033	keystroke_c	c	n/a
113.0615	0.09	226123	keystroke_a	a	n/a
113.1065	0.09	226213	keystroke_l	l	n/a
113.2115	0.09	226423	keystroke_v	v	n/a
113.2865	0.12	226573	keystroke_i	i	n/a
113.3465	0.075	226693	keystroke_n	n	n/a
113.3915	0.12	226783	keystroke_Key.space	Key.space	n/a
113.856	0.075	227712	keystroke_c	c	n/a
113.916	0.0745	227832	keystroke_o	o	n/a
114.0515	0.119	228103	keystroke_n	n	n/a
114.1265	0.089	228253	keystroke_t	t	n/a
114.2005	0.06	228401	keystroke_e	e	n/a
114.3655	0.075	228731	keystroke_x	x	n/a
114.6055	0.0905	229211	keystroke_t	t	n/a
114.6655	0.105	229331	keystroke_Key.space	Key.space	n/a
114.8165	0.09	229633	keystroke_f	f	n/a
114.921	0.075	229842	keystroke_l	l	n/a
114.981	0.12	229962	keystroke_e	e	n/a
115.041	0.09	230082	keystroke_s	s	n/a
115.146	0.075	230292	keystroke_h	h	n/a
115.326	0.09	230652	keystroke_Key.enter	Key.enter	n/a
115.4225	3.4	230845	prompt	n/a	honest downloads gulf adapter\n
116.016	0.075	232032	keystroke_h	h	n/a
116.121	0.06	232242	keystroke_o	o	n/a
116.226	0.09	232452	keystroke_n	n	n/a
116.256	0.12	232512	keystroke_e	e	n/a
116.271	0.105	232542	keystroke_s	s	n/a
116.331	0.09	232662	keystroke_t	t	n/a
116.406	0.12	232812	keystroke_Key.space	Key.space	n/a
116.556	0.09	233112	keystroke_d	d	n/a
116.631	0.075	233262	keystroke_o	o	n/a
116.736	0.075	233472	keystroke_w	w	n/a
116.781	0.075	233562	keystroke_n	n	n/a
116.901	0.06	233802	keystroke_l	l	n/a
117.051	0.09	234102	keystroke_o	o	n/a
117.111	0.105	234222	keystroke_a	a	n/a
117.126	0.12	234252	keystroke_d	d	n/a
117.186	0.12	234372	keystroke_s	s	n/a
117.261	0.075	234522	keystroke_Key.space	Key.space	n/a
117.561	0.09	235122	keystroke_g	g	n/a
117.636	0.135	235272	keystroke_u	u	n/a
117.756	0.09	235512	keystroke_l	l	n/a
117.861	0.09	235722	keystroke_f	f	n/a
117.936	0.12	235872	keystroke_Key.space	Key.space	n/a
118.071	0.105	236142	keystroke_a	a	n/a
118.146	0.12	236292	keystroke_d	d	n/a
118.251	0.105	236502	keystroke_a	a	n/a
118.357	0.089	236714	keystroke_p	p	n/a
118.476	0.06	236952	keystroke_t	t	n/a
118.581	0.1355	237162	keystroke_e	e	n/a
118.641	0.1055	237282	keystroke_r	r	n/a
118.7315	0.09	237463	keystroke_Key.enter	Key.enter	n/a
118.825	3.5825	237650	prompt	n/a	macromedia tissue tone likely\n
119.5265	0.075	239053	keystroke_m	m	n/a
119.5855	0.09	239171	keystroke_a	a	n/a
119.6905	0.09	239381	keystroke_c	c	n/a
119.8865	0.089	239773	keystroke_r	r	n/a
119.9615	0.09	239923	keystroke_o	o	n/a
120.1265	0.105	240253	keystroke_m	m	n/a
120.2165	0.09	240433	keystroke_e	e	n/a
120.2615	0.074	240523	keystroke_d	d	n/a
120.3665	0.09	240733	keystroke_i	i	n/a
120.4415	0.09	240883	keystroke_a	a	n/a
120.5455	0.09	241091	keystroke_Key.space	Key.space	n/a
120.6805	0.091	241361	keystroke_t	t	n/a
120.7855	0.09	241571	keystroke_i	i	n/a
120.8605	0.075	241721	keystroke_s	s	n/a
120.9955	0.075	241991	keystroke_s	s	n/a
121.0555	0.091	242111	keystroke_u	u	n/a
121.1315	0.089	242263	keystroke_e	e	n/a
121.2055	0.105	242411	keystroke_Key.space	Key.space	n/a
121.2965	0.104	242593	keystroke_t	t	n/a
121.3405	0.075	242681	keystroke_o	o	n/a
121.4605	0.105	242921	keystroke_n	n	n/a
121.5205	0.075	243041	keystroke_e	e	n/a
121.5805	0.06	243161	keystroke_Key.space	Key.space	n/a
121.6705	0.15	243341	keystroke_l	l	n/a
121.8055	0.075	243611	keystroke_i	i	n/a
121.9555	0.09	243911	keystroke_k	k	n/a
122.0305	0.105	244061	keystroke_e	e	n/a
122.1205	0.075	244241	keystroke_l	l	n/a
122.1965	0.089	244393	keystroke_y	y	n/a
122.3005	0.105	244601	keystroke_Key.enter	Key.enter	n/a
122.4105	5.937	244821	prompt	n/a	principle inspiration agencies injured\n
123.0515	0.075	246103	keystroke_p	p	n/a
123.1415	0.075	246283	keystroke_r	r	n/a
123.2615	0.105	246523	keystroke_i	i	n/a
123.3515	0.09	246703	keystroke_n	n	n/a
123.4715	0.105	246943	keystroke_c	c	n/a
123.6815	0.12	247363	keystroke_i	i	n/a
123.9065	0.09	247813	keystroke_p	p	n/a
123.9815	0.12	247963	keystroke_l	l	n/a
124.0865	0.105	248173	keystroke_e	e	n/a
124.1765	0.105	248353	keystroke_Key.space	Key.space	n/a
124.4315	0.089	248863	keystroke_i	i	n/a
124.5055	0.135	249011	keystroke_n	n	n/a
124.6555	0.061	249311	keystroke_s	s	n/a
124.8515	0.12	249703	keystroke_p	p	n/a
124.9265	0.12	249853	keystroke_i	i	n/a
125.0915	0.135	250183	keystroke_r	r	n/a
125.2715	0.135	250543	keystroke_a	a	n/a
125.3915	0.135	250783	keystroke_t	t	n/a
126.2005	0.06	252401	keystroke_i	i	n/a
126.2455	0.031	252491	keystroke_o	o	n/a
126.3505	0.09	252701	keystroke_n	n	n/a
126.4105	0.12	252821	keystroke_Key.space	Key.space	n/a
126.591	0.045	253182	keystroke_a	a	n/a
126.6805	0.106	253361	keystroke_g	g	n/a
126.7415	0.105	253483	keystroke_e	e	n/a
126.8315	0.09	253663	keystroke_n	n	n/a
126.9365	0.09	253873	keystroke_c	c	n/a
127.0265	0.105	254053	keystroke_i	i	n/a
127.1165	0.12	254233	keystroke_e	e	n/a
127.1765	0.105	254353	keystroke_s	s	n/a
127.2515	0.09	254503	keystroke_Key.space	Key.space	n/a
127.3565	0.12	254713	keystroke_i	i	n/a
127.4465	0.105	254893	keystroke_n	n	n/a
127.6565	0.075	255313	keystroke_j	j	n/a
127.8215	0.105	255643	keystroke_u	u	n/a
127.9415	0.12	255883	keystroke_r	r	n/a
128.0315	0.12	256063	keystroke_e	e	n/a
128.1665	0.105	256333	keystroke_d	d	n/a
128.2565	0.09	256513	keystroke_Key.enter	Key.enter	n/a
128.3505	6.6425	256701	prompt	n/a	pentium shark booth compensation\n
128.9915	0.059	257983	keystroke_p	p	n/a
129.0815	0.09	258163	keystroke_e	e	n/a
129.2755	0.076	258551	keystroke_n	n	n/a
129.4105	0.121	258821	keystroke_t	t	n/a
130.986	0.09	261972	keystroke_i	i	n/a
131.061	0.06	262122	keystroke_u	u	n/a
131.256	0.105	262512	keystroke_m	m	n/a
131.301	0.075	262602	keystroke_Key.space	Key.space	n/a
131.406	0.075	262812	keystroke_s	s	n/a
131.496	0.075	262992	keystroke_h	h	n/a
131.556	0.105	263112	keystroke_a	a	n/a
131.601	0.12	263202	keystroke_r	r	n/a
131.676	0.075	263352	keystroke_k	k	n/a
131.706	0.075	263412	keystroke_Key.space	Key.space	n/a
131.856	0.09	263712	keystroke_b	b	n/a
131.931	0.045	263862	keystroke_o	o	n/a
132.036	0.105	264072	keystroke_o	o	n/a
132.126	0.105	264252	keystroke_t	t	n/a
132.216	0.075	264432	keystroke_h	h	n/a
132.246	0.15	264492	keystroke_Key.space	Key.space	n/a
133.041	0.09	266082	keystroke_c	c	n/a
133.071	0.075	266142	keystroke_o	o	n/a
133.191	0.09	266382	keystroke_m	m	n/a
133.326	0.105	266652	keystroke_p	p	n/a
134.046	0.06	268092	keystroke_e	e	n/a
134.106	0.06	268212	keystroke_n	n	n/a
134.256	0.075	268512	keystroke_s	s	n/a
134.451	0.105	268902	keystroke_a	a	n/a
134.526	0.105	269052	keystroke_t	t	n/a
134.571	0.105	269142	keystroke_i	i	n/a
134.646	0.0595	269292	keystroke_o	o	n/a
134.7655	0.09	269531	keystroke_n	n	n/a
134.9005	0.09	269801	keystroke_Key.enter	Key.enter	n/a
134.996	4.1515	269992	prompt	n/a	inquire prisoners southwest pumps\n
135.621	0.075	271242	keystroke_i	i	n/a
135.726	0.105	271452	keystroke_n	n	n/a
135.816	0.09	271632	keystroke_q	q	n/a
135.936	0.09	271872	keystroke_u	u	n/a
135.981	0.0905	271962	keystroke_i	i	n/a
136.026	0.1205	272052	keystroke_r	r	n/a
136.0865	0.12	272173	keystroke_e	e	n/a
136.1615	0.105	272323	keystroke_Key.space	Key.space	n/a
136.3565	0.105	272713	keystroke_p	p	n/a
136.4465	0.12	272893	keystroke_r	r	n/a
136.6115	0.075	273223	keystroke_i	i	n/a
136.746	0.075	273492	keystroke_s	s	n/a
136.806	0.0455	273612	keystroke_o	o	n/a
136.8965	0.075	273793	keystroke_n	n	n/a
136.9415	0.12	273883	keystroke_e	e	n/a
136.9865	0.12	273973	keystroke_r	r	n/a
137.0615	0.105	274123	keystroke_s	s	n/a
137.2115	0.105	274423	keystroke_Key.space	Key.space	n/a
137.5265	0.09	275053	keystroke_s	s	n/a
137.5715	0.105	275143	keystroke_o	o	n/a
137.6615	0.075	275323	keystroke_u	u	n/a
137.7515	0.09	275503	keystroke_t	t	n/a
137.8715	0.09	275743	keystroke_h	h	n/a
137.9915	0.075	275983	keystroke_w	w	n/a
138.0365	0.104	276073	keystroke_e	e	n/a
138.1705	0.1355	276341	keystroke_s	s	n/a
138.246	0.1055	276492	keystroke_t	t	n/a
138.3065	0.089	276613	keystroke_Key.space	Key.space	n/a
138.426	0.1055	276852	keystroke_p	p	n/a
138.591	0.0755	277182	keystroke_u	u	n/a
138.771	0.12	277542	keystroke_m	m	n/a
138.876	0.0905	277752	keystroke_p	p	n/a
138.9515	0.09	277903	keystroke_s	s	n/a
139.0715	0.0745	278143	keystroke_Key.enter	Key.enter	n/a
139.1505	4.9925	278301	prompt	n/a	addresses investing drawings nebraska\n
139.686	0.105	279372	keystroke_a	a	n/a
139.761	0.075	279522	keystroke_d	d	n/a
139.911	0.075	279822	keystroke_d	d	n/a
140.091	0.075	280182	keystroke_r	r	n/a
140.106	0.12	280212	keystroke_e	e	n/a
140.151	0.09	280302	keystroke_s	s	n/a
140.316	0.075	280632	keystroke_s	s	n/a
140.451	0.105	280902	keystroke_e	e	n/a
140.511	0.09	281022	keystroke_s	s	n/a
140.7065	0.1045	281413	keystroke_Key.space	Key.space	n/a
141.006	0.09	282012	keystroke_i	i	n/a
141.126	0.12	282252	keystroke_n	n	n/a
141.186	0.09	282372	keystroke_v	v	n/a
141.291	0.165	282582	keystroke_e	e	n/a
141.321	0.15	282642	keystroke_s	s	n/a
141.426	0.105	282852	keystroke_t	t	n/a
141.486	0.09	282972	keystroke_i	i	n/a
141.516	0.12	283032	keystroke_n	n	n/a
141.606	0.09	283212	keystroke_g	g	n/a
141.681	0.12	283362	keystroke_Key.space	Key.space	n/a
141.816	0.075	283632	keystroke_d	d	n/a
141.981	0.09	283962	keystroke_r	r	n/a
142.026	0.12	284052	keystroke_a	a	n/a
142.101	0.12	284202	keystroke_w	w	n/a
142.236	0.12	284472	keystroke_i	i	n/a
142.311	0.1205	284622	keystroke_n	n	n/a
142.386	0.0905	284772	keystroke_g	g	n/a
142.4165	0.12	284833	keystroke_s	s	n/a
142.5065	0.1045	285013	keystroke_Key.space	Key.space	n/a
142.851	0.075	285702	keystroke_n	n	n/a
142.926	0.09	285852	keystroke_e	e	n/a
143.061	0.09	286122	keystroke_b	b	n/a
143.196	0.09	286392	keystroke_r	r	n/a
143.271	0.135	286542	keystroke_a	a	n/a
143.376	0.09	286752	keystroke_s	s	n/a
143.5265	0.09	287053	keystroke_k	k	n/a
143.6615	0.09	287323	keystroke_a	a	n/a
144.1265	0.015	288253	keystroke_Key.enter	Key.enter	n/a
144.146	4.572	288292	prompt	n/a	commitment incorrect anti soft\n
144.891	0.075	289782	keystroke_c	c	n/a
144.936	0.09	289872	keystroke_o	o	n/a
145.101	0.06	290202	keystroke_m	m	n/a
145.221	0.135	290442	keystroke_m	m	n/a
145.296	0.075	290592	keystroke_i	i	n/a
145.386	0.075	290772	keystroke_t	t	n/a
145.491	0.075	290982	keystroke_m	m	n/a
145.596	0.09	291192	keystroke_e	e	n/a
145.671	0.075	291342	keystroke_n	n	n/a
145.761	0.09	291522	keystroke_t	t	n/a
145.836	0.045	291672	keystroke_Key.space	Key.space	n/a
145.911	0.12	291822	keystroke_i	i	n/a
146.016	0.09	292032	keystroke_n	n	n/a
146.196	0.1055	292392	keystroke_o	o	n/a
146.6915	0.074	293383	keystroke_Key.backspace	Key.backspace	n/a
146.8265	0.0595	293653	keystroke_c	c	n/a
146.901	0.09	293802	keystroke_o	o	n/a
147.141	0.06	294282	keystroke_r	r	n/a
147.276	0.09	294552	keystroke_r	r	n/a
147.321	0.105	294642	keystroke_e	e	n/a
147.501	0.09	295002	keystroke_c	c	n/a
147.726	0.06	295452	keystroke_t	t	n/a
147.771	0.075	295542	keystroke_Key.space	Key.space	n/a
147.861	0.105	295722	keystroke_a	a	n/a
147.951	0.075	295902	keystroke_n	n	n/a
148.041	0.075	296082	keystroke_t	t	n/a
148.086	0.105	296172	keystroke_i	i	n/a
148.146	0.105	296292	keystroke_Key.space	Key.space	n/a
148.221	0.09	296442	keystroke_s	s	n/a
148.296	0.105	296592	keystroke_o	o	n/a
148.386	0.0605	296772	keystroke_f	f	n/a
148.5515	0.09	297103	keystroke_t	t	n/a
148.6265	0.09	297253	keystroke_Key.enter	Key.enter	n/a
148.7205	6.4775	297441	prompt	n/a	minolta hitachi english surprise\n
149.6165	0.09	299233	keystroke_m	m	n/a
149.8565	0.075	299713	keystroke_i	i	n/a
150.0215	0.075	300043	keystroke_n	n	n/a
150.2165	0.06	300433	keystroke_o	o	n/a
150.4115	0.06	300823	keystroke_l	l	n/a
150.5765	0.12	301153	keystroke_t	t	n/a
150.6515	0.1045	301303	keystroke_a	a	n/a
150.846	0.09	301692	keystroke_Key.space	Key.space	n/a
151.236	0.075	302472	keystroke_h	h	n/a
151.431	0.075	302862	keystroke_i	i	n/a
151.851	0.09	303702	keystroke_t	t	n/a
152.046	0.12	304092	keystroke_a	a	n/a
152.226	0.15	304452	keystroke_c	c	n/a
152.361	0.105	304722	keystroke_h	h	n/a
152.406	0.105	304812	keystroke_i	i	n/a
152.421	0.18	304842	keystroke_Key.space	Key.space	n/a
152.811	0.09	305622	keystroke_e	e	n/a
152.886	0.09	305772	keystroke_n	n	n/a
152.991	0.0755	305982	keystroke_g	g	n/a
153.051	0.09	306102	keystroke_l	l	n/a
153.111	0.09	306222	keystroke_i	i	n/a
153.156	0.105	306312	keystroke_s	s	n/a
153.291	0.09	306582	keystroke_h	h	n/a
153.351	0.135	306702	keystroke_Key.space	Key.space	n/a
153.576	0.06	307152	keystroke_s	s	n/a
153.681	0.09	307362	keystroke_u	u	n/a
153.786	0.09	307572	keystroke_r	r	n/a
153.921	0.09	307842	keystroke_p	p	n/a
154.611	0.105	309222	keystroke_r	r	n/a
154.731	0.09	309462	keystroke_i	i	n/a
154.806	0.12	309612	keystroke_s	s	n/a
154.851	0.105	309702	keystroke_e	e	n/a
155.091	0.105	310182	keystroke_Key.enter	Key.enter	n/a
155.2005	5.9375	310401	prompt	n/a	invitations governmental familiar mice\n
155.856	0.075	311712	keystroke_i	i	n/a
156.036	0.075	312072	keystroke_n	n	n/a
156.411	0.045	312822	keystroke_v	v	n/a
156.501	0.075	313002	keystroke_i	i	n/a
156.636	0.09	313272	keystroke_t	t	n/a
156.741	0.105	313482	keystroke_a	a	n/a
156.801	0.105	313602	keystroke_t	t	n/a
156.861	0.075	313722	keystroke_i	i	n/a
156.921	0.045	313842	keystroke_o	o	n/a
157.026	0.09	314052	keystroke_n	n	n/a
157.086	0.075	314172	keystroke_s	s	n/a
157.176	0.105	314352	keystroke_Key.space	Key.space	n/a
157.266	0.075	314532	keystroke_g	g	n/a
157.342	0.104	314684	keystroke_o	o	n/a
157.701	0.105	315402	keystroke_v	v	n/a
157.911	0.09	315822	keystroke_e	e	n/a
157.956	0.12	315912	keystroke_r	r	n/a
158.046	0.075	316092	keystroke_n	n	n/a
158.241	0.09	316482	keystroke_m	m	n/a
158.361	0.105	316722	keystroke_e	e	n/a
158.451	0.09	316902	keystroke_n	n	n/a
158.571	0.12	317142	keystroke_t	t	n/a
158.631	0.1055	317262	keystroke_a	a	n/a
158.676	0.1055	317352	keystroke_l	l	n/a
158.7515	0.12	317503	keystroke_Key.space	Key.space	n/a
158.9315	0.09	317863	keystroke_f	f	n/a
159.1265	0.09	318253	keystroke_a	a	n/a
159.2465	0.09	318493	keystroke_m	m	n/a
160.026	0.03	320052	keystroke_i	i	n/a
160.041	0.135	320082	keystroke_l	l	n/a
160.161	0.105	320322	keystroke_i	i	n/a
160.221	0.12	320442	keystroke_a	a	n/a
160.281	0.09	320562	keystroke_r	r	n/a
160.326	0.135	320652	keystroke_Key.space	Key.space	n/a
160.626	0.15	321252	keystroke_m	m	n/a
160.701	0.1505	321402	keystroke_i	i	n/a
160.791	0.1205	321582	keystroke_c	c	n/a
160.8665	0.12	321733	keystroke_e	e	n/a
161.0165	0.12	322033	keystroke_Key.enter	Key.enter	n/a
161.142	4.1655	322284	prompt	n/a	interactive pending registry join\n
161.7515	0.075	323503	keystroke_i	i	n/a
161.8715	0.135	323743	keystroke_n	n	n/a
161.9165	0.105	323833	keystroke_t	t	n/a
161.9915	0.12	323983	keystroke_e	e	n/a
162.0815	0.09	324163	keystroke_r	r	n/a
162.1415	0.165	324283	keystroke_a	a	n/a
162.2615	0.09	324523	keystroke_c	c	n/a
162.4715	0.09	324943	keystroke_t	t	n/a
162.5465	0.12	325093	keystroke_i	i	n/a
162.6815	0.105	325363	keystroke_v	v	n/a
162.7115	0.12	325423	keystroke_e	e	n/a
162.7415	0.105	325483	keystroke_Key.space	Key.space	n/a
162.8915	0.075	325783	keystroke_p	p	n/a
162.9515	0.09	325903	keystroke_e	e	n/a
163.0565	0.105	326113	keystroke_n	n	n/a
163.1015	0.105	326203	keystroke_d	d	n/a
163.1915	0.12	326383	keystroke_i	i	n/a
163.2665	0.135	326533	keystroke_n	n	n/a
163.3265	0.12	326653	keystroke_g	g	n/a
163.4315	0.15	326863	keystroke_Key.space	Key.space	n/a
163.5665	0.09	327133	keystroke_r	r	n/a
163.5965	0.12	327193	keystroke_e	e	n/a
163.7765	0.105	327553	keystroke_g	g	n/a
164.0315	0.1045	328063	keystroke_i	i	n/a
164.196	0.0905	328392	keystroke_s	s	n/a
164.3165	0.105	328633	keystroke_t	t	n/a
164.4215	0.12	328843	keystroke_r	r	n/a
164.4965	0.105	328993	keystroke_y	y	n/a
164.5565	0.075	329113	keystroke_Key.space	Key.space	n/a
164.6765	0.075	329353	keystroke_j	j	n/a
164.8115	0.12	329623	keystroke_o	o	n/a
164.8865	0.09	329773	keystroke_i	i	n/a
165.0515	0.09	330103	keystroke_n	n	n/a
165.1865	0.12	330373	keystroke_Key.enter	Key.enter	n/a
165.3115	5.7265	330623	prompt	n/a	thinking adsl learned compare\n
165.9965	0.09	331993	keystroke_t	t	n/a
166.0715	0.105	332143	keystroke_h	h	n/a
166.1315	0.06	332263	keystroke_i	i	n/a
166.2815	0.105	332563	keystroke_n	n	n/a
166.3265	0.105	332653	keystroke_k	k	n/a
167.136	0.105	334272	keystroke_i	i	n/a
167.226	0.135	334452	keystroke_n	n	n/a
167.286	0.09	334572	keystroke_g	g	n/a
167.391	0.12	334782	keystroke_Key.space	Key.space	n/a
167.601	0.12	335202	keystroke_a	a	n/a
167.661	0.12	335322	keystroke_d	d	n/a
167.841	0.105	335682	keystroke_s	s	n/a
167.931	0.09	335862	keystroke_l	l	n/a
167.976	0.12	335952	keystroke_Key.space	Key.space	n/a
168.201	0.105	336402	keystroke_l	l	n/a
168.261	0.09	336522	keystroke_e	e	n/a
168.336	0.09	336672	keystroke_a	a	n/a
168.396	0.09	336792	keystroke_r	r	n/a
168.471	0.09	336942	keystroke_n	n	n/a
168.531	0.1505	337062	keystroke_e	e	n/a
168.6055	0.136	337211	keystroke_d	d	n/a
168.6955	0.076	337391	keystroke_Key.space	Key.space	n/a
169.056	0.075	338112	keystroke_c	c	n/a
169.086	0.06	338172	keystroke_o	o	n/a
169.161	0.09	338322	keystroke_m	m	n/a
169.266	0.12	338532	keystroke_p	p	n/a
169.371	0.165	338742	keystroke_r	r	n/a
169.476	0.135	338952	keystroke_e	e	n/a
170.166	0.075	340332	keystroke_Key.backspace	Key.backspace	n/a
170.331	0.06	340662	keystroke_Key.backspace	Key.backspace	n/a
170.421	0.105	340842	keystroke_a	a	n/a
170.481	0.135	340962	keystroke_r	r	n/a
170.556	0.105	341112	keystroke_e	e	n/a
170.931	0.105	341862	keystroke_Key.enter	Key.enter	n/a
171.041	4.182	342082	prompt	n/a	inspection footwear payments valued\n
171.666	0.1955	343332	keystroke_i	i	n/a
171.8765	0.015	343753	keystroke_n	n	n/a
171.8915	0.03	343783	keystroke_s	s	n/a
171.9515	0.09	343903	keystroke_p	p	n/a
171.9965	0.15	343993	keystroke_e	e	n/a
172.0715	0.12	344143	keystroke_c	c	n/a
172.3265	0.12	344653	keystroke_t	t	n/a
172.3865	0.105	344773	keystroke_i	i	n/a
172.4615	0.045	344923	keystroke_o	o	n/a
172.5965	0.075	345193	keystroke_n	n	n/a
172.6415	0.12	345283	keystroke_Key.space	Key.space	n/a
172.7615	0.075	345523	keystroke_f	f	n/a
172.8515	0.06	345703	keystroke_o	o	n/a
172.9855	0.091	345971	keystroke_o	o	n/a
173.0305	0.076	346061	keystroke_t	t	n/a
173.2115	0.105	346423	keystroke_w	w	n/a
173.2705	0.106	346541	keystroke_e	e	n/a
173.3465	0.135	346693	keystroke_a	a	n/a
173.4515	0.104	346903	keystroke_r	r	n/a
173.5255	0.09	347051	keystroke_Key.space	Key.space	n/a
173.7055	0.09	347411	keystroke_p	p	n/a
173.7665	0.074	347533	keystroke_a	a	n/a
173.8855	0.075	347771	keystroke_y	y	n/a
173.9905	0.076	347981	keystroke_m	m	n/a
174.0515	0.105	348103	keystroke_e	e	n/a
174.1705	0.105	348341	keystroke_n	n	n/a
174.2005	0.105	348401	keystroke_t	t	n/a
174.2765	0.074	348553	keystroke_s	s	n/a
174.3205	0.105	348641	keystroke_Key.space	Key.space	n/a
174.4705	0.09	348941	keystroke_v	v	n/a
174.5305	0.106	349061	keystroke_a	a	n/a
174.5905	0.135	349181	keystroke_l	l	n/a
174.7105	0.105	349421	keystroke_u	u	n/a
174.8015	0.104	349603	keystroke_e	e	n/a
174.8615	0.134	349723	keystroke_d	d	n/a
175.1155	0.106	350231	keystroke_Key.enter	Key.enter	n/a
175.228	4.0145	350456	prompt	n/a	knee descriptions step detail\n
175.9115	0.075	351823	keystroke_k	k	n/a
176.1215	0.075	352243	keystroke_n	n	n/a
176.2115	0.0595	352423	keystroke_e	e	n/a
176.361	0.09	352722	keystroke_e	e	n/a
176.436	0.105	352872	keystroke_Key.space	Key.space	n/a
176.646	0.1495	353292	keystroke_d	d	n/a
176.7065	0.164	353413	keystroke_e	e	n/a
176.7965	0.119	353593	keystroke_s	s	n/a
176.9765	0.09	353953	keystroke_c	c	n/a
177.1855	0.091	354371	keystroke_r	r	n/a
177.2605	0.136	354521	keystroke_i	i	n/a
177.4115	0.089	354823	keystroke_p	p	n/a
177.5465	0.09	355093	keystroke_t	t	n/a
177.6515	0.075	355303	keystroke_i	i	n/a
177.6815	0.075	355363	keystroke_o	o	n/a
177.8315	0.09	355663	keystroke_n	n	n/a
177.8915	0.09	355783	keystroke_s	s	n/a
177.9965	0.105	355993	keystroke_Key.space	Key.space	n/a
178.0865	0.105	356173	keystroke_s	s	n/a
178.1465	0.105	356293	keystroke_t	t	n/a
178.2065	0.12	356413	keystroke_e	e	n/a
178.2215	0.09	356443	keystroke_p	p	n/a
178.2815	0.12	356563	keystroke_Key.space	Key.space	n/a
178.4165	0.105	356833	keystroke_d	d	n/a
178.6115	0.09	357223	keystroke_e	e	n/a
178.7615	0.12	357523	keystroke_t	t	n/a
178.8215	0.135	357643	keystroke_a	a	n/a
178.8965	0.09	357793	keystroke_i	i	n/a
178.9415	0.105	357883	keystroke_l	l	n/a
179.1365	0.104	358273	keystroke_Key.enter	Key.enter	n/a
179.246	10.7515	358492	prompt	n/a	salem dollars catalogs genealogy\n
179.9315	0.075	359863	keystroke_s	s	n/a
180.0205	0.016	360041	keystroke_l	l	n/a
180.0515	0.045	360103	keystroke_a	a	n/a
180.4865	0.06	360973	keystroke_e	e	n/a
180.5615	0.1195	361123	keystroke_m	m	n/a
180.666	0.105	361332	keystroke_Key.space	Key.space	n/a
181.296	0.09	362592	keystroke_d	d	n/a
181.371	0.03	362742	keystroke_o	o	n/a
181.911	0.09	363822	keystroke_Key.backspace	Key.backspace	n/a
182.166	0.075	364332	keystroke_Key.backspace	Key.backspace	n/a
182.421	0.09	364842	keystroke_Key.backspace	Key.backspace	n/a
182.691	0.1045	365382	keystroke_Key.backspace	Key.backspace	n/a
182.9605	0.09	365921	keystroke_Key.backspace	Key.backspace	n/a
183.2005	0.075	366401	keystroke_Key.backspace	Key.backspace	n/a
183.4705	0.09	366941	keystroke_Key.backspace	Key.backspace	n/a
183.7555	0.09	367511	keystroke_a	a	n/a
183.8305	0.09	367661	keystroke_l	l	n/a
183.9805	0.105	367961	keystroke_e	e	n/a
184.0255	0.075	368051	keystroke_m	m	n/a
184.0705	0.135	368141	keystroke_Key.space	Key.space	n/a
184.2505	0.1055	368501	keystroke_d	d	n/a
184.3255	0.0605	368651	keystroke_o	o	n/a
184.461	0.075	368922	keystroke_l	l	n/a
184.596	0.105	369192	keystroke_l	l	n/a
184.656	0.1205	369312	keystroke_a	a	n/a
184.686	0.1205	369372	keystroke_r	r	n/a
184.7605	0.106	369521	keystroke_s	s	n/a
184.8355	0.09	369671	keystroke_Key.space	Key.space	n/a
185.0005	0.105	370001	keystroke_c	c	n/a
185.1665	0.059	370333	keystroke_a	a	n/a
185.3005	0.12	370601	keystroke_t	t	n/a
185.3755	0.105	370751	keystroke_a	a	n/a
185.4955	0.061	370991	keystroke_l	l	n/a
185.6455	0.09	371291	keystroke_o	o	n/a
185.7205	0.0905	371441	keystroke_g	g	n/a
185.7515	0.1045	371503	keystroke_s	s	n/a
185.826	0.09	371652	keystroke_Key.space	Key.space	n/a
186.096	0.075	372192	keystroke_g	g	n/a
186.141	0.12	372282	keystroke_e	e	n/a
187.5965	0.074	375193	keystroke_n	n	n/a
188.2715	0.09	376543	keystroke_e	e	n/a
188.991	0.105	377982	keystroke_a	a	n/a
189.246	0.0745	378492	keystroke_l	l	n/a
189.4255	0.0905	378851	keystroke_o	o	n/a
189.5005	0.09	379001	keystroke_g	g	n/a
189.7105	0.0905	379421	keystroke_y	y	n/a
189.8605	0.1355	379721	keystroke_Key.enter	Key.enter	n/a
190.0005	4.932	380001	prompt	n/a	tourist cyprus kill master\n
190.941	0.09	381882	keystroke_t	t	n/a
190.986	0.12	381972	keystroke_o	o	n/a
191.076	0.105	382152	keystroke_u	u	n/a
191.136	0.09	382272	keystroke_r	r	n/a
191.2555	0.12	382511	keystroke_i	i	n/a
191.3005	0.12	382601	keystroke_s	s	n/a
191.3605	0.09	382721	keystroke_t	t	n/a
191.4355	0.105	382871	keystroke_Key.space	Key.space	n/a
191.6905	0.09	383381	keystroke_c	c	n/a
191.9755	0.09	383951	keystroke_y	y	n/a
193.056	0.12	386112	keystroke_p	p	n/a
193.281	0.105	386562	keystroke_r	r	n/a
193.401	0.09	386802	keystroke_u	u	n/a
193.476	0.105	386952	keystroke_s	s	n/a
193.566	0.075	387132	keystroke_Key.space	Key.space	n/a
193.701	0.09	387402	keystroke_k	k	n/a
193.911	0.06	387822	keystroke_i	i	n/a
193.926	0.09	387852	keystroke_l	l	n/a
194.076	0.09	388152	keystroke_l	l	n/a
194.121	0.0895	388242	keystroke_Key.space	Key.space	n/a
194.2405	0.12	388481	keystroke_m	m	n/a
194.3005	0.12	388601	keystroke_a	a	n/a
194.3305	0.075	388661	keystroke_s	s	n/a
194.4505	0.09	388901	keystroke_t	t	n/a
194.5855	0.135	389171	keystroke_e	e	n/a
194.6605	0.105	389321	keystroke_r	r	n/a
194.8255	0.105	389651	keystroke_Key.enter	Key.enter	n/a
194.9355	4.977	389871	prompt	n/a	eliminate finds alpha toys\n
195.546	0.09	391092	keystroke_e	e	n/a
195.666	0.075	391332	keystroke_l	l	n/a
195.876	0.075	391752	keystroke_i	i	n/a
196.011	0.135	392022	keystroke_m	m	n/a
196.131	0.075	392262	keystroke_i	i	n/a
196.251	0.12	392502	keystroke_n	n	n/a
197.4355	0.12	394871	keystroke_a	a	n/a
197.5105	0.135	395021	keystroke_t	t	n/a
197.5855	0.121	395171	keystroke_e	e	n/a
197.6605	0.105	395321	keystroke_Key.space	Key.space	n/a
197.9155	0.09	395831	keystroke_f	f	n/a
198.0355	0.075	396071	keystroke_i	i	n/a
198.1555	0.12	396311	keystroke_n	n	n/a
198.2005	0.135	396401	keystroke_d	d	n/a
198.2455	0.12	396491	keystroke_s	s	n/a
198.3505	0.09	396701	keystroke_Key.space	Key.space	n/a
198.4255	0.105	396851	keystroke_a	a	n/a
198.5005	0.075	397001	keystroke_l	l	n/a
198.6655	0.075	397331	keystroke_p	p	n/a
198.816	0.1045	397632	keystroke_h	h	n/a
198.9055	0.075	397811	keystroke_a	a	n/a
198.9655	0.091	397931	keystroke_Key.space	Key.space	n/a
199.071	0.09	398142	keystroke_t	t	n/a
199.131	0.1055	398262	keystroke_o	o	n/a
199.2515	0.12	398503	keystroke_y	y	n/a
199.5205	0.105	399041	keystroke_s	s	n/a
199.8055	0.105	399611	keystroke_Key.enter	Key.enter	n/a
199.9155	6.447	399831	prompt	n/a	connected memorabilia understanding gradually\n
200.6305	0.0905	401261	keystroke_c	c	n/a
200.6755	0.0755	401351	keystroke_o	o	n/a
200.841	0.045	401682	keystroke_n	n	n/a
200.946	0.09	401892	keystroke_n	n	n/a
200.991	0.12	401982	keystroke_e	e	n/a
201.036	0.09	402072	keystroke_c	c	n/a
201.231	0.105	402462	keystroke_t	t	n/a
201.321	0.165	402642	keystroke_e	e	n/a
201.426	0.12	402852	keystroke_d	d	n/a
201.516	0.09	403032	keystroke_Key.space	Key.space	n/a
201.711	0.075	403422	keystroke_m	m	n/a
201.816	0.105	403632	keystroke_e	e	n/a
201.936	0.12	403872	keystroke_m	m	n/a
202.011	0.12	404022	keystroke_o	o	n/a
202.191	0.105	404382	keystroke_r	r	n/a
202.341	0.12	404682	keystroke_a	a	n/a
202.641	0.09	405282	keystroke_b	b	n/a
203.5415	0.135	407083	keystroke_i	i	n/a
203.6615	0.12	407323	keystroke_l	l	n/a
203.7515	0.12	407503	keystroke_i	i	n/a
203.8415	0.105	407683	keystroke_a	a	n/a
203.9165	0.104	407833	keystroke_Key.space	Key.space	n/a
204.1715	0.0745	408343	keystroke_u	u	n/a
204.291	0.105	408582	keystroke_n	n	n/a
204.336	0.105	408672	keystroke_d	d	n/a
204.411	0.135	408822	keystroke_e	e	n/a
204.531	0.12	409062	keystroke_r	r	n/a
204.681	0.12	409362	keystroke_s	s	n/a
204.726	0.12	409452	keystroke_t	t	n/a
204.771	0.12	409542	keystroke_a	a	n/a
204.861	0.09	409722	keystroke_n	n	n/a
204.951	0.105	409902	keystroke_d	d	n/a
205.011	0.105	410022	keystroke_i	i	n/a
205.086	0.105	410172	keystroke_n	n	n/a
205.161	0.075	410322	keystroke_g	g	n/a
205.221	0.12	410442	keystroke_Key.space	Key.space	n/a
205.356	0.075	410712	keystroke_g	g	n/a
205.506	0.09	411012	keystroke_r	r	n/a
205.566	0.105	411132	keystroke_a	a	n/a
205.672	0.104	411344	keystroke_d	d	n/a
205.791	0.075	411582	keystroke_u	u	n/a
205.851	0.09	411702	keystroke_a	a	n/a
205.956	0.06	411912	keystroke_l	l	n/a
206.061	0.105	412122	keystroke_l	l	n/a
206.151	0.09	412302	keystroke_y	y	n/a
206.256	0.105	412512	keystroke_Key.enter	Key.enter	n/a
206.3655	4.377	412731	prompt	n/a	commitments breeding who've making\n
206.916	0.105	413832	keystroke_c	c	n/a
206.946	0.09	413892	keystroke_o	o	n/a
207.111	0.06	414222	keystroke_m	m	n/a
207.231	0.12	414462	keystroke_m	m	n/a
207.291	0.105	414582	keystroke_i	i	n/a
207.381	0.075	414762	keystroke_t	t	n/a
207.516	0.12	415032	keystroke_m	m	n/a
207.651	0.075	415302	keystroke_e	e	n/a
207.741	0.09	415482	keystroke_n	n	n/a
207.801	0.105	415602	keystroke_t	t	n/a
207.846	0.12	415692	keystroke_s	s	n/a
207.936	0.105	415872	keystroke_Key.space	Key.space	n/a
208.176	0.0595	416352	keystroke_b	b	n/a
208.2205	0.09	416441	keystroke_r	r	n/a
208.3705	0.09	416741	keystroke_e	e	n/a
208.5505	0.075	417101	keystroke_e	e	n/a
208.5655	0.135	417131	keystroke_d	d	n/a
208.6855	0.0755	417371	keystroke_i	i	n/a
208.716	0.12	417432	keystroke_n	n	n/a
208.806	0.09	417612	keystroke_g	g	n/a
208.881	0.0745	417762	keystroke_Key.space	Key.space	n/a
208.9705	0.105	417941	keystroke_w	w	n/a
209.0305	0.09	418061	keystroke_h	h	n/a
209.1655	0.075	418331	keystroke_o	o	n/a
209.391	0.1045	418782	keystroke_'	'	n/a
209.5105	0.105	419021	keystroke_v	v	n/a
209.571	0.105	419142	keystroke_e	e	n/a
209.661	0.075	419322	keystroke_Key.space	Key.space	n/a
209.826	0.0745	419652	keystroke_m	m	n/a
209.8705	0.09	419741	keystroke_a	a	n/a
210.216	0.075	420432	keystroke_k	k	n/a
210.3665	0.105	420733	keystroke_i	i	n/a
210.4265	0.12	420853	keystroke_n	n	n/a
210.5015	0.09	421003	keystroke_g	g	n/a
210.6515	0.089	421303	keystroke_Key.enter	Key.enter	n/a
210.7455	4.797	421491	prompt	n/a	visual mild congressional plaza\n
211.4905	0.105	422981	keystroke_v	v	n/a
211.6105	0.106	423221	keystroke_i	i	n/a
211.8215	0.0745	423643	keystroke_s	s	n/a
211.8815	0.0895	423763	keystroke_u	u	n/a
212.001	0.105	424002	keystroke_a	a	n/a
212.0615	0.1045	424123	keystroke_l	l	n/a
212.121	0.105	424242	keystroke_Key.space	Key.space	n/a
212.346	0.12	424692	keystroke_m	m	n/a
212.571	0.09	425142	keystroke_i	i	n/a
212.7815	0.09	425563	keystroke_l	l	n/a
213.0365	0.105	426073	keystroke_d	d	n/a
213.2015	0.12	426403	keystroke_Key.space	Key.space	n/a
213.6215	0.105	427243	keystroke_c	c	n/a
213.6965	0.06	427393	keystroke_o	o	n/a
213.8165	0.09	427633	keystroke_n	n	n/a
213.8765	0.06	427753	keystroke_g	g	n/a
214.0115	0.12	428023	keystroke_r	r	n/a
214.0715	0.105	428143	keystroke_e	e	n/a
214.1165	0.075	428233	keystroke_s	s	n/a
214.2365	0.105	428473	keystroke_s	s	n/a
214.2965	0.09	428593	keystroke_i	i	n/a
214.3565	0.045	428713	keystroke_o	o	n/a
214.4765	0.075	428953	keystroke_n	n	n/a
214.5065	0.09	429013	keystroke_a	a	n/a
214.6265	0.075	429253	keystroke_l	l	n/a
214.6715	0.0895	429343	keystroke_Key.space	Key.space	n/a
214.821	0.12	429642	keystroke_p	p	n/a
214.911	0.1345	429822	keystroke_l	l	n/a
214.971	0.0905	429942	keystroke_a	a	n/a
215.1355	0.045	430271	keystroke_z	z	n/a
215.2855	0.12	430571	keystroke_a	a	n/a
215.4505	0.09	430901	keystroke_Key.enter	Key.enter	n/a
215.5455	4.827	431091	prompt	n/a	tablets wouldn't branch lost\n
216.2315	0.09	432463	keystroke_t	t	n/a
216.2915	0.09	432583	keystroke_a	a	n/a
216.4415	0.075	432883	keystroke_b	b	n/a
216.5465	0.105	433093	keystroke_l	l	n/a
216.6665	0.06	433333	keystroke_e	e	n/a
216.6815	0.105	433363	keystroke_t	t	n/a
216.6965	0.149	433393	keystroke_s	s	n/a
216.8305	0.091	433661	keystroke_Key.space	Key.space	n/a
216.9365	0.075	433873	keystroke_w	w	n/a
216.9815	0.105	433963	keystroke_o	o	n/a
217.0415	0.09	434083	keystroke_u	u	n/a
217.281	0.075	434562	keystroke_d	d	n/a
217.851	0.075	435702	keystroke_Key.backspace	Key.backspace	n/a
218.0765	0.0745	436153	keystroke_l	l	n/a
218.136	0.105	436272	keystroke_d	d	n/a
218.226	0.06	436452	keystroke_n	n	n/a
218.406	0.075	436812	keystroke_'	'	n/a
218.5715	0.09	437143	keystroke_t	t	n/a
218.6915	0.1045	437383	keystroke_Key.space	Key.space	n/a
219.216	0.06	438432	keystroke_b	b	n/a
219.261	0.06	438522	keystroke_r	r	n/a
219.291	0.105	438582	keystroke_a	a	n/a
219.381	0.06	438762	keystroke_n	n	n/a
219.456	0.09	438912	keystroke_c	c	n/a
219.547	0.089	439094	keystroke_h	h	n/a
219.591	0.09	439182	keystroke_Key.space	Key.space	n/a
219.741	0.06	439482	keystroke_l	l	n/a
219.8905	0.091	439781	keystroke_o	o	n/a
220.011	0.09	440022	keystroke_s	s	n/a
220.056	0.12	440112	keystroke_t	t	n/a
220.311	0.06	440622	keystroke_Key.enter	Key.enter	n/a
220.3785	8.754	440757	prompt	n/a	because mainly miracle serve\n
221.271	0.06	442542	keystroke_b	b	n/a
221.286	0.075	442572	keystroke_e	e	n/a
221.406	0.12	442812	keystroke_c	c	n/a
221.466	0.075	442932	keystroke_a	a	n/a
221.526	0.105	443052	keystroke_u	u	n/a
221.646	0.105	443292	keystroke_s	s	n/a
221.691	0.12	443382	keystroke_e	e	n/a
221.736	0.09	443472	keystroke_Key.space	Key.space	n/a
221.856	0.15	443712	keystroke_m	m	n/a
221.976	0.105	443952	keystroke_i	i	n/a
222.126	0.105	444252	keystroke_n	n	n/a
222.246	0.105	444492	keystroke_a	a	n/a
222.366	0.09	444732	keystroke_l	l	n/a
222.471	0.09	444942	keystroke_y	y	n/a
222.546	0.0745	445092	keystroke_Key.space	Key.space	n/a
222.7115	0.15	445423	keystroke_m	m	n/a
222.8465	0.105	445693	keystroke_i	i	n/a
222.9065	0.09	445813	keystroke_r	r	n/a
222.9815	0.09	445963	keystroke_a	a	n/a
223.1165	0.09	446233	keystroke_c	c	n/a
223.2365	0.105	446473	keystroke_l	l	n/a
223.8065	0.075	447613	keystroke_Key.backspace	Key.backspace	n/a
224.0905	0.075	448181	keystroke_Key.backspace	Key.backspace	n/a
224.3605	0.09	448721	keystroke_Key.backspace	Key.backspace	n/a
224.6155	0.075	449231	keystroke_Key.backspace	Key.backspace	n/a
224.886	0.075	449772	keystroke_Key.backspace	Key.backspace	n/a
225.141	0.075	450282	keystroke_Key.backspace	Key.backspace	n/a
225.411	0.09	450822	keystroke_Key.backspace	Key.backspace	n/a
225.651	0.075	451302	keystroke_Key.backspace	Key.backspace	n/a
225.891	0.075	451782	keystroke_Key.backspace	Key.backspace	n/a
226.131	0.075	452262	keystroke_Key.backspace	Key.backspace	n/a
226.356	0.075	452712	keystroke_Key.backspace	Key.backspace	n/a
226.611	0.06	453222	keystroke_Key.backspace	Key.backspace	n/a
226.9715	0.09	453943	keystroke_a	a	n/a
227.0455	0.076	454091	keystroke_i	i	n/a
227.1815	0.089	454363	keystroke_n	n	n/a
227.5265	0.074	455053	keystroke_l	l	n/a
227.6155	0.09	455231	keystroke_y	y	n/a
227.6905	0.075	455381	keystroke_Key.space	Key.space	n/a
227.8405	0.15	455681	keystroke_m	m	n/a
227.9305	0.106	455861	keystroke_i	i	n/a
228.0055	0.091	456011	keystroke_r	r	n/a
228.0665	0.089	456133	keystroke_a	a	n/a
228.186	0.12	456372	keystroke_c	c	n/a
228.291	0.075	456582	keystroke_l	l	n/a
228.381	0.06	456762	keystroke_e	e	n/a
228.486	0.045	456972	keystroke_Key.space	Key.space	n/a
228.546	0.12	457092	keystroke_s	s	n/a
228.606	0.12	457212	keystroke_e	e	n/a
228.6505	0.0905	457301	keystroke_r	r	n/a
228.831	0.135	457662	keystroke_v	v	n/a
228.921	0.105	457842	keystroke_e	e	n/a
229.041	0.09	458082	keystroke_Key.enter	Key.enter	n/a
229.1355	4.767	458271	prompt	n/a	alan trying criterion attributes\n
229.9115	0.105	459823	keystroke_a	a	n/a
230.0015	0.075	460003	keystroke_l	l	n/a
230.0915	0.105	460183	keystroke_a	a	n/a
230.1815	0.09	460363	keystroke_n	n	n/a
230.2415	0.09	460483	keystroke_Key.space	Key.space	n/a
230.3155	0.09	460631	keystroke_t	t	n/a
230.3905	0.135	460781	keystroke_r	r	n/a
230.4805	0.09	460961	keystroke_y	y	n/a
230.5405	0.105	461081	keystroke_i	i	n/a
230.6005	0.12	461201	keystroke_n	n	n/a
230.6905	0.0905	461381	keystroke_g	g	n/a
230.766	0.1495	461532	keystroke_Key.space	Key.space	n/a
230.991	0.09	461982	keystroke_c	c	n/a
231.2305	0.09	462461	keystroke_r	r	n/a
231.3355	0.105	462671	keystroke_i	i	n/a
231.546	0.06	463092	keystroke_t	t	n/a
231.726	0.1045	463452	keystroke_e	e	n/a
231.7855	0.105	463571	keystroke_r	r	n/a
231.9205	0.1205	463841	keystroke_i	i	n/a
231.981	0.075	463962	keystroke_o	o	n/a
232.1315	0.104	464263	keystroke_n	n	n/a
232.1905	0.135	464381	keystroke_Key.space	Key.space	n/a
232.3705	0.09	464741	keystroke_a	a	n/a
232.5205	0.061	465041	keystroke_t	t	n/a
232.6555	0.09	465311	keystroke_t	t	n/a
232.701	0.1045	465402	keystroke_r	r	n/a
232.8065	0.089	465613	keystroke_i	i	n/a
232.9105	0.061	465821	keystroke_b	b	n/a
233.0005	0.105	466001	keystroke_u	u	n/a
233.1215	0.134	466243	keystroke_t	t	n/a
233.1655	0.166	466331	keystroke_e	e	n/a
233.2265	0.134	466453	keystroke_s	s	n/a
233.811	0.09	467622	keystroke_Key.enter	Key.enter	n/a
233.9105	11.257	467821	prompt	n/a	rejected writers accepts stating\n
234.561	0.12	469122	keystroke_r	r	n/a
234.621	0.105	469242	keystroke_e	e	n/a
234.726	0.09	469452	keystroke_j	j	n/a
234.786	0.165	469572	keystroke_e	e	n/a
234.906	0.045	469812	keystroke_c	c	n/a
235.146	0.105	470292	keystroke_t	t	n/a
235.236	0.15	470472	keystroke_e	e	n/a
235.356	0.12	470712	keystroke_d	d	n/a
235.461	0.135	470922	keystroke_Key.space	Key.space	n/a
235.611	0.1195	471222	keystroke_w	w	n/a
235.7155	0.12	471431	keystroke_r	r	n/a
235.8665	0.089	471733	keystroke_i	i	n/a
235.9255	0.09	471851	keystroke_t	t	n/a
235.9855	0.165	471971	keystroke_e	e	n/a
236.0905	0.105	472181	keystroke_r	r	n/a
236.1355	0.105	472271	keystroke_s	s	n/a
236.2255	0.09	472451	keystroke_Key.space	Key.space	n/a
236.3305	0.12	472661	keystroke_a	a	n/a
236.4205	0.105	472841	keystroke_c	c	n/a
236.6455	0.165	473291	keystroke_e	e	n/a
236.7955	0.09	473591	keystroke_p	p	n/a
236.9455	0.105	473891	keystroke_t	t	n/a
237.3955	0.075	474791	keystroke_Key.backspace	Key.backspace	n/a
237.576	0.09	475152	keystroke_Key.backspace	Key.backspace	n/a
237.681	0.09	475362	keystroke_c	c	n/a
237.726	0.12	475452	keystroke_e	e	n/a
237.831	0.09	475662	keystroke_p	p	n/a
237.951	0.09	475902	keystroke_t	t	n/a
237.966	0.12	475932	keystroke_s	s	n/a
238.101	0.105	476202	keystroke_Key.space	Key.space	n/a
238.431	0.09	476862	keystroke_s	s	n/a
239.106	0.075	478212	keystroke_Key.backspace	Key.backspace	n/a
239.346	0.075	478692	keystroke_Key.backspace	Key.backspace	n/a
239.571	0.1055	479142	keystroke_Key.backspace	Key.backspace	n/a
239.7955	0.09	479591	keystroke_Key.backspace	Key.backspace	n/a
239.9905	0.075	479981	keystroke_Key.backspace	Key.backspace	n/a
240.201	0.09	480402	keystroke_Key.backspace	Key.backspace	n/a
240.426	0.075	480852	keystroke_Key.backspace	Key.backspace	n/a
240.681	0.0895	481362	keystroke_Key.backspace	Key.backspace	n/a
241.0105	0.121	482021	keystroke_c	c	n/a
241.0705	0.105	482141	keystroke_e	e	n/a
241.3855	0.105	482771	keystroke_p	p	n/a
241.5055	0.09	483011	keystroke_t	t	n/a
241.5355	0.106	483071	keystroke_s	s	n/a
241.6555	0.1205	483311	keystroke_Key.space	Key.space	n/a
241.791	0.06	483582	keystroke_s	s	n/a
241.821	0.09	483642	keystroke_t	t	n/a
242.031	0.09	484062	keystroke_t	t	n/a
242.166	0.105	484332	keystroke_i	i	n/a
242.226	0.135	484452	keystroke_n	n	n/a
242.316	0.105	484632	keystroke_g	g	n/a
242.811	0.06	485622	keystroke_Key.backspace	Key.backspace	n/a
243.006	0.075	486012	keystroke_Key.backspace	Key.backspace	n/a
243.216	0.06	486432	keystroke_Key.backspace	Key.backspace	n/a
243.456	0.075	486912	keystroke_Key.backspace	Key.backspace	n/a
243.681	0.09	487362	keystroke_a	a	n/a
243.741	0.09	487482	keystroke_t	t	n/a
243.816	0.12	487632	keystroke_i	i	n/a
243.921	0.105	487842	keystroke_n	n	n/a
243.966	0.09	487932	keystroke_g	g	n/a
245.0605	0.105	490121	keystroke_Key.enter	Key.enter	n/a
245.171	5.262	490342	prompt	n/a	festivals mike centered colonial\n
245.9005	0.135	491801	keystroke_f	f	n/a
245.9455	0.15	491891	keystroke_e	e	n/a
246.0055	0.105	492011	keystroke_s	s	n/a
246.1705	0.091	492341	keystroke_t	t	n/a
246.2765	0.09	492553	keystroke_i	i	n/a
246.3815	0.105	492763	keystroke_v	v	n/a
246.4265	0.105	492853	keystroke_a	a	n/a
246.5165	0.105	493033	keystroke_l	l	n/a
246.5915	0.105	493183	keystroke_s	s	n/a
246.6815	0.0745	493363	keystroke_Key.space	Key.space	n/a
246.771	0.135	493542	keystroke_m	m	n/a
246.966	0.075	493932	keystroke_i	i	n/a
247.116	0.0905	494232	keystroke_k	k	n/a
247.176	0.0755	494352	keystroke_e	e	n/a
247.2515	0.1045	494503	keystroke_Key.space	Key.space	n/a
247.3415	0.15	494683	keystroke_c	c	n/a
247.446	0.105	494892	keystroke_e	e	n/a
247.521	0.09	495042	keystroke_n	n	n/a
247.6415	0.0895	495283	keystroke_e	e	n/a
248.106	0.09	496212	keystroke_Key.backspace	Key.backspace	n/a
248.211	0.075	496422	keystroke_t	t	n/a
248.301	0.135	496602	keystroke_e	e	n/a
248.406	0.1205	496812	keystroke_r	r	n/a
248.5115	0.135	497023	keystroke_e	e	n/a
248.6315	0.104	497263	keystroke_d	d	n/a
248.7205	0.12	497441	keystroke_Key.space	Key.space	n/a
249.0505	0.09	498101	keystroke_c	c	n/a
249.1555	0.091	498311	keystroke_o	o	n/a
249.3655	0.0755	498731	keystroke_l	l	n/a
249.561	0.075	499122	keystroke_o	o	n/a
249.786	0.0745	499572	keystroke_n	n	n/a
249.9355	0.09	499871	keystroke_i	i	n/a
249.9955	0.15	499991	keystroke_a	a	n/a
250.1305	0.105	500261	keystroke_l	l	n/a
250.3555	0.075	500711	keystroke_Key.enter	Key.enter	n/a
250.437	6.6405	500874	prompt	n/a	realtors administrators linked cover\n
251.1815	0.029	502363	keystroke_r	r	n/a
251.1955	0.0755	502391	keystroke_e	e	n/a
251.331	0.105	502662	keystroke_a	a	n/a
251.421	0.105	502842	keystroke_l	l	n/a
251.601	0.075	503202	keystroke_t	t	n/a
251.706	0.09	503412	keystroke_o	o	n/a
251.781	0.105	503562	keystroke_r	r	n/a
251.826	0.105	503652	keystroke_s	s	n/a
251.916	0.135	503832	keystroke_Key.space	Key.space	n/a
252.126	0.09	504252	keystroke_a	a	n/a
252.261	0.105	504522	keystroke_d	d	n/a
252.396	0.15	504792	keystroke_m	m	n/a
252.531	0.12	505062	keystroke_i	i	n/a
252.621	0.12	505242	keystroke_n	n	n/a
252.921	0.09	505842	keystroke_i	i	n/a
253.191	0.075	506382	keystroke_s	s	n/a
253.491	0.075	506982	keystroke_t	t	n/a
253.686	0.09	507372	keystroke_r	r	n/a
253.761	0.12	507522	keystroke_a	a	n/a
253.851	0.105	507702	keystroke_t	t	n/a
254.016	0.105	508032	keystroke_o	o	n/a
255.036	0.135	510072	keystroke_r	r	n/a
255.096	0.15	510192	keystroke_s	s	n/a
255.231	0.1045	510462	keystroke_Key.space	Key.space	n/a
255.7715	0.104	511543	keystroke_l	l	n/a
255.9655	0.06	511931	keystroke_i	i	n/a
256.0705	0.105	512141	keystroke_n	n	n/a
256.1155	0.105	512231	keystroke_k	k	n/a
256.1465	0.134	512293	keystroke_e	e	n/a
256.2215	0.075	512443	keystroke_d	d	n/a
256.2655	0.105	512531	keystroke_Key.space	Key.space	n/a
256.4005	0.09	512801	keystroke_c	c	n/a
256.4605	0.105	512921	keystroke_o	o	n/a
256.5805	0.06	513161	keystroke_v	v	n/a
256.746	0.12	513492	keystroke_e	e	n/a
256.776	0.165	513552	keystroke_r	r	n/a
256.971	0.105	513942	keystroke_Key.enter	Key.enter	n/a
257.0805	6.057	514161	prompt	n/a	realm common findings jeep\n
257.736	0.075	515472	keystroke_r	r	n/a
257.886	0.105	515772	keystroke_e	e	n/a
257.901	0.1645	515802	keystroke_a	a	n/a
258.0205	0.075	516041	keystroke_l	l	n/a
258.1255	0.105	516251	keystroke_m	m	n/a
258.1855	0.105	516371	keystroke_Key.space	Key.space	n/a
259.026	0.09	518052	keystroke_c	c	n/a
259.071	0.09	518142	keystroke_o	o	n/a
259.236	0.06	518472	keystroke_m	m	n/a
259.356	0.1045	518712	keystroke_m	m	n/a
259.4305	0.09	518861	keystroke_o	o	n/a
259.5505	0.075	519101	keystroke_n	n	n/a
259.6105	0.09	519221	keystroke_Key.space	Key.space	n/a
259.7305	0.0905	519461	keystroke_f	f	n/a
259.7605	0.1205	519521	keystroke_i	i	n/a
259.866	0.1205	519732	keystroke_n	n	n/a
260.0015	0.0745	520003	keystroke_d	d	n/a
260.0915	0.1195	520183	keystroke_i	i	n/a
260.151	0.12	520302	keystroke_n	n	n/a
260.241	0.105	520482	keystroke_g	g	n/a
260.3015	0.105	520603	keystroke_s	s	n/a
260.376	0.1045	520752	keystroke_Key.space	Key.space	n/a
260.6905	0.046	521381	keystroke_e	e	n/a
261.0355	0.076	522071	keystroke_Key.backspace	Key.backspace	n/a
261.2015	0.1045	522403	keystroke_k	k	n/a
261.321	0.06	522642	keystroke_e	e	n/a
261.891	0.06	523782	keystroke_Key.backspace	Key.backspace	n/a
262.056	0.0895	524112	keystroke_Key.backspace	Key.backspace	n/a
262.2805	0.09	524561	keystroke_j	j	n/a
262.3855	0.06	524771	keystroke_e	e	n/a
262.5205	0.12	525041	keystroke_e	e	n/a
262.6255	0.135	525251	keystroke_p	p	n/a
263.0305	0.105	526061	keystroke_Key.enter	Key.enter	n/a
263.1415	5.126	526283	prompt	n/a	poker samoa adapters jumping\n
263.8265	0.105	527653	keystroke_p	p	n/a
263.9165	0.105	527833	keystroke_o	o	n/a
264.0965	0.12	528193	keystroke_k	k	n/a
264.1565	0.12	528313	keystroke_e	e	n/a
264.2315	0.074	528463	keystroke_r	r	n/a
264.2915	0.0895	528583	keystroke_Key.space	Key.space	n/a
264.486	0.09	528972	keystroke_s	s	n/a
264.801	0.075	529602	keystroke_a	a	n/a
264.996	0.09	529992	keystroke_m	m	n/a
265.326	0.075	530652	keystroke_o	o	n/a
265.431	0.09	530862	keystroke_a	a	n/a
265.536	0.09	531072	keystroke_Key.space	Key.space	n/a
265.8355	0.105	531671	keystroke_a	a	n/a
265.9255	0.121	531851	keystroke_d	d	n/a
266.0155	0.09	532031	keystroke_a	a	n/a
266.3155	0.09	532631	keystroke_p	p	n/a
266.4355	0.076	532871	keystroke_t	t	n/a
266.5255	0.135	533051	keystroke_e	e	n/a
266.6155	0.1205	533231	keystroke_r	r	n/a
266.6755	0.1355	533351	keystroke_s	s	n/a
266.796	0.09	533592	keystroke_Key.space	Key.space	n/a
267.0955	0.09	534191	keystroke_j	j	n/a
267.3205	0.045	534641	keystroke_u	u	n/a
267.5005	0.09	535001	keystroke_m	m	n/a
267.6205	0.105	535241	keystroke_p	p	n/a
267.8305	0.09	535661	keystroke_i	i	n/a
267.8905	0.105	535781	keystroke_n	n	n/a
267.9805	0.09	535961	keystroke_g	g	n/a
268.1755	0.09	536351	keystroke_Key.enter	Key.enter	n/a
268.2705	4.317	536541	prompt	n/a	stat challenge traveling hydrogen\n
268.8055	0.12	537611	keystroke_s	s	n/a
268.986	0.075	537972	keystroke_t	t	n/a
269.076	0.12	538152	keystroke_a	a	n/a
269.166	0.075	538332	keystroke_t	t	n/a
269.226	0.105	538452	keystroke_Key.space	Key.space	n/a
269.406	0.09	538812	keystroke_c	c	n/a
269.481	0.09	538962	keystroke_h	h	n/a
269.571	0.06	539142	keystroke_a	a	n/a
269.661	0.06	539322	keystroke_l	l	n/a
269.796	0.075	539592	keystroke_l	l	n/a
269.872	0.074	539744	keystroke_e	e	n/a
269.961	0.09	539922	keystroke_n	n	n/a
270.036	0.105	540072	keystroke_g	g	n/a
270.081	0.105	540162	keystroke_e	e	n/a
270.141	0.105	540282	keystroke_Key.space	Key.space	n/a
270.291	0.0895	540582	keystroke_t	t	n/a
270.4705	0.105	540941	keystroke_r	r	n/a
270.5315	0.104	541063	keystroke_a	a	n/a
270.7555	0.09	541511	keystroke_v	v	n/a
270.7855	0.12	541571	keystroke_e	e	n/a
270.8755	0.06	541751	keystroke_l	l	n/a
271.0405	0.09	542081	keystroke_i	i	n/a
271.0855	0.12	542171	keystroke_n	n	n/a
271.1315	0.104	542263	keystroke_g	g	n/a
271.2365	0.089	542473	keystroke_Key.space	Key.space	n/a
271.4455	0.09	542891	keystroke_h	h	n/a
271.6555	0.075	543311	keystroke_y	y	n/a
271.7155	0.075	543431	keystroke_d	d	n/a
271.7915	0.119	543583	keystroke_r	r	n/a
272.0005	0.09	544001	keystroke_o	o	n/a
272.1355	0.105	544271	keystroke_g	g	n/a
272.1805	0.12	544361	keystroke_e	e	n/a
272.2555	0.076	544511	keystroke_n	n	n/a
272.4965	0.089	544993	keystroke_Key.enter	Key.enter	n/a
272.5905	4.9475	545181	prompt	n/a	xanax achieved quilt stranger\n
273.3055	0.12	546611	keystroke_x	x	n/a
273.3805	0.09	546761	keystroke_a	a	n/a
273.5455	0.09	547091	keystroke_n	n	n/a
273.6505	0.075	547301	keystroke_a	a	n/a
274.0105	0.12	548021	keystroke_x	x	n/a
274.3255	0.135	548651	keystroke_Key.space	Key.space	n/a
274.5505	0.105	549101	keystroke_a	a	n/a
274.6255	0.12	549251	keystroke_c	c	n/a
274.7305	0.09	549461	keystroke_h	h	n/a
274.7755	0.105	549551	keystroke_i	i	n/a
274.8355	0.12	549671	keystroke_e	e	n/a
274.9255	0.105	549851	keystroke_v	v	n/a
275.0755	0.135	550151	keystroke_e	e	n/a
275.1355	0.15	550271	keystroke_d	d	n/a
275.3005	0.045	550601	keystroke_Key.space	Key.space	n/a
275.9305	0.12	551861	keystroke_q	q	n/a
276.066	0.075	552132	keystroke_u	u	n/a
276.081	0.105	552162	keystroke_i	i	n/a
276.336	0.0755	552672	keystroke_l	l	n/a
276.426	0.0755	552852	keystroke_t	t	n/a
276.5465	0.105	553093	keystroke_Key.space	Key.space	n/a
276.741	0.09	553482	keystroke_s	s	n/a
276.846	0.045	553692	keystroke_t	t	n/a
276.981	0.075	553962	keystroke_r	r	n/a
276.996	0.1055	553992	keystroke_a	a	n/a
277.116	0.06	554232	keystroke_n	n	n/a
277.176	0.075	554352	keystroke_g	g	n/a
277.311	0.09	554622	keystroke_e	e	n/a
277.341	0.12	554682	keystroke_r	r	n/a
277.446	0.09	554892	keystroke_Key.enter	Key.enter	n/a
277.5405	4.902	555081	prompt	n/a	impaired andorra princess her\n
278.166	0.09	556332	keystroke_i	i	n/a
278.286	0.09	556572	keystroke_m	m	n/a
278.451	0.105	556902	keystroke_p	p	n/a
278.541	0.105	557082	keystroke_a	a	n/a
278.691	0.0895	557382	keystroke_i	i	n/a
278.7505	0.075	557501	keystroke_r	r	n/a
278.8105	0.18	557621	keystroke_e	e	n/a
278.9305	0.121	557861	keystroke_d	d	n/a
279.0355	0.105	558071	keystroke_Key.space	Key.space	n/a
279.3055	0.075	558611	keystroke_a	a	n/a
279.3955	0.09	558791	keystroke_n	n	n/a
279.4705	0.12	558941	keystroke_d	d	n/a
279.921	0.075	559842	keystroke_o	o	n/a
280.011	0.06	560022	keystroke_r	r	n/a
280.161	0.09	560322	keystroke_r	r	n/a
280.1915	0.1195	560383	keystroke_a	a	n/a
280.311	0.09	560622	keystroke_Key.space	Key.space	n/a
280.671	0.06	561342	keystroke_r	r	n/a
280.986	0.075	561972	keystroke_Key.backspace	Key.backspace	n/a
281.196	0.09	562392	keystroke_p	p	n/a
281.301	0.09	562602	keystroke_r	r	n/a
281.421	0.105	562842	keystroke_i	i	n/a
281.511	0.105	563022	keystroke_n	n	n/a
281.586	0.135	563172	keystroke_c	c	n/a
281.661	0.105	563322	keystroke_e	e	n/a
281.706	0.09	563412	keystroke_s	s	n/a
281.856	0.105	563712	keystroke_s	s	n/a
281.946	0.06	563892	keystroke_Key.space	Key.space	n/a
282.051	0.12	564102	keystroke_h	h	n/a
282.126	0.09	564252	keystroke_e	e	n/a
282.171	0.09	564342	keystroke_r	r	n/a
282.321	0.12	564642	keystroke_Key.enter	Key.enter	n/a
282.446	5.3815	564892	prompt	n/a	fiscal framed eminem sympathy\n
283.146	0.09	566292	keystroke_f	f	n/a
283.281	0.09	566562	keystroke_i	i	n/a
283.416	0.09	566832	keystroke_s	s	n/a
283.611	0.12	567222	keystroke_c	c	n/a
283.671	0.105	567342	keystroke_a	a	n/a
283.701	0.12	567402	keystroke_l	l	n/a
283.791	0.105	567582	keystroke_Key.space	Key.space	n/a
283.9565	0.075	567913	keystroke_f	f	n/a
284.1065	0.09	568213	keystroke_r	r	n/a
284.1515	0.09	568303	keystroke_a	a	n/a
284.2115	0.105	568423	keystroke_m	m	n/a
284.3015	0.135	568603	keystroke_e	e	n/a
284.3615	0.135	568723	keystroke_d	d	n/a
284.4515	0.09	568903	keystroke_Key.space	Key.space	n/a
284.6615	0.105	569323	keystroke_e	e	n/a
284.7515	0.09	569503	keystroke_m	m	n/a
284.9465	0.12	569893	keystroke_i	i	n/a
285.1115	0.045	570223	keystroke_n	n	n/a
285.621	0.12	571242	keystroke_e	e	n/a
285.726	0.105	571452	keystroke_m	m	n/a
285.771	0.135	571542	keystroke_Key.space	Key.space	n/a
285.966	0.12	571932	keystroke_s	s	n/a
286.206	0.09	572412	keystroke_y	y	n/a
286.281	0.075	572562	keystroke_m	m	n/a
286.521	0.09	573042	keystroke_p	p	n/a
286.971	0.075	573942	keystroke_a	a	n/a
287.076	0.1045	574152	keystroke_t	t	n/a
287.2105	0.105	574421	keystroke_h	h	n/a
287.3305	0.105	574661	keystroke_y	y	n/a
287.7355	0.09	575471	keystroke_Key.enter	Key.enter	n/a
287.832	9.145	575664	prompt	n/a	armenia christian main substantial\n
288.936	0.105	577872	keystroke_a	a	n/a
289.011	0.09	578022	keystroke_r	r	n/a
289.161	0.12	578322	keystroke_m	m	n/a
289.311	0.0745	578622	keystroke_e	e	n/a
289.4305	0.135	578861	keystroke_n	n	n/a
289.5055	0.12	579011	keystroke_i	i	n/a
289.6105	0.1205	579221	keystroke_a	a	n/a
290.736	0.12	581472	keystroke_Key.space	Key.space	n/a
291.006	0.075	582012	keystroke_c	c	n/a
291.096	0.09	582192	keystroke_h	h	n/a
291.201	0.105	582402	keystroke_r	r	n/a
291.336	0.12	582672	keystroke_i	i	n/a
291.47	0.046	582940	keystroke_s	s	n/a
291.561	0.105	583122	keystroke_t	t	n/a
291.651	0.09	583302	keystroke_i	i	n/a
291.756	0.105	583512	keystroke_a	a	n/a
291.831	0.09	583662	keystroke_n	n	n/a
291.876	0.135	583752	keystroke_Key.space	Key.space	n/a
293.6305	0.105	587261	keystroke_m	m	n/a
293.9005	0.09	587801	keystroke_a	a	n/a
293.9915	0.104	587983	keystroke_i	i	n/a
294.1555	0.09	588311	keystroke_n	n	n/a
294.2155	0.12	588431	keystroke_Key.space	Key.space	n/a
295.026	0.09	590052	keystroke_s	s	n/a
295.131	0.09	590262	keystroke_u	u	n/a
295.266	0.075	590532	keystroke_b	b	n/a
295.476	0.09	590952	keystroke_s	s	n/a
295.611	0.105	591222	keystroke_t	t	n/a
295.671	0.105	591342	keystroke_a	a	n/a
295.9265	0.104	591853	keystroke_n	n	n/a
296.2705	0.09	592541	keystroke_t	t	n/a
296.3465	0.09	592693	keystroke_i	i	n/a
296.4515	0.119	592903	keystroke_a	a	n/a
296.5565	0.104	593113	keystroke_l	l	n/a
296.8715	0.105	593743	keystroke_Key.enter	Key.enter	n/a
296.981	5.9515	593962	prompt	n/a	letters holdings recipients tournament\n
297.5165	0.104	595033	keystroke_l	l	n/a
297.6355	0.135	595271	keystroke_e	e	n/a
297.7105	0.09	595421	keystroke_f	f	n/a
298.1305	0.075	596261	keystroke_Key.backspace	Key.backspace	n/a
298.2205	0.06	596441	keystroke_t	t	n/a
298.3555	0.09	596711	keystroke_t	t	n/a
298.4305	0.165	596861	keystroke_e	e	n/a
298.5055	0.12	597011	keystroke_r	r	n/a
298.5805	0.105	597161	keystroke_s	s	n/a
298.6705	0.06	597341	keystroke_Key.space	Key.space	n/a
298.8055	0.09	597611	keystroke_h	h	n/a
298.8965	0.104	597793	keystroke_o	o	n/a
299.0755	0.15	598151	keystroke_l	l	n/a
299.2105	0.09	598421	keystroke_d	d	n/a
299.3905	0.12	598781	keystroke_i	i	n/a
299.4655	0.12	598931	keystroke_n	n	n/a
299.5255	0.105	599051	keystroke_g	g	n/a
299.5555	0.12	599111	keystroke_s	s	n/a
299.6455	0.12	599291	keystroke_Key.space	Key.space	n/a
299.8255	0.1055	599651	keystroke_r	r	n/a
299.9005	0.105	599801	keystroke_e	e	n/a
300.141	0.105	600282	keystroke_c	c	n/a
300.2605	0.0755	600521	keystroke_i	i	n/a
300.426	0.12	600852	keystroke_p	p	n/a
300.531	0.12	601062	keystroke_i	i	n/a
300.636	0.0745	601272	keystroke_e	e	n/a
300.7255	0.09	601451	keystroke_n	n	n/a
300.7855	0.135	601571	keystroke_t	t	n/a
300.8455	0.105	601691	keystroke_s	s	n/a
300.9055	0.105	601811	keystroke_Key.space	Key.space	n/a
301.0255	0.105	602051	keystroke_t	t	n/a
301.0705	0.15	602141	keystroke_o	o	n/a
301.1755	0.09	602351	keystroke_u	u	n/a
301.2805	0.105	602561	keystroke_r	r	n/a
301.5355	0.075	603071	keystroke_n	n	n/a
301.6405	0.105	603281	keystroke_a	a	n/a
301.7305	0.09	603461	keystroke_m	m	n/a
302.4955	0.06	604991	keystroke_e	e	n/a
302.5405	0.09	605081	keystroke_n	n	n/a
302.6455	0.09	605291	keystroke_t	t	n/a
302.8255	0.105	605651	keystroke_Key.enter	Key.enter	n/a
302.9375	5.56	605875	prompt	n/a	proposals transmit online thanks\n
303.5915	0.074	607183	keystroke_p	p	n/a
303.8005	0.105	607601	keystroke_r	r	n/a
303.9355	0.06	607871	keystroke_o	o	n/a
304.5955	0.09	609191	keystroke_p	p	n/a
304.731	0.105	609462	keystroke_o	o	n/a
304.866	0.12	609732	keystroke_s	s	n/a
304.926	0.105	609852	keystroke_a	a	n/a
305.001	0.105	610002	keystroke_l	l	n/a
305.121	0.09	610242	keystroke_s	s	n/a
305.256	0.105	610512	keystroke_Key.space	Key.space	n/a
305.991	0.075	611982	keystroke_t	t	n/a
306.141	0.105	612282	keystroke_r	r	n/a
306.201	0.0895	612402	keystroke_a	a	n/a
306.2755	0.075	612551	keystroke_n	n	n/a
306.3805	0.09	612761	keystroke_s	s	n/a
306.5005	0.12	613001	keystroke_m	m	n/a
306.5605	0.12	613121	keystroke_i	i	n/a
306.696	0.09	613392	keystroke_t	t	n/a
306.801	0.105	613602	keystroke_Key.space	Key.space	n/a
307.056	0.06	614112	keystroke_o	o	n/a
307.176	0.075	614352	keystroke_n	n	n/a
307.326	0.105	614652	keystroke_l	l	n/a
307.386	0.075	614772	keystroke_i	i	n/a
307.551	0.09	615102	keystroke_n	n	n/a
307.656	0.09	615312	keystroke_e	e	n/a
307.716	0.09	615432	keystroke_Key.space	Key.space	n/a
307.836	0.105	615672	keystroke_t	t	n/a
307.926	0.075	615852	keystroke_h	h	n/a
307.971	0.12	615942	keystroke_a	a	n/a
308.076	0.09	616152	keystroke_n	n	n/a
308.136	0.105	616272	keystroke_k	k	n/a
308.211	0.09	616422	keystroke_s	s	n/a
308.391	0.1045	616782	keystroke_Key.enter	Key.enter	n/a
308.5025	5.71	617005	prompt	n/a	wrist attachments reaches confirm\n
309.066	0.12	618132	keystroke_w	w	n/a
309.171	0.135	618342	keystroke_r	r	n/a
309.321	0.09	618642	keystroke_i	i	n/a
309.351	0.105	618702	keystroke_s	s	n/a
309.426	0.075	618852	keystroke_t	t	n/a
309.471	0.12	618942	keystroke_Key.space	Key.space	n/a
309.576	0.09	619152	keystroke_a	a	n/a
309.636	0.075	619272	keystroke_t	t	n/a
309.756	0.09	619512	keystroke_t	t	n/a
309.816	0.09	619632	keystroke_a	a	n/a
309.966	0.075	619932	keystroke_c	c	n/a
310.042	0.089	620084	keystroke_h	h	n/a
310.9705	0.105	621941	keystroke_m	m	n/a
311.0905	0.075	622181	keystroke_e	e	n/a
311.1805	0.0905	622361	keystroke_n	n	n/a
311.256	0.105	622512	keystroke_t	t	n/a
311.316	0.105	622632	keystroke_s	s	n/a
311.466	0.075	622932	keystroke_Key.space	Key.space	n/a
311.661	0.06	623322	keystroke_r	r	n/a
311.796	0.075	623592	keystroke_e	e	n/a
311.841	0.105	623682	keystroke_a	a	n/a
312.006	0.09	624012	keystroke_c	c	n/a
312.141	0.09	624282	keystroke_h	h	n/a
312.216	0.12	624432	keystroke_e	e	n/a
312.276	0.105	624552	keystroke_s	s	n/a
312.321	0.105	624642	keystroke_Key.space	Key.space	n/a
312.456	0.06	624912	keystroke_f	f	n/a
312.876	0.105	625752	keystroke_Key.backspace	Key.backspace	n/a
312.966	0.12	625932	keystroke_c	c	n/a
313.056	0.09	626112	keystroke_o	o	n/a
313.146	0.09	626292	keystroke_n	n	n/a
313.221	0.09	626442	keystroke_f	f	n/a
313.326	0.06	626652	keystroke_i	i	n/a
313.401	0.105	626802	keystroke_r	r	n/a
313.491	0.075	626982	keystroke_m	m	n/a
314.1205	0.09	628241	keystroke_Key.enter	Key.enter	n/a
314.215	4.5725	628430	prompt	n/a	hour everybody janet oxford\n
314.8105	0.06	629621	keystroke_h	h	n/a
314.9305	0.12	629861	keystroke_o	o	n/a
315.0055	0.075	630011	keystroke_u	u	n/a
315.0355	0.105	630071	keystroke_r	r	n/a
315.0955	0.075	630191	keystroke_s	s	n/a
315.1415	0.119	630283	keystroke_Key.space	Key.space	n/a
315.2315	0.0895	630463	keystroke_e	e	n/a
315.336	0.12	630672	keystroke_v	v	n/a
315.516	0.12	631032	keystroke_e	e	n/a
315.561	0.1345	631122	keystroke_r	r	n/a
315.651	0.0595	631302	keystroke_y	y	n/a
315.8755	0.105	631751	keystroke_j	j	n/a
315.9805	0.06	631961	keystroke_o	o	n/a
316.4465	0.059	632893	keystroke_Key.backspace	Key.backspace	n/a
316.5655	0.075	633131	keystroke_Key.backspace	Key.backspace	n/a
316.6255	0.076	633251	keystroke_b	b	n/a
316.7305	0.12	633461	keystroke_o	o	n/a
316.8355	0.09	633671	keystroke_d	d	n/a
316.8805	0.12	633761	keystroke_y	y	n/a
316.9555	0.135	633911	keystroke_Key.space	Key.space	n/a
317.3605	0.09	634721	keystroke_j	j	n/a
317.4365	0.074	634873	keystroke_a	a	n/a
317.5405	0.09	635081	keystroke_n	n	n/a
317.6155	0.105	635231	keystroke_e	e	n/a
317.6455	0.105	635291	keystroke_t	t	n/a
317.7055	0.09	635411	keystroke_Key.space	Key.space	n/a
317.8105	0.105	635621	keystroke_o	o	n/a
317.9165	0.1195	635833	keystroke_x	x	n/a
318.216	0.1045	636432	keystroke_f	f	n/a
318.306	0.1045	636612	keystroke_o	o	n/a
318.4255	0.06	636851	keystroke_r	r	n/a
318.5755	0.105	637151	keystroke_d	d	n/a
318.6655	0.12	637331	keystroke_Key.enter	Key.enter	n/a
318.7905	5.802	637581	prompt	n/a	applicant downloadable mayor molecules\n
319.401	0.105	638802	keystroke_a	a	n/a
319.5955	0.061	639191	keystroke_p	p	n/a
319.7315	0.105	639463	keystroke_p	p	n/a
319.7755	0.12	639551	keystroke_l	l	n/a
319.9715	0.105	639943	keystroke_i	i	n/a
320.0305	0.106	640061	keystroke_c	c	n/a
320.0615	0.119	640123	keystroke_a	a	n/a
320.2555	0.091	640511	keystroke_n	n	n/a
320.3465	0.12	640693	keystroke_t	t	n/a
320.5105	0.06	641021	keystroke_Key.space	Key.space	n/a
320.6465	0.0595	641293	keystroke_d	d	n/a
320.736	0.105	641472	keystroke_o	o	n/a
320.871	0.075	641742	keystroke_w	w	n/a
320.961	0.06	641922	keystroke_n	n	n/a
321.5155	0.075	643031	keystroke_l	l	n/a
321.7105	0.075	643421	keystroke_o	o	n/a
321.8155	0.12	643631	keystroke_a	a	n/a
321.9055	0.12	643811	keystroke_d	d	n/a
322.0555	0.075	644111	keystroke_a	a	n/a
322.1605	0.09	644321	keystroke_b	b	n/a
322.2515	0.089	644503	keystroke_l	l	n/a
322.3255	0.105	644651	keystroke_e	e	n/a
322.3855	0.075	644771	keystroke_Key.space	Key.space	n/a
322.5055	0.15	645011	keystroke_m	m	n/a
322.5655	0.075	645131	keystroke_a	a	n/a
322.6855	0.09	645371	keystroke_y	y	n/a
322.7905	0.12	645581	keystroke_o	o	n/a
322.8955	0.09	645791	keystroke_r	r	n/a
322.9555	0.09	645911	keystroke_Key.space	Key.space	n/a
323.1805	0.105	646361	keystroke_m	m	n/a
323.4205	0.06	646841	keystroke_o	o	n/a
323.5855	0.09	647171	keystroke_l	l	n/a
323.6305	0.105	647261	keystroke_e	e	n/a
323.7655	0.15	647531	keystroke_c	c	n/a
324.1705	0.09	648341	keystroke_u	u	n/a
324.2305	0.09	648461	keystroke_l	l	n/a
324.2905	0.12	648581	keystroke_e	e	n/a
324.3655	0.09	648731	keystroke_s	s	n/a
324.4705	0.12	648941	keystroke_Key.enter	Key.enter	n/a
324.595	5.6225	649190	prompt	n/a	purchased housewares emerald rubber\n
325.2205	0.075	650441	keystroke_p	p	n/a
325.3565	0.105	650713	keystroke_u	u	n/a
325.4455	0.076	650891	keystroke_r	r	n/a
325.6115	0.119	651223	keystroke_c	c	n/a
325.7155	0.09	651431	keystroke_h	h	n/a
325.7915	0.105	651583	keystroke_a	a	n/a
325.8515	0.104	651703	keystroke_s	s	n/a
326.0455	0.075	652091	keystroke_e	e	n/a
326.2415	0.044	652483	keystroke_d	d	n/a
326.796	0.12	653592	keystroke_Key.space	Key.space	n/a
327.171	0.075	654342	keystroke_h	h	n/a
327.276	0.12	654552	keystroke_o	o	n/a
327.351	0.105	654702	keystroke_u	u	n/a
327.396	0.075	654792	keystroke_s	s	n/a
327.426	0.09	654852	keystroke_e	e	n/a
327.591	0.105	655182	keystroke_w	w	n/a
327.606	0.15	655212	keystroke_a	a	n/a
327.786	0.15	655572	keystroke_r	r	n/a
327.846	0.15	655692	keystroke_e	e	n/a
327.906	0.12	655812	keystroke_s	s	n/a
328.011	0.12	656022	keystroke_Key.space	Key.space	n/a
328.266	0.105	656532	keystroke_e	e	n/a
328.386	0.09	656772	keystroke_m	m	n/a
328.521	0.105	657042	keystroke_e	e	n/a
328.581	0.075	657162	keystroke_r	r	n/a
328.67	0.121	657340	keystroke_a	a	n/a
328.82	0.075	657640	keystroke_l	l	n/a
328.8655	0.0905	657731	keystroke_d	d	n/a
328.971	0.075	657942	keystroke_Key.space	Key.space	n/a
329.181	0.06	658362	keystroke_r	r	n/a
329.271	0.075	658542	keystroke_u	u	n/a
329.376	0.06	658752	keystroke_b	b	n/a
329.511	0.06	659022	keystroke_b	b	n/a
329.646	0.1345	659292	keystroke_e	e	n/a
329.7055	0.15	659411	keystroke_r	r	n/a
330.1255	0.09	660251	keystroke_Key.enter	Key.enter	n/a
330.22	3.972	660440	prompt	n/a	meet housing beast graduate\n
330.9205	0.075	661841	keystroke_m	m	n/a
331.0405	0.076	662081	keystroke_e	e	n/a
331.1905	0.105	662381	keystroke_e	e	n/a
331.2505	0.1205	662501	keystroke_t	t	n/a
331.356	0.06	662712	keystroke_Key.space	Key.space	n/a
331.506	0.06	663012	keystroke_h	h	n/a
331.611	0.135	663222	keystroke_o	o	n/a
331.701	0.105	663402	keystroke_u	u	n/a
331.776	0.105	663552	keystroke_s	s	n/a
331.866	0.075	663732	keystroke_i	i	n/a
331.956	0.105	663912	keystroke_n	n	n/a
332.001	0.09	664002	keystroke_g	g	n/a
332.076	0.09	664152	keystroke_Key.space	Key.space	n/a
332.181	0.105	664362	keystroke_b	b	n/a
332.256	0.075	664512	keystroke_e	e	n/a
332.301	0.165	664602	keystroke_a	a	n/a
332.376	0.15	664752	keystroke_s	s	n/a
332.481	0.09	664962	keystroke_t	t	n/a
332.541	0.09	665082	keystroke_Key.space	Key.space	n/a
332.706	0.075	665412	keystroke_g	g	n/a
332.886	0.12	665772	keystroke_r	r	n/a
332.961	0.12	665922	keystroke_a	a	n/a
333.126	0.105	666252	keystroke_d	d	n/a
333.261	0.09	666522	keystroke_u	u	n/a
333.336	0.105	666672	keystroke_a	a	n/a
333.411	0.15	666822	keystroke_t	t	n/a
333.516	0.195	667032	keystroke_e	e	n/a
334.101	0.09	668202	keystroke_Key.enter	Key.enter	n/a
334.195	7.4225	668390	prompt	n/a	western secretariat lion swedish\n
334.8355	0.06	669671	keystroke_w	w	n/a
334.8815	0.029	669763	keystroke_e	e	n/a
334.9865	0.149	669973	keystroke_s	s	n/a
335.4955	0.091	670991	keystroke_t	t	n/a
335.6755	0.1205	671351	keystroke_e	e	n/a
335.7205	0.1205	671441	keystroke_r	r	n/a
335.826	0.09	671652	keystroke_n	n	n/a
335.901	0.135	671802	keystroke_Key.space	Key.space	n/a
336.051	0.135	672102	keystroke_s	s	n/a
336.126	0.12	672252	keystroke_e	e	n/a
336.351	0.09	672702	keystroke_c	c	n/a
336.726	0.135	673452	keystroke_r	r	n/a
336.816	0.12	673632	keystroke_e	e	n/a
336.951	0.09	673902	keystroke_t	t	n/a
338.076	0.09	676152	keystroke_a	a	n/a
338.496	0.09	676992	keystroke_r	r	n/a
338.616	0.105	677232	keystroke_i	i	n/a
338.706	0.09	677412	keystroke_a	a	n/a
338.751	0.12	677502	keystroke_t	t	n/a
338.841	0.09	677682	keystroke_Key.space	Key.space	n/a
339.021	0.105	678042	keystroke_l	l	n/a
339.246	0.105	678492	keystroke_i	i	n/a
339.321	0.09	678642	keystroke_o	o	n/a
339.501	0.06	679002	keystroke_n	n	n/a
339.546	0.09	679092	keystroke_Key.space	Key.space	n/a
339.606	0.135	679212	keystroke_w	w	n/a
339.666	0.105	679332	keystroke_e	e	n/a
340.311	0.089	680622	keystroke_Key.backspace	Key.backspace	n/a
340.506	0.075	681012	keystroke_Key.backspace	Key.backspace	n/a
340.566	0.0755	681132	keystroke_s	s	n/a
340.7455	0.09	681491	keystroke_w	w	n/a
340.7915	0.104	681583	keystroke_e	e	n/a
341.0005	0.09	682001	keystroke_d	d	n/a
341.0765	0.1045	682153	keystroke_i	i	n/a
341.1655	0.0905	682331	keystroke_s	s	n/a
341.241	0.09	682482	keystroke_h	h	n/a
341.526	0.09	683052	keystroke_Key.enter	Key.enter	n/a
341.6205	4.032	683241	prompt	n/a	cuba ratios nintendo circus\n
342.291	0.06	684582	keystroke_c	c	n/a
342.366	0.09	684732	keystroke_u	u	n/a
342.486	0.1195	684972	keystroke_b	b	n/a
342.5605	0.105	685121	keystroke_a	a	n/a
342.6205	0.0905	685241	keystroke_Key.space	Key.space	n/a
342.801	0.075	685602	keystroke_r	r	n/a
342.861	0.105	685722	keystroke_a	a	n/a
342.951	0.105	685902	keystroke_t	t	n/a
343.041	0.12	686082	keystroke_i	i	n/a
343.086	0.12	686172	keystroke_o	o	n/a
343.176	0.105	686352	keystroke_s	s	n/a
343.251	0.105	686502	keystroke_Key.space	Key.space	n/a
343.491	0.09	686982	keystroke_n	n	n/a
343.566	0.135	687132	keystroke_i	i	n/a
343.686	0.105	687372	keystroke_n	n	n/a
343.806	0.12	687612	keystroke_t	t	n/a
343.851	0.135	687702	keystroke_e	e	n/a
344.001	0.09	688002	keystroke_n	n	n/a
344.091	0.135	688182	keystroke_d	d	n/a
344.181	0.12	688362	keystroke_o	o	n/a
344.241	0.105	688482	keystroke_Key.space	Key.space	n/a
344.511	0.09	689022	keystroke_c	c	n/a
344.616	0.1045	689232	keystroke_i	i	n/a
344.7355	0.06	689471	keystroke_r	r	n/a
344.9305	0.06	689861	keystroke_c	c	n/a
345.0055	0.09	690011	keystroke_u	u	n/a
345.1105	0.06	690221	keystroke_s	s	n/a
345.5455	0.105	691091	keystroke_Key.enter	Key.enter	n/a
345.655	3.5975	691310	prompt	n/a	consist days harry business\n
346.311	0.075	692622	keystroke_c	c	n/a
346.341	0.0895	692682	keystroke_o	o	n/a
346.4755	0.12	692951	keystroke_n	n	n/a
346.641	0.045	693282	keystroke_s	s	n/a
346.701	0.075	693402	keystroke_i	i	n/a
346.791	0.06	693582	keystroke_s	s	n/a
346.881	0.075	693762	keystroke_t	t	n/a
346.971	0.09	693942	keystroke_Key.space	Key.space	n/a
347.121	0.105	694242	keystroke_d	d	n/a
347.151	0.12	694302	keystroke_a	a	n/a
347.286	0.075	694572	keystroke_y	y	n/a
347.346	0.09	694692	keystroke_s	s	n/a
347.391	0.09	694782	keystroke_Key.space	Key.space	n/a
347.511	0.105	695022	keystroke_h	h	n/a
347.586	0.075	695172	keystroke_a	a	n/a
347.631	0.06	695262	keystroke_r	r	n/a
347.751	0.105	695502	keystroke_r	r	n/a
347.796	0.09	695592	keystroke_y	y	n/a
347.856	0.105	695712	keystroke_Key.space	Key.space	n/a
347.99	0.091	695980	keystroke_b	b	n/a
348.036	0.12	696072	keystroke_u	u	n/a
348.171	0.105	696342	keystroke_s	s	n/a
348.261	0.06	696522	keystroke_i	i	n/a
348.351	0.12	696702	keystroke_n	n	n/a
348.426	0.09	696852	keystroke_e	e	n/a
348.486	0.06	696972	keystroke_s	s	n/a
348.636	0.105	697272	keystroke_s	s	n/a
349.131	0.12	698262	keystroke_Key.enter	Key.enter	n/a
349.2555	12.312	698511	prompt	n/a	buried send promises earthquake\n
350.2555	0.135	700511	keystroke_b	b	n/a
350.3305	0.09	700661	keystroke_u	u	n/a
350.4355	0.09	700871	keystroke_r	r	n/a
350.5405	0.105	701081	keystroke_i	i	n/a
350.6155	0.135	701231	keystroke_e	e	n/a
350.6755	0.09	701351	keystroke_d	d	n/a
350.7355	0.105	701471	keystroke_Key.space	Key.space	n/a
350.8105	0.15	701621	keystroke_s	s	n/a
350.9005	0.09	701801	keystroke_e	e	n/a
350.9755	0.09	701951	keystroke_n	n	n/a
351.0355	0.105	702071	keystroke_d	d	n/a
351.1105	0.075	702221	keystroke_Key.space	Key.space	n/a
351.2155	0.09	702431	keystroke_p	p	n/a
351.441	0.075	702882	keystroke_o	o	n/a
351.546	0.09	703092	keystroke_r	r	n/a
351.651	0.135	703302	keystroke_m	m	n/a
351.711	0.12	703422	keystroke_i	i	n/a
351.801	0.105	703602	keystroke_s	s	n/a
351.891	0.135	703782	keystroke_e	e	n/a
351.981	0.09	703962	keystroke_s	s	n/a
352.056	0.105	704112	keystroke_Key.space	Key.space	n/a
352.221	0.12	704442	keystroke_e	e	n/a
352.311	0.12	704622	keystroke_a	a	n/a
352.416	0.09	704832	keystroke_r	r	n/a
352.611	0.075	705222	keystroke_t	t	n/a
353.181	0.06	706362	keystroke_Key.backspace	Key.backspace	n/a
353.481	0.06	706962	keystroke_Key.backspace	Key.backspace	n/a
353.766	0.105	707532	keystroke_Key.backspace	Key.backspace	n/a
354.066	0.105	708132	keystroke_Key.backspace	Key.backspace	n/a
354.366	0.09	708732	keystroke_Key.backspace	Key.backspace	n/a
354.696	0.12	709392	keystroke_Key.backspace	Key.backspace	n/a
355.026	0.15	710052	keystroke_Key.backspace	Key.backspace	n/a
355.371	0.09	710742	keystroke_Key.backspace	Key.backspace	n/a
355.596	0.09	711192	keystroke_Key.backspace	Key.backspace	n/a
355.836	0.105	711672	keystroke_Key.backspace	Key.backspace	n/a
356.106	0.075	712212	keystroke_Key.backspace	Key.backspace	n/a
356.316	0.09	712632	keystroke_Key.backspace	Key.backspace	n/a
356.616	0.12	713232	keystroke_Key.backspace	Key.backspace	n/a
357.171	0.09	714342	keystroke_p	p	n/a
357.306	0.105	714612	keystroke_r	r	n/a
357.381	0.105	714762	keystroke_o	o	n/a
357.711	0.105	715422	keystroke_m	m	n/a
357.771	0.12	715542	keystroke_i	i	n/a
357.876	0.09	715752	keystroke_s	s	n/a
357.966	0.15	715932	keystroke_e	e	n/a
358.056	0.09	716112	keystroke_s	s	n/a
358.161	0.09	716322	keystroke_Key.space	Key.space	n/a
358.356	0.12	716712	keystroke_e	e	n/a
358.446	0.135	716892	keystroke_a	a	n/a
358.551	0.09	717102	keystroke_r	r	n/a
358.731	0.09	717462	keystroke_t	t	n/a
359.1215	0.09	718243	keystroke_h	h	n/a
359.3765	0.09	718753	keystroke_q	q	n/a
359.5115	0.105	719023	keystroke_u	u	n/a
360.0515	0.09	720103	keystroke_a	a	n/a
360.1565	0.075	720313	keystroke_k	k	n/a
360.2465	0.12	720493	keystroke_a	a	n/a
360.816	0.1055	721632	keystroke_Key.backspace	Key.backspace	n/a
361.1165	0.0745	722233	keystroke_e	e	n/a
361.461	0.1055	722922	keystroke_Key.enter	Key.enter	n/a
361.571	7.2865	723142	prompt	n/a	notebook naples offices cognitive\n
362.2405	0.09	724481	keystroke_n	n	n/a
362.4205	0.091	724841	keystroke_o	o	n/a
362.4665	0.104	724933	keystroke_t	t	n/a
362.5265	0.089	725053	keystroke_e	e	n/a
362.7205	0.09	725441	keystroke_b	b	n/a
362.7955	0.045	725591	keystroke_o	o	n/a
362.9005	0.09	725801	keystroke_o	o	n/a
362.9615	0.104	725923	keystroke_k	k	n/a
363.0205	0.09	726041	keystroke_Key.space	Key.space	n/a
363.1855	0.09	726371	keystroke_n	n	n/a
363.2605	0.09	726521	keystroke_a	a	n/a
364.1755	0.12	728351	keystroke_p	p	n/a
364.2355	0.12	728471	keystroke_l	l	n/a
364.3105	0.12	728621	keystroke_e	e	n/a
364.3855	0.09	728771	keystroke_s	s	n/a
364.4765	0.074	728953	keystroke_Key.space	Key.space	n/a
364.6255	0.105	729251	keystroke_o	o	n/a
364.7155	0.075	729431	keystroke_f	f	n/a
364.8655	0.075	729731	keystroke_f	f	n/a
364.9555	0.105	729911	keystroke_i	i	n/a
365.0305	0.15	730061	keystroke_c	c	n/a
365.1205	0.12	730241	keystroke_e	e	n/a
365.1655	0.135	730331	keystroke_s	s	n/a
365.2705	0.12	730541	keystroke_Key.space	Key.space	n/a
366.456	0.12	732912	keystroke_c	c	n/a
366.606	0.15	733212	keystroke_o	o	n/a
367.131	0.09	734262	keystroke_g	g	n/a
367.4165	0.12	734833	keystroke_n	n	n/a
367.461	0.135	734922	keystroke_i	i	n/a
367.6415	0.09	735283	keystroke_t	t	n/a
367.7465	0.1045	735493	keystroke_i	i	n/a
367.866	0.12	735732	keystroke_v	v	n/a
367.911	0.15	735822	keystroke_e	e	n/a
368.766	0.0895	737532	keystroke_Key.enter	Key.enter	n/a
368.8615	8.381	737723	prompt	n/a	coated accompanied california returned\n
369.6505	0.09	739301	keystroke_o	o	n/a
370.116	0.06	740232	keystroke_Key.backspace	Key.backspace	n/a
370.251	0.06	740502	keystroke_c	c	n/a
370.296	0.105	740592	keystroke_o	o	n/a
370.386	0.09	740772	keystroke_a	a	n/a
370.491	0.105	740982	keystroke_t	t	n/a
370.596	0.165	741192	keystroke_e	e	n/a
370.746	0.075	741492	keystroke_d	d	n/a
371.286	0.09	742572	keystroke_Key.space	Key.space	n/a
371.601	0.105	743202	keystroke_a	a	n/a
371.661	0.06	743322	keystroke_c	c	n/a
371.811	0.09	743622	keystroke_c	c	n/a
371.856	0.075	743712	keystroke_o	o	n/a
371.946	0.09	743892	keystroke_m	m	n/a
372.096	0.105	744192	keystroke_p	p	n/a
372.591	0.075	745182	keystroke_a	a	n/a
372.741	0.105	745482	keystroke_n	n	n/a
372.771	0.105	745542	keystroke_i	i	n/a
372.831	0.135	745662	keystroke_e	e	n/a
372.906	0.12	745812	keystroke_d	d	n/a
373.011	0.105	746022	keystroke_Key.space	Key.space	n/a
373.401	0.105	746802	keystroke_c	c	n/a
373.431	0.105	746862	keystroke_a	a	n/a
373.581	0.12	747162	keystroke_l	l	n/a
374.1205	0.09	748241	keystroke_i	i	n/a
374.751	0.06	749502	keystroke_f	f	n/a
374.886	0.105	749772	keystroke_o	o	n/a
375.051	0.105	750102	keystroke_r	r	n/a
375.216	0.09	750432	keystroke_n	n	n/a
375.246	0.105	750492	keystroke_i	i	n/a
375.321	0.105	750642	keystroke_a	a	n/a
375.411	0.12	750822	keystroke_Key.space	Key.space	n/a
376.206	0.12	752412	keystroke_r	r	n/a
376.281	0.09	752562	keystroke_e	e	n/a
376.461	0.075	752922	keystroke_t	t	n/a
376.551	0.06	753102	keystroke_u	u	n/a
376.626	0.0755	753252	keystroke_r	r	n/a
376.7465	0.075	753493	keystroke_n	n	n/a
376.7765	0.15	753553	keystroke_e	e	n/a
376.8805	0.121	753761	keystroke_d	d	n/a
377.1665	0.075	754333	keystroke_Key.enter	Key.enter	n/a
377.246	4.4365	754492	prompt	n/a	needs three oregon somebody's\n
377.8105	0.09	755621	keystroke_n	n	n/a
377.8705	0.075	755741	keystroke_e	e	n/a
378.0205	0.105	756041	keystroke_e	e	n/a
378.0665	0.134	756133	keystroke_d	d	n/a
378.1405	0.09	756281	keystroke_s	s	n/a
378.2155	0.09	756431	keystroke_Key.space	Key.space	n/a
378.3365	0.074	756673	keystroke_t	t	n/a
378.4115	0.089	756823	keystroke_h	h	n/a
378.4855	0.105	756971	keystroke_r	r	n/a
378.5455	0.06	757091	keystroke_e	e	n/a
378.6655	0.09	757331	keystroke_e	e	n/a
378.7105	0.075	757421	keystroke_Key.space	Key.space	n/a
378.8155	0.105	757631	keystroke_o	o	n/a
378.9215	0.104	757843	keystroke_r	r	n/a
379.7165	0.2245	759433	keystroke_e	e	n/a
379.956	0.03	759912	keystroke_g	g	n/a
379.971	0.03	759942	keystroke_o	o	n/a
380.016	0.045	760032	keystroke_n	n	n/a
380.031	0.105	760062	keystroke_Key.space	Key.space	n/a
380.166	0.105	760332	keystroke_s	s	n/a
380.226	0.075	760452	keystroke_o	o	n/a
380.331	0.12	760662	keystroke_m	m	n/a
380.406	0.09	760812	keystroke_e	e	n/a
