onset	duration	sample	value	key	prompt_text
3.8595	25.264	7719	prompt	n/a	the quick brown fox jumps over a lazy dog\n
10.8175	0.151	21635	keystroke_t	t	n/a
10.889	0.143	21778	keystroke_h	h	n/a
11.0245	0.161	22049	keystroke_e	e	n/a
11.217	0.191	22434	keystroke_Key.space	Key.space	n/a
11.6395	0.121	23279	keystroke_w	w	n/a
11.752	0.1115	23504	keystroke_u	u	n/a
11.9985	0.1035	23997	keystroke_i	i	n/a
12.3285	0.071	24657	keystroke_Key.backspace	Key.backspace	n/a
12.4635	0.0795	24927	keystroke_Key.backspace	Key.backspace	n/a
12.776	0.088	25552	keystroke_Key.backspace	Key.backspace	n/a
13.744	0.1205	27488	keystroke_q	q	n/a
14.023	0.1115	28046	keystroke_u	u	n/a
14.256	0.072	28512	keystroke_i	i	n/a
14.336	0.1345	28672	keystroke_c	c	n/a
14.4555	0.1185	28911	keystroke_k	k	n/a
14.55	0.202	29100	keystroke_Key.space	Key.space	n/a
14.871	0.1275	29742	keystroke_b	b	n/a
15.007	0.1355	30014	keystroke_r	r	n/a
15.2645	0.103	30529	keystroke_w	w	n/a
15.5435	0.047	31087	keystroke_Key.backspace	Key.backspace	n/a
16.047	0.1205	32094	keystroke_o	o	n/a
16.192	0.0955	32384	keystroke_w	w	n/a
16.296	0.1025	32592	keystroke_n	n	n/a
16.3585	0.183	32717	keystroke_Key.space	Key.space	n/a
16.824	0.047	33648	keystroke_f	f	n/a
16.879	0.127	33758	keystroke_o	o	n/a
17.0945	0.145	34189	keystroke_x	x	n/a
17.2245	0.1515	34449	keystroke_Key.space	Key.space	n/a
17.3915	0.128	34783	keystroke_j	j	n/a
17.5835	0.12	35167	keystroke_u	u	n/a
19.8385	0.1285	39677	keystroke_m	m	n/a
20.094	0.097	40188	keystroke_p	p	n/a
20.216	0.1035	40432	keystroke_s	s	n/a
20.3105	0.1915	40621	keystroke_Key.space	Key.space	n/a
20.5505	0.127	41101	keystroke_o	o	n/a
20.807	0.128	41614	keystroke_v	v	n/a
21.0305	0.1275	42061	keystroke_e	e	n/a
21.1095	0.162	42219	keystroke_r	r	n/a
21.205	0.1465	42410	keystroke_Key.space	Key.space	n/a
21.4235	0.1505	42847	keystroke_Key.space	Key.space	n/a
21.599	0.0945	43198	keystroke_l	l	n/a
21.9505	0.0395	43901	keystroke_Key.backspace	Key.backspace	n/a
22.0775	0.0885	44155	keystroke_Key.backspace	Key.backspace	n/a
22.895	0.135	45790	keystroke_a	a	n/a
23.1255	0.1765	46251	keystroke_Key.space	Key.space	n/a
23.565	0.1125	47130	keystroke_l	l	n/a
26.054	0.112	52108	keystroke_a	a	n/a
26.301	0.1455	52602	keystroke_z	z	n/a
26.4065	0.1435	52813	keystroke_y	y	n/a
26.6295	0.1925	53259	keystroke_Key.space	Key.space	n/a
27.022	0.119	54044	keystroke_d	d	n/a
27.109	0.145	54218	keystroke_o	o	n/a
27.3675	0.1425	54735	keystroke_g	g	n/a
29.014	0.0955	58028	keystroke_Key.enter	Key.enter	n/a
29.134	7.049	58268	prompt	n/a	argentina bolt cities molecules\n
30.525	0.1595	61050	keystroke_a	a	n/a
30.6285	0.1375	61257	keystroke_r	r	n/a
30.9015	0.1035	61803	keystroke_g	g	n/a
31.117	0.1535	62234	keystroke_e	e	n/a
31.2045	0.122	62409	keystroke_n	n	n/a
31.3345	0.1425	62669	keystroke_t	t	n/a
31.486	0.1035	62972	keystroke_i	i	n/a
31.725	0.121	63450	keystroke_n	n	n/a
31.862	0.152	63724	keystroke_a	a	n/a
31.9655	0.1675	63931	keystroke_Key.space	Key.space	n/a
32.2705	0.1115	64541	keystroke_b	b	n/a
32.4935	0.056	64987	keystroke_o	o	n/a
32.685	0.1055	65370	keystroke_l	l	n/a
32.806	0.112	65612	keystroke_t	t	n/a
32.91	0.1755	65820	keystroke_Key.space	Key.space	n/a
33.1575	0.1205	66315	keystroke_c	c	n/a
33.2935	0.088	66587	keystroke_i	i	n/a
33.4775	0.111	66955	keystroke_t	t	n/a
33.533	0.128	67066	keystroke_i	i	n/a
33.693	0.161	67386	keystroke_e	e	n/a
33.8055	0.144	67611	keystroke_s	s	n/a
33.8615	0.207	67723	keystroke_Key.space	Key.space	n/a
34.0695	0.119	68139	keystroke_m	m	n/a
34.2045	0.1055	68409	keystroke_o	o	n/a
34.4135	0.1355	68827	keystroke_l	l	n/a
34.5175	0.1675	69035	keystroke_e	e	n/a
34.645	0.0875	69290	keystroke_s	s	n/a
35.148	0.072	70296	keystroke_Key.backspace	Key.backspace	n/a
35.43	0.1105	70860	keystroke_c	c	n/a
35.5175	0.0955	71035	keystroke_u	u	n/a
35.7495	0.0725	71499	keystroke_l	l	n/a
35.798	0.128	71596	keystroke_e	e	n/a
35.878	0.1115	71756	keystroke_s	s	n/a
36.093	0.088	72186	keystroke_Key.enter	Key.enter	n/a
36.1875	5.907	72375	prompt	n/a	launched casting translated smaller\n
37.005	0.0715	74010	keystroke_l	l	n/a
37.2125	0.113	74425	keystroke_a	a	n/a
37.2775	0.1195	74555	keystroke_u	u	n/a
37.4215	0.1035	74843	keystroke_n	n	n/a
37.517	0.144	75034	keystroke_c	c	n/a
37.6685	0.113	75337	keystroke_h	h	n/a
37.7655	0.1355	75531	keystroke_e	e	n/a
37.8605	0.137	75721	keystroke_d	d	n/a
37.9415	0.1675	75883	keystroke_Key.space	Key.space	n/a
38.172	0.1535	76344	keystroke_c	c	n/a
38.3815	0.208	76763	keystroke_a	a	n/a
38.477	0.1755	76954	keystroke_s	s	n/a
38.726	0.1275	77452	keystroke_t	t	n/a
38.8295	0.0715	77659	keystroke_i	i	n/a
38.973	0.112	77946	keystroke_n	n	n/a
39.093	0.1285	78186	keystroke_g	g	n/a
39.197	0.1605	78394	keystroke_Key.space	Key.space	n/a
39.5405	0.104	79081	keystroke_t	t	n/a
39.7655	0.112	79531	keystroke_r	r	n/a
39.885	0.1195	79770	keystroke_a	a	n/a
39.997	0.1195	79994	keystroke_n	n	n/a
40.1175	0.1365	80235	keystroke_s	s	n/a
40.357	0.104	80714	keystroke_l	l	n/a
40.477	0.0885	80954	keystroke_a	a	n/a
40.686	0.0955	81372	keystroke_t	t	n/a
40.7975	0.1595	81595	keystroke_e	e	n/a
40.965	0.128	81930	keystroke_d	d	n/a
41.045	0.1605	82090	keystroke_Key.space	Key.space	n/a
41.2135	0.1195	82427	keystroke_s	s	n/a
41.317	0.096	82634	keystroke_m	m	n/a
41.4845	0.048	82969	keystroke_a	a	n/a
41.5405	0.032	83081	keystroke_l	l	n/a
41.66	0.137	83320	keystroke_l	l	n/a
41.773	0.12	83546	keystroke_e	e	n/a
41.8525	0.1285	83705	keystroke_r	r	n/a
42.0525	0.04	84105	keystroke_Key.enter	Key.enter	n/a
42.0985	6.4915	84197	prompt	n/a	collecting worked madrid educational\n
42.7255	0.152	85451	keystroke_c	c	n/a
42.8205	0.08	85641	keystroke_o	o	n/a
43.013	0.071	86026	keystroke_l	l	n/a
43.1575	0.1115	86315	keystroke_l	l	n/a
43.2305	0.1425	86461	keystroke_e	e	n/a
43.333	0.12	86666	keystroke_c	c	n/a
43.5805	0.105	87161	keystroke_t	t	n/a
43.6535	0.0955	87307	keystroke_i	i	n/a
43.8135	0.143	87627	keystroke_n	n	n/a
43.917	0.1195	87834	keystroke_g	g	n/a
43.997	0.184	87994	keystroke_Key.space	Key.space	n/a
44.309	0.1355	88618	keystroke_w	w	n/a
44.4205	0.096	88841	keystroke_o	o	n/a
44.5405	0.121	89081	keystroke_r	r	n/a
44.678	0.119	89356	keystroke_k	k	n/a
44.797	0.128	89594	keystroke_e	e	n/a
44.901	0.1275	89802	keystroke_d	d	n/a
45.0205	0.169	90041	keystroke_Key.space	Key.space	n/a
45.3335	0.0875	90667	keystroke_m	m	n/a
45.453	0.152	90906	keystroke_a	a	n/a
45.6695	0.119	91339	keystroke_d	d	n/a
45.933	0.096	91866	keystroke_r	r	n/a
46.045	0.1195	92090	keystroke_i	i	n/a
46.2615	0.1275	92523	keystroke_d	d	n/a
46.405	0.1595	92810	keystroke_Key.space	Key.space	n/a
46.9005	0.1445	93801	keystroke_e	e	n/a
47.1	0.1365	94200	keystroke_d	d	n/a
47.3575	0.1275	94715	keystroke_u	u	n/a
47.477	0.1435	94954	keystroke_c	c	n/a
47.7095	0.127	95419	keystroke_a	a	n/a
47.893	0.1355	95786	keystroke_t	t	n/a
47.989	0.1115	95978	keystroke_i	i	n/a
48.0445	0.121	96089	keystroke_o	o	n/a
48.157	0.128	96314	keystroke_n	n	n/a
48.4925	0.095	96985	keystroke_Key.enter	Key.enter	n/a
48.5935	6.2295	97187	prompt	n/a	moderate planets winter lion\n
50.1165	0.1435	100233	keystroke_m	m	n/a
50.301	0.1435	100602	keystroke_o	o	n/a
50.412	0.1445	100824	keystroke_d	d	n/a
50.5485	0.1835	101097	keystroke_e	e	n/a
50.684	0.152	101368	keystroke_r	r	n/a
50.9005	0.128	101801	keystroke_a	a	n/a
51.0995	0.1685	102199	keystroke_t	t	n/a
51.204	0.1525	102408	keystroke_e	e	n/a
51.3325	0.1515	102665	keystroke_Key.space	Key.space	n/a
51.596	0.0965	103192	keystroke_p	p	n/a
51.917	0.071	103834	keystroke_l	l	n/a
52.109	0.0955	104218	keystroke_a	a	n/a
52.2685	0.136	104537	keystroke_n	n	n/a
52.4125	0.1275	104825	keystroke_e	e	n/a
52.5485	0.1445	105097	keystroke_t	t	n/a
52.669	0.144	105338	keystroke_s	s	n/a
52.8205	0.1675	105641	keystroke_Key.space	Key.space	n/a
53.1	0.152	106200	keystroke_w	w	n/a
53.213	0.096	106426	keystroke_i	i	n/a
53.4125	0.128	106825	keystroke_n	n	n/a
53.4925	0.0875	106985	keystroke_t	t	n/a
53.572	0.1925	107144	keystroke_e	e	n/a
53.7005	0.135	107401	keystroke_r	r	n/a
53.7875	0.177	107575	keystroke_Key.space	Key.space	n/a
53.9885	0.088	107977	keystroke_l	l	n/a
54.164	0.1525	108328	keystroke_i	i	n/a
54.2765	0.0955	108553	keystroke_o	o	n/a
54.3875	0.1205	108775	keystroke_n	n	n/a
54.7405	0.0795	109481	keystroke_Key.enter	Key.enter	n/a
54.827	9.1395	109654	prompt	n/a	copper packages issues spine\n
55.5795	0.169	111159	keystroke_c	c	n/a
55.7405	0.0875	111481	keystroke_o	o	n/a
55.9395	0.064	111879	keystroke_p	p	n/a
56.092	0.113	112184	keystroke_p	p	n/a
56.22	0.113	112440	keystroke_e	e	n/a
56.285	0.1195	112570	keystroke_r	r	n/a
56.3885	0.16	112777	keystroke_Key.space	Key.space	n/a
56.6205	0.0885	113241	keystroke_p	p	n/a
56.7325	0.12	113465	keystroke_a	a	n/a
56.965	0.1435	113930	keystroke_c	c	n/a
57.052	0.1125	114104	keystroke_k	k	n/a
57.236	0.072	114472	keystroke_a	a	n/a
57.5075	0.129	115015	keystroke_g	g	n/a
57.5715	0.248	115143	keystroke_e	e	n/a
57.7635	0.128	115527	keystroke_s	s	n/a
57.9315	0.128	115863	keystroke_Key.space	Key.space	n/a
58.396	0.0805	116792	keystroke_p	p	n/a
58.771	0.081	117542	keystroke_Key.backspace	Key.backspace	n/a
59.109	0.095	118218	keystroke_u	u	n/a
59.284	0.072	118568	keystroke_s	s	n/a
59.4755	0.08	118951	keystroke_s	s	n/a
59.6365	0.0635	119273	keystroke_u	u	n/a
59.7325	0.12	119465	keystroke_e	e	n/a
60.332	0.0795	120664	keystroke_Key.backspace	Key.backspace	n/a
60.5	0.048	121000	keystroke_Key.backspace	Key.backspace	n/a
60.668	0.0645	121336	keystroke_Key.backspace	Key.backspace	n/a
60.852	0.056	121704	keystroke_Key.backspace	Key.backspace	n/a
61.012	0.072	122024	keystroke_Key.backspace	Key.backspace	n/a
61.612	0.088	123224	keystroke_i	i	n/a
61.78	0.088	123560	keystroke_s	s	n/a
62.18	0.136	124360	keystroke_s	s	n/a
62.332	0.1525	124664	keystroke_u	u	n/a
62.4685	0.1755	124937	keystroke_e	e	n/a
62.5645	0.1595	125129	keystroke_s	s	n/a
62.7565	0.1755	125513	keystroke_Key.space	Key.space	n/a
62.988	0.1205	125976	keystroke_s	s	n/a
63.1645	0.0955	126329	keystroke_p	p	n/a
63.3725	0.088	126745	keystroke_i	i	n/a
63.5565	0.096	127113	keystroke_n	n	n/a
63.6285	0.12	127257	keystroke_e	e	n/a
63.892	0.071	127784	keystroke_Key.enter	Key.enter	n/a
63.972	5.154	127944	prompt	n/a	edgar reel weekly further\n
64.5885	0.1035	129177	keystroke_e	e	n/a
64.868	0.1525	129736	keystroke_d	d	n/a
65.204	0.1205	130408	keystroke_g	g	n/a
65.492	0.1605	130984	keystroke_a	a	n/a
65.637	0.144	131274	keystroke_r	r	n/a
65.7965	0.1755	131593	keystroke_Key.space	Key.space	n/a
65.9885	0.168	131977	keystroke_r	r	n/a
66.1245	0.128	132249	keystroke_e	e	n/a
66.3325	0.128	132665	keystroke_e	e	n/a
66.509	0.1195	133018	keystroke_l	l	n/a
66.7085	0.143	133417	keystroke_Key.space	Key.space	n/a
66.9965	0.12	133993	keystroke_w	w	n/a
67.2125	0.096	134425	keystroke_e	e	n/a
67.396	0.08	134792	keystroke_e	e	n/a
67.46	0.1525	134920	keystroke_k	k	n/a
67.5805	0.104	135161	keystroke_l	l	n/a
67.82	0.12	135640	keystroke_y	y	n/a
67.964	0.152	135928	keystroke_Key.space	Key.space	n/a
68.1485	0.1115	136297	keystroke_f	f	n/a
68.252	0.1205	136504	keystroke_u	u	n/a
68.381	0.096	136762	keystroke_r	r	n/a
68.5725	0.112	137145	keystroke_t	t	n/a
68.66	0.128	137320	keystroke_h	h	n/a
68.7075	0.1685	137415	keystroke_e	e	n/a
68.805	0.151	137610	keystroke_r	r	n/a
69.044	0.08	138088	keystroke_Key.enter	Key.enter	n/a
69.13	16.404	138260	prompt	n/a	shield functions opposition award\n
69.892	0.072	139784	keystroke_Key.ctrl_l	Key.ctrl_l	n/a
70.0365	0.1355	140073	keystroke_h	h	n/a
70.124	0.184	140248	keystroke_i	i	n/a
70.3245	0.16	140649	keystroke_e	e	n/a
70.4935	0.104	140987	keystroke_l	l	n/a
70.6125	0.12	141225	keystroke_f	f	n/a
77.66	0.065	155320	keystroke_Key.backspace	Key.backspace	n/a
77.8445	0.064	155689	keystroke_Key.backspace	Key.backspace	n/a
78.0125	0.056	156025	keystroke_Key.backspace	Key.backspace	n/a
79.285	0.0795	158570	keystroke_s	s	n/a
79.3325	0.12	158665	keystroke_h	h	n/a
79.4845	0.128	158969	keystroke_i	i	n/a
79.6205	0.1275	159241	keystroke_e	e	n/a
79.772	0.0885	159544	keystroke_l	l	n/a
79.916	0.1765	159832	keystroke_f	f	n/a
80.212	0.1525	160424	keystroke_Key.space	Key.space	n/a
80.5795	0.056	161159	keystroke_Key.backspace	Key.backspace	n/a
80.7155	0.064	161431	keystroke_Key.backspace	Key.backspace	n/a
80.8285	0.1125	161657	keystroke_d	d	n/a
81.268	0.1365	162536	keystroke_Key.space	Key.space	n/a
81.556	0.089	163112	keystroke_f	f	n/a
81.637	0.0955	163274	keystroke_u	u	n/a
81.797	0.103	163594	keystroke_n	n	n/a
81.877	0.1115	163754	keystroke_c	c	n/a
82.1325	0.1275	164265	keystroke_t	t	n/a
82.2205	0.128	164441	keystroke_i	i	n/a
82.3085	0.0795	164617	keystroke_o	o	n/a
82.428	0.136	164856	keystroke_n	n	n/a
82.524	0.096	165048	keystroke_s	s	n/a
82.6445	0.1195	165289	keystroke_Key.space	Key.space	n/a
82.8365	0.096	165673	keystroke_o	o	n/a
83.045	0.063	166090	keystroke_p	p	n/a
83.205	0.088	166410	keystroke_p	p	n/a
83.34	0.12	166680	keystroke_o	o	n/a
83.5085	0.128	167017	keystroke_s	s	n/a
83.6765	0.1115	167353	keystroke_i	i	n/a
83.796	0.144	167592	keystroke_t	t	n/a
83.8845	0.1435	167769	keystroke_i	i	n/a
84.0045	0.0795	168009	keystroke_o	o	n/a
84.1	0.1445	168200	keystroke_n	n	n/a
84.204	0.144	168408	keystroke_Key.space	Key.space	n/a
84.372	0.128	168744	keystroke_a	a	n/a
84.572	0.16	169144	keystroke_w	w	n/a
84.692	0.152	169384	keystroke_a	a	n/a
84.892	0.1125	169784	keystroke_r	r	n/a
85.124	0.04	170248	keystroke_d	d	n/a
85.4605	0.0715	170921	keystroke_Key.enter	Key.enter	n/a
85.539	7.947	171078	prompt	n/a	governance challenge finding syndrome\n
86.397	0.087	172794	keystroke_g	g	n/a
86.516	0.0805	173032	keystroke_o	o	n/a
86.676	0.088	173352	keystroke_v	v	n/a
86.876	0.153	173752	keystroke_e	e	n/a
86.9645	0.152	173929	keystroke_r	r	n/a
87.4125	0.112	174825	keystroke_n	n	n/a
87.5565	0.1115	175113	keystroke_a	a	n/a
87.8925	0.128	175785	keystroke_n	n	n/a
88.0845	0.176	176169	keystroke_c	c	n/a
88.2035	0.129	176407	keystroke_e	e	n/a
88.2925	0.151	176585	keystroke_Key.space	Key.space	n/a
88.509	0.176	177018	keystroke_c	c	n/a
88.605	0.128	177210	keystroke_h	h	n/a
88.749	0.12	177498	keystroke_a	a	n/a
88.908	0.041	177816	keystroke_l	l	n/a
89.06	0.089	178120	keystroke_l	l	n/a
89.181	0.135	178362	keystroke_e	e	n/a
89.341	0.1195	178682	keystroke_n	n	n/a
89.6925	0.1445	179385	keystroke_g	g	n/a
89.869	0.151	179738	keystroke_e	e	n/a
90.0285	0.144	180057	keystroke_Key.space	Key.space	n/a
90.3645	0.136	180729	keystroke_f	f	n/a
90.5165	0.1515	181033	keystroke_i	i	n/a
90.813	0.136	181626	keystroke_n	n	n/a
90.9325	0.1205	181865	keystroke_d	d	n/a
91.117	0.1275	182234	keystroke_i	i	n/a
91.2445	0.088	182489	keystroke_n	n	n/a
91.341	0.1675	182682	keystroke_g	g	n/a
91.509	0.1675	183018	keystroke_Key.space	Key.space	n/a
91.9005	0.112	183801	keystroke_s	s	n/a
91.9965	0.112	183993	keystroke_y	y	n/a
92.2205	0.088	184441	keystroke_n	n	n/a
92.389	0.1115	184778	keystroke_d	d	n/a
92.6365	0.1205	185273	keystroke_r	r	n/a
92.7725	0.104	185545	keystroke_o	o	n/a
92.8525	0.137	185705	keystroke_m	m	n/a
92.9805	0.12	185961	keystroke_e	e	n/a
93.4285	0.056	186857	keystroke_Key.enter	Key.enter	n/a
93.49	7.5245	186980	prompt	n/a	chapter extreme controversy user\n
94.221	0.135	188442	keystroke_c	c	n/a
94.3	0.12	188600	keystroke_h	h	n/a
94.4685	0.144	188937	keystroke_a	a	n/a
94.6445	0.0885	189289	keystroke_p	p	n/a
94.765	0.1275	189530	keystroke_t	t	n/a
94.9005	0.1765	189801	keystroke_e	e	n/a
95.0205	0.0965	190041	keystroke_r	r	n/a
95.108	0.1525	190216	keystroke_Key.space	Key.space	n/a
95.2685	0.1045	190537	keystroke_e	e	n/a
95.5565	0.136	191113	keystroke_x	x	n/a
95.749	0.144	191498	keystroke_t	t	n/a
96.005	0.1345	192010	keystroke_r	r	n/a
96.0605	0.1605	192121	keystroke_e	e	n/a
96.2525	0.104	192505	keystroke_m	m	n/a
96.333	0.1275	192666	keystroke_e	e	n/a
96.54	0.1765	193080	keystroke_Key.space	Key.space	n/a
96.7005	0.136	193401	keystroke_c	c	n/a
96.7805	0.1195	193561	keystroke_o	o	n/a
96.9725	0.1445	193945	keystroke_n	n	n/a
97.1325	0.12	194265	keystroke_t	t	n/a
97.3885	0.1125	194777	keystroke_r	r	n/a
97.533	0.12	195066	keystroke_o	o	n/a
97.9645	0.1275	195929	keystroke_v	v	n/a
98.172	0.145	196344	keystroke_e	e	n/a
98.2685	0.1595	196537	keystroke_r	r	n/a
98.404	0.128	196808	keystroke_y	y	n/a
98.54	0.12	197080	keystroke_s	s	n/a
98.844	0.08	197688	keystroke_Key.backspace	Key.backspace	n/a
98.9965	0.048	197993	keystroke_Key.backspace	Key.backspace	n/a
99.2685	0.104	198537	keystroke_s	s	n/a
99.4365	0.1285	198873	keystroke_y	y	n/a
99.82	0.145	199640	keystroke_Key.space	Key.space	n/a
100.0685	0.12	200137	keystroke_u	u	n/a
100.2045	0.152	200409	keystroke_s	s	n/a
100.3165	0.128	200633	keystroke_e	e	n/a
100.4045	0.144	200809	keystroke_r	r	n/a
100.9165	0.0955	201833	keystroke_Key.enter	Key.enter	n/a
101.018	6.7325	202036	prompt	n/a	dollars holders advertisements misc\n
101.7165	0.1515	203433	keystroke_d	d	n/a
101.836	0.08	203672	keystroke_o	o	n/a
102.045	0.0635	204090	keystroke_l	l	n/a
102.1885	0.112	204377	keystroke_l	l	n/a
102.277	0.119	204554	keystroke_a	a	n/a
102.405	0.1675	204810	keystroke_r	r	n/a
102.5645	0.136	205129	keystroke_s	s	n/a
102.6925	0.144	205385	keystroke_Key.space	Key.space	n/a
102.8845	0.1115	205769	keystroke_h	h	n/a
103.1005	0.064	206201	keystroke_o	o	n/a
103.292	0.1125	206584	keystroke_l	l	n/a
103.3885	0.144	206777	keystroke_d	d	n/a
103.4685	0.2395	206937	keystroke_e	e	n/a
103.6765	0.12	207353	keystroke_r	r	n/a
103.7725	0.136	207545	keystroke_s	s	n/a
103.956	0.1205	207912	keystroke_Key.space	Key.space	n/a
104.3735	0.151	208747	keystroke_a	a	n/a
104.5325	0.136	209065	keystroke_d	d	n/a
104.8365	0.12	209673	keystroke_v	v	n/a
105.0205	0.1835	210041	keystroke_e	e	n/a
105.124	0.1365	210248	keystroke_r	r	n/a
105.349	0.143	210698	keystroke_t	t	n/a
105.4365	0.104	210873	keystroke_i	i	n/a
105.5805	0.128	211161	keystroke_s	s	n/a
105.661	0.1275	211322	keystroke_e	e	n/a
105.8285	0.112	211657	keystroke_m	m	n/a
105.957	0.127	211914	keystroke_e	e	n/a
106.0765	0.1285	212153	keystroke_n	n	n/a
106.14	0.1365	212280	keystroke_t	t	n/a
106.236	0.128	212472	keystroke_s	s	n/a
106.5315	0.129	213063	keystroke_Key.space	Key.space	n/a
106.7885	0.1115	213577	keystroke_m	m	n/a
106.9325	0.1355	213865	keystroke_i	i	n/a
107.0045	0.128	214009	keystroke_s	s	n/a
107.181	0.136	214362	keystroke_c	c	n/a
107.62	0.128	215240	keystroke_Key.enter	Key.enter	n/a
107.7545	5.556	215509	prompt	n/a	prayer inspector vast puzzle\n
108.38	0.12	216760	keystroke_p	p	n/a
108.5085	0.168	217017	keystroke_r	r	n/a
108.677	0.12	217354	keystroke_a	a	n/a
108.8525	0.136	217705	keystroke_y	y	n/a
108.9645	0.1035	217929	keystroke_e	e	n/a
109.0125	0.152	218025	keystroke_r	r	n/a
109.108	0.161	218216	keystroke_Key.space	Key.space	n/a
109.325	0.088	218650	keystroke_i	i	n/a
109.517	0.1195	219034	keystroke_n	n	n/a
109.716	0.0805	219432	keystroke_s	s	n/a
109.86	0.073	219720	keystroke_p	p	n/a
109.949	0.1595	219898	keystroke_e	e	n/a
110.1005	0.1445	220201	keystroke_c	c	n/a
110.389	0.12	220778	keystroke_t	t	n/a
110.589	0.096	221178	keystroke_o	o	n/a
110.693	0.144	221386	keystroke_r	r	n/a
110.821	0.1595	221642	keystroke_Key.space	Key.space	n/a
111.093	0.144	222186	keystroke_v	v	n/a
111.357	0.152	222714	keystroke_a	a	n/a
111.445	0.143	222890	keystroke_s	s	n/a
111.644	0.129	223288	keystroke_t	t	n/a
111.7645	0.152	223529	keystroke_Key.space	Key.space	n/a
111.9645	0.0955	223929	keystroke_p	p	n/a
112.204	0.104	224408	keystroke_u	u	n/a
112.381	0.144	224762	keystroke_z	z	n/a
112.6045	0.0965	225209	keystroke_z	z	n/a
112.788	0.1285	225576	keystroke_l	l	n/a
112.9565	0.112	225913	keystroke_e	e	n/a
113.189	0.1195	226378	keystroke_Key.enter	Key.enter	n/a
113.3145	7.9	226629	prompt	n/a	tony arbitrary campbell precision\n
113.9485	0.12	227897	keystroke_t	t	n/a
114.085	0.0875	228170	keystroke_o	o	n/a
114.2535	0.111	228507	keystroke_n	n	n/a
114.3805	0.144	228761	keystroke_y	y	n/a
114.5085	0.1435	229017	keystroke_Key.space	Key.space	n/a
114.676	0.1685	229352	keystroke_a	a	n/a
114.813	0.1595	229626	keystroke_r	r	n/a
114.9805	0.1045	229961	keystroke_b	b	n/a
115.253	0.127	230506	keystroke_i	i	n/a
115.429	0.151	230858	keystroke_t	t	n/a
115.772	0.152	231544	keystroke_a	a	n/a
116.2205	0.0715	232441	keystroke_Key.backspace	Key.backspace	n/a
116.3325	0.1275	232665	keystroke_r	r	n/a
116.436	0.113	232872	keystroke_a	a	n/a
116.573	0.111	233146	keystroke_r	r	n/a
116.7325	0.12	233465	keystroke_y	y	n/a
116.9005	0.1605	233801	keystroke_Key.space	Key.space	n/a
117.149	0.1275	234298	keystroke_c	c	n/a
117.437	0.096	234874	keystroke_a	a	n/a
117.541	0.08	235082	keystroke_m	m	n/a
117.765	0.104	235530	keystroke_p	p	n/a
118.205	0.112	236410	keystroke_b	b	n/a
118.365	0.112	236730	keystroke_e	e	n/a
118.509	0.0485	237018	keystroke_l	l	n/a
118.6455	0.0955	237291	keystroke_l	l	n/a
118.7575	0.1595	237515	keystroke_Key.space	Key.space	n/a
119.0215	0.072	238043	keystroke_p	p	n/a
119.2605	0.08	238521	keystroke_r	r	n/a
119.692	0.128	239384	keystroke_e	e	n/a
119.893	0.144	239786	keystroke_c	c	n/a
120.141	0.112	240282	keystroke_i	i	n/a
120.261	0.127	240522	keystroke_s	s	n/a
120.348	0.129	240696	keystroke_i	i	n/a
120.437	0.087	240874	keystroke_o	o	n/a
120.557	0.135	241114	keystroke_n	n	n/a
121.1085	0.104	242217	keystroke_Key.enter	Key.enter	n/a
121.2185	5.3475	242437	prompt	n/a	cork aimed soil ratings\n
121.949	0.144	243898	keystroke_c	c	n/a
122.285	0.0875	244570	keystroke_o	o	n/a
122.3965	0.128	244793	keystroke_r	r	n/a
122.5485	0.144	245097	keystroke_k	k	n/a
122.7405	0.168	245481	keystroke_Key.space	Key.space	n/a
122.9005	0.12	245801	keystroke_a	a	n/a
123.037	0.08	246074	keystroke_i	i	n/a
123.228	0.1125	246456	keystroke_m	m	n/a
123.3485	0.1355	246697	keystroke_e	e	n/a
123.476	0.1365	246952	keystroke_d	d	n/a
123.5805	0.1515	247161	keystroke_Key.space	Key.space	n/a
123.748	0.161	247496	keystroke_s	s	n/a
123.8765	0.1285	247753	keystroke_o	o	n/a
123.9645	0.136	247929	keystroke_i	i	n/a
124.2125	0.1195	248425	keystroke_l	l	n/a
124.3405	0.1755	248681	keystroke_Key.space	Key.space	n/a
124.5325	0.112	249065	keystroke_r	r	n/a
124.6845	0.112	249369	keystroke_a	a	n/a
125.421	0.095	250842	keystroke_i	i	n/a
125.501	0.136	251002	keystroke_t	t	n/a
125.757	0.12	251514	keystroke_i	i	n/a
125.981	0.08	251962	keystroke_n	n	n/a
126.045	0.12	252090	keystroke_g	g	n/a
126.2295	0.1115	252459	keystroke_s	s	n/a
126.428	0.1365	252856	keystroke_Key.enter	Key.enter	n/a
126.5705	8.644	253141	prompt	n/a	architecture challenged fired florence\n
127.565	0.0805	255130	keystroke_a	a	n/a
127.637	0.1205	255274	keystroke_r	r	n/a
127.933	0.144	255866	keystroke_c	c	n/a
128.029	0.1445	256058	keystroke_h	h	n/a
128.117	0.1675	256234	keystroke_i	i	n/a
128.3085	0.1355	256617	keystroke_t	t	n/a
128.685	0.135	257370	keystroke_e	e	n/a
128.853	0.1035	257706	keystroke_c	c	n/a
129.1005	0.088	258201	keystroke_t	t	n/a
129.1725	0.152	258345	keystroke_u	u	n/a
129.3085	0.1205	258617	keystroke_r	r	n/a
129.3645	0.1605	258729	keystroke_e	e	n/a
129.4365	0.152	258873	keystroke_Key.space	Key.space	n/a
129.701	0.104	259402	keystroke_a	a	n/a
130.0605	0.08	260121	keystroke_Key.backspace	Key.backspace	n/a
130.1725	0.16	260345	keystroke_c	c	n/a
130.4045	0.0965	260809	keystroke_h	h	n/a
130.6045	0.072	261209	keystroke_a	a	n/a
130.6525	0.072	261305	keystroke_l	l	n/a
130.8205	0.0885	261641	keystroke_l	l	n/a
131.309	0.1035	262618	keystroke_e	e	n/a
131.4285	0.112	262857	keystroke_n	n	n/a
131.645	0.112	263290	keystroke_g	g	n/a
131.8445	0.16	263689	keystroke_e	e	n/a
132.0045	0.1045	264009	keystroke_d	d	n/a
132.0845	0.1525	264169	keystroke_Key.space	Key.space	n/a
132.4605	0.072	264921	keystroke_f	f	n/a
132.549	0.1355	265098	keystroke_i	i	n/a
132.709	0.1115	265418	keystroke_r	r	n/a
132.813	0.1915	265626	keystroke_e	e	n/a
132.9885	0.1205	265977	keystroke_d	d	n/a
133.0915	0.137	266183	keystroke_Key.space	Key.space	n/a
133.2765	0.1035	266553	keystroke_f	f	n/a
133.356	0.0565	266712	keystroke_o	o	n/a
133.733	0.064	267466	keystroke_Key.backspace	Key.backspace	n/a
134.021	0.088	268042	keystroke_l	l	n/a
134.2295	0.0875	268459	keystroke_o	o	n/a
134.325	0.152	268650	keystroke_r	r	n/a
134.453	0.1595	268906	keystroke_e	e	n/a
134.6205	0.113	269241	keystroke_n	n	n/a
134.7725	0.1515	269545	keystroke_c	c	n/a
134.8615	0.1435	269723	keystroke_e	e	n/a
135.084	0.129	270168	keystroke_Key.enter	Key.enter	n/a
135.2185	10.132	270437	prompt	n/a	hungary phones gays louisiana\n
135.893	0.1275	271786	keystroke_h	h	n/a
135.9965	0.136	271993	keystroke_u	u	n/a
136.173	0.1275	272346	keystroke_n	n	n/a
136.2845	0.1275	272569	keystroke_g	g	n/a
136.82	0.137	273640	keystroke_a	a	n/a
136.9245	0.1525	273849	keystroke_r	r	n/a
137.021	0.111	274042	keystroke_y	y	n/a
137.14	0.1605	274280	keystroke_Key.space	Key.space	n/a
137.437	0.0635	274874	keystroke_p	p	n/a
137.7085	0.0885	275417	keystroke_h	h	n/a
138.2365	0.0885	276473	keystroke_o	o	n/a
139.0845	0.128	278169	keystroke_n	n	n/a
139.2045	0.112	278409	keystroke_e	e	n/a
139.277	0.135	278554	keystroke_s	s	n/a
139.4045	0.136	278809	keystroke_Key.space	Key.space	n/a
139.66	0.096	279320	keystroke_g	g	n/a
139.8595	0.1135	279719	keystroke_a	a	n/a
139.9325	0.1435	279865	keystroke_y	y	n/a
140.109	0.136	280218	keystroke_s	s	n/a
140.237	0.1355	280474	keystroke_Key.space	Key.space	n/a
140.4285	0.104	280857	keystroke_l	l	n/a
140.8205	0.072	281641	keystroke_o	o	n/a
141.0125	0.104	282025	keystroke_u	u	n/a
141.1725	0.097	282345	keystroke_s	s	n/a
141.556	0.0645	283112	keystroke_Key.backspace	Key.backspace	n/a
141.9005	0.04	283801	keystroke_u	u	n/a
142.7005	0.064	285401	keystroke_Key.backspace	Key.backspace	n/a
142.9805	0.088	285961	keystroke_i	i	n/a
143.0925	0.12	286185	keystroke_s	s	n/a
143.8045	0.0955	287609	keystroke_i	i	n/a
144.797	0.119	289594	keystroke_a	a	n/a
144.877	0.095	289754	keystroke_n	n	n/a
145.02	0.113	290040	keystroke_a	a	n/a
145.2765	0.0715	290553	keystroke_Key.enter	Key.enter	n/a
145.357	5.337	290714	prompt	n/a	capacity paul oils amazing\n
145.9725	0.1605	291945	keystroke_c	c	n/a
146.149	0.12	292298	keystroke_a	a	n/a
146.229	0.088	292458	keystroke_p	p	n/a
146.3805	0.064	292761	keystroke_a	a	n/a
146.5325	0.112	293065	keystroke_c	c	n/a
146.6365	0.104	293273	keystroke_i	i	n/a
146.813	0.12	293626	keystroke_t	t	n/a
146.917	0.112	293834	keystroke_y	y	n/a
147.037	0.176	294074	keystroke_Key.space	Key.space	n/a
147.309	0.1195	294618	keystroke_p	p	n/a
147.469	0.104	294938	keystroke_a	a	n/a
147.6525	0.105	295305	keystroke_u	u	n/a
147.9085	0.129	295817	keystroke_l	l	n/a
148.0605	0.144	296121	keystroke_Key.space	Key.space	n/a
148.5575	0.1035	297115	keystroke_o	o	n/a
148.7165	0.1125	297433	keystroke_i	i	n/a
148.908	0.089	297816	keystroke_l	l	n/a
149.172	0.1445	298344	keystroke_s	s	n/a
149.317	0.119	298634	keystroke_Key.space	Key.space	n/a
149.588	0.12	299176	keystroke_a	a	n/a
149.725	0.087	299450	keystroke_m	m	n/a
149.82	0.073	299640	keystroke_a	a	n/a
150.029	0.128	300058	keystroke_z	z	n/a
150.1085	0.096	300217	keystroke_i	i	n/a
150.2685	0.12	300537	keystroke_n	n	n/a
150.364	0.136	300728	keystroke_g	g	n/a
150.58	0.1125	301160	keystroke_Key.enter	Key.enter	n/a
150.6965	5.9975	301393	prompt	n/a	cleaners brief polymer charm\n
151.365	0.144	302730	keystroke_c	c	n/a
151.5245	0.0965	303049	keystroke_l	l	n/a
151.629	0.1515	303258	keystroke_e	e	n/a
151.861	0.096	303722	keystroke_a	a	n/a
152.061	0.1035	304122	keystroke_n	n	n/a
152.229	0.1845	304458	keystroke_e	e	n/a
152.485	0.112	304970	keystroke_r	r	n/a
152.733	0.1115	305466	keystroke_s	s	n/a
152.8685	0.1195	305737	keystroke_Key.space	Key.space	n/a
153.0775	0.119	306155	keystroke_b	b	n/a
153.2285	0.0885	306457	keystroke_r	r	n/a
153.3245	0.136	306649	keystroke_i	i	n/a
153.4285	0.176	306857	keystroke_e	e	n/a
153.653	0.152	307306	keystroke_f	f	n/a
153.8205	0.1275	307641	keystroke_Key.space	Key.space	n/a
154.117	0.0645	308234	keystroke_p	p	n/a
154.364	0.049	308728	keystroke_o	o	n/a
154.684	0.065	309368	keystroke_l	l	n/a
154.917	0.088	309834	keystroke_y	y	n/a
155.148	0.121	310296	keystroke_m	m	n/a
155.245	0.1265	310490	keystroke_e	e	n/a
155.3165	0.1435	310633	keystroke_r	r	n/a
155.412	0.1605	310824	keystroke_Key.space	Key.space	n/a
155.836	0.129	311672	keystroke_c	c	n/a
155.9165	0.1045	311833	keystroke_h	h	n/a
156.052	0.112	312104	keystroke_a	a	n/a
156.165	0.1115	312330	keystroke_r	r	n/a
156.244	0.105	312488	keystroke_m	m	n/a
156.597	0.0955	313194	keystroke_Key.enter	Key.enter	n/a
156.6985	7.572	313397	prompt	n/a	take others rainbow organisms\n
157.6765	0.144	315353	keystroke_t	t	n/a
157.8605	0.088	315721	keystroke_a	a	n/a
157.957	0.1035	315914	keystroke_k	k	n/a
158.037	0.1435	316074	keystroke_e	e	n/a
158.1645	0.1355	316329	keystroke_Key.space	Key.space	n/a
158.308	0.1205	316616	keystroke_o	o	n/a
158.4205	0.112	316841	keystroke_t	t	n/a
158.5485	0.136	317097	keystroke_h	h	n/a
158.6045	0.1365	317209	keystroke_e	e	n/a
158.6765	0.152	317353	keystroke_r	r	n/a
158.8125	0.12	317625	keystroke_s	s	n/a
158.9645	0.112	317929	keystroke_Key.space	Key.space	n/a
159.1725	0.152	318345	keystroke_r	r	n/a
159.341	0.1515	318682	keystroke_a	a	n/a
159.4365	0.088	318873	keystroke_i	i	n/a
159.621	0.0875	319242	keystroke_n	n	n/a
159.8285	0.0885	319657	keystroke_b	b	n/a
160.052	0.0965	320104	keystroke_o	o	n/a
160.1645	0.1205	320329	keystroke_w	w	n/a
160.2605	0.16	320521	keystroke_Key.space	Key.space	n/a
160.4525	0.0965	320905	keystroke_o	o	n/a
160.5395	0.113	321079	keystroke_r	r	n/a
160.7965	0.12	321593	keystroke_g	g	n/a
161.0445	0.088	322089	keystroke_a	a	n/a
161.1325	0.0885	322265	keystroke_n	n	n/a
161.293	0.127	322586	keystroke_i	i	n/a
161.412	0.121	322824	keystroke_z	z	n/a
161.596	0.136	323192	keystroke_m	m	n/a
161.7725	0.1035	323545	keystroke_s	s	n/a
162.325	0.0635	324650	keystroke_Key.backspace	Key.backspace	n/a
162.5005	0.064	325001	keystroke_Key.backspace	Key.backspace	n/a
162.6605	0.0965	325321	keystroke_Key.backspace	Key.backspace	n/a
162.805	0.095	325610	keystroke_s	s	n/a
162.9645	0.112	325929	keystroke_m	m	n/a
163.0845	0.1205	326169	keystroke_s	s	n/a
164.275	5.3955	328550	prompt	n/a	tapes enemies deemed educated\n
164.876	0.1205	329752	keystroke_t	t	n/a
165.0445	0.1125	330089	keystroke_a	a	n/a
165.1575	0.103	330315	keystroke_p	p	n/a
165.2525	0.1835	330505	keystroke_e	e	n/a
165.3645	0.1435	330729	keystroke_s	s	n/a
165.4765	0.208	330953	keystroke_Key.space	Key.space	n/a
165.66	0.1045	331320	keystroke_e	e	n/a
165.7645	0.0955	331529	keystroke_n	n	n/a
165.8605	0.136	331721	keystroke_e	e	n/a
166.036	0.0965	332072	keystroke_m	m	n/a
166.2925	0.104	332585	keystroke_i	i	n/a
166.372	0.176	332744	keystroke_e	e	n/a
166.469	0.127	332938	keystroke_s	s	n/a
166.6525	0.152	333305	keystroke_Key.space	Key.space	n/a
166.892	0.144	333784	keystroke_d	d	n/a
167.012	0.137	334024	keystroke_e	e	n/a
167.2205	0.176	334441	keystroke_e	e	n/a
167.3485	0.112	334697	keystroke_m	m	n/a
167.445	0.1755	334890	keystroke_e	e	n/a
167.8765	0.1275	335753	keystroke_d	d	n/a
168.044	0.1605	336088	keystroke_Key.space	Key.space	n/a
168.309	0.1665	336618	keystroke_e	e	n/a
168.4845	0.1355	336969	keystroke_d	d	n/a
168.66	0.1045	337320	keystroke_u	u	n/a
168.7805	0.12	337561	keystroke_c	c	n/a
168.9805	0.08	337961	keystroke_a	a	n/a
169.141	0.12	338282	keystroke_t	t	n/a
169.269	0.168	338538	keystroke_e	e	n/a
169.4125	0.0965	338825	keystroke_d	d	n/a
169.5885	0.08	339177	keystroke_Key.enter	Key.enter	n/a
169.6755	7.134	339351	prompt	n/a	grave traffic songs stories\n
170.42	0.112	340840	keystroke_g	g	n/a
170.6605	0.12	341321	keystroke_r	r	n/a
170.7965	0.1045	341593	keystroke_a	a	n/a
171.0285	0.12	342057	keystroke_v	v	n/a
171.157	0.152	342314	keystroke_e	e	n/a
171.277	0.1595	342554	keystroke_Key.space	Key.space	n/a
171.365	0.1195	342730	keystroke_t	t	n/a
171.5645	0.136	343129	keystroke_r	r	n/a
171.685	0.12	343370	keystroke_a	a	n/a
171.901	0.0645	343802	keystroke_f	f	n/a
172.0615	0.0565	344123	keystroke_f	f	n/a
172.126	0.1125	344252	keystroke_i	i	n/a
172.271	0.112	344542	keystroke_c	c	n/a
172.376	0.168	344752	keystroke_Key.space	Key.space	n/a
172.673	0.1045	345346	keystroke_s	s	n/a
172.7615	0.0725	345523	keystroke_o	o	n/a
172.8975	0.1285	345795	keystroke_n	n	n/a
172.9695	0.137	345939	keystroke_g	g	n/a
173.1065	0.1285	346213	keystroke_s	s	n/a
173.219	0.159	346438	keystroke_Key.space	Key.space	n/a
173.395	0.097	346790	keystroke_s	s	n/a
173.4745	0.121	346949	keystroke_t	t	n/a
173.749	0.024	347498	keystroke_r	r	n/a
173.8055	0.095	347611	keystroke_o	o	n/a
174.117	0.0565	348234	keystroke_Key.backspace	Key.backspace	n/a
174.2705	0.057	348541	keystroke_Key.backspace	Key.backspace	n/a
174.5195	0.088	349039	keystroke_o	o	n/a
174.792	0.0655	349584	keystroke_i	i	n/a
174.8725	0.1035	349745	keystroke_r	r	n/a
175.153	0.0645	350306	keystroke_Key.backspace	Key.backspace	n/a
175.29	0.0725	350580	keystroke_Key.backspace	Key.backspace	n/a
175.418	0.1045	350836	keystroke_r	r	n/a
175.563	0.0965	351126	keystroke_i	i	n/a
175.644	0.1605	351288	keystroke_e	e	n/a
175.748	0.1435	351496	keystroke_s	s	n/a
175.9155	0.113	351831	keystroke_Key.space	Key.space	n/a
176.294	0.0805	352588	keystroke_Key.backspace	Key.backspace	n/a
176.7355	0.072	353471	keystroke_Key.enter	Key.enter	n/a
176.8125	6.3715	353625	prompt	n/a	packet guatemala refurbished louis\n
177.6185	0.1115	355237	keystroke_p	p	n/a
177.7875	0.1045	355575	keystroke_a	a	n/a
177.971	0.129	355942	keystroke_c	c	n/a
178.0435	0.1045	356087	keystroke_k	k	n/a
178.1565	0.1525	356313	keystroke_e	e	n/a
178.285	0.129	356570	keystroke_t	t	n/a
178.3895	0.1435	356779	keystroke_Key.space	Key.space	n/a
178.597	0.1215	357194	keystroke_g	g	n/a
178.7425	0.1125	357485	keystroke_u	u	n/a
178.9035	0.1115	357807	keystroke_a	a	n/a
179.1195	0.1205	358239	keystroke_t	t	n/a
179.353	0.128	358706	keystroke_e	e	n/a
179.5525	0.129	359105	keystroke_m	m	n/a
179.7145	0.0715	359429	keystroke_a	a	n/a
179.85	0.104	359700	keystroke_l	l	n/a
179.9615	0.1055	359923	keystroke_a	a	n/a
180.0905	0.1535	360181	keystroke_Key.space	Key.space	n/a
180.3	0.12	360600	keystroke_r	r	n/a
180.404	0.1525	360808	keystroke_e	e	n/a
180.605	0.08	361210	keystroke_f	f	n/a
180.7095	0.1125	361419	keystroke_u	u	n/a
180.8945	0.1275	361789	keystroke_r	r	n/a
181.0545	0.1045	362109	keystroke_b	b	n/a
181.2715	0.1125	362543	keystroke_i	i	n/a
181.3925	0.0875	362785	keystroke_s	s	n/a
181.512	0.1125	363024	keystroke_h	h	n/a
181.6005	0.153	363201	keystroke_e	e	n/a
181.721	0.1615	363442	keystroke_d	d	n/a
181.842	0.159	363684	keystroke_Key.space	Key.space	n/a
181.985	0.0975	363970	keystroke_l	l	n/a
182.1865	0.065	364373	keystroke_o	o	n/a
182.3795	0.0955	364759	keystroke_u	u	n/a
182.6925	0.0965	365385	keystroke_i	i	n/a
182.837	0.1205	365674	keystroke_s	s	n/a
183.11	0.0725	366220	keystroke_Key.enter	Key.enter	n/a
183.188	7.488	366376	prompt	n/a	cognitive adjustments surgeons focal\n
184.122	0.1365	368244	keystroke_c	c	n/a
184.226	0.12	368452	keystroke_o	o	n/a
184.4195	0.1275	368839	keystroke_g	g	n/a
184.5555	0.072	369111	keystroke_n	n	n/a
184.708	0.1125	369416	keystroke_i	i	n/a
184.7805	0.1045	369561	keystroke_t	t	n/a
184.9245	0.0965	369849	keystroke_i	i	n/a
185.0775	0.1125	370155	keystroke_v	v	n/a
185.2545	0.1515	370509	keystroke_e	e	n/a
185.479	0.144	370958	keystroke_Key.space	Key.space	n/a
185.624	0.1035	371248	keystroke_a	a	n/a
185.817	0.0955	371634	keystroke_d	d	n/a
186.1295	0.112	372259	keystroke_j	j	n/a
186.3145	0.103	372629	keystroke_u	u	n/a
186.5545	0.1125	373109	keystroke_s	s	n/a
186.764	0.112	373528	keystroke_t	t	n/a
187.053	0.112	374106	keystroke_m	m	n/a
187.157	0.1205	374314	keystroke_e	e	n/a
187.3255	0.12	374651	keystroke_n	n	n/a
187.462	0.1765	374924	keystroke_t	t	n/a
187.6065	0.1445	375213	keystroke_s	s	n/a
187.7835	0.112	375567	keystroke_Key.space	Key.space	n/a
188.0405	0.104	376081	keystroke_s	s	n/a
188.1925	0.1045	376385	keystroke_u	u	n/a
188.321	0.145	376642	keystroke_r	r	n/a
188.619	0.088	377238	keystroke_g	g	n/a
188.7715	0.144	377543	keystroke_e	e	n/a
188.9075	0.0965	377815	keystroke_o	o	n/a
189.1245	0.1125	378249	keystroke_n	n	n/a
189.228	0.097	378456	keystroke_s	s	n/a
189.3495	0.1355	378699	keystroke_Key.space	Key.space	n/a
189.558	0.0805	379116	keystroke_f	f	n/a
189.67	0.0565	379340	keystroke_o	o	n/a
189.999	0.105	379998	keystroke_c	c	n/a
190.168	0.1045	380336	keystroke_a	a	n/a
190.2245	0.1285	380449	keystroke_l	l	n/a
190.5615	0.1125	381123	keystroke_Key.enter	Key.enter	n/a
190.6805	7.784	381361	prompt	n/a	shoes literary anniversary institutions\n
191.325	0.1045	382650	keystroke_s	s	n/a
191.46	0.13	382920	keystroke_h	h	n/a
191.6775	0.0965	383355	keystroke_o	o	n/a
191.7575	0.1695	383515	keystroke_e	e	n/a
191.895	0.1195	383790	keystroke_s	s	n/a
192.0155	0.1365	384031	keystroke_Key.space	Key.space	n/a
192.216	0.089	384432	keystroke_l	l	n/a
192.369	0.111	384738	keystroke_i	i	n/a
192.472	0.1045	384944	keystroke_t	t	n/a
192.5775	0.176	385155	keystroke_e	e	n/a
192.697	0.169	385394	keystroke_r	r	n/a
193.163	0.1525	386326	keystroke_a	a	n/a
193.2995	0.1375	386599	keystroke_r	r	n/a
193.461	0.12	386922	keystroke_y	y	n/a
193.6215	0.1595	387243	keystroke_Key.space	Key.space	n/a
193.8545	0.1275	387709	keystroke_a	a	n/a
193.974	0.0805	387948	keystroke_n	n	n/a
194.127	0.0725	388254	keystroke_n	n	n/a
194.336	0.08	388672	keystroke_i	i	n/a
194.4475	0.0895	388895	keystroke_v	v	n/a
194.617	0.1595	389234	keystroke_e	e	n/a
194.7365	0.1615	389473	keystroke_r	r	n/a
194.906	0.1045	389812	keystroke_s	s	n/a
195.1305	0.1125	390261	keystroke_a	a	n/a
195.235	0.1285	390470	keystroke_r	r	n/a
195.324	0.152	390648	keystroke_y	y	n/a
195.733	0.1445	391466	keystroke_Key.space	Key.space	n/a
196.223	0.1045	392446	keystroke_i	i	n/a
196.4315	0.1445	392863	keystroke_n	n	n/a
196.5835	0.1285	393167	keystroke_s	s	n/a
196.7205	0.089	393441	keystroke_t	t	n/a
196.9855	0.104	393971	keystroke_i	i	n/a
197.154	0.1205	394308	keystroke_t	t	n/a
197.3395	0.1035	394679	keystroke_u	u	n/a
197.676	0.1365	395352	keystroke_t	t	n/a
197.7965	0.1205	395593	keystroke_i	i	n/a
197.885	0.088	395770	keystroke_o	o	n/a
198.021	0.121	396042	keystroke_n	n	n/a
198.1585	0.104	396317	keystroke_s	s	n/a
198.367	0.096	396734	keystroke_Key.enter	Key.enter	n/a
198.468	6.003	396936	prompt	n/a	pocket levitra berry totally\n
199.145	0.0485	398290	keystroke_p	p	n/a
199.41	0.105	398820	keystroke_o	o	n/a
199.571	0.129	399142	keystroke_c	c	n/a
199.708	0.1125	399416	keystroke_k	k	n/a
199.804	0.1765	399608	keystroke_e	e	n/a
199.989	0.12	399978	keystroke_t	t	n/a
200.309	0.162	400618	keystroke_Key.space	Key.space	n/a
200.479	0.112	400958	keystroke_l	l	n/a
200.599	0.1205	401198	keystroke_e	e	n/a
200.84	0.1045	401680	keystroke_v	v	n/a
200.9605	0.1045	401921	keystroke_i	i	n/a
201.177	0.1125	402354	keystroke_t	t	n/a
201.4505	0.1525	402901	keystroke_r	r	n/a
201.643	0.1205	403286	keystroke_a	a	n/a
201.835	0.153	403670	keystroke_Key.space	Key.space	n/a
202.069	0.1195	404138	keystroke_b	b	n/a
202.2045	0.1375	404409	keystroke_e	e	n/a
202.3575	0.097	404715	keystroke_r	r	n/a
202.542	0.1285	405084	keystroke_r	r	n/a
202.6225	0.1605	405245	keystroke_y	y	n/a
202.9595	0.1365	405919	keystroke_Key.space	Key.space	n/a
203.3295	0.1205	406659	keystroke_t	t	n/a
203.482	0.104	406964	keystroke_o	o	n/a
203.578	0.1125	407156	keystroke_t	t	n/a
203.7705	0.1045	407541	keystroke_a	a	n/a
203.899	0.0245	407798	keystroke_l	l	n/a
204.0115	0.1045	408023	keystroke_l	l	n/a
204.116	0.168	408232	keystroke_y	y	n/a
204.381	0.0875	408762	keystroke_Key.enter	Key.enter	n/a
204.4745	5.0945	408949	prompt	n/a	should conventional cedar sink\n
205.136	0.1435	410272	keystroke_s	s	n/a
205.2565	0.12	410513	keystroke_h	h	n/a
205.36	0.121	410720	keystroke_o	o	n/a
205.4885	0.0965	410977	keystroke_u	u	n/a
205.69	0.1205	411380	keystroke_l	l	n/a
205.802	0.0805	411604	keystroke_d	d	n/a
205.922	0.1445	411844	keystroke_Key.space	Key.space	n/a
206.0755	0.128	412151	keystroke_c	c	n/a
206.1635	0.0795	412327	keystroke_o	o	n/a
206.3155	0.1605	412631	keystroke_n	n	n/a
206.428	0.1215	412856	keystroke_v	v	n/a
206.5815	0.1595	413163	keystroke_e	e	n/a
206.669	0.1125	413338	keystroke_n	n	n/a
206.789	0.1605	413578	keystroke_t	t	n/a
206.9095	0.1535	413819	keystroke_i	i	n/a
207.007	0.1285	414014	keystroke_o	o	n/a
207.1665	0.1205	414333	keystroke_n	n	n/a
207.2955	0.112	414591	keystroke_a	a	n/a
207.3835	0.1285	414767	keystroke_l	l	n/a
207.527	0.122	415054	keystroke_Key.space	Key.space	n/a
207.753	0.1605	415506	keystroke_c	c	n/a
207.914	0.1515	415828	keystroke_e	e	n/a
208.0985	0.104	416197	keystroke_d	d	n/a
208.291	0.1125	416582	keystroke_a	a	n/a
208.4195	0.1115	416839	keystroke_r	r	n/a
208.6435	0.048	417287	keystroke_Key.space	Key.space	n/a
208.693	0.112	417386	keystroke_s	s	n/a
208.853	0.1125	417706	keystroke_i	i	n/a
209.0295	0.104	418059	keystroke_n	n	n/a
209.1825	0.112	418365	keystroke_k	k	n/a
209.5275	0.04	419055	keystroke_Key.enter	Key.enter	n/a
209.5735	7.237	419147	prompt	n/a	nato signup serbia luxembourg\n
210.226	0.104	420452	keystroke_n	n	n/a
210.3145	0.0875	420629	keystroke_a	a	n/a
210.4425	0.153	420885	keystroke_t	t	n/a
210.5475	0.112	421095	keystroke_o	o	n/a
210.6515	0.1605	421303	keystroke_Key.space	Key.space	n/a
210.932	0.1445	421864	keystroke_s	s	n/a
211.0365	0.08	422073	keystroke_i	i	n/a
211.237	0.097	422474	keystroke_n	n	n/a
211.8395	0.0645	423679	keystroke_Key.backspace	Key.backspace	n/a
211.984	0.1035	423968	keystroke_g	g	n/a
212.161	0.1205	424322	keystroke_n	n	n/a
212.3535	0.088	424707	keystroke_u	u	n/a
212.586	0.0885	425172	keystroke_p	p	n/a
212.7545	0.1605	425509	keystroke_Key.space	Key.space	n/a
212.9875	0.1685	425975	keystroke_s	s	n/a
213.1	0.1445	426200	keystroke_e	e	n/a
213.1965	0.1365	426393	keystroke_r	r	n/a
213.381	0.1205	426762	keystroke_b	b	n/a
213.5975	0.1205	427195	keystroke_i	i	n/a
213.726	0.1365	427452	keystroke_a	a	n/a
213.8865	0.1605	427773	keystroke_Key.space	Key.space	n/a
214.071	0.121	428142	keystroke_l	l	n/a
214.3365	0.0885	428673	keystroke_u	u	n/a
214.456	0.1285	428912	keystroke_x	x	n/a
214.7935	0.1125	429587	keystroke_e	e	n/a
214.93	0.1295	429860	keystroke_m	m	n/a
215.2915	0.08	430583	keystroke_b	b	n/a
215.8215	0.1045	431643	keystroke_o	o	n/a
216.0625	0.088	432125	keystroke_u	u	n/a
216.167	0.128	432334	keystroke_r	r	n/a
216.455	0.113	432910	keystroke_g	g	n/a
216.7205	0.0885	433441	keystroke_Key.enter	Key.enter	n/a
216.818	5.7305	433636	prompt	n/a	ultimate child public english\n
217.5465	0.0885	435093	keystroke_u	u	n/a
217.788	0.0565	435576	keystroke_l	l	n/a
217.8765	0.136	435753	keystroke_t	t	n/a
217.9805	0.0725	435961	keystroke_i	i	n/a
218.1095	0.1605	436219	keystroke_m	m	n/a
218.2375	0.0885	436475	keystroke_a	a	n/a
218.4135	0.145	436827	keystroke_t	t	n/a
218.518	0.1045	437036	keystroke_e	e	n/a
218.6385	0.129	437277	keystroke_Key.space	Key.space	n/a
218.8395	0.136	437679	keystroke_c	c	n/a
218.944	0.112	437888	keystroke_h	h	n/a
219.048	0.1125	438096	keystroke_i	i	n/a
219.1125	0.1125	438225	keystroke_l	l	n/a
219.257	0.088	438514	keystroke_d	d	n/a
219.4255	0.144	438851	keystroke_Key.space	Key.space	n/a
220.0675	0.1035	440135	keystroke_p	p	n/a
220.372	0.105	440744	keystroke_u	u	n/a
220.5895	0.064	441179	keystroke_b	b	n/a
220.758	0.104	441516	keystroke_l	l	n/a
220.822	0.1285	441644	keystroke_i	i	n/a
220.927	0.16	441854	keystroke_c	c	n/a
221.071	0.1605	442142	keystroke_Key.space	Key.space	n/a
221.2155	0.1285	442431	keystroke_e	e	n/a
221.344	0.08	442688	keystroke_n	n	n/a
221.488	0.1285	442976	keystroke_g	g	n/a
221.6085	0.071	443217	keystroke_l	l	n/a
221.721	0.112	443442	keystroke_i	i	n/a
221.8575	0.12	443715	keystroke_s	s	n/a
221.9285	0.105	443857	keystroke_h	h	n/a
222.41	0.1355	444820	keystroke_Key.enter	Key.enter	n/a
222.5535	5.536	445107	prompt	n/a	weblogs jeep banners anchor\n
223.1935	0.1275	446387	keystroke_w	w	n/a
223.41	0.136	446820	keystroke_e	e	n/a
223.522	0.1125	447044	keystroke_b	b	n/a
223.817	0.048	447634	keystroke_l	l	n/a
223.9855	0.104	447971	keystroke_o	o	n/a
224.0815	0.1505	448163	keystroke_g	g	n/a
224.2725	0.112	448545	keystroke_s	s	n/a
224.409	0.144	448818	keystroke_Key.space	Key.space	n/a
224.7205	0.1365	449441	keystroke_j	j	n/a
224.8645	0.097	449729	keystroke_e	e	n/a
225.0975	0.1185	450195	keystroke_e	e	n/a
225.2645	0.0885	450529	keystroke_p	p	n/a
225.3685	0.128	450737	keystroke_Key.space	Key.space	n/a
225.705	0.103	451410	keystroke_b	b	n/a
225.8485	0.1035	451697	keystroke_a	a	n/a
225.96	0.0805	451920	keystroke_n	n	n/a
226.113	0.0885	452226	keystroke_n	n	n/a
226.2555	0.096	452511	keystroke_e	e	n/a
226.312	0.1685	452624	keystroke_r	r	n/a
226.44	0.12	452880	keystroke_s	s	n/a
226.6565	0.119	453313	keystroke_Key.space	Key.space	n/a
226.9115	0.1445	453823	keystroke_a	a	n/a
227.0235	0.0965	454047	keystroke_n	n	n/a
227.193	0.1265	454386	keystroke_c	c	n/a
227.303	0.1125	454606	keystroke_h	h	n/a
227.439	0.121	454878	keystroke_o	o	n/a
227.592	0.1275	455184	keystroke_r	r	n/a
227.9995	0.0885	455999	keystroke_Key.enter	Key.enter	n/a
228.094	8.287	456188	prompt	n/a	bouquet reset actively shipment\n
228.7285	0.1185	457457	keystroke_b	b	n/a
228.943	0.0715	457886	keystroke_o	o	n/a
229.0955	0.128	458191	keystroke_u	u	n/a
229.487	0.128	458974	keystroke_q	q	n/a
229.9185	0.064	459837	keystroke_u	u	n/a
230.3175	0.137	460635	keystroke_t	t	n/a
230.422	0.136	460844	keystroke_e	e	n/a
230.8295	0.056	461659	keystroke_Key.backspace	Key.backspace	n/a
230.982	0.064	461964	keystroke_Key.backspace	Key.backspace	n/a
231.055	0.119	462110	keystroke_e	e	n/a
231.1345	0.1275	462269	keystroke_t	t	n/a
231.518	0.1445	463036	keystroke_Key.space	Key.space	n/a
231.727	0.158	463454	keystroke_r	r	n/a
231.837	0.217	463674	keystroke_e	e	n/a
231.957	0.1445	463914	keystroke_s	s	n/a
232.3655	0.152	464731	keystroke_e	e	n/a
232.5095	0.1125	465019	keystroke_t	t	n/a
232.7335	0.1515	465467	keystroke_Key.space	Key.space	n/a
233.0375	0.0565	466075	keystroke_a	a	n/a
233.2375	0.111	466475	keystroke_c	c	n/a
233.4615	0.079	466923	keystroke_t	t	n/a
233.5495	0.104	467099	keystroke_i	i	n/a
233.74	0.128	467480	keystroke_v	v	n/a
233.892	0.153	467784	keystroke_e	e	n/a
234.013	0.104	468026	keystroke_l	l	n/a
234.165	0.1505	468330	keystroke_y	y	n/a
234.3555	0.12	468711	keystroke_Key.space	Key.space	n/a
234.932	0.1115	469864	keystroke_s	s	n/a
234.988	0.12	469976	keystroke_h	h	n/a
235.245	0.0945	470490	keystroke_i	i	n/a
235.4925	0.0795	470985	keystroke_p	p	n/a
235.7085	0.1035	471417	keystroke_m	m	n/a
235.803	0.105	471606	keystroke_e	e	n/a
235.956	0.1125	471912	keystroke_n	n	n/a
236.02	0.1445	472040	keystroke_t	t	n/a
236.291	0.088	472582	keystroke_Key.enter	Key.enter	n/a
236.386	7.703	472772	prompt	n/a	trinidad accommodate chorus tough\n
237.2195	0.1195	474439	keystroke_t	t	n/a
237.363	0.144	474726	keystroke_i	i	n/a
237.7395	0.0705	475479	keystroke_Key.backspace	Key.backspace	n/a
237.8985	0.129	475797	keystroke_r	r	n/a
238.035	0.0965	476070	keystroke_i	i	n/a
238.2355	0.1035	476471	keystroke_n	n	n/a
238.387	0.104	476774	keystroke_i	i	n/a
238.6595	0.095	477319	keystroke_d	d	n/a
238.7475	0.1425	477495	keystroke_a	a	n/a
238.8985	0.128	477797	keystroke_d	d	n/a
239.0905	0.128	478181	keystroke_Key.space	Key.space	n/a
239.346	0.08	478692	keystroke_a	a	n/a
239.53	0.0725	479060	keystroke_c	c	n/a
239.6905	0.103	479381	keystroke_c	c	n/a
239.8415	0.097	479683	keystroke_o	o	n/a
240.0495	0.1285	480099	keystroke_m	m	n/a
240.762	0.127	481524	keystroke_m	m	n/a
240.897	0.1365	481794	keystroke_o	o	n/a
241.2255	0.127	482451	keystroke_d	d	n/a
241.3365	0.1125	482673	keystroke_a	a	n/a
241.5285	0.1125	483057	keystroke_t	t	n/a
241.625	0.128	483250	keystroke_e	e	n/a
241.8	0.1445	483600	keystroke_Key.space	Key.space	n/a
242.0805	0.12	484161	keystroke_c	c	n/a
242.1605	0.0955	484321	keystroke_h	h	n/a
242.296	0.1125	484592	keystroke_o	o	n/a
242.4725	0.1195	484945	keystroke_r	r	n/a
242.712	0.112	485424	keystroke_u	u	n/a
242.8245	0.1105	485649	keystroke_s	s	n/a
242.9835	0.1365	485967	keystroke_Key.space	Key.space	n/a
243.152	0.135	486304	keystroke_t	t	n/a
243.303	0.089	486606	keystroke_o	o	n/a
243.4955	0.0885	486991	keystroke_u	u	n/a
243.6	0.112	487200	keystroke_g	g	n/a
243.688	0.111	487376	keystroke_h	h	n/a
244.0075	0.08	488015	keystroke_Key.enter	Key.enter	n/a
244.093	6.7995	488186	prompt	n/a	ribbon ranging ownership sick\n
244.7115	0.1275	489423	keystroke_r	r	n/a
244.847	0.0875	489694	keystroke_i	i	n/a
245.111	0.08	490222	keystroke_b	b	n/a
245.3265	0.064	490653	keystroke_b	b	n/a
245.5345	0.0885	491069	keystroke_o	o	n/a
245.735	0.1275	491470	keystroke_n	n	n/a
245.8465	0.152	491693	keystroke_Key.space	Key.space	n/a
246.0065	0.1285	492013	keystroke_r	r	n/a
246.159	0.096	492318	keystroke_a	a	n/a
246.277	0.0805	492554	keystroke_n	n	n/a
246.4865	0.088	492973	keystroke_g	g	n/a
246.6145	0.072	493229	keystroke_i	i	n/a
246.7895	0.1195	493579	keystroke_n	n	n/a
246.885	0.121	493770	keystroke_g	g	n/a
247.03	0.129	494060	keystroke_Key.space	Key.space	n/a
247.2145	0.1345	494429	keystroke_o	o	n/a
247.4935	0.136	494987	keystroke_w	w	n/a
247.702	0.1185	495404	keystroke_n	n	n/a
247.8215	0.1275	495643	keystroke_e	e	n/a
247.909	0.152	495818	keystroke_r	r	n/a
248.109	0.089	496218	keystroke_h	h	n/a
248.357	0.1195	496714	keystroke_s	s	n/a
248.844	0.104	497688	keystroke_Key.backspace	Key.backspace	n/a
249.028	0.096	498056	keystroke_Key.backspace	Key.backspace	n/a
249.1965	0.1115	498393	keystroke_s	s	n/a
249.3715	0.08	498743	keystroke_h	h	n/a
249.54	0.0955	499080	keystroke_i	i	n/a
249.7555	0.104	499511	keystroke_p	p	n/a
249.8915	0.184	499783	keystroke_Key.space	Key.space	n/a
250.035	0.089	500070	keystroke_s	s	n/a
250.323	0.1045	500646	keystroke_i	i	n/a
250.451	0.0965	500902	keystroke_c	c	n/a
250.5555	0.104	501111	keystroke_k	k	n/a
250.8105	0.0805	501621	keystroke_Key.enter	Key.enter	n/a
250.8965	6.105	501793	prompt	n/a	extras dans be ciao\n
251.4425	0.0725	502885	keystroke_s	s	n/a
251.746	0.08	503492	keystroke_Key.backspace	Key.backspace	n/a
251.8425	0.1115	503685	keystroke_e	e	n/a
252.107	0.136	504214	keystroke_x	x	n/a
252.305	0.121	504610	keystroke_t	t	n/a
252.5455	0.073	505091	keystroke_t	t	n/a
252.7215	0.0635	505443	keystroke_r	r	n/a
253.066	0.056	506132	keystroke_Key.backspace	Key.backspace	n/a
253.321	0.1125	506642	keystroke_Key.backspace	Key.backspace	n/a
253.482	0.144	506964	keystroke_r	r	n/a
253.6185	0.0865	507237	keystroke_a	a	n/a
253.817	0.1365	507634	keystroke_s	s	n/a
254.0165	0.1605	508033	keystroke_Key.space	Key.space	n/a
254.3525	0.08	508705	keystroke_a	a	n/a
254.7205	0.049	509441	keystroke_Key.backspace	Key.backspace	n/a
254.8085	0.1285	509617	keystroke_d	d	n/a
254.921	0.088	509842	keystroke_a	a	n/a
255.1045	0.1125	510209	keystroke_n	n	n/a
255.352	0.1355	510704	keystroke_s	s	n/a
255.52	0.152	511040	keystroke_Key.space	Key.space	n/a
255.72	0.135	511440	keystroke_b	b	n/a
255.8395	0.1205	511679	keystroke_e	e	n/a
256.008	0.111	512016	keystroke_Key.space	Key.space	n/a
256.175	0.1445	512350	keystroke_c	c	n/a
256.2945	0.0725	512589	keystroke_i	i	n/a
256.407	0.128	512814	keystroke_a	a	n/a
256.5835	0.1045	513167	keystroke_o	o	n/a
256.9195	0.08	513839	keystroke_Key.enter	Key.enter	n/a
257.005	7.023	514010	prompt	n/a	ecological donation animal influences\n
257.862	0.1285	515724	keystroke_e	e	n/a
258.0785	0.1205	516157	keystroke_c	c	n/a
258.207	0.0635	516414	keystroke_o	o	n/a
258.414	0.064	516828	keystroke_l	l	n/a
258.5825	0.096	517165	keystroke_o	o	n/a
258.6865	0.12	517373	keystroke_g	g	n/a
258.7905	0.103	517581	keystroke_i	i	n/a
258.998	0.056	517996	keystroke_c	c	n/a
259.126	0.0875	518252	keystroke_a	a	n/a
259.2215	0.1115	518443	keystroke_l	l	n/a
259.325	0.176	518650	keystroke_Key.space	Key.space	n/a
259.701	0.1195	519402	keystroke_d	d	n/a
259.8125	0.1045	519625	keystroke_o	o	n/a
259.989	0.144	519978	keystroke_n	n	n/a
260.0845	0.12	520169	keystroke_a	a	n/a
260.2375	0.119	520475	keystroke_t	t	n/a
260.3015	0.143	520603	keystroke_i	i	n/a
260.397	0.096	520794	keystroke_o	o	n/a
260.525	0.1595	521050	keystroke_n	n	n/a
260.653	0.1515	521306	keystroke_Key.space	Key.space	n/a
260.9325	0.136	521865	keystroke_a	a	n/a
261.0125	0.096	522025	keystroke_n	n	n/a
261.1965	0.1035	522393	keystroke_i	i	n/a
261.3315	0.1205	522663	keystroke_m	m	n/a
261.46	0.1045	522920	keystroke_a	a	n/a
261.532	0.152	523064	keystroke_l	l	n/a
261.6685	0.127	523337	keystroke_Key.space	Key.space	n/a
261.9875	0.096	523975	keystroke_i	i	n/a
262.1875	0.121	524375	keystroke_n	n	n/a
262.355	0.096	524710	keystroke_f	f	n/a
262.4915	0.104	524983	keystroke_l	l	n/a
262.7075	0.0955	525415	keystroke_u	u	n/a
262.8425	0.1525	525685	keystroke_e	e	n/a
263.027	0.1205	526054	keystroke_n	n	n/a
263.211	0.1595	526422	keystroke_c	c	n/a
263.291	0.1835	526582	keystroke_e	e	n/a
263.3865	0.152	526773	keystroke_s	s	n/a
263.827	0.1995	527654	keystroke_Key.enter	Key.enter	n/a
264.0325	6.7025	528065	prompt	n/a	marble enable precipitation flush\n
264.5775	0.145	529155	keystroke_m	m	n/a
264.73	0.111	529460	keystroke_a	a	n/a
264.802	0.167	529604	keystroke_r	r	n/a
264.9615	0.12	529923	keystroke_b	b	n/a
265.193	0.1195	530386	keystroke_l	l	n/a
265.321	0.104	530642	keystroke_e	e	n/a
265.4005	0.152	530801	keystroke_Key.space	Key.space	n/a
265.593	0.0875	531186	keystroke_e	e	n/a
265.6805	0.113	531361	keystroke_n	n	n/a
265.809	0.1195	531618	keystroke_a	a	n/a
266.137	0.1195	532274	keystroke_b	b	n/a
266.368	0.113	532736	keystroke_l	l	n/a
266.497	0.12	532994	keystroke_e	e	n/a
266.577	0.2545	533154	keystroke_Key.space	Key.space	n/a
266.896	0.096	533792	keystroke_p	p	n/a
266.968	0.176	533936	keystroke_r	r	n/a
267.1205	0.1675	534241	keystroke_e	e	n/a
267.3675	0.136	534735	keystroke_c	c	n/a
267.56	0.1115	535120	keystroke_i	i	n/a
268.0395	0.12	536079	keystroke_p	p	n/a
268.799	0.0875	537598	keystroke_i	i	n/a
269.0065	0.096	538013	keystroke_t	t	n/a
269.1985	0.112	538397	keystroke_a	a	n/a
269.3265	0.112	538653	keystroke_t	t	n/a
269.4305	0.104	538861	keystroke_i	i	n/a
269.4945	0.072	538989	keystroke_o	o	n/a
269.6385	0.152	539277	keystroke_n	n	n/a
269.7665	0.143	539533	keystroke_Key.space	Key.space	n/a
269.9265	0.095	539853	keystroke_f	f	n/a
270.0295	0.056	540059	keystroke_l	l	n/a
270.1745	0.1035	540349	keystroke_u	u	n/a
270.262	0.1115	540524	keystroke_s	s	n/a
270.3415	0.12	540683	keystroke_h	h	n/a
270.654	0.0795	541308	keystroke_Key.enter	Key.enter	n/a
270.739	8.3105	541478	prompt	n/a	brings registration senator northern\n
271.469	0.112	542938	keystroke_b	b	n/a
271.589	0.128	543178	keystroke_r	r	n/a
271.701	0.1125	543402	keystroke_i	i	n/a
271.9405	0.08	543881	keystroke_n	n	n/a
272.045	0.168	544090	keystroke_g	g	n/a
272.276	0.088	544552	keystroke_s	s	n/a
272.4765	0.152	544953	keystroke_Key.space	Key.space	n/a
272.7555	0.0725	545511	keystroke_e	e	n/a
273.14	0.168	546280	keystroke_r	r	n/a
273.3395	0.0475	546679	keystroke_Key.backspace	Key.backspace	n/a
273.5155	0.04	547031	keystroke_Key.backspace	Key.backspace	n/a
273.6915	0.1275	547383	keystroke_r	r	n/a
273.78	0.127	547560	keystroke_e	e	n/a
274.011	0.12	548022	keystroke_g	g	n/a
274.2195	0.0955	548439	keystroke_i	i	n/a
274.387	0.112	548774	keystroke_s	s	n/a
274.587	0.12	549174	keystroke_t	t	n/a
274.811	0.1355	549622	keystroke_r	r	n/a
274.9545	0.128	549909	keystroke_a	a	n/a
275.091	0.1285	550182	keystroke_t	t	n/a
275.203	0.1355	550406	keystroke_i	i	n/a
275.299	0.0875	550598	keystroke_o	o	n/a
275.427	0.1435	550854	keystroke_n	n	n/a
275.5625	0.1435	551125	keystroke_Key.space	Key.space	n/a
275.754	0.112	551508	keystroke_s	s	n/a
275.842	0.208	551684	keystroke_e	e	n/a
276.17	0.0885	552340	keystroke_n	n	n/a
276.378	0.072	552756	keystroke_a	a	n/a
276.626	0.088	553252	keystroke_t	t	n/a
276.7705	0.103	553541	keystroke_o	o	n/a
276.913	0.1045	553826	keystroke_r	r	n/a
277.0655	0.12	554131	keystroke_Key.space	Key.space	n/a
277.737	0.0965	555474	keystroke_n	n	n/a
277.904	0.12	555808	keystroke_o	o	n/a
278.016	0.121	556032	keystroke_r	r	n/a
278.24	0.1205	556480	keystroke_t	t	n/a
278.3045	0.1195	556609	keystroke_h	h	n/a
278.416	0.128	556832	keystroke_e	e	n/a
278.488	0.136	556976	keystroke_r	r	n/a
278.608	0.104	557216	keystroke_n	n	n/a
279.008	0.04	558016	keystroke_Key.enter	Key.enter	n/a
279.0535	0.166	558107	prompt	n/a	denied constraint programme happening\n
279.16	0.055	558320	keystroke_Key.enter	Key.enter	n/a
279.223	7.0615	558446	prompt	n/a	circles pink morrison electrical\n
280.3035	0.127	560607	keystroke_c	c	n/a
280.407	0.104	560814	keystroke_i	i	n/a
280.598	0.0965	561196	keystroke_r	r	n/a
280.854	0.136	561708	keystroke_c	c	n/a
280.999	0.064	561998	keystroke_l	l	n/a
281.071	0.159	562142	keystroke_e	e	n/a
281.174	0.152	562348	keystroke_s	s	n/a
281.366	0.1275	562732	keystroke_Key.space	Key.space	n/a
281.534	0.112	563068	keystroke_p	p	n/a
282.0215	0.08	564043	keystroke_i	i	n/a
282.222	0.08	564444	keystroke_n	n	n/a
282.3895	0.1115	564779	keystroke_k	k	n/a
282.509	0.1525	565018	keystroke_Key.space	Key.space	n/a
282.7575	0.088	565515	keystroke_m	m	n/a
282.9085	0.112	565817	keystroke_o	o	n/a
283.0365	0.112	566073	keystroke_r	r	n/a
283.213	0.128	566426	keystroke_r	r	n/a
283.3805	0.112	566761	keystroke_i	i	n/a
283.5325	0.112	567065	keystroke_s	s	n/a
283.741	0.072	567482	keystroke_o	o	n/a
283.9325	0.111	567865	keystroke_n	n	n/a
284.0365	0.1435	568073	keystroke_Key.space	Key.space	n/a
284.188	0.1605	568376	keystroke_e	e	n/a
284.3715	0.088	568743	keystroke_l	l	n/a
284.4835	0.136	568967	keystroke_e	e	n/a
284.6365	0.12	569273	keystroke_c	c	n/a
284.892	0.1035	569784	keystroke_t	t	n/a
285.0835	0.135	570167	keystroke_r	r	n/a
285.1795	0.096	570359	keystroke_i	i	n/a
285.4515	0.152	570903	keystroke_c	c	n/a
285.6355	0.1115	571271	keystroke_a	a	n/a
285.699	0.1115	571398	keystroke_l	l	n/a
286.163	0.12	572326	keystroke_Key.enter	Key.enter	n/a
286.2915	6.9495	572583	prompt	n/a	question door closure ozone\n
287.4335	0.0805	574867	keystroke_q	q	n/a
287.5375	0.128	575075	keystroke_u	u	n/a
288.097	0.1525	576194	keystroke_e	e	n/a
288.297	0.152	576594	keystroke_s	s	n/a
288.457	0.136	576914	keystroke_t	t	n/a
288.553	0.111	577106	keystroke_i	i	n/a
288.632	0.073	577264	keystroke_o	o	n/a
288.753	0.1435	577506	keystroke_n	n	n/a
288.8475	0.16	577695	keystroke_Key.space	Key.space	n/a
289.0005	0.111	578001	keystroke_d	d	n/a
289.1125	0.064	578225	keystroke_o	o	n/a
289.256	0.088	578512	keystroke_o	o	n/a
289.424	0.104	578848	keystroke_r	r	n/a
289.5915	0.144	579183	keystroke_Key.space	Key.space	n/a
289.7525	0.1355	579505	keystroke_c	c	n/a
290.176	0.047	580352	keystroke_l	l	n/a
290.447	0.1125	580894	keystroke_o	o	n/a
290.943	0.104	581886	keystroke_s	s	n/a
291.071	0.12	582142	keystroke_u	u	n/a
291.207	0.1355	582414	keystroke_r	r	n/a
291.271	0.1595	582542	keystroke_e	e	n/a
291.4385	0.184	582877	keystroke_Key.space	Key.space	n/a
291.6785	0.0965	583357	keystroke_o	o	n/a
291.838	0.1445	583676	keystroke_z	z	n/a
292.022	0.072	584044	keystroke_e	e	n/a
292.342	0.0715	584684	keystroke_Key.backspace	Key.backspace	n/a
292.606	0.0955	585212	keystroke_o	o	n/a
292.813	0.088	585626	keystroke_n	n	n/a
292.8935	0.1275	585787	keystroke_e	e	n/a
293.141	0.0965	586282	keystroke_Key.enter	Key.enter	n/a
293.245	7.949	586490	prompt	n/a	papua practitioner presentation farming\n
294.005	0.104	588010	keystroke_p	p	n/a
294.172	0.097	588344	keystroke_a	a	n/a
294.452	0.096	588904	keystroke_p	p	n/a
294.8835	0.112	589767	keystroke_u	u	n/a
295.004	0.12	590008	keystroke_a	a	n/a
295.1955	0.1685	590391	keystroke_Key.space	Key.space	n/a
295.628	0.128	591256	keystroke_p	p	n/a
295.764	0.128	591528	keystroke_r	r	n/a
296.0675	0.104	592135	keystroke_a	a	n/a
296.2275	0.136	592455	keystroke_c	c	n/a
296.4995	0.12	592999	keystroke_t	t	n/a
296.7555	0.1195	593511	keystroke_i	i	n/a
296.931	0.112	593862	keystroke_t	t	n/a
297.059	0.112	594118	keystroke_i	i	n/a
297.147	0.08	594294	keystroke_o	o	n/a
297.6905	0.1125	595381	keystroke_n	n	n/a
297.9065	0.16	595813	keystroke_e	e	n/a
297.986	0.1765	595972	keystroke_r	r	n/a
298.202	0.1515	596404	keystroke_Key.space	Key.space	n/a
298.3775	0.12	596755	keystroke_p	p	n/a
298.4335	0.193	596867	keystroke_r	r	n/a
298.5295	0.192	597059	keystroke_e	e	n/a
298.665	0.16	597330	keystroke_s	s	n/a
298.802	0.1515	597604	keystroke_e	e	n/a
299.0175	0.1205	598035	keystroke_n	n	n/a
299.098	0.128	598196	keystroke_t	t	n/a
299.306	0.1195	598612	keystroke_a	a	n/a
299.4175	0.12	598835	keystroke_t	t	n/a
299.482	0.1275	598964	keystroke_i	i	n/a
299.5695	0.08	599139	keystroke_o	o	n/a
299.6735	0.144	599347	keystroke_n	n	n/a
299.7695	0.16	599539	keystroke_Key.space	Key.space	n/a
299.969	0.088	599938	keystroke_f	f	n/a
300.185	0.151	600370	keystroke_a	a	n/a
300.312	0.121	600624	keystroke_r	r	n/a
300.4405	0.1445	600881	keystroke_m	m	n/a
300.56	0.128	601120	keystroke_i	i	n/a
300.744	0.1355	601488	keystroke_n	n	n/a
300.8165	0.143	601633	keystroke_g	g	n/a
301.0955	0.096	602191	keystroke_Key.enter	Key.enter	n/a
301.197	5.896	602394	prompt	n/a	casual jamaica piano span\n
301.823	0.144	603646	keystroke_c	c	n/a
302.0155	0.1115	604031	keystroke_a	a	n/a
302.1665	0.0245	604333	keystroke_s	s	n/a
302.3825	0.088	604765	keystroke_u	u	n/a
302.535	0.1195	605070	keystroke_a	a	n/a
302.7665	0.1115	605533	keystroke_l	l	n/a
303.078	0.1605	606156	keystroke_Key.space	Key.space	n/a
303.2625	0.136	606525	keystroke_j	j	n/a
303.4305	0.128	606861	keystroke_a	a	n/a
303.574	0.1355	607148	keystroke_m	m	n/a
303.79	0.112	607580	keystroke_a	a	n/a
304.102	0.096	608204	keystroke_i	i	n/a
304.214	0.1435	608428	keystroke_c	c	n/a
304.3815	0.136	608763	keystroke_a	a	n/a
304.565	0.128	609130	keystroke_Key.space	Key.space	n/a
304.765	0.1115	609530	keystroke_p	p	n/a
305.021	0.0795	610042	keystroke_i	i	n/a
305.1085	0.136	610217	keystroke_a	a	n/a
305.2925	0.08	610585	keystroke_n	n	n/a
305.4285	0.1355	610857	keystroke_o	o	n/a
305.6125	0.1675	611225	keystroke_Key.space	Key.space	n/a
305.988	0.0795	611976	keystroke_s	s	n/a
306.1395	0.1205	612279	keystroke_p	p	n/a
306.268	0.144	612536	keystroke_a	a	n/a
306.42	0.112	612840	keystroke_n	n	n/a
306.9625	0.128	613925	keystroke_Key.enter	Key.enter	n/a
307.0975	7.094	614195	prompt	n/a	directive eagle survivor rachel\n
307.7385	0.128	615477	keystroke_d	d	n/a
307.875	0.1115	615750	keystroke_i	i	n/a
308.0025	0.096	616005	keystroke_r	r	n/a
308.251	0.1675	616502	keystroke_e	e	n/a
308.419	0.111	616838	keystroke_c	c	n/a
308.6825	0.095	617365	keystroke_t	t	n/a
308.754	0.144	617508	keystroke_i	i	n/a
308.9375	0.1125	617875	keystroke_v	v	n/a
309.1135	0.1445	618227	keystroke_e	e	n/a
309.2405	0.184	618481	keystroke_Key.space	Key.space	n/a
309.465	0.104	618930	keystroke_e	e	n/a
309.658	0.127	619316	keystroke_a	a	n/a
309.945	0.089	619890	keystroke_g	g	n/a
310.1935	0.1115	620387	keystroke_l	l	n/a
310.3365	0.096	620673	keystroke_e	e	n/a
310.5205	0.168	621041	keystroke_Key.space	Key.space	n/a
310.9045	0.104	621809	keystroke_s	s	n/a
310.993	0.1035	621986	keystroke_u	u	n/a
311.112	0.1125	622224	keystroke_r	r	n/a
311.384	0.097	622768	keystroke_v	v	n/a
311.4965	0.096	622993	keystroke_i	i	n/a
311.6075	0.065	623215	keystroke_v	v	n/a
311.8085	0.072	623617	keystroke_o	o	n/a
312.0635	0.128	624127	keystroke_r	r	n/a
312.2395	0.168	624479	keystroke_Key.space	Key.space	n/a
312.5915	0.1355	625183	keystroke_r	r	n/a
312.679	0.144	625358	keystroke_e	e	n/a
313.055	0.088	626110	keystroke_Key.backspace	Key.backspace	n/a
313.1505	0.088	626301	keystroke_a	a	n/a
313.335	0.12	626670	keystroke_c	c	n/a
313.511	0.0885	627022	keystroke_h	h	n/a
313.6385	0.1275	627277	keystroke_e	e	n/a
313.7745	0.1355	627549	keystroke_l	l	n/a
314.142	0.0475	628284	keystroke_Key.enter	Key.enter	n/a
314.196	6.543	628392	prompt	n/a	approaches hunting modelling skill\n
314.8465	0.1275	629693	keystroke_a	a	n/a
314.975	0.0865	629950	keystroke_p	p	n/a
315.1495	0.1035	630299	keystroke_p	p	n/a
315.261	0.112	630522	keystroke_r	r	n/a
315.413	0.0885	630826	keystroke_o	o	n/a
315.573	0.112	631146	keystroke_a	a	n/a
315.7805	0.137	631561	keystroke_c	c	n/a
315.885	0.1115	631770	keystroke_h	h	n/a
315.9805	0.1845	631961	keystroke_e	e	n/a
316.0855	0.1595	632171	keystroke_s	s	n/a
316.269	0.1755	632538	keystroke_Key.space	Key.space	n/a
316.4605	0.1365	632921	keystroke_h	h	n/a
316.565	0.1195	633130	keystroke_u	u	n/a
316.7725	0.1035	633545	keystroke_n	n	n/a
316.868	0.1285	633736	keystroke_t	t	n/a
317.0285	0.1115	634057	keystroke_i	i	n/a
317.196	0.136	634392	keystroke_n	n	n/a
317.276	0.1275	634552	keystroke_g	g	n/a
317.372	0.176	634744	keystroke_Key.space	Key.space	n/a
317.7235	0.2005	635447	keystroke_m	m	n/a
317.932	0.136	635864	keystroke_o	o	n/a
318.076	0.1355	636152	keystroke_d	d	n/a
318.1795	0.136	636359	keystroke_e	e	n/a
318.4035	0.2635	636807	keystroke_l	l	n/a
318.915	0.0725	637830	keystroke_l	l	n/a
319.059	0.096	638118	keystroke_i	i	n/a
319.25	0.145	638500	keystroke_n	n	n/a
319.346	0.1285	638692	keystroke_g	g	n/a
319.442	0.168	638884	keystroke_Key.space	Key.space	n/a
319.674	0.096	639348	keystroke_s	s	n/a
319.826	0.08	639652	keystroke_k	k	n/a
320.042	0.032	640084	keystroke_i	i	n/a
320.2015	0.064	640403	keystroke_l	l	n/a
320.3695	0.08	640739	keystroke_l	l	n/a
320.6895	0.048	641379	keystroke_Key.enter	Key.enter	n/a
320.743	6.3755	641486	prompt	n/a	recycling vista possibly bosnia\n
321.409	0.1515	642818	keystroke_r	r	n/a
321.569	0.1195	643138	keystroke_e	e	n/a
321.753	0.143	643506	keystroke_c	c	n/a
321.9845	0.112	643969	keystroke_y	y	n/a
322.112	0.128	644224	keystroke_c	c	n/a
322.344	0.1205	644688	keystroke_l	l	n/a
322.5285	0.096	645057	keystroke_i	i	n/a
322.6965	0.136	645393	keystroke_n	n	n/a
322.7925	0.1355	645585	keystroke_g	g	n/a
322.856	0.184	645712	keystroke_Key.space	Key.space	n/a
323.128	0.112	646256	keystroke_v	v	n/a
323.232	0.1365	646464	keystroke_i	i	n/a
323.3845	0.1115	646769	keystroke_s	s	n/a
323.512	0.12	647024	keystroke_t	t	n/a
323.712	0.104	647424	keystroke_a	a	n/a
323.856	0.152	647712	keystroke_Key.space	Key.space	n/a
324.048	0.1035	648096	keystroke_p	p	n/a
324.231	0.112	648462	keystroke_o	o	n/a
324.4635	0.08	648927	keystroke_s	s	n/a
324.663	0.0475	649326	keystroke_s	s	n/a
324.7025	0.0805	649405	keystroke_i	i	n/a
324.911	0.0635	649822	keystroke_b	b	n/a
325.087	0.0955	650174	keystroke_l	l	n/a
325.527	0.1115	651054	keystroke_y	y	n/a
325.742	0.136	651484	keystroke_Key.space	Key.space	n/a
325.982	0.104	651964	keystroke_b	b	n/a
326.198	0.104	652396	keystroke_o	o	n/a
326.318	0.08	652636	keystroke_s	s	n/a
326.414	0.12	652828	keystroke_n	n	n/a
326.59	0.1275	653180	keystroke_i	i	n/a
326.694	0.1035	653388	keystroke_a	a	n/a
327.101	0.016	654202	keystroke_Key.enter	Key.enter	n/a
327.123	5.8795	654246	prompt	n/a	greece pest navigator green\n
327.845	0.1035	655690	keystroke_g	g	n/a
328.077	0.119	656154	keystroke_r	r	n/a
328.1405	0.128	656281	keystroke_e	e	n/a
328.3565	0.104	656713	keystroke_e	e	n/a
328.5325	0.1195	657065	keystroke_c	c	n/a
328.62	0.1205	657240	keystroke_e	e	n/a
328.8115	0.136	657623	keystroke_Key.space	Key.space	n/a
329.0365	0.0785	658073	keystroke_p	p	n/a
329.1	0.152	658200	keystroke_e	e	n/a
329.2195	0.1355	658439	keystroke_s	s	n/a
329.371	0.128	658742	keystroke_t	t	n/a
329.523	0.184	659046	keystroke_Key.space	Key.space	n/a
329.731	0.1045	659462	keystroke_n	n	n/a
329.811	0.088	659622	keystroke_a	a	n/a
330.0425	0.105	660085	keystroke_v	v	n/a
330.171	0.096	660342	keystroke_i	i	n/a
330.731	0.096	661462	keystroke_g	g	n/a
330.9225	0.112	661845	keystroke_a	a	n/a
331.0425	0.0965	662085	keystroke_t	t	n/a
331.1625	0.096	662325	keystroke_o	o	n/a
331.2745	0.096	662549	keystroke_r	r	n/a
331.3615	0.1445	662723	keystroke_Key.space	Key.space	n/a
331.642	0.088	663284	keystroke_g	g	n/a
331.8825	0.1115	663765	keystroke_r	r	n/a
331.954	0.112	663908	keystroke_e	e	n/a
332.1615	0.088	664323	keystroke_e	e	n/a
332.242	0.1115	664484	keystroke_n	n	n/a
332.8965	0.104	665793	keystroke_Key.enter	Key.enter	n/a
333.0065	6.609	666013	prompt	n/a	protocols synthetic genre weather\n
333.728	0.072	667456	keystroke_p	p	n/a
333.888	0.088	667776	keystroke_r	r	n/a
333.984	0.1275	667968	keystroke_o	o	n/a
334.1205	0.0875	668241	keystroke_t	t	n/a
334.232	0.0875	668464	keystroke_o	o	n/a
334.4235	0.1205	668847	keystroke_c	c	n/a
334.672	0.0805	669344	keystroke_o	o	n/a
334.8645	0.087	669729	keystroke_l	l	n/a
334.968	0.0795	669936	keystroke_s	s	n/a
335.0475	0.168	670095	keystroke_Key.space	Key.space	n/a
335.2795	0.096	670559	keystroke_s	s	n/a
335.423	0.104	670846	keystroke_y	y	n/a
335.599	0.1045	671198	keystroke_n	n	n/a
335.711	0.088	671422	keystroke_t	t	n/a
335.911	0.112	671822	keystroke_h	h	n/a
336.1505	0.176	672301	keystroke_e	e	n/a
336.3425	0.1205	672685	keystroke_t	t	n/a
336.495	0.096	672990	keystroke_i	i	n/a
336.83	0.153	673660	keystroke_c	c	n/a
337.0305	0.1675	674061	keystroke_Key.space	Key.space	n/a
337.462	0.12	674924	keystroke_g	g	n/a
337.6465	0.112	675293	keystroke_e	e	n/a
337.774	0.096	675548	keystroke_n	n	n/a
337.998	0.12	675996	keystroke_r	r	n/a
338.07	0.136	676140	keystroke_e	e	n/a
338.27	0.1515	676540	keystroke_Key.space	Key.space	n/a
338.525	0.104	677050	keystroke_w	w	n/a
338.7415	0.128	677483	keystroke_e	e	n/a
338.8775	0.1435	677755	keystroke_a	a	n/a
339.0455	0.112	678091	keystroke_t	t	n/a
339.149	0.0965	678298	keystroke_h	h	n/a
339.2295	0.135	678459	keystroke_e	e	n/a
339.3165	0.1285	678633	keystroke_r	r	n/a
339.5405	0.072	679081	keystroke_Key.enter	Key.enter	n/a
339.6205	7.701	679241	prompt	n/a	nights qualifying employment shakira\n
340.293	0.0795	680586	keystroke_n	n	n/a
340.4525	0.1115	680905	keystroke_i	i	n/a
340.5325	0.1115	681065	keystroke_g	g	n/a
340.684	0.1365	681368	keystroke_h	h	n/a
340.7955	0.1205	681591	keystroke_t	t	n/a
340.8835	0.1365	681767	keystroke_s	s	n/a
341.02	0.159	682040	keystroke_Key.space	Key.space	n/a
341.428	0.1355	682856	keystroke_q	q	n/a
341.5315	0.096	683063	keystroke_u	u	n/a
341.7075	0.1125	683415	keystroke_a	a	n/a
341.812	0.0795	683624	keystroke_l	l	n/a
342.028	0.0795	684056	keystroke_i	i	n/a
342.3155	0.08	684631	keystroke_f	f	n/a
342.5715	0.087	685143	keystroke_y	y	n/a
342.795	0.0795	685590	keystroke_i	i	n/a
342.9545	0.128	685909	keystroke_n	n	n/a
343.034	0.12	686068	keystroke_g	g	n/a
343.154	0.144	686308	keystroke_Key.space	Key.space	n/a
343.5375	0.1285	687075	keystroke_e	e	n/a
343.738	0.112	687476	keystroke_m	m	n/a
344.098	0.176	688196	keystroke_p	p	n/a
344.258	0.128	688516	keystroke_l	l	n/a
344.6895	0.0875	689379	keystroke_o	o	n/a
344.961	0.088	689922	keystroke_y	y	n/a
345.2175	0.064	690435	keystroke_m	m	n/a
345.337	0.144	690674	keystroke_e	e	n/a
345.4335	0.1355	690867	keystroke_n	n	n/a
345.529	0.152	691058	keystroke_t	t	n/a
345.672	0.152	691344	keystroke_Key.space	Key.space	n/a
345.937	0.112	691874	keystroke_s	s	n/a
346.0005	0.12	692001	keystroke_h	h	n/a
346.1525	0.112	692305	keystroke_a	a	n/a
346.3205	0.0885	692641	keystroke_k	k	n/a
346.5365	0.104	693073	keystroke_i	i	n/a
346.6165	0.1355	693233	keystroke_r	r	n/a
346.72	0.12	693440	keystroke_a	a	n/a
347.2165	0.1035	694433	keystroke_Key.enter	Key.enter	n/a
347.326	7.1185	694652	prompt	n/a	orientation network rough pirates\n
347.9675	0.096	695935	keystroke_o	o	n/a
348.087	0.0955	696174	keystroke_r	r	n/a
348.2145	0.1125	696429	keystroke_i	i	n/a
348.391	0.136	696782	keystroke_e	e	n/a
348.519	0.12	697038	keystroke_n	n	n/a
348.631	0.12	697262	keystroke_t	t	n/a
348.847	0.088	697694	keystroke_a	a	n/a
348.943	0.12	697886	keystroke_t	t	n/a
349.0465	0.0885	698093	keystroke_i	i	n/a
349.087	0.096	698174	keystroke_o	o	n/a
349.2305	0.128	698461	keystroke_n	n	n/a
349.335	0.1595	698670	keystroke_Key.space	Key.space	n/a
349.5105	0.104	699021	keystroke_n	n	n/a
349.5985	0.144	699197	keystroke_e	e	n/a
349.7105	0.1115	699421	keystroke_t	t	n/a
349.918	0.1035	699836	keystroke_w	w	n/a
350.038	0.064	700076	keystroke_o	o	n/a
350.1175	0.1045	700235	keystroke_r	r	n/a
350.238	0.112	700476	keystroke_k	k	n/a
350.413	0.144	700826	keystroke_Key.space	Key.space	n/a
350.7015	0.104	701403	keystroke_r	r	n/a
350.838	0.0715	701676	keystroke_o	o	n/a
350.9815	0.1035	701963	keystroke_u	u	n/a
351.077	0.1285	702154	keystroke_g	g	n/a
351.173	0.12	702346	keystroke_h	h	n/a
351.277	0.1525	702554	keystroke_Key.space	Key.space	n/a
351.501	0.0885	703002	keystroke_p	p	n/a
351.7255	0.072	703451	keystroke_u	u	n/a
351.8055	0.167	703611	keystroke_r	r	n/a
352.0525	0.088	704105	keystroke_a	a	n/a
352.293	0.047	704586	keystroke_Key.backspace	Key.backspace	n/a
352.444	0.041	704888	keystroke_Key.backspace	Key.backspace	n/a
352.829	0.087	705658	keystroke_Key.backspace	Key.backspace	n/a
353.3955	0.088	706791	keystroke_i	i	n/a
353.516	0.1275	707032	keystroke_r	r	n/a
353.684	0.0875	707368	keystroke_a	a	n/a
353.8355	0.1125	707671	keystroke_t	t	n/a
353.9155	0.128	707831	keystroke_e	e	n/a
354.0275	0.1365	708055	keystroke_s	s	n/a
354.323	0.1205	708646	keystroke_Key.enter	Key.enter	n/a
354.45	5.912	708900	prompt	n/a	chosen ancient riders affiliates\n
355.2035	0.127	710407	keystroke_c	c	n/a
355.3075	0.0875	710615	keystroke_h	h	n/a
355.443	0.088	710886	keystroke_o	o	n/a
355.6745	0.1035	711349	keystroke_s	s	n/a
355.763	0.112	711526	keystroke_e	e	n/a
355.883	0.1195	711766	keystroke_n	n	n/a
356.01	0.168	712020	keystroke_Key.space	Key.space	n/a
356.33	0.144	712660	keystroke_a	a	n/a
356.4745	0.119	712949	keystroke_n	n	n/a
356.602	0.136	713204	keystroke_c	c	n/a
356.7535	0.0805	713507	keystroke_i	i	n/a
356.8655	0.1285	713731	keystroke_e	e	n/a
356.97	0.1205	713940	keystroke_n	n	n/a
357.0575	0.136	714115	keystroke_t	t	n/a
357.2255	0.1445	714451	keystroke_Key.space	Key.space	n/a
357.418	0.1275	714836	keystroke_r	r	n/a
357.5535	0.104	715107	keystroke_i	i	n/a
357.666	0.1115	715332	keystroke_d	d	n/a
357.7935	0.1275	715587	keystroke_e	e	n/a
357.8895	0.136	715779	keystroke_r	r	n/a
358.0015	0.128	716003	keystroke_s	s	n/a
358.1535	0.128	716307	keystroke_Key.space	Key.space	n/a
358.3765	0.104	716753	keystroke_a	a	n/a
358.6885	0.089	717377	keystroke_f	f	n/a
358.873	0.072	717746	keystroke_f	f	n/a
359.177	0.112	718354	keystroke_i	i	n/a
359.3445	0.1035	718689	keystroke_l	l	n/a
359.4165	0.1285	718833	keystroke_i	i	n/a
359.601	0.1115	719202	keystroke_a	a	n/a
359.9125	0.0875	719825	keystroke_t	t	n/a
359.9685	0.128	719937	keystroke_e	e	n/a
360.0405	0.1435	720081	keystroke_s	s	n/a
360.2725	0.088	720545	keystroke_Key.enter	Key.enter	n/a
360.366	6.6955	720732	prompt	n/a	transition officially always poultry\n
361.055	0.105	722110	keystroke_t	t	n/a
361.2555	0.119	722511	keystroke_r	r	n/a
361.3435	0.1275	722687	keystroke_a	a	n/a
361.7985	0.096	723597	keystroke_n	n	n/a
361.9505	0.113	723901	keystroke_s	s	n/a
362.0875	0.071	724175	keystroke_i	i	n/a
362.183	0.12	724366	keystroke_t	t	n/a
362.295	0.112	724590	keystroke_i	i	n/a
362.3915	0.0635	724783	keystroke_o	o	n/a
362.503	0.128	725006	keystroke_n	n	n/a
362.615	0.1435	725230	keystroke_Key.space	Key.space	n/a
362.775	0.096	725550	keystroke_o	o	n/a
362.8945	0.0725	725789	keystroke_f	f	n/a
363.0545	0.056	726109	keystroke_f	f	n/a
363.1345	0.1275	726269	keystroke_i	i	n/a
363.2705	0.095	726541	keystroke_c	c	n/a
363.35	0.0875	726700	keystroke_i	i	n/a
363.5025	0.128	727005	keystroke_a	a	n/a
363.6625	0.056	727325	keystroke_l	l	n/a
363.8385	0.08	727677	keystroke_l	l	n/a
364.078	0.12	728156	keystroke_y	y	n/a
364.2535	0.12	728507	keystroke_Key.space	Key.space	n/a
364.3815	0.1045	728763	keystroke_a	a	n/a
364.4935	0.096	728987	keystroke_l	l	n/a
364.6295	0.144	729259	keystroke_w	w	n/a
364.7575	0.1275	729515	keystroke_a	a	n/a
364.8695	0.1275	729739	keystroke_y	y	n/a
364.989	0.0965	729978	keystroke_s	s	n/a
365.117	0.152	730234	keystroke_Key.space	Key.space	n/a
365.429	0.08	730858	keystroke_p	p	n/a
365.6605	0.1205	731321	keystroke_o	o	n/a
365.885	0.12	731770	keystroke_u	u	n/a
366.125	0.1115	732250	keystroke_l	l	n/a
366.3245	0.0955	732649	keystroke_t	t	n/a
366.524	0.1205	733048	keystroke_r	r	n/a
366.6125	0.1115	733225	keystroke_y	y	n/a
366.972	0.088	733944	keystroke_Key.enter	Key.enter	n/a
367.0665	5.1445	734133	prompt	n/a	tears mono months indirect\n
367.5795	0.1125	735159	keystroke_t	t	n/a
367.8035	0.1205	735607	keystroke_e	e	n/a
367.9475	0.136	735895	keystroke_a	a	n/a
368.0435	0.1365	736087	keystroke_r	r	n/a
368.2515	0.1035	736503	keystroke_s	s	n/a
368.371	0.136	736742	keystroke_Key.space	Key.space	n/a
368.4995	0.096	736999	keystroke_m	m	n/a
368.7475	0.095	737495	keystroke_o	o	n/a
368.979	0.0875	737958	keystroke_n	n	n/a
369.163	0.0955	738326	keystroke_o	o	n/a
369.49	0.136	738980	keystroke_Key.space	Key.space	n/a
369.627	0.1355	739254	keystroke_m	m	n/a
369.8105	0.1115	739621	keystroke_o	o	n/a
369.9775	0.12	739955	keystroke_n	n	n/a
370.13	0.1195	740260	keystroke_t	t	n/a
370.2345	0.104	740469	keystroke_h	h	n/a
370.3625	0.0875	740725	keystroke_s	s	n/a
370.4895	0.145	740979	keystroke_Key.space	Key.space	n/a
370.7305	0.08	741461	keystroke_i	i	n/a
370.9145	0.1265	741829	keystroke_n	n	n/a
371.033	0.112	742066	keystroke_d	d	n/a
371.258	0.1195	742516	keystroke_i	i	n/a
371.3935	0.1205	742787	keystroke_r	r	n/a
371.5215	0.168	743043	keystroke_e	e	n/a
371.7375	0.087	743475	keystroke_c	c	n/a
371.9695	0.12	743939	keystroke_t	t	n/a
372.113	0.096	744226	keystroke_Key.enter	Key.enter	n/a
372.2155	6.384	744431	prompt	n/a	firmware wiley lows apparent\n
372.8245	0.096	745649	keystroke_f	f	n/a
372.897	0.0795	745794	keystroke_i	i	n/a
373.0725	0.1195	746145	keystroke_r	r	n/a
373.1445	0.136	746289	keystroke_m	m	n/a
373.3685	0.144	746737	keystroke_w	w	n/a
373.528	0.1275	747056	keystroke_a	a	n/a
373.6795	0.1285	747359	keystroke_r	r	n/a
373.7835	0.1205	747567	keystroke_e	e	n/a
374.0315	0.12	748063	keystroke_Key.space	Key.space	n/a
374.3755	0.128	748751	keystroke_w	w	n/a
374.5515	0.072	749103	keystroke_i	i	n/a
374.728	0.1035	749456	keystroke_l	l	n/a
374.9195	0.12	749839	keystroke_e	e	n/a
375.023	0.1285	750046	keystroke_y	y	n/a
375.175	0.136	750350	keystroke_Key.space	Key.space	n/a
375.3835	0.08	750767	keystroke_l	l	n/a
375.5835	0.08	751167	keystroke_o	o	n/a
375.6955	0.1115	751391	keystroke_w	w	n/a
375.919	0.1115	751838	keystroke_e	e	n/a
376.2465	0.088	752493	keystroke_s	s	n/a
376.4705	0.056	752941	keystroke_Key.backspace	Key.backspace	n/a
376.6065	0.064	753213	keystroke_Key.backspace	Key.backspace	n/a
376.711	0.0955	753422	keystroke_s	s	n/a
376.9505	0.144	753901	keystroke_Key.space	Key.space	n/a
377.15	0.136	754300	keystroke_a	a	n/a
377.3025	0.0635	754605	keystroke_p	p	n/a
377.462	0.088	754924	keystroke_p	p	n/a
377.566	0.112	755132	keystroke_a	a	n/a
377.67	0.088	755340	keystroke_r	r	n/a
378.062	0.128	756124	keystroke_e	e	n/a
378.214	0.096	756428	keystroke_n	n	n/a
378.294	0.1275	756588	keystroke_t	t	n/a
378.5255	0.0715	757051	keystroke_Key.enter	Key.enter	n/a
378.6035	6.8245	757207	prompt	n/a	refresh casio instructional couples\n
379.4365	0.1285	758873	keystroke_r	r	n/a
379.541	0.167	759082	keystroke_e	e	n/a
379.749	0.064	759498	keystroke_f	f	n/a
380.053	0.127	760106	keystroke_r	r	n/a
380.109	0.1515	760218	keystroke_e	e	n/a
380.212	0.128	760424	keystroke_s	s	n/a
380.413	0.095	760826	keystroke_h	h	n/a
380.548	0.1685	761096	keystroke_Key.space	Key.space	n/a
380.7725	0.1435	761545	keystroke_c	c	n/a
380.9245	0.111	761849	keystroke_a	a	n/a
381.0045	0.111	762009	keystroke_s	s	n/a
381.1795	0.1205	762359	keystroke_i	i	n/a
381.26	0.112	762520	keystroke_o	o	n/a
381.412	0.1435	762824	keystroke_Key.space	Key.space	n/a
381.747	0.081	763494	keystroke_i	i	n/a
381.9315	0.128	763863	keystroke_n	n	n/a
382.0275	0.0965	764055	keystroke_t	t	n/a
382.3395	0.08	764679	keystroke_Key.backspace	Key.backspace	n/a
382.4595	0.1195	764919	keystroke_s	s	n/a
382.619	0.096	765238	keystroke_t	t	n/a
382.851	0.0885	765702	keystroke_r	r	n/a
382.971	0.104	765942	keystroke_u	u	n/a
383.1795	0.1195	766359	keystroke_c	c	n/a
383.4265	0.104	766853	keystroke_t	t	n/a
383.459	0.128	766918	keystroke_i	i	n/a
383.547	0.1035	767094	keystroke_o	o	n/a
383.6825	0.112	767365	keystroke_n	n	n/a
383.8025	0.096	767605	keystroke_a	a	n/a
383.8745	0.128	767749	keystroke_l	l	n/a
384.0185	0.176	768037	keystroke_Key.space	Key.space	n/a
384.242	0.112	768484	keystroke_c	c	n/a
384.322	0.104	768644	keystroke_o	o	n/a
384.498	0.0875	768996	keystroke_u	u	n/a
384.7145	0.135	769429	keystroke_p	p	n/a
384.8815	0.1355	769763	keystroke_l	l	n/a
385.0015	0.1445	770003	keystroke_e	e	n/a
385.105	0.121	770210	keystroke_s	s	n/a
385.354	0.072	770708	keystroke_Key.enter	Key.enter	n/a
385.4305	6.8895	770861	prompt	n/a	colors generator delay palestine\n
386.065	0.129	772130	keystroke_c	c	n/a
386.113	0.096	772226	keystroke_o	o	n/a
386.329	0.064	772658	keystroke_l	l	n/a
386.497	0.0965	772994	keystroke_o	o	n/a
386.585	0.096	773170	keystroke_r	r	n/a
386.665	0.112	773330	keystroke_s	s	n/a
386.841	0.144	773682	keystroke_Key.space	Key.space	n/a
387.233	0.104	774466	keystroke_g	g	n/a
387.385	0.112	774770	keystroke_e	e	n/a
387.513	0.1115	775026	keystroke_n	n	n/a
387.593	0.1115	775186	keystroke_e	e	n/a
387.6885	0.2075	775377	keystroke_r	r	n/a
387.9925	0.104	775985	keystroke_a	a	n/a
388.1605	0.1115	776321	keystroke_t	t	n/a
388.3835	0.048	776767	keystroke_o	o	n/a
388.5525	0.112	777105	keystroke_r	r	n/a
388.6795	0.144	777359	keystroke_Key.space	Key.space	n/a
388.9675	0.129	777935	keystroke_d	d	n/a
389.0645	0.143	778129	keystroke_e	e	n/a
389.2155	0.072	778431	keystroke_l	l	n/a
389.32	0.0795	778640	keystroke_a	a	n/a
389.4555	0.1115	778911	keystroke_y	y	n/a
389.631	0.1365	779262	keystroke_Key.space	Key.space	n/a
389.848	0.1035	779696	keystroke_p	p	n/a
390.0235	0.096	780047	keystroke_a	a	n/a
390.215	0.12	780430	keystroke_k	k	n/a
390.7345	0.072	781469	keystroke_Key.backspace	Key.backspace	n/a
391.015	0.079	782030	keystroke_l	l	n/a
391.1825	0.168	782365	keystroke_e	e	n/a
391.3345	0.128	782669	keystroke_s	s	n/a
391.6625	0.112	783325	keystroke_t	t	n/a
391.7585	0.08	783517	keystroke_i	i	n/a
391.9265	0.12	783853	keystroke_n	n	n/a
391.9985	0.12	783997	keystroke_e	e	n/a
392.278	0.04	784556	keystroke_Key.enter	Key.enter	n/a
392.324	7.112	784648	prompt	n/a	objectives content personalized voltage\n
393.1495	0.0725	786299	keystroke_o	o	n/a
393.3495	0.064	786699	keystroke_b	b	n/a
393.589	0.12	787178	keystroke_j	j	n/a
393.725	0.1285	787450	keystroke_e	e	n/a
393.8055	0.104	787611	keystroke_c	c	n/a
394.053	0.1125	788106	keystroke_t	t	n/a
394.189	0.1115	788378	keystroke_i	i	n/a
394.333	0.112	788666	keystroke_v	v	n/a
394.485	0.1515	788970	keystroke_e	e	n/a
394.581	0.1435	789162	keystroke_s	s	n/a
394.7005	0.1595	789401	keystroke_Key.space	Key.space	n/a
394.909	0.127	789818	keystroke_c	c	n/a
395.021	0.047	790042	keystroke_o	o	n/a
395.1955	0.1205	790391	keystroke_n	n	n/a
395.2915	0.105	790583	keystroke_t	t	n/a
395.3645	0.1595	790729	keystroke_e	e	n/a
395.508	0.112	791016	keystroke_n	n	n/a
395.556	0.136	791112	keystroke_t	t	n/a
395.739	0.1925	791478	keystroke_Key.space	Key.space	n/a
395.948	0.1205	791896	keystroke_p	p	n/a
396.0765	0.1035	792153	keystroke_e	e	n/a
396.1245	0.159	792249	keystroke_r	r	n/a
396.2915	0.0965	792583	keystroke_s	s	n/a
396.412	0.08	792824	keystroke_o	o	n/a
396.5875	0.104	793175	keystroke_n	n	n/a
396.7315	0.128	793463	keystroke_a	a	n/a
396.8995	0.144	793799	keystroke_l	l	n/a
397.0275	0.1275	794055	keystroke_i	i	n/a
397.283	0.128	794566	keystroke_z	z	n/a
397.445	0.158	794890	keystroke_e	e	n/a
397.603	0.1355	795206	keystroke_d	d	n/a
397.7225	0.152	795445	keystroke_Key.space	Key.space	n/a
398.011	0.1125	796022	keystroke_v	v	n/a
398.0985	0.0645	796197	keystroke_o	o	n/a
398.29	0.096	796580	keystroke_l	l	n/a
398.635	0.1035	797270	keystroke_t	t	n/a
398.8105	0.0715	797621	keystroke_a	a	n/a
399.066	0.1275	798132	keystroke_g	g	n/a
399.1785	0.087	798357	keystroke_e	e	n/a
399.3375	0.096	798675	keystroke_Key.enter	Key.enter	n/a
399.4465	5.6345	798893	prompt	n/a	mistress circulation loans ready\n
400.0495	0.088	800099	keystroke_m	m	n/a
400.1775	0.136	800355	keystroke_i	i	n/a
400.2895	0.104	800579	keystroke_s	s	n/a
400.386	0.0955	800772	keystroke_t	t	n/a
400.5935	0.12	801187	keystroke_r	r	n/a
400.6575	0.16	801315	keystroke_e	e	n/a
400.8815	0.0955	801763	keystroke_s	s	n/a
401.081	0.112	802162	keystroke_s	s	n/a
401.194	0.151	802388	keystroke_Key.space	Key.space	n/a
401.401	0.121	802802	keystroke_c	c	n/a
401.594	0.0955	803188	keystroke_i	i	n/a
401.7375	0.088	803475	keystroke_r	r	n/a
401.9925	0.1285	803985	keystroke_c	c	n/a
402.0655	0.0955	804131	keystroke_u	u	n/a
402.297	0.08	804594	keystroke_l	l	n/a
402.4405	0.0965	804881	keystroke_a	a	n/a
402.5845	0.1285	805169	keystroke_t	t	n/a
402.697	0.0955	805394	keystroke_i	i	n/a
402.7525	0.096	805505	keystroke_o	o	n/a
402.9045	0.112	805809	keystroke_n	n	n/a
402.9765	0.168	805953	keystroke_Key.space	Key.space	n/a
403.1285	0.104	806257	keystroke_l	l	n/a
403.3365	0.072	806673	keystroke_o	o	n/a
403.4245	0.088	806849	keystroke_a	a	n/a
403.5445	0.1355	807089	keystroke_n	n	n/a
403.7365	0.112	807473	keystroke_s	s	n/a
403.8725	0.1435	807745	keystroke_Key.space	Key.space	n/a
404.1605	0.1755	808321	keystroke_r	r	n/a
404.2565	0.191	808513	keystroke_e	e	n/a
404.4165	0.1515	808833	keystroke_a	a	n/a
404.5525	0.1195	809105	keystroke_d	d	n/a
404.6555	0.096	809311	keystroke_y	y	n/a
404.9915	0.088	809983	keystroke_Key.enter	Key.enter	n/a
405.0845	5.426	810169	prompt	n/a	marina handles suspended lock\n
405.6475	0.112	811295	keystroke_m	m	n/a
405.7755	0.1435	811551	keystroke_a	a	n/a
405.8955	0.1285	811791	keystroke_r	r	n/a
405.991	0.0725	811982	keystroke_i	i	n/a
406.1515	0.143	812303	keystroke_n	n	n/a
406.2955	0.088	812591	keystroke_a	a	n/a
406.3915	0.135	812783	keystroke_Key.space	Key.space	n/a
406.6075	0.0715	813215	keystroke_h	h	n/a
406.7665	0.113	813533	keystroke_a	a	n/a
406.8555	0.1355	813711	keystroke_n	n	n/a
407.063	0.072	814126	keystroke_d	d	n/a
407.215	0.072	814430	keystroke_l	l	n/a
407.2945	0.168	814589	keystroke_e	e	n/a
407.4225	0.144	814845	keystroke_s	s	n/a
407.623	0.1675	815246	keystroke_Key.space	Key.space	n/a
407.9985	0.0885	815997	keystroke_s	s	n/a
408.2065	0.096	816413	keystroke_u	u	n/a
408.3745	0.088	816749	keystroke_s	s	n/a
408.558	0.104	817116	keystroke_p	p	n/a
408.71	0.136	817420	keystroke_e	e	n/a
408.862	0.136	817724	keystroke_n	n	n/a
408.982	0.0955	817964	keystroke_d	d	n/a
409.182	0.152	818364	keystroke_e	e	n/a
409.3015	0.128	818603	keystroke_d	d	n/a
409.4695	0.184	818939	keystroke_Key.space	Key.space	n/a
409.6055	0.112	819211	keystroke_l	l	n/a
409.805	0.0885	819610	keystroke_o	o	n/a
409.8695	0.1355	819739	keystroke_c	c	n/a
410.0455	0.112	820091	keystroke_k	k	n/a
410.3965	0.112	820793	keystroke_Key.enter	Key.enter	n/a
410.514	5.579	821028	prompt	n/a	void schemes solaris runtime\n
411.229	0.1035	822458	keystroke_v	v	n/a
411.3725	0.104	822745	keystroke_o	o	n/a
411.4125	0.1525	822825	keystroke_i	i	n/a
411.7965	0.072	823593	keystroke_d	d	n/a
411.9805	0.168	823961	keystroke_Key.space	Key.space	n/a
412.292	0.1195	824584	keystroke_s	s	n/a
412.5245	0.095	825049	keystroke_c	c	n/a
412.604	0.1205	825208	keystroke_h	h	n/a
412.7395	0.137	825479	keystroke_e	e	n/a
412.932	0.1035	825864	keystroke_m	m	n/a
413.0515	0.1365	826103	keystroke_e	e	n/a
413.1635	0.104	826327	keystroke_s	s	n/a
413.3715	0.136	826743	keystroke_Key.space	Key.space	n/a
413.5635	0.1125	827127	keystroke_s	s	n/a
413.691	0.0885	827382	keystroke_o	o	n/a
413.908	0.087	827816	keystroke_l	l	n/a
414.0035	0.1125	828007	keystroke_a	a	n/a
414.124	0.1345	828248	keystroke_r	r	n/a
414.252	0.0875	828504	keystroke_i	i	n/a
414.3705	0.088	828741	keystroke_s	s	n/a
414.4985	0.136	828997	keystroke_Key.space	Key.space	n/a
414.7545	0.1205	829509	keystroke_r	r	n/a
414.915	0.112	829830	keystroke_u	u	n/a
415.0675	0.1355	830135	keystroke_n	n	n/a
415.195	0.136	830390	keystroke_t	t	n/a
415.347	0.096	830694	keystroke_i	i	n/a
415.547	0.12	831094	keystroke_m	m	n/a
415.755	0.104	831510	keystroke_e	e	n/a
415.995	0.096	831990	keystroke_Key.enter	Key.enter	n/a
416.097	5.601	832194	prompt	n/a	schools suicide cheapest opens\n
416.722	0.112	833444	keystroke_s	s	n/a
416.946	0.144	833892	keystroke_c	c	n/a
416.986	0.12	833972	keystroke_h	h	n/a
417.178	0.08	834356	keystroke_o	o	n/a
417.338	0.08	834676	keystroke_o	o	n/a
417.537	0.121	835074	keystroke_l	l	n/a
417.618	0.143	835236	keystroke_s	s	n/a
417.754	0.1515	835508	keystroke_Key.space	Key.space	n/a
417.913	0.121	835826	keystroke_s	s	n/a
418.057	0.1845	836114	keystroke_u	u	n/a
418.178	0.1355	836356	keystroke_i	i	n/a
418.3055	0.1195	836611	keystroke_c	c	n/a
418.426	0.103	836852	keystroke_i	i	n/a
418.593	0.1045	837186	keystroke_d	d	n/a
418.6495	0.144	837299	keystroke_e	e	n/a
418.8175	0.136	837635	keystroke_Key.space	Key.space	n/a
419.0815	0.1515	838163	keystroke_c	c	n/a
419.297	0.12	838594	keystroke_h	h	n/a
419.665	0.1115	839330	keystroke_e	e	n/a
419.849	0.1115	839698	keystroke_a	a	n/a
419.9615	0.079	839923	keystroke_p	p	n/a
420.241	0.192	840482	keystroke_e	e	n/a
420.377	0.144	840754	keystroke_s	s	n/a
420.513	0.1515	841026	keystroke_t	t	n/a
420.6405	0.136	841281	keystroke_Key.space	Key.space	n/a
420.8805	0.168	841761	keystroke_o	o	n/a
420.9925	0.1205	841985	keystroke_p	p	n/a
421.113	0.1355	842226	keystroke_e	e	n/a
421.2725	0.1045	842545	keystroke_n	n	n/a
421.377	0.0865	842754	keystroke_s	s	n/a
421.6245	0.072	843249	keystroke_Key.enter	Key.enter	n/a
421.7035	5.256	843407	prompt	n/a	memo didn't ultimate relates\n
422.2795	0.089	844559	keystroke_m	m	n/a
422.3765	0.111	844753	keystroke_e	e	n/a
422.4965	0.119	844993	keystroke_m	m	n/a
422.6235	0.144	845247	keystroke_o	o	n/a
422.791	0.177	845582	keystroke_Key.space	Key.space	n/a
423.016	0.104	846032	keystroke_d	d	n/a
423.111	0.097	846222	keystroke_i	i	n/a
423.2395	0.0645	846479	keystroke_d	d	n/a
423.3435	0.0885	846687	keystroke_n	n	n/a
423.5835	0.112	847167	keystroke_'	'	n/a
423.6875	0.136	847375	keystroke_t	t	n/a
423.8235	0.16	847647	keystroke_Key.space	Key.space	n/a
424.1835	0.096	848367	keystroke_u	u	n/a
424.4075	0.072	848815	keystroke_l	l	n/a
424.6075	0.12	849215	keystroke_t	t	n/a
424.6955	0.08	849391	keystroke_i	i	n/a
424.823	0.1445	849646	keystroke_m	m	n/a
424.9435	0.12	849887	keystroke_a	a	n/a
425.151	0.1115	850302	keystroke_t	t	n/a
425.215	0.1365	850430	keystroke_e	e	n/a
425.375	0.151	850750	keystroke_Key.space	Key.space	n/a
425.703	0.152	851406	keystroke_r	r	n/a
425.7665	0.16	851533	keystroke_e	e	n/a
425.9345	0.136	851869	keystroke_l	l	n/a
426.0625	0.0885	852125	keystroke_a	a	n/a
426.199	0.1515	852398	keystroke_t	t	n/a
426.3015	0.137	852603	keystroke_e	e	n/a
426.383	0.103	852766	keystroke_s	s	n/a
426.8215	0.136	853643	keystroke_Key.enter	Key.enter	n/a
426.964	5.41	853928	prompt	n/a	proceeds envelope she delight\n
427.5895	0.096	855179	keystroke_p	p	n/a
427.7015	0.1045	855403	keystroke_r	r	n/a
427.813	0.112	855626	keystroke_o	o	n/a
428.005	0.128	856010	keystroke_c	c	n/a
428.2295	0.104	856459	keystroke_e	e	n/a
428.4215	0.1195	856843	keystroke_e	e	n/a
428.542	0.1195	857084	keystroke_d	d	n/a
428.6775	0.16	857355	keystroke_s	s	n/a
428.853	0.176	857706	keystroke_Key.space	Key.space	n/a
428.997	0.136	857994	keystroke_e	e	n/a
429.142	0.087	858284	keystroke_n	n	n/a
429.309	0.08	858618	keystroke_v	v	n/a
429.4215	0.1275	858843	keystroke_e	e	n/a
429.573	0.0795	859146	keystroke_l	l	n/a
429.8135	0.1595	859627	keystroke_o	o	n/a
429.925	0.152	859850	keystroke_p	p	n/a
430.1885	0.1205	860377	keystroke_e	e	n/a
430.421	0.12	860842	keystroke_Key.space	Key.space	n/a
430.6765	0.0965	861353	keystroke_s	s	n/a
430.7805	0.1045	861561	keystroke_h	h	n/a
430.9005	0.12	861801	keystroke_e	e	n/a
431.037	0.1515	862074	keystroke_Key.space	Key.space	n/a
431.34	0.104	862680	keystroke_d	d	n/a
431.429	0.143	862858	keystroke_e	e	n/a
431.573	0.0635	863146	keystroke_l	l	n/a
431.652	0.136	863304	keystroke_i	i	n/a
431.7805	0.1045	863561	keystroke_g	g	n/a
431.885	0.1275	863770	keystroke_h	h	n/a
432.005	0.144	864010	keystroke_t	t	n/a
432.292	0.08	864584	keystroke_Key.enter	Key.enter	n/a
432.378	5.3695	864756	prompt	n/a	auto wallace interest probe\n
433.0925	0.1435	866185	keystroke_a	a	n/a
433.252	0.112	866504	keystroke_u	u	n/a
433.388	0.136	866776	keystroke_t	t	n/a
433.5	0.1195	867000	keystroke_o	o	n/a
433.6035	0.1765	867207	keystroke_Key.space	Key.space	n/a
433.835	0.0645	867670	keystroke_w	w	n/a
433.907	0.1365	867814	keystroke_a	a	n/a
434.0515	0.0795	868103	keystroke_l	l	n/a
434.227	0.08	868454	keystroke_l	l	n/a
434.331	0.104	868662	keystroke_a	a	n/a
434.571	0.104	869142	keystroke_c	c	n/a
434.635	0.1365	869270	keystroke_e	e	n/a
434.834	0.153	869668	keystroke_Key.space	Key.space	n/a
435.011	0.08	870022	keystroke_i	i	n/a
435.251	0.144	870502	keystroke_n	n	n/a
435.427	0.088	870854	keystroke_t	t	n/a
435.619	0.112	871238	keystroke_e	e	n/a
435.707	0.152	871414	keystroke_r	r	n/a
435.883	0.1675	871766	keystroke_e	e	n/a
436.107	0.1035	872214	keystroke_s	s	n/a
436.259	0.1195	872518	keystroke_t	t	n/a
436.6185	0.1275	873237	keystroke_Key.space	Key.space	n/a
436.81	0.112	873620	keystroke_p	p	n/a
436.9305	0.135	873861	keystroke_r	r	n/a
437.0425	0.088	874085	keystroke_o	o	n/a
437.2745	0.0955	874549	keystroke_b	b	n/a
437.3775	0.112	874755	keystroke_e	e	n/a
437.666	0.0795	875332	keystroke_Key.enter	Key.enter	n/a
437.7505	6.5485	875501	prompt	n/a	spots symposium dietary baseball\n
438.402	0.0875	876804	keystroke_s	s	n/a
438.562	0.1035	877124	keystroke_p	p	n/a
438.7375	0.1275	877475	keystroke_o	o	n/a
438.921	0.1685	877842	keystroke_t	t	n/a
439.1375	0.08	878275	keystroke_s	s	n/a
439.321	0.152	878642	keystroke_Key.space	Key.space	n/a
439.529	0.089	879058	keystroke_s	s	n/a
439.609	0.1205	879218	keystroke_y	y	n/a
439.873	0.1205	879746	keystroke_m	m	n/a
440.121	0.096	880242	keystroke_p	p	n/a
440.3535	0.1115	880707	keystroke_o	o	n/a
440.5285	0.1115	881057	keystroke_s	s	n/a
440.664	0.1205	881328	keystroke_i	i	n/a
441.033	0.095	882066	keystroke_u	u	n/a
441.225	0.095	882450	keystroke_m	m	n/a
441.32	0.1445	882640	keystroke_Key.space	Key.space	n/a
441.6565	0.112	883313	keystroke_d	d	n/a
441.7515	0.1455	883503	keystroke_i	i	n/a
441.888	0.176	883776	keystroke_e	e	n/a
442.088	0.128	884176	keystroke_t	t	n/a
442.353	0.1275	884706	keystroke_a	a	n/a
442.448	0.1205	884896	keystroke_r	r	n/a
442.5605	0.136	885121	keystroke_y	y	n/a
442.7205	0.167	885441	keystroke_Key.space	Key.space	n/a
442.9045	0.128	885809	keystroke_b	b	n/a
443.0645	0.1275	886129	keystroke_a	a	n/a
443.1525	0.1115	886305	keystroke_s	s	n/a
443.368	0.088	886736	keystroke_e	e	n/a
443.4875	0.12	886975	keystroke_b	b	n/a
443.6875	0.0885	887375	keystroke_a	a	n/a
443.776	0.0795	887552	keystroke_l	l	n/a
443.9355	0.096	887871	keystroke_l	l	n/a
444.2315	0.0635	888463	keystroke_Key.enter	Key.enter	n/a
444.3015	8.1925	888603	prompt	n/a	jennifer planning greeting suited\n
445.0635	0.1195	890127	keystroke_j	j	n/a
445.3995	0.112	890799	keystroke_e	e	n/a
445.527	0.088	891054	keystroke_n	n	n/a
445.9025	0.0955	891805	keystroke_n	n	n/a
446.103	0.112	892206	keystroke_i	i	n/a
446.207	0.111	892414	keystroke_f	f	n/a
446.3995	0.1435	892799	keystroke_e	e	n/a
446.511	0.16	893022	keystroke_r	r	n/a
446.663	0.144	893326	keystroke_Key.space	Key.space	n/a
446.95	0.073	893900	keystroke_p	p	n/a
447.239	0.096	894478	keystroke_l	l	n/a
447.4065	0.0885	894813	keystroke_a	a	n/a
447.5425	0.0795	895085	keystroke_n	n	n/a
447.678	0.112	895356	keystroke_n	n	n/a
447.895	0.071	895790	keystroke_i	i	n/a
448.062	0.1125	896124	keystroke_n	n	n/a
448.1265	0.136	896253	keystroke_g	g	n/a
448.2385	0.16	896477	keystroke_Key.space	Key.space	n/a
448.422	0.1125	896844	keystroke_f	f	n/a
448.67	0.0955	897340	keystroke_r	r	n/a
448.7335	0.1925	897467	keystroke_e	e	n/a
449.2535	0.072	898507	keystroke_Key.backspace	Key.backspace	n/a
449.4375	0.048	898875	keystroke_Key.backspace	Key.backspace	n/a
449.7815	0.104	899563	keystroke_Key.backspace	Key.backspace	n/a
450.134	0.096	900268	keystroke_g	g	n/a
450.3575	0.111	900715	keystroke_r	r	n/a
450.4135	0.144	900827	keystroke_e	e	n/a
450.6855	0.12	901371	keystroke_e	e	n/a
450.8375	0.1195	901675	keystroke_t	t	n/a
450.925	0.0875	901850	keystroke_i	i	n/a
451.109	0.1285	902218	keystroke_n	n	n/a
451.1805	0.128	902361	keystroke_g	g	n/a
451.293	0.167	902586	keystroke_Key.space	Key.space	n/a
451.421	0.104	902842	keystroke_s	s	n/a
451.525	0.152	903050	keystroke_u	u	n/a
451.597	0.143	903194	keystroke_i	i	n/a
451.716	0.129	903432	keystroke_t	t	n/a
451.8455	0.168	903691	keystroke_e	e	n/a
451.9885	0.1125	903977	keystroke_d	d	n/a
452.42	0.0725	904840	keystroke_Key.enter	Key.enter	n/a
452.4985	5.681	904997	prompt	n/a	sunny todd sitemap mandatory\n
453.156	0.088	906312	keystroke_s	s	n/a
453.26	0.072	906520	keystroke_u	u	n/a
453.4205	0.0955	906841	keystroke_n	n	n/a
453.62	0.056	907240	keystroke_n	n	n/a
453.78	0.1365	907560	keystroke_y	y	n/a
454.1315	0.152	908263	keystroke_Key.space	Key.space	n/a
454.2915	0.1195	908583	keystroke_t	t	n/a
454.403	0.088	908806	keystroke_o	o	n/a
454.7155	0.1285	909431	keystroke_d	d	n/a
454.9	0.112	909800	keystroke_d	d	n/a
455.075	0.152	910150	keystroke_Key.space	Key.space	n/a
455.243	0.088	910486	keystroke_s	s	n/a
455.324	0.079	910648	keystroke_i	i	n/a
455.412	0.1515	910824	keystroke_t	t	n/a
455.5155	0.128	911031	keystroke_e	e	n/a
455.755	0.096	911510	keystroke_m	m	n/a
455.859	0.1285	911718	keystroke_a	a	n/a
456.1145	0.065	912229	keystroke_p	p	n/a
456.306	0.137	912612	keystroke_Key.space	Key.space	n/a
456.5715	0.0865	913143	keystroke_m	m	n/a
456.667	0.12	913334	keystroke_a	a	n/a
456.811	0.1115	913622	keystroke_n	n	n/a
456.9465	0.1285	913893	keystroke_d	d	n/a
457.1945	0.0965	914389	keystroke_a	a	n/a
457.387	0.12	914774	keystroke_t	t	n/a
457.531	0.072	915062	keystroke_o	o	n/a
457.635	0.112	915270	keystroke_r	r	n/a
457.738	0.1205	915476	keystroke_y	y	n/a
458.0985	0.0795	916197	keystroke_Key.enter	Key.enter	n/a
458.1835	5.2825	916367	prompt	n/a	outer mothers accessory river\n
458.762	0.0965	917524	keystroke_o	o	n/a
458.9535	0.1205	917907	keystroke_u	u	n/a
459.0665	0.111	918133	keystroke_t	t	n/a
459.2265	0.16	918453	keystroke_e	e	n/a
459.3465	0.1115	918693	keystroke_r	r	n/a
459.4735	0.1525	918947	keystroke_Key.space	Key.space	n/a
459.6095	0.145	919219	keystroke_m	m	n/a
459.7945	0.1195	919589	keystroke_o	o	n/a
460.0255	0.1125	920051	keystroke_t	t	n/a
460.1135	0.1365	920227	keystroke_h	h	n/a
460.202	0.119	920404	keystroke_e	e	n/a
460.281	0.1445	920562	keystroke_r	r	n/a
460.4095	0.1195	920819	keystroke_s	s	n/a
460.577	0.1365	921154	keystroke_Key.space	Key.space	n/a
460.7375	0.1115	921475	keystroke_a	a	n/a
461.137	0.081	922274	keystroke_c	c	n/a
461.337	0.136	922674	keystroke_c	c	n/a
461.489	0.152	922978	keystroke_e	e	n/a
461.642	0.1345	923284	keystroke_s	s	n/a
461.865	0.1115	923730	keystroke_s	s	n/a
461.993	0.112	923986	keystroke_o	o	n/a
462.1455	0.136	924291	keystroke_r	r	n/a
462.2415	0.143	924483	keystroke_y	y	n/a
462.425	0.152	924850	keystroke_Key.space	Key.space	n/a
462.5925	0.1205	925185	keystroke_r	r	n/a
462.737	0.112	925474	keystroke_i	i	n/a
462.873	0.1115	925746	keystroke_v	v	n/a
463.089	0.1115	926178	keystroke_e	e	n/a
463.144	0.153	926288	keystroke_r	r	n/a
463.4005	0.0635	926801	keystroke_Key.enter	Key.enter	n/a
463.469	7.523	926938	prompt	n/a	increasingly freely grades promotes\n
463.984	0.08	927968	keystroke_i	i	n/a
464.1845	0.12	928369	keystroke_n	n	n/a
464.2885	0.104	928577	keystroke_c	c	n/a
464.5525	0.128	929105	keystroke_r	r	n/a
464.6405	0.136	929281	keystroke_e	e	n/a
464.8165	0.1355	929633	keystroke_a	a	n/a
464.936	0.0955	929872	keystroke_s	s	n/a
465.0475	0.088	930095	keystroke_i	i	n/a
465.2155	0.1205	930431	keystroke_n	n	n/a
465.304	0.127	930608	keystroke_g	g	n/a
465.456	0.111	930912	keystroke_l	l	n/a
465.624	0.128	931248	keystroke_y	y	n/a
465.831	0.1525	931662	keystroke_Key.space	Key.space	n/a
465.992	0.088	931984	keystroke_f	f	n/a
466.24	0.08	932480	keystroke_r	r	n/a
466.28	0.1275	932560	keystroke_e	e	n/a
466.487	0.0725	932974	keystroke_e	e	n/a
466.6715	0.088	933343	keystroke_l	l	n/a
466.879	0.1205	933758	keystroke_y	y	n/a
467.047	0.1445	934094	keystroke_Key.space	Key.space	n/a
467.199	0.1045	934398	keystroke_g	g	n/a
467.447	0.144	934894	keystroke_r	r	n/a
467.599	0.1435	935198	keystroke_a	a	n/a
467.8395	0.072	935679	keystroke_d	d	n/a
467.8875	0.1595	935775	keystroke_e	e	n/a
467.9675	0.143	935935	keystroke_s	s	n/a
468.1435	0.152	936287	keystroke_Key.space	Key.space	n/a
468.3345	0.104	936669	keystroke_p	p	n/a
468.423	0.1195	936846	keystroke_r	r	n/a
468.5105	0.112	937021	keystroke_o	o	n/a
468.7745	0.128	937549	keystroke_m	m	n/a
468.9185	0.1195	937837	keystroke_o	o	n/a
469.047	0.111	938094	keystroke_t	t	n/a
469.191	0.079	938382	keystroke_o	o	n/a
469.2545	0.1435	938509	keystroke_e	e	n/a
469.359	0.119	938718	keystroke_s	s	n/a
469.742	0.0645	939484	keystroke_Key.backspace	Key.backspace	n/a
469.9185	0.056	939837	keystroke_Key.backspace	Key.backspace	n/a
470.11	0.0885	940220	keystroke_Key.backspace	Key.backspace	n/a
470.2465	0.128	940493	keystroke_e	e	n/a
470.3265	0.128	940653	keystroke_s	s	n/a
470.91	0.08	941820	keystroke_Key.enter	Key.enter	n/a
470.996	8.409	941992	prompt	n/a	acceptable testimonials jacksonville sally\n
471.75	0.0795	943500	keystroke_a	a	n/a
471.9815	0.08	943963	keystroke_c	c	n/a
472.1415	0.104	944283	keystroke_c	c	n/a
472.2535	0.136	944507	keystroke_e	e	n/a
472.3975	0.104	944795	keystroke_p	p	n/a
472.4935	0.1125	944987	keystroke_t	t	n/a
472.661	0.12	945322	keystroke_a	a	n/a
472.813	0.0885	945626	keystroke_b	b	n/a
473.029	0.12	946058	keystroke_l	l	n/a
473.1255	0.0955	946251	keystroke_e	e	n/a
473.197	0.168	946394	keystroke_Key.space	Key.space	n/a
473.333	0.112	946666	keystroke_t	t	n/a
473.453	0.1275	946906	keystroke_e	e	n/a
473.5815	0.1435	947163	keystroke_s	s	n/a
473.749	0.136	947498	keystroke_t	t	n/a
473.9005	0.088	947801	keystroke_i	i	n/a
474.0845	0.1195	948169	keystroke_m	m	n/a
474.349	0.063	948698	keystroke_o	o	n/a
