onset	duration	sample	value	key	prompt_text
6.1275	0.079	12255	keystroke_Key.media_volume_down	Key.media_volume_down	n/a
6.341	0.0565	12682	keystroke_Key.media_volume_down	Key.media_volume_down	n/a
6.499	0.0785	12998	keystroke_Key.media_volume_down	Key.media_volume_down	n/a
23.8695	0.0665	47739	keystroke_s	s	n/a
23.925	0.1125	47850	keystroke_e	e	n/a
24.0265	0.09	48053	keystroke_a	a	n/a
24.1275	0.09	48255	keystroke_n	n	n/a
24.2515	0.101	48503	keystroke_b	b	n/a
24.3865	0.0675	48773	keystroke_i	i	n/a
24.4425	0.0565	48885	keystroke_t	t	n/a
24.6	0.0565	49200	keystroke_t	t	n/a
24.7125	0.0675	49425	keystroke_n	n	n/a
24.7915	0.09	49583	keystroke_e	e	n/a
24.859	0.0675	49718	keystroke_r	r	n/a
25.2415	0.0335	50483	keystroke_Key.tab	Key.tab	n/a
25.5675	0.045	51135	keystroke_o	o	n/a
25.59	0.09	51180	keystroke_n	n	n/a
25.725	0.079	51450	keystroke_Key.tab	Key.tab	n/a
34.624	0.1235	69248	keystroke_c	c	n/a
34.8485	0.068	69697	keystroke_c	c	n/a
35.9515	0.135	71903	keystroke_Key.cmd	Key.cmd	n/a
36.008	0.067	72016	keystroke_v	v	n/a
47.8405	6.259	95681	prompt	n/a	the quick brown fox jumps over a lazy dog\n
48.9115	0.0565	97823	keystroke_t	t	n/a
49.0015	0.09	98003	keystroke_h	h	n/a
49.035	0.0675	98070	keystroke_e	e	n/a
49.114	0.09	98228	keystroke_Key.space	Key.space	n/a
49.249	0.09	98498	keystroke_q	q	n/a
49.35	0.09	98700	keystroke_u	u	n/a
49.429	0.101	98858	keystroke_i	i	n/a
49.5415	0.0675	99083	keystroke_c	c	n/a
49.6425	0.124	99285	keystroke_k	k	n/a
49.7215	0.1235	99443	keystroke_Key.space	Key.space	n/a
49.8565	0.0785	99713	keystroke_b	b	n/a
50.3065	0.0785	100613	keystroke_r	r	n/a
50.3965	0.0785	100793	keystroke_o	o	n/a
50.4975	0.079	100995	keystroke_w	w	n/a
50.61	0.1125	101220	keystroke_n	n	n/a
50.6775	0.124	101355	keystroke_Key.space	Key.space	n/a
50.903	0.0895	101806	keystroke_f	f	n/a
51.004	0.0675	102008	keystroke_o	o	n/a
51.094	0.1125	102188	keystroke_x	x	n/a
51.2175	0.124	102435	keystroke_Key.space	Key.space	n/a
51.308	0.0785	102616	keystroke_j	j	n/a
51.465	0.079	102930	keystroke_u	u	n/a
51.6565	0.1575	103313	keystroke_m	m	n/a
51.7015	0.101	103403	keystroke_p	p	n/a
51.859	0.09	103718	keystroke_s	s	n/a
51.96	0.1015	103920	keystroke_Key.space	Key.space	n/a
52.185	0.0675	104370	keystroke_o	o	n/a
52.2865	0.09	104573	keystroke_v	v	n/a
52.4325	0.135	104865	keystroke_e	e	n/a
52.5565	0.045	105113	keystroke_r	r	n/a
52.602	0.078	105204	keystroke_Key.space	Key.space	n/a
52.714	0.0675	105428	keystroke_a	a	n/a
52.86	0.0675	105720	keystroke_Key.space	Key.space	n/a
53.029	0.09	106058	keystroke_l	l	n/a
53.13	0.0675	106260	keystroke_a	a	n/a
53.3215	0.0675	106643	keystroke_z	z	n/a
53.4225	0.1015	106845	keystroke_y	y	n/a
53.49	0.1125	106980	keystroke_Key.space	Key.space	n/a
53.625	0.09	107250	keystroke_d	d	n/a
53.7375	0.09	107475	keystroke_o	o	n/a
53.85	0.079	107700	keystroke_g	g	n/a
53.985	0.1125	107970	keystroke_Key.enter	Key.enter	n/a
54.1025	4.9795	108205	prompt	n/a	arbitrary pound woman safety\n
54.739	0.09	109478	keystroke_a	a	n/a
54.84	0.1125	109680	keystroke_r	r	n/a
55.054	0.0785	110108	keystroke_b	b	n/a
55.2115	0.0675	110423	keystroke_i	i	n/a
55.3245	0.056	110649	keystroke_t	t	n/a
55.4925	0.079	110985	keystroke_r	r	n/a
55.65	0.1125	111300	keystroke_a	a	n/a
55.729	0.09	111458	keystroke_r	r	n/a
56.0325	0.0235	112065	keystroke_y	y	n/a
56.044	0.0785	112088	keystroke_Key.space	Key.space	n/a
56.179	0.0675	112358	keystroke_p	p	n/a
56.2015	0.1685	112403	keystroke_o	o	n/a
56.3025	0.1125	112605	keystroke_u	u	n/a
56.6515	0.09	113303	keystroke_n	n	n/a
56.7865	0.09	113573	keystroke_d	d	n/a
56.9325	0.1015	113865	keystroke_Key.space	Key.space	n/a
57.1125	0.101	114225	keystroke_w	w	n/a
57.2025	0.1015	114405	keystroke_o	o	n/a
57.27	0.09	114540	keystroke_m	m	n/a
57.394	0.09	114788	keystroke_a	a	n/a
57.529	0.101	115058	keystroke_n	n	n/a
57.6525	0.1015	115305	keystroke_Key.space	Key.space	n/a
57.844	0.079	115688	keystroke_s	s	n/a
57.945	0.1575	115890	keystroke_a	a	n/a
58.08	0.09	116160	keystroke_f	f	n/a
58.2715	0.1125	116543	keystroke_e	e	n/a
58.429	0.0895	116858	keystroke_t	t	n/a
58.5755	0.101	117151	keystroke_y	y	n/a
59.0365	0.045	118073	keystroke_Key.enter	Key.enter	n/a
59.085	5.532	118170	prompt	n/a	bizarre turn crafts photographers\n
59.6775	0.124	119355	keystroke_b	b	n/a
59.858	0.112	119716	keystroke_i	i	n/a
59.9815	0.101	119963	keystroke_z	z	n/a
60.24	0.1575	120480	keystroke_a	a	n/a
60.555	0.035	121110	keystroke_r	r	n/a
60.679	0.1125	121358	keystroke_r	r	n/a
60.7805	0.0785	121561	keystroke_e	e	n/a
60.8925	0.1235	121785	keystroke_Key.space	Key.space	n/a
61.0275	0.068	122055	keystroke_t	t	n/a
61.1065	0.09	122213	keystroke_u	u	n/a
61.2075	0.0785	122415	keystroke_r	r	n/a
61.32	0.1015	122640	keystroke_n	n	n/a
61.3875	0.1125	122775	keystroke_Key.space	Key.space	n/a
61.6245	0.078	123249	keystroke_c	c	n/a
61.8265	0.0785	123653	keystroke_r	r	n/a
61.8935	0.1015	123787	keystroke_a	a	n/a
62.029	0.067	124058	keystroke_f	f	n/a
62.1975	0.1235	124395	keystroke_t	t	n/a
62.31	0.0905	124620	keystroke_s	s	n/a
62.445	0.135	124890	keystroke_Key.space	Key.space	n/a
62.5915	0.1235	125183	keystroke_p	p	n/a
62.6815	0.1575	125363	keystroke_h	h	n/a
62.94	0.1015	125880	keystroke_o	o	n/a
63.075	0.0675	126150	keystroke_t	t	n/a
63.165	0.0785	126330	keystroke_o	o	n/a
63.289	0.09	126578	keystroke_g	g	n/a
63.503	0.112	127006	keystroke_r	r	n/a
63.5925	0.079	127185	keystroke_a	a	n/a
63.7165	0.101	127433	keystroke_p	p	n/a
63.7615	0.1125	127523	keystroke_h	h	n/a
63.9415	0.0785	127883	keystroke_e	e	n/a
63.9865	0.112	127973	keystroke_r	r	n/a
64.1215	0.0785	128243	keystroke_s	s	n/a
64.56	0.056	129120	keystroke_Key.enter	Key.enter	n/a
64.6205	5.3625	129241	prompt	n/a	scanning exhibitions year mars\n
65.4265	0.067	130853	keystroke_s	s	n/a
65.6625	0.09	131325	keystroke_c	c	n/a
65.719	0.101	131438	keystroke_a	a	n/a
65.8875	0.056	131775	keystroke_n	n	n/a
66.056	0.0565	132112	keystroke_n	n	n/a
66.214	0.112	132428	keystroke_i	i	n/a
66.293	0.067	132586	keystroke_n	n	n/a
66.371	0.057	132742	keystroke_g	g	n/a
66.3935	0.1015	132787	keystroke_Key.space	Key.space	n/a
66.799	0.0785	133598	keystroke_e	e	n/a
67.046	0.034	134092	keystroke_x	x	n/a
67.1925	0.101	134385	keystroke_h	h	n/a
67.856	0.0675	135712	keystroke_i	i	n/a
67.958	0.1005	135916	keystroke_b	b	n/a
68.07	0.09	136140	keystroke_i	i	n/a
68.171	0.09	136342	keystroke_t	t	n/a
68.2735	0.1565	136547	keystroke_i	i	n/a
68.3285	0.079	136657	keystroke_o	o	n/a
68.396	0.1015	136792	keystroke_n	n	n/a
68.5425	0.079	137085	keystroke_s	s	n/a
68.655	0.1125	137310	keystroke_Key.space	Key.space	n/a
68.835	0.1235	137670	keystroke_y	y	n/a
68.891	0.1465	137782	keystroke_e	e	n/a
68.97	0.1125	137940	keystroke_a	a	n/a
69.0485	0.091	138097	keystroke_r	r	n/a
69.161	0.09	138322	keystroke_Key.space	Key.space	n/a
69.285	0.09	138570	keystroke_m	m	n/a
69.3975	0.135	138795	keystroke_a	a	n/a
69.51	0.1125	139020	keystroke_r	r	n/a
69.701	0.1015	139402	keystroke_s	s	n/a
69.9035	0.079	139807	keystroke_Key.enter	Key.enter	n/a
69.986	3.5185	139972	prompt	n/a	wrote surge stated uncle\n
70.5785	0.1015	141157	keystroke_w	w	n/a
70.6915	0.0785	141383	keystroke_r	r	n/a
70.7925	0.09	141585	keystroke_o	o	n/a
70.8935	0.135	141787	keystroke_t	t	n/a
70.9725	0.0675	141945	keystroke_e	e	n/a
71.051	0.0905	142102	keystroke_Key.space	Key.space	n/a
71.175	0.1015	142350	keystroke_s	s	n/a
71.31	0.09	142620	keystroke_u	u	n/a
71.366	0.1015	142732	keystroke_r	r	n/a
71.5575	0.0785	143115	keystroke_g	g	n/a
71.6475	0.101	143295	keystroke_e	e	n/a
71.7715	0.135	143543	keystroke_Key.space	Key.space	n/a
71.94	0.0675	143880	keystroke_s	s	n/a
72.0185	0.0905	144037	keystroke_t	t	n/a
72.131	0.1125	144262	keystroke_a	a	n/a
72.21	0.101	144420	keystroke_t	t	n/a
72.3225	0.0785	144645	keystroke_e	e	n/a
72.5135	0.079	145027	keystroke_d	d	n/a
72.6035	0.1125	145207	keystroke_Key.space	Key.space	n/a
72.7505	0.078	145501	keystroke_u	u	n/a
72.9525	0.09	145905	keystroke_n	n	n/a
73.0535	0.0905	146107	keystroke_c	c	n/a
73.189	0.067	146378	keystroke_l	l	n/a
73.2675	0.079	146535	keystroke_e	e	n/a
73.425	0.0785	146850	keystroke_Key.enter	Key.enter	n/a
73.5075	5.117	147015	prompt	n/a	recorded moments accessory use\n
74.111	0.1125	148222	keystroke_r	r	n/a
74.179	0.0895	148358	keystroke_e	e	n/a
74.6625	0.1125	149325	keystroke_c	c	n/a
74.8425	0.0785	149685	keystroke_o	o	n/a
74.9215	0.112	149843	keystroke_r	r	n/a
75.023	0.078	150046	keystroke_d	d	n/a
75.2475	0.056	150495	keystroke_e	e	n/a
75.405	0.0785	150810	keystroke_d	d	n/a
75.5175	0.1125	151035	keystroke_Key.space	Key.space	n/a
75.6185	0.09	151237	keystroke_m	m	n/a
75.6975	0.0785	151395	keystroke_o	o	n/a
75.7875	0.1125	151575	keystroke_m	m	n/a
75.911	0.1015	151822	keystroke_e	e	n/a
76.0235	0.1125	152047	keystroke_n	n	n/a
76.1475	0.101	152295	keystroke_t	t	n/a
76.2375	0.0785	152475	keystroke_s	s	n/a
76.3275	0.1575	152655	keystroke_Key.space	Key.space	n/a
76.474	0.0785	152948	keystroke_a	a	n/a
76.631	0.09	153262	keystroke_c	c	n/a
76.755	0.146	153510	keystroke_c	c	n/a
77.003	0.022	154006	keystroke_e	e	n/a
77.1935	0.079	154387	keystroke_s	s	n/a
77.3745	0.078	154749	keystroke_s	s	n/a
77.689	0.09	155378	keystroke_o	o	n/a
77.7675	0.0565	155535	keystroke_r	r	n/a
77.8915	0.146	155783	keystroke_y	y	n/a
78.026	0.0675	156052	keystroke_Key.space	Key.space	n/a
78.195	0.09	156390	keystroke_u	u	n/a
78.2965	0.112	156593	keystroke_s	s	n/a
78.375	0.0675	156750	keystroke_e	e	n/a
78.5435	0.0795	157087	keystroke_Key.enter	Key.enter	n/a
78.63	5.382	157260	prompt	n/a	lifestyle regions lucy immediately\n
79.3085	0.1015	158617	keystroke_l	l	n/a
79.5675	0.135	159135	keystroke_i	i	n/a
79.7025	0.0785	159405	keystroke_f	f	n/a
79.759	0.0785	159518	keystroke_e	e	n/a
80.22	0.0785	160440	keystroke_s	s	n/a
80.2875	0.1015	160575	keystroke_t	t	n/a
80.4675	0.079	160935	keystroke_y	y	n/a
80.5465	0.101	161093	keystroke_l	l	n/a
80.715	0.09	161430	keystroke_e	e	n/a
80.816	0.1015	161632	keystroke_Key.space	Key.space	n/a
80.951	0.1125	161902	keystroke_r	r	n/a
80.996	0.1015	161992	keystroke_e	e	n/a
81.2435	0.1125	162487	keystroke_g	g	n/a
81.435	0.1685	162870	keystroke_i	i	n/a
81.5135	0.079	163027	keystroke_o	o	n/a
81.5585	0.1125	163117	keystroke_n	n	n/a
81.705	0.0785	163410	keystroke_s	s	n/a
81.806	0.102	163612	keystroke_Key.space	Key.space	n/a
81.964	0.0895	163928	keystroke_l	l	n/a
82.0875	0.1015	164175	keystroke_u	u	n/a
82.2335	0.0565	164467	keystroke_c	c	n/a
82.346	0.079	164692	keystroke_y	y	n/a
82.4475	0.0785	164895	keystroke_Key.space	Key.space	n/a
82.5825	0.09	165165	keystroke_i	i	n/a
82.751	0.0675	165502	keystroke_m	m	n/a
82.8975	0.0785	165795	keystroke_m	m	n/a
82.9985	0.079	165997	keystroke_e	e	n/a
83.1335	0.124	166267	keystroke_d	d	n/a
83.235	0.09	166470	keystroke_i	i	n/a
83.3475	0.09	166695	keystroke_a	a	n/a
83.3925	0.1235	166785	keystroke_t	t	n/a
83.46	0.1125	166920	keystroke_e	e	n/a
83.6285	0.09	167257	keystroke_l	l	n/a
83.685	0.101	167370	keystroke_y	y	n/a
83.91	0.101	167820	keystroke_Key.enter	Key.enter	n/a
84.015	4.137	168030	prompt	n/a	iran plan book bunch\n
84.6525	0.0675	169305	keystroke_i	i	n/a
84.7085	0.135	169417	keystroke_r	r	n/a
84.7875	0.067	169575	keystroke_e	e	n/a
84.8325	0.0785	169665	keystroke_a	a	n/a
84.9675	0.135	169935	keystroke_n	n	n/a
85.3725	0.0225	170745	keystroke_Key.backspace	Key.backspace	n/a
85.5075	0.0335	171015	keystroke_Key.backspace	Key.backspace	n/a
85.6425	0.09	171285	keystroke_Key.backspace	Key.backspace	n/a
85.8	0.0785	171600	keystroke_a	a	n/a
85.8895	0.0905	171779	keystroke_n	n	n/a
86.0135	0.1015	172027	keystroke_Key.space	Key.space	n/a
86.239	0.056	172478	keystroke_p	p	n/a
86.4075	0.0785	172815	keystroke_l	l	n/a
86.4975	0.09	172995	keystroke_a	a	n/a
86.5985	0.1125	173197	keystroke_n	n	n/a
86.655	0.1235	173310	keystroke_Key.space	Key.space	n/a
86.835	0.1125	173670	keystroke_b	b	n/a
86.936	0.0335	173872	keystroke_o	o	n/a
87.0485	0.1015	174097	keystroke_o	o	n/a
87.161	0.18	174322	keystroke_k	k	n/a
87.285	0.09	174570	keystroke_Key.space	Key.space	n/a
87.4085	0.0785	174817	keystroke_b	b	n/a
87.476	0.09	174952	keystroke_u	u	n/a
87.6675	0.0675	175335	keystroke_n	n	n/a
87.8025	0.0785	175605	keystroke_c	c	n/a
87.8925	0.0785	175785	keystroke_h	h	n/a
88.061	0.09	176122	keystroke_Key.enter	Key.enter	n/a
88.155	6.768	176310	prompt	n/a	activation assumed tender biodiversity\n
88.826	0.1125	177652	keystroke_a	a	n/a
89.0285	0.0785	178057	keystroke_c	c	n/a
89.1635	0.09	178327	keystroke_t	t	n/a
89.265	0.1125	178530	keystroke_i	i	n/a
89.355	0.0895	178710	keystroke_v	v	n/a
89.5125	0.101	179025	keystroke_a	a	n/a
89.591	0.09	179182	keystroke_t	t	n/a
89.715	0.135	179430	keystroke_i	i	n/a
89.7485	0.079	179497	keystroke_o	o	n/a
89.7935	0.135	179587	keystroke_n	n	n/a
89.9065	0.112	179813	keystroke_Key.space	Key.space	n/a
90.165	0.056	180330	keystroke_s	s	n/a
90.8175	0.101	181635	keystroke_Key.backspace	Key.backspace	n/a
90.862	0.1015	181724	keystroke_a	a	n/a
90.952	0.0675	181904	keystroke_s	s	n/a
91.0985	0.0785	182197	keystroke_s	s	n/a
91.2335	0.0675	182467	keystroke_u	u	n/a
91.447	0.0115	182894	keystroke_m	m	n/a
91.4695	0.079	182939	keystroke_e	e	n/a
91.627	0.1125	183254	keystroke_d	d	n/a
91.7285	0.09	183457	keystroke_Key.space	Key.space	n/a
91.875	0.1235	183750	keystroke_t	t	n/a
92.077	0.08	184154	keystroke_e	e	n/a
92.224	0.1005	184448	keystroke_n	n	n/a
92.3135	0.056	184627	keystroke_d	d	n/a
92.505	0.101	185010	keystroke_e	e	n/a
92.5945	0.0905	185189	keystroke_r	r	n/a
92.6855	0.078	185371	keystroke_Key.space	Key.space	n/a
92.8875	0.1125	185775	keystroke_b	b	n/a
92.9885	0.1015	185977	keystroke_i	i	n/a
93.011	0.0675	186022	keystroke_o	o	n/a
93.191	0.0565	186382	keystroke_d	d	n/a
93.36	0.1015	186720	keystroke_i	i	n/a
93.7645	0.1125	187529	keystroke_v	v	n/a
94.0125	0.0895	188025	keystroke_e	e	n/a
94.057	0.124	188114	keystroke_r	r	n/a
94.4165	0.101	188833	keystroke_s	s	n/a
94.484	0.101	188968	keystroke_i	i	n/a
94.596	0.079	189192	keystroke_t	t	n/a
94.6865	0.0895	189373	keystroke_y	y	n/a
94.843	0.079	189686	keystroke_Key.enter	Key.enter	n/a
94.926	3.5045	189852	prompt	n/a	stop latino asks side\n
95.652	0.1125	191304	keystroke_s	s	n/a
95.753	0.079	191506	keystroke_t	t	n/a
95.8205	0.1125	191641	keystroke_o	o	n/a
95.8995	0.067	191799	keystroke_p	p	n/a
95.9775	0.09	191955	keystroke_Key.space	Key.space	n/a
96.2025	0.034	192405	keystroke_l	l	n/a
96.2475	0.101	192495	keystroke_a	a	n/a
96.3375	0.079	192675	keystroke_t	t	n/a
96.427	0.158	192854	keystroke_i	i	n/a
96.574	0.0785	193148	keystroke_n	n	n/a
96.6635	0.1125	193327	keystroke_o	o	n/a
96.877	0.0905	193754	keystroke_Key.space	Key.space	n/a
97.046	0.0675	194092	keystroke_a	a	n/a
97.102	0.09	194204	keystroke_s	s	n/a
97.2595	0.147	194519	keystroke_k	k	n/a
97.339	0.078	194678	keystroke_s	s	n/a
97.5635	0.0785	195127	keystroke_Key.space	Key.space	n/a
97.8895	0.0675	195779	keystroke_s	s	n/a
98.0135	0.1015	196027	keystroke_i	i	n/a
98.0805	0.068	196161	keystroke_d	d	n/a
98.239	0.078	196478	keystroke_e	e	n/a
98.351	0.0785	196702	keystroke_Key.enter	Key.enter	n/a
98.4335	5.7465	196867	prompt	n/a	formerly commands maximize such\n
99.116	0.0785	198232	keystroke_f	f	n/a
99.2285	0.1465	198457	keystroke_o	o	n/a
99.364	0.067	198728	keystroke_m	m	n/a
99.409	0.0895	198818	keystroke_r	r	n/a
99.9375	0.045	199875	keystroke_Key.backspace	Key.backspace	n/a
100.0495	0.124	200099	keystroke_Key.backspace	Key.backspace	n/a
100.185	0.09	200370	keystroke_r	r	n/a
100.2865	0.067	200573	keystroke_m	m	n/a
100.3875	0.09	200775	keystroke_e	e	n/a
100.4435	0.1015	200887	keystroke_r	r	n/a
100.5565	0.135	201113	keystroke_l	l	n/a
100.669	0.112	201338	keystroke_y	y	n/a
100.748	0.1005	201496	keystroke_Key.space	Key.space	n/a
101.0285	0.068	202057	keystroke_c	c	n/a
101.085	0.101	202170	keystroke_o	o	n/a
101.1525	0.101	202305	keystroke_m	m	n/a
101.287	0.102	202574	keystroke_m	m	n/a
101.4675	0.0675	202935	keystroke_a	a	n/a
101.58	0.056	203160	keystroke_n	n	n/a
101.67	0.18	203340	keystroke_d	d	n/a
101.7715	0.101	203543	keystroke_s	s	n/a
101.94	0.1125	203880	keystroke_Key.space	Key.space	n/a
102.1085	0.147	204217	keystroke_m	m	n/a
102.188	0.1345	204376	keystroke_a	a	n/a
102.4125	0.045	204825	keystroke_x	x	n/a
102.446	0.147	204892	keystroke_i	i	n/a
102.604	0.1575	205208	keystroke_m	m	n/a
102.75	0.079	205500	keystroke_i	i	n/a
102.9305	0.135	205861	keystroke_z	z	n/a
103.065	0.0905	206130	keystroke_e	e	n/a
103.2675	0.113	206535	keystroke_Key.space	Key.space	n/a
103.594	0.056	207188	keystroke_s	s	n/a
103.7855	0.0785	207571	keystroke_u	u	n/a
103.8415	0.1125	207683	keystroke_c	c	n/a
103.965	0.0565	207930	keystroke_h	h	n/a
104.089	0.09	208178	keystroke_Key.enter	Key.enter	n/a
104.183	7.49	208366	prompt	n/a	article continued ecommerce detector\n
104.7975	0.1015	209595	keystroke_a	a	n/a
104.865	0.1015	209730	keystroke_r	r	n/a
105.113	0.0785	210226	keystroke_t	t	n/a
105.372	0.1125	210744	keystroke_i	i	n/a
105.484	0.079	210968	keystroke_c	c	n/a
105.6305	0.09	211261	keystroke_l	l	n/a
105.777	0.056	211554	keystroke_e	e	n/a
105.9005	0.146	211801	keystroke_Key.space	Key.space	n/a
106.227	0.0895	212454	keystroke_c	c	n/a
106.3055	0.0785	212611	keystroke_o	o	n/a
106.328	0.135	212656	keystroke_n	n	n/a
106.474	0.0905	212948	keystroke_t	t	n/a
106.6205	0.09	213241	keystroke_i	i	n/a
106.6545	0.09	213309	keystroke_n	n	n/a
106.947	0.045	213894	keystroke_u	u	n/a
106.9805	0.0675	213961	keystroke_e	e	n/a
107.228	0.0115	214456	keystroke_d	d	n/a
107.307	0.1475	214614	keystroke_Key.space	Key.space	n/a
108.1845	0.1125	216369	keystroke_e	e	n/a
108.387	0.0785	216774	keystroke_c	c	n/a
108.477	0.113	216954	keystroke_o	o	n/a
108.567	0.0675	217134	keystroke_m	m	n/a
108.713	0.1015	217426	keystroke_m	m	n/a
108.848	0.113	217696	keystroke_e	e	n/a
108.927	0.1125	217854	keystroke_r	r	n/a
109.197	0.057	218394	keystroke_c	c	n/a
109.411	0.056	218822	keystroke_e	e	n/a
109.5235	0.1235	219047	keystroke_Key.space	Key.space	n/a
109.7485	0.0675	219497	keystroke_d	d	n/a
109.951	0.056	219902	keystroke_e	e	n/a
110.131	0.09	220262	keystroke_t	t	n/a
110.2545	0.079	220509	keystroke_e	e	n/a
110.4795	0.079	220959	keystroke_c	c	n/a
110.671	0.1125	221342	keystroke_t	t	n/a
111.481	0.023	222962	keystroke_o	o	n/a
111.492	0.034	222984	keystroke_r	r	n/a
111.582	0.09	223164	keystroke_Key.enter	Key.enter	n/a
111.676	4.97	223352	prompt	n/a	mirrors disks criminal diving\n
112.3135	0.056	224627	keystroke_m	m	n/a
112.4715	0.1345	224943	keystroke_i	i	n/a
112.6175	0.056	225235	keystroke_r	r	n/a
112.7075	0.101	225415	keystroke_r	r	n/a
112.831	0.1015	225662	keystroke_o	o	n/a
112.9435	0.124	225887	keystroke_r	r	n/a
113.0335	0.101	226067	keystroke_s	s	n/a
113.1685	0.136	226337	keystroke_Key.space	Key.space	n/a
113.3715	0.056	226743	keystroke_d	d	n/a
113.461	0.1125	226922	keystroke_i	i	n/a
113.5625	0.056	227125	keystroke_s	s	n/a
113.675	0.101	227350	keystroke_k	k	n/a
113.765	0.09	227530	keystroke_s	s	n/a
113.956	0.1015	227912	keystroke_Key.space	Key.space	n/a
114.5075	0.09	229015	keystroke_c	c	n/a
114.71	0.0785	229420	keystroke_r	r	n/a
114.8	0.0785	229600	keystroke_i	i	n/a
114.8675	0.101	229735	keystroke_m	m	n/a
115.0475	0.09	230095	keystroke_i	i	n/a
115.104	0.1235	230208	keystroke_n	n	n/a
115.2725	0.0785	230545	keystroke_a	a	n/a
115.396	0.135	230792	keystroke_l	l	n/a
115.711	0.1015	231422	keystroke_Key.space	Key.space	n/a
115.835	0.09	231670	keystroke_d	d	n/a
115.97	0.0785	231940	keystroke_i	i	n/a
116.0265	0.0895	232053	keystroke_v	v	n/a
116.1725	0.101	232345	keystroke_i	i	n/a
116.24	0.1245	232480	keystroke_n	n	n/a
116.364	0.0675	232728	keystroke_g	g	n/a
116.5775	0.0675	233155	keystroke_Key.enter	Key.enter	n/a
116.6485	7.0415	233297	prompt	n/a	republicans telling characteristics adults\n
117.3765	0.0895	234753	keystroke_r	r	n/a
117.4555	0.0785	234911	keystroke_e	e	n/a
117.714	0.101	235428	keystroke_p	p	n/a
117.849	0.1125	235698	keystroke_u	u	n/a
118.029	0.1125	236058	keystroke_b	b	n/a
118.1865	0.09	236373	keystroke_l	l	n/a
118.2315	0.1125	236463	keystroke_i	i	n/a
118.389	0.09	236778	keystroke_c	c	n/a
118.614	0.0675	237228	keystroke_a	a	n/a
118.7385	0.123	237477	keystroke_n	n	n/a
118.8725	0.068	237745	keystroke_s	s	n/a
118.9965	0.1125	237993	keystroke_Key.space	Key.space	n/a
119.165	0.1125	238330	keystroke_t	t	n/a
119.244	0.09	238488	keystroke_e	e	n/a
119.3905	0.0445	238781	keystroke_l	l	n/a
119.5365	0.0785	239073	keystroke_l	l	n/a
119.6715	0.1235	239343	keystroke_i	i	n/a
119.7275	0.1015	239455	keystroke_n	n	n/a
119.84	0.0675	239680	keystroke_g	g	n/a
119.9415	0.1015	239883	keystroke_Key.space	Key.space	n/a
120.099	0.101	240198	keystroke_c	c	n/a
120.2115	0.1015	240423	keystroke_h	h	n/a
120.3015	0.1125	240603	keystroke_a	a	n/a
120.4025	0.1125	240805	keystroke_r	r	n/a
120.5265	0.0785	241053	keystroke_a	a	n/a
120.707	0.067	241414	keystroke_c	c	n/a
120.898	0.067	241796	keystroke_t	t	n/a
121.0325	0.169	242065	keystroke_e	e	n/a
121.19	0.079	242380	keystroke_r	r	n/a
121.359	0.079	242718	keystroke_i	i	n/a
121.5505	0.101	243101	keystroke_s	s	n/a
121.6625	0.0905	243325	keystroke_t	t	n/a
121.8095	0.112	243619	keystroke_i	i	n/a
121.9555	0.135	243911	keystroke_c	c	n/a
122.158	0.045	244316	keystroke_s	s	n/a
122.282	0.0895	244564	keystroke_Key.space	Key.space	n/a
122.3825	0.1015	244765	keystroke_a	a	n/a
122.574	0.09	245148	keystroke_d	d	n/a
123.0465	0.0785	246093	keystroke_u	u	n/a
123.2045	0.0785	246409	keystroke_l	l	n/a
123.294	0.124	246588	keystroke_t	t	n/a
123.3955	0.1015	246791	keystroke_s	s	n/a
123.643	0.0455	247286	keystroke_Key.enter	Key.enter	n/a
123.6935	5.1595	247387	prompt	n/a	focal repeat porsche killed\n
124.464	0.079	248928	keystroke_f	f	n/a
124.555	0.078	249110	keystroke_o	o	n/a
124.6555	0.1125	249311	keystroke_c	c	n/a
124.779	0.1015	249558	keystroke_a	a	n/a
124.9145	0.0905	249829	keystroke_l	l	n/a
124.982	0.101	249964	keystroke_Key.space	Key.space	n/a
125.106	0.112	250212	keystroke_r	r	n/a
125.1735	0.1005	250347	keystroke_e	e	n/a
125.3085	0.112	250617	keystroke_p	p	n/a
125.455	0.134	250910	keystroke_e	e	n/a
125.612	0.1235	251224	keystroke_a	a	n/a
125.7465	0.0565	251493	keystroke_t	t	n/a
125.8365	0.124	251673	keystroke_Key.space	Key.space	n/a
126.1405	0.0675	252281	keystroke_p	p	n/a
126.287	0.09	252574	keystroke_r	r	n/a
126.6695	0.0785	253339	keystroke_Key.backspace	Key.backspace	n/a
126.9055	0.0905	253811	keystroke_o	o	n/a
126.9845	0.0675	253969	keystroke_r	r	n/a
127.232	0.0905	254464	keystroke_s	s	n/a
127.423	0.0565	254846	keystroke_c	c	n/a
127.558	0.079	255116	keystroke_h	h	n/a
127.648	0.0675	255296	keystroke_e	e	n/a
127.8055	0.0455	255611	keystroke_Key.space	Key.space	n/a
127.9295	0.0785	255859	keystroke_k	k	n/a
128.132	0.045	256264	keystroke_i	i	n/a
128.312	0.0335	256624	keystroke_l	l	n/a
128.447	0.0785	256894	keystroke_l	l	n/a
128.537	0.034	257074	keystroke_e	e	n/a
128.695	0.033	257390	keystroke_c	c	n/a
128.8185	0.0335	257637	keystroke_Key.enter	Key.enter	n/a
128.8555	4.531	257711	prompt	n/a	interface eyes his rivers\n
129.977	0.09	259954	keystroke_i	i	n/a
130.0445	0.1235	260089	keystroke_n	n	n/a
130.112	0.079	260224	keystroke_t	t	n/a
130.247	0.1125	260494	keystroke_e	e	n/a
130.326	0.0675	260652	keystroke_r	r	n/a
130.506	0.1015	261012	keystroke_f	f	n/a
130.787	0.0115	261574	keystroke_a	a	n/a
130.8435	0.0785	261687	keystroke_c	c	n/a
131.0795	0.0675	262159	keystroke_e	e	n/a
131.181	0.101	262362	keystroke_Key.space	Key.space	n/a
131.327	0.1015	262654	keystroke_e	e	n/a
131.4735	0.112	262947	keystroke_y	y	n/a
131.5295	0.1015	263059	keystroke_e	e	n/a
131.722	0.123	263444	keystroke_s	s	n/a
131.856	0.101	263712	keystroke_Key.space	Key.space	n/a
132.0245	0.1125	264049	keystroke_h	h	n/a
132.1375	0.0785	264275	keystroke_i	i	n/a
132.227	0.1125	264454	keystroke_s	s	n/a
132.351	0.101	264702	keystroke_Key.space	Key.space	n/a
132.5645	0.1015	265129	keystroke_r	r	n/a
132.6885	0.101	265377	keystroke_i	i	n/a
132.801	0.0785	265602	keystroke_v	v	n/a
132.947	0.135	265894	keystroke_e	e	n/a
133.0485	0.135	266097	keystroke_r	r	n/a
133.116	0.101	266232	keystroke_s	s	n/a
133.3075	0.0785	266615	keystroke_Key.enter	Key.enter	n/a
133.3895	6.6915	266779	prompt	n/a	february explicit remind easier\n
134.0725	0.0445	268145	keystroke_f	f	n/a
134.1285	0.135	268257	keystroke_e	e	n/a
134.7585	0.135	269517	keystroke_b	b	n/a
135.1075	0.1015	270215	keystroke_r	r	n/a
135.276	0.09	270552	keystroke_u	u	n/a
135.377	0.135	270754	keystroke_a	a	n/a
135.4785	0.101	270957	keystroke_r	r	n/a
135.6925	0.045	271385	keystroke_y	y	n/a
136.21	0.079	272420	keystroke_Key.space	Key.space	n/a
136.4235	0.0675	272847	keystroke_e	e	n/a
136.6035	0.09	273207	keystroke_x	x	n/a
136.671	0.1015	273342	keystroke_p	p	n/a
136.8965	0.0785	273793	keystroke_l	l	n/a
136.941	0.0675	273882	keystroke_i	i	n/a
137.065	0.135	274130	keystroke_c	c	n/a
137.2675	0.101	274535	keystroke_i	i	n/a
137.4255	0.078	274851	keystroke_t	t	n/a
137.7625	0.09	275525	keystroke_Key.space	Key.space	n/a
137.8755	0.123	275751	keystroke_r	r	n/a
137.965	0.1125	275930	keystroke_e	e	n/a
138.1	0.135	276200	keystroke_m	m	n/a
138.3585	0.1015	276717	keystroke_i	i	n/a
138.415	0.1125	276830	keystroke_n	n	n/a
138.5395	0.078	277079	keystroke_d	d	n/a
138.6285	0.1125	277257	keystroke_Key.space	Key.space	n/a
138.775	0.101	277550	keystroke_e	e	n/a
139.1575	0.0785	278315	keystroke_a	a	n/a
139.225	0.079	278450	keystroke_s	s	n/a
139.6975	0.0785	279395	keystroke_i	i	n/a
139.7875	0.09	279575	keystroke_e	e	n/a
139.8435	0.09	279687	keystroke_r	r	n/a
140.046	0.034	280092	keystroke_Key.enter	Key.enter	n/a
140.086	5.5865	280172	prompt	n/a	detected migration finished seniors\n
140.699	0.0675	281398	keystroke_d	d	n/a
140.9015	0.09	281803	keystroke_e	e	n/a
141.025	0.124	282050	keystroke_t	t	n/a
141.16	0.068	282320	keystroke_e	e	n/a
141.3735	0.079	282747	keystroke_c	c	n/a
141.5425	0.1125	283085	keystroke_t	t	n/a
141.644	0.0675	283288	keystroke_e	e	n/a
141.8465	0.1125	283693	keystroke_d	d	n/a
141.9925	0.1475	283985	keystroke_Key.space	Key.space	n/a
142.083	0.191	284166	keystroke_m	m	n/a
142.195	0.09	284390	keystroke_i	i	n/a
142.353	0.0785	284706	keystroke_g	g	n/a
142.533	0.124	285066	keystroke_r	r	n/a
142.6565	0.09	285313	keystroke_a	a	n/a
142.735	0.09	285470	keystroke_t	t	n/a
142.8595	0.168	285719	keystroke_i	i	n/a
142.9265	0.1015	285853	keystroke_o	o	n/a
142.96	0.18	285920	keystroke_n	n	n/a
143.1065	0.101	286213	keystroke_Key.space	Key.space	n/a
143.365	0.079	286730	keystroke_f	f	n/a
143.5005	0.0675	287001	keystroke_i	i	n/a
143.545	0.169	287090	keystroke_n	n	n/a
143.68	0.09	287360	keystroke_i	i	n/a
143.815	0.079	287630	keystroke_s	s	n/a
143.906	0.089	287812	keystroke_h	h	n/a
144.0295	0.0555	288059	keystroke_e	e	n/a
144.1865	0.101	288373	keystroke_d	d	n/a
144.299	0.1125	288598	keystroke_Key.space	Key.space	n/a
144.434	0.1575	288868	keystroke_s	s	n/a
144.535	0.1125	289070	keystroke_e	e	n/a
144.67	0.1465	289340	keystroke_n	n	n/a
144.895	0.135	289790	keystroke_i	i	n/a
145.0415	0.0225	290083	keystroke_o	o	n/a
145.0975	0.09	290195	keystroke_r	r	n/a
145.3675	0.0675	290735	keystroke_s	s	n/a
145.6155	0.056	291231	keystroke_Key.enter	Key.enter	n/a
145.6755	5.0825	291351	prompt	n/a	annie office distances compact\n
146.2565	0.0675	292513	keystroke_a	a	n/a
146.3805	0.0675	292761	keystroke_n	n	n/a
146.5155	0.0785	293031	keystroke_n	n	n/a
146.628	0.101	293256	keystroke_i	i	n/a
146.7405	0.068	293481	keystroke_e	e	n/a
146.8755	0.09	293751	keystroke_Key.space	Key.space	n/a
147.134	0.079	294268	keystroke_o	o	n/a
147.27	0.033	294540	keystroke_f	f	n/a
147.404	0.079	294808	keystroke_f	f	n/a
147.5615	0.09	295123	keystroke_i	i	n/a
147.6405	0.079	295281	keystroke_c	c	n/a
147.8205	0.09	295641	keystroke_e	e	n/a
147.944	0.1015	295888	keystroke_Key.space	Key.space	n/a
148.2705	0.0785	296541	keystroke_d	d	n/a
148.383	0.146	296766	keystroke_i	i	n/a
148.5405	0.09	297081	keystroke_s	s	n/a
148.631	0.078	297262	keystroke_t	t	n/a
148.7205	0.0785	297441	keystroke_a	a	n/a
148.867	0.146	297734	keystroke_n	n	n/a
148.9455	0.079	297891	keystroke_c	c	n/a
149.1705	0.0675	298341	keystroke_e	e	n/a
149.249	0.1015	298498	keystroke_s	s	n/a
149.407	0.112	298814	keystroke_Key.space	Key.space	n/a
149.5755	0.079	299151	keystroke_c	c	n/a
149.6655	0.135	299331	keystroke_o	o	n/a
149.722	0.0895	299444	keystroke_m	m	n/a
149.79	0.089	299580	keystroke_p	p	n/a
149.9355	0.057	299871	keystroke_a	a	n/a
150.0705	0.09	300141	keystroke_c	c	n/a
150.3295	0.0675	300659	keystroke_t	t	n/a
150.644	0.113	301288	keystroke_Key.enter	Key.enter	n/a
150.7605	4.4985	301521	prompt	n/a	asset extract height ended\n
151.3305	0.09	302661	keystroke_a	a	n/a
151.4995	0.056	302999	keystroke_s	s	n/a
151.657	0.135	303314	keystroke_s	s	n/a
151.8255	0.09	303651	keystroke_e	e	n/a
151.893	0.1015	303786	keystroke_t	t	n/a
152.051	0.112	304102	keystroke_Key.space	Key.space	n/a
152.1975	0.1005	304395	keystroke_e	e	n/a
152.456	0.0345	304912	keystroke_x	x	n/a
152.602	0.0675	305204	keystroke_t	t	n/a
152.771	0.112	305542	keystroke_r	r	n/a
152.8945	0.0675	305789	keystroke_a	a	n/a
153.063	0.1015	306126	keystroke_c	c	n/a
153.3	0.011	306600	keystroke_t	t	n/a
153.3785	0.0785	306757	keystroke_Key.space	Key.space	n/a
153.536	0.09	307072	keystroke_h	h	n/a
153.7495	0.0565	307499	keystroke_e	e	n/a
153.8285	0.101	307657	keystroke_i	i	n/a
153.9525	0.067	307905	keystroke_g	g	n/a
154.0535	0.1125	308107	keystroke_h	h	n/a
154.177	0.09	308354	keystroke_t	t	n/a
154.3235	0.101	308647	keystroke_Key.space	Key.space	n/a
154.4815	0.078	308963	keystroke_e	e	n/a
154.5935	0.09	309187	keystroke_n	n	n/a
154.6945	0.079	309389	keystroke_d	d	n/a
154.875	0.0445	309750	keystroke_e	e	n/a
155.032	0.0675	310064	keystroke_d	d	n/a
155.212	0.046	310424	keystroke_Key.enter	Key.enter	n/a
155.2625	5.227	310525	prompt	n/a	carlo seller shower preference\n
155.9885	0.0785	311977	keystroke_c	c	n/a
156.225	0.101	312450	keystroke_a	a	n/a
156.2925	0.09	312585	keystroke_r	r	n/a
156.3935	0.0565	312787	keystroke_l	l	n/a
156.541	0.0775	313082	keystroke_o	o	n/a
156.6525	0.101	313305	keystroke_Key.space	Key.space	n/a
156.911	0.169	313822	keystroke_s	s	n/a
157.0235	0.1575	314047	keystroke_e	e	n/a
157.2825	0.0675	314565	keystroke_l	l	n/a
157.4175	0.1125	314835	keystroke_l	l	n/a
157.519	0.1235	315038	keystroke_e	e	n/a
157.631	0.079	315262	keystroke_r	r	n/a
157.721	0.09	315442	keystroke_Key.space	Key.space	n/a
157.8225	0.09	315645	keystroke_s	s	n/a
157.9245	0.1005	315849	keystroke_h	h	n/a
158.0135	0.045	316027	keystroke_o	o	n/a
158.126	0.1015	316252	keystroke_w	w	n/a
158.1715	0.135	316343	keystroke_e	e	n/a
158.2725	0.1235	316545	keystroke_r	r	n/a
158.43	0.101	316860	keystroke_Key.space	Key.space	n/a
158.7005	0.09	317401	keystroke_p	p	n/a
158.779	0.113	317558	keystroke_r	r	n/a
158.8465	0.101	317693	keystroke_e	e	n/a
159.0035	0.09	318007	keystroke_f	f	n/a
159.15	0.124	318300	keystroke_e	e	n/a
159.2405	0.1235	318481	keystroke_r	r	n/a
159.364	0.0335	318728	keystroke_e	e	n/a
159.454	0.1125	318908	keystroke_n	n	n/a
159.645	0.101	319290	keystroke_c	c	n/a
159.8815	0.0785	319763	keystroke_e	e	n/a
160.4215	0.0675	320843	keystroke_Key.enter	Key.enter	n/a
160.4925	4.9815	320985	prompt	n/a	rules penetration highly seller\n
161.13	0.0795	322260	keystroke_r	r	n/a
161.2875	0.1015	322575	keystroke_u	u	n/a
161.333	0.101	322666	keystroke_l	l	n/a
161.423	0.124	322846	keystroke_e	e	n/a
161.491	0.089	322982	keystroke_s	s	n/a
161.614	0.1015	323228	keystroke_Key.space	Key.space	n/a
161.7605	0.0895	323521	keystroke_p	p	n/a
161.884	0.0905	323768	keystroke_e	e	n/a
161.9855	0.1235	323971	keystroke_n	n	n/a
162.1205	0.0785	324241	keystroke_e	e	n/a
162.2445	0.101	324489	keystroke_t	t	n/a
162.4245	0.09	324849	keystroke_r	r	n/a
162.503	0.0785	325006	keystroke_a	a	n/a
162.6605	0.0785	325321	keystroke_t	t	n/a
162.7505	0.18	325501	keystroke_i	i	n/a
162.818	0.1125	325636	keystroke_o	o	n/a
162.8515	0.135	325703	keystroke_n	n	n/a
163.0205	0.146	326041	keystroke_Key.space	Key.space	n/a
163.594	0.09	327188	keystroke_h	h	n/a
163.742	0.111	327484	keystroke_i	i	n/a
163.876	0.1235	327752	keystroke_g	g	n/a
164.0105	0.0335	328021	keystroke_h	h	n/a
164.168	0.0905	328336	keystroke_l	l	n/a
164.213	0.1015	328426	keystroke_y	y	n/a
164.292	0.09	328584	keystroke_Key.space	Key.space	n/a
164.618	0.1125	329236	keystroke_s	s	n/a
164.7085	0.0785	329417	keystroke_e	e	n/a
164.8545	0.0565	329709	keystroke_l	l	n/a
165.0005	0.079	330001	keystroke_l	l	n/a
165.0905	0.124	330181	keystroke_e	e	n/a
165.1805	0.079	330361	keystroke_r	r	n/a
165.3945	0.0785	330789	keystroke_Key.enter	Key.enter	n/a
165.4775	5.971	330955	prompt	n/a	downloads floor point raleigh\n
166.002	0.0675	332004	keystroke_d	d	n/a
166.1145	0.09	332229	keystroke_o	o	n/a
166.216	0.1125	332432	keystroke_w	w	n/a
166.3395	0.0675	332679	keystroke_n	n	n/a
166.452	0.0565	332904	keystroke_l	l	n/a
166.6095	0.09	333219	keystroke_o	o	n/a
166.6885	0.1125	333377	keystroke_a	a	n/a
166.7895	0.079	333579	keystroke_d	d	n/a
166.9695	0.135	333939	keystroke_e	e	n/a
167.161	0.0785	334322	keystroke_s	s	n/a
167.4535	0.0785	334907	keystroke_Key.backspace	Key.backspace	n/a
167.5665	0.101	335133	keystroke_Key.backspace	Key.backspace	n/a
167.667	0.0675	335334	keystroke_s	s	n/a
167.7915	0.123	335583	keystroke_Key.space	Key.space	n/a
168.0835	0.0785	336167	keystroke_f	f	n/a
168.1735	0.056	336347	keystroke_l	l	n/a
168.331	0.056	336662	keystroke_o	o	n/a
168.455	0.09	336910	keystroke_o	o	n/a
168.5785	0.09	337157	keystroke_r	r	n/a
168.6575	0.09	337315	keystroke_Key.space	Key.space	n/a
168.7925	0.09	337585	keystroke_p	p	n/a
169.141	0.079	338282	keystroke_o	o	n/a
169.3435	0.079	338687	keystroke_i	i	n/a
169.535	0.135	339070	keystroke_n	n	n/a
169.681	0.0675	339362	keystroke_t	t	n/a
169.7935	0.079	339587	keystroke_Key.space	Key.space	n/a
169.9175	0.1575	339835	keystroke_r	r	n/a
170.086	0.034	340172	keystroke_a	a	n/a
170.1875	0.056	340375	keystroke_l	l	n/a
170.379	0.0785	340758	keystroke_e	e	n/a
170.5255	0.0895	341051	keystroke_i	i	n/a
170.6265	0.0675	341253	keystroke_g	g	n/a
170.705	0.101	341410	keystroke_h	h	n/a
171.369	0.0785	342738	keystroke_Key.enter	Key.enter	n/a
171.451	4.9705	342902	prompt	n/a	camp blow coastal memo\n
172.1565	0.1235	344313	keystroke_c	c	n/a
172.2465	0.1125	344493	keystroke_a	a	n/a
172.314	0.135	344628	keystroke_m	m	n/a
172.3925	0.1015	344785	keystroke_p	p	n/a
172.6175	0.079	345235	keystroke_Key.space	Key.space	n/a
172.9325	0.0675	345865	keystroke_p	p	n/a
173.293	0.0785	346586	keystroke_Key.backspace	Key.backspace	n/a
173.3825	0.0905	346765	keystroke_b	b	n/a
173.5515	0.0335	347103	keystroke_l	l	n/a
173.698	0.0785	347396	keystroke_o	o	n/a
173.788	0.0785	347576	keystroke_w	w	n/a
173.923	0.112	347846	keystroke_Key.space	Key.space	n/a
174.339	0.034	348678	keystroke_c	c	n/a
174.3845	0.09	348769	keystroke_o	o	n/a
174.474	0.1125	348948	keystroke_a	a	n/a
174.553	0.0785	349106	keystroke_s	s	n/a
174.6765	0.09	349353	keystroke_t	t	n/a
174.924	0.079	349848	keystroke_a	a	n/a
175.0705	0.0785	350141	keystroke_l	l	n/a
175.329	0.114	350658	keystroke_Key.space	Key.space	n/a
175.476	0.078	350952	keystroke_m	m	n/a
175.5765	0.068	351153	keystroke_e	e	n/a
175.678	0.101	351356	keystroke_m	m	n/a
175.8015	0.124	351603	keystroke_o	o	n/a
176.364	0.0565	352728	keystroke_Key.enter	Key.enter	n/a
176.424	5.0495	352848	prompt	n/a	thing share scenarios wireless\n
177.219	0.0675	354438	keystroke_t	t	n/a
177.2985	0.0895	354597	keystroke_h	h	n/a
177.399	0.113	354798	keystroke_i	i	n/a
177.5005	0.09	355001	keystroke_n	n	n/a
177.5795	0.0785	355159	keystroke_g	g	n/a
177.6695	0.0905	355339	keystroke_Key.space	Key.space	n/a
177.76	0.1005	355520	keystroke_s	s	n/a
177.8945	0.101	355789	keystroke_h	h	n/a
177.9505	0.124	355901	keystroke_a	a	n/a
178.0295	0.1235	356059	keystroke_r	r	n/a
178.1195	0.101	356239	keystroke_e	e	n/a
178.2095	0.1235	356419	keystroke_Key.space	Key.space	n/a
178.4005	0.1015	356801	keystroke_s	s	n/a
178.5805	0.079	357161	keystroke_c	c	n/a
178.772	0.056	357544	keystroke_e	e	n/a
178.8845	0.1125	357769	keystroke_n	n	n/a
179.0195	0.1125	358039	keystroke_a	a	n/a
179.1205	0.045	358241	keystroke_r	r	n/a
179.233	0.079	358466	keystroke_i	i	n/a
179.278	0.079	358556	keystroke_o	o	n/a
179.4355	0.1125	358871	keystroke_s	s	n/a
179.6155	0.113	359231	keystroke_Key.space	Key.space	n/a
180.021	0.101	360042	keystroke_w	w	n/a
180.1445	0.101	360289	keystroke_i	i	n/a
180.2235	0.1235	360447	keystroke_r	r	n/a
180.2905	0.1015	360581	keystroke_e	e	n/a
180.437	0.079	360874	keystroke_l	l	n/a
180.696	0.0675	361392	keystroke_e	e	n/a
180.8645	0.0565	361729	keystroke_s	s	n/a
181.011	0.101	362022	keystroke_s	s	n/a
181.427	0.0455	362854	keystroke_Key.enter	Key.enter	n/a
181.4765	5.217	362953	prompt	n/a	talented various rand naughty\n
182.091	0.101	364182	keystroke_t	t	n/a
182.2035	0.067	364407	keystroke_a	a	n/a
182.3045	0.0675	364609	keystroke_l	l	n/a
182.3945	0.1015	364789	keystroke_e	e	n/a
182.5295	0.09	365059	keystroke_n	n	n/a
182.6765	0.089	365353	keystroke_t	t	n/a
182.7545	0.079	365509	keystroke_e	e	n/a
182.991	0.0675	365982	keystroke_d	d	n/a
183.0695	0.091	366139	keystroke_Key.space	Key.space	n/a
183.272	0.1125	366544	keystroke_v	v	n/a
183.486	0.0905	366972	keystroke_a	a	n/a
183.5645	0.079	367129	keystroke_r	r	n/a
183.6545	0.1015	367309	keystroke_i	i	n/a
183.722	0.1125	367444	keystroke_o	o	n/a
183.8125	0.0335	367625	keystroke_i	i	n/a
183.8235	0.1235	367647	keystroke_u	u	n/a
184.0145	0.079	368029	keystroke_s	s	n/a
184.161	0.101	368322	keystroke_Key.space	Key.space	n/a
184.442	0.124	368884	keystroke_r	r	n/a
184.5435	0.09	369087	keystroke_a	a	n/a
184.6335	0.1125	369267	keystroke_n	n	n/a
184.757	0.0675	369514	keystroke_d	d	n/a
184.8695	0.079	369739	keystroke_Key.space	Key.space	n/a
185.0045	0.0905	370009	keystroke_n	n	n/a
185.0945	0.079	370189	keystroke_a	a	n/a
185.207	0.09	370414	keystroke_u	u	n/a
185.3195	0.0675	370639	keystroke_g	g	n/a
185.41	0.112	370820	keystroke_h	h	n/a
185.5225	0.0895	371045	keystroke_t	t	n/a
186.321	0.0675	372642	keystroke_y	y	n/a
186.6245	0.0675	373249	keystroke_Key.enter	Key.enter	n/a
186.6965	4.6765	373393	prompt	n/a	spoken seasons lite circle\n
187.581	0.1015	375162	keystroke_s	s	n/a
187.75	0.0225	375500	keystroke_p	p	n/a
187.761	0.079	375522	keystroke_o	o	n/a
188.031	0.1015	376062	keystroke_k	k	n/a
188.1445	0.089	376289	keystroke_e	e	n/a
188.29	0.1235	376580	keystroke_n	n	n/a
188.4025	0.101	376805	keystroke_Key.space	Key.space	n/a
188.515	0.146	377030	keystroke_s	s	n/a
188.8525	0.056	377705	keystroke_e	e	n/a
188.977	0.078	377954	keystroke_a	a	n/a
189.0435	0.1015	378087	keystroke_s	s	n/a
189.2235	0.1125	378447	keystroke_o	o	n/a
189.28	0.1235	378560	keystroke_n	n	n/a
189.4485	0.09	378897	keystroke_s	s	n/a
189.64	0.1235	379280	keystroke_Key.space	Key.space	n/a
189.944	0.101	379888	keystroke_l	l	n/a
190.0115	0.112	380023	keystroke_i	i	n/a
190.1015	0.112	380203	keystroke_t	t	n/a
190.191	0.1015	380382	keystroke_e	e	n/a
190.36	0.09	380720	keystroke_Key.space	Key.space	n/a
190.4725	0.09	380945	keystroke_c	c	n/a
190.6185	0.1015	381237	keystroke_i	i	n/a
190.7085	0.09	381417	keystroke_r	r	n/a
190.878	0.067	381756	keystroke_c	c	n/a
191.0125	0.09	382025	keystroke_l	l	n/a
191.1365	0.0785	382273	keystroke_e	e	n/a
191.2715	0.101	382543	keystroke_Key.enter	Key.enter	n/a
191.376	5.3975	382752	prompt	n/a	cleveland donna kruger mandate\n
192.127	0.078	384254	keystroke_c	c	n/a
192.554	0.0785	385108	keystroke_l	l	n/a
192.644	0.101	385288	keystroke_e	e	n/a
192.824	0.1235	385648	keystroke_v	v	n/a
192.9365	0.0785	385873	keystroke_e	e	n/a
193.004	0.0785	386008	keystroke_l	l	n/a
193.15	0.09	386300	keystroke_a	a	n/a
193.263	0.112	386526	keystroke_n	n	n/a
193.3975	0.0675	386795	keystroke_d	d	n/a
193.499	0.146	386998	keystroke_Key.space	Key.space	n/a
193.656	0.1245	387312	keystroke_d	d	n/a
193.848	0.1125	387696	keystroke_o	o	n/a
194.0165	0.101	388033	keystroke_n	n	n/a
194.185	0.0785	388370	keystroke_n	n	n/a
194.298	0.0895	388596	keystroke_a	a	n/a
194.4215	0.101	388843	keystroke_Key.space	Key.space	n/a
194.8275	0.089	389655	keystroke_k	k	n/a
194.995	0.09	389990	keystroke_r	r	n/a
195.1415	0.1125	390283	keystroke_u	u	n/a
195.299	0.09	390598	keystroke_g	g	n/a
195.535	0.1125	391070	keystroke_e	e	n/a
195.625	0.09	391250	keystroke_r	r	n/a
195.7825	0.1125	391565	keystroke_Key.space	Key.space	n/a
195.9175	0.0795	391835	keystroke_m	m	n/a
195.9965	0.09	391993	keystroke_a	a	n/a
196.12	0.0905	392240	keystroke_n	n	n/a
196.199	0.1125	392398	keystroke_d	d	n/a
196.3675	0.1015	392735	keystroke_a	a	n/a
196.4465	0.146	392893	keystroke_t	t	n/a
196.5475	0.08	393095	keystroke_e	e	n/a
196.694	0.0785	393388	keystroke_Key.enter	Key.enter	n/a
196.777	5.228	393554	prompt	n/a	private requested lawn techno\n
197.4815	0.079	394963	keystroke_p	p	n/a
197.549	0.09	395098	keystroke_r	r	n/a
197.6725	0.1015	395345	keystroke_i	i	n/a
197.763	0.0895	395526	keystroke_v	v	n/a
197.864	0.113	395728	keystroke_a	a	n/a
197.965	0.1575	395930	keystroke_t	t	n/a
198.044	0.09	396088	keystroke_e	e	n/a
198.179	0.09	396358	keystroke_Key.space	Key.space	n/a
198.359	0.146	396718	keystroke_r	r	n/a
198.494	0.0565	396988	keystroke_e	e	n/a
198.5615	0.09	397123	keystroke_q	q	n/a
198.6965	0.101	397393	keystroke_u	u	n/a
198.809	0.09	397618	keystroke_e	e	n/a
198.9775	0.135	397955	keystroke_s	s	n/a
199.1015	0.1125	398203	keystroke_t	t	n/a
199.203	0.0445	398406	keystroke_e	e	n/a
199.4165	0.0785	398833	keystroke_d	d	n/a
199.5515	0.101	399103	keystroke_Key.space	Key.space	n/a
200.08	0.079	400160	keystroke_l	l	n/a
200.17	0.0575	400340	keystroke_a	a	n/a
200.362	0.1345	400724	keystroke_w	w	n/a
200.699	0.135	401398	keystroke_n	n	n/a
200.789	0.1235	401578	keystroke_Key.space	Key.space	n/a
201.0365	0.1015	402073	keystroke_t	t	n/a
201.0925	0.09	402185	keystroke_e	e	n/a
201.3065	0.056	402613	keystroke_c	c	n/a
201.3515	0.079	402703	keystroke_h	h	n/a
201.6455	0.0885	403291	keystroke_n	n	n/a
201.701	0.089	403402	keystroke_o	o	n/a
201.9475	0.0565	403895	keystroke_Key.enter	Key.enter	n/a
202.0075	4.2275	404015	prompt	n/a	combined we're supplies fill\n
202.7125	0.0565	405425	keystroke_c	c	n/a
202.7575	0.124	405515	keystroke_o	o	n/a
202.87	0.058	405740	keystroke_m	m	n/a
202.915	0.1125	405830	keystroke_b	b	n/a
203.039	0.101	406078	keystroke_i	i	n/a
203.095	0.1125	406190	keystroke_n	n	n/a
203.185	0.079	406370	keystroke_e	e	n/a
203.365	0.0675	406730	keystroke_d	d	n/a
203.444	0.101	406888	keystroke_Key.space	Key.space	n/a
203.6465	0.1125	407293	keystroke_w	w	n/a
203.7475	0.1015	407495	keystroke_e	e	n/a
203.939	0.101	407878	keystroke_'	'	n/a
204.074	0.135	408148	keystroke_r	r	n/a
204.1525	0.0675	408305	keystroke_e	e	n/a
204.265	0.079	408530	keystroke_Key.space	Key.space	n/a
204.445	0.1125	408890	keystroke_s	s	n/a
204.569	0.09	409138	keystroke_u	u	n/a
204.6475	0.0565	409295	keystroke_p	p	n/a
204.839	0.0675	409678	keystroke_p	p	n/a
205.0975	0.09	410195	keystroke_l	l	n/a
205.143	0.0895	410286	keystroke_i	i	n/a
205.244	0.1125	410488	keystroke_e	e	n/a
205.3225	0.124	410645	keystroke_s	s	n/a
205.4575	0.079	410915	keystroke_Key.space	Key.space	n/a
205.57	0.113	411140	keystroke_f	f	n/a
205.6715	0.0785	411343	keystroke_i	i	n/a
205.84	0.0675	411680	keystroke_l	l	n/a
205.9865	0.0675	411973	keystroke_l	l	n/a
206.155	0.079	412310	keystroke_Key.enter	Key.enter	n/a
206.24	4.776	412480	prompt	n/a	another motivation devices writings\n
206.8865	0.1125	413773	keystroke_a	a	n/a
206.9875	0.113	413975	keystroke_n	n	n/a
207.1005	0.067	414201	keystroke_o	o	n/a
207.179	0.09	414358	keystroke_t	t	n/a
207.2805	0.0895	414561	keystroke_h	h	n/a
207.393	0.1015	414786	keystroke_e	e	n/a
207.4605	0.0785	414921	keystroke_r	r	n/a
207.55	0.1015	415100	keystroke_Key.space	Key.space	n/a
207.6515	0.124	415303	keystroke_m	m	n/a
207.6965	0.1015	415393	keystroke_o	o	n/a
207.82	0.1125	415640	keystroke_t	t	n/a
207.9665	0.09	415933	keystroke_i	i	n/a
208.0455	0.101	416091	keystroke_v	v	n/a
208.2365	0.1125	416473	keystroke_a	a	n/a
208.315	0.09	416630	keystroke_t	t	n/a
208.4165	0.146	416833	keystroke_i	i	n/a
208.462	0.0785	416924	keystroke_o	o	n/a
208.518	0.1235	417036	keystroke_n	n	n/a
208.608	0.101	417216	keystroke_Key.space	Key.space	n/a
208.889	0.079	417778	keystroke_d	d	n/a
209.069	0.0785	418138	keystroke_e	e	n/a
209.1815	0.101	418363	keystroke_v	v	n/a
209.3165	0.0785	418633	keystroke_i	i	n/a
209.4065	0.09	418813	keystroke_c	c	n/a
209.6315	0.1015	419263	keystroke_e	e	n/a
209.7215	0.101	419443	keystroke_s	s	n/a
209.8675	0.1015	419735	keystroke_Key.space	Key.space	n/a
210.07	0.124	420140	keystroke_w	w	n/a
210.1825	0.09	420365	keystroke_r	r	n/a
210.295	0.1015	420590	keystroke_i	i	n/a
210.4075	0.079	420815	keystroke_t	t	n/a
210.5205	0.112	421041	keystroke_i	i	n/a
210.588	0.1345	421176	keystroke_n	n	n/a
210.689	0.1125	421378	keystroke_g	g	n/a
210.79	0.0675	421580	keystroke_s	s	n/a
210.914	0.101	421828	keystroke_Key.enter	Key.enter	n/a
211.019	3.8335	422038	prompt	n/a	fraction regulation dock finds\n
211.6115	0.0675	423223	keystroke_f	f	n/a
211.758	0.112	423516	keystroke_r	r	n/a
211.8815	0.0795	423763	keystroke_a	a	n/a
211.994	0.0675	423988	keystroke_c	c	n/a
212.174	0.079	424348	keystroke_t	t	n/a
212.275	0.1355	424550	keystroke_i	i	n/a
212.32	0.079	424640	keystroke_o	o	n/a
212.354	0.1685	424708	keystroke_n	n	n/a
212.455	0.079	424910	keystroke_Key.space	Key.space	n/a
212.579	0.1235	425158	keystroke_r	r	n/a
212.658	0.056	425316	keystroke_e	e	n/a
212.793	0.101	425586	keystroke_g	g	n/a
212.905	0.1465	425810	keystroke_u	u	n/a
212.9725	0.1015	425945	keystroke_l	l	n/a
213.0625	0.09	426125	keystroke_a	a	n/a
213.1415	0.09	426283	keystroke_t	t	n/a
213.2425	0.1805	426485	keystroke_i	i	n/a
213.299	0.113	426598	keystroke_o	o	n/a
213.3665	0.135	426733	keystroke_n	n	n/a
213.4795	0.112	426959	keystroke_Key.space	Key.space	n/a
213.715	0.0795	427430	keystroke_d	d	n/a
213.8275	0.0675	427655	keystroke_o	o	n/a
213.94	0.079	427880	keystroke_c	c	n/a
214.03	0.124	428060	keystroke_k	k	n/a
214.1315	0.101	428263	keystroke_Key.space	Key.space	n/a
214.2775	0.09	428555	keystroke_f	f	n/a
214.3905	0.0785	428781	keystroke_i	i	n/a
214.424	0.1235	428848	keystroke_n	n	n/a
214.559	0.1125	429118	keystroke_d	d	n/a
214.6375	0.09	429275	keystroke_s	s	n/a
214.7615	0.09	429523	keystroke_Key.enter	Key.enter	n/a
214.855	5.69	429710	prompt	n/a	listening works aircraft vids\n
215.4365	0.1125	430873	keystroke_l	l	n/a
215.5155	0.112	431031	keystroke_i	i	n/a
215.639	0.101	431278	keystroke_s	s	n/a
215.7065	0.1235	431413	keystroke_t	t	n/a
215.819	0.09	431638	keystroke_e	e	n/a
215.943	0.101	431886	keystroke_n	n	n/a
216.1455	0.101	432291	keystroke_i	i	n/a
216.2015	0.1235	432403	keystroke_n	n	n/a
216.3365	0.09	432673	keystroke_g	g	n/a
216.4825	0.079	432965	keystroke_Key.space	Key.space	n/a
216.5725	0.1015	433145	keystroke_w	w	n/a
216.663	0.067	433326	keystroke_o	o	n/a
216.7865	0.056	433573	keystroke_r	r	n/a
216.8315	0.08	433663	keystroke_k	k	n/a
217.2815	0.0795	434563	keystroke_s	s	n/a
217.4725	0.1015	434945	keystroke_Key.space	Key.space	n/a
217.8325	0.1015	435665	keystroke_a	a	n/a
218.069	0.101	436138	keystroke_i	i	n/a
218.159	0.056	436318	keystroke_r	r	n/a
218.3615	0.0785	436723	keystroke_c	c	n/a
218.575	0.079	437150	keystroke_r	r	n/a
218.711	0.1005	437422	keystroke_a	a	n/a
218.823	0.0785	437646	keystroke_f	f	n/a
219.0365	0.045	438073	keystroke_t	t	n/a
219.7565	0.09	439513	keystroke_Key.space	Key.space	n/a
220.0375	0.0905	440075	keystroke_v	v	n/a
220.1615	0.1125	440323	keystroke_i	i	n/a
220.285	0.1015	440570	keystroke_d	d	n/a
220.3525	0.079	440705	keystroke_s	s	n/a
220.4765	0.0675	440953	keystroke_Key.enter	Key.enter	n/a
220.548	5.4985	441096	prompt	n/a	trails starting hope friday\n
221.219	0.101	442438	keystroke_t	t	n/a
221.422	0.124	442844	keystroke_r	r	n/a
221.5115	0.09	443023	keystroke_a	a	n/a
221.613	0.135	443226	keystroke_i	i	n/a
221.6805	0.0785	443361	keystroke_l	l	n/a
221.7925	0.0685	443585	keystroke_s	s	n/a
221.8945	0.112	443789	keystroke_Key.space	Key.space	n/a
222.0745	0.1005	444149	keystroke_s	s	n/a
222.1865	0.0675	444373	keystroke_t	t	n/a
222.333	0.112	444666	keystroke_a	a	n/a
222.434	0.0675	444868	keystroke_r	r	n/a
222.603	0.0785	445206	keystroke_t	t	n/a
223.7285	0.078	447457	keystroke_i	i	n/a
223.75	0.113	447500	keystroke_n	n	n/a
223.8745	0.067	447749	keystroke_g	g	n/a
223.9975	0.1135	447995	keystroke_Key.space	Key.space	n/a
224.335	0.0675	448670	keystroke_h	h	n/a
224.369	0.1125	448738	keystroke_o	o	n/a
224.47	0.079	448940	keystroke_p	p	n/a
224.5825	0.1015	449165	keystroke_e	e	n/a
224.695	0.158	449390	keystroke_Key.space	Key.space	n/a
224.8415	0.0335	449683	keystroke_f	f	n/a
224.977	0.1005	449954	keystroke_r	r	n/a
225.145	0.124	450290	keystroke_i	i	n/a
225.2575	0.0675	450515	keystroke_d	d	n/a
225.449	0.09	450898	keystroke_a	a	n/a
225.584	0.09	451168	keystroke_y	y	n/a
225.9775	0.0675	451955	keystroke_Key.enter	Key.enter	n/a
226.0495	5.23	452099	prompt	n/a	friendly temple networking whilst\n
226.6865	0.0675	453373	keystroke_f	f	n/a
226.867	0.1005	453734	keystroke_r	r	n/a
226.99	0.1015	453980	keystroke_i	i	n/a
227.1025	0.09	454205	keystroke_e	e	n/a
227.249	0.09	454498	keystroke_n	n	n/a
227.3725	0.0675	454745	keystroke_d	d	n/a
227.9695	0.0895	455939	keystroke_l	l	n/a
228.025	0.1125	456050	keystroke_y	y	n/a
228.1265	0.0675	456253	keystroke_Key.space	Key.space	n/a
228.2275	0.1125	456455	keystroke_t	t	n/a
228.284	0.09	456568	keystroke_e	e	n/a
228.4415	0.0785	456883	keystroke_m	m	n/a
228.4525	0.09	456905	keystroke_p	p	n/a
228.6775	0.0565	457355	keystroke_l	l	n/a
228.757	0.078	457514	keystroke_e	e	n/a
228.8465	0.0785	457693	keystroke_Key.space	Key.space	n/a
229.1165	0.101	458233	keystroke_n	n	n/a
229.184	0.09	458368	keystroke_e	e	n/a
229.2515	0.1125	458503	keystroke_t	t	n/a
229.3525	0.09	458705	keystroke_w	w	n/a
229.454	0.0905	458908	keystroke_o	o	n/a
229.612	0.1005	459224	keystroke_r	r	n/a
229.724	0.0675	459448	keystroke_k	k	n/a
229.8925	0.1125	459785	keystroke_i	i	n/a
229.949	0.0895	459898	keystroke_n	n	n/a
230.1065	0.056	460213	keystroke_g	g	n/a
230.2185	0.0565	460437	keystroke_Key.space	Key.space	n/a
230.3085	0.079	460617	keystroke_w	w	n/a
230.365	0.1465	460730	keystroke_h	h	n/a
230.4325	0.135	460865	keystroke_i	i	n/a
230.489	0.1125	460978	keystroke_l	l	n/a
230.6695	0.168	461339	keystroke_s	s	n/a
230.7815	0.1235	461563	keystroke_t	t	n/a
231.209	0.0675	462418	keystroke_Key.enter	Key.enter	n/a
231.2825	3.3245	462565	prompt	n/a	heat till senior cover\n
231.94	0.079	463880	keystroke_h	h	n/a
231.9965	0.1345	463993	keystroke_e	e	n/a
232.1425	0.09	464285	keystroke_a	a	n/a
232.211	0.089	464422	keystroke_t	t	n/a
232.311	0.09	464622	keystroke_Key.space	Key.space	n/a
232.4235	0.1015	464847	keystroke_t	t	n/a
232.559	0.0785	465118	keystroke_i	i	n/a
232.7385	0.045	465477	keystroke_l	l	n/a
232.885	0.1125	465770	keystroke_l	l	n/a
232.9635	0.1015	465927	keystroke_Key.space	Key.space	n/a
233.121	0.0905	466242	keystroke_s	s	n/a
233.166	0.09	466332	keystroke_e	e	n/a
233.29	0.146	466580	keystroke_n	n	n/a
233.5035	0.1015	467007	keystroke_i	i	n/a
233.5155	0.1005	467031	keystroke_o	o	n/a
233.65	0.09	467300	keystroke_r	r	n/a
233.8075	0.0785	467615	keystroke_Key.space	Key.space	n/a
233.988	0.078	467976	keystroke_c	c	n/a
234.1	0.079	468200	keystroke_o	o	n/a
234.1905	0.0895	468381	keystroke_v	v	n/a
234.4035	0.0905	468807	keystroke_e	e	n/a
234.4485	0.1015	468897	keystroke_r	r	n/a
234.5385	0.0675	469077	keystroke_Key.enter	Key.enter	n/a
234.6095	5.949	469219	prompt	n/a	who'd've restoration half defined\n
235.788	0.0565	471576	keystroke_w	w	n/a
235.8325	0.146	471665	keystroke_h	h	n/a
235.8885	0.1015	471777	keystroke_o	o	n/a
236.0575	0.101	472115	keystroke_'	'	n/a
236.1925	0.0785	472385	keystroke_d	d	n/a
236.305	0.09	472610	keystroke_'	'	n/a
236.6315	0.1685	473263	keystroke_v	v	n/a
236.7885	0.0675	473577	keystroke_e	e	n/a
236.946	0.1125	473892	keystroke_Key.space	Key.space	n/a
237.295	0.1125	474590	keystroke_r	r	n/a
237.351	0.1575	474702	keystroke_e	e	n/a
237.52	0.0785	475040	keystroke_s	s	n/a
237.5875	0.0785	475175	keystroke_t	t	n/a
237.6775	0.09	475355	keystroke_o	o	n/a
237.7785	0.1125	475557	keystroke_r	r	n/a
237.9025	0.1125	475805	keystroke_a	a	n/a
238.0035	0.079	476007	keystroke_t	t	n/a
238.105	0.191	476210	keystroke_i	i	n/a
238.161	0.124	476322	keystroke_o	o	n/a
238.24	0.135	476480	keystroke_n	n	n/a
238.3525	0.146	476705	keystroke_Key.space	Key.space	n/a
238.6785	0.09	477357	keystroke_h	h	n/a
238.7575	0.0675	477515	keystroke_a	a	n/a
238.8585	0.08	477717	keystroke_l	l	n/a
238.938	0.078	477876	keystroke_f	f	n/a
239.05	0.09	478100	keystroke_Key.space	Key.space	n/a
239.151	0.079	478302	keystroke_d	d	n/a
239.32	0.101	478640	keystroke_e	e	n/a
239.815	0.09	479630	keystroke_f	f	n/a
240.0625	0.101	480125	keystroke_i	i	n/a
240.096	0.169	480192	keystroke_n	n	n/a
240.1975	0.135	480395	keystroke_e	e	n/a
240.3445	0.1115	480689	keystroke_d	d	n/a
240.4675	0.09	480935	keystroke_Key.enter	Key.enter	n/a
240.561	6.5445	481122	prompt	n/a	defeat licensing handhelds soft\n
241.21	0.0785	482420	keystroke_d	d	n/a
241.39	0.09	482780	keystroke_e	e	n/a
241.4685	0.1015	482937	keystroke_f	f	n/a
241.6485	0.113	483297	keystroke_e	e	n/a
241.7725	0.1125	483545	keystroke_a	a	n/a
241.8735	0.0675	483747	keystroke_t	t	n/a
242.0535	0.0905	484107	keystroke_Key.space	Key.space	n/a
242.38	0.0785	484760	keystroke_l	l	n/a
242.605	0.135	485210	keystroke_i	i	n/a
242.83	0.0785	485660	keystroke_c	c	n/a
242.9985	0.079	485997	keystroke_e	e	n/a
243.145	0.124	486290	keystroke_n	n	n/a
243.28	0.09	486560	keystroke_s	s	n/a
243.4485	0.135	486897	keystroke_i	i	n/a
243.505	0.1685	487010	keystroke_n	n	n/a
243.6625	0.0785	487325	keystroke_g	g	n/a
243.82	0.1125	487640	keystroke_Key.space	Key.space	n/a
244.1125	0.101	488225	keystroke_h	h	n/a
244.191	0.09	488382	keystroke_a	a	n/a
244.315	0.09	488630	keystroke_n	n	n/a
244.428	0.0895	488856	keystroke_d	d	n/a
244.99	0.0675	489980	keystroke_h	h	n/a
245.136	0.0565	490272	keystroke_e	e	n/a
245.271	0.0565	490542	keystroke_l	l	n/a
245.3835	0.1575	490767	keystroke_d	d	n/a
245.53	0.1575	491060	keystroke_s	s	n/a
246.0585	0.0675	492117	keystroke_Key.space	Key.space	n/a
246.554	0.09	493108	keystroke_s	s	n/a
246.7895	0.023	493579	keystroke_o	o	n/a
246.801	0.034	493602	keystroke_f	f	n/a
246.936	0.09	493872	keystroke_t	t	n/a
247.037	0.0675	494074	keystroke_Key.enter	Key.enter	n/a
247.1085	5.5325	494217	prompt	n/a	schema political janet experts\n
247.701	0.09	495402	keystroke_s	s	n/a
247.9035	0.0675	495807	keystroke_c	c	n/a
247.982	0.079	495964	keystroke_h	h	n/a
248.1735	0.0785	496347	keystroke_e	e	n/a
248.3085	0.09	496617	keystroke_m	m	n/a
248.444	0.078	496888	keystroke_s	s	n/a
248.9045	0.079	497809	keystroke_Key.backspace	Key.backspace	n/a
248.972	0.079	497944	keystroke_a	a	n/a
249.0625	0.0895	498125	keystroke_Key.space	Key.space	n/a
249.546	0.0785	499092	keystroke_p	p	n/a
249.726	0.0785	499452	keystroke_o	o	n/a
249.906	0.0785	499812	keystroke_l	l	n/a
249.9625	0.1235	499925	keystroke_i	i	n/a
250.131	0.0785	500262	keystroke_t	t	n/a
250.266	0.1125	500532	keystroke_i	i	n/a
250.367	0.1575	500734	keystroke_c	c	n/a
250.457	0.1015	500914	keystroke_a	a	n/a
250.6145	0.09	501229	keystroke_l	l	n/a
250.6945	0.067	501389	keystroke_Key.space	Key.space	n/a
250.8735	0.09	501747	keystroke_j	j	n/a
250.997	0.0905	501994	keystroke_a	a	n/a
251.0985	0.079	502197	keystroke_n	n	n/a
251.211	0.101	502422	keystroke_e	e	n/a
251.3345	0.1015	502669	keystroke_t	t	n/a
251.5145	0.09	503029	keystroke_Key.space	Key.space	n/a
251.6495	0.079	503299	keystroke_e	e	n/a
251.8295	0.102	503659	keystroke_x	x	n/a
251.931	0.101	503862	keystroke_p	p	n/a
252.044	0.1005	504088	keystroke_e	e	n/a
252.1225	0.067	504245	keystroke_r	r	n/a
252.2685	0.1805	504537	keystroke_t	t	n/a
252.4485	0.09	504897	keystroke_s	s	n/a
252.572	0.068	505144	keystroke_Key.enter	Key.enter	n/a
252.6445	4.811	505289	prompt	n/a	boundary classroom temp alias\n
253.326	0.101	506652	keystroke_b	b	n/a
253.4725	0.101	506945	keystroke_o	o	n/a
253.506	0.09	507012	keystroke_u	u	n/a
253.731	0.045	507462	keystroke_n	n	n/a
253.7645	0.1465	507529	keystroke_d	d	n/a
253.8995	0.124	507799	keystroke_a	a	n/a
254.012	0.045	508024	keystroke_r	r	n/a
254.1245	0.0675	508249	keystroke_y	y	n/a
254.1585	0.101	508317	keystroke_Key.space	Key.space	n/a
254.3155	0.0905	508631	keystroke_c	c	n/a
254.4625	0.0785	508925	keystroke_l	l	n/a
254.53	0.101	509060	keystroke_a	a	n/a
254.6085	0.0785	509217	keystroke_s	s	n/a
254.766	0.101	509532	keystroke_s	s	n/a
255.0135	0.079	510027	keystroke_r	r	n/a
255.126	0.068	510252	keystroke_o	o	n/a
255.2835	0.1125	510567	keystroke_o	o	n/a
255.441	0.09	510882	keystroke_m	m	n/a
256.1495	0.09	512299	keystroke_Key.space	Key.space	n/a
256.3185	0.1125	512637	keystroke_t	t	n/a
256.386	0.0785	512772	keystroke_e	e	n/a
256.476	0.135	512952	keystroke_m	m	n/a
256.5545	0.0675	513109	keystroke_p	p	n/a
256.6785	0.09	513357	keystroke_Key.space	Key.space	n/a
256.791	0.09	513582	keystroke_a	a	n/a
256.9375	0.09	513875	keystroke_l	l	n/a
256.9945	0.1115	513989	keystroke_i	i	n/a
257.106	0.101	514212	keystroke_a	a	n/a
257.2075	0.101	514415	keystroke_s	s	n/a
257.3535	0.101	514707	keystroke_Key.enter	Key.enter	n/a
257.458	6.275	514916	prompt	n/a	demographic transfers featuring turn\n
258.1185	0.0785	516237	keystroke_d	d	n/a
258.3095	0.079	516619	keystroke_e	e	n/a
258.411	0.135	516822	keystroke_m	m	n/a
258.4895	0.09	516979	keystroke_o	o	n/a
258.8275	0.078	517655	keystroke_g	g	n/a
259.041	0.067	518082	keystroke_r	r	n/a
259.0745	0.0785	518149	keystroke_a	a	n/a
259.131	0.0785	518262	keystroke_p	p	n/a
259.1645	0.113	518329	keystroke_h	h	n/a
259.244	0.1115	518488	keystroke_i	i	n/a
259.401	0.09	518802	keystroke_c	c	n/a
259.547	0.1125	519094	keystroke_Key.space	Key.space	n/a
259.8955	0.0795	519791	keystroke_t	t	n/a
260.087	0.1235	520174	keystroke_r	r	n/a
260.1775	0.0785	520355	keystroke_a	a	n/a
260.267	0.135	520534	keystroke_n	n	n/a
260.402	0.0675	520804	keystroke_s	s	n/a
260.6155	0.09	521231	keystroke_f	f	n/a
260.863	0.0675	521726	keystroke_e	e	n/a
260.897	0.124	521794	keystroke_r	r	n/a
261.257	0.056	522514	keystroke_s	s	n/a
261.5045	0.1125	523009	keystroke_Key.space	Key.space	n/a
261.8195	0.1125	523639	keystroke_f	f	n/a
261.853	0.1465	523706	keystroke_e	e	n/a
261.9655	0.135	523931	keystroke_a	a	n/a
262.078	0.09	524156	keystroke_t	t	n/a
262.191	0.0895	524382	keystroke_u	u	n/a
262.292	0.101	524584	keystroke_r	r	n/a
262.4615	0.123	524923	keystroke_i	i	n/a
262.517	0.135	525034	keystroke_n	n	n/a
262.663	0.079	525326	keystroke_g	g	n/a
262.8205	0.135	525641	keystroke_Key.space	Key.space	n/a
262.978	0.1015	525956	keystroke_t	t	n/a
263.1355	0.09	526271	keystroke_u	u	n/a
263.237	0.146	526474	keystroke_r	r	n/a
263.372	0.1125	526744	keystroke_n	n	n/a
263.642	0.09	527284	keystroke_Key.enter	Key.enter	n/a
263.7355	5.9935	527471	prompt	n/a	aggressive titled scholarship vermont\n
264.463	0.0225	528926	keystroke_a	a	n/a
264.4745	0.0225	528949	keystroke_g	g	n/a
264.587	0.0905	529174	keystroke_g	g	n/a
264.812	0.1575	529624	keystroke_r	r	n/a
265.003	0.091	530006	keystroke_e	e	n/a
265.1045	0.18	530209	keystroke_s	s	n/a
265.4085	0.0785	530817	keystroke_s	s	n/a
265.6445	0.09	531289	keystroke_i	i	n/a
265.723	0.124	531446	keystroke_v	v	n/a
265.8135	0.101	531627	keystroke_e	e	n/a
265.9255	0.124	531851	keystroke_Key.space	Key.space	n/a
266.1055	0.0905	532211	keystroke_t	t	n/a
266.342	0.101	532684	keystroke_i	i	n/a
266.4655	0.09	532931	keystroke_t	t	n/a
266.6345	0.101	533269	keystroke_l	l	n/a
266.7465	0.0675	533493	keystroke_e	e	n/a
266.9155	0.0675	533831	keystroke_d	d	n/a
267.0055	0.135	534011	keystroke_Key.space	Key.space	n/a
267.1405	0.056	534281	keystroke_s	s	n/a
267.298	0.0675	534596	keystroke_c	c	n/a
267.366	0.112	534732	keystroke_h	h	n/a
267.422	0.0785	534844	keystroke_o	o	n/a
267.6015	0.0905	535203	keystroke_l	l	n/a
267.692	0.1125	535384	keystroke_a	a	n/a
267.793	0.09	535586	keystroke_r	r	n/a
267.984	0.0675	535968	keystroke_s	s	n/a
268.0855	0.1125	536171	keystroke_h	h	n/a
268.108	0.1575	536216	keystroke_i	i	n/a
268.2205	0.1015	536441	keystroke_p	p	n/a
268.3665	0.1015	536733	keystroke_Key.space	Key.space	n/a
268.7605	0.079	537521	keystroke_v	v	n/a
268.9405	0.0905	537881	keystroke_e	e	n/a
269.0195	0.101	538039	keystroke_r	r	n/a
269.1315	0.0565	538263	keystroke_m	m	n/a
269.2555	0.124	538511	keystroke_o	o	n/a
269.3455	0.135	538691	keystroke_n	n	n/a
269.4915	0.0905	538983	keystroke_t	t	n/a
269.6495	0.0785	539299	keystroke_Key.enter	Key.enter	n/a
269.7335	5.8905	539467	prompt	n/a	sprint induction infected contributions\n
270.347	0.0895	540694	keystroke_a	a	n/a
270.7855	0.09	541571	keystroke_Key.backspace	Key.backspace	n/a
270.864	0.1015	541728	keystroke_s	s	n/a
270.999	0.1015	541998	keystroke_p	p	n/a
271.112	0.067	542224	keystroke_r	r	n/a
271.2355	0.1125	542471	keystroke_i	i	n/a
271.2915	0.158	542583	keystroke_n	n	n/a
271.3815	0.079	542763	keystroke_t	t	n/a
271.5615	0.0565	543123	keystroke_Key.space	Key.space	n/a
271.7195	0.101	543439	keystroke_i	i	n/a
271.753	0.1125	543506	keystroke_n	n	n/a
271.933	0.0335	543866	keystroke_d	d	n/a
272.0005	0.09	544001	keystroke_u	u	n/a
272.113	0.1125	544226	keystroke_c	c	n/a
272.338	0.0785	544676	keystroke_t	t	n/a
272.428	0.146	544856	keystroke_i	i	n/a
272.496	0.0675	544992	keystroke_o	o	n/a
272.552	0.112	545104	keystroke_n	n	n/a
272.6305	0.09	545261	keystroke_Key.space	Key.space	n/a
272.7655	0.101	545531	keystroke_i	i	n/a
272.811	0.123	545622	keystroke_n	n	n/a
272.9115	0.102	545823	keystroke_f	f	n/a
273.058	0.1125	546116	keystroke_e	e	n/a
273.2945	0.0445	546589	keystroke_c	c	n/a
273.4515	0.09	546903	keystroke_t	t	n/a
273.5305	0.09	547061	keystroke_e	e	n/a
273.7215	0.079	547443	keystroke_d	d	n/a
273.812	0.0895	547624	keystroke_Key.space	Key.space	n/a
273.9915	0.079	547983	keystroke_c	c	n/a
274.059	0.124	548118	keystroke_o	o	n/a
274.149	0.079	548298	keystroke_n	n	n/a
274.2955	0.034	548591	keystroke_t	t	n/a
274.453	0.0785	548906	keystroke_r	r	n/a
274.633	0.101	549266	keystroke_i	i	n/a
274.7795	0.0895	549559	keystroke_b	b	n/a
274.914	0.09	549828	keystroke_u	u	n/a
275.038	0.0675	550076	keystroke_t	t	n/a
275.1615	0.1125	550323	keystroke_i	i	n/a
275.218	0.0675	550436	keystroke_o	o	n/a
275.2515	0.124	550503	keystroke_n	n	n/a
275.364	0.09	550728	keystroke_s	s	n/a
275.544	0.079	551088	keystroke_Key.enter	Key.enter	n/a
275.6265	3.766	551253	prompt	n/a	knee female gays manor\n
276.399	0.09	552798	keystroke_k	k	n/a
276.546	0.112	553092	keystroke_n	n	n/a
276.7255	0.045	553451	keystroke_e	e	n/a
276.872	0.0785	553744	keystroke_e	e	n/a
276.9845	0.1345	553969	keystroke_Key.space	Key.space	n/a
277.1305	0.135	554261	keystroke_f	f	n/a
277.2315	0.1125	554463	keystroke_e	e	n/a
277.4115	0.135	554823	keystroke_m	m	n/a
277.614	0.079	555228	keystroke_a	a	n/a
277.772	0.067	555544	keystroke_l	l	n/a
277.9065	0.079	555813	keystroke_e	e	n/a
277.9965	0.079	555993	keystroke_Key.space	Key.space	n/a
278.1315	0.124	556263	keystroke_g	g	n/a
278.2445	0.067	556489	keystroke_a	a	n/a
278.323	0.1125	556646	keystroke_y	y	n/a
278.4465	0.079	556893	keystroke_s	s	n/a
278.5705	0.0675	557141	keystroke_Key.space	Key.space	n/a
278.683	0.09	557366	keystroke_m	m	n/a
278.762	0.0895	557524	keystroke_a	a	n/a
278.8965	0.124	557793	keystroke_n	n	n/a
278.953	0.0785	557906	keystroke_o	o	n/a
279.0655	0.1235	558131	keystroke_r	r	n/a
279.3355	0.056	558671	keystroke_Key.enter	Key.enter	n/a
279.3965	6.7345	558793	prompt	n/a	filme anaheim warehouse awareness\n
280.303	0.0225	560606	keystroke_f	f	n/a
280.314	0.1135	560628	keystroke_i	i	n/a
280.393	0.1235	560786	keystroke_l	l	n/a
280.539	0.1015	561078	keystroke_m	m	n/a
280.6515	0.0675	561303	keystroke_e	e	n/a
280.753	0.101	561506	keystroke_Key.space	Key.space	n/a
280.9215	0.0565	561843	keystroke_a	a	n/a
280.9665	0.124	561933	keystroke_n	n	n/a
281.0795	0.112	562159	keystroke_a	a	n/a
281.563	0.0335	563126	keystroke_h	h	n/a
282.0355	0.0335	564071	keystroke_e	e	n/a
282.1255	0.0675	564251	keystroke_i	i	n/a
282.1365	0.158	564273	keystroke_m	m	n/a
282.283	0.0785	564566	keystroke_Key.space	Key.space	n/a
282.609	0.1015	565218	keystroke_w	w	n/a
282.665	0.124	565330	keystroke_a	a	n/a
282.755	0.0905	565510	keystroke_r	r	n/a
282.823	0.09	565646	keystroke_e	e	n/a
283.104	0.045	566208	keystroke_h	h	n/a
283.374	0.1015	566748	keystroke_o	o	n/a
283.408	0.1125	566816	keystroke_u	u	n/a
283.5095	0.112	567019	keystroke_s	s	n/a
283.578	0.021	567156	keystroke_e	e	n/a
283.678	0.101	567356	keystroke_Key.space	Key.space	n/a
284.083	0.1125	568166	keystroke_a	a	n/a
284.184	0.09	568368	keystroke_w	w	n/a
284.6905	0.056	569381	keystroke_a	a	n/a
284.9375	0.1465	569875	keystroke_r	r	n/a
285.0615	0.0785	570123	keystroke_e	e	n/a
285.4215	0.1015	570843	keystroke_n	n	n/a
285.534	0.0785	571068	keystroke_e	e	n/a
285.7365	0.0565	571473	keystroke_s	s	n/a
285.8825	0.1015	571765	keystroke_s	s	n/a
286.0515	0.0785	572103	keystroke_Key.enter	Key.enter	n/a
286.134	6.567	572268	prompt	n/a	ceramic discharge vector look\n
286.8725	0.0675	573745	keystroke_c	c	n/a
287.109	0.1235	574218	keystroke_e	e	n/a
287.1775	0.1115	574355	keystroke_r	r	n/a
287.3115	0.09	574623	keystroke_a	a	n/a
287.4125	0.1125	574825	keystroke_m	m	n/a
287.5365	0.0675	575073	keystroke_i	i	n/a
287.6605	0.0785	575321	keystroke_c	c	n/a
287.919	0.045	575838	keystroke_c	c	n/a
288.3915	0.09	576783	keystroke_Key.backspace	Key.backspace	n/a
288.5275	0.089	577055	keystroke_Key.space	Key.space	n/a
288.8865	0.0675	577773	keystroke_d	d	n/a
289.055	0.1015	578110	keystroke_i	i	n/a
289.1225	0.1125	578245	keystroke_s	s	n/a
289.3925	0.1125	578785	keystroke_h	h	n/a
289.494	0.0785	578988	keystroke_c	c	n/a
289.7525	0.0675	579505	keystroke_Key.backspace	Key.backspace	n/a
289.877	0.067	579754	keystroke_Key.backspace	Key.backspace	n/a
289.955	0.079	579910	keystroke_c	c	n/a
290.0455	0.0895	580091	keystroke_h	h	n/a
290.1575	0.1125	580315	keystroke_a	a	n/a
290.2365	0.0905	580473	keystroke_r	r	n/a
290.4615	0.135	580923	keystroke_g	g	n/a
290.5515	0.0785	581103	keystroke_e	e	n/a
290.675	0.1125	581350	keystroke_Key.space	Key.space	n/a
290.9675	0.09	581935	keystroke_v	v	n/a
291.1365	0.0335	582273	keystroke_e	e	n/a
291.339	0.056	582678	keystroke_c	c	n/a
291.4965	0.0785	582993	keystroke_t	t	n/a
291.654	0.101	583308	keystroke_o	o	n/a
291.744	0.0675	583488	keystroke_r	r	n/a
291.845	0.1015	583690	keystroke_Key.space	Key.space	n/a
291.9575	0.0565	583915	keystroke_l	l	n/a
292.127	0.044	584254	keystroke_o	o	n/a
292.2385	0.124	584477	keystroke_o	o	n/a
292.3515	0.09	584703	keystroke_k	k	n/a
292.6215	0.0785	585243	keystroke_Key.enter	Key.enter	n/a
292.7045	6.375	585409	prompt	n/a	threshold sculpture venture wonderful\n
293.454	0.0675	586908	keystroke_t	t	n/a
293.544	0.1235	587088	keystroke_h	h	n/a
293.634	0.101	587268	keystroke_r	r	n/a
293.679	0.09	587358	keystroke_e	e	n/a
293.769	0.101	587538	keystroke_s	s	n/a
293.8815	0.0895	587763	keystroke_h	h	n/a
293.9375	0.101	587875	keystroke_o	o	n/a
294.095	0.135	588190	keystroke_l	l	n/a
294.241	0.0565	588482	keystroke_d	d	n/a
294.365	0.079	588730	keystroke_Key.space	Key.space	n/a
294.6465	0.0335	589293	keystroke_s	s	n/a
294.759	0.112	589518	keystroke_c	c	n/a
294.8945	0.123	589789	keystroke_u	u	n/a
294.95	0.1015	589900	keystroke_l	l	n/a
295.2425	0.0785	590485	keystroke_p	p	n/a
295.6815	0.079	591363	keystroke_t	t	n/a
295.8725	0.0785	591745	keystroke_u	u	n/a
295.94	0.1575	591880	keystroke_r	r	n/a
296.019	0.0895	592038	keystroke_e	e	n/a
296.1425	0.101	592285	keystroke_Key.space	Key.space	n/a
296.435	0.135	592870	keystroke_v	v	n/a
296.6375	0.0675	593275	keystroke_e	e	n/a
296.8065	0.09	593613	keystroke_n	n	n/a
296.9865	0.09	593973	keystroke_t	t	n/a
297.3685	0.068	594737	keystroke_u	u	n/a
297.425	0.1465	594850	keystroke_r	r	n/a
297.5265	0.0345	595053	keystroke_e	e	n/a
297.605	0.101	595210	keystroke_Key.space	Key.space	n/a
297.763	0.1005	595526	keystroke_w	w	n/a
297.8415	0.169	595683	keystroke_o	o	n/a
297.931	0.0905	595862	keystroke_n	n	n/a
298.055	0.1015	596110	keystroke_d	d	n/a
298.235	0.101	596470	keystroke_e	e	n/a
298.2805	0.112	596561	keystroke_r	r	n/a
298.584	0.09	597168	keystroke_f	f	n/a
298.6625	0.1125	597325	keystroke_u	u	n/a
298.7635	0.0675	597527	keystroke_l	l	n/a
299.011	0.068	598022	keystroke_Key.enter	Key.enter	n/a
299.0825	4.9695	598165	prompt	n/a	polo carter germany principles\n
299.731	0.09	599462	keystroke_p	p	n/a
299.956	0.068	599912	keystroke_o	o	n/a
300.17	0.0675	600340	keystroke_l	l	n/a
300.271	0.0905	600542	keystroke_o	o	n/a
300.6205	0.078	601241	keystroke_Key.space	Key.space	n/a
300.901	0.0905	601802	keystroke_c	c	n/a
301.0925	0.09	602185	keystroke_a	a	n/a
301.1605	0.078	602321	keystroke_r	r	n/a
301.329	0.0895	602658	keystroke_t	t	n/a
301.4635	0.135	602927	keystroke_e	e	n/a
301.5425	0.1125	603085	keystroke_r	r	n/a
301.6555	0.1005	603311	keystroke_Key.space	Key.space	n/a
301.936	0.0565	603872	keystroke_g	g	n/a
302.0825	0.146	604165	keystroke_e	e	n/a
302.161	0.079	604322	keystroke_r	r	n/a
302.251	0.0675	604502	keystroke_m	m	n/a
302.364	0.067	604728	keystroke_a	a	n/a
302.4425	0.101	604885	keystroke_n	n	n/a
302.6785	0.068	605357	keystroke_y	y	n/a
302.7235	0.1015	605447	keystroke_Key.space	Key.space	n/a
302.8585	0.1125	605717	keystroke_p	p	n/a
302.9935	0.09	605987	keystroke_r	r	n/a
303.151	0.057	606302	keystroke_i	i	n/a
303.1625	0.1235	606325	keystroke_n	n	n/a
303.275	0.056	606550	keystroke_c	c	n/a
303.342	0.124	606684	keystroke_i	i	n/a
303.455	0.101	606910	keystroke_p	p	n/a
303.6685	0.068	607337	keystroke_l	l	n/a
303.7475	0.101	607495	keystroke_e	e	n/a
303.8375	0.0675	607675	keystroke_s	s	n/a
303.9725	0.0785	607945	keystroke_Key.enter	Key.enter	n/a
304.0555	6.6565	608111	prompt	n/a	sudan preliminary sword destruction\n
304.6585	0.0675	609317	keystroke_s	s	n/a
304.7935	0.0675	609587	keystroke_u	u	n/a
304.8725	0.18	609745	keystroke_d	d	n/a
304.996	0.0675	609992	keystroke_a	a	n/a
305.1085	0.124	610217	keystroke_n	n	n/a
305.1985	0.09	610397	keystroke_Key.space	Key.space	n/a
305.3895	0.0675	610779	keystroke_p	p	n/a
305.525	0.1125	611050	keystroke_r	r	n/a
305.57	0.124	611140	keystroke_e	e	n/a
305.9975	0.034	611995	keystroke_l	l	n/a
306.2	0.09	612400	keystroke_i	i	n/a
307.055	0.09	614110	keystroke_m	m	n/a
307.303	0.112	614606	keystroke_i	i	n/a
307.381	0.09	614762	keystroke_n	n	n/a
307.5275	0.0785	615055	keystroke_a	a	n/a
307.5835	0.0675	615167	keystroke_r	r	n/a
307.7075	0.101	615415	keystroke_y	y	n/a
307.786	0.1125	615572	keystroke_Key.space	Key.space	n/a
308.236	0.1015	616472	keystroke_s	s	n/a
308.461	0.079	616922	keystroke_w	w	n/a
308.5735	0.079	617147	keystroke_o	o	n/a
308.63	0.1125	617260	keystroke_r	r	n/a
308.7535	0.1125	617507	keystroke_d	d	n/a
308.9	0.09	617800	keystroke_Key.space	Key.space	n/a
309.125	0.0675	618250	keystroke_d	d	n/a
309.2935	0.1125	618587	keystroke_e	e	n/a
309.4625	0.09	618925	keystroke_s	s	n/a
309.5415	0.101	619083	keystroke_t	t	n/a
309.721	0.0785	619442	keystroke_r	r	n/a
309.8785	0.09	619757	keystroke_u	u	n/a
309.9575	0.0785	619915	keystroke_c	c	n/a
310.1375	0.067	620275	keystroke_t	t	n/a
310.2725	0.1345	620545	keystroke_i	i	n/a
310.306	0.09	620612	keystroke_o	o	n/a
310.3395	0.124	620679	keystroke_n	n	n/a
310.6435	0.0675	621287	keystroke_Key.enter	Key.enter	n/a
310.715	6.2515	621430	prompt	n/a	fifth recommend surplus silence\n
311.307	0.09	622614	keystroke_f	f	n/a
311.431	0.09	622862	keystroke_i	i	n/a
311.465	0.101	622930	keystroke_f	f	n/a
311.7795	0.0905	623559	keystroke_t	t	n/a
311.9035	0.0905	623807	keystroke_h	h	n/a
312.1285	0.101	624257	keystroke_Key.space	Key.space	n/a
312.2975	0.1345	624595	keystroke_r	r	n/a
312.3775	0.0885	624755	keystroke_e	e	n/a
312.601	0.056	625202	keystroke_c	c	n/a
312.691	0.1125	625382	keystroke_o	o	n/a
312.7705	0.078	625541	keystroke_m	m	n/a
312.9835	0.056	625967	keystroke_m	m	n/a
313.3995	0.0675	626799	keystroke_e	e	n/a
313.546	0.09	627092	keystroke_n	n	n/a
313.647	0.0675	627294	keystroke_d	d	n/a
313.771	0.101	627542	keystroke_Key.space	Key.space	n/a
313.906	0.0785	627812	keystroke_s	s	n/a
314.0075	0.1235	628015	keystroke_u	u	n/a
314.142	0.09	628284	keystroke_r	r	n/a
314.412	0.1015	628824	keystroke_p	p	n/a
314.6485	0.0675	629297	keystroke_l	l	n/a
314.8395	0.135	629679	keystroke_u	u	n/a
314.986	0.056	629972	keystroke_s	s	n/a
315.841	0.0675	631682	keystroke_Key.space	Key.space	n/a
315.987	0.079	631974	keystroke_s	s	n/a
316.0885	0.1125	632177	keystroke_i	i	n/a
316.1895	0.079	632379	keystroke_l	l	n/a
316.3585	0.0675	632717	keystroke_e	e	n/a
316.482	0.0905	632964	keystroke_n	n	n/a
316.572	0.0675	633144	keystroke_c	c	n/a
316.7745	0.0565	633549	keystroke_e	e	n/a
316.9105	0.0555	633821	keystroke_Key.enter	Key.enter	n/a
316.9695	7.197	633939	prompt	n/a	solomon worship grave understood\n
317.731	0.079	635462	keystroke_s	s	n/a
317.821	0.0565	635642	keystroke_o	o	n/a
317.967	0.0565	635934	keystroke_l	l	n/a
318.1135	0.09	636227	keystroke_o	o	n/a
318.3495	0.079	636699	keystroke_m	m	n/a
318.5745	0.1015	637149	keystroke_o	o	n/a
318.6195	0.1465	637239	keystroke_n	n	n/a
319.261	0.1125	638522	keystroke_Key.space	Key.space	n/a
319.5085	0.09	639017	keystroke_w	w	n/a
319.6105	0.089	639221	keystroke_o	o	n/a
319.756	0.0785	639512	keystroke_r	r	n/a
320.037	0.1015	640074	keystroke_h	h	n/a
320.0485	0.0675	640097	keystroke_s	s	n/a
320.5325	0.0895	641065	keystroke_Key.backspace	Key.backspace	n/a
320.656	0.0785	641312	keystroke_Key.backspace	Key.backspace	n/a
320.7235	0.0785	641447	keystroke_s	s	n/a
320.836	0.09	641672	keystroke_h	h	n/a
320.881	0.1235	641762	keystroke_i	i	n/a
320.937	0.1015	641874	keystroke_p	p	n/a
321.376	0.0785	642752	keystroke_Key.space	Key.space	n/a
321.826	0.068	643652	keystroke_g	g	n/a
321.9945	0.079	643989	keystroke_r	r	n/a
322.062	0.079	644124	keystroke_a	a	n/a
322.231	0.157	644462	keystroke_v	v	n/a
322.2985	0.101	644597	keystroke_e	e	n/a
322.4895	0.079	644979	keystroke_Key.space	Key.space	n/a
322.602	0.0565	645204	keystroke_u	u	n/a
322.771	0.0785	645542	keystroke_n	n	n/a
322.827	0.102	645654	keystroke_d	d	n/a
323.0295	0.1125	646059	keystroke_e	e	n/a
323.0635	0.146	646127	keystroke_r	r	n/a
323.3785	0.1235	646757	keystroke_s	s	n/a
323.4795	0.0785	646959	keystroke_t	t	n/a
323.637	0.0565	647274	keystroke_o	o	n/a
323.8055	0.0675	647611	keystroke_o	o	n/a
323.8955	0.09	647791	keystroke_d	d	n/a
324.087	0.0785	648174	keystroke_Key.enter	Key.enter	n/a
324.1695	5.746	648339	prompt	n/a	advance bangkok hook forbes\n
324.8745	0.1235	649749	keystroke_a	a	n/a
324.9645	0.09	649929	keystroke_d	d	n/a
325.156	0.146	650312	keystroke_v	v	n/a
325.291	0.0785	650582	keystroke_a	a	n/a
325.437	0.1125	650874	keystroke_n	n	n/a
325.538	0.0675	651076	keystroke_c	c	n/a
325.741	0.056	651482	keystroke_e	e	n/a
325.8305	0.1015	651661	keystroke_Key.space	Key.space	n/a
325.977	0.09	651954	keystroke_b	b	n/a
326.0895	0.101	652179	keystroke_a	a	n/a
326.315	0.0785	652630	keystroke_g	g	n/a
326.6745	0.0785	653349	keystroke_Key.backspace	Key.backspace	n/a
326.877	0.0785	653754	keystroke_n	n	n/a
326.9225	0.101	653845	keystroke_g	g	n/a
327.203	0.0675	654406	keystroke_k	k	n/a
327.372	0.045	654744	keystroke_o	o	n/a
327.507	0.101	655014	keystroke_k	k	n/a
327.7655	0.1015	655531	keystroke_Key.space	Key.space	n/a
327.9455	0.0565	655891	keystroke_h	h	n/a
328.058	0.0675	656116	keystroke_o	o	n/a
328.205	0.0895	656410	keystroke_o	o	n/a
328.362	0.0785	656724	keystroke_k	k	n/a
328.913	0.079	657826	keystroke_Key.space	Key.space	n/a
329.1155	0.09	658231	keystroke_f	f	n/a
329.228	0.09	658456	keystroke_o	o	n/a
329.2845	0.101	658569	keystroke_r	r	n/a
329.487	0.079	658974	keystroke_b	b	n/a
329.6335	0.101	659267	keystroke_e	e	n/a
329.723	0.09	659446	keystroke_s	s	n/a
329.8355	0.079	659671	keystroke_Key.enter	Key.enter	n/a
329.918	7.58	659836	prompt	n/a	inspections blessed improve discounts\n
330.7355	0.079	661471	keystroke_i	i	n/a
330.747	0.1235	661494	keystroke_n	n	n/a
330.9045	0.1235	661809	keystroke_s	s	n/a
331.039	0.0905	662078	keystroke_p	p	n/a
331.1295	0.0675	662259	keystroke_e	e	n/a
331.332	0.0675	662664	keystroke_c	c	n/a
331.467	0.0785	662934	keystroke_t	t	n/a
331.5795	0.112	663159	keystroke_i	i	n/a
331.613	0.0675	663226	keystroke_o	o	n/a
331.658	0.1125	663316	keystroke_n	n	n/a
331.761	0.0995	663522	keystroke_s	s	n/a
332.1305	0.079	664261	keystroke_Key.space	Key.space	n/a
332.4455	0.135	664891	keystroke_b	b	n/a
332.592	0.09	665184	keystroke_l	l	n/a
332.6935	0.101	665387	keystroke_e	e	n/a
333.3005	0.225	666601	keystroke_s	s	n/a
334.0435	0.101	668087	keystroke_s	s	n/a
334.257	0.0785	668514	keystroke_e	e	n/a
334.437	0.0675	668874	keystroke_d	d	n/a
334.5725	0.078	669145	keystroke_Key.space	Key.space	n/a
334.7965	0.0565	669593	keystroke_i	i	n/a
335.0335	0.0555	670067	keystroke_m	m	n/a
335.2245	0.0675	670449	keystroke_p	p	n/a
335.303	0.0785	670606	keystroke_r	r	n/a
335.4605	0.0675	670921	keystroke_o	o	n/a
335.618	0.079	671236	keystroke_v	v	n/a
335.6965	0.079	671393	keystroke_e	e	n/a
336.034	0.1125	672068	keystroke_Key.space	Key.space	n/a
336.338	0.0785	672676	keystroke_d	d	n/a
336.4505	0.09	672901	keystroke_i	i	n/a
336.5295	0.0895	673059	keystroke_s	s	n/a
336.7205	0.057	673441	keystroke_c	c	n/a
336.788	0.1125	673576	keystroke_o	o	n/a
336.8555	0.0785	673711	keystroke_u	u	n/a
337.058	0.0785	674116	keystroke_n	n	n/a
337.148	0.101	674296	keystroke_t	t	n/a
337.227	0.0785	674454	keystroke_s	s	n/a
337.4405	0.0565	674881	keystroke_Key.enter	Key.enter	n/a
337.501	5.7225	675002	prompt	n/a	revised turbo it'd application\n
338.2055	0.101	676411	keystroke_r	r	n/a
338.2165	0.1015	676433	keystroke_e	e	n/a
338.464	0.1355	676928	keystroke_v	v	n/a
338.532	0.101	677064	keystroke_i	i	n/a
338.7115	0.068	677423	keystroke_s	s	n/a
338.8355	0.0675	677671	keystroke_e	e	n/a
339.004	0.079	678008	keystroke_d	d	n/a
339.1055	0.1125	678211	keystroke_Key.space	Key.space	n/a
339.3535	0.09	678707	keystroke_t	t	n/a
339.792	0.102	679584	keystroke_u	u	n/a
339.848	0.0675	679696	keystroke_r	r	n/a
340.073	0.079	680146	keystroke_b	b	n/a
340.1745	0.0785	680349	keystroke_o	o	n/a
340.444	0.079	680888	keystroke_Key.space	Key.space	n/a
340.748	0.0785	681496	keystroke_i	i	n/a
340.838	0.0675	681676	keystroke_t	t	n/a
340.984	0.079	681968	keystroke_'	'	n/a
341.1195	0.101	682239	keystroke_d	d	n/a
341.277	0.1015	682554	keystroke_Key.space	Key.space	n/a
341.592	0.0895	683184	keystroke_a	a	n/a
341.6935	0.0895	683387	keystroke_p	p	n/a
341.8395	0.0785	683679	keystroke_p	p	n/a
342.0755	0.045	684151	keystroke_l	l	n/a
342.109	0.079	684218	keystroke_i	i	n/a
342.2215	0.135	684443	keystroke_c	c	n/a
342.458	0.1125	684916	keystroke_a	a	n/a
342.559	0.079	685118	keystroke_t	t	n/a
342.7165	0.135	685433	keystroke_i	i	n/a
342.773	0.09	685546	keystroke_o	o	n/a
342.829	0.124	685658	keystroke_n	n	n/a
343.1555	0.0675	686311	keystroke_Key.enter	Key.enter	n/a
343.2265	4.9475	686453	prompt	n/a	mistake weblogs of i'll\n
343.8865	0.169	687773	keystroke_m	m	n/a
343.9655	0.1125	687931	keystroke_i	i	n/a
344.089	0.079	688178	keystroke_s	s	n/a
344.134	0.09	688268	keystroke_t	t	n/a
344.2805	0.08	688561	keystroke_a	a	n/a
344.3815	0.1015	688763	keystroke_k	k	n/a
344.539	0.034	689078	keystroke_e	e	n/a
344.6405	0.0785	689281	keystroke_Key.space	Key.space	n/a
344.9105	0.09	689821	keystroke_w	w	n/a
344.9665	0.1015	689933	keystroke_e	e	n/a
345.158	0.101	690316	keystroke_b	b	n/a
345.349	0.045	690698	keystroke_l	l	n/a
346.204	0.079	692408	keystroke_o	o	n/a
346.328	0.135	692656	keystroke_g	g	n/a
346.4745	0.067	692949	keystroke_s	s	n/a
346.6095	0.101	693219	keystroke_Key.space	Key.space	n/a
346.812	0.067	693624	keystroke_o	o	n/a
346.9015	0.079	693803	keystroke_f	f	n/a
346.969	0.079	693938	keystroke_Key.space	Key.space	n/a
347.262	0.0785	694524	keystroke_i	i	n/a
347.4305	0.079	694861	keystroke_'	'	n/a
347.6665	0.0455	695333	keystroke_l	l	n/a
347.8015	0.1015	695603	keystroke_l	l	n/a
348.1165	0.0565	696233	keystroke_Key.enter	Key.enter	n/a
348.177	7.4105	696354	prompt	n/a	florence candidates constitutional applicant\n
348.8365	0.1125	697673	keystroke_f	f	n/a
348.9605	0.0675	697921	keystroke_l	l	n/a
349.129	0.068	698258	keystroke_o	o	n/a
349.2075	0.113	698415	keystroke_r	r	n/a
349.309	0.09	698618	keystroke_e	e	n/a
349.478	0.1235	698956	keystroke_n	n	n/a
349.613	0.0335	699226	keystroke_c	c	n/a
349.7705	0.056	699541	keystroke_e	e	n/a
349.883	0.1125	699766	keystroke_Key.space	Key.space	n/a
350.254	0.101	700508	keystroke_c	c	n/a
350.3665	0.124	700733	keystroke_a	a	n/a
350.5355	0.135	701071	keystroke_n	n	n/a
350.6815	0.0675	701363	keystroke_d	d	n/a
350.9065	0.0675	701813	keystroke_i	i	n/a
350.9855	0.0785	701971	keystroke_d	d	n/a
351.233	0.0785	702466	keystroke_a	a	n/a
351.2665	0.1125	702533	keystroke_t	t	n/a
351.368	0.067	702736	keystroke_e	e	n/a
351.548	0.0785	703096	keystroke_s	s	n/a
351.7165	0.079	703433	keystroke_Key.space	Key.space	n/a
351.885	0.09	703770	keystroke_c	c	n/a
351.964	0.09	703928	keystroke_o	o	n/a
352.009	0.146	704018	keystroke_n	n	n/a
352.1665	0.0565	704333	keystroke_s	s	n/a
352.313	0.0785	704626	keystroke_t	t	n/a
352.549	0.101	705098	keystroke_i	i	n/a
352.7065	0.0785	705413	keystroke_t	t	n/a
352.8415	0.1125	705683	keystroke_u	u	n/a
353.0665	0.0335	706133	keystroke_t	t	n/a
353.4825	0.1465	706965	keystroke_i	i	n/a
353.528	0.0895	707056	keystroke_o	o	n/a
353.584	0.1125	707168	keystroke_n	n	n/a
353.7075	0.0905	707415	keystroke_a	a	n/a
353.8875	0.09	707775	keystroke_l	l	n/a
354.0115	0.1125	708023	keystroke_Key.space	Key.space	n/a
354.4165	0.079	708833	keystroke_a	a	n/a
354.529	0.0675	709058	keystroke_p	p	n/a
354.653	0.112	709306	keystroke_p	p	n/a
354.889	0.0785	709778	keystroke_l	l	n/a
354.9565	0.0785	709913	keystroke_i	i	n/a
354.979	0.09	709958	keystroke_c	c	n/a
355.08	0.1015	710160	keystroke_a	a	n/a
355.1925	0.1125	710385	keystroke_n	n	n/a
355.339	0.079	710678	keystroke_t	t	n/a
355.519	0.0675	711038	keystroke_Key.enter	Key.enter	n/a
355.59	5.656	711180	prompt	n/a	targeted titten manuals spending\n
356.25	0.068	712500	keystroke_t	t	n/a
356.3965	0.0675	712793	keystroke_a	a	n/a
356.419	0.1015	712838	keystroke_r	r	n/a
356.6325	0.0565	713265	keystroke_g	g	n/a
356.734	0.1235	713468	keystroke_e	e	n/a
356.824	0.079	713648	keystroke_t	t	n/a
357.4775	0.067	714955	keystroke_e	e	n/a
357.7125	0.0115	715425	keystroke_d	d	n/a
357.7355	0.0895	715471	keystroke_Key.space	Key.space	n/a
357.904	0.011	715808	keystroke_t	t	n/a
357.949	0.101	715898	keystroke_i	i	n/a
358.084	0.0675	716168	keystroke_t	t	n/a
358.5	0.0675	717000	keystroke_t	t	n/a
358.714	0.0785	717428	keystroke_e	e	n/a
358.8715	0.101	717743	keystroke_n	n	n/a
358.939	0.101	717878	keystroke_Key.space	Key.space	n/a
359.0965	0.0785	718193	keystroke_m	m	n/a
359.164	0.09	718328	keystroke_a	a	n/a
359.277	0.0555	718554	keystroke_n	n	n/a
359.4225	0.079	718845	keystroke_u	u	n/a
359.535	0.09	719070	keystroke_a	a	n/a
359.6365	0.101	719273	keystroke_l	l	n/a
359.7715	0.09	719543	keystroke_s	s	n/a
359.94	0.09	719880	keystroke_Key.space	Key.space	n/a
360.0865	0.1125	720173	keystroke_s	s	n/a
360.1875	0.079	720375	keystroke_p	p	n/a
360.334	0.0785	720668	keystroke_e	e	n/a
360.525	0.102	721050	keystroke_n	n	n/a
360.66	0.0675	721320	keystroke_d	d	n/a
360.8295	0.0895	721659	keystroke_i	i	n/a
360.8625	0.1125	721725	keystroke_n	n	n/a
360.9865	0.0905	721973	keystroke_g	g	n/a
361.1665	0.0785	722333	keystroke_Key.enter	Key.enter	n/a
361.249	5.6795	722498	prompt	n/a	latitude formation constant andy\n
361.8525	0.0675	723705	keystroke_l	l	n/a
361.9315	0.1125	723863	keystroke_a	a	n/a
362.0325	0.0675	724065	keystroke_t	t	n/a
362.1675	0.1125	724335	keystroke_i	i	n/a
362.314	0.101	724628	keystroke_t	t	n/a
362.854	0.0785	725708	keystroke_u	u	n/a
362.9215	0.101	725843	keystroke_t	t	n/a
363	0.0675	726000	keystroke_e	e	n/a
363.394	0.056	726788	keystroke_Key.backspace	Key.backspace	n/a
363.5625	0.045	727125	keystroke_Key.backspace	Key.backspace	n/a
363.597	0.1005	727194	keystroke_d	d	n/a
363.7315	0.0795	727463	keystroke_e	e	n/a
363.844	0.101	727688	keystroke_Key.space	Key.space	n/a
364.4405	0.0895	728881	keystroke_f	f	n/a
364.5305	0.0785	729061	keystroke_o	o	n/a
364.609	0.079	729218	keystroke_r	r	n/a
364.6875	0.124	729375	keystroke_m	m	n/a
364.7325	0.124	729465	keystroke_a	a	n/a
364.845	0.0675	729690	keystroke_t	t	n/a
364.9465	0.1575	729893	keystroke_i	i	n/a
364.98	0.09	729960	keystroke_o	o	n/a
365.059	0.102	730118	keystroke_n	n	n/a
365.1265	0.1015	730253	keystroke_Key.space	Key.space	n/a
365.2725	0.079	730545	keystroke_c	c	n/a
365.3965	0.0785	730793	keystroke_o	o	n/a
365.4415	0.1125	730883	keystroke_n	n	n/a
365.565	0.135	731130	keystroke_s	s	n/a
365.689	0.0675	731378	keystroke_t	t	n/a
365.79	0.0785	731580	keystroke_a	a	n/a
365.8915	0.1125	731783	keystroke_n	n	n/a
366.015	0.079	732030	keystroke_t	t	n/a
366.15	0.09	732300	keystroke_Key.space	Key.space	n/a
366.3305	0.101	732661	keystroke_a	a	n/a
366.4425	0.079	732885	keystroke_n	n	n/a
366.5325	0.09	733065	keystroke_d	d	n/a
366.645	0.1015	733290	keystroke_y	y	n/a
366.859	0.0685	733718	keystroke_Key.enter	Key.enter	n/a
366.9315	4.788	733863	prompt	n/a	show entertaining verse healthy\n
367.5675	0.0675	735135	keystroke_s	s	n/a
367.6465	0.1235	735293	keystroke_h	h	n/a
367.7025	0.079	735405	keystroke_o	o	n/a
367.7705	0.0785	735541	keystroke_w	w	n/a
367.8715	0.101	735743	keystroke_Key.space	Key.space	n/a
368.119	0.0785	736238	keystroke_e	e	n/a
368.209	0.1235	736418	keystroke_n	n	n/a
368.3105	0.067	736621	keystroke_t	t	n/a
368.445	0.1585	736890	keystroke_e	e	n/a
368.5915	0.045	737183	keystroke_r	r	n/a
369.053	0.0895	738106	keystroke_t	t	n/a
369.21	0.09	738420	keystroke_a	a	n/a
369.334	0.1125	738668	keystroke_i	i	n/a
369.4015	0.1125	738803	keystroke_n	n	n/a
369.649	0.0785	739298	keystroke_i	i	n/a
369.6825	0.1015	739365	keystroke_n	n	n/a
369.7725	0.0675	739545	keystroke_g	g	n/a
369.953	0.101	739906	keystroke_Key.space	Key.space	n/a
370.1325	0.09	740265	keystroke_v	v	n/a
370.335	0.1015	740670	keystroke_e	e	n/a
370.369	0.158	740738	keystroke_r	r	n/a
370.47	0.147	740940	keystroke_s	s	n/a
370.5825	0.0675	741165	keystroke_e	e	n/a
370.695	0.09	741390	keystroke_Key.space	Key.space	n/a
370.92	0.1015	741840	keystroke_h	h	n/a
370.954	0.146	741908	keystroke_e	e	n/a
371.0325	0.124	742065	keystroke_a	a	n/a
371.1675	0.045	742335	keystroke_l	l	n/a
371.2575	0.1015	742515	keystroke_t	t	n/a
371.37	0.079	742740	keystroke_h	h	n/a
371.5165	0.056	743033	keystroke_y	y	n/a
371.629	0.09	743258	keystroke_Key.enter	Key.enter	n/a
371.724	5.7565	743448	prompt	n/a	possess denied component spider\n
372.3825	0.0225	744765	keystroke_p	p	n/a
372.3935	0.1015	744787	keystroke_o	o	n/a
372.574	0.056	745148	keystroke_s	s	n/a
372.72	0.1015	745440	keystroke_s	s	n/a
372.844	0.0785	745688	keystroke_e	e	n/a
372.9565	0.101	745913	keystroke_s	s	n/a
373.17	0.0675	746340	keystroke_s	s	n/a
373.35	0.079	746700	keystroke_Key.space	Key.space	n/a
373.789	0.0335	747578	keystroke_d	d	n/a
373.913	0.0445	747826	keystroke_e	e	n/a
374.025	0.0785	748050	keystroke_n	n	n/a
374.396	0.09	748792	keystroke_i	i	n/a
374.52	0.0675	749040	keystroke_d	d	n/a
374.79	0.0675	749580	keystroke_Key.backspace	Key.backspace	n/a
374.8575	0.0785	749715	keystroke_e	e	n/a
375.0265	0.0785	750053	keystroke_d	d	n/a
375.15	0.101	750300	keystroke_Key.space	Key.space	n/a
375.555	0.0785	751110	keystroke_c	c	n/a
375.645	0.079	751290	keystroke_o	o	n/a
375.6675	0.124	751335	keystroke_m	m	n/a
375.746	0.113	751492	keystroke_p	p	n/a
375.859	0.1685	751718	keystroke_o	o	n/a
376.016	0.1015	752032	keystroke_n	n	n/a
376.1515	0.0785	752303	keystroke_e	e	n/a
376.2975	0.1125	752595	keystroke_n	n	n/a
376.4215	0.09	752843	keystroke_t	t	n/a
376.601	0.1015	753202	keystroke_Key.space	Key.space	n/a
376.7135	0.1135	753427	keystroke_s	s	n/a
376.8035	0.1015	753607	keystroke_p	p	n/a
376.8945	0.1115	753789	keystroke_i	i	n/a
377.029	0.0675	754058	keystroke_d	d	n/a
377.22	0.0785	754440	keystroke_e	e	n/a
377.265	0.0905	754530	keystroke_r	r	n/a
377.366	0.113	754732	keystroke_Key.enter	Key.enter	n/a
377.4835	4.1585	754967	prompt	n/a	sorted motherboard tiny case\n
378.0185	0.079	756037	keystroke_s	s	n/a
378.12	0.0785	756240	keystroke_o	o	n/a
378.2445	0.078	756489	keystroke_r	r	n/a
378.39	0.1125	756780	keystroke_t	t	n/a
378.536	0.0455	757072	keystroke_e	e	n/a
378.694	0.0785	757388	keystroke_d	d	n/a
378.795	0.1015	757590	keystroke_Key.space	Key.space	n/a
378.9525	0.1245	757905	keystroke_m	m	n/a
379.0315	0.112	758063	keystroke_o	o	n/a
379.155	0.1125	758310	keystroke_t	t	n/a
379.3015	0.101	758603	keystroke_h	h	n/a
379.4135	0.1015	758827	keystroke_e	e	n/a
379.5035	0.045	759007	keystroke_r	r	n/a
379.684	0.0785	759368	keystroke_b	b	n/a
379.7735	0.079	759547	keystroke_o	o	n/a
379.8635	0.135	759727	keystroke_a	a	n/a
379.9875	0.09	759975	keystroke_r	r	n/a
380.0885	0.0905	760177	keystroke_d	d	n/a
380.28	0.09	760560	keystroke_Key.space	Key.space	n/a
380.461	0.055	760922	keystroke_t	t	n/a
380.539	0.0785	761078	keystroke_i	i	n/a
380.584	0.101	761168	keystroke_n	n	n/a
380.8085	0.102	761617	keystroke_y	y	n/a
380.8985	0.1015	761797	keystroke_Key.space	Key.space	n/a
381.0565	0.1345	762113	keystroke_c	c	n/a
381.2025	0.1245	762405	keystroke_a	a	n/a
381.315	0.124	762630	keystroke_s	s	n/a
381.4275	0.0785	762855	keystroke_e	e	n/a
381.574	0.067	763148	keystroke_Key.enter	Key.enter	n/a
381.6445	4.1715	763289	prompt	n/a	fault shorter supplements drew\n
382.215	0.09	764430	keystroke_f	f	n/a
382.361	0.124	764722	keystroke_a	a	n/a
382.5635	0.124	765127	keystroke_u	u	n/a
382.631	0.0795	765262	keystroke_l	l	n/a
382.755	0.0675	765510	keystroke_t	t	n/a
382.856	0.1125	765712	keystroke_Key.space	Key.space	n/a
382.9805	0.112	765961	keystroke_s	s	n/a
383.081	0.113	766162	keystroke_h	h	n/a
383.1375	0.101	766275	keystroke_o	o	n/a
383.239	0.0785	766478	keystroke_r	r	n/a
383.385	0.101	766770	keystroke_t	t	n/a
383.4975	0.1465	766995	keystroke_e	e	n/a
383.61	0.0785	767220	keystroke_r	r	n/a
383.7225	0.124	767445	keystroke_Key.space	Key.space	n/a
383.835	0.09	767670	keystroke_s	s	n/a
383.936	0.1125	767872	keystroke_u	u	n/a
384.015	0.1015	768030	keystroke_p	p	n/a
384.1725	0.0675	768345	keystroke_p	p	n/a
384.386	0.0115	768772	keystroke_l	l	n/a
384.4535	0.045	768907	keystroke_e	e	n/a
384.499	0.0785	768998	keystroke_m	m	n/a
384.611	0.0565	769222	keystroke_e	e	n/a
384.69	0.0785	769380	keystroke_n	n	n/a
384.8365	0.101	769673	keystroke_t	t	n/a
384.9485	0.0675	769897	keystroke_s	s	n/a
385.061	0.1015	770122	keystroke_Key.space	Key.space	n/a
385.1735	0.09	770347	keystroke_d	d	n/a
385.377	0.1455	770754	keystroke_r	r	n/a
385.466	0.124	770932	keystroke_e	e	n/a
385.5115	0.0895	771023	keystroke_w	w	n/a
385.759	0.056	771518	keystroke_Key.enter	Key.enter	n/a
385.8185	6.016	771637	prompt	n/a	arlington claire notify referrals\n
386.4675	0.135	772935	keystroke_a	a	n/a
386.681	0.09	773362	keystroke_r	r	n/a
386.782	0.0905	773564	keystroke_i	i	n/a
387.1875	0.0565	774375	keystroke_Key.backspace	Key.backspace	n/a
387.3785	0.0675	774757	keystroke_l	l	n/a
387.4125	0.1235	774825	keystroke_i	i	n/a
387.525	0.09	775050	keystroke_n	n	n/a
387.6375	0.0565	775275	keystroke_g	g	n/a
388.29	0.09	776580	keystroke_t	t	n/a
388.3685	0.079	776737	keystroke_o	o	n/a
388.4135	0.124	776827	keystroke_n	n	n/a
388.5035	0.1125	777007	keystroke_Key.space	Key.space	n/a
388.6385	0.1125	777277	keystroke_c	c	n/a
388.785	0.0675	777570	keystroke_l	l	n/a
388.886	0.1125	777772	keystroke_a	a	n/a
389.021	0.1015	778042	keystroke_i	i	n/a
389.1115	0.1345	778223	keystroke_r	r	n/a
389.19	0.0895	778380	keystroke_e	e	n/a
389.291	0.135	778582	keystroke_Key.space	Key.space	n/a
389.505	0.146	779010	keystroke_n	n	n/a
389.595	0.0895	779190	keystroke_o	o	n/a
389.7635	0.101	779527	keystroke_t	t	n/a
389.9885	0.1125	779977	keystroke_i	i	n/a
390.112	0.1015	780224	keystroke_f	f	n/a
390.247	0.1135	780494	keystroke_y	y	n/a
390.3265	0.1005	780653	keystroke_Key.space	Key.space	n/a
390.54	0.1235	781080	keystroke_r	r	n/a
390.6185	0.101	781237	keystroke_e	e	n/a
390.7645	0.09	781529	keystroke_f	f	n/a
390.9785	0.1125	781957	keystroke_e	e	n/a
391.0795	0.0675	782159	keystroke_r	r	n/a
391.2035	0.1575	782407	keystroke_r	r	n/a
391.3725	0.067	782745	keystroke_a	a	n/a
391.462	0.1125	782924	keystroke_l	l	n/a
391.6085	0.09	783217	keystroke_s	s	n/a
391.766	0.0675	783532	keystroke_Key.enter	Key.enter	n/a
391.837	6.5785	783674	prompt	n/a	mountain slideshow earned choice\n
392.441	0.0785	784882	keystroke_m	m	n/a
392.5985	0.1125	785197	keystroke_o	o	n/a
392.678	0.089	785356	keystroke_u	u	n/a
392.857	0.1015	785714	keystroke_n	n	n/a
392.9695	0.0675	785939	keystroke_t	t	n/a
393.1045	0.1125	786209	keystroke_a	a	n/a
393.2845	0.124	786569	keystroke_i	i	n/a
393.341	0.1235	786682	keystroke_n	n	n/a
393.442	0.0905	786884	keystroke_Key.space	Key.space	n/a
393.757	0.0905	787514	keystroke_s	s	n/a
393.881	0.1125	787762	keystroke_i	i	n/a
393.892	0.068	787784	keystroke_l	l	n/a
394.072	0.135	788144	keystroke_d	d	n/a
394.7585	0.0225	789517	keystroke_Key.backspace	Key.backspace	n/a
394.871	0.0565	789742	keystroke_Key.backspace	Key.backspace	n/a
394.995	0.0675	789990	keystroke_Key.backspace	Key.backspace	n/a
395.231	0.045	790462	keystroke_l	l	n/a
395.242	0.102	790484	keystroke_i	i	n/a
395.3325	0.056	790665	keystroke_d	d	n/a
395.4445	0.09	790889	keystroke_e	e	n/a
395.647	0.09	791294	keystroke_s	s	n/a
395.7275	0.122	791455	keystroke_h	h	n/a
395.7935	0.0675	791587	keystroke_o	o	n/a
395.8835	0.1125	791767	keystroke_w	w	n/a
396.0635	0.056	792127	keystroke_Key.space	Key.space	n/a
396.491	0.146	792982	keystroke_e	e	n/a
396.6035	0.1125	793207	keystroke_a	a	n/a
396.671	0.1125	793342	keystroke_r	r	n/a
396.862	0.1015	793724	keystroke_n	n	n/a
396.9745	0.0455	793949	keystroke_e	e	n/a
397.144	0.0895	794288	keystroke_d	d	n/a
397.2445	0.1125	794489	keystroke_Key.space	Key.space	n/a
397.4135	0.135	794827	keystroke_c	c	n/a
397.481	0.101	794962	keystroke_h	h	n/a
397.706	0.1015	795412	keystroke_o	o	n/a
397.74	0.112	795480	keystroke_i	i	n/a
397.841	0.0785	795682	keystroke_c	c	n/a
398.0435	0.0675	796087	keystroke_e	e	n/a
398.3365	0.078	796673	keystroke_Key.enter	Key.enter	n/a
398.418	6.736	796836	prompt	n/a	establish requirement friendship industry\n
399.562	0.0675	799124	keystroke_e	e	n/a
399.7195	0.1355	799439	keystroke_s	s	n/a
399.8435	0.056	799687	keystroke_t	t	n/a
399.9445	0.169	799889	keystroke_a	a	n/a
400.1245	0.0675	800249	keystroke_b	b	n/a
400.226	0.1235	800452	keystroke_l	l	n/a
400.282	0.1465	800564	keystroke_i	i	n/a
400.4395	0.09	800879	keystroke_s	s	n/a
400.5745	0.124	801149	keystroke_h	h	n/a
400.867	0.1015	801734	keystroke_Key.space	Key.space	n/a
401.3285	0.1235	802657	keystroke_r	r	n/a
401.396	0.1125	802792	keystroke_e	e	n/a
401.475	0.0895	802950	keystroke_q	q	n/a
401.621	0.124	803242	keystroke_u	u	n/a
401.666	0.101	803332	keystroke_i	i	n/a
401.7335	0.135	803467	keystroke_r	r	n/a
401.857	0.079	803714	keystroke_e	e	n/a
401.947	0.09	803894	keystroke_m	m	n/a
402.0485	0.079	804097	keystroke_e	e	n/a
402.161	0.09	804322	keystroke_n	n	n/a
402.2845	0.0675	804569	keystroke_t	t	n/a
402.4085	0.1015	804817	keystroke_Key.space	Key.space	n/a
402.5995	0.045	805199	keystroke_f	f	n/a
402.746	0.0785	805492	keystroke_r	r	n/a
402.8695	0.0905	805739	keystroke_i	i	n/a
402.971	0.056	805942	keystroke_e	e	n/a
403.0835	0.1015	806167	keystroke_n	n	n/a
403.1845	0.079	806369	keystroke_d	d	n/a
403.511	0.101	807022	keystroke_s	s	n/a
403.5895	0.124	807179	keystroke_h	h	n/a
403.646	0.101	807292	keystroke_i	i	n/a
403.702	0.1015	807404	keystroke_p	p	n/a
403.815	0.101	807630	keystroke_Key.space	Key.space	n/a
403.972	0.1015	807944	keystroke_i	i	n/a
404.0175	0.112	808035	keystroke_n	n	n/a
404.186	0.1015	808372	keystroke_d	d	n/a
404.31	0.0785	808620	keystroke_u	u	n/a
404.4445	0.102	808889	keystroke_s	s	n/a
404.5345	0.0565	809069	keystroke_t	t	n/a
404.692	0.09	809384	keystroke_r	r	n/a
404.771	0.1125	809542	keystroke_y	y	n/a
405.097	0.0565	810194	keystroke_Key.enter	Key.enter	n/a
405.157	6.4545	810314	prompt	n/a	captain disco cemetery guinea\n
405.8395	0.113	811679	keystroke_c	c	n/a
405.9635	0.1575	811927	keystroke_a	a	n/a
406.177	0.079	812354	keystroke_p	p	n/a
406.3795	0.09	812759	keystroke_t	t	n/a
406.616	0.056	813232	keystroke_a	a	n/a
406.8635	0.045	813727	keystroke_i	i	n/a
406.8745	0.1355	813749	keystroke_n	n	n/a
407.167	0.0905	814334	keystroke_Key.space	Key.space	n/a
407.3135	0.101	814627	keystroke_d	d	n/a
407.426	0.1015	814852	keystroke_i	i	n/a
407.516	0.0785	815032	keystroke_s	s	n/a
407.662	0.0905	815324	keystroke_c	c	n/a
407.786	0.0785	815572	keystroke_o	o	n/a
407.921	0.101	815842	keystroke_Key.space	Key.space	n/a
408.146	0.0785	816292	keystroke_c	c	n/a
408.326	0.056	816652	keystroke_e	e	n/a
408.4275	0.0785	816855	keystroke_m	m	n/a
408.5285	0.0785	817057	keystroke_e	e	n/a
408.686	0.101	817372	keystroke_t	t	n/a
408.911	0.09	817822	keystroke_r	r	n/a
409.001	0.09	818002	keystroke_e	e	n/a
409.2935	0.045	818587	keystroke_Key.backspace	Key.backspace	n/a
409.4285	0.0785	818857	keystroke_Key.backspace	Key.backspace	n/a
409.541	0.101	819082	keystroke_e	e	n/a
409.6085	0.09	819217	keystroke_r	r	n/a
409.7885	0.09	819577	keystroke_y	y	n/a
409.867	0.1015	819734	keystroke_Key.space	Key.space	n/a
410.6655	0.09	821331	keystroke_g	g	n/a
410.722	0.101	821444	keystroke_u	u	n/a
410.7895	0.1015	821579	keystroke_i	i	n/a
410.9475	0.1125	821895	keystroke_n	n	n/a
411.2845	0.1125	822569	keystroke_e	e	n/a
411.33	0.1005	822660	keystroke_a	a	n/a
411.5545	0.056	823109	keystroke_Key.enter	Key.enter	n/a
411.6145	4.632	823229	prompt	n/a	hairy heights grounds blowing\n
412.387	0.124	824774	keystroke_h	h	n/a
412.5	0.0445	825000	keystroke_a	a	n/a
412.6005	0.09	825201	keystroke_i	i	n/a
412.6795	0.0675	825359	keystroke_r	r	n/a
412.758	0.124	825516	keystroke_y	y	n/a
412.86	0.0895	825720	keystroke_Key.space	Key.space	n/a
413.017	0.0785	826034	keystroke_h	h	n/a
413.1525	0.1005	826305	keystroke_e	e	n/a
413.2645	0.101	826529	keystroke_i	i	n/a
413.377	0.056	826754	keystroke_g	g	n/a
413.4445	0.1015	826889	keystroke_h	h	n/a
413.557	0.101	827114	keystroke_t	t	n/a
413.647	0.079	827294	keystroke_s	s	n/a
413.737	0.101	827474	keystroke_Key.space	Key.space	n/a
413.9845	0.068	827969	keystroke_g	g	n/a
414.1645	0.08	828329	keystroke_r	r	n/a
414.2545	0.1125	828509	keystroke_o	o	n/a
414.311	0.0895	828622	keystroke_u	u	n/a
414.5135	0.0895	829027	keystroke_n	n	n/a
414.6605	0.1225	829321	keystroke_d	d	n/a
414.7605	0.1015	829521	keystroke_s	s	n/a
414.918	0.1015	829836	keystroke_Key.space	Key.space	n/a
415.1995	0.056	830399	keystroke_b	b	n/a
415.3125	0.056	830625	keystroke_l	l	n/a
415.5145	0.0675	831029	keystroke_o	o	n/a
415.672	0.101	831344	keystroke_w	w	n/a
415.807	0.1125	831614	keystroke_i	i	n/a
415.8745	0.1235	831749	keystroke_n	n	n/a
416.01	0.067	832020	keystroke_g	g	n/a
416.1785	0.067	832357	keystroke_Key.enter	Key.enter	n/a
416.2495	5.217	832499	prompt	n/a	sculpture oriented lots threat\n
417.045	0.0675	834090	keystroke_s	s	n/a
417.213	0.0675	834426	keystroke_c	c	n/a
417.348	0.1125	834696	keystroke_u	u	n/a
417.4155	0.1015	834831	keystroke_l	l	n/a
417.697	0.0785	835394	keystroke_p	p	n/a
417.933	0.0565	835866	keystroke_t	t	n/a
418.2145	0.09	836429	keystroke_u	u	n/a
418.271	0.135	836542	keystroke_r	r	n/a
418.3495	0.0785	836699	keystroke_e	e	n/a
418.845	0.157	837690	keystroke_Key.space	Key.space	n/a
419.058	0.079	838116	keystroke_o	o	n/a
419.182	0.09	838364	keystroke_r	r	n/a
419.295	0.101	838590	keystroke_i	i	n/a
419.407	0.0675	838814	keystroke_e	e	n/a
419.5755	0.1015	839151	keystroke_n	n	n/a
419.6995	0.079	839399	keystroke_t	t	n/a
419.857	0.056	839714	keystroke_e	e	n/a
420.0145	0.0565	840029	keystroke_d	d	n/a
420.127	0.09	840254	keystroke_Key.space	Key.space	n/a
420.206	0.09	840412	keystroke_l	l	n/a
420.397	0.0785	840794	keystroke_o	o	n/a
420.442	0.1235	840884	keystroke_t	t	n/a
420.544	0.078	841088	keystroke_s	s	n/a
420.6555	0.1015	841311	keystroke_Key.space	Key.space	n/a
420.813	0.079	841626	keystroke_t	t	n/a
420.903	0.091	841806	keystroke_h	h	n/a
421.027	0.1235	842054	keystroke_r	r	n/a
421.083	0.135	842166	keystroke_e	e	n/a
421.207	0.135	842414	keystroke_a	a	n/a
421.2745	0.0785	842549	keystroke_t	t	n/a
421.387	0.0785	842774	keystroke_Key.enter	Key.enter	n/a
421.4695	6.0495	842939	prompt	n/a	petersburg scsi starter once\n
422.3655	0.034	844731	keystroke_p	p	n/a
422.467	0.1235	844934	keystroke_e	e	n/a
422.5795	0.1125	845159	keystroke_t	t	n/a
422.76	0.0895	845520	keystroke_e	e	n/a
423.232	0.0675	846464	keystroke_r	r	n/a
423.401	0.0895	846802	keystroke_s	s	n/a
423.7835	0.101	847567	keystroke_b	b	n/a
423.9745	0.09	847949	keystroke_u	u	n/a
424.0645	0.056	848129	keystroke_r	r	n/a
424.2445	0.09	848489	keystroke_g	g	n/a
424.357	0.1125	848714	keystroke_Key.space	Key.space	n/a
424.852	0.079	849704	keystroke_s	s	n/a
425.0435	0.056	850087	keystroke_c	c	n/a
425.1555	0.079	850311	keystroke_i	i	n/a
425.5495	0.0675	851099	keystroke_Key.backspace	Key.backspace	n/a
425.6505	0.079	851301	keystroke_s	s	n/a
425.752	0.101	851504	keystroke_i	i	n/a
425.9435	0.101	851887	keystroke_Key.space	Key.space	n/a
426.0555	0.1015	852111	keystroke_s	s	n/a
426.1795	0.068	852359	keystroke_t	t	n/a
426.3035	0.101	852607	keystroke_a	a	n/a
426.3935	0.045	852787	keystroke_r	r	n/a
426.5395	0.0675	853079	keystroke_t	t	n/a
426.663	0.1125	853326	keystroke_e	e	n/a
426.7645	0.0675	853529	keystroke_r	r	n/a
426.8435	0.0895	853687	keystroke_Key.space	Key.space	n/a
426.9445	0.1125	853889	keystroke_o	o	n/a
427.012	0.101	854024	keystroke_n	n	n/a
427.1245	0.0675	854249	keystroke_c	c	n/a
427.3495	0.056	854699	keystroke_e	e	n/a
427.4395	0.0785	854879	keystroke_Key.enter	Key.enter	n/a
